timestamp,accel_x,accel_y,accel_z,gyro_x,gyro_y,gyro_z,step_timestamp
2024-12-13 15:17:28.861,-0.34008,3.97657,9.31795,-0.0190126,-0.0238994,0.0186308,0
2024-12-13 15:17:28.861,-0.337687,3.97657,9.31795,-0.0190126,-0.0238994,0.0186308,0
2024-12-13 15:17:28.863,-0.344866,3.97897,9.31795,-0.0184018,-0.0220669,0.01802,0
2024-12-13 15:17:28.863,-0.344866,3.97897,9.31795,-0.0184018,-0.0220669,0.01802,0
2024-12-13 15:17:28.863,-0.344866,3.97897,9.31795,-0.0184018,-0.0220669,0.01802,0
2024-12-13 15:17:28.863,-0.344866,3.97897,9.31795,-0.0184018,-0.0220669,0.01802,0
2024-12-13 15:17:28.866,-0.359223,3.96939,9.31556,-0.0165692,-0.0232886,0.01802,0
2024-12-13 15:17:28.866,-0.359223,3.96939,9.31556,-0.0165692,-0.0232886,0.01802,0
2024-12-13 15:17:28.866,-0.359223,3.96939,9.31556,-0.0165692,-0.0232886,0.01802,0
2024-12-13 15:17:28.866,-0.359223,3.96939,9.31556,-0.0165692,-0.0232886,0.01802,0
2024-12-13 15:17:28.866,-0.359223,3.96939,9.31556,-0.0165692,-0.0232886,0.01802,0
2024-12-13 15:17:28.866,-0.359223,3.96939,9.31556,-0.0165692,-0.0232886,0.01802,0
2024-12-13 15:17:28.866,-0.359223,3.96939,9.31556,-0.0165692,-0.0232886,0.01802,0
2024-12-13 15:17:28.866,-0.359223,3.96939,9.31556,-0.0165692,-0.0232886,0.01802,0
2024-12-13 15:17:28.868,-0.359223,3.96939,9.31795,-0.0165692,-0.0232886,0.01802,0
2024-12-13 15:17:28.868,-0.375972,3.967,9.31795,-0.0165692,-0.0232886,0.01802,0
2024-12-13 15:17:28.868,-0.375972,3.967,9.31795,-0.0165692,-0.0232886,0.01802,0
2024-12-13 15:17:28.873,-0.352044,3.96222,9.32274,-0.0184018,-0.0165692,0.0155766,0
2024-12-13 15:17:28.873,-0.352044,3.96222,9.32274,-0.0184018,-0.0165692,0.0155766,0
2024-12-13 15:17:28.873,-0.352044,3.96222,9.32274,-0.0184018,-0.0165692,0.0155766,0
2024-12-13 15:17:28.875,-0.364008,3.95743,9.30838,-0.0196235,-0.0159584,0.0119115,0
2024-12-13 15:17:28.875,-0.364008,3.95743,9.30838,-0.0196235,-0.0159584,0.0119115,0
2024-12-13 15:17:28.877,-0.366401,3.97179,9.31316,-0.0165692,-0.0153475,0.0113007,0
2024-12-13 15:17:28.877,-0.366401,3.97179,9.31316,-0.0165692,-0.0153475,0.0113007,0
2024-12-13 15:17:28.880,-0.366401,3.97179,9.31556,-0.0165692,-0.0141258,0.010079,0
2024-12-13 15:17:28.880,-0.354437,3.98136,9.31556,-0.0165692,-0.0141258,0.010079,0
2024-12-13 15:17:28.882,-0.354437,3.98136,9.31556,-0.0171801,-0.0147367,0.00702474,0
2024-12-13 15:17:28.882,-0.347258,3.98136,9.30838,-0.0171801,-0.0147367,0.00702474,0
2024-12-13 15:17:28.882,-0.347258,3.98136,9.30838,-0.0171801,-0.0147367,0.00702474,0
2024-12-13 15:17:28.882,-0.347258,3.98136,9.30838,-0.0171801,-0.0147367,0.00702474,0
2024-12-13 15:17:28.885,-0.34008,3.99093,9.30359,-0.0165692,-0.0122933,0.00458135,0
2024-12-13 15:17:28.885,-0.34008,3.99093,9.30359,-0.0165692,-0.0122933,0.00458135,0
2024-12-13 15:17:28.887,-0.354437,3.97657,9.29881,-0.0165692,-0.013515,0.00274881,0
2024-12-13 15:17:28.887,-0.354437,3.97657,9.29881,-0.0165692,-0.013515,0.00274881,0
2024-12-13 15:17:28.887,-0.354437,3.97657,9.29881,-0.0165692,-0.013515,0.00274881,0
2024-12-13 15:17:28.889,-0.35683,3.96222,9.28684,-0.0171801,-0.0147367,0.00152712,0
2024-12-13 15:17:28.892,-0.344866,3.97418,9.27727,-0.0184018,-0.013515,0.000305424,0
2024-12-13 15:17:28.892,-0.344866,3.97418,9.27727,-0.0184018,-0.013515,0.000305424,0
2024-12-13 15:17:28.892,-0.344866,3.97418,9.27727,-0.0184018,-0.013515,0.000305424,0
2024-12-13 15:17:28.894,-0.354437,3.96222,9.2677,-0.0184018,-0.013515,0.000305424,0
2024-12-13 15:17:28.894,-0.354437,3.96222,9.2677,-0.0184018,-0.013515,0.000305424,0
2024-12-13 15:17:28.896,-0.375972,3.95264,9.2677,-0.0196235,-0.00984991,-0.00335966,0
2024-12-13 15:17:28.896,-0.375972,3.95264,9.2677,-0.0196235,-0.00984991,-0.00335966,0
2024-12-13 15:17:28.899,-0.397508,3.95025,9.27966,-0.0190126,-0.00618483,-0.00397051,0
2024-12-13 15:17:28.901,-0.414257,3.92872,9.28445,-0.0159584,-0.00435229,-0.00397051,0
2024-12-13 15:17:28.901,-0.414257,3.92872,9.28445,-0.0159584,-0.00435229,-0.00397051,0
2024-12-13 15:17:28.901,-0.414257,3.92872,9.28445,-0.0159584,-0.00435229,-0.00397051,0
2024-12-13 15:17:28.903,-0.428614,3.90479,9.29402,-0.0141258,-0.000687203,-0.00397051,0
2024-12-13 15:17:28.906,-0.440578,3.89282,9.29163,-0.0110716,0.00481042,-0.00458135,0
2024-12-13 15:17:28.907,-0.440578,3.89282,9.29163,-0.0165692,0.00725381,-0.00458135,0
2024-12-13 15:17:28.908,-0.447757,3.89043,9.28924,-0.0165692,0.00725381,-0.00458135,0
2024-12-13 15:17:28.908,-0.447757,3.89043,9.28924,-0.0165692,0.00725381,-0.00458135,0
2024-12-13 15:17:28.910,-0.445364,3.88564,9.28206,-0.0116825,0.0127514,-0.00458135,0
2024-12-13 15:17:28.910,-0.445364,3.88564,9.28206,-0.0116825,0.0127514,-0.00458135,0
2024-12-13 15:17:28.913,-0.452543,3.88564,9.2677,-0.00923906,0.0133623,-0.00213797,0
2024-12-13 15:17:28.913,-0.452543,3.88564,9.2677,-0.00923906,0.0133623,-0.00213797,0
2024-12-13 15:17:28.915,-0.474078,3.89761,9.26292,-0.00679568,0.0176382,-0.00152712,0
2024-12-13 15:17:28.920,-0.490828,3.91197,9.2339,-0.00435229,0.0170274,0.000916271,0
2024-12-13 15:17:28.920,-0.490828,3.91197,9.2339,-0.00435229,0.0170274,0.000916271,0
2024-12-13 15:17:28.920,-0.490828,3.91197,9.2339,-0.00435229,0.0170274,0.000916271,0
2024-12-13 15:17:28.920,-0.490828,3.91197,9.2339,-0.00435229,0.0170274,0.000916271,0
2024-12-13 15:17:28.922,-0.490828,3.89282,9.21237,-0.0019089,0.0182491,0.00152712,0
2024-12-13 15:17:28.925,-0.500399,3.88325,9.20997,-0.00313059,0.0188599,0.00274881,0
2024-12-13 15:17:28.927,-0.500399,3.88325,9.20997,-0.00313059,0.0176382,0.00397051,0
2024-12-13 15:17:28.927,-0.505185,3.89282,9.20997,-0.00313059,0.0176382,0.00397051,0
2024-12-13 15:17:28.929,-0.50997,3.88325,9.19801,-0.00251974,0.0139731,0.0064139,0
2024-12-13 15:17:28.932,-0.514756,3.88325,9.18365,-0.00129805,0.00908635,0.00885729,0
2024-12-13 15:17:28.934,-0.514756,3.89761,9.18126,-0.00251974,0.00725381,0.0106898,0
2024-12-13 15:17:28.934,-0.50997,3.89761,9.18126,-0.00251974,0.00725381,0.0106898,0
2024-12-13 15:17:28.936,-0.517149,3.87847,9.17169,-0.00251974,0.00725381,0.0106898,0
2024-12-13 15:17:28.936,-0.517149,3.87847,9.17169,-0.00251974,0.00725381,0.0106898,0
2024-12-13 15:17:28.939,-0.519542,3.8689,9.15494,-0.00374144,-0.000687203,0.0161875,0
2024-12-13 15:17:28.939,-0.519542,3.8689,9.15494,-0.00374144,-0.000687203,0.0161875,0
2024-12-13 15:17:28.939,-0.519542,3.8689,9.15494,-0.00374144,-0.000687203,0.0161875,0
2024-12-13 15:17:28.943,-0.502792,3.88564,9.1334,-0.00618483,-0.0110716,0.0210742,0
2024-12-13 15:17:28.943,-0.502792,3.88564,9.1334,-0.00618483,-0.0110716,0.0210742,0
2024-12-13 15:17:28.946,-0.493221,3.89043,9.10948,-0.00740652,-0.0141258,0.0216851,0
2024-12-13 15:17:28.946,-0.493221,3.89043,9.10948,-0.00740652,-0.0141258,0.0216851,0
2024-12-13 15:17:28.948,-0.481256,3.89282,9.11426,-0.00984991,-0.0171801,0.0235176,0
2024-12-13 15:17:28.948,-0.481256,3.89282,9.11426,-0.00984991,-0.0171801,0.0235176,0
2024-12-13 15:17:28.950,-0.478864,3.88564,9.11426,-0.0110716,-0.0171801,0.0241285,0
2024-12-13 15:17:28.953,-0.4669,3.88325,9.10708,-0.013515,-0.0190126,0.0284044,0
2024-12-13 15:17:28.953,-0.4669,3.88325,9.10708,-0.013515,-0.0190126,0.0284044,0
2024-12-13 15:17:28.955,-0.452543,3.88564,9.11426,-0.0159584,-0.0171801,0.0290152,0
2024-12-13 15:17:28.958,-0.445364,3.89043,9.11426,-0.0171801,-0.0165692,0.0277936,0
2024-12-13 15:17:28.958,-0.445364,3.89043,9.11426,-0.0171801,-0.0165692,0.0277936,0
2024-12-13 15:17:28.960,-0.4334,3.9,9.12862,-0.0202343,-0.0159584,0.0302369,0
2024-12-13 15:17:28.960,-0.4334,3.9,9.12862,-0.0202343,-0.0159584,0.0302369,0
2024-12-13 15:17:28.962,-0.431007,3.89282,9.12862,-0.0208452,-0.0122933,0.0320695,0
2024-12-13 15:17:28.962,-0.431007,3.89282,9.12862,-0.0208452,-0.0122933,0.0320695,0
2024-12-13 15:17:28.965,-0.421436,3.87847,9.13101,-0.0202343,-0.0116825,0.0308478,0
2024-12-13 15:17:28.967,-0.402293,3.88564,9.14297,-0.0226777,-0.00740652,0.0308478,0
2024-12-13 15:17:28.969,-0.385544,3.89282,9.14537,-0.0202343,-0.00313059,0.0308478,0
2024-12-13 15:17:28.972,-0.385544,3.89282,9.14537,-0.0208452,-0.0019089,0.0296261,0
2024-12-13 15:17:28.972,-0.371187,3.89043,9.14058,-0.0208452,-0.0019089,0.0296261,0
2024-12-13 15:17:28.974,-0.361615,3.89522,9.1334,-0.0208452,-0.0019089,0.0296261,0
2024-12-13 15:17:28.976,-0.349651,3.90239,9.13101,-0.021456,0.00603212,0.0302369,0
2024-12-13 15:17:28.977,-0.349651,3.90239,9.13101,-0.021456,0.00603212,0.0302369,0
2024-12-13 15:17:28.979,-0.35683,3.91197,9.13819,-0.0208452,0.00664296,0.0314586,0
2024-12-13 15:17:28.981,-0.368794,3.91914,9.12862,-0.0184018,0.0109189,0.0290152,0
2024-12-13 15:17:28.983,-0.371187,3.91914,9.11426,-0.0190126,0.0133623,0.0277936,0
2024-12-13 15:17:28.983,-0.371187,3.91914,9.11426,-0.0190126,0.0133623,0.0277936,0
2024-12-13 15:17:28.986,-0.368794,3.91914,9.11187,-0.0184018,0.0109189,0.0277936,0
2024-12-13 15:17:28.988,-0.361615,3.93111,9.11905,-0.0184018,0.010308,0.025961,0
2024-12-13 15:17:28.991,-0.361615,3.95025,9.12144,-0.0171801,0.0115297,0.0253502,0
2024-12-13 15:17:28.991,-0.354437,3.95025,9.12144,-0.0171801,0.0115297,0.0253502,0
2024-12-13 15:17:28.993,-0.359223,3.967,9.10948,-0.0177909,0.00786466,0.0247393,0
2024-12-13 15:17:28.995,-0.361615,3.97657,9.09512,-0.0153475,0.00847551,0.0235176,0
2024-12-13 15:17:28.995,-0.361615,3.97657,9.09512,-0.0153475,0.00847551,0.0235176,0
2024-12-13 15:17:28.998,-0.364008,3.98614,9.07598,-0.0153475,0.00847551,0.0235176,0
2024-12-13 15:17:28.999,-0.364008,3.98614,9.07598,-0.0165692,0.00114534,0.0247393,0
2024-12-13 15:17:29.000,-0.368794,3.99093,9.07358,-0.0165692,0.00114534,0.0247393,0
2024-12-13 15:17:29.002,-0.361615,3.99571,9.06162,-0.0165692,-0.000687203,0.0247393,0
2024-12-13 15:17:29.002,-0.361615,3.99571,9.06162,-0.0165692,-0.000687203,0.0247393,0
2024-12-13 15:17:29.005,-0.352044,4.01246,9.03769,-0.0184018,-0.00251974,0.0235176,0
2024-12-13 15:17:29.005,-0.352044,4.01246,9.03769,-0.0184018,-0.00251974,0.0235176,0
2024-12-13 15:17:29.009,-0.344866,4.04118,9.00898,-0.021456,-0.00557398,0.0222959,0
2024-12-13 15:17:29.009,-0.344866,4.04118,9.00898,-0.021456,-0.00557398,0.0222959,0
2024-12-13 15:17:29.012,-0.34008,4.03639,8.99941,-0.0226777,-0.00496313,0.0235176,0
2024-12-13 15:17:29.012,-0.34008,4.03639,8.99941,-0.0226777,-0.00496313,0.0235176,0
2024-12-13 15:17:29.014,-0.344866,4.034,8.99462,-0.0257319,-0.0019089,0.0235176,0
2024-12-13 15:17:29.016,-0.347258,4.034,9.00898,-0.0257319,-0.0019089,0.0235176,0
2024-12-13 15:17:29.019,-0.35683,4.034,9.01855,-0.0355055,-0.00496313,0.0222959,0
2024-12-13 15:17:29.019,-0.35683,4.034,9.01855,-0.0355055,-0.00496313,0.0222959,0
2024-12-13 15:17:29.021,-0.352044,4.03161,9.01616,-0.0403923,-0.00374144,0.0210742,0
2024-12-13 15:17:29.021,-0.352044,4.03161,9.01616,-0.0403923,-0.00374144,0.0210742,0
2024-12-13 15:17:29.021,-0.352044,4.03161,9.01616,-0.0403923,-0.00374144,0.0210742,0
2024-12-13 15:17:29.021,-0.352044,4.03161,9.01616,-0.0403923,-0.00374144,0.0210742,0
2024-12-13 15:17:29.026,-0.359223,4.02921,9.03051,-0.0458899,-0.00374144,0.0204634,0
2024-12-13 15:17:29.028,-0.347258,4.03879,9.04008,-0.0513875,-0.00374144,0.0210742,0
2024-12-13 15:17:29.031,-0.347258,4.03879,9.05444,-0.0568851,-0.0019089,0.0216851,0
2024-12-13 15:17:29.031,-0.344866,4.03639,9.05444,-0.0568851,-0.0019089,0.0216851,0
2024-12-13 15:17:29.033,-0.344866,4.03639,9.08555,-0.0623828,-0.00251974,0.0216851,0
2024-12-13 15:17:29.033,-0.344866,4.03639,9.08555,-0.0623828,-0.00251974,0.0216851,0
2024-12-13 15:17:29.033,-0.344866,4.03639,9.08555,-0.0623828,-0.00251974,0.0216851,0
2024-12-13 15:17:29.033,-0.344866,4.03639,9.08555,-0.0623828,-0.00251974,0.0216851,0
2024-12-13 15:17:29.033,-0.344866,4.03639,9.08555,-0.0623828,-0.00251974,0.0216851,0
2024-12-13 15:17:29.033,-0.344866,4.03639,9.08555,-0.0623828,-0.00251974,0.0216851,0
2024-12-13 15:17:29.033,-0.344866,4.03639,9.08555,-0.0623828,-0.00251974,0.0216851,0
2024-12-13 15:17:29.034,-0.344866,4.03639,9.08555,-0.0623828,-0.00251974,0.0216851,0
2024-12-13 15:17:29.045,-0.325723,4.01964,9.2363,-0.0819299,0.000534491,0.0235176,0
2024-12-13 15:17:29.047,-0.325723,4.01964,9.2363,-0.0849841,0.000534491,0.0241285,0
2024-12-13 15:17:29.047,-0.328116,4.02204,9.3012,-0.0849841,0.000534491,0.0241285,0
2024-12-13 15:17:29.047,-0.328116,4.02204,9.3012,-0.0849841,0.000534491,0.0241285,0
2024-12-13 15:17:29.049,-0.328116,4.02204,9.3012,-0.085595,0.00114534,0.025961,0
2024-12-13 15:17:29.049,-0.328116,4.01246,9.33949,-0.085595,0.00114534,0.025961,0
2024-12-13 15:17:29.049,-0.328116,4.01246,9.33949,-0.085595,0.00114534,0.025961,0
2024-12-13 15:17:29.052,-0.311366,3.99571,9.38495,-0.085595,0.00297788,0.025961,0
2024-12-13 15:17:29.054,-0.311366,3.99093,9.43281,-0.0868167,0.00297788,0.0271827,0
2024-12-13 15:17:29.056,-0.313759,3.98136,9.48306,-0.0868167,0.00542127,0.025961,0
2024-12-13 15:17:29.056,-0.313759,3.98136,9.48306,-0.0868167,0.00542127,0.025961,0
2024-12-13 15:17:29.056,-0.313759,3.98136,9.48306,-0.0868167,0.00542127,0.025961,0
2024-12-13 15:17:29.059,-0.294616,3.96222,9.52852,-0.0880384,0.00419957,0.0271827,0
2024-12-13 15:17:29.061,-0.289831,3.95025,9.5692,-0.0862058,0.00542127,0.0277936,0
2024-12-13 15:17:29.061,-0.289831,3.95025,9.5692,-0.0862058,0.00542127,0.0277936,0
2024-12-13 15:17:29.064,-0.289831,3.94547,9.60748,-0.0837624,0.00542127,0.0277936,0
2024-12-13 15:17:29.066,-0.275175,3.93829,9.65295,-0.081319,0.00175619,0.0277936,0
2024-12-13 15:17:29.068,-0.253639,3.92872,9.68884,-0.0752106,-0.00129805,0.0271827,0
2024-12-13 15:17:29.073,-0.229711,3.94547,9.71037,-0.0709346,-0.00374144,0.0265719,0
2024-12-13 15:17:29.073,-0.229711,3.94547,9.71037,-0.0709346,-0.00374144,0.0265719,0
2024-12-13 15:17:29.078,-0.191426,3.91197,9.73669,-0.0709346,-0.00374144,0.0265719,0
2024-12-13 15:17:29.080,-0.165105,3.91675,9.73909,-0.0471116,-0.0208452,0.0216851,0
2024-12-13 15:17:29.082,-0.155533,3.90718,9.73669,-0.0397814,-0.0269536,0.01802,0
2024-12-13 15:17:29.085,-0.148355,3.89043,9.7343,-0.0318404,-0.0330621,0.0174091,0
2024-12-13 15:17:29.085,-0.148355,3.89043,9.7343,-0.0318404,-0.0330621,0.0174091,0
2024-12-13 15:17:29.087,-0.12682,3.89282,9.71277,-0.0257319,-0.0355055,0.0161875,0
2024-12-13 15:17:29.089,-0.107677,3.89761,9.68166,-0.0196235,-0.0403923,0.0155766,0
2024-12-13 15:17:29.092,-0.102891,3.89522,9.66012,-0.00862822,-0.0422248,0.0125224,0
2024-12-13 15:17:29.094,-0.100499,3.88564,9.6362,-0.0019089,-0.0458899,0.0113007,0
2024-12-13 15:17:29.096,-0.0717847,3.87847,9.61227,0.00419957,-0.0489441,0.00824644,0
2024-12-13 15:17:29.099,-0.0502493,3.88325,9.57638,0.0121406,-0.0489441,0.0051922,0
2024-12-13 15:17:29.104,-0.0143569,3.87368,9.48066,0.022525,-0.0483333,0.00274881,0
2024-12-13 15:17:29.106,-0.0143569,3.87368,9.45673,0.0310769,-0.0477224,-0.000305424,0
2024-12-13 15:17:29.106,0.00957129,3.87129,9.45673,0.0310769,-0.0477224,-0.000305424,0
2024-12-13 15:17:29.108,0.0287139,3.87847,9.42802,0.0341311,-0.0471116,-0.00213797,0
2024-12-13 15:17:29.111,0.0430708,3.88564,9.37538,0.0390179,-0.0440574,-0.00213797,0
2024-12-13 15:17:29.113,0.0526421,3.89043,9.32513,0.0414613,-0.0422248,-0.00458135,0
2024-12-13 15:17:29.115,0.0550349,3.88564,9.28445,0.0451263,-0.0385597,-0.0064139,0
2024-12-13 15:17:29.118,0.0693919,3.87129,9.25065,0.0457372,-0.0348946,-0.00580305,0
2024-12-13 15:17:29.120,0.0789631,3.8689,9.22672,0.0481806,-0.0306187,-0.0051922,0
2024-12-13 15:17:29.122,0.0837488,3.87129,9.20519,0.0475697,-0.0251211,-0.0051922,0
2024-12-13 15:17:29.125,0.0933201,3.87368,9.19083,0.0475697,-0.0251211,-0.0051922,0
2024-12-13 15:17:29.127,0.11007,3.8665,9.1669,0.0500131,-0.0116825,-0.00274881,0
2024-12-13 15:17:29.129,0.12682,3.84257,9.1358,0.0494023,-0.00251974,-0.00274881,0
2024-12-13 15:17:29.132,0.148355,3.84257,9.11426,0.0475697,0.00542127,-0.00213797,0
2024-12-13 15:17:29.137,0.16989,3.81147,9.11665,0.0481806,0.022525,-0.000916271,0
2024-12-13 15:17:29.138,0.16989,3.81147,9.11665,0.0469589,0.0292443,-0.000305424,0
2024-12-13 15:17:29.139,0.179462,3.79472,9.09273,0.0469589,0.0292443,-0.000305424,0
2024-12-13 15:17:29.141,0.191426,3.78754,9.08794,0.0475697,0.038407,-0.000305424,0
2024-12-13 15:17:29.144,0.210568,3.79232,9.09512,0.0475697,0.0451263,-0.00397051,0
2024-12-13 15:17:29.146,0.234497,3.79232,9.09512,0.046348,0.0518457,-0.00397051,0
2024-12-13 15:17:29.148,0.248854,3.78754,9.09512,0.0481806,0.0603975,-0.00763559,0
2024-12-13 15:17:29.151,0.265603,3.79232,9.10469,0.0494023,0.0695602,-0.00885729,0
2024-12-13 15:17:29.153,0.294616,3.78993,9.11905,0.0512348,0.0762796,-0.0131332,0
2024-12-13 15:17:29.155,0.304188,3.77797,9.12862,0.0567324,0.082388,-0.0161875,0
2024-12-13 15:17:29.158,0.316152,3.7684,9.15255,0.0610084,0.0884965,-0.0222959,0
2024-12-13 15:17:29.160,0.354437,3.77557,9.17647,0.066506,0.0964375,-0.0265719,0
2024-12-13 15:17:29.165,0.387936,3.78993,9.2004,0.0732253,0.104379,-0.0387888,0
2024-12-13 15:17:29.165,0.41665,3.79472,9.22672,0.0732253,0.104379,-0.0387888,0
2024-12-13 15:17:29.167,0.431007,3.81865,9.23151,0.0811663,0.104379,-0.0455081,0
2024-12-13 15:17:29.170,0.45015,3.84736,9.24826,0.0884965,0.108044,-0.0516166,0
2024-12-13 15:17:29.174,0.505185,3.89761,9.25305,0.101935,0.109265,-0.0693312,0
2024-12-13 15:17:29.174,0.505185,3.89761,9.25305,0.101935,0.109265,-0.0693312,0
2024-12-13 15:17:29.177,0.517149,3.93111,9.25544,0.104989,0.107433,-0.0784939,0
2024-12-13 15:17:29.179,0.519542,3.95982,9.27249,0.11232,0.108654,-0.085824,0
2024-12-13 15:17:29.184,0.588933,4.01007,9.21476,0.120871,0.111709,-0.103539,0
2024-12-13 15:17:29.186,0.447757,3.99093,9.18126,0.125147,0.120261,-0.11881,0
2024-12-13 15:17:29.187,0.447757,3.99093,9.18126,0.128812,0.14164,-0.130416,0
2024-12-13 15:17:29.188,0.371187,3.97657,9.12862,0.128812,0.14164,-0.130416,0
2024-12-13 15:17:29.191,0.54347,4.02921,9.11665,0.130034,0.153246,-0.139579,0
2024-12-13 15:17:29.193,0.742074,4.07707,9.14537,0.133699,0.147138,-0.151796,0
2024-12-13 15:17:29.195,0.921835,4.10578,9.21955,0.136143,0.131256,-0.162791,0
2024-12-13 15:17:29.199,1.09651,4.13928,9.32513,0.140419,0.110487,-0.170732,0
2024-12-13 15:17:29.200,1.24726,4.15843,9.40648,0.140419,0.110487,-0.170732,0
2024-12-13 15:17:29.202,1.30469,4.16321,9.45195,0.147138,0.0616192,-0.194555,0
2024-12-13 15:17:29.205,1.30947,4.18235,9.45434,0.151414,0.0457372,-0.208604,0
2024-12-13 15:17:29.207,1.32622,4.21855,9.43041,0.151414,0.0377962,-0.222654,0
2024-12-13 15:17:29.210,1.34536,4.27597,9.39213,0.151414,0.0377962,-0.222654,0
2024-12-13 15:17:29.212,1.33579,4.3334,9.36341,0.156301,0.0377962,-0.252585,0
2024-12-13 15:17:29.214,1.30229,4.38126,9.37059,0.158744,0.0451263,-0.266635,0
2024-12-13 15:17:29.217,1.24008,4.41476,9.37538,0.163631,0.0548999,-0.279463,0
2024-12-13 15:17:29.221,1.11087,4.47936,9.38974,0.175237,0.0701711,-0.296566,0
2024-12-13 15:17:29.221,1.11087,4.47936,9.38974,0.175237,0.0701711,-0.296566,0
2024-12-13 15:17:29.226,0.80668,4.50329,9.39452,0.188675,0.0854423,-0.311838,0
2024-12-13 15:17:29.226,0.80668,4.50329,9.39452,0.188675,0.0854423,-0.311838,0
2024-12-13 15:17:29.231,0.708575,4.56551,9.37059,0.202725,0.106211,-0.322833,0
2024-12-13 15:17:29.231,0.708575,4.56551,9.37059,0.202725,0.106211,-0.322833,0
2024-12-13 15:17:29.233,0.758824,4.57029,9.37299,0.209444,0.100713,-0.32772,0
2024-12-13 15:17:29.235,0.825823,4.58226,9.41366,0.22044,0.0891073,-0.328941,0
2024-12-13 15:17:29.240,0.952942,4.62293,9.53809,0.238154,0.0396287,-0.337493,0
2024-12-13 15:17:29.240,0.952942,4.62293,9.53809,0.238154,0.0396287,-0.337493,0
2024-12-13 15:17:29.245,0.972084,4.67079,9.55963,0.257701,-0.0220669,-0.345434,0
2024-12-13 15:17:29.245,0.972084,4.67079,9.55963,0.257701,-0.0220669,-0.345434,0
2024-12-13 15:17:29.247,0.931406,4.67558,9.53809,0.263199,-0.0446682,-0.350321,0
2024-12-13 15:17:29.254,0.754038,4.74257,9.43759,0.273583,-0.081319,-0.358873,0
2024-12-13 15:17:29.254,0.754038,4.74257,9.43759,0.273583,-0.081319,-0.358873,0
2024-12-13 15:17:29.259,0.342473,4.76411,9.38734,0.272972,-0.057496,-0.359484,0
2024-12-13 15:17:29.259,0.342473,4.76411,9.38734,0.272972,-0.057496,-0.359484,0
2024-12-13 15:17:29.261,0.167498,4.75215,9.38256,0.272362,-0.029397,-0.355208,0
2024-12-13 15:17:29.264,0.167498,4.72343,9.39691,0.274805,-0.0147367,-0.344212,0
2024-12-13 15:17:29.264,0.105284,4.72343,9.39691,0.274805,-0.0147367,-0.344212,0
2024-12-13 15:17:29.268,0.200997,4.62533,9.42084,0.276027,-0.0171801,-0.311838,0
2024-12-13 15:17:29.271,0.297009,4.57029,9.41606,0.274805,-0.0306187,-0.294123,0
2024-12-13 15:17:29.273,0.297009,4.51765,9.41845,0.268086,-0.0465007,-0.278852,0
2024-12-13 15:17:29.273,0.354437,4.51765,9.41845,0.268086,-0.0465007,-0.278852,0
2024-12-13 15:17:29.276,0.366401,4.47936,9.43281,0.25648,-0.0672696,-0.264191,0
2024-12-13 15:17:29.280,0.32333,4.39801,9.44238,0.246706,-0.0868167,-0.247088,0
2024-12-13 15:17:29.283,0.301795,4.40279,9.41127,0.217996,-0.11797,-0.217156,0
2024-12-13 15:17:29.283,0.301795,4.40279,9.41127,0.217996,-0.11797,-0.217156,0
2024-12-13 15:17:29.285,0.256032,4.39083,9.39213,0.203336,-0.128354,-0.201274,0
2024-12-13 15:17:29.287,0.205783,4.40997,9.38016,0.190508,-0.135684,-0.186614,0
2024-12-13 15:17:29.290,0.181855,4.44108,9.36581,0.176459,-0.143625,-0.175008,0
2024-12-13 15:17:29.292,0.181855,4.46022,9.34666,0.161798,-0.149734,-0.160958,0
2024-12-13 15:17:29.294,0.177069,4.48654,9.32752,0.151414,-0.15401,-0.149963,0
2024-12-13 15:17:29.297,0.184247,4.51047,9.33231,0.139197,-0.160118,-0.143855,0
2024-12-13 15:17:29.299,0.189033,4.51765,9.34666,0.130034,-0.168059,-0.135914,0
2024-12-13 15:17:29.301,0.196211,4.52243,9.32513,0.125147,-0.176611,-0.130416,0
2024-12-13 15:17:29.304,0.191426,4.54636,9.27727,0.117817,-0.190661,-0.127972,0
2024-12-13 15:17:29.306,0.189033,4.57508,9.24826,0.111709,-0.203488,-0.12614,0
2024-12-13 15:17:29.308,0.198604,4.57747,9.22194,0.106211,-0.215095,-0.125529,0
2024-12-13 15:17:29.311,0.20339,4.58465,9.19083,0.104989,-0.229755,-0.126751,0
2024-12-13 15:17:29.313,0.177069,4.60618,9.17887,0.102546,-0.243804,-0.129805,0
2024-12-13 15:17:29.316,0.150748,4.60618,9.1693,0.102546,-0.258465,-0.132248,0
2024-12-13 15:17:29.320,0.119641,4.61097,9.03769,0.104989,-0.282288,-0.139579,0
2024-12-13 15:17:29.323,0.119641,4.61097,9.03769,0.104989,-0.282288,-0.139579,0
2024-12-13 15:17:29.325,0.0909273,4.59901,8.90609,0.101935,-0.300613,-0.146909,0
2024-12-13 15:17:29.325,0.0909273,4.59901,8.90609,0.101935,-0.300613,-0.146909,0
2024-12-13 15:17:29.327,0.0598206,4.58465,8.83909,0.100713,-0.307943,-0.150574,0
2024-12-13 15:17:29.330,0.026321,4.56311,8.76252,0.0976592,-0.311608,-0.154239,0
2024-12-13 15:17:29.332,-0.00957129,4.55593,8.68804,0.0909399,-0.310998,-0.156071,0
2024-12-13 15:17:29.334,-0.0526421,4.55354,8.63061,0.082388,-0.309776,-0.153628,0
2024-12-13 15:17:29.341,-0.165105,4.55115,8.41765,0.0457372,-0.299392,-0.154239,0
2024-12-13 15:17:29.341,-0.165105,4.55115,8.41765,0.0457372,-0.299392,-0.154239,0
2024-12-13 15:17:29.344,-0.200997,4.52961,8.3363,0.0237467,-0.296337,-0.151185,0
2024-12-13 15:17:29.346,-0.241675,4.50568,8.28365,0.00236703,-0.292061,-0.149963,0
2024-12-13 15:17:29.346,-0.241675,4.50568,8.28365,0.00236703,-0.292061,-0.149963,0
2024-12-13 15:17:29.349,-0.275175,4.49372,8.25733,-0.0220669,-0.288396,-0.14752,0
2024-12-13 15:17:29.351,-0.30658,4.46501,8.22383,-0.0471116,-0.283509,-0.141411,0
2024-12-13 15:17:29.353,-0.337687,4.44826,8.22622,-0.0770431,-0.281066,-0.135303,0
2024-12-13 15:17:29.356,-0.383151,4.43151,8.27408,-0.0770431,-0.281066,-0.135303,0
2024-12-13 15:17:29.363,-0.404686,4.31905,8.30758,-0.191882,-0.24808,-0.113923,0
2024-12-13 15:17:29.363,-0.404686,4.31905,8.30758,-0.191882,-0.24808,-0.113923,0
2024-12-13 15:17:29.365,-0.395115,4.28315,8.34587,-0.223036,-0.237085,-0.110258,0
2024-12-13 15:17:29.365,-0.395115,4.28315,8.34587,-0.223036,-0.237085,-0.110258,0
2024-12-13 15:17:29.367,-0.371187,4.25683,8.41287,-0.2548,-0.226701,-0.10476,0
2024-12-13 15:17:29.370,-0.35683,4.21855,8.49422,-0.279234,-0.210819,-0.102317,0
2024-12-13 15:17:29.372,-0.354437,4.19671,8.59711,-0.306722,-0.193715,-0.100484,0
2024-12-13 15:17:29.377,-0.352044,4.16082,8.83191,-0.33421,-0.17539,-0.098041,0
2024-12-13 15:17:29.377,-0.352044,4.16082,8.83191,-0.33421,-0.17539,-0.098041,0
2024-12-13 15:17:29.379,-0.344866,4.14168,8.94437,-0.373915,-0.135684,-0.0937651,0
2024-12-13 15:17:29.381,-0.337687,4.12732,9.05683,-0.388575,-0.117359,-0.0913217,0
2024-12-13 15:17:29.384,-0.328116,4.12493,9.15973,-0.396516,-0.0972011,-0.0901,0
2024-12-13 15:17:29.386,-0.328116,4.12014,9.25065,-0.406901,-0.0782648,-0.0901,0
2024-12-13 15:17:29.391,-0.344866,4.12253,9.40888,-0.405068,-0.041614,-0.0901,0
2024-12-13 15:17:29.391,-0.344866,4.12253,9.40888,-0.405068,-0.041614,-0.0901,0
2024-12-13 15:17:29.393,-0.361615,4.11775,9.46391,-0.404457,-0.0263428,-0.0913217,0
2024-12-13 15:17:29.396,-0.390329,4.11536,9.52852,-0.397127,-0.00923906,-0.0955976,0
2024-12-13 15:17:29.398,-0.41665,4.12253,9.58834,-0.386743,0.00419957,-0.0968193,0
2024-12-13 15:17:29.400,-0.445364,4.12732,9.61705,-0.375747,0.0188599,-0.0968193,0
2024-12-13 15:17:29.403,-0.474078,4.13689,9.6338,-0.360476,0.0310769,-0.0992627,0
2024-12-13 15:17:29.405,-0.512363,4.14407,9.65055,-0.347038,0.0396287,-0.101095,0
2024-12-13 15:17:29.407,-0.550648,4.14886,9.6673,-0.332988,0.046348,-0.103539,0
2024-12-13 15:17:29.410,-0.584148,4.16321,9.68166,-0.315274,0.050624,-0.104149,0
2024-12-13 15:17:29.412,-0.632004,4.17518,9.69123,-0.297559,0.0518457,-0.107815,0
2024-12-13 15:17:29.414,-0.663111,4.17996,9.69602,-0.285342,0.0475697,-0.109647,0
2024-12-13 15:17:29.417,-0.689432,4.20897,9.69841,-0.271293,0.046348,-0.11209,0
2024-12-13 15:17:29.419,-0.725324,4.24247,9.68166,-0.251745,0.0420721,-0.115756,0
2024-12-13 15:17:29.422,-0.754038,4.25922,9.65055,-0.23342,0.0390179,-0.116366,0
2024-12-13 15:17:29.424,-0.777966,4.28076,9.62423,-0.218149,0.0353528,-0.117588,0
2024-12-13 15:17:29.427,-0.80668,4.28076,9.57877,-0.190661,0.0310769,-0.122475,0
2024-12-13 15:17:29.429,-0.828216,4.28794,9.51895,-0.190661,0.0310769,-0.122475,0
2024-12-13 15:17:29.431,-0.847657,4.32622,9.45195,-0.190661,0.0310769,-0.122475,0
2024-12-13 15:17:29.433,-0.8668,4.35254,9.38734,-0.166838,0.0243575,-0.12614,0
2024-12-13 15:17:29.436,-0.890728,4.3669,9.32752,-0.152177,0.022525,-0.128583,0
2024-12-13 15:17:29.438,-0.919442,4.37647,9.26052,-0.144847,0.0194708,-0.129805,0
2024-12-13 15:17:29.440,-0.94337,4.38126,9.19322,-0.134463,0.0176382,-0.131638,0
2024-12-13 15:17:29.443,-0.972084,4.39083,9.1334,-0.127133,0.0115297,-0.132248,0
2024-12-13 15:17:29.445,-0.99362,4.40997,9.0688,-0.121635,0.0115297,-0.132859,0
2024-12-13 15:17:29.447,-1.0319,4.42433,9.01376,-0.116137,0.00908635,-0.134081,0
2024-12-13 15:17:29.450,-1.06062,4.44586,8.97548,-0.111861,0.00603212,-0.13347,0
2024-12-13 15:17:29.452,-1.07498,4.46261,8.93001,-0.108196,0.00481042,-0.131027,0
2024-12-13 15:17:29.455,-1.07737,4.46979,8.88216,-0.105753,0.00358873,-0.13347,0
2024-12-13 15:17:29.457,-1.07498,4.4674,8.84148,-0.10331,0.00236703,-0.132248,0
2024-12-13 15:17:29.459,-1.08933,4.46261,8.79602,-0.100866,0.00542127,-0.134692,0
2024-12-13 15:17:29.462,-1.1013,4.47219,8.75294,-0.0959794,0.0096972,-0.134692,0
2024-12-13 15:17:29.464,-1.08933,4.47697,8.70748,-0.0923143,0.0109189,-0.134081,0
2024-12-13 15:17:29.469,-1.07737,4.49851,8.65215,-0.081319,0.0188599,-0.136524,0
2024-12-13 15:17:29.471,-1.06301,4.50808,8.62822,-0.0752106,0.0194708,-0.137135,0
2024-12-13 15:17:29.472,-1.06301,4.50808,8.62822,-0.0752106,0.0194708,-0.137135,0
2024-12-13 15:17:29.476,-1.04626,4.52961,8.58754,-0.0587177,0.0194708,-0.142633,0
2024-12-13 15:17:29.478,-1.0319,4.54876,8.55165,-0.0507767,0.0206925,-0.144465,0
2024-12-13 15:17:29.478,-1.0319,4.54876,8.55165,-0.0507767,0.0206925,-0.144465,0
2024-12-13 15:17:29.480,-1.01994,4.57029,8.50379,-0.0452791,0.0243575,-0.146909,0
2024-12-13 15:17:29.483,-1.00798,4.57508,8.45594,-0.0367272,0.0249684,-0.149352,0
2024-12-13 15:17:29.485,-0.99362,4.57747,8.4009,-0.0306187,0.0274118,-0.150574,0
2024-12-13 15:17:29.487,-0.99362,4.59183,8.34108,-0.0226777,0.0292443,-0.153017,0
2024-12-13 15:17:29.490,-0.986441,4.58943,8.29083,-0.0171801,0.0316877,-0.155461,0
2024-12-13 15:17:29.492,-0.972084,4.57986,8.22383,-0.00862822,0.0371853,-0.156071,0
2024-12-13 15:17:29.495,-0.967299,4.57986,8.17358,-7.63559e-05,0.0408504,-0.154239,0
2024-12-13 15:17:29.497,-0.957727,4.58704,8.10868,0.00603212,0.0396287,-0.157293,0
2024-12-13 15:17:29.499,-0.950549,4.59183,8.04168,0.0096972,0.0396287,-0.157904,0
2024-12-13 15:17:29.502,-0.940978,4.59183,7.99861,0.0170274,0.0396287,-0.157904,0
2024-12-13 15:17:29.504,-0.94337,4.60858,7.93639,0.0231358,0.0439046,-0.158515,0
2024-12-13 15:17:29.506,-0.948156,4.62533,7.85504,0.0292443,0.0439046,-0.156682,0
2024-12-13 15:17:29.509,-0.94337,4.62772,7.77368,0.0322986,0.0451263,-0.157293,0
2024-12-13 15:17:29.511,-0.948156,4.61576,7.70429,0.0335202,0.042683,-0.15485,0
2024-12-13 15:17:29.513,-0.948156,4.61576,7.62293,0.0390179,0.0451263,-0.15485,0
2024-12-13 15:17:29.516,-0.948156,4.64208,7.52692,0.038407,0.0451263,-0.153628,0
2024-12-13 15:17:29.518,-0.945763,4.66122,7.45035,0.0396287,0.0408504,-0.153017,0
2024-12-13 15:17:29.520,-0.94337,4.67318,7.38335,0.0396287,0.0353528,-0.151185,0
2024-12-13 15:17:29.523,-0.948156,4.68754,7.30439,0.0365745,0.030466,-0.14813,0
2024-12-13 15:17:29.525,-0.945763,4.69472,7.21586,0.030466,0.0243575,-0.145687,0
2024-12-13 15:17:29.528,-0.931406,4.7019,7.13211,0.0237467,0.022525,-0.142022,0
2024-12-13 15:17:29.530,-0.919442,4.70668,7.04836,0.0164165,0.0213033,-0.139579,0
2024-12-13 15:17:29.532,-0.919442,4.70907,6.98824,0.00786466,0.0237467,-0.135303,0
2024-12-13 15:17:29.535,-0.936192,4.71625,6.93081,-0.00618483,0.0255792,-0.132248,0
2024-12-13 15:17:29.537,-0.96012,4.71625,6.88295,-0.0208452,0.022525,-0.127362,0
2024-12-13 15:17:29.539,-0.972084,4.72104,6.8686,-0.0330621,0.0213033,-0.121253,0
2024-12-13 15:17:29.542,-0.972084,4.733,6.85185,-0.0489441,0.0182491,-0.115756,0
2024-12-13 15:17:29.544,-0.974477,4.74018,6.84706,-0.0666587,0.0133623,-0.11148,0
2024-12-13 15:17:29.546,-0.974477,4.74018,6.85903,-0.0862058,0.0115297,-0.10476,0
2024-12-13 15:17:29.549,-0.964906,4.74018,6.89013,-0.104531,0.0096972,-0.098041,0
2024-12-13 15:17:29.551,-0.957727,4.74257,6.9332,-0.1253,0.00786466,-0.0901,0
2024-12-13 15:17:29.553,-0.950549,4.74736,6.97149,-0.146069,0.00297788,-0.0809373,0
2024-12-13 15:17:29.557,-0.94337,4.75215,7.01486,-0.176611,0.00114534,-0.0674986,0
2024-12-13 15:17:29.558,-0.921835,4.75454,7.05554,-0.176611,0.00114534,-0.0674986,0
2024-12-13 15:17:29.561,-0.881157,4.74736,7.08664,-0.193715,0.00297788,-0.0601685,0
2024-12-13 15:17:29.563,-0.837787,4.75215,7.13689,-0.206543,0.00725381,-0.0503949,0
2024-12-13 15:17:29.565,-0.804287,4.76172,7.19193,-0.223646,0.00542127,-0.041843,0
2024-12-13 15:17:29.568,-0.780359,4.73779,7.24218,-0.238918,0.00847551,-0.0369563,0
2024-12-13 15:17:29.570,-0.739681,4.72104,7.2996,-0.249913,0.00847551,-0.0290152,0
2024-12-13 15:17:29.572,-0.699003,4.71865,7.34507,-0.262741,0.00847551,-0.0204634,0
2024-12-13 15:17:29.575,-0.670289,4.6995,7.39771,-0.274347,0.00908635,-0.0137441,0
2024-12-13 15:17:29.577,-0.646361,4.68036,7.45035,-0.283509,0.010308,-0.00458135,0
2024-12-13 15:17:29.579,-0.627219,4.66122,7.51257,-0.293283,0.0096972,0.00335966,0
2024-12-13 15:17:29.582,-0.605683,4.65883,7.59901,-0.301835,0.0115297,0.010079,0
2024-12-13 15:17:29.584,-0.574577,4.6684,7.68754,-0.311608,0.0109189,0.0192417,0
2024-12-13 15:17:29.586,-0.538684,4.64925,7.77608,-0.32016,0.0133623,0.0296261,0
2024-12-13 15:17:29.589,-0.507577,4.64208,7.87418,-0.32749,0.0158057,0.038178,0
2024-12-13 15:17:29.591,-0.471685,4.63968,7.98425,-0.330545,0.0182491,0.0497841,0
2024-12-13 15:17:29.593,-0.421436,4.62772,8.07518,-0.337875,0.0237467,0.0583359,0
2024-12-13 15:17:29.596,-0.387936,4.61336,8.14965,-0.342762,0.0268009,0.069942,0
2024-12-13 15:17:29.598,-0.354437,4.59183,8.21426,-0.348259,0.0298552,0.0784939,0
2024-12-13 15:17:29.601,-0.313759,4.59183,8.28605,-0.351924,0.0298552,0.0894891,0
2024-12-13 15:17:29.603,-0.27996,4.58226,8.36501,-0.359255,0.0292443,0.098041,0
2024-12-13 15:17:29.605,-0.265603,4.56311,8.42004,-0.364141,0.0286335,0.10476,0
2024-12-13 15:17:29.608,-0.248854,4.55354,8.47508,-0.367806,0.0274118,0.11209,0
2024-12-13 15:17:29.610,-0.227318,4.5344,8.54686,-0.373915,0.0231358,0.121253,0
2024-12-13 15:17:29.612,-0.222533,4.50568,8.63061,-0.383078,0.0176382,0.127362,0
2024-12-13 15:17:29.615,-0.205783,4.48176,8.70748,-0.391019,0.014584,0.136601,0
2024-12-13 15:17:29.617,-0.191426,4.46261,8.77448,-0.398349,0.00908635,0.144542,0
2024-12-13 15:17:29.619,-0.18664,4.43869,8.82952,-0.407511,0.00358873,0.151872,0
2024-12-13 15:17:29.622,-0.18664,4.42194,8.90609,-0.419728,-0.0019089,0.160424,0
2024-12-13 15:17:29.624,-0.184247,4.40758,9.00419,-0.430724,-0.00618483,0.167754,0
2024-12-13 15:17:29.626,-0.16989,4.37169,9.10469,-0.435,-0.0159584,0.176306,0
2024-12-13 15:17:29.629,-0.143569,4.35972,9.20519,-0.444162,-0.0238994,0.184247,0
2024-12-13 15:17:29.631,-0.12682,4.36451,9.31556,-0.449049,-0.0342838,0.191577,0
2024-12-13 15:17:29.634,-0.117248,4.35733,9.44238,-0.454547,-0.0452791,0.198907,0
2024-12-13 15:17:29.636,-0.100499,4.35494,9.56202,-0.462488,-0.0556635,0.206237,0
2024-12-13 15:17:29.638,-0.0861416,4.34776,9.7008,-0.464931,-0.0623828,0.211735,0
2024-12-13 15:17:29.641,-0.0574277,4.31905,9.84228,-0.464931,-0.0697129,0.217233,0
2024-12-13 15:17:29.643,-0.0167498,4.29033,9.9667,-0.464931,-0.0745997,0.22273,0
2024-12-13 15:17:29.645,0.0215354,4.27597,10.1079,-0.458823,-0.0800973,0.227006,0
2024-12-13 15:17:29.648,0.0646062,4.25205,10.2467,-0.448438,-0.0825407,0.23006,0
2024-12-13 15:17:29.650,0.107677,4.22572,10.3543,-0.439886,-0.0837624,0.233115,0
2024-12-13 15:17:29.652,0.160319,4.21137,10.4719,-0.425837,-0.0807082,0.237391,0
2024-12-13 15:17:29.655,0.22014,4.19193,10.582,-0.409955,-0.0764323,0.234336,0
2024-12-13 15:17:29.657,0.272782,4.17996,10.6729,-0.391629,-0.0691021,0.233115,0
2024-12-13 15:17:29.659,0.32333,4.18714,10.7399,-0.372693,-0.0636045,0.231893,0
2024-12-13 15:17:29.662,0.361615,4.18235,10.7901,-0.347038,-0.0556635,0.229449,0
2024-12-13 15:17:29.664,0.387936,4.17039,10.8523,-0.323825,-0.049555,0.227617,0
2024-12-13 15:17:29.666,0.431007,4.16321,10.9146,-0.295726,-0.041614,0.22273,0
2024-12-13 15:17:29.669,0.459721,4.17518,10.9409,-0.267017,-0.033673,0.219065,0
2024-12-13 15:17:29.671,0.483649,4.18235,10.9508,-0.238918,-0.0269536,0.211735,0
2024-12-13 15:17:29.674,0.50997,4.168,10.9436,-0.208986,-0.0184018,0.207459,0
2024-12-13 15:17:29.676,0.519542,4.18714,10.9193,-0.176,-0.0122933,0.20074,0
2024-12-13 15:17:29.678,0.54347,4.22812,10.8835,-0.144236,-0.00618483,0.19402,0
2024-12-13 15:17:29.681,0.579362,4.26162,10.826,-0.114916,0.00297788,0.184858,0
2024-12-13 15:17:29.683,0.624826,4.28076,10.7686,-0.0868167,0.0109189,0.17936,0
2024-12-13 15:17:29.685,0.660718,4.29751,10.6944,-0.0538309,0.0176382,0.170808,0
2024-12-13 15:17:29.688,0.682254,4.32622,10.6011,-0.0269536,0.0274118,0.162256,0
2024-12-13 15:17:29.690,0.699003,4.34537,10.503,0.00175619,0.0377962,0.155537,0
2024-12-13 15:17:29.692,0.710967,4.36929,10.4049,0.0237467,0.0469589,0.148207,0
2024-12-13 15:17:29.695,0.715753,4.40279,10.2826,0.0481806,0.0555107,0.138433,0
2024-12-13 15:17:29.697,0.720539,4.42911,10.1462,0.0658951,0.0671168,0.129194,0
2024-12-13 15:17:29.699,0.720539,4.44826,10.0241,0.0854423,0.0762796,0.122475,0
2024-12-13 15:17:29.702,0.708575,4.47697,9.9021,0.0988809,0.0811663,0.115145,0
2024-12-13 15:17:29.704,0.696611,4.50329,9.77019,0.108654,0.086664,0.105371,0
2024-12-13 15:17:29.707,0.679861,4.52483,9.64098,0.120261,0.0927724,0.0998735,0
2024-12-13 15:17:29.709,0.65354,4.54876,9.52852,0.12698,0.0976592,0.0937651,0
2024-12-13 15:17:29.711,0.62004,4.58943,9.42563,0.128202,0.103157,0.0882674,0
2024-12-13 15:17:29.715,0.586541,4.62533,9.34427,0.130034,0.107433,0.077883,0
2024-12-13 15:17:29.716,0.545863,4.65404,9.27488,0.130034,0.107433,0.077883,0
2024-12-13 15:17:29.718,0.488435,4.68036,9.19322,0.127591,0.108044,0.0754396,0
2024-12-13 15:17:29.721,0.438186,4.70668,9.11665,0.125758,0.106211,0.0723854,0
2024-12-13 15:17:29.723,0.3999,4.7354,9.05205,0.123315,0.104989,0.0711637,0
2024-12-13 15:17:29.725,0.359223,4.74975,9.0018,0.120871,0.102546,0.0705529,0
2024-12-13 15:17:29.728,0.32333,4.7665,8.96112,0.114763,0.0976592,0.0717745,0
2024-12-13 15:17:29.730,0.297009,4.78834,8.93719,0.108654,0.0958267,0.0729962,0
2024-12-13 15:17:29.732,0.267996,4.79791,8.92762,0.107433,0.0958267,0.0729962,0
2024-12-13 15:17:29.735,0.244068,4.81466,8.89891,0.101935,0.0933833,0.0742179,0
2024-12-13 15:17:29.737,0.22014,4.83619,8.87259,0.0976592,0.0915507,0.0760505,0
2024-12-13 15:17:29.740,0.205783,4.87926,8.85584,0.0964375,0.0884965,0.0772722,0
2024-12-13 15:17:29.742,0.191426,4.93191,8.85105,0.0927724,0.0860531,0.0791047,0
2024-12-13 15:17:29.744,0.181855,4.97019,8.85105,0.0915507,0.0836097,0.0803264,0
2024-12-13 15:17:29.747,0.172283,5.00848,8.83909,0.0933833,0.0805555,0.0797156,0
2024-12-13 15:17:29.749,0.157926,5.05155,8.84387,0.090329,0.0775012,0.0815481,0
2024-12-13 15:17:29.751,0.155533,5.09701,8.84387,0.0897182,0.0762796,0.082159,0
2024-12-13 15:17:29.754,0.160319,5.13769,8.83909,0.0860531,0.0756687,0.0827698,0
2024-12-13 15:17:29.756,0.165105,5.18076,8.85584,0.0884965,0.0768904,0.0809373,0
2024-12-13 15:17:29.758,0.162712,5.2358,8.8678,0.0872748,0.0781121,0.0803264,0
2024-12-13 15:17:29.761,0.155533,5.29083,8.87019,0.0836097,0.0787229,0.0803264,0
2024-12-13 15:17:29.763,0.141177,5.32911,8.86302,0.0829989,0.0817772,0.0791047,0
2024-12-13 15:17:29.765,0.117248,5.37009,8.84148,0.0781121,0.0829989,0.0784939,0
2024-12-13 15:17:29.768,0.066999,5.40598,8.83191,0.0726145,0.0811663,0.0772722,0
2024-12-13 15:17:29.770,0.0215354,5.42991,8.81994,0.0689494,0.0793338,0.0754396,0
2024-12-13 15:17:29.772,-0.0287139,5.44906,8.81037,0.0597867,0.0781121,0.0760505,0
2024-12-13 15:17:29.775,-0.100499,5.46581,8.8008,0.0475697,0.0738362,0.077883,0
2024-12-13 15:17:29.777,-0.160319,5.47538,8.79362,0.0377962,0.0707819,0.0809373,0
2024-12-13 15:17:29.780,-0.208176,5.48495,8.78166,0.0249684,0.0683385,0.0852132,0
2024-12-13 15:17:29.782,-0.275175,5.50409,8.78644,0.00908635,0.0671168,0.0876566,0
2024-12-13 15:17:29.784,-0.320937,5.51127,8.81516,-0.00496313,0.0640626,0.0925434,0
2024-12-13 15:17:29.787,-0.364008,5.50888,8.85344,-0.0226777,0.0622301,0.0968193,0
2024-12-13 15:17:29.789,-0.423829,5.51127,8.90848,-0.0403923,0.0603975,0.0998735,0
2024-12-13 15:17:29.791,-0.605683,5.50409,8.96351,-0.0587177,0.0597867,0.105982,0
2024-12-13 15:17:29.794,-0.694218,5.52563,9.02573,-0.0788757,0.0701711,0.110869,0
2024-12-13 15:17:29.796,-0.550648,5.56152,9.11665,-0.0990336,0.0689494,0.114534,0
2024-12-13 15:17:29.798,-0.414257,5.59502,9.24826,-0.118581,0.0603975,0.120642,0
2024-12-13 15:17:29.801,-0.272782,5.62852,9.42084,-0.13263,0.0512348,0.125529,0
2024-12-13 15:17:29.803,-0.16989,5.64766,9.62184,-0.14668,0.0377962,0.129805,0
2024-12-13 15:17:29.805,-0.138784,5.66202,9.81566,-0.163173,0.0231358,0.130416,0
2024-12-13 15:17:29.808,-0.129212,5.69312,9.98585,-0.176,0.0133623,0.128583,0
2024-12-13 15:17:29.810,-0.0861416,5.7338,10.1342,-0.186996,0.00481042,0.12614,0
2024-12-13 15:17:29.813,-0.0382852,5.76012,10.2706,-0.194937,-0.00313059,0.118199,0
2024-12-13 15:17:29.815,-0.00478565,5.78166,10.4145,-0.207764,-0.00740652,0.114534,0
2024-12-13 15:17:29.817,0.0119641,5.78405,10.5772,-0.210819,-0.0147367,0.107204,0
2024-12-13 15:17:29.820,-0.00957129,5.78884,10.7255,-0.213262,-0.0165692,0.0998735,0
2024-12-13 15:17:29.822,-0.040678,5.79123,10.8739,-0.21143,-0.0159584,0.0943759,0
2024-12-13 15:17:29.824,-0.0741775,5.78405,11.0225,-0.210208,-0.021456,0.0882674,0
2024-12-13 15:17:29.827,-0.0957129,5.75055,11.1613,-0.206543,-0.0238994,0.0827698,0
2024-12-13 15:17:29.829,-0.133998,5.70509,11.3121,-0.204099,-0.0281753,0.0797156,0
2024-12-13 15:17:29.831,-0.177069,5.6668,11.4676,-0.197991,-0.0306187,0.0748288,0
2024-12-13 15:17:29.834,-0.20339,5.62852,11.6186,-0.191882,-0.033673,0.0717745,0
2024-12-13 15:17:29.836,-0.241675,5.5998,11.7718,-0.186385,-0.0367272,0.0711637,0
2024-12-13 15:17:29.838,-0.260818,5.5663,11.9225,-0.179055,-0.0379489,0.0693312,0
2024-12-13 15:17:29.841,-0.272782,5.51127,12.0855,-0.16867,-0.0410031,0.0662769,0
2024-12-13 15:17:29.843,-0.301795,5.46341,12.2339,-0.16134,-0.0367272,0.0693312,0
2024-12-13 15:17:29.846,-0.30658,5.43709,12.3799,-0.149123,-0.0281753,0.069942,0
2024-12-13 15:17:29.848,-0.301795,5.38206,12.5282,-0.137517,-0.0190126,0.069942,0
2024-12-13 15:17:29.850,-0.297009,5.31476,12.6362,-0.123468,-0.00251974,0.0705529,0
2024-12-13 15:17:29.853,-0.258425,5.27408,12.7582,-0.107585,0.0096972,0.069942,0
2024-12-13 15:17:29.855,-0.22014,5.25015,12.8874,-0.0929251,0.0243575,0.0687203,0
2024-12-13 15:17:29.857,-0.181855,5.20947,12.9879,-0.0764323,0.042683,0.0656661,0
2024-12-13 15:17:29.860,-0.129212,5.17119,13.086,-0.0562743,0.0561216,0.0607793,0
2024-12-13 15:17:29.862,-0.0957129,5.15683,13.1626,-0.0379489,0.0683385,0.0565034,0
2024-12-13 15:17:29.864,-0.0526421,5.1353,13.2108,-0.0116825,0.0775012,0.0497841,0
2024-12-13 15:17:29.867,0.00239282,5.11615,13.2371,0.0151948,0.0878856,0.0412322,0
2024-12-13 15:17:29.871,0.0526421,5.10658,13.2347,0.0683385,0.0988809,0.0210742,0
2024-12-13 15:17:29.874,0.12682,5.1353,13.2132,0.0976592,0.103768,0.00824644,0
2024-12-13 15:17:29.874,0.12682,5.1353,13.2132,0.0976592,0.103768,0.00824644,0
2024-12-13 15:17:29.876,0.145962,5.16162,13.1698,0.130645,0.104379,-0.00213797,0
2024-12-13 15:17:29.878,0.155533,5.19512,13.1195,0.161187,0.101935,-0.0149658,0
2024-12-13 15:17:29.881,0.167498,5.25733,13.0502,0.19173,0.100103,-0.025961,0
2024-12-13 15:17:29.883,0.189033,5.31954,12.9664,0.226548,0.0994917,-0.0387888,0
2024-12-13 15:17:29.886,0.210568,5.37009,12.8587,0.260755,0.0909399,-0.0485624,0
2024-12-13 15:17:29.888,0.215354,5.45145,12.7463,0.289465,0.0854423,-0.0589468,0
2024-12-13 15:17:29.890,0.244068,5.54238,12.6338,0.320618,0.0805555,-0.0693312,0
2024-12-13 15:17:29.893,0.272782,5.62612,12.5067,0.35055,0.0750579,-0.0797156,0
2024-12-13 15:17:29.895,0.304188,5.72902,12.3775,0.376282,0.0701711,-0.0913217,0
2024-12-13 15:17:29.897,0.344866,5.82712,12.2435,0.397662,0.0622301,-0.101706,0
2024-12-13 15:17:29.900,0.375972,5.91356,12.0975,0.414765,0.0579541,-0.110258,0
2024-12-13 15:17:29.904,0.431007,6.10499,11.7168,0.431258,0.0524565,-0.134692,0
2024-12-13 15:17:29.907,0.447757,6.18395,11.5325,0.439199,0.042683,-0.145076,0
2024-12-13 15:17:29.907,0.447757,6.18395,11.5325,0.439199,0.042683,-0.145076,0
2024-12-13 15:17:29.909,0.464507,6.25574,11.3575,0.437977,0.042683,-0.155461,0
2024-12-13 15:17:29.911,0.454935,6.3347,11.1948,0.426982,0.0408504,-0.16951,0
2024-12-13 15:17:29.914,0.428614,6.39452,11.0417,0.409879,0.0396287,-0.180505,0
2024-12-13 15:17:29.917,0.407079,6.44716,10.9361,0.363989,0.0359636,-0.206772,0
2024-12-13 15:17:29.919,0.368794,6.50489,10.8691,0.363989,0.0359636,-0.206772,0
2024-12-13 15:17:29.921,0.32333,6.54078,10.8284,0.332225,0.0359636,-0.216545,0
2024-12-13 15:17:29.923,0.294616,6.58624,10.8284,0.296795,0.0353528,-0.228762,0
2024-12-13 15:17:29.926,0.258425,6.6341,10.8858,0.255869,0.0353528,-0.239147,0
2024-12-13 15:17:29.928,0.232104,6.66281,10.9627,0.217385,0.0359636,-0.245866,0
2024-12-13 15:17:29.930,0.236889,6.69153,11.0225,0.171572,0.0390179,-0.253807,0
2024-12-13 15:17:29.933,0.239282,6.71306,11.0871,0.124536,0.0335202,-0.261748,0
2024-12-13 15:17:29.935,0.248854,6.71785,11.1613,0.0750579,0.0292443,-0.269689,0
2024-12-13 15:17:29.937,0.258425,6.71546,11.2738,0.0219141,0.0206925,-0.27763,0
2024-12-13 15:17:29.940,0.244068,6.70828,11.4102,-0.0300079,0.0139731,-0.283739,0
2024-12-13 15:17:29.942,0.222533,6.68674,11.5301,-0.0800973,0.00847551,-0.290458,0
2024-12-13 15:17:29.944,0.20339,6.65803,11.6641,-0.13263,0.00358873,-0.294734,0
2024-12-13 15:17:29.947,0.167498,6.60299,11.8268,-0.183331,-0.00129805,-0.297177,0
2024-12-13 15:17:29.949,0.12682,6.51925,11.9943,-0.234642,-0.00618483,-0.300231,0
2024-12-13 15:17:29.951,0.0789631,6.44238,12.186,-0.28412,-0.0202343,-0.299621,0
2024-12-13 15:17:29.954,0.026321,6.33948,12.4038,-0.332377,-0.0348946,-0.29901,0
2024-12-13 15:17:29.956,-0.0215354,6.21745,12.6338,-0.380023,-0.049555,-0.294123,0
2024-12-13 15:17:29.959,-0.0646062,6.09302,12.8898,-0.426448,-0.0709346,-0.288014,0
2024-12-13 15:17:29.961,-0.112463,5.94945,13.1674,-0.469818,-0.0904818,-0.279463,0
2024-12-13 15:17:29.963,-0.155533,5.78405,13.4357,-0.513188,-0.111861,-0.269078,0
2024-12-13 15:17:29.966,-0.189033,5.60459,13.7037,-0.552282,-0.128965,-0.258083,0
2024-12-13 15:17:29.968,-0.210568,5.41795,13.9768,-0.588933,-0.144236,-0.244033,0
2024-12-13 15:17:29.970,-0.215354,5.2334,14.2543,-0.618865,-0.160118,-0.231206,0
2024-12-13 15:17:29.973,-0.208176,5.05394,14.5466,-0.650018,-0.172335,-0.216545,0
2024-12-13 15:17:29.975,-0.191426,4.87448,14.8265,-0.67323,-0.179665,-0.200052,0
2024-12-13 15:17:29.977,-0.155533,4.69472,15.0924,-0.695221,-0.185774,-0.185392,0
2024-12-13 15:17:29.980,-0.11007,4.49372,15.3772,-0.712324,-0.193715,-0.171343,0
2024-12-13 15:17:29.982,-0.066999,4.30469,15.667,-0.724541,-0.196769,-0.156682,0
2024-12-13 15:17:29.984,-0.0287139,4.12493,15.9685,-0.728817,-0.194937,-0.141411,0
2024-12-13 15:17:29.987,0.00717847,3.93111,16.2631,-0.722098,-0.192493,-0.129194,0
2024-12-13 15:17:29.989,0.0454636,3.74686,16.5263,-0.711713,-0.186385,-0.11881,0
2024-12-13 15:17:29.992,0.0765703,3.57189,16.7779,-0.689112,-0.178444,-0.107204,0
2024-12-13 15:17:29.994,0.0909273,3.38764,17.0124,-0.657959,-0.167449,-0.0986518,0
2024-12-13 15:17:29.996,0.0981057,3.19621,17.2089,-0.621919,-0.144236,-0.0925434,0
2024-12-13 15:17:29.999,0.11007,3.00688,17.374,-0.577327,-0.125911,-0.0846023,0
2024-12-13 15:17:30.001,0.124427,2.82503,17.5008,-0.519297,-0.105753,-0.0760505,0
2024-12-13 15:17:30.003,0.136391,2.65035,17.5702,-0.454547,-0.081319,-0.0705529,0
2024-12-13 15:17:30.006,0.145962,2.47777,17.5846,-0.382467,-0.0556635,-0.0656661,0
2024-12-13 15:17:30.008,0.160319,2.31266,17.5176,-0.307943,-0.033673,-0.0607793,1
2024-12-13 15:17:30.010,0.160319,2.14517,17.4194,-0.229144,-0.00984991,-0.0558925,0
2024-12-13 15:17:30.013,0.143569,1.98724,17.3142,-0.145458,0.0109189,-0.0534491,0
2024-12-13 15:17:30.015,0.122034,1.8673,17.1538,-0.057496,0.0298552,-0.0503949,0
2024-12-13 15:17:30.017,0.081356,1.76919,16.9526,0.0329094,0.0487914,-0.0455081,0
2024-12-13 15:17:30.020,0.026321,1.67348,16.7085,0.130034,0.0603975,-0.0400105,0
2024-12-13 15:17:30.022,-0.0287139,1.59452,16.4019,0.224715,0.0701711,-0.0326803,0
2024-12-13 15:17:30.025,-0.0909273,1.52991,16.0597,0.318175,0.0768904,-0.0271827,0
2024-12-13 15:17:30.027,-0.160319,1.47488,15.679,0.414154,0.082388,-0.0216851,0
2024-12-13 15:17:30.029,-0.232104,1.41745,15.2982,0.506392,0.0811663,-0.0125224,0
2024-12-13 15:17:30.032,-0.313759,1.38126,14.9034,0.599852,0.0836097,-0.00458135,0
2024-12-13 15:17:30.034,-0.402293,1.37886,14.4844,0.599852,0.0836097,-0.00458135,0
2024-12-13 15:17:30.036,-0.481256,1.38844,14.0605,0.777609,0.0738362,0.0131332,0
2024-12-13 15:17:30.039,-0.54347,1.41266,13.6223,0.858851,0.0677277,0.0241285,0
2024-12-13 15:17:30.041,-0.608076,1.44855,13.177,0.937651,0.0610084,0.0351237,0
2024-12-13 15:17:30.043,-0.655932,1.48684,12.7271,1.01523,0.0542891,0.0442864,0
2024-12-13 15:17:30.046,-0.710967,1.52513,12.2698,1.08242,0.0439046,0.0552817,0
2024-12-13 15:17:30.048,-0.749253,1.54666,11.8268,1.14228,0.0341311,0.0632227,0
2024-12-13 15:17:30.050,-0.768395,1.57537,11.391,1.20765,0.0274118,0.0717745,0
2024-12-13 15:17:30.053,-0.804287,1.62562,10.9385,1.26201,0.0170274,0.0797156,0
2024-12-13 15:17:30.055,-0.825823,1.66869,10.4719,1.31149,0.00603212,0.0894891,0
2024-12-13 15:17:30.057,-0.837787,1.70937,10.0098,1.35547,-0.00435229,0.0962084,0
2024-12-13 15:17:30.060,-0.864407,1.75723,9.57638,1.39334,-0.0165692,0.102928,0
2024-12-13 15:17:30.063,-0.893121,1.80269,9.14058,1.45259,-0.0446682,0.11148,0
2024-12-13 15:17:30.065,-0.917049,1.85055,8.72423,1.45259,-0.0446682,0.11148,0
2024-12-13 15:17:30.067,-0.919442,1.91037,8.34347,1.4752,-0.0587177,0.116366,0
2024-12-13 15:17:30.069,-0.917049,1.98245,7.95075,1.48741,-0.0721563,0.11881,0
2024-12-13 15:17:30.072,-0.902692,2.0686,7.54846,1.49658,-0.0807082,0.119421,0
2024-12-13 15:17:30.074,-0.905085,2.13559,7.16321,1.4978,-0.0892601,0.120642,0
2024-12-13 15:17:30.077,-0.936192,2.17866,6.8351,1.49596,-0.105753,0.122475,0
2024-12-13 15:17:30.079,-0.94337,2.23131,6.54317,1.48741,-0.127133,0.12614,0
2024-12-13 15:17:30.081,-0.957727,2.28395,6.25095,1.4752,-0.150956,0.126751,0
2024-12-13 15:17:30.083,-0.97687,2.37488,5.97817,1.45931,-0.173557,0.12614,0
2024-12-13 15:17:30.086,-0.972084,2.47059,5.70509,1.43427,-0.178444,0.12614,0
2024-12-13 15:17:30.088,-0.972084,2.52323,5.45145,1.40312,-0.183331,0.124307,0
2024-12-13 15:17:30.090,-0.986441,2.56421,5.25015,1.36952,-0.195547,0.121864,0
2024-12-13 15:17:30.093,-1.01994,2.59053,5.08265,1.33165,-0.213873,0.123086,0
2024-12-13 15:17:30.095,-1.0654,2.61446,4.91516,1.29072,-0.234642,0.125529,0
2024-12-13 15:17:30.098,-1.11805,2.65035,4.75932,1.24796,-0.256021,0.126751,0
2024-12-13 15:17:30.100,-1.15872,2.68624,4.6325,1.20031,-0.276179,0.127972,0
2024-12-13 15:17:30.102,-1.1683,2.72213,4.55115,1.15267,-0.293894,0.131027,0
2024-12-13 15:17:30.105,-1.16351,2.75324,4.50808,1.09891,-0.304889,0.135379,0
2024-12-13 15:17:30.107,-1.13719,2.79631,4.4674,1.04577,-0.308554,0.138433,0
2024-12-13 15:17:30.109,-1.11565,2.85374,4.44347,0.989573,-0.310998,0.141487,0
2024-12-13 15:17:30.112,-1.09651,2.88963,4.46261,0.934596,-0.311608,0.146985,0
2024-12-13 15:17:30.114,-1.05823,2.91356,4.48415,0.877177,-0.311608,0.148818,0
2024-12-13 15:17:30.116,-1.02712,2.94706,4.5009,0.820368,-0.308554,0.151872,0
2024-12-13 15:17:30.121,-0.96012,3.00449,4.63011,0.705529,-0.293894,0.159813,0
2024-12-13 15:17:30.121,-0.96012,3.00449,4.63011,0.705529,-0.293894,0.159813,0
2024-12-13 15:17:30.123,-0.921835,3.02602,4.69472,0.646887,-0.283509,0.163478,0
2024-12-13 15:17:30.126,-0.895514,3.05474,4.76172,0.593744,-0.270682,0.165311,0
2024-12-13 15:17:30.128,-0.859622,3.07627,4.82902,0.53327,-0.254189,0.167754,0
2024-12-13 15:17:30.130,-0.835394,3.08584,4.91037,0.480126,-0.23342,0.169586,0
2024-12-13 15:17:30.133,-0.828216,3.07149,5.01087,0.422706,-0.210208,0.171419,0
2024-12-13 15:17:30.135,-0.813859,3.0667,5.10419,0.370784,-0.184552,0.173862,0
2024-12-13 15:17:30.138,-0.804287,3.06192,5.20947,0.320008,-0.15401,0.176306,0
2024-12-13 15:17:30.140,-0.809073,3.04995,5.34138,0.270529,-0.124689,0.178749,0
2024-12-13 15:17:30.142,-0.816252,3.05234,5.47059,0.222272,-0.0941468,0.180582,0
2024-12-13 15:17:30.145,-0.845265,3.04517,5.6022,0.178902,-0.0660479,0.183636,0
2024-12-13 15:17:30.147,-0.888335,3.00688,5.73619,0.134921,-0.0355055,0.189744,0
2024-12-13 15:17:30.150,-0.94337,2.98056,5.88694,0.0958267,-0.00679568,0.194631,0
2024-12-13 15:17:30.152,-0.988834,2.96381,6.04756,0.058565,0.0206925,0.201351,0
2024-12-13 15:17:30.154,-1.02712,2.93749,6.20549,0.022525,0.042683,0.210513,0
2024-12-13 15:17:30.156,-1.07976,2.93031,6.36341,-0.00679568,0.0658951,0.218454,0
2024-12-13 15:17:30.159,-1.12762,2.91835,6.51207,-0.0348946,0.0793338,0.228839,0
2024-12-13 15:17:30.161,-1.14676,2.89442,6.65085,-0.0593285,0.0921616,0.238612,0
2024-12-13 15:17:30.163,-1.16112,2.8681,6.8016,-0.0831516,0.103157,0.247775,0
2024-12-13 15:17:30.166,-1.19701,2.86092,6.94756,-0.104531,0.108654,0.257548,0
2024-12-13 15:17:30.168,-1.23051,2.85374,7.08186,-0.118581,0.11293,0.265489,0
2024-12-13 15:17:30.173,-1.24008,2.80828,7.35464,-0.145458,0.115374,0.282593,0
2024-12-13 15:17:30.173,-1.24008,2.80828,7.35464,-0.145458,0.115374,0.282593,0
2024-12-13 15:17:30.175,-1.22333,2.80349,7.46471,-0.155842,0.119039,0.288091,0
2024-12-13 15:17:30.178,-1.22572,2.77956,7.56282,-0.163173,0.119039,0.292978,0
2024-12-13 15:17:30.180,-1.22812,2.73888,7.65165,-0.165616,0.120261,0.297254,0
2024-12-13 15:17:30.182,-1.22812,2.73649,7.74975,-0.167449,0.122704,0.301529,0
2024-12-13 15:17:30.185,-1.22094,2.74606,7.84307,-0.165005,0.126369,0.303973,0
2024-12-13 15:17:30.187,-1.21376,2.74367,7.91964,-0.162562,0.130645,0.303973,0
2024-12-13 15:17:30.189,-1.21376,2.7341,7.97707,-0.157064,0.135532,0.306416,0
2024-12-13 15:17:30.192,-1.20419,2.72453,8.01775,-0.150345,0.142251,0.304584,0
2024-12-13 15:17:30.194,-1.17547,2.72453,8.06082,-0.13996,0.145916,0.301529,0
2024-12-13 15:17:30.196,-1.1683,2.73171,8.10868,-0.130798,0.14897,0.299086,0
2024-12-13 15:17:30.199,-1.17308,2.75085,8.13769,-0.120413,0.150192,0.296032,0
2024-12-13 15:17:30.201,-1.15872,2.76521,8.14965,-0.106364,0.152025,0.290534,0
2024-12-13 15:17:30.204,-1.14915,2.77717,8.14487,-0.0947577,0.155079,0.285037,0
2024-12-13 15:17:30.206,-1.13719,2.78196,8.13261,-0.0837624,0.155079,0.278317,0
2024-12-13 15:17:30.208,-1.11805,2.78435,8.14008,-0.0684913,0.155079,0.274041,0
2024-12-13 15:17:30.211,-1.11087,2.8011,8.12782,-0.0544418,0.153246,0.266711,0
2024-12-13 15:17:30.213,-1.12522,2.80828,8.1015,-0.0410031,0.152635,0.25877,0
2024-12-13 15:17:30.215,-1.11565,2.82024,8.07279,-0.0245102,0.150803,0.252662,0
2024-12-13 15:17:30.218,-1.08215,2.8322,8.02014,-0.0122933,0.14836,0.247164,0
2024-12-13 15:17:30.220,-1.07498,2.83938,7.95793,0.00297788,0.145305,0.237391,0
2024-12-13 15:17:30.222,-1.07258,2.85374,7.89093,0.0127514,0.14164,0.231282,0
2024-12-13 15:17:30.226,-1.07976,2.8657,7.81436,0.0377962,0.132477,0.216622,0
2024-12-13 15:17:30.227,-1.09173,2.87767,7.75215,0.0377962,0.132477,0.216622,0
2024-12-13 15:17:30.229,-1.1013,2.88963,7.69472,0.0487914,0.129423,0.211124,0
2024-12-13 15:17:30.232,-1.0989,2.91356,7.60618,0.0616192,0.123315,0.205016,0
2024-12-13 15:17:30.234,-1.08215,2.9351,7.51017,0.0683385,0.116595,0.199518,0
2024-12-13 15:17:30.236,-1.07258,2.9686,7.42164,0.0775012,0.114152,0.195242,0
2024-12-13 15:17:30.239,-1.0654,3.01645,7.32353,0.0842206,0.107433,0.191577,0
2024-12-13 15:17:30.241,-1.06062,3.04277,7.23261,0.0842206,0.107433,0.191577,0
2024-12-13 15:17:30.244,-1.04626,3.07149,7.1345,0.0958267,0.101324,0.183636,0
2024-12-13 15:17:30.246,-1.04387,3.09332,7.03879,0.100103,0.0970484,0.179971,0
2024-12-13 15:17:30.248,-1.0343,3.11007,6.94517,0.100103,0.0958267,0.175695,0
2024-12-13 15:17:30.251,-1.02473,3.12921,6.85663,0.102546,0.0952158,0.173862,0
2024-12-13 15:17:30.253,-1.02233,3.14596,6.78963,0.100713,0.0988809,0.171419,0
2024-12-13 15:17:30.255,-1.01276,3.16032,6.72742,0.0988809,0.103157,0.168976,0
2024-12-13 15:17:30.258,-1.01515,3.1675,6.64846,0.0994917,0.104989,0.169586,0
2024-12-13 15:17:30.260,-1.00798,3.18186,6.56949,0.0994917,0.108044,0.166532,0
2024-12-13 15:17:30.262,-0.996012,3.19143,6.51446,0.0964375,0.11293,0.167143,0
2024-12-13 15:17:30.265,-0.984048,3.20339,6.46421,0.094605,0.120261,0.167143,0
2024-12-13 15:17:30.267,-0.969691,3.22732,6.41605,0.0891073,0.130034,0.167143,0
2024-12-13 15:17:30.269,-0.967299,3.24646,6.38495,0.0891073,0.142251,0.167143,0
2024-12-13 15:17:30.272,-0.969691,3.25603,6.35384,0.0848314,0.155079,0.166532,0
2024-12-13 15:17:30.274,-0.969691,3.27996,6.31316,0.0848314,0.168517,0.166532,0
2024-12-13 15:17:30.277,-0.948156,3.29193,6.26052,0.0817772,0.180734,0.165921,0
2024-12-13 15:17:30.279,-0.933799,3.30628,6.21506,0.0799446,0.194173,0.165921,0
2024-12-13 15:17:30.281,-0.936192,3.32064,6.18156,0.0781121,0.205779,0.1647,0
2024-12-13 15:17:30.284,-0.919442,3.32303,6.12174,0.0768904,0.212498,0.165921,0
2024-12-13 15:17:30.286,-0.912264,3.33739,6.05235,0.0732253,0.22044,0.165921,0
2024-12-13 15:17:30.288,-0.909871,3.35892,6.01167,0.0726145,0.228381,0.1647,0
2024-12-13 15:17:30.291,-0.905085,3.37807,5.9662,0.0701711,0.2351,0.162867,0
2024-12-13 15:17:30.293,-0.917049,3.39482,5.93031,0.0658951,0.241208,0.165311,0
2024-12-13 15:17:30.295,-0.931406,3.42114,5.9016,0.0646735,0.250371,0.163478,0
2024-12-13 15:17:30.300,-0.962513,3.45703,5.81516,0.0567324,0.255258,0.165311,0
2024-12-13 15:17:30.302,-0.962513,3.47617,5.77687,0.0542891,0.260755,0.167754,0
2024-12-13 15:17:30.302,-0.96012,3.47617,5.77687,0.0542891,0.260755,0.167754,0
2024-12-13 15:17:30.305,-0.972084,3.49532,5.75773,0.0512348,0.260755,0.170197,0
2024-12-13 15:17:30.307,-0.97687,3.52164,5.72662,0.042683,0.258923,0.173252,0
2024-12-13 15:17:30.310,-0.979263,3.53839,5.68834,0.0377962,0.258312,0.177527,0
2024-12-13 15:17:30.312,-0.986441,3.56231,5.66441,0.0280226,0.255869,0.181193,0
2024-12-13 15:17:30.314,-0.967299,3.58146,5.65484,0.0206925,0.253425,0.184247,0
2024-12-13 15:17:30.317,-0.921835,3.63649,5.64766,0.0127514,0.250371,0.187301,0
2024-12-13 15:17:30.319,-0.869193,3.7014,5.65005,0.00542127,0.246706,0.189744,0
2024-12-13 15:17:30.321,-0.852443,3.69661,5.65245,-0.00679568,0.244873,0.190355,0
2024-12-13 15:17:30.324,-0.859622,3.66551,5.65962,-0.0147367,0.243041,0.194631,0
2024-12-13 15:17:30.326,-0.857229,3.63171,5.65484,-0.0269536,0.243652,0.195242,0
2024-12-13 15:17:30.328,-0.825823,3.60778,5.62373,-0.0379489,0.247317,0.195242,0
2024-12-13 15:17:30.333,-0.725324,3.65593,5.61895,-0.0642153,0.24243,0.197685,0
2024-12-13 15:17:30.333,-0.725324,3.65593,5.61895,-0.0642153,0.24243,0.197685,0
2024-12-13 15:17:30.335,-0.703789,3.67747,5.65005,-0.0788757,0.235711,0.195853,0
2024-12-13 15:17:30.338,-0.694218,3.69183,5.68595,-0.0917034,0.228991,0.195242,0
2024-12-13 15:17:30.340,-0.663111,3.72772,5.70269,-0.10392,0.222272,0.195853,0
2024-12-13 15:17:30.342,-0.643968,3.75883,5.72662,-0.118581,0.218607,0.194631,0
2024-12-13 15:17:30.345,-0.617647,3.766,5.76252,-0.134463,0.216774,0.192799,0
2024-12-13 15:17:30.347,-0.591326,3.78754,5.80559,-0.145458,0.214942,0.192188,0
2024-12-13 15:17:30.352,-0.550648,3.8019,5.89203,-0.157064,0.216164,0.187301,0
2024-12-13 15:17:30.354,-0.538684,3.81147,5.94467,-0.180887,0.214942,0.181193,0
2024-12-13 15:17:30.357,-0.531506,3.833,6.00688,-0.191882,0.214942,0.176306,0
2024-12-13 15:17:30.357,-0.531506,3.833,6.00688,-0.191882,0.214942,0.176306,0
2024-12-13 15:17:30.359,-0.521934,3.833,6.07627,-0.198602,0.211277,0.172641,0
2024-12-13 15:17:30.364,-0.490828,3.84736,6.22463,-0.213873,0.207612,0.165921,0
2024-12-13 15:17:30.364,-0.490828,3.84736,6.22463,-0.213873,0.207612,0.165921,0
2024-12-13 15:17:30.366,-0.502792,3.8689,6.32034,-0.218149,0.203947,0.162867,0
2024-12-13 15:17:30.371,-0.488435,3.87368,6.47139,-0.224868,0.203947,0.15798,0
2024-12-13 15:17:30.373,-0.481256,3.89043,6.54557,-0.224868,0.203947,0.15798,0
2024-12-13 15:17:30.375,-0.469292,3.90718,6.61974,-0.227312,0.200892,0.153704,0
2024-12-13 15:17:30.378,-0.464507,3.91436,6.7011,-0.228533,0.199671,0.153704,0
2024-12-13 15:17:30.378,-0.464507,3.91436,6.7011,-0.228533,0.199671,0.153704,0
2024-12-13 15:17:30.380,-0.464507,3.9335,6.76571,-0.227922,0.199671,0.153704,0
2024-12-13 15:17:30.383,-0.447757,3.94786,6.80638,-0.227922,0.199671,0.153704,0
2024-12-13 15:17:30.385,-0.411865,3.96461,6.84228,-0.222425,0.197838,0.153704,0
2024-12-13 15:17:30.387,-0.395115,3.98854,6.88774,-0.221203,0.197227,0.154315,0
2024-12-13 15:17:30.390,-0.392722,4.00768,6.9332,-0.217538,0.194784,0.154315,0
2024-12-13 15:17:30.392,-0.383151,4.01007,6.98585,-0.216316,0.193562,0.154315,0
2024-12-13 15:17:30.394,-0.375972,4.02682,7.02682,-0.213873,0.194173,0.156759,0
2024-12-13 15:17:30.397,-0.371187,4.06271,7.05793,-0.207764,0.197227,0.159813,0
2024-12-13 15:17:30.399,-0.373579,4.08186,7.09621,-0.207154,0.196616,0.162867,0
2024-12-13 15:17:30.401,-0.387936,4.10818,7.13689,-0.203488,0.196006,0.163478,0
2024-12-13 15:17:30.406,-0.397508,4.18475,7.23021,-0.198602,0.201503,0.175084,0
2024-12-13 15:17:30.406,-0.407079,4.18475,7.23021,-0.198602,0.201503,0.175084,0
2024-12-13 15:17:30.411,-0.411865,4.26162,7.29482,-0.196769,0.20639,0.184247,0
2024-12-13 15:17:30.413,-0.414257,4.26162,7.32114,-0.194326,0.210055,0.189134,0
2024-12-13 15:17:30.413,-0.440578,4.29272,7.32114,-0.194326,0.210055,0.189134,0
2024-12-13 15:17:30.415,-0.474078,4.32622,7.34985,-0.191882,0.211277,0.195242,0
2024-12-13 15:17:30.418,-0.488435,4.38365,7.37617,-0.194326,0.213109,0.201961,0
2024-12-13 15:17:30.423,-0.507577,4.45783,7.43839,-0.196769,0.207612,0.214178,0
2024-12-13 15:17:30.425,-0.541077,4.50329,7.48146,-0.202878,0.200282,0.222119,0
2024-12-13 15:17:30.425,-0.541077,4.50329,7.48146,-0.202878,0.200282,0.222119,0
2024-12-13 15:17:30.427,-0.54347,4.54158,7.51735,-0.204099,0.192341,0.227006,0
2024-12-13 15:17:30.430,-0.550648,4.57029,7.56282,-0.204099,0.192341,0.227006,0
2024-12-13 15:17:30.432,-0.56022,4.61336,7.6014,-0.213873,0.169128,0.240445,0
2024-12-13 15:17:30.434,-0.56022,4.66122,7.6349,-0.219981,0.158744,0.249607,0
2024-12-13 15:17:30.437,-0.54347,4.68993,7.66122,-0.223036,0.142251,0.255105,0
2024-12-13 15:17:30.439,-0.50997,4.72343,7.69472,-0.227312,0.130645,0.262435,0
2024-12-13 15:17:30.441,-0.490828,4.74497,7.74736,-0.231587,0.115374,0.269155,0
2024-12-13 15:17:30.446,-0.474078,4.75693,7.78565,-0.245637,0.0891073,0.284426,0
2024-12-13 15:17:30.446,-0.445364,4.77398,7.84068,-0.245637,0.0891073,0.284426,0
2024-12-13 15:17:30.451,-0.380758,4.80987,7.97707,-0.255411,0.0610084,0.296643,0
2024-12-13 15:17:30.451,-0.380758,4.80987,7.97707,-0.255411,0.0610084,0.296643,0
2024-12-13 15:17:30.454,-0.342473,4.82662,8.05604,-0.270071,0.0365745,0.308249,0
2024-12-13 15:17:30.456,-0.299402,4.84098,8.14248,-0.270071,0.0365745,0.308249,0
2024-12-13 15:17:30.458,-0.260818,4.84337,8.2358,-0.280455,0.0237467,0.313136,0
2024-12-13 15:17:30.460,-0.224925,4.84337,8.32912,-0.289618,0.010308,0.318022,0
2024-12-13 15:17:30.463,-0.208176,4.85055,8.42004,-0.29817,-0.00251974,0.322298,0
2024-12-13 15:17:30.465,-0.18664,4.86251,8.53011,-0.309165,-0.0190126,0.327796,0
2024-12-13 15:17:30.467,-0.160319,4.87209,8.63779,-0.320771,-0.0330621,0.33085,0
2024-12-13 15:17:30.470,-0.143569,4.87448,8.7362,-0.330545,-0.0489441,0.333294,0
2024-12-13 15:17:30.474,-0.0861416,4.85534,8.94676,-0.351314,-0.077654,0.336959,0
2024-12-13 15:17:30.477,-0.0622134,4.85534,9.04965,-0.360476,-0.0892601,0.340013,0
2024-12-13 15:17:30.477,-0.0622134,4.85534,9.04965,-0.360476,-0.0892601,0.340013,0
2024-12-13 15:17:30.479,-0.0382852,4.86012,9.14537,-0.369639,-0.0941468,0.340013,0
2024-12-13 15:17:30.484,0.00478565,4.85534,9.34427,-0.378802,-0.0904818,0.33818,0
2024-12-13 15:17:30.486,0.0167498,4.85534,9.44716,-0.381856,-0.0849841,0.333904,0
2024-12-13 15:17:30.486,0.0167498,4.85534,9.44716,-0.381856,-0.0849841,0.333904,0
2024-12-13 15:17:30.489,0.0287139,4.85055,9.54766,-0.385521,-0.0764323,0.329018,0
2024-12-13 15:17:30.491,0.0382852,4.8338,9.64337,-0.385521,-0.0764323,0.329018,0
2024-12-13 15:17:30.493,0.0430708,4.8338,9.73191,-0.387964,-0.0556635,0.321077,0
2024-12-13 15:17:30.496,0.0502493,4.84816,9.81087,-0.385521,-0.0434465,0.315579,0
2024-12-13 15:17:30.498,0.0478565,4.85294,9.89971,-0.381856,-0.0324513,0.305195,0
2024-12-13 15:17:30.500,0.0526421,4.86012,9.99781,-0.381856,-0.0324513,0.305195,0
2024-12-13 15:17:30.503,0.0454636,4.8673,10.0935,-0.372693,-0.00801737,0.28748,0
2024-12-13 15:17:30.505,0.0382852,4.87926,10.1773,-0.367806,0.00297788,0.276485,0
2024-12-13 15:17:30.507,0.040678,4.9008,10.273,-0.361087,0.0151948,0.2661,0
2024-12-13 15:17:30.510,0.040678,4.90798,10.3735,-0.351314,0.0243575,0.255105,0
2024-12-13 15:17:30.512,0.0191426,4.91755,10.4671,-0.342151,0.0353528,0.242888,0
2024-12-13 15:17:30.515,-0.0143569,4.9343,10.5556,-0.330545,0.0439046,0.228839,0
2024-12-13 15:17:30.517,-0.0837488,4.94387,10.6466,-0.317717,0.0548999,0.217843,0
2024-12-13 15:17:30.521,-0.0885344,5.01805,10.838,-0.306111,0.066506,0.204405,0
2024-12-13 15:17:30.521,-0.0143569,5.01805,10.838,-0.306111,0.066506,0.204405,0
2024-12-13 15:17:30.524,0.0358923,5.0683,10.9579,-0.268238,0.0756687,0.17936,0
2024-12-13 15:17:30.526,0.0717847,5.10419,11.0536,-0.245637,0.074447,0.167754,0
2024-12-13 15:17:30.529,0.0550349,5.11855,11.123,-0.224868,0.0756687,0.156148,0
2024-12-13 15:17:30.531,0.0119641,5.13051,11.1781,-0.201656,0.0793338,0.142709,0
2024-12-13 15:17:30.533,-0.0143569,5.1688,11.2211,-0.177833,0.0817772,0.131638,0
2024-12-13 15:17:30.536,-0.0191426,5.20708,11.2283,-0.15401,0.0793338,0.118199,0
2024-12-13 15:17:30.540,-0.0717847,5.26929,11.2164,-0.106364,0.0677277,0.0925434,0
2024-12-13 15:17:30.543,-0.107677,5.29801,11.2522,-0.0837624,0.0591758,0.0809373,0
2024-12-13 15:17:30.543,-0.107677,5.29801,11.2522,-0.0837624,0.0591758,0.0809373,0
2024-12-13 15:17:30.545,-0.162712,5.3342,11.281,-0.057496,0.0481806,0.0687203,0
2024-12-13 15:17:30.547,-0.20339,5.37488,11.2953,-0.057496,0.0481806,0.0687203,0
2024-12-13 15:17:30.550,-0.229711,5.40598,11.3073,-0.00923906,0.0109189,0.0473407,0
2024-12-13 15:17:30.552,-0.258425,5.42991,11.324,0.0151948,-0.00923906,0.0369563,0
2024-12-13 15:17:30.555,-0.27996,5.45384,11.3527,0.0396287,-0.0342838,0.0302369,0
2024-12-13 15:17:30.557,-0.292223,5.48734,11.3791,0.0671168,-0.0593285,0.0204634,0
2024-12-13 15:17:30.559,-0.292223,5.53998,11.3862,0.0927724,-0.0868167,0.0125224,0
2024-12-13 15:17:30.562,-0.294616,5.59262,11.3671,0.117817,-0.114305,0.00213797,0
2024-12-13 15:17:30.564,-0.282652,5.64766,11.3527,0.143473,-0.144236,-0.00580305,0
2024-12-13 15:17:30.566,-0.258425,5.68834,11.3264,0.167907,-0.16867,-0.0149658,0
2024-12-13 15:17:30.569,-0.239282,5.75055,11.281,0.192951,-0.191272,-0.0241285,0
2024-12-13 15:17:30.571,-0.222533,5.82234,11.2259,0.192951,-0.191272,-0.0241285,0
2024-12-13 15:17:30.573,-0.210568,5.88216,11.1757,0.234489,-0.23342,-0.0412322,0
2024-12-13 15:17:30.576,-0.191426,5.95185,11.1326,0.255258,-0.250524,-0.0522274,0
2024-12-13 15:17:30.578,-0.172283,6.01885,11.0871,0.272362,-0.267017,-0.0601685,0
2024-12-13 15:17:30.585,-0.138784,6.2007,10.9603,0.309012,-0.304889,-0.0870457,0
2024-12-13 15:17:30.586,-0.138784,6.2007,10.9603,0.315121,-0.314052,-0.0943759,0
2024-12-13 15:17:30.587,-0.138784,6.2007,10.9603,0.315121,-0.314052,-0.0943759,0
2024-12-13 15:17:30.587,-0.136391,6.25334,10.9002,0.315121,-0.314052,-0.0943759,0
2024-12-13 15:17:30.590,-0.133998,6.31077,10.8571,0.32184,-0.321993,-0.103539,0
2024-12-13 15:17:30.592,-0.136391,6.38256,10.8332,0.324894,-0.331766,-0.11209,0
2024-12-13 15:17:30.595,-0.138784,6.44955,10.8141,0.324894,-0.331766,-0.11209,0
2024-12-13 15:17:30.597,-0.131605,6.51446,10.7925,0.324894,-0.347038,-0.126751,0
2024-12-13 15:17:30.599,-0.0981057,6.56471,10.8045,0.324894,-0.347038,-0.126751,0
2024-12-13 15:17:30.604,-0.0382852,6.69631,10.8165,0.312067,-0.356811,-0.151796,0
2024-12-13 15:17:30.604,-0.0382852,6.69631,10.8165,0.312067,-0.356811,-0.151796,0
2024-12-13 15:17:30.606,-0.0143569,6.76331,10.8404,0.304126,-0.360476,-0.16218,0
2024-12-13 15:17:30.609,0.00957129,6.81835,10.8715,0.296185,-0.360476,-0.170121,0
2024-12-13 15:17:30.611,0.0119641,6.86381,10.9098,0.285189,-0.356811,-0.180505,0
2024-12-13 15:17:30.616,-0.00957129,6.92124,11.0513,0.265031,-0.351314,-0.201885,0
2024-12-13 15:17:30.616,-0.0143569,6.99542,11.0513,0.265031,-0.351314,-0.201885,0
2024-12-13 15:17:30.618,-0.00717847,7.04597,11.1685,0.250982,-0.344594,-0.212269,0
2024-12-13 15:17:30.623,-0.0167498,7.14646,11.4341,0.228381,-0.320771,-0.230595,0
2024-12-13 15:17:30.623,-0.0167498,7.14646,11.4341,0.228381,-0.320771,-0.230595,0
2024-12-13 15:17:30.625,-0.0334995,7.19432,11.5875,0.214942,-0.304278,-0.238536,0
2024-12-13 15:17:30.627,-0.0334995,7.26132,11.755,0.204557,-0.282288,-0.247088,0
2024-12-13 15:17:30.630,-0.0191426,7.369,11.9393,0.191119,-0.256021,-0.254418,0
2024-12-13 15:17:30.632,-0.0191426,7.49342,12.1167,0.174626,-0.228533,-0.259916,0
2024-12-13 15:17:30.635,-0.040678,7.59183,12.3081,0.161187,-0.201045,-0.266635,0
2024-12-13 15:17:30.639,-0.131605,7.79761,12.7104,0.128202,-0.147291,-0.280684,0
2024-12-13 15:17:30.639,-0.131605,7.79761,12.7104,0.128202,-0.147291,-0.280684,0
2024-12-13 15:17:30.642,-0.160319,7.90768,12.897,0.109876,-0.121635,-0.28496,0
2024-12-13 15:17:30.644,-0.191426,8.01057,13.0813,0.0921616,-0.0972011,-0.289236,0
2024-12-13 15:17:30.646,-0.222533,8.09911,13.2562,0.0701711,-0.0758214,-0.293512,0
2024-12-13 15:17:30.649,-0.267996,8.14487,13.4477,0.050624,-0.0611611,-0.293512,0
2024-12-13 15:17:30.651,-0.330509,8.15683,13.6391,0.0268009,-0.0519984,-0.292901,0
2024-12-13 15:17:30.653,-0.392722,8.14008,13.8428,0.00786466,-0.0379489,-0.29229,0
2024-12-13 15:17:30.656,-0.457328,8.11586,14.0557,-0.0147367,-0.0348946,-0.287404,0
2024-12-13 15:17:30.658,-0.512363,8.06321,14.2711,-0.033673,-0.0348946,-0.281295,0
2024-12-13 15:17:30.663,-0.627219,7.9005,14.7189,-0.0532201,-0.0330621,-0.272743,0
2024-12-13 15:17:30.665,-0.687039,7.80479,14.9249,-0.0880384,-0.0379489,-0.246477,0
2024-12-13 15:17:30.668,-0.8668,7.67318,15.1523,-0.104531,-0.0422248,-0.227541,0
2024-12-13 15:17:30.669,-0.8668,7.67318,15.1523,-0.119802,-0.0306187,-0.206772,0
2024-12-13 15:17:30.670,-1.1013,7.52932,15.3532,-0.119802,-0.0306187,-0.206772,0
2024-12-13 15:17:30.672,-1.12283,7.42164,15.5115,-0.132019,-0.0238994,-0.184781,0
2024-12-13 15:17:30.675,-0.945763,7.30918,15.6909,-0.147291,-0.0300079,-0.16218,0
2024-12-13 15:17:30.677,-0.725324,7.17757,15.9422,-0.163173,-0.0446682,-0.140189,0
2024-12-13 15:17:30.679,-0.529113,7.05075,16.22,-0.178444,-0.0672696,-0.117588,0
2024-12-13 15:17:30.682,-0.45015,6.90688,16.5024,-0.195547,-0.0892601,-0.0925434,0
2024-12-13 15:17:30.684,-0.469292,6.74656,16.7755,-0.214484,-0.108807,-0.0693312,0
2024-12-13 15:17:30.686,-0.488435,6.6006,17.0172,-0.232809,-0.122246,-0.0485624,0
2024-12-13 15:17:30.689,-0.483649,6.46421,17.2352,-0.248691,-0.134463,-0.0277936,0
2024-12-13 15:17:30.691,-0.454935,6.31316,17.4362,-0.261519,-0.142404,-0.00824644,0
2024-12-13 15:17:30.696,-0.34008,5.95424,17.8217,-0.270682,-0.14668,0.0290152,0
2024-12-13 15:17:30.696,-0.34008,5.95424,17.8217,-0.270682,-0.14668,0.0290152,0
2024-12-13 15:17:30.698,-0.316152,5.77209,18.0467,-0.267017,-0.143015,0.0467298,0
2024-12-13 15:17:30.700,-0.289831,5.5687,18.248,-0.256021,-0.135684,0.0626118,0
2024-12-13 15:17:30.703,-0.263211,5.3677,18.4107,-0.237085,-0.127743,0.0736071,1
2024-12-13 15:17:30.705,-0.246461,5.16162,18.5351,-0.207764,-0.122246,0.0827698,0
2024-12-13 15:17:30.708,-0.224925,4.9343,18.6308,-0.170503,-0.116748,0.0913217,0
2024-12-13 15:17:30.710,-0.193819,4.71386,18.7098,-0.125911,-0.116137,0.0974301,0
2024-12-13 15:17:30.715,-0.102891,4.28794,18.6978,-0.0110716,-0.120413,0.0992627,0
2024-12-13 15:17:30.715,-0.102891,4.28794,18.6978,-0.0110716,-0.120413,0.0992627,0
2024-12-13 15:17:30.719,0.0191426,3.87129,18.3796,0.0548999,-0.127133,0.0974301,0
2024-12-13 15:17:30.719,0.0191426,3.87129,18.3796,0.0548999,-0.127133,0.0974301,0
2024-12-13 15:17:30.722,0.102891,3.71336,18.1185,0.202725,-0.140571,0.0839915,0
2024-12-13 15:17:30.724,0.189033,3.57189,17.8098,0.279692,-0.147291,0.0736071,0
2024-12-13 15:17:30.729,0.311366,3.3015,17.0746,0.442253,-0.161951,0.046119,0
2024-12-13 15:17:30.729,0.311366,3.3015,17.0746,0.442253,-0.161951,0.046119,0
2024-12-13 15:17:30.733,0.404686,3.08345,16.2727,0.524107,-0.172946,0.0302369,0
2024-12-13 15:17:30.733,0.404686,3.08345,16.2727,0.524107,-0.172946,0.0302369,0
2024-12-13 15:17:30.736,0.486042,2.97577,15.8273,0.687203,-0.193715,-0.00458135,0
2024-12-13 15:17:30.738,0.576969,2.87767,15.358,0.764781,-0.201656,-0.0247393,0
2024-12-13 15:17:30.741,0.660718,2.79631,14.8795,0.840526,-0.209597,-0.0442864,0
2024-12-13 15:17:30.743,0.73011,2.7341,14.3934,0.912606,-0.215705,-0.0668878,0
2024-12-13 15:17:30.745,0.782752,2.6671,13.905,0.983464,-0.221814,-0.0901,0
2024-12-13 15:17:30.748,0.857229,2.61924,13.4142,1.04882,-0.232198,-0.11209,0
2024-12-13 15:17:30.752,0.955334,2.55224,12.4493,1.11174,-0.240139,-0.134081,0
2024-12-13 15:17:30.755,0.991227,2.53549,11.9776,1.22597,-0.268238,-0.179895,0
2024-12-13 15:17:30.755,0.991227,2.53549,11.9776,1.22597,-0.268238,-0.179895,0
2024-12-13 15:17:30.757,1.02233,2.52592,11.4963,1.2785,-0.282288,-0.201274,0
2024-12-13 15:17:30.759,1.04148,2.53071,11.0034,1.32737,-0.297559,-0.224486,0
2024-12-13 15:17:30.762,1.07019,2.54267,10.515,1.37135,-0.310998,-0.245255,0
2024-12-13 15:17:30.766,1.15155,2.58096,9.55484,1.45015,-0.34154,-0.28496,0
2024-12-13 15:17:30.766,1.15155,2.58096,9.55484,1.45015,-0.34154,-0.28496,0
2024-12-13 15:17:30.769,1.2018,2.60967,9.06641,1.48375,-0.354368,-0.305118,0
2024-12-13 15:17:30.771,1.24726,2.65035,8.59951,1.5149,-0.367806,-0.324665,0
2024-12-13 15:17:30.774,1.2664,2.69342,8.16162,1.53811,-0.381245,-0.345434,0
2024-12-13 15:17:30.776,1.24965,2.73649,7.75215,1.5601,-0.395295,-0.36376,0
2024-12-13 15:17:30.778,1.21615,2.7676,7.38335,1.57476,-0.408733,-0.382085,0
2024-12-13 15:17:30.781,1.20419,2.79631,7.04118,1.58393,-0.422172,-0.399189,0
2024-12-13 15:17:30.783,1.17069,2.84178,6.69153,1.58881,-0.437443,-0.412627,0
2024-12-13 15:17:30.785,1.11565,2.88963,6.36102,1.5882,-0.452714,-0.423623,0
2024-12-13 15:17:30.788,1.07258,2.94227,6.05952,1.58515,-0.461877,-0.434618,0
2024-12-13 15:17:30.790,1.01994,2.99731,5.78405,1.57599,-0.469818,-0.442559,0
2024-12-13 15:17:30.792,0.957727,3.04517,5.52323,1.56255,-0.475316,-0.447446,0
2024-12-13 15:17:30.795,0.897907,3.09571,5.27647,1.54117,-0.481424,-0.451111,0
2024-12-13 15:17:30.799,0.794716,3.22732,4.87687,1.49047,-0.497306,-0.452943,0
2024-12-13 15:17:30.802,0.794716,3.22732,4.87687,1.45931,-0.506469,-0.4505,0
2024-12-13 15:17:30.802,0.710967,3.28475,4.733,1.45931,-0.506469,-0.4505,0
2024-12-13 15:17:30.804,0.646361,3.33978,4.60618,1.4245,-0.515021,-0.444391,0
2024-12-13 15:17:30.809,0.553041,3.45703,4.41715,1.34631,-0.541287,-0.428509,0
2024-12-13 15:17:30.809,0.553041,3.45703,4.41715,1.34631,-0.541287,-0.428509,0
2024-12-13 15:17:30.811,0.524327,3.50489,4.34776,1.30416,-0.555947,-0.418125,0
2024-12-13 15:17:30.814,0.500399,3.54796,4.30708,1.25896,-0.571829,-0.40713,0
2024-12-13 15:17:30.818,0.488435,3.64606,4.25444,1.16122,-0.606037,-0.380863,0
2024-12-13 15:17:30.818,0.488435,3.64606,4.25444,1.16122,-0.606037,-0.380863,0
2024-12-13 15:17:30.821,0.514756,3.68226,4.23051,1.10991,-0.627416,-0.366814,0
2024-12-13 15:17:30.823,0.553041,3.72054,4.21376,1.05982,-0.648796,-0.34971,0
2024-12-13 15:17:30.825,0.579362,3.75643,4.20389,1.00607,-0.670787,-0.33505,0
2024-12-13 15:17:30.828,0.615255,3.77557,4.19432,0.949867,-0.689112,-0.319168,0
2024-12-13 15:17:30.832,0.766002,3.82343,4.17278,0.835028,-0.725763,-0.288625,0
2024-12-13 15:17:30.835,0.84018,3.833,4.15125,0.776998,-0.736147,-0.274576,0
2024-12-13 15:17:30.837,0.924228,3.85932,4.14168,0.720189,-0.739812,-0.261137,0
2024-12-13 15:17:30.837,0.924228,3.85932,4.14168,0.720189,-0.739812,-0.261137,0
2024-12-13 15:17:30.842,1.08215,3.86411,4.14407,0.602295,-0.733704,-0.236703,0
2024-12-13 15:17:30.842,1.08215,3.86411,4.14407,0.602295,-0.733704,-0.236703,0
2024-12-13 15:17:30.847,1.15872,3.84257,4.21376,0.486845,-0.714768,-0.218378,0
2024-12-13 15:17:30.847,1.23529,3.84257,4.21376,0.486845,-0.714768,-0.218378,0
2024-12-13 15:17:30.849,1.30469,3.82822,4.25205,0.428815,-0.697053,-0.211048,0
2024-12-13 15:17:30.851,1.35972,3.79472,4.30947,0.372006,-0.676284,-0.207993,0
2024-12-13 15:17:30.854,1.41506,3.76361,4.37887,0.318175,-0.650629,-0.204328,0
2024-12-13 15:17:30.856,1.45573,3.7325,4.45304,0.263199,-0.623141,-0.200052,0
2024-12-13 15:17:30.858,1.47488,3.68465,4.54397,0.210666,-0.59382,-0.19822,0
2024-12-13 15:17:30.861,1.50598,3.63171,4.6349,0.159966,-0.560223,-0.196998,0
2024-12-13 15:17:30.865,1.57059,3.54556,4.77159,0.0640626,-0.483867,-0.199442,0
2024-12-13 15:17:30.865,1.57059,3.54556,4.77159,0.0640626,-0.483867,-0.199442,0
2024-12-13 15:17:30.868,1.57537,3.50728,4.86969,0.0640626,-0.483867,-0.199442,0
2024-12-13 15:17:30.870,1.51795,3.46899,4.9678,-0.0257319,-0.405068,-0.208604,0
2024-12-13 15:17:30.872,1.34536,3.44267,5.0324,-0.0666587,-0.362309,-0.211048,0
2024-12-13 15:17:30.875,1.30469,3.45224,5.10419,-0.0990336,-0.309165,-0.209215,0
2024-12-13 15:17:30.877,1.40548,3.46182,5.18076,-0.131409,-0.260297,-0.209826,0
2024-12-13 15:17:30.880,1.41745,3.45224,5.26929,-0.157675,-0.210819,-0.211048,0
2024-12-13 15:17:30.882,1.38126,3.43789,5.38445,-0.184552,-0.172946,-0.214102,0
2024-12-13 15:17:30.884,1.32383,3.41396,5.49452,-0.210208,-0.143015,-0.217156,0
2024-12-13 15:17:30.887,1.26879,3.38046,5.61177,-0.230977,-0.117359,-0.220821,0
2024-12-13 15:17:30.889,1.24726,3.34457,5.70269,-0.246248,-0.093536,-0.225708,0
2024-12-13 15:17:30.891,1.22812,3.29671,5.76969,-0.246248,-0.093536,-0.225708,0
2024-12-13 15:17:30.894,1.19222,3.24646,5.83909,-0.27679,-0.0471116,-0.230595,0
2024-12-13 15:17:30.896,1.15394,3.19861,5.93031,-0.284731,-0.0232886,-0.235482,0
2024-12-13 15:17:30.898,1.11087,3.15314,6.01885,-0.287785,0.00114534,-0.235482,0
2024-12-13 15:17:30.901,1.0343,3.134,6.11695,-0.294505,0.0231358,-0.235482,0
2024-12-13 15:17:30.903,0.964906,3.12443,6.22463,-0.29817,0.0439046,-0.239147,0
2024-12-13 15:17:30.905,0.905085,3.09571,6.31316,-0.29817,0.0439046,-0.239147,0
2024-12-13 15:17:30.908,0.857229,3.07627,6.38973,-0.292672,0.0750579,-0.236092,0
2024-12-13 15:17:30.910,0.835394,3.08345,6.46182,-0.289618,0.0811663,-0.237314,0
2024-12-13 15:17:30.912,0.792323,3.09093,6.52403,-0.283509,0.0891073,-0.235482,0
2024-12-13 15:17:30.915,0.734896,3.06431,6.56949,-0.281066,0.0884965,-0.235482,0
2024-12-13 15:17:30.917,0.703789,3.04517,6.61017,-0.271903,0.0842206,-0.234871,0
2024-12-13 15:17:30.922,0.629611,3.00927,6.67717,-0.253578,0.0756687,-0.233649,0
2024-12-13 15:17:30.922,0.629611,3.00927,6.67717,-0.253578,0.0756687,-0.233649,0
2024-12-13 15:17:30.927,0.553041,2.9327,6.68914,-0.230366,0.0579541,-0.232427,0
2024-12-13 15:17:30.927,0.553041,2.9327,6.68914,-0.230366,0.0579541,-0.232427,0
2024-12-13 15:17:30.931,0.502792,2.89681,6.68196,-0.215705,0.0487914,-0.228762,0
2024-12-13 15:17:30.934,0.502792,2.88485,6.65803,-0.187606,0.0261901,-0.22693,0
2024-12-13 15:17:30.936,0.435793,2.85135,6.63171,-0.172335,0.0133623,-0.225708,0
2024-12-13 15:17:30.937,0.435793,2.85135,6.63171,-0.159507,0.00236703,-0.225097,0
2024-12-13 15:17:30.938,0.421436,2.82742,6.58385,-0.159507,0.00236703,-0.225097,0
2024-12-13 15:17:30.941,0.3999,2.82263,6.54078,-0.144236,-0.0110716,-0.223876,0
2024-12-13 15:17:30.943,0.373579,2.81067,6.5025,-0.130798,-0.0257319,-0.224486,0
2024-12-13 15:17:30.945,0.354437,2.80349,6.46182,-0.113694,-0.0391706,-0.222654,0
2024-12-13 15:17:30.948,0.332901,2.79153,6.4328,-0.100866,-0.0538309,-0.223265,0
2024-12-13 15:17:30.955,0.241675,2.75324,6.32273,-0.0868167,-0.0684913,-0.220821,0
2024-12-13 15:17:30.957,0.191426,2.74606,6.28445,-0.0483333,-0.105753,-0.214713,0
2024-12-13 15:17:30.960,0.141177,2.76281,6.25095,-0.0348946,-0.118581,-0.210437,0
2024-12-13 15:17:30.960,0.141177,2.76281,6.25095,-0.0348946,-0.118581,-0.210437,0
2024-12-13 15:17:30.962,0.0909273,2.77238,6.22702,-0.0238994,-0.128354,-0.203718,0
2024-12-13 15:17:30.964,0.0454636,2.78674,6.19352,-0.00923906,-0.136295,-0.196998,0
2024-12-13 15:17:30.967,0.0143569,2.81545,6.15524,0.00297788,-0.13996,-0.188446,0
2024-12-13 15:17:30.967,0.0143569,2.81545,6.15524,0.00297788,-0.13996,-0.188446,0
2024-12-13 15:17:30.969,-0.00717847,2.84656,6.12174,0.0139731,-0.142404,-0.178062,0
2024-12-13 15:17:30.971,-0.0215354,2.86331,6.09781,0.0261901,-0.140571,-0.166456,0
2024-12-13 15:17:30.974,-0.026321,2.88485,6.05952,0.038407,-0.136906,-0.15485,0
2024-12-13 15:17:30.976,-0.0167498,2.92074,6.0021,0.0500131,-0.134463,-0.142633,0
2024-12-13 15:17:30.978,-0.00478565,2.95663,5.92792,0.0603975,-0.130798,-0.131638,0
2024-12-13 15:17:30.983,0.0,2.98056,5.79601,0.0787229,-0.128354,-0.103539,0
2024-12-13 15:17:30.983,0.00478565,2.99731,5.79601,0.0787229,-0.128354,-0.103539,0
2024-12-13 15:17:30.985,0.00957129,3.01884,5.72184,0.0836097,-0.128354,-0.0907108,0
2024-12-13 15:17:30.988,0.0215354,3.0332,5.64048,0.0878856,-0.128354,-0.0784939,0
2024-12-13 15:17:30.990,0.0358923,3.05474,5.54955,0.0939941,-0.129576,-0.0650552,0
2024-12-13 15:17:30.993,0.0358923,3.08584,5.48255,0.0988809,-0.132019,-0.0503949,0
2024-12-13 15:17:30.995,0.040678,3.09811,5.41077,0.102546,-0.135074,-0.0387888,0
2024-12-13 15:17:30.997,0.0430708,3.09811,5.32672,0.103768,-0.136906,-0.0271827,0
2024-12-13 15:17:31.000,0.0382852,3.11486,5.25015,0.102546,-0.13935,-0.0155766,0
2024-12-13 15:17:31.002,0.0358923,3.13161,5.18315,0.104379,-0.138739,-0.00213797,0
2024-12-13 15:17:31.004,0.0334995,3.15314,5.10419,0.103768,-0.135074,0.00763559,0
2024-12-13 15:17:31.007,0.0334995,3.18425,5.02762,0.0994917,-0.133852,0.0204634,0
2024-12-13 15:17:31.009,0.0382852,3.21296,4.94866,0.0933833,-0.134463,0.0290152,0
2024-12-13 15:17:31.011,0.0311067,3.24646,4.87926,0.0909399,-0.132019,0.0393996,0
2024-12-13 15:17:31.014,0.0143569,3.27518,4.80987,0.0842206,-0.135074,0.0510057,0
2024-12-13 15:17:31.018,0.0574277,3.33739,4.65404,0.0793338,-0.136906,0.0595576,0
2024-12-13 15:17:31.018,0.0574277,3.33739,4.65404,0.0793338,-0.136906,0.0595576,0
2024-12-13 15:17:31.021,0.066999,3.38046,4.57268,0.0591758,-0.143625,0.0766613,0
2024-12-13 15:17:31.023,0.0885344,3.41875,4.49133,0.0487914,-0.149734,0.0846023,0
2024-12-13 15:17:31.026,0.119641,3.43789,4.41236,0.0335202,-0.155232,0.0925434,0
2024-12-13 15:17:31.028,0.136391,3.47378,4.34058,0.0219141,-0.157675,0.098041,0
2024-12-13 15:17:31.030,0.167498,3.52164,4.27837,0.00236703,-0.158897,0.10476,0
2024-12-13 15:17:31.033,0.215354,3.55514,4.22333,-0.0153475,-0.158286,0.109647,0
2024-12-13 15:17:31.037,0.272782,3.65354,4.12253,-0.0593285,-0.155842,0.119421,0
2024-12-13 15:17:31.040,0.27996,3.70618,4.10578,-0.0800973,-0.150956,0.121864,0
2024-12-13 15:17:31.042,0.27996,3.70618,4.10578,-0.105142,-0.144847,0.12614,0
2024-12-13 15:17:31.042,0.287438,3.76122,4.101,-0.105142,-0.144847,0.12614,0
2024-12-13 15:17:31.044,0.308973,3.81386,4.11057,-0.135074,-0.137517,0.130416,0
2024-12-13 15:17:31.047,0.332901,3.85454,4.14886,-0.163783,-0.126522,0.134157,0
2024-12-13 15:17:31.049,0.337687,3.88086,4.17757,-0.194937,-0.115526,0.137822,0
2024-12-13 15:17:31.051,0.347258,3.93111,4.21376,-0.223646,-0.104531,0.139655,0
2024-12-13 15:17:31.054,0.35683,3.99093,4.25683,-0.257243,-0.0941468,0.143931,0
2024-12-13 15:17:31.056,0.364008,4.034,4.30708,-0.293283,-0.0837624,0.149429,0
2024-12-13 15:17:31.059,0.361615,4.07707,4.37887,-0.32749,-0.0752106,0.154926,0
2024-12-13 15:17:31.061,0.361615,4.12493,4.46501,-0.359865,-0.065437,0.15737,0
2024-12-13 15:17:31.063,0.35683,4.168,4.56311,-0.398349,-0.0550526,0.161035,0
2024-12-13 15:17:31.066,0.349651,4.20389,4.6684,-0.431335,-0.041614,0.165311,0
2024-12-13 15:17:31.068,0.361615,4.25683,4.78116,-0.465542,-0.0306187,0.167754,0
2024-12-13 15:17:31.070,0.383151,4.30708,4.90559,-0.465542,-0.0306187,0.167754,0
2024-12-13 15:17:31.075,0.387936,4.37887,5.17358,-0.563278,0.00786466,0.173252,0
2024-12-13 15:17:31.075,0.387936,4.37887,5.17358,-0.563278,0.00786466,0.173252,0
2024-12-13 15:17:31.077,0.404686,4.42194,5.30758,-0.590766,0.0213033,0.174473,0
2024-12-13 15:17:31.080,0.431007,4.46979,5.4682,-0.618865,0.0341311,0.171419,0
2024-12-13 15:17:31.082,0.45015,4.52004,5.62852,-0.646353,0.0469589,0.168976,0
2024-12-13 15:17:31.087,0.517149,4.59183,5.91117,-0.689112,0.0658951,0.158591,0
2024-12-13 15:17:31.087,0.517149,4.59183,5.91117,-0.689112,0.0658951,0.158591,0
2024-12-13 15:17:31.089,0.548256,4.63729,6.04756,-0.711713,0.0689494,0.151872,0
2024-12-13 15:17:31.091,0.579362,4.68754,6.18156,-0.728206,0.0756687,0.144542,0
2024-12-13 15:17:31.094,0.624826,4.733,6.31077,-0.728206,0.0756687,0.144542,0
2024-12-13 15:17:31.096,0.682254,4.78355,6.42084,-0.760581,0.0817772,0.124918,0
2024-12-13 15:17:31.099,0.715753,4.83619,6.54078,-0.777074,0.0842206,0.113312,0
2024-12-13 15:17:31.101,0.720539,4.88644,6.67956,-0.789291,0.082388,0.101095,0
2024-12-13 15:17:31.103,0.734896,4.92473,6.81117,-0.789291,0.082388,0.101095,0
2024-12-13 15:17:31.106,0.766002,4.97737,6.92602,-0.812503,0.0726145,0.0766613,0
2024-12-13 15:17:31.108,0.787538,5.0348,7.03639,-0.82472,0.0658951,0.0626118,0
2024-12-13 15:17:31.110,0.787538,5.08026,7.16082,-0.836937,0.0610084,0.0497841,0
2024-12-13 15:17:31.113,0.780359,5.12573,7.28525,-0.842435,0.0591758,0.038178,0
2024-12-13 15:17:31.115,0.777966,5.16401,7.39771,-0.85343,0.058565,0.025961,0
2024-12-13 15:17:31.117,0.787538,5.2023,7.52453,-0.860149,0.0603975,0.0106898,0
2024-12-13 15:17:31.120,0.80668,5.23819,7.67558,-0.860149,0.0603975,0.0106898,0
2024-12-13 15:17:31.122,0.821037,5.26451,7.81675,-0.873588,0.0658951,-0.00885729,0
2024-12-13 15:17:31.124,0.835394,5.29801,7.93639,-0.877253,0.0695602,-0.0192417,0
2024-12-13 15:17:31.127,0.854836,5.34138,8.05843,-0.879086,0.0750579,-0.0296261,0
2024-12-13 15:17:31.129,0.881157,5.35574,8.19512,-0.883362,0.0817772,-0.0430647,0
2024-12-13 15:17:31.132,0.9003,5.36291,8.3363,-0.885194,0.0897182,-0.05406,0
2024-12-13 15:17:31.134,0.926621,5.37727,8.46072,-0.888859,0.0964375,-0.0650552,0
2024-12-13 15:17:31.139,0.924228,5.42273,8.72902,-0.887637,0.11232,-0.0839915,0
2024-12-13 15:17:31.139,0.924228,5.42273,8.72902,-0.887637,0.11232,-0.0839915,0
2024-12-13 15:17:31.141,0.940978,5.42991,8.87498,-0.886416,0.120871,-0.0919325,0
2024-12-13 15:17:31.143,0.933799,5.44188,9.01616,-0.884583,0.131867,-0.098041,0
2024-12-13 15:17:31.146,0.9003,5.45863,9.14776,-0.88214,0.142251,-0.105982,0
2024-12-13 15:17:31.148,0.873978,5.47298,9.28684,-0.877864,0.15569,-0.110869,0
2024-12-13 15:17:31.153,0.816252,5.45145,9.56202,-0.869923,0.177069,-0.121253,0
2024-12-13 15:17:31.155,0.76361,5.44188,9.70319,-0.866258,0.185621,-0.123086,0
2024-12-13 15:17:31.155,0.76361,5.44188,9.70319,-0.866258,0.185621,-0.123086,0
2024-12-13 15:17:31.157,0.720539,5.43948,9.84946,-0.860149,0.197838,-0.123086,0
2024-12-13 15:17:31.162,0.658325,5.42752,10.127,-0.847322,0.211888,-0.126751,0
2024-12-13 15:17:31.162,0.658325,5.42752,10.127,-0.847322,0.211888,-0.126751,0
2024-12-13 15:17:31.164,0.617647,5.42273,10.2562,-0.841213,0.22044,-0.123697,0
2024-12-13 15:17:31.167,0.581755,5.39881,10.3881,-0.83205,0.223494,-0.121864,0
2024-12-13 15:17:31.169,0.553041,5.39402,10.515,-0.825331,0.22777,-0.121253,0
2024-12-13 15:17:31.172,0.521934,5.40838,10.6322,-0.825331,0.22777,-0.121253,0
2024-12-13 15:17:31.174,0.476471,5.40838,10.7495,-0.808838,0.227159,-0.113923,0
2024-12-13 15:17:31.176,0.445364,5.4012,10.8619,-0.800286,0.225326,-0.109036,0
2024-12-13 15:17:31.179,0.421436,5.38924,10.9771,-0.800286,0.225326,-0.109036,0
2024-12-13 15:17:31.181,0.404686,5.37727,11.1063,-0.776463,0.216774,-0.0968193,0
2024-12-13 15:17:31.183,0.409472,5.37488,11.2092,-0.764857,0.213109,-0.0894891,0
2024-12-13 15:17:31.186,0.392722,5.36291,11.3192,-0.749586,0.207001,-0.0846023,0
2024-12-13 15:17:31.188,0.378365,5.34856,11.4197,-0.731871,0.200282,-0.082159,0
2024-12-13 15:17:31.190,0.390329,5.3342,11.4987,-0.712324,0.194784,-0.0766613,0
2024-12-13 15:17:31.193,0.404686,5.31237,11.5756,-0.712324,0.194784,-0.0766613,0
2024-12-13 15:17:31.195,0.421436,5.3004,11.6306,-0.666511,0.180734,-0.0650552,0
2024-12-13 15:17:31.197,0.447757,5.29562,11.6833,-0.635968,0.173404,-0.0644444,0
2024-12-13 15:17:31.200,0.476471,5.28126,11.7359,-0.607259,0.167907,-0.0638335,0
2024-12-13 15:17:31.202,0.512363,5.25972,11.7694,-0.576716,0.161187,-0.0632227,0
2024-12-13 15:17:31.205,0.531506,5.25733,11.779,-0.542509,0.152635,-0.0632227,0
2024-12-13 15:17:31.207,0.538684,5.25254,11.7885,-0.505858,0.147749,-0.0638335,0
2024-12-13 15:17:31.209,0.550648,5.24058,11.7814,-0.466764,0.141029,-0.0662769,0
2024-12-13 15:17:31.212,0.581755,5.23819,11.7503,-0.429502,0.136143,-0.0693312,0
2024-12-13 15:17:31.214,0.591326,5.24776,11.7191,-0.386132,0.125147,-0.0736071,0
2024-12-13 15:17:31.216,0.591326,5.25972,11.6665,-0.345205,0.115985,-0.0784939,0
2024-12-13 15:17:31.219,0.591326,5.27169,11.5899,-0.304278,0.107433,-0.0797156,0
2024-12-13 15:17:31.223,0.567398,5.36052,11.4317,-0.221203,0.0915507,-0.0888783,0
2024-12-13 15:17:31.226,0.550648,5.39641,11.324,-0.179055,0.0884965,-0.0925434,0
2024-12-13 15:17:31.228,0.52672,5.43948,11.214,-0.141182,0.0817772,-0.0943759,0
2024-12-13 15:17:31.228,0.52672,5.43948,11.214,-0.141182,0.0817772,-0.0943759,0
2024-12-13 15:17:31.233,0.483649,5.52323,10.9986,-0.0703238,0.0683385,-0.098041,0
2024-12-13 15:17:31.233,0.483649,5.52323,10.9986,-0.0703238,0.0683385,-0.098041,0
2024-12-13 15:17:31.235,0.452543,5.57348,10.8715,-0.0397814,0.0616192,-0.0998735,0
2024-12-13 15:17:31.238,0.423829,5.63091,10.7471,-0.0177909,0.0542891,-0.101706,0
2024-12-13 15:17:31.240,0.426222,5.67637,10.6394,0.00786466,0.0512348,-0.098041,0
2024-12-13 15:17:31.242,0.419043,5.71227,10.5269,0.0286335,0.0432938,-0.0968193,0
2024-12-13 15:17:31.245,0.395115,5.75294,10.4192,0.0432938,0.0396287,-0.0943759,0
2024-12-13 15:17:31.247,0.380758,5.8008,10.3232,0.0579541,0.0365745,-0.0913217,0
2024-12-13 15:17:31.249,0.378365,5.85344,10.2251,0.0646735,0.0310769,-0.0864349,0
2024-12-13 15:17:31.252,0.368794,5.90399,10.1366,0.0720036,0.0316877,-0.0809373,0
2024-12-13 15:17:31.254,0.35683,5.9351,10.0672,0.0750579,0.0298552,-0.0754396,0
2024-12-13 15:17:31.256,0.364008,5.96142,10.0217,0.0775012,0.030466,-0.069942,0
2024-12-13 15:17:31.261,0.337687,6.00688,10.0002,0.0811663,0.0414613,-0.0558925,0
2024-12-13 15:17:31.263,0.342473,6.05235,10.0098,0.0817772,0.0457372,-0.0479515,0
2024-12-13 15:17:31.266,0.342473,6.07388,10.0122,0.0781121,0.050624,-0.0400105,0
2024-12-13 15:17:31.266,0.368794,6.07388,10.0122,0.0781121,0.050624,-0.0400105,0
2024-12-13 15:17:31.268,0.395115,6.08585,10.0313,0.0756687,0.0536782,-0.033902,0
2024-12-13 15:17:31.270,0.409472,6.10259,10.0816,0.0720036,0.058565,-0.0284044,0
2024-12-13 15:17:31.273,0.41665,6.10738,10.1701,0.0646735,0.0591758,-0.0204634,0
2024-12-13 15:17:31.275,0.414257,6.12892,10.2945,0.0640626,0.0616192,-0.0155766,0
2024-12-13 15:17:31.280,0.387936,6.18874,10.5269,0.0683385,0.066506,-0.00213797,0
2024-12-13 15:17:31.285,0.392722,6.22463,10.759,0.0707819,0.0683385,0.0143549,0
2024-12-13 15:17:31.285,0.392722,6.22463,10.759,0.0707819,0.0683385,0.0143549,0
2024-12-13 15:17:31.287,0.3999,6.2677,10.8739,0.0750579,0.0683385,0.0204634,0
2024-12-13 15:17:31.289,0.404686,6.29402,10.9938,0.0829989,0.0683385,0.0253502,0
2024-12-13 15:17:31.292,0.41665,6.31316,11.1039,0.0927724,0.0701711,0.0302369,0
2024-12-13 15:17:31.294,0.428614,6.35384,11.2068,0.103157,0.0683385,0.0332912,0
2024-12-13 15:17:31.294,0.428614,6.35384,11.2068,0.103157,0.0683385,0.0332912,0
2024-12-13 15:17:31.296,0.438186,6.40409,11.2929,0.114152,0.0646735,0.0369563,0
2024-12-13 15:17:31.299,0.45015,6.45195,11.3815,0.128812,0.0652843,0.0400105,0
2024-12-13 15:17:31.301,0.452543,6.48096,11.4532,0.140419,0.0610084,0.0430647,0
2024-12-13 15:17:31.303,0.445364,6.52164,11.5373,0.155079,0.0548999,0.0448973,0
2024-12-13 15:17:31.306,0.442971,6.57428,11.6186,0.169128,0.0487914,0.0485624,0
2024-12-13 15:17:31.308,0.442971,6.61017,11.6761,0.18501,0.0432938,0.0528383,0
2024-12-13 15:17:31.311,0.454935,6.63649,11.7311,0.18501,0.0432938,0.0528383,0
2024-12-13 15:17:31.315,0.490828,6.73939,11.8316,0.230824,0.0219141,0.0632227,0
2024-12-13 15:17:31.315,0.490828,6.73939,11.8316,0.230824,0.0219141,0.0632227,0
2024-12-13 15:17:31.318,0.498006,6.77049,11.8651,0.244263,0.0133623,0.0674986,0
2024-12-13 15:17:31.320,0.505185,6.79681,11.8819,0.244263,0.0133623,0.0674986,0
2024-12-13 15:17:31.322,0.517149,6.84945,11.8962,0.269307,-0.00679568,0.0784939,0
2024-12-13 15:17:31.325,0.54347,6.91645,11.9273,0.279081,-0.0220669,0.0815481,0
2024-12-13 15:17:31.327,0.574577,6.94995,11.9632,0.285189,-0.0324513,0.085824,0
2024-12-13 15:17:31.332,0.648754,7.04357,11.9871,0.294352,-0.0397814,0.0913217,0
2024-12-13 15:17:31.332,0.648754,7.04357,11.9871,0.294352,-0.0397814,0.0913217,0
2024-12-13 15:17:31.336,0.725324,7.09621,11.9967,0.313288,-0.0538309,0.100484,0
2024-12-13 15:17:31.336,0.725324,7.09621,11.9967,0.313288,-0.0538309,0.100484,0
2024-12-13 15:17:31.339,0.761217,7.13211,11.9943,0.315121,-0.0519984,0.102928,0
2024-12-13 15:17:31.341,0.799502,7.17039,11.9824,0.318786,-0.0471116,0.102928,0
2024-12-13 15:17:31.344,0.854836,7.19671,11.9608,0.318786,-0.0471116,0.102928,0
2024-12-13 15:17:31.348,0.909871,7.24457,11.9273,0.316953,-0.0171801,0.098041,0
2024-12-13 15:17:31.348,0.950549,7.30439,11.913,0.316953,-0.0171801,0.098041,0
2024-12-13 15:17:31.351,0.99362,7.35225,11.9178,0.312067,-0.00374144,0.0949868,0
2024-12-13 15:17:31.353,1.04626,7.41207,11.8938,0.30718,0.0109189,0.0919325,0
2024-12-13 15:17:31.355,1.07976,7.47667,11.8795,0.301071,0.0231358,0.0839915,0
2024-12-13 15:17:31.360,1.09651,7.52932,11.8484,0.285189,0.0481806,0.069942,0
2024-12-13 15:17:31.360,1.0989,7.58465,11.8484,0.285189,0.0481806,0.069942,0
2024-12-13 15:17:31.362,1.09412,7.63729,11.8053,0.277248,0.0591758,0.0607793,0
2024-12-13 15:17:31.365,1.09173,7.7019,11.7933,0.26381,0.0726145,0.0516166,0
2024-12-13 15:17:31.372,1.08215,7.79761,11.7191,0.236322,0.131867,0.025961,0
2024-12-13 15:17:31.374,1.01994,7.80958,11.6904,0.204557,0.155079,0.0174091,0
2024-12-13 15:17:31.374,1.01994,7.80958,11.6904,0.204557,0.155079,0.0174091,0
2024-12-13 15:17:31.379,0.917049,7.8335,11.6569,0.164852,0.208223,0.00274881,0
2024-12-13 15:17:31.379,0.917049,7.8335,11.6569,0.164852,0.208223,0.00274881,0
2024-12-13 15:17:31.381,0.873978,7.83111,11.6426,0.142862,0.232046,-0.0051922,0
2024-12-13 15:17:31.384,0.816252,7.81197,11.633,0.117206,0.254647,-0.0137441,0
2024-12-13 15:17:31.384,0.816252,7.81197,11.633,0.117206,0.254647,-0.0137441,0
2024-12-13 15:17:31.386,0.737288,7.76172,11.6402,0.090329,0.272362,-0.0235176,0
2024-12-13 15:17:31.388,0.63679,7.6995,11.6593,0.0579541,0.285189,-0.0277936,0
2024-12-13 15:17:31.393,0.447757,7.51257,11.7503,0.0268009,0.295574,-0.0320695,0
2024-12-13 15:17:31.395,0.34008,7.4001,11.8149,-0.037338,0.303515,-0.0363454,0
2024-12-13 15:17:31.395,0.34008,7.4001,11.8149,-0.037338,0.303515,-0.0363454,0
2024-12-13 15:17:31.398,0.224925,7.25893,11.9201,-0.0715455,0.298628,-0.0363454,0
2024-12-13 15:17:31.401,0.0717847,7.05554,12.0015,-0.147901,0.294963,-0.0296261,0
2024-12-13 15:17:31.402,-0.0478565,6.87817,12.0832,-0.147901,0.294963,-0.0296261,0
2024-12-13 15:17:31.405,-0.0861416,6.74896,12.2172,-0.147901,0.294963,-0.0296261,0
2024-12-13 15:17:31.407,-0.129212,6.61735,12.3775,-0.229144,0.274805,-0.0125224,0
2024-12-13 15:17:31.412,-0.22014,6.40648,12.8133,-0.296948,0.230213,0.0119115,0
2024-12-13 15:17:31.412,-0.22014,6.40648,12.8133,-0.296948,0.230213,0.0119115,0
2024-12-13 15:17:31.414,-0.246461,6.26291,13.0621,-0.328101,0.207612,0.025961,0
2024-12-13 15:17:31.417,-0.227318,6.09063,13.3208,-0.355589,0.186232,0.0430647,0
2024-12-13 15:17:31.419,-0.198604,5.90878,13.5769,-0.379413,0.168517,0.0589468,0
2024-12-13 15:17:31.421,-0.153141,5.70987,13.8117,-0.394684,0.158744,0.0729962,0
2024-12-13 15:17:31.426,-0.0334995,5.27408,14.2807,-0.416674,0.146527,0.098041,0
2024-12-13 15:17:31.426,-0.0334995,5.27408,14.2807,-0.416674,0.146527,0.098041,0
2024-12-13 15:17:31.428,0.0143569,5.06351,14.5011,-0.416674,0.150803,0.107204,0
2024-12-13 15:17:31.431,0.0646062,4.86012,14.6997,-0.413009,0.158744,0.116366,0
2024-12-13 15:17:31.435,0.0933201,4.4674,15.1116,-0.387964,0.202114,0.131027,0
2024-12-13 15:17:31.435,0.0933201,4.4674,15.1116,-0.387964,0.202114,0.131027,0
2024-12-13 15:17:31.438,0.0909273,4.27597,15.3485,-0.36292,0.2351,0.139044,0
2024-12-13 15:17:31.440,0.0693919,4.08425,15.5833,-0.332377,0.276637,0.145763,0
2024-12-13 15:17:31.445,0.0502493,3.71575,15.9159,-0.241972,0.37193,0.161645,0
2024-12-13 15:17:31.447,0.0502493,3.71575,16.0286,-0.185163,0.422019,0.171419,0
2024-12-13 15:17:31.447,0.0239282,3.53121,16.0286,-0.185163,0.422019,0.171419,0
2024-12-13 15:17:31.449,-0.00957129,3.38046,16.0645,-0.120413,0.475163,0.181193,0
2024-12-13 15:17:31.452,-0.0454636,3.25364,16.043,-0.0477224,0.531361,0.189134,1
2024-12-13 15:17:31.454,-0.0837488,3.11964,15.9709,0.0274118,0.583283,0.198296,0
2024-12-13 15:17:31.459,-0.200997,2.91835,15.667,0.194173,0.681629,0.218454,0
2024-12-13 15:17:31.461,-0.292223,2.83938,15.4684,0.194173,0.681629,0.218454,0
2024-12-13 15:17:31.464,-0.380758,2.77956,15.2384,0.367043,0.762948,0.236169,0
2024-12-13 15:17:31.464,-0.380758,2.77956,15.2384,0.367043,0.762948,0.236169,0
2024-12-13 15:17:31.466,-0.459721,2.74846,14.9895,0.457525,0.796545,0.245942,0
2024-12-13 15:17:31.468,-0.54347,2.71017,14.7284,0.544265,0.823422,0.250829,0
2024-12-13 15:17:31.473,-0.734896,2.67189,14.094,0.721411,0.860684,0.265489,0
2024-12-13 15:17:31.474,-0.734896,2.67189,14.094,0.802653,0.869847,0.270987,0
2024-12-13 15:17:31.478,-0.9003,2.68864,13.3998,0.883896,0.871679,0.276485,0
2024-12-13 15:17:31.478,-0.9003,2.68864,13.3998,0.883896,0.871679,0.276485,0
2024-12-13 15:17:31.480,-0.991227,2.69821,13.0262,0.962084,0.868014,0.281982,0
2024-12-13 15:17:31.482,-1.0654,2.73171,12.6314,1.036,0.859462,0.286869,0
2024-12-13 15:17:31.485,-1.12044,2.76281,12.2363,1.10319,0.848467,0.291756,0
2024-12-13 15:17:31.487,-1.15155,2.80349,11.8292,1.16611,0.831363,0.294199,0
2024-12-13 15:17:31.490,-1.17069,2.84417,11.4197,1.22353,0.810594,0.294199,0
2024-12-13 15:17:31.492,-1.19462,2.8657,11.0082,1.27178,0.78555,0.292978,0
2024-12-13 15:17:31.494,-1.21854,2.89203,10.6179,1.32187,0.759894,0.290534,0
2024-12-13 15:17:31.497,-1.25204,2.90878,10.2443,1.36036,0.730573,0.28748,0
2024-12-13 15:17:31.499,-1.29033,2.91356,9.87338,1.3964,0.702474,0.283204,0
2024-12-13 15:17:31.501,-1.31904,2.91117,9.51655,1.42877,0.670634,0.275874,0
2024-12-13 15:17:31.506,-1.38844,2.91835,8.82712,1.47336,0.605273,0.262435,0
2024-12-13 15:17:31.506,-1.38844,2.91835,8.82712,1.47336,0.605273,0.262435,0
2024-12-13 15:17:31.508,-1.40548,2.92313,8.47747,1.48802,0.571677,0.253273,0
2024-12-13 15:17:31.513,-1.47248,2.94467,7.867,1.50085,0.505705,0.239834,0
2024-12-13 15:17:31.515,-1.54905,2.94945,7.56999,1.49963,0.474552,0.231282,0
2024-12-13 15:17:31.518,-1.69502,2.95663,7.31157,1.48863,0.45134,0.220898,0
2024-12-13 15:17:31.518,-1.69502,2.95663,7.31157,1.48863,0.45134,0.220898,0
2024-12-13 15:17:31.520,-1.77398,2.99252,7.0675,1.47825,0.436069,0.213567,0
2024-12-13 15:17:31.523,-1.73809,3.05713,6.82553,1.46237,0.416521,0.207459,0
2024-12-13 15:17:31.525,-1.70219,3.10529,6.6341,1.44404,0.392698,0.201961,0
2024-12-13 15:17:31.527,-1.67587,3.11486,6.47857,1.419,0.368265,0.200129,0
2024-12-13 15:17:31.530,-1.64955,3.12443,6.31316,1.39762,0.34322,0.195853,0
2024-12-13 15:17:31.532,-1.63041,3.12682,6.15045,1.36708,0.32184,0.192799,0
2024-12-13 15:17:31.534,-1.62802,3.11007,5.99013,1.3347,0.301682,0.189744,0
2024-12-13 15:17:31.537,-1.6352,3.10768,5.8343,1.29927,0.280913,0.185468,0
2024-12-13 15:17:31.539,-1.65434,3.11486,5.67877,1.26079,0.262588,0.181803,0
2024-12-13 15:17:31.541,-1.67109,3.09332,5.53759,1.22108,0.244263,0.178138,0
2024-12-13 15:17:31.544,-1.67109,3.08854,5.40598,1.17527,0.226548,0.173862,0
2024-12-13 15:17:31.548,-1.64955,3.07867,5.17597,1.0867,0.200282,0.1647,0
2024-12-13 15:17:31.548,-1.64955,3.07867,5.17597,1.0867,0.200282,0.1647,0
2024-12-13 15:17:31.551,-1.6328,3.07867,5.10658,1.04088,0.185621,0.161035,0
2024-12-13 15:17:31.553,-1.60648,3.06431,5.04915,0.997514,0.172183,0.15798,0
2024-12-13 15:17:31.555,-1.57537,3.04038,5.00608,0.952311,0.158133,0.155537,0
2024-12-13 15:17:31.558,-1.53948,3.02602,4.96541,0.910162,0.146527,0.15065,0
2024-12-13 15:17:31.560,-1.4988,3.01167,4.94148,0.868014,0.135532,0.148207,0
2024-12-13 15:17:31.563,-1.43659,2.98774,4.92712,0.830141,0.124536,0.145763,0
2024-12-13 15:17:31.565,-1.36451,2.97338,4.92712,0.792269,0.117206,0.140266,0
2024-12-13 15:17:31.567,-1.29033,2.96142,4.93669,0.755618,0.11293,0.136601,0
2024-12-13 15:17:31.570,-1.20658,2.95424,4.94626,0.727519,0.104989,0.132859,0
2024-12-13 15:17:31.573,-1.12762,2.94706,4.95105,0.663991,0.0970484,0.122475,0
2024-12-13 15:17:31.577,-0.97687,2.94227,4.96062,0.638335,0.0933833,0.116366,0
2024-12-13 15:17:31.577,-0.97687,2.94227,4.96062,0.638335,0.0933833,0.116366,0
2024-12-13 15:17:31.579,-0.914656,2.94467,4.95105,0.614512,0.0933833,0.110258,0
2024-12-13 15:17:31.581,-0.864407,2.9327,4.94387,0.588246,0.0915507,0.103539,0
2024-12-13 15:17:31.584,-0.804287,2.91117,4.94626,0.565645,0.0921616,0.0949868,0
2024-12-13 15:17:31.586,-0.766002,2.90878,4.94626,0.548541,0.0933833,0.0907108,0
2024-12-13 15:17:31.588,-0.737288,2.90399,4.96062,0.548541,0.0933833,0.0907108,0
2024-12-13 15:17:31.593,-0.691825,2.8992,4.97498,0.491732,0.0958267,0.0723854,0
2024-12-13 15:17:31.593,-0.691825,2.8992,4.97498,0.491732,0.0958267,0.0723854,0
2024-12-13 15:17:31.596,-0.648754,2.90878,4.98933,0.491732,0.0958267,0.0723854,0
2024-12-13 15:17:31.598,-0.622433,2.92792,5.00608,0.459968,0.0988809,0.0674986,0
2024-12-13 15:17:31.600,-0.598505,2.93031,5.02044,0.448362,0.0964375,0.0644444,0
2024-12-13 15:17:31.603,-0.584148,2.92074,5.03001,0.433091,0.0988809,0.0644444,0
2024-12-13 15:17:31.605,-0.569791,2.90638,5.02523,0.420874,0.100713,0.0644444,0
2024-12-13 15:17:31.607,-0.550648,2.90638,5.03001,0.409268,0.101935,0.0650552,0
2024-12-13 15:17:31.610,-0.536291,2.91356,5.0348,0.409268,0.101935,0.0650552,0
2024-12-13 15:17:31.612,-0.531506,2.90399,5.02283,0.38911,0.103157,0.0705529,0
2024-12-13 15:17:31.614,-0.545863,2.89203,5.01566,0.380558,0.103768,0.0723854,0
2024-12-13 15:17:31.617,-0.538684,2.87528,5.03719,0.372006,0.103157,0.0766613,0
2024-12-13 15:17:31.621,-0.500399,2.8681,5.06112,0.362156,0.0970484,0.0876566,0
2024-12-13 15:17:31.624,-0.469292,2.85613,5.05873,0.359713,0.094605,0.0919325,0
2024-12-13 15:17:31.626,-0.45015,2.84895,5.0659,0.354215,0.0909399,0.098041,0
2024-12-13 15:17:31.626,-0.45015,2.84895,5.0659,0.354215,0.0909399,0.098041,0
2024-12-13 15:17:31.629,-0.435793,2.86092,5.07548,0.35055,0.0884965,0.101095,0
2024-12-13 15:17:31.633,-0.426222,2.88006,5.0994,0.349328,0.086664,0.112701,0
2024-12-13 15:17:31.633,-0.411865,2.88006,5.0994,0.349328,0.086664,0.112701,0
2024-12-13 15:17:31.636,-0.395115,2.92074,5.10658,0.348717,0.090329,0.120642,0
2024-12-13 15:17:31.638,-0.385544,2.93988,5.09462,0.351161,0.0915507,0.12614,0
2024-12-13 15:17:31.640,-0.368794,2.9662,5.07308,0.352993,0.0933833,0.132859,0
2024-12-13 15:17:31.643,-0.347258,3.01406,5.04198,0.35055,0.0927724,0.142098,0
2024-12-13 15:17:31.645,-0.330509,3.03559,4.99412,0.35055,0.0939941,0.151872,0
2024-12-13 15:17:31.647,-0.32333,3.04277,4.94387,0.349328,0.094605,0.159202,0
2024-12-13 15:17:31.650,-0.330509,3.07627,4.89362,0.346274,0.094605,0.165311,0
2024-12-13 15:17:31.652,-0.342473,3.11725,4.83859,0.340776,0.0933833,0.176306,0
2024-12-13 15:17:31.654,-0.34008,3.14836,4.77877,0.334057,0.0939941,0.18669,0
2024-12-13 15:17:31.657,-0.342473,3.1675,4.71147,0.327338,0.094605,0.197075,0
2024-12-13 15:17:31.661,-0.352044,3.21057,4.58943,0.316953,0.0933833,0.206848,0
2024-12-13 15:17:31.664,-0.352044,3.25364,4.52722,0.295574,0.0970484,0.231282,0
2024-12-13 15:17:31.664,-0.352044,3.25364,4.52722,0.295574,0.0970484,0.231282,0
2024-12-13 15:17:31.666,-0.364008,3.28235,4.45783,0.280913,0.100103,0.242888,0
2024-12-13 15:17:31.669,-0.35683,3.30389,4.39083,0.261977,0.100713,0.256327,0
2024-12-13 15:17:31.671,-0.337687,3.34457,4.34058,0.241819,0.100713,0.2661,0
2024-12-13 15:17:31.673,-0.325723,3.38046,4.29512,0.222272,0.101324,0.277706,0
2024-12-13 15:17:31.676,-0.299402,3.39242,4.24247,0.197227,0.101935,0.288091,0
2024-12-13 15:17:31.678,-0.277567,3.41635,4.18475,0.168517,0.101935,0.300308,0
2024-12-13 15:17:31.680,-0.265603,3.44985,4.13928,0.142251,0.100103,0.30886,0
2024-12-13 15:17:31.683,-0.236889,3.48335,4.10578,0.109876,0.100103,0.319855,0
2024-12-13 15:17:31.685,-0.205783,3.50728,4.08903,0.0775012,0.102546,0.327185,0
2024-12-13 15:17:31.687,-0.145962,3.53839,4.08903,0.0775012,0.102546,0.327185,0
2024-12-13 15:17:31.690,-0.0861416,3.58624,4.08664,0.0139731,0.104379,0.344289,0
2024-12-13 15:17:31.692,-0.0574277,3.60778,4.09382,-0.0196235,0.102546,0.349176,0
2024-12-13 15:17:31.694,-0.0311067,3.61974,4.09143,-0.0489441,0.103768,0.351619,0
2024-12-13 15:17:31.697,0.00478565,3.64128,4.08186,-0.0831516,0.106211,0.354062,0
2024-12-13 15:17:31.699,0.0550349,3.66072,4.09382,-0.116748,0.104989,0.353451,0
2024-12-13 15:17:31.702,0.107677,3.67986,4.1345,-0.150345,0.103157,0.354062,0
2024-12-13 15:17:31.704,0.136391,3.70858,4.18714,-0.183941,0.0994917,0.354062,0
2024-12-13 15:17:31.706,0.160319,3.73729,4.24247,-0.215705,0.0915507,0.352841,0
2024-12-13 15:17:31.709,0.189033,3.77797,4.30947,-0.247469,0.0848314,0.353451,0
2024-12-13 15:17:31.713,0.267996,3.8354,4.49133,-0.307943,0.0707819,0.349176,0
2024-12-13 15:17:31.716,0.32333,3.85215,4.59183,-0.337264,0.0628409,0.347954,0
2024-12-13 15:17:31.718,0.32333,3.86172,4.68993,-0.36292,0.0567324,0.344289,0
2024-12-13 15:17:31.718,0.383151,3.86172,4.68993,-0.36292,0.0567324,0.344289,0
2024-12-13 15:17:31.720,0.440578,3.87607,4.79791,-0.389186,0.0494023,0.341235,0
2024-12-13 15:17:31.723,0.483649,3.89522,4.92234,-0.413009,0.0432938,0.336959,0
2024-12-13 15:17:31.725,0.52672,3.90479,5.03958,-0.413009,0.0432938,0.336959,0
2024-12-13 15:17:31.727,0.584148,3.91197,5.14965,-0.450882,0.0365745,0.328407,0
2024-12-13 15:17:31.732,0.672682,3.93829,5.37009,-0.475926,0.0292443,0.310692,0
2024-12-13 15:17:31.733,0.672682,3.93829,5.37009,-0.485089,0.0255792,0.300919,0
2024-12-13 15:17:31.734,0.710967,3.95025,5.48734,-0.485089,0.0255792,0.300919,0
2024-12-13 15:17:31.737,0.754038,3.96222,5.5998,-0.49303,0.0213033,0.292367,0
2024-12-13 15:17:31.742,0.782752,4.00289,5.77209,-0.503415,0.0164165,0.268544,0
2024-12-13 15:17:31.742,0.794716,4.00289,5.77209,-0.503415,0.0164165,0.268544,0
2024-12-13 15:17:31.744,0.801895,4.04357,5.85584,-0.506469,0.0109189,0.256938,0
2024-12-13 15:17:31.746,0.799502,4.101,5.94467,-0.509523,0.0096972,0.243499,0
2024-12-13 15:17:31.749,0.792323,4.15125,6.0332,-0.509523,0.0151948,0.229449,0
2024-12-13 15:17:31.753,0.758824,4.2664,6.13849,-0.511966,0.0261901,0.203794,0
2024-12-13 15:17:31.753,0.758824,4.2664,6.13849,-0.511966,0.0261901,0.203794,0
2024-12-13 15:17:31.756,0.737288,4.29272,6.19831,-0.510745,0.0377962,0.192188,0
2024-12-13 15:17:31.758,0.706182,4.3334,6.22941,-0.508301,0.0481806,0.180582,0
2024-12-13 15:17:31.760,0.672682,4.37647,6.23659,-0.510745,0.0567324,0.167754,0
2024-12-13 15:17:31.763,0.627219,4.43151,6.24377,-0.511356,0.0671168,0.153704,0
2024-12-13 15:17:31.765,0.581755,4.49372,6.2342,-0.513799,0.0775012,0.142098,0
2024-12-13 15:17:31.767,0.531506,4.54397,6.22702,-0.515631,0.0878856,0.127972,0
2024-12-13 15:17:31.771,0.457328,4.58226,6.24856,-0.525405,0.100103,0.104149,0
2024-12-13 15:17:31.772,0.378365,4.61815,6.25813,-0.525405,0.100103,0.104149,0
2024-12-13 15:17:31.775,0.301795,4.65643,6.24616,-0.532735,0.100713,0.0931542,0
2024-12-13 15:17:31.779,0.222533,4.71625,6.24377,-0.555337,0.0958267,0.0729962,0
2024-12-13 15:17:31.779,0.136391,4.76172,6.24377,-0.555337,0.0958267,0.0729962,0
2024-12-13 15:17:31.782,0.0430708,4.79552,6.27009,-0.555337,0.0958267,0.0729962,0
2024-12-13 15:17:31.784,-0.0287139,4.83619,6.30359,-0.567553,0.0927724,0.0638335,0
2024-12-13 15:17:31.786,-0.0885344,4.86251,6.33948,-0.597485,0.0872748,0.0430647,0
2024-12-13 15:17:31.789,-0.136391,4.88405,6.37538,-0.614589,0.0854423,0.0363454,0
2024-12-13 15:17:31.793,-0.172283,4.93669,6.469,-0.646353,0.0909399,0.0186308,0
2024-12-13 15:17:31.796,-0.200997,4.93669,6.52403,-0.661013,0.0939941,0.0106898,0
2024-12-13 15:17:31.796,-0.234497,4.95105,6.52403,-0.661013,0.0939941,0.0106898,0
2024-12-13 15:17:31.798,-0.27996,4.97258,6.59821,-0.676895,0.0982701,0.00274881,0
2024-12-13 15:17:31.800,-0.318545,4.97976,6.68674,-0.691555,0.104379,-0.00335966,0
2024-12-13 15:17:31.803,-0.328116,4.99173,6.77288,-0.707437,0.108044,-0.010079,0
2024-12-13 15:17:31.805,-0.325723,5.01326,6.83988,-0.722709,0.111098,-0.0161875,0
2024-12-13 15:17:31.808,-0.337687,5.02283,6.90928,-0.735536,0.113541,-0.0247393,0
2024-12-13 15:17:31.812,-0.359223,5.05394,7.101,-0.764857,0.115374,-0.0345129,0
2024-12-13 15:17:31.812,-0.359223,5.05394,7.101,-0.764857,0.115374,-0.0345129,0
2024-12-13 15:17:31.815,-0.371187,5.0683,7.21346,-0.778907,0.11232,-0.0387888,0
2024-12-13 15:17:31.817,-0.371187,5.05633,7.31157,-0.791734,0.113541,-0.0442864,0
2024-12-13 15:17:31.819,-0.385544,5.05394,7.42403,-0.808227,0.11232,-0.0510057,0
2024-12-13 15:17:31.822,-0.3999,5.03958,7.57986,-0.819223,0.11232,-0.05406,0
2024-12-13 15:17:31.824,-0.426222,5.04676,7.733,-0.830829,0.11232,-0.0589468,0
2024-12-13 15:17:31.826,-0.452543,5.0683,7.88136,-0.839381,0.113541,-0.062001,0
2024-12-13 15:17:31.830,-0.454935,5.06351,8.05604,-0.851597,0.11965,-0.0626118,0
2024-12-13 15:17:31.831,-0.459721,5.0659,8.2358,-0.851597,0.11965,-0.0626118,0
2024-12-13 15:17:31.833,-0.476471,5.09701,8.39372,-0.854041,0.123315,-0.0632227,0
2024-12-13 15:17:31.836,-0.481256,5.11376,8.53729,-0.852819,0.123315,-0.0626118,0
2024-12-13 15:17:31.838,-0.476471,5.12333,8.69043,-0.850987,0.11965,-0.0613902,0
2024-12-13 15:17:31.840,-0.471685,5.15683,8.82952,-0.843656,0.115374,-0.0632227,0
2024-12-13 15:17:31.843,-0.45015,5.17837,8.92762,-0.835715,0.111709,-0.0626118,0
2024-12-13 15:17:31.845,-0.4334,5.19512,9.01376,-0.824109,0.102546,-0.062001,0
2024-12-13 15:17:31.848,-0.414257,5.21187,9.08794,-0.813114,0.0933833,-0.0607793,0
2024-12-13 15:17:31.850,-0.395115,5.23101,9.14776,-0.797232,0.0848314,-0.0638335,0
2024-12-13 15:17:31.855,-0.347258,5.27408,9.18605,-0.779517,0.0768904,-0.0656661,0
2024-12-13 15:17:31.855,-0.347258,5.27408,9.18605,-0.779517,0.0768904,-0.0656661,0
2024-12-13 15:17:31.859,-0.354437,5.28365,9.1693,-0.734315,0.050624,-0.0754396,0
2024-12-13 15:17:31.859,-0.354437,5.28365,9.1693,-0.734315,0.050624,-0.0754396,0
2024-12-13 15:17:31.862,-0.371187,5.29322,9.13819,-0.7166,0.0420721,-0.0797156,0
2024-12-13 15:17:31.864,-0.378365,5.30997,9.11665,-0.701329,0.0353528,-0.0833807,0
2024-12-13 15:17:31.866,-0.392722,5.31715,9.1023,-0.68789,0.0261901,-0.0907108,0
2024-12-13 15:17:31.869,-0.426222,5.3342,9.08076,-0.676895,0.0158057,-0.0962084,0
2024-12-13 15:17:31.871,-0.462114,5.35813,9.0688,-0.666511,0.00725381,-0.0998735,0
2024-12-13 15:17:31.873,-0.478864,5.39163,9.05444,-0.657959,-0.00251974,-0.10476,0
2024-12-13 15:17:31.876,-0.488435,5.42991,9.03051,-0.654294,-0.0116825,-0.110869,0
2024-12-13 15:17:31.878,-0.495613,5.46102,9.01376,-0.648796,-0.0190126,-0.112701,0
2024-12-13 15:17:31.881,-0.495613,5.49213,8.98505,-0.646353,-0.0257319,-0.114534,0
2024-12-13 15:17:31.883,-0.524327,5.5328,8.96351,-0.648185,-0.0324513,-0.121253,0
2024-12-13 15:17:31.885,-0.545863,5.56391,8.95155,-0.650629,-0.0379489,-0.12614,0
2024-12-13 15:17:31.888,-0.562612,5.58545,8.93719,-0.655515,-0.041614,-0.130416,0
2024-12-13 15:17:31.890,-0.593719,5.60937,8.94198,-0.663456,-0.0477224,-0.134692,0
2024-12-13 15:17:31.892,-0.610469,5.6357,8.98505,-0.672619,-0.0526092,-0.138357,0
2024-12-13 15:17:31.895,-0.629611,5.66202,9.04248,-0.681782,-0.0562743,-0.1408,0
2024-12-13 15:17:31.897,-0.63679,5.68355,9.08076,-0.695221,-0.0617719,-0.148741,0
2024-12-13 15:17:31.900,-0.641576,5.69791,9.14058,-0.695221,-0.0617719,-0.148741,0
2024-12-13 15:17:31.904,-0.646361,5.70987,9.32034,-0.726985,-0.0788757,-0.160347,0
2024-12-13 15:17:31.906,-0.641576,5.72184,9.42084,-0.736147,-0.0807082,-0.164623,0
2024-12-13 15:17:31.906,-0.641576,5.72184,9.42084,-0.736147,-0.0807082,-0.164623,0
2024-12-13 15:17:31.909,-0.646361,5.74577,9.52134,-0.749586,-0.0843733,-0.168288,0
2024-12-13 15:17:31.911,-0.65354,5.76252,9.61466,-0.755694,-0.085595,-0.171343,0
2024-12-13 15:17:31.914,-0.643968,5.75773,9.7343,-0.75997,-0.0886492,-0.177451,0
2024-12-13 15:17:31.916,-0.641576,5.76012,9.85664,-0.761192,-0.0929251,-0.181727,0
2024-12-13 15:17:31.921,-0.65354,5.79362,10.0744,-0.75997,-0.0941468,-0.18356,0
2024-12-13 15:17:31.923,-0.658325,5.80319,10.194,-0.749586,-0.0917034,-0.192722,0
2024-12-13 15:17:31.923,-0.658325,5.80319,10.194,-0.749586,-0.0917034,-0.192722,0
2024-12-13 15:17:31.925,-0.65354,5.81755,10.3113,-0.741034,-0.0904818,-0.196387,0
2024-12-13 15:17:31.928,-0.655932,5.82951,10.4264,-0.729428,-0.0880384,-0.202496,0
2024-12-13 15:17:31.930,-0.660718,5.8343,10.5269,-0.715989,-0.0843733,-0.206772,0
2024-12-13 15:17:31.932,-0.658325,5.85105,10.6442,-0.700718,-0.0825407,-0.213491,0
2024-12-13 15:17:31.935,-0.675075,5.87019,10.7638,-0.683004,-0.0807082,-0.218378,0
2024-12-13 15:17:31.937,-0.703789,5.88694,10.8763,-0.6659,-0.0819299,-0.221432,0
2024-12-13 15:17:31.939,-0.727717,5.9016,10.9819,-0.64452,-0.0807082,-0.22693,0
2024-12-13 15:17:31.944,-0.777966,5.94706,11.1422,-0.600539,-0.0819299,-0.233038,0
2024-12-13 15:17:31.944,-0.777966,5.94706,11.1422,-0.600539,-0.0819299,-0.233038,0
2024-12-13 15:17:31.946,-0.797109,5.98056,11.1924,-0.574884,-0.0831516,-0.234871,0
2024-12-13 15:17:31.949,-0.811466,6.00688,11.2283,-0.552282,-0.0868167,-0.236703,0
2024-12-13 15:17:31.954,-0.837787,6.07627,11.3001,-0.503415,-0.093536,-0.239758,0
2024-12-13 15:17:31.954,-0.859622,6.07627,11.3001,-0.503415,-0.093536,-0.239758,0
2024-12-13 15:17:31.956,-0.871586,6.12174,11.3073,-0.480202,-0.0972011,-0.24159,0
2024-12-13 15:17:31.958,-0.88355,6.16002,11.3073,-0.458212,-0.102699,-0.244033,0
2024-12-13 15:17:31.963,-0.909871,6.24377,11.2857,-0.438054,-0.110029,-0.242812,0
2024-12-13 15:17:31.965,-0.909871,6.24377,11.2857,-0.395905,-0.133241,-0.245866,0
2024-12-13 15:17:31.965,-0.919442,6.28206,11.257,-0.395905,-0.133241,-0.245866,0
2024-12-13 15:17:31.968,-0.919442,6.31795,11.2211,-0.378191,-0.144847,-0.24892,0
2024-12-13 15:17:31.972,-0.929013,6.37059,11.1805,-0.361698,-0.157675,-0.24892,0
2024-12-13 15:17:31.975,-0.921835,6.4017,11.1541,-0.331156,-0.186385,-0.251364,0
2024-12-13 15:17:31.975,-0.921835,6.4017,11.1541,-0.331156,-0.186385,-0.251364,0
2024-12-13 15:17:31.977,-0.917049,6.44477,11.1446,-0.315274,-0.200434,-0.255029,0
2024-12-13 15:17:31.982,-0.893121,6.51207,11.1517,-0.291451,-0.220592,-0.257472,0
2024-12-13 15:17:31.982,-0.893121,6.51207,11.1517,-0.291451,-0.220592,-0.257472,0
2024-12-13 15:17:31.987,-0.871586,6.55753,11.1852,-0.267627,-0.236474,-0.260526,0
2024-12-13 15:17:31.989,-0.857229,6.57907,11.2211,-0.256632,-0.241361,-0.261748,0
2024-12-13 15:17:31.989,-0.857229,6.57907,11.2211,-0.256632,-0.241361,-0.261748,0
2024-12-13 15:17:31.994,-0.842872,6.59342,11.3551,-0.23342,-0.246859,-0.264802,0
2024-12-13 15:17:31.994,-0.835394,6.59342,11.3551,-0.23342,-0.246859,-0.264802,0
2024-12-13 15:17:31.996,-0.84018,6.61017,11.4054,-0.221203,-0.247469,-0.265413,0
2024-12-13 15:17:31.998,-0.85005,6.63649,11.47,-0.208986,-0.248691,-0.267857,0
2024-12-13 15:17:32.001,-0.862014,6.63171,11.5469,-0.196158,-0.249302,-0.267246,0
2024-12-13 15:17:32.003,-0.869193,6.64128,11.6282,-0.187606,-0.250524,-0.268467,0
2024-12-13 15:17:32.005,-0.885943,6.6676,11.7048,-0.176,-0.24808,-0.266635,0
2024-12-13 15:17:32.008,-0.9003,6.68196,11.7694,-0.162562,-0.24808,-0.265413,0
2024-12-13 15:17:32.010,-0.917049,6.68435,11.8531,-0.152788,-0.246859,-0.264191,0
2024-12-13 15:17:32.012,-0.912264,6.69153,11.9536,-0.143625,-0.24808,-0.263581,0
2024-12-13 15:17:32.015,-0.893121,6.71546,12.0374,-0.131409,-0.245637,-0.264191,0
2024-12-13 15:17:32.019,-0.8668,6.75853,12.2195,-0.11064,-0.254189,-0.265413,0
2024-12-13 15:17:32.022,-0.8668,6.77288,12.2794,-0.0984228,-0.257854,-0.267246,0
2024-12-13 15:17:32.022,-0.837787,6.77288,12.2794,-0.0984228,-0.257854,-0.267246,0
2024-12-13 15:17:32.024,-0.811466,6.80399,12.3655,-0.0880384,-0.259686,-0.270911,0
2024-12-13 15:17:32.027,-0.773181,6.83031,12.4493,-0.0752106,-0.260908,-0.273354,0
2024-12-13 15:17:32.029,-0.734896,6.85903,12.521,-0.0642153,-0.262741,-0.280684,0
2024-12-13 15:17:32.034,-0.660718,6.94995,12.6984,-0.0422248,-0.260297,-0.289847,0
2024-12-13 15:17:32.036,-0.648754,6.98585,12.7678,-0.029397,-0.26213,-0.294123,0
2024-12-13 15:17:32.038,-0.648754,7.034,12.8204,-0.0177909,-0.263352,-0.302064,0
2024-12-13 15:17:32.041,-0.641576,7.09382,12.8755,-0.00496313,-0.26213,-0.306951,0
2024-12-13 15:17:32.043,-0.641576,7.14407,12.9186,0.00725381,-0.262741,-0.312448,0
2024-12-13 15:17:32.043,-0.641576,7.14407,12.9186,0.00725381,-0.262741,-0.312448,0
2024-12-13 15:17:32.048,-0.634397,7.27328,12.9975,0.0329094,-0.268238,-0.321611,0
2024-12-13 15:17:32.050,-0.608076,7.33789,13.0047,0.0451263,-0.270682,-0.32772,0
2024-12-13 15:17:32.052,-0.591326,7.42642,13.0095,0.0567324,-0.274958,-0.331385,0
2024-12-13 15:17:32.052,-0.591326,7.42642,13.0095,0.0567324,-0.274958,-0.331385,0
2024-12-13 15:17:32.055,-0.56022,7.50539,12.9927,0.0689494,-0.278623,-0.334439,0
2024-12-13 15:17:32.057,-0.524327,7.56999,12.9568,0.0768904,-0.282288,-0.341158,0
2024-12-13 15:17:32.060,-0.50997,7.62293,12.9281,0.0842206,-0.286564,-0.346656,0
2024-12-13 15:17:32.062,-0.486042,7.6684,12.9114,0.0884965,-0.290229,-0.350932,0
2024-12-13 15:17:32.067,-0.445364,7.70908,12.8898,0.0958267,-0.297559,-0.36376,0
2024-12-13 15:17:32.067,-0.407079,7.75693,12.8587,0.0958267,-0.297559,-0.36376,0
2024-12-13 15:17:32.069,-0.380758,7.80479,12.8348,0.0976592,-0.301835,-0.368646,0
2024-12-13 15:17:32.071,-0.375972,7.83111,12.8204,0.0964375,-0.302446,-0.372922,0
2024-12-13 15:17:32.074,-0.366401,7.84786,12.8037,0.0927724,-0.304889,-0.375366,0
2024-12-13 15:17:32.076,-0.347258,7.85265,12.775,0.090329,-0.304278,-0.380252,0
2024-12-13 15:17:32.079,-0.34008,7.83111,12.7487,0.0811663,-0.310387,-0.382085,0
2024-12-13 15:17:32.081,-0.354437,7.79761,12.7223,0.0677277,-0.313441,-0.382085,0
2024-12-13 15:17:32.083,-0.378365,7.74736,12.6984,0.0548999,-0.315274,-0.381474,0
2024-12-13 15:17:32.085,-0.407079,7.68754,12.6888,0.0396287,-0.320771,-0.375976,0
2024-12-13 15:17:32.090,-0.45015,7.62054,12.708,0.0170274,-0.322604,-0.370479,0
2024-12-13 15:17:32.093,-0.50997,7.41685,12.7487,-0.0263428,-0.325047,-0.352153,0
2024-12-13 15:17:32.095,-0.524327,7.29243,12.8085,-0.0538309,-0.325047,-0.339326,0
2024-12-13 15:17:32.095,-0.524327,7.29243,12.8085,-0.0538309,-0.325047,-0.339326,0
2024-12-13 15:17:32.097,-0.50997,7.17278,12.8587,-0.0825407,-0.326269,-0.326498,0
2024-12-13 15:17:32.100,-0.490828,7.04118,12.9233,-0.111861,-0.323215,-0.309394,0
2024-12-13 15:17:32.102,-0.486042,6.90449,13.0095,-0.111861,-0.323215,-0.309394,0
2024-12-13 15:17:32.104,-0.471685,6.75613,13.1363,-0.178444,-0.314052,-0.275798,0
2024-12-13 15:17:32.107,-0.435793,6.59103,13.261,-0.210819,-0.306722,-0.258083,0
2024-12-13 15:17:32.109,-0.402293,6.41366,13.3783,-0.242583,-0.296948,-0.237314,0
2024-12-13 15:17:32.114,-0.371187,6.2342,13.7228,-0.304889,-0.267627,-0.201885,0
2024-12-13 15:17:32.114,-0.335294,6.04277,13.7228,-0.304889,-0.267627,-0.201885,0
2024-12-13 15:17:32.116,-0.27996,5.80798,13.8954,-0.332988,-0.2548,-0.184781,0
2024-12-13 15:17:32.118,-0.210568,5.56391,14.0845,-0.358033,-0.243194,-0.16951,0
2024-12-13 15:17:32.121,-0.143569,5.32433,14.2854,-0.358033,-0.243194,-0.16951,0
2024-12-13 15:17:32.123,-0.0861416,5.06351,14.4987,-0.389797,-0.224868,-0.142022,0
2024-12-13 15:17:32.128,0.00717847,4.50568,14.8696,-0.398349,-0.209597,-0.125529,0
2024-12-13 15:17:32.128,0.00717847,4.50568,14.8696,-0.398349,-0.209597,-0.125529,0
2024-12-13 15:17:32.130,0.0981057,4.27119,15.0853,-0.387964,-0.21204,-0.118199,0
2024-12-13 15:17:32.133,0.165105,4.034,15.3197,-0.365363,-0.224868,-0.115145,1
2024-12-13 15:17:32.135,0.241675,3.82104,15.4971,-0.332377,-0.247469,-0.115756,0
2024-12-13 15:17:32.137,0.332901,3.61017,15.5809,-0.294505,-0.272514,-0.117588,0
2024-12-13 15:17:32.142,0.569791,3.24407,15.6072,-0.244415,-0.326269,-0.127972,0
2024-12-13 15:17:32.147,0.801895,2.88724,15.37,-0.0642153,-0.371471,-0.157904,0
2024-12-13 15:17:32.147,0.801895,2.88724,15.37,-0.0642153,-0.371471,-0.157904,0
2024-12-13 15:17:32.149,0.905085,2.72931,15.1953,-7.63559e-05,-0.392851,-0.175008,0
2024-12-13 15:17:32.151,1.00319,2.61924,14.9776,0.0695602,-0.415452,-0.196387,0
2024-12-13 15:17:32.156,1.09412,2.5331,14.7189,0.214942,-0.460655,-0.242201,0
2024-12-13 15:17:32.156,1.16351,2.44427,14.4221,0.214942,-0.460655,-0.242201,0
2024-12-13 15:17:32.158,1.19701,2.37009,14.1156,0.289465,-0.477148,-0.264802,0
2024-12-13 15:17:32.158,1.19701,2.37009,14.1156,0.289465,-0.477148,-0.264802,0
2024-12-13 15:17:32.161,1.22812,2.30548,13.7973,0.364599,-0.489976,-0.286793,0
2024-12-13 15:17:32.164,1.26879,2.26959,13.462,0.510057,-0.50769,-0.329552,0
2024-12-13 15:17:32.166,1.28794,2.24327,13.1243,0.510057,-0.50769,-0.329552,0
2024-12-13 15:17:32.168,1.29512,2.20977,12.7965,0.580916,-0.515021,-0.349099,0
2024-12-13 15:17:32.170,1.29033,2.17627,12.466,0.646887,-0.527848,-0.368035,0
2024-12-13 15:17:32.173,1.27597,2.13559,12.1382,0.709805,-0.540065,-0.383918,0
2024-12-13 15:17:32.175,1.26879,2.1332,11.8125,0.768446,-0.556558,-0.398578,0
2024-12-13 15:17:32.177,1.28554,2.14517,11.47,0.820979,-0.575494,-0.412016,0
2024-12-13 15:17:32.180,1.29751,2.14038,11.1206,0.872901,-0.594431,-0.424844,0
2024-12-13 15:17:32.184,1.28794,2.14517,10.4216,0.953533,-0.632303,-0.445002,0
2024-12-13 15:17:32.184,1.28794,2.14517,10.4216,0.953533,-0.632303,-0.445002,0
2024-12-13 15:17:32.190,1.32383,2.19302,9.78694,1.02622,-0.675063,-0.467604,0
2024-12-13 15:17:32.191,1.33579,2.2337,9.48306,1.02622,-0.675063,-0.467604,0
