timestamp,accel_x,accel_y,accel_z,gyro_x,gyro_y,gyro_z,step_timestamp
2024-12-13 15:20:01.803,0.457328,4.58704,11.3599,0.38178,-0.239528,0.0613902,0
2024-12-13 15:20:01.803,0.457328,4.58704,11.3599,0.38178,-0.239528,0.0613902,0
2024-12-13 15:20:01.803,0.457328,4.58704,11.3599,0.38178,-0.239528,0.0613902,0
2024-12-13 15:20:01.803,0.457328,4.58704,11.3599,0.38178,-0.239528,0.0613902,0
2024-12-13 15:20:01.803,0.457328,4.58704,11.3599,0.38178,-0.239528,0.0613902,0
2024-12-13 15:20:01.803,0.457328,4.58704,11.3599,0.38178,-0.239528,0.0613902,0
2024-12-13 15:20:01.803,0.457328,4.58704,11.3599,0.38178,-0.239528,0.0613902,0
2024-12-13 15:20:01.805,0.454935,4.62533,11.3145,0.390331,-0.245026,0.0626118,0
2024-12-13 15:20:01.805,0.454935,4.62533,11.3145,0.390331,-0.245026,0.0626118,0
2024-12-13 15:20:01.807,0.45015,4.65883,11.269,0.399494,-0.247469,0.0644444,0
2024-12-13 15:20:01.807,0.45015,4.65883,11.269,0.399494,-0.247469,0.0644444,0
2024-12-13 15:20:01.807,0.45015,4.65883,11.269,0.399494,-0.247469,0.0644444,0
2024-12-13 15:20:01.810,0.469292,4.69711,11.2187,0.402548,-0.252356,0.0662769,0
2024-12-13 15:20:01.810,0.469292,4.69711,11.2187,0.402548,-0.252356,0.0662769,0
2024-12-13 15:20:01.810,0.469292,4.69711,11.2187,0.402548,-0.252356,0.0662769,0
2024-12-13 15:20:01.812,0.495613,4.72343,11.1446,0.401327,-0.253578,0.0656661,0
2024-12-13 15:20:01.812,0.495613,4.72343,11.1446,0.401327,-0.253578,0.0656661,0
2024-12-13 15:20:01.814,0.507577,4.75454,11.0848,0.397662,-0.256632,0.0662769,0
2024-12-13 15:20:01.814,0.507577,4.75454,11.0848,0.397662,-0.256632,0.0662769,0
2024-12-13 15:20:01.814,0.507577,4.75454,11.0848,0.397662,-0.256632,0.0662769,0
2024-12-13 15:20:01.817,0.524327,4.80269,11.0489,0.393386,-0.255411,0.0668878,0
2024-12-13 15:20:01.819,0.553041,4.84337,11.0225,0.384223,-0.256632,0.0650552,0
2024-12-13 15:20:01.819,0.553041,4.84337,11.0225,0.384223,-0.256632,0.0650552,0
2024-12-13 15:20:01.819,0.553041,4.84337,11.0225,0.384223,-0.256632,0.0650552,0
2024-12-13 15:20:01.821,0.576969,4.87687,11.0034,0.37506,-0.256632,0.062001,0
2024-12-13 15:20:01.821,0.576969,4.87687,11.0034,0.37506,-0.256632,0.062001,0
2024-12-13 15:20:01.824,0.591326,4.90559,10.9986,0.362767,-0.252356,0.0607793,0
2024-12-13 15:20:01.824,0.591326,4.90559,10.9986,0.362767,-0.252356,0.0607793,0
2024-12-13 15:20:01.826,0.610469,4.92234,11.0034,0.351161,-0.248691,0.0571142,0
2024-12-13 15:20:01.826,0.610469,4.92234,11.0034,0.351161,-0.248691,0.0571142,0
2024-12-13 15:20:01.828,0.658325,4.96062,11.001,0.3365,-0.244415,0.0546708,0
2024-12-13 15:20:01.828,0.658325,4.96062,11.001,0.3365,-0.244415,0.0546708,0
2024-12-13 15:20:01.828,0.658325,4.96062,11.001,0.3365,-0.244415,0.0546708,0
2024-12-13 15:20:01.829,0.658325,4.96062,11.001,0.3365,-0.244415,0.0546708,0
2024-12-13 15:20:01.833,0.742074,5.02762,11.0154,0.301682,-0.221203,0.0430647,0
2024-12-13 15:20:01.833,0.742074,5.02762,11.0154,0.301682,-0.221203,0.0430647,0
2024-12-13 15:20:01.833,0.742074,5.02762,11.0154,0.301682,-0.221203,0.0430647,0
2024-12-13 15:20:01.833,0.742074,5.02762,11.0154,0.301682,-0.221203,0.0430647,0
2024-12-13 15:20:01.836,0.787538,5.05155,11.0082,0.283968,-0.206543,0.0375671,0
2024-12-13 15:20:01.838,0.816252,5.06351,11.0201,0.261977,-0.193104,0.0277936,0
2024-12-13 15:20:01.838,0.816252,5.06351,11.0201,0.261977,-0.193104,0.0277936,0
2024-12-13 15:20:01.838,0.816252,5.06351,11.0201,0.261977,-0.193104,0.0277936,0
2024-12-13 15:20:01.840,0.842872,5.08505,11.0369,0.239987,-0.181498,0.01802,0
2024-12-13 15:20:01.840,0.842872,5.08505,11.0369,0.239987,-0.181498,0.01802,0
2024-12-13 15:20:01.840,0.842872,5.08505,11.0369,0.239987,-0.181498,0.01802,0
2024-12-13 15:20:01.840,0.842872,5.08505,11.0369,0.239987,-0.181498,0.01802,0
2024-12-13 15:20:01.843,0.864407,5.08744,11.0393,0.218607,-0.162562,0.00824644,0
2024-12-13 15:20:01.843,0.864407,5.08744,11.0393,0.218607,-0.162562,0.00824644,0
2024-12-13 15:20:01.843,0.864407,5.08744,11.0393,0.218607,-0.162562,0.00824644,0
2024-12-13 15:20:01.845,0.864407,5.1018,11.0536,0.188675,-0.144236,-0.00274881,0
2024-12-13 15:20:01.845,0.869193,5.1018,11.0536,0.188675,-0.144236,-0.00274881,0
2024-12-13 15:20:01.845,0.869193,5.1018,11.0536,0.188675,-0.144236,-0.00274881,0
2024-12-13 15:20:01.847,0.876371,5.13051,11.0919,0.163631,-0.124689,-0.0161875,0
2024-12-13 15:20:01.847,0.876371,5.13051,11.0919,0.163631,-0.124689,-0.0161875,0
2024-12-13 15:20:01.847,0.876371,5.13051,11.0919,0.163631,-0.124689,-0.0161875,0
2024-12-13 15:20:01.850,0.888335,5.15683,11.1159,0.139197,-0.10331,-0.0296261,0
2024-12-13 15:20:01.850,0.888335,5.15683,11.1159,0.139197,-0.10331,-0.0296261,0
2024-12-13 15:20:01.850,0.888335,5.15683,11.1159,0.139197,-0.10331,-0.0296261,0
2024-12-13 15:20:01.852,0.873978,5.20469,11.1206,0.110487,-0.0843733,-0.0400105,0
2024-12-13 15:20:01.852,0.873978,5.20469,11.1206,0.110487,-0.0843733,-0.0400105,0
2024-12-13 15:20:01.854,0.873978,5.20469,11.1422,0.0836097,-0.0678804,-0.05406,0
2024-12-13 15:20:01.854,0.835394,5.24776,11.1422,0.0836097,-0.0678804,-0.05406,0
2024-12-13 15:20:01.854,0.835394,5.24776,11.1422,0.0836097,-0.0678804,-0.05406,0
2024-12-13 15:20:01.854,0.835394,5.24776,11.1422,0.0836097,-0.0678804,-0.05406,0
2024-12-13 15:20:01.857,0.80668,5.29083,11.1589,0.0487914,-0.0532201,-0.0650552,0
2024-12-13 15:20:01.857,0.80668,5.29083,11.1589,0.0487914,-0.0532201,-0.0650552,0
2024-12-13 15:20:01.857,0.80668,5.29083,11.1589,0.0487914,-0.0532201,-0.0650552,0
2024-12-13 15:20:01.857,0.80668,5.29083,11.1589,0.0487914,-0.0532201,-0.0650552,0
2024-12-13 15:20:01.859,0.780359,5.31954,11.1326,0.0194708,-0.041614,-0.0803264,0
2024-12-13 15:20:01.859,0.780359,5.31954,11.1326,0.0194708,-0.041614,-0.0803264,0
2024-12-13 15:20:01.859,0.780359,5.31954,11.1326,0.0194708,-0.041614,-0.0803264,0
2024-12-13 15:20:01.859,0.780359,5.31954,11.1326,0.0194708,-0.041614,-0.0803264,0
2024-12-13 15:20:01.861,0.751645,5.31476,11.0943,-0.0104608,-0.029397,-0.0943759,0
2024-12-13 15:20:01.861,0.751645,5.31476,11.0943,-0.0104608,-0.029397,-0.0943759,0
2024-12-13 15:20:01.861,0.751645,5.31476,11.0943,-0.0104608,-0.029397,-0.0943759,0
2024-12-13 15:20:01.864,0.754038,5.28365,11.0895,-0.0434465,-0.0177909,-0.107815,0
2024-12-13 15:20:01.864,0.754038,5.28365,11.0895,-0.0434465,-0.0177909,-0.107815,0
2024-12-13 15:20:01.864,0.751645,5.31476,11.0895,-0.0434465,-0.0177909,-0.107815,0
2024-12-13 15:20:01.864,0.754038,5.28365,11.0895,-0.0434465,-0.0177909,-0.107815,0
2024-12-13 15:20:01.866,0.775574,5.24776,11.0967,-0.0782648,-0.00801737,-0.123086,0
2024-12-13 15:20:01.866,0.775574,5.24776,11.0967,-0.0782648,-0.00801737,-0.123086,0
2024-12-13 15:20:01.866,0.775574,5.24776,11.0967,-0.0782648,-0.00801737,-0.123086,0
2024-12-13 15:20:01.866,0.775574,5.24776,11.0967,-0.0782648,-0.00801737,-0.123086,0
2024-12-13 15:20:01.869,0.785145,5.19033,11.1111,-0.113694,0.00236703,-0.136524,0
2024-12-13 15:20:01.869,0.785145,5.19033,11.1111,-0.113694,0.00236703,-0.136524,0
2024-12-13 15:20:01.869,0.785145,5.19033,11.1111,-0.113694,0.00236703,-0.136524,0
2024-12-13 15:20:01.869,0.785145,5.19033,11.1111,-0.113694,0.00236703,-0.136524,0
2024-12-13 15:20:01.871,0.816252,5.11376,11.1422,-0.149734,0.00847551,-0.14813,0
2024-12-13 15:20:01.871,0.816252,5.11376,11.1422,-0.149734,0.00847551,-0.14813,0
2024-12-13 15:20:01.871,0.816252,5.11376,11.1422,-0.149734,0.00847551,-0.14813,0
2024-12-13 15:20:01.871,0.816252,5.11376,11.1422,-0.149734,0.00847551,-0.14813,0
2024-12-13 15:20:01.873,0.854836,5.02283,11.2164,-0.18272,0.0127514,-0.164012,0
2024-12-13 15:20:01.873,0.854836,5.02283,11.2164,-0.18272,0.0127514,-0.164012,0
2024-12-13 15:20:01.873,0.854836,5.02283,11.2164,-0.18272,0.0127514,-0.164012,0
2024-12-13 15:20:01.873,0.854836,5.02283,11.2164,-0.18272,0.0127514,-0.164012,0
2024-12-13 15:20:01.873,0.854836,5.02283,11.2164,-0.18272,0.0127514,-0.164012,0
2024-12-13 15:20:01.876,0.885943,4.93191,11.324,-0.217538,0.014584,-0.179895,0
2024-12-13 15:20:01.876,0.885943,4.93191,11.324,-0.217538,0.014584,-0.179895,0
2024-12-13 15:20:01.876,0.885943,4.93191,11.324,-0.217538,0.014584,-0.179895,0
2024-12-13 15:20:01.876,0.885943,4.93191,11.324,-0.217538,0.014584,-0.179895,0
2024-12-13 15:20:01.878,0.924228,4.83859,11.4556,-0.246248,0.0133623,-0.193333,0
2024-12-13 15:20:01.878,0.924228,4.83859,11.4556,-0.246248,0.0133623,-0.193333,0
2024-12-13 15:20:01.878,0.924228,4.83859,11.4556,-0.246248,0.0133623,-0.193333,0
2024-12-13 15:20:01.878,0.924228,4.83859,11.4556,-0.246248,0.0133623,-0.193333,0
2024-12-13 15:20:01.880,0.96012,4.73061,11.6234,-0.279844,0.0096972,-0.207993,0
2024-12-13 15:20:01.880,0.96012,4.73061,11.6234,-0.279844,0.0096972,-0.207993,0
2024-12-13 15:20:01.881,0.96012,4.73061,11.6234,-0.315884,0.00358873,-0.224486,0
2024-12-13 15:20:01.883,0.97687,4.61097,11.8244,-0.315884,0.00358873,-0.224486,0
2024-12-13 15:20:01.883,0.97687,4.61097,11.8244,-0.315884,0.00358873,-0.224486,0
2024-12-13 15:20:01.883,0.97687,4.61097,11.8244,-0.315884,0.00358873,-0.224486,0
2024-12-13 15:20:01.883,0.97687,4.61097,11.8244,-0.315884,0.00358873,-0.224486,0
2024-12-13 15:20:01.885,0.986441,4.49372,12.023,-0.34154,-0.00435229,-0.239758,0
2024-12-13 15:20:01.885,0.986441,4.49372,12.023,-0.34154,-0.00435229,-0.239758,0
2024-12-13 15:20:01.885,0.986441,4.49372,12.023,-0.34154,-0.00435229,-0.239758,0
2024-12-13 15:20:01.885,0.986441,4.49372,12.023,-0.34154,-0.00435229,-0.239758,0
2024-12-13 15:20:01.885,0.986441,4.49372,12.023,-0.34154,-0.00435229,-0.239758,0
2024-12-13 15:20:01.887,0.998405,4.36212,12.2315,-0.372693,-0.0147367,-0.252585,0
2024-12-13 15:20:01.887,0.998405,4.36212,12.2315,-0.372693,-0.0147367,-0.252585,0
2024-12-13 15:20:01.887,0.998405,4.36212,12.2315,-0.372693,-0.0147367,-0.252585,0
2024-12-13 15:20:01.887,0.998405,4.36212,12.2315,-0.372693,-0.0147367,-0.252585,0
2024-12-13 15:20:01.890,0.996012,4.22094,12.4564,-0.401403,-0.0275645,-0.267246,0
2024-12-13 15:20:01.890,0.996012,4.22094,12.4564,-0.401403,-0.0275645,-0.267246,0
2024-12-13 15:20:01.890,0.996012,4.22094,12.4564,-0.401403,-0.0275645,-0.267246,0
2024-12-13 15:20:01.890,0.996012,4.22094,12.4564,-0.401403,-0.0275645,-0.267246,0
2024-12-13 15:20:01.892,1.0008,4.09861,12.6984,-0.43561,-0.0446682,-0.280073,0
2024-12-13 15:20:01.892,1.0008,4.09861,12.6984,-0.43561,-0.0446682,-0.280073,0
2024-12-13 15:20:01.892,1.0008,4.09861,12.6984,-0.43561,-0.0446682,-0.280073,0
2024-12-13 15:20:01.894,0.981655,3.97418,12.9377,-0.465542,-0.0587177,-0.29168,0
2024-12-13 15:20:01.894,0.981655,3.97418,12.9377,-0.465542,-0.0587177,-0.29168,0
2024-12-13 15:20:01.894,0.981655,3.97418,12.9377,-0.465542,-0.0587177,-0.29168,0
2024-12-13 15:20:01.894,0.981655,3.97418,12.9377,-0.465542,-0.0587177,-0.29168,0
2024-12-13 15:20:01.897,0.950549,3.84975,13.177,-0.497306,-0.0721563,-0.304507,0
2024-12-13 15:20:01.897,0.950549,3.84975,13.177,-0.497306,-0.0721563,-0.304507,0
2024-12-13 15:20:01.897,0.950549,3.84975,13.177,-0.497306,-0.0721563,-0.304507,0
2024-12-13 15:20:01.897,0.950549,3.84975,13.177,-0.497306,-0.0721563,-0.304507,0
2024-12-13 15:20:01.899,0.950549,3.84975,13.177,-0.525405,-0.0843733,-0.31367,0
2024-12-13 15:20:01.899,0.948156,3.72054,13.4429,-0.525405,-0.0843733,-0.31367,0
2024-12-13 15:20:01.899,0.948156,3.72054,13.4429,-0.525405,-0.0843733,-0.31367,0
2024-12-13 15:20:01.899,0.948156,3.72054,13.4429,-0.525405,-0.0843733,-0.31367,0
2024-12-13 15:20:01.902,0.929013,3.59103,13.7324,-0.55045,-0.0984228,-0.324054,0
2024-12-13 15:20:01.902,0.929013,3.59103,13.7324,-0.55045,-0.0984228,-0.324054,0
2024-12-13 15:20:01.902,0.929013,3.59103,13.7324,-0.55045,-0.0984228,-0.324054,0
2024-12-13 15:20:01.904,0.9003,3.46421,14.0677,-0.573051,-0.110029,-0.334439,0
2024-12-13 15:20:01.904,0.9003,3.46421,14.0677,-0.573051,-0.110029,-0.334439,0
2024-12-13 15:20:01.904,0.9003,3.46421,14.0677,-0.573051,-0.110029,-0.334439,0
2024-12-13 15:20:01.904,0.9003,3.46421,14.0677,-0.573051,-0.110029,-0.334439,0
2024-12-13 15:20:01.904,0.9003,3.46421,14.0677,-0.573051,-0.110029,-0.334439,0
2024-12-13 15:20:01.904,0.9003,3.46421,14.0677,-0.573051,-0.110029,-0.334439,0
2024-12-13 15:20:01.906,0.8668,3.35653,14.4485,-0.592598,-0.114305,-0.34238,0
2024-12-13 15:20:01.906,0.8668,3.35653,14.4485,-0.592598,-0.114305,-0.34238,0
2024-12-13 15:20:01.906,0.8668,3.35653,14.4485,-0.592598,-0.114305,-0.34238,0
2024-12-13 15:20:01.906,0.8668,3.35653,14.4485,-0.592598,-0.114305,-0.34238,0
2024-12-13 15:20:01.909,0.830609,3.2656,14.8241,-0.602983,-0.118581,-0.349099,0
2024-12-13 15:20:01.909,0.830609,3.2656,14.8241,-0.602983,-0.118581,-0.349099,0
2024-12-13 15:20:01.909,0.830609,3.2656,14.8241,-0.602983,-0.118581,-0.349099,0
2024-12-13 15:20:01.911,0.801895,3.17468,15.2097,-0.610313,-0.116137,-0.35704,0
2024-12-13 15:20:01.911,0.801895,3.17468,15.2097,-0.610313,-0.116137,-0.35704,0
2024-12-13 15:20:01.911,0.801895,3.17468,15.2097,-0.610313,-0.116137,-0.35704,0
2024-12-13 15:20:01.913,0.777966,3.07388,15.5904,-0.60848,-0.111861,-0.36376,0
2024-12-13 15:20:01.913,0.777966,3.07388,15.5904,-0.60848,-0.111861,-0.36376,0
2024-12-13 15:20:01.913,0.777966,3.07388,15.5904,-0.60848,-0.111861,-0.36376,0
2024-12-13 15:20:01.913,0.777966,3.07388,15.5904,-0.60848,-0.111861,-0.36376,0
2024-12-13 15:20:01.913,0.777966,3.07388,15.5904,-0.60848,-0.111861,-0.36376,0
2024-12-13 15:20:01.914,0.777966,3.07388,15.5904,-0.603593,-0.100866,-0.368646,0
2024-12-13 15:20:01.916,0.777966,3.07388,15.5904,-0.603593,-0.100866,-0.368646,0
2024-12-13 15:20:01.916,0.754038,2.9327,15.9422,-0.603593,-0.100866,-0.368646,0
2024-12-13 15:20:01.916,0.754038,2.9327,15.9422,-0.603593,-0.100866,-0.368646,0
2024-12-13 15:20:01.918,0.720539,2.79392,16.3038,-0.588322,-0.085595,-0.373533,0
2024-12-13 15:20:01.918,0.720539,2.79392,16.3038,-0.588322,-0.085595,-0.373533,0
2024-12-13 15:20:01.918,0.720539,2.79392,16.3038,-0.588322,-0.085595,-0.373533,0
2024-12-13 15:20:01.920,0.670289,2.66949,16.6463,-0.569386,-0.0678804,-0.374144,0
2024-12-13 15:20:01.920,0.670289,2.66949,16.6463,-0.569386,-0.0678804,-0.374144,0
2024-12-13 15:20:01.920,0.670289,2.66949,16.6463,-0.569386,-0.0678804,-0.374144,0
2024-12-13 15:20:01.920,0.670289,2.66949,16.6463,-0.569386,-0.0678804,-0.374144,0
2024-12-13 15:20:01.920,0.670289,2.66949,16.6463,-0.569386,-0.0678804,-0.374144,0
2024-12-13 15:20:01.923,0.584148,2.53789,16.9573,-0.537622,-0.0465007,-0.374144,0
2024-12-13 15:20:01.923,0.584148,2.53789,16.9573,-0.537622,-0.0465007,-0.374144,0
2024-12-13 15:20:01.923,0.584148,2.53789,16.9573,-0.537622,-0.0465007,-0.374144,0
2024-12-13 15:20:01.923,0.584148,2.53789,16.9573,-0.537622,-0.0465007,-0.374144,0
2024-12-13 15:20:01.923,0.584148,2.53789,16.9573,-0.537622,-0.0465007,-0.374144,0
2024-12-13 15:20:01.925,0.471685,2.40838,17.24,-0.494863,-0.0190126,-0.373533,0
2024-12-13 15:20:01.925,0.471685,2.40838,17.24,-0.494863,-0.0190126,-0.373533,0
2024-12-13 15:20:01.927,0.378365,2.26241,17.4506,-0.449049,0.0127514,-0.366814,0
2024-12-13 15:20:01.927,0.378365,2.26241,17.4506,-0.449049,0.0127514,-0.366814,0
2024-12-13 15:20:01.927,0.378365,2.26241,17.4506,-0.449049,0.0127514,-0.366814,0
2024-12-13 15:20:01.927,0.378365,2.26241,17.4506,-0.449049,0.0127514,-0.366814,0
2024-12-13 15:20:01.930,0.316152,2.12124,17.5989,-0.394684,0.0420721,-0.358262,0
2024-12-13 15:20:01.930,0.316152,2.12124,17.5989,-0.394684,0.0420721,-0.358262,0
2024-12-13 15:20:01.930,0.316152,2.12124,17.5989,-0.394684,0.0420721,-0.358262,0
2024-12-13 15:20:01.930,0.316152,2.12124,17.5989,-0.394684,0.0420721,-0.358262,0
2024-12-13 15:20:01.930,0.316152,2.12124,17.5989,-0.394684,0.0420721,-0.358262,0
2024-12-13 15:20:01.932,0.263211,2.01595,17.6782,-0.335431,0.0738362,-0.344823,0
2024-12-13 15:20:01.932,0.263211,2.01595,17.6782,-0.335431,0.0738362,-0.344823,0
2024-12-13 15:20:01.932,0.263211,2.01595,17.6782,-0.335431,0.0738362,-0.344823,0
2024-12-13 15:20:01.932,0.263211,2.01595,17.6782,-0.335431,0.0738362,-0.344823,0
2024-12-13 15:20:01.934,0.193819,1.93191,17.7189,-0.273125,0.108654,-0.331385,0
2024-12-13 15:20:01.934,0.193819,1.93191,17.7189,-0.273125,0.108654,-0.331385,0
2024-12-13 15:20:01.934,0.193819,1.93191,17.7189,-0.273125,0.108654,-0.331385,0
2024-12-13 15:20:01.937,0.193819,1.84337,17.7117,-0.205321,0.147749,-0.316113,1
2024-12-13 15:20:01.937,0.136391,1.84337,17.7117,-0.205321,0.147749,-0.316113,1
2024-12-13 15:20:01.937,0.136391,1.84337,17.7117,-0.205321,0.147749,-0.316113,1
2024-12-13 15:20:01.937,0.136391,1.84337,17.7117,-0.205321,0.147749,-0.316113,1
2024-12-13 15:20:01.939,0.119641,1.75484,17.5869,-0.137517,0.204557,-0.301453,0
2024-12-13 15:20:01.939,0.119641,1.75484,17.5869,-0.137517,0.204557,-0.301453,0
2024-12-13 15:20:01.939,0.119641,1.75484,17.5869,-0.137517,0.204557,-0.301453,0
2024-12-13 15:20:01.939,0.119641,1.75484,17.5869,-0.137517,0.204557,-0.301453,0
2024-12-13 15:20:01.939,0.119641,1.75484,17.5869,-0.137517,0.204557,-0.301453,0
2024-12-13 15:20:01.942,0.0861416,1.69741,17.4745,-0.0666587,0.268086,-0.289236,0
2024-12-13 15:20:01.942,0.0861416,1.69741,17.4745,-0.0666587,0.268086,-0.289236,0
2024-12-13 15:20:01.942,0.0861416,1.69741,17.4745,-0.0666587,0.268086,-0.289236,0
2024-12-13 15:20:01.942,0.0861416,1.69741,17.4745,-0.0666587,0.268086,-0.289236,0
2024-12-13 15:20:01.942,0.0861416,1.69741,17.4745,-0.0666587,0.268086,-0.289236,0
2024-12-13 15:20:01.942,0.0861416,1.69741,17.4745,-0.0666587,0.268086,-0.289236,0
2024-12-13 15:20:01.942,0.0861416,1.69741,17.4745,-0.0666587,0.268086,-0.289236,0
2024-12-13 15:20:01.942,0.0861416,1.69741,17.4745,-0.0666587,0.268086,-0.289236,0
2024-12-13 15:20:01.942,0.0861416,1.69741,17.4745,-0.0666587,0.268086,-0.289236,0
2024-12-13 15:20:01.943,0.0861416,1.69741,17.4745,0.00908635,0.32184,-0.273354,0
2024-12-13 15:20:01.946,-0.0526421,1.61845,17.3237,0.00908635,0.32184,-0.273354,0
2024-12-13 15:20:01.949,-0.143569,1.57777,17.1491,0.179513,0.412246,-0.224486,0
2024-12-13 15:20:01.949,-0.143569,1.57777,17.1491,0.179513,0.412246,-0.224486,0
2024-12-13 15:20:01.949,-0.143569,1.57777,17.1491,0.179513,0.412246,-0.224486,0
2024-12-13 15:20:01.951,-0.217747,1.55862,16.8879,0.268696,0.453172,-0.195777,0
2024-12-13 15:20:01.951,-0.217747,1.55862,16.8879,0.268696,0.453172,-0.195777,0
2024-12-13 15:20:01.951,-0.217747,1.55862,16.8879,0.268696,0.453172,-0.195777,0
2024-12-13 15:20:01.953,-0.272782,1.52991,16.5383,0.352993,0.494099,-0.164623,0
2024-12-13 15:20:01.954,-0.272782,1.52991,16.5383,0.352993,0.494099,-0.164623,0
2024-12-13 15:20:01.956,-0.32333,1.50598,16.1172,0.43248,0.54541,-0.135303,0
2024-12-13 15:20:01.956,-0.32333,1.50598,16.1172,0.43248,0.54541,-0.135303,0
2024-12-13 15:20:01.956,-0.32333,1.50598,16.1172,0.43248,0.54541,-0.135303,0
2024-12-13 15:20:01.956,-0.32333,1.50598,16.1172,0.43248,0.54541,-0.135303,0
2024-12-13 15:20:01.958,-0.378365,1.51316,15.7053,0.503338,0.604662,-0.105371,0
2024-12-13 15:20:01.958,-0.378365,1.51316,15.7053,0.503338,0.604662,-0.105371,0
2024-12-13 15:20:01.960,-0.402293,1.5323,15.2647,0.571142,0.656584,-0.0791047,0
2024-12-13 15:20:01.960,-0.402293,1.5323,15.2647,0.571142,0.656584,-0.0791047,0
2024-12-13 15:20:01.960,-0.402293,1.5323,15.2647,0.571142,0.656584,-0.0791047,0
2024-12-13 15:20:01.960,-0.402293,1.5323,15.2647,0.571142,0.656584,-0.0791047,0
2024-12-13 15:20:01.963,-0.4669,1.57537,14.7882,0.636503,0.701176,-0.0534491,0
2024-12-13 15:20:01.963,-0.4669,1.57537,14.7882,0.636503,0.701176,-0.0534491,0
2024-12-13 15:20:01.965,-0.591326,1.62562,14.3288,0.695144,0.747066,-0.0247393,0
2024-12-13 15:20:01.965,-0.591326,1.62562,14.3288,0.695144,0.747066,-0.0247393,0
2024-12-13 15:20:01.965,-0.591326,1.62562,14.3288,0.695144,0.747066,-0.0247393,0
2024-12-13 15:20:01.967,-0.682254,1.66391,13.8452,0.748899,0.788604,0.0051922,0
2024-12-13 15:20:01.970,-0.751645,1.71177,13.3304,0.799599,0.830141,0.0320695,0
2024-12-13 15:20:01.970,-0.751645,1.71177,13.3304,0.799599,0.830141,0.0320695,0
2024-12-13 15:20:01.970,-0.751645,1.71177,13.3304,0.799599,0.830141,0.0320695,0
2024-12-13 15:20:01.972,-0.80668,1.77876,12.8085,0.840526,0.868625,0.0601685,0
2024-12-13 15:20:01.972,-0.80668,1.77876,12.8085,0.840526,0.868625,0.0601685,0
2024-12-13 15:20:01.972,-0.80668,1.77876,12.8085,0.840526,0.868625,0.0601685,0
2024-12-13 15:20:01.972,-0.80668,1.77876,12.8085,0.840526,0.868625,0.0601685,0
2024-12-13 15:20:01.975,-0.869193,1.84098,12.2889,0.874122,0.906497,0.0907108,0
2024-12-13 15:20:01.975,-0.869193,1.84098,12.2889,0.874122,0.906497,0.0907108,0
2024-12-13 15:20:01.977,-0.950549,1.89601,11.7694,0.907108,0.947424,0.113312,0
2024-12-13 15:20:01.977,-0.950549,1.89601,11.7694,0.907108,0.947424,0.113312,0
2024-12-13 15:20:01.977,-0.950549,1.89601,11.7694,0.907108,0.947424,0.113312,0
2024-12-13 15:20:01.977,-0.950549,1.89601,11.7694,0.907108,0.947424,0.113312,0
2024-12-13 15:20:01.979,-1.04148,1.94626,11.2666,0.92971,0.982853,0.137822,0
2024-12-13 15:20:01.979,-1.04148,1.94626,11.2666,0.92971,0.982853,0.137822,0
2024-12-13 15:20:01.979,-1.04148,1.94626,11.2666,0.92971,0.982853,0.137822,0
2024-12-13 15:20:01.979,-1.04148,1.94626,11.2666,0.92971,0.982853,0.137822,0
2024-12-13 15:20:01.982,-1.12283,1.98724,10.7806,0.949257,1.01767,0.163478,0
2024-12-13 15:20:01.982,-1.12283,1.98724,10.7806,0.949257,1.01767,0.163478,0
2024-12-13 15:20:01.982,-1.12283,1.98724,10.7806,0.949257,1.01767,0.163478,0
2024-12-13 15:20:01.982,-1.12283,1.98724,10.7806,0.949257,1.01767,0.163478,0
2024-12-13 15:20:01.984,-1.22812,2.02552,10.3184,0.96575,1.05127,0.187301,0
2024-12-13 15:20:01.984,-1.22812,2.02552,10.3184,0.96575,1.05127,0.187301,0
2024-12-13 15:20:01.984,-1.22812,2.02552,10.3184,0.96575,1.05127,0.187301,0
2024-12-13 15:20:01.986,-1.3334,2.0662,9.86381,0.973691,1.0812,0.211124,0
2024-12-13 15:20:01.986,-1.3334,2.0662,9.86381,0.973691,1.0812,0.211124,0
2024-12-13 15:20:01.986,-1.3334,2.0662,9.86381,0.973691,1.0812,0.211124,0
2024-12-13 15:20:01.986,-1.3334,2.0662,9.86381,0.973691,1.0812,0.211124,0
2024-12-13 15:20:01.989,-1.41984,2.10927,9.40648,0.979188,1.11235,0.233115,0
2024-12-13 15:20:01.989,-1.41984,2.10927,9.40648,0.979188,1.11235,0.233115,0
2024-12-13 15:20:01.989,-1.41984,2.10927,9.40648,0.979188,1.11235,0.233115,0
2024-12-13 15:20:01.989,-1.41984,2.10927,9.40648,0.979188,1.11235,0.233115,0
2024-12-13 15:20:01.991,-1.41984,2.10927,9.40648,0.979799,1.13862,0.253883,0
2024-12-13 15:20:01.991,-1.51555,2.15474,8.97787,0.979799,1.13862,0.253883,0
2024-12-13 15:20:01.991,-1.51555,2.15474,8.97787,0.979799,1.13862,0.253883,0
2024-12-13 15:20:01.991,-1.51555,2.15474,8.97787,0.979799,1.13862,0.253883,0
2024-12-13 15:20:01.993,-1.58495,2.18106,8.58276,0.971858,1.15878,0.272209,0
2024-12-13 15:20:01.993,-1.58495,2.18106,8.58276,0.971858,1.15878,0.272209,0
2024-12-13 15:20:01.993,-1.58495,2.18106,8.58276,0.971858,1.15878,0.272209,0
2024-12-13 15:20:01.993,-1.58495,2.18106,8.58276,0.971858,1.15878,0.272209,0
2024-12-13 15:20:01.996,-1.6328,2.19541,8.20948,0.958419,1.1771,0.288702,0
2024-12-13 15:20:01.996,-1.6328,2.19541,8.20948,0.958419,1.1771,0.288702,0
2024-12-13 15:20:01.996,-1.6328,2.19541,8.20948,0.958419,1.1771,0.288702,0
2024-12-13 15:20:01.998,-1.65434,2.23849,7.82872,0.942537,1.19482,0.302751,0
2024-12-13 15:20:01.998,-1.6328,2.19541,7.82872,0.942537,1.19482,0.302751,0
2024-12-13 15:20:01.998,-1.65434,2.23849,7.82872,0.942537,1.19482,0.302751,0
2024-12-13 15:20:01.998,-1.65434,2.23849,7.82872,0.942537,1.19482,0.302751,0
2024-12-13 15:20:01.998,-1.65434,2.23849,7.82872,0.942537,1.19482,0.302751,0
2024-12-13 15:20:02.000,-1.68066,2.25284,7.48385,0.915049,1.21681,0.310692,0
2024-12-13 15:20:02.000,-1.68066,2.25284,7.48385,0.915049,1.21681,0.310692,0
2024-12-13 15:20:02.003,-1.68066,2.25284,7.24218,0.886339,1.23269,0.318022,0
2024-12-13 15:20:02.003,-1.75723,2.26002,7.24218,0.886339,1.23269,0.318022,0
2024-12-13 15:20:02.003,-1.75723,2.26002,7.24218,0.886339,1.23269,0.318022,0
2024-12-13 15:20:02.003,-1.75723,2.26002,7.24218,0.886339,1.23269,0.318022,0
2024-12-13 15:20:02.003,-1.75723,2.26002,7.24218,0.886339,1.23269,0.318022,0
2024-12-13 15:20:02.005,-1.84576,2.28873,7.07707,0.852743,1.23391,0.326574,0
2024-12-13 15:20:02.005,-1.84576,2.28873,7.07707,0.852743,1.23391,0.326574,0
2024-12-13 15:20:02.005,-1.84576,2.28873,7.07707,0.852743,1.23391,0.326574,0
2024-12-13 15:20:02.006,-1.84576,2.28873,7.07707,0.8222,1.22964,0.333294,0
2024-12-13 15:20:02.007,-1.94387,2.28395,6.94517,0.8222,1.22964,0.333294,0
2024-12-13 15:20:02.007,-1.94387,2.28395,6.94517,0.8222,1.22964,0.333294,0
2024-12-13 15:20:02.007,-1.94387,2.28395,6.94517,0.8222,1.22964,0.333294,0
2024-12-13 15:20:02.007,-1.94387,2.28395,6.94517,0.8222,1.22964,0.333294,0
2024-12-13 15:20:02.010,-2.04706,2.28395,6.81835,0.787993,1.21925,0.343067,0
2024-12-13 15:20:02.010,-2.04706,2.28395,6.81835,0.787993,1.21925,0.343067,0
2024-12-13 15:20:02.011,-2.04706,2.28395,6.81835,0.754396,1.20398,0.355284,0
2024-12-13 15:20:02.012,-2.13081,2.29352,6.69153,0.754396,1.20398,0.355284,0
2024-12-13 15:20:02.012,-2.13081,2.29352,6.69153,0.754396,1.20398,0.355284,0
2024-12-13 15:20:02.012,-2.13081,2.29352,6.69153,0.754396,1.20398,0.355284,0
2024-12-13 15:20:02.012,-2.13081,2.29352,6.69153,0.754396,1.20398,0.355284,0
2024-12-13 15:20:02.012,-2.13081,2.29352,6.69153,0.754396,1.20398,0.355284,0
2024-12-13 15:20:02.015,-2.2002,2.29831,6.58624,0.715913,1.18382,0.364447,0
2024-12-13 15:20:02.015,-2.2002,2.29831,6.58624,0.715913,1.18382,0.364447,0
2024-12-13 15:20:02.015,-2.2002,2.29831,6.58624,0.715913,1.18382,0.364447,0
2024-12-13 15:20:02.015,-2.2002,2.29831,6.58624,0.715913,1.18382,0.364447,0
2024-12-13 15:20:02.017,-2.2337,2.33659,6.51207,0.67804,1.16244,0.371777,0
2024-12-13 15:20:02.017,-2.2337,2.33659,6.51207,0.67804,1.16244,0.371777,0
2024-12-13 15:20:02.017,-2.2337,2.33659,6.51207,0.67804,1.16244,0.371777,0
2024-12-13 15:20:02.017,-2.2337,2.33659,6.51207,0.67804,1.16244,0.371777,0
2024-12-13 15:20:02.019,-2.21695,2.37727,6.48814,0.637114,1.15206,0.370555,0
2024-12-13 15:20:02.019,-2.21695,2.37727,6.48814,0.637114,1.15206,0.370555,0
2024-12-13 15:20:02.019,-2.21695,2.37727,6.48814,0.637114,1.15206,0.370555,0
2024-12-13 15:20:02.022,-2.1667,2.3342,6.469,0.594354,1.14473,0.364447,0
2024-12-13 15:20:02.022,-2.1667,2.3342,6.469,0.594354,1.14473,0.364447,0
2024-12-13 15:20:02.022,-2.1667,2.3342,6.469,0.594354,1.14473,0.364447,0
2024-12-13 15:20:02.022,-2.1667,2.3342,6.469,0.594354,1.14473,0.364447,0
2024-12-13 15:20:02.024,-2.13559,2.25763,6.44955,0.552206,1.12029,0.360171,0
2024-12-13 15:20:02.024,-2.13559,2.25763,6.44955,0.552206,1.12029,0.360171,0
2024-12-13 15:20:02.024,-2.13559,2.25763,6.44955,0.552206,1.12029,0.360171,0
2024-12-13 15:20:02.026,-2.17627,2.20977,6.48335,0.511279,1.08303,0.358949,0
2024-12-13 15:20:02.026,-2.17627,2.20977,6.48335,0.511279,1.08303,0.358949,0
2024-12-13 15:20:02.026,-2.17627,2.20977,6.48335,0.511279,1.08303,0.358949,0
2024-12-13 15:20:02.026,-2.17627,2.20977,6.48335,0.511279,1.08303,0.358949,0
2024-12-13 15:20:02.026,-2.17627,2.20977,6.48335,0.511279,1.08303,0.358949,0
2024-12-13 15:20:02.029,-2.27199,2.15474,6.58146,0.472185,1.03233,0.361392,0
2024-12-13 15:20:02.029,-2.27199,2.15474,6.58146,0.472185,1.03233,0.361392,0
2024-12-13 15:20:02.029,-2.27199,2.15474,6.58146,0.472185,1.03233,0.361392,0
2024-12-13 15:20:02.029,-2.27199,2.15474,6.58146,0.472185,1.03233,0.361392,0
2024-12-13 15:20:02.029,-2.27199,2.15474,6.58146,0.472185,1.03233,0.361392,0
2024-12-13 15:20:02.029,-2.27199,2.15474,6.58146,0.472185,1.03233,0.361392,0
2024-12-13 15:20:02.031,-2.50887,2.17866,6.72981,0.438588,0.98041,0.367501,0
2024-12-13 15:20:02.033,-2.50887,2.48495,6.83031,0.412322,0.935818,0.380329,0
2024-12-13 15:20:02.033,-3.02602,2.48495,6.83031,0.412322,0.935818,0.380329,0
2024-12-13 15:20:02.033,-3.02602,2.48495,6.83031,0.412322,0.935818,0.380329,0
2024-12-13 15:20:02.033,-3.02602,2.48495,6.83031,0.412322,0.935818,0.380329,0
2024-12-13 15:20:02.036,-2.99013,2.56182,6.8686,0.391553,0.930931,0.398654,0
2024-12-13 15:20:02.036,-2.99013,2.56182,6.8686,0.391553,0.930931,0.398654,0
2024-12-13 15:20:02.036,-2.99013,2.56182,6.8686,0.391553,0.930931,0.398654,0
2024-12-13 15:20:02.036,-2.99013,2.56182,6.8686,0.391553,0.930931,0.398654,0
2024-12-13 15:20:02.036,-2.99013,2.56182,6.8686,0.391553,0.930931,0.398654,0
2024-12-13 15:20:02.038,-2.30548,2.22652,7.05314,0.37506,0.932764,0.406595,0
2024-12-13 15:20:02.038,-2.30548,2.22652,7.05314,0.37506,0.932764,0.406595,0
2024-12-13 15:20:02.038,-2.30548,2.22652,7.05314,0.37506,0.932764,0.406595,0
2024-12-13 15:20:02.040,-1.83859,1.93908,7.47667,0.359713,0.900389,0.402319,0
2024-12-13 15:20:02.040,-1.83859,1.93908,7.47667,0.359713,0.900389,0.402319,0
2024-12-13 15:20:02.040,-1.83859,1.93908,7.47667,0.359713,0.900389,0.402319,0
2024-12-13 15:20:02.040,-1.83859,1.93908,7.47667,0.359713,0.900389,0.402319,0
2024-12-13 15:20:02.040,-1.83859,1.93908,7.47667,0.359713,0.900389,0.402319,0
2024-12-13 15:20:02.043,-1.68066,1.72612,7.82154,0.345052,0.828309,0.389491,0
2024-12-13 15:20:02.043,-1.68066,1.72612,7.82154,0.345052,0.828309,0.389491,0
2024-12-13 15:20:02.043,-1.68066,1.72612,7.82154,0.345052,0.828309,0.389491,0
2024-12-13 15:20:02.043,-1.68066,1.72612,7.82154,0.345052,0.828309,0.389491,0
2024-12-13 15:20:02.045,-1.80509,1.63998,7.90529,0.331614,0.729352,0.378496,0
2024-12-13 15:20:02.045,-1.80509,1.63998,7.90529,0.331614,0.729352,0.378496,0
2024-12-13 15:20:02.045,-1.80509,1.63998,7.90529,0.331614,0.729352,0.378496,0
2024-12-13 15:20:02.048,-1.80509,1.63998,7.87657,0.316953,0.629707,0.368723,0
2024-12-13 15:20:02.048,-2.01595,1.63041,7.87657,0.316953,0.629707,0.368723,0
2024-12-13 15:20:02.048,-2.01595,1.63041,7.87657,0.316953,0.629707,0.368723,0
2024-12-13 15:20:02.048,-2.01595,1.63041,7.87657,0.316953,0.629707,0.368723,0
2024-12-13 15:20:02.050,-2.16909,1.6328,7.85504,0.303515,0.530139,0.36689,0
2024-12-13 15:20:02.050,-2.16909,1.6328,7.85504,0.303515,0.530139,0.36689,0
2024-12-13 15:20:02.050,-2.16909,1.6328,7.85504,0.303515,0.530139,0.36689,0
2024-12-13 15:20:02.050,-2.16909,1.6328,7.85504,0.303515,0.530139,0.36689,0
2024-12-13 15:20:02.052,-2.28634,1.64716,7.89332,0.297406,0.437901,0.366279,0
2024-12-13 15:20:02.052,-2.28634,1.64716,7.89332,0.297406,0.437901,0.366279,0
2024-12-13 15:20:02.052,-2.28634,1.64716,7.89332,0.297406,0.437901,0.366279,0
2024-12-13 15:20:02.052,-2.28634,1.64716,7.89332,0.297406,0.437901,0.366279,0
2024-12-13 15:20:02.055,-2.4012,1.69262,7.94357,0.288244,0.353604,0.368723,0
2024-12-13 15:20:02.055,-2.4012,1.69262,7.94357,0.288244,0.353604,0.368723,0
2024-12-13 15:20:02.055,-2.4012,1.69262,7.94357,0.288244,0.353604,0.368723,0
2024-12-13 15:20:02.057,-2.4012,1.74766,7.97947,0.280913,0.280913,0.371166,0
2024-12-13 15:20:02.057,-2.47298,1.74766,7.97947,0.280913,0.280913,0.371166,0
2024-12-13 15:20:02.057,-2.47298,1.74766,7.97947,0.280913,0.280913,0.371166,0
2024-12-13 15:20:02.057,-2.47298,1.74766,7.97947,0.280913,0.280913,0.371166,0
2024-12-13 15:20:02.059,-2.4658,1.76201,8.01536,0.282746,0.219829,0.371777,0
2024-12-13 15:20:02.059,-2.4658,1.76201,8.01536,0.282746,0.219829,0.371777,0
2024-12-13 15:20:02.059,-2.4658,1.76201,8.01536,0.282746,0.219829,0.371777,0
2024-12-13 15:20:02.059,-2.4658,1.76201,8.01536,0.282746,0.219829,0.371777,0
2024-12-13 15:20:02.062,-2.38445,1.73809,8.07279,0.280913,0.164852,0.370555,0
2024-12-13 15:20:02.062,-2.38445,1.73809,8.07279,0.280913,0.164852,0.370555,0
2024-12-13 15:20:02.062,-2.38445,1.73809,8.07279,0.280913,0.164852,0.370555,0
2024-12-13 15:20:02.062,-2.38445,1.73809,8.07279,0.280913,0.164852,0.370555,0
2024-12-13 15:20:02.064,-2.2337,1.71177,8.15923,0.283968,0.122093,0.36689,0
2024-12-13 15:20:02.064,-2.2337,1.71177,8.15923,0.283968,0.122093,0.36689,0
2024-12-13 15:20:02.064,-2.2337,1.71177,8.15923,0.283968,0.122093,0.36689,0
2024-12-13 15:20:02.064,-2.2337,1.71177,8.15923,0.283968,0.122093,0.36689,0
2024-12-13 15:20:02.066,-2.0686,1.68305,8.23101,0.290687,0.0805555,0.362614,0
2024-12-13 15:20:02.066,-2.0686,1.68305,8.23101,0.290687,0.0805555,0.362614,0
2024-12-13 15:20:02.066,-2.0686,1.68305,8.23101,0.290687,0.0805555,0.362614,0
2024-12-13 15:20:02.066,-2.0686,1.68305,8.23101,0.290687,0.0805555,0.362614,0
2024-12-13 15:20:02.066,-2.0686,1.68305,8.23101,0.290687,0.0805555,0.362614,0
2024-12-13 15:20:02.069,-1.91276,1.65434,8.27647,0.301682,0.0451263,0.354062,0
2024-12-13 15:20:02.069,-1.91276,1.65434,8.27647,0.301682,0.0451263,0.354062,0
2024-12-13 15:20:02.069,-1.91276,1.65434,8.27647,0.301682,0.0451263,0.354062,0
2024-12-13 15:20:02.070,-1.91276,1.65434,8.27647,0.31451,0.014584,0.346121,0
2024-12-13 15:20:02.071,-1.7668,1.63041,8.3028,0.31451,0.014584,0.346121,0
2024-12-13 15:20:02.071,-1.7668,1.63041,8.3028,0.31451,0.014584,0.346121,0
2024-12-13 15:20:02.071,-1.7668,1.63041,8.3028,0.31451,0.014584,0.346121,0
2024-12-13 15:20:02.071,-1.7668,1.63041,8.3028,0.31451,0.014584,0.346121,0
2024-12-13 15:20:02.073,-1.66391,1.60648,8.32194,0.328559,-0.0153475,0.335737,0
2024-12-13 15:20:02.073,-1.66391,1.60648,8.32194,0.328559,-0.0153475,0.335737,0
2024-12-13 15:20:02.073,-1.66391,1.60648,8.32194,0.328559,-0.0153475,0.335737,0
2024-12-13 15:20:02.076,-1.6017,1.59691,8.3339,0.342609,-0.0397814,0.327796,0
2024-12-13 15:20:02.076,-1.6017,1.59691,8.3339,0.342609,-0.0397814,0.327796,0
2024-12-13 15:20:02.076,-1.6017,1.59691,8.3339,0.342609,-0.0397814,0.327796,0
2024-12-13 15:20:02.076,-1.6017,1.59691,8.3339,0.342609,-0.0397814,0.327796,0
2024-12-13 15:20:02.078,-1.53948,1.58734,8.3339,0.356048,-0.065437,0.316801,0
2024-12-13 15:20:02.078,-1.53948,1.58734,8.3339,0.356048,-0.065437,0.316801,0
2024-12-13 15:20:02.078,-1.53948,1.58734,8.3339,0.356048,-0.065437,0.316801,0
2024-12-13 15:20:02.078,-1.53948,1.58734,8.3339,0.356048,-0.065437,0.316801,0
2024-12-13 15:20:02.081,-1.48205,1.57537,8.30997,0.368341,-0.0880384,0.306416,0
2024-12-13 15:20:02.081,-1.48205,1.57537,8.30997,0.368341,-0.0880384,0.306416,0
2024-12-13 15:20:02.081,-1.48205,1.57537,8.30997,0.368341,-0.0880384,0.306416,0
2024-12-13 15:20:02.081,-1.48205,1.57537,8.30997,0.368341,-0.0880384,0.306416,0
2024-12-13 15:20:02.083,-1.42941,1.57298,8.26212,0.380558,-0.108196,0.296032,0
2024-12-13 15:20:02.083,-1.42941,1.57298,8.26212,0.380558,-0.108196,0.296032,0
2024-12-13 15:20:02.083,-1.42941,1.57298,8.26212,0.380558,-0.108196,0.296032,0
2024-12-13 15:20:02.083,-1.42941,1.57298,8.26212,0.380558,-0.108196,0.296032,0
2024-12-13 15:20:02.083,-1.42941,1.57298,8.26212,0.380558,-0.108196,0.296032,0
2024-12-13 15:20:02.085,-1.37647,1.57777,8.21187,0.387888,-0.128354,0.28748,0
2024-12-13 15:20:02.085,-1.37647,1.57777,8.21187,0.387888,-0.128354,0.28748,0
2024-12-13 15:20:02.085,-1.37647,1.57777,8.21187,0.387888,-0.128354,0.28748,0
2024-12-13 15:20:02.088,-1.33101,1.57537,8.17358,0.395218,-0.143015,0.278928,0
2024-12-13 15:20:02.088,-1.33101,1.57537,8.17358,0.395218,-0.143015,0.278928,0
2024-12-13 15:20:02.088,-1.33101,1.57537,8.17358,0.395218,-0.143015,0.278928,0
2024-12-13 15:20:02.088,-1.33101,1.57537,8.17358,0.395218,-0.143015,0.278928,0
2024-12-13 15:20:02.090,-1.27837,1.57059,8.13021,0.404381,-0.157064,0.270987,0
2024-12-13 15:20:02.090,-1.27837,1.57059,8.13021,0.404381,-0.157064,0.270987,0
2024-12-13 15:20:02.090,-1.27837,1.57059,8.13021,0.404381,-0.157064,0.270987,0
2024-12-13 15:20:02.090,-1.27837,1.57059,8.13021,0.404381,-0.157064,0.270987,0
2024-12-13 15:20:02.092,-1.22333,1.57298,8.08236,0.409879,-0.168059,0.259381,0
2024-12-13 15:20:02.092,-1.22333,1.57298,8.08236,0.409879,-0.168059,0.259381,0
2024-12-13 15:20:02.092,-1.22333,1.57298,8.08236,0.409879,-0.168059,0.259381,0
2024-12-13 15:20:02.092,-1.22333,1.57298,8.08236,0.409879,-0.168059,0.259381,0
2024-12-13 15:20:02.095,-1.17069,1.58255,8.05843,0.414154,-0.176,0.25144,0
2024-12-13 15:20:02.095,-1.17069,1.58255,8.05843,0.414154,-0.176,0.25144,0
2024-12-13 15:20:02.095,-1.17069,1.58255,8.05843,0.414154,-0.176,0.25144,0
2024-12-13 15:20:02.095,-1.17069,1.58255,8.05843,0.414154,-0.176,0.25144,0
2024-12-13 15:20:02.097,-1.11565,1.58255,8.03211,0.417209,-0.184552,0.244721,0
2024-12-13 15:20:02.099,-1.07258,1.5682,8.00339,0.420874,-0.189439,0.238612,0
2024-12-13 15:20:02.099,-1.07258,1.5682,8.00339,0.420874,-0.189439,0.238612,0
2024-12-13 15:20:02.099,-1.07258,1.5682,8.00339,0.420874,-0.189439,0.238612,0
2024-12-13 15:20:02.099,-1.07258,1.5682,8.00339,0.420874,-0.189439,0.238612,0
2024-12-13 15:20:02.102,-1.03669,1.57298,7.9675,0.423317,-0.194326,0.233115,0
2024-12-13 15:20:02.102,-1.03669,1.57298,7.9675,0.423317,-0.194326,0.233115,0
2024-12-13 15:20:02.104,-0.99362,1.58734,7.934,0.423317,-0.198602,0.226395,0
2024-12-13 15:20:02.104,-0.99362,1.58734,7.934,0.423317,-0.198602,0.226395,0
2024-12-13 15:20:02.104,-0.99362,1.58734,7.934,0.423317,-0.198602,0.226395,0
2024-12-13 15:20:02.106,-0.964906,1.58973,7.91486,0.423317,-0.201656,0.220287,0
2024-12-13 15:20:02.106,-0.964906,1.58973,7.91486,0.423317,-0.201656,0.220287,0
2024-12-13 15:20:02.106,-0.964906,1.58973,7.91486,0.423317,-0.201656,0.220287,0
2024-12-13 15:20:02.106,-0.964906,1.58973,7.91486,0.423317,-0.201656,0.220287,0
2024-12-13 15:20:02.109,-0.933799,1.6017,7.88854,0.423928,-0.202267,0.216622,0
2024-12-13 15:20:02.109,-0.933799,1.6017,7.88854,0.423928,-0.202267,0.216622,0
2024-12-13 15:20:02.109,-0.933799,1.6017,7.88854,0.423928,-0.202267,0.216622,0
2024-12-13 15:20:02.109,-0.933799,1.6017,7.88854,0.423928,-0.202267,0.216622,0
2024-12-13 15:20:02.111,-0.905085,1.60887,7.84307,0.423928,-0.202878,0.213567,0
2024-12-13 15:20:02.111,-0.905085,1.60887,7.84307,0.423928,-0.202878,0.213567,0
2024-12-13 15:20:02.111,-0.905085,1.60887,7.84307,0.423928,-0.202878,0.213567,0
2024-12-13 15:20:02.113,-0.888335,1.61127,7.7665,0.420263,-0.201045,0.20807,0
2024-12-13 15:20:02.113,-0.888335,1.61127,7.7665,0.420263,-0.201045,0.20807,0
2024-12-13 15:20:02.116,-0.862014,1.6352,7.67318,0.41782,-0.196769,0.206237,0
2024-12-13 15:20:02.116,-0.862014,1.6352,7.67318,0.41782,-0.196769,0.206237,0
2024-12-13 15:20:02.116,-0.862014,1.6352,7.67318,0.41782,-0.196769,0.206237,0
2024-12-13 15:20:02.116,-0.862014,1.6352,7.67318,0.41782,-0.196769,0.206237,0
2024-12-13 15:20:02.118,-0.818644,1.65194,7.58704,0.410489,-0.194326,0.201351,0
2024-12-13 15:20:02.118,-0.818644,1.65194,7.58704,0.410489,-0.194326,0.201351,0
2024-12-13 15:20:02.118,-0.818644,1.65194,7.58704,0.410489,-0.194326,0.201351,0
2024-12-13 15:20:02.118,-0.818644,1.65194,7.58704,0.410489,-0.194326,0.201351,0
2024-12-13 15:20:02.121,-0.770788,1.65912,7.49582,0.404381,-0.188217,0.196464,0
2024-12-13 15:20:02.121,-0.770788,1.65912,7.49582,0.404381,-0.188217,0.196464,0
2024-12-13 15:20:02.121,-0.770788,1.65912,7.49582,0.404381,-0.188217,0.196464,0
2024-12-13 15:20:02.121,-0.770788,1.65912,7.49582,0.404381,-0.188217,0.196464,0
2024-12-13 15:20:02.123,-0.737288,1.67827,7.40967,0.395829,-0.184552,0.195242,0
2024-12-13 15:20:02.123,-0.737288,1.67827,7.40967,0.395829,-0.184552,0.195242,0
2024-12-13 15:20:02.123,-0.737288,1.67827,7.40967,0.395829,-0.184552,0.195242,0
2024-12-13 15:20:02.123,-0.737288,1.67827,7.40967,0.395829,-0.184552,0.195242,0
2024-12-13 15:20:02.123,-0.737288,1.67827,7.40967,0.395829,-0.184552,0.195242,0
2024-12-13 15:20:02.125,-0.708575,1.69023,7.3331,0.388499,-0.178444,0.191577,0
2024-12-13 15:20:02.125,-0.708575,1.69023,7.3331,0.388499,-0.178444,0.191577,0
2024-12-13 15:20:02.125,-0.708575,1.69023,7.3331,0.388499,-0.178444,0.191577,0
2024-12-13 15:20:02.128,-0.684646,1.69023,7.25893,0.379947,-0.174779,0.187912,0
2024-12-13 15:20:02.130,-0.658325,1.70937,7.18236,0.369563,-0.169892,0.185468,0
2024-12-13 15:20:02.132,-0.624826,1.71655,7.09382,0.359713,-0.163783,0.181193,0
2024-12-13 15:20:02.137,-0.605683,1.75484,6.9332,0.329781,-0.149734,0.173862,0
2024-12-13 15:20:02.137,-0.605683,1.75484,6.9332,0.329781,-0.149734,0.173862,0
2024-12-13 15:20:02.139,-0.593719,1.76201,6.86381,0.329781,-0.149734,0.173862,0
2024-12-13 15:20:02.142,-0.567398,1.7668,6.78963,0.308401,-0.127743,0.167754,0
2024-12-13 15:20:02.144,-0.550648,1.77398,6.71067,0.29313,-0.117359,0.167143,0
2024-12-13 15:20:02.146,-0.533899,1.78834,6.65085,0.283968,-0.100255,0.1647,0
2024-12-13 15:20:02.149,-0.507577,1.81705,6.57189,0.268696,-0.0874275,0.165311,0
2024-12-13 15:20:02.151,-0.486042,1.84816,6.48575,0.268696,-0.0874275,0.165311,0
2024-12-13 15:20:02.154,-0.4669,1.8673,6.42802,0.240597,-0.057496,0.160424,0
2024-12-13 15:20:02.158,-0.428614,1.91516,6.29163,0.21372,-0.0300079,0.161035,0
2024-12-13 15:20:02.158,-0.428614,1.91516,6.29163,0.21372,-0.0300079,0.161035,0
2024-12-13 15:20:02.161,-0.421436,1.95344,6.22463,0.21372,-0.0300079,0.161035,0
2024-12-13 15:20:02.163,-0.409472,1.98485,6.16481,0.183178,-0.0019089,0.158591,0
2024-12-13 15:20:02.165,-0.3999,2.00877,6.09781,0.169739,0.0109189,0.15798,0
2024-12-13 15:20:02.168,-0.385544,2.04467,6.03799,0.153857,0.0231358,0.158591,0
2024-12-13 15:20:02.170,-0.380758,2.07577,5.98056,0.137975,0.0377962,0.158591,0
2024-12-13 15:20:02.172,-0.380758,2.08774,5.91117,0.120871,0.0500131,0.158591,0
2024-12-13 15:20:02.175,-0.373579,2.09013,5.84626,0.106211,0.0591758,0.159813,0
2024-12-13 15:20:02.177,-0.378365,2.11406,5.80319,0.090329,0.0671168,0.158591,0
2024-12-13 15:20:02.182,-0.390329,2.13799,5.75055,0.0561216,0.0732253,0.15798,0
2024-12-13 15:20:02.182,-0.390329,2.13799,5.75055,0.0561216,0.0732253,0.15798,0
2024-12-13 15:20:02.184,-0.409472,2.13799,5.74337,0.0371853,0.074447,0.160424,0
2024-12-13 15:20:02.187,-0.421436,2.14277,5.74577,0.0200816,0.0720036,0.159813,0
2024-12-13 15:20:02.189,-0.41665,2.14995,5.74577,0.00542127,0.0683385,0.156759,0
2024-12-13 15:20:02.191,-0.404686,2.16192,5.76252,-0.0104608,0.0634518,0.158591,0
2024-12-13 15:20:02.194,-0.402293,2.19063,5.76012,-0.0245102,0.0591758,0.159813,0
2024-12-13 15:20:02.196,-0.409472,2.24566,5.75773,-0.0403923,0.0561216,0.158591,0
2024-12-13 15:20:02.198,-0.426222,2.28634,5.78405,-0.0526092,0.0530674,0.160424,0
2024-12-13 15:20:02.201,-0.442971,2.31266,5.81516,-0.0672696,0.0469589,0.159813,0
2024-12-13 15:20:02.203,-0.445364,2.34138,5.84626,-0.0782648,0.0408504,0.159813,0
2024-12-13 15:20:02.205,-0.454935,2.37727,5.87498,-0.0898709,0.0353528,0.158591,0
2024-12-13 15:20:02.208,-0.459721,2.42034,5.90638,-0.102088,0.0268009,0.15737,0
2024-12-13 15:20:02.210,-0.45015,2.44427,5.94945,-0.111251,0.0182491,0.156148,0
2024-12-13 15:20:02.212,-0.457328,2.4658,5.9997,-0.120413,0.00847551,0.154315,0
2024-12-13 15:20:02.215,-0.471685,2.48973,6.04517,-0.129576,-7.63559e-05,0.153094,0
2024-12-13 15:20:02.217,-0.488435,2.50648,6.06431,-0.136295,-0.00801737,0.151872,0
2024-12-13 15:20:02.219,-0.498006,2.52592,6.10499,-0.142404,-0.0147367,0.151261,0
2024-12-13 15:20:02.224,-0.507577,2.57139,6.17917,-0.151566,-0.0275645,0.149429,0
2024-12-13 15:20:02.224,-0.507577,2.57139,6.17917,-0.151566,-0.0275645,0.149429,0
2024-12-13 15:20:02.229,-0.519542,2.61207,6.25095,-0.15401,-0.0318404,0.146985,0
2024-12-13 15:20:02.229,-0.519542,2.61207,6.25095,-0.15401,-0.0318404,0.146985,0
2024-12-13 15:20:02.231,-0.521934,2.62164,6.27009,-0.160118,-0.0397814,0.145763,0
2024-12-13 15:20:02.234,-0.536291,2.62403,6.28684,-0.165005,-0.0410031,0.14332,0
2024-12-13 15:20:02.236,-0.54347,2.65753,6.31795,-0.166838,-0.041614,0.142709,0
2024-12-13 15:20:02.238,-0.538684,2.68385,6.34427,-0.169281,-0.0422248,0.141487,0
2024-12-13 15:20:02.241,-0.52672,2.67667,6.3682,-0.169892,-0.0446682,0.140266,0
2024-12-13 15:20:02.243,-0.514756,2.68864,6.39452,-0.172946,-0.0452791,0.139044,0
2024-12-13 15:20:02.248,-0.524327,2.72692,6.48814,-0.178444,-0.049555,0.136601,0
2024-12-13 15:20:02.248,-0.524327,2.72692,6.48814,-0.178444,-0.049555,0.136601,0
2024-12-13 15:20:02.250,-0.545863,2.74367,6.5336,-0.178444,-0.0513875,0.136601,0
2024-12-13 15:20:02.252,-0.586541,2.75085,6.57667,-0.181498,-0.0532201,0.137822,0
2024-12-13 15:20:02.257,-0.605683,2.76999,6.61735,-0.182109,-0.0611611,0.137822,0
2024-12-13 15:20:02.257,-0.63679,2.78674,6.6676,-0.182109,-0.0611611,0.137822,0
2024-12-13 15:20:02.260,-0.667897,2.80828,6.7346,-0.182109,-0.0642153,0.140266,0
2024-12-13 15:20:02.262,-0.660718,2.84178,6.79203,-0.18272,-0.0678804,0.142098,0
2024-12-13 15:20:02.264,-0.663111,2.86331,6.83749,-0.184552,-0.0703238,0.14332,0
2024-12-13 15:20:02.267,-0.675075,2.88485,6.87578,-0.184552,-0.0691021,0.144542,0
2024-12-13 15:20:02.269,-0.679861,2.92552,6.90449,-0.185163,-0.0721563,0.14332,0
2024-12-13 15:20:02.271,-0.689432,2.97338,6.93081,-0.186385,-0.0721563,0.146985,0
2024-12-13 15:20:02.274,-0.682254,3.02363,6.94277,-0.186996,-0.0703238,0.148818,0
2024-12-13 15:20:02.276,-0.679861,3.05234,6.95952,-0.190661,-0.0709346,0.152483,0
2024-12-13 15:20:02.278,-0.687039,3.06192,6.96431,-0.193104,-0.0684913,0.153704,0
2024-12-13 15:20:02.283,-0.691825,3.09332,6.98345,-0.202878,-0.0678804,0.159202,0
2024-12-13 15:20:02.283,-0.691825,3.09332,6.98345,-0.202878,-0.0678804,0.159202,0
2024-12-13 15:20:02.285,-0.691825,3.08106,7.00738,-0.208986,-0.0715455,0.162867,0
2024-12-13 15:20:02.288,-0.699003,3.09093,7.034,-0.216927,-0.0745997,0.163478,0
2024-12-13 15:20:02.290,-0.689432,3.10289,7.08186,-0.226701,-0.0770431,0.165311,0
2024-12-13 15:20:02.293,-0.670289,3.11725,7.13211,-0.234642,-0.0807082,0.167143,0
2024-12-13 15:20:02.295,-0.646361,3.15553,7.17039,-0.234642,-0.0807082,0.167143,0
2024-12-13 15:20:02.297,-0.627219,3.18664,7.21586,-0.253578,-0.085595,0.165921,0
2024-12-13 15:20:02.300,-0.62004,3.20578,7.27089,-0.265184,-0.0886492,0.163478,0
2024-12-13 15:20:02.302,-0.627219,3.21057,7.32593,-0.274347,-0.0849841,0.161645,0
2024-12-13 15:20:02.304,-0.648754,3.22971,7.38814,-0.285342,-0.0807082,0.162256,0
2024-12-13 15:20:02.307,-0.672682,3.25125,7.45275,-0.293894,-0.0721563,0.159813,0
2024-12-13 15:20:02.309,-0.684646,3.26321,7.52214,-0.301835,-0.0660479,0.15737,0
2024-12-13 15:20:02.311,-0.701396,3.27996,7.57239,-0.31283,-0.0599394,0.15798,0
2024-12-13 15:20:02.314,-0.73011,3.29193,7.62293,-0.32016,-0.0507767,0.156148,0
2024-12-13 15:20:02.318,-0.785145,3.30389,7.7665,-0.339707,-0.0312296,0.156148,0
2024-12-13 15:20:02.318,-0.785145,3.30389,7.7665,-0.339707,-0.0312296,0.156148,0
2024-12-13 15:20:02.321,-0.80668,3.29671,7.82154,-0.350092,-0.0226777,0.156148,0
2024-12-13 15:20:02.323,-0.818644,3.29671,7.8694,-0.358644,-0.013515,0.156759,0
2024-12-13 15:20:02.325,-0.84018,3.29432,7.91725,-0.369639,-0.00557398,0.156148,0
2024-12-13 15:20:02.328,-0.876371,3.3015,7.97468,-0.380634,-7.63559e-05,0.15798,0
2024-12-13 15:20:02.330,-0.893121,3.30389,8.03689,-0.387964,0.00664296,0.158591,0
2024-12-13 15:20:02.333,-0.895514,3.29432,8.10629,-0.397738,0.0121406,0.159813,0
2024-12-13 15:20:02.337,-0.909871,3.29432,8.27408,-0.417896,0.0170274,0.161645,0
2024-12-13 15:20:02.337,-0.909871,3.29432,8.27408,-0.417896,0.0170274,0.161645,0
2024-12-13 15:20:02.340,-0.933799,3.28953,8.36262,-0.428891,0.0194708,0.161645,0
2024-12-13 15:20:02.342,-0.945763,3.28475,8.46072,-0.436832,0.0213033,0.162256,0
2024-12-13 15:20:02.344,-0.938585,3.29671,8.55883,-0.444773,0.0237467,0.161645,0
2024-12-13 15:20:02.347,-0.929013,3.30628,8.65693,-0.452714,0.0249684,0.159813,0
2024-12-13 15:20:02.349,-0.931406,3.30628,8.77448,-0.460044,0.0237467,0.159202,0
2024-12-13 15:20:02.351,-0.955334,3.31585,8.91087,-0.463099,0.0237467,0.159202,0
2024-12-13 15:20:02.354,-0.967299,3.33978,9.05444,-0.466153,0.0170274,0.156759,0
2024-12-13 15:20:02.356,-0.950549,3.3685,9.20758,-0.469818,0.00847551,0.153704,0
2024-12-13 15:20:02.358,-0.933799,3.39242,9.35863,-0.469818,0.00847551,0.153704,0
2024-12-13 15:20:02.361,-0.921835,3.41875,9.5022,-0.468596,-0.0122933,0.147596,0
2024-12-13 15:20:02.363,-0.902692,3.4331,9.62902,-0.466764,-0.0263428,0.145763,0
2024-12-13 15:20:02.366,-0.888335,3.45942,9.73909,-0.461877,-0.0379489,0.142098,0
2024-12-13 15:20:02.368,-0.890728,3.47857,9.83271,-0.457601,-0.0501658,0.139044,0
2024-12-13 15:20:02.370,-0.895514,3.48335,9.94278,-0.451492,-0.0636045,0.134157,0
2024-12-13 15:20:02.373,-0.888335,3.48814,10.0624,-0.442941,-0.0782648,0.130416,0
2024-12-13 15:20:02.375,-0.88355,3.49771,10.1605,-0.435,-0.0917034,0.124307,0
2024-12-13 15:20:02.380,-0.862014,3.57667,10.3448,-0.415452,-0.129576,0.116366,0
2024-12-13 15:20:02.380,-0.862014,3.57667,10.3448,-0.415452,-0.129576,0.116366,0
2024-12-13 15:20:02.382,-0.835394,3.60539,10.4192,-0.403236,-0.147291,0.109036,0
2024-12-13 15:20:02.384,-0.813859,3.62453,10.4982,-0.391629,-0.165616,0.105982,0
2024-12-13 15:20:02.387,-0.797109,3.64606,10.57,-0.380634,-0.183941,0.101095,0
2024-12-13 15:20:02.389,-0.770788,3.66551,10.6226,-0.368417,-0.198602,0.0962084,0
2024-12-13 15:20:02.394,-0.725324,3.68943,10.7016,-0.34154,-0.227922,0.0827698,0
2024-12-13 15:20:02.394,-0.725324,3.68943,10.7016,-0.34154,-0.227922,0.0827698,0
2024-12-13 15:20:02.396,-0.694218,3.70858,10.7279,-0.330545,-0.241361,0.0754396,0
2024-12-13 15:20:02.399,-0.665504,3.73011,10.7614,-0.318939,-0.251745,0.0693312,0
2024-12-13 15:20:02.401,-0.648754,3.75643,10.7949,-0.306722,-0.262741,0.0632227,0
2024-12-13 15:20:02.403,-0.639183,3.77318,10.8093,-0.296948,-0.273736,0.0558925,0
2024-12-13 15:20:02.406,-0.634397,3.7995,10.7997,-0.286564,-0.282899,0.0485624,0
2024-12-13 15:20:02.408,-0.610469,3.83061,10.7853,-0.277401,-0.29084,0.0393996,0
2024-12-13 15:20:02.410,-0.586541,3.84975,10.783,-0.270071,-0.298781,0.0332912,0
2024-12-13 15:20:02.413,-0.591326,3.87607,10.7853,-0.265184,-0.3055,0.0247393,0
2024-12-13 15:20:02.415,-0.586541,3.9,10.7949,-0.258465,-0.306111,0.0167983,0
2024-12-13 15:20:02.417,-0.555434,3.91914,10.8117,-0.252356,-0.3055,0.010079,0
2024-12-13 15:20:02.420,-0.550648,3.9335,10.8428,-0.245637,-0.301835,0.00213797,0
2024-12-13 15:20:02.422,-0.541077,3.93589,10.8763,-0.243804,-0.296337,-0.00335966,0
2024-12-13 15:20:02.424,-0.521934,3.94547,10.9002,-0.237696,-0.286564,-0.0106898,0
2024-12-13 15:20:02.429,-0.500399,3.94307,10.9436,-0.229144,-0.271293,-0.0253502,0
2024-12-13 15:20:02.430,-0.500399,3.94307,10.9436,-0.226701,-0.257243,-0.0314586,0
2024-12-13 15:20:02.431,-0.488435,3.95264,10.9723,-0.226701,-0.257243,-0.0314586,0
2024-12-13 15:20:02.436,-0.481256,4.00289,11.0369,-0.219981,-0.234642,-0.0424539,0
2024-12-13 15:20:02.436,-0.483649,4.00289,11.0369,-0.219981,-0.234642,-0.0424539,0
2024-12-13 15:20:02.439,-0.478864,4.02443,11.0848,-0.213873,-0.221814,-0.0473407,0
2024-12-13 15:20:02.441,-0.469292,4.034,11.1446,-0.208375,-0.210819,-0.0528383,0
2024-12-13 15:20:02.443,-0.459721,4.02921,11.2068,-0.205932,-0.199213,-0.0577251,0
2024-12-13 15:20:02.446,-0.447757,4.02204,11.269,-0.200434,-0.185163,-0.0644444,0
2024-12-13 15:20:02.448,-0.426222,4.03879,11.3384,-0.192493,-0.172335,-0.0681095,0
2024-12-13 15:20:02.450,-0.404686,4.04836,11.3982,-0.185163,-0.158897,-0.0742179,0
2024-12-13 15:20:02.453,-0.404686,4.04357,11.4509,-0.172946,-0.145458,-0.0784939,0
2024-12-13 15:20:02.457,-0.409472,4.07229,11.5612,-0.158286,-0.121024,-0.0846023,0
2024-12-13 15:20:02.457,-0.409472,4.07229,11.5612,-0.158286,-0.121024,-0.0846023,0
2024-12-13 15:20:02.460,-0.426222,4.101,11.621,-0.143625,-0.110029,-0.0864349,0
2024-12-13 15:20:02.462,-0.431007,4.12971,11.6713,-0.131409,-0.0965902,-0.085824,0
2024-12-13 15:20:02.464,-0.442971,4.16321,11.7503,-0.118581,-0.085595,-0.0864349,0
2024-12-13 15:20:02.467,-0.464507,4.19193,11.8077,-0.106364,-0.0770431,-0.0864349,0
2024-12-13 15:20:02.469,-0.474078,4.22812,11.8531,-0.0886492,-0.0703238,-0.0870457,0
2024-12-13 15:20:02.472,-0.474078,4.26162,11.9082,-0.0721563,-0.0666587,-0.0876566,0
2024-12-13 15:20:02.474,-0.478864,4.29751,11.9489,-0.0550526,-0.065437,-0.0864349,0
2024-12-13 15:20:02.476,-0.476471,4.32862,11.9704,-0.0385597,-0.0703238,-0.0864349,0
2024-12-13 15:20:02.479,-0.471685,4.35254,11.98,-0.0226777,-0.0764323,-0.085824,0
2024-12-13 15:20:02.482,-0.471685,4.39322,11.9848,0.0096972,-0.0929251,-0.0876566,0
2024-12-13 15:20:02.483,-0.459721,4.42911,11.9967,0.0096972,-0.0929251,-0.0876566,0
2024-12-13 15:20:02.486,-0.4334,4.45544,12.0206,0.0280226,-0.105753,-0.0894891,0
2024-12-13 15:20:02.488,-0.409472,4.48654,12.047,0.0439046,-0.119192,-0.0925434,0
2024-12-13 15:20:02.490,-0.397508,4.51286,12.0736,0.0591758,-0.133852,-0.0962084,0
2024-12-13 15:20:02.493,-0.407079,4.54158,12.0808,0.0738362,-0.149123,-0.0986518,0
2024-12-13 15:20:02.497,-0.457328,4.63011,12.0951,0.102546,-0.186385,-0.105982,0
2024-12-13 15:20:02.500,-0.483649,4.65643,12.0927,0.114763,-0.204099,-0.107204,0
2024-12-13 15:20:02.500,-0.483649,4.65643,12.0927,0.114763,-0.204099,-0.107204,0
2024-12-13 15:20:02.502,-0.505185,4.68515,12.0736,0.12698,-0.223646,-0.11148,0
2024-12-13 15:20:02.505,-0.50997,4.7019,12.076,0.135532,-0.243804,-0.113312,0
2024-12-13 15:20:02.507,-0.529113,4.70429,12.0975,0.146527,-0.264573,-0.116366,0
2024-12-13 15:20:02.509,-0.541077,4.72582,12.1095,0.155079,-0.286564,-0.118199,0
2024-12-13 15:20:02.512,-0.533899,4.7354,12.1358,0.162409,-0.304278,-0.119421,0
2024-12-13 15:20:02.516,-0.529113,4.74018,12.1693,0.170961,-0.337264,-0.119421,0
2024-12-13 15:20:02.516,-0.524327,4.76411,12.1693,0.170961,-0.337264,-0.119421,0
2024-12-13 15:20:02.519,-0.507577,4.79312,12.1884,0.17768,-0.347648,-0.122475,0
2024-12-13 15:20:02.521,-0.483649,4.80269,12.2243,0.183178,-0.359255,-0.121253,0
2024-12-13 15:20:02.523,-0.447757,4.8003,12.2746,0.189286,-0.365363,-0.124918,0
2024-12-13 15:20:02.526,-0.423829,4.81944,12.32,0.192951,-0.372082,-0.125529,0
2024-12-13 15:20:02.528,-0.407079,4.84577,12.3488,0.200282,-0.376969,-0.127362,0
2024-12-13 15:20:02.533,-0.366401,4.89362,12.4277,0.207001,-0.382467,-0.134081,0
2024-12-13 15:20:02.533,-0.366401,4.89362,12.4277,0.207001,-0.382467,-0.134081,0
2024-12-13 15:20:02.535,-0.337687,4.89601,12.4732,0.21372,-0.386743,-0.135303,0
2024-12-13 15:20:02.537,-0.316152,4.89362,12.5163,0.217996,-0.389797,-0.1408,0
2024-12-13 15:20:02.540,-0.289831,4.87687,12.5593,0.222883,-0.394073,-0.143244,0
2024-12-13 15:20:02.542,-0.251246,4.85294,12.6338,0.22777,-0.397127,-0.149352,0
2024-12-13 15:20:02.545,-0.215354,4.83141,12.7152,0.231435,-0.403236,-0.156682,0
2024-12-13 15:20:02.547,-0.181855,4.81466,12.7822,0.231435,-0.403236,-0.156682,0
2024-12-13 15:20:02.549,-0.138784,4.79791,12.8204,0.244873,-0.408733,-0.167678,0
2024-12-13 15:20:02.552,-0.0909273,4.78834,12.8659,0.252204,-0.407511,-0.17684,0
2024-12-13 15:20:02.554,-0.0478565,4.79552,12.9186,0.258923,-0.405679,-0.185392,0
2024-12-13 15:20:02.556,-0.00478565,4.80509,12.9425,0.265031,-0.40629,-0.192722,0
2024-12-13 15:20:02.559,0.0526421,4.81227,12.9568,0.272972,-0.400181,-0.200663,0
2024-12-13 15:20:02.561,0.11007,4.82662,12.976,0.276637,-0.397738,-0.207993,0
2024-12-13 15:20:02.563,0.172283,4.83859,12.9664,0.283357,-0.39224,-0.215324,0
2024-12-13 15:20:02.568,0.285045,4.79552,12.9042,0.288854,-0.391629,-0.232427,0
2024-12-13 15:20:02.570,0.349651,4.7689,12.8516,0.287633,-0.390408,-0.242812,0
2024-12-13 15:20:02.570,0.349651,4.7689,12.8516,0.287633,-0.390408,-0.242812,0
2024-12-13 15:20:02.573,0.395115,4.74257,12.7869,0.284578,-0.387964,-0.252585,0
2024-12-13 15:20:02.578,0.488435,4.69472,12.6625,0.279692,-0.37758,-0.270911,0
2024-12-13 15:20:02.580,0.524327,4.65883,12.612,0.269307,-0.372693,-0.278852,0
2024-12-13 15:20:02.580,0.524327,4.65883,12.612,0.269307,-0.372693,-0.278852,0
2024-12-13 15:20:02.582,0.567398,4.62293,12.5737,0.261366,-0.364752,-0.288014,0
2024-12-13 15:20:02.587,0.634397,4.49611,12.5043,0.249149,-0.358033,-0.295956,0
2024-12-13 15:20:02.589,0.679861,4.44826,12.4708,0.22105,-0.340318,-0.310005,0
2024-12-13 15:20:02.589,0.679861,4.44826,12.4708,0.22105,-0.340318,-0.310005,0
2024-12-13 15:20:02.592,0.722932,4.40279,12.4469,0.200892,-0.330545,-0.316724,0
2024-12-13 15:20:02.596,0.725324,4.28076,12.4182,0.180734,-0.319549,-0.324054,0
2024-12-13 15:20:02.599,0.696611,4.23051,12.4229,0.138586,-0.289618,-0.333217,0
2024-12-13 15:20:02.601,0.665504,4.16321,12.478,0.11232,-0.26946,-0.336882,0
2024-12-13 15:20:02.601,0.665504,4.16321,12.478,0.11232,-0.26946,-0.336882,0
2024-12-13 15:20:02.606,0.56022,3.95504,12.629,0.0891073,-0.24808,-0.336882,0
2024-12-13 15:20:02.610,0.471685,3.7684,12.7726,0.014584,-0.167449,-0.331995,0
2024-12-13 15:20:02.610,0.471685,3.7684,12.7726,0.014584,-0.167449,-0.331995,0
2024-12-13 15:20:02.613,0.435793,3.69183,12.8324,-0.0110716,-0.13935,-0.327109,0
2024-12-13 15:20:02.615,0.41665,3.61256,12.9066,-0.037338,-0.109418,-0.321,0
2024-12-13 15:20:02.615,0.41665,3.61256,12.9066,-0.037338,-0.109418,-0.321,0
2024-12-13 15:20:02.618,0.392722,3.5336,13.0095,-0.065437,-0.0788757,-0.316724,0
2024-12-13 15:20:02.620,0.352044,3.45464,13.1052,-0.0886492,-0.0452791,-0.313059,0
2024-12-13 15:20:02.622,0.308973,3.38046,13.2323,-0.109418,-0.0104608,-0.306951,0
2024-12-13 15:20:02.625,0.27996,3.28953,13.3711,-0.130798,0.0286335,-0.303286,0
2024-12-13 15:20:02.627,0.251246,3.201,13.4955,-0.148512,0.0671168,-0.297788,0
2024-12-13 15:20:02.629,0.224925,3.11007,13.6176,-0.164394,0.107433,-0.29229,0
2024-12-13 15:20:02.632,0.224925,3.01406,13.7157,-0.179055,0.149581,-0.285571,0
2024-12-13 15:20:02.634,0.217747,2.93031,13.8021,-0.189439,0.189286,-0.28496,0
2024-12-13 15:20:02.636,0.189033,2.8346,13.8763,-0.196158,0.225326,-0.278241,1
2024-12-13 15:20:02.639,0.167498,2.72692,13.9122,-0.196158,0.261366,-0.274576,0
2024-12-13 15:20:02.641,0.153141,2.62403,13.9409,-0.19738,0.294963,-0.271522,0
2024-12-13 15:20:02.643,0.138784,2.52592,13.9409,-0.196158,0.323673,-0.266024,0
2024-12-13 15:20:02.646,0.122034,2.41555,13.9122,-0.189439,0.349328,-0.26297,0
2024-12-13 15:20:02.648,0.0981057,2.31745,13.8571,-0.183941,0.367654,-0.25625,0
2024-12-13 15:20:02.651,0.0741775,2.22652,13.7758,-0.173557,0.382925,-0.249531,0
2024-12-13 15:20:02.654,0.0502493,2.12842,13.6582,-0.150956,0.401861,-0.236703,0
2024-12-13 15:20:02.655,0.0358923,2.04227,13.4979,-0.150956,0.401861,-0.236703,0
2024-12-13 15:20:02.658,0.0143569,1.97049,13.3113,-0.138128,0.406137,-0.230595,0
2024-12-13 15:20:02.660,0.00239282,1.9008,13.098,-0.122857,0.409191,-0.223876,0
2024-12-13 15:20:02.662,-0.00239282,1.82901,12.8659,-0.10392,0.411635,-0.216545,0
2024-12-13 15:20:02.665,-0.0215354,1.75723,12.6168,-0.0868167,0.413467,-0.211048,0
2024-12-13 15:20:02.667,-0.0239282,1.70459,12.3488,-0.0691021,0.412856,-0.204939,0
2024-12-13 15:20:02.670,-0.0215354,1.66869,12.0736,-0.049555,0.4153,-0.199442,0
2024-12-13 15:20:02.672,-0.0287139,1.64955,11.7933,-0.0324513,0.415911,-0.192111,0
2024-12-13 15:20:02.674,-0.0526421,1.6328,11.5035,-0.0110716,0.418354,-0.186614,0
2024-12-13 15:20:02.676,-0.0741775,1.60648,11.2068,0.00908635,0.419576,-0.181116,0
2024-12-13 15:20:02.681,-0.0526421,1.57059,10.57,0.0500131,0.426906,-0.168899,0
2024-12-13 15:20:02.681,-0.0526421,1.57059,10.57,0.0500131,0.426906,-0.168899,0
2024-12-13 15:20:02.684,-0.0382852,1.56341,10.2682,0.0689494,0.431182,-0.167067,0
2024-12-13 15:20:02.686,-0.00957129,1.5682,9.96431,0.0854423,0.435458,-0.165234,0
2024-12-13 15:20:02.688,0.0167498,1.55145,9.6697,0.101324,0.436679,-0.165234,0
2024-12-13 15:20:02.691,0.026321,1.54905,9.39452,0.120261,0.434236,-0.164623,0
2024-12-13 15:20:02.693,0.0334995,1.56102,9.12623,0.137364,0.428128,-0.167067,0
2024-12-13 15:20:02.695,0.0502493,1.58255,8.85823,0.137364,0.428128,-0.167067,0
2024-12-13 15:20:02.698,0.0454636,1.60648,8.60908,0.164242,0.40858,-0.170121,0
2024-12-13 15:20:02.700,0.0334995,1.64716,8.36979,0.175848,0.391477,-0.173786,0
2024-12-13 15:20:02.702,0.0358923,1.68784,8.14008,0.190508,0.37254,-0.176229,0
2024-12-13 15:20:02.705,0.0334995,1.72612,7.92682,0.198449,0.348717,-0.179284,0
2024-12-13 15:20:02.707,0.0382852,1.75723,7.74258,0.207001,0.323673,-0.182338,0
2024-12-13 15:20:02.709,0.040678,1.77876,7.57986,0.215553,0.292519,-0.186614,0
2024-12-13 15:20:02.712,0.0454636,1.80987,7.42642,0.223494,0.25648,-0.189668,0
2024-12-13 15:20:02.714,0.0550349,1.84337,7.30918,0.228381,0.22105,-0.192111,0
2024-12-13 15:20:02.716,0.0478565,1.87448,7.2015,0.2351,0.182567,-0.193333,0
2024-12-13 15:20:02.719,0.0358923,1.90319,7.10818,0.240597,0.141029,-0.196387,0
2024-12-13 15:20:02.721,0.0215354,1.94387,7.03879,0.246095,0.0988809,-0.196387,0
2024-12-13 15:20:02.724,0.0311067,1.98485,6.97627,0.251593,0.058565,-0.194555,0
2024-12-13 15:20:02.728,0.0646062,2.06381,6.87817,0.254647,-0.0367272,-0.192722,0
2024-12-13 15:20:02.728,0.0741775,2.06381,6.87817,0.254647,-0.0367272,-0.192722,0
2024-12-13 15:20:02.731,0.081356,2.0997,6.85903,0.259534,-0.0807082,-0.187225,0
2024-12-13 15:20:02.733,0.0861416,2.13799,6.87817,0.258923,-0.1253,-0.184781,0
2024-12-13 15:20:02.735,0.0861416,2.17627,6.90688,0.26381,-0.167449,-0.178673,0
2024-12-13 15:20:02.738,0.11007,2.22652,6.92602,0.267475,-0.205932,-0.171343,0
2024-12-13 15:20:02.740,0.148355,2.26241,6.96192,0.267475,-0.245637,-0.164012,0
2024-12-13 15:20:02.742,0.193819,2.30548,7.01217,0.270529,-0.278012,-0.154239,0
2024-12-13 15:20:02.745,0.263211,2.36052,7.0675,0.272362,-0.309776,-0.145687,0
2024-12-13 15:20:02.747,0.32333,2.38923,7.12014,0.273583,-0.340929,-0.137135,0
2024-12-13 15:20:02.752,0.45015,2.45384,7.20389,0.276027,-0.389797,-0.120031,0
2024-12-13 15:20:02.752,0.45015,2.45384,7.20389,0.276027,-0.389797,-0.120031,0
2024-12-13 15:20:02.757,0.624826,2.48255,7.21107,0.275416,-0.416674,-0.100484,0
2024-12-13 15:20:02.759,0.706182,2.49691,7.17757,0.272972,-0.427059,-0.0907108,0
2024-12-13 15:20:02.759,0.706182,2.49691,7.17757,0.272972,-0.427059,-0.0907108,0
2024-12-13 15:20:02.761,0.76361,2.51127,7.13211,0.268696,-0.431335,-0.0839915,0
2024-12-13 15:20:02.764,0.80668,2.51845,7.08904,0.262588,-0.433167,-0.0766613,0
2024-12-13 15:20:02.766,0.842872,2.51127,7.06272,0.254647,-0.430724,-0.0681095,0
2024-12-13 15:20:02.768,0.885943,2.50887,7.04118,0.24243,-0.42828,-0.062001,0
2024-12-13 15:20:02.771,0.917049,2.50887,7.04357,0.228381,-0.426448,-0.0571142,0
2024-12-13 15:20:02.773,0.924228,2.48734,7.05314,0.21372,-0.423394,-0.0528383,0
2024-12-13 15:20:02.775,0.912264,2.46341,7.06272,0.197838,-0.421561,-0.0455081,0
2024-12-13 15:20:02.778,0.885943,2.44427,7.09143,0.175848,-0.416063,-0.0387888,0
2024-12-13 15:20:02.785,0.773181,2.37727,7.20628,0.113541,-0.393462,-0.0131332,0
2024-12-13 15:20:02.785,0.773181,2.37727,7.20628,0.113541,-0.393462,-0.0131332,0
2024-12-13 15:20:02.787,0.74686,2.34377,7.24457,0.0872748,-0.385521,-0.00458135,0
2024-12-13 15:20:02.790,0.718146,2.32463,7.28525,0.0652843,-0.378191,0.0064139,0
2024-12-13 15:20:02.790,0.718146,2.32463,7.28525,0.0652843,-0.378191,0.0064139,0
2024-12-13 15:20:02.792,0.682254,2.32223,7.31875,0.0396287,-0.372693,0.0186308,0
2024-12-13 15:20:02.794,0.646361,2.30548,7.35225,0.014584,-0.368417,0.0277936,0
2024-12-13 15:20:02.797,0.622433,2.30309,7.38096,-0.00984991,-0.364141,0.0387888,0
2024-12-13 15:20:02.799,0.593719,2.29352,7.39771,-0.0385597,-0.359255,0.0503949,0
2024-12-13 15:20:02.801,0.569791,2.27438,7.42164,-0.0691021,-0.353757,0.0589468,0
2024-12-13 15:20:02.804,0.572184,2.26959,7.44557,-0.0972011,-0.347648,0.0693312,0
2024-12-13 15:20:02.806,0.581755,2.25763,7.48624,-0.122857,-0.340929,0.0784939,0
2024-12-13 15:20:02.808,0.584148,2.24806,7.54846,-0.149123,-0.334821,0.0870457,0
2024-12-13 15:20:02.811,0.598505,2.23849,7.62533,-0.173557,-0.325047,0.0919325,0
2024-12-13 15:20:02.813,0.617647,2.20259,7.70668,-0.196769,-0.315274,0.098041,0
2024-12-13 15:20:02.815,0.615255,2.18106,7.79761,-0.196769,-0.315274,0.098041,0
2024-12-13 15:20:02.818,0.617647,2.16909,7.9005,-0.234642,-0.287175,0.10476,0
2024-12-13 15:20:02.820,0.629611,2.15474,7.99382,-0.249913,-0.271293,0.107815,0
2024-12-13 15:20:02.822,0.634397,2.14756,8.09193,-0.260908,-0.252967,0.109647,0
2024-12-13 15:20:02.825,0.639183,2.12363,8.18555,-0.270682,-0.235863,0.109036,0
2024-12-13 15:20:02.827,0.629611,2.09731,8.26212,-0.280455,-0.21876,0.10476,0
2024-12-13 15:20:02.832,0.608076,2.07338,8.42004,-0.282899,-0.179665,0.0992627,0
2024-12-13 15:20:02.832,0.608076,2.07338,8.42004,-0.282899,-0.179665,0.0992627,0
2024-12-13 15:20:02.834,0.591326,2.07817,8.45594,-0.281066,-0.16134,0.0962084,0
2024-12-13 15:20:02.837,0.572184,2.08295,8.4679,-0.273736,-0.143625,0.0888783,0
2024-12-13 15:20:02.839,0.565005,2.07577,8.47747,-0.265184,-0.127133,0.0833807,0
2024-12-13 15:20:02.841,0.550648,2.07338,8.46072,-0.256632,-0.116748,0.0803264,0
2024-12-13 15:20:02.844,0.519542,2.09731,8.45833,-0.24808,-0.106975,0.0742179,0
2024-12-13 15:20:02.846,0.483649,2.10209,8.44876,-0.237085,-0.100255,0.0693312,0
2024-12-13 15:20:02.848,0.454935,2.09013,8.40569,-0.226701,-0.0959794,0.0656661,0
2024-12-13 15:20:02.851,0.440578,2.10449,8.34826,-0.216316,-0.0941468,0.0583359,0
2024-12-13 15:20:02.854,0.426222,2.11884,8.27647,-0.185163,-0.0880384,0.0510057,0
2024-12-13 15:20:02.855,0.409472,2.1332,8.20469,-0.185163,-0.0880384,0.0510057,0
2024-12-13 15:20:02.858,0.3999,2.16192,8.135,-0.169892,-0.085595,0.0467298,0
2024-12-13 15:20:02.860,0.397508,2.20499,8.05125,-0.158286,-0.0843733,0.0448973,0
2024-12-13 15:20:02.863,0.404686,2.22891,7.95314,-0.14668,-0.0825407,0.041843,0
2024-12-13 15:20:02.865,0.409472,2.25763,7.84547,-0.131409,-0.0843733,0.0375671,0
2024-12-13 15:20:02.867,0.419043,2.28873,7.76172,-0.11797,-0.0862058,0.0326803,0
2024-12-13 15:20:02.870,0.440578,2.30309,7.68754,-0.105753,-0.0898709,0.0284044,0
2024-12-13 15:20:02.872,0.447757,2.32223,7.59901,-0.0953685,-0.0953685,0.025961,0
2024-12-13 15:20:02.874,0.462114,2.35813,7.51017,-0.0868167,-0.102088,0.0192417,0
2024-12-13 15:20:02.877,0.486042,2.39402,7.436,-0.0788757,-0.106975,0.0131332,0
2024-12-13 15:20:02.879,0.498006,2.42991,7.34985,-0.0721563,-0.116137,0.00763559,0
2024-12-13 15:20:02.881,0.521934,2.47777,7.26611,-0.0666587,-0.121635,0.00152712,0
2024-12-13 15:20:02.884,0.536291,2.51845,7.19193,-0.0636045,-0.1253,-0.00702474,0
2024-12-13 15:20:02.886,0.536291,2.54028,7.11057,-0.0605502,-0.128354,-0.0125224,0
2024-12-13 15:20:02.889,0.555434,2.54985,7.02682,-0.057496,-0.129576,-0.0186308,0
2024-12-13 15:20:02.893,0.574577,2.55703,6.8686,-0.0636045,-0.130798,-0.0296261,0
2024-12-13 15:20:02.893,0.574577,2.55703,6.8686,-0.0636045,-0.130798,-0.0296261,0
2024-12-13 15:20:02.896,0.586541,2.56182,6.81835,-0.0684913,-0.129576,-0.0375671,0
2024-12-13 15:20:02.900,0.60329,2.59771,6.67239,-0.0819299,-0.127743,-0.0510057,0
2024-12-13 15:20:02.900,0.60329,2.59771,6.67239,-0.0819299,-0.127743,-0.0510057,0
2024-12-13 15:20:02.903,0.584148,2.60728,6.61735,-0.093536,-0.128354,-0.0565034,0
2024-12-13 15:20:02.905,0.555434,2.62642,6.56949,-0.100866,-0.126522,-0.0613902,0
2024-12-13 15:20:02.907,0.52672,2.64556,6.52164,-0.111251,-0.121635,-0.0668878,0
2024-12-13 15:20:02.910,0.493221,2.67667,6.49292,-0.123468,-0.117359,-0.0711637,0
2024-12-13 15:20:02.912,0.462114,2.70778,6.47857,-0.138128,-0.116748,-0.0748288,0
2024-12-13 15:20:02.914,0.438186,2.71017,6.47378,-0.138128,-0.116748,-0.0748288,0
2024-12-13 15:20:02.917,0.404686,2.70778,6.48814,-0.163173,-0.108196,-0.0803264,0
2024-12-13 15:20:02.919,0.373579,2.71974,6.51925,-0.174779,-0.105753,-0.0809373,0
2024-12-13 15:20:02.921,0.373579,2.7341,6.53839,-0.185163,-0.105753,-0.0791047,0
2024-12-13 15:20:02.924,0.361615,2.75324,6.56471,-0.195547,-0.104531,-0.0809373,0
2024-12-13 15:20:02.926,0.35683,2.7676,6.60539,-0.205932,-0.105753,-0.0815481,0
2024-12-13 15:20:02.928,0.364008,2.77717,6.63649,-0.213262,-0.100866,-0.0803264,0
2024-12-13 15:20:02.933,0.371187,2.7676,6.6676,-0.230366,-0.108807,-0.0754396,0
2024-12-13 15:20:02.933,0.378365,2.77238,6.72742,-0.230366,-0.108807,-0.0754396,0
2024-12-13 15:20:02.936,0.378365,2.79153,6.78963,-0.234642,-0.110029,-0.0748288,0
2024-12-13 15:20:02.940,0.3999,2.8346,6.91167,-0.241361,-0.114305,-0.0705529,0
2024-12-13 15:20:02.940,0.3999,2.8346,6.91167,-0.241361,-0.114305,-0.0705529,0
2024-12-13 15:20:02.945,0.3999,2.89681,7.04118,-0.243194,-0.11797,-0.0674986,0
2024-12-13 15:20:02.945,0.3999,2.89681,7.04118,-0.243194,-0.11797,-0.0674986,0
2024-12-13 15:20:02.947,0.395115,2.93988,7.12254,-0.241972,-0.119802,-0.0644444,0
2024-12-13 15:20:02.950,0.385544,2.95902,7.21346,-0.238307,-0.118581,-0.062001,0
2024-12-13 15:20:02.952,0.368794,2.99492,7.28046,-0.234031,-0.115526,-0.0595576,0
2024-12-13 15:20:02.954,0.368794,3.02842,7.34268,-0.227922,-0.113694,-0.05406,0
2024-12-13 15:20:02.957,0.383151,3.04038,7.39771,-0.222425,-0.113083,-0.0503949,0
2024-12-13 15:20:02.959,0.380758,3.05713,7.44078,-0.213262,-0.112472,-0.0479515,0
2024-12-13 15:20:02.961,0.383151,3.0667,7.49582,-0.20471,-0.111861,-0.0448973,0
2024-12-13 15:20:02.964,0.383151,3.08345,7.54607,-0.197991,-0.11064,-0.041843,0
2024-12-13 15:20:02.966,0.378365,3.1005,7.57986,-0.188217,-0.111251,-0.0387888,0
2024-12-13 15:20:02.969,0.359223,3.10529,7.60379,-0.183331,-0.111861,-0.0332912,0
2024-12-13 15:20:02.971,0.328116,3.11486,7.61815,-0.172335,-0.106364,-0.0308478,0
2024-12-13 15:20:02.973,0.313759,3.13161,7.62772,-0.161951,-0.102699,-0.025961,0
2024-12-13 15:20:02.976,0.316152,3.13879,7.63729,-0.155232,-0.0978119,-0.0186308,0
2024-12-13 15:20:02.978,0.313759,3.15553,7.6349,-0.145458,-0.0929251,-0.0143549,0
2024-12-13 15:20:02.983,0.325723,3.19382,7.64686,-0.133241,-0.0880384,-0.00274881,0
2024-12-13 15:20:02.983,0.325723,3.19382,7.64686,-0.133241,-0.0880384,-0.00274881,0
2024-12-13 15:20:02.985,0.328116,3.21057,7.65404,-0.128354,-0.0868167,0.00274881,0
2024-12-13 15:20:02.987,0.335294,3.22253,7.65883,-0.123468,-0.0862058,0.00763559,0
2024-12-13 15:20:02.990,0.332901,3.24646,7.67318,-0.119192,-0.0886492,0.0137441,0
2024-12-13 15:20:02.992,0.32333,3.27278,7.6995,-0.118581,-0.0929251,0.0192417,0
2024-12-13 15:20:02.994,0.30658,3.30628,7.72822,-0.115526,-0.0990336,0.0222959,0
2024-12-13 15:20:02.997,0.294616,3.335,7.74018,-0.113083,-0.100866,0.0271827,0
2024-12-13 15:20:02.999,0.308973,3.34457,7.75215,-0.115526,-0.101477,0.0326803,0
2024-12-13 15:20:03.002,0.32333,3.37328,7.75693,-0.11064,-0.105142,0.0375671,0
2024-12-13 15:20:03.004,0.342473,3.40439,7.75693,-0.112472,-0.110029,0.0387888,0
2024-12-13 15:20:03.006,0.347258,3.41875,7.77847,-0.112472,-0.110029,0.041843,0
2024-12-13 15:20:03.009,0.359223,3.43071,7.8,-0.116137,-0.112472,0.0442864,0
2024-12-13 15:20:03.011,0.402293,3.44507,7.82632,-0.119802,-0.114916,0.0448973,0
2024-12-13 15:20:03.013,0.426222,3.47139,7.86461,-0.122857,-0.119802,0.0430647,0
2024-12-13 15:20:03.016,0.426222,3.48096,7.90289,-0.124689,-0.122246,0.0430647,0
2024-12-13 15:20:03.018,0.419043,3.49771,7.94357,-0.129576,-0.1253,0.0406213,0
2024-12-13 15:20:03.020,0.402293,3.52403,7.97229,-0.136906,-0.127743,0.0412322,0
2024-12-13 15:20:03.023,0.392722,3.54796,8.00579,-0.143015,-0.1253,0.0412322,0
2024-12-13 15:20:03.025,0.392722,3.56231,8.04168,-0.147901,-0.121024,0.041843,0
2024-12-13 15:20:03.027,0.395115,3.55992,8.05843,-0.155842,-0.117359,0.0406213,0
2024-12-13 15:20:03.032,0.380758,3.54796,8.18076,-0.174779,-0.11064,0.0406213,0
2024-12-13 15:20:03.034,0.373579,3.54078,8.28126,-0.183331,-0.106975,0.038178,0
2024-12-13 15:20:03.039,0.387936,3.49532,8.47986,-0.201045,-0.100255,0.0375671,0
2024-12-13 15:20:03.039,0.387936,3.49532,8.47986,-0.201045,-0.100255,0.0375671,0
2024-12-13 15:20:03.039,0.387936,3.49532,8.47986,-0.201045,-0.100255,0.0375671,0
2024-12-13 15:20:03.042,0.380758,3.46899,8.57797,-0.206543,-0.0947577,0.0369563,0
2024-12-13 15:20:03.044,0.368794,3.45464,8.68804,-0.213873,-0.0868167,0.0320695,0
2024-12-13 15:20:03.046,0.371187,3.46421,8.79841,-0.222425,-0.0825407,0.0302369,0
2024-12-13 15:20:03.049,0.375972,3.46899,8.90609,-0.227922,-0.0745997,0.0290152,0
2024-12-13 15:20:03.051,0.378365,3.48574,9.01376,-0.234031,-0.0660479,0.0296261,0
2024-12-13 15:20:03.053,0.392722,3.49532,9.11905,-0.237085,-0.057496,0.0265719,0
2024-12-13 15:20:03.056,0.392722,3.48814,9.21476,-0.242583,-0.0477224,0.0241285,0
2024-12-13 15:20:03.058,0.397508,3.49532,9.31316,-0.245637,-0.0428357,0.0235176,0
2024-12-13 15:20:03.060,0.431007,3.51924,9.39931,-0.249913,-0.0348946,0.0204634,0
2024-12-13 15:20:03.063,0.4669,3.52403,9.47348,-0.251745,-0.0287862,0.0155766,0
2024-12-13 15:20:03.065,0.493221,3.54078,9.57877,-0.254189,-0.0232886,0.00885729,0
2024-12-13 15:20:03.067,0.50997,3.55992,9.69602,-0.256632,-0.0196235,0.00335966,0
2024-12-13 15:20:03.070,0.517149,3.56231,9.79652,-0.255411,-0.0141258,-0.00335966,0
2024-12-13 15:20:03.072,0.488435,3.56949,9.89253,-0.251135,-0.00984991,-0.0106898,0
2024-12-13 15:20:03.075,0.464507,3.55992,10.0098,-0.249913,-0.00374144,-0.0149658,0
2024-12-13 15:20:03.077,0.440578,3.54796,10.1198,-0.246248,0.00358873,-0.0210742,0
2024-12-13 15:20:03.079,0.41665,3.55274,10.2108,-0.236474,0.0121406,-0.0265719,0
2024-12-13 15:20:03.082,0.402293,3.53599,10.2658,-0.229755,0.0213033,-0.0320695,0
2024-12-13 15:20:03.086,0.383151,3.50967,10.4192,-0.207154,0.0432938,-0.0412322,0
2024-12-13 15:20:03.086,0.390329,3.50967,10.4192,-0.207154,0.0432938,-0.0412322,0
2024-12-13 15:20:03.089,0.397508,3.49532,10.4743,-0.198602,0.0512348,-0.0473407,0
2024-12-13 15:20:03.093,0.375972,3.49771,10.5604,-0.172335,0.0707819,-0.0571142,0
2024-12-13 15:20:03.093,0.375972,3.49771,10.5604,-0.172335,0.0707819,-0.0571142,0
2024-12-13 15:20:03.096,0.364008,3.50967,10.5891,-0.162562,0.0805555,-0.0601685,0
2024-12-13 15:20:03.098,0.352044,3.54556,10.6131,-0.149123,0.090329,-0.0662769,0
2024-12-13 15:20:03.100,0.32333,3.58385,10.6298,-0.13935,0.0988809,-0.0687203,0
2024-12-13 15:20:03.105,0.282652,3.66311,10.6322,-0.127133,0.109265,-0.0723854,0
2024-12-13 15:20:03.107,0.289831,3.71336,10.6274,-0.11064,0.122704,-0.0797156,0
2024-12-13 15:20:03.107,0.289831,3.71336,10.6274,-0.11064,0.122704,-0.0797156,0
2024-12-13 15:20:03.110,0.30658,3.766,10.6131,-0.10392,0.129423,-0.0833807,0
2024-12-13 15:20:03.112,0.301795,3.81386,10.6083,-0.0978119,0.133699,-0.0870457,0
2024-12-13 15:20:03.115,0.292223,3.8665,10.6059,-0.0947577,0.135532,-0.0913217,0
2024-12-13 15:20:03.117,0.308973,3.91436,10.5915,-0.0874275,0.137975,-0.0937651,0
2024-12-13 15:20:03.119,0.32333,3.967,10.5652,-0.0862058,0.135532,-0.0974301,0
2024-12-13 15:20:03.122,0.328116,4.01964,10.5461,-0.0849841,0.136143,-0.101706,0
2024-12-13 15:20:03.124,0.320937,4.05554,10.5509,-0.0837624,0.129423,-0.106593,0
2024-12-13 15:20:03.126,0.32333,4.09621,10.5628,-0.0868167,0.11965,-0.11148,0
2024-12-13 15:20:03.129,0.337687,4.14646,10.5724,-0.0910926,0.108044,-0.115145,0
2024-12-13 15:20:03.131,0.335294,4.18235,10.6059,-0.0947577,0.0982701,-0.11881,0
2024-12-13 15:20:03.133,0.308973,4.21376,10.6514,-0.0978119,0.0854423,-0.123697,0
2024-12-13 15:20:03.136,0.27996,4.25205,10.692,-0.10331,0.0738362,-0.126751,0
2024-12-13 15:20:03.138,0.267996,4.29512,10.7375,-0.108196,0.0622301,-0.127972,0
2024-12-13 15:20:03.140,0.256032,4.32144,10.8093,-0.110029,0.0530674,-0.132248,0
2024-12-13 15:20:03.143,0.244068,4.33579,10.9002,-0.113083,0.0445155,-0.135914,0
2024-12-13 15:20:03.145,0.229711,4.35972,10.9914,-0.116748,0.0377962,-0.135303,0
2024-12-13 15:20:03.148,0.232104,4.38126,11.0871,-0.117359,0.030466,-0.135303,0
2024-12-13 15:20:03.150,0.222533,4.38844,11.1829,-0.119192,0.0261901,-0.135914,0
2024-12-13 15:20:03.155,0.215354,4.39083,11.281,-0.120413,0.0274118,-0.130416,0
2024-12-13 15:20:03.155,0.222533,4.42194,11.3791,-0.120413,0.0274118,-0.130416,0
2024-12-13 15:20:03.157,0.232104,4.44347,11.4939,-0.117359,0.0298552,-0.12614,0
2024-12-13 15:20:03.159,0.248854,4.44347,11.6402,-0.113694,0.0310769,-0.125529,0
2024-12-13 15:20:03.162,0.267996,4.46501,11.7838,-0.113694,0.0310769,-0.125529,0
2024-12-13 15:20:03.164,0.260818,4.50329,11.8962,-0.102699,0.0439046,-0.11881,0
2024-12-13 15:20:03.166,0.244068,4.5344,11.9967,-0.0953685,0.0512348,-0.116977,0
2024-12-13 15:20:03.169,0.229711,4.55833,12.1095,-0.0849841,0.0597867,-0.113312,0
2024-12-13 15:20:03.171,0.200997,4.5679,12.2267,-0.077654,0.0634518,-0.107204,0
2024-12-13 15:20:03.173,0.162712,4.57508,12.3344,-0.065437,0.0671168,-0.103539,0
2024-12-13 15:20:03.176,0.12682,4.55115,12.4277,-0.0532201,0.0701711,-0.0998735,0
2024-12-13 15:20:03.181,0.0693919,4.54636,12.6144,-0.037338,0.0689494,-0.0962084,0
2024-12-13 15:20:03.183,0.081356,4.58226,12.7295,-0.00618483,0.0622301,-0.085824,0
2024-12-13 15:20:03.185,0.105284,4.60618,12.8181,0.010308,0.0573433,-0.0815481,0
2024-12-13 15:20:03.189,0.124427,4.61815,12.9066,0.0481806,0.0457372,-0.069942,0
2024-12-13 15:20:03.190,0.167498,4.63968,12.9855,0.0481806,0.0457372,-0.069942,0
2024-12-13 15:20:03.190,0.167498,4.63968,12.9855,0.0481806,0.0457372,-0.069942,0
2024-12-13 15:20:03.192,0.229711,4.6684,13.031,0.0689494,0.0390179,-0.0656661,0
2024-12-13 15:20:03.195,0.277567,4.6995,13.0693,0.0939941,0.0347419,-0.0613902,0
2024-12-13 15:20:03.197,0.301795,4.74975,13.0645,0.11293,0.0335202,-0.05406,0
2024-12-13 15:20:03.199,0.330509,4.79312,13.0358,0.133699,0.0359636,-0.0473407,0
2024-12-13 15:20:03.202,0.35683,4.82902,13.019,0.152635,0.0365745,-0.0430647,0
2024-12-13 15:20:03.204,0.361615,4.87687,13.0095,0.172183,0.0402396,-0.0375671,0
2024-12-13 15:20:03.207,0.364008,4.91994,12.9832,0.190508,0.0408504,-0.0308478,0
2024-12-13 15:20:03.209,0.344866,4.93909,12.9425,0.205168,0.0445155,-0.0186308,0
2024-12-13 15:20:03.211,0.328116,4.97258,12.8874,0.221661,0.0475697,-0.00824644,0
2024-12-13 15:20:03.213,0.32333,5.01566,12.8061,0.233878,0.0555107,0.000916271,0
2024-12-13 15:20:03.216,0.316152,5.05394,12.7319,0.240597,0.0628409,0.0113007,0
2024-12-13 15:20:03.218,0.299402,5.1018,12.6553,0.247928,0.0689494,0.0229068,0
2024-12-13 15:20:03.221,0.308973,5.15683,12.5785,0.249149,0.0756687,0.0326803,0
2024-12-13 15:20:03.223,0.34008,5.21426,12.4995,0.252814,0.0842206,0.0436756,0
2024-12-13 15:20:03.225,0.35683,5.28365,12.4229,0.249149,0.0933833,0.0546708,0
2024-12-13 15:20:03.228,0.378365,5.35574,12.3703,0.243041,0.102546,0.0632227,0
2024-12-13 15:20:03.230,0.404686,5.4347,12.332,0.234489,0.113541,0.0717745,0
2024-12-13 15:20:03.232,0.41665,5.51366,12.2913,0.223494,0.125758,0.0760505,0
2024-12-13 15:20:03.235,0.423829,5.5687,12.2554,0.209444,0.139808,0.0809373,0
2024-12-13 15:20:03.237,0.431007,5.62612,12.2315,0.194173,0.149581,0.0852132,0
2024-12-13 15:20:03.239,0.440578,5.65484,12.2195,0.17768,0.161798,0.0876566,0
2024-12-13 15:20:03.242,0.440578,5.65723,12.2363,0.156301,0.17035,0.0870457,0
2024-12-13 15:20:03.244,0.440578,5.64766,12.2554,0.13431,0.177069,0.0839915,0
2024-12-13 15:20:03.246,0.440578,5.6022,12.2913,0.111709,0.178902,0.0815481,0
2024-12-13 15:20:03.251,0.452543,5.39402,12.4684,0.0610084,0.172183,0.0748288,0
2024-12-13 15:20:03.251,0.452543,5.39402,12.4684,0.0610084,0.172183,0.0748288,0
2024-12-13 15:20:03.254,0.438186,5.2669,12.6096,0.0347419,0.163631,0.0705529,0
2024-12-13 15:20:03.256,0.411865,5.1353,12.7798,0.00725381,0.149581,0.0674986,0
2024-12-13 15:20:03.258,0.383151,4.97498,12.964,-0.0208452,0.130645,0.0638335,0
2024-12-13 15:20:03.261,0.354437,4.81466,13.1626,-0.0483333,0.108654,0.0607793,0
2024-12-13 15:20:03.263,0.313759,4.66361,13.3902,-0.0745997,0.0829989,0.0558925,0
2024-12-13 15:20:03.265,0.239282,4.51286,13.6391,-0.0996445,0.0512348,0.0546708,0
2024-12-13 15:20:03.268,0.167498,4.37408,13.9026,-0.126522,0.0182491,0.0546708,0
2024-12-13 15:20:03.270,0.150748,4.2329,14.1706,-0.154621,-0.0159584,0.05406,0
2024-12-13 15:20:03.272,0.153141,4.10578,14.47,-0.178444,-0.0519984,0.0565034,0
2024-12-13 15:20:03.275,0.133998,4.01486,14.7523,-0.201045,-0.0862058,0.0577251,0
2024-12-13 15:20:03.277,0.114855,3.9335,15.0398,-0.21876,-0.114916,0.0583359,0
2024-12-13 15:20:03.279,0.145962,3.82582,15.3604,-0.230977,-0.138739,0.0607793,0
2024-12-13 15:20:03.282,0.155533,3.70618,15.6742,-0.238307,-0.154621,0.0638335,0
2024-12-13 15:20:03.284,0.143569,3.57906,15.9876,-0.243194,-0.163173,0.0693312,0
2024-12-13 15:20:03.287,0.181855,3.45703,16.2751,-0.24075,-0.16134,0.0748288,0
2024-12-13 15:20:03.289,0.22014,3.33978,16.5263,-0.234031,-0.154621,0.082159,0
2024-12-13 15:20:03.294,0.320937,3.02363,17.0076,-0.199823,-0.118581,0.0943759,0
2024-12-13 15:20:03.294,0.320937,3.02363,17.0076,-0.199823,-0.118581,0.0943759,0
2024-12-13 15:20:03.296,0.387936,2.85135,17.1969,-0.171114,-0.0868167,0.101706,0
2024-12-13 15:20:03.298,0.447757,2.67906,17.3309,-0.138739,-0.0458899,0.110258,0
2024-12-13 15:20:03.301,0.553041,2.51366,17.4075,-0.0996445,-0.000687203,0.119421,0
2024-12-13 15:20:03.303,0.687039,2.35095,17.3692,-0.0611611,0.0408504,0.125529,1
2024-12-13 15:20:03.308,0.440578,2.15713,17.4721,0.0310769,0.144084,0.146374,0
2024-12-13 15:20:03.308,0.440578,2.15713,17.4721,0.0310769,0.144084,0.146374,0
2024-12-13 15:20:03.310,0.212961,2.24327,17.3261,0.0848314,0.209444,0.164089,0
2024-12-13 15:20:03.312,-0.0765703,2.32702,17.0339,0.133699,0.2858,0.197685,0
2024-12-13 15:20:03.315,0.00717847,2.1332,16.9143,0.180734,0.35055,0.233115,0
2024-12-13 15:20:03.317,0.297009,1.85055,16.876,0.230824,0.395142,0.259992,0
2024-12-13 15:20:03.322,0.818644,1.27358,16.3708,0.331003,0.469665,0.296643,0
2024-12-13 15:20:03.322,0.818644,1.27358,16.3708,0.331003,0.469665,0.296643,0
2024-12-13 15:20:03.324,1.05583,1.06301,16.0789,0.380558,0.506316,0.302751,0
2024-12-13 15:20:03.327,1.24726,0.876371,15.7627,0.433702,0.544799,0.303362,0
2024-12-13 15:20:03.329,1.32622,0.768395,15.4035,0.485013,0.582672,0.300308,0
2024-12-13 15:20:03.331,1.24726,0.782752,15.0278,0.534491,0.62482,0.296032,0
2024-12-13 15:20:03.334,1.05823,0.873978,14.6519,0.580305,0.66758,0.289923,0
2024-12-13 15:20:03.336,0.835394,1.01515,14.2687,0.624286,0.706139,0.285037,0
2024-12-13 15:20:03.338,0.63679,1.17787,13.8811,0.668267,0.739125,0.286258,0
2024-12-13 15:20:03.341,0.474078,1.34058,13.4692,0.711026,0.764781,0.291145,0
2024-12-13 15:20:03.343,0.344866,1.47009,13.0693,0.748899,0.786771,0.293588,0
2024-12-13 15:20:03.345,0.248854,1.53948,12.6793,0.784939,0.805097,0.301529,0
2024-12-13 15:20:03.348,0.191426,1.58495,12.2746,0.819146,0.818535,0.306416,0
2024-12-13 15:20:03.350,0.143569,1.61845,11.8508,0.851521,0.832585,0.314357,0
2024-12-13 15:20:03.352,0.0909273,1.63041,11.4006,0.881453,0.84358,0.320466,0
2024-12-13 15:20:03.355,0.0382852,1.62084,10.9385,0.908941,0.854575,0.326574,0
2024-12-13 15:20:03.360,-0.0574277,1.63759,9.99781,0.93032,0.863127,0.328407,0
2024-12-13 15:20:03.362,-0.12682,1.6663,9.5357,0.96636,0.883285,0.326574,0
2024-12-13 15:20:03.362,-0.12682,1.6663,9.5357,0.96636,0.883285,0.326574,0
2024-12-13 15:20:03.364,-0.208176,1.68305,9.09033,0.976134,0.892448,0.324131,0
2024-12-13 15:20:03.367,-0.318545,1.69502,8.66411,0.982242,0.900389,0.324742,0
2024-12-13 15:20:03.369,-0.407079,1.72134,8.26212,0.984686,0.904054,0.321687,0
2024-12-13 15:20:03.371,-0.502792,1.75484,7.90768,0.985297,0.902221,0.320466,0
2024-12-13 15:20:03.374,-0.612862,1.79551,7.57478,0.981021,0.897945,0.319855,0
2024-12-13 15:20:03.376,-0.701396,1.84098,7.25653,0.970636,0.884507,0.319244,0
2024-12-13 15:20:03.378,-0.768395,1.87687,6.9667,0.958419,0.869236,0.318633,0
2024-12-13 15:20:03.381,-0.828216,1.90798,6.70349,0.940094,0.852743,0.318633,0
2024-12-13 15:20:03.383,-0.885943,1.94626,6.46421,0.924212,0.831974,0.318633,0
2024-12-13 15:20:03.385,-0.938585,1.97528,6.25813,0.901611,0.808151,0.317412,0
2024-12-13 15:20:03.388,-1.0008,2.0016,6.09542,0.876566,0.781884,0.314357,0
2024-12-13 15:20:03.390,-1.04626,2.02552,5.96381,0.853354,0.754396,0.313746,0
2024-12-13 15:20:03.393,-1.10369,2.04227,5.87019,0.824033,0.722021,0.309471,0
2024-12-13 15:20:03.395,-1.18026,2.07099,5.80798,0.824033,0.722021,0.309471,0
2024-12-13 15:20:03.397,-1.22572,2.10927,5.77926,0.767224,0.655974,0.300919,0
2024-12-13 15:20:03.400,-1.25683,2.13081,5.78644,0.739736,0.621766,0.299697,0
2024-12-13 15:20:03.402,-1.27837,2.14517,5.81516,0.712859,0.58878,0.293588,0
2024-12-13 15:20:03.404,-1.28076,2.17388,5.85823,0.687814,0.555184,0.285647,0
2024-12-13 15:20:03.407,-1.25922,2.20977,5.91356,0.665213,0.521587,0.28015,0
2024-12-13 15:20:03.411,-1.22094,2.29113,6.06431,0.622453,0.458059,0.259992,0
2024-12-13 15:20:03.411,-1.22094,2.29113,6.06431,0.622453,0.458059,0.259992,0
2024-12-13 15:20:03.414,-1.21137,2.35334,6.1337,0.601685,0.425684,0.247164,0
2024-12-13 15:20:03.416,-1.20658,2.39402,6.21267,0.580305,0.392698,0.234336,0
2024-12-13 15:20:03.418,-1.18505,2.41555,6.32034,0.560758,0.363378,0.220898,0
2024-12-13 15:20:03.421,-1.14197,2.44427,6.43041,0.541822,0.335279,0.205016,0
2024-12-13 15:20:03.425,-1.09412,2.48255,6.61974,0.511279,0.280913,0.177527,0
2024-12-13 15:20:03.425,-1.09412,2.48255,6.61974,0.511279,0.280913,0.177527,0
2024-12-13 15:20:03.428,-1.0678,2.47059,6.70828,0.493565,0.258312,0.162256,0
2024-12-13 15:20:03.430,-1.05583,2.44666,6.77049,0.479515,0.238765,0.146374,0
2024-12-13 15:20:03.433,-1.05823,2.42752,6.82792,0.464855,0.216164,0.132859,0
2024-12-13 15:20:03.435,-1.06062,2.38923,6.86381,0.450805,0.197838,0.122475,0
2024-12-13 15:20:03.437,-1.06062,2.34377,6.89013,0.437367,0.178291,0.112701,0
2024-12-13 15:20:03.440,-1.06062,2.33181,6.91885,0.42515,0.159355,0.104149,0
2024-12-13 15:20:03.444,-1.07019,2.29113,6.99302,0.410489,0.141029,0.0998735,0
2024-12-13 15:20:03.444,-1.07019,2.29113,6.99302,0.410489,0.141029,0.0998735,0
2024-12-13 15:20:03.447,-1.07498,2.2672,7.02922,0.384223,0.111709,0.0919325,0
2024-12-13 15:20:03.449,-1.05105,2.26002,7.06032,0.370784,0.0976592,0.0888783,0
2024-12-13 15:20:03.454,-1.01037,2.23131,7.13929,0.347496,0.0750579,0.0839915,0
2024-12-13 15:20:03.456,-0.979263,2.22891,7.17757,0.337111,0.0683385,0.0827698,0
2024-12-13 15:20:03.456,-0.979263,2.22891,7.17757,0.337111,0.0683385,0.0827698,0
2024-12-13 15:20:03.458,-0.955334,2.22652,7.22064,0.326116,0.0610084,0.0809373,0
2024-12-13 15:20:03.461,-0.955334,2.22174,7.28286,0.316343,0.0579541,0.0784939,0
2024-12-13 15:20:03.463,-0.952942,2.20499,7.34985,0.309012,0.0542891,0.0772722,0
2024-12-13 15:20:03.466,-0.952942,2.2002,7.39771,0.298017,0.0524565,0.0748288,0
2024-12-13 15:20:03.468,-0.955334,2.22413,7.44078,0.290687,0.0500131,0.0729962,0
2024-12-13 15:20:03.470,-0.945763,2.22174,7.46949,0.283968,0.0494023,0.0693312,0
2024-12-13 15:20:03.473,-0.924228,2.2002,7.47428,0.279081,0.050624,0.0650552,0
2024-12-13 15:20:03.475,-0.890728,2.18345,7.47667,0.27114,0.0518457,0.0644444,0
2024-12-13 15:20:03.477,-0.869193,2.16431,7.48864,0.263199,0.0542891,0.062001,0
2024-12-13 15:20:03.480,-0.864407,2.15234,7.49821,0.25709,0.0579541,0.0589468,0
2024-12-13 15:20:03.482,-0.85005,2.14277,7.51735,0.252814,0.0597867,0.0565034,0
2024-12-13 15:20:03.484,-0.837787,2.12363,7.52453,0.24243,0.0634518,0.05406,0
2024-12-13 15:20:03.487,-0.84018,2.13559,7.52214,0.235711,0.0634518,0.0516166,0
2024-12-13 15:20:03.489,-0.825823,2.16192,7.53171,0.230213,0.0634518,0.0485624,0
2024-12-13 15:20:03.491,-0.813859,2.15234,7.53171,0.222883,0.0616192,0.0455081,0
2024-12-13 15:20:03.494,-0.801895,2.15713,7.52214,0.216164,0.0616192,0.0436756,0
2024-12-13 15:20:03.496,-0.756431,2.17866,7.51735,0.211277,0.0610084,0.0406213,0
2024-12-13 15:20:03.499,-0.708575,2.19063,7.50539,0.204557,0.0634518,0.0375671,0
2024-12-13 15:20:03.501,-0.684646,2.20259,7.48864,0.198449,0.0677277,0.0351237,0
2024-12-13 15:20:03.503,-0.658325,2.21934,7.4671,0.198449,0.0677277,0.0351237,0
2024-12-13 15:20:03.506,-0.62004,2.24327,7.42882,0.187454,0.0787229,0.0284044,0
2024-12-13 15:20:03.508,-0.586541,2.25763,7.38096,0.181956,0.0860531,0.0222959,0
2024-12-13 15:20:03.510,-0.569791,2.27438,7.34746,0.177069,0.0921616,0.01802,0
2024-12-13 15:20:03.513,-0.562612,2.28156,7.29003,0.174626,0.100103,0.0143549,0
2024-12-13 15:20:03.516,-0.565005,2.28156,7.22543,0.166074,0.114763,0.00702474,0
2024-12-13 15:20:03.517,-0.569791,2.28156,7.15604,0.166074,0.114763,0.00702474,0
2024-12-13 15:20:03.520,-0.588933,2.29113,7.0675,0.161798,0.120261,0.00397051,0
2024-12-13 15:20:03.522,-0.612862,2.29831,6.99302,0.161798,0.120261,0.00397051,0
2024-12-13 15:20:03.524,-0.641576,2.28634,6.92363,0.147749,0.131867,0.00152712,0
2024-12-13 15:20:03.527,-0.670289,2.28395,6.83988,0.142862,0.136753,0.000305424,0
2024-12-13 15:20:03.529,-0.689432,2.27916,6.76092,0.137364,0.139197,0.00213797,0
2024-12-13 15:20:03.534,-0.744467,2.27199,6.66281,0.121482,0.145916,0.00580305,0
2024-12-13 15:20:03.536,-0.766002,2.29113,6.61017,0.114763,0.14836,0.00946813,0
2024-12-13 15:20:03.536,-0.766002,2.29113,6.61017,0.114763,0.14836,0.00946813,0
2024-12-13 15:20:03.539,-0.773181,2.31506,6.5671,0.108044,0.151414,0.0131332,0
2024-12-13 15:20:03.541,-0.775574,2.33181,6.5336,0.103157,0.151414,0.0167983,0
2024-12-13 15:20:03.543,-0.770788,2.33181,6.50728,0.0970484,0.153246,0.0198525,0
2024-12-13 15:20:03.546,-0.758824,2.34616,6.46421,0.0921616,0.152635,0.0216851,0
2024-12-13 15:20:03.548,-0.742074,2.36531,6.41845,0.0878856,0.153857,0.0222959,0
2024-12-13 15:20:03.550,-0.737288,2.35813,6.38256,0.0811663,0.154468,0.0253502,0
2024-12-13 15:20:03.553,-0.734896,2.34856,6.35863,0.0781121,0.153857,0.025961,0
2024-12-13 15:20:03.557,-0.744467,2.3342,6.3682,0.0720036,0.151414,0.0314586,0
2024-12-13 15:20:03.557,-0.744467,2.3342,6.3682,0.0720036,0.151414,0.0314586,0
2024-12-13 15:20:03.560,-0.770788,2.34856,6.36341,0.0683385,0.14897,0.0369563,0
2024-12-13 15:20:03.562,-0.804287,2.36291,6.37538,0.0658951,0.14836,0.0412322,0
2024-12-13 15:20:03.564,-0.830609,2.37488,6.38495,0.0658951,0.142251,0.0455081,0
2024-12-13 15:20:03.567,-0.857229,2.38923,6.39691,0.0628409,0.139197,0.0491732,0
2024-12-13 15:20:03.569,-0.876371,2.3988,6.40888,0.0591758,0.132477,0.0558925,0
2024-12-13 15:20:03.572,-0.878764,2.42513,6.41845,0.0603975,0.130034,0.062001,0
2024-12-13 15:20:03.574,-0.888335,2.44666,6.41127,0.0579541,0.123926,0.0687203,0
2024-12-13 15:20:03.576,-0.902692,2.45623,6.39452,0.0591758,0.120261,0.0772722,0
2024-12-13 15:20:03.579,-0.890728,2.47059,6.38734,0.058565,0.116595,0.082159,0
2024-12-13 15:20:03.581,-0.8668,2.5017,6.38256,0.058565,0.11232,0.0888783,0
2024-12-13 15:20:03.583,-0.85005,2.53549,6.36581,0.058565,0.109265,0.0937651,0
2024-12-13 15:20:03.586,-0.830609,2.54267,6.36581,0.0567324,0.106211,0.098041,0
2024-12-13 15:20:03.588,-0.82343,2.55224,6.35145,0.0561216,0.103157,0.100484,0
2024-12-13 15:20:03.590,-0.818644,2.57139,6.33231,0.0530674,0.0976592,0.102317,0
2024-12-13 15:20:03.593,-0.804287,2.59053,6.32991,0.0536782,0.0927724,0.102928,0
2024-12-13 15:20:03.597,-0.777966,2.60967,6.27727,0.0451263,0.0781121,0.104149,0
2024-12-13 15:20:03.597,-0.777966,2.60967,6.27727,0.0451263,0.0781121,0.104149,0
2024-12-13 15:20:03.600,-0.787538,2.63121,6.24138,0.042683,0.0707819,0.103539,0
2024-12-13 15:20:03.602,-0.811466,2.65753,6.22941,0.0353528,0.0610084,0.101095,0
2024-12-13 15:20:03.604,-0.833001,2.67667,6.20549,0.0286335,0.0548999,0.0998735,0
2024-12-13 15:20:03.607,-0.862014,2.69821,6.1672,0.022525,0.0439046,0.101095,0
2024-12-13 15:20:03.609,-0.876371,2.71017,6.14567,0.014584,0.0347419,0.101095,0
2024-12-13 15:20:03.612,-0.88355,2.72213,6.14088,0.00847551,0.0261901,0.100484,0
2024-12-13 15:20:03.616,-0.88355,2.73171,6.13131,-0.00740652,0.0096972,0.103539,0
2024-12-13 15:20:03.616,-0.88355,2.76042,6.10499,-0.00740652,0.0096972,0.103539,0
2024-12-13 15:20:03.619,-0.878764,2.79392,6.09781,-0.0159584,0.00114534,0.102928,0
2024-12-13 15:20:03.621,-0.869193,2.82024,6.07867,-0.0159584,0.00114534,0.102928,0
2024-12-13 15:20:03.623,-0.859622,2.87288,6.04756,-0.0324513,-0.0141258,0.103539,0
2024-12-13 15:20:03.626,-0.84018,2.92552,6.02842,-0.0410031,-0.0184018,0.103539,0
2024-12-13 15:20:03.628,-0.811466,2.96381,6.02602,-0.0513875,-0.0220669,0.100484,0
2024-12-13 15:20:03.633,-0.754038,3.0667,6.02124,-0.0648262,-0.0263428,0.0992627,0
2024-12-13 15:20:03.635,-0.727717,3.10768,6.01645,-0.0886492,-0.0355055,0.0949868,0
2024-12-13 15:20:03.635,-0.727717,3.10768,6.01645,-0.0886492,-0.0355055,0.0949868,0
2024-12-13 15:20:03.637,-0.703789,3.14118,6.02602,-0.0996445,-0.0452791,0.0931542,0
2024-12-13 15:20:03.640,-0.677468,3.14118,6.05474,-0.114305,-0.0556635,0.0888783,0
2024-12-13 15:20:03.642,-0.660718,3.14836,6.08824,-0.129576,-0.0672696,0.0827698,0
2024-12-13 15:20:03.645,-0.655932,3.17946,6.11456,-0.144236,-0.0788757,0.0803264,0
2024-12-13 15:20:03.647,-0.660718,3.19861,6.16002,-0.157675,-0.0917034,0.0736071,0
2024-12-13 15:20:03.652,-0.675075,3.21536,6.27488,-0.188217,-0.117359,0.0632227,0
2024-12-13 15:20:03.652,-0.694218,3.24168,6.27488,-0.188217,-0.117359,0.0632227,0
2024-12-13 15:20:03.654,-0.710967,3.25364,6.32752,-0.201656,-0.129576,0.0589468,0
2024-12-13 15:20:03.656,-0.708575,3.27518,6.38734,-0.216927,-0.142404,0.05406,0
2024-12-13 15:20:03.661,-0.694218,3.32543,6.51925,-0.245637,-0.168059,0.046119,0
2024-12-13 15:20:03.661,-0.677468,3.32543,6.51925,-0.245637,-0.168059,0.046119,0
2024-12-13 15:20:03.664,-0.65354,3.3015,6.58624,-0.259076,-0.188217,0.041843,0
2024-12-13 15:20:03.666,-0.761217,3.2656,6.78485,-0.273125,-0.230366,0.046119,0
2024-12-13 15:20:03.668,-0.876371,3.29671,6.9667,-0.279234,-0.270071,0.0516166,0
2024-12-13 15:20:03.670,-0.816252,3.33978,6.93799,-0.289618,-0.285342,0.0485624,0
2024-12-13 15:20:03.673,-0.732503,3.36371,6.90449,-0.310998,-0.292672,0.0406213,0
2024-12-13 15:20:03.675,-0.677468,3.44507,7.00499,-0.333599,-0.298781,0.0290152,0
2024-12-13 15:20:03.678,-0.665504,3.54556,7.17996,-0.353757,-0.29817,0.0161875,0
2024-12-13 15:20:03.680,-0.641576,3.61017,7.37378,-0.368417,-0.287175,0.00152712,0
2024-12-13 15:20:03.682,-0.605683,3.65593,7.57747,-0.375137,-0.268849,-0.010079,0
2024-12-13 15:20:03.685,-0.581755,3.68226,7.78086,-0.380634,-0.256632,-0.0204634,0
2024-12-13 15:20:03.687,-0.567398,3.69183,7.93879,-0.375747,-0.248691,-0.0265719,0
2024-12-13 15:20:03.689,-0.536291,3.68704,8.02971,-0.372693,-0.245026,-0.0332912,0
2024-12-13 15:20:03.692,-0.502792,3.68704,8.09911,-0.372082,-0.243804,-0.0412322,0
2024-12-13 15:20:03.694,-0.502792,3.68704,8.17837,-0.371471,-0.244415,-0.0516166,0
2024-12-13 15:20:03.696,-0.529113,3.69183,8.2669,-0.367196,-0.246248,-0.0577251,0
2024-12-13 15:20:03.699,-0.581755,3.70858,8.35544,-0.364752,-0.245637,-0.0662769,0
2024-12-13 15:20:03.701,-0.629611,3.72533,8.43201,-0.361698,-0.248691,-0.0729962,0
2024-12-13 15:20:03.703,-0.663111,3.72772,8.47269,-0.357422,-0.245637,-0.0791047,0
2024-12-13 15:20:03.706,-0.679861,3.72772,8.51336,-0.353146,-0.238918,-0.0839915,0
2024-12-13 15:20:03.708,-0.699003,3.72533,8.55883,-0.34887,-0.231587,-0.0870457,0
2024-12-13 15:20:03.710,-0.71336,3.72772,8.59711,-0.342762,-0.220592,-0.0894891,0
2024-12-13 15:20:03.713,-0.720539,3.75165,8.65215,-0.336653,-0.206543,-0.0919325,0
2024-12-13 15:20:03.715,-0.732503,3.77079,8.71705,-0.331156,-0.197991,-0.0949868,0
2024-12-13 15:20:03.718,-0.749253,3.78993,8.76491,-0.32749,-0.190661,-0.0968193,0
2024-12-13 15:20:03.720,-0.768395,3.80668,8.78884,-0.323215,-0.181498,-0.0968193,0
2024-12-13 15:20:03.722,-0.777966,3.82104,8.83191,-0.318939,-0.178444,-0.0962084,0
2024-12-13 15:20:03.729,-0.780359,3.88804,8.92044,-0.314052,-0.172335,-0.0949868,0
2024-12-13 15:20:03.729,-0.777966,3.88804,8.92044,-0.314052,-0.172335,-0.0949868,0
2024-12-13 15:20:03.732,-0.770788,3.90479,8.96112,-0.314052,-0.171724,-0.0955976,0
2024-12-13 15:20:03.734,-0.76361,3.91436,8.99223,-0.315274,-0.176,-0.0968193,0
2024-12-13 15:20:03.736,-0.758824,3.92393,9.04008,-0.315274,-0.176,-0.0968193,0
2024-12-13 15:20:03.736,-0.758824,3.92393,9.04008,-0.315274,-0.176,-0.0968193,0
2024-12-13 15:20:03.739,-0.76361,3.95743,9.09751,-0.32016,-0.185163,-0.0931542,0
2024-12-13 15:20:03.743,-0.758824,4.02204,9.22912,-0.325658,-0.199823,-0.0931542,0
2024-12-13 15:20:03.746,-0.758824,4.04357,9.31795,-0.325658,-0.199823,-0.0931542,0
2024-12-13 15:20:03.748,-0.725324,4.06511,9.39213,-0.335431,-0.214484,-0.0907108,0
2024-12-13 15:20:03.748,-0.725324,4.06511,9.39213,-0.335431,-0.214484,-0.0907108,0
2024-12-13 15:20:03.751,-0.706182,4.08186,9.47348,-0.342151,-0.223646,-0.0882674,0
2024-12-13 15:20:03.753,-0.684646,4.11775,9.5668,-0.343983,-0.229755,-0.0852132,0
2024-12-13 15:20:03.755,-0.663111,4.14646,9.64816,-0.34887,-0.234031,-0.0839915,0
2024-12-13 15:20:03.758,-0.629611,4.17039,9.74387,-0.352535,-0.234642,-0.082159,0
2024-12-13 15:20:03.760,-0.617647,4.2015,9.84467,-0.355589,-0.238918,-0.0784939,0
2024-12-13 15:20:03.762,-0.617647,4.22812,9.91885,-0.357422,-0.241972,-0.0766613,0
2024-12-13 15:20:03.765,-0.605683,4.24008,9.98585,-0.360476,-0.243194,-0.0711637,0
2024-12-13 15:20:03.767,-0.586541,4.24008,10.0816,-0.361698,-0.243804,-0.0681095,0
2024-12-13 15:20:03.769,-0.584148,4.2329,10.1725,-0.360476,-0.241361,-0.0650552,0
2024-12-13 15:20:03.772,-0.574577,4.22333,10.2562,-0.361087,-0.238307,-0.0632227,0
2024-12-13 15:20:03.774,-0.550648,4.22094,10.3496,-0.358644,-0.231587,-0.062001,0
2024-12-13 15:20:03.777,-0.550648,4.21855,10.436,-0.354979,-0.223036,-0.0607793,0
2024-12-13 15:20:03.779,-0.531506,4.22333,10.5174,-0.351314,-0.213262,-0.0589468,0
2024-12-13 15:20:03.784,-0.507577,4.24965,10.6537,-0.340929,-0.183331,-0.0552817,0
2024-12-13 15:20:03.786,-0.505185,4.24965,10.704,-0.334821,-0.164394,-0.05406,0
2024-12-13 15:20:03.786,-0.505185,4.24965,10.704,-0.334821,-0.164394,-0.05406,0
2024-12-13 15:20:03.788,-0.493221,4.26401,10.7542,-0.325047,-0.145458,-0.0546708,0
2024-12-13 15:20:03.791,-0.490828,4.27119,10.7853,-0.314052,-0.124689,-0.0583359,0
2024-12-13 15:20:03.793,-0.505185,4.2688,10.8117,-0.302446,-0.0996445,-0.0589468,0
2024-12-13 15:20:03.798,-0.507577,4.29033,10.8165,-0.275568,-0.0440574,-0.0644444,0
2024-12-13 15:20:03.798,-0.507577,4.29033,10.8165,-0.275568,-0.0440574,-0.0644444,0
2024-12-13 15:20:03.800,-0.52672,4.29512,10.7973,-0.259076,-0.0171801,-0.0644444,0
2024-12-13 15:20:03.802,-0.557827,4.30469,10.7471,-0.245026,0.010308,-0.0662769,0
2024-12-13 15:20:03.805,-0.670289,4.25922,10.7231,-0.231587,0.0329094,-0.0674986,0
2024-12-13 15:20:03.807,-0.801895,4.20897,10.6968,-0.208986,0.0371853,-0.0595576,0
2024-12-13 15:20:03.809,-0.794716,4.24726,10.5245,-0.193715,0.0445155,-0.0510057,0
2024-12-13 15:20:03.812,-0.699003,4.31665,10.2634,-0.186385,0.0536782,-0.0503949,0
2024-12-13 15:20:03.814,-0.605683,4.37887,10.0863,-0.188217,0.0628409,-0.0522274,0
2024-12-13 15:20:03.816,-0.579362,4.42433,10.0768,-0.187606,0.0524565,-0.0528383,0
2024-12-13 15:20:03.819,-0.722932,4.49611,10.1677,-0.188217,0.0481806,-0.0534491,0
2024-12-13 15:20:03.821,-0.924228,4.56551,10.2299,-0.184552,0.0555107,-0.0583359,0
2024-12-13 15:20:03.824,-1.07498,4.58465,10.2299,-0.180887,0.0616192,-0.0583359,0
2024-12-13 15:20:03.828,-1.07498,4.58704,10.0289,-0.165616,0.0677277,-0.0638335,0
2024-12-13 15:20:03.828,-1.07498,4.58704,10.0289,-0.165616,0.0677277,-0.0638335,0
2024-12-13 15:20:03.831,-0.952942,4.60379,9.99303,-0.159507,0.0720036,-0.0668878,0
2024-12-13 15:20:03.833,-0.837787,4.62293,10.06,-0.152788,0.0738362,-0.0711637,0
2024-12-13 15:20:03.835,-0.782752,4.64208,10.1821,-0.144847,0.0658951,-0.0784939,0
2024-12-13 15:20:03.838,-0.773181,4.61336,10.2682,-0.13935,0.0457372,-0.0846023,0
2024-12-13 15:20:03.840,-0.821037,4.57508,10.3041,-0.129576,0.0176382,-0.0943759,0
2024-12-13 15:20:03.843,-0.905085,4.58704,10.3448,-0.124689,-0.0141258,-0.102317,0
2024-12-13 15:20:03.846,-0.967299,4.60379,10.3759,-0.119192,-0.041614,-0.105982,0
2024-12-13 15:20:03.847,-0.991227,4.62772,10.4169,-0.113694,-0.0691021,-0.11209,0
2024-12-13 15:20:03.849,-0.998405,4.67558,10.4767,-0.105753,-0.0910926,-0.117588,0
2024-12-13 15:20:03.852,-0.969691,4.71147,10.5174,-0.0965902,-0.11064,-0.120031,0
2024-12-13 15:20:03.854,-0.917049,4.7354,10.5365,-0.0874275,-0.129576,-0.124307,0
2024-12-13 15:20:03.857,-0.873978,4.7665,10.5796,-0.077654,-0.148512,-0.131027,0
2024-12-13 15:20:03.859,-0.833001,4.79073,10.6155,-0.0715455,-0.174168,-0.138357,0
2024-12-13 15:20:03.861,-0.789931,4.80748,10.6346,-0.0623828,-0.201045,-0.146909,0
2024-12-13 15:20:03.864,-0.770788,4.83859,10.6466,-0.0550526,-0.229144,-0.153628,0
2024-12-13 15:20:03.866,-0.761217,4.85294,10.6537,-0.0483333,-0.257854,-0.160347,0
2024-12-13 15:20:03.868,-0.742074,4.84337,10.6561,-0.0403923,-0.283509,-0.168288,0
2024-12-13 15:20:03.871,-0.739681,4.84337,10.6466,-0.033673,-0.308554,-0.175008,0
2024-12-13 15:20:03.873,-0.73011,4.84098,10.6681,-0.0263428,-0.332988,-0.181727,0
2024-12-13 15:20:03.875,-0.73011,4.83141,10.6849,-0.021456,-0.354979,-0.187225,0
2024-12-13 15:20:03.878,-0.727717,4.83859,10.692,-0.0202343,-0.373915,-0.192111,0
2024-12-13 15:20:03.880,-0.708575,4.83859,10.7112,-0.0122933,-0.389797,-0.195166,0
2024-12-13 15:20:03.882,-0.710967,4.8338,10.7375,-0.00923906,-0.406901,-0.19822,0
2024-12-13 15:20:03.885,-0.732503,4.84577,10.7734,-0.00923906,-0.406901,-0.19822,0
2024-12-13 15:20:03.890,-0.715753,4.89123,10.8571,0.00114534,-0.432556,-0.200052,0
2024-12-13 15:20:03.890,-0.715753,4.89123,10.8571,0.00114534,-0.432556,-0.200052,0
2024-12-13 15:20:03.892,-0.699003,4.91037,10.8739,0.00481042,-0.436832,-0.200052,0
2024-12-13 15:20:03.894,-0.699003,4.93191,10.8978,0.00725381,-0.436221,-0.200663,0
2024-12-13 15:20:03.897,-0.691825,4.94387,10.9699,0.0096972,-0.431945,-0.201885,0
2024-12-13 15:20:03.899,-0.694218,4.97019,11.0536,0.0127514,-0.423394,-0.200663,0
2024-12-13 15:20:03.901,-0.699003,4.98933,11.1374,0.0151948,-0.41362,-0.19822,0
2024-12-13 15:20:03.904,-0.682254,5.00848,11.214,0.0206925,-0.403846,-0.196387,0
2024-12-13 15:20:03.906,-0.677468,5.0324,11.3049,0.0249684,-0.397127,-0.192722,0
2024-12-13 15:20:03.908,-0.667897,5.04915,11.4078,0.0286335,-0.389797,-0.190279,0
2024-12-13 15:20:03.911,-0.65354,5.05873,11.4987,0.0329094,-0.381245,-0.188446,0
2024-12-13 15:20:03.913,-0.624826,5.0683,11.5708,0.0365745,-0.373915,-0.184781,0
2024-12-13 15:20:03.915,-0.584148,5.0994,11.6378,0.0420721,-0.365363,-0.181116,0
2024-12-13 15:20:03.918,-0.555434,5.1353,11.7263,0.0414613,-0.358644,-0.179284,0
2024-12-13 15:20:03.920,-0.54347,5.1688,11.8196,0.0451263,-0.352535,-0.17684,0
2024-12-13 15:20:03.922,-0.521934,5.20947,11.8819,0.0451263,-0.347648,-0.173175,0
2024-12-13 15:20:03.925,-0.488435,5.25015,11.9536,0.046348,-0.344594,-0.170732,0
2024-12-13 15:20:03.927,-0.471685,5.29562,12.0159,0.0487914,-0.337264,-0.170121,0
2024-12-13 15:20:03.930,-0.438186,5.33899,12.076,0.0469589,-0.334821,-0.16951,0
2024-12-13 15:20:03.932,-0.407079,5.35574,12.1837,0.0475697,-0.331156,-0.171343,0
2024-12-13 15:20:03.934,-0.392722,5.35334,12.2985,0.0475697,-0.331766,-0.170121,0
2024-12-13 15:20:03.937,-0.361615,5.35813,12.3847,0.0445155,-0.32749,-0.16951,0
2024-12-13 15:20:03.939,-0.32333,5.37249,12.4564,0.046348,-0.32688,-0.170121,0
2024-12-13 15:20:03.941,-0.308973,5.37009,12.533,0.0451263,-0.32688,-0.170121,0
2024-12-13 15:20:03.944,-0.308973,5.38206,12.6191,0.042683,-0.328712,-0.167067,0
2024-12-13 15:20:03.946,-0.301795,5.37966,12.6793,0.0396287,-0.330545,-0.166456,0
2024-12-13 15:20:03.948,-0.27996,5.36531,12.7439,0.0377962,-0.331156,-0.164623,0
2024-12-13 15:20:03.951,-0.236889,5.3677,12.8157,0.0359636,-0.331766,-0.162791,0
2024-12-13 15:20:03.953,-0.208176,5.34856,12.8563,0.0329094,-0.329934,-0.160958,0
2024-12-13 15:20:03.958,-0.107677,5.28844,12.9497,0.0298552,-0.330545,-0.158515,0
2024-12-13 15:20:03.960,-0.0789631,5.27169,12.9664,0.0200816,-0.328101,-0.153628,0
2024-12-13 15:20:03.960,-0.0789631,5.27169,12.9664,0.0200816,-0.328101,-0.153628,0
2024-12-13 15:20:03.963,-0.0622134,5.2358,12.9879,0.0151948,-0.328101,-0.152406,0
2024-12-13 15:20:03.965,-0.040678,5.19751,13.0382,0.0151948,-0.328101,-0.152406,0
2024-12-13 15:20:03.967,-0.0382852,5.15683,13.086,0.000534491,-0.32688,-0.149352,0
2024-12-13 15:20:03.970,-0.0311067,5.10658,13.1315,-0.0110716,-0.328712,-0.145687,0
2024-12-13 15:20:03.972,-0.0215354,5.06112,13.1916,-0.0202343,-0.328712,-0.142633,0
2024-12-13 15:20:03.977,-0.0191426,4.97737,13.3567,-0.0434465,-0.328101,-0.137135,0
2024-12-13 15:20:03.979,-0.0430708,4.9343,13.4357,-0.0562743,-0.321382,-0.134692,0
2024-12-13 15:20:03.979,-0.0430708,4.9343,13.4357,-0.0562743,-0.321382,-0.134692,0
2024-12-13 15:20:03.981,-0.0526421,4.90798,13.5386,-0.0684913,-0.312219,-0.130416,0
2024-12-13 15:20:03.984,-0.0478565,4.87926,13.6702,-0.0837624,-0.302446,-0.124307,0
2024-12-13 15:20:03.986,-0.0693919,4.84098,13.8045,-0.0972011,-0.29084,-0.117588,0
2024-12-13 15:20:03.988,-0.0933201,4.80748,13.9313,-0.110029,-0.279844,-0.114534,0
2024-12-13 15:20:03.991,-0.124427,4.73779,14.0701,-0.1253,-0.263962,-0.110258,0
2024-12-13 15:20:03.993,-0.131605,4.64208,14.2472,-0.140571,-0.248691,-0.101095,0
2024-12-13 15:20:03.996,-0.0861416,4.53201,14.4102,-0.152788,-0.231587,-0.0931542,0
2024-12-13 15:20:03.998,-0.040678,4.4339,14.5657,-0.166838,-0.213262,-0.0901,0
2024-12-13 15:20:04.000,-0.00957129,4.35254,14.726,-0.182109,-0.19738,-0.0864349,0
2024-12-13 15:20:04.005,0.0382852,4.16082,15.0565,-0.203488,-0.159507,-0.0827698,0
2024-12-13 15:20:04.005,0.0382852,4.16082,15.0565,-0.203488,-0.159507,-0.0827698,0
2024-12-13 15:20:04.007,0.0837488,4.08425,15.2216,-0.214484,-0.143015,-0.0846023,0
2024-12-13 15:20:04.010,0.107677,4.0005,15.3772,-0.223036,-0.128354,-0.085824,0
2024-12-13 15:20:04.012,0.138784,3.89043,15.545,-0.228533,-0.11064,-0.0888783,0
2024-12-13 15:20:04.014,0.196211,3.79711,15.7005,-0.232198,-0.0929251,-0.0937651,0
2024-12-13 15:20:04.017,0.246461,3.71097,15.8345,-0.232198,-0.0758214,-0.0992627,0
2024-12-13 15:20:04.019,0.294616,3.60778,15.9422,-0.230977,-0.0617719,-0.108425,0
2024-12-13 15:20:04.021,0.342473,3.50249,16.0167,-0.227922,-0.0501658,-0.116977,0
2024-12-13 15:20:04.024,0.373579,3.37089,16.0717,-0.223646,-0.0361163,-0.124918,0
2024-12-13 15:20:04.026,0.373579,3.23211,16.0908,-0.215095,-0.0251211,-0.134692,0
2024-12-13 15:20:04.028,0.359223,3.1005,16.0813,-0.203488,-0.0171801,-0.145076,0
2024-12-13 15:20:04.031,0.335294,2.9686,16.0549,-0.203488,-0.0171801,-0.145076,1
2024-12-13 15:20:04.033,0.285045,2.82981,15.9975,-0.17539,-0.00129805,-0.163402,0
2024-12-13 15:20:04.036,0.222533,2.67667,15.9087,-0.154621,0.00725381,-0.16951,0
2024-12-13 15:20:04.038,0.172283,2.53071,15.789,-0.130187,0.0170274,-0.175619,0
2024-12-13 15:20:04.040,0.124427,2.39402,15.6168,-0.109418,0.0268009,-0.180505,0
2024-12-13 15:20:04.043,0.081356,2.25284,15.3939,-0.0788757,0.0420721,-0.18356,0
2024-12-13 15:20:04.045,0.0430708,2.12124,15.1427,-0.0489441,0.0542891,-0.186614,0
2024-12-13 15:20:04.047,0.0167498,1.98245,14.8866,-0.0171801,0.0671168,-0.189057,0
2024-12-13 15:20:04.050,-0.00717847,1.84816,14.6255,0.0164165,0.0817772,-0.19089,0
2024-12-13 15:20:04.052,-0.0430708,1.74766,14.3408,0.0518457,0.0939941,-0.191501,0
2024-12-13 15:20:04.057,-0.107677,1.62562,13.7061,0.125758,0.115374,-0.19089,0
2024-12-13 15:20:04.059,-0.148355,1.59452,13.3591,0.159966,0.121482,-0.187836,0
2024-12-13 15:20:04.059,-0.148355,1.59452,13.3591,0.159966,0.121482,-0.187836,0
2024-12-13 15:20:04.061,-0.212961,1.60648,12.9975,0.200282,0.129423,-0.182949,0
2024-12-13 15:20:04.064,-0.234497,1.6352,12.6314,0.200282,0.129423,-0.182949,0
2024-12-13 15:20:04.066,-0.236889,1.65912,12.2411,0.277248,0.150803,-0.175008,0
2024-12-13 15:20:04.069,-0.246461,1.67348,11.8412,0.316343,0.16302,-0.170121,0
2024-12-13 15:20:04.071,-0.246461,1.69262,11.4102,0.356048,0.177069,-0.168899,0
2024-12-13 15:20:04.073,-0.248854,1.70937,10.9531,0.397051,0.190508,-0.167678,0
2024-12-13 15:20:04.076,-0.234497,1.70937,10.5221,0.431869,0.202114,-0.170121,0
2024-12-13 15:20:04.078,-0.212961,1.71416,10.1055,0.464855,0.214942,-0.173175,0
2024-12-13 15:20:04.080,-0.200997,1.71177,9.7008,0.498451,0.225937,-0.176229,0
2024-12-13 15:20:04.083,-0.198604,1.71894,9.29642,0.529605,0.231435,-0.181727,0
2024-12-13 15:20:04.085,-0.198604,1.73569,8.89412,0.555871,0.232046,-0.186614,0
2024-12-13 15:20:04.087,-0.210568,1.76201,8.51815,0.580305,0.225326,-0.192722,0
2024-12-13 15:20:04.090,-0.212961,1.8003,8.15205,0.597409,0.215553,-0.199442,0
2024-12-13 15:20:04.092,-0.229711,1.82423,7.82632,0.613901,0.19906,-0.207383,0
2024-12-13 15:20:04.094,-0.251246,1.83859,7.52214,0.62734,0.175237,-0.212269,0
2024-12-13 15:20:04.097,-0.258425,1.8673,7.22303,0.639557,0.150192,-0.218378,0
2024-12-13 15:20:04.099,-0.270389,1.91276,6.94995,0.643222,0.11965,-0.223265,0
2024-12-13 15:20:04.102,-0.292223,1.95105,6.70349,0.64872,0.086664,-0.225708,0
2024-12-13 15:20:04.104,-0.308973,1.98006,6.49292,0.64872,0.0481806,-0.229373,0
2024-12-13 15:20:04.106,-0.32333,1.9992,6.31795,0.645666,0.00847551,-0.229373,0
2024-12-13 15:20:04.109,-0.344866,2.01595,6.19592,0.640779,-0.0324513,-0.229373,0
2024-12-13 15:20:04.111,-0.354437,2.02313,6.12413,0.63467,-0.0721563,-0.227541,0
2024-12-13 15:20:04.113,-0.35683,2.0351,6.1002,0.627951,-0.108807,-0.223876,0
2024-12-13 15:20:04.116,-0.352044,2.05902,6.10977,0.621232,-0.140571,-0.218989,0
2024-12-13 15:20:04.118,-0.325723,2.09252,6.12892,0.615123,-0.172335,-0.214713,0
2024-12-13 15:20:04.120,-0.285045,2.14756,6.17438,0.610236,-0.201656,-0.207383,0
2024-12-13 15:20:04.123,-0.263211,2.19302,6.25813,0.603517,-0.227922,-0.199442,0
2024-12-13 15:20:04.125,-0.248854,2.22652,6.34188,0.601074,-0.250524,-0.192111,0
2024-12-13 15:20:04.130,-0.155533,2.33659,6.47617,0.595576,-0.291451,-0.17684,0
2024-12-13 15:20:04.130,-0.155533,2.33659,6.47617,0.595576,-0.291451,-0.17684,0
2024-12-13 15:20:04.132,-0.0981057,2.36052,6.52642,0.593744,-0.309165,-0.168899,0
2024-12-13 15:20:04.134,-0.0526421,2.39641,6.56949,0.593744,-0.309165,-0.168899,0
2024-12-13 15:20:04.139,-0.102891,2.43709,6.67717,0.588246,-0.353146,-0.146909,0
2024-12-13 15:20:04.139,-0.102891,2.43709,6.67717,0.588246,-0.353146,-0.146909,0
2024-12-13 15:20:04.142,-0.342473,2.32463,6.87817,0.590078,-0.345816,-0.131638,0
2024-12-13 15:20:04.144,-0.313759,2.27677,6.88535,0.596187,-0.340929,-0.113312,0
2024-12-13 15:20:04.146,-0.119641,2.32223,6.73699,0.594965,-0.359255,-0.101095,0
2024-12-13 15:20:04.151,-0.117248,2.34856,6.70349,0.587024,-0.37758,-0.0803264,0
2024-12-13 15:20:04.151,-0.131605,2.34856,6.70349,0.587024,-0.37758,-0.0803264,0
2024-12-13 15:20:04.153,-0.189033,2.33659,6.69153,0.582137,-0.391019,-0.0662769,0
2024-12-13 15:20:04.156,-0.308973,2.36531,6.70349,0.575418,-0.408733,-0.0473407,0
2024-12-13 15:20:04.158,-0.289831,2.41795,6.74417,0.575418,-0.424004,-0.0277936,0
2024-12-13 15:20:04.160,-0.157926,2.45145,6.74178,0.56931,-0.439886,-0.0106898,0
2024-12-13 15:20:04.163,-0.0837488,2.48973,6.64367,0.561369,-0.457601,0.00763559,0
2024-12-13 15:20:04.165,-0.040678,2.53071,6.54557,0.556482,-0.472261,0.0210742,0
2024-12-13 15:20:04.167,0.026321,2.57378,6.46182,0.541822,-0.493641,0.033902,0
2024-12-13 15:20:04.170,0.066999,2.59053,6.37298,0.524107,-0.509523,0.0479515,0
2024-12-13 15:20:04.172,0.105284,2.59771,6.30359,0.502116,-0.526016,0.0577251,0
2024-12-13 15:20:04.175,0.20339,2.6336,6.25813,0.480737,-0.54312,0.0650552,0
2024-12-13 15:20:04.177,0.244068,2.65514,6.20788,0.458135,-0.55778,0.0711637,0
2024-12-13 15:20:04.179,0.241675,2.65992,6.11934,0.433702,-0.57244,0.0754396,0
2024-12-13 15:20:04.182,0.383151,2.68385,6.05713,0.406824,-0.580381,0.0784939,0
2024-12-13 15:20:04.184,0.586541,2.71496,6.02602,0.377504,-0.585879,0.0736071,0
2024-12-13 15:20:04.186,0.684646,2.72453,5.98535,0.346274,-0.593209,0.0668878,0
2024-12-13 15:20:04.189,0.801895,2.76281,5.97338,0.313899,-0.599317,0.0583359,0
2024-12-13 15:20:04.191,1.08215,2.83938,6.01885,0.283357,-0.609091,0.046119,0
2024-12-13 15:20:04.193,1.32622,2.91595,6.07627,0.253425,-0.624362,0.0290152,0
2024-12-13 15:20:04.196,1.40279,3.00927,6.09302,0.224105,-0.641466,0.00824644,0
2024-12-13 15:20:04.198,1.42223,3.11007,6.10738,0.19173,-0.65857,-0.0113007,0
2024-12-13 15:20:04.200,1.46052,3.17946,6.16959,0.160576,-0.668954,-0.0320695,0
2024-12-13 15:20:04.203,1.49402,3.22253,6.24616,0.130645,-0.676284,-0.05406,0
2024-12-13 15:20:04.205,1.52752,3.25364,6.31795,0.103157,-0.681171,-0.0736071,0
2024-12-13 15:20:04.207,1.56341,3.26321,6.38734,0.0762796,-0.68056,-0.0937651,0
2024-12-13 15:20:04.210,1.57298,3.25364,6.42563,0.0481806,-0.678117,-0.116366,0
2024-12-13 15:20:04.212,1.53948,3.21775,6.45942,0.0219141,-0.670176,-0.135303,0
2024-12-13 15:20:04.215,1.48205,3.15075,6.5025,-0.00496313,-0.660402,-0.153017,0
2024-12-13 15:20:04.217,1.39322,3.08854,6.52403,-0.0324513,-0.645131,-0.168899,0
2024-12-13 15:20:04.219,1.28554,3.02363,6.54078,-0.0605502,-0.627416,-0.182949,0
2024-12-13 15:20:04.222,1.18983,2.97817,6.56471,-0.0868167,-0.602372,-0.193944,0
2024-12-13 15:20:04.224,1.09412,2.93988,6.57667,-0.116137,-0.57916,-0.202496,0
2024-12-13 15:20:04.226,0.99362,2.88724,6.58864,-0.142404,-0.556558,-0.207383,0
2024-12-13 15:20:04.229,0.909871,2.83938,6.62214,-0.170503,-0.533346,-0.212269,0
2024-12-13 15:20:04.231,0.830609,2.79392,6.65803,-0.196158,-0.510134,-0.214102,0
2024-12-13 15:20:04.233,0.758824,2.74846,6.68435,-0.221203,-0.4857,-0.213491,0
2024-12-13 15:20:04.236,0.701396,2.70778,6.72503,-0.247469,-0.460655,-0.21288,0
2024-12-13 15:20:04.238,0.646361,2.66471,6.77288,-0.273125,-0.431335,-0.212269,0
2024-12-13 15:20:04.240,0.598505,2.62164,6.82792,-0.293283,-0.39957,-0.212269,0
2024-12-13 15:20:04.243,0.56022,2.58574,6.89492,-0.314663,-0.365974,-0.208604,0
2024-12-13 15:20:04.245,0.52672,2.55464,6.95235,-0.333599,-0.331766,-0.207383,0
2024-12-13 15:20:04.248,0.490828,2.52832,7.01964,-0.350703,-0.299392,-0.204939,0
2024-12-13 15:20:04.250,0.445364,2.4993,7.09143,-0.365974,-0.270682,-0.202496,0
2024-12-13 15:20:04.252,0.395115,2.45145,7.17996,-0.378191,-0.245637,-0.200052,0
2024-12-13 15:20:04.255,0.35683,2.41795,7.26371,-0.389797,-0.223646,-0.199442,0
2024-12-13 15:20:04.257,0.330509,2.41795,7.34507,-0.39957,-0.206543,-0.198831,0
2024-12-13 15:20:04.259,0.308973,2.41316,7.40728,-0.404457,-0.192493,-0.196998,0
2024-12-13 15:20:04.262,0.285045,2.37248,7.43839,-0.409955,-0.18272,-0.193944,0
2024-12-13 15:20:04.264,0.232104,2.36291,7.41685,-0.417285,-0.172335,-0.191501,0
2024-12-13 15:20:04.266,0.0981057,2.38445,7.43839,-0.417285,-0.166838,-0.190279,0
2024-12-13 15:20:04.269,-0.00717847,2.37488,7.6014,-0.416063,-0.164394,-0.182949,0
2024-12-13 15:20:04.273,-0.0550349,2.37966,7.88375,-0.402625,-0.159507,-0.167678,0
2024-12-13 15:20:04.276,-0.0693919,2.36531,7.97947,-0.387964,-0.162562,-0.157293,0
2024-12-13 15:20:04.276,-0.0693919,2.36531,7.97947,-0.387964,-0.162562,-0.157293,0
2024-12-13 15:20:04.278,-0.0717847,2.35095,8.03211,-0.374526,-0.166227,-0.14813,0
2024-12-13 15:20:04.283,-0.0478565,2.36531,8.11107,-0.338486,-0.172335,-0.129805,0
2024-12-13 15:20:04.285,-0.0287139,2.39163,8.15444,-0.32016,-0.173557,-0.119421,0
2024-12-13 15:20:04.285,-0.0287139,2.39163,8.15444,-0.32016,-0.173557,-0.119421,0
2024-12-13 15:20:04.290,0.0789631,2.4323,8.15683,-0.276179,-0.176611,-0.104149,0
2024-12-13 15:20:04.290,0.0789631,2.4323,8.15683,-0.276179,-0.176611,-0.104149,0
2024-12-13 15:20:04.292,0.141177,2.45384,8.15923,-0.253578,-0.173557,-0.0974301,0
2024-12-13 15:20:04.295,0.174676,2.49212,8.13261,-0.230366,-0.170503,-0.0919325,0
2024-12-13 15:20:04.299,0.229711,2.52084,7.99382,-0.185163,-0.162562,-0.082159,0
2024-12-13 15:20:04.302,0.193819,2.59292,7.91486,-0.165616,-0.162562,-0.0803264,0
2024-12-13 15:20:04.302,0.193819,2.59292,7.91486,-0.165616,-0.162562,-0.0803264,0
2024-12-13 15:20:04.304,0.0143569,2.77717,7.77368,-0.148512,-0.161951,-0.0729962,0
2024-12-13 15:20:04.306,-0.0119641,2.84656,7.64208,-0.135074,-0.157675,-0.062001,0
2024-12-13 15:20:04.311,0.263211,2.65514,7.54607,-0.111251,-0.172335,-0.0552817,0
2024-12-13 15:20:04.311,0.263211,2.65514,7.54607,-0.111251,-0.172335,-0.0552817,0
2024-12-13 15:20:04.313,0.196211,2.52592,7.27568,-0.10331,-0.180887,-0.0516166,0
2024-12-13 15:20:04.316,0.232104,2.4347,6.96192,-0.10392,-0.185163,-0.046119,0
2024-12-13 15:20:04.318,0.35683,2.43709,6.92842,-0.105753,-0.191272,-0.0473407,0
2024-12-13 15:20:04.323,0.4669,2.47777,7.08904,-0.106364,-0.188828,-0.0503949,0
2024-12-13 15:20:04.323,0.4669,2.47777,7.08904,-0.106364,-0.188828,-0.0503949,0
2024-12-13 15:20:04.325,0.442971,2.56899,7.17518,-0.104531,-0.176,-0.0534491,0
2024-12-13 15:20:04.330,0.227318,2.73171,7.168,-0.0923143,-0.133241,-0.0497841,0
2024-12-13 15:20:04.330,0.227318,2.73171,7.168,-0.0923143,-0.133241,-0.0497841,0
2024-12-13 15:20:04.332,0.0311067,2.81785,7.0675,-0.0910926,-0.113694,-0.0412322,0
2024-12-13 15:20:04.335,-0.0741775,2.87767,6.95952,-0.0917034,-0.0990336,-0.0332912,0
2024-12-13 15:20:04.339,-0.12682,2.95902,6.90688,-0.100255,-0.0837624,-0.00946813,0
2024-12-13 15:20:04.339,-0.12682,2.95902,6.90688,-0.100255,-0.0837624,-0.00946813,0
2024-12-13 15:20:04.344,-0.141177,2.98295,6.91406,-0.114916,-0.0782648,0.0137441,0
2024-12-13 15:20:04.344,-0.141177,2.98295,6.91406,-0.114916,-0.0782648,0.0137441,0
2024-12-13 15:20:04.346,-0.141177,2.99252,6.9332,-0.124078,-0.077654,0.0247393,0
2024-12-13 15:20:04.349,-0.150748,2.99492,6.94756,-0.128965,-0.0788757,0.0393996,0
2024-12-13 15:20:04.351,-0.138784,2.99492,6.95713,-0.136295,-0.0782648,0.0503949,0
2024-12-13 15:20:04.354,-0.131605,3.00449,6.96431,-0.147901,-0.0788757,0.0595576,0
2024-12-13 15:20:04.356,-0.122034,3.01167,6.97867,-0.155232,-0.0807082,0.0717745,0
2024-12-13 15:20:04.358,-0.0837488,3.03559,7.01486,-0.163783,-0.0782648,0.0809373,0
2024-12-13 15:20:04.361,-0.0454636,3.08345,7.10339,-0.171114,-0.0807082,0.0894891,0
2024-12-13 15:20:04.364,0.0,3.11964,7.18714,-0.185163,-0.0764323,0.109036,0
2024-12-13 15:20:04.365,0.0430708,3.14357,7.27568,-0.185163,-0.0764323,0.109036,0
2024-12-13 15:20:04.368,0.105284,3.19621,7.3666,-0.189439,-0.0709346,0.118199,0
2024-12-13 15:20:04.372,0.277567,3.31346,7.57986,-0.19738,-0.0599394,0.135379,0
2024-12-13 15:20:04.372,0.277567,3.31346,7.57986,-0.19738,-0.0599394,0.135379,0
2024-12-13 15:20:04.375,0.380758,3.35653,7.67558,-0.199213,-0.0526092,0.142098,0
2024-12-13 15:20:04.377,0.462114,3.3996,7.76172,-0.203488,-0.0458899,0.146985,0
2024-12-13 15:20:04.379,0.548256,3.44985,7.84786,-0.202878,-0.0410031,0.151872,0
2024-12-13 15:20:04.382,0.629611,3.49771,7.94357,-0.202267,-0.0361163,0.154926,0
2024-12-13 15:20:04.384,0.696611,3.55274,8.02014,-0.202267,-0.0330621,0.156148,0
2024-12-13 15:20:04.387,0.756431,3.61017,8.1015,-0.201656,-0.029397,0.158591,0
2024-12-13 15:20:04.389,0.789931,3.65833,8.17837,-0.200434,-0.0263428,0.15798,0
2024-12-13 15:20:04.391,0.816252,3.7325,8.24776,-0.196769,-0.0263428,0.156148,0
2024-12-13 15:20:04.394,0.859622,3.79472,8.33151,-0.193104,-0.0281753,0.153704,0
2024-12-13 15:20:04.396,0.88355,3.84497,8.39372,-0.188828,-0.0300079,0.151261,0
2024-12-13 15:20:04.398,0.890728,3.91197,8.45115,-0.184552,-0.037338,0.146985,0
2024-12-13 15:20:04.401,0.893121,3.97418,8.49422,-0.181498,-0.0458899,0.143931,0
2024-12-13 15:20:04.403,0.907478,4.02204,8.53251,-0.178444,-0.0544418,0.138433,0
2024-12-13 15:20:04.405,0.936192,4.05314,8.57558,-0.173557,-0.0648262,0.13347,0
2024-12-13 15:20:04.408,0.945763,4.08664,8.59951,-0.170503,-0.0752106,0.126751,0
2024-12-13 15:20:04.410,0.921835,4.11775,8.57558,-0.164394,-0.0886492,0.119421,0
2024-12-13 15:20:04.412,0.9003,4.14646,8.55404,-0.163173,-0.105142,0.113312,0
2024-12-13 15:20:04.417,0.926621,4.1991,8.61386,-0.159507,-0.133241,0.0962084,0
2024-12-13 15:20:04.418,0.926621,4.1991,8.61386,-0.159507,-0.149123,0.0876566,0
2024-12-13 15:20:04.419,0.964906,4.20389,8.6354,-0.159507,-0.149123,0.0876566,0
2024-12-13 15:20:04.422,0.972084,4.20897,8.6354,-0.160729,-0.163173,0.0760505,0
2024-12-13 15:20:04.424,1.01037,4.22333,8.64497,-0.16134,-0.17539,0.0681095,0
2024-12-13 15:20:04.427,1.09651,4.25444,8.67129,-0.164394,-0.187606,0.0571142,0
2024-12-13 15:20:04.429,1.15394,4.27358,8.67129,-0.171114,-0.197991,0.046119,0
2024-12-13 15:20:04.431,1.15394,4.27119,8.66172,-0.176611,-0.206543,0.033902,0
2024-12-13 15:20:04.434,1.12522,4.25205,8.66172,-0.184552,-0.210208,0.0235176,0
2024-12-13 15:20:04.436,1.1013,4.22094,8.67368,-0.194326,-0.209597,0.0167983,0
2024-12-13 15:20:04.439,1.08455,4.17518,8.69043,-0.204099,-0.205321,0.00824644,0
2024-12-13 15:20:04.443,1.02712,4.03639,8.74577,-0.228533,-0.189439,-0.00397051,0
2024-12-13 15:20:04.443,1.02712,4.03639,8.74577,-0.228533,-0.189439,-0.00397051,0
2024-12-13 15:20:04.445,0.99362,3.96939,8.77927,-0.241361,-0.17539,-0.0051922,0
2024-12-13 15:20:04.448,0.957727,3.9,8.82712,-0.257243,-0.158286,-0.00763559,0
2024-12-13 15:20:04.450,0.9003,3.833,8.87019,-0.271903,-0.136906,-0.00824644,0
2024-12-13 15:20:04.452,0.871586,3.78993,8.91805,-0.285953,-0.115526,-0.00458135,0
2024-12-13 15:20:04.455,0.857229,3.74686,8.99941,-0.299392,-0.0849841,0.000916271,0
2024-12-13 15:20:04.457,0.821037,3.70618,9.09033,-0.314052,-0.0587177,0.00763559,0
2024-12-13 15:20:04.460,0.792323,3.67268,9.16451,-0.328712,-0.0281753,0.0113007,0
2024-12-13 15:20:04.462,0.756431,3.6341,9.26292,-0.340318,0.00114534,0.0167983,0
2024-12-13 15:20:04.464,0.710967,3.60299,9.37538,-0.340318,0.00114534,0.0167983,0
2024-12-13 15:20:04.467,0.687039,3.57667,9.48066,-0.361087,0.0591758,0.0296261,0
2024-12-13 15:20:04.469,0.663111,3.55514,9.58355,-0.369028,0.0872748,0.0363454,0
2024-12-13 15:20:04.471,0.63679,3.54796,9.66252,-0.375747,0.115985,0.0430647,0
2024-12-13 15:20:04.474,0.629611,3.52882,9.75584,-0.381245,0.142251,0.0479515,0
2024-12-13 15:20:04.476,0.624826,3.49771,9.86381,-0.383688,0.165463,0.0522274,0
2024-12-13 15:20:04.478,0.610469,3.47378,9.95235,-0.383078,0.186232,0.0565034,0
2024-12-13 15:20:04.481,0.622433,3.46182,10.0337,-0.381856,0.201503,0.0613902,0
2024-12-13 15:20:04.483,0.641576,3.44985,10.1318,-0.378191,0.216164,0.0644444,0
