timestamp,accel_x,accel_y,accel_z,gyro_x,gyro_y,gyro_z,step_timestamp
2024-12-13 15:16:21.015,-0.792323,2.0351,6.36341,0.404381,0.14836,0.490892,0
2024-12-13 15:16:21.015,-0.792323,2.0351,6.36341,0.404381,0.14836,0.490892,0
2024-12-13 15:16:21.017,-0.777966,2.07338,6.26531,0.404381,0.14836,0.492114,0
2024-12-13 15:16:21.019,-0.775574,2.10688,6.14327,0.397662,0.17035,0.49639,0
2024-12-13 15:16:21.019,-0.775574,2.10688,6.14327,0.397662,0.17035,0.49639,0
2024-12-13 15:16:21.022,-0.756431,2.14277,6.02363,0.393386,0.190508,0.499444,0
2024-12-13 15:16:21.024,-0.737288,2.17627,5.93031,0.386055,0.202725,0.503109,0
2024-12-13 15:16:21.024,-0.737288,2.17627,5.93031,0.386055,0.202725,0.503109,0
2024-12-13 15:16:21.025,-0.737288,2.17627,5.93031,0.374449,0.215553,0.50372,0
2024-12-13 15:16:21.029,-0.73011,2.22891,5.76252,0.364599,0.222883,0.50372,0
2024-12-13 15:16:21.029,-0.73011,2.22891,5.76252,0.364599,0.222883,0.50372,0
2024-12-13 15:16:21.031,-0.694218,2.25284,5.68834,0.352993,0.232656,0.504942,0
2024-12-13 15:16:21.033,-0.677468,2.28873,5.59023,0.337111,0.241208,0.503109,0
2024-12-13 15:16:21.033,-0.677468,2.28873,5.59023,0.337111,0.241208,0.503109,0
2024-12-13 15:16:21.033,-0.677468,2.28873,5.59023,0.337111,0.241208,0.503109,0
2024-12-13 15:16:21.033,-0.677468,2.28873,5.59023,0.337111,0.241208,0.503109,0
2024-12-13 15:16:21.043,-0.689432,2.41316,5.3004,0.270529,0.274805,0.498222,0
2024-12-13 15:16:21.043,-0.689432,2.41316,5.3004,0.270529,0.274805,0.498222,0
2024-12-13 15:16:21.050,-0.605683,2.49452,5.20708,0.235711,0.284578,0.493336,0
2024-12-13 15:16:21.052,-0.588933,2.52592,5.18076,0.196616,0.290076,0.484784,0
2024-12-13 15:16:21.055,-0.588933,2.55464,5.1664,0.181956,0.29313,0.479897,0
2024-12-13 15:16:21.055,-0.60329,2.55464,5.1664,0.181956,0.29313,0.479897,0
2024-12-13 15:16:21.057,-0.634397,2.59292,5.15922,0.162409,0.291298,0.473788,0
2024-12-13 15:16:21.059,-0.665504,2.63839,5.15683,0.147749,0.289465,0.469512,0
2024-12-13 15:16:21.062,-0.682254,2.68385,5.17358,0.131867,0.287633,0.465237,0
2024-12-13 15:16:21.062,-0.682254,2.68385,5.17358,0.131867,0.287633,0.465237,0
2024-12-13 15:16:21.066,-0.687039,2.70778,5.22144,0.0994917,0.280303,0.45302,0
2024-12-13 15:16:21.066,-0.687039,2.70778,5.22144,0.0994917,0.280303,0.45302,0
2024-12-13 15:16:21.073,-0.682254,2.78435,5.28604,0.0720036,0.273583,0.440803,0
2024-12-13 15:16:21.076,-0.675075,2.8322,5.37966,0.0512348,0.258923,0.427975,0
2024-12-13 15:16:21.078,-0.627219,2.83699,5.44666,0.046348,0.24976,0.421256,0
2024-12-13 15:16:21.080,-0.579362,2.87049,5.52563,0.0329094,0.233878,0.411482,0
2024-12-13 15:16:21.080,-0.579362,2.87049,5.52563,0.0329094,0.233878,0.411482,0
2024-12-13 15:16:21.080,-0.579362,2.87049,5.52563,0.0329094,0.233878,0.411482,0
2024-12-13 15:16:21.080,-0.579362,2.87049,5.52563,0.0329094,0.233878,0.411482,0
2024-12-13 15:16:21.083,-0.562612,2.92792,5.57348,0.0255792,0.222272,0.403541,0
2024-12-13 15:16:21.085,-0.579362,2.97817,5.5998,0.0200816,0.212498,0.396822,0
2024-12-13 15:16:21.088,-0.610469,3.03559,5.65245,0.0115297,0.207001,0.388881,0
2024-12-13 15:16:21.090,-0.62004,3.08345,5.72902,0.0115297,0.207001,0.388881,0
2024-12-13 15:16:21.093,-0.622433,3.11246,5.81276,-0.0257319,0.175237,0.367501,0
2024-12-13 15:16:21.095,-0.624826,3.12443,5.90399,-0.0257319,0.175237,0.367501,0
2024-12-13 15:16:21.099,-0.629611,3.14836,6.12652,-0.0550526,0.153246,0.353451,0
2024-12-13 15:16:21.102,-0.615255,3.14836,6.26052,-0.0684913,0.142251,0.347343,0
2024-12-13 15:16:21.102,-0.615255,3.14836,6.26052,-0.0684913,0.142251,0.347343,0
2024-12-13 15:16:21.106,-0.627219,3.18664,6.49292,-0.093536,0.130034,0.331461,0
2024-12-13 15:16:21.106,-0.627219,3.18664,6.49292,-0.093536,0.130034,0.331461,0
2024-12-13 15:16:21.109,-0.596112,3.19621,6.59342,-0.107585,0.133088,0.32352,0
2024-12-13 15:16:21.111,-0.557827,3.20578,6.68196,-0.120413,0.132477,0.315579,0
2024-12-13 15:16:21.116,-0.565005,3.19621,6.81835,-0.131409,0.137975,0.29481,0
2024-12-13 15:16:21.118,-0.56022,3.19382,6.9021,-0.143015,0.137975,0.286258,0
2024-12-13 15:16:21.121,-0.56022,3.18903,6.99302,-0.167449,0.14897,0.277096,0
2024-12-13 15:16:21.121,-0.56022,3.18903,6.99302,-0.167449,0.14897,0.277096,0
2024-12-13 15:16:21.125,-0.605683,3.18664,7.14886,-0.181498,0.146527,0.25877,0
2024-12-13 15:16:21.128,-0.62004,3.19143,7.21825,-0.204099,0.153246,0.250829,0
2024-12-13 15:16:21.130,-0.627219,3.20339,7.28046,-0.215705,0.151414,0.240445,0
2024-12-13 15:16:21.132,-0.648754,3.20578,7.35703,-0.215705,0.151414,0.240445,0
2024-12-13 15:16:21.135,-0.670289,3.19621,7.44078,-0.243194,0.15569,0.225174,0
2024-12-13 15:16:21.137,-0.687039,3.19382,7.54607,-0.243194,0.15569,0.225174,0
2024-12-13 15:16:21.139,-0.684646,3.17946,7.62533,-0.26946,0.154468,0.209292,0
2024-12-13 15:16:21.142,-0.667897,3.17228,7.68993,-0.26946,0.154468,0.209292,0
2024-12-13 15:16:21.144,-0.651147,3.17707,7.76411,-0.29084,0.150803,0.192799,0
2024-12-13 15:16:21.146,-0.651147,3.17707,7.84547,-0.3055,0.151414,0.181193,0
2024-12-13 15:16:21.149,-0.65354,3.14357,7.94597,-0.3055,0.151414,0.181193,0
2024-12-13 15:16:21.151,-0.65354,3.11725,8.06561,-0.325658,0.146527,0.159813,0
2024-12-13 15:16:21.153,-0.643968,3.12682,8.16401,-0.328712,0.146527,0.15065,0
2024-12-13 15:16:21.156,-0.634397,3.14118,8.2669,-0.333599,0.144084,0.136601,0
2024-12-13 15:16:21.158,-0.629611,3.16032,8.38654,-0.339097,0.145916,0.125529,0
2024-12-13 15:16:21.161,-0.646361,3.16271,8.48944,-0.339097,0.145916,0.125529,0
2024-12-13 15:16:21.163,-0.667897,3.15553,8.56601,-0.336653,0.153857,0.102317,0
2024-12-13 15:16:21.165,-0.672682,3.16989,8.64736,-0.336653,0.153857,0.102317,0
2024-12-13 15:16:21.170,-0.679861,3.201,8.80559,-0.314663,0.175848,0.0674986,0
2024-12-13 15:16:21.170,-0.679861,3.201,8.80559,-0.314663,0.175848,0.0674986,0
2024-12-13 15:16:21.175,-0.71336,3.23689,8.92284,-0.292672,0.195395,0.046119,0
2024-12-13 15:16:21.175,-0.71336,3.23689,8.92284,-0.292672,0.195395,0.046119,0
2024-12-13 15:16:21.179,-0.761217,3.30868,8.97069,-0.262741,0.225326,0.0302369,0
2024-12-13 15:16:21.182,-0.801895,3.35175,8.98744,-0.262741,0.225326,0.0302369,0
2024-12-13 15:16:21.184,-0.847657,3.38285,8.98026,-0.22609,0.260145,0.01802,0
2024-12-13 15:16:21.184,-0.847657,3.38285,8.98026,-0.22609,0.260145,0.01802,0
2024-12-13 15:16:21.189,-0.933799,3.45703,8.91087,-0.194326,0.286411,0.00885729,0
2024-12-13 15:16:21.191,-0.964906,3.50489,8.8678,-0.194326,0.286411,0.00885729,0
2024-12-13 15:16:21.194,-0.996012,3.53121,8.83909,-0.16134,0.303515,0.00335966,0
2024-12-13 15:16:21.197,-1.04148,3.58624,8.81277,-0.136295,0.301071,0.00580305,0
2024-12-13 15:16:21.198,-1.08694,3.6341,8.7673,-0.136295,0.301071,0.00580305,0
2024-12-13 15:16:21.201,-1.11805,3.67029,8.72662,-0.136295,0.301071,0.00580305,0
2024-12-13 15:16:21.203,-1.13001,3.72533,8.68325,-0.115526,0.288244,0.010079,0
2024-12-13 15:16:21.205,-1.13001,3.77557,8.64018,-0.111861,0.279081,0.0119115,0
2024-12-13 15:16:21.208,-1.12762,3.81865,8.60908,-0.106364,0.268086,0.0149658,0
2024-12-13 15:16:21.210,-1.12762,3.81865,8.56601,-0.100255,0.254036,0.0192417,0
2024-12-13 15:16:21.212,-1.10848,3.90239,8.52533,-0.0953685,0.238765,0.0235176,0
2024-12-13 15:16:21.212,-1.10848,3.90239,8.52533,-0.0953685,0.238765,0.0235176,0
2024-12-13 15:16:21.217,-1.08933,3.98136,8.49183,-0.0910926,0.200892,0.0308478,0
2024-12-13 15:16:21.219,-1.08933,3.99811,8.47269,-0.0868167,0.17768,0.0326803,0
2024-12-13 15:16:21.222,-1.01276,4.01486,8.43679,-0.085595,0.151414,0.0363454,0
2024-12-13 15:16:21.224,-0.967299,4.04836,8.41526,-0.0868167,0.123926,0.0351237,0
2024-12-13 15:16:21.227,-0.905085,4.0675,8.38894,-0.0843733,0.0964375,0.0357346,0
2024-12-13 15:16:21.229,-0.857229,4.08186,8.36501,-0.0862058,0.0726145,0.0357346,0
2024-12-13 15:16:21.231,-0.825823,4.10339,8.35304,-0.0868167,0.0439046,0.0326803,0
2024-12-13 15:16:21.236,-0.742074,4.11057,8.31954,-0.0874275,-0.00374144,0.0277936,0
2024-12-13 15:16:21.236,-0.742074,4.11057,8.31954,-0.0874275,-0.00374144,0.0277936,0
2024-12-13 15:16:21.238,-0.742074,4.11057,8.30997,-0.0892601,-0.0300079,0.025961,0
2024-12-13 15:16:21.241,-0.718146,4.10578,8.3004,-0.0892601,-0.0587177,0.0229068,0
2024-12-13 15:16:21.245,-0.699003,4.11775,8.3004,-0.0917034,-0.102699,0.0143549,0
2024-12-13 15:16:21.245,-0.708575,4.11775,8.3004,-0.0917034,-0.102699,0.0143549,0
2024-12-13 15:16:21.248,-0.708575,4.11775,8.29083,-0.0929251,-0.121635,0.0106898,0
2024-12-13 15:16:21.250,-0.718146,4.101,8.26451,-0.093536,-0.136906,0.00702474,0
2024-12-13 15:16:21.252,-0.699003,4.101,8.23101,-0.0947577,-0.150345,0.00397051,0
2024-12-13 15:16:21.255,-0.679861,4.09621,8.1999,-0.0990336,-0.156453,-0.000305424,0
2024-12-13 15:16:21.257,-0.672682,4.09621,8.17598,-0.106975,-0.158897,-0.0051922,0
2024-12-13 15:16:21.259,-0.670289,4.09861,8.14008,-0.112472,-0.160729,-0.00824644,0
2024-12-13 15:16:21.262,-0.660718,4.101,8.12782,-0.118581,-0.164394,-0.0131332,0
2024-12-13 15:16:21.267,-0.624826,4.09621,8.13021,-0.140571,-0.162562,-0.0222959,0
2024-12-13 15:16:21.269,-0.624826,4.09621,8.15205,-0.140571,-0.162562,-0.0222959,0
2024-12-13 15:16:21.269,-0.63679,4.11057,8.15205,-0.140571,-0.162562,-0.0222959,0
2024-12-13 15:16:21.274,-0.699003,4.14168,8.1999,-0.172946,-0.150956,-0.0284044,0
2024-12-13 15:16:21.276,-0.699003,4.16082,8.24298,-0.186385,-0.146069,-0.0277936,0
2024-12-13 15:16:21.278,-0.773181,4.16321,8.3004,-0.199823,-0.138739,-0.025961,0
2024-12-13 15:16:21.281,-0.727717,4.14168,8.38415,-0.213873,-0.134463,-0.0265719,0
2024-12-13 15:16:21.285,-0.687039,4.11775,8.60908,-0.239528,-0.121635,-0.0247393,0
2024-12-13 15:16:21.285,-0.667897,4.11775,8.60908,-0.239528,-0.121635,-0.0247393,0
2024-12-13 15:16:21.288,-0.641576,4.11296,8.7362,-0.239528,-0.121635,-0.0247393,0
2024-12-13 15:16:21.291,-0.632004,4.11057,8.86062,-0.265184,-0.105142,-0.025961,0
2024-12-13 15:16:21.292,-0.655932,4.10818,8.97548,-0.265184,-0.105142,-0.025961,0
2024-12-13 15:16:21.295,-0.677468,4.11296,9.11187,-0.281066,-0.0862058,-0.0229068,0
2024-12-13 15:16:21.297,-0.687039,4.11057,9.27249,-0.281066,-0.0862058,-0.0229068,0
2024-12-13 15:16:21.300,-0.701396,4.11536,9.44956,-0.293894,-0.0629936,-0.0174091,0
2024-12-13 15:16:21.302,-0.710967,4.12493,9.61945,-0.300002,-0.0556635,-0.0137441,0
2024-12-13 15:16:21.307,-0.732503,4.12732,9.77737,-0.304278,-0.0355055,-0.00458135,0
2024-12-13 15:16:21.307,-0.754038,4.14886,9.94278,-0.304278,-0.0355055,-0.00458135,0
2024-12-13 15:16:21.311,-0.768395,4.16082,10.2873,-0.295726,-0.0141258,0.0106898,0
2024-12-13 15:16:21.311,-0.787538,4.15843,10.2873,-0.295726,-0.0141258,0.0106898,0
2024-12-13 15:16:21.316,-0.818644,4.24965,10.5987,-0.279844,0.00114534,0.025961,0
2024-12-13 15:16:21.316,-0.818644,4.24965,10.5987,-0.279844,0.00114534,0.025961,0
2024-12-13 15:16:21.321,-0.85005,4.40519,10.8619,-0.255411,0.0188599,0.0412322,0
2024-12-13 15:16:21.321,-0.876371,4.40519,10.8619,-0.255411,0.0188599,0.0412322,0
2024-12-13 15:16:21.323,-0.852443,4.47458,10.9747,-0.242583,0.0268009,0.0479515,0
2024-12-13 15:16:21.325,-0.835394,4.52961,11.0991,-0.231587,0.0298552,0.0528383,0
2024-12-13 15:16:21.330,-0.945763,4.72822,11.2881,-0.202267,0.0371853,0.0638335,0
2024-12-13 15:16:21.330,-0.945763,4.72822,11.2881,-0.202267,0.0371853,0.0638335,0
2024-12-13 15:16:21.335,-1.01276,4.81705,11.3456,-0.179055,0.046348,0.0760505,0
2024-12-13 15:16:21.335,-1.04626,4.88405,11.4078,-0.179055,0.046348,0.0760505,0
2024-12-13 15:16:21.340,-1.12522,4.98216,11.4963,-0.151566,0.0524565,0.0870457,0
2024-12-13 15:16:21.342,-1.12522,5.00608,11.5684,-0.151566,0.0524565,0.0870457,0
2024-12-13 15:16:21.344,-1.15633,5.0324,11.6306,-0.123468,0.0481806,0.098041,0
2024-12-13 15:16:21.344,-1.15633,5.0324,11.6306,-0.123468,0.0481806,0.098041,0
2024-12-13 15:16:21.349,-1.15155,5.12333,11.755,-0.102699,0.030466,0.101706,0
2024-12-13 15:16:21.349,-1.15155,5.12333,11.755,-0.102699,0.030466,0.101706,0
2024-12-13 15:16:21.354,-1.1348,5.23819,11.8555,-0.0794865,0.000534491,0.0968193,0
2024-12-13 15:16:21.354,-1.1348,5.23819,11.8555,-0.0794865,0.000534491,0.0968193,0
2024-12-13 15:16:21.358,-1.12762,5.34138,11.9297,-0.0538309,-0.0275645,0.085824,0
2024-12-13 15:16:21.358,-1.12762,5.34138,11.9297,-0.0538309,-0.0275645,0.085824,0
2024-12-13 15:16:21.363,-1.19701,5.42273,11.9058,-0.0379489,-0.0617719,0.0693312,0
2024-12-13 15:16:21.363,-1.19701,5.42273,11.9058,-0.0379489,-0.0617719,0.0693312,0
2024-12-13 15:16:21.368,-1.41745,5.53759,12.0589,-0.0220669,-0.0941468,0.0577251,0
2024-12-13 15:16:21.368,-1.41745,5.53759,12.0589,-0.0220669,-0.0941468,0.0577251,0
2024-12-13 15:16:21.373,-1.41506,5.62134,12.2052,0.0096972,-0.117359,0.0473407,0
2024-12-13 15:16:21.376,-1.41506,5.67398,12.2459,0.042683,-0.136295,0.0222959,0
2024-12-13 15:16:21.377,-1.36929,5.71466,12.3248,0.042683,-0.136295,0.0222959,0
2024-12-13 15:16:21.377,-1.36929,5.71466,12.3248,0.042683,-0.136295,0.0222959,0
2024-12-13 15:16:21.380,-1.38365,5.76012,12.3751,0.042683,-0.147291,0.010079,0
2024-12-13 15:16:21.382,-1.38604,5.79601,12.3894,0.0799446,-0.157675,-0.0051922,0
2024-12-13 15:16:21.388,-1.37408,5.84866,12.4349,0.110487,-0.193104,-0.0510057,0
2024-12-13 15:16:21.389,-1.39083,5.91356,12.4397,0.110487,-0.193104,-0.0510057,0
2024-12-13 15:16:21.391,-1.41745,5.99013,12.4182,0.143473,-0.202878,-0.0650552,0
2024-12-13 15:16:21.394,-1.45095,6.05235,12.4086,0.143473,-0.202878,-0.0650552,0
2024-12-13 15:16:21.396,-1.47009,6.09781,12.399,0.167296,-0.217538,-0.0943759,0
2024-12-13 15:16:21.398,-1.45573,6.14088,12.3966,0.167296,-0.217538,-0.0943759,0
2024-12-13 15:16:21.401,-1.42941,6.17677,12.4038,0.188065,-0.229755,-0.120642,0
2024-12-13 15:16:21.403,-1.42941,6.20549,12.3727,0.188065,-0.229755,-0.120642,0
2024-12-13 15:16:21.406,-1.40548,6.22941,12.332,0.201503,-0.231587,-0.146909,0
2024-12-13 15:16:21.408,-1.40788,6.24377,12.32,0.201503,-0.231587,-0.146909,0
2024-12-13 15:16:21.410,-1.39083,6.26291,12.2961,0.211277,-0.228533,-0.171343,0
2024-12-13 15:16:21.413,-1.37886,6.28206,12.2626,0.211277,-0.228533,-0.171343,0
2024-12-13 15:16:21.415,-1.36929,6.27966,12.2578,0.210055,-0.223036,-0.196387,0
2024-12-13 15:16:21.420,-1.3334,6.29881,12.277,0.198449,-0.223036,-0.213491,0
2024-12-13 15:16:21.421,-1.3334,6.29881,12.277,0.190508,-0.221203,-0.223265,0
2024-12-13 15:16:21.422,-1.27358,6.30359,12.332,0.190508,-0.221203,-0.223265,0
2024-12-13 15:16:21.424,-1.19462,6.28684,12.4134,0.180124,-0.219981,-0.232427,0
2024-12-13 15:16:21.427,-1.15155,6.29881,12.4852,0.169739,-0.222425,-0.239758,0
2024-12-13 15:16:21.431,-1.16351,6.37059,12.5426,0.14897,-0.215705,-0.250753,0
2024-12-13 15:16:21.431,-1.15394,6.37059,12.5426,0.14897,-0.215705,-0.250753,0
2024-12-13 15:16:21.434,-1.13958,6.38016,12.588,0.132477,-0.21204,-0.253196,0
2024-12-13 15:16:21.439,-1.01755,6.28684,12.7295,0.115985,-0.208986,-0.254418,0
2024-12-13 15:16:21.443,-0.909871,6.16481,12.7869,0.0677277,-0.217538,-0.272132,0
2024-12-13 15:16:21.443,-0.818644,6.07149,12.8611,0.0677277,-0.217538,-0.272132,0
2024-12-13 15:16:21.448,-0.766002,5.95185,12.9114,0.0445155,-0.21143,-0.283739,0
2024-12-13 15:16:21.448,-0.722932,5.95185,12.9114,0.0445155,-0.21143,-0.283739,0
2024-12-13 15:16:21.453,-0.60329,5.84387,12.9736,0.0151948,-0.202267,-0.296566,0
2024-12-13 15:16:21.453,-0.60329,5.84387,12.9736,0.0151948,-0.202267,-0.296566,0
2024-12-13 15:16:21.457,-0.555434,5.72662,13.1124,-0.013515,-0.201045,-0.309394,0
2024-12-13 15:16:21.457,-0.555434,5.72662,13.1124,-0.013515,-0.201045,-0.309394,0
2024-12-13 15:16:21.462,-0.486042,5.6022,13.261,-0.0477224,-0.209597,-0.321611,0
2024-12-13 15:16:21.462,-0.486042,5.6022,13.261,-0.0477224,-0.209597,-0.321611,0
2024-12-13 15:16:21.467,-0.368794,5.41556,13.4022,-0.0752106,-0.225479,-0.332606,0
2024-12-13 15:16:21.469,-0.30658,5.31237,13.4764,-0.0752106,-0.225479,-0.332606,0
2024-12-13 15:16:21.471,-0.251246,5.19033,13.5553,-0.102088,-0.251135,-0.343602,0
2024-12-13 15:16:21.474,-0.210568,5.05633,13.6415,-0.102088,-0.251135,-0.343602,0
2024-12-13 15:16:21.476,-0.174676,4.95583,13.7566,-0.125911,-0.276179,-0.354597,0
2024-12-13 15:16:21.476,-0.174676,4.95583,13.7566,-0.125911,-0.276179,-0.354597,0
2024-12-13 15:16:21.481,-0.0909273,4.72104,13.9337,-0.148512,-0.295116,-0.360705,0
2024-12-13 15:16:21.483,-0.066999,4.58943,14.0438,-0.153399,-0.293283,-0.36376,0
2024-12-13 15:16:21.486,-0.0598206,4.45544,14.1562,-0.157675,-0.287175,-0.363149,0
2024-12-13 15:16:21.488,-0.0598206,4.45544,14.2711,-0.157675,-0.287175,-0.363149,0
2024-12-13 15:16:21.490,-0.107677,4.18475,14.391,-0.157675,-0.287175,-0.363149,0
2024-12-13 15:16:21.493,-0.133998,4.04357,14.4748,-0.153399,-0.253578,-0.357651,0
2024-12-13 15:16:21.495,-0.148355,3.89522,14.525,-0.148512,-0.235863,-0.352764,1
2024-12-13 15:16:21.495,-0.148355,3.89522,14.525,-0.148512,-0.235863,-0.352764,1
2024-12-13 15:16:21.500,-0.229711,3.61496,14.6519,-0.131409,-0.196158,-0.338104,0
2024-12-13 15:16:21.502,-0.287438,3.48096,14.6973,-0.114916,-0.17539,-0.331385,0
2024-12-13 15:16:21.504,-0.347258,3.34457,14.7452,-0.100255,-0.151566,-0.320389,0
2024-12-13 15:16:21.504,-0.347258,3.34457,14.7452,-0.100255,-0.151566,-0.320389,0
2024-12-13 15:16:21.509,-0.414257,3.01884,14.8193,-0.0568851,-0.106364,-0.297177,0
2024-12-13 15:16:21.512,-0.431007,2.86331,14.817,-0.0300079,-0.0788757,-0.287404,0
2024-12-13 15:16:21.514,-0.442971,2.71256,14.7978,-0.00374144,-0.0526092,-0.274576,0
2024-12-13 15:16:21.516,-0.454935,2.56182,14.738,0.0237467,-0.0300079,-0.26297,0
2024-12-13 15:16:21.519,-0.452543,2.4323,14.6207,0.0548999,-0.00435229,-0.251364,0
2024-12-13 15:16:21.521,-0.442971,2.31506,14.47,0.0836097,0.0194708,-0.24159,0
2024-12-13 15:16:21.523,-0.419043,2.2002,14.2807,0.117206,0.0396287,-0.229373,0
2024-12-13 15:16:21.526,-0.387936,2.10209,14.0701,0.144694,0.0542891,-0.222043,0
2024-12-13 15:16:21.530,-0.366401,2.03031,13.85,0.193562,0.0738362,-0.207993,0
2024-12-13 15:16:21.533,-0.354437,1.94626,13.3854,0.193562,0.0738362,-0.207993,0
2024-12-13 15:16:21.535,-0.335294,1.91755,13.1339,0.247317,0.0811663,-0.195166,0
2024-12-13 15:16:21.535,-0.335294,1.91755,13.1339,0.247317,0.0811663,-0.195166,0
2024-12-13 15:16:21.540,-0.318545,1.87448,12.5306,0.29985,0.082388,-0.188446,0
2024-12-13 15:16:21.540,-0.297009,1.87448,12.5306,0.29985,0.082388,-0.188446,0
2024-12-13 15:16:21.544,-0.227318,1.85773,11.7885,0.349328,0.0884965,-0.184781,0
2024-12-13 15:16:21.547,-0.184247,1.83619,11.3934,0.374449,0.0909399,-0.184781,0
2024-12-13 15:16:21.549,-0.155533,1.83859,10.9986,0.395829,0.0976592,-0.182949,0
2024-12-13 15:16:21.552,-0.150748,1.85533,10.6011,0.395829,0.0976592,-0.182949,0
2024-12-13 15:16:21.554,-0.143569,1.8673,10.1892,0.446529,0.104379,-0.181116,0
2024-12-13 15:16:21.556,-0.117248,1.87687,9.81087,0.446529,0.104379,-0.181116,0
2024-12-13 15:16:21.559,-0.0646062,1.87208,9.43281,0.488067,0.103768,-0.181727,0
2024-12-13 15:16:21.561,0.00478565,1.8673,9.03291,0.488067,0.103768,-0.181727,0
2024-12-13 15:16:21.563,0.0550349,1.87208,8.64258,0.521053,0.0952158,-0.184781,0
2024-12-13 15:16:21.566,0.0933201,1.89123,8.28605,0.521053,0.0952158,-0.184781,0
2024-12-13 15:16:21.568,0.145962,1.90558,7.96511,0.547319,0.0811663,-0.193944,0
2024-12-13 15:16:21.570,0.160319,1.91516,7.64447,0.547319,0.0811663,-0.193944,0
2024-12-13 15:16:21.573,0.172283,1.94148,7.30918,0.56931,0.0683385,-0.200663,0
2024-12-13 15:16:21.575,0.179462,2.00399,6.97149,0.56931,0.0683385,-0.200663,0
2024-12-13 15:16:21.577,0.153141,2.07338,6.66521,0.580305,0.0475697,-0.206161,0
2024-12-13 15:16:21.580,0.138784,2.12842,6.3993,0.580305,0.0475697,-0.206161,0
2024-12-13 15:16:21.582,0.119641,2.16431,6.16481,0.576029,0.0158057,-0.207383,0
2024-12-13 15:16:21.585,0.102891,2.21456,5.94228,0.565034,-0.000687203,-0.204328,0
2024-12-13 15:16:21.587,0.107677,2.25045,5.72662,0.554038,-0.0238994,-0.200663,0
2024-12-13 15:16:21.589,0.133998,2.2672,5.54955,0.539378,-0.0422248,-0.200663,0
2024-12-13 15:16:21.592,0.172283,2.31745,5.40598,0.524107,-0.0648262,-0.200052,0
2024-12-13 15:16:21.594,0.200997,2.35334,5.28365,0.502727,-0.0892601,-0.195777,0
2024-12-13 15:16:21.596,0.229711,2.38206,5.17358,0.502727,-0.0892601,-0.195777,0
2024-12-13 15:16:21.599,0.258425,2.41795,5.11376,0.455692,-0.136906,-0.196387,0
2024-12-13 15:16:21.603,0.332901,2.50409,5.10419,0.397662,-0.171114,-0.194555,0
2024-12-13 15:16:21.606,0.383151,2.54028,5.12333,0.366432,-0.185163,-0.192111,0
2024-12-13 15:16:21.610,0.452543,2.56899,5.24058,0.302904,-0.21143,-0.192722,0
2024-12-13 15:16:21.613,0.452543,2.56899,5.24058,0.302904,-0.21143,-0.192722,0
2024-12-13 15:16:21.615,0.493221,2.61924,5.42513,0.236322,-0.236474,-0.19089,0
2024-12-13 15:16:21.618,0.493221,2.63599,5.52802,0.236322,-0.236474,-0.193944,0
2024-12-13 15:16:21.620,0.517149,2.65274,5.61177,0.173404,-0.253578,-0.193333,0
2024-12-13 15:16:21.622,0.538684,2.67189,5.68595,0.173404,-0.253578,-0.193333,0
2024-12-13 15:16:21.625,0.533899,2.67906,5.75055,0.11293,-0.261519,-0.193944,0
2024-12-13 15:16:21.627,0.524327,2.67667,5.81994,0.11293,-0.261519,-0.193944,0
2024-12-13 15:16:21.629,0.50997,2.67906,5.90638,0.0548999,-0.257854,-0.188446,0
2024-12-13 15:16:21.632,0.483649,2.66231,6.00449,0.0548999,-0.257854,-0.188446,0
2024-12-13 15:16:21.636,0.442971,2.6001,6.18874,0.00725381,-0.227922,-0.181727,0
2024-12-13 15:16:21.636,0.409472,2.6001,6.18874,0.00725381,-0.227922,-0.181727,0
2024-12-13 15:16:21.641,0.325723,2.53789,6.33231,-0.0446682,-0.201656,-0.175619,0
2024-12-13 15:16:21.641,0.325723,2.53789,6.33231,-0.0446682,-0.201656,-0.175619,0
2024-12-13 15:16:21.646,0.229711,2.54267,6.48575,-0.0691021,-0.186996,-0.168288,0
2024-12-13 15:16:21.648,0.229711,2.54267,6.53839,-0.0691021,-0.186996,-0.168288,0
2024-12-13 15:16:21.650,0.12682,2.55703,6.61017,-0.0782648,-0.182109,-0.163402,0
2024-12-13 15:16:21.653,0.12682,2.5666,6.66999,-0.0782648,-0.182109,-0.163402,0
2024-12-13 15:16:21.655,0.0430708,2.58096,6.71306,-0.0886492,-0.187606,-0.157293,0
2024-12-13 15:16:21.658,-0.00957129,2.58574,6.76331,-0.0886492,-0.187606,-0.157293,0
2024-12-13 15:16:21.660,-0.0502493,2.6001,6.81356,-0.0898709,-0.201656,-0.149963,0
2024-12-13 15:16:21.662,-0.0957129,2.61446,6.84467,-0.0904818,-0.208375,-0.145687,0
2024-12-13 15:16:21.665,-0.131605,2.61924,6.85903,-0.0898709,-0.217538,-0.144465,0
2024-12-13 15:16:21.665,-0.131605,2.61924,6.85903,-0.0898709,-0.217538,-0.144465,0
2024-12-13 15:16:21.669,-0.174676,2.64796,6.91167,-0.0843733,-0.237696,-0.1408,0
2024-12-13 15:16:21.672,-0.198604,2.65274,6.91406,-0.081319,-0.247469,-0.1408,0
2024-12-13 15:16:21.674,-0.224925,2.65753,6.91645,-0.0807082,-0.258465,-0.140189,0
2024-12-13 15:16:21.676,-0.241675,2.64556,6.91885,-0.0807082,-0.258465,-0.137135,0
2024-12-13 15:16:21.679,-0.275175,2.62403,6.91885,-0.0764323,-0.281066,-0.13347,0
2024-12-13 15:16:21.683,-0.313759,2.63839,6.9356,-0.0788757,-0.307333,-0.130416,0
2024-12-13 15:16:21.683,-0.347258,2.65992,6.94038,-0.0788757,-0.307333,-0.130416,0
2024-12-13 15:16:21.688,-0.411865,2.67428,6.95474,-0.0788757,-0.320771,-0.129805,0
2024-12-13 15:16:21.691,-0.440578,2.68624,6.97388,-0.0868167,-0.343983,-0.12614,0
2024-12-13 15:16:21.693,-0.464507,2.69821,6.96431,-0.100255,-0.352535,-0.12614,0
2024-12-13 15:16:21.695,-0.447757,2.69821,6.9691,-0.11064,-0.358644,-0.123086,0
2024-12-13 15:16:21.698,-0.452543,2.70299,6.98824,-0.11064,-0.358644,-0.123086,0
2024-12-13 15:16:21.700,-0.464507,2.70299,7.0026,-0.127133,-0.368417,-0.121253,0
2024-12-13 15:16:21.702,-0.457328,2.70539,7.01725,-0.140571,-0.371471,-0.118199,0
2024-12-13 15:16:21.707,-0.45015,2.7341,7.08904,-0.165616,-0.376969,-0.113312,0
2024-12-13 15:16:21.707,-0.45015,2.7341,7.08904,-0.165616,-0.376969,-0.113312,0
2024-12-13 15:16:21.712,-0.452543,2.76042,7.20868,-0.191882,-0.380023,-0.109036,0
2024-12-13 15:16:21.714,-0.440578,2.76281,7.28286,-0.191882,-0.380023,-0.109036,0
2024-12-13 15:16:21.716,-0.41665,2.76281,7.35943,-0.215705,-0.371471,-0.0992627,0
2024-12-13 15:16:21.719,-0.419043,2.75563,7.40728,-0.215705,-0.371471,-0.0992627,0
2024-12-13 15:16:21.721,-0.4334,2.73649,7.46232,-0.232809,-0.3562,-0.0907108,0
2024-12-13 15:16:21.721,-0.4334,2.73649,7.46232,-0.232809,-0.3562,-0.0907108,0
2024-12-13 15:16:21.726,-0.423829,2.71735,7.60379,-0.241972,-0.328712,-0.0809373,0
2024-12-13 15:16:21.728,-0.423829,2.71735,7.60379,-0.241972,-0.328712,-0.0809373,0
2024-12-13 15:16:21.731,-0.426222,2.7006,7.73779,-0.244415,-0.301835,-0.077883,0
2024-12-13 15:16:21.733,-0.4334,2.68385,7.81436,-0.244415,-0.301835,-0.077883,0
2024-12-13 15:16:21.735,-0.45015,2.68624,7.87657,-0.235253,-0.274347,-0.0705529,0
2024-12-13 15:16:21.738,-0.469292,2.68624,7.94118,-0.235253,-0.274347,-0.0705529,0
2024-12-13 15:16:21.740,-0.471685,2.67906,7.98904,-0.215705,-0.24075,-0.0650552,0
2024-12-13 15:16:21.742,-0.462114,2.68624,8.02493,-0.20471,-0.222425,-0.0632227,0
2024-12-13 15:16:21.747,-0.452543,2.67667,8.07996,-0.176611,-0.18272,-0.0589468,0
2024-12-13 15:16:21.747,-0.452543,2.67667,8.07996,-0.176611,-0.18272,-0.0589468,0
2024-12-13 15:16:21.749,-0.459721,2.67189,8.08714,-0.176611,-0.18272,-0.0589468,0
2024-12-13 15:16:21.754,-0.457328,2.68146,8.10868,-0.143625,-0.13935,-0.0571142,0
2024-12-13 15:16:21.756,-0.457328,2.68146,8.10868,-0.105753,-0.0996445,-0.0565034,0
2024-12-13 15:16:21.759,-0.498006,2.69581,8.06082,-0.0892601,-0.0800973,-0.0528383,0
2024-12-13 15:16:21.761,-0.50997,2.71256,8.02254,-0.0684913,-0.0629936,-0.0522274,0
2024-12-13 15:16:21.764,-0.531506,2.72213,7.97947,-0.0477224,-0.0477224,-0.0516166,0
2024-12-13 15:16:21.768,-0.548256,2.76281,7.8359,-0.0116825,-0.0238994,-0.0510057,0
2024-12-13 15:16:21.771,-0.553041,2.79153,7.74736,-0.0116825,-0.0238994,-0.0510057,0
2024-12-13 15:16:21.773,-0.548256,2.82263,7.63251,0.0164165,-0.00496313,-0.0534491,0
2024-12-13 15:16:21.775,-0.565005,2.84895,7.50778,0.0164165,-0.00496313,-0.0534491,0
2024-12-13 15:16:21.780,-0.608076,2.90878,7.29243,0.038407,0.00603212,-0.0534491,0
2024-12-13 15:16:21.782,-0.612862,2.94227,7.18714,0.0481806,0.0109189,-0.0571142,0
2024-12-13 15:16:21.785,-0.617647,2.97099,7.08425,0.0512348,0.00786466,-0.062001,0
2024-12-13 15:16:21.787,-0.624826,3.00927,6.99542,0.0500131,0.00358873,-0.0656661,0
2024-12-13 15:16:21.792,-0.588933,3.08854,6.79921,0.0432938,-0.0177909,-0.0711637,0
2024-12-13 15:16:21.794,-0.569791,3.14596,6.72024,0.0432938,-0.0177909,-0.0711637,0
2024-12-13 15:16:21.797,-0.56022,3.18664,6.65564,0.0274118,-0.0465007,-0.0827698,0
2024-12-13 15:16:21.799,-0.545863,3.22493,6.61974,0.0158057,-0.0587177,-0.0882674,0
2024-12-13 15:16:21.801,-0.529113,3.27278,6.59821,0.00725381,-0.0697129,-0.0955976,0
2024-12-13 15:16:21.804,-0.533899,3.31825,6.58864,-0.00129805,-0.0794865,-0.100484,0
2024-12-13 15:16:21.808,-0.531506,3.34696,6.59821,-0.0257319,-0.0941468,-0.11148,0
2024-12-13 15:16:21.811,-0.521934,3.35175,6.6006,-0.0257319,-0.0941468,-0.11148,0
2024-12-13 15:16:21.813,-0.517149,3.37567,6.60539,-0.0422248,-0.100255,-0.123086,0
2024-12-13 15:16:21.818,-0.519542,3.40678,6.6676,-0.0507767,-0.0990336,-0.12614,0
2024-12-13 15:16:21.820,-0.493221,3.42353,6.69631,-0.0611611,-0.0959794,-0.134692,0
2024-12-13 15:16:21.822,-0.483649,3.45464,6.72981,-0.0611611,-0.0959794,-0.134692,0
2024-12-13 15:16:21.825,-0.471685,3.47378,6.76331,-0.0715455,-0.0862058,-0.141411,0
2024-12-13 15:16:21.827,-0.452543,3.50249,6.78963,-0.0739889,-0.0800973,-0.145076,0
2024-12-13 15:16:21.832,-0.426222,3.57667,6.81835,-0.0788757,-0.0660479,-0.150574,0
2024-12-13 15:16:21.834,-0.3999,3.60778,6.81596,-0.0788757,-0.0660479,-0.150574,0
2024-12-13 15:16:21.837,-0.387936,3.65833,6.83031,-0.0843733,-0.0501658,-0.156071,0
2024-12-13 15:16:21.839,-0.404686,3.69183,6.85185,-0.0862058,-0.0440574,-0.156682,0
2024-12-13 15:16:21.844,-0.3999,3.7325,6.87817,-0.0898709,-0.0361163,-0.159737,0
2024-12-13 15:16:21.844,-0.3999,3.7325,6.87817,-0.0898709,-0.0361163,-0.159737,0
2024-12-13 15:16:21.848,-0.359223,3.80429,6.89492,-0.100255,-0.0397814,-0.16218,0
2024-12-13 15:16:21.851,-0.342473,3.84257,6.88535,-0.100255,-0.0397814,-0.16218,0
2024-12-13 15:16:21.853,-0.32333,3.88564,6.9021,-0.11064,-0.0458899,-0.166456,0
2024-12-13 15:16:21.855,-0.301795,3.92632,6.92363,-0.121635,-0.0501658,-0.167678,0
2024-12-13 15:16:21.860,-0.263211,3.97897,6.95952,-0.136295,-0.0678804,-0.172564,0
2024-12-13 15:16:21.862,-0.239282,3.99332,7.0026,-0.146069,-0.077654,-0.173786,0
2024-12-13 15:16:21.867,-0.222533,3.98375,7.14886,-0.159507,-0.0904818,-0.175008,0
2024-12-13 15:16:21.870,-0.153141,4.02204,7.235,-0.171114,-0.100866,-0.175619,0
2024-12-13 15:16:21.872,-0.11007,4.01964,7.29721,-0.19738,-0.122246,-0.181727,0
2024-12-13 15:16:21.877,-0.0502493,4.03161,7.47667,-0.229144,-0.141182,-0.189057,0
2024-12-13 15:16:21.879,-0.0502493,4.04836,7.6349,-0.24075,-0.149123,-0.189668,0
2024-12-13 15:16:21.881,-0.0574277,4.06032,7.74497,-0.24075,-0.149123,-0.189668,0
2024-12-13 15:16:21.884,-0.0143569,4.05075,7.81197,-0.259076,-0.154621,-0.192722,0
2024-12-13 15:16:21.886,-0.0143569,4.04357,7.89572,-0.271903,-0.156453,-0.195166,0
2024-12-13 15:16:21.891,0.0478565,4.01486,8.08236,-0.281066,-0.152788,-0.195166,0
2024-12-13 15:16:21.891,0.0478565,4.01486,8.08236,-0.281066,-0.152788,-0.195166,0
2024-12-13 15:16:21.895,0.0837488,3.98854,8.28605,-0.315274,-0.143015,-0.196998,0
2024-12-13 15:16:21.898,0.0837488,3.967,8.40569,-0.315274,-0.143015,-0.196998,0
2024-12-13 15:16:21.903,-0.00717847,3.94547,8.59472,-0.34154,-0.121635,-0.196998,0
2024-12-13 15:16:21.903,-0.00717847,3.94547,8.59472,-0.34154,-0.121635,-0.196998,0
2024-12-13 15:16:21.907,-0.0550349,3.90957,8.76012,-0.356811,-0.10331,-0.19089,0
2024-12-13 15:16:21.910,-0.066999,3.92154,8.86541,-0.360476,-0.0965902,-0.187225,0
2024-12-13 15:16:21.914,-0.102891,3.91675,9.01376,-0.374526,-0.0904818,-0.182338,0
2024-12-13 15:16:21.914,-0.102891,3.91675,9.01376,-0.374526,-0.0904818,-0.182338,0
2024-12-13 15:16:21.919,-0.138784,3.89522,9.15494,-0.383078,-0.0843733,-0.171953,0
2024-12-13 15:16:21.919,-0.138784,3.89522,9.15494,-0.383078,-0.0843733,-0.171953,0
2024-12-13 15:16:21.924,-0.133998,3.85454,9.35145,-0.391019,-0.0721563,-0.160347,0
2024-12-13 15:16:21.924,-0.133998,3.85454,9.35145,-0.391019,-0.0721563,-0.160347,0
2024-12-13 15:16:21.928,-0.181855,3.85932,9.59791,-0.390408,-0.057496,-0.149352,0
2024-12-13 15:16:21.933,-0.256032,3.85454,9.85664,-0.384299,-0.0385597,-0.131638,0
2024-12-13 15:16:21.934,-0.256032,3.85454,9.85664,-0.378191,-0.0287862,-0.121864,0
2024-12-13 15:16:21.935,-0.270389,3.86172,9.98585,-0.378191,-0.0287862,-0.121864,0
2024-12-13 15:16:21.940,-0.32333,3.85454,10.1868,-0.361698,-0.00984991,-0.107815,0
2024-12-13 15:16:21.940,-0.32333,3.85454,10.1868,-0.361698,-0.00984991,-0.107815,0
2024-12-13 15:16:21.945,-0.385544,3.87607,10.3519,-0.34154,0.010308,-0.0894891,0
2024-12-13 15:16:21.947,-0.404686,3.89282,10.4192,-0.328712,0.0206925,-0.0815481,0
2024-12-13 15:16:21.947,-0.404686,3.89282,10.4192,-0.328712,0.0206925,-0.0815481,0
2024-12-13 15:16:21.952,-0.411865,3.86411,10.5724,-0.303057,0.0420721,-0.0656661,0
2024-12-13 15:16:21.954,-0.411865,3.86411,10.6514,-0.286564,0.0542891,-0.0595576,0
2024-12-13 15:16:21.954,-0.426222,3.86172,10.6514,-0.286564,0.0542891,-0.0595576,0
2024-12-13 15:16:21.959,-0.4669,3.88325,10.7997,-0.252356,0.0756687,-0.0442864,0
2024-12-13 15:16:21.961,-0.483649,3.92393,10.8882,-0.235863,0.0854423,-0.0375671,0
2024-12-13 15:16:21.964,-0.500399,3.96222,10.9579,-0.218149,0.0970484,-0.0314586,0
2024-12-13 15:16:21.964,-0.500399,3.96222,10.9579,-0.218149,0.0970484,-0.0314586,0
2024-12-13 15:16:21.964,-0.500399,3.96222,10.9579,-0.218149,0.0970484,-0.0314586,0
2024-12-13 15:16:21.964,-0.500399,3.96222,10.9579,-0.218149,0.0970484,-0.0314586,0
2024-12-13 15:16:21.968,-0.50997,4.03879,11.0704,-0.174779,0.117206,-0.0149658,0
2024-12-13 15:16:21.968,-0.50997,4.03879,11.0704,-0.174779,0.117206,-0.0149658,0
2024-12-13 15:16:21.976,-0.507577,4.07468,11.1159,-0.174779,0.117206,-0.0149658,0
2024-12-13 15:16:21.980,-0.514756,4.18235,11.1852,-0.0642153,0.177069,0.00458135,0
2024-12-13 15:16:21.985,-0.567398,4.2999,11.1852,-0.0226777,0.194784,0.010079,0
2024-12-13 15:16:21.985,-0.567398,4.2999,11.1852,-0.0226777,0.194784,0.010079,0
2024-12-13 15:16:21.990,-0.660718,4.39562,11.1254,0.000534491,0.202114,0.0149658,0
2024-12-13 15:16:21.992,-0.691825,4.44347,11.0943,0.038407,0.205168,0.0167983,0
2024-12-13 15:16:21.994,-0.739681,4.48654,11.0536,0.0591758,0.20639,0.0210742,0
2024-12-13 15:16:21.994,-0.739681,4.48654,11.0536,0.0591758,0.20639,0.0210742,0
2024-12-13 15:16:21.999,-0.799502,4.57508,11.0297,0.0939941,0.19906,0.025961,0
2024-12-13 15:16:22.001,-0.799502,4.57508,11.0297,0.0939941,0.19906,0.025961,0
2024-12-13 15:16:22.004,-0.857229,4.68754,10.9986,0.127591,0.181345,0.0357346,0
2024-12-13 15:16:22.009,-0.871586,4.81466,11.0345,0.159355,0.153246,0.0455081,0
2024-12-13 15:16:22.009,-0.871586,4.81466,11.0345,0.159355,0.153246,0.0455081,0
2024-12-13 15:16:22.011,-0.88355,4.87448,11.0656,0.159355,0.153246,0.0455081,0
2024-12-13 15:16:22.013,-0.885943,4.91276,11.1135,0.192341,0.122704,0.0534491,0
2024-12-13 15:16:22.016,-0.876371,4.95583,11.1517,0.207001,0.108044,0.0565034,0
2024-12-13 15:16:22.020,-0.857229,5.09223,11.2403,0.240597,0.0927724,0.0674986,0
2024-12-13 15:16:22.020,-0.845265,5.09223,11.2403,0.240597,0.0927724,0.0674986,0
2024-12-13 15:16:22.023,-0.85005,5.13769,11.2953,0.240597,0.0927724,0.0674986,0
2024-12-13 15:16:22.027,-0.890728,5.2358,11.3599,0.274194,0.0726145,0.0809373,0
2024-12-13 15:16:22.030,-0.876371,5.29322,11.391,0.305347,0.0512348,0.0955976,0
2024-12-13 15:16:22.032,-0.876371,5.29322,11.4245,0.305347,0.0512348,0.0955976,0
2024-12-13 15:16:22.034,-0.893121,5.41795,11.4772,0.338944,0.0286335,0.112701,0
2024-12-13 15:16:22.037,-0.893121,5.45623,11.5301,0.338944,0.0286335,0.112701,0
2024-12-13 15:16:22.039,-0.878764,5.4993,11.5923,0.366432,0.010308,0.131027,0
2024-12-13 15:16:22.041,-0.864407,5.54955,11.6426,0.379947,0.00603212,0.142709,0
2024-12-13 15:16:22.044,-0.854836,5.61416,11.6809,0.393386,0.00236703,0.154315,0
2024-12-13 15:16:22.049,-0.893121,5.74816,11.6856,0.40377,-0.0019089,0.167754,0
2024-12-13 15:16:22.051,-0.897907,5.80319,11.7144,0.421485,-0.00435229,0.192799,0
2024-12-13 15:16:22.053,-0.897907,5.8343,11.7335,0.421485,-0.00435229,0.192799,0
2024-12-13 15:16:22.056,-0.917049,5.86541,11.7287,0.431258,-0.00862822,0.219065,0
2024-12-13 15:16:22.058,-0.907478,5.92313,11.7239,0.430647,-0.00801737,0.229449,0
2024-12-13 15:16:22.063,-0.885943,6.05952,11.7215,0.422095,0.00175619,0.248997,0
2024-12-13 15:16:22.065,-0.854836,6.12652,11.7359,0.416598,0.0096972,0.25877,0
2024-12-13 15:16:22.067,-0.835394,6.18395,11.7359,0.405603,0.0231358,0.267322,0
2024-12-13 15:16:22.067,-0.835394,6.18395,11.7359,0.405603,0.0231358,0.267322,0
2024-12-13 15:16:22.074,-0.758824,6.2677,11.7383,0.361545,0.0756687,0.283204,0
2024-12-13 15:16:22.074,-0.727717,6.2677,11.7383,0.361545,0.0756687,0.283204,0
2024-12-13 15:16:22.077,-0.706182,6.29402,11.7431,0.361545,0.0756687,0.283204,0
2024-12-13 15:16:22.082,-0.612862,6.32273,11.767,0.320008,0.111709,0.288091,0
2024-12-13 15:16:22.084,-0.584148,6.33948,11.822,0.267475,0.140419,0.289313,0
2024-12-13 15:16:22.086,-0.553041,6.34906,11.9273,0.267475,0.140419,0.289313,0
2024-12-13 15:16:22.089,-0.521934,6.33709,12.047,0.211888,0.170961,0.289313,0
2024-12-13 15:16:22.091,-0.481256,6.32991,12.1693,0.211888,0.170961,0.289313,0
2024-12-13 15:16:22.093,-0.438186,6.32752,12.3009,0.160576,0.205779,0.282593,0
2024-12-13 15:16:22.098,-0.397508,6.33709,12.5976,0.11232,0.243041,0.275874,0
2024-12-13 15:16:22.098,-0.397508,6.33709,12.5976,0.11232,0.243041,0.275874,0
2024-12-13 15:16:22.100,-0.368794,6.34427,12.775,0.11232,0.243041,0.275874,0
2024-12-13 15:16:22.103,-0.34008,6.34427,12.9449,0.0738362,0.273583,0.259381,0
2024-12-13 15:16:22.105,-0.30658,6.35145,13.1148,0.0738362,0.273583,0.259381,0
2024-12-13 15:16:22.108,-0.285045,6.36341,13.2706,0.0457372,0.29985,0.234947,0
2024-12-13 15:16:22.110,-0.285045,6.36341,13.4381,0.0457372,0.29985,0.234947,0
2024-12-13 15:16:22.115,-0.270389,6.38973,13.7495,0.030466,0.312677,0.190355,0
2024-12-13 15:16:22.115,-0.270389,6.38973,13.7495,0.030466,0.312677,0.190355,0
2024-12-13 15:16:22.119,-0.241675,6.41366,14.0294,0.0359636,0.298017,0.154926,0
2024-12-13 15:16:22.119,-0.241675,6.41366,14.0294,0.0359636,0.298017,0.154926,0
2024-12-13 15:16:22.124,-0.27996,6.40888,14.2232,0.0524565,0.269307,0.116977,0
2024-12-13 15:16:22.126,-0.330509,6.38973,14.2783,0.0524565,0.269307,0.116977,0
2024-12-13 15:16:22.129,-0.371187,6.35623,14.3097,0.0762796,0.230213,0.0797156,0
2024-12-13 15:16:22.131,-0.385544,6.31077,14.3312,0.0762796,0.230213,0.0797156,0
2024-12-13 15:16:22.133,-0.380758,6.26531,14.3408,0.0878856,0.183789,0.0503949,0
2024-12-13 15:16:22.136,-0.349651,6.20549,14.348,0.104989,0.158133,0.0375671,0
2024-12-13 15:16:22.140,-0.275175,6.07149,14.3551,0.114152,0.0933833,0.0119115,0
2024-12-13 15:16:22.140,-0.215354,6.07149,14.3551,0.114152,0.0933833,0.0119115,0
2024-12-13 15:16:22.145,-0.136391,5.88933,14.3169,0.106822,0.0096972,-0.0143549,0
2024-12-13 15:16:22.147,-0.0741775,5.76969,14.307,0.106822,0.0096972,-0.0143549,0
2024-12-13 15:16:22.150,0.0239282,5.64287,14.3192,0.0836097,-0.0703238,-0.0320695,0
2024-12-13 15:16:22.155,0.165105,5.3677,14.4628,0.0487914,-0.144847,-0.0424539,0
2024-12-13 15:16:22.155,0.165105,5.3677,14.4628,0.0487914,-0.144847,-0.0424539,0
2024-12-13 15:16:22.159,0.272782,5.06351,14.7021,0.0280226,-0.183331,-0.0436756,0
2024-12-13 15:16:22.162,0.328116,4.91276,14.8481,-0.0159584,-0.246248,-0.0406213,0
2024-12-13 15:16:22.164,0.395115,4.76172,14.9943,-0.0324513,-0.26946,-0.0393996,0
2024-12-13 15:16:22.166,0.438186,4.61815,15.1211,-0.0507767,-0.279844,-0.0351237,0
2024-12-13 15:16:22.169,0.45015,4.4674,15.2384,-0.0666587,-0.279844,-0.0314586,0
2024-12-13 15:16:22.173,0.486042,4.09143,15.5139,-0.0898709,-0.248691,-0.0137441,0
2024-12-13 15:16:22.176,0.457328,3.90479,15.6694,-0.0898709,-0.248691,-0.0137441,0
2024-12-13 15:16:22.178,0.428614,3.72533,15.8824,-0.0953685,-0.178444,0.00397051,0
2024-12-13 15:16:22.180,0.390329,3.55035,16.0908,-0.0953685,-0.178444,0.00397051,0
2024-12-13 15:16:22.183,0.330509,3.38046,16.2559,-0.0715455,-0.0837624,0.0308478,0
2024-12-13 15:16:22.185,0.253639,3.20818,16.3732,-0.0489441,-0.0263428,0.0516166,0
2024-12-13 15:16:22.190,0.16989,2.85853,16.5263,0.0176382,0.103768,0.0894891,0
2024-12-13 15:16:22.192,-0.0478565,2.71256,16.5287,0.0176382,0.103768,0.0894891,0
2024-12-13 15:16:22.197,-0.112463,2.54507,16.4904,0.173404,0.323062,0.154315,1
2024-12-13 15:16:22.197,-0.143569,2.35573,16.4067,0.173404,0.323062,0.154315,1
2024-12-13 15:16:22.202,-0.196211,2.09252,16.0549,0.307791,0.465389,0.196464,0
2024-12-13 15:16:22.204,-0.196211,2.09252,15.7938,0.307791,0.465389,0.196464,0
2024-12-13 15:16:22.209,-0.385544,1.91516,15.1523,0.549152,0.662082,0.250218,0
2024-12-13 15:16:22.211,-0.486042,1.91755,14.8122,0.549152,0.662082,0.250218,0
2024-12-13 15:16:22.213,-0.596112,1.92233,14.4174,0.720189,0.764781,0.288091,0
2024-12-13 15:16:22.216,-0.675075,1.92951,13.9409,0.720189,0.764781,0.288091,0
2024-12-13 15:16:22.218,-0.727717,1.93669,13.4189,0.805708,0.84358,0.318633,0
2024-12-13 15:16:22.221,-0.787538,1.94148,12.8827,0.887561,0.84358,0.334515,0
2024-12-13 15:16:22.223,-0.8668,1.94387,12.2937,1.03783,0.906497,0.349176,0
2024-12-13 15:16:22.225,-0.940978,1.95823,11.6976,1.03783,0.906497,0.349176,0
2024-12-13 15:16:22.228,-0.998405,1.9657,11.0991,1.1038,0.932764,0.376664,0
2024-12-13 15:16:22.230,-1.05105,1.97288,10.4791,1.16305,0.975523,0.387659,0
2024-12-13 15:16:22.232,-1.11087,2.0016,9.85185,1.26506,0.991405,0.3956,0
2024-12-13 15:16:22.235,-1.16351,2.03988,9.22194,1.30538,1.00423,0.40293,0
2024-12-13 15:16:22.237,-1.16351,2.03988,9.22194,1.30538,1.00423,0.40293,0
2024-12-13 15:16:22.239,-1.2999,2.15474,7.99621,1.35425,1.01095,0.415758,0
2024-12-13 15:16:22.242,-1.37169,2.24088,7.4001,1.36647,1.00912,0.420645,0
2024-12-13 15:16:22.244,-1.4342,2.32463,6.84228,1.36891,0.998735,0.423088,0
2024-12-13 15:16:22.246,-1.4677,2.38206,6.31077,1.35975,0.976745,0.42431,0
2024-12-13 15:16:22.249,-1.45813,2.42991,5.81037,1.34325,0.947424,0.420645,0
2024-12-13 15:16:22.251,-1.44855,2.48973,5.32911,1.31515,0.912606,0.418201,0
2024-12-13 15:16:22.253,-1.47488,2.57617,4.88884,1.27972,0.872901,0.411482,0
2024-12-13 15:16:22.256,-1.52991,2.67667,4.51286,1.23391,0.827698,0.40293,0
2024-12-13 15:16:22.258,-1.58973,2.78674,4.16561,1.17955,0.776998,0.393157,0
2024-12-13 15:16:22.263,-1.64237,3.00927,3.61974,1.0531,0.669412,0.373609,0
2024-12-13 15:16:22.263,-1.64237,3.00927,3.61974,1.0531,0.669412,0.373609,0
2024-12-13 15:16:22.269,-1.67109,3.27278,3.25843,0.907719,0.550297,0.354673,0
2024-12-13 15:16:22.270,-1.67109,3.27278,3.25843,0.907719,0.550297,0.354673,0
2024-12-13 15:16:22.272,-1.65912,3.47139,3.08584,0.756229,0.432404,0.33085,0
2024-12-13 15:16:22.273,-1.65912,3.47139,3.08584,0.756229,0.432404,0.33085,0
2024-12-13 15:16:22.277,-1.63759,3.61974,3.01406,0.602295,0.320008,0.306416,0
2024-12-13 15:16:22.277,-1.63759,3.61974,3.01406,0.602295,0.320008,0.306416,0
2024-12-13 15:16:22.282,-1.55862,3.699,3.09571,0.453249,0.212498,0.281372,0
2024-12-13 15:16:22.284,-1.5012,3.70379,3.18903,0.383612,0.160576,0.262435,0
2024-12-13 15:16:22.286,-1.44377,3.7014,3.31825,0.312067,0.107433,0.246553,0
2024-12-13 15:16:22.289,-1.37886,3.70379,3.49053,0.24243,0.058565,0.227617,0
2024-12-13 15:16:22.294,-1.30229,3.67029,3.90718,0.122093,-0.0281753,0.18669,0
2024-12-13 15:16:22.294,-1.25922,3.67029,3.90718,0.122093,-0.0281753,0.18669,0
2024-12-13 15:16:22.296,-1.23529,3.61496,4.11775,0.0689494,-0.0636045,0.167754,0
2024-12-13 15:16:22.298,-1.1994,3.55035,4.3334,0.0188599,-0.0929251,0.149429,0
2024-12-13 15:16:22.301,-1.17787,3.4666,4.54397,-0.0245102,-0.113694,0.131638,0
2024-12-13 15:16:22.303,-1.16112,3.35414,4.74257,-0.0629936,-0.124689,0.114534,0
2024-12-13 15:16:22.305,-1.13958,3.24885,4.91994,-0.0941468,-0.131409,0.0968193,0
2024-12-13 15:16:22.308,-1.08455,3.15793,5.09701,-0.0941468,-0.131409,0.0968193,0
2024-12-13 15:16:22.310,-1.01276,3.07149,5.27408,-0.147291,-0.134463,0.062001,0
2024-12-13 15:16:22.312,-0.957727,3.0021,5.44188,-0.16867,-0.135684,0.046119,0
2024-12-13 15:16:22.315,-0.914656,2.95185,5.60937,-0.188828,-0.13935,0.0296261,0
2024-12-13 15:16:22.317,-0.881157,2.90878,5.75055,-0.201045,-0.138739,0.0137441,0
2024-12-13 15:16:22.317,-0.881157,2.90878,5.75055,-0.201045,-0.138739,0.0137441,0
2024-12-13 15:16:22.317,-0.881157,2.90878,5.75055,-0.201045,-0.138739,0.0137441,0
2024-12-13 15:16:22.326,-0.837787,2.77717,6.23899,-0.240139,-0.10392,-0.0290152,0
2024-12-13 15:16:22.329,-0.837787,2.74846,6.32513,-0.240139,-0.10392,-0.0290152,0
2024-12-13 15:16:22.331,-0.813859,2.70539,6.4328,-0.251745,-0.0697129,-0.0369563,0
2024-12-13 15:16:22.334,-0.766002,2.64317,6.54796,-0.2548,-0.0513875,-0.041843,0
2024-12-13 15:16:22.338,-0.708575,2.56899,6.64128,-0.260297,-0.0196235,-0.0516166,0
2024-12-13 15:16:22.338,-0.663111,2.48973,6.72742,-0.260297,-0.0196235,-0.0516166,0
2024-12-13 15:16:22.343,-0.596112,2.38684,6.88535,-0.257854,0.0109189,-0.0632227,0
2024-12-13 15:16:22.343,-0.596112,2.38684,6.88535,-0.257854,0.0109189,-0.0632227,0
2024-12-13 15:16:22.348,-0.591326,2.34138,7.09143,-0.255411,0.042683,-0.0723854,0
2024-12-13 15:16:22.348,-0.591326,2.34138,7.09143,-0.255411,0.042683,-0.0723854,0
2024-12-13 15:16:22.352,-0.648754,2.34856,7.27328,-0.242583,0.0829989,-0.0748288,0
2024-12-13 15:16:22.352,-0.648754,2.34856,7.27328,-0.242583,0.0829989,-0.0748288,0
2024-12-13 15:16:22.357,-0.691825,2.39402,7.38335,-0.224257,0.125758,-0.0723854,0
2024-12-13 15:16:22.357,-0.691825,2.39402,7.38335,-0.224257,0.125758,-0.0723854,0
2024-12-13 15:16:22.359,-0.706182,2.3988,7.40967,-0.213873,0.147749,-0.0705529,0
2024-12-13 15:16:22.359,-0.706182,2.3988,7.40967,-0.213873,0.147749,-0.0705529,0
2024-12-13 15:16:22.367,-0.751645,2.43709,7.42164,-0.187606,0.194784,-0.0595576,0
2024-12-13 15:16:22.369,-0.768395,2.4323,7.4025,-0.187606,0.205779,-0.0583359,0
2024-12-13 15:16:22.371,-0.773181,2.42752,7.37617,-0.171724,0.219829,-0.0571142,0
2024-12-13 15:16:22.374,-0.780359,2.43948,7.34028,-0.163783,0.233878,-0.0528383,0
2024-12-13 15:16:22.378,-0.804287,2.47298,7.28046,-0.153399,0.253425,-0.0473407,0
2024-12-13 15:16:22.381,-0.833001,2.49452,7.235,-0.149734,0.261366,-0.0442864,0
2024-12-13 15:16:22.383,-0.862014,2.50648,7.17278,-0.144236,0.269918,-0.041843,0
2024-12-13 15:16:22.383,-0.862014,2.50648,7.17278,-0.144236,0.269918,-0.041843,0
2024-12-13 15:16:22.388,-0.936192,2.5666,7.08664,-0.138739,0.269307,-0.0314586,0
2024-12-13 15:16:22.390,-0.969691,2.59053,7.04836,-0.138739,0.269307,-0.0314586,0
2024-12-13 15:16:22.392,-1.0008,2.59292,7.00977,-0.136295,0.26381,-0.0186308,0
2024-12-13 15:16:22.395,-1.01515,2.62164,6.97149,-0.133241,0.258923,-0.0131332,0
2024-12-13 15:16:22.396,-1.0008,2.59292,6.97149,-0.135074,0.251593,-0.00824644,0
2024-12-13 15:16:22.401,-1.04148,2.65753,6.92842,-0.13263,0.2351,0.00824644,0
2024-12-13 15:16:22.402,-1.05823,2.67906,6.8997,-0.13263,0.2351,0.00824644,0
2024-12-13 15:16:22.404,-1.05105,2.67906,6.90688,-0.129576,0.223494,0.0155766,0
2024-12-13 15:16:22.404,-1.05105,2.67906,6.90688,-0.129576,0.223494,0.0155766,0
2024-12-13 15:16:22.407,-1.04387,2.68146,6.90928,-0.129576,0.209444,0.0216851,0
2024-12-13 15:16:22.411,-1.04865,2.7006,6.90449,-0.121635,0.182567,0.0345129,0
2024-12-13 15:16:22.412,-1.04865,2.72692,6.90449,-0.115526,0.164242,0.0375671,0
2024-12-13 15:16:22.414,-1.05105,2.75563,6.90688,-0.115526,0.164242,0.0375671,0
2024-12-13 15:16:22.416,-1.06062,2.78913,6.90928,-0.109418,0.14897,0.0430647,0
2024-12-13 15:16:22.421,-1.08694,2.81067,6.85663,-0.0959794,0.11965,0.0522274,0
2024-12-13 15:16:22.423,-1.08215,2.88485,6.82792,-0.0862058,0.108654,0.0552817,0
2024-12-13 15:16:22.423,-1.08215,2.88485,6.82792,-0.0862058,0.108654,0.0552817,0
2024-12-13 15:16:22.425,-1.1013,2.89442,6.81117,-0.0788757,0.100713,0.0595576,0
2024-12-13 15:16:22.428,-1.11805,2.91595,6.81356,-0.0660479,0.0982701,0.0626118,0
2024-12-13 15:16:22.430,-1.12762,2.94706,6.8016,-0.0550526,0.0927724,0.0687203,0
2024-12-13 15:16:22.432,-1.11565,2.97099,6.75135,-0.0440574,0.0915507,0.0717745,0
2024-12-13 15:16:22.435,-1.09412,2.99492,6.69871,-0.0440574,0.0921616,0.0748288,0
2024-12-13 15:16:22.437,-1.09651,3.00688,6.6341,-0.0245102,0.0933833,0.0772722,0
2024-12-13 15:16:22.440,-1.09651,3.0332,6.56232,-0.0147367,0.0982701,0.0784939,0
2024-12-13 15:16:22.442,-1.08694,3.05952,6.48575,-0.00740652,0.0994917,0.0784939,0
2024-12-13 15:16:22.444,-1.0989,3.08345,6.41605,-0.00740652,0.0994917,0.0784939,0
2024-12-13 15:16:22.447,-1.12283,3.10768,6.34666,-0.00129805,0.106822,0.0772722,0
2024-12-13 15:16:22.449,-1.15633,3.13639,6.30359,0.000534491,0.108044,0.0760505,0
2024-12-13 15:16:22.451,-1.18265,3.17468,6.2677,0.00114534,0.111709,0.0736071,0
2024-12-13 15:16:22.454,-1.20897,3.21296,6.22702,0.00236703,0.116595,0.0760505,0
2024-12-13 15:16:22.458,-1.25204,3.2345,6.22224,-7.63559e-05,0.122704,0.0748288,0
2024-12-13 15:16:22.458,-1.29033,3.2656,6.20788,-7.63559e-05,0.122704,0.0748288,0
2024-12-13 15:16:22.461,-1.32861,3.31346,6.19352,-7.63559e-05,0.122704,0.0748288,0
2024-12-13 15:16:22.465,-1.37408,3.35175,6.19831,-0.013515,0.123926,0.0791047,0
2024-12-13 15:16:22.465,-1.41506,3.39721,6.19831,-0.013515,0.123926,0.0791047,0
2024-12-13 15:16:22.468,-1.44138,3.4355,6.20788,-0.013515,0.123926,0.0791047,0
2024-12-13 15:16:22.470,-1.47727,3.4666,6.2342,-0.0263428,0.121482,0.0839915,0
2024-12-13 15:16:22.473,-1.52991,3.49053,6.24856,-0.0263428,0.121482,0.0839915,0
2024-12-13 15:16:22.473,-1.52991,3.49053,6.24856,-0.0263428,0.121482,0.0839915,0
2024-12-13 15:16:22.477,-1.62084,3.54796,6.28684,-0.0422248,0.114763,0.0962084,0
2024-12-13 15:16:22.480,-1.6663,3.55753,6.33231,-0.0556635,0.109265,0.101706,0
2024-12-13 15:16:22.482,-1.68544,3.55753,6.38016,-0.0556635,0.1056,0.107204,0
2024-12-13 15:16:22.484,-1.69262,3.55992,6.42563,-0.0678804,0.102546,0.113312,0
2024-12-13 15:16:22.487,-1.71655,3.57667,6.45942,-0.0678804,0.102546,0.11881,0
2024-12-13 15:16:22.489,-1.72852,3.61496,6.50489,-0.0831516,0.0982701,0.123697,0
2024-12-13 15:16:22.489,-1.72852,3.61496,6.50489,-0.0831516,0.0982701,0.123697,0
2024-12-13 15:16:22.494,-1.75962,3.64128,6.53121,-0.0972011,0.094605,0.132248,0
2024-12-13 15:16:22.494,-1.75962,3.64128,6.53121,-0.0972011,0.094605,0.132248,0
2024-12-13 15:16:22.498,-1.72134,3.63889,6.59821,-0.115526,0.086664,0.139655,0
2024-12-13 15:16:22.498,-1.72134,3.63889,6.59821,-0.115526,0.086664,0.139655,0
2024-12-13 15:16:22.503,-1.6998,3.65115,6.72024,-0.133852,0.0750579,0.143931,0
2024-12-13 15:16:22.503,-1.6998,3.65115,6.72024,-0.133852,0.0750579,0.143931,0
2024-12-13 15:16:22.508,-1.66869,3.64367,6.91406,-0.150345,0.0573433,0.146985,0
2024-12-13 15:16:22.508,-1.66869,3.64367,6.91406,-0.150345,0.0573433,0.146985,0
2024-12-13 15:16:22.513,-1.64237,3.63649,7.07229,-0.160729,0.0439046,0.146985,0
2024-12-13 15:16:22.513,-1.64237,3.63649,7.07229,-0.160729,0.0439046,0.146985,0
2024-12-13 15:16:22.517,-1.62084,3.62214,7.18953,-0.168059,0.0402396,0.14332,0
2024-12-13 15:16:22.517,-1.61127,3.60539,7.18953,-0.168059,0.0402396,0.14332,0
2024-12-13 15:16:22.522,-1.58495,3.60299,7.30918,-0.170503,0.0396287,0.140266,0
2024-12-13 15:16:22.524,-1.5658,3.60539,7.35464,-0.170503,0.0371853,0.13599,0
2024-12-13 15:16:22.527,-1.52991,3.60778,7.40728,-0.173557,0.030466,0.13347,0
2024-12-13 15:16:22.527,-1.52991,3.60778,7.40728,-0.173557,0.030466,0.13347,0
2024-12-13 15:16:22.531,-1.47009,3.60778,7.47667,-0.174168,0.0261901,0.124918,0
2024-12-13 15:16:22.531,-1.47009,3.60778,7.47667,-0.174168,0.0261901,0.124918,0
2024-12-13 15:16:22.536,-1.41506,3.66311,7.54846,-0.179665,0.0261901,0.113312,0
2024-12-13 15:16:22.536,-1.41506,3.66311,7.54846,-0.179665,0.0261901,0.113312,0
2024-12-13 15:16:22.538,-1.41506,3.67747,7.58465,-0.181498,0.0280226,0.110258,0
2024-12-13 15:16:22.541,-1.41266,3.68704,7.64208,-0.181498,0.0292443,0.102928,0
2024-12-13 15:16:22.543,-1.42223,3.69661,7.68993,-0.182109,0.0341311,0.0955976,0
2024-12-13 15:16:22.546,-1.44138,3.71336,7.71625,-0.184552,0.0359636,0.0894891,0
2024-12-13 15:16:22.548,-1.45573,3.72772,7.74258,-0.185163,0.0377962,0.0852132,0
2024-12-13 15:16:22.550,-1.44616,3.74686,7.78325,-0.185163,0.0377962,0.0803264,0
2024-12-13 15:16:22.553,-1.42463,3.7684,7.81915,-0.189439,0.0414613,0.0748288,0
2024-12-13 15:16:22.555,-1.41506,3.79711,7.84307,-0.194326,0.0414613,0.0681095,0
2024-12-13 15:16:22.557,-1.39322,3.83061,7.87657,-0.194937,0.042683,0.0595576,0
2024-12-13 15:16:22.560,-1.37647,3.84736,7.91007,-0.194937,0.042683,0.0595576,0
2024-12-13 15:16:22.562,-1.38365,3.87607,7.95075,-0.204099,0.0451263,0.0436756,0
2024-12-13 15:16:22.564,-1.36211,3.93589,8.00339,-0.206543,0.042683,0.033902,0
2024-12-13 15:16:22.567,-1.34536,3.98136,8.04886,-0.210208,0.0420721,0.0235176,0
2024-12-13 15:16:22.569,-1.34536,3.98136,8.11107,-0.210208,0.0420721,0.0235176,0
2024-12-13 15:16:22.571,-1.37169,4.02921,8.19033,-0.214484,0.038407,0.0064139,0
2024-12-13 15:16:22.574,-1.36451,4.05075,8.27887,-0.214484,0.038407,0.0064139,0
2024-12-13 15:16:22.576,-1.35972,4.05793,8.39133,-0.215095,0.0451263,-0.0125224,0
2024-12-13 15:16:22.576,-1.35972,4.05793,8.39133,-0.215095,0.0451263,-0.0125224,0
2024-12-13 15:16:22.581,-1.34058,4.07229,8.48465,-0.213873,0.0603975,-0.0271827,0
2024-12-13 15:16:22.583,-1.32861,4.1345,8.62822,-0.213262,0.0683385,-0.0326803,0
2024-12-13 15:16:22.586,-1.32861,4.1345,8.7027,-0.213262,0.0762796,-0.0406213,0
2024-12-13 15:16:22.588,-1.29033,4.22812,8.76012,-0.21204,0.082388,-0.0473407,0
2024-12-13 15:16:22.588,-1.29033,4.22812,8.76012,-0.21204,0.082388,-0.0473407,0
2024-12-13 15:16:22.590,-1.27837,4.2688,8.80798,-0.208986,0.0872748,-0.0528383,0
2024-12-13 15:16:22.595,-1.28315,4.35254,8.89412,-0.20471,0.0933833,-0.0613902,0
2024-12-13 15:16:22.597,-1.2999,4.38604,8.92523,-0.202267,0.0958267,-0.0644444,0
2024-12-13 15:16:22.597,-1.2999,4.38604,8.92523,-0.202267,0.0958267,-0.0644444,0
2024-12-13 15:16:22.602,-1.33819,4.45304,8.95394,-0.197991,0.0994917,-0.0705529,0
2024-12-13 15:16:22.604,-1.33819,4.47936,8.95394,-0.198602,0.103768,-0.0717745,0
2024-12-13 15:16:22.607,-1.38844,4.5009,8.94198,-0.193715,0.109265,-0.0729962,0
2024-12-13 15:16:22.607,-1.38844,4.5009,8.94198,-0.193715,0.109265,-0.0729962,0
2024-12-13 15:16:22.609,-1.41506,4.52004,8.93719,-0.196158,0.114152,-0.0723854,0
2024-12-13 15:16:22.614,-1.44138,4.53918,8.88694,-0.199823,0.124536,-0.0711637,0
2024-12-13 15:16:22.616,-1.5323,4.55354,8.88455,-0.200434,0.128202,-0.0668878,0
2024-12-13 15:16:22.616,-1.5323,4.55354,8.88455,-0.200434,0.128202,-0.0668878,0
2024-12-13 15:16:22.619,-1.56102,4.56072,8.88694,-0.200434,0.131867,-0.062001,0
2024-12-13 15:16:22.621,-1.5993,4.56072,8.9013,-0.207154,0.136753,-0.0589468,0
2024-12-13 15:16:22.623,-1.62323,4.56072,8.92044,-0.21204,0.136753,-0.0522274,0
2024-12-13 15:16:22.626,-1.64716,4.5679,8.93241,-0.216927,0.137364,-0.0448973,0
2024-12-13 15:16:22.628,-1.68066,4.58704,8.96351,-0.222425,0.140419,-0.0375671,0
2024-12-13 15:16:22.630,-1.72852,4.59183,9.00419,-0.227922,0.142251,-0.0302369,0
2024-12-13 15:16:22.635,-1.78355,4.57747,9.09033,-0.237696,0.147749,-0.0143549,0
2024-12-13 15:16:22.635,-1.78355,4.57747,9.09033,-0.237696,0.147749,-0.0143549,0
2024-12-13 15:16:22.637,-1.8003,4.59661,9.13101,-0.237696,0.147749,-0.0143549,0
2024-12-13 15:16:22.640,-1.78594,4.59901,9.18365,-0.244415,0.161187,0.00335966,0
2024-12-13 15:16:22.642,-1.75244,4.58943,9.24347,-0.246859,0.166074,0.00885729,0
2024-12-13 15:16:22.644,-1.7333,4.58704,9.28445,-0.244415,0.175237,0.0149658,0
2024-12-13 15:16:22.647,-1.71894,4.58704,9.31556,-0.244415,0.175237,0.0149658,0
2024-12-13 15:16:22.649,-1.71894,4.58226,9.35624,-0.243194,0.191119,0.0229068,0
2024-12-13 15:16:22.652,-1.71655,4.5679,9.4017,-0.243194,0.193562,0.0271827,0
2024-12-13 15:16:22.654,-1.72134,4.58704,9.43759,-0.234642,0.194173,0.0296261,0
2024-12-13 15:16:22.656,-1.73809,4.62054,9.45434,-0.234642,0.194173,0.0296261,0
2024-12-13 15:16:22.659,-1.74766,4.62772,9.47588,-0.219981,0.19173,0.0351237,0
2024-12-13 15:16:22.659,-1.74766,4.62772,9.47588,-0.219981,0.19173,0.0351237,0
2024-12-13 15:16:22.663,-1.81944,4.63729,9.54048,-0.193104,0.188065,0.0393996,0
2024-12-13 15:16:22.663,-1.81944,4.63729,9.54048,-0.193104,0.188065,0.0393996,0
2024-12-13 15:16:22.668,-1.85533,4.64208,9.50938,-0.167449,0.183789,0.0473407,0
2024-12-13 15:16:22.670,-1.8338,4.63968,9.48784,-0.167449,0.183789,0.0473407,0
2024-12-13 15:16:22.673,-1.81226,4.64925,9.44477,-0.136906,0.172183,0.0510057,0
2024-12-13 15:16:22.673,-1.81226,4.64925,9.44477,-0.136906,0.172183,0.0510057,0
2024-12-13 15:16:22.675,-1.79791,4.65643,9.37299,-0.124689,0.159355,0.0528383,0
2024-12-13 15:16:22.680,-1.79312,4.67558,9.27488,-0.124689,0.159355,0.0528383,0
2024-12-13 15:16:22.682,-1.78116,4.70907,9.22672,-0.0880384,0.119039,0.0510057,0
2024-12-13 15:16:22.685,-1.76441,4.7354,9.1693,-0.0739889,0.103157,0.0497841,0
2024-12-13 15:16:22.687,-1.75484,4.77159,9.10469,-0.0648262,0.0829989,0.0473407,0
2024-12-13 15:16:22.687,-1.75484,4.77159,9.10469,-0.0648262,0.0829989,0.0473407,0
2024-12-13 15:16:22.692,-1.71177,4.83859,8.97787,-0.0446682,0.0469589,0.0400105,0
2024-12-13 15:16:22.694,-1.6998,4.86491,8.93719,-0.0367272,0.0292443,0.038178,0
2024-12-13 15:16:22.696,-1.68066,4.88644,8.88694,-0.0263428,0.0151948,0.0332912,0
2024-12-13 15:16:22.696,-1.68066,4.88644,8.88694,-0.0263428,0.0151948,0.0332912,0
2024-12-13 15:16:22.701,-1.6352,4.92712,8.77927,-0.0110716,-0.0116825,0.0271827,0
2024-12-13 15:16:22.703,-1.61845,4.94148,8.72423,-0.00496313,-0.0220669,0.0241285,0
2024-12-13 15:16:22.706,-1.59691,4.95105,8.67608,-0.00313059,-0.0318404,0.0192417,0
2024-12-13 15:16:22.706,-1.59691,4.95105,8.67608,-0.00313059,-0.0318404,0.0192417,0
2024-12-13 15:16:22.710,-1.5682,4.97976,8.59951,0.00603212,-0.0428357,0.0149658,0
2024-12-13 15:16:22.713,-1.53709,4.98455,8.56122,0.00603212,-0.049555,0.0113007,0
2024-12-13 15:16:22.715,-1.4988,4.98933,8.52293,0.010308,-0.0532201,0.00824644,0
2024-12-13 15:16:22.715,-1.4988,4.98933,8.52293,0.010308,-0.0532201,0.00824644,0
2024-12-13 15:16:22.720,-1.44377,5.01326,8.46311,0.0109189,-0.0507767,0.00335966,0
2024-12-13 15:16:22.722,-1.40279,5.02523,8.45833,0.0109189,-0.0507767,0.00152712,0
2024-12-13 15:16:22.725,-1.35254,5.0348,8.45594,0.010308,-0.0465007,-0.000305424,0
2024-12-13 15:16:22.727,-1.30229,5.03958,8.44636,0.0127514,-0.0452791,-0.00335966,0
2024-12-13 15:16:22.729,-1.27597,5.03958,8.46072,0.00481042,-0.0410031,-0.00397051,0
2024-12-13 15:16:22.733,-1.27119,5.04198,8.48944,0.00481042,-0.0379489,-0.00885729,0
2024-12-13 15:16:22.736,-1.25922,5.02762,8.57558,-0.00129805,-0.0251211,-0.0119115,0
2024-12-13 15:16:22.739,-1.24008,5.02044,8.61147,-0.00129805,-0.0251211,-0.0119115,0
2024-12-13 15:16:22.746,-1.22333,5.01326,8.72662,-0.00740652,-0.00679568,-0.0106898,0
2024-12-13 15:16:22.748,-1.23051,5.01326,8.78884,-0.00862822,-0.00313059,-0.010079,0
2024-12-13 15:16:22.753,-1.24247,5.00608,8.85823,-0.0122933,0.00114534,-0.00702474,0
2024-12-13 15:16:22.755,-1.25683,5.01805,8.93241,-0.0104608,0.00481042,-0.00702474,0
2024-12-13 15:16:22.755,-1.27597,5.0348,9.01616,-0.0104608,0.00481042,-0.00702474,0
2024-12-13 15:16:22.760,-1.29512,5.03958,9.1669,-0.00984991,0.010308,-0.00397051,0
2024-12-13 15:16:22.762,-1.31665,5.04915,9.24587,-0.00740652,0.0115297,-0.00274881,0
2024-12-13 15:16:22.762,-1.31665,5.04915,9.24587,-0.00740652,0.0115297,-0.00274881,0
2024-12-13 15:16:22.765,-1.33101,5.07548,9.33949,-0.00435229,0.0133623,-0.00152712,0
2024-12-13 15:16:22.769,-1.39083,5.12094,9.48066,0.00175619,0.0096972,-0.00152712,0
2024-12-13 15:16:22.772,-1.40788,5.15444,9.51895,0.0133623,-0.00496313,0.00274881,0
2024-12-13 15:16:22.774,-1.41027,5.18076,9.52134,0.0133623,-0.00496313,0.00274881,0
2024-12-13 15:16:22.776,-1.41266,5.2023,9.52852,0.0292443,-0.0220669,0.0051922,0
2024-12-13 15:16:22.777,-1.41266,5.2023,9.52852,0.0292443,-0.0220669,0.0051922,0
2024-12-13 15:16:22.781,-1.45573,5.25733,9.47827,0.0432938,-0.0465007,0.00946813,0
2024-12-13 15:16:22.783,-1.45573,5.25733,9.43998,0.0500131,-0.0599394,0.0119115,0
2024-12-13 15:16:22.786,-1.52513,5.27169,9.41366,0.0561216,-0.0709346,0.0161875,0
2024-12-13 15:16:22.786,-1.52513,5.27169,9.41366,0.0561216,-0.0709346,0.0161875,0
2024-12-13 15:16:22.791,-1.50359,5.30997,9.3682,0.066506,-0.100255,0.0229068,0
2024-12-13 15:16:22.791,-1.50359,5.30997,9.3682,0.066506,-0.100255,0.0229068,0
2024-12-13 15:16:22.793,-1.51555,5.32433,9.35624,0.0701711,-0.113694,0.025961,0
2024-12-13 15:16:22.795,-1.54188,5.32911,9.36102,0.0720036,-0.130798,0.0296261,0
2024-12-13 15:16:22.798,-1.53948,5.32194,9.36581,0.0720036,-0.14668,0.0332912,0
2024-12-13 15:16:22.800,-1.55145,5.33659,9.38495,0.074447,-0.161951,0.0369563,0
2024-12-13 15:16:22.802,-1.57059,5.37009,9.39931,0.0738362,-0.180276,0.0387888,0
2024-12-13 15:16:22.802,-1.57059,5.37009,9.39931,0.0738362,-0.180276,0.0387888,0
2024-12-13 15:16:22.807,-1.56341,5.42513,9.45195,0.0732253,-0.19738,0.0442864,0
2024-12-13 15:16:22.809,-1.55862,5.42513,9.48306,0.0701711,-0.210208,0.0467298,0
2024-12-13 15:16:22.812,-1.54427,5.42034,9.54048,0.0622301,-0.235253,0.0473407,0
2024-12-13 15:16:22.812,-1.54427,5.42034,9.54048,0.0622301,-0.235253,0.0473407,0
2024-12-13 15:16:22.816,-1.53709,5.46341,9.67448,0.0500131,-0.246859,0.0503949,0
2024-12-13 15:16:22.819,-1.5323,5.42991,9.74148,0.0500131,-0.246859,0.0503949,0
2024-12-13 15:16:22.821,-1.5347,5.40838,9.87338,0.0322986,-0.232809,0.0528383,0
2024-12-13 15:16:22.821,-1.5347,5.40838,9.87338,0.0322986,-0.232809,0.0528383,0
2024-12-13 15:16:22.823,-1.58973,5.41556,10.0576,0.0286335,-0.221203,0.05406,0
2024-12-13 15:16:22.826,-1.67348,5.46102,10.2036,0.0237467,-0.208375,0.0546708,0
2024-12-13 15:16:22.828,-1.73569,5.51127,10.3041,0.0237467,-0.208375,0.0546708,0
2024-12-13 15:16:22.831,-1.77876,5.52323,10.4432,0.00847551,-0.177833,0.0613902,0
2024-12-13 15:16:22.833,-1.81944,5.51845,10.6202,-0.00129805,-0.163783,0.0644444,0
2024-12-13 15:16:22.835,-1.85773,5.52323,10.7901,-0.00129805,-0.163783,0.0644444,0
2024-12-13 15:16:22.838,-1.8673,5.52323,10.9651,-0.0226777,-0.138739,0.0650552,0
2024-12-13 15:16:22.840,-1.87926,5.53041,11.135,-0.033673,-0.122246,0.0656661,0
2024-12-13 15:16:22.842,-1.91037,5.53759,11.3049,-0.0465007,-0.105142,0.0632227,0
2024-12-13 15:16:22.847,-1.90319,5.53759,11.7,-0.0660479,-0.0660479,0.0571142,0
2024-12-13 15:16:22.847,-1.90319,5.53759,11.7,-0.0660479,-0.0660479,0.0571142,0
2024-12-13 15:16:22.852,-1.92951,5.64527,12.0613,-0.0819299,-0.0391706,0.0448973,0
2024-12-13 15:16:22.852,-1.92951,5.64527,12.0613,-0.0819299,-0.0391706,0.0448973,0
2024-12-13 15:16:22.856,-2.0997,5.84626,12.3129,-0.0953685,-0.00801737,0.0357346,0
2024-12-13 15:16:22.859,-2.0997,5.84626,12.3129,-0.10392,0.00847551,0.0351237,0
2024-12-13 15:16:22.861,-2.31027,5.99013,12.466,-0.113083,0.0268009,0.0351237,0
2024-12-13 15:16:22.861,-2.31027,5.99013,12.466,-0.113083,0.0268009,0.0351237,0
2024-12-13 15:16:22.864,-2.37009,6.01885,12.5498,-0.113083,0.0414613,0.0357346,0
2024-12-13 15:16:22.866,-2.39402,6.0332,12.6362,-0.130187,0.0548999,0.0351237,0
2024-12-13 15:16:22.868,-2.40359,6.0332,12.7199,-0.130187,0.0548999,0.0351237,0
2024-12-13 15:16:22.871,-2.42752,6.03799,12.7822,-0.149123,0.0726145,0.0326803,0
2024-12-13 15:16:22.871,-2.42752,6.03799,12.7822,-0.149123,0.0726145,0.0326803,0
2024-12-13 15:16:22.873,-2.46341,6.06431,12.8204,-0.155232,0.0732253,0.0320695,0
2024-12-13 15:16:22.873,-2.46341,6.06431,12.8204,-0.155232,0.0732253,0.0320695,0
2024-12-13 15:16:22.882,-2.56182,6.25095,13.0502,-0.170503,0.0451263,0.0192417,0
2024-12-13 15:16:22.882,-2.62403,6.25095,13.0502,-0.170503,0.0451263,0.0192417,0
2024-12-13 15:16:22.885,-2.68864,6.32034,13.1076,-0.171724,0.00481042,0.0131332,0
2024-12-13 15:16:22.889,-2.77478,6.41605,13.2371,-0.16867,-0.0471116,0.00946813,0
2024-12-13 15:16:22.889,-2.77478,6.41605,13.2371,-0.16867,-0.0471116,0.00946813,0
2024-12-13 15:16:22.892,-2.76999,6.41845,13.3496,-0.159507,-0.0794865,0.00824644,0
2024-12-13 15:16:22.894,-2.79631,6.45195,13.4237,-0.151566,-0.11064,0.0051922,0
2024-12-13 15:16:22.899,-2.79153,6.55514,13.5314,-0.132019,-0.170503,0.00335966,0
2024-12-13 15:16:22.899,-2.79153,6.55514,13.5314,-0.132019,-0.170503,0.00335966,0
2024-12-13 15:16:22.901,-2.75324,6.57667,13.5841,-0.121024,-0.202878,0.00274881,0
2024-12-13 15:16:22.905,-2.69821,6.57667,13.6152,-0.102699,-0.26946,-0.00274881,0
2024-12-13 15:16:22.906,-2.60249,6.57907,13.6199,-0.102699,-0.26946,-0.00274881,0
2024-12-13 15:16:22.908,-2.49212,6.56471,13.6104,-0.102699,-0.26946,-0.00274881,0
2024-12-13 15:16:22.911,-2.38206,6.54317,13.5912,-0.0947577,-0.328712,-0.0119115,0
2024-12-13 15:16:22.913,-2.26481,6.51207,13.5697,-0.0929251,-0.355589,-0.0174091,0
2024-12-13 15:16:22.915,-2.17149,6.45942,13.5529,-0.0929251,-0.355589,-0.0174091,0
2024-12-13 15:16:22.918,-2.07099,6.40409,13.5577,-0.101477,-0.402625,-0.0277936,0
2024-12-13 15:16:22.920,-1.9681,6.32991,13.5841,-0.112472,-0.419728,-0.033902,0
2024-12-13 15:16:22.922,-1.87448,6.26291,13.6104,-0.124078,-0.433167,-0.0369563,0
2024-12-13 15:16:22.925,-1.79791,6.18395,13.6941,-0.133241,-0.439276,-0.038178,0
2024-12-13 15:16:22.927,-1.72852,6.0691,13.8069,-0.146069,-0.44233,-0.0400105,0
2024-12-13 15:16:22.932,-1.61605,5.96142,13.9481,-0.173557,-0.44233,-0.0412322,0
2024-12-13 15:16:22.932,-1.48445,5.85344,13.9481,-0.173557,-0.44233,-0.0412322,0
2024-12-13 15:16:22.934,-1.39083,5.74337,14.0246,-0.173557,-0.44233,-0.0412322,0
2024-12-13 15:16:22.937,-1.2999,5.6333,14.1299,-0.210208,-0.431335,-0.0448973,0
2024-12-13 15:16:22.939,-1.1994,5.51605,14.2687,-0.229144,-0.422172,-0.0467298,0
2024-12-13 15:16:22.941,-1.09173,5.37966,14.4102,-0.246859,-0.414842,-0.0479515,0
2024-12-13 15:16:22.944,-0.99362,5.24537,14.5609,-0.246859,-0.414842,-0.0479515,0
2024-12-13 15:16:22.946,-0.905085,5.10419,14.7165,-0.274347,-0.391019,-0.0522274,0
2024-12-13 15:16:22.948,-0.825823,4.92951,14.8843,-0.274347,-0.391019,-0.0522274,0
2024-12-13 15:16:22.951,-0.775574,4.77637,15.0398,-0.28412,-0.355589,-0.0558925,0
2024-12-13 15:16:22.951,-0.775574,4.77637,15.0398,-0.28412,-0.355589,-0.0558925,0
2024-12-13 15:16:22.955,-0.84018,4.48894,15.3293,-0.28412,-0.304889,-0.0565034,0
2024-12-13 15:16:22.955,-0.84018,4.48894,15.3293,-0.28412,-0.304889,-0.0565034,0
2024-12-13 15:16:22.960,-0.885943,4.13928,15.5952,-0.252967,-0.257243,-0.0455081,0
2024-12-13 15:16:22.960,-0.885943,4.13928,15.5952,-0.252967,-0.257243,-0.0455081,0
2024-12-13 15:16:22.965,-0.885943,3.81147,15.7101,-0.199823,-0.209597,-0.0308478,0
2024-12-13 15:16:22.965,-0.885943,3.81147,15.7101,-0.199823,-0.209597,-0.0308478,0
2024-12-13 15:16:22.970,-0.876371,3.52164,15.6383,-0.122246,-0.154621,-0.01802,1
2024-12-13 15:16:22.970,-0.837787,3.52164,15.6383,-0.122246,-0.154621,-0.01802,1
2024-12-13 15:16:22.972,-0.799502,3.38525,15.5282,-0.0752106,-0.124689,-0.0119115,0
2024-12-13 15:16:22.974,-0.761217,3.24646,15.3628,-0.0269536,-0.0965902,-0.0064139,0
2024-12-13 15:16:22.979,-0.710967,3.134,15.1618,0.0274118,-0.0691021,-0.00458135,0
2024-12-13 15:16:22.979,-0.689432,3.02842,14.9465,0.0274118,-0.0691021,-0.00458135,0
2024-12-13 15:16:22.981,-0.699003,2.92074,14.738,0.141029,-0.0263428,0.000916271,0
2024-12-13 15:16:22.984,-0.73011,2.8322,14.5107,0.201503,-0.0177909,0.00274881,0
2024-12-13 15:16:22.986,-0.754038,2.77478,14.2137,0.265031,-0.0110716,0.00335966,0
2024-12-13 15:16:22.988,-0.737288,2.71256,13.8691,0.326727,-0.0019089,0.00458135,0
2024-12-13 15:16:22.991,-0.699003,2.65753,13.5027,0.388499,0.00175619,0.0064139,0
2024-12-13 15:16:22.993,-0.63679,2.62403,13.1243,0.452027,0.00419957,0.00763559,0
2024-12-13 15:16:22.995,-0.579362,2.59771,12.7271,0.510668,0.00603212,0.00580305,0
2024-12-13 15:16:22.998,-0.579362,2.59771,12.2722,0.571142,0.0096972,0.00458135,0
2024-12-13 15:16:23.000,-0.562612,2.57139,11.7885,0.631005,0.0133623,0.0051922,0
2024-12-13 15:16:23.003,-0.555434,2.54985,11.3216,0.631005,0.0182491,0.0051922,0
2024-12-13 15:16:23.005,-0.533899,2.56182,10.8571,0.733017,0.0237467,0.0051922,0
2024-12-13 15:16:23.007,-0.493221,2.58335,10.3807,0.778219,0.0243575,0.00335966,0
2024-12-13 15:16:23.010,-0.440578,2.60967,9.90449,0.778219,0.0243575,0.00335966,0
2024-12-13 15:16:23.012,-0.375972,2.63839,9.42563,0.861295,0.0268009,-0.0051922,0
2024-12-13 15:16:23.017,-0.316152,2.70539,8.53729,0.917493,0.0158057,-0.0186308,0
2024-12-13 15:16:23.017,-0.270389,2.70539,8.53729,0.917493,0.0158057,-0.0186308,0
2024-12-13 15:16:23.019,-0.222533,2.74846,8.12303,0.937651,0.00786466,-0.0271827,0
2024-12-13 15:16:23.021,-0.172283,2.79871,7.73061,0.954754,-0.00618483,-0.0351237,0
2024-12-13 15:16:23.024,-0.143569,2.84895,7.35703,0.960863,-0.0226777,-0.0412322,0
2024-12-13 15:16:23.026,-0.129212,2.90638,6.99542,0.963917,-0.0428357,-0.0503949,0
2024-12-13 15:16:23.028,-0.117248,2.95185,6.66521,0.960863,-0.0617719,-0.0583359,0
2024-12-13 15:16:23.031,-0.114855,3.00927,6.37059,0.950478,-0.0880384,-0.0662769,0
2024-12-13 15:16:23.033,-0.112463,3.07867,6.10738,0.935207,-0.114305,-0.069942,0
2024-12-13 15:16:23.035,-0.112463,3.14357,5.86301,0.915049,-0.144236,-0.0754396,0
2024-12-13 15:16:23.038,-0.112463,3.19621,5.62612,0.915049,-0.177222,-0.0784939,0
2024-12-13 15:16:23.038,-0.112463,3.19621,5.62612,0.915049,-0.177222,-0.0784939,0
2024-12-13 15:16:23.043,-0.0287139,3.23211,5.25254,0.855797,-0.232198,-0.0815481,0
2024-12-13 15:16:23.043,-0.0287139,3.23211,5.25254,0.855797,-0.232198,-0.0815481,0
2024-12-13 15:16:23.047,0.0693919,3.29671,5.0659,0.734238,-0.291451,-0.085824,0
2024-12-13 15:16:23.050,0.11007,3.3326,4.99891,0.690868,-0.315884,-0.085824,0
2024-12-13 15:16:23.052,0.157926,3.37567,4.95823,0.640168,-0.335431,-0.0870457,0
2024-12-13 15:16:23.054,0.20339,3.41157,4.96301,0.640168,-0.335431,-0.0870457,0
2024-12-13 15:16:23.057,0.253639,3.4355,4.99891,0.537546,-0.368417,-0.0876566,0
2024-12-13 15:16:23.057,0.253639,3.4355,4.99891,0.537546,-0.368417,-0.0876566,0
2024-12-13 15:16:23.059,0.289831,3.46421,5.04437,0.486234,-0.379413,-0.0846023,0
2024-12-13 15:16:23.061,0.294616,3.51685,5.09223,0.433702,-0.386132,-0.0827698,0
2024-12-13 15:16:23.066,0.308973,3.58864,5.27408,0.330392,-0.390408,-0.0748288,0
2024-12-13 15:16:23.066,0.308973,3.58864,5.27408,0.330392,-0.390408,-0.0748288,0
2024-12-13 15:16:23.071,0.342473,3.59821,5.37727,0.231435,-0.379413,-0.0644444,0
2024-12-13 15:16:23.071,0.397508,3.57189,5.49452,0.231435,-0.379413,-0.0644444,0
2024-12-13 15:16:23.076,0.462114,3.46899,5.7673,0.146527,-0.351314,-0.05406,0
2024-12-13 15:16:23.076,0.54347,3.46899,5.7673,0.146527,-0.351314,-0.05406,0
2024-12-13 15:16:23.078,0.62004,3.39482,5.87258,0.106822,-0.335431,-0.0510057,0
2024-12-13 15:16:23.080,0.670289,3.3326,6.00449,0.0726145,-0.317106,-0.0479515,0
2024-12-13 15:16:23.083,0.694218,3.28475,6.11934,0.0396287,-0.295726,-0.0467298,0
2024-12-13 15:16:23.085,0.701396,3.22014,6.23181,0.0396287,-0.271293,-0.0436756,0
2024-12-13 15:16:23.087,0.665504,3.16511,6.34906,-0.0177909,-0.246859,-0.041843,0
2024-12-13 15:16:23.092,0.555434,3.08854,6.58385,-0.057496,-0.208375,-0.0326803,0
2024-12-13 15:16:23.092,0.555434,3.08854,6.58385,-0.057496,-0.208375,-0.0326803,0
2024-12-13 15:16:23.094,0.493221,3.0667,6.65564,-0.057496,-0.208375,-0.0326803,0
2024-12-13 15:16:23.097,0.419043,3.04038,6.72503,-0.0892601,-0.179665,-0.0204634,0
2024-12-13 15:16:23.097,0.419043,3.04038,6.72503,-0.0892601,-0.179665,-0.0204634,0
2024-12-13 15:16:23.101,0.301795,2.96381,6.85424,-0.122246,-0.166227,-0.0064139,0
2024-12-13 15:16:23.101,0.301795,2.96381,6.85424,-0.122246,-0.166227,-0.0064139,0
2024-12-13 15:16:23.106,0.20339,2.88724,6.94517,-0.152177,-0.152788,0.0051922,0
2024-12-13 15:16:23.106,0.20339,2.88724,6.94517,-0.152177,-0.152788,0.0051922,0
2024-12-13 15:16:23.111,0.150748,2.8011,7.05554,-0.178444,-0.13935,0.0174091,0
2024-12-13 15:16:23.111,0.150748,2.8011,7.05554,-0.178444,-0.13935,0.0174091,0
2024-12-13 15:16:23.116,0.0981057,2.74606,7.20389,-0.206543,-0.132019,0.0247393,0
2024-12-13 15:16:23.116,0.0981057,2.74606,7.20389,-0.206543,-0.132019,0.0247393,0
2024-12-13 15:16:23.120,0.0167498,2.73649,7.31157,-0.229755,-0.125911,0.0369563,0
2024-12-13 15:16:23.123,-0.0143569,2.71974,7.35225,-0.229755,-0.125911,0.0369563,0
2024-12-13 15:16:23.125,-0.0430708,2.70778,7.38335,-0.253578,-0.114305,0.046119,0
2024-12-13 15:16:23.125,-0.0430708,2.70778,7.38335,-0.253578,-0.114305,0.046119,0
2024-12-13 15:16:23.127,-0.0741775,2.69103,7.42164,-0.263352,-0.105753,0.0522274,0
2024-12-13 15:16:23.130,-0.107677,2.64556,7.47189,-0.271293,-0.0996445,0.05406,0
2024-12-13 15:16:23.134,-0.136391,2.59771,7.59183,-0.29084,-0.0825407,0.0668878,0
2024-12-13 15:16:23.134,-0.157926,2.59771,7.59183,-0.29084,-0.0825407,0.0668878,0
2024-12-13 15:16:23.137,-0.174676,2.56899,7.66361,-0.298781,-0.0770431,0.069942,0
2024-12-13 15:16:23.139,-0.18664,2.54267,7.72822,-0.307943,-0.0721563,0.0729962,0
2024-12-13 15:16:23.141,-0.215354,2.54028,7.79283,-0.315274,-0.0703238,0.077883,0
2024-12-13 15:16:23.144,-0.241675,2.52832,7.86461,-0.315274,-0.0703238,0.077883,0
2024-12-13 15:16:23.146,-0.251246,2.50648,7.92922,-0.323215,-0.0623828,0.0833807,0
2024-12-13 15:16:23.146,-0.251246,2.50648,7.92922,-0.323215,-0.0623828,0.0833807,0
2024-12-13 15:16:23.151,-0.272782,2.4993,8.06321,-0.325047,-0.0581068,0.0901,0
2024-12-13 15:16:23.153,-0.267996,2.48016,8.11825,-0.325047,-0.0581068,0.0901,0
2024-12-13 15:16:23.153,-0.267996,2.48016,8.11825,-0.325047,-0.0581068,0.0901,0
2024-12-13 15:16:23.158,-0.289831,2.48016,8.20469,-0.313441,-0.0465007,0.0901,0
2024-12-13 15:16:23.160,-0.292223,2.47777,8.24058,-0.313441,-0.0465007,0.0901,0
2024-12-13 15:16:23.160,-0.292223,2.47777,8.24058,-0.313441,-0.0465007,0.0901,0
2024-12-13 15:16:23.163,-0.275175,2.48495,8.26451,-0.295116,-0.0410031,0.0870457,0
2024-12-13 15:16:23.165,-0.267996,2.49452,8.28365,-0.285342,-0.0410031,0.0803264,0
2024-12-13 15:16:23.170,-0.275175,2.5017,8.28605,-0.260297,-0.0385597,0.0729962,0
2024-12-13 15:16:23.170,-0.27996,2.52084,8.28605,-0.260297,-0.0385597,0.0729962,0
2024-12-13 15:16:23.172,-0.287438,2.54507,8.27647,-0.244415,-0.0391706,0.0650552,0
2024-12-13 15:16:23.174,-0.297009,2.56182,8.24776,-0.228533,-0.0434465,0.0589468,0
2024-12-13 15:16:23.177,-0.297009,2.58814,8.22144,-0.21204,-0.0489441,0.0522274,0
2024-12-13 15:16:23.179,-0.292223,2.62403,8.22144,-0.194326,-0.0532201,0.0455081,0
2024-12-13 15:16:23.182,-0.289831,2.65514,8.19512,-0.173557,-0.0617719,0.0393996,0
2024-12-13 15:16:23.184,-0.270389,2.68385,8.14248,-0.173557,-0.0617719,0.0393996,0
2024-12-13 15:16:23.186,-0.253639,2.71256,8.09911,-0.134463,-0.0892601,0.025961,0
2024-12-13 15:16:23.189,-0.248854,2.73649,8.04168,-0.116137,-0.104531,0.0186308,0
2024-12-13 15:16:23.191,-0.215354,2.76281,7.96511,-0.0990336,-0.122246,0.010079,0
2024-12-13 15:16:23.191,-0.215354,2.76281,7.96511,-0.0990336,-0.122246,0.010079,0
2024-12-13 15:16:23.196,-0.165105,2.79631,7.78804,-0.057496,-0.155232,-0.00885729,0
2024-12-13 15:16:23.198,-0.150748,2.81785,7.70668,-0.057496,-0.169281,-0.0155766,0
2024-12-13 15:16:23.200,-0.148355,2.82742,7.63251,-0.0208452,-0.18272,-0.0241285,0
2024-12-13 15:16:23.203,-0.153141,2.82981,7.55564,-0.00374144,-0.197991,-0.0314586,0
2024-12-13 15:16:23.205,-0.148355,2.83699,7.48385,0.0151948,-0.207764,-0.0400105,0
2024-12-13 15:16:23.207,-0.160319,2.85853,7.41446,0.0292443,-0.217538,-0.0485624,0
2024-12-13 15:16:23.214,-0.181855,2.88006,7.12493,0.0420721,-0.232198,-0.0613902,0
2024-12-13 15:16:23.217,-0.181855,2.89442,7.00499,0.0793338,-0.234031,-0.0772722,0
2024-12-13 15:16:23.222,-0.193819,2.94227,6.80878,0.0927724,-0.229144,-0.0913217,0
2024-12-13 15:16:23.224,-0.193819,2.94227,6.80878,0.0964375,-0.223646,-0.0968193,0
2024-12-13 15:16:23.226,-0.200997,3.0021,6.59103,0.101935,-0.217538,-0.102928,0
2024-12-13 15:16:23.226,-0.200997,3.0021,6.59103,0.101935,-0.217538,-0.102928,0
2024-12-13 15:16:23.229,-0.212961,3.04517,6.48814,0.100713,-0.213262,-0.110869,0
2024-12-13 15:16:23.231,-0.217747,3.06909,6.4017,0.101324,-0.202267,-0.116977,0
2024-12-13 15:16:23.236,-0.241675,3.07867,6.23659,0.103157,-0.190661,-0.123086,0
2024-12-13 15:16:23.236,-0.253639,3.10289,6.23659,0.103157,-0.190661,-0.123086,0
2024-12-13 15:16:23.238,-0.265603,3.13161,6.17438,0.0958267,-0.171114,-0.131638,0
2024-12-13 15:16:23.240,-0.285045,3.15075,6.11456,0.0958267,-0.171114,-0.131638,0
2024-12-13 15:16:23.243,-0.292223,3.1675,6.06431,0.0884965,-0.15401,-0.140189,0
2024-12-13 15:16:23.245,-0.297009,3.17468,6.01885,0.0817772,-0.149123,-0.143244,0
2024-12-13 15:16:23.247,-0.289831,3.18903,5.98535,0.0732253,-0.143625,-0.148741,0
2024-12-13 15:16:23.250,-0.308973,3.24168,5.96142,0.0683385,-0.136906,-0.151185,0
2024-12-13 15:16:23.252,-0.366401,3.31346,5.92313,0.0634518,-0.131409,-0.149963,0
2024-12-13 15:16:23.255,-0.414257,3.39003,5.90399,0.0634518,-0.131409,-0.14752,0
2024-12-13 15:16:23.257,-0.457328,3.45224,5.92313,0.0542891,-0.122246,-0.146298,0
2024-12-13 15:16:23.257,-0.457328,3.45224,5.92313,0.0542891,-0.122246,-0.146298,0
2024-12-13 15:16:23.262,-0.471685,3.50728,5.97578,0.042683,-0.129576,-0.134692,0
2024-12-13 15:16:23.262,-0.471685,3.50728,5.97578,0.042683,-0.129576,-0.134692,0
2024-12-13 15:16:23.266,-0.392722,3.49292,5.95663,0.0365745,-0.131409,-0.12614,0
2024-12-13 15:16:23.266,-0.392722,3.49292,5.95663,0.0365745,-0.131409,-0.12614,0
2024-12-13 15:16:23.271,-0.364008,3.51207,6.02124,0.0298552,-0.136906,-0.120642,0
2024-12-13 15:16:23.271,-0.364008,3.51207,6.02124,0.0298552,-0.136906,-0.120642,0
2024-12-13 15:16:23.273,-0.361615,3.52642,6.05713,0.0280226,-0.138739,-0.115756,0
2024-12-13 15:16:23.276,-0.35683,3.55035,6.08824,0.0237467,-0.144847,-0.110258,0
2024-12-13 15:16:23.280,-0.35683,3.55035,6.12892,0.0158057,-0.156453,-0.102928,0
2024-12-13 15:16:23.280,-0.35683,3.65354,6.17677,0.0158057,-0.156453,-0.102928,0
2024-12-13 15:16:23.285,-0.352044,3.7349,6.3012,0.014584,-0.165005,-0.0913217,0
2024-12-13 15:16:23.285,-0.349651,3.7349,6.3012,0.014584,-0.165005,-0.0913217,0
2024-12-13 15:16:23.288,-0.359223,3.77318,6.34666,0.0158057,-0.169281,-0.0870457,0
2024-12-13 15:16:23.290,-0.375972,3.80668,6.38734,0.0139731,-0.171114,-0.0797156,0
2024-12-13 15:16:23.292,-0.375972,3.84257,6.42802,0.0158057,-0.172335,-0.0748288,0
2024-12-13 15:16:23.292,-0.375972,3.84257,6.42802,0.0158057,-0.172335,-0.0748288,0
2024-12-13 15:16:23.297,-0.35683,3.91197,6.47617,0.0176382,-0.174779,-0.0626118,0
2024-12-13 15:16:23.300,-0.35683,3.94068,6.47857,0.0176382,-0.174779,-0.0626118,0
2024-12-13 15:16:23.304,-0.392722,3.97897,6.5025,0.0231358,-0.172335,-0.0485624,0
2024-12-13 15:16:23.304,-0.392722,3.97897,6.5025,0.0231358,-0.172335,-0.0485624,0
2024-12-13 15:16:23.306,-0.402293,3.99332,6.50967,0.0255792,-0.171114,-0.0412322,0
2024-12-13 15:16:23.309,-0.404686,4.01725,6.5025,0.0268009,-0.165616,-0.0369563,0
2024-12-13 15:16:23.313,-0.426222,4.05314,6.52642,0.0231358,-0.157064,-0.0247393,0
2024-12-13 15:16:23.313,-0.426222,4.05314,6.52642,0.0231358,-0.157064,-0.0247393,0
2024-12-13 15:16:23.316,-0.426222,4.08664,6.53121,0.0213033,-0.154621,-0.0204634,0
2024-12-13 15:16:23.316,-0.426222,4.08664,6.53121,0.0213033,-0.154621,-0.0204634,0
2024-12-13 15:16:23.320,-0.457328,4.1345,6.55514,0.0127514,-0.152788,-0.0106898,0
2024-12-13 15:16:23.323,-0.4669,4.18235,6.55992,0.00664296,-0.151566,-0.00580305,0
2024-12-13 15:16:23.325,-0.481256,4.2353,6.5671,-0.000687203,-0.149123,-0.00335966,0
2024-12-13 15:16:23.328,-0.481256,4.2664,6.59821,-0.000687203,-0.149123,-0.00335966,0
2024-12-13 15:16:23.330,-0.488435,4.29512,6.63889,-0.0141258,-0.144847,0.000305424,0
2024-12-13 15:16:23.332,-0.488435,4.33819,6.69153,-0.0226777,-0.13996,-0.00152712,0
2024-12-13 15:16:23.335,-0.495613,4.33819,6.69153,-0.0355055,-0.134463,-0.00152712,0
2024-12-13 15:16:23.337,-0.514756,4.38604,6.77288,-0.0355055,-0.134463,-0.00152712,0
2024-12-13 15:16:23.339,-0.541077,4.39322,6.82313,-0.0507767,-0.119802,-0.00397051,0
2024-12-13 15:16:23.342,-0.541077,4.40758,6.8662,-0.0507767,-0.113083,-0.0051922,0
2024-12-13 15:16:23.344,-0.553041,4.44347,6.92363,-0.0703238,-0.109418,-0.00824644,0
2024-12-13 15:16:23.346,-0.553041,4.44347,6.92363,-0.0703238,-0.109418,-0.00824644,0
2024-12-13 15:16:23.349,-0.524327,4.47697,7.07468,-0.0965902,-0.105142,-0.0161875,0
2024-12-13 15:16:23.351,-0.536291,4.5009,7.15364,-0.105142,-0.10331,-0.0186308,0
2024-12-13 15:16:23.353,-0.562612,4.51047,7.24696,-0.119802,-0.108807,-0.0235176,0
2024-12-13 15:16:23.356,-0.581755,4.50568,7.33789,-0.119802,-0.108807,-0.0235176,0
2024-12-13 15:16:23.356,-0.581755,4.50568,7.33789,-0.119802,-0.108807,-0.0235176,0
2024-12-13 15:16:23.361,-0.655932,4.5344,7.5006,-0.157675,-0.113083,-0.0326803,0
2024-12-13 15:16:23.361,-0.655932,4.5344,7.5006,-0.157675,-0.113083,-0.0326803,0
2024-12-13 15:16:23.363,-0.691825,4.54397,7.57747,-0.173557,-0.112472,-0.0357346,0
2024-12-13 15:16:23.365,-0.71336,4.54876,7.67797,-0.185163,-0.108807,-0.0400105,0
2024-12-13 15:16:23.368,-0.725324,4.54876,7.78086,-0.185163,-0.108807,-0.0400105,0
2024-12-13 15:16:23.370,-0.720539,4.55115,7.87179,-0.210819,-0.106975,-0.0436756,0
2024-12-13 15:16:23.372,-0.715753,4.54876,7.96989,-0.210819,-0.106975,-0.0436756,0
2024-12-13 15:16:23.375,-0.71336,4.55354,8.07518,-0.240139,-0.102699,-0.0455081,0
2024-12-13 15:16:23.377,-0.71336,4.55354,8.07518,-0.240139,-0.102699,-0.0455081,0
2024-12-13 15:16:23.379,-0.727717,4.56072,8.20948,-0.266406,-0.105142,-0.0503949,0
2024-12-13 15:16:23.380,-0.727717,4.56072,8.20948,-0.266406,-0.105142,-0.0503949,0
2024-12-13 15:16:23.384,-0.696611,4.5679,8.47269,-0.295116,-0.113083,-0.0479515,0
2024-12-13 15:16:23.384,-0.696611,4.5679,8.47269,-0.295116,-0.113083,-0.0479515,0
2024-12-13 15:16:23.389,-0.665504,4.59661,8.81755,-0.32688,-0.128965,-0.046119,0
2024-12-13 15:16:23.389,-0.665504,4.59661,8.81755,-0.32688,-0.128965,-0.046119,0
2024-12-13 15:16:23.391,-0.658325,4.62293,8.99462,-0.32688,-0.128965,-0.046119,0
2024-12-13 15:16:23.393,-0.617647,4.62054,9.15015,-0.347038,-0.137517,-0.0442864,0
2024-12-13 15:16:23.396,-0.565005,4.60618,9.28924,-0.357422,-0.138739,-0.0412322,0
2024-12-13 15:16:23.398,-0.52672,4.61097,9.41845,-0.367196,-0.135684,-0.0406213,0
2024-12-13 15:16:23.401,-0.493221,4.62533,9.54766,-0.373915,-0.130798,-0.0369563,0
2024-12-13 15:16:23.403,-0.464507,4.62533,9.67927,-0.373915,-0.130798,-0.0369563,0
2024-12-13 15:16:23.405,-0.457328,4.63011,9.81326,-0.383078,-0.118581,-0.0369563,0
2024-12-13 15:16:23.405,-0.457328,4.63011,9.81326,-0.383078,-0.118581,-0.0369563,0
2024-12-13 15:16:23.410,-0.423829,4.61336,10.06,-0.380634,-0.104531,-0.0308478,0
2024-12-13 15:16:23.410,-0.423829,4.61336,10.06,-0.380634,-0.104531,-0.0308478,0
2024-12-13 15:16:23.412,-0.423829,4.60618,10.1821,-0.375747,-0.0953685,-0.0308478,0
2024-12-13 15:16:23.417,-0.428614,4.59183,10.3929,-0.358644,-0.0764323,-0.0241285,0
2024-12-13 15:16:23.417,-0.428614,4.59183,10.3929,-0.358644,-0.0764323,-0.0241285,0
2024-12-13 15:16:23.419,-0.428614,4.57508,10.4839,-0.349481,-0.0703238,-0.0216851,0
2024-12-13 15:16:23.422,-0.423829,4.56311,10.5652,-0.334821,-0.0623828,-0.0174091,0
2024-12-13 15:16:23.424,-0.435793,4.55593,10.6346,-0.334821,-0.0623828,-0.0174091,0
2024-12-13 15:16:23.426,-0.431007,4.54876,10.7016,-0.303057,-0.0483333,-0.010079,0
2024-12-13 15:16:23.429,-0.431007,4.54397,10.7614,-0.28412,-0.0422248,-0.0051922,0
2024-12-13 15:16:23.431,-0.445364,4.53918,10.7973,-0.266406,-0.0312296,-0.000305424,0
2024-12-13 15:16:23.434,-0.464507,4.54397,10.8093,-0.266406,-0.0312296,-0.000305424,0
2024-12-13 15:16:23.436,-0.481256,4.55833,10.8021,-0.223036,-0.0202343,0.0113007,0
2024-12-13 15:16:23.436,-0.481256,4.55833,10.8021,-0.223036,-0.0202343,0.0113007,0
2024-12-13 15:16:23.438,-0.4669,4.57986,10.7662,-0.223036,-0.0202343,0.0113007,0
2024-12-13 15:16:23.441,-0.442971,4.60379,10.7255,-0.178444,-0.0129041,0.0241285,0
2024-12-13 15:16:23.443,-0.442971,4.6014,10.6801,-0.155842,-0.00923906,0.0326803,0
2024-12-13 15:16:23.445,-0.435793,4.60618,10.6202,-0.133852,-0.00679568,0.0400105,0
2024-12-13 15:16:23.448,-0.421436,4.64208,10.5556,-0.111251,-0.00251974,0.0467298,0
2024-12-13 15:16:23.450,-0.404686,4.67079,10.4647,-0.0947577,-0.000687203,0.05406,0
2024-12-13 15:16:23.450,-0.404686,4.67079,10.4647,-0.0947577,-0.000687203,0.05406,0
2024-12-13 15:16:23.452,-0.385544,4.68993,10.3519,-0.0739889,0.00419957,0.0601685,0
2024-12-13 15:16:23.457,-0.35683,4.72343,10.1533,-0.0391706,0.0151948,0.0736071,0
2024-12-13 15:16:23.459,-0.354437,4.75932,10.0409,-0.0391706,0.0151948,0.0736071,0
2024-12-13 15:16:23.459,-0.354437,4.75932,10.0409,-0.0391706,0.0151948,0.0736071,0
2024-12-13 15:16:23.462,-0.337687,4.80509,9.9332,-0.0110716,0.0329094,0.0870457,0
2024-12-13 15:16:23.467,-0.337687,4.86012,9.83271,0.00725381,0.0475697,0.103539,0
2024-12-13 15:16:23.467,-0.335294,4.90798,9.74866,0.00725381,0.0475697,0.103539,0
2024-12-13 15:16:23.469,-0.330509,4.93909,9.65055,0.00725381,0.0524565,0.11209,0
2024-12-13 15:16:23.469,-0.330509,4.93909,9.65055,0.00725381,0.0524565,0.11209,0
2024-12-13 15:16:23.471,-0.330509,4.97258,9.55723,0.0170274,0.0573433,0.120642,0
2024-12-13 15:16:23.474,-0.325723,5.01566,9.49741,0.022525,0.0616192,0.128583,0
2024-12-13 15:16:23.478,-0.337687,5.08265,9.38016,0.0237467,0.0646735,0.144542,0
2024-12-13 15:16:23.481,-0.332901,5.11137,9.3682,0.0237467,0.0646735,0.144542,0
2024-12-13 15:16:23.483,-0.311366,5.15205,9.36341,0.0213033,0.0628409,0.162256,0
2024-12-13 15:16:23.483,-0.311366,5.15205,9.36341,0.0213033,0.0628409,0.162256,0
2024-12-13 15:16:23.488,-0.299402,5.24297,9.37299,0.0170274,0.0573433,0.178138,0
2024-12-13 15:16:23.488,-0.299402,5.24297,9.37299,0.0170274,0.0573433,0.178138,0
2024-12-13 15:16:23.492,-0.318545,5.32433,9.40409,0.0151948,0.0512348,0.195242,0
2024-12-13 15:16:23.495,-0.313759,5.34616,9.41606,0.0170274,0.0500131,0.205626,0
2024-12-13 15:16:23.495,-0.313759,5.34616,9.41606,0.0170274,0.0500131,0.205626,0
2024-12-13 15:16:23.497,-0.32333,5.36291,9.45673,0.0158057,0.050624,0.217843,0
2024-12-13 15:16:23.499,-0.34008,5.38206,9.51177,0.0200816,0.0536782,0.228228,0
2024-12-13 15:16:23.502,-0.354437,5.38684,9.5692,0.0200816,0.0561216,0.239223,0
2024-12-13 15:16:23.504,-0.359223,5.39402,9.61945,0.0213033,0.0610084,0.250218,0
2024-12-13 15:16:23.507,-0.373579,5.41556,9.67209,0.0213033,0.0610084,0.250218,0
2024-12-13 15:16:23.509,-0.380758,5.4347,9.72234,0.030466,0.0738362,0.274041,0
2024-12-13 15:16:23.511,-0.371187,5.45145,9.76062,0.030466,0.0738362,0.274041,0
2024-12-13 15:16:23.511,-0.371187,5.45145,9.76062,0.030466,0.0738362,0.274041,0
2024-12-13 15:16:23.514,-0.375972,5.48255,9.79412,0.0414613,0.0872748,0.292367,0
2024-12-13 15:16:23.518,-0.373579,5.51845,9.81087,0.046348,0.100103,0.303362,0
2024-12-13 15:16:23.518,-0.366401,5.54955,9.82792,0.046348,0.100103,0.303362,0
2024-12-13 15:16:23.521,-0.359223,5.57109,9.85424,0.0567324,0.122093,0.319855,0
2024-12-13 15:16:23.523,-0.349651,5.59502,9.88774,0.0603975,0.134921,0.324742,0
2024-12-13 15:16:23.525,-0.342473,5.62612,9.92603,0.0646735,0.144694,0.33085,0
2024-12-13 15:16:23.528,-0.328116,5.63809,9.97388,0.0646735,0.144694,0.336348,0
2024-12-13 15:16:23.530,-0.34008,5.65962,10.017,0.0689494,0.170961,0.340013,0
2024-12-13 15:16:23.532,-0.359223,5.69791,10.0576,0.0689494,0.170961,0.340013,0
2024-12-13 15:16:23.535,-0.359223,5.73141,10.0935,0.0732253,0.194173,0.343678,0
2024-12-13 15:16:23.535,-0.359223,5.73141,10.0935,0.0732253,0.194173,0.343678,0
2024-12-13 15:16:23.540,-0.371187,5.79362,10.1988,0.0713928,0.211888,0.348565,0
2024-12-13 15:16:23.540,-0.371187,5.79362,10.1988,0.0713928,0.211888,0.348565,0
2024-12-13 15:16:23.544,-0.390329,5.84626,10.2491,0.0603975,0.224715,0.347343,0
2024-12-13 15:16:23.547,-0.390329,5.9327,10.3857,0.0573433,0.230213,0.343678,0
2024-12-13 15:16:23.547,-0.390329,5.9327,10.3857,0.0573433,0.230213,0.343678,0
2024-12-13 15:16:23.549,-0.392722,5.9686,10.4886,0.0573433,0.230213,0.340624,0
2024-12-13 15:16:23.551,-0.395115,5.99731,10.5939,0.0500131,0.237543,0.336959,0
2024-12-13 15:16:23.554,-0.431007,6.01406,10.7016,0.0457372,0.2351,0.333294,0
2024-12-13 15:16:23.554,-0.431007,6.01406,10.7016,0.0457372,0.2351,0.333294,0
2024-12-13 15:16:23.556,-0.476471,6.05474,10.8284,0.0439046,0.233878,0.329018,0
2024-12-13 15:16:23.558,-0.519542,6.11934,10.9265,0.0432938,0.233267,0.322298,0
2024-12-13 15:16:23.561,-0.567398,6.14806,10.9771,0.0377962,0.228991,0.318022,0
2024-12-13 15:16:23.565,-0.591326,6.14088,11.0465,0.0274118,0.221661,0.305195,0
2024-12-13 15:16:23.568,-0.615255,6.1337,11.1015,0.0274118,0.221661,0.305195,0
2024-12-13 15:16:23.573,-0.706182,6.16959,11.2522,0.00114534,0.186232,0.283815,0
2024-12-13 15:16:23.575,-0.766002,6.18634,11.3695,-0.0116825,0.17035,0.277706,0
2024-12-13 15:16:23.577,-0.818644,6.19352,11.4867,-0.0208452,0.151414,0.272209,0
2024-12-13 15:16:23.580,-0.842872,6.21267,11.621,-0.0208452,0.151414,0.272209,0
2024-12-13 15:16:23.582,-0.845265,6.25095,11.7335,-0.0391706,0.119039,0.261824,0
2024-12-13 15:16:23.582,-0.845265,6.25095,11.7335,-0.0391706,0.119039,0.261824,0
2024-12-13 15:16:23.587,-0.854836,6.29163,11.9225,-0.0532201,0.0994917,0.248997,0
2024-12-13 15:16:23.589,-0.84018,6.31795,12.0135,-0.0532201,0.0994917,0.248997,0
2024-12-13 15:16:23.591,-0.842872,6.32991,12.1119,-0.0684913,0.086664,0.232504,0
2024-12-13 15:16:23.591,-0.842872,6.32991,12.1119,-0.0684913,0.086664,0.232504,0
2024-12-13 15:16:23.596,-0.821037,6.32273,12.32,-0.0752106,0.082388,0.214178,0
2024-12-13 15:16:23.596,-0.761217,6.32273,12.32,-0.0752106,0.082388,0.214178,0
2024-12-13 15:16:23.598,-0.720539,6.33709,12.4301,-0.0819299,0.0793338,0.205626,0
2024-12-13 15:16:23.602,-0.715753,6.36581,12.5019,-0.0880384,0.0842206,0.18669,0
2024-12-13 15:16:23.603,-0.718146,6.39213,12.5521,-0.0880384,0.0842206,0.18669,0
2024-12-13 15:16:23.605,-0.706182,6.40888,12.6096,-0.0880384,0.0842206,0.18669,0
2024-12-13 15:16:23.608,-0.694218,6.42084,12.6721,-0.0972011,0.0891073,0.173252,0
2024-12-13 15:16:23.610,-0.682254,6.42323,12.7271,-0.0972011,0.0891073,0.173252,0
2024-12-13 15:16:23.613,-0.682254,6.41605,12.7846,-0.107585,0.086664,0.156759,0
2024-12-13 15:16:23.615,-0.641576,6.4017,12.842,-0.107585,0.086664,0.156759,0
2024-12-13 15:16:23.615,-0.641576,6.4017,12.842,-0.107585,0.086664,0.156759,0
2024-12-13 15:16:23.620,-0.586541,6.3682,12.9353,-0.121635,0.074447,0.13599,0
2024-12-13 15:16:23.622,-0.550648,6.31077,12.976,-0.124078,0.0713928,0.127972,0
2024-12-13 15:16:23.622,-0.550648,6.31077,12.976,-0.124078,0.0713928,0.127972,0
2024-12-13 15:16:23.624,-0.519542,6.27727,13.0334,-0.130187,0.0671168,0.11881,0
2024-12-13 15:16:23.627,-0.481256,6.24856,13.0837,-0.132019,0.0622301,0.110258,0
2024-12-13 15:16:23.629,-0.428614,6.22224,13.1507,-0.141182,0.0573433,0.102317,0
2024-12-13 15:16:23.629,-0.428614,6.22224,13.1507,-0.141182,0.0573433,0.102317,0
2024-12-13 15:16:23.634,-0.375972,6.1672,13.3304,-0.144847,0.0518457,0.0833807,0
2024-12-13 15:16:23.634,-0.375972,6.1672,13.3304,-0.144847,0.0518457,0.0833807,0
2024-12-13 15:16:23.638,-0.292223,6.0332,13.4668,-0.150345,0.050624,0.0650552,0
2024-12-13 15:16:23.641,-0.258425,5.96381,13.5529,-0.150345,0.0500131,0.0583359,0
2024-12-13 15:16:23.643,-0.234497,5.8678,13.6367,-0.150956,0.0445155,0.0516166,0
2024-12-13 15:16:23.643,-0.234497,5.8678,13.6367,-0.150956,0.0445155,0.0516166,0
2024-12-13 15:16:23.648,-0.22014,5.62852,13.7372,-0.15401,0.0335202,0.0430647,0
2024-12-13 15:16:23.648,-0.200997,5.62852,13.7372,-0.15401,0.0335202,0.0430647,0
2024-12-13 15:16:23.650,-0.177069,5.49452,13.7925,-0.155842,0.0292443,0.0406213,0
2024-12-13 15:16:23.653,-0.165105,5.37727,13.8571,-0.158897,0.0213033,0.0393996,0
2024-12-13 15:16:23.655,-0.145962,5.24537,13.9457,-0.162562,0.0121406,0.0387888,0
2024-12-13 15:16:23.655,-0.145962,5.24537,13.9457,-0.162562,0.0121406,0.0387888,0
2024-12-13 15:16:23.660,-0.162712,4.94866,14.1802,-0.171114,0.00297788,0.0424539,0
2024-12-13 15:16:23.660,-0.162712,4.94866,14.1802,-0.171114,0.00297788,0.0424539,0
2024-12-13 15:16:23.664,-0.177069,4.64925,14.4676,-0.172946,0.00542127,0.0565034,0
2024-12-13 15:16:23.667,-0.196211,4.49133,14.6423,-0.172946,0.0151948,0.0668878,0
2024-12-13 15:16:23.669,-0.196211,4.31665,14.8217,-0.169892,0.0237467,0.0760505,0
2024-12-13 15:16:23.669,-0.196211,4.31665,14.8217,-0.169892,0.0237467,0.0760505,0
2024-12-13 15:16:23.671,-0.205783,4.13689,14.9728,-0.167449,0.0322986,0.0894891,0
2024-12-13 15:16:23.674,-0.208176,3.95264,15.1211,-0.167449,0.0322986,0.0894891,0
2024-12-13 15:16:23.676,-0.208176,3.76122,15.2623,-0.165616,0.0439046,0.117588,0
2024-12-13 15:16:23.676,-0.208176,3.76122,15.2623,-0.165616,0.0439046,0.117588,0
2024-12-13 15:16:23.681,-0.191426,3.41875,15.5258,-0.128354,0.1056,0.148207,0
2024-12-13 15:16:23.683,-0.18664,3.2345,15.6359,-0.110029,0.134921,0.1647,0
2024-12-13 15:16:23.686,-0.181855,3.06192,15.7196,-0.0874275,0.172183,0.181193,0
2024-12-13 15:16:23.686,-0.181855,3.06192,15.7196,-0.0874275,0.172183,0.181193,0
2024-12-13 15:16:23.690,-0.157926,2.77478,15.8225,-0.0275645,0.254036,0.213567,0
2024-12-13 15:16:23.693,-0.112463,2.65274,15.8297,-0.0275645,0.254036,0.213567,0
2024-12-13 15:16:23.695,-0.0693919,2.54028,15.7914,0.0561216,0.345663,0.238001,0
2024-12-13 15:16:23.695,-0.0693919,2.54028,15.7914,0.0561216,0.345663,0.238001,0
2024-12-13 15:16:23.700,-0.0693919,2.35573,15.5545,0.158133,0.445231,0.260603,1
2024-12-13 15:16:23.702,-0.0861416,2.26002,15.3676,0.215553,0.493488,0.269765,0
2024-12-13 15:16:23.704,-0.112463,2.17627,15.1259,0.277248,0.537469,0.28015,0
2024-12-13 15:16:23.707,-0.165105,2.12363,14.8361,0.277248,0.537469,0.28015,0
2024-12-13 15:16:23.709,-0.244068,2.09252,14.5059,0.404381,0.616269,0.292367,0
2024-12-13 15:16:23.711,-0.316152,2.07338,14.1491,0.404381,0.616269,0.292367,0
2024-12-13 15:16:23.714,-0.385544,2.05663,13.7854,0.530826,0.681018,0.308249,0
2024-12-13 15:16:23.715,-0.385544,2.05663,13.7854,0.530826,0.681018,0.308249,0
2024-12-13 15:16:23.716,-0.431007,2.03749,13.3807,0.530826,0.681018,0.308249,0
2024-12-13 15:16:23.719,-0.442971,2.03031,12.9042,0.657883,0.723854,0.318633,0
2024-12-13 15:16:23.721,-0.462114,2.04467,12.387,0.715913,0.740347,0.322298,0
2024-12-13 15:16:23.723,-0.476471,2.06142,11.8843,0.768446,0.754396,0.324131,0
2024-12-13 15:16:23.726,-0.514756,2.08535,11.4078,0.768446,0.754396,0.324131,0
2024-12-13 15:16:23.728,-0.588933,2.10927,10.9265,0.816092,0.761727,0.322909,0
2024-12-13 15:16:23.730,-0.679861,2.12842,10.4216,0.896724,0.761116,0.321077,0
2024-12-13 15:16:23.731,-0.679861,2.12842,10.4216,0.896724,0.761116,0.321077,0
2024-12-13 15:16:23.735,-0.857229,2.21456,9.41606,0.953533,0.751953,0.317412,0
2024-12-13 15:16:23.735,-0.780359,2.21456,9.41606,0.953533,0.751953,0.317412,0
2024-12-13 15:16:23.740,-0.981655,2.31984,8.47269,0.975523,0.740958,0.313746,0
2024-12-13 15:16:23.740,-0.981655,2.31984,8.47269,0.975523,0.740958,0.313746,0
2024-12-13 15:16:23.742,-1.01515,2.40838,8.01775,0.998124,0.721411,0.310081,0
2024-12-13 15:16:23.747,-1.0678,2.57139,7.22303,1.0024,0.68957,0.298475,0
2024-12-13 15:16:23.747,-1.0678,2.57139,7.22303,1.0024,0.68957,0.298475,0
2024-12-13 15:16:23.749,-1.0678,2.60249,6.85663,1.0024,0.68957,0.298475,0
2024-12-13 15:16:23.752,-1.04148,2.62164,6.51925,0.976134,0.640092,0.285647,0
2024-12-13 15:16:23.756,-0.981655,2.63839,6.20788,0.927877,0.576563,0.261824,0
2024-12-13 15:16:23.756,-0.940978,2.65992,5.92553,0.927877,0.576563,0.261824,0
2024-12-13 15:16:23.759,-0.957727,2.72692,5.65484,0.895502,0.544799,0.248386,0
2024-12-13 15:16:23.759,-0.957727,2.72692,5.65484,0.895502,0.544799,0.248386,0
2024-12-13 15:16:23.763,-1.03908,2.8992,5.17119,0.85763,0.51609,0.234336,0
2024-12-13 15:16:23.763,-1.00558,2.81785,5.38684,0.85763,0.51609,0.234336,0
2024-12-13 15:16:23.766,-1.06301,2.98535,5.00848,0.763559,0.453783,0.20807,0
2024-12-13 15:16:23.768,-1.08933,3.05952,4.89123,0.711026,0.420797,0.197685,0
2024-12-13 15:16:23.770,-1.09651,3.134,4.81466,0.711026,0.420797,0.197685,0
2024-12-13 15:16:23.773,-1.01515,3.268,4.7689,0.594965,0.358491,0.17203,0
2024-12-13 15:16:23.775,-0.845265,3.50249,4.81705,0.537546,0.327338,0.156759,0
2024-12-13 15:16:23.777,-0.821037,3.53121,4.98216,0.478293,0.301682,0.136601,0
2024-12-13 15:16:23.777,-0.821037,3.53121,4.98216,0.478293,0.301682,0.136601,0
2024-12-13 15:16:23.782,-1.05344,3.18425,5.23819,0.368341,0.272972,0.11148,0
2024-12-13 15:16:23.782,-1.05344,3.18425,5.23819,0.368341,0.272972,0.11148,0
2024-12-13 15:16:23.787,-1.13958,3.03799,5.48734,0.266864,0.236322,0.0913217,0
2024-12-13 15:16:23.787,-1.18026,2.85853,5.48734,0.266864,0.236322,0.0913217,0
2024-12-13 15:16:23.789,-1.15394,2.68864,5.6333,0.217996,0.222883,0.0809373,0
2024-12-13 15:16:23.792,-1.06062,2.61924,5.74337,0.217996,0.222883,0.0809373,0
2024-12-13 15:16:23.796,-0.722932,2.71256,5.97338,0.115374,0.18501,0.0583359,0
2024-12-13 15:16:23.799,-0.667897,2.77717,6.15045,0.0194708,0.137975,0.0314586,0
2024-12-13 15:16:23.799,-0.667897,2.77717,6.15045,0.0194708,0.137975,0.0314586,0
2024-12-13 15:16:23.801,-0.689432,2.81545,6.34188,0.0194708,0.137975,0.0314586,0
2024-12-13 15:16:23.803,-0.76361,2.83699,6.56471,-0.0629936,0.11232,0.01802,0
2024-12-13 15:16:23.806,-0.828216,2.80588,6.80399,-0.0629936,0.11232,0.01802,0
2024-12-13 15:16:23.808,-0.835394,2.73649,7.02443,-0.121635,0.102546,0.0192417,0
2024-12-13 15:16:23.810,-0.835394,2.73649,7.02443,-0.14668,0.102546,0.0186308,0
2024-12-13 15:16:23.813,-0.73011,2.53071,7.42403,-0.14668,0.102546,0.0186308,0
2024-12-13 15:16:23.815,-0.660718,2.42752,7.63011,-0.176611,0.0994917,0.0174091,0
2024-12-13 15:16:23.817,-0.591326,2.33898,7.82154,-0.185774,0.0970484,0.0143549,0
2024-12-13 15:16:23.820,-0.555434,2.25284,7.99382,-0.193104,0.0891073,0.0119115,0
2024-12-13 15:16:23.822,-0.553041,2.20738,8.14487,-0.194937,0.0848314,0.00946813,0
2024-12-13 15:16:23.825,-0.555434,2.19781,8.28365,-0.194326,0.0775012,0.00824644,0
2024-12-13 15:16:23.827,-0.567398,2.18584,8.40569,-0.188217,0.0738362,0.00702474,0
2024-12-13 15:16:23.829,-0.598505,2.16192,8.52054,-0.188217,0.0738362,0.00702474,0
2024-12-13 15:16:23.832,-0.634397,2.15234,8.64736,-0.176611,0.0603975,0.0051922,0
2024-12-13 15:16:23.832,-0.634397,2.15234,8.64736,-0.176611,0.0603975,0.0051922,0
2024-12-13 15:16:23.836,-0.677468,2.08774,8.87976,-0.153399,0.0414613,0.00702474,0
2024-12-13 15:16:23.836,-0.677468,2.08774,8.87976,-0.153399,0.0414613,0.00702474,0
2024-12-13 15:16:23.841,-0.684646,2.07099,8.96351,-0.138128,0.0310769,0.00946813,0
2024-12-13 15:16:23.841,-0.679861,2.05185,9.02333,-0.138128,0.0310769,0.00946813,0
2024-12-13 15:16:23.846,-0.689432,2.02313,9.07837,-0.0868167,0.00358873,0.0247393,0
2024-12-13 15:16:23.846,-0.722932,2.00877,9.1023,-0.0868167,0.00358873,0.0247393,0
2024-12-13 15:16:23.848,-0.770788,2.01835,9.09033,-0.0868167,0.00358873,0.0247393,0
2024-12-13 15:16:23.850,-0.794716,2.01117,9.07119,-0.0556635,-0.0110716,0.0357346,0
2024-12-13 15:16:23.853,-0.76361,1.98963,9.03291,-0.0397814,-0.0165692,0.0393996,0
2024-12-13 15:16:23.855,-0.718146,1.9657,9.01855,-0.0275645,-0.0257319,0.0430647,0
2024-12-13 15:16:23.859,-0.694218,1.96062,9.01855,-0.013515,-0.0330621,0.0473407,0
2024-12-13 15:16:23.860,-0.694218,1.96062,9.01855,-0.013515,-0.0330621,0.0473407,0
2024-12-13 15:16:23.862,-0.684646,2.0016,8.96591,0.014584,-0.0428357,0.0534491,0
2024-12-13 15:16:23.865,-0.684646,2.04467,8.91566,0.0286335,-0.0452791,0.05406,0
2024-12-13 15:16:23.865,-0.684646,2.04467,8.91566,0.0286335,-0.0452791,0.05406,0
2024-12-13 15:16:23.867,-0.694218,2.10209,8.86062,0.0402396,-0.041614,0.0571142,0
2024-12-13 15:16:23.872,-0.687039,2.2002,8.70987,0.0591758,-0.0318404,0.0613902,0
2024-12-13 15:16:23.872,-0.687039,2.2002,8.70987,0.0591758,-0.0318404,0.0613902,0
2024-12-13 15:16:23.874,-0.699003,2.2337,8.64258,0.0689494,-0.0226777,0.062001,0
2024-12-13 15:16:23.876,-0.699003,2.2337,8.64258,0.0781121,-0.00923906,0.0644444,0
2024-12-13 15:16:23.879,-0.710967,2.31266,8.50619,0.0884965,0.00114534,0.0644444,0
2024-12-13 15:16:23.881,-0.706182,2.34138,8.42244,0.0939941,0.0133623,0.0632227,0
2024-12-13 15:16:23.883,-0.718146,2.36531,8.31954,0.103768,0.0286335,0.0650552,0
2024-12-13 15:16:23.886,-0.744467,2.39641,8.22383,0.103768,0.0286335,0.0650552,0
2024-12-13 15:16:23.888,-0.758824,2.42752,8.12303,0.118428,0.0591758,0.0662769,0
2024-12-13 15:16:23.890,-0.780359,2.45623,8.01057,0.118428,0.0591758,0.0662769,0
2024-12-13 15:16:23.893,-0.794716,2.47298,7.87897,0.132477,0.0891073,0.0656661,0
2024-12-13 15:16:23.893,-0.794716,2.47298,7.87897,0.132477,0.0891073,0.0656661,0
2024-12-13 15:16:23.898,-0.828216,2.54985,7.62054,0.137975,0.100713,0.0693312,0
2024-12-13 15:16:23.900,-0.842872,2.6001,7.49103,0.137975,0.100713,0.0693312,0
2024-12-13 15:16:23.900,-0.842872,2.6001,7.49103,0.137975,0.100713,0.0693312,0
2024-12-13 15:16:23.902,-0.847657,2.6336,7.369,0.146527,0.118428,0.0705529,0
2024-12-13 15:16:23.905,-0.8668,2.67189,7.26132,0.14897,0.119039,0.0717745,0
2024-12-13 15:16:23.907,-0.876371,2.71017,7.12014,0.147749,0.114152,0.0760505,0
2024-12-13 15:16:23.909,-0.859622,2.75324,6.96192,0.145305,0.111098,0.077883,0
2024-12-13 15:16:23.912,-0.859622,2.78435,6.8686,0.145305,0.111098,0.077883,0
2024-12-13 15:16:23.914,-0.881157,2.82024,6.82792,0.14164,0.101324,0.0846023,0
2024-12-13 15:16:23.916,-0.9003,2.86331,6.78246,0.140419,0.0952158,0.0901,0
2024-12-13 15:16:23.920,-0.905085,2.90638,6.7346,0.140419,0.0897182,0.0962084,0
2024-12-13 15:16:23.921,-0.888335,2.93031,6.68674,0.140419,0.0897182,0.0962084,0
2024-12-13 15:16:23.921,-0.888335,2.93031,6.68674,0.140419,0.0897182,0.0962084,0
2024-12-13 15:16:23.923,-0.864407,2.95424,6.64606,0.14164,0.082388,0.109036,0
2024-12-13 15:16:23.931,-0.813859,3.04517,6.55514,0.142251,0.0756687,0.121864,0
2024-12-13 15:16:23.933,-0.804287,3.08106,6.53839,0.144694,0.0768904,0.125529,0
2024-12-13 15:16:23.935,-0.792323,3.12204,6.53121,0.142251,0.0768904,0.131638,0
2024-12-13 15:16:23.935,-0.792323,3.12204,6.53121,0.142251,0.0768904,0.131638,0
2024-12-13 15:16:23.940,-0.792323,3.18425,6.48335,0.141029,0.0799446,0.137212,0
2024-12-13 15:16:23.942,-0.797109,3.20578,6.46182,0.141029,0.0799446,0.137212,0
2024-12-13 15:16:23.945,-0.809073,3.2345,6.44477,0.140419,0.0781121,0.141487,0
2024-12-13 15:16:23.945,-0.809073,3.2345,6.44477,0.140419,0.0781121,0.141487,0
2024-12-13 15:16:23.949,-0.84018,3.3015,6.39691,0.136143,0.0768904,0.146374,0
2024-12-13 15:16:23.949,-0.84018,3.3015,6.39691,0.136143,0.0768904,0.146374,0
2024-12-13 15:16:23.954,-0.854836,3.32303,6.37298,0.129423,0.0726145,0.145763,0
2024-12-13 15:16:23.954,-0.871586,3.34696,6.34427,0.129423,0.0726145,0.145763,0
2024-12-13 15:16:23.956,-0.893121,3.35414,6.31556,0.129423,0.0726145,0.145763,0
2024-12-13 15:16:23.959,-0.912264,3.37807,6.31077,0.122093,0.0713928,0.147596,0
2024-12-13 15:16:23.964,-0.967299,3.40678,6.29881,0.115374,0.0707819,0.148818,0
2024-12-13 15:16:23.964,-0.967299,3.40678,6.29881,0.115374,0.0707819,0.148818,0
2024-12-13 15:16:23.966,-1.00798,3.40439,6.27966,0.109876,0.0707819,0.150039,0
2024-12-13 15:16:23.968,-1.04148,3.41157,6.27488,0.1056,0.0695602,0.152483,0
2024-12-13 15:16:23.971,-1.08694,3.39003,6.25334,0.101935,0.0677277,0.153704,0
2024-12-13 15:16:23.973,-1.17787,3.36132,6.21984,0.0939941,0.0628409,0.158591,0
2024-12-13 15:16:23.973,-1.17787,3.36132,6.21984,0.0939941,0.0628409,0.158591,0
2024-12-13 15:16:23.975,-1.21615,3.39242,6.21506,0.0854423,0.0603975,0.1647,0
2024-12-13 15:16:23.980,-1.07498,3.48335,6.22941,0.0683385,0.0518457,0.167143,0
2024-12-13 15:16:23.982,-1.07498,3.48335,6.22941,0.0591758,0.0439046,0.169586,0
2024-12-13 15:16:23.982,-1.04387,3.53121,6.25095,0.0591758,0.0439046,0.169586,0
2024-12-13 15:16:23.985,-1.02712,3.55753,6.28445,0.0469589,0.0353528,0.167754,0
2024-12-13 15:16:23.987,-1.02233,3.56949,6.34188,0.0390179,0.0286335,0.165311,0
2024-12-13 15:16:23.989,-1.02233,3.5671,6.3993,0.0280226,0.0176382,0.164089,0
2024-12-13 15:16:23.992,-1.07258,3.51924,6.43041,0.0164165,0.00786466,0.163478,0
2024-12-13 15:16:23.994,-1.15633,3.50967,6.45942,0.00419957,-0.00251974,0.1647,0
2024-12-13 15:16:23.996,-1.1348,3.54317,6.5001,-0.00740652,-0.0104608,0.164089,0
2024-12-13 15:16:23.999,-1.02473,3.54796,6.55753,-0.00740652,-0.0104608,0.164089,0
2024-12-13 15:16:24.001,-0.97687,3.56471,6.61496,-0.0342838,-0.0300079,0.15737,0
2024-12-13 15:16:24.001,-0.97687,3.56471,6.61496,-0.0342838,-0.0300079,0.15737,0
2024-12-13 15:16:24.006,-1.02233,3.56471,6.7011,-0.0465007,-0.049555,0.147596,0
2024-12-13 15:16:24.006,-1.02233,3.56471,6.7011,-0.0465007,-0.049555,0.147596,0
2024-12-13 15:16:24.008,-1.01994,3.55274,6.7681,-0.0678804,-0.0568851,0.140266,0
2024-12-13 15:16:24.011,-1.01276,3.55035,6.83271,-0.0788757,-0.0642153,0.13599,0
2024-12-13 15:16:24.013,-1.01755,3.53839,6.89253,-0.0923143,-0.0709346,0.130416,0
2024-12-13 15:16:24.015,-1.0343,3.51685,6.97149,-0.10331,-0.0788757,0.124918,0
2024-12-13 15:16:24.018,-1.09412,3.43789,7.03639,-0.114305,-0.0892601,0.121864,0
2024-12-13 15:16:24.020,-1.1659,3.37567,7.08904,-0.114305,-0.0892601,0.121864,0
2024-12-13 15:16:24.022,-1.14197,3.402,7.14407,-0.138128,-0.102699,0.12614,0
2024-12-13 15:16:24.022,-1.14197,3.402,7.14407,-0.138128,-0.102699,0.12614,0
2024-12-13 15:16:24.025,-1.01037,3.43789,7.21825,-0.150345,-0.109418,0.12614,0
2024-12-13 15:16:24.027,-0.909871,3.48574,7.31157,-0.160729,-0.115526,0.123086,0
2024-12-13 15:16:24.032,-0.842872,3.5001,7.4671,-0.177833,-0.121635,0.115756,0
2024-12-13 15:16:24.032,-0.842872,3.5001,7.4671,-0.177833,-0.121635,0.115756,0
2024-12-13 15:16:24.034,-0.871586,3.45464,7.54128,-0.185774,-0.122857,0.110258,0
2024-12-13 15:16:24.037,-0.931406,3.402,7.61815,-0.185774,-0.122246,0.112701,0
2024-12-13 15:16:24.039,-0.9003,3.40917,7.71386,-0.199823,-0.120413,0.110869,0
2024-12-13 15:16:24.041,-0.770788,3.4355,7.8359,-0.207154,-0.124078,0.107815,0
2024-12-13 15:16:24.044,-0.660718,3.46182,7.94836,-0.210819,-0.124689,0.102317,0
2024-12-13 15:16:24.044,-0.660718,3.46182,7.94836,-0.210819,-0.124689,0.102317,0
2024-12-13 15:16:24.048,-0.629611,3.48335,8.14965,-0.222425,-0.119192,0.0852132,0
2024-12-13 15:16:24.048,-0.629611,3.48335,8.14965,-0.222425,-0.119192,0.0852132,0
2024-12-13 15:16:24.053,-0.809073,3.43789,8.3363,-0.223036,-0.106975,0.0736071,0
2024-12-13 15:16:24.053,-0.809073,3.43789,8.3363,-0.223036,-0.106975,0.0736071,0
2024-12-13 15:16:24.058,-0.679861,3.54556,8.47508,-0.222425,-0.0898709,0.0656661,0
2024-12-13 15:16:24.058,-0.679861,3.54556,8.47508,-0.222425,-0.0898709,0.0656661,0
2024-12-13 15:16:24.062,-0.624826,3.57906,8.61625,-0.21143,-0.0739889,0.0485624,0
2024-12-13 15:16:24.062,-0.62004,3.57906,8.61625,-0.21143,-0.0739889,0.0485624,0
2024-12-13 15:16:24.065,-0.727717,3.53839,8.7003,-0.20471,-0.065437,0.041843,0
2024-12-13 15:16:24.067,-0.816252,3.52403,8.7673,-0.195547,-0.0562743,0.0387888,0
2024-12-13 15:16:24.070,-0.777966,3.55992,8.85105,-0.191272,-0.0513875,0.0351237,0
2024-12-13 15:16:24.070,-0.777966,3.55992,8.85105,-0.191272,-0.0513875,0.0351237,0
2024-12-13 15:16:24.074,-0.665504,3.58146,9.04248,-0.171724,-0.0507767,0.0204634,0
2024-12-13 15:16:24.077,-0.73011,3.53599,9.12623,-0.162562,-0.0556635,0.0143549,0
2024-12-13 15:16:24.077,-0.73011,3.53599,9.12623,-0.162562,-0.0556635,0.0143549,0
2024-12-13 15:16:24.079,-0.799502,3.51685,9.21476,-0.151566,-0.0587177,0.0106898,0
2024-12-13 15:16:24.081,-0.809073,3.55274,9.30359,-0.13996,-0.0623828,0.00824644,0
2024-12-13 15:16:24.084,-0.766002,3.59581,9.39452,-0.13996,-0.0623828,0.00397051,0
2024-12-13 15:16:24.086,-0.74686,3.62692,9.45673,-0.109418,-0.0611611,0.00213797,0
2024-12-13 15:16:24.088,-0.801895,3.64128,9.49263,-0.109418,-0.0611611,0.00213797,0
2024-12-13 15:16:24.091,-0.873978,3.66551,9.54527,-0.0739889,-0.0599394,-0.000916271,0
2024-12-13 15:16:24.093,-0.873978,3.68704,9.60509,-0.0538309,-0.0581068,-0.00213797,0
2024-12-13 15:16:24.095,-0.881157,3.71097,9.63859,-0.0342838,-0.0544418,-0.00335966,0
2024-12-13 15:16:24.098,-0.907478,3.7325,9.63141,-0.0147367,-0.0538309,-0.00274881,0
2024-12-13 15:16:24.100,-0.940978,3.7349,9.61705,0.00481042,-0.0550526,-0.00397051,0
2024-12-13 15:16:24.100,-0.940978,3.7349,9.61705,0.00481042,-0.0550526,-0.00397051,0
2024-12-13 15:16:24.105,-0.938585,3.74686,9.49502,0.042683,-0.0599394,-0.00580305,0
2024-12-13 15:16:24.105,-0.938585,3.74686,9.49502,0.042683,-0.0599394,-0.00580305,0
2024-12-13 15:16:24.110,-1.05823,3.80907,9.29163,0.0720036,-0.0709346,-0.00274881,0
2024-12-13 15:16:24.110,-1.05823,3.80907,9.29163,0.0720036,-0.0709346,-0.00274881,0
2024-12-13 15:16:24.114,-1.41506,3.78036,9.07598,0.0909399,-0.0953685,0.0131332,0
2024-12-13 15:16:24.114,-1.22572,3.78036,9.07598,0.0909399,-0.0953685,0.0131332,0
2024-12-13 15:16:24.119,-1.57059,3.833,8.80559,0.0958267,-0.128965,0.0406213,0
2024-12-13 15:16:24.119,-1.52034,3.833,8.80559,0.0958267,-0.128965,0.0406213,0
2024-12-13 15:16:24.121,-1.58973,3.84257,8.7003,0.0976592,-0.146069,0.0558925,0
2024-12-13 15:16:24.124,-1.61845,3.85215,8.62583,0.0988809,-0.159507,0.0736071,0
2024-12-13 15:16:24.127,-1.62323,3.85932,8.54926,0.0921616,-0.174779,0.0913217,0
2024-12-13 15:16:24.128,-1.62323,3.85932,8.48944,0.0921616,-0.174779,0.0913217,0
2024-12-13 15:16:24.128,-1.55145,3.85932,8.48944,0.0921616,-0.174779,0.0913217,0
2024-12-13 15:16:24.131,-1.47248,3.88086,8.43919,0.082388,-0.199823,0.123086,0
2024-12-13 15:16:24.135,-1.3334,3.91675,8.32194,0.0701711,-0.221203,0.148818,0
2024-12-13 15:16:24.135,-1.41506,3.91675,8.32194,0.0701711,-0.221203,0.148818,0
2024-12-13 15:16:24.138,-1.22333,3.92872,8.27408,0.0622301,-0.232198,0.159202,0
2024-12-13 15:16:24.140,-1.14197,3.98375,8.24537,0.0561216,-0.241972,0.168976,0
2024-12-13 15:16:24.143,-1.12762,4.07707,8.19033,0.0469589,-0.247469,0.177527,0
2024-12-13 15:16:24.145,-1.08933,4.13211,8.135,0.0414613,-0.249302,0.18669,0
2024-12-13 15:16:24.147,-1.08933,4.13211,8.10389,0.0322986,-0.256021,0.192188,0
2024-12-13 15:16:24.151,-0.926621,4.14886,8.07039,0.0151948,-0.275568,0.197075,0
2024-12-13 15:16:24.152,-0.80668,4.14886,8.04646,0.0151948,-0.275568,0.197075,0
2024-12-13 15:16:24.152,-0.80668,4.14886,8.04646,0.0151948,-0.275568,0.197075,0
2024-12-13 15:16:24.157,-0.677468,4.17996,7.96989,-0.00129805,-0.292672,0.195242,0
2024-12-13 15:16:24.157,-0.56022,4.17996,7.96989,-0.00129805,-0.292672,0.195242,0
2024-12-13 15:16:24.161,-0.464507,4.22812,7.85504,-0.0177909,-0.303057,0.183636,0
2024-12-13 15:16:24.161,-0.409472,4.22812,7.85504,-0.0177909,-0.303057,0.183636,0
2024-12-13 15:16:24.164,-0.378365,4.2353,7.77129,-0.0287862,-0.306111,0.176917,0
2024-12-13 15:16:24.166,-0.316152,4.22812,7.66601,-0.0287862,-0.306111,0.169586,0
2024-12-13 15:16:24.168,-0.244068,4.2329,7.59183,-0.0532201,-0.313441,0.15798,0
2024-12-13 15:16:24.171,-0.177069,4.23051,7.53649,-0.0532201,-0.313441,0.15798,0
2024-12-13 15:16:24.171,-0.177069,4.23051,7.53649,-0.0532201,-0.313441,0.15798,0
2024-12-13 15:16:24.173,-0.117248,4.2353,7.47907,-0.0831516,-0.316495,0.137212,0
2024-12-13 15:16:24.178,-0.0693919,4.24965,7.436,-0.112472,-0.314052,0.11148,0
2024-12-13 15:16:24.178,-0.0287139,4.26162,7.40489,-0.112472,-0.314052,0.11148,0
2024-12-13 15:16:24.180,0.0,4.27837,7.4025,-0.126522,-0.313441,0.101095,0
2024-12-13 15:16:24.183,0.0191426,4.29033,7.45753,-0.140571,-0.317106,0.0894891,0
2024-12-13 15:16:24.185,0.0167498,4.30708,7.55803,-0.150345,-0.320771,0.0748288,0
2024-12-13 15:16:24.185,0.0167498,4.30708,7.55803,-0.150345,-0.320771,0.0748288,0
2024-12-13 15:16:24.190,-0.0143569,4.31665,7.79283,-0.163173,-0.342151,0.0497841,0
2024-12-13 15:16:24.192,-0.0430708,4.32383,7.90289,-0.163173,-0.342151,0.0497841,0
2024-12-13 15:16:24.194,-0.0741775,4.33819,8.0345,-0.169892,-0.370861,0.0253502,0
2024-12-13 15:16:24.197,-0.122034,4.35494,8.15683,-0.169892,-0.370861,0.0253502,0
2024-12-13 15:16:24.199,-0.165105,4.35733,8.25255,-0.163783,-0.411787,-0.000916271,0
2024-12-13 15:16:24.199,-0.165105,4.35733,8.25255,-0.163783,-0.411787,-0.000916271,0
2024-12-13 15:16:24.199,-0.165105,4.35733,8.25255,-0.163783,-0.411787,-0.000916271,0
2024-12-13 15:16:24.199,-0.165105,4.35733,8.25255,-0.163783,-0.411787,-0.000916271,0
2024-12-13 15:16:24.199,-0.165105,4.35733,8.25255,-0.163783,-0.411787,-0.000916271,0
2024-12-13 15:16:24.211,-0.174676,4.28076,8.80798,-0.109418,-0.525405,-0.069942,0
2024-12-13 15:16:24.211,-0.174676,4.28076,8.80798,-0.109418,-0.525405,-0.069942,0
2024-12-13 15:16:24.216,-0.208176,4.2999,8.93959,-0.0770431,-0.578549,-0.101095,0
2024-12-13 15:16:24.218,-0.244068,4.30708,9.00898,-0.0660479,-0.609091,-0.116366,0
2024-12-13 15:16:24.218,-0.244068,4.30708,9.00898,-0.0660479,-0.609091,-0.116366,0
2024-12-13 15:16:24.220,-0.27996,4.32862,9.06162,-0.0513875,-0.636579,-0.128583,0
2024-12-13 15:16:24.224,-0.30658,4.33819,9.09273,-0.0245102,-0.693999,-0.157904,0
2024-12-13 15:16:24.225,-0.30658,4.33819,9.09273,-0.0245102,-0.693999,-0.157904,0
2024-12-13 15:16:24.227,-0.380758,4.34297,9.20758,-0.0245102,-0.693999,-0.157904,0
2024-12-13 15:16:24.230,-0.414257,4.35494,9.2677,-0.0129041,-0.741645,-0.178673,0
2024-12-13 15:16:24.230,-0.414257,4.35494,9.2677,-0.0129041,-0.741645,-0.178673,0
2024-12-13 15:16:24.234,-0.445364,4.36451,9.42563,0.0158057,-0.786237,-0.196998,0
2024-12-13 15:16:24.234,-0.445364,4.36451,9.42563,0.0158057,-0.786237,-0.196998,0
2024-12-13 15:16:24.237,-0.500399,4.38126,9.49502,0.0158057,-0.786237,-0.196998,0
2024-12-13 15:16:24.239,-0.557827,4.39083,9.55723,0.0402396,-0.813114,-0.212269,0
2024-12-13 15:16:24.241,-0.598505,4.39562,9.60509,0.0518457,-0.819223,-0.215935,0
2024-12-13 15:16:24.244,-0.639183,4.39083,9.62902,0.0622301,-0.821666,-0.218378,0
2024-12-13 15:16:24.246,-0.670289,4.39322,9.6338,0.0720036,-0.818001,-0.220821,0
2024-12-13 15:16:24.250,-0.708575,4.39801,9.60987,0.0897182,-0.798454,-0.22021,0
2024-12-13 15:16:24.251,-0.761217,4.39801,9.55963,0.0897182,-0.798454,-0.22021,0
2024-12-13 15:16:24.253,-0.80668,4.39801,9.49502,0.0897182,-0.798454,-0.217767,0
2024-12-13 15:16:24.256,-0.862014,4.39562,9.41845,0.101935,-0.765468,-0.211659,0
2024-12-13 15:16:24.256,-0.862014,4.39562,9.41845,0.101935,-0.765468,-0.211659,0
2024-12-13 15:16:24.260,-0.996012,4.42194,9.18126,0.101935,-0.751418,-0.19822,0
2024-12-13 15:16:24.260,-0.996012,4.42194,9.18126,0.101935,-0.751418,-0.19822,0
2024-12-13 15:16:24.263,-1.05823,4.43869,9.05444,0.0933833,-0.721487,-0.186003,0
2024-12-13 15:16:24.265,-1.11087,4.46501,8.94437,0.0872748,-0.706216,-0.172564,0
2024-12-13 15:16:24.270,-1.18026,4.52483,8.70987,0.0536782,-0.69461,-0.146298,0
2024-12-13 15:16:24.270,-1.24965,4.52483,8.70987,0.0536782,-0.69461,-0.146298,0
2024-12-13 15:16:24.272,-1.30229,4.56072,8.62583,0.0359636,-0.688501,-0.128583,0
2024-12-13 15:16:24.272,-1.30229,4.56072,8.62583,0.0359636,-0.688501,-0.128583,0
2024-12-13 15:16:24.274,-1.35254,4.59183,8.54686,0.0127514,-0.685447,-0.115756,0
2024-12-13 15:16:24.279,-1.34297,4.6325,8.45354,-0.0116825,-0.686058,-0.0986518,0
2024-12-13 15:16:24.284,-1.21137,4.65404,8.71466,-0.0874275,-0.659181,-0.0601685,0
2024-12-13 15:16:24.284,-1.21137,4.65404,8.71466,-0.0874275,-0.659181,-0.0601685,0
2024-12-13 15:16:24.289,-0.957727,4.733,9.46631,-0.104531,-0.632303,-0.0516166,0
2024-12-13 15:16:24.293,-0.797109,4.74975,10.3065,-0.115526,-0.461877,-0.0436756,0
2024-12-13 15:16:24.296,-0.641576,4.75932,10.5748,-0.108807,-0.403846,-0.0455081,0
2024-12-13 15:16:24.296,-0.641576,4.75932,10.5748,-0.108807,-0.403846,-0.0455081,0
2024-12-13 15:16:24.300,-0.588933,4.77637,10.6896,-0.102088,-0.344594,-0.0503949,0
2024-12-13 15:16:24.303,-0.483649,4.80509,10.8595,-0.104531,-0.323825,-0.0565034,0
2024-12-13 15:16:24.303,-0.35683,4.86969,10.8595,-0.104531,-0.323825,-0.0565034,0
2024-12-13 15:16:24.305,-0.193819,4.93191,11.1805,-0.105753,-0.29084,-0.0644444,0
2024-12-13 15:16:24.307,0.026321,5.00848,11.6498,-0.0996445,-0.239528,-0.0723854,0
2024-12-13 15:16:24.310,0.318545,5.08026,12.035,-0.0868167,-0.179665,-0.085824,0
2024-12-13 15:16:24.312,0.617647,5.11855,12.186,-0.0764323,-0.126522,-0.103539,0
2024-12-13 15:16:24.314,0.617647,5.11855,12.1645,-0.0764323,-0.126522,-0.103539,0
2024-12-13 15:16:24.317,0.981655,5.14248,12.076,-0.065437,-0.0752106,-0.143244,0
2024-12-13 15:16:24.319,1.16351,5.1329,12.0015,-0.065437,-0.0752106,-0.143244,0
2024-12-13 15:16:24.322,1.29751,5.1353,11.9417,-0.0660479,-0.0788757,-0.189057,0
2024-12-13 15:16:24.322,1.29751,5.1353,11.9417,-0.0660479,-0.0788757,-0.189057,0
2024-12-13 15:16:24.326,1.39801,5.11855,11.6306,-0.0764323,-0.0972011,-0.227541,0
2024-12-13 15:16:24.326,1.39801,5.11855,11.6306,-0.0764323,-0.0972011,-0.227541,0
2024-12-13 15:16:24.331,1.18265,5.0683,11.2977,-0.0862058,-0.108196,-0.25564,0
2024-12-13 15:16:24.333,1.01515,5.00848,11.1661,-0.0910926,-0.109418,-0.259305,0
2024-12-13 15:16:24.336,0.862014,4.93909,11.0752,-0.0941468,-0.105753,-0.259305,0
2024-12-13 15:16:24.336,0.862014,4.93909,11.0752,-0.0941468,-0.105753,-0.259305,0
2024-12-13 15:16:24.340,0.469292,4.75215,10.9508,-0.0880384,-0.0837624,-0.247088,0
2024-12-13 15:16:24.340,0.469292,4.75215,10.9508,-0.0880384,-0.0837624,-0.247088,0
2024-12-13 15:16:24.343,0.275175,4.67797,10.8763,-0.0837624,-0.0691021,-0.23426,0
2024-12-13 15:16:24.345,0.275175,4.67797,10.8763,-0.077654,-0.0556635,-0.2196,0
2024-12-13 15:16:24.347,-0.0765703,4.55354,10.7375,-0.0672696,-0.0385597,-0.200052,0
2024-12-13 15:16:24.350,-0.244068,4.49851,10.6514,-0.0672696,-0.0385597,-0.200052,0
2024-12-13 15:16:24.352,-0.423829,4.43869,10.5485,-0.0410031,-0.00801737,-0.150574,0
2024-12-13 15:16:24.352,-0.423829,4.43869,10.5485,-0.0410031,-0.00801737,-0.150574,0
2024-12-13 15:16:24.355,-0.572184,4.38844,10.3977,-0.0287862,0.00603212,-0.123086,0
2024-12-13 15:16:24.357,-0.684646,4.34537,10.2491,-0.0287862,0.00603212,-0.123086,0
2024-12-13 15:16:24.362,-0.818644,4.25444,10.0433,0.0133623,0.0542891,-0.0406213,0
2024-12-13 15:16:24.362,-0.818644,4.25444,10.0433,0.0133623,0.0542891,-0.0406213,0
2024-12-13 15:16:24.364,-0.842872,4.21615,9.97628,0.0310769,0.0713928,-0.010079,0
2024-12-13 15:16:24.366,-0.833001,4.18953,9.90688,0.0494023,0.086664,0.0167983,0
2024-12-13 15:16:24.369,-0.809073,4.16082,9.83749,0.0720036,0.106822,0.0412322,0
2024-12-13 15:16:24.371,-0.761217,4.16082,9.75823,0.0878856,0.124536,0.0644444,0
2024-12-13 15:16:24.373,-0.691825,4.17039,9.64098,0.108044,0.142862,0.0846023,0
2024-12-13 15:16:24.376,-0.612862,4.15843,9.50698,0.12698,0.159966,0.102928,0
2024-12-13 15:16:24.378,-0.514756,4.17518,9.37299,0.143473,0.173404,0.120031,0
2024-12-13 15:16:24.381,-0.411865,4.2015,9.23151,0.160576,0.185621,0.131638,0
2024-12-13 15:16:24.383,-0.330509,4.20389,9.09033,0.174626,0.195395,0.142709,0
2024-12-13 15:16:24.385,-0.244068,4.1991,8.94676,0.18501,0.203336,0.148818,0
2024-12-13 15:16:24.387,-0.16989,4.20628,8.80798,0.197227,0.20639,0.155537,0
2024-12-13 15:16:24.390,-0.117248,4.20628,8.67129,0.197227,0.20639,0.155537,0
2024-12-13 15:16:24.392,-0.0646062,4.19671,8.53729,0.208833,0.205168,0.164089,0
2024-12-13 15:16:24.392,-0.0646062,4.19671,8.53729,0.208833,0.205168,0.164089,0
2024-12-13 15:16:24.397,0.0526421,4.17278,8.31237,0.22044,0.194784,0.1647,0
2024-12-13 15:16:24.397,0.0526421,4.17278,8.31237,0.22044,0.194784,0.1647,0
2024-12-13 15:16:24.402,0.181855,4.12253,8.11346,0.224105,0.179513,0.156759,0
2024-12-13 15:16:24.402,0.181855,4.12253,8.11346,0.224105,0.179513,0.156759,0
2024-12-13 15:16:24.406,0.272782,4.07946,7.91725,0.223494,0.164852,0.146985,0
2024-12-13 15:16:24.406,0.272782,4.07946,7.91725,0.223494,0.164852,0.146985,0
2024-12-13 15:16:24.411,0.32333,4.07946,7.78804,0.218607,0.146527,0.130416,0
2024-12-13 15:16:24.411,0.32333,4.07946,7.78804,0.218607,0.146527,0.130416,0
2024-12-13 15:16:24.416,0.294616,4.0675,7.64447,0.211277,0.128812,0.113312,0
2024-12-13 15:16:24.416,0.294616,4.0675,7.64447,0.211277,0.128812,0.113312,0
2024-12-13 15:16:24.418,0.27996,4.08903,7.58226,0.211277,0.128812,0.113312,0
2024-12-13 15:16:24.420,0.275175,4.101,7.50778,0.202725,0.119039,0.0925434,0
2024-12-13 15:16:24.425,0.265603,4.10818,7.35225,0.183178,0.110487,0.0723854,0
2024-12-13 15:16:24.425,0.265603,4.10818,7.35225,0.183178,0.110487,0.0723854,0
2024-12-13 15:16:24.430,0.265603,4.09382,7.19911,0.161187,0.104379,0.0528383,0
2024-12-13 15:16:24.430,0.251246,4.09382,7.19911,0.161187,0.104379,0.0528383,0
2024-12-13 15:16:24.435,0.174676,4.09382,7.00977,0.131256,0.0988809,0.033902,0
2024-12-13 15:16:24.435,0.174676,4.09382,7.00977,0.131256,0.0988809,0.033902,0
2024-12-13 15:16:24.437,0.143569,4.08425,6.9356,0.113541,0.0921616,0.0253502,0
2024-12-13 15:16:24.439,0.105284,4.08903,6.8686,0.094605,0.086664,0.01802,0
2024-12-13 15:16:24.442,0.102891,4.10818,6.78963,0.0707819,0.0836097,0.0137441,0
2024-12-13 15:16:24.444,0.0981057,4.12014,6.71306,0.0481806,0.0793338,0.00885729,0
2024-12-13 15:16:24.449,0.081356,4.14168,6.63889,-0.00801737,0.0768904,-0.00152712,0
2024-12-13 15:16:24.449,0.0478565,4.16561,6.55274,-0.00801737,0.0768904,-0.00152712,0
2024-12-13 15:16:24.451,0.026321,4.168,6.49771,-0.0410031,0.0811663,-0.00580305,0
2024-12-13 15:16:24.456,0.0454636,4.18235,6.48335,-0.105753,0.0909399,-0.0119115,0
2024-12-13 15:16:24.456,0.0837488,4.19671,6.48575,-0.105753,0.0909399,-0.0119115,0
2024-12-13 15:16:24.458,0.100499,4.20389,6.5001,-0.143625,0.0988809,-0.0155766,0
2024-12-13 15:16:24.461,0.11007,4.22812,6.53839,-0.181498,0.109265,-0.0192417,0
2024-12-13 15:16:24.463,0.141177,4.24487,6.61974,-0.216927,0.117206,-0.0222959,0
2024-12-13 15:16:24.465,0.165105,4.2664,6.71546,-0.251135,0.129423,-0.0277936,0
2024-12-13 15:16:24.468,0.174676,4.30469,6.8351,-0.28412,0.141029,-0.0332912,0
2024-12-13 15:16:24.470,0.174676,4.33819,6.99063,-0.316495,0.154468,-0.0345129,0
2024-12-13 15:16:24.472,0.174676,4.33819,6.99063,-0.347648,0.170961,-0.038178,0
2024-12-13 15:16:24.472,0.167498,4.35972,7.15125,-0.347648,0.170961,-0.038178,0
2024-12-13 15:16:24.477,0.12682,4.39801,7.48146,-0.400181,0.199671,-0.0473407,0
2024-12-13 15:16:24.479,0.100499,4.40997,7.64686,-0.400181,0.199671,-0.0473407,0
2024-12-13 15:16:24.482,0.0933201,4.41954,7.81915,-0.444162,0.217996,-0.0516166,0
2024-12-13 15:16:24.484,0.0789631,4.41476,8.00818,-0.461877,0.22105,-0.0552817,0
2024-12-13 15:16:24.486,0.0287139,4.41715,8.19273,-0.479591,0.219218,-0.0583359,0
2024-12-13 15:16:24.491,-0.0143569,4.41236,8.52293,-0.502804,0.207612,-0.062001,0
2024-12-13 15:16:24.491,-0.0382852,4.41236,8.52293,-0.502804,0.207612,-0.062001,0
2024-12-13 15:16:24.493,-0.0765703,4.39322,8.66172,-0.512577,0.196006,-0.0638335,0
2024-12-13 15:16:24.496,-0.141177,4.36451,8.80319,-0.519907,0.183789,-0.062001,0
2024-12-13 15:16:24.498,-0.215354,4.32622,8.97548,-0.521129,0.170961,-0.0613902,0
2024-12-13 15:16:24.501,-0.215354,4.32622,8.97548,-0.524794,0.160576,-0.0595576,0
