timestamp,accel_x,accel_y,accel_z,gyro_x,gyro_y,gyro_z,step_timestamp
2024-12-13 15:17:51.857,-0.335294,3.49771,9.52852,-0.0159584,-0.0104608,0.0106898,0
2024-12-13 15:17:51.857,-0.335294,3.49771,9.52852,-0.0159584,-0.0104608,0.0106898,0
2024-12-13 15:17:51.857,-0.335294,3.49771,9.52852,-0.0159584,-0.0104608,0.0106898,0
2024-12-13 15:17:51.857,-0.335294,3.49771,9.52852,-0.0159584,-0.0104608,0.0106898,0
2024-12-13 15:17:51.857,-0.335294,3.49771,9.52852,-0.0159584,-0.0104608,0.0106898,0
2024-12-13 15:17:51.857,-0.335294,3.49771,9.52852,-0.0159584,-0.0104608,0.0106898,0
2024-12-13 15:17:51.857,-0.335294,3.49771,9.52852,-0.0159584,-0.0104608,0.0106898,0
2024-12-13 15:17:51.857,-0.335294,3.49771,9.52852,-0.0159584,-0.0104608,0.0106898,0
2024-12-13 15:17:51.857,-0.335294,3.49771,9.52852,-0.0159584,-0.0104608,0.0106898,0
2024-12-13 15:17:51.857,-0.335294,3.49771,9.52852,-0.0159584,-0.0104608,0.0106898,0
2024-12-13 15:17:51.857,-0.335294,3.49771,9.52852,-0.0159584,-0.0104608,0.0106898,0
2024-12-13 15:17:51.859,-0.308973,3.48814,9.52852,-0.0159584,-0.0104608,0.0106898,0
2024-12-13 15:17:51.859,-0.308973,3.48814,9.52852,-0.0159584,-0.0104608,0.0106898,0
2024-12-13 15:17:51.859,-0.308973,3.48814,9.52852,-0.0159584,-0.0104608,0.0106898,0
2024-12-13 15:17:51.859,-0.308973,3.48814,9.52852,-0.0159584,-0.0104608,0.0106898,0
2024-12-13 15:17:51.864,-0.282652,3.48814,9.55245,-0.0238994,-0.0159584,0.0131332,0
2024-12-13 15:17:51.864,-0.282652,3.48814,9.55245,-0.0238994,-0.0159584,0.0131332,0
2024-12-13 15:17:51.864,-0.282652,3.48814,9.55245,-0.0238994,-0.0159584,0.0131332,0
2024-12-13 15:17:51.866,-0.251246,3.48335,9.5668,-0.0275645,-0.0159584,0.0137441,0
2024-12-13 15:17:51.866,-0.251246,3.48335,9.5668,-0.0275645,-0.0159584,0.0137441,0
2024-12-13 15:17:51.866,-0.251246,3.48335,9.5668,-0.0275645,-0.0159584,0.0137441,0
2024-12-13 15:17:51.866,-0.251246,3.48335,9.5668,-0.0275645,-0.0159584,0.0137441,0
2024-12-13 15:17:51.869,-0.212961,3.47617,9.58355,-0.0281753,-0.0110716,0.0161875,0
2024-12-13 15:17:51.869,-0.212961,3.47617,9.58355,-0.0281753,-0.0110716,0.0161875,0
2024-12-13 15:17:51.869,-0.212961,3.47617,9.58355,-0.0281753,-0.0110716,0.0161875,0
2024-12-13 15:17:51.871,-0.189033,3.46421,9.58595,-0.0287862,-0.00862822,0.0155766,0
2024-12-13 15:17:51.871,-0.189033,3.46421,9.58595,-0.0287862,-0.00862822,0.0155766,0
2024-12-13 15:17:51.871,-0.189033,3.46421,9.58595,-0.0287862,-0.00862822,0.0155766,0
2024-12-13 15:17:51.873,-0.174676,3.44746,9.59313,-0.0281753,-0.00557398,0.0149658,0
2024-12-13 15:17:51.874,-0.174676,3.44746,9.59313,-0.0281753,-0.00557398,0.0149658,0
2024-12-13 15:17:51.876,-0.174676,3.44028,9.61466,-0.0281753,-0.00129805,0.0155766,0
2024-12-13 15:17:51.878,-0.16989,3.44507,9.6338,-0.0269536,0.00236703,0.0167983,0
2024-12-13 15:17:51.878,-0.16989,3.44507,9.6338,-0.0269536,0.00236703,0.0167983,0
2024-12-13 15:17:51.878,-0.16989,3.44507,9.6338,-0.0269536,0.00236703,0.0167983,0
2024-12-13 15:17:51.880,-0.172283,3.4355,9.64816,-0.0281753,0.00725381,0.0155766,0
2024-12-13 15:17:51.880,-0.172283,3.4355,9.64816,-0.0281753,0.00725381,0.0155766,0
2024-12-13 15:17:51.883,-0.174676,3.4355,9.6673,-0.0269536,0.0127514,0.0155766,0
2024-12-13 15:17:51.883,-0.174676,3.4355,9.6673,-0.0269536,0.0127514,0.0155766,0
2024-12-13 15:17:51.885,-0.177069,3.4355,9.69123,-0.0269536,0.0200816,0.0161875,0
2024-12-13 15:17:51.885,-0.177069,3.4355,9.69123,-0.0269536,0.0200816,0.0161875,0
2024-12-13 15:17:51.885,-0.177069,3.4355,9.69123,-0.0269536,0.0200816,0.0161875,0
2024-12-13 15:17:51.888,-0.150748,3.43789,9.70798,-0.0232886,0.0268009,0.0161875,0
2024-12-13 15:17:51.888,-0.150748,3.43789,9.70798,-0.0232886,0.0268009,0.0161875,0
2024-12-13 15:17:51.890,-0.129212,3.44507,9.71755,-0.0232886,0.0268009,0.0161875,0
2024-12-13 15:17:51.892,-0.117248,3.45224,9.73669,-0.0110716,0.0353528,0.0131332,0
2024-12-13 15:17:51.892,-0.117248,3.45224,9.73669,-0.0110716,0.0353528,0.0131332,0
2024-12-13 15:17:51.892,-0.117248,3.45224,9.73669,-0.0110716,0.0353528,0.0131332,0
2024-12-13 15:17:51.897,-0.0909273,3.46182,9.72952,-0.00251974,0.042683,0.0119115,0
2024-12-13 15:17:51.897,-0.0909273,3.46182,9.72952,-0.00251974,0.042683,0.0119115,0
2024-12-13 15:17:51.899,-0.0717847,3.47857,9.71277,0.00297788,0.0457372,0.00946813,0
2024-12-13 15:17:51.899,-0.0717847,3.47857,9.71277,0.00297788,0.0457372,0.00946813,0
2024-12-13 15:17:51.902,-0.0717847,3.4666,9.69602,0.00786466,0.0475697,0.00763559,0
2024-12-13 15:17:51.906,-0.0909273,3.45224,9.62423,0.0213033,0.0469589,0.00213797,0
2024-12-13 15:17:51.906,-0.0909273,3.45224,9.62423,0.0213033,0.0469589,0.00213797,0
2024-12-13 15:17:51.909,-0.105284,3.44507,9.59073,0.0249684,0.0469589,0.00213797,0
2024-12-13 15:17:51.909,-0.105284,3.44507,9.59073,0.0249684,0.0469589,0.00213797,0
2024-12-13 15:17:51.911,-0.11007,3.44507,9.55723,0.0280226,0.0439046,-0.000305424,0
2024-12-13 15:17:51.913,-0.11007,3.44985,9.54288,0.0280226,0.0439046,-0.000305424,0
2024-12-13 15:17:51.913,-0.11007,3.44985,9.54288,0.0280226,0.0439046,-0.000305424,0
2024-12-13 15:17:51.918,-0.112463,3.4666,9.48545,0.0390179,0.0329094,-0.000916271,0
2024-12-13 15:17:51.918,-0.131605,3.47857,9.48545,0.0390179,0.0329094,-0.000916271,0
2024-12-13 15:17:51.920,-0.155533,3.48814,9.44956,0.042683,0.030466,-0.00274881,0
2024-12-13 15:17:51.920,-0.155533,3.48814,9.44956,0.042683,0.030466,-0.00274881,0
2024-12-13 15:17:51.925,-0.172283,3.50249,9.41366,0.046348,0.0231358,-0.00152712,0
2024-12-13 15:17:51.925,-0.181855,3.50249,9.41366,0.046348,0.0231358,-0.00152712,0
2024-12-13 15:17:51.928,-0.189033,3.5001,9.38734,0.0487914,0.0194708,-0.00274881,0
2024-12-13 15:17:51.928,-0.189033,3.5001,9.38734,0.0487914,0.0194708,-0.00274881,0
2024-12-13 15:17:51.930,-0.196211,3.48335,9.37059,0.0494023,0.014584,0.000305424,0
2024-12-13 15:17:51.930,-0.196211,3.48335,9.37059,0.0494023,0.014584,0.000305424,0
2024-12-13 15:17:51.932,-0.189033,3.48814,9.34188,0.0487914,0.0109189,0.00152712,0
2024-12-13 15:17:51.932,-0.189033,3.48814,9.34188,0.0487914,0.0109189,0.00152712,0
2024-12-13 15:17:51.935,-0.184247,3.50489,9.3012,0.0487914,0.0096972,0.000305424,0
2024-12-13 15:17:51.937,-0.181855,3.50249,9.2677,0.0469589,0.00908635,-0.000305424,0
2024-12-13 15:17:51.939,-0.174676,3.49771,9.24826,0.0475697,0.00725381,0.000305424,0
2024-12-13 15:17:51.939,-0.174676,3.49771,9.24826,0.0475697,0.00725381,0.000305424,0
2024-12-13 15:17:51.942,-0.16989,3.49292,9.23151,0.0487914,0.00786466,-0.00152712,0
2024-12-13 15:17:51.944,-0.16989,3.49771,9.2028,0.0487914,0.00786466,-0.00152712,0
2024-12-13 15:17:51.946,-0.18664,3.49053,9.18365,0.0359636,0.00664296,0.00152712,0
2024-12-13 15:17:51.946,-0.18664,3.49053,9.18365,0.0359636,0.00664296,0.00152712,0
2024-12-13 15:17:51.949,-0.193819,3.47857,9.17169,0.0329094,0.00664296,0.000305424,0
2024-12-13 15:17:51.949,-0.193819,3.47857,9.17169,0.0329094,0.00664296,0.000305424,0
2024-12-13 15:17:51.951,-0.191426,3.48814,9.15255,0.0280226,0.00786466,0.000916271,0
2024-12-13 15:17:51.951,-0.191426,3.48814,9.15255,0.0280226,0.00786466,0.000916271,0
2024-12-13 15:17:51.953,-0.191426,3.48814,9.15255,0.0280226,0.00786466,0.000916271,0
2024-12-13 15:17:51.958,-0.198604,3.49532,9.13819,0.0182491,0.00603212,0.000305424,0
2024-12-13 15:17:51.961,-0.193819,3.50489,9.1358,0.0096972,0.00786466,0.000916271,0
2024-12-13 15:17:51.961,-0.193819,3.50489,9.1358,0.0096972,0.00786466,0.000916271,0
2024-12-13 15:17:51.963,-0.191426,3.48814,9.14058,0.00358873,0.0096972,0.00274881,0
2024-12-13 15:17:51.963,-0.191426,3.48814,9.14058,0.00358873,0.0096972,0.00274881,0
2024-12-13 15:17:51.965,-0.193819,3.48096,9.15494,-0.0019089,0.014584,0.00335966,0
2024-12-13 15:17:51.968,-0.189033,3.47139,9.17647,-0.00496313,0.0188599,0.00335966,0
2024-12-13 15:17:51.970,-0.18664,3.47139,9.18844,-0.00496313,0.0231358,0.00580305,0
2024-12-13 15:17:51.970,-0.18664,3.47139,9.18844,-0.00496313,0.0231358,0.00580305,0
2024-12-13 15:17:51.972,-0.196211,3.47857,9.19801,-0.00923906,0.0280226,0.00702474,0
2024-12-13 15:17:51.975,-0.191426,3.46421,9.21476,-0.0110716,0.0335202,0.00824644,0
2024-12-13 15:17:51.975,-0.191426,3.46421,9.21476,-0.0110716,0.0335202,0.00824644,0
2024-12-13 15:17:51.977,-0.184247,3.46899,9.22433,-0.0122933,0.038407,0.00885729,0
2024-12-13 15:17:51.977,-0.184247,3.46899,9.22433,-0.0122933,0.038407,0.00885729,0
2024-12-13 15:17:51.979,-0.172283,3.47378,9.21955,-0.0153475,0.038407,0.00885729,0
2024-12-13 15:17:51.979,-0.172283,3.47378,9.21955,-0.0153475,0.038407,0.00885729,0
2024-12-13 15:17:51.982,-0.172283,3.47378,9.21955,-0.0177909,0.0420721,0.0106898,0
2024-12-13 15:17:51.982,-0.165105,3.45224,9.22672,-0.0177909,0.0420721,0.0106898,0
2024-12-13 15:17:51.984,-0.167498,3.45224,9.24587,-0.0196235,0.0396287,0.0113007,0
2024-12-13 15:17:51.986,-0.179462,3.46421,9.24108,-0.021456,0.0347419,0.0131332,0
2024-12-13 15:17:51.986,-0.179462,3.46421,9.24108,-0.021456,0.0347419,0.0131332,0
2024-12-13 15:17:51.989,-0.193819,3.47857,9.24347,-0.0196235,0.0347419,0.0125224,0
2024-12-13 15:17:51.991,-0.193819,3.49292,9.25544,-0.0202343,0.0316877,0.010079,0
2024-12-13 15:17:51.991,-0.205783,3.49292,9.25544,-0.0202343,0.0316877,0.010079,0
2024-12-13 15:17:51.991,-0.205783,3.49292,9.25544,-0.0202343,0.0316877,0.010079,0
2024-12-13 15:17:51.996,-0.208176,3.48574,9.2677,-0.0251211,0.0237467,0.0137441,0
2024-12-13 15:17:51.996,-0.208176,3.48574,9.2677,-0.0251211,0.0237467,0.0137441,0
2024-12-13 15:17:51.998,-0.205783,3.47857,9.26531,-0.0251211,0.0213033,0.0119115,0
2024-12-13 15:17:51.998,-0.205783,3.47857,9.26531,-0.0251211,0.0213033,0.0119115,0
2024-12-13 15:17:52.001,-0.198604,3.47857,9.25305,-0.0251211,0.0213033,0.0119115,0
2024-12-13 15:17:52.001,-0.198604,3.47857,9.25305,-0.0251211,0.0213033,0.0119115,0
2024-12-13 15:17:52.003,-0.18664,3.49292,9.24826,-0.0263428,0.0200816,0.0137441,0
2024-12-13 15:17:52.005,-0.177069,3.48335,9.2363,-0.0269536,0.0219141,0.0137441,0
2024-12-13 15:17:52.005,-0.177069,3.48335,9.2363,-0.0269536,0.0219141,0.0137441,0
2024-12-13 15:17:52.008,-0.160319,3.46421,9.21476,-0.0257319,0.0213033,0.0131332,0
2024-12-13 15:17:52.010,-0.143569,3.46421,9.2004,-0.0281753,0.0158057,0.0119115,0
2024-12-13 15:17:52.010,-0.143569,3.46421,9.2004,-0.0281753,0.0158057,0.0119115,0
2024-12-13 15:17:52.012,-0.157926,3.45942,9.19562,-0.0306187,0.014584,0.0119115,0
2024-12-13 15:17:52.012,-0.157926,3.45942,9.19562,-0.0306187,0.014584,0.0119115,0
2024-12-13 15:17:52.015,-0.160319,3.45464,9.19562,-0.0330621,0.0121406,0.0125224,0
2024-12-13 15:17:52.015,-0.160319,3.45464,9.19562,-0.0330621,0.0121406,0.0125224,0
2024-12-13 15:17:52.017,-0.155533,3.45464,9.2028,-0.037338,0.00725381,0.0106898,0
2024-12-13 15:17:52.017,-0.155533,3.45464,9.2028,-0.037338,0.00725381,0.0106898,0
2024-12-13 15:17:52.017,-0.155533,3.45464,9.2028,-0.037338,0.00725381,0.0106898,0
2024-12-13 15:17:52.017,-0.155533,3.45464,9.2028,-0.037338,0.00725381,0.0106898,0
2024-12-13 15:17:52.019,-0.153141,3.44985,9.21955,-0.0379489,0.00603212,0.010079,0
2024-12-13 15:17:52.019,-0.153141,3.44985,9.21955,-0.0379489,0.00603212,0.010079,0
2024-12-13 15:17:52.022,-0.148355,3.45464,9.2363,-0.0422248,0.00358873,0.010079,0
2024-12-13 15:17:52.024,-0.145962,3.47378,9.24347,-0.0465007,-0.0019089,0.00946813,0
2024-12-13 15:17:52.024,-0.145962,3.47378,9.24347,-0.0465007,-0.0019089,0.00946813,0
2024-12-13 15:17:52.024,-0.145962,3.47378,9.24347,-0.0465007,-0.0019089,0.00946813,0
2024-12-13 15:17:52.024,-0.145962,3.47378,9.24347,-0.0465007,-0.0019089,0.00946813,0
2024-12-13 15:17:52.024,-0.145962,3.47378,9.24347,-0.0465007,-0.0019089,0.00946813,0
2024-12-13 15:17:52.026,-0.150748,3.47617,9.25783,-0.0458899,-0.00740652,0.00824644,0
2024-12-13 15:17:52.029,-0.165105,3.48574,9.27009,-0.0501658,-0.00984991,0.00946813,0
2024-12-13 15:17:52.034,-0.143569,3.50249,9.3012,-0.0593285,-0.0190126,0.00397051,0
2024-12-13 15:17:52.034,-0.143569,3.50249,9.3012,-0.0593285,-0.0190126,0.00397051,0
2024-12-13 15:17:52.036,-0.143569,3.49771,9.30599,-0.0623828,-0.0220669,0.00335966,0
2024-12-13 15:17:52.038,-0.150748,3.49532,9.32752,-0.0660479,-0.0226777,0.000916271,0
2024-12-13 15:17:52.041,-0.150748,3.49053,9.34666,-0.0715455,-0.0245102,-0.00152712,0
2024-12-13 15:17:52.043,-0.155533,3.49532,9.36341,-0.073378,-0.0226777,0.000305424,0
2024-12-13 15:17:52.045,-0.162712,3.48335,9.38495,-0.0764323,-0.0232886,-0.000305424,0
2024-12-13 15:17:52.048,-0.174676,3.45224,9.4017,-0.0800973,-0.0232886,-0.00274881,0
2024-12-13 15:17:52.050,-0.18664,3.44746,9.42563,-0.0807082,-0.0208452,-0.0051922,0
2024-12-13 15:17:52.052,-0.189033,3.44746,9.44477,-0.0868167,-0.021456,-0.00580305,0
2024-12-13 15:17:52.055,-0.200997,3.44267,9.46631,-0.0862058,-0.0177909,-0.00702474,0
2024-12-13 15:17:52.057,-0.208176,3.44028,9.49741,-0.0862058,-0.0147367,-0.00824644,0
2024-12-13 15:17:52.059,-0.200997,3.41875,9.51416,-0.0868167,-0.0116825,-0.010079,0
2024-12-13 15:17:52.062,-0.193819,3.41157,9.53091,-0.0880384,-0.00984991,-0.0106898,0
2024-12-13 15:17:52.064,-0.189033,3.42114,9.54527,-0.085595,-0.00496313,-0.0119115,0
2024-12-13 15:17:52.067,-0.215354,3.40917,9.54766,-0.0874275,-0.00313059,-0.0119115,0
2024-12-13 15:17:52.069,-0.244068,3.39482,9.53809,-0.0849841,-0.00251974,-0.0113007,0
2024-12-13 15:17:52.071,-0.248854,3.38285,9.54288,-0.0843733,-0.00435229,-0.0119115,0
2024-12-13 15:17:52.076,-0.239282,3.37807,9.62663,-0.0831516,0.00297788,-0.0113007,0
2024-12-13 15:17:52.078,-0.248854,3.39721,9.67448,-0.077654,0.010308,-0.0113007,0
2024-12-13 15:17:52.081,-0.248854,3.39721,9.67448,-0.0752106,0.0164165,-0.0106898,0
2024-12-13 15:17:52.081,-0.260818,3.402,9.70798,-0.0752106,0.0164165,-0.0106898,0
2024-12-13 15:17:52.083,-0.239282,3.40439,9.7343,-0.0715455,0.0249684,-0.00946813,0
2024-12-13 15:17:52.085,-0.222533,3.40917,9.75823,-0.065437,0.0298552,-0.0106898,0
2024-12-13 15:17:52.088,-0.227318,3.42114,9.77498,-0.0587177,0.0292443,-0.0119115,0
2024-12-13 15:17:52.090,-0.251246,3.4331,9.7678,-0.0519984,0.0261901,-0.0125224,0
2024-12-13 15:17:52.092,-0.301795,3.41396,9.72952,-0.0471116,0.0213033,-0.0119115,0
2024-12-13 15:17:52.099,-0.258425,3.41157,9.77498,-0.0312296,0.010308,-0.0131332,0
2024-12-13 15:17:52.099,-0.258425,3.41157,9.77498,-0.0312296,0.010308,-0.0131332,0
2024-12-13 15:17:52.104,-0.234497,3.42592,9.79891,-0.0184018,0.0139731,-0.0149658,0
2024-12-13 15:17:52.104,-0.234497,3.42592,9.79891,-0.0184018,0.0139731,-0.0149658,0
2024-12-13 15:17:52.107,-0.215354,3.43789,9.77498,-0.013515,0.0151948,-0.0155766,0
2024-12-13 15:17:52.107,-0.215354,3.43789,9.77498,-0.013515,0.0151948,-0.0155766,0
2024-12-13 15:17:52.109,-0.20339,3.44507,9.73669,-0.013515,0.0151948,-0.0155766,0
2024-12-13 15:17:52.114,-0.222533,3.46182,9.67927,0.00786466,0.0109189,-0.0216851,0
2024-12-13 15:17:52.114,-0.222533,3.46182,9.67927,0.00786466,0.0109189,-0.0216851,0
2024-12-13 15:17:52.118,-0.277567,3.47378,9.60987,0.0151948,0.000534491,-0.0204634,0
2024-12-13 15:17:52.121,-0.299402,3.49771,9.57398,0.0151948,0.000534491,-0.0204634,0
2024-12-13 15:17:52.121,-0.299402,3.49771,9.57398,0.0151948,0.000534491,-0.0204634,0
2024-12-13 15:17:52.125,-0.318545,3.51685,9.50698,0.0200816,-0.00923906,-0.0149658,0
2024-12-13 15:17:52.128,-0.335294,3.51924,9.45913,0.0213033,-0.0147367,-0.0137441,0
2024-12-13 15:17:52.128,-0.335294,3.51924,9.45913,0.0213033,-0.0147367,-0.0137441,0
2024-12-13 15:17:52.130,-0.342473,3.52882,9.41366,0.0206925,-0.0153475,-0.0137441,0
2024-12-13 15:17:52.132,-0.335294,3.55753,9.37777,0.0188599,-0.0171801,-0.0119115,0
2024-12-13 15:17:52.135,-0.34008,3.5671,9.34427,0.0176382,-0.0208452,-0.00885729,0
2024-12-13 15:17:52.137,-0.344866,3.57667,9.31795,0.0164165,-0.0190126,-0.00763559,0
2024-12-13 15:17:52.141,-0.352044,3.61735,9.30599,0.0115297,-0.0184018,-0.00397051,0
2024-12-13 15:17:52.142,-0.375972,3.62214,9.3012,0.0115297,-0.0184018,-0.00397051,0
2024-12-13 15:17:52.144,-0.395115,3.61256,9.27966,0.00664296,-0.0147367,0.000916271,0
2024-12-13 15:17:52.147,-0.411865,3.62692,9.24347,0.00542127,-0.0122933,0.00397051,0
2024-12-13 15:17:52.149,-0.423829,3.63889,9.23151,0.00236703,-0.0104608,0.0064139,0
2024-12-13 15:17:52.151,-0.4334,3.65115,9.22194,-0.000687203,-0.00984991,0.00763559,0
2024-12-13 15:17:52.154,-0.452543,3.65354,9.21237,-0.00374144,-0.00618483,0.0113007,0
2024-12-13 15:17:52.156,-0.476471,3.65593,9.20519,-0.00557398,-0.00557398,0.0174091,0
2024-12-13 15:17:52.158,-0.50997,3.65593,9.19562,-0.00984991,-0.00496313,0.0186308,0
2024-12-13 15:17:52.161,-0.533899,3.64876,9.19801,-0.0147367,-0.000687203,0.0253502,0
2024-12-13 15:17:52.163,-0.555434,3.65354,9.21237,-0.0159584,0.00236703,0.0302369,0
2024-12-13 15:17:52.165,-0.593719,3.6679,9.22672,-0.0184018,0.00664296,0.0369563,0
2024-12-13 15:17:52.168,-0.639183,3.66072,9.24347,-0.0196235,0.010308,0.0448973,0
2024-12-13 15:17:52.170,-0.675075,3.63889,9.25544,-0.0226777,0.0158057,0.0503949,0
2024-12-13 15:17:52.173,-0.687039,3.64367,9.25783,-0.0238994,0.0231358,0.0601685,0
2024-12-13 15:17:52.175,-0.703789,3.64606,9.26052,-0.0275645,0.0274118,0.0693312,0
2024-12-13 15:17:52.178,-0.727717,3.64606,9.27009,-0.0287862,0.038407,0.0852132,0
2024-12-13 15:17:52.180,-0.732503,3.66072,9.28924,-0.0287862,0.038407,0.0852132,0
2024-12-13 15:17:52.182,-0.732503,3.66311,9.31316,-0.029397,0.0414613,0.0955976,0
2024-12-13 15:17:52.187,-0.742074,3.65115,9.34666,-0.0300079,0.0469589,0.11148,0
2024-12-13 15:17:52.187,-0.742074,3.65115,9.34666,-0.0300079,0.0469589,0.11148,0
2024-12-13 15:17:52.189,-0.76361,3.65354,9.35624,-0.0306187,0.0481806,0.121253,0
2024-12-13 15:17:52.191,-0.782752,3.67268,9.35624,-0.0281753,0.0530674,0.129805,0
2024-12-13 15:17:52.194,-0.804287,3.67268,9.33949,-0.0269536,0.0567324,0.137822,0
2024-12-13 15:17:52.196,-0.816252,3.67747,9.32274,-0.0275645,0.0579541,0.145153,0
2024-12-13 15:17:52.198,-0.797109,3.69661,9.3347,-0.0275645,0.0579541,0.145153,0
2024-12-13 15:17:52.201,-0.780359,3.69183,9.3682,-0.0245102,0.0756687,0.161645,0
2024-12-13 15:17:52.203,-0.773181,3.68704,9.37777,-0.0196235,0.0872748,0.165921,0
2024-12-13 15:17:52.205,-0.737288,3.69183,9.35863,-0.0141258,0.103157,0.171419,0
2024-12-13 15:17:52.208,-0.691825,3.69422,9.35384,-0.00862822,0.115374,0.173862,0
2024-12-13 15:17:52.210,-0.665504,3.71336,9.34666,-0.00313059,0.119039,0.176917,0
2024-12-13 15:17:52.213,-0.65354,3.73011,9.32513,0.00419957,0.124536,0.178749,0
2024-12-13 15:17:52.215,-0.663111,3.7325,9.30838,0.0121406,0.126369,0.180582,0
2024-12-13 15:17:52.217,-0.677468,3.74925,9.29163,0.0176382,0.123926,0.182414,0
2024-12-13 15:17:52.220,-0.672682,3.77318,9.25305,0.0231358,0.121482,0.183025,0
2024-12-13 15:17:52.222,-0.660718,3.79472,9.19801,0.0292443,0.119039,0.18669,0
2024-12-13 15:17:52.224,-0.634397,3.80907,9.1358,0.0310769,0.118428,0.186079,0
2024-12-13 15:17:52.228,-0.608076,3.81865,9.04248,0.0286335,0.118428,0.182414,0
2024-12-13 15:17:52.229,-0.598505,3.81625,8.94198,0.0286335,0.118428,0.182414,0
2024-12-13 15:17:52.231,-0.593719,3.81147,8.87259,0.0274118,0.115374,0.179971,0
2024-12-13 15:17:52.234,-0.60329,3.81147,8.81037,0.022525,0.111709,0.178138,0
2024-12-13 15:17:52.236,-0.627219,3.7995,8.77448,0.0151948,0.104379,0.176306,0
2024-12-13 15:17:52.238,-0.658325,3.78754,8.78405,0.0096972,0.0970484,0.175695,0
2024-12-13 15:17:52.243,-0.749253,3.78515,8.8008,-0.00496313,0.074447,0.182414,0
2024-12-13 15:17:52.243,-0.749253,3.78515,8.8008,-0.00496313,0.074447,0.182414,0
2024-12-13 15:17:52.246,-0.799502,3.7995,8.79123,-0.0122933,0.0622301,0.182414,0
2024-12-13 15:17:52.248,-0.833001,3.80668,8.81037,-0.021456,0.0469589,0.189134,0
2024-12-13 15:17:52.250,-0.862014,3.81625,8.82952,-0.0312296,0.0353528,0.19341,0
2024-12-13 15:17:52.253,-0.888335,3.833,8.84866,-0.041614,0.0213033,0.197075,0
2024-12-13 15:17:52.255,-0.905085,3.82822,8.8678,-0.0501658,0.00786466,0.201961,0
2024-12-13 15:17:52.257,-0.905085,3.80668,8.89891,-0.0629936,-0.00496313,0.205626,0
2024-12-13 15:17:52.260,-0.919442,3.77797,8.94198,-0.0727672,-0.0159584,0.210513,0
2024-12-13 15:17:52.262,-0.917049,3.73729,8.98744,-0.0825407,-0.0245102,0.216011,0
2024-12-13 15:17:52.264,-0.893121,3.69661,9.04726,-0.0917034,-0.0361163,0.220287,0
2024-12-13 15:17:52.267,-0.881157,3.64128,9.11905,-0.100255,-0.0452791,0.225174,0
2024-12-13 15:17:52.269,-0.871586,3.57667,9.2028,-0.105753,-0.0532201,0.23006,0
2024-12-13 15:17:52.271,-0.864407,3.5001,9.28684,-0.113694,-0.0599394,0.235558,0
2024-12-13 15:17:52.276,-0.816252,3.36132,9.45913,-0.124689,-0.0745997,0.242277,0
2024-12-13 15:17:52.276,-0.816252,3.36132,9.45913,-0.124689,-0.0745997,0.242277,0
2024-12-13 15:17:52.286,-0.572184,3.13639,9.88296,-0.124689,-0.0745997,0.242277,0
2024-12-13 15:17:52.288,-0.514756,3.07627,9.99781,-0.124689,-0.0745997,0.242277,0
2024-12-13 15:17:52.288,-0.514756,3.07627,9.99781,-0.124689,-0.0745997,0.242277,0
2024-12-13 15:17:52.293,-0.512363,3.01406,10.1198,-0.102088,-0.121024,0.242277,0
2024-12-13 15:17:52.295,-0.483649,2.94706,10.1821,-0.0910926,-0.125911,0.239834,0
2024-12-13 15:17:52.297,-0.462114,2.9016,10.2371,-0.077654,-0.130798,0.237391,0
2024-12-13 15:17:52.297,-0.462114,2.9016,10.2371,-0.077654,-0.130798,0.237391,0
2024-12-13 15:17:52.302,-0.395115,2.83699,10.3017,-0.0605502,-0.134463,0.234947,0
2024-12-13 15:17:52.304,-0.361615,2.79392,10.2921,-0.0245102,-0.14668,0.23006,0
2024-12-13 15:17:52.307,-0.335294,2.76281,10.273,-0.00496313,-0.153399,0.225174,0
2024-12-13 15:17:52.309,-0.27996,2.75324,10.2443,0.0164165,-0.159507,0.221508,0
2024-12-13 15:17:52.311,-0.224925,2.74128,10.1988,0.0377962,-0.167449,0.216011,0
2024-12-13 15:17:52.314,-0.181855,2.72692,10.1486,0.0377962,-0.167449,0.216011,0
2024-12-13 15:17:52.316,-0.12682,2.71735,10.084,0.0781121,-0.185163,0.201961,0
2024-12-13 15:17:52.319,-0.066999,2.70539,9.99303,0.0781121,-0.185163,0.201961,0
2024-12-13 15:17:52.321,-0.066999,2.71496,9.91646,0.11965,-0.202267,0.186079,0
2024-12-13 15:17:52.321,-0.026321,2.71496,9.91646,0.11965,-0.202267,0.186079,0
2024-12-13 15:17:52.323,0.0311067,2.71256,9.83031,0.139808,-0.208986,0.176917,0
2024-12-13 15:17:52.323,0.0311067,2.71256,9.83031,0.139808,-0.208986,0.176917,0
2024-12-13 15:17:52.323,0.0311067,2.71256,9.83031,0.139808,-0.208986,0.176917,0
2024-12-13 15:17:52.330,0.114855,2.76042,9.50938,0.197838,-0.227312,0.14332,0
2024-12-13 15:17:52.330,0.143569,2.79631,9.50938,0.197838,-0.227312,0.14332,0
2024-12-13 15:17:52.333,0.167498,2.82742,9.40409,0.197838,-0.227312,0.14332,0
2024-12-13 15:17:52.335,0.198604,2.83938,9.29402,0.233267,-0.238307,0.120642,0
2024-12-13 15:17:52.335,0.198604,2.83938,9.29402,0.233267,-0.238307,0.120642,0
2024-12-13 15:17:52.340,0.265603,2.91595,9.05923,0.25648,-0.247469,0.0955976,0
2024-12-13 15:17:52.342,0.313759,2.95663,8.95394,0.268696,-0.253578,0.082159,0
2024-12-13 15:17:52.344,0.320937,2.99492,8.84148,0.277859,-0.263352,0.0687203,0
2024-12-13 15:17:52.347,0.320937,3.02602,8.70987,0.283357,-0.271903,0.0558925,0
2024-12-13 15:17:52.347,0.320937,3.02602,8.70987,0.283357,-0.271903,0.0558925,0
2024-12-13 15:17:52.352,0.277567,3.05952,8.52293,0.286411,-0.295116,0.033902,0
2024-12-13 15:17:52.352,0.258425,3.10529,8.52293,0.286411,-0.295116,0.033902,0
2024-12-13 15:17:52.354,0.275175,3.14836,8.47986,0.284578,-0.307943,0.0204634,0
2024-12-13 15:17:52.357,0.236889,3.20339,8.38894,0.283357,-0.321993,0.00824644,0
2024-12-13 15:17:52.361,0.289831,3.28953,8.25494,0.270529,-0.355589,-0.0131332,0
2024-12-13 15:17:52.361,0.289831,3.28953,8.25494,0.270529,-0.355589,-0.0131332,0
2024-12-13 15:17:52.363,0.287438,3.32782,8.2023,0.259534,-0.372082,-0.0229068,0
2024-12-13 15:17:52.366,0.282652,3.37089,8.14726,0.250982,-0.389186,-0.033902,0
2024-12-13 15:17:52.368,0.27996,3.40678,8.09193,0.238154,-0.40629,-0.0448973,0
2024-12-13 15:17:52.370,0.304188,3.43071,8.04407,0.226548,-0.418507,-0.05406,0
2024-12-13 15:17:52.373,0.330509,3.44746,8.01536,0.208223,-0.431335,-0.0613902,0
2024-12-13 15:17:52.375,0.371187,3.46421,7.98664,0.194784,-0.440497,-0.069942,0
2024-12-13 15:17:52.377,0.435793,3.46899,7.94836,0.181345,-0.442941,-0.0784939,0
2024-12-13 15:17:52.381,0.502792,3.47139,7.92204,0.149581,-0.453936,-0.0992627,0
2024-12-13 15:17:52.382,0.555434,3.46899,7.92443,0.149581,-0.453936,-0.0992627,0
2024-12-13 15:17:52.385,0.617647,3.46182,7.93161,0.130645,-0.457601,-0.109036,0
2024-12-13 15:17:52.387,0.665504,3.46899,7.96032,0.113541,-0.458823,-0.119421,0
2024-12-13 15:17:52.389,0.71336,3.46421,8.001,0.0982701,-0.460655,-0.130416,0
2024-12-13 15:17:52.394,0.758824,3.47139,8.11107,0.0683385,-0.461266,-0.152406,0
2024-12-13 15:17:52.394,0.787538,3.49532,8.11107,0.0683385,-0.461266,-0.152406,0
2024-12-13 15:17:52.397,0.835394,3.51446,8.17358,0.0432938,-0.457601,-0.174397,0
2024-12-13 15:17:52.399,0.885943,3.53599,8.23819,0.0432938,-0.457601,-0.174397,0
2024-12-13 15:17:52.401,0.945763,3.58385,8.27887,0.0329094,-0.455768,-0.185392,0
2024-12-13 15:17:52.403,1.01755,3.63889,8.31237,0.0237467,-0.448438,-0.194555,0
2024-12-13 15:17:52.406,1.08694,3.70379,8.36022,0.0170274,-0.443551,-0.204939,0
2024-12-13 15:17:52.408,1.17069,3.78036,8.4009,0.0115297,-0.43561,-0.215935,0
2024-12-13 15:17:52.410,1.24487,3.85932,8.42962,0.00542127,-0.430724,-0.22693,0
2024-12-13 15:17:52.413,1.30229,3.92872,8.46311,0.000534491,-0.426448,-0.237314,0
2024-12-13 15:17:52.415,1.35494,4.00289,8.49183,-0.00374144,-0.425226,-0.249531,0
2024-12-13 15:17:52.417,1.39083,4.07946,8.53251,-0.00557398,-0.426448,-0.258083,0
2024-12-13 15:17:52.420,1.42941,4.15603,8.58754,-0.00740652,-0.430724,-0.267857,0
2024-12-13 15:17:52.422,1.47966,4.24247,8.6354,-0.00740652,-0.435,-0.278241,0
2024-12-13 15:17:52.425,1.50838,4.34297,8.68086,-0.00923906,-0.444162,-0.284349,0
2024-12-13 15:17:52.427,1.5347,4.44826,8.7027,-0.00313059,-0.44966,-0.292901,0
2024-12-13 15:17:52.429,1.58495,4.54158,8.70748,-0.0019089,-0.461877,-0.301453,0
2024-12-13 15:17:52.432,1.62084,4.65165,8.69761,-0.00313059,-0.474705,-0.308783,0
2024-12-13 15:17:52.436,1.67587,4.85055,8.58754,-0.00496313,-0.488754,-0.316724,0
2024-12-13 15:17:52.436,1.67587,4.85055,8.58754,-0.00496313,-0.488754,-0.316724,0
2024-12-13 15:17:52.439,1.69023,4.93909,8.52054,-0.0232886,-0.527238,-0.334439,0
2024-12-13 15:17:52.441,1.69502,5.02283,8.42962,-0.0361163,-0.551671,-0.344212,0
2024-12-13 15:17:52.443,1.67109,5.1018,8.33869,-0.0361163,-0.551671,-0.344212,0
2024-12-13 15:17:52.448,1.63998,5.22383,8.24537,-0.117359,-0.634747,-0.364981,0
2024-12-13 15:17:52.448,1.63998,5.22383,8.24537,-0.117359,-0.634747,-0.364981,0
2024-12-13 15:17:52.450,1.63041,5.28126,8.22622,-0.15401,-0.672008,-0.369868,0
2024-12-13 15:17:52.453,1.59212,5.3342,8.2334,-0.15401,-0.672008,-0.369868,0
2024-12-13 15:17:52.458,1.52991,5.37249,8.31476,-0.294505,-0.784404,-0.37842,0
2024-12-13 15:17:52.458,1.52991,5.37249,8.31476,-0.294505,-0.784404,-0.37842,0
2024-12-13 15:17:52.460,1.50359,5.36531,8.36262,-0.343373,-0.819833,-0.37842,0
2024-12-13 15:17:52.462,1.43659,5.33181,8.45833,-0.396516,-0.854041,-0.374144,0
2024-12-13 15:17:52.467,1.33579,5.26212,8.78405,-0.491808,-0.894968,-0.355819,0
2024-12-13 15:17:52.467,1.33579,5.26212,8.78405,-0.491808,-0.894968,-0.355819,0
2024-12-13 15:17:52.469,1.35015,5.18794,8.82234,-0.538844,-0.907795,-0.344212,0
2024-12-13 15:17:52.472,1.37886,5.0683,8.84626,-0.593209,-0.918791,-0.334439,0
2024-12-13 15:17:52.474,1.38126,4.93909,8.93241,-0.648796,-0.927342,-0.324665,0
2024-12-13 15:17:52.476,1.3669,4.83859,9.07358,-0.707437,-0.933451,-0.314892,0
2024-12-13 15:17:52.479,1.35733,4.72104,9.24347,-0.763635,-0.930397,-0.302064,0
2024-12-13 15:17:52.481,1.35494,4.59901,9.43041,-0.819833,-0.920012,-0.288625,0
2024-12-13 15:17:52.484,1.37408,4.47936,9.65295,-0.876642,-0.903519,-0.277019,0
2024-12-13 15:17:52.486,1.39083,4.37887,9.90928,-0.930397,-0.877253,-0.264802,0
2024-12-13 15:17:52.488,1.38844,4.2999,10.1677,-0.977432,-0.838159,-0.250142,0
2024-12-13 15:17:52.490,1.39083,4.2015,10.4719,-1.01836,-0.791124,-0.237925,0
2024-12-13 15:17:52.493,1.38604,4.10339,10.8165,-1.05501,-0.736758,-0.225708,0
2024-12-13 15:17:52.495,1.37169,4.01486,11.1541,-1.08005,-0.672619,-0.214713,0
2024-12-13 15:17:52.498,1.35494,3.92632,11.47,-1.1051,-0.60115,-0.203107,0
2024-12-13 15:17:52.500,1.34536,3.84257,11.7861,-1.1051,-0.60115,-0.203107,0
2024-12-13 15:17:52.502,1.39561,3.75165,12.1167,-1.1222,-0.444162,-0.181116,0
2024-12-13 15:17:52.505,1.4988,3.67029,12.4277,-1.11732,-0.359865,-0.172564,0
2024-12-13 15:17:52.507,1.58255,3.59821,12.6912,-1.10327,-0.280455,-0.164012,0
2024-12-13 15:17:52.509,1.63041,3.52164,12.8898,-1.08189,-0.201656,-0.161569,0
2024-12-13 15:17:52.512,1.6328,3.44985,13.0549,-1.05257,-0.122857,-0.154239,0
2024-12-13 15:17:52.514,1.60409,3.39003,13.2036,-1.01592,-0.0465007,-0.151185,0
2024-12-13 15:17:52.516,1.55623,3.335,13.3089,-0.973156,0.0255792,-0.14752,0
2024-12-13 15:17:52.519,1.48684,3.28475,13.3783,-0.92551,0.0891073,-0.141411,0
2024-12-13 15:17:52.521,1.42702,3.25603,13.4046,-0.870534,0.149581,-0.134081,0
2024-12-13 15:17:52.523,1.35494,3.24646,13.3926,-0.812503,0.200282,-0.128583,0
2024-12-13 15:17:52.526,1.27358,3.25125,13.3831,-0.750808,0.24243,-0.11881,0
2024-12-13 15:17:52.528,1.19701,3.2656,13.3376,-0.686669,0.273583,-0.110869,0
2024-12-13 15:17:52.531,1.10848,3.29432,13.2347,-0.621919,0.298628,-0.100484,0
2024-12-13 15:17:52.533,0.97687,3.34457,13.1483,-0.556558,0.316953,-0.0894891,0
2024-12-13 15:17:52.535,0.837787,3.41396,13.0573,-0.489976,0.331003,-0.0784939,0
2024-12-13 15:17:52.540,0.586541,3.52882,12.8204,-0.347038,0.346885,-0.0473407,0
2024-12-13 15:17:52.540,0.586541,3.52882,12.8204,-0.347038,0.346885,-0.0473407,0
2024-12-13 15:17:52.542,0.488435,3.56949,12.6458,-0.277401,0.349328,-0.0308478,0
2024-12-13 15:17:52.545,0.404686,3.59581,12.4636,-0.206543,0.347496,-0.0131332,0
2024-12-13 15:17:52.547,0.349651,3.62692,12.2698,-0.141182,0.340166,0.00458135,0
2024-12-13 15:17:52.549,0.320937,3.64606,12.0784,-0.0752106,0.327338,0.0204634,0
2024-12-13 15:17:52.552,0.287438,3.66551,11.889,-0.0129041,0.312067,0.0345129,0
2024-12-13 15:17:52.554,0.258425,3.68226,11.6689,0.0481806,0.291909,0.0491732,0
2024-12-13 15:17:52.556,0.244068,3.69422,11.4413,0.106822,0.274805,0.0626118,0
2024-12-13 15:17:52.559,0.256032,3.70618,11.2092,0.160576,0.255869,0.0760505,0
2024-12-13 15:17:52.561,0.282652,3.71336,10.9531,0.211277,0.238765,0.0870457,0
2024-12-13 15:17:52.564,0.316152,3.72293,10.6896,0.258312,0.223494,0.0949868,0
2024-12-13 15:17:52.566,0.361615,3.72533,10.4432,0.304126,0.208223,0.101095,0
2024-12-13 15:17:52.568,0.387936,3.72533,10.2012,0.341998,0.197838,0.107815,0
2024-12-13 15:17:52.571,0.378365,3.73011,9.95235,0.377504,0.189286,0.110258,0
2024-12-13 15:17:52.573,0.378365,3.7325,9.69841,0.408657,0.183178,0.115145,0
2024-12-13 15:17:52.575,0.387936,3.74447,9.45673,0.436145,0.180734,0.11881,0
2024-12-13 15:17:52.578,0.378365,3.76361,9.24347,0.456914,0.180124,0.123086,0
2024-12-13 15:17:52.580,0.364008,3.77318,9.02812,0.476461,0.180734,0.123086,0
2024-12-13 15:17:52.582,0.342473,3.80668,8.81755,0.491121,0.181956,0.128583,0
2024-12-13 15:17:52.585,0.313759,3.833,8.61865,0.498451,0.185621,0.130416,0
2024-12-13 15:17:52.587,0.285045,3.85215,8.40808,0.505782,0.188675,0.13347,0
2024-12-13 15:17:52.589,0.258425,3.87129,8.21426,0.508836,0.194784,0.138433,0
2024-12-13 15:17:52.592,0.227318,3.9,8.05843,0.507614,0.198449,0.142098,0
2024-12-13 15:17:52.594,0.191426,3.94786,7.91007,0.50456,0.204557,0.146985,0
2024-12-13 15:17:52.596,0.150748,3.98375,7.75693,0.496008,0.211277,0.153094,0
2024-12-13 15:17:52.599,0.11007,3.99093,7.62054,0.489289,0.219218,0.156759,0
2024-12-13 15:17:52.601,0.0885344,3.99332,7.5006,0.478293,0.225937,0.1647,0
2024-12-13 15:17:52.604,0.0765703,4.01246,7.37378,0.466076,0.236322,0.170197,0
2024-12-13 15:17:52.606,0.0574277,4.02921,7.25414,0.448973,0.246095,0.175695,0
2024-12-13 15:17:52.613,0.0215354,4.04118,6.97627,0.397662,0.276027,0.192188,0
2024-12-13 15:17:52.613,0.0215354,4.04118,6.97627,0.397662,0.276027,0.192188,0
2024-12-13 15:17:52.615,0.0167498,4.03161,6.8997,0.378114,0.288854,0.197075,0
2024-12-13 15:17:52.618,0.00957129,4.01964,6.81596,0.35788,0.30046,0.201961,0
2024-12-13 15:17:52.618,0.00957129,4.01964,6.81596,0.35788,0.30046,0.201961,0
2024-12-13 15:17:52.620,0.0,4.01486,6.74178,0.332835,0.312677,0.203794,0
2024-12-13 15:17:52.622,-0.00957129,4.01725,6.71067,0.310234,0.323673,0.20807,0
2024-12-13 15:17:52.625,-0.0215354,4.01964,6.69392,0.283968,0.334668,0.212346,0
2024-12-13 15:17:52.629,-0.0382852,4.04596,6.67956,0.233267,0.351772,0.214789,0
2024-12-13 15:17:52.629,-0.0382852,4.04596,6.67956,0.233267,0.351772,0.214789,0
2024-12-13 15:17:52.632,-0.0311067,4.04596,6.7011,0.20639,0.355437,0.212346,0
2024-12-13 15:17:52.634,-0.00717847,4.05314,6.73699,0.178291,0.35788,0.212346,0
2024-12-13 15:17:52.637,0.0239282,4.07468,6.76331,0.150803,0.355437,0.211124,0
2024-12-13 15:17:52.639,0.0526421,4.09143,6.79681,0.123926,0.351772,0.206237,0
2024-12-13 15:17:52.641,0.0861416,4.10339,6.84945,0.0976592,0.343831,0.195853,0
2024-12-13 15:17:52.644,0.12682,4.11296,6.90688,0.074447,0.333446,0.186079,0
2024-12-13 15:17:52.646,0.16989,4.11775,6.98345,0.0536782,0.324894,0.175695,0
2024-12-13 15:17:52.648,0.212961,4.12493,7.07468,0.0329094,0.312677,0.162256,0
2024-12-13 15:17:52.651,0.241675,4.12493,7.1345,0.0121406,0.297406,0.148818,0
2024-12-13 15:17:52.653,0.258425,4.10339,7.19911,-0.00557398,0.281524,0.137212,0
2024-12-13 15:17:52.655,0.285045,4.09382,7.27568,-0.0238994,0.262588,0.120642,0
2024-12-13 15:17:52.658,0.316152,4.09621,7.34746,-0.0397814,0.241819,0.101706,0
2024-12-13 15:17:52.662,0.337687,4.07468,7.44078,-0.0660479,0.194173,0.0662769,0
2024-12-13 15:17:52.662,0.364008,4.07468,7.44078,-0.0660479,0.194173,0.0662769,0
2024-12-13 15:17:52.665,0.414257,4.05314,7.51974,-0.081319,0.168517,0.0467298,0
2024-12-13 15:17:52.667,0.462114,4.03879,7.59183,-0.0910926,0.144084,0.0247393,0
2024-12-13 15:17:52.670,0.483649,4.01964,7.64926,-0.100866,0.119039,0.00580305,0
2024-12-13 15:17:52.672,0.490828,3.99093,7.71147,-0.112472,0.0927724,-0.0155766,0
2024-12-13 15:17:52.674,0.500399,3.97179,7.78086,-0.119802,0.0707819,-0.0387888,0
2024-12-13 15:17:52.677,0.502792,3.94547,7.84786,-0.129576,0.0481806,-0.0589468,0
2024-12-13 15:17:52.679,0.514756,3.92154,7.91725,-0.138739,0.0249684,-0.0784939,0
2024-12-13 15:17:52.681,0.524327,3.90718,7.99621,-0.144236,0.00419957,-0.0992627,0
2024-12-13 15:17:52.685,0.521934,3.88564,8.06082,-0.16134,-0.0300079,-0.131638,0
2024-12-13 15:17:52.686,0.52672,3.87129,8.13769,-0.16134,-0.0300079,-0.131638,0
2024-12-13 15:17:52.688,0.529113,3.85454,8.22383,-0.170503,-0.0434465,-0.148741,0
2024-12-13 15:17:52.691,0.531506,3.83779,8.29083,-0.178444,-0.0544418,-0.164012,0
2024-12-13 15:17:52.693,0.517149,3.8354,8.36501,-0.178444,-0.0544418,-0.164012,0
2024-12-13 15:17:52.698,0.435793,3.77797,8.52772,-0.202878,-0.077654,-0.208604,0
2024-12-13 15:17:52.698,0.435793,3.77797,8.52772,-0.202878,-0.077654,-0.208604,0
2024-12-13 15:17:52.700,0.387936,3.74686,8.62104,-0.212651,-0.0819299,-0.2196,0
2024-12-13 15:17:52.702,0.325723,3.70858,8.72902,-0.219981,-0.0807082,-0.229984,0
2024-12-13 15:17:52.706,0.256032,3.66072,8.82952,-0.234031,-0.073378,-0.250142,0
2024-12-13 15:17:52.707,0.232104,3.63649,8.93959,-0.234031,-0.073378,-0.250142,0
2024-12-13 15:17:52.710,0.234497,3.61017,9.07358,-0.237085,-0.0648262,-0.256861,0
2024-12-13 15:17:52.712,0.229711,3.57906,9.2028,-0.243804,-0.0562743,-0.26297,0
2024-12-13 15:17:52.714,0.224925,3.55274,9.33709,-0.243194,-0.0446682,-0.269078,0
2024-12-13 15:17:52.717,0.22014,3.53599,9.47109,-0.245026,-0.0312296,-0.273965,0
2024-12-13 15:17:52.719,0.229711,3.52642,9.6003,-0.242583,-0.0153475,-0.280684,0
2024-12-13 15:17:52.722,0.241675,3.50249,9.72234,-0.235253,0.0188599,-0.288625,0
2024-12-13 15:17:52.724,0.251246,3.50249,9.83988,-0.235253,0.0188599,-0.288625,0
2024-12-13 15:17:52.728,0.236889,3.49053,10.0935,-0.218149,0.0561216,-0.294734,0
2024-12-13 15:17:52.728,0.236889,3.49053,10.0935,-0.218149,0.0561216,-0.294734,0
2024-12-13 15:17:52.731,0.224925,3.49532,10.1988,-0.207154,0.0738362,-0.295345,0
2024-12-13 15:17:52.733,0.200997,3.50489,10.3113,-0.196158,0.0891073,-0.292901,0
2024-12-13 15:17:52.735,0.174676,3.50967,10.4216,-0.182109,0.108654,-0.29229,0
2024-12-13 15:17:52.738,0.150748,3.52642,10.503,-0.166838,0.123926,-0.289847,0
2024-12-13 15:17:52.740,0.131605,3.55514,10.5867,-0.151566,0.136753,-0.284349,0
2024-12-13 15:17:52.743,0.129212,3.56231,10.6729,-0.138128,0.150803,-0.278852,0
2024-12-13 15:17:52.745,0.136391,3.59342,10.7518,-0.122246,0.156911,-0.273965,0
2024-12-13 15:17:52.747,0.160319,3.64367,10.8236,-0.105753,0.165463,-0.269689,0
2024-12-13 15:17:52.750,0.200997,3.67029,10.8667,-0.0892601,0.171572,-0.260526,0
2024-12-13 15:17:52.752,0.256032,3.68943,10.8978,-0.0739889,0.174015,-0.25625,0
2024-12-13 15:17:52.754,0.332901,3.72054,10.9241,-0.0562743,0.175848,-0.252585,0
2024-12-13 15:17:52.757,0.404686,3.75404,10.9265,-0.0391706,0.178902,-0.249531,0
2024-12-13 15:17:52.759,0.45015,3.79232,10.9122,-0.0238994,0.175848,-0.245866,0
2024-12-13 15:17:52.761,0.476471,3.84975,10.8978,-0.00740652,0.17035,-0.244644,0
2024-12-13 15:17:52.766,0.521934,3.94307,10.8452,0.022525,0.156911,-0.237314,0
2024-12-13 15:17:52.766,0.521934,3.94307,10.8452,0.022525,0.156911,-0.237314,0
2024-12-13 15:17:52.768,0.533899,4.00529,10.8069,0.0402396,0.146527,-0.233038,0
2024-12-13 15:17:52.771,0.536291,4.05075,10.7255,0.0530674,0.13431,-0.230595,0
2024-12-13 15:17:52.773,0.536291,4.08903,10.6442,0.0530674,0.13431,-0.230595,0
2024-12-13 15:17:52.775,0.536291,4.12493,10.5772,0.0805555,0.110487,-0.220821,0
2024-12-13 15:17:52.778,0.529113,4.15843,10.5078,0.0921616,0.100103,-0.215935,0
2024-12-13 15:17:52.780,0.519542,4.20389,10.4504,0.103157,0.090329,-0.211048,0
2024-12-13 15:17:52.783,0.524327,4.2329,10.4121,0.111709,0.0805555,-0.20555,0
2024-12-13 15:17:52.785,0.533899,4.27119,10.3591,0.120871,0.0720036,-0.197609,0
2024-12-13 15:17:52.790,0.54347,4.33819,10.2778,0.129423,0.0548999,-0.18417,0
2024-12-13 15:17:52.792,0.557827,4.40279,10.2778,0.133088,0.046348,-0.17684,0
2024-12-13 15:17:52.792,0.576969,4.45544,10.2419,0.133088,0.046348,-0.17684,0
2024-12-13 15:17:52.794,0.584148,4.50808,10.2227,0.133088,0.0377962,-0.173175,0
2024-12-13 15:17:52.797,0.574577,4.57508,10.2132,0.130645,0.0316877,-0.167067,0
2024-12-13 15:17:52.799,0.579362,4.6325,10.1964,0.129423,0.0268009,-0.161569,0
2024-12-13 15:17:52.802,0.579362,4.65643,10.1868,0.125147,0.0237467,-0.153017,0
2024-12-13 15:17:52.804,0.572184,4.69711,10.1964,0.120871,0.0231358,-0.146909,0
2024-12-13 15:17:52.806,0.565005,4.74257,10.2156,0.119039,0.0231358,-0.142022,0
2024-12-13 15:17:52.809,0.567398,4.77637,10.2395,0.108654,0.0219141,-0.134692,0
2024-12-13 15:17:52.813,0.576969,4.82902,10.3041,0.094605,0.0280226,-0.121253,0
2024-12-13 15:17:52.813,0.576969,4.82902,10.3041,0.094605,0.0280226,-0.121253,0
2024-12-13 15:17:52.816,0.572184,4.84337,10.3639,0.0817772,0.0310769,-0.116366,0
2024-12-13 15:17:52.818,0.567398,4.85534,10.436,0.0713928,0.0341311,-0.11148,0
2024-12-13 15:17:52.820,0.593719,4.86251,10.5197,0.0591758,0.0377962,-0.103539,0
2024-12-13 15:17:52.823,0.627219,4.86251,10.6418,0.0475697,0.0432938,-0.0974301,0
2024-12-13 15:17:52.825,0.646361,4.86491,10.783,0.0475697,0.0432938,-0.0974301,0
2024-12-13 15:17:52.827,0.658325,4.86969,10.9193,0.0255792,0.0634518,-0.0846023,0
2024-12-13 15:17:52.830,0.691825,4.87926,11.0919,0.0170274,0.0762796,-0.077883,0
2024-12-13 15:17:52.832,0.749253,4.88166,11.2762,0.00847551,0.0891073,-0.0717745,0
2024-12-13 15:17:52.834,0.794716,4.89841,11.4748,0.00297788,0.1056,-0.0638335,0
2024-12-13 15:17:52.837,0.825823,4.91037,11.6761,-0.0019089,0.123926,-0.0552817,0
2024-12-13 15:17:52.841,0.907478,4.91037,12.0832,-0.00618483,0.164242,-0.0436756,0
2024-12-13 15:17:52.841,0.869193,4.90798,12.0832,-0.00618483,0.164242,-0.0436756,0
2024-12-13 15:17:52.846,0.984048,4.95105,12.4588,-0.00251974,0.205779,-0.0332912,0
2024-12-13 15:17:52.849,0.984048,4.95105,12.4588,0.00297788,0.226548,-0.0290152,0
2024-12-13 15:17:52.849,0.986441,4.97019,12.6191,0.00297788,0.226548,-0.0290152,0
2024-12-13 15:17:52.851,0.991227,4.99651,12.775,0.00908635,0.247928,-0.0222959,0
2024-12-13 15:17:52.853,1.00558,5.02762,12.9209,0.0151948,0.269307,-0.0167983,0
2024-12-13 15:17:52.856,1.00319,5.06112,13.0621,0.0237467,0.288244,-0.0131332,0
2024-12-13 15:17:52.860,1.00319,5.16401,13.273,0.0469589,0.323062,-0.00580305,0
2024-12-13 15:17:52.860,1.00319,5.16401,13.273,0.0469589,0.323062,-0.00580305,0
2024-12-13 15:17:52.863,1.00798,5.24058,13.3567,0.0616192,0.337722,-0.00213797,0
2024-12-13 15:17:52.865,1.01037,5.30997,13.4094,0.0713928,0.344442,-0.00274881,0
2024-12-13 15:17:52.867,1.01755,5.36291,13.4453,0.0842206,0.35055,-0.00458135,0
2024-12-13 15:17:52.870,1.01994,5.43231,13.4453,0.0952158,0.352993,-0.00702474,0
2024-12-13 15:17:52.872,1.00798,5.5017,13.4429,0.1056,0.348717,-0.0137441,0
2024-12-13 15:17:52.874,0.984048,5.55195,13.4309,0.116595,0.340776,-0.0192417,0
2024-12-13 15:17:52.879,0.929013,5.6333,13.4142,0.127591,0.32917,-0.0265719,0
2024-12-13 15:17:52.881,0.876371,5.68355,13.4142,0.147138,0.30046,-0.0400105,0
2024-12-13 15:17:52.881,0.876371,5.68355,13.4142,0.147138,0.30046,-0.0400105,0
2024-12-13 15:17:52.884,0.825823,5.73141,13.3807,0.155079,0.280913,-0.0479515,0
2024-12-13 15:17:52.886,0.794716,5.75773,13.3328,0.161798,0.263199,-0.0571142,0
2024-12-13 15:17:52.889,0.789931,5.79123,13.3041,0.163631,0.239987,-0.0668878,0
2024-12-13 15:17:52.891,0.782752,5.84148,13.2778,0.164852,0.217996,-0.0766613,0
2024-12-13 15:17:52.893,0.749253,5.88216,13.2419,0.16302,0.197838,-0.0894891,0
2024-12-13 15:17:52.896,0.727717,5.91596,13.2275,0.160576,0.174626,-0.100484,0
2024-12-13 15:17:52.898,0.720539,5.9686,13.2395,0.156911,0.154468,-0.110258,0
2024-12-13 15:17:52.900,0.706182,6.01645,13.2371,0.152025,0.136753,-0.124307,0
2024-12-13 15:17:52.903,0.694218,6.03799,13.2251,0.145305,0.11965,-0.135914,0
2024-12-13 15:17:52.905,0.675075,6.05952,13.2227,0.138586,0.108044,-0.14752,0
2024-12-13 15:17:52.907,0.63679,6.08345,13.2323,0.133699,0.100103,-0.156071,0
2024-12-13 15:17:52.910,0.600898,6.07627,13.2371,0.125758,0.100103,-0.165234,0
2024-12-13 15:17:52.912,0.567398,6.06192,13.2227,0.120261,0.101324,-0.173786,0
2024-12-13 15:17:52.914,0.524327,6.04038,13.2323,0.113541,0.108654,-0.182338,0
2024-12-13 15:17:52.917,0.447757,6.01167,13.2634,0.103768,0.118428,-0.186614,0
2024-12-13 15:17:52.922,0.371187,5.95424,13.3256,0.0848314,0.140419,-0.19089,0
2024-12-13 15:17:52.922,0.299402,5.95424,13.3256,0.0848314,0.140419,-0.19089,0
2024-12-13 15:17:52.926,0.155533,5.85344,13.3807,0.0591758,0.167296,-0.186003,0
2024-12-13 15:17:52.926,0.155533,5.85344,13.3807,0.0591758,0.167296,-0.186003,0
2024-12-13 15:17:52.929,0.0789631,5.80559,13.4309,0.0469589,0.179513,-0.181727,0
2024-12-13 15:17:52.936,-0.129212,5.57109,13.5075,0.010308,0.212498,-0.156682,0
2024-12-13 15:17:52.936,-0.129212,5.57109,13.5075,0.010308,0.212498,-0.156682,0
2024-12-13 15:17:52.938,-0.193819,5.48255,13.5194,-0.00374144,0.222883,-0.146909,0
2024-12-13 15:17:52.938,-0.193819,5.48255,13.5194,-0.00374144,0.222883,-0.146909,0
2024-12-13 15:17:52.940,-0.258425,5.37249,13.5218,-0.0208452,0.230824,-0.134081,0
2024-12-13 15:17:52.943,-0.332901,5.25254,13.5434,-0.0403923,0.236322,-0.120031,0
2024-12-13 15:17:52.947,-0.3999,5.0324,13.6678,-0.0605502,0.233267,-0.0955976,0
2024-12-13 15:17:52.947,-0.3999,5.0324,13.6678,-0.0605502,0.233267,-0.0955976,0
2024-12-13 15:17:52.950,-0.435793,4.90559,13.7157,-0.100866,0.225326,-0.0833807,0
2024-12-13 15:17:52.952,-0.469292,4.75693,13.7758,-0.121635,0.212498,-0.069942,0
2024-12-13 15:17:52.955,-0.488435,4.60379,13.8428,-0.143625,0.198449,-0.0601685,0
2024-12-13 15:17:52.957,-0.505185,4.44108,13.9241,-0.16867,0.179513,-0.046119,0
2024-12-13 15:17:52.962,-0.50997,4.11296,14.1275,-0.21204,0.139808,-0.0222959,0
2024-12-13 15:17:52.963,-0.50997,4.11296,14.1275,-0.231587,0.11965,-0.0113007,0
2024-12-13 15:17:52.964,-0.476471,3.94068,14.24,-0.231587,0.11965,-0.0113007,0
2024-12-13 15:17:52.966,-0.45015,3.75643,14.3575,-0.249302,0.0958267,0.000916271,0
2024-12-13 15:17:52.969,-0.423829,3.5671,14.4772,-0.266406,0.0781121,0.0143549,0
2024-12-13 15:17:52.971,-0.380758,3.39003,14.6184,-0.276179,0.0597867,0.0253502,0
2024-12-13 15:17:52.973,-0.328116,3.19861,14.7667,-0.285342,0.0408504,0.038178,0
2024-12-13 15:17:52.976,-0.282652,3.00449,14.901,-0.290229,0.0268009,0.0479515,0
2024-12-13 15:17:52.978,-0.234497,2.82024,15.0446,-0.288396,0.0176382,0.0583359,0
2024-12-13 15:17:52.980,-0.184247,2.64317,15.1834,-0.281677,0.0109189,0.0674986,0
2024-12-13 15:17:52.987,-0.0646062,2.15713,15.6048,-0.242583,0.0127514,0.085824,1
2024-12-13 15:17:52.987,-0.0646062,2.15713,15.6048,-0.242583,0.0127514,0.085824,1
2024-12-13 15:17:52.987,-0.0646062,2.15713,15.6048,-0.242583,0.0127514,0.085824,1
2024-12-13 15:17:52.992,0.0215354,1.83619,15.7819,-0.130798,0.0487914,0.113312,0
2024-12-13 15:17:52.995,0.0981057,1.6998,15.8465,-0.0770431,0.0695602,0.121253,0
2024-12-13 15:17:52.995,0.0981057,1.6998,15.8465,-0.0770431,0.0695602,0.121253,0
2024-12-13 15:17:52.997,0.167498,1.56341,15.8848,-0.0171801,0.0915507,0.129805,0
2024-12-13 15:17:52.999,0.232104,1.41745,15.8608,0.0475697,0.114152,0.13599,0
2024-12-13 15:17:53.002,0.27996,1.25444,15.8082,0.115985,0.138586,0.142709,0
2024-12-13 15:17:53.004,0.30658,1.10848,15.7508,0.194784,0.163631,0.151872,0
2024-12-13 15:17:53.006,0.325723,0.998405,15.679,0.276027,0.19173,0.160424,0
2024-12-13 15:17:53.009,0.335294,0.888335,15.5641,0.366432,0.219829,0.168976,0
2024-12-13 15:17:53.011,0.337687,0.811466,15.382,0.460579,0.251593,0.179971,0
2024-12-13 15:17:53.013,0.318545,0.782752,15.1475,0.556482,0.282746,0.19341,0
2024-12-13 15:17:53.016,0.301795,0.76361,14.8843,0.656661,0.316953,0.201961,0
2024-12-13 15:17:53.018,0.287438,0.758824,14.592,0.756229,0.348717,0.212346,0
2024-12-13 15:17:53.020,0.267996,0.768395,14.2615,0.852743,0.378649,0.223341,0
2024-12-13 15:17:53.023,0.246461,0.794716,13.8978,0.946813,0.40797,0.230671,0
2024-12-13 15:17:53.025,0.212961,0.852443,13.5075,1.03294,0.433014,0.23678,0
2024-12-13 15:17:53.028,0.162712,0.917049,13.0813,1.12396,0.459892,0.24411,0
2024-12-13 15:17:53.030,0.11007,0.972084,12.6215,1.20337,0.479439,0.248997,0
2024-12-13 15:17:53.032,0.0311067,1.02473,12.1502,1.27667,0.498375,0.254494,0
2024-12-13 15:17:53.035,-0.0598206,1.08455,11.6761,1.34631,0.515479,0.259381,0
2024-12-13 15:17:53.037,-0.141177,1.15155,11.1781,1.40495,0.529528,0.263046,0
2024-12-13 15:17:53.039,-0.229711,1.21376,10.6777,1.45931,0.544189,0.267322,0
2024-12-13 15:17:53.042,-0.313759,1.27597,10.1725,1.5033,0.555184,0.271598,0
2024-12-13 15:17:53.044,-0.392722,1.34058,9.67209,1.54239,0.563736,0.274652,0
2024-12-13 15:17:53.046,-0.457328,1.41027,9.16212,1.56866,0.570455,0.278317,0
2024-12-13 15:17:53.049,-0.536291,1.48205,8.6665,1.58576,0.575342,0.278928,0
2024-12-13 15:17:53.051,-0.632004,1.54666,8.18794,1.59614,0.578396,0.279539,0
2024-12-13 15:17:53.053,-0.73011,1.60887,7.72822,1.59981,0.582061,0.281982,0
2024-12-13 15:17:53.056,-0.816252,1.67109,7.30918,1.59248,0.58145,0.282593,0
2024-12-13 15:17:53.058,-0.914656,1.73809,6.8997,1.58148,0.577785,0.283815,0
2024-12-13 15:17:53.061,-1.02233,1.81226,6.53121,1.56133,0.571677,0.28748,0
2024-12-13 15:17:53.063,-1.10848,1.89123,6.22224,1.53689,0.565568,0.289313,0
2024-12-13 15:17:53.065,-1.16112,2.00877,5.92792,1.50207,0.556405,0.292367,0
2024-12-13 15:17:53.068,-1.18983,2.19063,5.69073,1.46542,0.542967,0.29481,0
2024-12-13 15:17:53.070,-1.27119,2.29831,5.51845,1.42388,0.519755,0.293588,0
2024-12-13 15:17:53.072,-1.43898,2.30788,5.32911,1.38479,0.505094,0.292978,0
2024-12-13 15:17:53.075,-1.59212,2.32463,5.13051,1.33959,0.499597,0.29481,0
2024-12-13 15:17:53.078,-1.67587,2.33898,4.94148,1.23025,0.517311,0.300919,0
2024-12-13 15:17:53.079,-1.67827,2.35573,4.77637,1.23025,0.517311,0.300919,0
2024-12-13 15:17:53.082,-1.67827,2.40838,4.65883,1.17099,0.517311,0.300308,0
2024-12-13 15:17:53.084,-1.70459,2.47059,4.58465,1.10747,0.505705,0.298475,0
2024-12-13 15:17:53.086,-1.74048,2.5331,4.55354,1.04516,0.489823,0.295421,0
2024-12-13 15:17:53.089,-1.81226,2.59292,4.57747,0.985297,0.470887,0.292978,0
2024-12-13 15:17:53.091,-1.89841,2.62642,4.59661,0.926044,0.450729,0.289923,0
2024-12-13 15:17:53.093,-1.97288,2.63839,4.60379,0.866792,0.435458,0.293588,0
2024-12-13 15:17:53.096,-2.01595,2.65992,4.63729,0.805097,0.420187,0.297254,0
2024-12-13 15:17:53.098,-2.02552,2.69103,4.7019,0.747066,0.407359,0.297864,0
2024-12-13 15:17:53.101,-2.02074,2.71735,4.79552,0.689647,0.394531,0.300308,0
2024-12-13 15:17:53.103,-2.02313,2.73171,4.88405,0.633449,0.378649,0.302751,0
2024-12-13 15:17:53.105,-2.01595,2.73888,4.97019,0.578472,0.363989,0.306416,0
2024-12-13 15:17:53.108,-1.98963,2.72213,5.05633,0.527161,0.349328,0.309471,0
2024-12-13 15:17:53.110,-1.95344,2.69821,5.14726,0.476461,0.3365,0.312525,0
2024-12-13 15:17:53.112,-1.91755,2.68385,5.24297,0.428204,0.320008,0.315579,0
2024-12-13 15:17:53.115,-1.86969,2.62881,5.35334,0.38178,0.305958,0.319244,0
2024-12-13 15:17:53.117,-1.80269,2.56899,5.46102,0.338333,0.291909,0.321077,0
2024-12-13 15:17:53.119,-1.7333,2.52084,5.56152,0.297406,0.27847,0.320466,0
2024-12-13 15:17:53.122,-1.66869,2.4658,5.68834,0.258923,0.267475,0.320466,0
2024-12-13 15:17:53.124,-1.59452,2.4012,5.80798,0.225937,0.259534,0.320466,0
2024-12-13 15:17:53.126,-1.51555,2.3342,5.91356,0.197227,0.251593,0.316801,0
2024-12-13 15:17:53.129,-1.44616,2.27916,6.02602,0.167907,0.246095,0.315579,0
2024-12-13 15:17:53.131,-1.39083,2.23131,6.11934,0.142862,0.238765,0.310692,0
2024-12-13 15:17:53.134,-1.32861,2.18106,6.20788,0.121482,0.231435,0.309471,0
2024-12-13 15:17:53.136,-1.26879,2.12842,6.28684,0.101324,0.228381,0.307027,0
2024-12-13 15:17:53.138,-1.21376,2.09013,6.35623,0.0854423,0.223494,0.303362,0
2024-12-13 15:17:53.141,-1.14915,2.05424,6.40888,0.0707819,0.216164,0.294199,0
2024-12-13 15:17:53.143,-1.09412,2.0351,6.45464,0.058565,0.208223,0.288091,0
2024-12-13 15:17:53.145,-1.05105,2.02552,6.5025,0.0469589,0.198449,0.280761,0
2024-12-13 15:17:53.148,-1.0008,2.00638,6.5336,0.0396287,0.189286,0.274041,0
2024-12-13 15:17:53.150,-0.945763,2.01835,6.57428,0.0365745,0.178291,0.266711,0
2024-12-13 15:17:53.152,-0.912264,2.0351,6.61735,0.0280226,0.164242,0.255716,0
2024-12-13 15:17:53.155,-0.893121,2.03988,6.64128,0.0243575,0.150192,0.245942,0
2024-12-13 15:17:53.157,-0.859622,2.05663,6.64846,0.0219141,0.135532,0.236169,0
2024-12-13 15:17:53.159,-0.828216,2.07338,6.66999,0.0213033,0.123926,0.226395,0
2024-12-13 15:17:53.162,-0.809073,2.07817,6.67239,0.0213033,0.109876,0.214789,0
2024-12-13 15:17:53.164,-0.787538,2.0686,6.66281,0.0219141,0.0964375,0.201351,0
2024-12-13 15:17:53.166,-0.770788,2.06381,6.67478,0.0231358,0.0799446,0.191577,0
2024-12-13 15:17:53.169,-0.768395,2.0686,6.71306,0.0298552,0.0652843,0.182414,0
2024-12-13 15:17:53.171,-0.780359,2.07099,6.74656,0.0371853,0.0512348,0.173862,0
2024-12-13 15:17:53.174,-0.801895,2.0686,6.74896,0.0457372,0.0390179,0.166532,0
2024-12-13 15:17:53.176,-0.799502,2.06381,6.74656,0.0591758,0.0274118,0.15798,0
2024-12-13 15:17:53.178,-0.782752,2.07099,6.75374,0.0707819,0.0151948,0.15065,0
2024-12-13 15:17:53.181,-0.766002,2.08295,6.74656,0.082388,0.00297788,0.14332,0
2024-12-13 15:17:53.183,-0.749253,2.09492,6.73939,0.0970484,-0.00923906,0.137212,0
2024-12-13 15:17:53.185,-0.727717,2.12602,6.74178,0.113541,-0.0159584,0.131638,0
2024-12-13 15:17:53.188,-0.682254,2.13559,6.71546,0.130645,-0.0245102,0.123697,0
2024-12-13 15:17:53.190,-0.651147,2.1332,6.68674,0.145305,-0.0324513,0.116366,0
2024-12-13 15:17:53.192,-0.63679,2.14517,6.65324,0.158744,-0.0397814,0.11148,0
2024-12-13 15:17:53.195,-0.605683,2.1667,6.61017,0.172183,-0.0458899,0.105371,0
2024-12-13 15:17:53.198,-0.569791,2.18106,6.56471,0.194784,-0.0568851,0.0937651,0
2024-12-13 15:17:53.199,-0.567398,2.19541,6.50728,0.194784,-0.0568851,0.0937651,0
2024-12-13 15:17:53.204,-0.579362,2.24327,6.42563,0.208223,-0.0581068,0.0901,0
2024-12-13 15:17:53.207,-0.605683,2.24566,6.37059,0.228991,-0.0611611,0.0870457,0
2024-12-13 15:17:53.207,-0.605683,2.24566,6.37059,0.228991,-0.0611611,0.0870457,0
2024-12-13 15:17:53.209,-0.63679,2.25284,6.30359,0.236932,-0.0636045,0.0907108,0
2024-12-13 15:17:53.211,-0.655932,2.29113,6.22702,0.243652,-0.0648262,0.0919325,0
2024-12-13 15:17:53.214,-0.65354,2.32702,6.16002,0.249149,-0.0648262,0.0949868,0
2024-12-13 15:17:53.216,-0.651147,2.35813,6.07627,0.252814,-0.0581068,0.0992627,0
2024-12-13 15:17:53.218,-0.643968,2.39402,5.99013,0.25648,-0.057496,0.105371,0
2024-12-13 15:17:53.221,-0.632004,2.42752,5.91117,0.25648,-0.0519984,0.109036,0
2024-12-13 15:17:53.223,-0.600898,2.48255,5.81755,0.255869,-0.0471116,0.112701,0
2024-12-13 15:17:53.225,-0.579362,2.53071,5.70987,0.252204,-0.0422248,0.118199,0
2024-12-13 15:17:53.228,-0.567398,2.57139,5.61416,0.247317,-0.0367272,0.124307,0
2024-12-13 15:17:53.230,-0.569791,2.60249,5.53998,0.236932,-0.0287862,0.128583,0
2024-12-13 15:17:53.232,-0.593719,2.6336,5.45863,0.225937,-0.0184018,0.13347,0
2024-12-13 15:17:53.235,-0.617647,2.65992,5.37727,0.219218,-0.00862822,0.137822,0
2024-12-13 15:17:53.237,-0.643968,2.68624,5.31476,0.205168,0.00236703,0.14332,0
2024-12-13 15:17:53.240,-0.679861,2.73171,5.26451,0.189286,0.0176382,0.15065,0
2024-12-13 15:17:53.242,-0.708575,2.77956,5.22144,0.17768,0.0322986,0.158591,0
2024-12-13 15:17:53.244,-0.727717,2.82263,5.2023,0.163631,0.0432938,0.165921,0
2024-12-13 15:17:53.247,-0.739681,2.87288,5.19033,0.144694,0.0542891,0.172641,0
2024-12-13 15:17:53.249,-0.727717,2.92552,5.18555,0.128202,0.0646735,0.175695,0
2024-12-13 15:17:53.251,-0.703789,2.97099,5.19512,0.110487,0.0732253,0.181803,0
2024-12-13 15:17:53.254,-0.703789,3.02124,5.20469,0.0970484,0.082388,0.185468,0
2024-12-13 15:17:53.256,-0.701396,3.07388,5.22862,0.0829989,0.0878856,0.190355,0
2024-12-13 15:17:53.258,-0.691825,3.11725,5.24537,0.0671168,0.0958267,0.192799,0
2024-12-13 15:17:53.261,-0.708575,3.14357,5.25733,0.0548999,0.103157,0.198907,0
2024-12-13 15:17:53.263,-0.708575,3.15793,5.29322,0.0408504,0.1056,0.200129,0
2024-12-13 15:17:53.265,-0.706182,3.17468,5.33181,0.0286335,0.11293,0.204405,0
2024-12-13 15:17:53.268,-0.720539,3.20578,5.35095,0.0200816,0.114152,0.209292,0
2024-12-13 15:17:53.270,-0.71336,3.23928,5.38445,0.00664296,0.121482,0.213567,0
2024-12-13 15:17:53.272,-0.699003,3.26321,5.42752,-0.00374144,0.121482,0.217233,0
2024-12-13 15:17:53.275,-0.687039,3.29671,5.44906,-0.0165692,0.118428,0.223952,0
2024-12-13 15:17:53.280,-0.667897,3.33021,5.46341,-0.0324513,0.114152,0.228839,0
2024-12-13 15:17:53.282,-0.60329,3.39003,5.48973,-0.0581068,0.0909399,0.23678,0
2024-12-13 15:17:53.282,-0.60329,3.39003,5.48973,-0.0581068,0.0909399,0.23678,0
2024-12-13 15:17:53.284,-0.591326,3.41157,5.51845,-0.0745997,0.0732253,0.241666,0
2024-12-13 15:17:53.287,-0.576969,3.45703,5.54238,-0.0874275,0.0610084,0.245942,0
2024-12-13 15:17:53.289,-0.576969,3.49771,5.57587,-0.102088,0.0487914,0.250829,0
2024-12-13 15:17:53.291,-0.579362,3.54317,5.61177,-0.11797,0.0371853,0.256938,0
2024-12-13 15:17:53.294,-0.584148,3.57189,5.63091,-0.136295,0.0243575,0.261824,0
2024-12-13 15:17:53.296,-0.576969,3.58624,5.6668,-0.149734,0.0151948,0.270376,0
2024-12-13 15:17:53.298,-0.574577,3.6006,5.70269,-0.167449,0.00358873,0.274652,0
2024-12-13 15:17:53.301,-0.593719,3.60539,5.73619,-0.184552,-0.00679568,0.281372,0
2024-12-13 15:17:53.303,-0.632004,3.61017,5.78884,-0.205321,-0.0190126,0.288091,0
2024-12-13 15:17:53.305,-0.65354,3.63171,5.84148,-0.225479,-0.0287862,0.292367,0
2024-12-13 15:17:53.308,-0.660718,3.64876,5.92313,-0.251135,-0.0422248,0.299086,0
2024-12-13 15:17:53.310,-0.665504,3.63889,6.03081,-0.274958,-0.0544418,0.307638,0
2024-12-13 15:17:53.313,-0.65354,3.63889,6.15284,-0.29817,-0.0660479,0.313746,0
2024-12-13 15:17:53.315,-0.65354,3.66311,6.29402,-0.323825,-0.0764323,0.316801,0
2024-12-13 15:17:53.317,-0.65354,3.70618,6.43759,-0.350092,-0.0837624,0.322298,0
2024-12-13 15:17:53.320,-0.634397,3.75165,6.58385,-0.374526,-0.0880384,0.329628,0
2024-12-13 15:17:53.322,-0.615255,3.78036,6.74656,-0.397738,-0.0917034,0.329628,0
2024-12-13 15:17:53.324,-0.598505,3.7995,6.92124,-0.420339,-0.0978119,0.333294,0
2024-12-13 15:17:53.328,-0.572184,3.82582,7.09861,-0.461266,-0.0972011,0.336348,0
2024-12-13 15:17:53.329,-0.541077,3.85454,7.2685,-0.461266,-0.0972011,0.336348,0
2024-12-13 15:17:53.331,-0.505185,3.88804,7.44317,-0.480202,-0.0978119,0.335737,0
2024-12-13 15:17:53.334,-0.4669,3.90957,7.61336,-0.498528,-0.0965902,0.335126,0
2024-12-13 15:17:53.336,-0.428614,3.92154,7.75933,-0.50769,-0.0941468,0.328407,0
2024-12-13 15:17:53.338,-0.409472,3.92872,7.91486,-0.524794,-0.0953685,0.324742,0
2024-12-13 15:17:53.341,-0.383151,3.92393,8.068,-0.539454,-0.0923143,0.317412,0
2024-12-13 15:17:53.343,-0.352044,3.92393,8.19033,-0.547396,-0.085595,0.310081,0
2024-12-13 15:17:53.345,-0.342473,3.92872,8.30758,-0.554726,-0.0807082,0.301529,0
2024-12-13 15:17:53.348,-0.34008,3.92872,8.41287,-0.559612,-0.0739889,0.290534,0
2024-12-13 15:17:53.350,-0.328116,3.91436,8.51097,-0.564499,-0.0629936,0.281982,0
2024-12-13 15:17:53.353,-0.325723,3.90239,8.60908,-0.56511,-0.0526092,0.270987,0
2024-12-13 15:17:53.355,-0.337687,3.9,8.69283,-0.565721,-0.0440574,0.258159,0
2024-12-13 15:17:53.357,-0.325723,3.88325,8.78884,-0.568775,-0.0312296,0.248386,0
2024-12-13 15:17:53.360,-0.328116,3.87368,8.87019,-0.562056,-0.0177909,0.233725,0
2024-12-13 15:17:53.362,-0.337687,3.87607,8.91805,-0.560834,-0.00129805,0.223341,0
2024-12-13 15:17:53.364,-0.35683,3.87129,8.97308,-0.552893,0.0164165,0.209902,0
2024-12-13 15:17:53.367,-0.383151,3.87847,9.0353,-0.551061,0.0268009,0.195242,0
2024-12-13 15:17:53.369,-0.375972,3.9,9.09751,-0.548617,0.0341311,0.182414,0
2024-12-13 15:17:53.371,-0.344866,3.91197,9.17887,-0.54373,0.0402396,0.165921,0
2024-12-13 15:17:53.374,-0.335294,3.91436,9.23869,-0.533957,0.0432938,0.153704,0
2024-12-13 15:17:53.377,-0.335294,3.94068,9.29642,-0.522351,0.0548999,0.12614,0
2024-12-13 15:17:53.378,-0.32333,3.97657,9.39213,-0.522351,0.0548999,0.12614,0
2024-12-13 15:17:53.381,-0.320937,3.99332,9.49502,-0.513799,0.0610084,0.11148,0
2024-12-13 15:17:53.383,-0.335294,4.01964,9.5692,-0.502193,0.066506,0.0968193,0
2024-12-13 15:17:53.386,-0.347258,4.06032,9.62184,-0.493641,0.0707819,0.0827698,0
2024-12-13 15:17:53.388,-0.364008,4.08664,9.68405,-0.483257,0.0799446,0.0687203,0
2024-12-13 15:17:53.390,-0.387936,4.09382,9.73909,-0.467375,0.090329,0.0546708,0
2024-12-13 15:17:53.393,-0.419043,4.07707,9.76541,-0.458212,0.102546,0.0436756,0
2024-12-13 15:17:53.395,-0.45015,4.06989,9.77977,-0.442941,0.115374,0.0308478,0
2024-12-13 15:17:53.397,-0.464507,4.08425,9.8013,-0.431335,0.126369,0.0198525,0
2024-12-13 15:17:53.400,-0.462114,4.08425,9.80609,-0.413009,0.135532,0.00885729,0
2024-12-13 15:17:53.402,-0.464507,4.07468,9.79891,-0.400181,0.147749,-0.00274881,0
2024-12-13 15:17:53.404,-0.481256,4.0675,9.80848,-0.385521,0.155079,-0.0137441,0
2024-12-13 15:17:53.407,-0.493221,4.07468,9.81326,-0.373915,0.163631,-0.0235176,0
2024-12-13 15:17:53.409,-0.490828,4.101,9.81326,-0.359865,0.168517,-0.0345129,0
2024-12-13 15:17:53.411,-0.490828,4.12493,9.81805,-0.349481,0.17035,-0.0473407,0
2024-12-13 15:17:53.414,-0.490828,4.14407,9.81805,-0.340318,0.172183,-0.0583359,0
2024-12-13 15:17:53.423,-0.533899,4.27119,9.81087,-0.299392,0.159355,-0.101095,0
2024-12-13 15:17:53.423,-0.533899,4.27119,9.81087,-0.299392,0.159355,-0.101095,0
2024-12-13 15:17:53.426,-0.576969,4.2999,9.81087,-0.290229,0.153246,-0.110869,0
2024-12-13 15:17:53.426,-0.576969,4.2999,9.81087,-0.290229,0.153246,-0.110869,0
2024-12-13 15:17:53.428,-0.610469,4.33101,9.80848,-0.283509,0.144694,-0.120642,0
2024-12-13 15:17:53.428,-0.610469,4.33101,9.80848,-0.283509,0.144694,-0.120642,0
2024-12-13 15:17:53.430,-0.639183,4.36929,9.78694,-0.278012,0.137364,-0.127972,0
2024-12-13 15:17:53.433,-0.660718,4.39322,9.77019,-0.262741,0.128812,-0.138357,0
2024-12-13 15:17:53.435,-0.670289,4.40758,9.76541,-0.258465,0.117817,-0.144465,0
2024-12-13 15:17:53.437,-0.670289,4.43629,9.73669,-0.2548,0.107433,-0.149963,0
2024-12-13 15:17:53.440,-0.667897,4.46501,9.69841,-0.246859,0.101324,-0.157293,0
2024-12-13 15:17:53.442,-0.660718,4.49372,9.66252,-0.243804,0.0921616,-0.164623,0
2024-12-13 15:17:53.444,-0.667897,4.52243,9.62663,-0.237696,0.0872748,-0.170121,0
2024-12-13 15:17:53.447,-0.687039,4.54397,9.60987,-0.23342,0.0842206,-0.176229,0
2024-12-13 15:17:53.449,-0.73011,4.55354,9.57638,-0.230977,0.0842206,-0.180505,0
2024-12-13 15:17:53.451,-0.770788,4.54876,9.5668,-0.226701,0.0848314,-0.182338,0
2024-12-13 15:17:53.454,-0.785145,4.55354,9.58116,-0.21876,0.0891073,-0.184781,0
2024-12-13 15:17:53.456,-0.782752,4.5679,9.5668,-0.213873,0.0915507,-0.187836,0
2024-12-13 15:17:53.459,-0.756431,4.61097,9.52852,-0.210208,0.0976592,-0.187836,0
2024-12-13 15:17:53.461,-0.73011,4.65883,9.48545,-0.20471,0.104379,-0.189057,0
2024-12-13 15:17:53.463,-0.720539,4.67318,9.47348,-0.205932,0.11232,-0.19089,0
2024-12-13 15:17:53.466,-0.749253,4.68754,9.4687,-0.198602,0.121482,-0.193944,0
2024-12-13 15:17:53.468,-0.809073,4.69472,9.45673,-0.196158,0.131256,-0.193333,0
2024-12-13 15:17:53.470,-0.869193,4.67079,9.4687,-0.193104,0.137975,-0.194555,0
2024-12-13 15:17:53.473,-0.912264,4.67079,9.47588,-0.19005,0.145916,-0.191501,0
2024-12-13 15:17:53.475,-0.88355,4.70429,9.44956,-0.188217,0.14836,-0.189668,0
2024-12-13 15:17:53.477,-0.811466,4.73779,9.41366,-0.185163,0.151414,-0.189668,0
2024-12-13 15:17:53.480,-0.794716,4.75693,9.38974,-0.191272,0.152025,-0.187225,0
2024-12-13 15:17:53.482,-0.799502,4.78355,9.38016,-0.192493,0.150803,-0.186614,0
2024-12-13 15:17:53.484,-0.80668,4.81705,9.38495,-0.197991,0.147749,-0.187225,0
2024-12-13 15:17:53.487,-0.833001,4.82662,9.4017,-0.199823,0.147749,-0.186003,0
2024-12-13 15:17:53.489,-0.857229,4.8338,9.41845,-0.201656,0.147749,-0.182949,0
2024-12-13 15:17:53.492,-0.888335,4.84816,9.43759,-0.206543,0.145916,-0.178062,0
2024-12-13 15:17:53.494,-0.905085,4.85534,9.43759,-0.21204,0.144084,-0.173175,0
2024-12-13 15:17:53.496,-0.890728,4.8338,9.41127,-0.215705,0.138586,-0.171343,0
2024-12-13 15:17:53.499,-0.878764,4.81944,9.42802,-0.223646,0.13431,-0.168288,0
2024-12-13 15:17:53.501,-0.890728,4.82902,9.47588,-0.229144,0.131256,-0.164623,0
2024-12-13 15:17:53.503,-0.921835,4.83859,9.51655,-0.237085,0.128202,-0.159737,0
2024-12-13 15:17:53.506,-0.950549,4.82662,9.58116,-0.24075,0.126369,-0.155461,0
2024-12-13 15:17:53.508,-0.938585,4.82902,9.6362,-0.245637,0.123315,-0.151185,0
2024-12-13 15:17:53.510,-0.909871,4.8673,9.67448,-0.248691,0.124536,-0.146298,0
2024-12-13 15:17:53.513,-0.888335,4.9008,9.74866,-0.252967,0.123315,-0.141411,0
2024-12-13 15:17:53.515,-0.869193,4.9008,9.8351,-0.252967,0.12698,-0.140189,0
2024-12-13 15:17:53.517,-0.8668,4.9008,9.90928,-0.256021,0.129423,-0.135914,0
2024-12-13 15:17:53.520,-0.864407,4.9008,9.99781,-0.256021,0.132477,-0.131638,0
2024-12-13 15:17:53.522,-0.85005,4.90798,10.1198,-0.255411,0.135532,-0.131638,0
2024-12-13 15:17:53.525,-0.845265,4.92234,10.2419,-0.252356,0.131256,-0.130416,0
2024-12-13 15:17:53.528,-0.842872,4.91994,10.3615,-0.240139,0.131867,-0.12614,0
2024-12-13 15:17:53.529,-0.82343,4.91516,10.4791,-0.240139,0.131867,-0.12614,0
2024-12-13 15:17:53.532,-0.801895,4.91276,10.5867,-0.229755,0.130645,-0.125529,0
2024-12-13 15:17:53.534,-0.789931,4.90559,10.6849,-0.215705,0.128202,-0.127362,0
2024-12-13 15:17:53.536,-0.768395,4.90319,10.7662,-0.203488,0.123315,-0.131027,0
2024-12-13 15:17:53.539,-0.74686,4.91516,10.8404,-0.191272,0.115985,-0.134081,0
2024-12-13 15:17:53.541,-0.73011,4.93909,10.8978,-0.179055,0.109265,-0.137135,0
2024-12-13 15:17:53.543,-0.715753,4.96541,10.9484,-0.161951,0.102546,-0.143244,0
2024-12-13 15:17:53.546,-0.73011,4.99173,11.0106,-0.146069,0.0939941,-0.148741,0
2024-12-13 15:17:53.548,-0.754038,5.01566,11.0417,-0.129576,0.0842206,-0.155461,0
2024-12-13 15:17:53.550,-0.76361,5.04198,11.068,-0.112472,0.0738362,-0.160347,0
2024-12-13 15:17:53.553,-0.780359,5.07069,11.1087,-0.0990336,0.0646735,-0.165845,0
2024-12-13 15:17:53.555,-0.80668,5.10419,11.1278,-0.0849841,0.0555107,-0.172564,0
2024-12-13 15:17:53.557,-0.837787,5.1329,11.1446,-0.0715455,0.0445155,-0.178062,0
2024-12-13 15:17:53.560,-0.878764,5.1664,11.1661,-0.0599394,0.0365745,-0.182949,0
2024-12-13 15:17:53.562,-0.919442,5.20947,11.1829,-0.0477224,0.0286335,-0.186614,0
2024-12-13 15:17:53.565,-0.957727,5.2334,11.2355,-0.0348946,0.0176382,-0.190279,0
2024-12-13 15:17:53.567,-0.981655,5.26212,11.2953,-0.0287862,0.00847551,-0.193944,0
2024-12-13 15:17:53.569,-1.00319,5.31476,11.3312,-0.0171801,-7.63559e-05,-0.196387,0
2024-12-13 15:17:53.572,-1.01755,5.35574,11.3862,-0.00801737,-0.00862822,-0.198831,0
2024-12-13 15:17:53.574,-1.00558,5.38445,11.4341,-0.000687203,-0.0177909,-0.200052,0
2024-12-13 15:17:53.576,-0.996012,5.40359,11.4748,0.00603212,-0.0275645,-0.201885,0
2024-12-13 15:17:53.579,-1.0008,5.44188,11.5445,0.0109189,-0.0379489,-0.20555,0
2024-12-13 15:17:53.581,-0.998405,5.48255,11.5971,0.0170274,-0.0465007,-0.207383,0
2024-12-13 15:17:53.583,-0.981655,5.49452,11.6402,0.0213033,-0.0519984,-0.208604,0
2024-12-13 15:17:53.586,-0.984048,5.50409,11.6976,0.0243575,-0.0593285,-0.211048,0
2024-12-13 15:17:53.588,-0.986441,5.52802,11.7287,0.0255792,-0.0648262,-0.214713,0
2024-12-13 15:17:53.590,-0.97687,5.57827,11.7814,0.0292443,-0.0678804,-0.216545,0
2024-12-13 15:17:53.593,-0.97687,5.62134,11.8531,0.0329094,-0.0727672,-0.22021,0
2024-12-13 15:17:53.595,-0.984048,5.65005,11.9154,0.0322986,-0.0800973,-0.22021,0
2024-12-13 15:17:53.598,-0.991227,5.68116,11.9895,0.0335202,-0.0849841,-0.223265,0
2024-12-13 15:17:53.600,-1.01276,5.70509,12.0541,0.0335202,-0.0886492,-0.227541,0
2024-12-13 15:17:53.602,-1.04387,5.71227,12.1167,0.0347419,-0.093536,-0.22693,0
2024-12-13 15:17:53.606,-1.07019,5.71705,12.1765,0.0371853,-0.102088,-0.224486,0
2024-12-13 15:17:53.607,-1.09173,5.72184,12.2483,0.0371853,-0.102088,-0.224486,0
2024-12-13 15:17:53.609,-1.09651,5.72423,12.3272,0.0402396,-0.110029,-0.222043,0
2024-12-13 15:17:53.612,-1.09651,5.72662,12.3966,0.0414613,-0.113083,-0.220821,0
2024-12-13 15:17:53.614,-1.0989,5.72902,12.4684,0.0408504,-0.119802,-0.214713,0
2024-12-13 15:17:53.616,-1.10369,5.73619,12.545,0.0420721,-0.128354,-0.211659,0
2024-12-13 15:17:53.619,-1.09173,5.73859,12.6215,0.0439046,-0.131409,-0.209826,0
2024-12-13 15:17:53.621,-1.05823,5.72902,12.6912,0.0500131,-0.13996,-0.206772,0
2024-12-13 15:17:53.623,-1.01755,5.72423,12.7606,0.0561216,-0.147901,-0.200663,0
2024-12-13 15:17:53.626,-0.979263,5.71466,12.8228,0.0597867,-0.157675,-0.199442,0
2024-12-13 15:17:53.628,-0.926621,5.70987,12.8659,0.0689494,-0.167449,-0.196387,0
2024-12-13 15:17:53.632,-0.8668,5.70509,12.9281,0.0799446,-0.190661,-0.19089,0
2024-12-13 15:17:53.633,-0.811466,5.68355,12.9999,0.0799446,-0.190661,-0.19089,0
2024-12-13 15:17:53.635,-0.751645,5.6692,13.0406,0.0872748,-0.200434,-0.190279,0
2024-12-13 15:17:53.638,-0.694218,5.64527,13.0813,0.0933833,-0.208986,-0.190279,0
2024-12-13 15:17:53.640,-0.634397,5.62612,13.1195,0.101935,-0.217538,-0.189057,0
2024-12-13 15:17:53.642,-0.574577,5.6022,13.1483,0.106822,-0.229144,-0.192111,0
2024-12-13 15:17:53.645,-0.52672,5.5687,13.1818,0.114152,-0.237696,-0.193333,0
2024-12-13 15:17:53.647,-0.488435,5.55913,13.2132,0.123315,-0.241972,-0.196998,0
2024-12-13 15:17:53.649,-0.454935,5.54477,13.2371,0.131867,-0.247469,-0.198831,0
2024-12-13 15:17:53.652,-0.41665,5.52323,13.2156,0.141029,-0.253578,-0.201274,0
2024-12-13 15:17:53.654,-0.387936,5.5017,13.2012,0.147138,-0.257854,-0.203107,0
2024-12-13 15:17:53.656,-0.364008,5.47059,13.1842,0.149581,-0.26213,-0.204939,0
2024-12-13 15:17:53.659,-0.316152,5.43709,13.153,0.156301,-0.264573,-0.210437,0
2024-12-13 15:17:53.661,-0.253639,5.39641,13.1363,0.159355,-0.267017,-0.21288,0
2024-12-13 15:17:53.663,-0.210568,5.35813,13.1052,0.159966,-0.270071,-0.217156,0
2024-12-13 15:17:53.666,-0.18664,5.30997,13.0669,0.158133,-0.271903,-0.222043,0
2024-12-13 15:17:53.668,-0.153141,5.22622,13.0406,0.158133,-0.275568,-0.227541,0
2024-12-13 15:17:53.672,-0.138784,5.1688,13.0358,0.147749,-0.281677,-0.236092,0
2024-12-13 15:17:53.673,-0.124427,5.1353,13.0358,0.147749,-0.281677,-0.236092,0
2024-12-13 15:17:53.675,-0.0837488,5.08505,12.9927,0.147138,-0.281066,-0.24159,0
2024-12-13 15:17:53.678,-0.066999,5.01805,12.9305,0.14164,-0.281066,-0.245255,0
2024-12-13 15:17:53.680,-0.0717847,4.94866,12.8874,0.131256,-0.280455,-0.250753,0
2024-12-13 15:17:53.682,-0.0765703,4.88644,12.8731,0.120871,-0.278623,-0.25625,0
2024-12-13 15:17:53.685,-0.0909273,4.82662,12.8874,0.110487,-0.274958,-0.261137,0
2024-12-13 15:17:53.687,-0.122034,4.75932,12.8874,0.0927724,-0.271293,-0.264802,0
2024-12-13 15:17:53.689,-0.138784,4.7019,12.8874,0.0775012,-0.262741,-0.264802,0
2024-12-13 15:17:53.692,-0.141177,4.63968,12.9209,0.0671168,-0.249302,-0.266635,0
2024-12-13 15:17:53.694,-0.16989,4.56072,12.9927,0.0536782,-0.240139,-0.267857,0
2024-12-13 15:17:53.696,-0.193819,4.45783,13.0502,0.0335202,-0.22609,-0.265413,0
2024-12-13 15:17:53.699,-0.232104,4.34776,13.1172,0.0200816,-0.206543,-0.264802,0
2024-12-13 15:17:53.701,-0.27996,4.22812,13.2132,0.00481042,-0.192493,-0.261748,0
2024-12-13 15:17:53.704,-0.318545,4.08664,13.3161,-0.00740652,-0.178444,-0.257472,0
2024-12-13 15:17:53.706,-0.30658,3.95264,13.4237,-0.0196235,-0.162562,-0.253807,0
2024-12-13 15:17:53.708,-0.239282,3.85932,13.5314,-0.0318404,-0.144236,-0.247699,1
2024-12-13 15:17:53.711,-0.181855,3.766,13.6223,-0.0434465,-0.119192,-0.244033,0
2024-12-13 15:17:53.713,-0.155533,3.64367,13.6822,-0.0507767,-0.0947577,-0.240368,0
2024-12-13 15:17:53.720,-0.0741775,3.19861,13.8954,-0.0642153,-0.0422248,-0.229984,0
2024-12-13 15:17:53.720,-0.0741775,3.19861,13.8954,-0.0642153,-0.0422248,-0.229984,0
2024-12-13 15:17:53.722,-0.00239282,3.06909,13.9146,-0.065437,-0.0226777,-0.227541,0
2024-12-13 15:17:53.722,-0.00239282,3.06909,13.9146,-0.065437,-0.0226777,-0.227541,0
2024-12-13 15:17:53.725,0.0526421,2.94945,13.9193,-0.0629936,-0.00435229,-0.225708,0
2024-12-13 15:17:53.727,0.0837488,2.81785,13.8763,-0.0605502,0.010308,-0.220821,0
2024-12-13 15:17:53.729,0.0957129,2.67667,13.8093,-0.0532201,0.0261901,-0.218989,0
2024-12-13 15:17:53.732,0.081356,2.56182,13.742,-0.0458899,0.0353528,-0.215935,0
2024-12-13 15:17:53.734,0.0598206,2.43948,13.6582,-0.037338,0.0414613,-0.210437,0
2024-12-13 15:17:53.736,0.0215354,2.3007,13.5338,-0.037338,0.0414613,-0.210437,0
2024-12-13 15:17:53.739,-0.0167498,2.18584,13.3783,-0.0184018,0.0469589,-0.195777,0
2024-12-13 15:17:53.746,-0.0143569,1.91037,12.8563,0.0310769,0.0579541,-0.16951,0
2024-12-13 15:17:53.746,-0.0143569,1.91037,12.8563,0.0310769,0.0579541,-0.16951,0
2024-12-13 15:17:53.748,0.00239282,1.8338,12.6215,0.0500131,0.0616192,-0.16218,0
2024-12-13 15:17:53.748,0.00239282,1.8338,12.6215,0.0500131,0.0616192,-0.16218,0
2024-12-13 15:17:53.751,0.0598206,1.77876,12.3894,0.0713928,0.0689494,-0.155461,0
2024-12-13 15:17:53.755,0.122034,1.68784,11.8819,0.116595,0.0799446,-0.145687,0
2024-12-13 15:17:53.758,0.184247,1.68784,11.5995,0.140419,0.0836097,-0.143855,0
2024-12-13 15:17:53.758,0.253639,1.64716,11.5995,0.140419,0.0836097,-0.143855,0
2024-12-13 15:17:53.760,0.320937,1.61605,11.3049,0.165463,0.0884965,-0.142633,0
2024-12-13 15:17:53.762,0.344866,1.58255,10.9723,0.190508,0.0921616,-0.145687,0
2024-12-13 15:17:53.765,0.35683,1.56341,10.6418,0.216774,0.0939941,-0.14752,0
2024-12-13 15:17:53.767,0.414257,1.54188,10.3352,0.237543,0.0933833,-0.149963,0
2024-12-13 15:17:53.769,0.445364,1.52034,10.0146,0.261366,0.0921616,-0.156071,0
2024-12-13 15:17:53.772,0.4334,1.51795,9.71037,0.279692,0.0878856,-0.163402,0
2024-12-13 15:17:53.774,0.421436,1.51795,9.42084,0.303515,0.0799446,-0.171953,0
2024-12-13 15:17:53.777,0.404686,1.51795,9.15015,0.323673,0.0732253,-0.17684,0
2024-12-13 15:17:53.779,0.395115,1.5323,8.89412,0.344442,0.0652843,-0.185392,0
2024-12-13 15:17:53.781,0.373579,1.56341,8.64258,0.368341,0.0548999,-0.192722,0
2024-12-13 15:17:53.784,0.35683,1.59691,8.40329,0.385445,0.0408504,-0.200663,0
2024-12-13 15:17:53.786,0.337687,1.61605,8.1688,0.404381,0.0249684,-0.207383,0
2024-12-13 15:17:53.788,0.318545,1.64237,7.93879,0.422095,0.00725381,-0.214102,0
2024-12-13 15:17:53.791,0.292223,1.68784,7.733,0.439199,-0.0110716,-0.221432,0
2024-12-13 15:17:53.793,0.251246,1.72612,7.54846,0.45447,-0.0318404,-0.228151,0
2024-12-13 15:17:53.796,0.224925,1.76919,7.38096,0.470963,-0.057496,-0.232427,0
2024-12-13 15:17:53.798,0.20339,1.82901,7.22303,0.482569,-0.0874275,-0.238536,0
2024-12-13 15:17:53.800,0.16989,1.88644,7.08425,0.494175,-0.120413,-0.239758,0
2024-12-13 15:17:53.802,0.133998,1.95583,6.96192,0.50456,-0.160118,-0.24159,0
2024-12-13 15:17:53.805,0.0789631,2.02313,6.83988,0.51189,-0.201045,-0.244033,0
2024-12-13 15:17:53.807,0.0119641,2.08774,6.73699,0.51922,-0.243804,-0.242812,0
2024-12-13 15:17:53.810,-0.0334995,2.16431,6.63889,0.521664,-0.289618,-0.237925,0
2024-12-13 15:17:53.812,-0.066999,2.2337,6.54796,0.523496,-0.33421,-0.233038,0
2024-12-13 15:17:53.814,-0.105284,2.28395,6.47139,0.522885,-0.381856,-0.225097,0
2024-12-13 15:17:53.817,-0.138784,2.33898,6.4017,0.51922,-0.425226,-0.217156,0
2024-12-13 15:17:53.819,-0.114855,2.40359,6.34666,0.513723,-0.466764,-0.206772,0
2024-12-13 15:17:53.821,0.0382852,2.48973,6.30598,0.506392,-0.510134,-0.197609,0
2024-12-13 15:17:53.824,0.27996,2.55942,6.27488,0.494786,-0.559002,-0.192722,0
2024-12-13 15:17:53.826,0.267996,2.53549,6.33231,0.479515,-0.6152,-0.19089,0
2024-12-13 15:17:53.828,-0.00239282,2.45623,6.52164,0.463633,-0.661624,-0.186003,0
2024-12-13 15:17:53.831,-0.174676,2.42991,6.60778,0.453249,-0.689723,-0.179895,0
2024-12-13 15:17:53.833,-0.208176,2.51127,6.49771,0.443475,-0.700718,-0.168899,0
2024-12-13 15:17:53.835,-0.0622134,2.66471,6.30359,0.425761,-0.693388,-0.157293,0
2024-12-13 15:17:53.838,0.112463,2.79153,6.17917,0.4111,-0.679949,-0.14813,0
2024-12-13 15:17:53.840,0.12682,2.87049,6.24138,0.390331,-0.664678,-0.137135,0
2024-12-13 15:17:53.842,0.0861416,2.90878,6.38973,0.372617,-0.649407,-0.124307,0
2024-12-13 15:17:53.845,0.0981057,2.94227,6.48814,0.353604,-0.635968,-0.112701,0
2024-12-13 15:17:53.847,0.153141,2.96381,6.53121,0.332835,-0.626806,-0.0974301,0
2024-12-13 15:17:53.850,0.217747,2.94945,6.58146,0.311456,-0.621919,-0.085824,0
2024-12-13 15:17:53.852,0.294616,2.92552,6.64606,0.291909,-0.620697,-0.0736071,0
2024-12-13 15:17:53.854,0.337687,2.91117,6.69631,0.270529,-0.623751,-0.0607793,0
2024-12-13 15:17:53.857,0.368794,2.88245,6.73699,0.251593,-0.623751,-0.0510057,0
2024-12-13 15:17:53.859,0.385544,2.87288,6.75613,0.228381,-0.626195,-0.038178,0
2024-12-13 15:17:53.861,0.392722,2.87528,6.77528,0.205168,-0.618254,-0.0290152,0
2024-12-13 15:17:53.864,0.421436,2.88724,6.8016,0.18501,-0.612145,-0.0186308,0
2024-12-13 15:17:53.866,0.447757,2.92792,6.81835,0.162409,-0.601761,-0.00946813,0
2024-12-13 15:17:53.868,0.45015,2.94945,6.82313,0.142862,-0.58649,-0.00213797,0
2024-12-13 15:17:53.871,0.438186,2.9686,6.83271,0.123315,-0.568164,0.00580305,0
2024-12-13 15:17:53.873,0.414257,2.99252,6.85424,0.100713,-0.548617,0.0149658,0
2024-12-13 15:17:53.875,0.375972,3.01884,6.86381,0.0811663,-0.528459,0.0247393,0
2024-12-13 15:17:53.878,0.335294,3.0332,6.88535,0.0610084,-0.508912,0.033902,0
2024-12-13 15:17:53.880,0.299402,3.04756,6.92124,0.0610084,-0.508912,0.033902,0
2024-12-13 15:17:53.885,0.239282,3.05474,7.00738,-0.00129805,-0.467375,0.0613902,0
2024-12-13 15:17:53.885,0.239282,3.05474,7.00738,-0.00129805,-0.467375,0.0613902,0
2024-12-13 15:17:53.887,0.205783,3.04756,7.04836,-0.0196235,-0.461266,0.0693312,0
2024-12-13 15:17:53.892,0.131605,2.99731,7.15364,-0.0428357,-0.454547,0.0791047,0
2024-12-13 15:17:53.892,0.131605,2.99731,7.15364,-0.0428357,-0.454547,0.0791047,0
2024-12-13 15:17:53.894,0.100499,2.97099,7.21586,-0.0794865,-0.44233,0.0943759,0
2024-12-13 15:17:53.897,0.0622134,2.93988,7.28525,-0.0947577,-0.438054,0.101706,0
2024-12-13 15:17:53.899,0.0287139,2.92074,7.37378,-0.108196,-0.431945,0.109036,0
2024-12-13 15:17:53.901,0.0143569,2.89203,7.47189,-0.121635,-0.424615,0.115145,0
2024-12-13 15:17:53.904,-0.00717847,2.85613,7.57747,-0.13263,-0.417285,0.120031,0
2024-12-13 15:17:53.906,-0.00717847,2.84895,7.68754,-0.137517,-0.406901,0.125529,0
2024-12-13 15:17:53.908,-0.0143569,2.84178,7.80718,-0.145458,-0.400181,0.126751,0
2024-12-13 15:17:53.911,-0.0311067,2.82503,7.93879,-0.146069,-0.392851,0.127972,0
2024-12-13 15:17:53.913,-0.026321,2.80828,8.05604,-0.142404,-0.382467,0.130416,0
2024-12-13 15:17:53.918,-0.0143569,2.79871,8.17119,-0.128354,-0.364752,0.127972,0
2024-12-13 15:17:53.918,-0.00478565,2.78674,8.28126,-0.128354,-0.364752,0.127972,0
2024-12-13 15:17:53.920,0.0119641,2.77717,8.39851,-0.117359,-0.354368,0.124307,0
2024-12-13 15:17:53.923,0.0191426,2.77478,8.49183,-0.104531,-0.347038,0.121253,0
2024-12-13 15:17:53.925,0.0215354,2.77238,8.55883,-0.0862058,-0.332988,0.116366,0
2024-12-13 15:17:53.927,0.0382852,2.7676,8.62583,-0.0678804,-0.317717,0.112701,0
2024-12-13 15:17:53.930,0.0550349,2.76999,8.67608,-0.0452791,-0.301835,0.107815,0
2024-12-13 15:17:53.932,0.0598206,2.76042,8.70987,-0.0208452,-0.283509,0.100484,0
2024-12-13 15:17:53.934,0.0598206,2.74606,8.71466,0.00236703,-0.265795,0.0949868,0
2024-12-13 15:17:53.937,0.081356,2.72692,8.71705,0.0268009,-0.244415,0.0894891,0
2024-12-13 15:17:53.939,0.0885344,2.71256,8.70509,0.0512348,-0.225479,0.0815481,0
2024-12-13 15:17:53.941,0.0717847,2.69821,8.67368,0.0732253,-0.208375,0.0754396,0
2024-12-13 15:17:53.944,0.0622134,2.68385,8.65215,0.094605,-0.194326,0.0662769,0
2024-12-13 15:17:53.946,0.0430708,2.7006,8.62822,0.117817,-0.182109,0.0613902,0
2024-12-13 15:17:53.948,0.0358923,2.72453,8.60668,0.140419,-0.169892,0.0577251,0
2024-12-13 15:17:53.953,0.0430708,2.74606,8.47986,0.16302,-0.160729,0.0510057,0
2024-12-13 15:17:53.956,0.040678,2.80349,8.38415,0.203336,-0.14668,0.0430647,0
2024-12-13 15:17:53.958,0.0693919,2.83699,8.29083,0.222883,-0.138128,0.0357346,0
2024-12-13 15:17:53.958,0.0693919,2.83699,8.29083,0.222883,-0.138128,0.0357346,0
2024-12-13 15:17:53.960,0.0789631,2.84895,8.1664,0.237543,-0.132019,0.0296261,0
2024-12-13 15:17:53.963,0.0909273,2.85613,8.02971,0.249149,-0.127743,0.0216851,0
2024-12-13 15:17:53.965,0.0933201,2.87049,7.89332,0.258923,-0.124078,0.0155766,0
2024-12-13 15:17:53.967,0.0861416,2.88724,7.77608,0.267475,-0.119192,0.00702474,0
2024-12-13 15:17:53.972,0.026321,2.88485,7.59183,0.277859,-0.110029,-0.00335966,0
2024-12-13 15:17:53.974,0.0358923,2.88006,7.49821,0.283357,-0.10392,-0.010079,0
2024-12-13 15:17:53.974,0.0358923,2.88006,7.49821,0.283357,-0.10392,-0.010079,0
2024-12-13 15:17:53.977,0.0550349,2.89681,7.42642,0.286411,-0.0972011,-0.0155766,0
2024-12-13 15:17:53.979,0.0598206,2.92313,7.34746,0.288854,-0.0874275,-0.0204634,0
2024-12-13 15:17:53.981,0.0622134,2.93031,7.24936,0.290076,-0.0807082,-0.0265719,0
2024-12-13 15:17:53.984,0.0693919,2.92313,7.17518,0.291909,-0.0709346,-0.0326803,0
2024-12-13 15:17:53.986,0.0741775,2.91835,7.09621,0.290076,-0.0593285,-0.0387888,0
2024-12-13 15:17:53.989,0.0789631,2.92552,6.99781,0.288244,-0.0465007,-0.0448973,0
2024-12-13 15:17:53.991,0.081356,2.93988,6.89013,0.286411,-0.0361163,-0.0516166,0
2024-12-13 15:17:53.993,0.0909273,2.96142,6.78006,0.283968,-0.0232886,-0.0601685,0
2024-12-13 15:17:53.996,0.102891,2.99013,6.68674,0.280913,-0.0110716,-0.0681095,0
2024-12-13 15:17:53.998,0.105284,3.00688,6.59821,0.277248,-0.000687203,-0.0742179,0
2024-12-13 15:17:54.000,0.0909273,3.02363,6.51685,0.272972,0.00908635,-0.0827698,0
2024-12-13 15:17:54.003,0.0789631,3.05474,6.4352,0.265031,0.0151948,-0.0894891,0
2024-12-13 15:17:54.005,0.0717847,3.06909,6.35863,0.25709,0.0206925,-0.0992627,0
2024-12-13 15:17:54.007,0.0526421,3.08345,6.3012,0.250982,0.022525,-0.106593,0
2024-12-13 15:17:54.010,0.0382852,3.11725,6.24616,0.244873,0.022525,-0.11209,0
2024-12-13 15:17:54.012,0.0358923,3.14836,6.2007,0.236932,0.0206925,-0.119421,0
2024-12-13 15:17:54.014,0.0215354,3.16511,6.14567,0.228991,0.0213033,-0.12614,0
2024-12-13 15:17:54.017,-0.00478565,3.17707,6.1002,0.217385,0.0194708,-0.131027,0
2024-12-13 15:17:54.019,-0.00478565,3.20339,6.06431,0.208223,0.0206925,-0.138968,0
2024-12-13 15:17:54.021,-0.00478565,3.22493,6.02363,0.201503,0.0188599,-0.144465,0
2024-12-13 15:17:54.024,-0.0143569,3.24646,6.00449,0.191119,0.0188599,-0.151185,0
2024-12-13 15:17:54.026,-0.0239282,3.27518,5.97338,0.180734,0.0151948,-0.158515,0
2024-12-13 15:17:54.029,-0.026321,3.3015,5.93749,0.172793,0.0127514,-0.164012,0
2024-12-13 15:17:54.031,-0.026321,3.32303,5.91117,0.164852,0.00603212,-0.171343,0
2024-12-13 15:17:54.033,-0.0334995,3.33739,5.91117,0.156301,-0.0019089,-0.178673,0
2024-12-13 15:17:54.036,-0.0454636,3.3685,5.90638,0.147749,-0.00801737,-0.186614,0
2024-12-13 15:17:54.038,-0.0550349,3.37807,5.89203,0.140419,-0.0171801,-0.193944,0
2024-12-13 15:17:54.040,-0.0502493,3.39482,5.88933,0.128812,-0.0275645,-0.198831,0
2024-12-13 15:17:54.043,-0.040678,3.4355,5.88694,0.120261,-0.0342838,-0.204328,0
2024-12-13 15:17:54.045,-0.0382852,3.4666,5.89921,0.116595,-0.0422248,-0.212269,0
2024-12-13 15:17:54.047,-0.0382852,3.49292,5.89921,0.111709,-0.0489441,-0.217156,0
2024-12-13 15:17:54.050,-0.0167498,3.51685,5.89442,0.106822,-0.0568851,-0.223265,0
2024-12-13 15:17:54.052,0.00717847,3.5671,5.91117,0.0988809,-0.0642153,-0.228151,0
2024-12-13 15:17:54.054,0.0358923,3.62453,5.90878,0.0927724,-0.0727672,-0.23426,0
2024-12-13 15:17:54.057,0.0789631,3.67508,5.88694,0.0872748,-0.0800973,-0.240368,0
2024-12-13 15:17:54.059,0.100499,3.73011,5.87737,0.0787229,-0.0862058,-0.245866,0
2024-12-13 15:17:54.062,0.117248,3.77797,5.87019,0.0726145,-0.0923143,-0.255029,0
2024-12-13 15:17:54.064,0.138784,3.80668,5.85344,0.0634518,-0.0953685,-0.263581,0
2024-12-13 15:17:54.066,0.133998,3.84497,5.84148,0.0555107,-0.0953685,-0.268467,0
2024-12-13 15:17:54.069,0.11007,3.90239,5.83909,0.0457372,-0.0959794,-0.274576,0
2024-12-13 15:17:54.071,0.0957129,3.93829,5.82473,0.0329094,-0.0941468,-0.281295,0
2024-12-13 15:17:54.073,0.100499,3.97418,5.81037,0.0213033,-0.0898709,-0.286182,0
2024-12-13 15:17:54.076,0.119641,4.01486,5.82234,0.00481042,-0.0862058,-0.289847,0
2024-12-13 15:17:54.078,0.12682,4.04596,5.81755,-0.00862822,-0.0819299,-0.294734,0
2024-12-13 15:17:54.080,0.133998,4.08903,5.8008,-0.0251211,-0.0788757,-0.29901,0
2024-12-13 15:17:54.083,0.133998,4.14168,5.80319,-0.0440574,-0.0715455,-0.302675,0
2024-12-13 15:17:54.085,0.148355,4.18714,5.83191,-0.0611611,-0.0611611,-0.30634,0
2024-12-13 15:17:54.087,0.167498,4.23051,5.85344,-0.0849841,-0.0568851,-0.310616,0
2024-12-13 15:17:54.090,0.18664,4.28315,5.85584,-0.104531,-0.0483333,-0.31367,0
2024-12-13 15:17:54.092,0.215354,4.33101,5.87737,-0.128965,-0.041614,-0.319168,0
2024-12-13 15:17:54.095,0.224925,4.3669,5.91835,-0.153399,-0.037338,-0.321611,0
2024-12-13 15:17:54.097,0.217747,4.39562,5.9662,-0.176611,-0.0330621,-0.326498,0
2024-12-13 15:17:54.099,0.215354,4.42194,6.04517,-0.204099,-0.0306187,-0.32833,0
2024-12-13 15:17:54.102,0.200997,4.45304,6.13609,-0.232198,-0.0306187,-0.328941,0
2024-12-13 15:17:54.105,0.16989,4.49372,6.2342,-0.285342,-0.0379489,-0.329552,0
2024-12-13 15:17:54.106,0.148355,4.53679,6.34666,-0.285342,-0.0379489,-0.329552,0
2024-12-13 15:17:54.109,0.119641,4.57029,6.47139,-0.312219,-0.0440574,-0.32772,0
2024-12-13 15:17:54.111,0.0981057,4.59422,6.61974,-0.337875,-0.0501658,-0.323444,0
2024-12-13 15:17:54.116,0.0765703,4.64925,6.89013,-0.387964,-0.0623828,-0.314281,0
2024-12-13 15:17:54.116,0.0765703,4.64925,6.89013,-0.387964,-0.0623828,-0.314281,0
2024-12-13 15:17:54.118,0.0717847,4.666,7.034,-0.413009,-0.0648262,-0.309394,0
2024-12-13 15:17:54.120,0.0789631,4.68275,7.20868,-0.434389,-0.0666587,-0.303286,0
2024-12-13 15:17:54.123,0.0957129,4.68275,7.37378,-0.453936,-0.0715455,-0.297788,0
2024-12-13 15:17:54.125,0.0981057,4.68036,7.51496,-0.474094,-0.0715455,-0.292901,0
2024-12-13 15:17:54.127,0.102891,4.67079,7.67079,-0.492419,-0.073378,-0.289847,0
2024-12-13 15:17:54.130,0.122034,4.65643,7.82154,-0.510134,-0.0758214,-0.28496,0
2024-12-13 15:17:54.132,0.124427,4.64447,7.96032,-0.526627,-0.077654,-0.281295,0
2024-12-13 15:17:54.135,0.114855,4.63011,8.1015,-0.54312,-0.0788757,-0.280073,0
2024-12-13 15:17:54.137,0.0933201,4.60379,8.24058,-0.556558,-0.0794865,-0.277019,0
2024-12-13 15:17:54.139,0.0526421,4.58943,8.38894,-0.57244,-0.0788757,-0.272743,0
2024-12-13 15:17:54.142,0.00717847,4.57747,8.53969,-0.584657,-0.0788757,-0.266024,0
2024-12-13 15:17:54.144,-0.040678,4.55354,8.70987,-0.596874,-0.0752106,-0.259916,0
2024-12-13 15:17:54.146,-0.0981057,4.53918,8.92044,-0.610313,-0.077654,-0.254418,0
2024-12-13 15:17:54.149,-0.129212,4.52004,9.1358,-0.618865,-0.0788757,-0.246477,0
2024-12-13 15:17:54.151,-0.153141,4.51286,9.33949,-0.627416,-0.0800973,-0.237925,0
2024-12-13 15:17:54.153,-0.181855,4.51765,9.54288,-0.635357,-0.081319,-0.228151,0
2024-12-13 15:17:54.156,-0.200997,4.5009,9.74866,-0.642688,-0.0831516,-0.214102,0
2024-12-13 15:17:54.158,-0.198604,4.48894,9.97628,-0.643299,-0.085595,-0.204328,0
2024-12-13 15:17:54.160,-0.179462,4.47697,10.2108,-0.642077,-0.0868167,-0.19089,0
2024-12-13 15:17:54.163,-0.167498,4.46979,10.4432,-0.638412,-0.0874275,-0.181727,0
2024-12-13 15:17:54.165,-0.150748,4.46979,10.6561,-0.632914,-0.0849841,-0.170732,0
2024-12-13 15:17:54.170,-0.0382852,4.45304,11.0656,-0.612756,-0.0684913,-0.151185,0
2024-12-13 15:17:54.170,-0.0382852,4.45304,11.0656,-0.612756,-0.0684913,-0.151185,0
2024-12-13 15:17:54.172,0.0119641,4.42911,11.257,-0.598707,-0.0562743,-0.1408,0
2024-12-13 15:17:54.175,0.0478565,4.39322,11.4365,-0.580381,-0.0367272,-0.134081,0
2024-12-13 15:17:54.179,0.129212,4.39083,11.7407,-0.5364,0.00786466,-0.120031,0
2024-12-13 15:17:54.179,0.129212,4.39083,11.7407,-0.5364,0.00786466,-0.120031,0
2024-12-13 15:17:54.182,0.174676,4.39083,11.8795,-0.510134,0.0316877,-0.116366,0
2024-12-13 15:17:54.184,0.210568,4.38365,11.9991,-0.481424,0.0561216,-0.110869,0
2024-12-13 15:17:54.186,0.222533,4.38844,12.0808,-0.481424,0.0561216,-0.110869,0
2024-12-13 15:17:54.189,0.229711,4.41476,12.1454,-0.425226,0.113541,-0.103539,0
2024-12-13 15:17:54.191,0.236889,4.4339,12.1884,-0.425226,0.113541,-0.103539,0
2024-12-13 15:17:54.193,0.229711,4.4674,12.2004,-0.361698,0.166074,-0.0955976,0
2024-12-13 15:17:54.196,0.20339,4.51286,12.1837,-0.331156,0.192951,-0.0937651,0
2024-12-13 15:17:54.198,0.172283,4.54876,12.1549,-0.300002,0.217385,-0.0888783,0
2024-12-13 15:17:54.203,0.136391,4.63729,12.0664,-0.243194,0.25709,-0.0864349,0
2024-12-13 15:17:54.203,0.136391,4.63729,12.0664,-0.243194,0.25709,-0.0864349,0
2024-12-13 15:17:54.205,0.114855,4.69711,11.9943,-0.216927,0.269918,-0.0839915,0
2024-12-13 15:17:54.208,0.0957129,4.74975,11.9273,-0.190661,0.279692,-0.0803264,0
2024-12-13 15:17:54.210,0.0741775,4.81227,11.846,-0.190661,0.279692,-0.0803264,0
2024-12-13 15:17:54.215,0.00717847,4.90798,11.6761,-0.117359,0.279081,-0.0668878,0
2024-12-13 15:17:54.217,-0.0334995,4.95105,11.5971,-0.0953685,0.272362,-0.062001,0
2024-12-13 15:17:54.217,-0.0334995,4.95105,11.5971,-0.0953685,0.272362,-0.062001,0
2024-12-13 15:17:54.219,-0.0693919,4.99173,11.5205,-0.0727672,0.262588,-0.0552817,0
2024-12-13 15:17:54.222,-0.105284,5.04915,11.4341,-0.0538309,0.250982,-0.0497841,0
2024-12-13 15:17:54.226,-0.145962,5.14008,11.281,-0.00862822,0.227159,-0.0369563,0
2024-12-13 15:17:54.226,-0.145962,5.14008,11.281,-0.00862822,0.227159,-0.0369563,0
2024-12-13 15:17:54.229,-0.184247,5.18315,11.1924,0.00908635,0.207612,-0.0308478,0
2024-12-13 15:17:54.231,-0.210568,5.23101,11.147,0.0274118,0.19173,-0.0241285,0
2024-12-13 15:17:54.233,-0.224925,5.2669,11.1183,0.0451263,0.175237,-0.0174091,0
2024-12-13 15:17:54.236,-0.236889,5.30279,11.0871,0.0628409,0.159966,-0.00946813,0
2024-12-13 15:17:54.238,-0.236889,5.34138,11.0536,0.0811663,0.144084,-0.00274881,0
2024-12-13 15:17:54.241,-0.246461,5.39163,10.9675,0.0970484,0.133088,0.00335966,0
2024-12-13 15:17:54.243,-0.248854,5.42513,10.8523,0.114763,0.128812,0.00946813,0
2024-12-13 15:17:54.245,-0.224925,5.47059,10.7638,0.12698,0.130645,0.0174091,0
2024-12-13 15:17:54.248,-0.191426,5.53041,10.7375,0.14164,0.130645,0.0247393,0
2024-12-13 15:17:54.250,-0.179462,5.55913,10.759,0.150192,0.122704,0.0320695,0
2024-12-13 15:17:54.252,-0.179462,5.57348,10.7806,0.159355,0.107433,0.0393996,0
2024-12-13 15:17:54.255,-0.172283,5.6022,10.7734,0.166685,0.0891073,0.0448973,0
2024-12-13 15:17:54.257,-0.181855,5.65484,10.7542,0.173404,0.0726145,0.0522274,0
2024-12-13 15:17:54.259,-0.200997,5.68355,10.7183,0.178902,0.0610084,0.0577251,0
2024-12-13 15:17:54.262,-0.200997,5.69552,10.6705,0.183789,0.0542891,0.0656661,0
2024-12-13 15:17:54.264,-0.196211,5.72184,10.6322,0.18501,0.0542891,0.0742179,0
2024-12-13 15:17:54.266,-0.174676,5.75294,10.6202,0.188675,0.0591758,0.0827698,0
2024-12-13 15:17:54.269,-0.138784,5.78405,10.6418,0.192341,0.0622301,0.0931542,0
2024-12-13 15:17:54.271,-0.114855,5.82234,10.6753,0.193562,0.0603975,0.102317,0
2024-12-13 15:17:54.274,-0.0789631,5.85823,10.7136,0.194173,0.058565,0.11209,0
2024-12-13 15:17:54.278,-0.0119641,5.98056,10.8332,0.192951,0.0542891,0.120642,0
2024-12-13 15:17:54.281,0.0311067,6.05713,10.9146,0.192951,0.0414613,0.138433,0
2024-12-13 15:17:54.283,0.0622134,6.14088,10.9843,0.192951,0.0414613,0.138433,0
2024-12-13 15:17:54.285,0.0861416,6.21745,11.0608,0.195395,0.0371853,0.150039,0
2024-12-13 15:17:54.285,0.0861416,6.21745,11.0608,0.195395,0.0371853,0.150039,0
2024-12-13 15:17:54.288,0.112463,6.2677,11.1446,0.196616,0.0341311,0.15798,0
2024-12-13 15:17:54.290,0.141177,6.32752,11.2116,0.197227,0.0335202,0.162867,0
2024-12-13 15:17:54.292,0.155533,6.3993,11.2857,0.197838,0.0353528,0.165311,0
2024-12-13 15:17:54.295,0.174676,6.4666,11.3456,0.200282,0.0420721,0.167754,0
2024-12-13 15:17:54.297,0.20339,6.53121,11.3862,0.202725,0.0524565,0.167754,0
2024-12-13 15:17:54.299,0.229711,6.57907,11.4102,0.204557,0.0652843,0.169586,0
2024-12-13 15:17:54.303,0.267996,6.62692,11.4221,0.197227,0.0848314,0.1647,0
2024-12-13 15:17:54.304,0.253639,6.67717,11.4461,0.197227,0.0848314,0.1647,0
2024-12-13 15:17:54.306,0.215354,6.71546,11.4939,0.192341,0.0915507,0.162256,0
2024-12-13 15:17:54.309,0.224925,6.78963,11.5517,0.186843,0.0976592,0.155537,0
2024-12-13 15:17:54.311,0.229711,6.89013,11.6091,0.175237,0.101324,0.146985,0
2024-12-13 15:17:54.316,0.0574277,6.9356,11.7909,0.164242,0.0988809,0.137212,0
2024-12-13 15:17:54.316,0.0574277,6.9356,11.7909,0.164242,0.0988809,0.137212,0
2024-12-13 15:17:54.318,-0.0239282,6.9356,11.9417,0.133088,0.0805555,0.113923,0
2024-12-13 15:17:54.321,-0.00717847,6.99063,12.0637,0.120871,0.0603975,0.101095,0
2024-12-13 15:17:54.323,0.0478565,7.06511,12.1645,0.101935,0.0377962,0.0864349,0
2024-12-13 15:17:54.328,-0.0789631,7.07468,12.5282,0.0781121,0.00114534,0.0491732,0
2024-12-13 15:17:54.328,-0.0789631,7.07468,12.5282,0.0781121,0.00114534,0.0491732,0
2024-12-13 15:17:54.330,-0.289831,6.97867,12.8181,0.066506,-0.013515,0.0357346,0
2024-12-13 15:17:54.332,-0.359223,6.92124,13.0478,0.0616192,-0.0251211,0.025961,0
2024-12-13 15:17:54.335,-0.258425,6.91406,13.2108,0.058565,-0.0428357,0.0137441,0
2024-12-13 15:17:54.337,-0.297009,6.85663,13.4333,0.0548999,-0.0691021,0.000305424,0
2024-12-13 15:17:54.339,-0.364008,6.78246,13.6463,0.0573433,-0.0880384,-0.00824644,0
2024-12-13 15:17:54.344,-0.277567,6.70589,13.893,0.058565,-0.107585,-0.0174091,0
2024-12-13 15:17:54.347,-0.359223,6.61257,14.0581,0.0671168,-0.153399,-0.0357346,0
2024-12-13 15:17:54.347,-0.359223,6.61257,14.0581,0.0671168,-0.153399,-0.0357346,0
2024-12-13 15:17:54.349,-0.335294,6.58385,14.1419,0.0732253,-0.174168,-0.0412322,0
2024-12-13 15:17:54.351,-0.411865,6.48814,14.2591,0.0762796,-0.194326,-0.0455081,0
2024-12-13 15:17:54.354,-0.517149,6.3682,14.3982,0.0811663,-0.207154,-0.0491732,0
2024-12-13 15:17:54.356,-0.521934,6.29402,14.4796,0.0872748,-0.22609,-0.0442864,0
2024-12-13 15:17:54.361,-0.62004,6.0332,14.7595,0.0988809,-0.273736,-0.0387888,0
2024-12-13 15:17:54.362,-0.62004,6.0332,14.7595,0.104379,-0.299392,-0.0308478,0
2024-12-13 15:17:54.363,-0.632004,5.89203,14.8819,0.104379,-0.299392,-0.0308478,0
2024-12-13 15:17:54.368,-0.76361,5.62612,15.1714,0.115374,-0.350092,-0.0064139,0
2024-12-13 15:17:54.368,-0.76361,5.62612,15.1714,0.115374,-0.350092,-0.0064139,0
2024-12-13 15:17:54.370,-0.751645,5.53041,15.2767,0.117817,-0.376969,0.00580305,0
2024-12-13 15:17:54.372,-0.821037,5.39881,15.425,0.125758,-0.394073,0.0216851,0
2024-12-13 15:17:54.375,-0.854836,5.28365,15.5498,0.136143,-0.405068,0.0393996,0
2024-12-13 15:17:54.377,-0.82343,5.21187,15.6407,0.14164,-0.414231,0.0546708,0
2024-12-13 15:17:54.380,-0.797109,5.12094,15.7819,0.150803,-0.416674,0.0736071,0
2024-12-13 15:17:54.382,-0.737288,5.03958,15.8728,0.160576,-0.416674,0.0913217,0
2024-12-13 15:17:54.387,-0.643968,4.87926,15.9829,0.168517,-0.413009,0.10476,1
2024-12-13 15:17:54.387,-0.643968,4.87926,15.9829,0.168517,-0.413009,0.10476,1
2024-12-13 15:17:54.389,-0.567398,4.81466,16.0358,0.187454,-0.392851,0.134768,0
2024-12-13 15:17:54.391,-0.483649,4.7354,16.0861,0.194784,-0.380634,0.148207,0
2024-12-13 15:17:54.394,-0.442971,4.60618,16.1315,0.205779,-0.36292,0.162256,0
2024-12-13 15:17:54.396,-0.378365,4.47697,16.1195,0.214942,-0.343983,0.177527,0
2024-12-13 15:17:54.401,-0.136391,4.20389,16.0238,0.236322,-0.310998,0.205016,0
2024-12-13 15:17:54.401,-0.136391,4.20389,16.0238,0.236322,-0.310998,0.205016,0
2024-12-13 15:17:54.403,-0.0789631,4.05075,16.0334,0.250982,-0.291451,0.216011,0
2024-12-13 15:17:54.405,-0.040678,3.8665,16.0502,0.267475,-0.268849,0.227006,0
2024-12-13 15:17:54.408,-0.00717847,3.67268,16.1028,0.285189,-0.240139,0.239834,0
2024-12-13 15:17:54.410,0.00717847,3.47378,16.1674,0.313288,-0.207154,0.250829,0
2024-12-13 15:17:54.415,0.0981057,3.11007,16.1459,0.38178,-0.135684,0.28015,0
2024-12-13 15:17:54.415,0.0981057,3.11007,16.1459,0.38178,-0.135684,0.28015,0
2024-12-13 15:17:54.417,0.285045,3.01167,15.9975,0.422095,-0.10392,0.294199,0
2024-12-13 15:17:54.420,0.45015,2.92313,15.8441,0.463633,-0.0703238,0.303362,0
2024-12-13 15:17:54.424,0.63679,2.71735,15.5067,0.508225,-0.0306187,0.30886,0
2024-12-13 15:17:54.427,0.710967,2.65035,15.2695,0.615734,0.0695602,0.320466,0
2024-12-13 15:17:54.427,0.710967,2.65035,15.2695,0.615734,0.0695602,0.320466,0
2024-12-13 15:17:54.429,0.792323,2.55464,14.9752,0.674375,0.128202,0.324131,0
2024-12-13 15:17:54.434,0.821037,2.37248,14.3408,0.794712,0.252814,0.330239,0
2024-12-13 15:17:54.434,0.821037,2.37248,14.3408,0.794712,0.252814,0.330239,0
2024-12-13 15:17:54.438,0.727717,2.25284,13.6032,0.916882,0.389033,0.344289,0
2024-12-13 15:17:54.438,0.727717,2.25284,13.6032,0.916882,0.389033,0.344289,0
2024-12-13 15:17:54.441,0.818644,2.31027,13.0837,0.979188,0.442177,0.348565,0
2024-12-13 15:17:54.443,0.9003,2.38445,12.521,1.03539,0.491656,0.350397,0
2024-12-13 15:17:54.445,0.957727,2.43948,11.9895,1.08731,0.540523,0.350397,0
2024-12-13 15:17:54.448,0.969691,2.4658,11.482,1.13679,0.593667,0.346732,0
2024-12-13 15:17:54.450,0.926621,2.49452,10.9723,1.1826,0.640702,0.3449,0
2024-12-13 15:17:54.453,0.816252,2.49212,10.491,1.1826,0.640702,0.3449,0
2024-12-13 15:17:54.456,0.54347,2.38445,10.084,1.30477,0.797767,0.352841,0
2024-12-13 15:17:54.457,0.328116,2.28395,9.59073,1.30477,0.797767,0.352841,0
2024-12-13 15:17:54.460,0.297009,2.18824,9.04008,1.33592,0.835639,0.361392,0
2024-12-13 15:17:54.462,0.0741775,2.0327,8.61625,1.36158,0.87229,0.36689,0
2024-12-13 15:17:54.464,-0.205783,1.95344,8.135,1.38601,0.913217,0.38094,0
2024-12-13 15:17:54.467,-0.383151,1.98724,7.55803,1.38601,0.913217,0.38094,0
2024-12-13 15:17:54.471,-0.665504,2.07099,6.53839,1.40861,1.00179,0.435305,0
2024-12-13 15:17:54.474,-0.734896,2.13081,6.08106,1.39945,1.01278,0.454241,0
2024-12-13 15:17:54.476,-0.842872,2.25763,5.61177,1.39945,1.01645,0.472567,0
2024-12-13 15:17:54.478,-0.893121,2.38923,5.15444,1.35242,1.00912,0.486616,0
2024-12-13 15:17:54.478,-0.893121,2.38923,5.15444,1.35242,1.00912,0.486616,0
2024-12-13 15:17:54.481,-0.931406,2.52592,4.73779,1.31638,0.994459,0.503109,0
2024-12-13 15:17:54.483,-0.996012,2.7006,4.33101,1.27667,0.974912,0.515937,0
2024-12-13 15:17:54.488,-1.04148,2.87049,3.94307,1.1655,0.918103,0.536706,0
2024-12-13 15:17:54.488,-1.03908,3.05713,3.62931,1.1655,0.918103,0.536706,0
2024-12-13 15:17:54.490,-0.99362,3.23928,3.3685,1.10136,0.877788,0.543425,0
2024-12-13 15:17:54.493,-0.890728,3.49771,3.16032,1.03294,0.834417,0.545868,0
2024-12-13 15:17:54.495,-0.842872,3.78275,2.98535,0.964528,0.782495,0.541592,0
2024-12-13 15:17:54.500,-0.842872,3.97418,2.70539,0.817924,0.690181,0.526321,0
2024-12-13 15:17:54.502,-0.813859,3.97657,2.62642,0.740347,0.657195,0.514104,0
2024-12-13 15:17:54.502,-0.761217,3.97657,2.62642,0.740347,0.657195,0.514104,0
2024-12-13 15:17:54.504,-0.63679,3.97657,2.55224,0.659715,0.63154,0.498222,0
2024-12-13 15:17:54.509,-0.174676,4.02921,2.48255,0.494175,0.555184,0.449355,0
2024-12-13 15:17:54.509,-0.174676,4.02921,2.48255,0.494175,0.555184,0.449355,0
2024-12-13 15:17:54.511,0.16989,4.17039,2.47777,0.415987,0.499597,0.413315,0
2024-12-13 15:17:54.514,0.459721,4.2999,2.52832,0.337111,0.433625,0.368112,0
2024-12-13 15:17:54.516,0.402293,4.2664,2.70539,0.260755,0.381703,0.322298,0
2024-12-13 15:17:54.518,0.0382852,4.08186,2.94227,0.191119,0.360934,0.278928,0
2024-12-13 15:17:54.521,-0.359223,3.84975,3.21536,0.123315,0.363989,0.249607,0
2024-12-13 15:17:54.523,-0.682254,3.62931,3.51446,0.0616192,0.37254,0.228839,0
2024-12-13 15:17:54.527,-0.909871,3.45464,3.79711,-0.0489441,0.384757,0.212346,0
2024-12-13 15:17:54.528,-1.04148,3.31585,4.06271,-0.0489441,0.384757,0.212346,0
2024-12-13 15:17:54.530,-1.11087,3.21296,4.30469,-0.0996445,0.387812,0.209902,0
2024-12-13 15:17:54.533,-1.12762,3.13879,4.51286,-0.14668,0.387812,0.210513,0
2024-12-13 15:17:54.535,-1.12044,3.07867,4.70668,-0.189439,0.387201,0.214178,0
2024-12-13 15:17:54.537,-1.08933,3.04517,4.89601,-0.228533,0.384757,0.217843,0
2024-12-13 15:17:54.540,-1.02233,3.01645,5.08026,-0.263962,0.384757,0.2154,0
2024-12-13 15:17:54.542,-0.924228,3.00449,5.25972,-0.295116,0.383536,0.216011,0
2024-12-13 15:17:54.544,-0.809073,2.99731,5.41556,-0.323215,0.384147,0.212346,0
2024-12-13 15:17:54.547,-0.708575,2.98056,5.55913,-0.345205,0.384147,0.206237,0
2024-12-13 15:17:54.549,-0.624826,2.9662,5.70748,-0.365363,0.385979,0.20074,0
2024-12-13 15:17:54.551,-0.557827,2.9351,5.84866,-0.381856,0.385979,0.194631,0
2024-12-13 15:17:54.554,-0.521934,2.8992,6.00449,-0.395905,0.385368,0.185468,0
2024-12-13 15:17:54.556,-0.502792,2.87049,6.15524,-0.405679,0.387812,0.176306,0
2024-12-13 15:17:54.559,-0.507577,2.82742,6.27727,-0.41362,0.390866,0.165921,0
2024-12-13 15:17:54.561,-0.505185,2.79153,6.39691,-0.418507,0.395142,0.15798,0
2024-12-13 15:17:54.563,-0.474078,2.73888,6.50489,-0.422172,0.398807,0.153094,0
2024-12-13 15:17:54.568,-0.464507,2.69103,6.59103,-0.429502,0.406137,0.13347,0
2024-12-13 15:17:54.568,-0.459721,2.65992,6.67478,-0.429502,0.406137,0.13347,0
2024-12-13 15:17:54.570,-0.457328,2.62881,6.75374,-0.430113,0.409802,0.124918,0
2024-12-13 15:17:54.573,-0.478864,2.60489,6.83749,-0.431335,0.40858,0.115145,0
2024-12-13 15:17:54.575,-0.493221,2.57617,6.91645,-0.430724,0.405526,0.110258,0
2024-12-13 15:17:54.577,-0.493221,2.56182,6.98585,-0.427059,0.403083,0.104149,0
2024-12-13 15:17:54.580,-0.498006,2.55224,7.04357,-0.423394,0.399418,0.0974301,0
2024-12-13 15:17:54.582,-0.507577,2.54746,7.10579,-0.421561,0.393309,0.0925434,0
2024-12-13 15:17:54.584,-0.500399,2.55224,7.17996,-0.417285,0.385368,0.0894891,0
2024-12-13 15:17:54.587,-0.486042,2.56182,7.26132,-0.417285,0.385368,0.0894891,0
2024-12-13 15:17:54.589,-0.478864,2.57378,7.34028,-0.407511,0.370708,0.0772722,0
2024-12-13 15:17:54.592,-0.483649,2.57617,7.39771,-0.400181,0.361545,0.0705529,0
2024-12-13 15:17:54.594,-0.495613,2.58096,7.45753,-0.394684,0.353604,0.0650552,0
2024-12-13 15:17:54.596,-0.483649,2.59053,7.50299,-0.384299,0.348107,0.0595576,0
2024-12-13 15:17:54.599,-0.464507,2.59053,7.53889,-0.374526,0.345052,0.0552817,0
2024-12-13 15:17:54.601,-0.445364,2.59532,7.57239,-0.36292,0.341998,0.0503949,0
2024-12-13 15:17:54.603,-0.426222,2.59053,7.57747,-0.347038,0.340166,0.0455081,0
2024-12-13 15:17:54.606,-0.404686,2.59292,7.57747,-0.335431,0.338333,0.0412322,0
2024-12-13 15:17:54.608,-0.380758,2.60967,7.56521,-0.325047,0.333446,0.0332912,0
2024-12-13 15:17:54.610,-0.368794,2.61924,7.54846,-0.325047,0.333446,0.0332912,0
2024-12-13 15:17:54.613,-0.375972,2.63121,7.53889,-0.299392,0.32917,0.0265719,0
2024-12-13 15:17:54.615,-0.387936,2.63599,7.52692,-0.299392,0.32917,0.0265719,0
2024-12-13 15:17:54.617,-0.3999,2.67667,7.5006,-0.268238,0.326116,0.0204634,0
2024-12-13 15:17:54.622,-0.419043,2.71974,7.40728,-0.255411,0.324284,0.01802,0
2024-12-13 15:17:54.622,-0.414257,2.74367,7.40728,-0.255411,0.324284,0.01802,0
2024-12-13 15:17:54.624,-0.407079,2.75563,7.35943,-0.225479,0.318786,0.0161875,0
2024-12-13 15:17:54.627,-0.41665,2.7676,7.29482,-0.213873,0.313288,0.0161875,0
2024-12-13 15:17:54.629,-0.423829,2.79631,7.21586,-0.201656,0.309623,0.0137441,0
2024-12-13 15:17:54.632,-0.409472,2.80349,7.13689,-0.188217,0.306569,0.0137441,0
2024-12-13 15:17:54.634,-0.395115,2.80828,7.06511,-0.180276,0.30046,0.0119115,0
2024-12-13 15:17:54.636,-0.409472,2.82263,6.98585,-0.16867,0.298628,0.0113007,0
2024-12-13 15:17:54.639,-0.423829,2.8322,6.89492,-0.163783,0.293741,0.0119115,0
2024-12-13 15:17:54.641,-0.426222,2.84895,6.79203,-0.154621,0.290687,0.0113007,0
2024-12-13 15:17:54.643,-0.440578,2.85853,6.7011,-0.148512,0.284578,0.0106898,0
2024-12-13 15:17:54.646,-0.4669,2.87288,6.61257,-0.143015,0.273583,0.010079,0
2024-12-13 15:17:54.650,-0.488435,2.9351,6.49053,-0.133852,0.25709,0.0106898,0
2024-12-13 15:17:54.650,-0.488435,2.9351,6.49053,-0.133852,0.25709,0.0106898,0
2024-12-13 15:17:54.653,-0.486042,2.96142,6.43998,-0.130798,0.251593,0.0113007,0
2024-12-13 15:17:54.655,-0.495613,2.97577,6.3993,-0.127133,0.246095,0.010079,0
2024-12-13 15:17:54.657,-0.498006,2.99013,6.36341,-0.124689,0.239987,0.0113007,0
2024-12-13 15:17:54.660,-0.502792,2.9997,6.32991,-0.123468,0.232046,0.0106898,0
2024-12-13 15:17:54.662,-0.512363,3.02363,6.30598,-0.116748,0.226548,0.0119115,0
2024-12-13 15:17:54.665,-0.512363,3.0332,6.28445,-0.113694,0.217385,0.0119115,0
2024-12-13 15:17:54.667,-0.502792,3.05474,6.25095,-0.11064,0.210055,0.0113007,0
2024-12-13 15:17:54.669,-0.493221,3.07867,6.22702,-0.107585,0.201503,0.0137441,0
2024-12-13 15:17:54.674,-0.488435,3.09571,6.21984,-0.106975,0.191119,0.0149658,0
2024-12-13 15:17:54.674,-0.488435,3.09571,6.21984,-0.106975,0.191119,0.0149658,0
2024-12-13 15:17:54.676,-0.488435,3.12443,6.23659,-0.102088,0.191119,0.0155766,0
2024-12-13 15:17:54.679,-0.495613,3.14836,6.24856,-0.0959794,0.192951,0.01802,0
2024-12-13 15:17:54.681,-0.502792,3.16032,6.25095,-0.0910926,0.194173,0.0222959,0
2024-12-13 15:17:54.683,-0.507577,3.18664,6.26052,-0.0807082,0.196616,0.0247393,0
2024-12-13 15:17:54.686,-0.512363,3.22253,6.2677,-0.0727672,0.201503,0.0296261,0
2024-12-13 15:17:54.688,-0.495613,3.22732,6.26531,-0.0672696,0.204557,0.0326803,0
2024-12-13 15:17:54.690,-0.471685,3.23689,6.28924,-0.0636045,0.208833,0.0332912,0
2024-12-13 15:17:54.693,-0.469292,3.2656,6.30359,-0.057496,0.214331,0.0375671,0
2024-12-13 15:17:54.695,-0.471685,3.29193,6.30359,-0.0532201,0.216774,0.0400105,0
2024-12-13 15:17:54.697,-0.471685,3.30868,6.30359,-0.0501658,0.22105,0.0430647,0
2024-12-13 15:17:54.700,-0.4669,3.31825,6.3012,-0.0483333,0.226548,0.0436756,0
2024-12-13 15:17:54.702,-0.478864,3.335,6.31556,-0.0458899,0.231435,0.0448973,0
2024-12-13 15:17:54.705,-0.500399,3.3661,6.32752,-0.0434465,0.235711,0.0491732,0
2024-12-13 15:17:54.707,-0.514756,3.40439,6.33709,-0.0471116,0.24243,0.0528383,0
2024-12-13 15:17:54.712,-0.591326,3.45942,6.32991,-0.0428357,0.252814,0.0589468,0
2024-12-13 15:17:54.714,-0.615255,3.50489,6.30838,-0.0471116,0.257701,0.0613902,0
2024-12-13 15:17:54.714,-0.615255,3.50489,6.30838,-0.0471116,0.257701,0.0613902,0
2024-12-13 15:17:54.716,-0.632004,3.55035,6.27966,-0.0465007,0.265031,0.0644444,0
2024-12-13 15:17:54.719,-0.651147,3.58385,6.24138,-0.0483333,0.269918,0.0668878,0
2024-12-13 15:17:54.721,-0.655932,3.61256,6.20788,-0.0550526,0.276027,0.0662769,0
2024-12-13 15:17:54.723,-0.667897,3.64876,6.17199,-0.0599394,0.282746,0.0681095,0
2024-12-13 15:17:54.726,-0.684646,3.68226,6.16481,-0.0684913,0.288244,0.069942,0
2024-12-13 15:17:54.728,-0.701396,3.699,6.15284,-0.0684913,0.288244,0.069942,0
2024-12-13 15:17:54.733,-0.725324,3.72293,6.10977,-0.0947577,0.292519,0.0723854,0
2024-12-13 15:17:54.733,-0.766002,3.76122,6.10977,-0.0947577,0.292519,0.0723854,0
2024-12-13 15:17:54.735,-0.813859,3.80429,6.10977,-0.106364,0.287022,0.0729962,0
2024-12-13 15:17:54.738,-0.859622,3.84975,6.11217,-0.106364,0.287022,0.0729962,0
2024-12-13 15:17:54.740,-0.907478,3.89043,6.12174,-0.131409,0.268086,0.0760505,0
2024-12-13 15:17:54.742,-0.948156,3.92872,6.14567,-0.145458,0.254036,0.0784939,0
2024-12-13 15:17:54.745,-0.99362,3.96461,6.17677,-0.162562,0.239376,0.0797156,0
2024-12-13 15:17:54.747,-1.04148,4.01246,6.22463,-0.176,0.224105,0.0809373,0
2024-12-13 15:17:54.749,-1.08933,4.06032,6.28206,-0.192493,0.208223,0.0846023,0
2024-12-13 15:17:54.752,-1.1324,4.09143,6.34906,-0.208375,0.189897,0.0852132,0
2024-12-13 15:17:54.754,-1.16351,4.12971,6.42084,-0.223646,0.171572,0.0852132,0
2024-12-13 15:17:54.759,-1.18505,4.23051,6.58146,-0.251135,0.132477,0.0925434,0
2024-12-13 15:17:54.759,-1.18505,4.23051,6.58146,-0.251135,0.132477,0.0925434,0
2024-12-13 15:17:54.763,-1.20419,4.32383,6.74178,-0.281066,0.094605,0.0913217,0
2024-12-13 15:17:54.764,-1.20419,4.32383,6.74178,-0.281066,0.094605,0.0913217,0
2024-12-13 15:17:54.766,-1.18983,4.3669,6.83749,-0.29084,0.0775012,0.0931542,0
2024-12-13 15:17:54.768,-1.19222,4.37887,6.94038,-0.303057,0.058565,0.0937651,0
2024-12-13 15:17:54.773,-1.21615,4.41476,7.16321,-0.326269,0.0213033,0.0894891,0
2024-12-13 15:17:54.773,-1.21615,4.41476,7.16321,-0.326269,0.0213033,0.0894891,0
2024-12-13 15:17:54.775,-1.23769,4.43151,7.28286,-0.336653,0.00419957,0.0870457,0
2024-12-13 15:17:54.778,-1.26401,4.4339,7.40967,-0.347648,-0.0104608,0.085824,0
2024-12-13 15:17:54.782,-1.27358,4.48654,7.65643,-0.364141,-0.0403923,0.0784939,0
2024-12-13 15:17:54.782,-1.27358,4.48654,7.65643,-0.364141,-0.0403923,0.0784939,0
2024-12-13 15:17:54.785,-1.29033,4.50568,7.78086,-0.37025,-0.0544418,0.0742179,0
2024-12-13 15:17:54.787,-1.29033,4.52004,7.90289,-0.372082,-0.0697129,0.0693312,0
2024-12-13 15:17:54.792,-1.25922,4.57029,8.14965,-0.37758,-0.0862058,0.0662769,0
2024-12-13 15:17:54.794,-1.2664,4.59183,8.27408,-0.381245,-0.116748,0.0552817,0
2024-12-13 15:17:54.794,-1.2664,4.59183,8.27408,-0.381245,-0.116748,0.0552817,0
2024-12-13 15:17:54.796,-1.26401,4.61097,8.39851,-0.382467,-0.130798,0.0491732,0
2024-12-13 15:17:54.799,-1.25204,4.60858,8.52054,-0.380634,-0.145458,0.0436756,0
2024-12-13 15:17:54.801,-1.24726,4.61815,8.6354,-0.381856,-0.160118,0.0406213,0
2024-12-13 15:17:54.803,-1.23051,4.63011,8.74337,-0.381856,-0.160118,0.0406213,0
2024-12-13 15:17:54.806,-1.22812,4.62054,8.85344,-0.379413,-0.191882,0.0265719,0
2024-12-13 15:17:54.808,-1.24008,4.62772,8.97308,-0.380023,-0.208375,0.0216851,0
2024-12-13 15:17:54.811,-1.22812,4.63968,9.08794,-0.378191,-0.223646,0.0186308,0
2024-12-13 15:17:54.815,-1.1683,4.62772,9.30359,-0.372693,-0.252967,0.00946813,0
2024-12-13 15:17:54.818,-1.1348,4.6349,9.40888,-0.368417,-0.264573,0.00580305,0
2024-12-13 15:17:54.818,-1.1348,4.6349,9.40888,-0.368417,-0.264573,0.00580305,0
2024-12-13 15:17:54.820,-1.11087,4.62772,9.49502,-0.365363,-0.271903,0.000305424,0
2024-12-13 15:17:54.822,-1.09412,4.61097,9.5692,-0.361087,-0.278623,-0.0051922,0
2024-12-13 15:17:54.825,-1.08215,4.61336,9.64337,-0.359865,-0.283509,-0.010079,0
2024-12-13 15:17:54.827,-1.04626,4.61576,9.69602,-0.3562,-0.286564,-0.0143549,0
2024-12-13 15:17:54.829,-1.00319,4.61336,9.71994,-0.353146,-0.287175,-0.0198525,0
2024-12-13 15:17:54.832,-0.97687,4.62054,9.74387,-0.351314,-0.286564,-0.0241285,0
2024-12-13 15:17:54.834,-0.96012,4.63968,9.77498,-0.349481,-0.28412,-0.0296261,0
2024-12-13 15:17:54.836,-0.933799,4.65404,9.8013,-0.34887,-0.281066,-0.0369563,0
2024-12-13 15:17:54.839,-0.917049,4.64925,9.81566,-0.351924,-0.279844,-0.0400105,0
2024-12-13 15:17:54.841,-0.917049,4.64686,9.82314,-0.351924,-0.279844,-0.0400105,0
2024-12-13 15:17:54.844,-0.914656,4.66361,9.82314,-0.358033,-0.271293,-0.0516166,0
2024-12-13 15:17:54.846,-0.909871,4.666,9.82792,-0.36292,-0.267627,-0.0552817,0
2024-12-13 15:17:54.848,-0.926621,4.6684,9.83988,-0.369639,-0.265795,-0.0613902,0
2024-12-13 15:17:54.851,-0.931406,4.68036,9.83988,-0.378802,-0.260908,-0.0638335,0
2024-12-13 15:17:54.853,-0.929013,4.67797,9.85185,-0.383688,-0.252356,-0.0693312,0
2024-12-13 15:17:54.855,-0.938585,4.68275,9.89731,-0.393462,-0.246248,-0.0723854,0
2024-12-13 15:17:54.858,-0.933799,4.69472,9.94278,-0.403236,-0.241361,-0.0766613,0
2024-12-13 15:17:54.862,-0.912264,4.69233,10.0193,-0.410566,-0.229144,-0.0815481,0
2024-12-13 15:17:54.865,-0.893121,4.70668,10.0696,-0.425837,-0.207154,-0.0937651,0
2024-12-13 15:17:54.867,-0.869193,4.70668,10.1175,-0.431945,-0.192493,-0.0992627,0
2024-12-13 15:17:54.869,-0.859622,4.70429,10.1557,-0.438054,-0.177222,-0.104149,0
2024-12-13 15:17:54.870,-0.859622,4.70429,10.1557,-0.438054,-0.177222,-0.104149,0
2024-12-13 15:17:54.872,-0.845265,4.71147,10.1845,-0.441108,-0.162562,-0.11209,0
2024-12-13 15:17:54.874,-0.825823,4.72104,10.2156,-0.446606,-0.146069,-0.119421,0
2024-12-13 15:17:54.877,-0.816252,4.72104,10.2443,-0.447827,-0.128965,-0.126751,0
2024-12-13 15:17:54.879,-0.80668,4.72822,10.2658,-0.453936,-0.113083,-0.136524,0
2024-12-13 15:17:54.881,-0.816252,4.72822,10.2969,-0.452714,-0.0965902,-0.142633,0
2024-12-13 15:17:54.884,-0.837787,4.72582,10.3424,-0.452103,-0.081319,-0.15485,0
2024-12-13 15:17:54.886,-0.852443,4.72104,10.3807,-0.451492,-0.0672696,-0.16218,0
2024-12-13 15:17:54.888,-0.881157,4.70668,10.424,-0.446606,-0.0526092,-0.170121,0
2024-12-13 15:17:54.891,-0.926621,4.68993,10.4623,-0.440497,-0.0397814,-0.180505,0
2024-12-13 15:17:54.895,-0.99362,4.67797,10.5413,-0.42095,-0.0165692,-0.194555,0
2024-12-13 15:17:54.895,-0.99362,4.67797,10.5413,-0.42095,-0.0165692,-0.194555,0
2024-12-13 15:17:54.898,-1.02233,4.66122,10.5867,-0.409344,-0.00679568,-0.200663,0
2024-12-13 15:17:54.901,-1.04626,4.64686,10.6131,-0.376969,0.014584,-0.210437,0
2024-12-13 15:17:54.905,-1.06062,4.63729,10.6442,-0.358033,0.022525,-0.213491,0
2024-12-13 15:17:54.905,-1.07258,4.63011,10.6442,-0.358033,0.022525,-0.213491,0
2024-12-13 15:17:54.909,-1.05583,4.62772,10.6633,-0.317106,0.0390179,-0.2196,0
2024-12-13 15:17:54.909,-1.05583,4.62772,10.6633,-0.317106,0.0390179,-0.2196,0
2024-12-13 15:17:54.912,-1.0319,4.62533,10.6561,-0.29084,0.0469589,-0.223265,0
2024-12-13 15:17:54.914,-1.02473,4.63729,10.637,-0.270071,0.0542891,-0.225708,0
2024-12-13 15:17:54.917,-1.01515,4.65165,10.6131,-0.245637,0.0610084,-0.226319,0
2024-12-13 15:17:54.919,-1.00319,4.65404,10.5772,-0.221203,0.0671168,-0.229373,0
2024-12-13 15:17:54.921,-0.998405,4.65404,10.5317,-0.196769,0.0726145,-0.231206,0
2024-12-13 15:17:54.924,-1.01515,4.6684,10.4719,-0.176,0.0775012,-0.233649,0
2024-12-13 15:17:54.926,-1.04626,4.69233,10.4049,-0.150345,0.0799446,-0.236703,0
2024-12-13 15:17:54.928,-1.07498,4.733,10.3328,-0.128354,0.0811663,-0.237314,0
2024-12-13 15:17:54.931,-1.11326,4.7665,10.2419,-0.108807,0.0805555,-0.237314,0
2024-12-13 15:17:54.933,-1.15633,4.78834,10.151,-0.0874275,0.0805555,-0.238536,0
2024-12-13 15:17:54.935,-1.19222,4.80269,10.072,-0.0672696,0.0787229,-0.238536,0
2024-12-13 15:17:54.938,-1.23529,4.8338,9.97628,-0.0483333,0.0756687,-0.236703,0
2024-12-13 15:17:54.940,-1.28315,4.8673,9.87578,-0.0324513,0.0720036,-0.23426,0
2024-12-13 15:17:54.942,-1.32383,4.88884,9.78694,-0.0171801,0.066506,-0.230595,0
2024-12-13 15:17:54.945,-1.35254,4.91755,9.69362,-0.00374144,0.0603975,-0.228762,0
2024-12-13 15:17:54.947,-1.38604,4.94626,9.59073,0.00725381,0.0518457,-0.224486,0
2024-12-13 15:17:54.952,-1.45573,5.00608,9.49023,0.0194708,0.0420721,-0.217767,0
2024-12-13 15:17:54.954,-1.48205,5.04676,9.44956,0.0377962,0.0237467,-0.206161,0
2024-12-13 15:17:54.954,-1.48205,5.04676,9.44956,0.0377962,0.0237467,-0.206161,0
2024-12-13 15:17:54.957,-1.48923,5.07069,9.41606,0.0451263,0.014584,-0.200052,0
2024-12-13 15:17:54.959,-1.49641,5.11615,9.39931,0.0469589,0.00419957,-0.192722,0
2024-12-13 15:17:54.961,-1.48923,5.18076,9.38495,0.0518457,-0.00679568,-0.188446,0
2024-12-13 15:17:54.964,-1.47727,5.21426,9.36341,0.0555107,-0.0184018,-0.182338,0
2024-12-13 15:17:54.966,-1.4653,5.24776,9.34906,0.0579541,-0.029397,-0.178062,0
2024-12-13 15:17:54.968,-1.44377,5.28604,9.33949,0.0591758,-0.041614,-0.172564,0
2024-12-13 15:17:54.973,-1.4342,5.32911,9.32274,0.0616192,-0.0623828,-0.166456,0
2024-12-13 15:17:54.973,-1.4342,5.37727,9.31556,0.0616192,-0.0623828,-0.166456,0
2024-12-13 15:17:54.975,-1.43898,5.39881,9.31077,0.0610084,-0.0715455,-0.165234,0
2024-12-13 15:17:54.978,-1.44377,5.41077,9.31316,0.0610084,-0.0770431,-0.164623,0
2024-12-13 15:17:54.980,-1.44855,5.44906,9.3347,0.0628409,-0.0868167,-0.164623,0
2024-12-13 15:17:54.985,-1.42463,5.5017,9.33949,0.0610084,-0.0929251,-0.163402,0
2024-12-13 15:17:54.990,-1.4004,5.54716,9.37299,0.0616192,-0.111861,-0.164623,0
2024-12-13 15:17:54.990,-1.4004,5.54716,9.37299,0.0616192,-0.111861,-0.164623,0
2024-12-13 15:17:54.992,-1.38365,5.57587,9.41127,0.0603975,-0.122246,-0.167067,0
2024-12-13 15:17:54.992,-1.38365,5.57587,9.41127,0.0603975,-0.122246,-0.167067,0
2024-12-13 15:17:54.994,-1.37886,5.6022,9.44956,0.0591758,-0.134463,-0.16951,0
2024-12-13 15:17:54.997,-1.36451,5.63091,9.47348,0.058565,-0.146069,-0.170732,0
2024-12-13 15:17:54.999,-1.34776,5.66202,9.51177,0.0536782,-0.163173,-0.171343,0
2024-12-13 15:17:55.004,-1.33101,5.70269,9.59552,0.0469589,-0.201656,-0.176229,0
2024-12-13 15:17:55.004,-1.33101,5.70269,9.59552,0.0469589,-0.201656,-0.176229,0
2024-12-13 15:17:55.006,-1.33101,5.72423,9.66012,0.0420721,-0.219981,-0.178673,0
2024-12-13 15:17:55.008,-1.32861,5.74098,9.7343,0.0365745,-0.239528,-0.177451,0
2024-12-13 15:17:55.011,-1.33101,5.75773,9.80848,0.0310769,-0.256021,-0.181116,0
2024-12-13 15:17:55.013,-1.31904,5.77448,9.90449,0.0231358,-0.26946,-0.180505,0
2024-12-13 15:17:55.015,-1.30229,5.79841,10.0193,0.0151948,-0.284731,-0.182338,0
2024-12-13 15:17:55.018,-1.25922,5.82473,10.1581,0.00847551,-0.296337,-0.18417,0
2024-12-13 15:17:55.020,-1.1994,5.85584,10.3041,0.000534491,-0.31283,-0.185392,0
2024-12-13 15:17:55.023,-1.14915,5.87498,10.4599,-0.00740652,-0.328101,-0.187225,0
2024-12-13 15:17:55.025,-1.09173,5.90399,10.6561,-0.0141258,-0.342151,-0.190279,0
2024-12-13 15:17:55.027,-1.0343,5.96142,10.85,-0.0202343,-0.359255,-0.194555,0
2024-12-13 15:17:55.030,-0.974477,6.00688,11.0249,-0.0257319,-0.376358,-0.199442,0
2024-12-13 15:17:55.032,-0.938585,6.0356,11.19,-0.0269536,-0.394684,-0.20555,0
2024-12-13 15:17:55.034,-0.912264,6.08345,11.3504,-0.0318404,-0.411177,-0.21288,0
2024-12-13 15:17:55.037,-0.88355,6.13609,11.5158,-0.033673,-0.428891,-0.2196,0
2024-12-13 15:17:55.039,-0.859622,6.18395,11.6856,-0.0330621,-0.445995,-0.226319,0
2024-12-13 15:17:55.044,-0.82343,6.27009,11.9848,-0.0312296,-0.474094,-0.240368,0
2024-12-13 15:17:55.044,-0.82343,6.27009,11.9848,-0.0312296,-0.474094,-0.240368,0
2024-12-13 15:17:55.046,-0.821037,6.30838,12.1549,-0.0312296,-0.485089,-0.248309,0
2024-12-13 15:17:55.048,-0.809073,6.33231,12.3129,-0.029397,-0.497306,-0.25564,0
2024-12-13 15:17:55.051,-0.787538,6.36102,12.4469,-0.0275645,-0.512577,-0.26297,0
2024-12-13 15:17:55.053,-0.758824,6.37538,12.5856,-0.0232886,-0.526627,-0.2703,0
2024-12-13 15:17:55.058,-0.689432,6.40409,12.8731,-0.0196235,-0.560834,-0.283739,0
2024-12-13 15:17:55.058,-0.689432,6.40409,12.8731,-0.0196235,-0.560834,-0.283739,0
2024-12-13 15:17:55.060,-0.639183,6.38973,13.0119,-0.0165692,-0.57977,-0.29168,0
2024-12-13 15:17:55.063,-0.596112,6.38973,13.1483,-0.0159584,-0.599928,-0.299621,0
2024-12-13 15:17:55.065,-0.562612,6.37777,13.2754,-0.0147367,-0.62253,-0.307562,0
2024-12-13 15:17:55.067,-0.529113,6.34666,13.3807,-0.0141258,-0.643299,-0.31367,0
2024-12-13 15:17:55.070,-0.500399,6.32752,13.4907,-0.0116825,-0.662846,-0.320389,0
2024-12-13 15:17:55.074,-0.495613,6.27966,13.73,-0.0122933,-0.682393,-0.326498,0
2024-12-13 15:17:55.077,-0.521934,6.24856,13.8093,-0.013515,-0.711103,-0.330163,0
2024-12-13 15:17:55.077,-0.521934,6.24856,13.8093,-0.013515,-0.711103,-0.330163,0
2024-12-13 15:17:55.079,-0.553041,6.20788,13.8858,-0.0141258,-0.720876,-0.331385,0
2024-12-13 15:17:55.081,-0.581755,6.15763,13.9552,-0.0177909,-0.730039,-0.330774,0
2024-12-13 15:17:55.084,-0.629611,6.09781,14.0222,-0.021456,-0.734315,-0.32833,0
2024-12-13 15:17:55.086,-0.663111,6.0356,14.0964,-0.0287862,-0.734315,-0.321611,0
2024-12-13 15:17:55.088,-0.710967,5.97817,14.1562,-0.0342838,-0.731871,-0.316113,0
2024-12-13 15:17:55.093,-0.857229,5.84387,14.2783,-0.049555,-0.715379,-0.29229,0
2024-12-13 15:17:55.096,-0.888335,5.75055,14.3384,-0.0587177,-0.702551,-0.280684,0
2024-12-13 15:17:55.096,-0.888335,5.75055,14.3384,-0.0587177,-0.702551,-0.280684,0
2024-12-13 15:17:55.098,-0.902692,5.65005,14.4078,-0.0678804,-0.683614,-0.267246,0
2024-12-13 15:17:55.100,-0.924228,5.5352,14.4915,-0.0758214,-0.664067,-0.248309,0
2024-12-13 15:17:55.103,-0.96012,5.42034,14.5633,-0.0874275,-0.643909,-0.233038,0
2024-12-13 15:17:55.105,-0.97687,5.30279,14.6303,-0.0984228,-0.619475,-0.214102,0
2024-12-13 15:17:55.107,-0.986441,5.18555,14.7141,-0.104531,-0.588322,-0.195166,0
2024-12-13 15:17:55.110,-1.01276,5.05873,14.7954,-0.114916,-0.556558,-0.17684,0
2024-12-13 15:17:55.112,-0.998405,4.92951,14.8914,-0.121024,-0.52174,-0.155461,0
2024-12-13 15:17:55.114,-0.964906,4.81944,15.0015,-0.1253,-0.488143,-0.137135,0
2024-12-13 15:17:55.117,-0.940978,4.70429,15.0924,-0.128965,-0.449049,-0.116366,0
2024-12-13 15:17:55.119,-0.888335,4.57029,15.1762,-0.13263,-0.410566,-0.0986518,0
2024-12-13 15:17:55.124,-0.787538,4.2999,15.3963,-0.13263,-0.330545,-0.0607793,0
2024-12-13 15:17:55.124,-0.787538,4.2999,15.3963,-0.13263,-0.330545,-0.0607793,0
2024-12-13 15:17:55.126,-0.739681,4.16082,15.466,-0.128354,-0.292061,-0.0467298,0
2024-12-13 15:17:55.129,-0.687039,4.01486,15.5258,-0.121024,-0.246859,-0.0320695,1
2024-12-13 15:17:55.131,-0.648754,3.86411,15.5857,-0.114916,-0.205932,-0.0167983,0
2024-12-13 15:17:55.133,-0.605683,3.72533,15.6359,-0.102699,-0.162562,-0.00335966,0
2024-12-13 15:17:55.136,-0.545863,3.59821,15.6503,-0.093536,-0.116748,0.010079,0
2024-12-13 15:17:55.138,-0.483649,3.47857,15.6383,-0.093536,-0.116748,0.010079,0
2024-12-13 15:17:55.140,-0.421436,3.35414,15.6072,-0.0629936,-0.0300079,0.0308478,0
2024-12-13 15:17:55.143,-0.344866,3.24407,15.545,-0.0440574,0.0139731,0.0357346,0
2024-12-13 15:17:55.145,-0.260818,3.134,15.4588,-0.0226777,0.0555107,0.041843,0
2024-12-13 15:17:55.147,-0.208176,3.02363,15.3461,0.00236703,0.0952158,0.0473407,0
2024-12-13 15:17:55.150,-0.157926,2.91356,15.2073,0.0310769,0.133699,0.0485624,0
2024-12-13 15:17:55.152,-0.124427,2.80349,15.0661,0.0616192,0.169739,0.0516166,0
2024-12-13 15:17:55.154,-0.12682,2.71256,14.901,0.0927724,0.202725,0.05406,0
2024-12-13 15:17:55.157,-0.124427,2.62403,14.6806,0.130645,0.232046,0.0534491,0
2024-12-13 15:17:55.159,-0.102891,2.54028,14.4221,0.173404,0.263199,0.0577251,0
2024-12-13 15:17:55.162,-0.0646062,2.45384,14.1227,0.173404,0.263199,0.0577251,0
2024-12-13 15:17:55.166,0.026321,2.2672,13.4596,0.294963,0.343831,0.046119,0
2024-12-13 15:17:55.169,0.0717847,2.20259,13.0932,0.337722,0.367654,0.0369563,0
2024-12-13 15:17:55.169,0.0717847,2.20259,13.0932,0.337722,0.367654,0.0369563,0
2024-12-13 15:17:55.171,0.136391,2.14277,12.6936,0.379336,0.390255,0.025961,0
2024-12-13 15:17:55.173,0.181855,2.0997,12.2985,0.41843,0.411635,0.0143549,0
2024-12-13 15:17:55.176,0.196211,2.07338,11.8986,0.458746,0.427517,0.00152712,0
2024-12-13 15:17:55.178,0.210568,2.06142,11.4939,0.498451,0.442788,-0.0137441,0
2024-12-13 15:17:55.180,0.222533,2.07577,11.1254,0.533881,0.453783,-0.0308478,0
2024-12-13 15:17:55.183,0.205783,2.09492,10.759,0.571142,0.460502,-0.0479515,0
2024-12-13 15:17:55.185,0.167498,2.11406,10.3543,0.60596,0.460502,-0.0662769,0
2024-12-13 15:17:55.187,0.141177,2.15234,9.94995,0.638946,0.457448,-0.0852132,0
2024-12-13 15:17:55.192,0.0526421,2.20499,9.15015,0.693922,0.441566,-0.11881,0
2024-12-13 15:17:55.192,0.0526421,2.20499,9.15015,0.693922,0.441566,-0.11881,0
