timestamp,accel_x,accel_y,accel_z,gyro_x,gyro_y,gyro_z,step_timestamp
2024-12-13 15:15:56.764,-0.00239282,3.22253,9.61466,-0.00801737,0.0170274,0.0064139,0
2024-12-13 15:15:56.764,-0.00239282,3.22253,9.61466,-0.00801737,0.0170274,0.0064139,0
2024-12-13 15:15:56.764,-0.00239282,3.22253,9.61466,-0.00801737,0.0170274,0.0064139,0
2024-12-13 15:15:56.785,0.0215354,3.24407,9.70319,-0.00435229,0.0188599,0.010079,0
2024-12-13 15:15:56.797,-0.0334995,3.2345,9.66252,0.00114534,0.0200816,0.0106898,0
2024-12-13 15:15:56.801,-0.0311067,3.24168,9.63859,0.00603212,0.00419957,0.00885729,0
2024-12-13 15:15:56.806,-0.0215354,3.21057,9.6027,0.00603212,0.00419957,0.00885729,0
2024-12-13 15:15:56.809,-0.0191426,3.20339,9.58595,0.00481042,-0.0129041,0.0106898,0
2024-12-13 15:15:56.813,-0.026321,3.17468,9.57877,0.00175619,-0.0171801,0.00763559,0
2024-12-13 15:15:56.820,-0.0430708,3.16989,9.6003,-0.00251974,-0.0275645,0.00397051,0
2024-12-13 15:15:56.823,-0.040678,3.15553,9.6338,-0.00251974,-0.0275645,0.00397051,0
2024-12-13 15:15:56.827,-0.0598206,3.13879,9.64577,-0.00679568,-0.0226777,0.00152712,0
2024-12-13 15:15:56.830,-0.0430708,3.12682,9.66252,-0.00740652,-0.0116825,0.00152712,0
2024-12-13 15:15:56.834,-0.0358923,3.11486,9.67927,-0.00679568,-0.00129805,-0.000305424,0
2024-12-13 15:15:56.842,-0.0287139,3.11007,9.65534,-0.00801737,0.00236703,0.000916271,0
2024-12-13 15:15:56.846,-0.0334995,3.11725,9.64816,-0.00984991,0.014584,-0.000305424,0
2024-12-13 15:15:56.849,-0.0311067,3.12682,9.6362,-0.00984991,0.0213033,0.000916271,0
2024-12-13 15:15:56.853,-0.0358923,3.13879,9.64577,-0.00984991,0.0213033,0.000916271,0
2024-12-13 15:15:56.858,-0.0502493,3.15793,9.65295,-0.00801737,0.0292443,-0.000916271,0
2024-12-13 15:15:56.863,-0.0717847,3.15793,9.64577,-0.000687203,0.0310769,-0.00274881,0
2024-12-13 15:15:56.870,-0.0909273,3.14118,9.60987,0.00603212,0.0249684,-0.00335966,0
2024-12-13 15:15:56.870,-0.0909273,3.14118,9.60987,0.00603212,0.0249684,-0.00335966,0
2024-12-13 15:15:56.870,-0.0909273,3.14118,9.60987,0.00603212,0.0249684,-0.00335966,0
2024-12-13 15:15:56.882,-0.040678,3.1675,9.5668,0.0096972,0.00786466,-0.00274881,0
2024-12-13 15:15:56.882,-0.040678,3.1675,9.5668,0.0096972,0.00786466,-0.00274881,0
2024-12-13 15:15:56.891,-0.00957129,3.17468,9.58116,0.0096972,-0.0165692,-0.00946813,0
2024-12-13 15:15:56.893,0.00239282,3.18186,9.57159,0.0096972,-0.0165692,-0.00946813,0
2024-12-13 15:15:56.898,-0.00717847,3.17468,9.57398,0.00908635,-0.0208452,-0.0149658,0
2024-12-13 15:15:56.905,-0.0119641,3.14118,9.55723,0.00908635,-0.0232886,-0.0161875,0
2024-12-13 15:15:56.907,-0.00957129,3.13639,9.54766,0.00603212,-0.029397,-0.0174091,0
2024-12-13 15:15:56.910,-0.0143569,3.16032,9.54048,0.00603212,-0.029397,-0.0174091,0
2024-12-13 15:15:56.915,-0.0191426,3.14357,9.54048,0.00481042,-0.0318404,-0.0186308,0
2024-12-13 15:15:56.917,-0.0167498,3.14357,9.54288,0.00481042,-0.0318404,-0.0186308,0
2024-12-13 15:15:56.924,-0.0334995,3.12682,9.55005,0.00114534,-0.0281753,-0.0204634,0
2024-12-13 15:15:56.929,-0.040678,3.12921,9.57638,0.00114534,-0.0281753,-0.0210742,0
2024-12-13 15:15:56.933,-0.0478565,3.11007,9.56202,0.00419957,-0.00862822,-0.0161875,0
2024-12-13 15:15:56.933,-0.0478565,3.11007,9.56202,0.00419957,-0.00862822,-0.0161875,0
2024-12-13 15:15:56.940,-0.0358923,3.13639,9.54048,0.00664296,0.0127514,-0.010079,0
2024-12-13 15:15:56.944,-0.0287139,3.14836,9.51416,0.00664296,0.0188599,-0.00763559,0
2024-12-13 15:15:56.950,-0.0334995,3.18186,9.47348,0.00847551,0.0353528,-0.00274881,0
2024-12-13 15:15:56.952,-0.040678,3.17946,9.44956,0.00847551,0.0365745,-0.000916271,0
2024-12-13 15:15:56.959,-0.0765703,3.19143,9.38974,0.000534491,0.0341311,0.00763559,0
2024-12-13 15:15:56.962,-0.0789631,3.19382,9.39213,0.000534491,0.0341311,0.00763559,0
2024-12-13 15:15:56.966,-0.105284,3.20818,9.41366,-0.013515,0.0219141,0.00885729,0
2024-12-13 15:15:56.971,-0.0933201,3.201,9.41127,-0.013515,0.0176382,0.0119115,0
2024-12-13 15:15:56.976,-0.0478565,3.19861,9.47109,-0.0208452,0.010308,0.0106898,0
2024-12-13 15:15:56.978,-0.0311067,3.19143,9.50938,-0.0208452,0.010308,0.0106898,0
2024-12-13 15:15:56.985,-0.0215354,3.19382,9.5357,-0.0348946,-0.00740652,0.00213797,0
2024-12-13 15:15:56.988,-0.0191426,3.20578,9.61227,-0.0348946,-0.00740652,0.00213797,0
2024-12-13 15:15:56.992,0.00478565,3.18425,9.67209,-0.0410031,-0.0202343,-0.00152712,0
2024-12-13 15:15:56.997,0.0191426,3.16989,9.69841,-0.0403923,-0.0245102,-0.00702474,0
2024-12-13 15:15:57.002,0.0191426,3.15553,9.73191,-0.037338,-0.0190126,-0.0143549,0
2024-12-13 15:15:57.006,0.0191426,3.11246,9.73191,-0.037338,-0.0190126,-0.0143549,0
2024-12-13 15:15:57.006,0.0143569,3.10529,9.73191,-0.037338,-0.0190126,-0.0143549,0
2024-12-13 15:15:57.009,0.00957129,3.11007,9.73191,-0.0330621,-0.0110716,-0.0161875,0
2024-12-13 15:15:57.016,-0.0215354,3.1005,9.71277,-0.0202343,-0.00251974,-0.0174091,0
2024-12-13 15:15:57.018,-0.026321,3.10768,9.70559,-0.0202343,-0.00251974,-0.0174091,0
2024-12-13 15:15:57.024,0.00239282,3.11486,9.68166,-0.00984991,0.00542127,-0.0210742,0
2024-12-13 15:15:57.025,0.00239282,3.12443,9.67687,-0.00984991,0.00542127,-0.0210742,0
2024-12-13 15:15:57.032,-0.0287139,3.14118,9.65773,-0.00496313,0.010308,-0.0241285,0
2024-12-13 15:15:57.035,-0.0430708,3.15314,9.66252,-0.00496313,0.010308,-0.0241285,0
2024-12-13 15:15:57.039,-0.0550349,3.1675,9.62902,0.00114534,0.0200816,-0.0235176,0
2024-12-13 15:15:57.042,-0.0574277,3.18664,9.59791,0.00114534,0.0261901,-0.0235176,0
2024-12-13 15:15:57.049,-0.0454636,3.18903,9.53809,0.00786466,0.0359636,-0.0222959,0
2024-12-13 15:15:57.049,-0.0550349,3.18903,9.53809,0.00786466,0.0359636,-0.0222959,0
2024-12-13 15:15:57.054,-0.0957129,3.21536,9.48545,0.00786466,0.0359636,-0.0222959,0
2024-12-13 15:15:57.058,-0.145962,3.21296,9.44477,0.00664296,0.0439046,-0.0174091,0
2024-12-13 15:15:57.063,-0.177069,3.22732,9.37299,0.00358873,0.0500131,-0.0119115,0
2024-12-13 15:15:57.068,-0.181855,3.21536,9.35863,0.00358873,0.0500131,-0.0119115,0
2024-12-13 15:15:57.070,-0.179462,3.22014,9.33709,-0.00557398,0.0469589,-0.00213797,0
2024-12-13 15:15:57.075,-0.18664,3.24885,9.30599,-0.00801737,0.0475697,0.000305424,0
2024-12-13 15:15:57.077,-0.177069,3.24646,9.29402,-0.0177909,0.0451263,0.00274881,0
2024-12-13 15:15:57.082,-0.234497,3.27518,9.31556,-0.0202343,0.0451263,0.00397051,0
2024-12-13 15:15:57.086,-0.253639,3.27039,9.35384,-0.0306187,0.0451263,0.010079,0
2024-12-13 15:15:57.086,-0.260818,3.27039,9.35384,-0.0306187,0.0451263,0.010079,0
2024-12-13 15:15:57.094,-0.275175,3.26321,9.40648,-0.0428357,0.0469589,0.0143549,0
2024-12-13 15:15:57.094,-0.275175,3.26321,9.40648,-0.0428357,0.0469589,0.0143549,0
2024-12-13 15:15:57.101,-0.308973,3.268,9.49502,-0.0526092,0.046348,0.0137441,0
2024-12-13 15:15:57.112,-0.328116,3.25125,9.69123,-0.0568851,0.0432938,0.0143549,0
2024-12-13 15:15:57.117,-0.318545,3.22253,9.70798,-0.0501658,0.0445155,0.010079,0
2024-12-13 15:15:57.119,-0.304188,3.21775,9.72952,-0.0489441,0.0487914,0.00946813,0
2024-12-13 15:15:57.124,-0.320937,3.21296,9.73909,-0.0403923,0.0536782,0.010079,0
2024-12-13 15:15:57.127,-0.328116,3.20818,9.73191,-0.0403923,0.0536782,0.010079,0
2024-12-13 15:15:57.131,-0.373579,3.18425,9.72234,-0.0324513,0.058565,0.0119115,0
2024-12-13 15:15:57.136,-0.407079,3.14357,9.68884,-0.0287862,0.0591758,0.0137441,0
2024-12-13 15:15:57.138,-0.411865,3.15314,9.68405,-0.0287862,0.0591758,0.0137441,0
2024-12-13 15:15:57.143,-0.407079,3.14118,9.66491,-0.0196235,0.0695602,0.0229068,0
2024-12-13 15:15:57.148,-0.404686,3.16032,9.65295,-0.0129041,0.0793338,0.0290152,0
2024-12-13 15:15:57.152,-0.387936,3.1675,9.61227,-0.00618483,0.0884965,0.0308478,0
2024-12-13 15:15:57.155,-0.397508,3.15314,9.57877,-0.00435229,0.103157,0.0320695,0
2024-12-13 15:15:57.157,-0.419043,3.15075,9.55963,-0.0019089,0.109876,0.0332912,0
2024-12-13 15:15:57.162,-0.471685,3.15553,9.51655,-0.0019089,0.114763,0.0326803,0
2024-12-13 15:15:57.169,-0.519542,3.11246,9.41127,0.00236703,0.129423,0.0363454,0
2024-12-13 15:15:57.169,-0.531506,3.11246,9.41127,0.00236703,0.129423,0.0363454,0
2024-12-13 15:15:57.174,-0.574577,3.10529,9.38016,0.00542127,0.139808,0.0430647,0
2024-12-13 15:15:57.178,-0.605683,3.14836,9.32992,0.00725381,0.137975,0.0510057,0
2024-12-13 15:15:57.181,-0.632004,3.17468,9.30599,0.00725381,0.133699,0.05406,0
2024-12-13 15:15:57.185,-0.648754,3.22971,9.28206,0.00725381,0.133699,0.05406,0
2024-12-13 15:15:57.190,-0.675075,3.29432,9.26292,0.0115297,0.130034,0.0595576,0
2024-12-13 15:15:57.195,-0.672682,3.33021,9.18844,0.0188599,0.128812,0.0638335,0
2024-12-13 15:15:57.197,-0.672682,3.33021,9.14776,0.0188599,0.128812,0.0638335,0
2024-12-13 15:15:57.204,-0.665504,3.38046,9.00419,0.0237467,0.130645,0.0650552,0
2024-12-13 15:15:57.207,-0.679861,3.39721,8.96112,0.0237467,0.130645,0.0650552,0
2024-12-13 15:15:57.211,-0.710967,3.40917,8.81994,0.0200816,0.123926,0.0626118,0
2024-12-13 15:15:57.216,-0.756431,3.3996,8.69522,0.0139731,0.117206,0.0626118,0
2024-12-13 15:15:57.221,-0.761217,3.39482,8.58993,-0.0238994,0.0970484,0.0626118,0
2024-12-13 15:15:57.225,-0.76361,3.38764,8.53729,-0.0538309,0.0793338,0.062001,0
2024-12-13 15:15:57.228,-0.76361,3.37089,8.53969,-0.0697129,0.0720036,0.0595576,0
2024-12-13 15:15:57.230,-0.754038,3.37089,8.55404,-0.0697129,0.0720036,0.0595576,0
2024-12-13 15:15:57.235,-0.76361,3.35414,8.63061,-0.102088,0.0591758,0.0552817,0
2024-12-13 15:15:57.237,-0.761217,3.34935,8.69043,-0.144847,0.0445155,0.0510057,0
2024-12-13 15:15:57.242,-0.777966,3.31346,8.84626,-0.177222,0.0347419,0.0455081,0
2024-12-13 15:15:57.244,-0.777966,3.29432,8.92284,-0.192493,0.0310769,0.0436756,0
2024-12-13 15:15:57.249,-0.710967,3.23928,9.12383,-0.221814,0.0286335,0.0369563,0
2024-12-13 15:15:57.251,-0.675075,3.19621,9.23151,-0.227922,0.030466,0.0326803,0
2024-12-13 15:15:57.258,-0.567398,3.12204,9.60987,-0.241361,0.0219141,0.025961,0
2024-12-13 15:15:57.258,-0.567398,3.12204,9.60987,-0.241361,0.0219141,0.025961,0
2024-12-13 15:15:57.266,-0.548256,3.11246,9.90449,-0.236474,0.00908635,0.0131332,0
2024-12-13 15:15:57.268,-0.529113,3.10768,9.9667,-0.221203,0.00847551,0.00824644,0
2024-12-13 15:15:57.274,-0.502792,3.1005,10.0433,-0.19738,0.0200816,0.00580305,0
2024-12-13 15:15:57.275,-0.502792,3.07627,10.0648,-0.19738,0.0200816,0.00580305,0
2024-12-13 15:15:57.280,-0.442971,3.02124,10.0481,-0.172946,0.0261901,0.00580305,0
2024-12-13 15:15:57.282,-0.440578,3.01884,10.0361,-0.172946,0.0261901,0.00580305,0
2024-12-13 15:15:57.289,-0.431007,3.03081,10.005,-0.140571,0.0310769,0.00702474,0
2024-12-13 15:15:57.291,-0.41665,3.04038,9.98585,-0.140571,0.0310769,0.00702474,0
2024-12-13 15:15:57.294,-0.373579,3.04038,9.9691,-0.127133,0.0292443,0.00885729,0
2024-12-13 15:15:57.296,-0.359223,3.03799,9.9691,-0.119192,0.0268009,0.00885729,0
2024-12-13 15:15:57.303,-0.311366,3.09093,9.92603,-0.105142,0.0237467,0.0051922,0
2024-12-13 15:15:57.303,-0.27996,3.09093,9.92603,-0.105142,0.0237467,0.0051922,0
2024-12-13 15:15:57.310,-0.191426,3.08854,9.82553,-0.0917034,0.014584,-0.00702474,0
2024-12-13 15:15:57.310,-0.16989,3.08854,9.82553,-0.0917034,0.014584,-0.00702474,0
2024-12-13 15:15:57.317,-0.119641,3.09332,9.74866,-0.0886492,-0.013515,-0.0222959,0
2024-12-13 15:15:57.320,-0.107677,3.09571,9.74387,-0.0886492,-0.013515,-0.0222959,0
2024-12-13 15:15:57.324,-0.0741775,3.08584,9.72952,-0.0892601,-0.0342838,-0.0308478,0
2024-12-13 15:15:57.325,-0.0741775,3.08584,9.72952,-0.0892601,-0.0342838,-0.0308478,0
2024-12-13 15:15:57.331,0.0430708,3.06431,9.76302,-0.0819299,-0.0868167,-0.062001,0
2024-12-13 15:15:57.334,0.0526421,3.04756,9.7678,-0.0819299,-0.0868167,-0.062001,0
2024-12-13 15:15:57.336,0.0646062,3.02124,9.7678,-0.0819299,-0.0868167,-0.062001,0
2024-12-13 15:15:57.343,0.0693919,3.01167,9.72712,-0.0678804,-0.108807,-0.0876566,0
2024-12-13 15:15:57.346,0.0598206,2.9686,9.69841,-0.049555,-0.114305,-0.109647,0
2024-12-13 15:15:57.348,0.0382852,2.95902,9.65534,-0.049555,-0.114305,-0.109647,0
2024-12-13 15:15:57.353,0.040678,2.96381,9.5333,-0.0263428,-0.10331,-0.121864,0
2024-12-13 15:15:57.353,0.0550349,2.96381,9.5333,-0.0263428,-0.10331,-0.121864,0
2024-12-13 15:15:57.360,0.0981057,2.9686,9.3012,-0.0141258,-0.081319,-0.125529,0
2024-12-13 15:15:57.360,0.0981057,2.9686,9.3012,-0.0141258,-0.081319,-0.125529,0
2024-12-13 15:15:57.367,0.143569,3.00927,9.0353,-0.0171801,-0.0568851,-0.131638,0
2024-12-13 15:15:57.369,0.172283,3.02842,8.96112,-0.0171801,-0.0568851,-0.131638,0
2024-12-13 15:15:57.376,0.205783,3.12443,8.7362,-0.0281753,-0.0348946,-0.137746,0
2024-12-13 15:15:57.383,0.294616,3.18903,8.55165,-0.0410031,-0.0245102,-0.143855,0
2024-12-13 15:15:57.383,0.294616,3.18903,8.55165,-0.0410031,-0.0245102,-0.143855,0
2024-12-13 15:15:57.386,0.294616,3.19621,8.52293,-0.0691021,-0.00984991,-0.156682,0
2024-12-13 15:15:57.393,0.342473,3.21296,8.44876,-0.0691021,-0.00984991,-0.156682,0
2024-12-13 15:15:57.397,0.361615,3.21057,8.47029,-0.105142,-0.0159584,-0.176229,0
2024-12-13 15:15:57.402,0.380758,3.18903,8.47747,-0.14668,-0.0385597,-0.192722,0
2024-12-13 15:15:57.404,0.397508,3.18425,8.50379,-0.161951,-0.0501658,-0.200663,0
2024-12-13 15:15:57.409,0.4334,3.1675,8.59951,-0.169281,-0.0666587,-0.210437,0
2024-12-13 15:15:57.412,0.457328,3.18903,8.64975,-0.186996,-0.0788757,-0.218989,0
2024-12-13 15:15:57.416,0.533899,3.24168,8.73141,-0.194937,-0.0910926,-0.233038,0
2024-12-13 15:15:57.419,0.56022,3.268,8.75773,-0.200434,-0.0978119,-0.24159,0
2024-12-13 15:15:57.423,0.591326,3.35175,8.77448,-0.205932,-0.0947577,-0.257472,0
2024-12-13 15:15:57.428,0.612862,3.40439,8.73141,-0.205932,-0.0947577,-0.257472,0
2024-12-13 15:15:57.433,0.682254,3.48814,8.71705,-0.219371,-0.0800973,-0.289236,0
2024-12-13 15:15:57.433,0.699003,3.50967,8.7027,-0.219371,-0.0800973,-0.289236,0
2024-12-13 15:15:57.437,0.703789,3.63889,8.62343,-0.234031,-0.077654,-0.305118,0
2024-12-13 15:15:57.440,0.691825,3.72054,8.58754,-0.237085,-0.073378,-0.31367,0
2024-12-13 15:15:57.447,0.660718,3.91197,8.38415,-0.262741,-0.0715455,-0.330774,0
2024-12-13 15:15:57.449,0.660718,4.0005,8.38415,-0.262741,-0.0715455,-0.330774,0
2024-12-13 15:15:57.452,0.684646,4.18714,8.23101,-0.29084,-0.0691021,-0.341158,0
2024-12-13 15:15:57.454,0.687039,4.27597,8.13261,-0.309776,-0.0691021,-0.346045,0
2024-12-13 15:15:57.461,0.727717,4.38844,7.92922,-0.380023,-0.0978119,-0.366203,0
2024-12-13 15:15:57.461,0.751645,4.38844,7.92922,-0.380023,-0.0978119,-0.366203,0
2024-12-13 15:15:57.466,0.797109,4.40279,7.88375,-0.430724,-0.130798,-0.381474,0
2024-12-13 15:15:57.468,0.794716,4.37408,7.85982,-0.463099,-0.154621,-0.389415,0
2024-12-13 15:15:57.473,0.725324,4.25922,7.93639,-0.535179,-0.219371,-0.399189,0
2024-12-13 15:15:57.477,0.689432,4.08425,8.17598,-0.575494,-0.259686,-0.401021,0
2024-12-13 15:15:57.480,0.687039,3.96461,8.31715,-0.657959,-0.345205,-0.394913,0
2024-12-13 15:15:57.487,0.722932,3.60539,8.92762,-0.704383,-0.385521,-0.391248,0
2024-12-13 15:15:57.489,0.722932,3.47139,9.17647,-0.786848,-0.45699,-0.369257,0
2024-12-13 15:15:57.492,0.701396,3.35414,9.44716,-0.863204,-0.488754,-0.358873,0
2024-12-13 15:15:57.496,0.677468,3.17707,10.0409,-0.924288,-0.493641,-0.335661,0
2024-12-13 15:15:57.499,0.679861,3.07149,10.3953,-0.924288,-0.493641,-0.335661,0
2024-12-13 15:15:57.503,0.710967,2.9327,11.1039,-0.980486,-0.460044,-0.29901,0
2024-12-13 15:15:57.506,0.71336,2.8681,11.4365,-0.985373,-0.439886,-0.284349,0
2024-12-13 15:15:57.510,0.727717,2.71256,12.1119,-0.981708,-0.383078,-0.259305,0
2024-12-13 15:15:57.513,0.74686,2.63121,12.4301,-0.981708,-0.383078,-0.245866,0
2024-12-13 15:15:57.518,0.737288,2.47537,13.0095,-0.924899,-0.263962,-0.222043,0
2024-12-13 15:15:57.520,0.742074,2.41316,13.2467,-0.898633,-0.217538,-0.209826,0
2024-12-13 15:15:57.525,0.734896,2.32223,13.6247,-0.820444,-0.117359,-0.18417,0
2024-12-13 15:15:57.527,0.727717,2.3007,13.742,-0.820444,-0.117359,-0.18417,0
2024-12-13 15:15:57.532,0.696611,2.31506,13.8476,-0.722709,-0.0147367,-0.159737,0
2024-12-13 15:15:57.534,0.651147,2.3342,13.8404,-0.609702,0.0884965,-0.134692,0
2024-12-13 15:15:57.539,0.52672,2.42752,13.6534,-0.490587,0.177069,-0.107815,0
2024-12-13 15:15:57.541,0.481256,2.48734,13.4979,-0.490587,0.214331,-0.0925434,0
2024-12-13 15:15:57.543,0.423829,2.54985,13.2993,-0.490587,0.214331,-0.0925434,0
2024-12-13 15:15:57.546,0.371187,2.60249,13.0837,-0.317106,0.26381,-0.0626118,0
2024-12-13 15:15:57.553,0.212961,2.81785,12.3224,-0.177222,0.259534,-0.0241285,0
2024-12-13 15:15:57.555,0.167498,2.88006,12.0999,-0.177222,0.259534,-0.0241285,0
2024-12-13 15:15:57.560,0.100499,3.02124,11.6737,-0.0984228,0.198449,0.00274881,0
2024-12-13 15:15:57.562,0.081356,3.07867,11.4724,-0.0324513,0.17035,0.00946813,0
2024-12-13 15:15:57.567,-0.00957129,3.15314,11.0848,0.0237467,0.125147,0.0174091,0
2024-12-13 15:15:57.569,-0.0574277,3.18903,10.8906,0.050624,0.106822,0.0210742,0
2024-12-13 15:15:57.574,-0.150748,3.2345,10.5269,0.0958267,0.0829989,0.0277936,0
2024-12-13 15:15:57.576,-0.181855,3.25603,10.3328,0.115374,0.0756687,0.0302369,0
2024-12-13 15:15:57.581,-0.232104,3.30628,9.95235,0.14164,0.0677277,0.0345129,0
2024-12-13 15:15:57.583,-0.244068,3.32064,9.77498,0.155079,0.0671168,0.0363454,0
2024-12-13 15:15:57.588,-0.316152,3.3661,9.48306,0.165463,0.0610084,0.0393996,0
2024-12-13 15:15:57.593,-0.361615,3.38764,9.20997,0.169128,0.058565,0.0436756,0
2024-12-13 15:15:57.595,-0.380758,3.38525,9.11426,0.175848,0.0530674,0.0485624,0
2024-12-13 15:15:57.598,-0.387936,3.38525,9.03291,0.173404,0.0548999,0.0528383,0
2024-12-13 15:15:57.602,-0.407079,3.39003,8.85344,0.178902,0.0603975,0.0583359,0
2024-12-13 15:15:57.607,-0.423829,3.3661,8.69522,0.178902,0.0603975,0.0644444,0
2024-12-13 15:15:57.609,-0.435793,3.35414,8.62343,0.177069,0.0817772,0.0717745,0
2024-12-13 15:15:57.612,-0.440578,3.32543,8.55165,0.174015,0.094605,0.0754396,0
2024-12-13 15:15:57.616,-0.440578,3.30868,8.46072,0.171572,0.1056,0.0827698,0
2024-12-13 15:15:57.619,-0.435793,3.31346,8.40329,0.172183,0.118428,0.0864349,0
2024-12-13 15:15:57.621,-0.431007,3.32303,8.35304,0.172183,0.118428,0.0864349,0
2024-12-13 15:15:57.626,-0.375972,3.34457,8.24537,0.164242,0.157522,0.0931542,0
2024-12-13 15:15:57.631,-0.328116,3.33739,8.10868,0.151414,0.178291,0.0949868,0
2024-12-13 15:15:57.633,-0.301795,3.34935,8.06082,0.151414,0.180734,0.0925434,0
2024-12-13 15:15:57.638,-0.289831,3.36371,7.97229,0.133088,0.179513,0.0864349,0
2024-12-13 15:15:57.640,-0.27996,3.3685,7.95075,0.120871,0.178291,0.0809373,0
2024-12-13 15:15:57.645,-0.258425,3.38285,7.90289,0.108654,0.170961,0.0668878,0
2024-12-13 15:15:57.647,-0.246461,3.39242,7.87418,0.100713,0.164852,0.0626118,0
2024-12-13 15:15:57.652,-0.198604,3.38764,7.80479,0.0829989,0.147138,0.0455081,0
2024-12-13 15:15:57.654,-0.177069,3.39482,7.77847,0.0756687,0.135532,0.0363454,0
2024-12-13 15:15:57.659,-0.148355,3.39482,7.73779,0.0573433,0.111098,0.0155766,0
2024-12-13 15:15:57.661,-0.148355,3.39721,7.71147,0.0573433,0.111098,0.0155766,0
2024-12-13 15:15:57.664,-0.0765703,3.41396,7.69472,0.0347419,0.0793338,-0.00824644,0
2024-12-13 15:15:57.668,-0.0646062,3.40917,7.7019,0.0237467,0.0597867,-0.0210742,0
2024-12-13 15:15:57.673,0.00957129,3.3996,7.71386,-7.63559e-05,0.022525,-0.0479515,0
2024-12-13 15:15:57.675,0.0311067,3.38764,7.72822,-0.0104608,0.00481042,-0.062001,0
2024-12-13 15:15:57.680,0.0741775,3.38046,7.78086,-0.0361163,-0.0306187,-0.102928,0
2024-12-13 15:15:57.685,0.141177,3.36132,7.82632,-0.0758214,-0.0721563,-0.131027,0
2024-12-13 15:15:57.687,0.16989,3.36132,7.85743,-0.0910926,-0.0849841,-0.144465,0
2024-12-13 15:15:57.689,0.20339,3.36132,7.89093,-0.100255,-0.0947577,-0.157293,0
2024-12-13 15:15:57.694,0.251246,3.32782,7.94357,-0.133241,-0.115526,-0.179895,0
2024-12-13 15:15:57.699,0.244068,3.29671,7.97947,-0.133241,-0.115526,-0.179895,0
2024-12-13 15:15:57.701,0.244068,3.2345,8.08714,-0.18272,-0.137517,-0.206161,0
2024-12-13 15:15:57.704,0.265603,3.20818,8.1688,-0.196769,-0.143015,-0.214713,0
2024-12-13 15:15:57.708,0.316152,3.13639,8.38176,-0.227312,-0.155232,-0.224486,0
2024-12-13 15:15:57.711,0.337687,3.11246,8.48226,-0.238918,-0.158286,-0.231817,0
2024-12-13 15:15:57.715,0.359223,3.06909,8.72662,-0.238918,-0.158286,-0.231817,0
2024-12-13 15:15:57.722,0.385544,3.05474,8.98266,-0.293283,-0.15401,-0.248309,0
2024-12-13 15:15:57.722,0.414257,3.0332,9.0999,-0.293283,-0.15401,-0.248309,0
2024-12-13 15:15:57.727,0.478864,3.00449,9.32513,-0.301835,-0.150956,-0.250142,0
2024-12-13 15:15:57.730,0.481256,2.98056,9.41606,-0.309165,-0.144847,-0.252585,0
2024-12-13 15:15:57.732,0.471685,2.96381,9.51177,-0.32016,-0.137517,-0.251364,0
2024-12-13 15:15:57.737,0.404686,2.89203,9.67209,-0.32688,-0.124689,-0.246477,0
2024-12-13 15:15:57.739,0.354437,2.86092,9.76062,-0.32688,-0.124689,-0.246477,0
2024-12-13 15:15:57.744,0.316152,2.77238,9.93081,-0.342762,-0.104531,-0.226319,0
2024-12-13 15:15:57.746,0.256032,2.75085,10.0361,-0.346427,-0.0953685,-0.215935,0
2024-12-13 15:15:57.751,0.208176,2.68146,10.2203,-0.351924,-0.0788757,-0.199442,0
2024-12-13 15:15:57.753,0.200997,2.65035,10.3208,-0.351924,-0.0691021,-0.187225,0
2024-12-13 15:15:57.758,0.184247,2.57857,10.4839,-0.352535,-0.0428357,-0.167067,0
2024-12-13 15:15:57.760,0.181855,2.54028,10.5724,-0.353146,-0.0269536,-0.156682,0
2024-12-13 15:15:57.765,0.189033,2.50409,10.7614,-0.350703,0.00664296,-0.138968,0
2024-12-13 15:15:57.767,0.167498,2.46102,10.8811,-0.350703,0.00664296,-0.138968,0
2024-12-13 15:15:57.772,0.129212,2.41795,11.1302,-0.343373,0.0371853,-0.123086,0
2024-12-13 15:15:57.777,0.11007,2.38923,11.3934,-0.328101,0.0640626,-0.110258,0
2024-12-13 15:15:57.781,0.107677,2.37248,11.633,-0.293283,0.104379,-0.0949868,0
2024-12-13 15:15:57.786,0.0837488,2.34377,11.8173,-0.275568,0.120871,-0.0919325,0
2024-12-13 15:15:57.788,0.0741775,2.34377,11.889,-0.232198,0.14897,-0.0852132,0
2024-12-13 15:15:57.793,0.0981057,2.35813,12.0111,-0.232198,0.164852,-0.0827698,0
2024-12-13 15:15:57.795,0.102891,2.37727,12.035,-0.15401,0.191119,-0.0797156,0
2024-12-13 15:15:57.798,0.122034,2.39402,12.0565,-0.130187,0.195395,-0.0772722,0
2024-12-13 15:15:57.803,0.129212,2.49452,12.0278,-0.0703238,0.207612,-0.0766613,0
2024-12-13 15:15:57.805,0.129212,2.5331,12.0015,-0.0703238,0.210666,-0.0754396,0
2024-12-13 15:15:57.812,0.143569,2.64796,11.8508,0.0390179,0.207612,-0.0729962,0
2024-12-13 15:15:57.817,0.162712,2.78435,11.6474,0.0891073,0.197227,-0.0681095,0
2024-12-13 15:15:57.817,0.162712,2.78435,11.6474,0.0891073,0.197227,-0.0681095,0
2024-12-13 15:15:57.821,0.172283,2.87767,11.4102,0.108654,0.191119,-0.0687203,0
2024-12-13 15:15:57.826,0.165105,2.97817,11.1326,0.160576,0.172183,-0.0668878,0
2024-12-13 15:15:57.828,0.0981057,3.01884,11.0058,0.160576,0.172183,-0.0668878,0
2024-12-13 15:15:57.831,0.0478565,3.0667,10.8882,0.160576,0.172183,-0.0668878,0
2024-12-13 15:15:57.833,0.00957129,3.11246,10.7758,0.178902,0.147749,-0.0552817,0
2024-12-13 15:15:57.840,-0.0287139,3.2345,10.5389,0.175848,0.133699,-0.038178,0
2024-12-13 15:15:57.843,-0.0287139,3.268,10.4743,0.175848,0.133699,-0.038178,0
2024-12-13 15:15:57.847,-0.0311067,3.35892,10.436,0.153246,0.123315,-0.0167983,0
2024-12-13 15:15:57.847,-0.0311067,3.35892,10.436,0.153246,0.123315,-0.0167983,0
2024-12-13 15:15:57.857,0.0119641,3.4666,10.515,0.11232,0.125758,0.00152712,0
2024-12-13 15:15:57.858,0.0358923,3.48335,10.5724,0.11232,0.125758,0.00152712,0
2024-12-13 15:15:57.861,0.0502493,3.5336,10.6753,0.0933833,0.143473,0.00213797,0
2024-12-13 15:15:57.864,0.0478565,3.53599,10.7542,0.0829989,0.153246,0.00335966,0
2024-12-13 15:15:57.871,0.0502493,3.55992,10.9651,0.0634518,0.178291,0.00458135,0
2024-12-13 15:15:57.873,0.00957129,3.56949,11.1972,0.0561216,0.186232,0.00763559,0
2024-12-13 15:15:57.878,-0.00478565,3.59103,11.5493,0.0408504,0.193562,0.00824644,0
2024-12-13 15:15:57.880,0.00478565,3.61256,11.7694,0.0408504,0.193562,0.00824644,0
2024-12-13 15:15:57.885,0.0430708,3.6006,12.1621,0.0341311,0.188675,0.00580305,0
2024-12-13 15:15:57.887,0.157926,3.6006,12.3535,0.0371853,0.190508,0.00152712,0
2024-12-13 15:15:57.892,0.246461,3.62453,12.7343,0.0616192,0.182567,-0.0216851,0
2024-12-13 15:15:57.894,0.263211,3.64128,12.9162,0.0616192,0.182567,-0.0216851,0
2024-12-13 15:15:57.899,0.227318,3.75643,13.2323,0.0897182,0.164242,-0.0400105,0
2024-12-13 15:15:57.901,0.20339,3.78993,13.3496,0.108654,0.156301,-0.0565034,0
2024-12-13 15:15:57.906,0.148355,3.84018,13.5362,0.17035,0.125758,-0.0674986,0
2024-12-13 15:15:57.909,0.119641,3.85932,13.5625,0.19173,0.114763,-0.0736071,0
2024-12-13 15:15:57.913,0.107677,3.88804,13.5817,0.211888,0.0988809,-0.0784939,0
2024-12-13 15:15:57.916,0.0909273,3.92154,13.5506,0.235711,0.090329,-0.0809373,0
2024-12-13 15:15:57.921,0.0287139,4.02682,13.4907,0.301682,0.0836097,-0.0803264,0
2024-12-13 15:15:57.923,-0.00239282,4.07946,13.4046,0.301682,0.0836097,-0.0803264,0
2024-12-13 15:15:57.927,0.0143569,4.21855,13.1722,0.324894,0.0933833,-0.0766613,0
2024-12-13 15:15:57.930,0.0622134,4.25922,13.043,0.331614,0.104989,-0.0717745,0
2024-12-13 15:15:57.937,0.155533,4.35015,12.7343,0.321229,0.152025,-0.0668878,0
2024-12-13 15:15:57.937,0.198604,4.35015,12.7343,0.321229,0.152025,-0.0668878,0
2024-12-13 15:15:57.942,0.232104,4.43869,12.5689,0.312067,0.169739,-0.0644444,0
2024-12-13 15:15:57.944,0.236889,4.4674,12.4875,0.283968,0.212498,-0.0607793,0
2024-12-13 15:15:57.949,0.210568,4.50568,12.3392,0.241208,0.265642,-0.0534491,0
2024-12-13 15:15:57.951,0.184247,4.49611,12.2985,0.241208,0.265642,-0.0534491,0
2024-12-13 15:15:57.956,0.124427,4.39562,12.2698,0.170961,0.348107,-0.0357346,0
2024-12-13 15:15:57.960,0.026321,4.28076,12.3416,0.146527,0.379871,-0.0265719,0
2024-12-13 15:15:57.963,-0.0502493,4.21137,12.387,0.0976592,0.439734,-0.0106898,0
2024-12-13 15:15:57.965,-0.157926,4.14168,12.4253,0.0976592,0.439734,0.000916271,0
2024-12-13 15:15:57.970,-0.371187,3.93829,12.4971,0.0298552,0.525252,0.0320695,0
2024-12-13 15:15:57.974,-0.502792,3.81625,12.6168,0.00847551,0.557627,0.0516166,0
2024-12-13 15:15:57.977,-0.557827,3.78036,12.6314,-0.0275645,0.630929,0.0925434,0
2024-12-13 15:15:57.982,-0.742074,3.68226,12.6482,-0.0465007,0.668801,0.115756,0
2024-12-13 15:15:57.984,-0.862014,3.63889,12.6458,-0.0745997,0.748288,0.158591,0
2024-12-13 15:15:57.986,-0.862014,3.59342,12.6745,-0.0745997,0.748288,0.158591,0
2024-12-13 15:15:57.991,-1.18505,3.49053,12.7199,-0.122857,0.856408,0.231282,0
2024-12-13 15:15:57.996,-1.25444,3.44028,12.7152,-0.137517,0.890004,0.252662,0
2024-12-13 15:15:57.998,-1.2999,3.40678,12.7271,-0.165616,0.943148,0.296643,0
2024-12-13 15:15:58.000,-1.34776,3.27278,12.6984,-0.165616,0.966971,0.315579,0
2024-12-13 15:15:58.005,-1.39322,3.21296,12.6912,-0.193715,0.98041,0.334515,0
2024-12-13 15:15:58.007,-1.47248,3.05952,12.6506,-0.215095,0.984075,0.355284,0
2024-12-13 15:15:58.012,-1.45813,2.9016,12.6144,-0.259076,0.933985,0.408428,0
2024-12-13 15:15:58.015,-1.42941,2.8011,12.6048,-0.259076,0.933985,0.408428,0
2024-12-13 15:15:58.019,-1.31426,2.55224,12.6529,-0.300002,0.830752,0.442024,0
2024-12-13 15:15:58.024,-1.22333,2.30548,12.7846,-0.314663,0.781884,0.446911,0
2024-12-13 15:15:58.026,-1.1994,2.14277,12.8611,-0.326269,0.680407,0.449355,0
2024-12-13 15:15:58.029,-1.1683,2.00877,12.976,-0.329934,0.623599,0.448133,0
2024-12-13 15:15:58.033,-1.0989,1.73809,13.206,-0.309776,0.513646,0.440192,0
2024-12-13 15:15:58.036,-1.04626,1.61366,13.3185,-0.294505,0.461113,0.434083,0
2024-12-13 15:15:58.043,-0.924228,1.36929,13.6271,-0.21876,0.326727,0.400487,0
2024-12-13 15:15:58.050,-0.754038,0.792323,13.9265,-0.21876,0.326727,0.384605,0
2024-12-13 15:15:58.052,-0.74686,0.667897,14.0007,-0.0513875,0.129423,0.340624,0
2024-12-13 15:15:58.055,-0.727717,0.54347,14.0605,-0.0513875,0.129423,0.340624,0
2024-12-13 15:15:58.059,-0.773181,0.316152,14.1778,0.107433,-0.0257319,0.30214,0
2024-12-13 15:15:58.062,-0.85005,0.210568,14.2328,0.167296,-0.073378,0.292367,0
2024-12-13 15:15:58.066,-1.02712,0.0789631,14.3456,0.289465,-0.142404,0.284426,0
2024-12-13 15:15:58.069,-1.15633,0.026321,14.3599,0.35788,-0.162562,0.284426,0
2024-12-13 15:15:58.073,-1.45095,-0.0861416,14.3575,0.507003,-0.169281,0.296032,1
2024-12-13 15:15:58.078,-1.54905,-0.138784,14.185,0.587635,-0.158286,0.307638,0
2024-12-13 15:15:58.080,-1.79791,-0.196211,14.0055,0.744012,-0.113083,0.343678,0
2024-12-13 15:15:58.083,-1.98485,-0.184247,13.759,0.825866,-0.0788757,0.369944,0
2024-12-13 15:15:58.090,-2.47059,-0.066999,12.7702,1.04088,0.0591758,0.476232,0
2024-12-13 15:15:58.092,-2.64556,-0.00717847,12.3344,1.04088,0.0591758,0.476232,0
2024-12-13 15:15:58.097,-2.93749,0.11007,11.3623,1.15328,0.152025,0.61184,0
2024-12-13 15:15:58.099,-3.07627,0.155533,10.8093,1.19421,0.196006,0.663151,0
2024-12-13 15:15:58.104,-3.35892,0.27996,9.7343,1.19421,0.196006,0.663151,0
2024-12-13 15:15:58.106,-3.52882,0.30658,9.2363,1.25407,0.332835,0.818306,0
2024-12-13 15:15:58.111,-3.58146,0.512363,8.34347,1.2278,0.378649,0.925205,0
2024-12-13 15:15:58.113,-3.23689,0.751645,7.97707,1.2278,0.397585,0.967353,0
2024-12-13 15:15:58.118,-2.34856,1.38365,7.43121,1.13312,0.440955,1.01622,0
2024-12-13 15:15:58.121,-1.93191,1.71655,7.21107,1.09464,0.465389,1.0205,0
2024-12-13 15:15:58.125,-1.36211,2.24327,6.89492,1.09464,0.465389,1.0205,0
2024-12-13 15:15:58.128,-1.21854,2.42752,6.81117,0.950478,0.52342,0.977737,0
2024-12-13 15:15:58.132,-1.20658,2.64317,6.65324,0.841748,0.528917,0.924594,0
2024-12-13 15:15:58.135,-1.34776,2.72213,6.60539,0.841748,0.528917,0.924594,0
2024-12-13 15:15:58.142,-1.5993,2.71256,6.58385,0.626118,0.454394,0.834799,0
2024-12-13 15:15:58.142,-1.65434,2.66471,6.58385,0.626118,0.454394,0.834799,0
2024-12-13 15:15:58.146,-1.85294,2.56182,6.72024,0.521664,0.388422,0.798148,0
2024-12-13 15:15:58.149,-1.93191,2.53071,6.83988,0.477072,0.355437,0.781655,0
2024-12-13 15:15:58.153,-2.00877,2.44188,7.15604,0.398272,0.294963,0.749281,0
2024-12-13 15:15:58.156,-2.01595,2.4012,7.29243,0.363989,0.265031,0.732788,0
2024-12-13 15:15:58.161,-2.00638,2.33898,7.76172,0.31451,0.205779,0.701024,0
2024-12-13 15:15:58.165,-1.95583,2.27438,8.14487,0.302904,0.180734,0.683309,0
2024-12-13 15:15:58.170,-1.80748,2.24566,8.61147,0.283968,0.109876,0.617948,0
2024-12-13 15:15:58.170,-1.72612,2.21934,8.61147,0.283968,0.109876,0.617948,0
2024-12-13 15:15:58.175,-1.61845,2.18106,9.02333,0.296795,0.0579541,0.567859,0
2024-12-13 15:15:58.179,-1.62084,2.14038,9.34666,0.302904,0.030466,0.544647,0
2024-12-13 15:15:58.182,-1.63759,2.1332,9.46391,0.337722,-0.0287862,0.495779,0
2024-12-13 15:15:58.186,-1.64955,2.10209,9.59552,0.357269,-0.049555,0.47501,0
2024-12-13 15:15:58.189,-1.68066,2.0997,9.62184,0.397662,-0.0953685,0.435305,0
2024-12-13 15:15:58.191,-1.68066,2.09013,9.62184,0.420874,-0.113694,0.41698,0
2024-12-13 15:15:58.198,-1.55145,2.0686,9.45434,0.485624,-0.161951,0.362614,0
2024-12-13 15:15:58.201,-1.55862,2.06381,9.34188,0.485624,-0.161951,0.362614,0
2024-12-13 15:15:58.203,-1.59212,2.08535,9.2028,0.522274,-0.190661,0.33085,0
2024-12-13 15:15:58.205,-1.59691,2.08056,9.04965,0.530826,-0.207154,0.314357,0
2024-12-13 15:15:58.212,-1.6328,2.11167,8.72902,0.546097,-0.258465,0.272209,0
2024-12-13 15:15:58.212,-1.6328,2.11406,8.55643,0.546097,-0.258465,0.272209,0
2024-12-13 15:15:58.217,-1.59691,2.15234,8.20708,0.538156,-0.287175,0.24411,0
2024-12-13 15:15:58.219,-1.55384,2.16909,8.02971,0.528994,-0.297559,0.230671,0
2024-12-13 15:15:58.222,-1.50598,2.17866,7.85504,0.528994,-0.297559,0.230671,0
2024-12-13 15:15:58.227,-1.38844,2.18584,7.53171,0.480126,-0.314663,0.192188,0
2024-12-13 15:15:58.231,-1.31665,2.21456,7.22064,0.436145,-0.318939,0.169586,0
2024-12-13 15:15:58.234,-1.29512,2.21216,7.07229,0.436145,-0.318939,0.169586,0
2024-12-13 15:15:58.238,-1.2664,2.18345,6.83031,0.361545,-0.304278,0.144542,0
2024-12-13 15:15:58.241,-1.23529,2.17627,6.71785,0.33589,-0.29817,0.137212,0
2024-12-13 15:15:58.245,-1.20658,2.15713,6.56949,0.277859,-0.28412,0.129805,0
2024-12-13 15:15:58.248,-1.17308,2.11406,6.51925,0.250982,-0.276179,0.128583,0
2024-12-13 15:15:58.252,-1.14915,2.07338,6.48096,0.19906,-0.263962,0.122475,0
2024-12-13 15:15:58.255,-1.10848,2.02552,6.47617,0.172183,-0.256632,0.120031,0
2024-12-13 15:15:58.259,-1.0678,2.01595,6.5671,0.128812,-0.240139,0.116977,0
2024-12-13 15:15:58.262,-1.04626,1.99681,6.61257,0.128812,-0.240139,0.116977,0
2024-12-13 15:15:58.267,-1.0008,1.98724,6.74656,0.0970484,-0.227922,0.113923,0
2024-12-13 15:15:58.271,-0.825823,1.95105,6.8662,0.0860531,-0.221814,0.107815,0
2024-12-13 15:15:58.274,-0.818644,1.96301,6.97388,0.0677277,-0.207764,0.107204,0
2024-12-13 15:15:58.278,-0.828216,1.95105,7.19432,0.0677277,-0.207764,0.107204,0
2024-12-13 15:15:58.281,-0.845265,1.91994,7.32593,0.0793338,-0.194326,0.107204,0
2024-12-13 15:15:58.283,-0.847657,1.89841,7.45753,0.0793338,-0.194326,0.107204,0
2024-12-13 15:15:58.288,-0.854836,1.89841,7.65643,0.133088,-0.18272,0.103539,0
2024-12-13 15:15:58.290,-0.852443,1.90558,7.72343,0.133088,-0.183941,0.100484,0
2024-12-13 15:15:58.295,-0.854836,1.91516,7.77847,0.182567,-0.185163,0.0998735,0
2024-12-13 15:15:58.297,-0.854836,1.91516,7.77129,0.182567,-0.185163,0.0998735,0
2024-12-13 15:15:58.304,-0.859622,1.99681,7.63011,0.333446,-0.199213,0.103539,0
2024-12-13 15:15:58.305,-0.859622,1.99681,7.63011,0.333446,-0.199213,0.103539,0
2024-12-13 15:15:58.309,-0.794716,2.08535,7.46471,0.395829,-0.21876,0.104149,0
2024-12-13 15:15:58.311,-0.785145,2.12363,7.34985,0.422095,-0.229755,0.107204,0
2024-12-13 15:15:58.316,-0.777966,2.19781,7.14646,0.467909,-0.260297,0.113923,0
2024-12-13 15:15:58.318,-0.797109,2.23849,7.00738,0.467909,-0.260297,0.113923,0
2024-12-13 15:15:58.323,-0.828216,2.32941,6.71067,0.52655,-0.293283,0.13347,0
2024-12-13 15:15:58.325,-0.830609,2.36531,6.56232,0.52655,-0.303667,0.142098,0
2024-12-13 15:15:58.330,-0.82343,2.4347,6.24616,0.555871,-0.324436,0.162867,0
2024-12-13 15:15:58.333,-0.804287,2.4658,6.09063,0.555871,-0.332377,0.170197,0
2024-12-13 15:15:58.337,-0.732503,2.51127,5.77209,0.551595,-0.349481,0.190355,0
2024-12-13 15:15:58.340,-0.691825,2.55942,5.6333,0.541211,-0.355589,0.199518,0
2024-12-13 15:15:58.344,-0.658325,2.63599,5.42991,0.516166,-0.366585,0.216011,0
2024-12-13 15:15:58.347,-0.655932,2.67189,5.35813,0.496619,-0.369639,0.224563,0
2024-12-13 15:15:58.351,-0.641576,2.74128,5.26929,0.458135,-0.373304,0.238612,0
2024-12-13 15:15:58.354,-0.615255,2.77717,5.2669,0.437367,-0.376358,0.242888,0
2024-12-13 15:15:58.358,-0.596112,2.83699,5.34138,0.395218,-0.375137,0.255105,0
2024-12-13 15:15:58.361,-0.598505,2.85374,5.41316,0.395218,-0.375137,0.256938,0
2024-12-13 15:15:58.365,-0.605683,2.88485,5.50409,0.354215,-0.362309,0.267933,0
2024-12-13 15:15:58.368,-0.617647,2.90878,5.5687,0.342609,-0.351314,0.267933,0
2024-12-13 15:15:58.373,-0.62004,2.93988,5.73141,0.291909,-0.302446,0.277706,0
2024-12-13 15:15:58.375,-0.651147,2.94945,5.82712,0.291909,-0.302446,0.277706,0
2024-12-13 15:15:58.380,-0.734896,2.96381,6.02363,0.263199,-0.242583,0.289313,0
2024-12-13 15:15:58.382,-0.734896,2.96142,6.14327,0.263199,-0.242583,0.289313,0
2024-12-13 15:15:58.387,-0.739681,3.04756,6.37298,0.229602,-0.185774,0.308249,0
2024-12-13 15:15:58.389,-0.691825,3.10289,6.4666,0.229602,-0.185774,0.308249,0
2024-12-13 15:15:58.394,-0.593719,3.23689,6.63649,0.205779,-0.123468,0.322909,0
2024-12-13 15:15:58.396,-0.569791,3.28235,6.73221,0.194784,-0.123468,0.324131,0
2024-12-13 15:15:58.401,-0.553041,3.36371,6.87578,0.168517,-0.0519984,0.331461,0
2024-12-13 15:15:58.403,-0.56022,3.38285,6.92363,0.168517,-0.0519984,0.331461,0
2024-12-13 15:15:58.408,-0.517149,3.44985,7.00977,0.14897,-0.00862822,0.335126,0
2024-12-13 15:15:58.410,-0.517149,3.49053,7.04836,0.137975,0.00481042,0.336959,0
2024-12-13 15:15:58.415,-0.517149,3.57906,7.11296,0.116595,0.0206925,0.334515,0
2024-12-13 15:15:58.420,-0.52672,3.62453,7.15364,0.102546,0.0237467,0.330239,0
2024-12-13 15:15:58.423,-0.514756,3.68226,7.17039,0.0567324,0.00603212,0.325353,0
2024-12-13 15:15:58.424,-0.536291,3.699,7.20628,0.0567324,0.00603212,0.325353,0
2024-12-13 15:15:58.429,-0.586541,3.74447,7.302,0.0316877,-0.0196235,0.321077,0
2024-12-13 15:15:58.434,-0.569791,3.75165,7.3666,0.0316877,-0.0196235,0.321077,0
2024-12-13 15:15:58.436,-0.533899,3.8019,7.5341,-0.00984991,-0.0807082,0.312525,0
2024-12-13 15:15:58.438,-0.505185,3.84736,7.60379,-0.00984991,-0.10331,0.308249,0
2024-12-13 15:15:58.443,-0.481256,3.93111,7.73779,-0.0446682,-0.144236,0.297864,0
2024-12-13 15:15:58.443,-0.481256,3.93111,7.73779,-0.0446682,-0.144236,0.297864,0
2024-12-13 15:15:58.450,-0.502792,4.01486,7.91964,-0.0709346,-0.192493,0.282593,0
2024-12-13 15:15:58.453,-0.502792,4.04118,7.97707,-0.0794865,-0.205932,0.277096,0
2024-12-13 15:15:58.457,-0.483649,4.06511,8.02493,-0.102699,-0.238918,0.267322,0
2024-12-13 15:15:58.460,-0.4669,4.0675,8.06561,-0.102699,-0.238918,0.267322,0
2024-12-13 15:15:58.464,-0.421436,4.03639,8.25494,-0.137517,-0.28412,0.25144,0
2024-12-13 15:15:58.467,-0.392722,4.01246,8.40569,-0.145458,-0.301835,0.242888,0
2024-12-13 15:15:58.471,-0.373579,4.00289,8.67847,-0.160729,-0.329323,0.225174,0
2024-12-13 15:15:58.474,-0.378365,4.01007,8.82952,-0.160729,-0.329323,0.225174,0
2024-12-13 15:15:58.479,-0.378365,4.00289,9.13819,-0.171114,-0.347648,0.207459,0
2024-12-13 15:15:58.481,-0.342473,4.0005,9.3012,-0.17539,-0.36292,0.190355,0
2024-12-13 15:15:58.486,-0.282652,3.97657,9.56202,-0.163173,-0.364141,0.173252,0
2024-12-13 15:15:58.488,-0.244068,3.97418,9.68166,-0.163173,-0.364141,0.173252,0
2024-12-13 15:15:58.494,-0.129212,3.99571,9.85185,-0.133852,-0.358644,0.139655,0
2024-12-13 15:15:58.495,-0.0646062,4.04118,9.91406,-0.133852,-0.358644,0.139655,0
2024-12-13 15:15:58.500,-0.0311067,4.08903,10.0098,-0.111861,-0.358033,0.119421,0
2024-12-13 15:15:58.502,-0.0143569,4.11296,10.0648,-0.111861,-0.358033,0.119421,0
2024-12-13 15:15:58.507,0.0,4.12493,10.1629,-0.0898709,-0.353757,0.105371,0
2024-12-13 15:15:58.509,0.0,4.11536,10.1988,-0.073378,-0.358033,0.0955976,0
2024-12-13 15:15:58.514,-0.0358923,4.15603,10.2491,-0.0581068,-0.360476,0.0894891,0
2024-12-13 15:15:58.516,-0.040678,4.19193,10.2347,-0.0581068,-0.360476,0.0894891,0
2024-12-13 15:15:58.521,-0.133998,4.24008,10.2467,-0.0403923,-0.345205,0.085824,0
2024-12-13 15:15:58.523,-0.157926,4.25683,10.2682,-0.029397,-0.323215,0.0870457,0
2024-12-13 15:15:58.528,-0.0574277,4.31905,10.2538,-0.0226777,-0.290229,0.0907108,0
2024-12-13 15:15:58.530,-0.0119641,4.35254,10.2443,-0.0220669,-0.267017,0.0894891,0
2024-12-13 15:15:58.535,0.00478565,4.39322,10.2036,-0.0202343,-0.221814,0.0888783,0
2024-12-13 15:15:58.537,0.0502493,4.41954,10.2036,-0.0202343,-0.203488,0.0901,0
2024-12-13 15:15:58.544,0.0646062,4.47697,10.1964,-0.0471116,-0.149734,0.0852132,0
2024-12-13 15:15:58.544,0.0550349,4.51286,10.2132,-0.0471116,-0.149734,0.0852132,0
2024-12-13 15:15:58.549,0.0358923,4.53679,10.1892,-0.0666587,-0.102699,0.0827698,0
2024-12-13 15:15:58.552,0.0239282,4.55354,10.1821,-0.0745997,-0.0782648,0.0827698,0
2024-12-13 15:15:58.556,0.00478565,4.60618,10.2012,-0.0941468,-0.021456,0.0791047,0
2024-12-13 15:15:58.559,-0.00957129,4.61336,10.2467,-0.102699,0.00542127,0.0760505,0
2024-12-13 15:15:58.563,-0.026321,4.62533,10.3328,-0.118581,0.0573433,0.069942,0
2024-12-13 15:15:58.566,-0.026321,4.6349,10.3953,-0.118581,0.0573433,0.069942,0
2024-12-13 15:15:58.570,-0.0454636,4.6684,10.515,-0.134463,0.11232,0.0558925,0
2024-12-13 15:15:58.573,-0.0311067,4.67797,10.5891,-0.134463,0.123926,0.0516166,0
2024-12-13 15:15:58.577,-0.0143569,4.74497,10.759,-0.140571,0.128812,0.0357346,0
2024-12-13 15:15:58.580,-0.00717847,4.75215,10.8523,-0.140571,0.122704,0.0265719,0
2024-12-13 15:15:58.585,-0.0382852,4.79791,11.0369,-0.132019,0.106822,0.00702474,0
2024-12-13 15:15:58.587,-0.0478565,4.8338,11.135,-0.125911,0.0988809,-0.000916271,0
2024-12-13 15:15:58.592,-0.0622134,4.8673,11.2762,-0.108807,0.0799446,-0.01802,0
2024-12-13 15:15:58.594,-0.0622134,4.89123,11.3551,-0.108807,0.0799446,-0.01802,0
2024-12-13 15:15:58.599,-0.0622134,4.91516,11.4126,-0.0764323,0.0622301,-0.0387888,0
2024-12-13 15:15:58.601,-0.0622134,4.90319,11.4437,-0.0764323,0.0622301,-0.0387888,0
2024-12-13 15:15:58.606,-0.0885344,4.93909,11.4987,-0.0428357,0.0133623,-0.0626118,0
2024-12-13 15:15:58.608,-0.112463,4.94866,11.5349,-0.0428357,0.0133623,-0.0626118,0
2024-12-13 15:15:58.613,-0.157926,5.05155,11.6665,-0.0220669,-0.0385597,-0.0754396,0
2024-12-13 15:15:58.615,-0.205783,5.1018,11.7311,-0.0116825,-0.0660479,-0.0876566,0
2024-12-13 15:15:58.620,-0.191426,5.19751,11.8986,0.0213033,-0.150345,-0.101095,0
2024-12-13 15:15:58.622,-0.165105,5.24058,11.9752,0.0213033,-0.150345,-0.101095,0
2024-12-13 15:15:58.626,-0.133998,5.30279,12.0565,0.0561216,-0.202267,-0.130416,0
2024-12-13 15:15:58.629,-0.0598206,5.37727,12.2052,0.0561216,-0.202267,-0.130416,0
2024-12-13 15:15:58.634,-0.0334995,5.42752,12.2794,0.0860531,-0.216316,-0.167678,0
2024-12-13 15:15:58.636,-0.0454636,5.54238,12.3918,0.0860531,-0.216316,-0.167678,0
2024-12-13 15:15:58.641,-0.0526421,5.6668,12.466,0.101324,-0.190661,-0.199442,0
2024-12-13 15:15:58.643,-0.0191426,5.72902,12.4995,0.101324,-0.190661,-0.199442,0
2024-12-13 15:15:58.648,0.0215354,5.84626,12.5474,0.0988809,-0.141793,-0.224486,0
2024-12-13 15:15:58.648,0.0215354,5.84626,12.5474,0.0988809,-0.141793,-0.224486,0
2024-12-13 15:15:58.655,0.0311067,5.98295,12.6144,0.0720036,-0.101477,-0.250753,0
2024-12-13 15:15:58.660,0.0382852,6.08106,12.7463,0.0720036,-0.101477,-0.250753,0
2024-12-13 15:15:58.660,0.0646062,6.12174,12.8037,0.0720036,-0.101477,-0.250753,0
2024-12-13 15:15:58.662,0.100499,6.16002,12.8659,0.046348,-0.0745997,-0.278241,0
2024-12-13 15:15:58.669,0.174676,6.22702,13.0837,-0.0104608,-0.0666587,-0.312448,0
2024-12-13 15:15:58.672,0.189033,6.24856,13.1578,-0.0104608,-0.0666587,-0.312448,0
2024-12-13 15:15:58.676,0.234497,6.23899,13.34,-0.0440574,-0.0745997,-0.348488,0
2024-12-13 15:15:58.679,0.234497,6.21027,13.4261,-0.0440574,-0.0745997,-0.348488,0
2024-12-13 15:15:58.683,0.299402,6.15284,13.5577,-0.0678804,-0.10331,-0.379642,0
2024-12-13 15:15:58.683,0.299402,6.15284,13.5577,-0.0678804,-0.10331,-0.379642,0
2024-12-13 15:15:58.691,0.538684,6.03081,13.7252,-0.0721563,-0.135684,-0.410184,0
2024-12-13 15:15:58.691,0.538684,6.03081,13.7252,-0.0721563,-0.135684,-0.410184,0
2024-12-13 15:15:58.700,0.756431,5.84148,13.8571,-0.073378,-0.179055,-0.453554,0
2024-12-13 15:15:58.702,0.756431,5.84148,13.8858,-0.073378,-0.179055,-0.453554,0
2024-12-13 15:15:58.709,0.864407,5.65962,13.9433,-0.0629936,-0.217538,-0.495703,1
2024-12-13 15:15:58.709,0.890728,5.59262,13.9433,-0.0629936,-0.217538,-0.495703,1
2024-12-13 15:15:58.714,0.890728,5.43709,13.9648,-0.0526092,-0.23342,-0.514639,0
2024-12-13 15:15:58.719,0.859622,5.30519,13.9576,-0.0501658,-0.240139,-0.521969,0
2024-12-13 15:15:58.721,0.821037,5.21187,13.9457,-0.0440574,-0.252356,-0.52991,0
2024-12-13 15:15:58.726,0.73011,5.0013,13.9289,-0.041614,-0.255411,-0.532964,0
2024-12-13 15:15:58.728,0.689432,4.86251,13.9122,-0.041614,-0.255411,-0.532964,0
2024-12-13 15:15:58.733,0.593719,4.59661,13.9074,-0.0355055,-0.242583,-0.533575,0
2024-12-13 15:15:58.735,0.52672,4.45783,13.9361,-0.0306187,-0.230366,-0.528077,0
2024-12-13 15:15:58.740,0.440578,4.19193,13.96,-0.0238994,-0.21204,-0.520136,0
2024-12-13 15:15:58.745,0.232104,3.92393,13.9816,-0.00862822,-0.173557,-0.492037,0
2024-12-13 15:15:58.745,0.133998,3.92393,13.9816,-0.00862822,-0.173557,-0.492037,0
2024-12-13 15:15:58.749,-0.0287139,3.59342,14.0486,0.00786466,-0.138128,-0.460273,0
2024-12-13 15:15:58.754,-0.153141,3.23689,14.1443,0.0274118,-0.0929251,-0.426066,0
2024-12-13 15:15:58.759,-0.270389,2.89442,14.2567,0.0597867,-0.041614,-0.391248,0
2024-12-13 15:15:58.761,-0.32333,2.73888,14.3121,0.0597867,-0.041614,-0.391248,0
2024-12-13 15:15:58.764,-0.35683,2.60728,14.3719,0.1056,0.0158057,-0.353375,0
2024-12-13 15:15:58.768,-0.397508,2.37009,14.4509,0.133699,0.0445155,-0.333217,0
2024-12-13 15:15:58.773,-0.462114,2.19063,14.4413,0.239376,0.137364,-0.273354,0
2024-12-13 15:15:58.773,-0.462114,2.19063,14.4413,0.239376,0.137364,-0.273354,0
2024-12-13 15:15:58.780,-0.4334,2.00399,14.2352,0.375671,0.218607,-0.21288,0
2024-12-13 15:15:58.782,-0.41665,1.98724,14.1012,0.426371,0.240597,-0.193333,0
2024-12-13 15:15:58.789,-0.373579,2.03988,13.4309,0.5913,0.279692,-0.139579,0
2024-12-13 15:15:58.789,-0.373579,2.03988,13.4309,0.5913,0.279692,-0.139579,0
2024-12-13 15:15:58.797,-0.270389,2.13081,12.3918,0.753175,0.271751,-0.0962084,0
2024-12-13 15:15:58.799,-0.234497,2.16909,12.0135,0.753175,0.271751,-0.0962084,0
2024-12-13 15:15:58.804,-0.160319,2.25763,11.2331,0.895502,0.210666,-0.0693312,0
2024-12-13 15:15:58.808,-0.102891,2.35573,10.4599,0.933375,0.177069,-0.0644444,0
2024-12-13 15:15:58.811,-0.0789631,2.41795,10.0983,1.00423,0.0952158,-0.0644444,0
2024-12-13 15:15:58.815,-0.0143569,2.59771,9.39213,1.00423,0.0420721,-0.0668878,0
2024-12-13 15:15:58.820,0.100499,2.77717,8.68325,1.10563,-0.136906,-0.0846023,0
2024-12-13 15:15:58.822,0.100499,2.77717,8.68325,1.10563,-0.136906,-0.0846023,0
2024-12-13 15:15:58.827,0.234497,2.98774,7.77608,1.14595,-0.343983,-0.120031,0
2024-12-13 15:15:58.829,0.246461,3.0667,7.49821,1.14595,-0.343983,-0.120031,0
2024-12-13 15:15:58.834,0.256032,3.16511,6.95474,1.15511,-0.562667,-0.159126,0
2024-12-13 15:15:58.837,0.265603,3.21536,6.71306,1.15511,-0.562667,-0.159126,0
2024-12-13 15:15:58.841,0.292223,3.268,6.22463,1.13007,-0.77402,-0.192722,0
2024-12-13 15:15:58.844,0.342473,3.29193,5.96381,1.13007,-0.77402,-0.200052,0
2024-12-13 15:15:58.848,0.392722,3.39242,5.53759,1.0586,-0.950555,-0.210437,0
2024-12-13 15:15:58.853,0.50997,3.44507,5.22144,1.0586,-0.999422,-0.21288,0
2024-12-13 15:15:58.858,0.670289,3.45224,5.07787,0.915049,-1.11793,-0.222654,0
2024-12-13 15:15:58.858,0.670289,3.45224,5.07787,0.915049,-1.11793,-0.222654,0
2024-12-13 15:15:58.865,0.885943,3.41157,5.0659,0.837472,-1.17412,-0.228762,0
2024-12-13 15:15:58.867,0.950549,3.37807,5.15444,0.75684,-1.22238,-0.229373,0
2024-12-13 15:15:58.872,1.05105,3.33021,5.42273,0.676208,-1.25842,-0.229984,0
2024-12-13 15:15:58.874,1.08215,3.31585,5.5663,0.636503,-1.2682,-0.229373,0
2024-12-13 15:15:58.881,1.2329,3.29432,5.89203,0.543043,-1.25292,-0.228762,0
2024-12-13 15:15:58.884,1.36929,3.22014,6.2342,0.543043,-1.25292,-0.228762,0
2024-12-13 15:15:58.888,1.32144,3.16511,6.4666,0.477072,-1.20406,-0.229984,0
2024-12-13 15:15:58.891,1.27358,3.134,6.61496,0.46119,-1.18023,-0.230595,0
2024-12-13 15:15:58.898,1.24008,3.09571,6.92842,0.431869,-1.12526,-0.226319,0
2024-12-13 15:15:58.901,1.28794,3.01645,6.96431,0.412933,-1.06051,-0.223265,0
2024-12-13 15:15:58.907,1.34058,2.95185,6.95474,0.388499,-0.943835,-0.209215,0
2024-12-13 15:15:58.910,1.37408,2.8681,6.86381,0.388499,-0.943835,-0.209215,0
2024-12-13 15:15:58.914,1.35733,2.84656,6.71546,0.368952,-0.861371,-0.189668,0
2024-12-13 15:15:58.917,1.33819,2.80828,6.64367,0.340776,-0.780739,-0.178062,0
2024-12-13 15:15:58.924,1.31904,2.7006,6.43759,0.29313,-0.6659,-0.137746,0
2024-12-13 15:15:58.924,1.31904,2.7006,6.43759,0.29313,-0.6659,-0.137746,0
2024-12-13 15:15:58.931,1.29751,2.67428,6.29641,0.258312,-0.562056,-0.0876566,0
2024-12-13 15:15:58.933,1.28315,2.64317,6.26291,0.226548,-0.522962,-0.0681095,0
2024-12-13 15:15:58.940,1.17308,2.56182,6.18395,0.180734,-0.394684,-0.000305424,0
2024-12-13 15:15:58.943,1.18265,2.55464,6.18634,0.180734,-0.394684,-0.000305424,0
2024-12-13 15:15:58.950,1.1683,2.52323,6.17677,0.142862,-0.221814,0.0901,0
2024-12-13 15:15:58.952,1.1683,2.52323,6.20309,0.142862,-0.221814,0.0901,0
2024-12-13 15:15:58.959,1.11805,2.5017,6.30838,0.125758,-0.0807082,0.170197,0
2024-12-13 15:15:58.961,1.1013,2.51127,6.33231,0.125758,-0.0807082,0.170197,0
2024-12-13 15:15:58.966,1.0654,2.50409,6.34906,0.130645,-0.0165692,0.200129,0
2024-12-13 15:15:58.968,0.998405,2.5017,6.33948,0.136143,0.0475697,0.223952,0
2024-12-13 15:15:58.976,0.957727,2.50648,6.19113,0.159355,0.115985,0.244721,0
2024-12-13 15:15:58.978,0.964906,2.49452,6.13131,0.17035,0.147749,0.252662,0
2024-12-13 15:15:58.983,0.950549,2.5017,5.96142,0.192951,0.236932,0.262435,0
2024-12-13 15:15:58.985,0.929013,2.52592,5.87498,0.197227,0.262588,0.266711,0
2024-12-13 15:15:58.994,0.797109,2.58574,5.60937,0.214942,0.346885,0.274041,0
2024-12-13 15:15:58.994,0.727717,2.60249,5.50888,0.214942,0.346885,0.274041,0
2024-12-13 15:15:59.001,0.608076,2.67189,5.20469,0.208223,0.385979,0.286869,0
2024-12-13 15:15:59.004,0.60329,2.67189,5.11855,0.208223,0.385979,0.286869,0
2024-12-13 15:15:59.009,0.588933,2.71496,4.94626,0.188065,0.413467,0.293588,0
2024-12-13 15:15:59.013,0.562612,2.77956,4.78116,0.178902,0.423241,0.294199,0
2024-12-13 15:15:59.018,0.524327,2.85135,4.62054,0.145305,0.449507,0.286258,0
2024-12-13 15:15:59.020,0.498006,2.89442,4.55354,0.145305,0.449507,0.286258,0
2024-12-13 15:15:59.025,0.421436,2.97338,4.42911,0.0994917,0.469054,0.27343,0
2024-12-13 15:15:59.030,0.385544,3.05952,4.35972,0.0842206,0.476385,0.268544,0
2024-12-13 15:15:59.034,0.375972,3.12682,4.35015,0.0487914,0.476385,0.256327,0
2024-12-13 15:15:59.037,0.378365,3.17228,4.37408,0.0115297,0.470276,0.241056,0
2024-12-13 15:15:59.041,0.35683,3.31346,4.38365,-0.0263428,0.461724,0.222119,0
2024-12-13 15:15:59.044,0.328116,3.37567,4.41715,-0.0465007,0.454394,0.211124,0
2024-12-13 15:15:59.051,0.299402,3.49292,4.58704,-0.10331,0.42263,0.175695,0
2024-12-13 15:15:59.053,0.30658,3.53599,4.65883,-0.10331,0.42263,0.175695,0
2024-12-13 15:15:59.058,0.253639,3.6341,4.84337,-0.15401,0.383536,0.137822,0
2024-12-13 15:15:59.066,0.239282,3.81625,5.07548,-0.201656,0.357269,0.0901,0
2024-12-13 15:15:59.067,0.189033,3.84497,5.14726,-0.201656,0.357269,0.0901,0
2024-12-13 15:15:59.070,0.16989,3.86411,5.2023,-0.210819,0.354215,0.0791047,0
2024-12-13 15:15:59.077,0.155533,3.93589,5.33181,-0.24075,0.357269,0.0510057,0
2024-12-13 15:15:59.079,0.0741775,4.0005,5.47538,-0.24075,0.357269,0.0510057,0
2024-12-13 15:15:59.084,0.0526421,4.11775,5.65484,-0.256632,0.367654,0.0320695,0
2024-12-13 15:15:59.089,0.0693919,4.22333,5.81516,-0.26946,0.366432,0.0284044,0
2024-12-13 15:15:59.093,0.167498,4.3669,5.99731,-0.282899,0.345052,0.0155766,0
2024-12-13 15:15:59.093,0.167498,4.3669,5.99731,-0.282899,0.345052,0.0155766,0
2024-12-13 15:15:59.103,0.320937,4.72343,6.36341,-0.301224,0.259534,-0.0186308,0
2024-12-13 15:15:59.103,0.320937,4.72343,6.36341,-0.301224,0.259534,-0.0186308,0
2024-12-13 15:15:59.107,0.352044,4.87448,6.48814,-0.301224,0.259534,-0.0186308,0
2024-12-13 15:15:59.112,0.419043,5.00848,6.62453,-0.302446,0.175237,-0.0430647,0
2024-12-13 15:15:59.119,0.498006,5.18076,6.87338,-0.311608,0.0292443,-0.0760505,0
2024-12-13 15:15:59.122,0.545863,5.2358,6.94995,-0.311608,0.0292443,-0.0760505,0
2024-12-13 15:15:59.126,0.579362,5.28365,7.09861,-0.324436,-0.081319,-0.098041,0
2024-12-13 15:15:59.126,0.593719,5.33899,7.09861,-0.324436,-0.081319,-0.098041,0
2024-12-13 15:15:59.133,0.641576,5.41077,7.24218,-0.335431,-0.153399,-0.113312,0
2024-12-13 15:15:59.138,0.699003,5.40598,7.34268,-0.340318,-0.171724,-0.115756,0
2024-12-13 15:15:59.143,0.710967,5.40598,7.39532,-0.36292,-0.210819,-0.12614,0
2024-12-13 15:15:59.143,0.720539,5.4012,7.45035,-0.36292,-0.210819,-0.12614,0
2024-12-13 15:15:59.147,0.766002,5.38206,7.56521,-0.36292,-0.210819,-0.12614,0
2024-12-13 15:15:59.152,0.799502,5.35095,7.69472,-0.39957,-0.242583,-0.126751,0
2024-12-13 15:15:59.157,0.845265,5.29083,7.84786,-0.439276,-0.24808,-0.119421,0
2024-12-13 15:15:59.159,0.88355,5.26212,7.92682,-0.483257,-0.245026,-0.119421,0
2024-12-13 15:15:59.164,0.921835,5.21905,8.15683,-0.52907,-0.23342,-0.115756,0
2024-12-13 15:15:59.169,0.948156,5.16162,8.46311,-0.55778,-0.223036,-0.112701,0
2024-12-13 15:15:59.173,1.04626,5.09223,8.8008,-0.629249,-0.174168,-0.11148,0
2024-12-13 15:15:59.176,1.08694,5.07069,8.98505,-0.629249,-0.174168,-0.11148,0
2024-12-13 15:15:59.180,1.11087,5.02283,9.38256,-0.670787,-0.111861,-0.11148,0
2024-12-13 15:15:59.183,1.1348,4.99891,9.59313,-0.708659,-0.0874275,-0.11209,0
2024-12-13 15:15:59.188,1.13958,4.95823,10.0289,-0.727595,-0.0379489,-0.114534,0
2024-12-13 15:15:59.190,1.14676,4.93909,10.2515,-0.731871,-0.013515,-0.116366,0
2024-12-13 15:15:59.195,1.17069,4.92473,10.6992,-0.736758,0.030466,-0.11881,0
2024-12-13 15:15:59.199,1.19462,4.91994,11.1206,-0.731871,0.0487914,-0.119421,0
2024-12-13 15:15:59.202,1.28794,4.96062,11.3312,-0.731871,0.0487914,-0.119421,0
2024-12-13 15:15:59.204,1.31904,4.98455,11.5205,-0.693388,0.0952158,-0.127362,0
2024-12-13 15:15:59.209,1.30469,5.06112,11.8149,-0.647574,0.117817,-0.136524,0
2024-12-13 15:15:59.213,1.30947,5.13769,12.0302,-0.620086,0.128812,-0.1408,0
2024-12-13 15:15:59.218,1.27597,5.21665,12.1573,-0.529681,0.149581,-0.152406,0
2024-12-13 15:15:59.220,1.27597,5.21665,12.1741,-0.529681,0.149581,-0.152406,0
2024-12-13 15:15:59.225,1.27358,5.40838,12.1573,-0.43561,0.156301,-0.161569,0
2024-12-13 15:15:59.228,1.20897,5.4993,12.1119,-0.43561,0.156301,-0.161569,0
2024-12-13 15:15:59.232,1.14915,5.67398,11.9465,-0.359255,0.149581,-0.163402,0
2024-12-13 15:15:59.235,1.11087,5.7673,11.8579,-0.359255,0.149581,-0.163402,0
2024-12-13 15:15:59.239,1.07019,5.9351,11.7096,-0.3055,0.116595,-0.157293,0
2024-12-13 15:15:59.242,1.07019,5.9351,11.7096,-0.3055,0.116595,-0.157293,0
2024-12-13 15:15:59.246,1.08455,6.09302,11.5923,-0.282288,0.0652843,-0.143244,0
2024-12-13 15:15:59.249,1.07258,6.1337,11.5947,-0.282288,0.0652843,-0.143244,0
2024-12-13 15:15:59.251,1.06062,6.18874,11.6019,-0.282288,0.0652843,-0.143244,0
2024-12-13 15:15:59.258,1.04626,6.32034,11.7359,-0.276179,0.00481042,-0.116977,0
2024-12-13 15:15:59.261,1.02712,6.36341,11.8149,-0.275568,0.000534491,-0.110869,0
2024-12-13 15:15:59.263,1.02951,6.39213,11.9058,-0.275568,0.000534491,-0.110869,0
2024-12-13 15:15:59.268,1.04148,6.4352,12.0903,-0.266406,-0.00679568,-0.0968193,0
2024-12-13 15:15:59.268,1.04148,6.4352,12.0903,-0.266406,-0.00679568,-0.0968193,0
2024-12-13 15:15:59.275,1.11326,6.49292,12.2985,-0.249913,0.00236703,-0.0864349,0
2024-12-13 15:15:59.277,1.12522,6.52403,12.4062,-0.249913,0.00236703,-0.0864349,0
2024-12-13 15:15:59.282,1.13001,6.58146,12.6314,-0.220592,0.0329094,-0.0815481,0
2024-12-13 15:15:59.284,1.13958,6.58146,12.696,-0.220592,0.0329094,-0.0815481,0
2024-12-13 15:15:59.289,1.18026,6.64606,12.8037,-0.185774,0.0732253,-0.0760505,0
2024-12-13 15:15:59.291,1.1994,6.66042,12.8372,-0.185774,0.0732253,-0.0760505,0
2024-12-13 15:15:59.296,1.18983,6.73221,12.9664,-0.152177,0.106211,-0.0687203,0
2024-12-13 15:15:59.298,1.18983,6.73221,13.0262,-0.152177,0.106211,-0.0687203,0
2024-12-13 15:15:59.301,1.17787,6.74896,13.0884,-0.129576,0.116595,-0.0644444,0
2024-12-13 15:15:59.303,1.1994,6.74178,13.1507,-0.121635,0.117817,-0.0607793,0
2024-12-13 15:15:59.310,1.24247,6.74656,13.3639,-0.0880384,0.107433,-0.0577251,0
2024-12-13 15:15:59.310,1.24487,6.74178,13.3639,-0.0880384,0.107433,-0.0577251,0
2024-12-13 15:15:59.315,1.24008,6.75374,13.4955,-0.0593285,0.103157,-0.0546708,0
2024-12-13 15:15:59.317,1.22094,6.74896,13.5721,-0.0593285,0.103157,-0.0546708,1
2024-12-13 15:15:59.324,1.14197,6.68914,13.663,0.0164165,0.111098,-0.0485624,0
2024-12-13 15:15:59.329,0.998405,6.59582,13.7348,0.0164165,0.111098,-0.0485624,0
2024-12-13 15:15:59.331,0.998405,6.59582,13.7348,0.0848314,0.134921,-0.0308478,0
2024-12-13 15:15:59.331,0.967299,6.57907,13.742,0.0848314,0.134921,-0.0308478,0
2024-12-13 15:15:59.341,0.845265,6.54796,13.6271,0.180124,0.207612,0.00824644,0
2024-12-13 15:15:59.343,0.809073,6.56471,13.5649,0.203947,0.231435,0.0186308,0
2024-12-13 15:15:59.350,0.739681,6.61974,13.2227,0.246706,0.283357,0.0400105,0
2024-12-13 15:15:59.352,0.663111,6.62692,13.1028,0.267475,0.33589,0.062001,0
2024-12-13 15:15:59.362,0.454935,6.69392,12.6362,0.303515,0.391477,0.082159,0
2024-12-13 15:15:59.367,0.308973,6.76092,12.3942,0.322451,0.483104,0.110258,0
2024-12-13 15:15:59.369,0.232104,6.78724,12.2698,0.322451,0.483104,0.110258,0
2024-12-13 15:15:59.374,0.16989,6.84706,11.9943,0.316953,0.568622,0.137212,0
2024-12-13 15:15:59.374,0.11007,6.84706,11.9943,0.316953,0.568622,0.137212,0
2024-12-13 15:15:59.383,-0.267996,6.87578,11.6402,0.30046,0.606495,0.153704,0
2024-12-13 15:15:59.385,-0.325723,6.83988,11.578,0.247928,0.623599,0.183025,0
2024-12-13 15:15:59.385,-0.325723,6.83988,11.578,0.247928,0.623599,0.183025,0
2024-12-13 15:15:59.395,-0.464507,6.60778,11.5011,0.18501,0.530139,0.20807,0
2024-12-13 15:15:59.395,-0.498006,6.46421,11.5373,0.18501,0.530139,0.20807,0
2024-12-13 15:15:59.396,-0.498006,6.46421,11.5373,0.18501,0.530139,0.20807,0
2024-12-13 15:15:59.397,-0.545863,6.28924,11.5851,0.18501,0.530139,0.20807,0
2024-12-13 15:15:59.409,-0.699003,5.15683,12.3344,0.14836,0.18501,0.243499,0
2024-12-13 15:15:59.414,-0.725324,4.69233,12.7439,0.149581,0.110487,0.25144,0
2024-12-13 15:15:59.416,-0.737288,4.45304,12.9353,0.1844,-0.0422248,0.270987,0
2024-12-13 15:15:59.421,-0.744467,4.21137,13.1124,0.233878,-0.180276,0.292367,0
2024-12-13 15:15:59.423,-0.727717,3.77797,13.5194,0.268086,-0.238307,0.303362,0
2024-12-13 15:15:59.425,-0.632004,3.57906,13.675,0.268086,-0.238307,0.303362,0
2024-12-13 15:15:59.430,-0.4669,3.268,13.8906,0.398272,-0.364141,0.340013,0
2024-12-13 15:15:59.432,-0.404686,3.10529,13.9385,0.398272,-0.364141,0.348565,0
2024-12-13 15:15:59.435,-0.328116,2.95902,13.9385,0.398272,-0.364141,0.348565,0
2024-12-13 15:15:59.440,-0.174676,2.71017,13.7949,0.619399,-0.386132,0.382161,0
2024-12-13 15:15:59.444,-0.0143569,2.5017,13.4836,0.736071,-0.334821,0.404152,0
2024-12-13 15:15:59.449,0.150748,2.45863,13.0358,0.791047,-0.29817,0.413925,0
2024-12-13 15:15:59.451,0.248854,2.45863,12.7463,0.893059,-0.20471,0.435916,0
2024-12-13 15:15:59.451,0.248854,2.45863,12.7463,0.893059,-0.20471,0.435916,0
2024-12-13 15:15:59.451,0.248854,2.45863,12.7463,0.893059,-0.20471,0.435916,0
2024-12-13 15:15:59.451,0.248854,2.45863,12.7463,0.893059,-0.20471,0.435916,0
2024-12-13 15:15:59.465,0.407079,2.73171,10.3881,1.09769,0.130645,0.480508,0
2024-12-13 15:15:59.470,0.294616,2.85853,9.48066,1.10808,0.178291,0.486005,0
2024-12-13 15:15:59.477,0.157926,2.95663,8.21905,1.07509,0.320008,0.50372,0
2024-12-13 15:15:59.477,0.112463,3.03081,8.21905,1.07509,0.320008,0.50372,0
2024-12-13 15:15:59.484,-0.0239282,3.19143,7.20389,0.977356,0.357269,0.507996,0
2024-12-13 15:15:59.487,-0.0430708,3.23689,6.9356,0.977356,0.357269,0.507996,0
2024-12-13 15:15:59.491,-0.0646062,3.34457,6.536,0.841748,0.361545,0.493336,0
2024-12-13 15:15:59.496,-0.0622134,3.38285,6.32034,0.790436,0.358491,0.486616,0
2024-12-13 15:15:59.498,-0.0789631,3.47139,6.23181,0.790436,0.358491,0.486616,0
2024-12-13 15:15:59.503,-0.117248,3.48335,6.17438,0.637114,0.342609,0.451187,0
2024-12-13 15:15:59.508,-0.277567,3.47617,6.17677,0.486234,0.320618,0.413315,0
2024-12-13 15:15:59.510,-0.342473,3.45464,6.21267,0.441643,0.311456,0.398043,0
2024-12-13 15:15:59.517,-0.428614,3.34696,6.34427,0.308401,0.288244,0.360171,0
2024-12-13 15:15:59.517,-0.474078,3.30389,6.44477,0.308401,0.288244,0.360171,0
2024-12-13 15:15:59.524,-0.52672,3.14596,6.74656,0.201503,0.276027,0.326574,0
2024-12-13 15:15:59.524,-0.52672,3.14596,6.74656,0.201503,0.276027,0.326574,0
2024-12-13 15:15:59.529,-0.555434,3.03559,6.9332,0.146527,0.273583,0.30214,0
2024-12-13 15:15:59.531,-0.576969,2.9686,7.02922,0.122704,0.275416,0.290534,0
2024-12-13 15:15:59.538,-0.541077,2.89442,7.302,0.0652843,0.282135,0.255105,0
2024-12-13 15:15:59.541,-0.464507,2.81306,7.40728,0.0652843,0.282135,0.255105,0
2024-12-13 15:15:59.546,-0.359223,2.75563,7.59901,0.0365745,0.284578,0.232504,0
2024-12-13 15:15:59.548,-0.313759,2.74367,7.70668,0.0268009,0.283968,0.208681,0
2024-12-13 15:15:59.553,-0.241675,2.71017,7.86461,0.0133623,0.277859,0.195242,0
2024-12-13 15:15:59.555,-0.205783,2.70778,7.93879,0.0121406,0.273583,0.177527,0
2024-12-13 15:15:59.560,-0.129212,2.72213,7.99382,0.0139731,0.25709,0.159813,0
2024-12-13 15:15:59.562,-0.0837488,2.71974,7.98904,0.0176382,0.250371,0.152483,0
2024-12-13 15:15:59.567,-0.00717847,2.75563,7.95075,0.0219141,0.24243,0.13599,0
2024-12-13 15:15:59.569,0.0287139,2.75324,7.9005,0.0268009,0.238154,0.129194,0
2024-12-13 15:15:59.576,0.0646062,2.75324,7.81915,0.0402396,0.22777,0.108425,0
2024-12-13 15:15:59.579,0.0861416,2.76281,7.66361,0.0402396,0.22777,0.108425,0
2024-12-13 15:15:59.583,0.0693919,2.82024,7.45035,0.0475697,0.22044,0.0919325,0
2024-12-13 15:15:59.586,0.066999,2.85135,7.34507,0.0475697,0.218607,0.0852132,0
2024-12-13 15:15:59.590,0.066999,2.88006,7.12493,0.0536782,0.214942,0.0742179,0
2024-12-13 15:15:59.593,0.0789631,2.89681,6.99302,0.0555107,0.21372,0.0601685,0
2024-12-13 15:15:59.597,0.0981057,2.91835,6.73699,0.050624,0.204557,0.046119,0
2024-12-13 15:15:59.597,0.114855,2.92792,6.73699,0.050624,0.204557,0.046119,0
2024-12-13 15:15:59.604,0.129212,2.97817,6.37298,0.0451263,0.18501,0.025961,0
2024-12-13 15:15:59.607,0.145962,2.99252,6.25574,0.0402396,0.175848,0.0204634,0
2024-12-13 15:15:59.611,0.179462,3.04038,6.07627,0.0316877,0.158744,0.00824644,0
2024-12-13 15:15:59.614,0.18664,3.03559,5.99492,0.0268009,0.147138,0.0051922,0
2024-12-13 15:15:59.621,0.215354,3.02363,5.75055,0.00603212,0.117206,-0.000916271,0
2024-12-13 15:15:59.621,0.215354,3.02363,5.75055,0.00603212,0.117206,-0.000916271,0
2024-12-13 15:15:59.626,0.234497,3.01645,5.6357,0.00603212,0.117206,-0.000916271,0
2024-12-13 15:15:59.628,0.229711,3.00927,5.61416,-0.0153475,0.0878856,0.00274881,0
2024-12-13 15:15:59.635,0.232104,2.99252,5.60698,-0.0312296,0.0671168,0.0125224,0
2024-12-13 15:15:59.637,0.236889,2.98056,5.61895,-0.0312296,0.0671168,0.0125224,0
2024-12-13 15:15:59.642,0.258425,2.98056,5.61655,-0.0330621,0.0683385,0.0265719,0
2024-12-13 15:15:59.644,0.260818,2.96381,5.64527,-0.0330621,0.0683385,0.0265719,0
2024-12-13 15:15:59.652,0.301795,2.97577,5.70748,-0.0190126,0.0952158,0.046119,0
2024-12-13 15:15:59.652,0.313759,2.97577,5.70748,-0.0190126,0.0952158,0.046119,0
2024-12-13 15:15:59.656,0.320937,2.94706,5.72184,-0.00251974,0.115374,0.05406,0
2024-12-13 15:15:59.659,0.32333,2.94467,5.70987,-0.00251974,0.115374,0.05406,0
2024-12-13 15:15:59.663,0.294616,2.90878,5.67398,0.0139731,0.139197,0.0668878,0
2024-12-13 15:15:59.668,0.304188,2.90399,5.63091,0.0292443,0.147749,0.069942,0
2024-12-13 15:15:59.673,0.383151,2.92552,5.50888,0.0402396,0.166074,0.0852132,0
2024-12-13 15:15:59.675,0.385544,2.91356,5.43948,0.0402396,0.166074,0.0852132,0
2024-12-13 15:15:59.680,0.361615,2.9662,5.33659,0.0439046,0.179513,0.0949868,0
2024-12-13 15:15:59.682,0.332901,2.98295,5.25254,0.0457372,0.195395,0.0998735,0
2024-12-13 15:15:59.687,0.289831,2.9997,5.1329,0.0408504,0.211888,0.105982,0
2024-12-13 15:15:59.692,0.272782,3.04038,5.02762,0.0408504,0.219218,0.105982,0
2024-12-13 15:15:59.694,0.263211,3.06192,4.97258,0.0268009,0.226548,0.107815,0
2024-12-13 15:15:59.696,0.253639,3.08345,4.91755,0.0268009,0.226548,0.105982,0
2024-12-13 15:15:59.701,0.229711,3.13639,4.86251,-0.00313059,0.228991,0.104149,0
2024-12-13 15:15:59.703,0.210568,3.16271,4.86251,-0.00313059,0.228991,0.104149,0
2024-12-13 15:15:59.710,0.12682,3.17946,4.96301,-0.0587177,0.201503,0.0943759,0
2024-12-13 15:15:59.713,0.102891,3.18903,5.01805,-0.0587177,0.201503,0.0943759,0
2024-12-13 15:15:59.717,0.081356,3.22014,5.15683,-0.0953685,0.181956,0.0839915,0
2024-12-13 15:15:59.720,0.0909273,3.25843,5.2358,-0.0953685,0.181956,0.0839915,0
2024-12-13 15:15:59.725,0.0933201,3.34218,5.40359,-0.1253,0.17768,0.0723854,0
2024-12-13 15:15:59.727,0.0909273,3.3685,5.4347,-0.1253,0.17768,0.0723854,0
2024-12-13 15:15:59.732,0.0885344,3.43071,5.50409,-0.155842,0.181956,0.0558925,0
2024-12-13 15:15:59.734,0.066999,3.44985,5.53998,-0.155842,0.181956,0.0558925,0
2024-12-13 15:15:59.739,0.0287139,3.51685,5.60459,-0.182109,0.1844,0.0393996,0
2024-12-13 15:15:59.741,-0.00957129,3.54317,5.64287,-0.193104,0.183178,0.0320695,0
2024-12-13 15:15:59.748,-0.0598206,3.72533,5.68834,-0.224257,0.166074,0.0119115,0
2024-12-13 15:15:59.750,-0.0598206,3.77797,5.69791,-0.224257,0.166074,0.0119115,0
2024-12-13 15:15:59.753,-0.0693919,3.82822,5.71944,-0.243194,0.157522,-0.00335966,0
2024-12-13 15:15:59.755,-0.0646062,3.87607,5.75055,-0.252967,0.153246,-0.0125224,0
2024-12-13 15:15:59.762,-0.0526421,4.01486,5.88455,-0.286564,0.14164,-0.0424539,0
2024-12-13 15:15:59.765,-0.0717847,4.05075,5.97578,-0.286564,0.14164,-0.0424539,0
2024-12-13 15:15:59.769,-0.129212,4.14407,6.12174,-0.32016,0.131867,-0.0723854,0
2024-12-13 15:15:59.772,-0.162712,4.19671,6.17438,-0.332377,0.134921,-0.0809373,0
2024-12-13 15:15:59.776,-0.16989,4.28794,6.30359,-0.353757,0.14164,-0.0968193,0
2024-12-13 15:15:59.783,-0.141177,4.40997,6.45942,-0.378802,0.150803,-0.113312,0
2024-12-13 15:15:59.788,-0.112463,4.50808,6.5671,-0.422172,0.159966,-0.135303,0
2024-12-13 15:15:59.790,-0.100499,4.54636,6.60778,-0.422172,0.159966,-0.135303,0
2024-12-13 15:15:59.795,-0.11007,4.60618,6.71067,-0.454547,0.161187,-0.152406,0
2024-12-13 15:15:59.798,-0.150748,4.64208,6.75374,-0.472261,0.162409,-0.170121,0
2024-12-13 15:15:59.805,-0.217747,4.68036,6.94995,-0.541898,0.152025,-0.193333,0
2024-12-13 15:15:59.807,-0.217747,4.68993,7.02443,-0.541898,0.152025,-0.193333,0
2024-12-13 15:15:59.812,-0.270389,4.67079,7.23021,-0.573662,0.142251,-0.209215,0
2024-12-13 15:15:59.814,-0.292223,4.66122,7.34746,-0.599928,0.129423,-0.217767,0
2024-12-13 15:15:59.819,-0.328116,4.60858,7.63251,-0.621919,0.114763,-0.224486,0
2024-12-13 15:15:59.823,-0.32333,4.57268,8.00818,-0.627416,0.107433,-0.228151,0
2024-12-13 15:15:59.826,-0.361615,4.51765,8.20948,-0.625584,0.0891073,-0.233038,0
2024-12-13 15:15:59.831,-0.4334,4.52243,8.64736,-0.621308,0.0775012,-0.232427,0
2024-12-13 15:15:59.835,-0.457328,4.51765,9.02573,-0.598707,0.0640626,-0.222043,0
2024-12-13 15:15:59.838,-0.431007,4.5344,9.19801,-0.564499,0.0487914,-0.215935,0
2024-12-13 15:15:59.842,-0.349651,4.58704,9.52373,-0.523572,0.0365745,-0.204939,0
2024-12-13 15:15:59.845,-0.30658,4.61576,9.66012,-0.497917,0.0335202,-0.201274,0
2024-12-13 15:15:59.847,-0.270389,4.64208,9.75823,-0.473483,0.0298552,-0.196387,0
2024-12-13 15:15:59.852,-0.177069,4.74497,9.89971,-0.473483,0.0261901,-0.195166,0
2024-12-13 15:15:59.856,-0.165105,4.82184,9.95235,-0.359255,0.0249684,-0.191501,0
2024-12-13 15:15:59.861,-0.184247,4.88644,9.89731,-0.332988,0.0261901,-0.189668,0
2024-12-13 15:15:59.864,-0.267996,4.97976,9.84467,-0.281066,0.0347419,-0.187225,0
2024-12-13 15:15:59.866,-0.287438,5.04198,9.75584,-0.256632,0.0457372,-0.18356,0
2024-12-13 15:15:59.871,-0.27996,5.15205,9.54766,-0.219371,0.0603975,-0.181727,0
2024-12-13 15:15:59.873,-0.267996,5.20708,9.41845,-0.203488,0.0671168,-0.179284,0
2024-12-13 15:15:59.880,-0.292223,5.39163,9.04487,-0.185774,0.0750579,-0.176229,0
2024-12-13 15:15:59.880,-0.32333,5.39163,9.04487,-0.185774,0.0750579,-0.176229,0
2024-12-13 15:15:59.885,-0.385544,5.48495,8.85823,-0.192493,0.0775012,-0.172564,0
2024-12-13 15:15:59.889,-0.442971,5.60937,8.75055,-0.192493,0.0762796,-0.168288,0
2024-12-13 15:15:59.894,-0.454935,5.70509,8.74577,-0.236474,0.0591758,-0.165234,0
2024-12-13 15:15:59.896,-0.454935,5.7338,8.74577,-0.252356,0.0518457,-0.165234,0
2024-12-13 15:15:59.901,-0.454935,5.7338,8.74577,-0.252356,0.0518457,-0.165234,0
2024-12-13 15:15:59.904,-0.474078,5.75055,8.85344,-0.292061,0.0377962,-0.170121,0
2024-12-13 15:15:59.911,-0.519542,5.60937,9.23869,-0.376358,-0.000687203,-0.179895,0
2024-12-13 15:15:59.913,-0.545863,5.58066,9.47109,-0.376358,-0.000687203,-0.179895,0
2024-12-13 15:15:59.918,-0.579362,5.51845,9.97867,-0.423394,-0.0342838,-0.189668,0
2024-12-13 15:15:59.920,-0.565005,5.50409,10.2084,-0.423394,-0.0342838,-0.189668,0
2024-12-13 15:15:59.925,-0.574577,5.44427,10.7662,-0.433778,-0.0513875,-0.207993,0
2024-12-13 15:15:59.927,-0.600898,5.40838,11.0465,-0.425226,-0.0483333,-0.211659,0
2024-12-13 15:15:59.932,-0.617647,5.3342,11.566,-0.425226,-0.0483333,-0.211659,0
2024-12-13 15:15:59.934,-0.60329,5.32433,11.7933,-0.375137,-0.041614,-0.228762,0
2024-12-13 15:15:59.939,-0.56022,5.30279,12.1813,-0.315274,-0.0281753,-0.238536,0
2024-12-13 15:15:59.939,-0.56022,5.30279,12.1813,-0.315274,-0.0281753,-0.238536,0
2024-12-13 15:15:59.948,-0.54347,5.3677,12.5737,-0.163783,0.0164165,-0.253807,0
2024-12-13 15:15:59.951,-0.514756,5.38445,12.629,-0.163783,0.0164165,-0.253807,0
2024-12-13 15:15:59.955,-0.419043,5.42273,12.6434,-0.0330621,0.0286335,-0.263581,0
2024-12-13 15:15:59.958,-0.409472,5.47298,12.629,0.00786466,0.0298552,-0.267857,0
2024-12-13 15:15:59.962,-0.478864,5.61416,12.5258,0.0927724,0.0298552,-0.271522,0
2024-12-13 15:15:59.970,-0.600898,5.83909,12.2435,0.130645,0.0255792,-0.269078,0
2024-12-13 15:15:59.974,-0.639183,6.0332,12.076,0.261977,0.0316877,-0.25564,0
2024-12-13 15:15:59.977,-0.675075,6.13849,11.9608,0.285189,0.0310769,-0.253807,0
2024-12-13 15:15:59.981,-0.770788,6.41127,11.7072,0.320008,0.0219141,-0.251974,0
2024-12-13 15:15:59.984,-0.804287,6.54796,11.5493,0.328559,0.0164165,-0.251974,0
2024-12-13 15:15:59.991,-0.924228,7.02204,11.1446,0.328559,0.0121406,-0.259305,0
2024-12-13 15:15:59.993,-0.957727,7.14168,11.0154,0.310234,0.00603212,-0.267857,0
2024-12-13 15:15:59.998,-0.964906,7.39053,10.8476,0.265642,-0.00496313,-0.275798,0
2024-12-13 15:16:00.000,-0.955334,7.5006,10.7686,0.265642,-0.00496313,-0.275798,0
2024-12-13 15:16:00.012,-0.663111,7.50299,11.0513,0.0475697,-0.0617719,-0.352764,0
2024-12-13 15:16:00.017,-0.629611,7.4336,11.4604,0.0475697,-0.0617719,-0.352764,0
2024-12-13 15:16:00.021,-0.60329,7.22543,12.0015,-0.116748,-0.154621,-0.438894,0
2024-12-13 15:16:00.024,-0.624826,7.16082,12.3105,-0.116748,-0.154621,-0.438894,0
2024-12-13 15:16:00.028,-0.667897,6.94995,12.9473,-0.208375,-0.216927,-0.491427,0
2024-12-13 15:16:00.031,-0.663111,6.82792,13.2467,-0.229755,-0.232809,-0.503033,0
2024-12-13 15:16:00.038,-0.706182,6.41605,14.0222,-0.281677,-0.276179,-0.519526,0
2024-12-13 15:16:00.043,-0.73011,6.11934,14.5729,-0.294505,-0.289007,-0.517693,0
2024-12-13 15:16:00.047,-0.720539,5.83909,15.1068,-0.315884,-0.306722,-0.488983,0
2024-12-13 15:16:00.050,-0.720539,5.68595,15.3915,-0.315884,-0.306722,-0.488983,0
2024-12-13 15:16:00.054,-0.646361,5.31954,15.9637,-0.312219,-0.312219,-0.433396,0
2024-12-13 15:16:00.057,-0.593719,5.11137,16.2416,-0.3055,-0.314663,-0.409573,0
2024-12-13 15:16:00.061,-0.481256,4.67318,16.8066,-0.286564,-0.307943,-0.355819,0
2024-12-13 15:16:00.064,-0.41665,4.44826,17.1227,-0.286564,-0.307943,-0.355819,0
2024-12-13 15:16:00.068,-0.378365,4.01486,17.6611,-0.248691,-0.285342,-0.267857,0
2024-12-13 15:16:00.073,-0.325723,3.55753,18.0969,-0.196769,-0.266406,-0.237925,0
2024-12-13 15:16:00.075,-0.282652,3.35175,18.2719,-0.164394,-0.215095,-0.178062,0
2024-12-13 15:16:00.080,-0.227318,2.9327,18.5423,-0.125911,-0.215095,-0.146909,0
2024-12-13 15:16:00.083,-0.0478565,2.74128,18.6356,-0.0355055,-0.102088,-0.098041,0
2024-12-13 15:16:00.087,0.0885344,2.38206,18.6906,0.0720036,-0.0593285,-0.0797156,1
2024-12-13 15:16:00.090,0.131605,2.23131,18.6236,0.197838,0.0194708,-0.0510057,0
2024-12-13 15:16:00.092,0.184247,2.09492,18.5231,0.197838,0.0512348,-0.041843,0
2024-12-13 15:16:00.097,0.251246,1.87926,18.1855,0.325505,0.082388,-0.0326803,0
2024-12-13 15:16:00.101,0.299402,1.78355,17.63,0.45386,0.128812,-0.025961,0
2024-12-13 15:16:00.104,0.344866,1.78594,17.2304,0.583359,0.168517,-0.0216851,0
2024-12-13 15:16:00.108,0.397508,1.83619,16.3086,0.583359,0.168517,-0.0216851,0
2024-12-13 15:16:00.111,0.474078,1.89362,15.8106,0.693922,0.216774,-0.025961,0
2024-12-13 15:16:00.113,0.495613,1.94865,15.2886,0.745234,0.233878,-0.0290152,0
2024-12-13 15:16:00.118,0.521934,2.08056,14.185,0.830752,0.270529,-0.0393996,0
2024-12-13 15:16:00.120,0.507577,2.15713,13.5864,0.868625,0.270529,-0.0424539,0
2024-12-13 15:16:00.126,0.476471,2.34138,12.3847,0.954754,0.32917,-0.0522274,0
2024-12-13 15:16:00.127,0.378365,2.44666,11.779,0.954754,0.32917,-0.0522274,0
2024-12-13 15:16:00.132,0.34008,2.69342,10.5437,0.959641,0.339555,-0.0528383,0
2024-12-13 15:16:00.134,0.297009,2.8346,9.97388,0.959641,0.335279,-0.0552817,0
2024-12-13 15:16:00.139,0.215354,3.08345,8.87737,0.922379,0.302904,-0.0534491,0
2024-12-13 15:16:00.141,0.193819,3.19861,8.38654,0.922379,0.302904,-0.0534491,0
2024-12-13 15:16:00.146,0.177069,3.39242,7.55803,0.868625,0.24243,-0.0510057,0
2024-12-13 15:16:00.149,0.184247,3.49532,7.21586,0.838082,0.158133,-0.0497841,0
2024-12-13 15:16:00.153,0.234497,3.67508,6.66042,0.729962,0.058565,-0.0497841,0
2024-12-13 15:16:00.156,0.256032,3.74447,6.45942,0.729962,0.058565,-0.0497841,0
2024-12-13 15:16:00.160,0.318545,3.88564,6.20309,0.610847,-0.0965902,-0.0565034,0
2024-12-13 15:16:00.163,0.344866,3.90957,6.11934,0.573586,-0.146069,-0.0583359,0
2024-12-13 15:16:00.167,0.378365,3.95264,6.02602,0.500895,-0.248691,-0.0613902,0
2024-12-13 15:16:00.170,0.354437,3.95264,6.00927,0.464244,-0.296337,-0.0613902,0
2024-12-13 15:16:00.177,0.332901,3.91675,5.99013,0.371395,-0.42828,-0.0528383,0
2024-12-13 15:16:00.179,0.335294,3.85215,5.9997,0.371395,-0.42828,-0.0528383,0
2024-12-13 15:16:00.181,0.375972,3.82104,6.02602,0.312677,-0.499139,-0.0424539,0
2024-12-13 15:16:00.184,0.414257,3.78275,6.04756,0.284578,-0.530903,-0.0375671,0
2024-12-13 15:16:00.191,0.464507,3.55274,6.16002,0.192951,-0.607259,-0.0192417,0
2024-12-13 15:16:00.191,0.462114,3.55274,6.16002,0.192951,-0.607259,-0.0192417,0
2024-12-13 15:16:00.196,0.431007,3.40678,6.32034,0.137364,-0.637801,-0.00946813,0
2024-12-13 15:16:00.200,0.407079,3.24407,6.48575,0.107433,-0.648185,-0.00213797,0
2024-12-13 15:16:00.203,0.3999,3.16271,6.58864,0.0500131,-0.663456,0.00702474,0
2024-12-13 15:16:00.205,0.387936,3.09332,6.69631,0.0249684,-0.666511,0.0119115,0
2024-12-13 15:16:00.210,0.378365,2.97817,6.92363,-0.0245102,-0.65857,0.01802,0
2024-12-13 15:16:00.212,0.3999,2.93988,7.02682,-0.0458899,-0.652461,0.0216851,0
2024-12-13 15:16:00.219,0.447757,2.78674,7.24218,-0.105142,-0.609702,0.0241285,0
2024-12-13 15:16:00.219,0.478864,2.78674,7.24218,-0.105142,-0.609702,0.0241285,0
2024-12-13 15:16:00.224,0.514756,2.72213,7.32832,-0.136295,-0.568164,0.0241285,0
2024-12-13 15:16:00.226,0.512363,2.65992,7.369,-0.149734,-0.547396,0.0198525,0
2024-12-13 15:16:00.231,0.50997,2.60249,7.4336,-0.171724,-0.502193,0.0149658,0
2024-12-13 15:16:00.233,0.502792,2.55703,7.45035,-0.182109,-0.480202,0.0131332,0
2024-12-13 15:16:00.240,0.459721,2.52832,7.55564,-0.201656,-0.42828,0.00274881,0
2024-12-13 15:16:00.240,0.428614,2.5017,7.55564,-0.201656,-0.42828,0.00274881,0
2024-12-13 15:16:00.245,0.378365,2.45384,7.64686,-0.205932,-0.409955,-0.00580305,0
2024-12-13 15:16:00.250,0.325723,2.4658,7.68515,-0.205321,-0.402625,-0.010079,0
2024-12-13 15:16:00.255,0.311366,2.4658,7.69472,-0.197991,-0.376969,-0.0314586,0
2024-12-13 15:16:00.255,0.282652,2.46341,7.70908,-0.197991,-0.376969,-0.0314586,0
2024-12-13 15:16:00.259,0.208176,2.47777,7.68754,-0.179055,-0.361087,-0.0467298,0
2024-12-13 15:16:00.262,0.181855,2.50887,7.64208,-0.16867,-0.353757,-0.0571142,0
2024-12-13 15:16:00.269,0.102891,2.56182,7.50539,-0.133241,-0.319549,-0.0766613,0
2024-12-13 15:16:00.271,0.0526421,2.56421,7.31157,-0.133241,-0.319549,-0.0766613,0
2024-12-13 15:16:00.273,0.040678,2.58096,7.20389,-0.11064,-0.3055,-0.0864349,0
2024-12-13 15:16:00.276,0.00478565,2.6001,7.07468,-0.100866,-0.300002,-0.0913217,0
2024-12-13 15:16:00.280,-0.0167498,2.62642,6.80399,-0.093536,-0.295726,-0.0949868,0
2024-12-13 15:16:00.285,-0.145962,2.69821,6.54796,-0.0849841,-0.293283,-0.0992627,0
2024-12-13 15:16:00.290,-0.196211,2.7341,6.44955,-0.0807082,-0.295726,-0.0955976,0
2024-12-13 15:16:00.290,-0.234497,2.75803,6.34906,-0.0807082,-0.295726,-0.0955976,0
2024-12-13 15:16:00.297,-0.248854,2.78674,5.99492,-0.0819299,-0.286564,-0.0870457,0
2024-12-13 15:16:00.299,-0.248854,2.78674,5.99492,-0.0819299,-0.286564,-0.0870457,0
2024-12-13 15:16:00.304,-0.234497,2.80588,5.83669,-0.0923143,-0.270682,-0.0833807,0
2024-12-13 15:16:00.304,-0.208176,2.82024,5.74337,-0.0923143,-0.270682,-0.0833807,0
2024-12-13 15:16:00.309,-0.239282,2.85374,5.58545,-0.0923143,-0.270682,-0.0833807,0
2024-12-13 15:16:00.313,-0.299402,2.87049,5.46102,-0.106975,-0.246248,-0.082159,0
2024-12-13 15:16:00.316,-0.330509,2.85374,5.4012,-0.106975,-0.246248,-0.082159,0
2024-12-13 15:16:00.320,-0.447757,2.8322,5.28604,-0.1253,-0.223036,-0.0742179,0
2024-12-13 15:16:00.325,-0.464507,2.82024,5.21426,-0.149734,-0.20471,-0.0552817,0
2024-12-13 15:16:00.325,-0.452543,2.82742,5.21426,-0.149734,-0.20471,-0.0552817,0
2024-12-13 15:16:00.330,-0.464507,2.85374,5.13769,-0.165005,-0.186996,-0.0406213,0
2024-12-13 15:16:00.332,-0.469292,2.8681,5.13051,-0.171724,-0.182109,-0.0363454,0
2024-12-13 15:16:00.337,-0.459721,2.88245,5.14008,-0.171724,-0.182109,-0.0363454,0
2024-12-13 15:16:00.339,-0.445364,2.89681,5.14248,-0.189439,-0.174779,-0.0198525,0
2024-12-13 15:16:00.344,-0.481256,2.91117,5.20947,-0.201656,-0.186385,-0.0155766,0
2024-12-13 15:16:00.346,-0.517149,2.90638,5.25733,-0.202878,-0.191882,-0.010079,0
2024-12-13 15:16:00.351,-0.524327,2.93031,5.36291,-0.208375,-0.20471,-0.00397051,0
2024-12-13 15:16:00.356,-0.469292,2.95185,5.47298,-0.207154,-0.226701,-0.000916271,0
2024-12-13 15:16:00.358,-0.438186,2.98535,5.55195,-0.204099,-0.249302,0.00213797,0
2024-12-13 15:16:00.361,-0.3999,3.00688,5.60459,-0.201045,-0.258465,0.00580305,0
2024-12-13 15:16:00.365,-0.347258,3.04756,5.69312,-0.19005,-0.282899,0.00763559,0
2024-12-13 15:16:00.368,-0.32333,3.06431,5.71466,-0.180276,-0.295726,0.0113007,0
2024-12-13 15:16:00.372,-0.297009,3.14357,5.75294,-0.167449,-0.323215,0.0137441,0
2024-12-13 15:16:00.377,-0.267996,3.18664,5.72902,-0.160729,-0.336653,0.0174091,0
2024-12-13 15:16:00.379,-0.239282,3.21775,5.68595,-0.15401,-0.361698,0.0253502,0
2024-12-13 15:16:00.382,-0.196211,3.26321,5.64766,-0.15401,-0.361698,0.0290152,0
2024-12-13 15:16:00.386,-0.114855,3.32064,5.59741,-0.149734,-0.391019,0.033902,0
2024-12-13 15:16:00.389,-0.081356,3.36132,5.58545,-0.149734,-0.391019,0.033902,0
2024-12-13 15:16:00.393,-0.00239282,3.39482,5.58066,-0.157675,-0.417896,0.0400105,0
2024-12-13 15:16:00.396,0.0239282,3.42114,5.59741,-0.157675,-0.417896,0.0400105,0
2024-12-13 15:16:00.401,0.105284,3.48814,5.71944,-0.178444,-0.431335,0.0442864,0
2024-12-13 15:16:00.403,0.136391,3.52642,5.81516,-0.188828,-0.433778,0.0436756,0
2024-12-13 15:16:00.408,0.167498,3.58385,6.0667,-0.201656,-0.427669,0.0412322,0
2024-12-13 15:16:00.410,0.22014,3.61735,6.18634,-0.201656,-0.427669,0.0412322,0
2024-12-13 15:16:00.415,0.272782,3.71575,6.43998,-0.218149,-0.392851,0.0393996,0
2024-12-13 15:16:00.417,0.292223,3.74925,6.55035,-0.222425,-0.373915,0.0393996,0
2024-12-13 15:16:00.422,0.316152,3.80907,6.75135,-0.229144,-0.322604,0.0369563,0
2024-12-13 15:16:00.424,0.344866,3.81865,6.83749,-0.229144,-0.322604,0.0369563,0
2024-12-13 15:16:00.429,0.390329,3.88086,6.94995,-0.237085,-0.234031,0.0363454,0
2024-12-13 15:16:00.429,0.390329,3.88086,6.94995,-0.237085,-0.234031,0.0363454,0
2024-12-13 15:16:00.436,0.409472,3.99811,7.11536,-0.259076,-0.148512,0.0430647,0
2024-12-13 15:16:00.438,0.361615,4.03879,7.14646,-0.259076,-0.148512,0.0430647,0
2024-12-13 15:16:00.443,0.308973,4.15125,7.24936,-0.285342,-0.0721563,0.0503949,0
2024-12-13 15:16:00.445,0.297009,4.19671,7.28525,-0.285342,-0.0721563,0.0503949,0
2024-12-13 15:16:00.448,0.292223,4.22094,7.31635,-0.285342,-0.0721563,0.0503949,0
2024-12-13 15:16:00.450,0.292223,4.24487,7.35703,-0.320771,-0.0147367,0.0577251,0
2024-12-13 15:16:00.455,0.292223,4.31426,7.41446,-0.348259,0.00297788,0.0626118,0
2024-12-13 15:16:00.457,0.297009,4.33579,7.45514,-0.348259,0.00297788,0.0626118,0
2024-12-13 15:16:00.464,0.270389,4.38844,7.61097,-0.415452,-0.00923906,0.0607793,0
2024-12-13 15:16:00.466,0.258425,4.44586,7.68036,-0.415452,-0.00923906,0.0607793,0
2024-12-13 15:16:00.469,0.251246,4.47458,7.78565,-0.452714,-0.0324513,0.0595576,0
2024-12-13 15:16:00.471,0.251246,4.47936,7.90529,-0.452714,-0.0324513,0.0595576,0
2024-12-13 15:16:00.476,0.299402,4.45783,8.15923,-0.468596,-0.0477224,0.0534491,0
2024-12-13 15:16:00.478,0.311366,4.47697,8.27408,-0.501582,-0.0868167,0.0479515,0
2024-12-13 15:16:00.483,0.337687,4.42911,8.54208,-0.541898,-0.153399,0.0320695,0
2024-12-13 15:16:00.485,0.337687,4.42194,8.69043,-0.55045,-0.173557,0.0235176,0
2024-12-13 15:16:00.490,0.285045,4.39562,9.02094,-0.566943,-0.213873,0.0106898,0
2024-12-13 15:16:00.492,0.265603,4.40279,9.17887,-0.571829,-0.225479,0.00335966,0
2024-12-13 15:16:00.497,0.267996,4.37887,9.49263,-0.574273,-0.240139,-0.00946813,0
2024-12-13 15:16:00.499,0.272782,4.3669,9.6362,-0.574273,-0.240139,-0.0143549,0
2024-12-13 15:16:00.504,0.308973,4.31665,9.9021,-0.564499,-0.234642,-0.0302369,0
2024-12-13 15:16:00.507,0.325723,4.31665,10.0337,-0.558391,-0.226701,-0.0351237,0
2024-12-13 15:16:00.511,0.354437,4.2999,10.2275,-0.545563,-0.203488,-0.0467298,0
2024-12-13 15:16:00.516,0.352044,4.29512,10.3881,-0.545563,-0.203488,-0.0467298,0
2024-12-13 15:16:00.518,0.352044,4.28555,10.4551,-0.52174,-0.136906,-0.0589468,0
2024-12-13 15:16:00.521,0.34008,4.2664,10.4958,-0.510134,-0.108807,-0.0626118,0
2024-12-13 15:16:00.525,0.352044,4.2664,10.6083,-0.484478,-0.0446682,-0.0736071,0
2024-12-13 15:16:00.528,0.32333,4.26401,10.5987,-0.484478,-0.0446682,-0.0736071,0
2024-12-13 15:16:00.528,0.32333,4.26401,10.5987,-0.484478,-0.0446682,-0.0736071,0
2024-12-13 15:16:00.535,0.215354,4.3334,10.4862,-0.427059,0.0475697,-0.0803264,0
2024-12-13 15:16:00.540,0.165105,4.37887,10.3328,-0.411787,0.0713928,-0.069942,0
2024-12-13 15:16:00.542,0.148355,4.42194,10.2706,-0.411787,0.0713928,-0.069942,0
2024-12-13 15:16:00.547,0.22014,4.43869,10.151,-0.403846,0.100103,-0.0485624,0
2024-12-13 15:16:00.549,0.241675,4.42433,10.084,-0.401403,0.109265,-0.0406213,0
2024-12-13 15:16:00.554,0.263211,4.40758,9.97149,-0.398349,0.127591,-0.0253502,0
2024-12-13 15:16:00.556,0.263211,4.40758,9.94038,-0.398349,0.127591,-0.0253502,0
2024-12-13 15:16:00.561,0.248854,4.37169,9.91167,-0.393462,0.145916,-0.00213797,0
2024-12-13 15:16:00.563,0.224925,4.35254,9.88774,-0.391629,0.153857,0.0253502,0
2024-12-13 15:16:00.568,0.229711,4.29272,9.87578,-0.385521,0.181956,0.05406,0
2024-12-13 15:16:00.570,0.229711,4.29272,9.9021,-0.385521,0.181956,0.05406,0
2024-12-13 15:16:00.572,0.270389,4.1991,9.94278,-0.373915,0.200282,0.0833807,0
2024-12-13 15:16:00.577,0.34008,4.1345,10.0074,-0.369028,0.207001,0.0968193,0
2024-12-13 15:16:00.580,0.390329,4.08425,10.06,-0.369028,0.207001,0.0968193,0
2024-12-13 15:16:00.582,0.438186,4.04836,10.127,-0.334821,0.214331,0.130416,0
2024-12-13 15:16:00.587,0.495613,4.02204,10.2586,-0.303667,0.214942,0.148818,0
2024-12-13 15:16:00.589,0.52672,4.00768,10.3065,-0.303667,0.214942,0.148818,0
2024-12-13 15:16:00.594,0.567398,4.00529,10.3881,-0.262741,0.21372,0.158591,0
2024-12-13 15:16:00.596,0.591326,3.99571,10.4001,-0.207764,0.218607,0.170808,0
2024-12-13 15:16:00.601,0.615255,3.98375,10.3424,-0.179665,0.219218,0.176917,0
2024-12-13 15:16:00.603,0.632004,4.00289,10.2826,-0.114916,0.22777,0.187912,0
2024-12-13 15:16:00.608,0.658325,4.04596,10.0457,-0.0507767,0.238154,0.200129,0
2024-12-13 15:16:00.608,0.658325,4.04596,10.0457,-0.0507767,0.238154,0.200129,0
2024-12-13 15:16:00.615,0.696611,4.19193,9.48306,0.0298552,0.24243,0.223952,0
2024-12-13 15:16:00.617,0.73011,4.2329,9.27727,0.0518457,0.244263,0.231282,0
2024-12-13 15:16:00.622,0.804287,4.32622,8.85105,0.0787229,0.234489,0.245942,0
2024-12-13 15:16:00.624,0.830609,4.38126,8.63061,0.0787229,0.234489,0.245942,0
2024-12-13 15:16:00.627,0.864407,4.41236,8.44158,0.0787229,0.234489,0.245942,0
2024-12-13 15:16:00.631,0.94337,4.46501,8.14487,0.0854423,0.215553,0.259992,0
2024-12-13 15:16:00.636,0.998405,4.51765,7.91007,0.074447,0.202114,0.267322,0
2024-12-13 15:16:00.638,1.01515,4.55115,7.82393,0.0658951,0.198449,0.269155,0
2024-12-13 15:16:00.643,1.03908,4.58465,7.71865,0.0298552,0.197227,0.269765,0
2024-12-13 15:16:00.643,1.03908,4.58465,7.71865,0.0298552,0.197227,0.269765,0
2024-12-13 15:16:00.650,1.08694,4.666,7.6684,-7.63559e-05,0.196616,0.264879,0
2024-12-13 15:16:00.653,1.09173,4.6684,7.70668,-0.0153475,0.196616,0.264879,0
2024-12-13 15:16:00.657,1.10369,4.666,7.82872,-0.0648262,0.189286,0.255105,0
2024-12-13 15:16:00.660,1.14676,4.67318,7.89332,-0.0648262,0.189286,0.255105,0
2024-12-13 15:16:00.664,1.14676,4.68275,8.1015,-0.105753,0.187454,0.239834,0
2024-12-13 15:16:00.667,1.14676,4.67318,8.22622,-0.105753,0.187454,0.239834,0
2024-12-13 15:16:00.669,1.14437,4.65165,8.38654,-0.105753,0.187454,0.239834,0
2024-12-13 15:16:00.671,1.15155,4.64925,8.55404,-0.136295,0.19906,0.222119,0
2024-12-13 15:16:00.676,1.17547,4.65883,8.88455,-0.136295,0.19906,0.222119,0
2024-12-13 15:16:00.678,1.18265,4.66122,9.04965,-0.152788,0.218607,0.200129,0
2024-12-13 15:16:00.683,1.20419,4.68515,9.38256,-0.159507,0.236932,0.182414,0
2024-12-13 15:16:00.686,1.20419,4.69711,9.54766,-0.161951,0.244873,0.172641,0
2024-12-13 15:16:00.690,1.15633,4.7019,9.86381,-0.162562,0.26381,0.156148,0
2024-12-13 15:16:00.695,1.10369,4.73779,10.1462,-0.16134,0.276027,0.146985,0
2024-12-13 15:16:00.697,1.09173,4.77159,10.2467,-0.155842,0.30718,0.129194,0
2024-12-13 15:16:00.700,1.09173,4.77159,10.3519,-0.149123,0.327949,0.121864,0
2024-12-13 15:16:00.704,1.00319,4.88405,10.4886,-0.146069,0.373151,0.107815,0
2024-12-13 15:16:00.707,0.94337,4.92473,10.5269,-0.141182,0.400639,0.101706,0
2024-12-13 15:16:00.711,0.828216,4.99412,10.5628,-0.137517,0.450118,0.0955976,0
2024-12-13 15:16:00.714,0.742074,5.05155,10.5724,-0.137517,0.450118,0.0955976,0
2024-12-13 15:16:00.716,0.670289,5.09462,10.5604,-0.143015,0.497153,0.0937651,0
2024-12-13 15:16:00.723,0.643968,5.22383,10.4958,-0.150345,0.514868,0.0925434,0
2024-12-13 15:16:00.728,0.52672,5.32194,10.503,-0.202267,0.520366,0.0864349,0
2024-12-13 15:16:00.733,0.519542,5.43231,10.6346,-0.219371,0.509981,0.0827698,0
2024-12-13 15:16:00.735,0.519542,5.47777,10.7495,-0.260908,0.473941,0.0705529,0
2024-12-13 15:16:00.747,0.531506,5.62134,11.578,-0.347648,0.313899,0.0167983,0
2024-12-13 15:16:00.749,0.533899,5.65484,12.2411,-0.351924,0.268086,-0.00152712,0
2024-12-13 15:16:00.751,0.521934,5.67877,12.6338,-0.351924,0.268086,-0.00152712,0
2024-12-13 15:16:00.756,0.512363,5.70987,13.4261,-0.336653,0.119039,-0.0546708,0
2024-12-13 15:16:00.759,0.507577,5.73859,13.8117,-0.336653,0.119039,-0.0546708,0
2024-12-13 15:16:00.763,0.531506,5.89921,14.5633,-0.270682,-0.0275645,-0.117588,0
2024-12-13 15:16:00.766,0.531506,5.92553,14.9106,-0.270682,-0.0275645,-0.117588,0
2024-12-13 15:16:00.770,0.643968,5.95663,15.5115,-0.159507,-0.133852,-0.179284,0
2024-12-13 15:16:00.773,0.632004,5.9327,15.7531,-0.159507,-0.133852,-0.179284,0
2024-12-13 15:16:00.780,0.531506,5.81516,16.3923,0.0396287,-0.207764,-0.240368,0
2024-12-13 15:16:00.782,0.4669,5.77209,16.4952,0.0396287,-0.207764,-0.240368,0
2024-12-13 15:16:00.787,0.442971,5.74577,16.5577,0.194784,-0.212651,-0.24892,1
2024-12-13 15:16:00.787,0.423829,5.72662,16.5577,0.194784,-0.212651,-0.24892,1
2024-12-13 15:16:00.792,0.423829,5.65484,16.4498,0.194784,-0.212651,-0.24892,0
2024-12-13 15:16:00.794,0.378365,5.68595,16.3588,0.313288,-0.171724,-0.238536,0
2024-12-13 15:16:00.799,0.562612,5.53998,16.0645,0.371395,-0.0880384,-0.22693,0
2024-12-13 15:16:00.801,0.632004,5.49691,16.0741,0.391553,-0.0617719,-0.220821,0
2024-12-13 15:16:00.808,0.287438,5.51605,15.545,0.406213,-0.0642153,-0.18417,0
2024-12-13 15:16:00.808,0.16989,5.50888,15.545,0.406213,-0.0642153,-0.18417,0
2024-12-13 15:16:00.813,0.0981057,5.49213,15.1953,0.380558,-0.0947577,-0.14752,0
2024-12-13 15:16:00.817,0.162712,5.37727,14.8217,0.362767,-0.106364,-0.131638,0
2024-12-13 15:16:00.820,0.318545,5.33181,14.6949,0.30718,-0.121024,-0.10476,0
2024-12-13 15:16:00.822,0.387936,5.23819,14.6231,0.277248,-0.123468,-0.100484,0
2024-12-13 15:16:00.827,0.581755,4.99412,14.5992,0.222272,-0.104531,-0.0943759,0
2024-12-13 15:16:00.829,0.722932,4.97258,14.5944,0.222272,-0.104531,-0.0998735,0
2024-12-13 15:16:00.834,0.677468,4.91516,14.6949,0.145305,-0.0862058,-0.106593,0
2024-12-13 15:16:00.836,0.710967,4.72582,14.7667,0.128812,-0.0745997,-0.107815,0
2024-12-13 15:16:00.841,0.811466,4.59901,14.8576,0.100713,-0.0691021,-0.112701,0
2024-12-13 15:16:00.843,0.725324,4.46261,14.9513,0.100713,-0.0697129,-0.113312,0
2024-12-13 15:16:00.848,0.574577,4.16321,15.1044,0.100713,-0.0678804,-0.102928,0
2024-12-13 15:16:00.853,0.545863,3.85215,15.0733,0.109265,-0.0611611,-0.0931542,0
2024-12-13 15:16:00.855,0.545863,3.67747,15.0494,0.139808,-0.0355055,-0.0742179,0
2024-12-13 15:16:00.857,0.459721,3.47617,15.0135,0.164242,-0.0177909,-0.0626118,0
2024-12-13 15:16:00.862,0.383151,3.16271,14.8914,0.222272,0.0292443,-0.038178,0
2024-12-13 15:16:00.865,0.354437,3.04756,14.8193,0.222272,0.0292443,-0.038178,0
2024-12-13 15:16:00.869,0.299402,2.87767,14.5537,0.332835,0.109876,0.00397051,0
2024-12-13 15:16:00.872,0.232104,2.79871,14.3982,0.375671,0.135532,0.0198525,0
2024-12-13 15:16:00.876,0.160319,2.74367,14.0103,0.458135,0.175237,0.0534491,0
2024-12-13 15:16:00.876,0.0741775,2.70539,14.0103,0.458135,0.175237,0.0534491,0
2024-12-13 15:16:00.883,-0.066999,2.59532,13.2658,0.574807,0.229602,0.110258,0
2024-12-13 15:16:00.886,-0.0885344,2.58814,12.9975,0.574807,0.229602,0.110258,0
2024-12-13 15:16:00.890,-0.114855,2.59292,12.7774,0.686592,0.269918,0.156759,0
2024-12-13 15:16:00.893,-0.114855,2.62642,12.478,0.686592,0.269918,0.156759,0
2024-12-13 15:16:00.898,-0.184247,2.71735,11.6043,0.78555,0.353604,0.168365,0
2024-12-13 15:16:00.900,-0.270389,2.68385,11.3767,0.78555,0.353604,0.168365,0
2024-12-13 15:16:00.902,-0.380758,2.64317,11.0895,0.78555,0.353604,0.168365,0
2024-12-13 15:16:00.907,-0.514756,2.64078,10.7136,0.85824,0.389644,0.18669,0
2024-12-13 15:16:00.912,-0.756431,2.76281,9.32034,0.941926,0.418965,0.227006,0
2024-12-13 15:16:00.914,-0.756431,2.76281,9.32034,0.941926,0.418965,0.227006,0
2024-12-13 15:16:00.916,-0.727717,2.91595,8.38654,0.952922,0.442788,0.267322,0
2024-12-13 15:16:00.921,-0.749253,3.0667,7.51974,0.939483,0.44401,0.278317,0
2024-12-13 15:16:00.923,-1.18983,3.34218,7.16321,0.902832,0.44462,0.291756,0
2024-12-13 15:16:00.926,-2.15952,3.93829,6.95235,0.885729,0.467222,0.314357,0
2024-12-13 15:16:00.931,-1.52513,3.73729,6.33231,0.854575,0.590002,0.373609,0
2024-12-13 15:16:00.933,-0.821037,3.39003,5.84866,0.854575,0.590002,0.373609,0
2024-12-13 15:16:00.938,-0.359223,2.81067,5.44427,0.789215,0.679186,0.369334,0
2024-12-13 15:16:00.940,-0.852443,2.74606,5.24058,0.70675,0.718356,0.335126,0
2024-12-13 15:16:00.945,-0.88355,2.64317,5.14248,0.608404,0.74279,0.321077,0
2024-12-13 15:16:00.947,-0.751645,2.62403,5.00848,0.608404,0.716524,0.297254,0
2024-12-13 15:16:00.952,-0.972084,2.68864,4.81227,0.502116,0.683462,0.253883,0
2024-12-13 15:16:00.954,-0.998405,2.65753,4.83141,0.442864,0.594889,0.241056,0
2024-12-13 15:16:00.959,-1.08215,2.63839,4.98455,0.247928,0.472109,0.220287,0
2024-12-13 15:16:00.961,-1.0319,2.60249,5.03958,0.247928,0.472109,0.214789,0
2024-12-13 15:16:00.966,-0.996012,2.51845,5.23101,0.115985,0.346274,0.205016,0
2024-12-13 15:16:00.968,-0.888335,2.44188,5.31237,-0.00923906,0.22044,0.195242,0
2024-12-13 15:16:00.973,-1.21615,2.46102,5.55434,-0.1253,0.142862,0.189134,0
2024-12-13 15:16:00.975,-1.23529,2.39163,5.6692,-0.1253,0.142862,0.189134,0
2024-12-13 15:16:00.980,-0.988834,2.18824,5.96381,-0.221814,0.131256,0.177527,0
2024-12-13 15:16:00.982,-0.988834,2.09731,6.14567,-0.221814,0.131256,0.177527,0
2024-12-13 15:16:00.987,-0.675075,1.93191,6.54078,-0.339097,0.18501,0.153094,0
2024-12-13 15:16:00.989,-0.608076,1.85055,6.73939,-0.339097,0.18501,0.153094,0
2024-12-13 15:16:00.994,-0.545863,1.6663,7.1345,-0.372693,0.196616,0.123697,0
2024-12-13 15:16:00.994,-0.50997,1.6663,7.1345,-0.372693,0.196616,0.123697,0
2024-12-13 15:16:01.001,-0.311366,1.95344,7.65643,-0.361087,0.142862,0.0876566,0
2024-12-13 15:16:01.001,-0.311366,1.95344,7.65643,-0.361087,0.142862,0.0876566,0
2024-12-13 15:16:01.006,-1.2329,2.07817,8.06561,-0.316495,0.144694,0.0955976,0
2024-12-13 15:16:01.011,-0.12682,1.59212,7.99382,-0.289007,0.174626,0.0894891,0
2024-12-13 15:16:01.013,0.167498,1.45573,8.12543,-0.289007,0.174626,0.0894891,0
2024-12-13 15:16:01.015,0.407079,1.35733,8.24298,-0.230366,0.296185,0.0198525,0
2024-12-13 15:16:01.020,0.35683,1.24965,8.36262,-0.140571,0.371319,-0.0302369,0
2024-12-13 15:16:01.022,0.459721,1.25204,8.47747,-0.140571,0.371319,-0.0302369,0
2024-12-13 15:16:01.027,0.267996,1.55384,8.45594,-0.140571,0.371319,-0.0302369,0
2024-12-13 15:16:01.029,-0.368794,1.95583,8.15444,0.058565,0.529528,-0.103539,0
2024-12-13 15:16:01.034,-0.701396,2.22413,8.01297,0.139197,0.600387,-0.0674986,0
2024-12-13 15:16:01.037,-0.634397,2.23849,7.88854,0.139197,0.600387,-0.0674986,0
2024-12-13 15:16:01.041,-0.383151,2.16431,7.67558,0.202114,0.600387,-0.00274881,0
2024-12-13 15:16:01.045,-0.311366,2.13559,7.62533,0.202114,0.600387,0.0106898,0
2024-12-13 15:16:01.048,-0.244068,2.06381,7.54367,0.243652,0.555184,0.0296261,0
2024-12-13 15:16:01.048,-0.270389,2.06381,7.54367,0.243652,0.555184,0.0296261,0
2024-12-13 15:16:01.053,-0.138784,1.98963,7.34268,0.243652,0.555184,0.0442864,0
2024-12-13 15:16:01.058,0.0502493,1.92473,7.05554,0.272362,0.499597,0.0668878,0
2024-12-13 15:16:01.062,0.239282,1.85055,7.11775,0.279081,0.48066,0.0736071,0
2024-12-13 15:16:01.065,0.18664,1.82184,7.16082,0.279081,0.48066,0.0736071,0
2024-12-13 15:16:01.067,0.119641,1.79791,7.20628,0.298017,0.410413,0.0577251,0
2024-12-13 15:16:01.072,0.160319,1.72134,7.23739,0.307791,0.370708,0.05406,0
2024-12-13 15:16:01.077,0.359223,1.60409,7.24218,0.332225,0.208833,0.0387888,0
2024-12-13 15:16:01.077,0.359223,1.60409,7.24218,0.332225,0.208833,0.0387888,0
2024-12-13 15:16:01.081,0.512363,1.52752,7.29482,0.360324,0.0787229,0.0210742,0
2024-12-13 15:16:01.084,0.598505,1.49641,7.29482,0.374449,0.0133623,0.0106898,0
2024-12-13 15:16:01.088,0.651147,1.46052,7.20868,0.404992,-0.121024,-0.0064139,0
2024-12-13 15:16:01.091,0.651147,1.46052,7.14168,0.416598,-0.188828,-0.0149658,0
2024-12-13 15:16:01.095,0.854836,1.47727,7.0002,0.426371,-0.252967,-0.0210742,0
2024-12-13 15:16:01.100,1.50838,1.41027,6.76571,0.445919,-0.438054,-0.0595576,0
2024-12-13 15:16:01.102,1.74527,1.37169,6.64606,0.445919,-0.438054,-0.0595576,0
2024-12-13 15:16:01.105,1.6328,1.50359,6.57428,0.442864,-0.567553,-0.0974301,0
2024-12-13 15:16:01.110,0.768395,2.19302,6.35384,0.434312,-0.60848,-0.117588,0
2024-12-13 15:16:01.112,0.34008,2.57857,6.28445,0.434312,-0.60848,-0.117588,0
2024-12-13 15:16:01.117,-0.253639,3.23928,6.26531,0.381169,-0.577327,-0.0968193,0
2024-12-13 15:16:01.119,-0.435793,3.48814,6.31077,0.381169,-0.577327,-0.0968193,0
2024-12-13 15:16:01.122,-0.514756,3.64128,6.3993,0.340166,-0.508301,-0.0406213,0
2024-12-13 15:16:01.124,-0.519542,3.72772,6.5025,0.340166,-0.508301,-0.0406213,0
2024-12-13 15:16:01.128,-0.318545,3.75165,6.67717,0.340166,-0.508301,-0.0406213,0
2024-12-13 15:16:01.131,-0.20339,3.72772,6.73699,0.318175,-0.499139,0.00885729,0
2024-12-13 15:16:01.135,-0.0885344,3.68704,6.79681,0.310234,-0.503415,0.00885729,0
2024-12-13 15:16:01.138,0.0191426,3.65593,6.89013,0.288244,-0.533346,0.0192417,0
2024-12-13 15:16:01.142,0.0622134,3.70618,6.99542,0.277248,-0.548617,0.0161875,0
2024-12-13 15:16:01.145,0.0478565,3.74686,7.03879,0.273583,-0.555947,0.0106898,0
2024-12-13 15:16:01.150,0.0,3.8665,7.14407,0.268696,-0.568775,-0.00274881,0
2024-12-13 15:16:01.150,0.0,3.8665,7.14407,0.268696,-0.568775,-0.00274881,0
2024-12-13 15:16:01.157,-0.0837488,4.07468,7.2996,0.262588,-0.588933,-0.0167983,0
2024-12-13 15:16:01.159,-0.0957129,4.13689,7.34268,0.261366,-0.597485,-0.01802,0
2024-12-13 15:16:01.164,-0.0957129,4.17996,7.47667,0.254647,-0.614589,-0.0253502,0
2024-12-13 15:16:01.166,-0.0837488,4.21615,7.60379,0.254647,-0.614589,-0.0253502,0
2024-12-13 15:16:01.171,0.100499,4.26401,7.85025,0.247317,-0.611534,-0.0369563,0
2024-12-13 15:16:01.171,0.100499,4.26401,7.85025,0.247317,-0.611534,-0.0369563,0
2024-12-13 15:16:01.178,0.256032,4.26401,8.09911,0.239987,-0.552282,-0.0503949,0
2024-12-13 15:16:01.178,0.256032,4.26401,8.09911,0.239987,-0.552282,-0.0503949,0
2024-12-13 15:16:01.183,0.16989,4.30708,8.01297,0.214942,-0.452103,-0.0742179,0
2024-12-13 15:16:01.187,-0.00717847,4.33579,7.84068,0.202725,-0.422783,-0.0809373,0
2024-12-13 15:16:01.192,-0.227318,4.33101,7.70668,0.138586,-0.365363,-0.0901,0
2024-12-13 15:16:01.194,-0.227318,4.33101,7.70668,0.138586,-0.365363,-0.0901,0
2024-12-13 15:16:01.199,-0.392722,4.28794,7.74736,0.0677277,-0.296337,-0.0882674,0
2024-12-13 15:16:01.201,-0.517149,4.18953,7.81915,0.0677277,-0.296337,-0.0882674,0
2024-12-13 15:16:01.204,-0.574577,4.1345,7.92922,0.0164165,-0.237085,-0.0815481,0
2024-12-13 15:16:01.206,-0.627219,4.07229,8.05364,-0.00618483,-0.207764,-0.0748288,0
2024-12-13 15:16:01.211,-0.926621,4.00768,8.25733,-0.0440574,-0.16134,-0.0595576,0
2024-12-13 15:16:01.213,-1.05823,3.97179,8.33869,-0.0617719,-0.13996,-0.0491732,0
2024-12-13 15:16:01.218,-1.24487,3.91675,8.47747,-0.0978119,-0.108807,-0.0204634,0
2024-12-13 15:16:01.220,-1.32383,3.88086,8.55165,-0.114916,-0.0972011,-0.00580305,0
2024-12-13 15:16:01.225,-1.40548,3.81147,8.69043,-0.13263,-0.085595,0.0308478,0
2024-12-13 15:16:01.227,-1.44855,3.76361,8.80559,-0.161951,-0.0752106,0.0503949,0
2024-12-13 15:16:01.232,-1.43898,3.68226,9.07598,-0.183941,-0.0642153,0.0907108,0
2024-12-13 15:16:01.237,-1.30229,3.6006,9.38256,-0.183941,-0.0642153,0.0907108,0
2024-12-13 15:16:01.239,-1.30229,3.6006,9.38256,-0.206543,-0.0660479,0.147596,0
2024-12-13 15:16:01.241,-1.12283,3.57906,9.77019,-0.206543,-0.0660479,0.147596,0
2024-12-13 15:16:01.246,-0.952942,3.59581,10.1055,-0.206543,-0.106364,0.197075,0
2024-12-13 15:16:01.248,-0.952942,3.59581,10.2203,-0.200434,-0.119802,0.208681,0
2024-12-13 15:16:01.251,-0.775574,3.61974,10.3232,-0.200434,-0.119802,0.208681,0
2024-12-13 15:16:01.253,-0.682254,3.62931,10.4169,-0.177222,-0.138128,0.229449,0
2024-12-13 15:16:01.260,-0.371187,3.7014,10.637,-0.116137,-0.149734,0.242277,0
2024-12-13 15:16:01.263,-0.239282,3.69422,10.6872,-0.116137,-0.149734,0.242277,0
2024-12-13 15:16:01.267,-0.114855,3.7014,10.7255,-0.0599394,-0.148512,0.238612,0
2024-12-13 15:16:01.267,-0.0119641,3.699,10.7112,-0.0599394,-0.148512,0.238612,0
2024-12-13 15:16:01.274,0.270389,3.66551,10.5078,0.0274118,-0.13996,0.217843,0
2024-12-13 15:16:01.274,0.270389,3.66551,10.5078,0.0274118,-0.13996,0.217843,0
2024-12-13 15:16:01.281,0.380758,3.60299,10.3783,0.128812,-0.136295,0.150039,0
2024-12-13 15:16:01.281,0.402293,3.59581,10.3328,0.128812,-0.136295,0.150039,0
2024-12-13 15:16:01.286,0.402293,3.60299,10.1629,0.128812,-0.136295,0.150039,0
2024-12-13 15:16:01.289,0.397508,3.61974,10.072,0.173404,-0.160118,0.0968193,0
2024-12-13 15:16:01.293,0.332901,3.6341,9.98106,0.236932,-0.222425,0.0595576,0
2024-12-13 15:16:01.296,0.292223,3.61496,9.9691,0.260755,-0.248691,0.0448973,0
2024-12-13 15:16:01.300,0.0550349,3.57906,9.89731,0.30718,-0.298781,0.0174091,0
2024-12-13 15:16:01.303,-0.0885344,3.52642,9.87099,0.331003,-0.322604,0.00702474,0
2024-12-13 15:16:01.307,-0.335294,3.38525,9.74148,0.377504,-0.37025,-0.00458135,0
2024-12-13 15:16:01.310,-0.419043,3.32543,9.66491,0.377504,-0.389797,-0.0064139,0
2024-12-13 15:16:01.314,-0.56022,3.27518,9.52134,0.44714,-0.432556,-0.00274881,0
2024-12-13 15:16:01.317,-0.622433,3.24407,9.42323,0.469742,-0.455768,0.000305424,0
2024-12-13 15:16:01.322,-0.74686,3.23689,9.21715,0.508836,-0.500971,0.0143549,0
2024-12-13 15:16:01.324,-0.785145,3.25125,9.13819,0.508836,-0.522351,0.0247393,0
2024-12-13 15:16:01.329,-0.864407,3.27518,9.01616,0.539989,-0.563278,0.0491732,0
2024-12-13 15:16:01.333,-0.8668,3.32303,8.9013,0.582748,-0.605426,0.0791047,0
2024-12-13 15:16:01.336,-0.837787,3.35653,8.84866,0.582748,-0.605426,0.0791047,0
2024-12-13 15:16:01.338,-0.799502,3.38525,8.77209,0.596187,-0.620697,0.110869,0
2024-12-13 15:16:01.340,-0.742074,3.41875,8.72184,0.596187,-0.620697,0.110869,0
2024-12-13 15:16:01.345,-0.646361,3.45942,8.66411,0.620621,-0.657348,0.14332,0
2024-12-13 15:16:01.347,-0.402293,3.56949,8.51815,0.625508,-0.671398,0.170808,0
2024-12-13 15:16:01.352,-0.287438,3.7014,8.35783,0.626729,-0.674452,0.179971,0
2024-12-13 15:16:01.357,-0.0287139,3.75643,8.1688,0.609015,-0.654294,0.200129,0
2024-12-13 15:16:01.359,0.224925,3.89761,8.07757,0.609015,-0.654294,0.200129,0
2024-12-13 15:16:01.364,0.478864,4.05075,7.89093,0.573586,-0.599928,0.198907,0
2024-12-13 15:16:01.364,0.478864,4.05075,7.89093,0.573586,-0.599928,0.198907,0
2024-12-13 15:16:01.371,0.701396,4.20389,7.64208,0.516166,-0.526627,0.178749,0
2024-12-13 15:16:01.373,0.787538,4.2688,7.64208,0.516166,-0.526627,0.178749,0
2024-12-13 15:16:01.378,1.0678,4.44108,7.52932,0.442864,-0.437443,0.146374,0
2024-12-13 15:16:01.380,1.18744,4.50568,7.51017,0.442864,-0.437443,0.146374,0
2024-12-13 15:16:01.383,1.29033,4.56311,7.50539,0.390942,-0.373915,0.117588,0
2024-12-13 15:16:01.385,1.3669,4.60858,7.56521,0.362767,-0.342151,0.101095,0
2024-12-13 15:16:01.390,1.51795,4.7354,7.75215,0.362767,-0.342151,0.101095,0
2024-12-13 15:16:01.392,1.58016,4.79791,7.88136,0.284578,-0.257854,0.038178,0
2024-12-13 15:16:01.397,1.59691,4.90319,8.05843,0.24243,-0.215705,-0.00580305,0
2024-12-13 15:16:01.399,1.5993,4.93669,8.15683,0.222272,-0.195547,-0.0296261,0
2024-12-13 15:16:01.404,1.60409,4.99412,8.34826,0.222272,-0.195547,-0.0296261,0
2024-12-13 15:16:01.409,1.61127,5.02283,8.42483,0.181345,-0.131409,-0.0943759,0
2024-12-13 15:16:01.413,1.57298,5.03958,8.42244,0.159966,-0.0837624,-0.137746,0
2024-12-13 15:16:01.416,1.54188,5.04437,8.3674,0.137975,-0.0361163,-0.177451,0
2024-12-13 15:16:01.423,1.44616,5.04676,8.10629,0.0970484,0.0280226,-0.228762,0
2024-12-13 15:16:01.425,1.44616,5.05394,8.0345,0.0970484,0.0280226,-0.228762,0
2024-12-13 15:16:01.430,1.21854,5.05633,7.96032,0.050624,0.0768904,-0.267857,0
2024-12-13 15:16:01.430,1.21854,5.05633,7.96032,0.050624,0.0768904,-0.267857,0
2024-12-13 15:16:01.437,0.96012,5.0659,7.91007,0.0139731,0.0988809,-0.282517,0
2024-12-13 15:16:01.439,0.871586,5.07308,7.88854,-0.00251974,0.109265,-0.285571,0
2024-12-13 15:16:01.442,0.770788,5.07787,7.88375,-0.00251974,0.109265,-0.285571,0
2024-12-13 15:16:01.444,0.694218,5.10419,7.87418,-0.00251974,0.109265,-0.285571,0
2024-12-13 15:16:01.449,0.655932,5.14487,7.82154,-0.0788757,0.150192,-0.290458,0
2024-12-13 15:16:01.451,0.624826,5.15444,7.83829,-0.0917034,0.160576,-0.291069,0
2024-12-13 15:16:01.458,0.531506,5.17597,7.934,-0.123468,0.182567,-0.289236,0
2024-12-13 15:16:01.458,0.454935,5.15444,8.03929,-0.123468,0.182567,-0.289236,0
2024-12-13 15:16:01.463,0.30658,5.12094,8.28365,-0.133241,0.195395,-0.285571,0
2024-12-13 15:16:01.468,0.124427,5.08983,8.4679,-0.136295,0.194784,-0.283128,0
2024-12-13 15:16:01.470,0.040678,5.05873,8.58036,-0.13263,0.189897,-0.272132,0
2024-12-13 15:16:01.472,-0.026321,5.03719,8.64975,-0.128965,0.18501,-0.266635,0
2024-12-13 15:16:01.477,-0.136391,5.00848,8.7697,-0.114916,0.163631,-0.251364,0
2024-12-13 15:16:01.479,-0.162712,4.99412,8.81755,-0.114916,0.163631,-0.251364,0
2024-12-13 15:16:01.484,-0.193819,4.96301,8.87498,-0.0880384,0.119039,-0.218378,0
2024-12-13 15:16:01.486,-0.162712,4.93669,8.90609,-0.0880384,0.102546,-0.206161,0
2024-12-13 15:16:01.491,-0.0574277,4.9008,8.95394,-0.0568851,0.0658951,-0.184781,0
2024-12-13 15:16:01.493,-0.0574277,4.9008,8.97548,-0.0568851,0.0658951,-0.184781,0
2024-12-13 15:16:01.498,0.119641,4.88884,9.02094,-0.029397,0.014584,-0.160958,0
2024-12-13 15:16:01.501,0.119641,4.88884,9.02094,-0.029397,0.014584,-0.160958,0
2024-12-13 15:16:01.503,0.258425,4.90559,9.05683,-0.013515,-0.0171801,-0.146909,0
2024-12-13 15:16:01.505,0.318545,4.91276,9.08076,-0.013515,-0.0300079,-0.1408,0
2024-12-13 15:16:01.512,0.462114,4.91516,9.06401,0.00786466,-0.0458899,-0.129805,0
2024-12-13 15:16:01.512,0.462114,4.91516,9.06401,0.00786466,-0.0458899,-0.129805,0
2024-12-13 15:16:01.517,0.519542,4.87687,9.07358,0.0121406,-0.041614,-0.125529,0
2024-12-13 15:16:01.519,0.553041,4.87687,9.06162,0.0109189,-0.0361163,-0.122475,0
2024-12-13 15:16:01.524,0.596112,4.85534,9.1023,0.0133623,-0.0141258,-0.11881,0
2024-12-13 15:16:01.526,0.627219,4.8338,9.10948,0.0133623,-0.0141258,-0.11881,0
2024-12-13 15:16:01.531,0.634397,4.82902,9.08794,0.00542127,0.0310769,-0.114534,0
2024-12-13 15:16:01.533,0.634397,4.82902,9.08794,0.00236703,0.0481806,-0.113312,0
2024-12-13 15:16:01.538,0.591326,4.81705,8.96351,0.00175619,0.0689494,-0.112701,0
2024-12-13 15:16:01.543,0.598505,4.82662,8.86541,-0.00862822,0.109265,-0.105982,0
2024-12-13 15:16:01.543,0.596112,4.82662,8.86541,-0.00862822,0.109265,-0.105982,0
2024-12-13 15:16:01.548,0.536291,4.84337,8.79602,-0.0202343,0.159966,-0.102928,0
2024-12-13 15:16:01.552,0.476471,4.85294,8.7362,-0.0471116,0.189286,-0.101706,0
2024-12-13 15:16:01.555,0.447757,4.85294,8.71466,-0.057496,0.200282,-0.102317,0
2024-12-13 15:16:01.559,0.34008,4.84816,8.68086,-0.0764323,0.211888,-0.107204,0
2024-12-13 15:16:01.562,0.289831,4.83141,8.69043,-0.0764323,0.214942,-0.109036,0
2024-12-13 15:16:01.566,0.210568,4.79791,8.72423,-0.0984228,0.210666,-0.113923,0
2024-12-13 15:16:01.569,0.191426,4.78355,8.73859,-0.0984228,0.210666,-0.113923,0
2024-12-13 15:16:01.574,0.177069,4.73779,8.77687,-0.115526,0.192341,-0.11881,0
2024-12-13 15:16:01.576,0.174676,4.733,8.80559,-0.115526,0.192341,-0.11881,0
2024-12-13 15:16:01.578,0.162712,4.72343,8.82473,-0.119802,0.172793,-0.124918,0
2024-12-13 15:16:01.583,0.153141,4.71625,8.88934,-0.121635,0.16302,-0.127362,0
2024-12-13 15:16:01.585,0.177069,4.71625,8.94676,-0.121635,0.16302,-0.127362,0
2024-12-13 15:16:01.590,0.181855,4.68993,9.03291,-0.115526,0.122704,-0.134692,0
2024-12-13 15:16:01.592,0.177069,4.67797,9.07119,-0.102088,0.0952158,-0.135914,0
2024-12-13 15:16:01.595,0.174676,4.68036,9.11187,-0.0917034,0.0817772,-0.137135,0
2024-12-13 15:16:01.602,0.174676,4.65165,9.22672,-0.0629936,0.0439046,-0.135914,0
2024-12-13 15:16:01.604,0.174676,4.65165,9.25544,-0.0629936,0.0439046,-0.135914,0
2024-12-13 15:16:01.607,0.167498,4.62054,9.24826,-0.0361163,0.0274118,-0.134692,0
2024-12-13 15:16:01.609,0.160319,4.62293,9.21715,-0.0361163,0.0274118,-0.134692,0
2024-12-13 15:16:01.614,0.124427,4.59661,9.1334,0.00481042,0.00664296,-0.127362,0
2024-12-13 15:16:01.616,0.117248,4.59901,9.08315,0.0170274,0.00786466,-0.121864,0
2024-12-13 15:16:01.623,0.112463,4.6014,8.85584,0.0536782,0.0109189,-0.105371,0
2024-12-13 15:16:01.623,0.11007,4.61097,8.85584,0.0536782,0.0109189,-0.105371,0
2024-12-13 15:16:01.628,0.133998,4.62772,8.67847,0.0689494,0.0176382,-0.0864349,0
2024-12-13 15:16:01.630,0.145962,4.64925,8.62583,0.0756687,0.0200816,-0.077883,0
2024-12-13 15:16:01.635,0.179462,4.66361,8.54686,0.0805555,0.030466,-0.0577251,0
2024-12-13 15:16:01.637,0.191426,4.70429,8.50379,0.0829989,0.0335202,-0.0485624,0
2024-12-13 15:16:01.642,0.22014,4.76411,8.42004,0.0762796,0.0432938,-0.0265719,0
2024-12-13 15:16:01.644,0.222533,4.77398,8.37458,0.0762796,0.0432938,-0.0265719,0
2024-12-13 15:16:01.650,0.234497,4.82184,8.31476,0.058565,0.066506,0.0155766,0
2024-12-13 15:16:01.651,0.239282,4.84577,8.28605,0.058565,0.066506,0.0155766,0
2024-12-13 15:16:01.656,0.217747,4.94148,8.25733,0.0500131,0.0689494,0.0357346,0
2024-12-13 15:16:01.658,0.224925,4.9678,8.26212,0.0432938,0.0720036,0.0357346,0
2024-12-13 15:16:01.663,0.198604,5.02523,8.27169,0.0127514,0.0677277,0.0601685,0
2024-12-13 15:16:01.663,0.198604,5.02523,8.27169,0.0127514,0.0677277,0.0601685,0
2024-12-13 15:16:01.668,0.205783,5.05633,8.3363,0.0127514,0.0677277,0.0601685,0
2024-12-13 15:16:01.672,0.200997,5.09223,8.40329,-0.013515,0.0573433,0.0803264,0
2024-12-13 15:16:01.677,0.189033,5.0994,8.47986,-0.0312296,0.0347419,0.0882674,0
2024-12-13 15:16:01.677,0.189033,5.0994,8.47986,-0.0312296,0.0347419,0.0882674,0
2024-12-13 15:16:01.684,0.16989,5.11137,8.58754,-0.0483333,0.0158057,0.0907108,0
2024-12-13 15:16:01.684,0.177069,5.11137,8.58754,-0.0483333,0.0158057,0.0907108,0
2024-12-13 15:16:01.691,0.18664,5.09462,8.66411,-0.0587177,-0.0330621,0.0962084,0
2024-12-13 15:16:01.694,0.256032,5.07308,8.7027,-0.0587177,-0.0330621,0.0962084,0
2024-12-13 15:16:01.698,0.294616,5.07308,8.72184,-0.0629936,-0.0526092,0.0955976,0
2024-12-13 15:16:01.701,0.371187,5.08026,8.78166,-0.0660479,-0.0697129,0.0901,0
2024-12-13 15:16:01.703,0.411865,5.0683,8.81277,-0.0672696,-0.0764323,0.0901,0
2024-12-13 15:16:01.705,0.447757,5.05633,8.87019,-0.0672696,-0.0764323,0.0852132,0
2024-12-13 15:16:01.710,0.505185,5.04676,8.95873,-0.0703238,-0.0910926,0.077883,0
2024-12-13 15:16:01.713,0.52672,5.0324,9.02573,-0.0703238,-0.0910926,0.077883,0
2024-12-13 15:16:01.717,0.538684,5.01087,9.08794,-0.0691021,-0.111251,0.0638335,0
2024-12-13 15:16:01.720,0.533899,5.0013,9.13101,-0.0678804,-0.112472,0.0607793,0
2024-12-13 15:16:01.724,0.538684,4.9678,9.15494,-0.0666587,-0.119802,0.0577251,0
2024-12-13 15:16:01.727,0.521934,4.95583,9.1693,-0.0691021,-0.127133,0.0503949,0
2024-12-13 15:16:01.731,0.521934,4.91276,9.18844,-0.065437,-0.128965,0.0448973,0
2024-12-13 15:16:01.734,0.505185,4.87687,9.17647,-0.0660479,-0.125911,0.0436756,0
2024-12-13 15:16:01.738,0.483649,4.84098,9.17408,-0.0629936,-0.119192,0.0393996,0
2024-12-13 15:16:01.741,0.464507,4.79312,9.18605,-0.0629936,-0.119192,0.0393996,0
2024-12-13 15:16:01.745,0.428614,4.7354,9.2339,-0.0593285,-0.104531,0.0387888,0
2024-12-13 15:16:01.750,0.457328,4.69711,9.30599,-0.0556635,-0.0843733,0.0387888,0
2024-12-13 15:16:01.753,0.457328,4.69711,9.36102,-0.0367272,-0.0660479,0.0363454,0
2024-12-13 15:16:01.756,0.469292,4.64925,9.03051,-0.0238994,-0.0422248,0.0351237,0
2024-12-13 15:16:01.757,0.519542,4.65404,8.44158,-0.0238994,-0.0422248,0.0351237,0
2024-12-13 15:16:01.757,0.519542,4.65404,8.44158,-0.0238994,-0.0422248,0.0351237,0
2024-12-13 15:16:01.757,0.519542,4.65404,8.44158,-0.0238994,-0.0422248,0.0351237,0
2024-12-13 15:16:01.757,0.519542,4.65404,8.44158,-0.0238994,-0.0422248,0.0351237,0
2024-12-13 15:16:01.757,0.519542,4.65404,8.44158,-0.0238994,-0.0422248,0.0351237,0
2024-12-13 15:16:01.776,0.519542,4.62772,9.19801,0.0500131,0.0457372,0.0161875,0
2024-12-13 15:16:01.776,0.519542,4.62772,9.19801,0.0500131,0.0457372,0.0161875,0
2024-12-13 15:16:01.776,0.519542,4.62772,9.19801,0.0500131,0.0457372,0.0161875,0
2024-12-13 15:16:01.793,0.732503,4.90559,9.74148,0.142251,0.102546,-0.00763559,0
2024-12-13 15:16:01.795,0.854836,4.95344,9.76062,0.142251,0.102546,-0.00763559,0
2024-12-13 15:16:01.800,1.01755,5.05155,9.82074,0.169739,0.086664,-0.0186308,0
2024-12-13 15:16:01.800,1.01755,5.05155,9.82074,0.169739,0.086664,-0.0186308,0
2024-12-13 15:16:01.800,1.01755,5.05155,9.82074,0.169739,0.086664,-0.0186308,0
2024-12-13 15:16:01.814,1.25922,5.25733,9.87099,0.211888,0.0701711,-0.0455081,0
2024-12-13 15:16:01.816,1.25444,5.27169,9.83988,0.216164,0.0781121,-0.0503949,0
2024-12-13 15:16:01.818,1.25444,5.27169,9.8351,0.216164,0.0781121,-0.0503949,0
2024-12-13 15:16:01.823,1.13719,5.28365,9.69841,0.222272,0.109265,-0.0552817,0
2024-12-13 15:16:01.826,1.06062,5.26929,9.69841,0.222883,0.14897,-0.0595576,0
2024-12-13 15:16:01.831,0.914656,5.20947,9.15494,0.211277,0.204557,-0.0656661,0
2024-12-13 15:16:01.833,0.816252,5.15444,8.99941,0.211277,0.204557,-0.0656661,0
2024-12-13 15:16:01.837,0.617647,5.05873,8.69043,0.197838,0.239987,-0.0632227,0
2024-12-13 15:16:01.840,0.524327,5.01805,8.49422,0.180124,0.248538,-0.0522274,0
2024-12-13 15:16:01.840,0.524327,5.01805,8.49422,0.180124,0.248538,-0.0522274,0
2024-12-13 15:16:01.840,0.524327,5.01805,8.49422,0.180124,0.248538,-0.0522274,0
2024-12-13 15:16:01.840,0.524327,5.01805,8.49422,0.180124,0.248538,-0.0522274,0
2024-12-13 15:16:01.840,0.524327,5.01805,8.49422,0.180124,0.248538,-0.0522274,0
2024-12-13 15:16:01.840,0.524327,5.01805,8.49422,0.180124,0.248538,-0.0522274,0
2024-12-13 15:16:01.840,0.524327,5.01805,8.49422,0.180124,0.248538,-0.0522274,0
2024-12-13 15:16:01.840,0.524327,5.01805,8.49422,0.180124,0.248538,-0.0522274,0
2024-12-13 15:16:01.840,0.524327,5.01805,8.49422,0.180124,0.248538,-0.0522274,0
2024-12-13 15:16:01.840,0.524327,5.01805,8.49422,0.180124,0.248538,-0.0522274,0
2024-12-13 15:16:01.840,0.524327,5.01805,8.49422,0.180124,0.248538,-0.0522274,0
2024-12-13 15:16:01.840,0.524327,5.01805,8.49422,0.180124,0.248538,-0.0522274,0
2024-12-13 15:16:01.840,0.524327,5.01805,8.49422,0.180124,0.248538,-0.0522274,0
2024-12-13 15:16:01.840,0.524327,5.01805,8.49422,0.180124,0.248538,-0.0522274,0
2024-12-13 15:16:01.840,0.524327,5.01805,8.49422,0.180124,0.248538,-0.0522274,0
2024-12-13 15:16:01.840,0.524327,5.01805,8.49422,0.180124,0.248538,-0.0522274,0
2024-12-13 15:16:01.840,0.524327,5.01805,8.49422,0.180124,0.248538,-0.0522274,0
2024-12-13 15:16:01.840,0.524327,5.01805,8.49422,0.180124,0.248538,-0.0522274,0
2024-12-13 15:16:01.840,0.524327,5.01805,8.49422,0.180124,0.248538,-0.0522274,0
2024-12-13 15:16:01.840,0.524327,5.01805,8.49422,0.180124,0.248538,-0.0522274,0
2024-12-13 15:16:01.840,0.524327,5.01805,8.49422,0.180124,0.248538,-0.0522274,0
2024-12-13 15:16:01.840,0.524327,5.01805,8.49422,0.180124,0.248538,-0.0522274,0
2024-12-13 15:16:01.840,0.524327,5.01805,8.49422,0.180124,0.248538,-0.0522274,0
2024-12-13 15:16:01.840,0.524327,5.01805,8.49422,0.180124,0.248538,-0.0522274,0
2024-12-13 15:16:01.840,0.524327,5.01805,8.49422,0.180124,0.248538,-0.0522274,0
2024-12-13 15:16:01.840,0.524327,5.01805,8.49422,0.180124,0.248538,-0.0522274,0
2024-12-13 15:16:01.840,0.524327,5.01805,8.49422,0.180124,0.248538,-0.0522274,0
2024-12-13 15:16:01.840,0.524327,5.01805,8.49422,0.180124,0.248538,-0.0522274,0
2024-12-13 15:16:01.840,0.524327,5.01805,8.49422,0.180124,0.248538,-0.0522274,0
2024-12-13 15:16:01.840,0.524327,5.01805,8.49422,0.180124,0.248538,-0.0522274,0
2024-12-13 15:16:01.840,0.524327,5.01805,8.49422,0.180124,0.248538,-0.0522274,0
2024-12-13 15:16:01.840,0.524327,5.01805,8.49422,0.180124,0.248538,-0.0522274,0
2024-12-13 15:16:01.840,0.524327,5.01805,8.49422,0.180124,0.248538,-0.0522274,0
2024-12-13 15:16:01.840,0.524327,5.01805,8.49422,0.180124,0.248538,-0.0522274,0
2024-12-13 15:16:01.840,0.524327,5.01805,8.49422,0.180124,0.248538,-0.0522274,0
2024-12-13 15:16:01.840,0.524327,5.01805,8.49422,0.180124,0.248538,-0.0522274,0
2024-12-13 15:16:01.840,0.524327,5.01805,8.49422,0.180124,0.248538,-0.0522274,0
2024-12-13 15:16:01.840,0.524327,5.01805,8.49422,0.180124,0.248538,-0.0522274,0
2024-12-13 15:16:01.840,0.524327,5.01805,8.49422,0.180124,0.248538,-0.0522274,0
2024-12-13 15:16:01.840,0.524327,5.01805,8.49422,0.180124,0.248538,-0.0522274,0
2024-12-13 15:16:01.840,0.524327,5.01805,8.49422,0.180124,0.248538,-0.0522274,0
2024-12-13 15:16:01.840,0.524327,5.01805,8.49422,0.180124,0.248538,-0.0522274,0
2024-12-13 15:16:01.840,0.524327,5.01805,8.49422,0.180124,0.248538,-0.0522274,0
2024-12-13 15:16:01.840,0.524327,5.01805,8.49422,0.180124,0.248538,-0.0522274,0
2024-12-13 15:16:01.840,0.524327,5.01805,8.49422,0.180124,0.248538,-0.0522274,0
2024-12-13 15:16:01.840,0.524327,5.01805,8.49422,0.180124,0.248538,-0.0522274,0
2024-12-13 15:16:01.840,0.524327,5.01805,8.49422,0.180124,0.248538,-0.0522274,0
2024-12-13 15:16:01.840,0.524327,5.01805,8.49422,0.180124,0.248538,-0.0522274,0
2024-12-13 15:16:01.840,0.524327,5.01805,8.49422,0.180124,0.248538,-0.0522274,0
2024-12-13 15:16:01.840,0.524327,5.01805,8.49422,0.180124,0.248538,-0.0522274,0
2024-12-13 15:16:01.840,0.524327,5.01805,8.49422,0.180124,0.248538,-0.0522274,0
2024-12-13 15:16:01.840,0.524327,5.01805,8.49422,0.180124,0.248538,-0.0522274,0
2024-12-13 15:16:01.840,0.524327,5.01805,8.49422,0.180124,0.248538,-0.0522274,0
2024-12-13 15:16:01.840,0.524327,5.01805,8.49422,0.180124,0.248538,-0.0522274,0
2024-12-13 15:16:01.840,0.524327,5.01805,8.49422,0.180124,0.248538,-0.0522274,0
2024-12-13 15:16:01.840,0.524327,5.01805,8.49422,0.180124,0.248538,-0.0522274,0
2024-12-13 15:16:01.840,0.524327,5.01805,8.49422,0.180124,0.248538,-0.0522274,0
2024-12-13 15:16:01.840,0.524327,5.01805,8.49422,0.180124,0.248538,-0.0522274,0
2024-12-13 15:16:01.840,0.524327,5.01805,8.49422,0.180124,0.248538,-0.0522274,0
2024-12-13 15:16:01.840,0.524327,5.01805,8.49422,0.180124,0.248538,-0.0522274,0
2024-12-13 15:16:01.840,0.524327,5.01805,8.49422,0.180124,0.248538,-0.0522274,0
2024-12-13 15:16:01.840,0.524327,5.01805,8.49422,0.180124,0.248538,-0.0522274,0
2024-12-13 15:16:01.840,0.524327,5.01805,8.49422,0.180124,0.248538,-0.0522274,0
2024-12-13 15:16:01.840,0.524327,5.01805,8.49422,0.180124,0.248538,-0.0522274,0
2024-12-13 15:16:01.840,0.524327,5.01805,8.49422,0.180124,0.248538,-0.0522274,0
2024-12-13 15:16:01.840,0.524327,5.01805,8.49422,0.180124,0.248538,-0.0522274,0
2024-12-13 15:16:01.840,0.524327,5.01805,8.49422,0.180124,0.248538,-0.0522274,0
2024-12-13 15:16:01.840,0.524327,5.01805,8.49422,0.180124,0.248538,-0.0522274,0
2024-12-13 15:16:01.840,0.524327,5.01805,8.49422,0.180124,0.248538,-0.0522274,0
2024-12-13 15:16:01.840,0.524327,5.01805,8.49422,0.180124,0.248538,-0.0522274,0
2024-12-13 15:16:01.840,0.524327,5.01805,8.49422,0.180124,0.248538,-0.0522274,0
2024-12-13 15:16:01.840,0.524327,5.01805,8.49422,0.180124,0.248538,-0.0522274,0
2024-12-13 15:16:01.840,0.524327,5.01805,8.49422,0.180124,0.248538,-0.0522274,0
2024-12-13 15:16:01.840,0.524327,5.01805,8.49422,0.180124,0.248538,-0.0522274,0
2024-12-13 15:16:01.840,0.524327,5.01805,8.49422,0.180124,0.248538,-0.0522274,0
2024-12-13 15:16:01.840,0.524327,5.01805,8.49422,0.180124,0.248538,-0.0522274,0
2024-12-13 15:16:01.840,0.524327,5.01805,8.49422,0.180124,0.248538,-0.0522274,0
2024-12-13 15:16:01.840,0.524327,5.01805,8.49422,0.180124,0.248538,-0.0522274,0
2024-12-13 15:16:01.840,0.524327,5.01805,8.49422,0.180124,0.248538,-0.0522274,0
2024-12-13 15:16:01.840,0.524327,5.01805,8.49422,0.180124,0.248538,-0.0522274,0
2024-12-13 15:16:01.840,0.524327,5.01805,8.49422,0.180124,0.248538,-0.0522274,0
2024-12-13 15:16:01.840,0.524327,5.01805,8.49422,0.180124,0.248538,-0.0522274,0
2024-12-13 15:16:01.840,0.524327,5.01805,8.49422,0.180124,0.248538,-0.0522274,0
2024-12-13 15:16:01.840,0.524327,5.01805,8.49422,0.180124,0.248538,-0.0522274,0
2024-12-13 15:16:01.840,0.524327,5.01805,8.49422,0.180124,0.248538,-0.0522274,0
2024-12-13 15:16:01.840,0.524327,5.01805,8.49422,0.180124,0.248538,-0.0522274,0
2024-12-13 15:16:01.840,0.524327,5.01805,8.49422,0.180124,0.248538,-0.0522274,0
2024-12-13 15:16:01.840,0.524327,5.01805,8.49422,0.180124,0.248538,-0.0522274,0
2024-12-13 15:16:01.840,0.524327,5.01805,8.49422,0.180124,0.248538,-0.0522274,0
2024-12-13 15:16:01.840,0.524327,5.01805,8.49422,0.180124,0.248538,-0.0522274,0
2024-12-13 15:16:01.840,0.524327,5.01805,8.49422,0.180124,0.248538,-0.0522274,0
2024-12-13 15:16:01.840,0.524327,5.01805,8.49422,0.180124,0.248538,-0.0522274,0
2024-12-13 15:16:01.840,0.524327,5.01805,8.49422,0.180124,0.248538,-0.0522274,0
2024-12-13 15:16:01.840,0.524327,5.01805,8.49422,0.180124,0.248538,-0.0522274,0
2024-12-13 15:16:01.840,0.524327,5.01805,8.49422,0.180124,0.248538,-0.0522274,0
2024-12-13 15:16:01.840,0.524327,5.01805,8.49422,0.180124,0.248538,-0.0522274,0
2024-12-13 15:16:01.840,0.524327,5.01805,8.49422,0.180124,0.248538,-0.0522274,0
2024-12-13 15:16:01.840,0.524327,5.01805,8.49422,0.180124,0.248538,-0.0522274,0
2024-12-13 15:16:01.840,0.524327,5.01805,8.49422,0.180124,0.248538,-0.0522274,0
2024-12-13 15:16:01.840,0.524327,5.01805,8.49422,0.180124,0.248538,-0.0522274,0
2024-12-13 15:16:01.840,0.524327,5.01805,8.49422,0.180124,0.248538,-0.0522274,0
2024-12-13 15:16:01.840,0.524327,5.01805,8.49422,0.180124,0.248538,-0.0522274,0
2024-12-13 15:16:01.840,0.524327,5.01805,8.49422,0.180124,0.248538,-0.0522274,0
2024-12-13 15:16:01.840,0.524327,5.01805,8.49422,0.180124,0.248538,-0.0522274,0
2024-12-13 15:16:01.840,0.524327,5.01805,8.49422,0.180124,0.248538,-0.0522274,0
2024-12-13 15:16:01.840,0.524327,5.01805,8.49422,0.180124,0.248538,-0.0522274,0
2024-12-13 15:16:01.840,0.524327,5.01805,8.49422,0.180124,0.248538,-0.0522274,0
2024-12-13 15:16:01.840,0.524327,5.01805,8.49422,0.180124,0.248538,-0.0522274,0
2024-12-13 15:16:01.840,0.524327,5.01805,8.49422,0.180124,0.248538,-0.0522274,0
2024-12-13 15:16:01.840,0.524327,5.01805,8.49422,0.180124,0.248538,-0.0522274,0
2024-12-13 15:16:01.840,0.524327,5.01805,8.49422,0.180124,0.248538,-0.0522274,0
2024-12-13 15:16:01.840,0.524327,5.01805,8.49422,0.180124,0.248538,-0.0522274,0
2024-12-13 15:16:01.840,0.524327,5.01805,8.49422,0.180124,0.248538,-0.0522274,0
2024-12-13 15:16:01.840,0.524327,5.01805,8.49422,0.180124,0.248538,-0.0522274,0
2024-12-13 15:16:01.840,0.524327,5.01805,8.49422,0.180124,0.248538,-0.0522274,0
2024-12-13 15:16:01.840,0.524327,5.01805,8.49422,0.180124,0.248538,-0.0522274,0
2024-12-13 15:16:01.840,0.524327,5.01805,8.49422,0.180124,0.248538,-0.0522274,0
2024-12-13 15:16:01.840,0.524327,5.01805,8.49422,0.180124,0.248538,-0.0522274,0
