timestamp,accel_x,accel_y,accel_z,gyro_x,gyro_y,gyro_z,step_timestamp
2024-12-13 15:19:00.042,-0.0765703,3.22971,9.94517,0.00358873,0.0170274,-0.085824,0
2024-12-13 15:19:00.042,-0.0765703,3.22971,9.94517,0.00358873,0.0170274,-0.085824,0
2024-12-13 15:19:00.042,-0.0765703,3.22971,9.94517,0.00358873,0.0170274,-0.085824,0
2024-12-13 15:19:00.042,-0.0765703,3.22971,9.94517,0.00358873,0.0170274,-0.085824,0
2024-12-13 15:19:00.042,-0.0765703,3.22971,9.94517,0.00358873,0.0170274,-0.085824,0
2024-12-13 15:19:00.042,-0.0765703,3.22971,9.94517,0.00358873,0.0170274,-0.085824,0
2024-12-13 15:19:00.042,-0.0765703,3.22971,9.94517,0.00358873,0.0170274,-0.085824,0
2024-12-13 15:19:00.042,-0.0765703,3.22971,9.94517,0.00358873,0.0170274,-0.085824,0
2024-12-13 15:19:00.042,-0.0765703,3.22971,9.94517,0.00358873,0.0170274,-0.085824,0
2024-12-13 15:19:00.042,-0.0765703,3.22971,9.94517,0.00358873,0.0170274,-0.085824,0
2024-12-13 15:19:00.042,-0.0765703,3.22971,9.94517,0.00358873,0.0170274,-0.085824,0
2024-12-13 15:19:00.042,-0.0765703,3.22971,9.94517,0.00358873,0.0170274,-0.085824,0
2024-12-13 15:19:00.042,-0.0765703,3.22971,9.94517,0.00358873,0.0170274,-0.085824,0
2024-12-13 15:19:00.042,-0.0765703,3.22971,9.94517,0.00358873,0.0170274,-0.085824,0
2024-12-13 15:19:00.042,-0.0765703,3.22971,9.94517,0.00358873,0.0170274,-0.085824,0
2024-12-13 15:19:00.042,-0.0765703,3.22971,9.94517,0.00358873,0.0170274,-0.085824,0
2024-12-13 15:19:00.042,-0.0765703,3.22971,9.94517,0.00358873,0.0170274,-0.085824,0
2024-12-13 15:19:00.042,-0.0765703,3.22971,9.94517,0.00358873,0.0170274,-0.085824,0
2024-12-13 15:19:00.042,-0.0765703,3.22971,9.94517,0.00358873,0.0170274,-0.085824,0
2024-12-13 15:19:00.042,-0.0765703,3.22971,9.94517,0.00358873,0.0170274,-0.085824,0
2024-12-13 15:19:00.042,-0.0765703,3.22971,9.94517,0.00358873,0.0170274,-0.085824,0
2024-12-13 15:19:00.042,-0.0765703,3.22971,9.94517,0.00358873,0.0170274,-0.085824,0
2024-12-13 15:19:00.042,-0.0765703,3.22971,9.94517,0.00358873,0.0170274,-0.085824,0
2024-12-13 15:19:00.042,-0.0765703,3.22971,9.94517,0.00358873,0.0170274,-0.085824,0
2024-12-13 15:19:00.042,-0.0765703,3.22971,9.94517,0.00358873,0.0170274,-0.085824,0
2024-12-13 15:19:00.042,-0.0765703,3.22971,9.94517,0.00358873,0.0170274,-0.085824,0
2024-12-13 15:19:00.042,-0.0765703,3.22971,9.94517,0.00358873,0.0170274,-0.085824,0
2024-12-13 15:19:00.042,-0.0765703,3.22971,9.94517,0.00358873,0.0170274,-0.085824,0
2024-12-13 15:19:00.042,-0.0765703,3.22971,9.94517,0.00358873,0.0170274,-0.085824,0
2024-12-13 15:19:00.042,-0.0765703,3.22971,9.94517,0.00358873,0.0170274,-0.085824,0
2024-12-13 15:19:00.042,-0.0765703,3.22971,9.94517,0.00358873,0.0170274,-0.085824,0
2024-12-13 15:19:00.042,-0.0765703,3.22971,9.94517,0.00358873,0.0170274,-0.085824,0
2024-12-13 15:19:00.042,-0.0765703,3.22971,9.94517,0.00358873,0.0170274,-0.085824,0
2024-12-13 15:19:00.042,-0.0765703,3.22971,9.94517,0.00358873,0.0170274,-0.085824,0
2024-12-13 15:19:00.042,-0.0765703,3.22971,9.94517,0.00358873,0.0170274,-0.085824,0
2024-12-13 15:19:00.042,-0.0765703,3.22971,9.94517,0.00358873,0.0170274,-0.085824,0
2024-12-13 15:19:00.042,-0.0765703,3.22971,9.94517,0.00358873,0.0170274,-0.085824,0
2024-12-13 15:19:00.042,-0.0765703,3.22971,9.94517,0.00358873,0.0170274,-0.085824,0
2024-12-13 15:19:00.059,-0.112463,3.25603,9.67448,0.0310769,0.0298552,-0.0412322,0
2024-12-13 15:19:00.059,-0.112463,3.25603,9.67448,0.0310769,0.0298552,-0.0412322,0
2024-12-13 15:19:00.059,-0.112463,3.25603,9.67448,0.0310769,0.0298552,-0.0412322,0
2024-12-13 15:19:00.061,-0.081356,3.26321,9.63859,0.0286335,0.0292443,-0.0369563,0
2024-12-13 15:19:00.061,-0.081356,3.26321,9.63859,0.0286335,0.0292443,-0.0369563,0
2024-12-13 15:19:00.061,-0.081356,3.26321,9.63859,0.0286335,0.0292443,-0.0369563,0
2024-12-13 15:19:00.061,-0.081356,3.26321,9.63859,0.0286335,0.0292443,-0.0369563,0
2024-12-13 15:19:00.061,-0.081356,3.26321,9.63859,0.0286335,0.0292443,-0.0369563,0
2024-12-13 15:19:00.064,-0.0646062,3.28475,9.59313,0.0286335,0.0292443,-0.0369563,0
2024-12-13 15:19:00.068,-0.0215354,3.3015,9.53091,0.0292443,0.0292443,-0.0296261,0
2024-12-13 15:19:00.071,0.00957129,3.30868,9.51416,0.0292443,0.0280226,-0.0290152,0
2024-12-13 15:19:00.071,0.00957129,3.30868,9.51416,0.0292443,0.0280226,-0.0290152,0
2024-12-13 15:19:00.071,0.00957129,3.30868,9.51416,0.0292443,0.0280226,-0.0290152,0
2024-12-13 15:19:00.073,0.00957129,3.30628,9.49263,0.0280226,0.0298552,-0.0308478,0
2024-12-13 15:19:00.073,0.00957129,3.30628,9.49263,0.0280226,0.0298552,-0.0308478,0
2024-12-13 15:19:00.073,0.00957129,3.30628,9.49263,0.0280226,0.0298552,-0.0308478,0
2024-12-13 15:19:00.073,0.00957129,3.30628,9.49263,0.0280226,0.0298552,-0.0308478,0
2024-12-13 15:19:00.075,0.0167498,3.31825,9.48784,0.0286335,0.0298552,-0.0302369,0
2024-12-13 15:19:00.075,0.0167498,3.31825,9.48784,0.0286335,0.0298552,-0.0302369,0
2024-12-13 15:19:00.075,0.0167498,3.31825,9.48784,0.0286335,0.0298552,-0.0302369,0
2024-12-13 15:19:00.078,0.0502493,3.32064,9.45913,0.0274118,0.0322986,-0.0290152,0
2024-12-13 15:19:00.078,0.0502493,3.32064,9.45913,0.0274118,0.0322986,-0.0290152,0
2024-12-13 15:19:00.078,0.0502493,3.32064,9.45913,0.0274118,0.0322986,-0.0290152,0
2024-12-13 15:19:00.080,0.066999,3.32303,9.4352,0.0286335,0.0335202,-0.0302369,0
2024-12-13 15:19:00.080,0.066999,3.32303,9.4352,0.0286335,0.0335202,-0.0302369,0
2024-12-13 15:19:00.082,0.066999,3.33739,9.42323,0.0249684,0.0335202,-0.0332912,0
2024-12-13 15:19:00.082,0.0909273,3.33739,9.42323,0.0249684,0.0335202,-0.0332912,0
2024-12-13 15:19:00.082,0.0909273,3.33739,9.42323,0.0249684,0.0335202,-0.0332912,0
2024-12-13 15:19:00.082,0.0909273,3.33739,9.42323,0.0249684,0.0335202,-0.0332912,0
2024-12-13 15:19:00.082,0.0909273,3.33739,9.42323,0.0249684,0.0335202,-0.0332912,0
2024-12-13 15:19:00.085,0.105284,3.33978,9.41127,0.0255792,0.030466,-0.0363454,0
2024-12-13 15:19:00.085,0.105284,3.33978,9.41127,0.0255792,0.030466,-0.0363454,0
2024-12-13 15:19:00.085,0.105284,3.33978,9.41127,0.0255792,0.030466,-0.0363454,0
2024-12-13 15:19:00.087,0.107677,3.33978,9.41845,0.0231358,0.0286335,-0.0387888,0
2024-12-13 15:19:00.087,0.107677,3.33978,9.41845,0.0231358,0.0286335,-0.0387888,0
2024-12-13 15:19:00.089,0.114855,3.34696,9.42084,0.022525,0.0255792,-0.0430647,0
2024-12-13 15:19:00.089,0.114855,3.34696,9.42084,0.022525,0.0255792,-0.0430647,0
2024-12-13 15:19:00.089,0.114855,3.34696,9.42084,0.022525,0.0255792,-0.0430647,0
2024-12-13 15:19:00.089,0.114855,3.34696,9.42084,0.022525,0.0255792,-0.0430647,0
2024-12-13 15:19:00.092,0.129212,3.34935,9.41606,0.0188599,0.0206925,-0.0442864,0
2024-12-13 15:19:00.092,0.129212,3.34935,9.41606,0.0188599,0.0206925,-0.0442864,0
2024-12-13 15:19:00.094,0.129212,3.35892,9.42563,0.0158057,0.0139731,-0.0497841,0
2024-12-13 15:19:00.096,0.11007,3.34696,9.42802,0.014584,0.00908635,-0.0528383,0
2024-12-13 15:19:00.099,0.107677,3.34696,9.44238,0.0151948,0.00542127,-0.0558925,0
2024-12-13 15:19:00.101,0.105284,3.36371,9.47109,0.0164165,0.00419957,-0.0571142,0
2024-12-13 15:19:00.104,0.0861416,3.34935,9.48784,0.0164165,0.00542127,-0.0583359,0
2024-12-13 15:19:00.106,0.0837488,3.34696,9.48784,0.0200816,0.00725381,-0.0626118,0
2024-12-13 15:19:00.108,0.0837488,3.35175,9.47827,0.0231358,0.00847551,-0.0613902,0
2024-12-13 15:19:00.113,0.0454636,3.33978,9.41127,0.0249684,0.014584,-0.0644444,0
2024-12-13 15:19:00.115,0.0358923,3.33978,9.38256,0.0298552,0.0170274,-0.0632227,0
2024-12-13 15:19:00.115,0.0358923,3.33978,9.38256,0.0298552,0.0170274,-0.0632227,0
2024-12-13 15:19:00.118,0.0239282,3.34457,9.36341,0.0310769,0.0188599,-0.0638335,0
2024-12-13 15:19:00.120,-0.00239282,3.32303,9.32992,0.0329094,0.0200816,-0.0638335,0
2024-12-13 15:19:00.122,-0.0358923,3.32303,9.27966,0.0310769,0.0158057,-0.0632227,0
2024-12-13 15:19:00.125,-0.0598206,3.36132,9.22912,0.0298552,0.0133623,-0.0613902,0
2024-12-13 15:19:00.127,-0.0741775,3.37807,9.2028,0.0261901,0.00908635,-0.0607793,0
2024-12-13 15:19:00.129,-0.0909273,3.37089,9.17647,0.0237467,0.00603212,-0.0607793,0
2024-12-13 15:19:00.132,-0.11007,3.36371,9.13819,0.0200816,0.00297788,-0.0583359,0
2024-12-13 15:19:00.134,-0.131605,3.3685,9.12144,0.0158057,-0.0019089,-0.0552817,0
2024-12-13 15:19:00.137,-0.145962,3.37567,9.08794,0.0139731,-0.00740652,-0.0534491,0
2024-12-13 15:19:00.141,-0.150748,3.39242,9.05683,0.00847551,-0.0110716,-0.05406,0
2024-12-13 15:19:00.146,-0.0981057,3.40917,9.05923,-0.00679568,-0.0281753,-0.0455081,0
2024-12-13 15:19:00.146,-0.0981057,3.40917,9.05923,-0.00679568,-0.0281753,-0.0455081,0
2024-12-13 15:19:00.148,-0.0789631,3.3996,9.0688,-0.013515,-0.0318404,-0.0455081,0
2024-12-13 15:19:00.148,-0.0789631,3.3996,9.0688,-0.013515,-0.0318404,-0.0455081,0
2024-12-13 15:19:00.151,-0.0693919,3.40439,9.06641,-0.0184018,-0.0385597,-0.0448973,0
2024-12-13 15:19:00.153,-0.0454636,3.42114,9.07358,-0.0263428,-0.041614,-0.046119,0
2024-12-13 15:19:00.155,-0.0191426,3.40917,9.0999,-0.0342838,-0.0477224,-0.0479515,0
2024-12-13 15:19:00.158,0.0,3.39003,9.1334,-0.0391706,-0.0458899,-0.0491732,0
2024-12-13 15:19:00.160,0.0143569,3.3996,9.15733,-0.041614,-0.0452791,-0.0510057,0
2024-12-13 15:19:00.162,0.040678,3.3996,9.18605,-0.0440574,-0.0452791,-0.05406,0
2024-12-13 15:19:00.165,0.0622134,3.38764,9.21476,-0.0519984,-0.0434465,-0.0546708,0
2024-12-13 15:19:00.167,0.0646062,3.37567,9.24587,-0.0544418,-0.0428357,-0.0589468,0
2024-12-13 15:19:00.169,0.0574277,3.35892,9.27249,-0.0550526,-0.041614,-0.0601685,0
2024-12-13 15:19:00.172,0.0622134,3.35175,9.31077,-0.0587177,-0.0397814,-0.062001,0
2024-12-13 15:19:00.174,0.066999,3.35175,9.35384,-0.0599394,-0.0391706,-0.0656661,0
2024-12-13 15:19:00.177,0.0693919,3.3661,9.38495,-0.0617719,-0.0422248,-0.0674986,0
2024-12-13 15:19:00.179,0.0574277,3.35414,9.42084,-0.0642153,-0.0422248,-0.069942,0
2024-12-13 15:19:00.181,0.0526421,3.34696,9.44956,-0.0666587,-0.0428357,-0.0711637,0
2024-12-13 15:19:00.184,0.0574277,3.35653,9.48784,-0.0642153,-0.0440574,-0.0754396,0
2024-12-13 15:19:00.186,0.0502493,3.35175,9.53091,-0.0636045,-0.0452791,-0.0760505,0
2024-12-13 15:19:00.191,0.0287139,3.32782,9.5668,-0.0642153,-0.0471116,-0.0772722,0
2024-12-13 15:19:00.191,0.0287139,3.32782,9.5668,-0.0642153,-0.0471116,-0.0772722,0
2024-12-13 15:19:00.193,0.0191426,3.31107,9.6003,-0.0581068,-0.0440574,-0.0772722,0
2024-12-13 15:19:00.195,0.00239282,3.3015,9.62184,-0.0556635,-0.0452791,-0.0766613,0
2024-12-13 15:19:00.198,-0.0215354,3.30868,9.6362,-0.0544418,-0.0452791,-0.0766613,0
2024-12-13 15:19:00.200,-0.0311067,3.3015,9.64337,-0.0513875,-0.0465007,-0.0760505,0
2024-12-13 15:19:00.202,-0.0358923,3.29671,9.66012,-0.0501658,-0.0489441,-0.0729962,0
2024-12-13 15:19:00.206,-0.0502493,3.2991,9.67209,-0.0477224,-0.0532201,-0.0717745,0
2024-12-13 15:19:00.210,-0.0574277,3.29432,9.68884,-0.0428357,-0.0532201,-0.0687203,0
2024-12-13 15:19:00.212,-0.0598206,3.29193,9.68405,-0.0428357,-0.0526092,-0.0650552,0
2024-12-13 15:19:00.219,-0.0933201,3.28475,9.67209,-0.0348946,-0.0550526,-0.0583359,0
2024-12-13 15:19:00.219,-0.0933201,3.28475,9.67209,-0.0348946,-0.0550526,-0.0583359,0
2024-12-13 15:19:00.224,-0.0933201,3.2991,9.6697,-0.0300079,-0.0519984,-0.0546708,0
2024-12-13 15:19:00.226,-0.0909273,3.31346,9.66012,-0.0306187,-0.0477224,-0.0522274,0
2024-12-13 15:19:00.226,-0.0909273,3.31346,9.66012,-0.0306187,-0.0477224,-0.0522274,0
2024-12-13 15:19:00.226,-0.0909273,3.31346,9.66012,-0.0306187,-0.0477224,-0.0522274,0
2024-12-13 15:19:00.228,-0.0933201,3.2991,9.6362,-0.029397,-0.0483333,-0.0491732,0
2024-12-13 15:19:00.229,-0.0933201,3.2991,9.6362,-0.029397,-0.0483333,-0.0491732,0
2024-12-13 15:19:00.233,-0.100499,3.3015,9.62902,-0.029397,-0.0458899,-0.0467298,0
2024-12-13 15:19:00.233,-0.100499,3.3015,9.62902,-0.029397,-0.0458899,-0.0467298,0
2024-12-13 15:19:00.235,-0.112463,3.31585,9.61945,-0.0287862,-0.0465007,-0.0436756,0
2024-12-13 15:19:00.238,-0.105284,3.31825,9.60987,-0.0324513,-0.0477224,-0.0436756,0
2024-12-13 15:19:00.240,-0.100499,3.31346,9.60509,-0.033673,-0.049555,-0.0424539,0
2024-12-13 15:19:00.243,-0.100499,3.33021,9.60748,-0.0330621,-0.0507767,-0.0424539,0
2024-12-13 15:19:00.245,-0.0861416,3.3326,9.62423,-0.033673,-0.0501658,-0.0412322,0
2024-12-13 15:19:00.250,-0.0646062,3.32782,9.65295,-0.0330621,-0.0538309,-0.0424539,0
2024-12-13 15:19:00.257,-0.0526421,3.2991,9.71755,-0.0324513,-0.0599394,-0.0448973,0
2024-12-13 15:19:00.257,-0.0526421,3.2991,9.71755,-0.0324513,-0.0599394,-0.0448973,0
2024-12-13 15:19:00.259,-0.0454636,3.3015,9.73909,-0.0324513,-0.0623828,-0.046119,0
2024-12-13 15:19:00.259,-0.0454636,3.3015,9.73909,-0.0324513,-0.0623828,-0.046119,0
2024-12-13 15:19:00.261,-0.0334995,3.27996,9.75584,-0.0300079,-0.0678804,-0.046119,0
2024-12-13 15:19:00.261,-0.0334995,3.27996,9.75584,-0.0300079,-0.0678804,-0.046119,0
2024-12-13 15:19:00.268,-0.00478565,3.24885,9.81566,-0.0226777,-0.077654,-0.0491732,0
2024-12-13 15:19:00.271,0.00478565,3.24407,9.84228,-0.0226777,-0.077654,-0.0491732,0
2024-12-13 15:19:00.278,0.0358923,3.22732,9.88056,-0.00740652,-0.0745997,-0.0534491,0
2024-12-13 15:19:00.280,0.0430708,3.22253,9.88296,-0.00740652,-0.0745997,-0.0534491,0
2024-12-13 15:19:00.287,0.0382852,3.19621,9.83031,0.0133623,-0.0550526,-0.0522274,0
2024-12-13 15:19:00.290,0.0287139,3.19621,9.80848,0.0170274,-0.0471116,-0.0522274,0
2024-12-13 15:19:00.292,0.0119641,3.19143,9.78455,0.0219141,-0.0422248,-0.0522274,0
2024-12-13 15:19:00.294,0.00239282,3.19382,9.74627,0.0261901,-0.0355055,-0.0516166,0
2024-12-13 15:19:00.297,-0.00957129,3.201,9.70319,0.0261901,-0.0355055,-0.0516166,0
2024-12-13 15:19:00.299,-0.0311067,3.21057,9.65055,0.0322986,-0.0263428,-0.0491732,0
2024-12-13 15:19:00.308,-0.026321,3.22732,9.46631,0.0329094,-0.0202343,-0.0436756,0
2024-12-13 15:19:00.311,-0.0215354,3.24646,9.42084,0.0322986,-0.0208452,-0.046119,0
2024-12-13 15:19:00.313,-0.0191426,3.25603,9.37538,0.0292443,-0.0226777,-0.0442864,0
2024-12-13 15:19:00.316,-0.00239282,3.25364,9.33949,0.0261901,-0.0238994,-0.0448973,0
2024-12-13 15:19:00.316,-0.00239282,3.25364,9.33949,0.0261901,-0.0238994,-0.0448973,0
2024-12-13 15:19:00.318,0.00957129,3.25843,9.30838,0.0237467,-0.0232886,-0.0455081,0
2024-12-13 15:19:00.320,0.0239282,3.24885,9.29163,0.0213033,-0.021456,-0.0455081,0
2024-12-13 15:19:00.320,0.0239282,3.24885,9.29163,0.0213033,-0.021456,-0.0455081,0
2024-12-13 15:19:00.325,0.040678,3.27039,9.26292,0.0182491,-0.0238994,-0.046119,0
2024-12-13 15:19:00.325,0.040678,3.27039,9.26292,0.0182491,-0.0238994,-0.046119,0
2024-12-13 15:19:00.327,0.066999,3.28953,9.25305,0.0133623,-0.0263428,-0.0491732,0
2024-12-13 15:19:00.332,0.0957129,3.30628,9.22433,0.0115297,-0.0281753,-0.0497841,0
2024-12-13 15:19:00.334,0.114855,3.32782,9.22194,0.00297788,-0.0342838,-0.0546708,0
2024-12-13 15:19:00.334,0.114855,3.32782,9.22194,0.00297788,-0.0342838,-0.0546708,0
2024-12-13 15:19:00.334,0.114855,3.32782,9.22194,0.00297788,-0.0342838,-0.0546708,0
2024-12-13 15:19:00.337,0.11007,3.33739,9.21476,0.00114534,-0.0348946,-0.0583359,0
2024-12-13 15:19:00.339,0.102891,3.34218,9.21955,-0.00251974,-0.037338,-0.0613902,0
2024-12-13 15:19:00.339,0.102891,3.34218,9.21955,-0.00251974,-0.037338,-0.0613902,0
2024-12-13 15:19:00.341,0.102891,3.35653,9.2339,-0.00313059,-0.0361163,-0.0632227,0
2024-12-13 15:19:00.341,0.102891,3.35653,9.2339,-0.00313059,-0.0361163,-0.0632227,0
2024-12-13 15:19:00.344,0.114855,3.37567,9.2339,-0.00374144,-0.0379489,-0.0650552,0
2024-12-13 15:19:00.344,0.114855,3.37567,9.2339,-0.00374144,-0.0379489,-0.0650552,0
2024-12-13 15:19:00.346,0.122034,3.402,9.2339,-0.00435229,-0.0379489,-0.0687203,0
2024-12-13 15:19:00.346,0.122034,3.402,9.2339,-0.00435229,-0.0379489,-0.0687203,0
2024-12-13 15:19:00.346,0.122034,3.402,9.2339,-0.00435229,-0.0379489,-0.0687203,0
2024-12-13 15:19:00.349,0.133998,3.42832,9.24108,-0.00557398,-0.037338,-0.0717745,0
2024-12-13 15:19:00.349,0.133998,3.42832,9.24108,-0.00557398,-0.037338,-0.0717745,0
2024-12-13 15:19:00.351,0.138784,3.44267,9.2363,-0.00435229,-0.037338,-0.0736071,0
2024-12-13 15:19:00.353,0.133998,3.45703,9.22912,-0.00618483,-0.0361163,-0.0754396,0
2024-12-13 15:19:00.356,0.150748,3.47139,9.22912,-0.00679568,-0.0367272,-0.0797156,0
2024-12-13 15:19:00.358,0.165105,3.47617,9.22433,-0.00740652,-0.0385597,-0.0846023,0
2024-12-13 15:19:00.360,0.172283,3.49053,9.21476,-0.0110716,-0.0403923,-0.085824,0
2024-12-13 15:19:00.363,0.184247,3.50967,9.20519,-0.0122933,-0.0434465,-0.0913217,0
2024-12-13 15:19:00.365,0.20339,3.51685,9.19562,-0.0159584,-0.0489441,-0.0955976,0
2024-12-13 15:19:00.370,0.224925,3.52882,9.2028,-0.0196235,-0.0538309,-0.101095,0
2024-12-13 15:19:00.370,0.224925,3.52882,9.2028,-0.0196235,-0.0538309,-0.101095,0
2024-12-13 15:19:00.372,0.232104,3.54556,9.19322,-0.0281753,-0.065437,-0.112701,0
2024-12-13 15:19:00.374,0.234497,3.56471,9.18605,-0.0318404,-0.0678804,-0.118199,0
2024-12-13 15:19:00.377,0.244068,3.58385,9.18605,-0.0355055,-0.073378,-0.122475,0
2024-12-13 15:19:00.379,0.270389,3.59581,9.19322,-0.0428357,-0.0788757,-0.126751,0
2024-12-13 15:19:00.381,0.30658,3.6006,9.21476,-0.0501658,-0.0849841,-0.134081,0
2024-12-13 15:19:00.384,0.325723,3.59103,9.22912,-0.0550526,-0.093536,-0.143855,0
2024-12-13 15:19:00.389,0.378365,3.62214,9.29881,-0.0660479,-0.110029,-0.159126,0
2024-12-13 15:19:00.389,0.378365,3.62214,9.29881,-0.0660479,-0.110029,-0.159126,0
2024-12-13 15:19:00.391,0.392722,3.60299,9.34666,-0.0709346,-0.113694,-0.167678,0
2024-12-13 15:19:00.393,0.414257,3.60539,9.38974,-0.073378,-0.123468,-0.175619,0
2024-12-13 15:19:00.396,0.435793,3.62214,9.45434,-0.0788757,-0.128354,-0.18356,0
2024-12-13 15:19:00.398,0.457328,3.61735,9.51177,-0.0819299,-0.131409,-0.19089,0
2024-12-13 15:19:00.400,0.4669,3.60778,9.56441,-0.0819299,-0.135074,-0.200663,0
2024-12-13 15:19:00.403,0.483649,3.60539,9.62423,-0.0819299,-0.135684,-0.209215,0
2024-12-13 15:19:00.405,0.502792,3.59342,9.69123,-0.0819299,-0.138739,-0.218378,0
2024-12-13 15:19:00.407,0.519542,3.59103,9.74866,-0.0794865,-0.13935,-0.225708,0
2024-12-13 15:19:00.410,0.54347,3.60778,9.79652,-0.0764323,-0.141793,-0.236092,0
2024-12-13 15:19:00.412,0.565005,3.59342,9.84228,-0.0752106,-0.143015,-0.244644,0
2024-12-13 15:19:00.414,0.567398,3.57189,9.87099,-0.0691021,-0.141182,-0.256861,0
2024-12-13 15:19:00.417,0.567398,3.55753,9.91406,-0.065437,-0.13996,-0.264802,0
2024-12-13 15:19:00.419,0.569791,3.53839,9.95953,-0.0611611,-0.138128,-0.278241,0
2024-12-13 15:19:00.422,0.562612,3.52882,9.97628,-0.0532201,-0.136906,-0.284349,0
2024-12-13 15:19:00.424,0.567398,3.52164,9.99781,-0.0483333,-0.131409,-0.292901,0
2024-12-13 15:19:00.426,0.569791,3.53121,10.0217,-0.0397814,-0.128965,-0.300231,0
2024-12-13 15:19:00.429,0.555434,3.52882,10.0193,-0.033673,-0.125911,-0.309394,0
2024-12-13 15:19:00.431,0.557827,3.50489,10.0098,-0.0263428,-0.119802,-0.316113,0
2024-12-13 15:19:00.433,0.565005,3.48574,10.005,-0.0177909,-0.11797,-0.324665,0
2024-12-13 15:19:00.438,0.548256,3.49053,9.97388,-0.0141258,-0.115526,-0.331385,0
2024-12-13 15:19:00.443,0.548256,3.47378,9.9021,-0.0141258,-0.115526,-0.331385,0
2024-12-13 15:19:00.445,0.514756,3.4666,9.85903,0.00664296,-0.109418,-0.355819,0
2024-12-13 15:19:00.447,0.493221,3.45942,9.82074,0.0121406,-0.108196,-0.361316,0
2024-12-13 15:19:00.447,0.493221,3.45942,9.82074,0.0121406,-0.108196,-0.361316,0
2024-12-13 15:19:00.450,0.481256,3.45464,9.79173,0.0139731,-0.105753,-0.368646,0
2024-12-13 15:19:00.450,0.481256,3.45464,9.79173,0.0139731,-0.105753,-0.368646,0
2024-12-13 15:19:00.452,0.462114,3.44985,9.76541,0.0164165,-0.104531,-0.373533,0
2024-12-13 15:19:00.454,0.442971,3.44507,9.72712,0.0176382,-0.105753,-0.380252,0
2024-12-13 15:19:00.457,0.45015,3.43789,9.69362,0.0182491,-0.106975,-0.385139,0
2024-12-13 15:19:00.459,0.459721,3.43789,9.68166,0.0164165,-0.109418,-0.392469,0
2024-12-13 15:19:00.462,0.462114,3.4355,9.67927,0.0194708,-0.111861,-0.399189,0
2024-12-13 15:19:00.464,0.481256,3.41635,9.66012,0.0188599,-0.114305,-0.405908,0
2024-12-13 15:19:00.466,0.490828,3.40678,9.6338,0.0170274,-0.114916,-0.410795,0
2024-12-13 15:19:00.469,0.481256,3.38764,9.61705,0.0176382,-0.116137,-0.419957,0
2024-12-13 15:19:00.471,0.486042,3.3661,9.61466,0.0139731,-0.11797,-0.427898,0
2024-12-13 15:19:00.473,0.498006,3.35653,9.61705,0.00847551,-0.118581,-0.434618,0
2024-12-13 15:19:00.476,0.512363,3.35414,9.61945,0.00664296,-0.117359,-0.44317,0
2024-12-13 15:19:00.478,0.514756,3.35414,9.62184,0.00786466,-0.114305,-0.449278,0
2024-12-13 15:19:00.480,0.512363,3.34218,9.63141,0.00481042,-0.111251,-0.457219,0
2024-12-13 15:19:00.483,0.505185,3.32543,9.6673,-7.63559e-05,-0.105142,-0.463939,0
2024-12-13 15:19:00.485,0.500399,3.32064,9.69602,0.000534491,-0.100255,-0.470047,0
2024-12-13 15:19:00.487,0.493221,3.31346,9.70319,0.00175619,-0.0941468,-0.47921,0
2024-12-13 15:19:00.490,0.469292,3.2991,9.71277,0.000534491,-0.085595,-0.48654,0
2024-12-13 15:19:00.492,0.445364,3.28235,9.73669,0.00297788,-0.0745997,-0.490816,0
2024-12-13 15:19:00.495,0.421436,3.26082,9.74148,0.00542127,-0.0666587,-0.496313,0
2024-12-13 15:19:00.497,0.395115,3.23928,9.72952,0.00847551,-0.0568851,-0.502422,0
2024-12-13 15:19:00.499,0.371187,3.22971,9.71755,0.014584,-0.0483333,-0.507919,0
2024-12-13 15:19:00.502,0.335294,3.22014,9.72712,0.0213033,-0.0422248,-0.514028,0
2024-12-13 15:19:00.504,0.299402,3.21536,9.72473,0.0280226,-0.0379489,-0.518304,0
2024-12-13 15:19:00.506,0.272782,3.20578,9.69123,0.0310769,-0.0324513,-0.524412,0
2024-12-13 15:19:00.509,0.239282,3.19382,9.6673,0.0390179,-0.0306187,-0.527467,0
2024-12-13 15:19:00.511,0.191426,3.18664,9.6338,0.0414613,-0.0312296,-0.532964,0
2024-12-13 15:19:00.513,0.155533,3.18903,9.6027,0.0469589,-0.0306187,-0.536018,0
2024-12-13 15:19:00.516,0.129212,3.19143,9.57877,0.0487914,-0.0348946,-0.540294,0
2024-12-13 15:19:00.518,0.0861416,3.19382,9.54766,0.0524565,-0.0385597,-0.540905,0
2024-12-13 15:19:00.520,0.0502493,3.18186,9.50459,0.0542891,-0.0452791,-0.546403,0
2024-12-13 15:19:00.523,0.0167498,3.16032,9.45195,0.0561216,-0.0526092,-0.547625,0
2024-12-13 15:19:00.525,-0.00478565,3.14836,9.42084,0.0579541,-0.057496,-0.550068,0
2024-12-13 15:19:00.528,-0.0119641,3.15075,9.39931,0.0591758,-0.0642153,-0.55129,0
2024-12-13 15:19:00.530,-0.0167498,3.14836,9.36341,0.058565,-0.0697129,-0.553733,0
2024-12-13 15:19:00.532,-0.0191426,3.14357,9.33231,0.058565,-0.0697129,-0.553733,0
2024-12-13 15:19:00.537,-0.0311067,3.14118,9.27488,0.0524565,-0.0764323,-0.556787,0
2024-12-13 15:19:00.544,-0.0765703,3.134,9.19562,0.0457372,-0.0978119,-0.564117,0
2024-12-13 15:19:00.549,-0.0717847,3.14357,9.15255,0.0347419,-0.100866,-0.567783,0
2024-12-13 15:19:00.551,-0.0502493,3.15075,9.15494,0.0219141,-0.106364,-0.572669,0
2024-12-13 15:19:00.553,-0.0358923,3.14836,9.1669,0.0139731,-0.109418,-0.573891,0
2024-12-13 15:19:00.553,-0.0358923,3.14836,9.1669,0.0139731,-0.109418,-0.573891,0
2024-12-13 15:19:00.558,-0.0191426,3.15553,9.19083,-0.00435229,-0.122246,-0.578778,0
2024-12-13 15:19:00.558,0.00717847,3.15553,9.19083,-0.00435229,-0.122246,-0.578778,0
2024-12-13 15:19:00.560,0.0502493,3.14596,9.21715,-0.0171801,-0.127743,-0.581221,0
2024-12-13 15:19:00.560,0.0502493,3.14596,9.21715,-0.0171801,-0.127743,-0.581221,0
2024-12-13 15:19:00.560,0.0502493,3.14596,9.21715,-0.0171801,-0.127743,-0.581221,0
2024-12-13 15:19:00.560,0.0502493,3.14596,9.21715,-0.0171801,-0.127743,-0.581221,0
2024-12-13 15:19:00.565,0.138784,3.12443,9.31556,-0.037338,-0.135684,-0.591606,0
2024-12-13 15:19:00.570,0.20339,3.1005,9.48066,-0.0544418,-0.136906,-0.600768,0
2024-12-13 15:19:00.575,0.198604,3.08854,9.62184,-0.0593285,-0.130187,-0.612374,0
2024-12-13 15:19:00.579,0.167498,3.06431,9.73669,-0.0568851,-0.113083,-0.620926,0
2024-12-13 15:19:00.582,0.155533,3.05713,9.79652,-0.0568851,-0.113083,-0.620926,0
2024-12-13 15:19:00.586,0.122034,3.04038,9.88774,-0.0434465,-0.0880384,-0.633143,0
2024-12-13 15:19:00.586,0.122034,3.04038,9.88774,-0.0434465,-0.0880384,-0.633143,0
2024-12-13 15:19:00.593,0.0119641,3.03559,9.95953,-0.0177909,-0.0727672,-0.633143,0
2024-12-13 15:19:00.593,0.0119641,3.03559,9.95953,-0.0177909,-0.0727672,-0.633143,0
2024-12-13 15:19:00.596,-0.0191426,3.02842,9.99063,-0.00618483,-0.0721563,-0.631921,0
2024-12-13 15:19:00.598,-0.040678,3.03081,9.99781,0.00297788,-0.0684913,-0.627646,0
2024-12-13 15:19:00.598,-0.040678,3.03081,9.99781,0.00297788,-0.0684913,-0.627646,0
2024-12-13 15:19:00.601,-0.0574277,3.03081,9.97867,0.0115297,-0.0672696,-0.621537,0
2024-12-13 15:19:00.601,-0.0574277,3.03081,9.97867,0.0115297,-0.0672696,-0.621537,0
2024-12-13 15:19:00.603,-0.0741775,3.02363,9.96192,0.0231358,-0.0629936,-0.61665,0
2024-12-13 15:19:00.603,-0.0741775,3.02363,9.96192,0.0231358,-0.0629936,-0.61665,0
2024-12-13 15:19:00.603,-0.0741775,3.02363,9.96192,0.0231358,-0.0629936,-0.61665,0
2024-12-13 15:19:00.608,-0.0933201,3.0332,9.93799,0.0469589,-0.0593285,-0.602601,0
2024-12-13 15:19:00.608,-0.11007,3.0332,9.93799,0.0469589,-0.0593285,-0.602601,0
2024-12-13 15:19:00.615,-0.143569,3.05713,9.81087,0.0787229,-0.0507767,-0.575724,0
2024-12-13 15:19:00.617,-0.167498,3.08584,9.77737,0.0787229,-0.0507767,-0.575724,0
2024-12-13 15:19:00.619,-0.191426,3.12204,9.72473,0.101935,-0.0526092,-0.553733,0
2024-12-13 15:19:00.619,-0.191426,3.12204,9.72473,0.101935,-0.0526092,-0.553733,0
2024-12-13 15:19:00.622,-0.212961,3.16271,9.62663,0.110487,-0.0483333,-0.542738,0
2024-12-13 15:19:00.622,-0.212961,3.16271,9.62663,0.110487,-0.0483333,-0.542738,0
2024-12-13 15:19:00.622,-0.212961,3.16271,9.62663,0.110487,-0.0483333,-0.542738,0
2024-12-13 15:19:00.624,-0.222533,3.21057,9.52852,0.116595,-0.0446682,-0.532353,0
2024-12-13 15:19:00.626,-0.244068,3.24885,9.43281,0.122704,-0.0397814,-0.521969,0
2024-12-13 15:19:00.629,-0.270389,3.28235,9.34188,0.121482,-0.0348946,-0.511585,0
2024-12-13 15:19:00.631,-0.289831,3.31346,9.24587,0.122704,-0.0257319,-0.501811,0
2024-12-13 15:19:00.633,-0.294616,3.35892,9.14058,0.120871,-0.0159584,-0.49387,0
2024-12-13 15:19:00.636,-0.328116,3.41157,9.0688,0.116595,-0.00740652,-0.484707,0
2024-12-13 15:19:00.638,-0.380758,3.45942,9.02573,0.111098,0.00114534,-0.473101,0
2024-12-13 15:19:00.641,-0.419043,3.50489,8.98266,0.103768,0.00786466,-0.46516,0
2024-12-13 15:19:00.643,-0.471685,3.55514,8.92284,0.0976592,0.0200816,-0.457219,0
2024-12-13 15:19:00.645,-0.52672,3.59342,8.84148,0.0909399,0.0316877,-0.444391,0
2024-12-13 15:19:00.648,-0.591326,3.63649,8.78166,0.0848314,0.0445155,-0.434618,0
2024-12-13 15:19:00.650,-0.663111,3.68704,8.73141,0.0750579,0.0579541,-0.423623,0
2024-12-13 15:19:00.652,-0.710967,3.71815,8.68565,0.0652843,0.0689494,-0.410795,0
2024-12-13 15:19:00.655,-0.739681,3.74447,8.64018,0.0567324,0.0762796,-0.396745,0
2024-12-13 15:19:00.657,-0.756431,3.77557,8.58754,0.0439046,0.0775012,-0.383307,0
2024-12-13 15:19:00.659,-0.768395,3.81386,8.5349,0.0310769,0.074447,-0.371701,0
2024-12-13 15:19:00.662,-0.768395,3.86411,8.47508,0.0158057,0.0689494,-0.358873,0
2024-12-13 15:19:00.664,-0.761217,3.91436,8.42962,-0.00129805,0.0622301,-0.347267,0
2024-12-13 15:19:00.666,-0.727717,3.94786,8.39612,-0.0220669,0.050624,-0.334439,0
2024-12-13 15:19:00.669,-0.691825,3.95743,8.34108,-0.0410031,0.0359636,-0.324665,0
2024-12-13 15:19:00.671,-0.658325,3.97657,8.28844,-0.0617719,0.0194708,-0.31367,0
2024-12-13 15:19:00.674,-0.600898,3.97418,8.2693,-0.0849841,0.00114534,-0.303286,0
2024-12-13 15:19:00.676,-0.550648,3.98375,8.2693,-0.11064,-0.0190126,-0.295345,0
2024-12-13 15:19:00.678,-0.50997,4.03161,8.25015,-0.138128,-0.0410031,-0.287404,0
2024-12-13 15:19:00.681,-0.457328,4.05793,8.21905,-0.16867,-0.0599394,-0.282517,0
2024-12-13 15:19:00.683,-0.385544,4.08425,8.20708,-0.200434,-0.0843733,-0.27763,0
2024-12-13 15:19:00.685,-0.313759,4.09382,8.20948,-0.232809,-0.108807,-0.273965,0
2024-12-13 15:19:00.688,-0.229711,4.09621,8.21665,-0.265184,-0.133852,-0.273354,0
2024-12-13 15:19:00.690,-0.122034,4.10578,8.24298,-0.300002,-0.159507,-0.275187,0
2024-12-13 15:19:00.692,-0.0143569,4.08903,8.31476,-0.339097,-0.183331,-0.27763,0
2024-12-13 15:19:00.699,0.294616,4.02921,8.63301,-0.441719,-0.243804,-0.29901,0
2024-12-13 15:19:00.699,0.294616,4.02921,8.63301,-0.441719,-0.243804,-0.29901,0
2024-12-13 15:19:00.699,0.294616,4.02921,8.63301,-0.441719,-0.243804,-0.29901,0
2024-12-13 15:19:00.702,0.383151,4.01486,8.77448,-0.474094,-0.259076,-0.309394,0
2024-12-13 15:19:00.704,0.442971,3.98614,8.92523,-0.504636,-0.268849,-0.321611,0
2024-12-13 15:19:00.707,0.493221,3.95743,9.09033,-0.529681,-0.273736,-0.33505,0
2024-12-13 15:19:00.709,0.538684,3.93111,9.27249,-0.555337,-0.272514,-0.346656,0
2024-12-13 15:19:00.711,0.567398,3.89282,9.44716,-0.576716,-0.268238,-0.360094,0
2024-12-13 15:19:00.718,0.593719,3.71575,9.90688,-0.618254,-0.235253,-0.393691,0
2024-12-13 15:19:00.718,0.593719,3.71575,9.90688,-0.618254,-0.235253,-0.393691,0
2024-12-13 15:19:00.721,0.553041,3.66072,10.0361,-0.628027,-0.219371,-0.404075,0
2024-12-13 15:19:00.723,0.500399,3.60778,10.1701,-0.632914,-0.204099,-0.411406,0
2024-12-13 15:19:00.725,0.445364,3.54317,10.285,-0.636579,-0.189439,-0.416292,0
2024-12-13 15:19:00.728,0.445364,3.54317,10.285,-0.636579,-0.189439,-0.416292,0
2024-12-13 15:19:00.730,0.267996,3.45224,10.4815,-0.630471,-0.15401,-0.418125,0
2024-12-13 15:19:00.735,-0.00239282,3.47857,10.5293,-0.619475,-0.102699,-0.40713,0
2024-12-13 15:19:00.735,-0.00239282,3.47857,10.5293,-0.619475,-0.102699,-0.40713,0
2024-12-13 15:19:00.737,-0.112463,3.41635,10.6107,-0.610313,-0.0800973,-0.395524,0
2024-12-13 15:19:00.737,-0.112463,3.41635,10.6107,-0.610313,-0.0800973,-0.395524,0
2024-12-13 15:19:00.739,-0.217747,3.33739,10.704,-0.595652,-0.0666587,-0.382085,0
2024-12-13 15:19:00.742,-0.313759,3.26082,10.7734,-0.57916,-0.0544418,-0.367425,0
2024-12-13 15:19:00.744,-0.383151,3.19382,10.8284,-0.563278,-0.0434465,-0.352153,0
2024-12-13 15:19:00.747,-0.457328,3.15075,10.8571,-0.541898,-0.0318404,-0.333217,0
2024-12-13 15:19:00.749,-0.555434,3.134,10.8212,-0.519907,-0.0202343,-0.314281,0
2024-12-13 15:19:00.751,-0.675075,3.15314,10.783,-0.495473,-0.000687203,-0.29168,0
2024-12-13 15:19:00.754,-0.825823,3.18664,10.7542,-0.466764,0.0188599,-0.268467,0
2024-12-13 15:19:00.756,-0.981655,3.20818,10.7183,-0.442941,0.038407,-0.24159,0
2024-12-13 15:19:00.759,-1.0989,3.22253,10.6657,-0.416674,0.0542891,-0.212269,0
2024-12-13 15:19:00.761,-1.18983,3.25125,10.5963,-0.391019,0.0671168,-0.181116,0
2024-12-13 15:19:00.763,-1.27119,3.27278,10.5269,-0.368417,0.0750579,-0.153017,0
2024-12-13 15:19:00.765,-1.32144,3.27757,10.4504,-0.345816,0.0775012,-0.120642,0
2024-12-13 15:19:00.768,-1.34297,3.27757,10.3807,-0.325047,0.0738362,-0.0888783,0
2024-12-13 15:19:00.770,-1.34297,3.25843,10.3208,-0.303057,0.0671168,-0.0638335,0
2024-12-13 15:19:00.772,-1.34058,3.24646,10.2515,-0.281677,0.0603975,-0.0351237,0
2024-12-13 15:19:00.775,-1.3334,3.27518,10.1749,-0.259686,0.0536782,-0.00763559,0
2024-12-13 15:19:00.777,-1.3334,3.30868,10.1031,-0.235863,0.0475697,0.01802,0
2024-12-13 15:19:00.780,-1.3334,3.32782,10.0361,-0.212651,0.0414613,0.0424539,0
2024-12-13 15:19:00.782,-1.32383,3.33739,9.96431,-0.194326,0.0365745,0.0674986,0
2024-12-13 15:19:00.784,-1.28554,3.35175,9.90928,-0.172946,0.030466,0.0901,0
2024-12-13 15:19:00.787,-1.22572,3.37567,9.87817,-0.152788,0.0213033,0.109647,0
2024-12-13 15:19:00.789,-1.17069,3.39721,9.84706,-0.128965,0.0133623,0.12614,0
2024-12-13 15:19:00.791,-1.10848,3.40439,9.80848,-0.106975,0.00481042,0.14332,0
2024-12-13 15:19:00.794,-1.05583,3.40917,9.7678,-0.0868167,-0.00557398,0.15737,0
2024-12-13 15:19:00.801,-0.940978,3.4355,9.60987,-0.0208452,-0.0238994,0.189134,0
2024-12-13 15:19:00.803,-0.940978,3.4355,9.55484,-0.0208452,-0.0238994,0.189134,0
2024-12-13 15:19:00.808,-0.847657,3.45464,9.44956,0.0445155,-0.0269536,0.20807,0
2024-12-13 15:19:00.810,-0.847657,3.45464,9.44956,0.0652843,-0.0269536,0.211735,0
2024-12-13 15:19:00.810,-0.801895,3.45703,9.38734,0.0652843,-0.0269536,0.211735,0
2024-12-13 15:19:00.815,-0.734896,3.46182,9.2363,0.103768,-0.0281753,0.217843,0
2024-12-13 15:19:00.815,-0.734896,3.46182,9.2363,0.103768,-0.0281753,0.217843,0
2024-12-13 15:19:00.815,-0.734896,3.46182,9.2363,0.103768,-0.0281753,0.217843,0
2024-12-13 15:19:00.817,-0.71336,3.45942,9.15733,0.122093,-0.0306187,0.218454,0
2024-12-13 15:19:00.817,-0.71336,3.45942,9.15733,0.122093,-0.0306187,0.218454,0
2024-12-13 15:19:00.820,-0.694218,3.46899,9.08076,0.140419,-0.0324513,0.219676,0
2024-12-13 15:19:00.824,-0.682254,3.48574,8.89412,0.169739,-0.0287862,0.223341,0
2024-12-13 15:19:00.824,-0.682254,3.48574,8.89412,0.169739,-0.0287862,0.223341,0
2024-12-13 15:19:00.827,-0.689432,3.49771,8.78166,0.183178,-0.0226777,0.225174,0
2024-12-13 15:19:00.829,-0.682254,3.50489,8.67847,0.194173,-0.0147367,0.227006,0
2024-12-13 15:19:00.831,-0.689432,3.52882,8.59472,0.204557,-0.00496313,0.228839,0
2024-12-13 15:19:00.834,-0.701396,3.54796,8.49661,0.208833,0.00175619,0.231282,0
2024-12-13 15:19:00.838,-0.699003,3.55274,8.25494,0.214331,0.0158057,0.23678,0
2024-12-13 15:19:00.838,-0.699003,3.55274,8.25494,0.214331,0.0158057,0.23678,0
2024-12-13 15:19:00.841,-0.703789,3.59581,8.13261,0.210055,0.022525,0.239834,0
2024-12-13 15:19:00.843,-0.720539,3.61974,8.02014,0.202114,0.0274118,0.241666,0
2024-12-13 15:19:00.845,-0.756431,3.63171,7.92204,0.194173,0.0298552,0.245332,0
2024-12-13 15:19:00.848,-0.782752,3.64876,7.83111,0.181345,0.0347419,0.245942,0
2024-12-13 15:19:00.850,-0.785145,3.66072,7.77368,0.165463,0.0347419,0.246553,0
2024-12-13 15:19:00.853,-0.804287,3.6679,7.74018,0.145916,0.0322986,0.248386,0
2024-12-13 15:19:00.855,-0.84018,3.67986,7.72583,0.128812,0.0280226,0.248386,0
2024-12-13 15:19:00.857,-0.8668,3.699,7.73061,0.111098,0.022525,0.250218,0
2024-12-13 15:19:00.860,-0.88355,3.70858,7.7665,0.0933833,0.0194708,0.250218,0
2024-12-13 15:19:00.862,-0.905085,3.73729,7.81197,0.0732253,0.0158057,0.25144,0
2024-12-13 15:19:00.864,-0.902692,3.76361,7.87179,0.0573433,0.014584,0.253273,0
2024-12-13 15:19:00.867,-0.909871,3.77557,7.92922,0.0414613,0.0121406,0.254494,0
2024-12-13 15:19:00.869,-0.933799,3.77797,7.99143,0.0286335,0.0127514,0.252662,0
2024-12-13 15:19:00.871,-0.938585,3.76361,8.07518,0.0176382,0.0170274,0.252051,0
2024-12-13 15:19:00.874,-0.94337,3.75643,8.14487,0.00664296,0.0194708,0.250829,0
2024-12-13 15:19:00.876,-0.950549,3.75165,8.19751,-0.00313059,0.0237467,0.249607,0
2024-12-13 15:19:00.878,-0.948156,3.7325,8.26212,-0.00862822,0.0268009,0.247775,0
2024-12-13 15:19:00.881,-0.936192,3.7349,8.32672,-0.0159584,0.0280226,0.248386,0
2024-12-13 15:19:00.883,-0.926621,3.73011,8.35783,-0.021456,0.0280226,0.244721,0
2024-12-13 15:19:00.886,-0.926621,3.699,8.40329,-0.0257319,0.0280226,0.241666,0
2024-12-13 15:19:00.888,-0.926621,3.67747,8.44876,-0.0300079,0.0237467,0.239834,0
2024-12-13 15:19:00.890,-0.907478,3.65593,8.49422,-0.037338,0.0158057,0.239834,0
2024-12-13 15:19:00.893,-0.88355,3.63889,8.55404,-0.041614,0.00419957,0.23678,0
2024-12-13 15:19:00.902,-0.816252,3.59821,8.74577,-0.0526092,-0.0385597,0.235558,0
2024-12-13 15:19:00.904,-0.725324,3.56231,8.91805,-0.0605502,-0.0684913,0.238612,0
2024-12-13 15:19:00.907,-0.63679,3.53839,9.02094,-0.065437,-0.0868167,0.238612,0
2024-12-13 15:19:00.911,-0.50997,3.49532,9.25305,-0.0672696,-0.100255,0.239223,0
2024-12-13 15:19:00.914,-0.445364,3.47617,9.36341,-0.0672696,-0.131409,0.239834,0
2024-12-13 15:19:00.914,-0.445364,3.47617,9.36341,-0.0672696,-0.131409,0.239834,0
2024-12-13 15:19:00.914,-0.445364,3.47617,9.36341,-0.0672696,-0.131409,0.239834,0
2024-12-13 15:19:00.914,-0.445364,3.47617,9.36341,-0.0672696,-0.131409,0.239834,0
2024-12-13 15:19:00.916,-0.373579,3.4666,9.47348,-0.065437,-0.140571,0.238001,0
2024-12-13 15:19:00.918,-0.308973,3.45464,9.57877,-0.065437,-0.140571,0.238001,0
2024-12-13 15:19:00.923,-0.198604,3.41635,9.77737,-0.0526092,-0.152788,0.234947,0
2024-12-13 15:19:00.926,-0.138784,3.38764,9.84946,-0.0526092,-0.152788,0.234947,0
2024-12-13 15:19:00.930,-0.040678,3.35414,9.93799,-0.0275645,-0.152788,0.228839,0
2024-12-13 15:19:00.930,-0.040678,3.35414,9.93799,-0.0275645,-0.152788,0.228839,0
2024-12-13 15:19:00.933,-0.040678,3.35414,9.97388,-0.0202343,-0.15401,0.227006,0
2024-12-13 15:19:00.933,0.0119641,3.35175,9.97388,-0.0202343,-0.15401,0.227006,0
2024-12-13 15:19:00.933,0.0119641,3.35175,9.97388,-0.0202343,-0.15401,0.227006,0
2024-12-13 15:19:00.940,0.102891,3.335,10.0528,-0.0116825,-0.147291,0.221508,0
2024-12-13 15:19:00.942,0.124427,3.33739,10.0552,0.0109189,-0.141793,0.219676,0
2024-12-13 15:19:00.944,0.157926,3.33978,10.0552,0.0176382,-0.134463,0.218454,0
2024-12-13 15:19:00.944,0.157926,3.33978,10.0552,0.0176382,-0.134463,0.218454,0
2024-12-13 15:19:00.944,0.157926,3.33978,10.0552,0.0176382,-0.134463,0.218454,0
2024-12-13 15:19:00.947,0.18664,3.34457,10.0313,0.0237467,-0.127743,0.216011,0
2024-12-13 15:19:00.949,0.200997,3.33021,9.99781,0.0286335,-0.120413,0.219065,0
2024-12-13 15:19:00.951,0.210568,3.31825,9.96431,0.0310769,-0.109418,0.218454,0
2024-12-13 15:19:00.954,0.227318,3.32064,9.92603,0.0341311,-0.0996445,0.217843,0
2024-12-13 15:19:00.956,0.241675,3.31346,9.89492,0.0371853,-0.0880384,0.217843,0
2024-12-13 15:19:00.959,0.246461,3.32064,9.86142,0.0365745,-0.081319,0.217843,0
2024-12-13 15:19:00.961,0.260818,3.33739,9.83031,0.0396287,-0.0764323,0.218454,0
2024-12-13 15:19:00.963,0.272782,3.34457,9.8013,0.0359636,-0.073378,0.220898,0
2024-12-13 15:19:00.966,0.287438,3.35175,9.77498,0.0322986,-0.0691021,0.220898,0
2024-12-13 15:19:00.968,0.320937,3.36132,9.74866,0.0274118,-0.0691021,0.22273,0
2024-12-13 15:19:00.970,0.35683,3.3685,9.7343,0.0237467,-0.0691021,0.225784,0
2024-12-13 15:19:00.980,0.3999,3.40439,9.71994,0.0182491,-0.0672696,0.228228,0
2024-12-13 15:19:00.984,0.725324,3.39721,9.79412,-0.0159584,-0.0306187,0.211735,0
2024-12-13 15:19:00.988,0.787538,3.38764,9.81805,-0.0238994,0.0096972,0.195853,0
2024-12-13 15:19:00.989,0.85005,3.37328,9.85424,-0.0238994,0.0096972,0.195853,0
2024-12-13 15:19:00.989,0.85005,3.37328,9.85424,-0.0238994,0.0096972,0.195853,0
2024-12-13 15:19:00.992,0.888335,3.37567,9.89253,-0.0275645,0.0329094,0.187912,0
2024-12-13 15:19:00.992,0.888335,3.37567,9.89253,-0.0275645,0.0329094,0.187912,0
2024-12-13 15:19:00.992,0.888335,3.37567,9.89253,-0.0275645,0.0329094,0.187912,0
2024-12-13 15:19:00.992,0.888335,3.37567,9.89253,-0.0275645,0.0329094,0.187912,0
2024-12-13 15:19:00.994,0.895514,3.38285,9.91167,-0.0287862,0.0579541,0.178138,0
2024-12-13 15:19:00.996,0.890728,3.39003,9.92124,-0.0269536,0.086664,0.169586,0
2024-12-13 15:19:00.999,0.88355,3.38525,9.91885,-0.0226777,0.119039,0.160424,0
2024-12-13 15:19:01.001,0.845265,3.37328,9.90449,-0.021456,0.150803,0.154315,0
2024-12-13 15:19:01.003,0.773181,3.3685,9.85903,-0.0122933,0.182567,0.145763,0
2024-12-13 15:19:01.006,0.708575,3.3661,9.79412,-0.0104608,0.214942,0.139044,0
2024-12-13 15:19:01.008,0.629611,3.35175,9.71755,-0.00313059,0.244873,0.137212,0
2024-12-13 15:19:01.010,0.517149,3.32543,9.63141,0.00358873,0.269307,0.135379,0
2024-12-13 15:19:01.013,0.41665,3.33739,9.55484,0.00725381,0.291909,0.132248,0
2024-12-13 15:19:01.015,0.308973,3.35653,9.48066,0.0133623,0.310845,0.13347,0
2024-12-13 15:19:01.017,0.200997,3.35414,9.39213,0.0170274,0.322451,0.137212,0
2024-12-13 15:19:01.020,0.122034,3.35175,9.29881,0.0182491,0.331614,0.142098,0
2024-12-13 15:19:01.022,0.0502493,3.35892,9.21237,0.0170274,0.3365,0.147596,0
2024-12-13 15:19:01.024,-0.0119641,3.3685,9.12623,0.0213033,0.338944,0.153704,0
2024-12-13 15:19:01.027,-0.066999,3.38285,9.05444,0.0219141,0.33589,0.165311,0
2024-12-13 15:19:01.029,-0.112463,3.39242,8.99462,0.0213033,0.333446,0.174473,0
2024-12-13 15:19:01.032,-0.133998,3.40917,8.94437,0.0206925,0.327949,0.185468,0
2024-12-13 15:19:01.034,-0.153141,3.42353,8.89651,0.0188599,0.322451,0.197685,0
2024-12-13 15:19:01.036,-0.162712,3.44746,8.84866,0.0194708,0.313899,0.208681,0
2024-12-13 15:19:01.039,-0.160319,3.48096,8.81994,0.0200816,0.306569,0.219065,0
2024-12-13 15:19:01.041,-0.16989,3.50728,8.8008,0.0194708,0.296185,0.229449,0
2024-12-13 15:19:01.043,-0.167498,3.53839,8.77448,0.0182491,0.285189,0.241056,0
2024-12-13 15:19:01.046,-0.16989,3.57428,8.74337,0.0200816,0.274194,0.250218,0
2024-12-13 15:19:01.048,-0.167498,3.60299,8.72184,0.0200816,0.263199,0.259381,0
2024-12-13 15:19:01.050,-0.148355,3.64367,8.69522,0.0170274,0.252204,0.270376,0
2024-12-13 15:19:01.053,-0.133998,3.7014,8.68565,0.0127514,0.241819,0.275874,0
2024-12-13 15:19:01.055,-0.112463,3.76122,8.67608,0.00908635,0.228991,0.28015,0
2024-12-13 15:19:01.057,-0.0957129,3.81147,8.66411,0.00358873,0.219218,0.283815,0
2024-12-13 15:19:01.060,-0.081356,3.84736,8.67368,-0.00313059,0.203947,0.288702,0
2024-12-13 15:19:01.062,-0.0598206,3.89522,8.69761,-0.00801737,0.189897,0.288702,0
2024-12-13 15:19:01.065,-0.0430708,3.93829,8.72423,-0.0159584,0.177069,0.288702,0
2024-12-13 15:19:01.067,-0.0382852,3.96461,8.75773,-0.0245102,0.161187,0.28748,0
2024-12-13 15:19:01.069,-0.0430708,4.01246,8.80798,-0.0306187,0.144694,0.285647,0
2024-12-13 15:19:01.072,-0.0382852,4.04357,8.86541,-0.0361163,0.131867,0.281372,0
2024-12-13 15:19:01.074,-0.0334995,4.07229,8.93241,-0.0422248,0.11965,0.277706,0
2024-12-13 15:19:01.076,-0.0215354,4.11536,8.99223,-0.0471116,0.106822,0.274041,0
2024-12-13 15:19:01.079,-0.00717847,4.13689,9.06162,-0.0513875,0.0982701,0.269765,0
2024-12-13 15:19:01.081,0.00957129,4.15364,9.1358,-0.0550526,0.0891073,0.263657,0
2024-12-13 15:19:01.083,0.0191426,4.17757,9.19562,-0.0599394,0.0793338,0.25877,0
2024-12-13 15:19:01.086,0.0239282,4.19432,9.2677,-0.0623828,0.0713928,0.253883,0
2024-12-13 15:19:01.088,0.0215354,4.2015,9.33949,-0.0636045,0.0658951,0.247164,0
2024-12-13 15:19:01.090,0.026321,4.19671,9.38495,-0.0660479,0.0634518,0.238612,0
2024-12-13 15:19:01.093,0.0382852,4.1991,9.43041,-0.0678804,0.058565,0.233725,0
2024-12-13 15:19:01.098,0.0287139,4.21855,9.51655,-0.0678804,0.0573433,0.227617,0
2024-12-13 15:19:01.100,0.040678,4.22572,9.52134,-0.0788757,0.0597867,0.220287,0
2024-12-13 15:19:01.102,0.0430708,4.22572,9.5357,-0.0807082,0.0622301,0.216622,0
2024-12-13 15:19:01.102,0.0430708,4.22572,9.5357,-0.0807082,0.0622301,0.216622,0
2024-12-13 15:19:01.105,0.0550349,4.22812,9.56441,-0.0862058,0.0640626,0.2154,0
2024-12-13 15:19:01.107,0.0765703,4.22094,9.57638,-0.0947577,0.0671168,0.212346,0
2024-12-13 15:19:01.109,0.0957129,4.21855,9.59073,-0.102088,0.0683385,0.211124,0
2024-12-13 15:19:01.112,0.107677,4.2329,9.60987,-0.110029,0.0707819,0.210513,0
2024-12-13 15:19:01.115,0.112463,4.22812,9.62663,-0.134463,0.074447,0.209902,0
2024-12-13 15:19:01.116,0.114855,4.21376,9.65773,-0.134463,0.074447,0.209902,0
2024-12-13 15:19:01.119,0.138784,4.2353,9.7008,-0.144236,0.0750579,0.210513,0
2024-12-13 15:19:01.121,0.162712,4.26401,9.74866,-0.15401,0.0768904,0.20807,0
2024-12-13 15:19:01.123,0.155533,4.2664,9.81805,-0.167449,0.0793338,0.208681,0
2024-12-13 15:19:01.130,0.129212,4.29272,10.0983,-0.167449,0.0793338,0.208681,0
2024-12-13 15:19:01.138,0.131605,4.30708,10.4073,-0.210819,0.094605,0.206848,0
2024-12-13 15:19:01.145,0.119641,4.31187,10.7231,-0.213873,0.102546,0.201961,0
2024-12-13 15:19:01.147,0.0981057,4.32862,10.8284,-0.206543,0.110487,0.198296,0
2024-12-13 15:19:01.154,0.0215354,4.33101,11.08,-0.180276,0.109876,0.198907,0
2024-12-13 15:19:01.156,0.00239282,4.34058,11.1398,-0.180276,0.109876,0.198907,0
2024-12-13 15:19:01.168,-0.0646062,4.33819,11.566,-0.130187,0.0762796,0.20807,0
2024-12-13 15:19:01.171,-0.0909273,4.33579,11.6521,-0.130187,0.0762796,0.20807,0
2024-12-13 15:19:01.178,-0.150748,4.32862,11.9225,-0.0868167,0.066506,0.217843,0
2024-12-13 15:19:01.180,-0.184247,4.34058,12.0111,-0.0477224,0.0683385,0.230671,0
2024-12-13 15:19:01.187,-0.177069,4.33579,12.1502,0.0115297,0.0726145,0.250218,0
2024-12-13 15:19:01.192,-0.174676,4.37408,12.1334,0.030466,0.0726145,0.262435,0
2024-12-13 15:19:01.199,-0.148355,4.47219,12.023,0.030466,0.0726145,0.262435,0
2024-12-13 15:19:01.203,-0.177069,4.51286,11.8651,0.0952158,0.0933833,0.291145,0
2024-12-13 15:19:01.218,-0.320937,4.71625,11.5875,0.0817772,0.113541,0.297864,0
2024-12-13 15:19:01.218,-0.320937,4.71625,11.5875,0.0817772,0.113541,0.297864,0
2024-12-13 15:19:01.234,-0.411865,4.77398,11.5035,-0.0403923,0.101935,0.298475,0
2024-12-13 15:19:01.241,-0.359223,4.80509,11.5325,-0.0837624,0.0671168,0.299086,0
2024-12-13 15:19:01.248,-0.251246,4.83619,11.8316,-0.210208,-0.143015,0.291145,0
2024-12-13 15:19:01.251,-0.196211,4.84337,11.9943,-0.280455,-0.197991,0.288702,0
2024-12-13 15:19:01.255,-0.129212,4.81705,12.3272,-0.280455,-0.197991,0.288702,0
2024-12-13 15:19:01.262,0.12682,4.73061,12.842,-0.411177,-0.375747,0.269155,0
2024-12-13 15:19:01.281,0.557827,4.54876,14.6901,-0.552893,-0.565721,0.233115,0
2024-12-13 15:19:01.288,0.864407,4.16561,15.2599,-0.580381,-0.599317,0.197685,0
2024-12-13 15:19:01.314,2.14277,2.72692,15.9063,-0.580381,-0.599317,0.197685,1
2024-12-13 15:19:01.319,2.35095,2.35573,15.5904,-0.232809,-0.475926,-0.0436756,0
2024-12-13 15:19:01.338,2.45863,1.88166,14.4987,-0.0794865,-0.461266,-0.098041,0
2024-12-13 15:19:01.340,2.45863,1.81466,14.4437,-0.0666587,-0.43561,-0.0937651,0
2024-12-13 15:19:01.371,0.478864,1.49163,11.8747,0.253425,0.433625,0.0687203,0
2024-12-13 15:19:01.390,-0.890728,1.63759,9.30838,0.431258,0.806929,0.280761,0
2024-12-13 15:19:01.427,-0.438186,2.00399,9.45673,0.71408,0.37193,0.492114,0
2024-12-13 15:19:01.427,-0.486042,2.00399,9.45673,0.71408,0.37193,0.492114,0
2024-12-13 15:19:01.430,-0.672682,2.11406,8.74577,0.744623,0.357269,0.477454,0
2024-12-13 15:19:01.432,-0.737288,2.21456,8.36022,0.762337,0.338944,0.465847,0
2024-12-13 15:19:01.439,-0.469292,2.35334,8.7362,0.815481,0.279692,0.41759,0
2024-12-13 15:19:01.439,-0.469292,2.35334,8.7362,0.815481,0.279692,0.41759,0
2024-12-13 15:19:01.441,-0.304188,2.37727,8.96591,0.842358,0.265031,0.394989,0
2024-12-13 15:19:01.446,-0.066999,2.42513,9.11905,0.906497,0.255258,0.343678,0
2024-12-13 15:19:01.448,0.00957129,2.4323,9.03769,0.906497,0.255258,0.343678,0
2024-12-13 15:19:01.456,0.181855,2.40838,8.72184,0.998735,0.196006,0.220287,0
2024-12-13 15:19:01.456,0.181855,2.40838,8.72184,0.998735,0.196006,0.220287,0
2024-12-13 15:19:01.456,0.181855,2.40838,8.72184,0.998735,0.196006,0.220287,0
2024-12-13 15:19:01.458,0.248854,2.42273,8.65933,1.01828,0.180734,0.189134,0
2024-12-13 15:19:01.460,0.287438,2.45623,8.54926,1.03416,0.163631,0.15798,0
2024-12-13 15:19:01.463,0.287438,2.47298,8.42004,1.04455,0.14164,0.126751,0
2024-12-13 15:19:01.463,0.308973,2.47298,8.42004,1.04455,0.14164,0.126751,0
2024-12-13 15:19:01.463,0.308973,2.47298,8.42004,1.04455,0.14164,0.126751,0
2024-12-13 15:19:01.463,0.308973,2.47298,8.42004,1.04455,0.14164,0.126751,0
2024-12-13 15:19:01.481,-0.632004,2.30309,7.55564,1.04455,0.14164,0.126751,0
2024-12-13 15:19:01.500,-1.29033,1.82901,6.8351,0.958419,-0.0458899,0.0222959,0
2024-12-13 15:19:01.507,-1.35254,1.83619,6.7346,0.744012,0.00358873,0.152483,0
2024-12-13 15:19:01.514,-1.26879,1.86969,6.6676,0.715302,0.014584,0.168365,0
2024-12-13 15:19:01.526,-0.931406,1.88883,6.3012,0.552817,0.0854423,0.227617,0
2024-12-13 15:19:01.534,-0.888335,1.98963,6.23899,0.508225,0.0909399,0.228839,0
2024-12-13 15:19:01.540,-0.895514,2.01835,6.34666,0.508225,0.0909399,0.228839,0
2024-12-13 15:19:01.543,-0.845265,2.00877,6.33948,0.508225,0.0909399,0.228839,0
2024-12-13 15:19:01.552,-0.684646,1.9681,6.27249,0.383001,0.166074,0.214789,0
2024-12-13 15:19:01.562,-0.617647,1.96301,6.1672,0.328559,0.147138,0.19402,0
2024-12-13 15:19:01.576,-0.512363,1.91276,6.29641,0.253425,0.136143,0.171419,0
2024-12-13 15:19:01.576,-0.512363,1.91276,6.29641,0.253425,0.136143,0.171419,0
2024-12-13 15:19:01.592,-0.754038,1.8673,6.58385,0.253425,0.136143,0.171419,0
2024-12-13 15:19:01.602,-0.667897,1.99681,6.58385,0.250982,0.139197,0.185468,0
2024-12-13 15:19:01.604,-0.624826,2.04945,6.58146,0.259534,0.125147,0.192188,0
2024-12-13 15:19:01.618,-0.423829,2.49691,6.61017,0.291298,0.0548999,0.184858,0
2024-12-13 15:19:01.618,-0.423829,2.49691,6.61017,0.291298,0.0548999,0.184858,0
2024-12-13 15:19:01.630,-0.3999,2.78435,6.12892,0.291298,0.0548999,0.184858,0
2024-12-13 15:19:01.686,-0.390329,2.88724,5.78884,0.291298,0.0548999,0.184858,0
2024-12-13 15:19:01.710,-0.320937,3.10289,7.12014,-0.345205,0.0494023,0.178749,0
2024-12-13 15:19:01.715,-0.205783,3.11246,7.41207,-0.516853,0.00664296,0.146374,0
2024-12-13 15:19:01.720,-0.102891,3.13639,7.67079,-0.516853,0.00664296,0.146374,0
2024-12-13 15:19:01.726,-0.00957129,3.20339,8.05125,-0.549228,0.00603212,0.112701,0
2024-12-13 15:19:01.733,-0.11007,3.2345,8.4009,-0.555947,0.0127514,0.107204,0
2024-12-13 15:19:01.746,-0.119641,3.22732,8.80798,-0.532735,0.038407,0.0784939,0
2024-12-13 15:19:01.750,-0.0957129,3.27757,8.9013,-0.528459,0.0377962,0.0742179,0
2024-12-13 15:19:01.750,-0.0885344,3.27757,8.9013,-0.528459,0.0377962,0.0742179,0
2024-12-13 15:19:01.752,-0.0741775,3.31346,8.95394,-0.528459,0.0377962,0.0742179,0
2024-12-13 15:19:01.755,-0.0741775,3.35892,8.98266,-0.518686,0.0310769,0.069942,0
2024-12-13 15:19:01.757,-0.0861416,3.40917,9.00658,-0.516242,0.0298552,0.0681095,0
2024-12-13 15:19:01.757,-0.0861416,3.40917,9.00658,-0.516242,0.0298552,0.0681095,0
2024-12-13 15:19:01.757,-0.0861416,3.40917,9.00658,-0.516242,0.0298552,0.0681095,0
2024-12-13 15:19:01.759,-0.0861416,3.45942,9.03051,-0.510745,0.0261901,0.0662769,0
2024-12-13 15:19:01.759,-0.0861416,3.45942,9.03051,-0.510745,0.0261901,0.0662769,0
2024-12-13 15:19:01.762,-0.0837488,3.48814,9.04965,-0.508301,0.0231358,0.0662769,0
2024-12-13 15:19:01.764,-0.0861416,3.52164,9.06162,-0.506469,0.0219141,0.0650552,0
2024-12-13 15:19:01.764,-0.0861416,3.52164,9.06162,-0.506469,0.0219141,0.0650552,0
2024-12-13 15:19:01.769,-0.0885344,3.58385,9.08315,-0.511356,0.00664296,0.0638335,0
2024-12-13 15:19:01.769,-0.0885344,3.58385,9.08315,-0.511356,0.00664296,0.0638335,0
2024-12-13 15:19:01.770,-0.0885344,3.58385,9.08315,-0.515021,-0.0019089,0.0632227,0
2024-12-13 15:19:01.771,-0.0741775,3.59821,9.09273,-0.515021,-0.0019089,0.0632227,0
2024-12-13 15:19:01.773,-0.0885344,3.61735,9.11905,-0.517464,-0.0116825,0.062001,0
2024-12-13 15:19:01.773,-0.0885344,3.61735,9.11905,-0.517464,-0.0116825,0.062001,0
2024-12-13 15:19:01.773,-0.0885344,3.61735,9.11905,-0.517464,-0.0116825,0.062001,0
2024-12-13 15:19:01.776,-0.105284,3.61735,9.1334,-0.517464,-0.0116825,0.062001,0
2024-12-13 15:19:01.778,-0.0981057,3.6341,9.15255,-0.530292,-0.0300079,0.0626118,0
2024-12-13 15:19:01.781,-0.0550349,3.66551,9.17169,-0.5364,-0.0410031,0.062001,0
2024-12-13 15:19:01.781,-0.0550349,3.66551,9.17169,-0.5364,-0.0410031,0.062001,0
2024-12-13 15:19:01.783,-0.0478565,3.68943,9.21476,-0.544341,-0.0532201,0.0595576,0
2024-12-13 15:19:01.783,-0.0478565,3.68943,9.21476,-0.544341,-0.0532201,0.0595576,0
2024-12-13 15:19:01.785,-0.0909273,3.71097,9.28684,-0.551061,-0.0605502,0.0595576,0
2024-12-13 15:19:01.788,-0.102891,3.72293,9.35384,-0.558391,-0.0684913,0.0626118,0
2024-12-13 15:19:01.788,-0.102891,3.72293,9.35384,-0.558391,-0.0684913,0.0626118,0
2024-12-13 15:19:01.788,-0.102891,3.72293,9.35384,-0.558391,-0.0684913,0.0626118,0
2024-12-13 15:19:01.790,-0.112463,3.74208,9.4352,-0.563888,-0.0752106,0.062001,0
2024-12-13 15:19:01.792,-0.133998,3.76122,9.52852,-0.568775,-0.0794865,0.0613902,0
2024-12-13 15:19:01.792,-0.133998,3.76122,9.52852,-0.568775,-0.0794865,0.0613902,0
2024-12-13 15:19:01.792,-0.133998,3.76122,9.52852,-0.568775,-0.0794865,0.0613902,0
2024-12-13 15:19:01.795,-0.136391,3.77557,9.6027,-0.573662,-0.0770431,0.0638335,0
2024-12-13 15:19:01.795,-0.136391,3.77557,9.6027,-0.573662,-0.0770431,0.0638335,0
2024-12-13 15:19:01.797,-0.112463,3.7684,9.6697,-0.577938,-0.0764323,0.0656661,0
2024-12-13 15:19:01.797,-0.112463,3.7684,9.6697,-0.577938,-0.0764323,0.0656661,0
2024-12-13 15:19:01.797,-0.112463,3.7684,9.6697,-0.577938,-0.0764323,0.0656661,0
2024-12-13 15:19:01.802,-0.0167498,3.75165,9.80848,-0.57916,-0.0721563,0.0650552,0
2024-12-13 15:19:01.802,-0.0167498,3.75165,9.80848,-0.57916,-0.0721563,0.0650552,0
2024-12-13 15:19:01.804,0.0,3.75643,9.88056,-0.57916,-0.0715455,0.062001,0
2024-12-13 15:19:01.804,0.0,3.75643,9.88056,-0.57916,-0.0715455,0.062001,0
2024-12-13 15:19:01.806,-0.00478565,3.77318,9.9691,-0.577327,-0.0709346,0.0601685,0
2024-12-13 15:19:01.806,-0.00478565,3.77318,9.9691,-0.577327,-0.0709346,0.0601685,0
2024-12-13 15:19:01.806,-0.00478565,3.77318,9.9691,-0.577327,-0.0709346,0.0601685,0
2024-12-13 15:19:01.809,-0.0167498,3.81386,10.0624,-0.573662,-0.0709346,0.0595576,0
2024-12-13 15:19:01.809,-0.0167498,3.81386,10.0624,-0.573662,-0.0709346,0.0595576,0
2024-12-13 15:19:01.811,-0.0239282,3.84975,10.1533,-0.568775,-0.0745997,0.0583359,0
2024-12-13 15:19:01.814,-0.0143569,3.87129,10.2395,-0.562667,-0.0764323,0.0558925,0
2024-12-13 15:19:01.814,-0.0143569,3.87129,10.2395,-0.562667,-0.0764323,0.0558925,0
2024-12-13 15:19:01.814,-0.0143569,3.87129,10.2395,-0.562667,-0.0764323,0.0558925,0
2024-12-13 15:19:01.816,-0.00717847,3.88325,10.3352,-0.555337,-0.0831516,0.0552817,0
2024-12-13 15:19:01.816,-0.00717847,3.88325,10.3352,-0.555337,-0.0831516,0.0552817,0
2024-12-13 15:19:01.818,0.0143569,3.89522,10.4216,-0.546174,-0.0892601,0.0534491,0
2024-12-13 15:19:01.821,0.0574277,3.90718,10.4862,-0.534568,-0.0947577,0.0528383,0
2024-12-13 15:19:01.821,0.0574277,3.90718,10.4862,-0.534568,-0.0947577,0.0528383,0
2024-12-13 15:19:01.823,0.0957129,3.91197,10.5317,-0.523572,-0.0984228,0.0497841,0
2024-12-13 15:19:01.823,0.0957129,3.91197,10.5317,-0.523572,-0.0984228,0.0497841,0
2024-12-13 15:19:01.823,0.0957129,3.91197,10.5317,-0.523572,-0.0984228,0.0497841,0
2024-12-13 15:19:01.825,0.12682,3.92872,10.5724,-0.511356,-0.10331,0.0455081,0
2024-12-13 15:19:01.825,0.12682,3.92872,10.5724,-0.511356,-0.10331,0.0455081,0
2024-12-13 15:19:01.828,0.174676,3.95743,10.6322,-0.499139,-0.106364,0.038178,0
2024-12-13 15:19:01.828,0.174676,3.95743,10.6322,-0.499139,-0.106364,0.038178,0
2024-12-13 15:19:01.830,0.224925,3.97179,10.6896,-0.484478,-0.109418,0.0363454,0
2024-12-13 15:19:01.830,0.224925,3.97179,10.6896,-0.484478,-0.109418,0.0363454,0
2024-12-13 15:19:01.832,0.248854,3.97179,10.7303,-0.469207,-0.114305,0.0326803,0
2024-12-13 15:19:01.832,0.248854,3.97179,10.7303,-0.469207,-0.114305,0.0326803,0
2024-12-13 15:19:01.835,0.267996,3.98136,10.7518,-0.453325,-0.119192,0.0277936,0
2024-12-13 15:19:01.836,0.267996,3.98136,10.7518,-0.434389,-0.119192,0.0265719,0
2024-12-13 15:19:01.837,0.292223,3.98854,10.7686,-0.434389,-0.119192,0.0265719,0
2024-12-13 15:19:01.838,0.292223,3.98854,10.7686,-0.419728,-0.122857,0.0247393,0
2024-12-13 15:19:01.839,0.316152,3.99093,10.7853,-0.419728,-0.122857,0.0247393,0
2024-12-13 15:19:01.839,0.316152,3.99093,10.7853,-0.419728,-0.122857,0.0247393,0
2024-12-13 15:19:01.842,0.342473,3.99332,10.7997,-0.402625,-0.124078,0.0216851,0
2024-12-13 15:19:01.844,0.366401,4.0005,10.8165,-0.384299,-0.124078,0.01802,0
2024-12-13 15:19:01.844,0.366401,4.0005,10.8165,-0.384299,-0.124078,0.01802,0
2024-12-13 15:19:01.844,0.366401,4.0005,10.8165,-0.384299,-0.124078,0.01802,0
2024-12-13 15:19:01.847,0.378365,4.02204,10.8188,-0.368417,-0.124078,0.0174091,0
2024-12-13 15:19:01.849,0.385544,4.04596,10.7997,-0.352535,-0.122246,0.0143549,0
2024-12-13 15:19:01.849,0.385544,4.04596,10.7997,-0.352535,-0.122246,0.0143549,0
2024-12-13 15:19:01.849,0.385544,4.04596,10.7997,-0.352535,-0.122246,0.0143549,0
2024-12-13 15:19:01.851,0.397508,4.06271,10.7758,-0.336042,-0.118581,0.0125224,0
2024-12-13 15:19:01.851,0.397508,4.06271,10.7758,-0.336042,-0.118581,0.0125224,0
2024-12-13 15:19:01.854,0.383151,4.09861,10.7638,-0.318939,-0.114916,0.0119115,0
2024-12-13 15:19:01.854,0.383151,4.09861,10.7638,-0.318939,-0.114916,0.0119115,0
2024-12-13 15:19:01.854,0.383151,4.09861,10.7638,-0.318939,-0.114916,0.0119115,0
2024-12-13 15:19:01.854,0.383151,4.09861,10.7638,-0.318939,-0.114916,0.0119115,0
2024-12-13 15:19:01.861,0.397508,4.10818,10.6872,-0.276179,-0.108196,0.00763559,0
2024-12-13 15:19:01.863,0.411865,4.08903,10.6753,-0.263352,-0.113083,0.0064139,0
2024-12-13 15:19:01.863,0.411865,4.08903,10.6753,-0.263352,-0.113083,0.0064139,0
2024-12-13 15:19:01.863,0.411865,4.08903,10.6753,-0.263352,-0.113083,0.0064139,0
2024-12-13 15:19:01.879,0.289831,4.25922,10.716,-0.203488,-0.107585,-0.0186308,0
2024-12-13 15:19:01.882,0.287438,4.29512,10.759,-0.186385,-0.10392,-0.0351237,0
2024-12-13 15:19:01.891,0.282652,4.44347,10.905,-0.16867,-0.105142,-0.0558925,0
2024-12-13 15:19:01.896,0.282652,4.46022,10.9819,-0.157675,-0.102699,-0.0742179,0
2024-12-13 15:19:01.903,0.198604,4.58704,11.1661,-0.142404,-0.108807,-0.101706,0
2024-12-13 15:19:01.910,0.141177,4.7019,11.3862,-0.119192,-0.133241,-0.138968,0
2024-12-13 15:19:01.910,0.141177,4.7019,11.3862,-0.119192,-0.133241,-0.138968,0
2024-12-13 15:19:01.915,0.150748,4.7354,11.4485,-0.119192,-0.133241,-0.138968,0
2024-12-13 15:19:01.929,0.153141,4.98694,11.9704,-0.0739889,-0.174168,-0.194555,0
2024-12-13 15:19:01.936,0.0957129,5.04198,12.2746,-0.0507767,-0.196158,-0.22021,0
2024-12-13 15:19:01.945,0.0717847,5.08744,12.6577,-0.00435229,-0.251135,-0.24159,0
2024-12-13 15:19:01.948,0.0717847,5.09462,12.7415,0.014584,-0.273736,-0.249531,0
2024-12-13 15:19:01.957,0.124427,5.11855,12.9808,0.050624,-0.303667,-0.253807,0
2024-12-13 15:19:01.960,0.167498,5.17119,13.0908,0.0768904,-0.321382,-0.258694,0
2024-12-13 15:19:01.964,0.179462,5.24058,13.1507,0.0970484,-0.338486,-0.263581,0
2024-12-13 15:19:01.976,0.11007,5.35334,13.1842,0.109876,-0.343983,-0.265413,0
2024-12-13 15:19:01.981,0.0837488,5.36052,13.1892,0.14836,-0.365974,-0.264191,0
2024-12-13 15:19:01.983,0.0861416,5.37966,13.1868,0.150192,-0.367196,-0.264802,0
2024-12-13 15:19:01.983,0.0861416,5.37966,13.1868,0.150192,-0.367196,-0.264802,0
2024-12-13 15:19:01.983,0.0861416,5.37966,13.1868,0.150192,-0.367196,-0.264802,0
2024-12-13 15:19:01.993,0.179462,5.36531,13.1219,0.14897,-0.365974,-0.262359,0
2024-12-13 15:19:01.995,0.189033,5.34616,13.1291,0.14897,-0.365974,-0.262359,0
2024-12-13 15:19:02.002,0.0981057,5.18794,13.2443,0.133088,-0.350703,-0.267857,0
2024-12-13 15:19:02.004,0.0981057,5.14487,13.2251,0.133088,-0.350703,-0.267857,0
2024-12-13 15:19:02.014,0.270389,5.03719,13.3065,0.094605,-0.336653,-0.280073,0
2024-12-13 15:19:02.016,0.30658,4.97737,13.407,0.094605,-0.336653,-0.280073,0
2024-12-13 15:19:02.026,0.385544,4.71147,13.7157,0.0652843,-0.350703,-0.295345,0
2024-12-13 15:19:02.026,0.385544,4.71147,13.7157,0.0652843,-0.350703,-0.295345,0
2024-12-13 15:19:02.035,0.445364,4.20389,14.161,0.0548999,-0.352535,-0.298399,0
2024-12-13 15:19:02.042,0.538684,3.80429,14.5274,0.0487914,-0.318939,-0.296566,0
2024-12-13 15:19:02.044,0.605683,3.67508,14.6447,0.0487914,-0.318939,-0.296566,0
2024-12-13 15:19:02.049,0.639183,3.43071,14.8313,0.0994917,-0.197991,-0.291069,0
2024-12-13 15:19:02.058,0.794716,3.00927,14.9848,0.159355,-0.073378,-0.283128,0
2024-12-13 15:19:02.061,0.837787,2.89442,14.9848,0.159355,-0.073378,-0.283128,0
2024-12-13 15:19:02.068,0.969691,2.55224,14.9345,0.282746,0.147138,-0.279463,1
2024-12-13 15:19:02.077,1.09173,2.21934,14.5418,0.366432,0.310234,-0.286182,0
2024-12-13 15:19:02.080,1.22572,2.04945,14.3264,0.366432,0.310234,-0.286182,0
2024-12-13 15:19:02.084,1.33819,2.02074,14.2543,0.383001,0.425684,-0.305729,0
2024-12-13 15:19:02.091,1.18983,2.15234,13.8284,0.42515,0.518533,-0.318557,0
2024-12-13 15:19:02.091,1.18983,2.15234,13.8284,0.42515,0.518533,-0.318557,0
2024-12-13 15:19:02.102,1.45813,1.82662,13.1291,0.455692,0.681629,-0.366203,0
2024-12-13 15:19:02.106,1.83859,1.72852,12.5306,0.455692,0.681629,-0.366203,0
2024-12-13 15:19:02.114,1.87448,1.58016,11.3934,0.446529,0.798988,-0.439505,0
2024-12-13 15:19:02.115,1.8673,1.39322,11.3432,0.446529,0.798988,-0.439505,0
2024-12-13 15:19:02.120,1.39322,1.0654,10.9074,0.446529,0.798988,-0.439505,0
2024-12-13 15:19:02.127,0.457328,1.04148,9.68884,0.431258,0.663915,-0.468214,0
2024-12-13 15:19:02.131,0.50997,1.22812,9.01376,0.431258,0.663915,-0.468214,0
2024-12-13 15:19:02.141,0.505185,1.54188,8.36979,0.361545,0.664525,-0.445613,0
2024-12-13 15:19:02.146,0.30658,1.61366,8.18555,0.340776,0.626653,-0.438894,0
2024-12-13 15:19:02.150,0.304188,1.65434,7.95554,0.346885,0.586948,-0.432785,0
2024-12-13 15:19:02.153,0.282652,1.69023,7.87179,0.360934,0.533193,-0.428509,0
2024-12-13 15:19:02.155,0.129212,1.75723,7.82154,0.372617,0.508759,-0.425455,0
2024-12-13 15:19:02.155,0.129212,1.75723,7.82154,0.372617,0.508759,-0.425455,0
2024-12-13 15:19:02.155,0.129212,1.75723,7.82154,0.372617,0.508759,-0.425455,0
2024-12-13 15:19:02.157,-0.0167498,1.80269,7.73779,0.385445,0.486769,-0.419347,0
2024-12-13 15:19:02.157,-0.0167498,1.80269,7.73779,0.385445,0.486769,-0.419347,0
2024-12-13 15:19:02.157,-0.0167498,1.80269,7.73779,0.385445,0.486769,-0.419347,0
2024-12-13 15:19:02.160,-0.0550349,1.84337,7.67079,0.385445,0.486769,-0.419347,0
2024-12-13 15:19:02.169,0.117248,2.09013,7.74736,0.448362,0.344442,-0.397967,0
2024-12-13 15:19:02.172,0.0191426,2.15952,7.8024,0.49051,0.259534,-0.385139,0
2024-12-13 15:19:02.181,0.294616,2.42513,7.82154,0.56992,0.152025,-0.350321,0
2024-12-13 15:19:02.183,0.335294,2.47059,7.81675,0.593133,0.0689494,-0.33505,0
2024-12-13 15:19:02.193,0.428614,2.54985,7.85504,0.689036,-0.021456,-0.308783,0
2024-12-13 15:19:02.195,0.428614,2.54985,7.85504,0.689036,-0.021456,-0.308783,0
2024-12-13 15:19:02.200,0.4669,2.56182,7.69233,0.746455,-0.0929251,-0.27763,0
2024-12-13 15:19:02.205,0.464507,2.56899,7.54367,0.769057,-0.13935,-0.250753,0
2024-12-13 15:19:02.212,0.435793,2.6001,7.25175,0.776387,-0.199213,-0.209215,0
2024-12-13 15:19:02.219,0.476471,2.71256,7.04836,0.759894,-0.237085,-0.179284,0
2024-12-13 15:19:02.223,0.529113,2.75563,6.94517,0.703696,-0.293894,-0.127972,0
2024-12-13 15:19:02.228,0.56022,2.78435,6.87817,0.685371,-0.299392,-0.117588,0
2024-12-13 15:19:02.234,0.586541,2.81545,6.85424,0.60596,-0.299392,-0.0766613,0
2024-12-13 15:19:02.235,0.591326,2.81545,6.83271,0.60596,-0.299392,-0.0766613,0
2024-12-13 15:19:02.235,0.591326,2.81545,6.83271,0.60596,-0.299392,-0.0766613,0
2024-12-13 15:19:02.237,0.598505,2.8346,6.79442,0.585192,-0.301224,-0.0662769,0
2024-12-13 15:19:02.240,0.596112,2.83938,6.74656,0.585192,-0.301224,-0.0662769,0
2024-12-13 15:19:02.247,0.60329,2.82024,6.61735,0.541822,-0.298781,-0.0497841,0
2024-12-13 15:19:02.252,0.588933,2.78435,6.54796,0.452027,-0.300002,-0.0253502,0
2024-12-13 15:19:02.254,0.579362,2.77956,6.51685,0.452027,-0.300002,-0.0253502,0
2024-12-13 15:19:02.259,0.617647,2.76042,6.44955,0.452027,-0.300002,-0.0253502,0
2024-12-13 15:19:02.263,0.63679,2.7676,6.40648,0.365821,-0.301224,-0.0167983,0
2024-12-13 15:19:02.273,0.593719,2.71017,6.31316,0.286411,-0.298781,-0.0143549,0
2024-12-13 15:19:02.275,0.581755,2.69821,6.29881,0.286411,-0.298781,-0.0143549,0
2024-12-13 15:19:02.282,0.60329,2.61446,6.22224,0.24976,-0.301835,-0.0161875,0
2024-12-13 15:19:02.287,0.624826,2.58814,6.20549,0.186843,-0.301835,-0.0296261,0
2024-12-13 15:19:02.294,0.557827,2.52832,6.18874,0.147749,-0.317106,-0.0485624,0
2024-12-13 15:19:02.301,0.507577,2.44666,6.21984,0.139197,-0.322604,-0.0565034,0
2024-12-13 15:19:02.303,0.507577,2.40598,6.16959,0.139197,-0.322604,-0.0565034,0
2024-12-13 15:19:02.311,0.567398,2.35095,5.98535,0.124536,-0.373915,-0.0784939,0
2024-12-13 15:19:02.318,0.557827,2.38923,6.20309,0.0982701,-0.344594,-0.10476,0
2024-12-13 15:19:02.325,0.452543,2.35813,6.11934,0.106822,-0.339707,-0.121864,0
2024-12-13 15:19:02.327,0.478864,2.34856,6.15763,0.120261,-0.307943,-0.142022,0
2024-12-13 15:19:02.336,0.545863,2.30548,6.10977,0.122704,-0.300613,-0.150574,0
2024-12-13 15:19:02.339,0.548256,2.32702,6.05235,0.122704,-0.300613,-0.150574,0
2024-12-13 15:19:02.343,0.584148,2.35095,5.9351,0.139197,-0.2548,-0.188446,0
2024-12-13 15:19:02.351,0.567398,2.39641,5.79123,0.131867,-0.22609,-0.2196,0
2024-12-13 15:19:02.351,0.567398,2.39641,5.79123,0.131867,-0.22609,-0.2196,0
2024-12-13 15:19:02.353,0.557827,2.41555,5.73619,0.125758,-0.219371,-0.227541,0
2024-12-13 15:19:02.353,0.557827,2.41555,5.73619,0.125758,-0.219371,-0.227541,0
2024-12-13 15:19:02.355,0.529113,2.43948,5.65962,0.125758,-0.219371,-0.227541,0
2024-12-13 15:19:02.360,0.457328,2.50648,5.54238,0.111098,-0.210208,-0.242201,0
2024-12-13 15:19:02.369,0.361615,2.66471,5.29801,0.0970484,-0.194937,-0.249531,0
2024-12-13 15:19:02.374,0.344866,2.72692,5.20469,0.0335202,-0.190661,-0.259916,0
2024-12-13 15:19:02.381,0.344866,2.84656,5.13769,-0.0129041,-0.202878,-0.268467,0
2024-12-13 15:19:02.386,0.354437,2.92792,5.0994,-0.0312296,-0.206543,-0.273354,0
2024-12-13 15:19:02.391,0.330509,3.02602,5.09701,-0.0862058,-0.228533,-0.288625,0
2024-12-13 15:19:02.391,0.330509,3.02602,5.09701,-0.0862058,-0.228533,-0.288625,0
2024-12-13 15:19:02.393,0.313759,3.08106,5.12812,-0.10392,-0.234642,-0.294123,0
2024-12-13 15:19:02.393,0.313759,3.08106,5.12812,-0.10392,-0.234642,-0.294123,0
2024-12-13 15:19:02.395,0.299402,3.11246,5.17119,-0.123468,-0.238918,-0.297788,0
2024-12-13 15:19:02.395,0.299402,3.11246,5.17119,-0.123468,-0.238918,-0.297788,0
2024-12-13 15:19:02.395,0.299402,3.11246,5.17119,-0.123468,-0.238918,-0.297788,0
2024-12-13 15:19:02.395,0.299402,3.11246,5.17119,-0.123468,-0.238918,-0.297788,0
2024-12-13 15:19:02.398,0.297009,3.134,5.20947,-0.13935,-0.240139,-0.302064,0
2024-12-13 15:19:02.398,0.297009,3.134,5.20947,-0.13935,-0.240139,-0.302064,0
2024-12-13 15:19:02.400,0.320937,3.1675,5.24776,-0.157675,-0.238307,-0.305729,0
2024-12-13 15:19:02.400,0.320937,3.1675,5.24776,-0.157675,-0.238307,-0.305729,0
2024-12-13 15:19:02.402,0.335294,3.19861,5.28604,-0.173557,-0.237696,-0.313059,0
2024-12-13 15:19:02.407,0.349651,3.2345,5.4012,-0.173557,-0.237696,-0.313059,0
2024-12-13 15:19:02.412,0.320937,3.24646,5.57348,-0.240139,-0.224868,-0.339326,0
2024-12-13 15:19:02.414,0.287438,3.27757,5.64766,-0.254189,-0.221814,-0.343602,0
2024-12-13 15:19:02.414,0.287438,3.27757,5.64766,-0.254189,-0.221814,-0.343602,0
2024-12-13 15:19:02.414,0.287438,3.27757,5.64766,-0.254189,-0.221814,-0.343602,0
2024-12-13 15:19:02.416,0.263211,3.30868,5.72184,-0.270071,-0.220592,-0.346656,0
2024-12-13 15:19:02.416,0.263211,3.30868,5.72184,-0.270071,-0.220592,-0.346656,0
2024-12-13 15:19:02.419,0.263211,3.33978,5.80559,-0.283509,-0.218149,-0.350932,0
2024-12-13 15:19:02.419,0.224925,3.33978,5.80559,-0.283509,-0.218149,-0.350932,0
2024-12-13 15:19:02.419,0.224925,3.33978,5.80559,-0.283509,-0.218149,-0.350932,0
2024-12-13 15:19:02.421,0.177069,3.3661,5.89921,-0.295726,-0.215705,-0.355208,0
2024-12-13 15:19:02.424,0.131605,3.38525,5.98056,-0.31283,-0.213873,-0.354597,0
2024-12-13 15:19:02.424,0.131605,3.38525,5.98056,-0.31283,-0.213873,-0.354597,0
2024-12-13 15:19:02.424,0.131605,3.38525,5.98056,-0.31283,-0.213873,-0.354597,0
2024-12-13 15:19:02.426,0.0981057,3.3996,6.04517,-0.32688,-0.213873,-0.353986,0
2024-12-13 15:19:02.426,0.0981057,3.3996,6.04517,-0.32688,-0.213873,-0.353986,0
2024-12-13 15:19:02.426,0.0981057,3.3996,6.04517,-0.32688,-0.213873,-0.353986,0
2024-12-13 15:19:02.428,0.0717847,3.44028,6.11934,-0.339707,-0.212651,-0.354597,0
2024-12-13 15:19:02.431,0.0334995,3.47857,6.19113,-0.353757,-0.214484,-0.353375,0
2024-12-13 15:19:02.433,0.00957129,3.51924,6.27249,-0.369639,-0.217538,-0.351543,0
2024-12-13 15:19:02.433,0.00957129,3.51924,6.27249,-0.369639,-0.217538,-0.351543,0
2024-12-13 15:19:02.433,0.00957129,3.51924,6.27249,-0.369639,-0.217538,-0.351543,0
2024-12-13 15:19:02.436,-0.00717847,3.54796,6.35623,-0.385521,-0.219981,-0.348488,0
2024-12-13 15:19:02.438,-0.0215354,3.59581,6.4352,-0.401403,-0.21876,-0.343602,0
2024-12-13 15:19:02.438,-0.0215354,3.59581,6.4352,-0.401403,-0.21876,-0.343602,0
2024-12-13 15:19:02.440,-0.0478565,3.65593,6.52164,-0.416674,-0.220592,-0.341158,0
2024-12-13 15:19:02.440,-0.0478565,3.65593,6.52164,-0.416674,-0.220592,-0.341158,0
2024-12-13 15:19:02.440,-0.0478565,3.65593,6.52164,-0.416674,-0.220592,-0.341158,0
2024-12-13 15:19:02.442,-0.0622134,3.68465,6.62214,-0.436832,-0.222425,-0.337493,0
2024-12-13 15:19:02.445,-0.0622134,3.70379,6.73221,-0.452714,-0.222425,-0.332606,0
2024-12-13 15:19:02.445,-0.0622134,3.70379,6.73221,-0.452714,-0.222425,-0.332606,0
2024-12-13 15:19:02.447,-0.0789631,3.7325,6.86142,-0.452714,-0.222425,-0.332606,0
2024-12-13 15:19:02.452,-0.102891,3.77318,7.01725,-0.499749,-0.222425,-0.319779,0
2024-12-13 15:19:02.452,-0.122034,3.81386,7.15364,-0.499749,-0.222425,-0.319779,0
2024-12-13 15:19:02.452,-0.122034,3.81386,7.15364,-0.499749,-0.222425,-0.319779,0
2024-12-13 15:19:02.454,-0.148355,3.84736,7.30439,-0.516853,-0.222425,-0.313059,0
2024-12-13 15:19:02.454,-0.148355,3.84736,7.30439,-0.516853,-0.222425,-0.313059,0
2024-12-13 15:19:02.457,-0.184247,3.89282,7.47907,-0.531513,-0.221203,-0.308783,0
2024-12-13 15:19:02.457,-0.184247,3.89282,7.47907,-0.531513,-0.221203,-0.308783,0
2024-12-13 15:19:02.459,-0.241675,3.95264,7.64926,-0.542509,-0.217538,-0.300231,0
2024-12-13 15:19:02.459,-0.241675,3.95264,7.64926,-0.542509,-0.217538,-0.300231,0
2024-12-13 15:19:02.461,-0.20339,3.96939,7.83111,-0.555947,-0.21204,-0.29229,0
2024-12-13 15:19:02.461,-0.20339,3.96939,7.83111,-0.555947,-0.21204,-0.29229,0
2024-12-13 15:19:02.464,-0.0693919,3.97418,8.02014,-0.566332,-0.204099,-0.287404,0
2024-12-13 15:19:02.468,0.0741775,4.01246,8.32433,-0.582825,-0.188217,-0.280073,0
2024-12-13 15:19:02.468,0.0741775,4.01246,8.32433,-0.582825,-0.188217,-0.280073,0
2024-12-13 15:19:02.468,0.0741775,4.01246,8.32433,-0.582825,-0.188217,-0.280073,0
2024-12-13 15:19:02.471,0.0717847,4.04836,8.45594,-0.593209,-0.178444,-0.278852,0
2024-12-13 15:19:02.471,0.0717847,4.04836,8.45594,-0.593209,-0.178444,-0.278852,0
2024-12-13 15:19:02.471,0.0717847,4.04836,8.45594,-0.593209,-0.178444,-0.278852,0
2024-12-13 15:19:02.471,0.0717847,4.04836,8.45594,-0.593209,-0.178444,-0.278852,0
2024-12-13 15:19:02.473,0.0574277,4.09143,8.60429,-0.601761,-0.164394,-0.274576,0
2024-12-13 15:19:02.473,0.0574277,4.09143,8.60429,-0.601761,-0.164394,-0.274576,0
2024-12-13 15:19:02.473,0.0574277,4.09143,8.60429,-0.601761,-0.164394,-0.274576,0
2024-12-13 15:19:02.475,0.066999,4.12493,8.76491,-0.610313,-0.148512,-0.267857,0
2024-12-13 15:19:02.478,0.066999,4.15603,8.94437,-0.6152,-0.128965,-0.263581,0
2024-12-13 15:19:02.478,0.100499,4.15603,8.94437,-0.6152,-0.128965,-0.263581,0
2024-12-13 15:19:02.478,0.100499,4.15603,8.94437,-0.6152,-0.128965,-0.263581,0
2024-12-13 15:19:02.478,0.100499,4.15603,8.94437,-0.6152,-0.128965,-0.263581,0
2024-12-13 15:19:02.480,0.12682,4.17518,9.12623,-0.620086,-0.111861,-0.258694,0
2024-12-13 15:19:02.482,0.12682,4.18475,9.29402,-0.620086,-0.111861,-0.258694,0
2024-12-13 15:19:02.485,0.22014,4.18953,9.46152,-0.636579,-0.0898709,-0.251974,0
2024-12-13 15:19:02.485,0.22014,4.18953,9.46152,-0.636579,-0.0898709,-0.251974,0
2024-12-13 15:19:02.485,0.22014,4.18953,9.46152,-0.636579,-0.0898709,-0.251974,0
2024-12-13 15:19:02.515,-0.0334995,4.18475,11.19,-0.60115,-0.0623828,-0.243423,0
2024-12-13 15:19:02.522,-0.0646062,4.27119,11.4748,-0.551061,-0.0782648,-0.240368,0
2024-12-13 15:19:02.525,-0.0598206,4.2999,11.554,-0.510134,-0.0849841,-0.238536,0
2024-12-13 15:19:02.532,-0.00239282,4.40997,11.6545,-0.510134,-0.0849841,-0.238536,0
2024-12-13 15:19:02.541,0.00957129,4.50329,11.5445,-0.390408,-0.0660479,-0.23426,0
2024-12-13 15:19:02.548,-0.0358923,4.58226,11.415,-0.277401,-0.0171801,-0.231206,0
2024-12-13 15:19:02.553,-0.133998,4.66122,11.2283,-0.243194,-0.00129805,-0.225708,0
2024-12-13 15:19:02.555,-0.172283,4.7019,11.1206,-0.243194,-0.00129805,-0.225708,0
2024-12-13 15:19:02.555,-0.172283,4.7019,11.1206,-0.243194,-0.00129805,-0.225708,0
2024-12-13 15:19:02.560,-0.20339,4.7665,10.9289,-0.205321,0.0219141,-0.21288,0
2024-12-13 15:19:02.560,-0.20339,4.7665,10.9289,-0.205321,0.0219141,-0.21288,0
2024-12-13 15:19:02.563,-0.20339,4.81227,10.8571,-0.197991,0.0280226,-0.207993,0
2024-12-13 15:19:02.567,-0.229711,4.85534,10.7279,-0.193715,0.0322986,-0.203107,0
2024-12-13 15:19:02.574,-0.232104,4.99891,10.6466,-0.172335,0.038407,-0.179895,0
2024-12-13 15:19:02.577,-0.22014,5.03719,10.6514,-0.172335,0.038407,-0.171953,0
2024-12-13 15:19:02.584,-0.138784,5.15683,10.625,-0.160118,0.042683,-0.161569,0
2024-12-13 15:19:02.586,-0.143569,5.1664,10.649,-0.15401,0.0439046,-0.14813,0
2024-12-13 15:19:02.593,-0.375972,5.09223,10.8045,-0.133852,0.0524565,-0.113923,0
2024-12-13 15:19:02.593,-0.375972,5.09223,10.8045,-0.133852,0.0524565,-0.113923,0
2024-12-13 15:19:02.593,-0.375972,5.09223,10.8045,-0.133852,0.0524565,-0.113923,0
2024-12-13 15:19:02.596,-0.335294,5.0994,10.7997,-0.126522,0.0481806,-0.101706,0
2024-12-13 15:19:02.596,-0.335294,5.0994,10.7997,-0.126522,0.0481806,-0.101706,0
2024-12-13 15:19:02.596,-0.335294,5.0994,10.7997,-0.126522,0.0481806,-0.101706,0
2024-12-13 15:19:02.598,-0.373579,5.09701,10.8476,-0.115526,0.0469589,-0.0876566,0
2024-12-13 15:19:02.598,-0.373579,5.09701,10.8476,-0.115526,0.0469589,-0.0876566,0
2024-12-13 15:19:02.600,-0.344866,5.10658,10.8571,-0.105753,0.046348,-0.0717745,0
2024-12-13 15:19:02.600,-0.344866,5.10658,10.8571,-0.105753,0.046348,-0.0717745,0
2024-12-13 15:19:02.600,-0.344866,5.10658,10.8571,-0.105753,0.046348,-0.0717745,0
2024-12-13 15:19:02.612,-0.112463,5.33181,10.8787,-0.105753,0.046348,-0.0717745,0
2024-12-13 15:19:02.617,-0.0693919,5.41556,10.9289,-0.0257319,0.0518457,-0.00763559,0
2024-12-13 15:19:02.617,-0.0693919,5.41556,10.9289,-0.0257319,0.0518457,-0.00763559,0
2024-12-13 15:19:02.617,-0.0693919,5.41556,10.9289,-0.0257319,0.0518457,-0.00763559,0
2024-12-13 15:19:02.631,0.0478565,5.60937,10.9747,-0.0257319,0.0518457,-0.00763559,0
2024-12-13 15:19:02.643,0.258425,5.81755,11.2355,0.0854423,0.00175619,-0.000916271,0
2024-12-13 15:19:02.647,0.407079,5.85584,11.3647,0.125147,-0.0184018,-0.00335966,0
2024-12-13 15:19:02.654,0.722932,5.9686,11.6378,0.162409,-0.0599394,-0.0241285,0
2024-12-13 15:19:02.657,0.722932,5.9686,11.6378,0.162409,-0.0599394,-0.0241285,0
2024-12-13 15:19:02.661,0.73011,6.04995,11.913,0.195395,-0.0880384,-0.0528383,0
2024-12-13 15:19:02.669,1.11805,6.23181,11.9536,0.2351,-0.120413,-0.0870457,0
2024-12-13 15:19:02.671,1.26401,6.30359,11.8986,0.2351,-0.120413,-0.0870457,0
2024-12-13 15:19:02.671,1.26401,6.30359,11.8986,0.2351,-0.120413,-0.0870457,0
2024-12-13 15:19:02.692,0.610469,6.23181,11.98,0.243041,-0.111861,-0.145076,0
2024-12-13 15:19:02.704,0.605683,6.44716,11.7287,0.144694,0.0402396,-0.129805,0
2024-12-13 15:19:02.706,0.598505,6.469,11.7263,0.123926,0.0579541,-0.130416,0
2024-12-13 15:19:02.706,0.598505,6.469,11.7263,0.123926,0.0579541,-0.130416,0
2024-12-13 15:19:02.709,0.579362,6.49771,11.7479,0.104379,0.0713928,-0.129805,0
2024-12-13 15:19:02.709,0.579362,6.49771,11.7479,0.104379,0.0713928,-0.129805,0
2024-12-13 15:19:02.711,0.56022,6.53839,11.7455,0.0842206,0.0854423,-0.129194,0
2024-12-13 15:19:02.713,0.536291,6.55274,11.7335,0.0610084,0.0988809,-0.131027,0
2024-12-13 15:19:02.720,0.359223,6.54078,11.7287,-0.0122933,0.137364,-0.129194,0
2024-12-13 15:19:02.723,0.308973,6.50967,11.7598,-0.037338,0.144694,-0.132859,0
2024-12-13 15:19:02.727,0.212961,6.4352,11.9225,-0.0941468,0.143473,-0.135303,0
2024-12-13 15:19:02.727,0.212961,6.4352,11.9225,-0.0941468,0.143473,-0.135303,0
2024-12-13 15:19:02.727,0.212961,6.4352,11.9225,-0.0941468,0.143473,-0.135303,0
2024-12-13 15:19:02.727,0.212961,6.4352,11.9225,-0.0941468,0.143473,-0.135303,0
2024-12-13 15:19:02.730,0.157926,6.38495,12.0278,-0.123468,0.132477,-0.135914,0
2024-12-13 15:19:02.734,0.0478565,6.25334,12.3296,-0.183941,0.0982701,-0.139579,0
2024-12-13 15:19:02.734,0.0478565,6.25334,12.3296,-0.183941,0.0982701,-0.139579,0
2024-12-13 15:19:02.737,0.0478565,6.25334,12.5593,-0.213262,0.0720036,-0.137746,0
2024-12-13 15:19:02.737,0.00717847,6.16002,12.5593,-0.213262,0.0720036,-0.137746,0
2024-12-13 15:19:02.737,0.00717847,6.16002,12.5593,-0.213262,0.0720036,-0.137746,0
2024-12-13 15:19:02.739,-0.0430708,6.03799,12.8133,-0.241361,0.0402396,-0.136524,0
2024-12-13 15:19:02.739,-0.0430708,6.03799,12.8133,-0.241361,0.0402396,-0.136524,0
2024-12-13 15:19:02.742,-0.119641,5.91117,13.0765,-0.266406,0.00786466,-0.134081,0
2024-12-13 15:19:02.742,-0.119641,5.91117,13.0765,-0.266406,0.00786466,-0.134081,0
2024-12-13 15:19:02.742,-0.119641,5.91117,13.0765,-0.266406,0.00786466,-0.134081,0
2024-12-13 15:19:02.742,-0.119641,5.91117,13.0765,-0.266406,0.00786466,-0.134081,0
2024-12-13 15:19:02.744,-0.196211,5.77926,13.3639,-0.266406,0.00786466,-0.134081,0
2024-12-13 15:19:02.746,-0.267996,5.6357,13.675,-0.307943,-0.0562743,-0.121253,0
2024-12-13 15:19:02.746,-0.267996,5.6357,13.675,-0.307943,-0.0562743,-0.121253,0
2024-12-13 15:19:02.749,-0.337687,5.4993,13.9863,-0.325047,-0.085595,-0.113923,0
2024-12-13 15:19:02.751,-0.378365,5.34616,14.3145,-0.337875,-0.110029,-0.103539,0
2024-12-13 15:19:02.751,-0.378365,5.34616,14.3145,-0.337875,-0.110029,-0.103539,0
2024-12-13 15:19:02.751,-0.378365,5.34616,14.3145,-0.337875,-0.110029,-0.103539,0
2024-12-13 15:19:02.754,-0.41665,5.18076,14.6471,-0.343983,-0.142404,-0.0784939,0
2024-12-13 15:19:02.763,-0.756431,4.70668,15.8871,-0.343983,-0.125911,-0.00885729,0
2024-12-13 15:19:02.770,-0.593719,4.02682,16.8616,-0.295726,-0.0990336,0.0406213,0
2024-12-13 15:19:02.775,-0.270389,3.56231,17.3405,-0.184552,-0.0153475,0.107204,0
2024-12-13 15:19:02.777,-0.301795,3.36132,17.5391,-0.135684,0.0237467,0.123697,1
2024-12-13 15:19:02.789,-0.0382852,2.56182,17.8624,0.219218,0.332835,0.200129,0
2024-12-13 15:19:02.793,0.00239282,2.4658,17.5798,0.219218,0.332835,0.200129,0
2024-12-13 15:19:02.805,-0.208176,2.44427,16.232,0.219218,0.332835,0.200129,0
2024-12-13 15:19:02.812,-0.133998,2.34616,15.2575,0.824644,0.583283,0.305195,0
2024-12-13 15:19:02.829,0.0622134,2.25524,12.5593,0.993238,0.527085,0.347954,0
2024-12-13 15:19:02.840,-0.325723,2.35573,10.7686,1.29255,0.375595,0.393157,0
2024-12-13 15:19:02.857,-0.96012,2.38923,7.79283,1.33592,0.396364,0.460961,0
2024-12-13 15:19:02.862,-1.21376,2.4347,7.23978,1.28644,0.423241,0.479897,0
2024-12-13 15:19:02.873,-1.36929,2.48016,6.35623,1.28644,0.423241,0.479897,0
2024-12-13 15:19:02.881,-1.48923,2.57617,5.99253,1.09953,0.45867,0.523267,0
2024-12-13 15:19:02.902,-1.25444,2.73888,5.63091,0.761727,0.415911,0.482951,0
2024-12-13 15:19:02.902,-1.25444,2.73888,5.63091,0.761727,0.415911,0.482951,0
2024-12-13 15:19:02.904,-1.25683,2.75324,5.6333,0.730573,0.404915,0.474399,0
2024-12-13 15:19:02.904,-1.25683,2.75324,5.6333,0.730573,0.404915,0.474399,0
2024-12-13 15:19:02.904,-1.25683,2.75324,5.6333,0.730573,0.404915,0.474399,0
2024-12-13 15:19:02.906,-1.2329,2.75803,5.64766,0.700031,0.393309,0.464626,0
2024-12-13 15:19:02.906,-1.2329,2.75803,5.64766,0.700031,0.393309,0.464626,0
2024-12-13 15:19:02.909,-1.15633,2.76042,5.69552,0.671932,0.373151,0.454241,0
2024-12-13 15:19:02.911,-1.0989,2.75563,5.73619,0.646276,0.346274,0.443246,0
2024-12-13 15:19:02.911,-1.0989,2.75563,5.73619,0.646276,0.346274,0.443246,0
2024-12-13 15:19:02.913,-1.09412,2.75324,5.79362,0.616956,0.317564,0.430418,0
2024-12-13 15:19:02.914,-1.09412,2.75324,5.79362,0.616956,0.317564,0.430418,0
2024-12-13 15:19:02.916,-1.06062,2.7341,5.87258,0.590689,0.289465,0.420034,0
2024-12-13 15:19:02.916,-1.06062,2.7341,5.87258,0.590689,0.289465,0.420034,0
2024-12-13 15:19:02.918,-0.984048,2.68864,5.90638,0.567477,0.254647,0.404763,0
2024-12-13 15:19:02.918,-0.984048,2.68864,5.90638,0.567477,0.254647,0.404763,0
2024-12-13 15:19:02.923,-0.909871,2.64317,5.97817,0.51922,0.181956,0.372999,0
2024-12-13 15:19:02.923,-0.909871,2.64317,5.97817,0.51922,0.181956,0.372999,0
2024-12-13 15:19:02.925,-0.912264,2.64078,6.03081,0.501506,0.150192,0.358949,0
2024-12-13 15:19:02.928,-0.907478,2.6671,6.08106,0.481348,0.120871,0.341845,0
2024-12-13 15:19:02.928,-0.907478,2.6671,6.08106,0.481348,0.120871,0.341845,0
2024-12-13 15:19:02.930,-0.895514,2.68385,6.09781,0.464244,0.090329,0.325963,0
2024-12-13 15:19:02.932,-0.862014,2.67428,6.08824,0.448973,0.0640626,0.309471,0
2024-12-13 15:19:02.932,-0.862014,2.67428,6.08824,0.448973,0.0640626,0.309471,0
2024-12-13 15:19:02.935,-0.862014,2.66231,6.09302,0.43248,0.0365745,0.293588,0
2024-12-13 15:19:02.935,-0.821037,2.66231,6.09302,0.43248,0.0365745,0.293588,0
2024-12-13 15:19:02.937,-0.780359,2.65035,6.10977,0.420874,0.00786466,0.277096,0
2024-12-13 15:19:02.937,-0.780359,2.65035,6.10977,0.420874,0.00786466,0.277096,0
2024-12-13 15:19:02.937,-0.780359,2.65035,6.10977,0.420874,0.00786466,0.277096,0
2024-12-13 15:19:02.939,-0.734896,2.64556,6.10738,0.404381,-0.0238994,0.25877,0
2024-12-13 15:19:02.939,-0.734896,2.64556,6.10738,0.404381,-0.0238994,0.25877,0
2024-12-13 15:19:02.939,-0.734896,2.64556,6.10738,0.404381,-0.0238994,0.25877,0
2024-12-13 15:19:02.939,-0.734896,2.64556,6.10738,0.404381,-0.0238994,0.25877,0
2024-12-13 15:19:02.939,-0.734896,2.64556,6.10738,0.404381,-0.0238994,0.25877,0
2024-12-13 15:19:02.944,-0.677468,2.63121,6.13849,0.377504,-0.0874275,0.228839,0
2024-12-13 15:19:02.944,-0.677468,2.63121,6.13849,0.377504,-0.0874275,0.228839,0
2024-12-13 15:19:02.944,-0.677468,2.63121,6.13849,0.377504,-0.0874275,0.228839,0
2024-12-13 15:19:02.946,-0.651147,2.63121,6.1337,0.36521,-0.112472,0.212346,0
2024-12-13 15:19:02.956,-0.569791,2.58335,6.05713,0.32917,-0.191272,0.15065,0
2024-12-13 15:19:02.963,-0.545863,2.56899,6.02602,0.32917,-0.191272,0.15065,0
2024-12-13 15:19:02.975,-0.3999,2.43709,5.84387,0.266253,-0.240139,0.0607793,0
2024-12-13 15:19:02.977,-0.366401,2.42513,5.82951,0.266253,-0.240139,0.0607793,0
2024-12-13 15:19:02.991,-0.272782,2.40359,5.71705,0.197227,-0.215095,0.00702474,0
2024-12-13 15:19:02.994,-0.253639,2.41077,5.70509,0.188675,-0.199823,-0.00458135,0
2024-12-13 15:19:03.003,-0.210568,2.44427,5.60698,0.145305,-0.176611,-0.0125224,0
2024-12-13 15:19:03.003,-0.210568,2.44427,5.60698,0.145305,-0.176611,-0.0125224,0
2024-12-13 15:19:03.005,-0.215354,2.44905,5.56391,0.137975,-0.167449,-0.0119115,0
2024-12-13 15:19:03.010,-0.200997,2.46102,5.48495,0.118428,-0.149734,-0.00702474,0
2024-12-13 15:19:03.012,-0.198604,2.46341,5.44906,0.110487,-0.138739,-0.00580305,0
2024-12-13 15:19:03.012,-0.198604,2.46341,5.44906,0.110487,-0.138739,-0.00580305,0
2024-12-13 15:19:03.012,-0.198604,2.46341,5.44906,0.110487,-0.138739,-0.00580305,0
2024-12-13 15:19:03.015,-0.205783,2.46341,5.41077,0.101324,-0.129576,-0.0051922,0
2024-12-13 15:19:03.015,-0.205783,2.46341,5.41077,0.101324,-0.129576,-0.0051922,0
2024-12-13 15:19:03.022,-0.22014,2.48016,5.35813,0.0939941,-0.119802,-0.000305424,0
2024-12-13 15:19:03.024,-0.234497,2.48973,5.33899,0.0640626,-0.0862058,0.0155766,0
2024-12-13 15:19:03.024,-0.234497,2.48973,5.33899,0.0640626,-0.0862058,0.0155766,0
2024-12-13 15:19:03.027,-0.236889,2.5017,5.32672,0.0555107,-0.0745997,0.0204634,0
2024-12-13 15:19:03.027,-0.236889,2.5017,5.32672,0.0555107,-0.0745997,0.0204634,0
2024-12-13 15:19:03.034,-0.224925,2.53071,5.27887,0.0268009,-0.0306187,0.0424539,0
2024-12-13 15:19:03.034,-0.224925,2.53071,5.27887,0.0268009,-0.0306187,0.0424539,0
2024-12-13 15:19:03.036,-0.215354,2.55224,5.25494,0.0158057,-0.0177909,0.0491732,0
2024-12-13 15:19:03.038,-0.200997,2.57139,5.25733,0.00786466,-0.00129805,0.0558925,0
2024-12-13 15:19:03.038,-0.200997,2.57139,5.25733,0.00786466,-0.00129805,0.0558925,0
2024-12-13 15:19:03.041,-0.18664,2.58814,5.2669,-0.00496313,0.0115297,0.0638335,0
2024-12-13 15:19:03.041,-0.18664,2.58814,5.2669,-0.00496313,0.0115297,0.0638335,0
2024-12-13 15:19:03.043,-0.177069,2.59532,5.25494,-0.013515,0.0249684,0.069942,0
2024-12-13 15:19:03.043,-0.177069,2.59532,5.25494,-0.013515,0.0249684,0.069942,0
2024-12-13 15:19:03.043,-0.177069,2.59532,5.25494,-0.013515,0.0249684,0.069942,0
2024-12-13 15:19:03.045,-0.18664,2.61446,5.2334,-0.0245102,0.0359636,0.0754396,0
2024-12-13 15:19:03.048,-0.210568,2.64556,5.2334,-0.0361163,0.0445155,0.0833807,0
2024-12-13 15:19:03.048,-0.210568,2.64556,5.2334,-0.0361163,0.0445155,0.0833807,0
2024-12-13 15:19:03.050,-0.234497,2.66471,5.22862,-0.0489441,0.050624,0.0901,0
2024-12-13 15:19:03.050,-0.234497,2.66471,5.22862,-0.0489441,0.050624,0.0901,0
2024-12-13 15:19:03.052,-0.251246,2.67189,5.24297,-0.0605502,0.0567324,0.0974301,0
2024-12-13 15:19:03.052,-0.251246,2.67189,5.24297,-0.0605502,0.0567324,0.0974301,0
2024-12-13 15:19:03.055,-0.248854,2.69581,5.27647,-0.073378,0.0603975,0.10476,0
2024-12-13 15:19:03.055,-0.248854,2.69581,5.27647,-0.073378,0.0603975,0.10476,0
2024-12-13 15:19:03.057,-0.251246,2.7006,5.31476,-0.085595,0.0622301,0.113312,0
2024-12-13 15:19:03.057,-0.251246,2.7006,5.31476,-0.085595,0.0622301,0.113312,0
2024-12-13 15:19:03.057,-0.251246,2.7006,5.31476,-0.085595,0.0622301,0.113312,0
2024-12-13 15:19:03.057,-0.251246,2.7006,5.31476,-0.085595,0.0622301,0.113312,0
2024-12-13 15:19:03.057,-0.251246,2.7006,5.31476,-0.085595,0.0622301,0.113312,0
2024-12-13 15:19:03.060,-0.267996,2.71496,5.3677,-0.0990336,0.0658951,0.119421,0
2024-12-13 15:19:03.060,-0.267996,2.71496,5.3677,-0.0990336,0.0658951,0.119421,0
2024-12-13 15:19:03.062,-0.297009,2.75324,5.44427,-0.111251,0.0652843,0.125529,0
2024-12-13 15:19:03.069,-0.248854,2.82024,5.57827,-0.13935,0.0555107,0.15065,0
2024-12-13 15:19:03.071,-0.196211,2.8322,5.6022,-0.150956,0.0555107,0.15737,0
2024-12-13 15:19:03.071,-0.196211,2.8322,5.6022,-0.150956,0.0555107,0.15737,0
2024-12-13 15:19:03.074,-0.131605,2.85853,5.61655,-0.150956,0.0555107,0.15737,0
2024-12-13 15:19:03.081,-0.0502493,2.92074,5.81516,-0.19005,0.0536782,0.168365,0
2024-12-13 15:19:03.083,-0.0598206,2.9662,5.87019,-0.19738,0.0457372,0.170197,0
2024-12-13 15:19:03.083,-0.0598206,2.9662,5.87019,-0.19738,0.0457372,0.170197,0
2024-12-13 15:19:03.083,-0.0598206,2.9662,5.87019,-0.19738,0.0457372,0.170197,0
2024-12-13 15:19:03.085,-0.0741775,3.01167,5.93031,-0.208986,0.0402396,0.168976,0
2024-12-13 15:19:03.085,-0.0741775,3.01167,5.93031,-0.208986,0.0402396,0.168976,0
2024-12-13 15:19:03.088,-0.0693919,3.05713,5.9997,-0.208986,0.0402396,0.168976,0
2024-12-13 15:19:03.088,-0.0693919,3.05713,5.9997,-0.208986,0.0402396,0.168976,0
2024-12-13 15:19:03.090,-0.0478565,3.11964,6.05474,-0.223036,0.0274118,0.166532,0
2024-12-13 15:19:03.090,-0.0478565,3.11964,6.05474,-0.223036,0.0274118,0.166532,0
2024-12-13 15:19:03.090,-0.0478565,3.11964,6.05474,-0.223036,0.0274118,0.166532,0
2024-12-13 15:19:03.095,-0.0502493,3.2345,6.13849,-0.241361,0.0121406,0.164089,0
2024-12-13 15:19:03.095,-0.0502493,3.2345,6.13849,-0.241361,0.0121406,0.164089,0
2024-12-13 15:19:03.104,-0.100499,3.38525,6.16242,-0.268849,-0.00984991,0.153094,0
2024-12-13 15:19:03.104,-0.100499,3.38525,6.16242,-0.268849,-0.00984991,0.153094,0
2024-12-13 15:19:03.104,-0.100499,3.38525,6.16242,-0.268849,-0.00984991,0.153094,0
2024-12-13 15:19:03.107,-0.11007,3.402,6.17677,-0.274347,-0.0147367,0.147596,0
2024-12-13 15:19:03.111,-0.133998,3.49771,6.17677,-0.279844,-0.0190126,0.143931,0
2024-12-13 15:19:03.111,-0.133998,3.49771,6.17677,-0.279844,-0.0190126,0.143931,0
2024-12-13 15:19:03.116,-0.119641,3.59581,6.15524,-0.303057,-0.0361163,0.124307,0
2024-12-13 15:19:03.118,-0.11007,3.64606,6.14567,-0.313441,-0.0440574,0.118199,0
2024-12-13 15:19:03.121,-0.114855,3.69422,6.12892,-0.320771,-0.0526092,0.110258,0
2024-12-13 15:19:03.121,-0.114855,3.69422,6.12892,-0.320771,-0.0526092,0.110258,0
2024-12-13 15:19:03.121,-0.114855,3.69422,6.12892,-0.320771,-0.0526092,0.110258,0
2024-12-13 15:19:03.123,-0.124427,3.72772,6.11695,-0.330545,-0.0629936,0.100484,0
2024-12-13 15:19:03.125,-0.117248,3.7684,6.12413,-0.342151,-0.0691021,0.0937651,0
2024-12-13 15:19:03.129,-0.114855,3.80429,6.14806,-0.354368,-0.077654,0.0852132,0
2024-12-13 15:19:03.133,-0.105284,3.84736,6.19831,-0.354368,-0.077654,0.0852132,0
2024-12-13 15:19:03.133,-0.0885344,3.84736,6.19831,-0.354368,-0.077654,0.0852132,0
2024-12-13 15:19:03.135,-0.0765703,3.88325,6.2342,-0.384299,-0.107585,0.0589468,0
2024-12-13 15:19:03.135,-0.0765703,3.88325,6.2342,-0.384299,-0.107585,0.0589468,0
2024-12-13 15:19:03.137,-0.0693919,3.91197,6.26531,-0.39896,-0.117359,0.0491732,0
2024-12-13 15:19:03.138,-0.0693919,3.91197,6.26531,-0.411787,-0.125911,0.0393996,0
2024-12-13 15:19:03.140,-0.0454636,3.93829,6.28684,-0.411787,-0.125911,0.0393996,0
2024-12-13 15:19:03.140,-0.0454636,3.93829,6.28684,-0.411787,-0.125911,0.0393996,0
2024-12-13 15:19:03.142,-0.0382852,3.967,6.3347,-0.424615,-0.13263,0.0296261,0
2024-12-13 15:19:03.142,-0.0382852,3.967,6.3347,-0.424615,-0.13263,0.0296261,0
2024-12-13 15:19:03.144,-0.0358923,3.98854,6.41127,-0.439276,-0.141793,0.0210742,0
2024-12-13 15:19:03.144,-0.0358923,3.98854,6.41127,-0.439276,-0.141793,0.0210742,0
2024-12-13 15:19:03.147,-0.0215354,4.01486,6.48096,-0.453325,-0.149734,0.0106898,0
2024-12-13 15:19:03.147,-0.0215354,4.01486,6.48096,-0.453325,-0.149734,0.0106898,0
2024-12-13 15:19:03.147,-0.0215354,4.01486,6.48096,-0.453325,-0.149734,0.0106898,0
2024-12-13 15:19:03.147,-0.0215354,4.01486,6.48096,-0.453325,-0.149734,0.0106898,0
2024-12-13 15:19:03.151,-0.0239282,4.04836,6.59582,-0.483867,-0.163783,-0.00763559,0
2024-12-13 15:19:03.151,-0.0239282,4.04836,6.59582,-0.483867,-0.163783,-0.00763559,0
2024-12-13 15:19:03.151,-0.0239282,4.04836,6.59582,-0.483867,-0.163783,-0.00763559,0
2024-12-13 15:19:03.154,-0.0287139,4.09382,6.67478,-0.502193,-0.171724,-0.01802,0
2024-12-13 15:19:03.154,-0.0287139,4.09382,6.67478,-0.502193,-0.171724,-0.01802,0
2024-12-13 15:19:03.156,-0.026321,4.13689,6.78485,-0.518686,-0.180276,-0.0290152,0
2024-12-13 15:19:03.156,-0.026321,4.13689,6.78485,-0.518686,-0.180276,-0.0290152,0
2024-12-13 15:19:03.158,-0.0382852,4.17039,6.87817,-0.5364,-0.19005,-0.038178,0
2024-12-13 15:19:03.163,-0.0765703,4.2664,7.06272,-0.5364,-0.19005,-0.038178,0
2024-12-13 15:19:03.163,-0.0765703,4.2664,7.06272,-0.5364,-0.19005,-0.038178,0
2024-12-13 15:19:03.168,-0.0598206,4.33101,7.24696,-0.60848,-0.213873,-0.0681095,0
2024-12-13 15:19:03.168,-0.0598206,4.33101,7.24696,-0.60848,-0.213873,-0.0681095,0
2024-12-13 15:19:03.175,-0.0334995,4.43151,7.51735,-0.659181,-0.215095,-0.0968193,0
2024-12-13 15:19:03.175,-0.0334995,4.43151,7.51735,-0.659181,-0.215095,-0.0968193,0
2024-12-13 15:19:03.184,-0.0502493,4.61097,7.92682,-0.690945,-0.210819,-0.116366,0
2024-12-13 15:19:03.189,-0.0358923,4.62293,8.17358,-0.740423,-0.188217,-0.152406,0
2024-12-13 15:19:03.189,-0.0358923,4.62293,8.17358,-0.740423,-0.188217,-0.152406,0
2024-12-13 15:19:03.191,-0.0143569,4.64447,8.29083,-0.749586,-0.18272,-0.160958,0
2024-12-13 15:19:03.191,-0.0143569,4.64447,8.29083,-0.749586,-0.18272,-0.160958,0
2024-12-13 15:19:03.194,0.00478565,4.6325,8.42483,-0.756305,-0.17539,-0.170732,0
2024-12-13 15:19:03.194,0.00478565,4.6325,8.42483,-0.756305,-0.17539,-0.170732,0
2024-12-13 15:19:03.196,0.0382852,4.60379,8.55404,-0.763025,-0.166838,-0.178673,0
2024-12-13 15:19:03.197,0.0382852,4.60379,8.55404,-0.767911,-0.158286,-0.189668,0
2024-12-13 15:19:03.198,0.0741775,4.59901,8.66411,-0.767911,-0.158286,-0.189668,0
2024-12-13 15:19:03.201,0.0741775,4.59901,8.77448,-0.769133,-0.152177,-0.19822,0
2024-12-13 15:19:03.201,0.0837488,4.59422,8.77448,-0.769133,-0.152177,-0.19822,0
2024-12-13 15:19:03.206,0.117248,4.57986,9.00898,-0.772798,-0.137517,-0.215324,0
2024-12-13 15:19:03.206,0.117248,4.57986,9.00898,-0.772798,-0.137517,-0.215324,0
2024-12-13 15:19:03.208,0.145962,4.57029,9.11905,-0.772187,-0.130187,-0.223876,0
2024-12-13 15:19:03.210,0.162712,4.57508,9.20758,-0.768522,-0.127133,-0.230595,0
2024-12-13 15:19:03.213,0.165105,4.57268,9.29881,-0.763025,-0.121635,-0.239758,0
2024-12-13 15:19:03.215,0.16989,4.57747,9.38256,-0.763025,-0.115526,-0.248309,0
2024-12-13 15:19:03.217,0.177069,4.59422,9.46391,-0.748364,-0.106975,-0.254418,0
2024-12-13 15:19:03.217,0.177069,4.59422,9.46391,-0.748364,-0.106975,-0.254418,0
2024-12-13 15:19:03.220,0.150748,4.61336,9.53809,-0.739202,-0.0978119,-0.259305,0
2024-12-13 15:19:03.222,0.131605,4.63011,9.60509,-0.739202,-0.0886492,-0.261748,0
2024-12-13 15:19:03.224,0.148355,4.6325,9.67927,-0.717211,-0.0788757,-0.266024,0
2024-12-13 15:19:03.234,0.217747,4.6995,9.92842,-0.654905,-0.0471116,-0.278852,0
2024-12-13 15:19:03.234,0.217747,4.6995,9.92842,-0.654905,-0.0471116,-0.278852,0
2024-12-13 15:19:03.236,0.227318,4.71147,9.97867,-0.654905,-0.0471116,-0.278852,0
2024-12-13 15:19:03.239,0.229711,4.72582,10.017,-0.623141,-0.0318404,-0.284349,0
2024-12-13 15:19:03.239,0.229711,4.72582,10.017,-0.623141,-0.0318404,-0.284349,0
2024-12-13 15:19:03.242,0.234497,4.74736,10.0457,-0.590155,-0.0208452,-0.288625,0
2024-12-13 15:19:03.243,0.236889,4.77877,10.0648,-0.590155,-0.0208452,-0.288625,0
2024-12-13 15:19:03.243,0.236889,4.77877,10.0648,-0.590155,-0.0208452,-0.288625,0
2024-12-13 15:19:03.243,0.236889,4.77877,10.0648,-0.590155,-0.0208452,-0.288625,0
2024-12-13 15:19:03.246,0.208176,4.80269,10.0863,-0.571829,-0.00801737,-0.291069,0
2024-12-13 15:19:03.246,0.208176,4.80269,10.0863,-0.571829,-0.00801737,-0.291069,0
2024-12-13 15:19:03.246,0.208176,4.80269,10.0863,-0.571829,-0.00801737,-0.291069,0
2024-12-13 15:19:03.246,0.208176,4.80269,10.0863,-0.571829,-0.00801737,-0.291069,0
2024-12-13 15:19:03.246,0.208176,4.80269,10.0863,-0.571829,-0.00801737,-0.291069,0
2024-12-13 15:19:03.246,0.208176,4.80269,10.0863,-0.571829,-0.00801737,-0.291069,0
2024-12-13 15:19:03.246,0.208176,4.80269,10.0863,-0.571829,-0.00801737,-0.291069,0
2024-12-13 15:19:03.246,0.208176,4.80269,10.0863,-0.571829,-0.00801737,-0.291069,0
2024-12-13 15:19:03.247,0.208176,4.80269,10.0863,-0.571829,-0.00801737,-0.291069,0
2024-12-13 15:19:03.267,-0.124427,5.1329,10.0887,-0.555947,-0.00129805,-0.29168,0
2024-12-13 15:19:03.271,-0.162712,5.19272,9.99303,-0.391019,0.0640626,-0.274576,0
2024-12-13 15:19:03.276,-0.18664,5.24058,9.84467,-0.358033,0.0701711,-0.2703,0
2024-12-13 15:19:03.283,-0.251246,5.34138,9.68884,-0.319549,0.0732253,-0.264802,0
2024-12-13 15:19:03.288,-0.364008,5.37488,9.66012,-0.319549,0.0732253,-0.264802,0
2024-12-13 15:19:03.300,-0.447757,5.39641,9.78694,-0.285953,0.0127514,-0.244033,0
2024-12-13 15:19:03.302,-0.447757,5.40598,9.8351,-0.285953,0.0127514,-0.244033,0
2024-12-13 15:19:03.309,-0.407079,5.38924,10.017,-0.256021,-0.073378,-0.231206,0
2024-12-13 15:19:03.316,-0.380758,5.33899,10.2251,-0.223036,-0.117359,-0.228762,0
2024-12-13 15:19:03.326,-0.32333,5.24058,10.4336,-0.176611,-0.15401,-0.229984,0
2024-12-13 15:19:03.330,-0.297009,5.18315,10.4934,-0.138128,-0.172946,-0.233038,0
2024-12-13 15:19:03.337,-0.215354,5.14248,10.5413,-0.057496,-0.202267,-0.244644,0
2024-12-13 15:19:03.352,-0.191426,5.08983,10.5365,0.042683,-0.219371,-0.258694,0
2024-12-13 15:19:03.356,-0.198604,5.08983,10.5102,0.0793338,-0.214484,-0.264191,0
2024-12-13 15:19:03.363,-0.179462,5.08026,10.4504,0.108654,-0.208375,-0.273354,0
2024-12-13 15:19:03.366,-0.172283,5.08026,10.4384,0.146527,-0.199213,-0.285571,0
2024-12-13 15:19:03.370,-0.162712,5.08744,10.4216,0.157522,-0.194937,-0.29168,0
2024-12-13 15:19:03.377,-0.189033,5.17597,10.3543,0.188065,-0.177222,-0.314892,0
2024-12-13 15:19:03.380,-0.208176,5.2023,10.3567,0.188065,-0.177222,-0.314892,0
2024-12-13 15:19:03.389,-0.385544,5.29562,10.3519,0.216164,-0.156453,-0.338104,0
2024-12-13 15:19:03.396,-0.476471,5.30279,10.3639,0.224715,-0.155232,-0.340547,0
2024-12-13 15:19:03.401,-0.572184,5.34377,10.4049,0.244873,-0.180887,-0.340547,0
2024-12-13 15:19:03.408,-0.617647,5.42034,10.5844,0.247317,-0.191272,-0.337493,0
2024-12-13 15:19:03.413,-0.632004,5.48016,10.7614,0.267475,-0.239528,-0.331385,0
2024-12-13 15:19:03.413,-0.632004,5.48016,10.7614,0.267475,-0.239528,-0.331385,0
2024-12-13 15:19:03.422,-0.502792,5.7003,11.1206,0.282135,-0.284731,-0.329552,0
2024-12-13 15:19:03.422,-0.502792,5.7003,11.1206,0.282135,-0.284731,-0.329552,0
2024-12-13 15:19:03.425,-0.452543,5.74816,11.2068,0.286411,-0.293894,-0.330774,0
2024-12-13 15:19:03.425,-0.452543,5.74816,11.2068,0.286411,-0.293894,-0.330774,0
2024-12-13 15:19:03.427,-0.414257,5.77687,11.2834,0.288244,-0.300613,-0.330774,0
2024-12-13 15:19:03.427,-0.414257,5.77687,11.2834,0.288244,-0.300613,-0.330774,0
2024-12-13 15:19:03.432,-0.347258,5.82951,11.4461,0.290076,-0.314663,-0.33505,0
2024-12-13 15:19:03.432,-0.347258,5.82951,11.4461,0.290076,-0.314663,-0.33505,0
2024-12-13 15:19:03.446,-0.457328,5.9662,11.9943,0.29985,-0.328101,-0.335661,0
2024-12-13 15:19:03.448,-0.4334,5.9686,12.047,0.30046,-0.323825,-0.336271,0
2024-12-13 15:19:03.448,-0.4334,5.9686,12.047,0.30046,-0.323825,-0.336271,0
2024-12-13 15:19:03.450,-0.421436,5.97338,12.1238,0.301071,-0.317717,-0.339326,0
2024-12-13 15:19:03.453,-0.421436,6.02124,12.2315,0.305958,-0.314052,-0.341158,0
2024-12-13 15:19:03.453,-0.435793,6.02124,12.2315,0.305958,-0.314052,-0.341158,0
2024-12-13 15:19:03.453,-0.435793,6.02124,12.2315,0.305958,-0.314052,-0.341158,0
2024-12-13 15:19:03.455,-0.471685,6.1002,12.3368,0.310845,-0.312219,-0.344212,0
2024-12-13 15:19:03.455,-0.471685,6.1002,12.3368,0.310845,-0.312219,-0.344212,0
2024-12-13 15:19:03.458,-0.474078,6.17199,12.4253,0.31451,-0.306722,-0.346656,0
2024-12-13 15:19:03.458,-0.474078,6.17199,12.4253,0.31451,-0.306722,-0.346656,0
2024-12-13 15:19:03.458,-0.474078,6.17199,12.4253,0.31451,-0.306722,-0.346656,0
2024-12-13 15:19:03.460,-0.45015,6.23659,12.4947,0.316953,-0.298781,-0.346656,0
2024-12-13 15:19:03.460,-0.45015,6.23659,12.4947,0.316953,-0.298781,-0.346656,0
2024-12-13 15:19:03.462,-0.428614,6.29402,12.5785,0.321229,-0.294505,-0.34971,0
2024-12-13 15:19:03.462,-0.428614,6.29402,12.5785,0.321229,-0.294505,-0.34971,0
2024-12-13 15:19:03.465,-0.421436,6.34427,12.6673,0.326727,-0.289007,-0.352153,0
2024-12-13 15:19:03.465,-0.421436,6.34427,12.6673,0.326727,-0.289007,-0.352153,0
2024-12-13 15:19:03.467,-0.3999,6.3993,12.7558,0.332225,-0.280455,-0.354597,0
2024-12-13 15:19:03.467,-0.3999,6.3993,12.7558,0.332225,-0.280455,-0.354597,0
2024-12-13 15:19:03.469,-0.30658,6.45703,12.8157,0.337722,-0.274347,-0.35704,0
2024-12-13 15:19:03.469,-0.30658,6.45703,12.8157,0.337722,-0.274347,-0.35704,0
2024-12-13 15:19:03.469,-0.30658,6.45703,12.8157,0.337722,-0.274347,-0.35704,0
2024-12-13 15:19:03.469,-0.30658,6.45703,12.8157,0.337722,-0.274347,-0.35704,0
2024-12-13 15:19:03.472,-0.294616,6.48814,12.8516,0.341998,-0.270682,-0.366203,0
2024-12-13 15:19:03.472,-0.294616,6.48814,12.8516,0.341998,-0.270682,-0.366203,0
2024-12-13 15:19:03.474,-0.387936,6.50489,12.9162,0.34322,-0.265184,-0.368646,0
2024-12-13 15:19:03.474,-0.387936,6.50489,12.9162,0.34322,-0.265184,-0.368646,0
2024-12-13 15:19:03.474,-0.387936,6.50489,12.9162,0.34322,-0.265184,-0.368646,0
2024-12-13 15:19:03.476,-0.313759,6.43041,12.9712,0.346274,-0.256021,-0.369868,0
2024-12-13 15:19:03.476,-0.313759,6.43041,12.9712,0.346274,-0.256021,-0.369868,0
2024-12-13 15:19:03.476,-0.313759,6.43041,12.9712,0.346274,-0.256021,-0.369868,0
2024-12-13 15:19:03.479,-0.275175,6.31316,13.0956,0.348107,-0.241361,-0.377809,0
2024-12-13 15:19:03.479,-0.275175,6.31316,13.0956,0.348107,-0.241361,-0.377809,0
2024-12-13 15:19:03.481,-0.833001,6.20549,13.328,0.353604,-0.229144,-0.37842,0
2024-12-13 15:19:03.481,-0.833001,6.20549,13.328,0.353604,-0.229144,-0.37842,0
2024-12-13 15:19:03.481,-0.833001,6.20549,13.328,0.353604,-0.229144,-0.37842,0
2024-12-13 15:19:03.481,-0.833001,6.20549,13.328,0.353604,-0.229144,-0.37842,0
2024-12-13 15:19:03.483,-1.21854,6.2677,13.3496,0.362767,-0.208375,-0.361927,0
2024-12-13 15:19:03.483,-1.21854,6.2677,13.3496,0.362767,-0.208375,-0.361927,0
2024-12-13 15:19:03.486,-1.0008,6.5336,13.1267,0.361545,-0.200434,-0.344212,0
2024-12-13 15:19:03.486,-1.0008,6.5336,13.1267,0.361545,-0.200434,-0.344212,0
2024-12-13 15:19:03.488,-0.742074,6.62692,13.0119,0.349939,-0.21143,-0.33505,0
2024-12-13 15:19:03.488,-0.742074,6.62692,13.0119,0.349939,-0.21143,-0.33505,0
2024-12-13 15:19:03.488,-0.742074,6.62692,13.0119,0.349939,-0.21143,-0.33505,0
2024-12-13 15:19:03.491,-0.742074,6.45464,13.1387,0.331614,-0.22609,-0.333217,0
2024-12-13 15:19:03.491,-0.502792,6.45464,13.1387,0.331614,-0.22609,-0.333217,0
2024-12-13 15:19:03.491,-0.502792,6.45464,13.1387,0.331614,-0.22609,-0.333217,0
2024-12-13 15:19:03.493,-0.600898,6.31556,13.3328,0.317564,-0.244415,-0.331995,0
2024-12-13 15:19:03.493,-0.600898,6.31556,13.3328,0.317564,-0.244415,-0.331995,0
2024-12-13 15:19:03.493,-0.600898,6.31556,13.3328,0.317564,-0.244415,-0.331995,0
2024-12-13 15:19:03.495,-1.02951,6.32273,13.4381,0.30046,-0.255411,-0.323444,0
2024-12-13 15:19:03.495,-1.02951,6.32273,13.4381,0.30046,-0.255411,-0.323444,0
2024-12-13 15:19:03.495,-1.02951,6.32273,13.4381,0.30046,-0.255411,-0.323444,0
2024-12-13 15:19:03.498,-1.45813,6.32034,13.5649,0.277859,-0.257854,-0.303286,0
2024-12-13 15:19:03.498,-1.45813,6.32034,13.5649,0.277859,-0.257854,-0.303286,0
2024-12-13 15:19:03.500,-1.75484,6.22463,13.826,0.253425,-0.265795,-0.272132,0
2024-12-13 15:19:03.500,-1.75484,6.22463,13.826,0.253425,-0.265795,-0.272132,0
2024-12-13 15:19:03.502,-1.44855,5.9997,14.1299,0.228381,-0.27679,-0.235482,0
2024-12-13 15:19:03.502,-1.44855,5.9997,14.1299,0.228381,-0.27679,-0.235482,0
2024-12-13 15:19:03.502,-1.44855,5.9997,14.1299,0.228381,-0.27679,-0.235482,0
2024-12-13 15:19:03.505,-0.967299,5.85344,14.3169,0.200892,-0.309776,-0.215935,0
2024-12-13 15:19:03.505,-0.967299,5.85344,14.3169,0.200892,-0.309776,-0.215935,0
2024-12-13 15:19:03.505,-0.967299,5.85344,14.3169,0.200892,-0.309776,-0.215935,0
2024-12-13 15:19:03.507,-0.948156,5.87019,14.3719,0.164852,-0.346427,-0.196387,0
2024-12-13 15:19:03.507,-0.948156,5.87019,14.3719,0.164852,-0.346427,-0.196387,0
2024-12-13 15:19:03.509,-1.00319,5.86301,14.458,0.125147,-0.368417,-0.175619,0
2024-12-13 15:19:03.509,-1.00319,5.86301,14.458,0.125147,-0.368417,-0.175619,0
2024-12-13 15:19:03.509,-1.00319,5.86301,14.458,0.125147,-0.368417,-0.175619,0
2024-12-13 15:19:03.512,-1.0008,5.79601,14.6973,0.0817772,-0.386132,-0.154239,0
2024-12-13 15:19:03.512,-1.0008,5.79601,14.6973,0.0817772,-0.386132,-0.154239,0
2024-12-13 15:19:03.512,-1.0008,5.79601,14.6973,0.0817772,-0.386132,-0.154239,0
2024-12-13 15:19:03.514,-1.07498,5.66441,14.968,0.0402396,-0.402625,-0.130416,0
2024-12-13 15:19:03.514,-1.07498,5.66441,14.968,0.0402396,-0.402625,-0.130416,0
2024-12-13 15:19:03.514,-1.07498,5.66441,14.968,0.0402396,-0.402625,-0.130416,0
2024-12-13 15:19:03.516,-1.18026,5.48255,15.1881,-0.00129805,-0.433167,-0.102317,0
2024-12-13 15:19:03.516,-1.18026,5.48255,15.1881,-0.00129805,-0.433167,-0.102317,0
2024-12-13 15:19:03.519,-1.0008,5.3004,15.4756,-0.0428357,-0.460044,-0.0766613,0
2024-12-13 15:19:03.519,-1.0008,5.3004,15.4756,-0.0428357,-0.460044,-0.0766613,0
2024-12-13 15:19:03.521,-0.581755,5.12812,15.8058,-0.0764323,-0.468596,-0.0589468,0
2024-12-13 15:19:03.521,-0.581755,5.12812,15.8058,-0.0764323,-0.468596,-0.0589468,0
2024-12-13 15:19:03.524,-0.193819,4.93191,16.1052,-0.10331,-0.460655,-0.0491732,0
2024-12-13 15:19:03.524,-0.193819,4.93191,16.1052,-0.10331,-0.460655,-0.0491732,0
2024-12-13 15:19:03.524,-0.193819,4.93191,16.1052,-0.10331,-0.460655,-0.0491732,0
2024-12-13 15:19:03.526,0.0550349,4.72582,16.3158,-0.128354,-0.436832,-0.0448973,0
2024-12-13 15:19:03.526,0.0550349,4.72582,16.3158,-0.128354,-0.436832,-0.0448973,0
2024-12-13 15:19:03.528,0.196211,4.58465,16.4378,-0.149123,-0.388575,-0.0473407,0
2024-12-13 15:19:03.528,0.196211,4.58465,16.4378,-0.149123,-0.388575,-0.0473407,0
2024-12-13 15:19:03.531,0.330509,4.5009,16.5841,-0.162562,-0.343373,-0.0503949,0
2024-12-13 15:19:03.531,0.330509,4.5009,16.5841,-0.162562,-0.343373,-0.0503949,0
2024-12-13 15:19:03.533,0.407079,4.43629,16.7348,-0.16867,-0.301835,-0.05406,0
2024-12-13 15:19:03.533,0.407079,4.43629,16.7348,-0.16867,-0.301835,-0.05406,0
2024-12-13 15:19:03.533,0.407079,4.43629,16.7348,-0.16867,-0.301835,-0.05406,0
2024-12-13 15:19:03.535,0.3999,4.38126,16.8257,-0.168059,-0.264573,-0.0546708,1
2024-12-13 15:19:03.535,0.3999,4.38126,16.8257,-0.168059,-0.264573,-0.0546708,1
2024-12-13 15:19:03.540,0.354437,4.28794,16.8281,-0.150956,-0.19005,-0.0503949,0
2024-12-13 15:19:03.540,0.292223,4.15364,16.7803,-0.150956,-0.19005,-0.0503949,0
2024-12-13 15:19:03.540,0.292223,4.15364,16.7803,-0.150956,-0.19005,-0.0503949,0
2024-12-13 15:19:03.540,0.292223,4.15364,16.7803,-0.150956,-0.19005,-0.0503949,0
2024-12-13 15:19:03.542,0.234497,4.00768,16.6558,-0.138739,-0.151566,-0.0448973,0
2024-12-13 15:19:03.545,0.181855,3.84975,16.4785,-0.126522,-0.108807,-0.0412322,0
2024-12-13 15:19:03.545,0.181855,3.84975,16.4785,-0.126522,-0.108807,-0.0412322,0
2024-12-13 15:19:03.545,0.181855,3.84975,16.4785,-0.126522,-0.108807,-0.0412322,0
2024-12-13 15:19:03.547,0.155533,3.6679,16.2799,-0.114305,-0.0623828,-0.0400105,0
2024-12-13 15:19:03.547,0.155533,3.6679,16.2799,-0.114305,-0.0623828,-0.0400105,0
2024-12-13 15:19:03.549,0.155533,3.50489,16.0645,-0.0984228,-0.0184018,-0.0375671,0
2024-12-13 15:19:03.549,0.155533,3.50489,16.0645,-0.0984228,-0.0184018,-0.0375671,0
2024-12-13 15:19:03.552,0.191426,3.36371,15.8513,-0.0764323,0.022525,-0.0357346,0
2024-12-13 15:19:03.552,0.191426,3.36371,15.8513,-0.0764323,0.022525,-0.0357346,0
2024-12-13 15:19:03.554,0.260818,3.19382,15.5904,-0.0538309,0.058565,-0.0332912,0
2024-12-13 15:19:03.554,0.260818,3.19382,15.5904,-0.0538309,0.058565,-0.0332912,0
2024-12-13 15:19:03.554,0.260818,3.19382,15.5904,-0.0538309,0.058565,-0.0332912,0
2024-12-13 15:19:03.556,0.337687,3.04756,15.2767,-0.0238994,0.0897182,-0.033902,0
2024-12-13 15:19:03.557,0.337687,3.04756,15.2767,-0.0238994,0.0897182,-0.033902,0
2024-12-13 15:19:03.559,0.407079,2.93031,14.9608,0.00236703,0.121482,-0.0357346,0
2024-12-13 15:19:03.559,0.407079,2.93031,14.9608,0.00236703,0.121482,-0.0357346,0
2024-12-13 15:19:03.561,0.471685,2.81067,14.6614,0.0292443,0.152025,-0.0406213,0
2024-12-13 15:19:03.561,0.471685,2.81067,14.6614,0.0292443,0.152025,-0.0406213,0
2024-12-13 15:19:03.561,0.471685,2.81067,14.6614,0.0292443,0.152025,-0.0406213,0
2024-12-13 15:19:03.561,0.471685,2.81067,14.6614,0.0292443,0.152025,-0.0406213,0
2024-12-13 15:19:03.566,0.541077,2.67906,14.0198,0.0958267,0.204557,-0.0522274,0
2024-12-13 15:19:03.566,0.541077,2.67906,14.0198,0.0958267,0.204557,-0.0522274,0
2024-12-13 15:19:03.568,0.541077,2.64078,13.7013,0.131867,0.223494,-0.0601685,0
2024-12-13 15:19:03.571,0.588933,2.63599,13.3735,0.168517,0.238154,-0.0693312,0
2024-12-13 15:19:03.573,0.622433,2.62642,13.0119,0.204557,0.248538,-0.0791047,0
2024-12-13 15:19:03.575,0.679861,2.6001,12.6191,0.238765,0.261977,-0.0888783,0
2024-12-13 15:19:03.575,0.679861,2.6001,12.6191,0.238765,0.261977,-0.0888783,0
2024-12-13 15:19:03.578,0.720539,2.59532,12.198,0.238765,0.261977,-0.0888783,0
2024-12-13 15:19:03.580,0.739681,2.59532,11.7622,0.309012,0.280913,-0.114534,0
2024-12-13 15:19:03.580,0.739681,2.59532,11.7622,0.309012,0.280913,-0.114534,0
2024-12-13 15:19:03.582,0.739681,2.61685,11.3216,0.340776,0.287022,-0.129805,0
2024-12-13 15:19:03.582,0.739681,2.61685,11.3216,0.340776,0.287022,-0.129805,0
2024-12-13 15:19:03.585,0.742074,2.65514,10.8858,0.373228,0.287022,-0.1408,0
2024-12-13 15:19:03.585,0.742074,2.65514,10.8858,0.373228,0.287022,-0.1408,0
2024-12-13 15:19:03.587,0.766002,2.65753,10.4527,0.401937,0.287022,-0.153017,0
2024-12-13 15:19:03.587,0.766002,2.65753,10.4527,0.401937,0.287022,-0.153017,0
2024-12-13 15:19:03.589,0.792323,2.65274,10.0457,0.428204,0.288244,-0.16951,0
2024-12-13 15:19:03.589,0.792323,2.65274,10.0457,0.428204,0.288244,-0.16951,0
2024-12-13 15:19:03.592,0.80668,2.65753,9.65534,0.45386,0.280303,-0.18417,0
2024-12-13 15:19:03.592,0.80668,2.65753,9.65534,0.45386,0.280303,-0.18417,0
2024-12-13 15:19:03.592,0.80668,2.65753,9.65534,0.45386,0.280303,-0.18417,0
2024-12-13 15:19:03.594,0.785145,2.65035,9.27966,0.477683,0.267475,-0.202496,0
2024-12-13 15:19:03.594,0.785145,2.65035,9.27966,0.477683,0.267475,-0.202496,0
2024-12-13 15:19:03.597,0.73011,2.63599,8.91326,0.499673,0.254036,-0.215935,0
2024-12-13 15:19:03.597,0.73011,2.63599,8.91326,0.499673,0.254036,-0.215935,0
2024-12-13 15:19:03.599,0.718146,2.68146,8.52293,0.521053,0.237543,-0.229984,0
2024-12-13 15:19:03.599,0.718146,2.68146,8.52293,0.521053,0.237543,-0.229984,0
2024-12-13 15:19:03.601,0.737288,2.74606,8.14487,0.539378,0.218607,-0.245866,0
2024-12-13 15:19:03.601,0.737288,2.74606,8.14487,0.539378,0.218607,-0.245866,0
2024-12-13 15:19:03.601,0.737288,2.74606,8.14487,0.539378,0.218607,-0.245866,0
2024-12-13 15:19:03.604,0.696611,2.78196,7.81436,0.552817,0.192341,-0.259916,0
2024-12-13 15:19:03.604,0.696611,2.78196,7.81436,0.552817,0.192341,-0.259916,0
2024-12-13 15:19:03.606,0.474078,2.72213,7.59901,0.566866,0.172183,-0.269689,0
2024-12-13 15:19:03.608,0.189033,2.62403,7.41925,0.582137,0.166074,-0.272743,0
2024-12-13 15:19:03.608,0.189033,2.62403,7.41925,0.582137,0.166074,-0.272743,0
2024-12-13 15:19:03.608,0.189033,2.62403,7.41925,0.582137,0.166074,-0.272743,0
2024-12-13 15:19:03.611,0.105284,2.59532,7.16082,0.589468,0.149581,-0.269689,0
2024-12-13 15:19:03.611,0.105284,2.59532,7.16082,0.589468,0.149581,-0.269689,0
2024-12-13 15:19:03.613,0.165105,2.57378,6.9021,0.597409,0.127591,-0.266635,0
2024-12-13 15:19:03.613,0.165105,2.57378,6.9021,0.597409,0.127591,-0.266635,0
2024-12-13 15:19:03.613,0.165105,2.57378,6.9021,0.597409,0.127591,-0.266635,0
2024-12-13 15:19:03.613,0.165105,2.57378,6.9021,0.597409,0.127591,-0.266635,0
2024-12-13 15:19:03.615,0.217747,2.5666,6.67956,0.602295,0.0921616,-0.264802,0
2024-12-13 15:19:03.615,0.217747,2.5666,6.67956,0.602295,0.0921616,-0.264802,0
2024-12-13 15:19:03.615,0.217747,2.5666,6.67956,0.602295,0.0921616,-0.264802,0
2024-12-13 15:19:03.615,0.217747,2.5666,6.67956,0.602295,0.0921616,-0.264802,0
2024-12-13 15:19:03.620,0.224925,2.61924,6.25095,0.601074,0.0096972,-0.258694,0
2024-12-13 15:19:03.622,0.217747,2.65514,6.02602,0.591911,-0.0312296,-0.250753,0
2024-12-13 15:19:03.622,0.217747,2.65514,6.02602,0.591911,-0.0312296,-0.250753,0
2024-12-13 15:19:03.622,0.217747,2.65514,6.02602,0.591911,-0.0312296,-0.250753,0
2024-12-13 15:19:03.625,0.229711,2.73649,5.85584,0.582137,-0.077654,-0.244644,0
2024-12-13 15:19:03.625,0.229711,2.73649,5.85584,0.582137,-0.077654,-0.244644,0
2024-12-13 15:19:03.625,0.229711,2.73649,5.85584,0.582137,-0.077654,-0.244644,0
2024-12-13 15:19:03.627,0.282652,2.82981,5.77209,0.573586,-0.114305,-0.238536,0
2024-12-13 15:19:03.627,0.282652,2.82981,5.77209,0.573586,-0.114305,-0.238536,0
2024-12-13 15:19:03.630,0.402293,2.87288,5.64527,0.561369,-0.148512,-0.230595,0
2024-12-13 15:19:03.630,0.402293,2.87288,5.64527,0.561369,-0.148512,-0.230595,0
2024-12-13 15:19:03.632,0.476471,2.88724,5.57109,0.549152,-0.179055,-0.22693,0
2024-12-13 15:19:03.634,0.514756,2.92074,5.58066,0.539378,-0.199823,-0.218378,0
2024-12-13 15:19:03.634,0.514756,2.92074,5.58066,0.539378,-0.199823,-0.218378,0
2024-12-13 15:19:03.637,0.617647,2.9662,5.58305,0.525939,-0.222425,-0.209215,0
2024-12-13 15:19:03.637,0.617647,2.9662,5.58305,0.525939,-0.222425,-0.209215,0
2024-12-13 15:19:03.639,0.737288,2.97817,5.57348,0.513723,-0.247469,-0.202496,0
2024-12-13 15:19:03.639,0.737288,2.97817,5.57348,0.513723,-0.247469,-0.202496,0
2024-12-13 15:19:03.641,0.804287,2.98056,5.58305,0.495397,-0.264573,-0.198831,0
2024-12-13 15:19:03.642,0.804287,2.98056,5.58305,0.483791,-0.278012,-0.191501,0
2024-12-13 15:19:03.644,0.88355,2.99731,5.60698,0.483791,-0.278012,-0.191501,0
2024-12-13 15:19:03.646,1.00319,3.01167,5.63809,0.469742,-0.288396,-0.184781,0
2024-12-13 15:19:03.646,1.00319,3.01167,5.63809,0.469742,-0.288396,-0.184781,0
2024-12-13 15:19:03.646,1.00319,3.01167,5.63809,0.469742,-0.288396,-0.184781,0
2024-12-13 15:19:03.648,1.07737,3.00927,5.69791,0.455692,-0.292672,-0.182949,0
2024-12-13 15:19:03.651,1.13001,3.00449,5.76012,0.439199,-0.294505,-0.177451,0
2024-12-13 15:19:03.653,1.19222,3.02842,5.82951,0.423928,-0.291451,-0.171343,0
2024-12-13 15:19:03.654,1.19222,3.02842,5.82951,0.404992,-0.28412,-0.165845,0
2024-12-13 15:19:03.655,1.2664,3.04038,5.91117,0.404992,-0.28412,-0.165845,0
2024-12-13 15:19:03.655,1.2664,3.04038,5.91117,0.404992,-0.28412,-0.165845,0
2024-12-13 15:19:03.662,1.48684,3.08584,6.09781,0.390331,-0.26213,-0.160958,0
2024-12-13 15:19:03.667,1.53709,3.10289,6.16481,0.337722,-0.229755,-0.157293,0
2024-12-13 15:19:03.674,1.6352,3.17468,6.26291,0.252814,-0.124078,-0.171953,0
2024-12-13 15:19:03.677,1.41506,3.0667,6.36102,0.233878,-0.0752106,-0.167678,0
2024-12-13 15:19:03.679,1.25444,2.9686,6.42084,0.213109,-0.0287862,-0.156682,0
2024-12-13 15:19:03.679,1.25444,2.9686,6.42084,0.213109,-0.0287862,-0.156682,0
2024-12-13 15:19:03.681,1.12283,2.89442,6.43998,0.197838,0.0182491,-0.143244,0
2024-12-13 15:19:03.681,1.12283,2.89442,6.43998,0.197838,0.0182491,-0.143244,0
2024-12-13 15:19:03.684,1.01037,2.84656,6.44477,0.174015,0.0573433,-0.123086,0
2024-12-13 15:19:03.684,1.01037,2.84656,6.44477,0.174015,0.0573433,-0.123086,0
2024-12-13 15:19:03.686,0.921835,2.79871,6.43759,0.152635,0.0891073,-0.103539,0
2024-12-13 15:19:03.686,0.921835,2.79871,6.43759,0.152635,0.0891073,-0.103539,0
2024-12-13 15:19:03.688,0.85005,2.77238,6.41605,0.126369,0.115374,-0.0833807,0
2024-12-13 15:19:03.688,0.85005,2.77238,6.41605,0.126369,0.115374,-0.0833807,0
2024-12-13 15:19:03.691,0.775574,2.75803,6.40409,0.101324,0.138586,-0.0626118,0
2024-12-13 15:19:03.691,0.775574,2.75803,6.40409,0.101324,0.138586,-0.0626118,0
2024-12-13 15:19:03.695,0.663111,2.77238,6.43041,0.0445155,0.17035,-0.01802,0
2024-12-13 15:19:03.695,0.663111,2.77238,6.43041,0.0445155,0.17035,-0.01802,0
2024-12-13 15:19:03.700,0.608076,2.77717,6.51685,-0.00557398,0.19173,0.0247393,0
2024-12-13 15:19:03.700,0.608076,2.77717,6.51685,-0.00557398,0.19173,0.0247393,0
2024-12-13 15:19:03.703,0.596112,2.78913,6.58624,-0.0269536,0.200892,0.0448973,0
2024-12-13 15:19:03.705,0.579362,2.80828,6.63171,-0.0501658,0.201503,0.0626118,0
2024-12-13 15:19:03.705,0.579362,2.80828,6.63171,-0.0501658,0.201503,0.0626118,0
2024-12-13 15:19:03.707,0.567398,2.82024,6.6676,-0.0672696,0.203947,0.0784939,0
2024-12-13 15:19:03.710,0.54347,2.82263,6.70828,-0.0837624,0.203336,0.0962084,0
2024-12-13 15:19:03.710,0.54347,2.82263,6.70828,-0.0837624,0.203336,0.0962084,0
2024-12-13 15:19:03.712,0.519542,2.82503,6.75135,-0.100255,0.202725,0.109036,0
2024-12-13 15:19:03.712,0.519542,2.82503,6.75135,-0.100255,0.202725,0.109036,0
2024-12-13 15:19:03.714,0.490828,2.8346,6.79203,-0.111251,0.201503,0.123697,0
2024-12-13 15:19:03.717,0.459721,2.8322,6.81596,-0.111251,0.201503,0.123697,0
2024-12-13 15:19:03.719,0.419043,2.82024,6.84467,-0.127133,0.194173,0.146374,0
2024-12-13 15:19:03.719,0.419043,2.82024,6.84467,-0.127133,0.194173,0.146374,0
2024-12-13 15:19:03.721,0.419043,2.82024,6.84467,-0.13263,0.187454,0.156148,0
2024-12-13 15:19:03.721,0.361615,2.82263,6.88774,-0.13263,0.187454,0.156148,0
2024-12-13 15:19:03.721,0.361615,2.82263,6.88774,-0.13263,0.187454,0.156148,0
2024-12-13 15:19:03.724,0.30658,2.81785,6.91167,-0.13263,0.180124,0.167754,0
2024-12-13 15:19:03.724,0.30658,2.81785,6.91167,-0.13263,0.180124,0.167754,0
2024-12-13 15:19:03.726,0.265603,2.81067,6.92124,-0.130187,0.169128,0.178138,0
2024-12-13 15:19:03.726,0.265603,2.81067,6.92124,-0.130187,0.169128,0.178138,0
2024-12-13 15:19:03.726,0.265603,2.81067,6.92124,-0.130187,0.169128,0.178138,0
2024-12-13 15:19:03.728,0.241675,2.79631,6.91645,-0.130798,0.156911,0.18669,0
2024-12-13 15:19:03.728,0.241675,2.79631,6.91645,-0.130798,0.156911,0.18669,0
2024-12-13 15:19:03.731,0.215354,2.75803,6.87338,-0.127133,0.14897,0.197685,0
2024-12-13 15:19:03.731,0.215354,2.75803,6.87338,-0.127133,0.14897,0.197685,0
2024-12-13 15:19:03.733,0.150748,2.72213,6.83031,-0.1253,0.131867,0.207459,0
2024-12-13 15:19:03.733,0.150748,2.72213,6.83031,-0.1253,0.131867,0.207459,0
2024-12-13 15:19:03.735,0.102891,2.71974,6.83031,-0.121024,0.122704,0.217233,0
2024-12-13 15:19:03.738,0.141177,2.72692,6.81835,-0.114305,0.115985,0.224563,0
2024-12-13 15:19:03.738,0.141177,2.72692,6.81835,-0.114305,0.115985,0.224563,0
2024-12-13 15:19:03.738,0.141177,2.72692,6.81835,-0.114305,0.115985,0.224563,0
2024-12-13 15:19:03.740,0.191426,2.74128,6.78246,-0.107585,0.0988809,0.231893,0
2024-12-13 15:19:03.740,0.191426,2.74128,6.78246,-0.107585,0.0988809,0.231893,0
2024-12-13 15:19:03.743,0.20339,2.76281,6.7681,-0.100866,0.0842206,0.234336,0
2024-12-13 15:19:03.743,0.20339,2.76281,6.7681,-0.100866,0.0842206,0.234336,0
2024-12-13 15:19:03.745,0.193819,2.76999,6.75374,-0.0923143,0.0695602,0.236169,0
2024-12-13 15:19:03.745,0.193819,2.76999,6.75374,-0.0923143,0.0695602,0.236169,0
2024-12-13 15:19:03.747,0.172283,2.77717,6.74417,-0.0831516,0.0555107,0.239223,0
2024-12-13 15:19:03.747,0.172283,2.77717,6.74417,-0.0831516,0.0555107,0.239223,0
2024-12-13 15:19:03.750,0.145962,2.79631,6.72742,-0.0739889,0.0439046,0.241056,0
2024-12-13 15:19:03.750,0.145962,2.79631,6.72742,-0.0739889,0.0439046,0.241056,0
2024-12-13 15:19:03.752,0.117248,2.80828,6.69392,-0.0642153,0.0322986,0.242888,0
2024-12-13 15:19:03.752,0.117248,2.80828,6.69392,-0.0642153,0.0322986,0.242888,0
2024-12-13 15:19:03.754,0.102891,2.82981,6.65564,-0.0532201,0.0206925,0.243499,0
2024-12-13 15:19:03.754,0.102891,2.82981,6.65564,-0.0532201,0.0206925,0.243499,0
2024-12-13 15:19:03.757,0.0646062,2.84178,6.62214,-0.037338,0.00847551,0.248997,0
2024-12-13 15:19:03.757,0.0646062,2.84178,6.62214,-0.037338,0.00847551,0.248997,0
2024-12-13 15:19:03.759,0.0287139,2.82024,6.57428,-0.0263428,-0.000687203,0.250829,0
2024-12-13 15:19:03.759,0.0287139,2.82024,6.57428,-0.0263428,-0.000687203,0.250829,0
2024-12-13 15:19:03.761,0.00478565,2.81067,6.536,-0.0159584,-0.0122933,0.254494,0
2024-12-13 15:19:03.761,0.00478565,2.81067,6.536,-0.0159584,-0.0122933,0.254494,0
2024-12-13 15:19:03.761,0.00478565,2.81067,6.536,-0.0159584,-0.0122933,0.254494,0
2024-12-13 15:19:03.764,-0.0311067,2.79153,6.47617,-0.00496313,-0.0177909,0.258159,0
2024-12-13 15:19:03.764,-0.0311067,2.79153,6.47617,-0.00496313,-0.0177909,0.258159,0
2024-12-13 15:19:03.766,-0.0837488,2.77478,6.41845,0.00297788,-0.0275645,0.264879,0
2024-12-13 15:19:03.766,-0.0837488,2.77478,6.41845,0.00297788,-0.0275645,0.264879,0
2024-12-13 15:19:03.766,-0.0837488,2.77478,6.41845,0.00297788,-0.0275645,0.264879,0
2024-12-13 15:19:03.768,-0.112463,2.79153,6.40409,0.0139731,-0.0275645,0.267933,0
2024-12-13 15:19:03.768,-0.112463,2.79153,6.40409,0.0139731,-0.0275645,0.267933,0
2024-12-13 15:19:03.771,-0.0646062,2.80588,6.37298,0.0249684,-0.0348946,0.27282,0
2024-12-13 15:19:03.773,-0.0143569,2.79871,6.32991,0.030466,-0.0385597,0.277706,0
2024-12-13 15:19:03.773,-0.0143569,2.79871,6.32991,0.030466,-0.0385597,0.277706,0
2024-12-13 15:19:03.773,-0.0143569,2.79871,6.32991,0.030466,-0.0385597,0.277706,0
2024-12-13 15:19:03.776,0.0167498,2.80828,6.28684,0.0408504,-0.0367272,0.279539,0
2024-12-13 15:19:03.776,0.0167498,2.80828,6.28684,0.0408504,-0.0367272,0.279539,0
2024-12-13 15:19:03.778,0.0430708,2.83699,6.24138,0.0518457,-0.037338,0.284426,0
2024-12-13 15:19:03.778,0.0430708,2.83699,6.24138,0.0518457,-0.037338,0.284426,0
2024-12-13 15:19:03.778,0.0430708,2.83699,6.24138,0.0518457,-0.037338,0.284426,0
2024-12-13 15:19:03.778,0.0430708,2.83699,6.24138,0.0518457,-0.037338,0.284426,0
2024-12-13 15:19:03.778,0.0430708,2.83699,6.24138,0.0518457,-0.037338,0.284426,0
2024-12-13 15:19:03.783,0.0765703,2.8681,6.18395,0.0579541,-0.0397814,0.28748,0
2024-12-13 15:19:03.785,0.0765703,2.88485,6.15524,0.0640626,-0.041614,0.289313,0
2024-12-13 15:19:03.785,0.0765703,2.88485,6.15524,0.0640626,-0.041614,0.289313,0
2024-12-13 15:19:03.787,0.0837488,2.89681,6.13849,0.0658951,-0.0403923,0.289923,0
2024-12-13 15:19:03.790,0.0909273,2.92313,6.13131,0.066506,-0.0403923,0.290534,0
2024-12-13 15:19:03.790,0.0909273,2.92313,6.13131,0.066506,-0.0403923,0.290534,0
2024-12-13 15:19:03.790,0.0909273,2.92313,6.13131,0.066506,-0.0403923,0.290534,0
2024-12-13 15:19:03.792,0.0909273,2.95424,6.11934,0.066506,-0.041614,0.293588,0
2024-12-13 15:19:03.792,0.0909273,2.95424,6.11934,0.066506,-0.041614,0.293588,0
2024-12-13 15:19:03.794,0.0885344,2.97817,6.11934,0.0695602,-0.0391706,0.29481,0
2024-12-13 15:19:03.794,0.0885344,2.97817,6.11934,0.0695602,-0.0391706,0.29481,0
2024-12-13 15:19:03.794,0.0885344,2.97817,6.11934,0.0695602,-0.0391706,0.29481,0
2024-12-13 15:19:03.794,0.0885344,2.97817,6.11934,0.0695602,-0.0391706,0.29481,0
2024-12-13 15:19:03.799,0.112463,3.02842,6.14806,0.0640626,-0.0342838,0.300919,0
2024-12-13 15:19:03.799,0.112463,3.02842,6.14806,0.0640626,-0.0342838,0.300919,0
2024-12-13 15:19:03.801,0.112463,3.02842,6.14806,0.0597867,-0.0300079,0.30214,0
2024-12-13 15:19:03.801,0.129212,3.05234,6.17199,0.0597867,-0.0300079,0.30214,0
2024-12-13 15:19:03.801,0.129212,3.05234,6.17199,0.0597867,-0.0300079,0.30214,0
2024-12-13 15:19:03.801,0.129212,3.05234,6.17199,0.0597867,-0.0300079,0.30214,0
2024-12-13 15:19:03.804,0.153141,3.09571,6.2007,0.0610084,-0.0281753,0.303973,0
2024-12-13 15:19:03.806,0.177069,3.13161,6.22941,0.058565,-0.0208452,0.305195,0
