timestamp,accel_x,accel_y,accel_z,gyro_x,gyro_y,gyro_z,step_timestamp
2024-12-13 15:17:39.764,1.31426,4.46501,8.31715,-0.0636045,-0.237696,-0.0613902,0
2024-12-13 15:17:39.764,1.31426,4.46501,8.31715,-0.0636045,-0.237696,-0.0613902,0
2024-12-13 15:17:39.765,1.31426,4.46501,8.3674,-0.0636045,-0.237696,-0.0613902,0
2024-12-13 15:17:39.765,1.35254,4.47697,8.3674,-0.0636045,-0.237696,-0.0613902,0
2024-12-13 15:17:39.767,1.38604,4.48176,8.4009,-0.0745997,-0.221203,-0.0632227,0
2024-12-13 15:17:39.767,1.38604,4.48176,8.4009,-0.0745997,-0.221203,-0.0632227,0
2024-12-13 15:17:39.770,1.41266,4.48894,8.44876,-0.0862058,-0.20471,-0.0656661,0
2024-12-13 15:17:39.770,1.41266,4.48894,8.44876,-0.0862058,-0.20471,-0.0656661,0
2024-12-13 15:17:39.772,1.45813,4.51286,8.52533,-0.0947577,-0.183941,-0.0693312,0
2024-12-13 15:17:39.772,1.45813,4.51286,8.52533,-0.0947577,-0.183941,-0.0693312,0
2024-12-13 15:17:39.774,1.5012,4.54636,8.61147,-0.105142,-0.160118,-0.0736071,0
2024-12-13 15:17:39.774,1.5012,4.54636,8.61147,-0.105142,-0.160118,-0.0736071,0
2024-12-13 15:17:39.777,1.54905,4.56311,8.69043,-0.105142,-0.160118,-0.0784939,0
2024-12-13 15:17:39.777,1.54905,4.56311,8.69043,-0.105142,-0.160118,-0.0784939,0
2024-12-13 15:17:39.779,1.6017,4.59183,8.77927,-0.121024,-0.111251,-0.0852132,0
2024-12-13 15:17:39.779,1.6017,4.59183,8.77927,-0.121024,-0.111251,-0.0852132,0
2024-12-13 15:17:39.781,1.64477,4.63011,8.8678,-0.130187,-0.0880384,-0.0943759,0
2024-12-13 15:17:39.784,1.69023,4.68036,8.93959,-0.136906,-0.0636045,-0.102928,0
2024-12-13 15:17:39.784,1.69023,4.68036,8.93959,-0.136906,-0.0636045,-0.102928,0
2024-12-13 15:17:39.784,1.69023,4.68036,8.93959,-0.136906,-0.0636045,-0.102928,0
2024-12-13 15:17:39.786,1.73091,4.75932,9.01616,-0.13935,-0.0477224,-0.113312,0
2024-12-13 15:17:39.789,1.73091,4.84577,9.07358,-0.145458,-0.0306187,-0.126751,0
2024-12-13 15:17:39.789,1.75005,4.84577,9.07358,-0.145458,-0.0306187,-0.126751,0
2024-12-13 15:17:39.791,1.75244,4.92951,9.0999,-0.146069,-0.0122933,-0.142022,0
2024-12-13 15:17:39.793,1.75244,5.02283,9.09751,-0.146069,-0.0122933,-0.15485,0
2024-12-13 15:17:39.805,1.74766,5.22383,8.9348,-0.158897,0.0206925,-0.16951,0
2024-12-13 15:17:39.817,1.32383,5.95903,8.77448,-0.2548,0.0481806,-0.303286,0
2024-12-13 15:17:39.850,0.476471,5.67637,9.72952,-0.603593,-0.157675,-0.397356,0
2024-12-13 15:17:39.857,0.297009,5.47059,10.3424,-0.603593,-0.157675,-0.397356,0
2024-12-13 15:17:39.859,0.253639,5.40359,10.5939,-0.603593,-0.157675,-0.397356,0
2024-12-13 15:17:39.873,0.124427,4.88644,12.1286,-0.603593,-0.157675,-0.397356,0
2024-12-13 15:17:39.876,0.0885344,4.77877,12.3966,-0.603593,-0.157675,-0.397356,0
2024-12-13 15:17:39.876,0.0885344,4.77877,12.3966,-0.603593,-0.157675,-0.397356,0
2024-12-13 15:17:39.876,0.0885344,4.77877,12.3966,-0.603593,-0.157675,-0.397356,0
2024-12-13 15:17:39.876,0.0885344,4.77877,12.3966,-0.603593,-0.157675,-0.397356,0
2024-12-13 15:17:39.885,0.131605,4.51526,13.34,-1.07822,-0.246859,-0.210437,0
2024-12-13 15:17:39.887,0.131605,4.51526,13.529,-1.02202,-0.215705,-0.180505,0
2024-12-13 15:17:39.887,0.157926,4.45544,13.529,-1.02202,-0.215705,-0.180505,0
2024-12-13 15:17:39.890,0.189033,4.41954,13.7013,-0.984762,-0.201656,-0.167067,0
2024-12-13 15:17:39.892,0.222533,4.38365,13.8476,-0.941392,-0.193715,-0.15485,0
2024-12-13 15:17:39.895,0.251246,4.35015,13.9648,-0.893746,-0.184552,-0.14752,0
2024-12-13 15:17:39.904,0.320937,4.36212,14.1012,-0.893746,-0.184552,-0.14752,0
2024-12-13 15:17:39.923,0.330509,4.37408,12.5187,-0.584657,-0.178444,-0.105982,0
2024-12-13 15:17:39.944,0.208176,4.22094,9.93799,0.309012,-0.369639,-0.0357346,0
2024-12-13 15:17:39.956,0.267996,4.20628,8.63301,0.309012,-0.369639,-0.0357346,0
2024-12-13 15:17:39.958,0.301795,4.1991,8.38654,0.450194,-0.384299,-0.0155766,0
2024-12-13 15:17:39.970,0.311366,4.21376,7.3666,0.470352,-0.36353,-0.0125224,0
2024-12-13 15:17:39.975,0.304188,4.17757,7.06272,0.470352,-0.36353,-0.0125224,0
2024-12-13 15:17:39.984,0.232104,4.12253,6.64367,0.445919,-0.319549,-0.00397051,0
2024-12-13 15:17:39.991,0.253639,4.11057,6.3993,0.441643,-0.312219,-0.00763559,0
2024-12-13 15:17:40.003,0.335294,4.15603,6.07388,0.403159,-0.287175,-0.0271827,0
2024-12-13 15:17:40.005,0.380758,4.14886,6.01885,0.403159,-0.287175,-0.0271827,0
2024-12-13 15:17:40.019,0.352044,4.26162,5.67877,0.376282,-0.248691,-0.0601685,0
2024-12-13 15:17:40.024,0.35683,4.32862,5.59262,0.3365,-0.164394,-0.0949868,0
2024-12-13 15:17:40.031,0.3999,4.36451,5.45384,0.3365,-0.164394,-0.0949868,0
2024-12-13 15:17:40.036,0.407079,4.37887,5.42991,0.268696,-0.0611611,-0.132859,0
2024-12-13 15:17:40.052,0.531506,4.54876,5.46341,0.197838,0.0139731,-0.167678,0
2024-12-13 15:17:40.057,0.553041,4.57747,5.48016,0.0530674,0.0842206,-0.218378,0
2024-12-13 15:17:40.069,0.684646,4.82662,5.92553,-0.0605502,0.0829989,-0.244644,0
2024-12-13 15:17:40.071,0.634397,4.78355,6.03081,-0.0605502,0.0829989,-0.244644,0
2024-12-13 15:17:40.083,0.677468,4.83859,6.68196,-0.11797,0.0927724,-0.260526,0
2024-12-13 15:17:40.097,0.608076,4.75693,7.52692,-0.307943,0.082388,-0.282517,0
2024-12-13 15:17:40.102,0.529113,4.67318,8.14248,-0.369028,0.0952158,-0.288625,0
2024-12-13 15:17:40.104,0.519542,4.63011,8.38415,-0.369028,0.0952158,-0.288625,0
2024-12-13 15:17:40.118,0.514756,4.49372,10.0959,-0.483257,0.147749,-0.307562,0
2024-12-13 15:17:40.121,0.514756,4.49372,10.3834,-0.483257,0.147749,-0.307562,0
2024-12-13 15:17:40.132,0.691825,4.42194,11.566,-0.460044,0.192951,-0.356429,0
2024-12-13 15:17:40.138,0.658325,4.39801,12.0565,-0.442941,0.198449,-0.380252,0
2024-12-13 15:17:40.147,0.706182,4.48415,12.7199,-0.299392,0.18501,-0.419347,0
2024-12-13 15:17:40.149,0.684646,4.49851,12.8324,-0.299392,0.18501,-0.419347,0
2024-12-13 15:17:40.163,0.325723,4.66361,13.0334,-0.0232886,0.128202,-0.449278,0
2024-12-13 15:17:40.165,0.318545,4.66361,13.0334,-0.0232886,0.128202,-0.449278,0
2024-12-13 15:17:40.182,0.174676,4.94387,12.3966,0.143473,0.111098,-0.434618,0
2024-12-13 15:17:40.201,0.040678,5.61655,11.1829,0.431258,0.0512348,-0.336882,0
2024-12-13 15:17:40.217,-0.0861416,5.92074,10.6131,0.417209,-0.00984991,-0.228151,0
2024-12-13 15:17:40.222,-0.0933201,6.00688,10.6394,0.399494,-0.0269536,-0.178062,0
2024-12-13 15:17:40.276,0.514756,6.89731,12.332,0.433702,-0.218149,0.0400105,0
2024-12-13 15:17:40.295,1.11326,7.22064,11.8053,0.433702,-0.218149,0.0400105,0
2024-12-13 15:17:40.309,1.1013,7.38814,11.3312,0.243041,0.0884965,-0.127362,0
2024-12-13 15:17:40.311,1.1013,7.38335,11.257,0.200282,0.120871,-0.145687,0
2024-12-13 15:17:40.311,1.07976,7.38335,11.257,0.200282,0.120871,-0.145687,0
2024-12-13 15:17:40.311,1.07976,7.38335,11.257,0.200282,0.120871,-0.145687,0
2024-12-13 15:17:40.333,0.864407,7.07468,11.3839,-0.271293,0.22044,-0.329552,0
2024-12-13 15:17:40.333,0.598505,6.75853,11.8029,-0.271293,0.22044,-0.329552,0
2024-12-13 15:17:40.349,-0.246461,5.77687,13.2538,-0.541287,0.181956,-0.407741,0
2024-12-13 15:17:40.349,-0.246461,5.77687,13.2538,-0.541287,0.181956,-0.407741,0
2024-12-13 15:17:40.359,-0.770788,5.08026,14.47,-0.62253,0.109876,-0.398578,0
2024-12-13 15:17:40.361,-0.770788,5.08026,14.47,-0.632303,0.0915507,-0.386972,0
2024-12-13 15:17:40.361,-0.878764,4.90559,14.7835,-0.632303,0.0915507,-0.386972,0
2024-12-13 15:17:40.363,-0.950549,4.72582,15.0972,-0.633525,0.0775012,-0.374755,0
2024-12-13 15:17:40.366,-1.01755,4.53918,15.4179,-0.62986,0.0726145,-0.361316,0
2024-12-13 15:17:40.368,-1.08455,4.34776,15.7149,-0.61581,0.0756687,-0.344212,0
2024-12-13 15:17:40.481,-2.54267,3.00688,5.42752,-0.438054,0.234489,-0.197609,0
2024-12-13 15:17:40.523,-1.94148,2.67428,6.47378,0.587024,0.163631,0.551366,0
2024-12-13 15:17:40.563,-0.665504,2.37727,6.84706,0.466687,0.169128,0.707743,0
2024-12-13 15:17:40.578,-0.318545,2.44188,6.57428,0.535102,0.126369,0.66987,0
2024-12-13 15:17:40.594,-0.0287139,2.42991,5.87737,0.686592,-0.0226777,0.573967,0
2024-12-13 15:17:40.599,0.0191426,2.46341,5.68834,0.702474,-0.057496,0.545868,0
2024-12-13 15:17:40.611,0.0765703,2.56182,5.30758,0.702474,-0.057496,0.545868,0
2024-12-13 15:17:40.618,0.364008,2.5017,5.0994,0.676208,-0.140571,0.480508,0
2024-12-13 15:17:40.651,0.677468,2.92552,4.46022,0.433091,-0.0422248,0.419423,0
2024-12-13 15:17:40.658,0.682254,3.07149,4.28555,0.360324,0.0322986,0.390102,0
2024-12-13 15:17:40.684,0.179462,3.42114,4.24247,-0.0507767,0.270529,0.314968,0
2024-12-13 15:17:40.684,0.179462,3.42114,4.24247,-0.0507767,0.270529,0.314968,0
2024-12-13 15:17:40.686,0.119641,3.44985,4.31665,-0.0807082,0.276637,0.313746,0
2024-12-13 15:17:40.686,0.119641,3.44985,4.31665,-0.0807082,0.276637,0.313746,0
2024-12-13 15:17:40.709,-0.160319,3.91675,5.23819,-0.343983,0.287633,0.291756,0
2024-12-13 15:17:40.709,-0.160319,3.91675,5.23819,-0.343983,0.287633,0.291756,0
2024-12-13 15:17:40.717,-0.165105,4.05075,5.40838,-0.408122,0.281524,0.270376,0
2024-12-13 15:17:40.742,-0.181855,4.35015,5.98774,-0.408122,0.281524,0.270376,0
2024-12-13 15:17:40.745,-0.572184,4.43869,6.0356,-0.610924,0.196616,0.210513,0
2024-12-13 15:17:40.745,-0.588933,4.43869,6.0356,-0.610924,0.196616,0.210513,0
2024-12-13 15:17:40.745,-0.588933,4.43869,6.0356,-0.610924,0.196616,0.210513,0
2024-12-13 15:17:40.745,-0.588933,4.43869,6.0356,-0.610924,0.196616,0.210513,0
2024-12-13 15:17:40.745,-0.588933,4.43869,6.0356,-0.610924,0.196616,0.210513,0
2024-12-13 15:17:40.745,-0.588933,4.43869,6.0356,-0.610924,0.196616,0.210513,0
2024-12-13 15:17:40.745,-0.588933,4.43869,6.0356,-0.610924,0.196616,0.210513,0
2024-12-13 15:17:40.745,-0.588933,4.43869,6.0356,-0.610924,0.196616,0.210513,0
2024-12-13 15:17:40.745,-0.588933,4.43869,6.0356,-0.610924,0.196616,0.210513,0
2024-12-13 15:17:40.745,-0.588933,4.43869,6.0356,-0.610924,0.196616,0.210513,0
2024-12-13 15:17:40.745,-0.588933,4.43869,6.0356,-0.610924,0.196616,0.210513,0
2024-12-13 15:17:40.745,-0.588933,4.43869,6.0356,-0.610924,0.196616,0.210513,0
2024-12-13 15:17:40.745,-0.588933,4.43869,6.0356,-0.610924,0.196616,0.210513,0
2024-12-13 15:17:40.745,-0.588933,4.43869,6.0356,-0.610924,0.196616,0.210513,0
2024-12-13 15:17:40.745,-0.588933,4.43869,6.0356,-0.610924,0.196616,0.210513,0
2024-12-13 15:17:40.745,-0.588933,4.43869,6.0356,-0.610924,0.196616,0.210513,0
2024-12-13 15:17:40.745,-0.588933,4.43869,6.0356,-0.610924,0.196616,0.210513,0
2024-12-13 15:17:40.745,-0.588933,4.43869,6.0356,-0.610924,0.196616,0.210513,0
2024-12-13 15:17:40.745,-0.588933,4.43869,6.0356,-0.610924,0.196616,0.210513,0
2024-12-13 15:17:40.745,-0.588933,4.43869,6.0356,-0.610924,0.196616,0.210513,0
2024-12-13 15:17:40.745,-0.588933,4.43869,6.0356,-0.610924,0.196616,0.210513,0
2024-12-13 15:17:40.745,-0.588933,4.43869,6.0356,-0.610924,0.196616,0.210513,0
2024-12-13 15:17:40.766,-0.548256,4.71386,6.71067,-0.724541,0.208833,0.186079,0
2024-12-13 15:17:40.773,-0.593719,4.7689,6.88774,-0.774631,0.217996,0.172641,0
2024-12-13 15:17:40.792,-0.550648,4.87448,7.89093,-0.91818,0.232046,0.142098,0
2024-12-13 15:17:40.797,-0.538684,4.92712,8.14487,-0.943835,0.214331,0.132248,0
2024-12-13 15:17:40.804,-0.500399,4.98216,8.5349,-0.984151,0.174626,0.115145,0
2024-12-13 15:17:40.820,-0.32333,5.15683,9.47588,-0.985984,0.172793,0.112701,0
2024-12-13 15:17:40.823,-0.27996,5.22383,9.50698,-0.920012,0.180124,0.0723854,0
2024-12-13 15:17:40.823,-0.27996,5.22383,9.50698,-0.920012,0.180124,0.0723854,0
2024-12-13 15:17:40.825,-0.265603,5.29562,9.52613,-0.908406,0.179513,0.0638335,0
2024-12-13 15:17:40.827,-0.251246,5.36291,9.59313,-0.891303,0.177069,0.05406,0
2024-12-13 15:17:40.830,-0.244068,5.44906,9.6673,-0.872977,0.178291,0.041843,0
2024-12-13 15:17:40.830,-0.244068,5.44906,9.6673,-0.872977,0.178291,0.041843,0
2024-12-13 15:17:40.832,-0.256032,5.52323,9.73909,-0.854041,0.181345,0.0296261,0
2024-12-13 15:17:40.834,-0.256032,5.52323,9.73909,-0.835105,0.185621,0.0174091,0
2024-12-13 15:17:40.839,-0.330509,5.65723,9.99303,-0.785626,0.19173,-0.00397051,0
2024-12-13 15:17:40.839,-0.330509,5.65723,9.99303,-0.785626,0.19173,-0.00397051,0
2024-12-13 15:17:40.841,-0.359223,5.69312,10.072,-0.758749,0.186843,-0.0143549,0
2024-12-13 15:17:40.844,-0.392722,5.74098,10.1677,-0.758749,0.186843,-0.0143549,0
2024-12-13 15:17:40.853,-0.438186,5.81037,10.6035,-0.628027,0.126369,-0.0577251,0
2024-12-13 15:17:40.855,-0.459721,5.81037,10.6035,-0.596263,0.109876,-0.0650552,0
2024-12-13 15:17:40.860,-0.541077,5.83669,10.9385,-0.596263,0.109876,-0.0650552,0
2024-12-13 15:17:40.860,-0.610469,5.83669,10.9385,-0.596263,0.109876,-0.0650552,0
2024-12-13 15:17:40.863,-0.658325,5.83191,11.0728,-0.515631,0.0274118,-0.077883,0
2024-12-13 15:17:40.865,-0.665504,5.84387,11.2044,-0.515631,0.0274118,-0.077883,0
2024-12-13 15:17:40.867,-0.677468,5.88216,11.3192,-0.460655,-0.013515,-0.0791047,0
2024-12-13 15:17:40.867,-0.677468,5.88216,11.3192,-0.460655,-0.013515,-0.0791047,0
2024-12-13 15:17:40.870,-0.682254,5.90399,11.4221,-0.460655,-0.013515,-0.0791047,0
2024-12-13 15:17:40.870,-0.682254,5.90399,11.4221,-0.460655,-0.013515,-0.0791047,0
2024-12-13 15:17:40.874,-0.708575,5.9686,11.6067,-0.376969,-0.0562743,-0.0754396,0
2024-12-13 15:17:40.874,-0.708575,5.9686,11.6067,-0.376969,-0.0562743,-0.0754396,0
2024-12-13 15:17:40.879,-0.720539,6.02363,11.7359,-0.32749,-0.0807082,-0.0717745,0
2024-12-13 15:17:40.879,-0.742074,6.02363,11.7359,-0.32749,-0.0807082,-0.0717745,0
2024-12-13 15:17:40.881,-0.749253,6.04517,11.7814,-0.304889,-0.0874275,-0.0681095,0
2024-12-13 15:17:40.884,-0.73011,6.08585,11.834,-0.304889,-0.0874275,-0.0644444,0
2024-12-13 15:17:40.886,-0.715753,6.1337,11.9058,-0.262741,-0.10331,-0.0583359,0
2024-12-13 15:17:40.887,-0.715753,6.1337,11.9058,-0.242583,-0.105753,-0.0528383,0
2024-12-13 15:17:40.893,-0.687039,6.2007,12.0637,-0.204099,-0.104531,-0.0442864,0
2024-12-13 15:17:40.893,-0.687039,6.2007,12.0637,-0.204099,-0.104531,-0.0442864,0
2024-12-13 15:17:40.898,-0.660718,6.23659,12.1478,-0.171724,-0.104531,-0.0320695,0
2024-12-13 15:17:40.898,-0.660718,6.23659,12.1478,-0.171724,-0.104531,-0.0320695,0
2024-12-13 15:17:40.900,-0.629611,6.25095,12.1932,-0.171724,-0.104531,-0.0320695,0
2024-12-13 15:17:40.903,-0.588933,6.26052,12.2435,-0.141182,-0.10392,-0.0210742,0
2024-12-13 15:17:40.905,-0.550648,6.27249,12.277,-0.124078,-0.0990336,-0.0161875,0
2024-12-13 15:17:40.907,-0.541077,6.27966,12.3177,-0.108807,-0.0990336,-0.010079,0
2024-12-13 15:17:40.907,-0.541077,6.27966,12.3177,-0.108807,-0.0990336,-0.010079,0
2024-12-13 15:17:40.907,-0.541077,6.27966,12.3177,-0.108807,-0.0990336,-0.010079,0
2024-12-13 15:17:40.912,-0.471685,6.32034,12.3703,-0.0727672,-0.0984228,0.000916271,0
2024-12-13 15:17:40.912,-0.471685,6.32034,12.3703,-0.0727672,-0.0984228,0.000916271,0
2024-12-13 15:17:40.917,-0.414257,6.37059,12.4205,-0.0532201,-0.0984228,0.00885729,0
2024-12-13 15:17:40.917,-0.414257,6.37059,12.4205,-0.0532201,-0.0984228,0.00885729,0
2024-12-13 15:17:40.926,-0.344866,6.49532,12.4038,-0.0129041,-0.10392,0.0131332,0
2024-12-13 15:17:40.961,-0.304188,7.22064,11.5756,0.335279,-0.249913,0.00335966,0
2024-12-13 15:17:40.978,-0.318545,7.72343,11.2211,0.417209,-0.300002,-0.025961,0
2024-12-13 15:17:40.985,-0.328116,7.91725,10.9986,0.414154,-0.298781,-0.033902,0
2024-12-13 15:17:40.987,-0.325723,7.97707,10.9313,0.386666,-0.290229,-0.0357346,0
2024-12-13 15:17:40.994,-0.308973,8.15205,10.7758,0.386666,-0.290229,-0.0357346,0
2024-12-13 15:17:40.999,-0.0741775,8.22862,10.7303,0.255258,-0.267627,-0.0210742,0
2024-12-13 15:17:41.004,-0.390329,8.22862,10.7255,0.214942,-0.27679,-0.0216851,0
2024-12-13 15:17:41.011,-0.478864,8.45594,10.6202,0.123315,-0.247469,-0.0155766,0
2024-12-13 15:17:41.013,-0.550648,8.50858,10.6849,0.123315,-0.247469,-0.0155766,0
2024-12-13 15:17:41.021,-0.0765703,8.47747,10.8619,-0.145458,-0.0886492,0.0161875,0
2024-12-13 15:17:41.025,0.0741775,8.29322,11.1494,-0.145458,-0.0886492,0.0161875,0
2024-12-13 15:17:41.032,0.148355,7.934,11.6641,-0.518686,-0.0800973,0.01802,0
2024-12-13 15:17:41.035,0.124427,7.81915,11.8555,-0.518686,-0.0800973,0.01802,0
2024-12-13 15:17:41.037,0.117248,7.69472,12.0613,-0.518686,-0.0800973,0.01802,0
2024-12-13 15:17:41.039,0.0909273,7.54607,12.2865,-0.703772,-0.0703238,0.00580305,0
2024-12-13 15:17:41.044,0.0646062,7.21586,12.8731,-0.819223,-0.0642153,-0.00335966,0
2024-12-13 15:17:41.046,0.0717847,7.02682,13.2132,-0.819223,-0.0642153,-0.00335966,0
2024-12-13 15:17:41.049,0.105284,6.82074,13.5553,-0.919401,-0.0519984,-0.0106898,0
2024-12-13 15:17:41.051,0.148355,6.60299,13.8978,-0.963993,-0.0446682,-0.0161875,0
2024-12-13 15:17:41.053,0.184247,6.38973,14.2687,-0.999422,-0.0330621,-0.0186308,0
2024-12-13 15:17:41.056,0.212961,6.17199,14.6614,-1.02752,-0.021456,-0.0229068,0
2024-12-13 15:17:41.060,0.248854,5.93749,15.0374,-1.05012,-0.00862822,-0.025961,0
2024-12-13 15:17:41.060,0.320937,5.7003,15.3939,-1.05012,-0.00862822,-0.025961,0
2024-12-13 15:17:41.063,0.407079,5.46341,15.7364,-1.066,0.0286335,-0.0357346,0
2024-12-13 15:17:41.063,0.407079,5.46341,15.7364,-1.066,0.0286335,-0.0357346,0
2024-12-13 15:17:41.067,0.565005,4.94626,16.2703,-1.04646,0.0542891,-0.0510057,0
2024-12-13 15:17:41.072,0.663111,4.47219,16.6343,-0.99759,0.0732253,-0.0705529,1
2024-12-13 15:17:41.072,0.663111,4.47219,16.6343,-0.99759,0.0732253,-0.0705529,1
2024-12-13 15:17:41.075,0.727717,4.24008,16.7492,-0.99759,0.0732253,-0.0705529,0
2024-12-13 15:17:41.079,0.84018,3.78275,16.8664,-0.870534,0.0683385,-0.118199,0
2024-12-13 15:17:41.079,0.84018,3.78275,16.8664,-0.870534,0.0683385,-0.118199,0
2024-12-13 15:17:41.084,0.876371,3.335,16.8568,-0.754473,0.0439046,-0.155461,0
2024-12-13 15:17:41.084,0.905085,3.335,16.8568,-0.754473,0.0439046,-0.155461,0
2024-12-13 15:17:41.086,0.945763,3.12443,16.7874,-0.689723,0.0261901,-0.174397,0
2024-12-13 15:17:41.089,0.945763,3.12443,16.675,-0.689723,0.0261901,-0.174397,0
2024-12-13 15:17:41.091,1.03669,2.73171,16.5072,-0.54312,-0.00862822,-0.214713,0
2024-12-13 15:17:41.091,1.03669,2.73171,16.5072,-0.54312,-0.00862822,-0.214713,0
2024-12-13 15:17:41.093,1.0989,2.53071,16.2918,-0.464931,-0.0275645,-0.239147,0
2024-12-13 15:17:41.096,1.14915,2.33659,16.0525,-0.464931,-0.0275645,-0.239147,0
2024-12-13 15:17:41.100,1.21137,2.15234,15.7651,-0.216927,-0.077654,-0.311838,0
2024-12-13 15:17:41.103,1.27837,1.85055,15.1953,-0.216927,-0.077654,-0.311838,0
2024-12-13 15:17:41.108,1.29512,1.75484,14.4676,-0.037338,-0.108196,-0.35704,0
2024-12-13 15:17:41.110,1.3669,1.59452,14.0749,0.14164,-0.143015,-0.402854,0
2024-12-13 15:17:41.115,1.41266,1.49163,13.2778,0.317564,-0.174779,-0.449889,0
2024-12-13 15:17:41.115,1.41266,1.49163,13.2778,0.317564,-0.174779,-0.449889,0
2024-12-13 15:17:41.117,1.43659,1.47966,12.8874,0.317564,-0.174779,-0.449889,0
2024-12-13 15:17:41.119,1.48205,1.4677,12.5067,0.49051,-0.205321,-0.495703,0
2024-12-13 15:17:41.122,1.51555,1.44138,12.1095,0.576029,-0.220592,-0.518915,0
2024-12-13 15:17:41.122,1.51555,1.44138,12.1095,0.576029,-0.220592,-0.518915,0
2024-12-13 15:17:41.126,1.5682,1.43659,11.2283,0.739736,-0.259686,-0.558009,0
2024-12-13 15:17:41.126,1.5682,1.43659,11.2283,0.739736,-0.259686,-0.558009,0
2024-12-13 15:17:41.129,1.55623,1.44855,10.7925,0.820368,-0.285953,-0.573891,0
2024-12-13 15:17:41.131,1.53948,1.47488,10.3591,0.820368,-0.285953,-0.573891,0
2024-12-13 15:17:41.133,1.50598,1.52513,9.91167,0.96575,-0.336653,-0.607488,0
2024-12-13 15:17:41.136,1.45573,1.58016,9.45195,1.03294,-0.36292,-0.619094,0
2024-12-13 15:17:41.138,1.41745,1.63998,8.99462,1.03294,-0.36292,-0.619094,0
2024-12-13 15:17:41.138,1.41745,1.63998,8.99462,1.03294,-0.36292,-0.619094,0
2024-12-13 15:17:41.141,1.38604,1.70698,8.53251,1.14656,-0.417896,-0.642306,0
2024-12-13 15:17:41.143,1.32861,1.78355,8.08714,1.14656,-0.417896,-0.642306,0
2024-12-13 15:17:41.145,1.25204,1.86969,7.6684,1.23391,-0.461266,-0.650858,0
2024-12-13 15:17:41.148,1.19222,1.95583,7.24936,1.26751,-0.478981,-0.653301,0
2024-12-13 15:17:41.150,1.1324,2.0327,6.84706,1.29133,-0.497306,-0.652079,0
2024-12-13 15:17:41.150,1.1324,2.0327,6.84706,1.29133,-0.497306,-0.652079,0
2024-12-13 15:17:41.152,1.0678,2.10927,6.45942,1.30905,-0.515021,-0.649025,0
2024-12-13 15:17:41.155,1.00319,2.20499,6.1002,1.31515,-0.530903,-0.641084,0
2024-12-13 15:17:41.155,1.00319,2.20499,6.1002,1.31515,-0.530903,-0.641084,0
2024-12-13 15:17:41.155,1.00319,2.20499,6.1002,1.31515,-0.530903,-0.641084,0
2024-12-13 15:17:41.159,0.9003,2.39163,5.46341,1.30843,-0.558391,-0.620926,0
2024-12-13 15:17:41.159,0.9003,2.39163,5.46341,1.30843,-0.558391,-0.620926,0
2024-12-13 15:17:41.166,0.732503,2.64796,4.71147,1.26751,-0.601761,-0.567783,0
2024-12-13 15:17:41.169,0.687039,2.73888,4.49851,1.19787,-0.612756,-0.543349,0
2024-12-13 15:17:41.173,0.608076,2.90638,4.15125,1.10502,-0.632303,-0.485929,0
2024-12-13 15:17:41.197,0.562612,3.34935,3.53839,0.921768,-0.635357,-0.385139,0
2024-12-13 15:17:41.206,0.837787,3.268,3.9,0.280303,-0.493641,-0.0204634,0
2024-12-13 15:17:41.211,0.964906,3.18664,4.18235,0.100713,-0.403846,0.0222959,0
2024-12-13 15:17:41.214,0.99362,3.15075,4.33579,-0.00251974,-0.350703,0.0400105,0
2024-12-13 15:17:41.216,0.998405,3.10768,4.49372,-0.0465007,-0.318939,0.0546708,0
2024-12-13 15:17:41.221,0.917049,3.00688,4.83141,-0.128965,-0.271293,0.0846023,0
2024-12-13 15:17:41.223,0.869193,2.9662,5.00848,-0.159507,-0.248691,0.0974301,0
2024-12-13 15:17:41.225,0.80668,2.92552,5.20708,-0.188828,-0.231587,0.109036,0
2024-12-13 15:17:41.228,0.744467,2.88963,5.42991,-0.215705,-0.21876,0.123697,0
2024-12-13 15:17:41.232,0.679861,2.85135,5.64766,-0.234642,-0.205932,0.135379,0
2024-12-13 15:17:41.239,0.505185,2.74606,6.32752,-0.249302,-0.197991,0.148207,0
2024-12-13 15:17:41.242,0.521934,2.74846,6.45464,-0.283509,-0.149734,0.206237,0
2024-12-13 15:17:41.242,0.521934,2.74846,6.45464,-0.283509,-0.149734,0.206237,0
2024-12-13 15:17:41.254,0.591326,2.68864,7.03879,-0.282899,-0.073378,0.256938,0
2024-12-13 15:17:41.256,0.596112,2.67428,7.10818,-0.279844,-0.0648262,0.264268,0
2024-12-13 15:17:41.256,0.596112,2.67428,7.10818,-0.279844,-0.0648262,0.264268,0
2024-12-13 15:17:41.258,0.612862,2.65992,7.18236,-0.273736,-0.0556635,0.267933,0
2024-12-13 15:17:41.261,0.634397,2.64317,7.25414,-0.268238,-0.049555,0.270376,0
2024-12-13 15:17:41.268,0.634397,2.62403,7.37139,-0.268238,-0.049555,0.270376,0
2024-12-13 15:17:41.272,0.553041,2.61446,7.40489,-0.23342,-0.0403923,0.267933,0
2024-12-13 15:17:41.272,0.553041,2.61446,7.40489,-0.23342,-0.0403923,0.267933,0
2024-12-13 15:17:41.275,0.52672,2.60489,7.4025,-0.224868,-0.041614,0.263046,0
2024-12-13 15:17:41.275,0.52672,2.60489,7.4025,-0.224868,-0.041614,0.263046,0
2024-12-13 15:17:41.287,0.454935,2.63121,7.41685,-0.178444,-0.0703238,0.231893,0
2024-12-13 15:17:41.287,0.454935,2.63121,7.41685,-0.178444,-0.0703238,0.231893,0
2024-12-13 15:17:41.298,0.447757,2.76521,7.4336,-0.122857,-0.13996,0.191577,0
2024-12-13 15:17:41.301,0.462114,2.79631,7.42164,-0.122857,-0.15401,0.183025,0
2024-12-13 15:17:41.310,0.591326,2.86092,7.29003,-0.0880384,-0.186385,0.146985,0
2024-12-13 15:17:41.315,0.641576,2.89681,7.26611,-0.049555,-0.232198,0.119421,0
2024-12-13 15:17:41.327,0.725324,2.9351,7.12493,0.0377962,-0.271293,0.0210742,0
2024-12-13 15:17:41.331,0.734896,2.9686,7.01217,0.0548999,-0.270682,0.00580305,0
2024-12-13 15:17:41.336,0.703789,3.03081,6.85663,0.102546,-0.260297,-0.0430647,0
2024-12-13 15:17:41.338,0.679861,3.04995,6.76571,0.109876,-0.257854,-0.0589468,0
2024-12-13 15:17:41.341,0.658325,3.07627,6.66281,0.122093,-0.257243,-0.0742179,0
2024-12-13 15:17:41.345,0.612862,3.12921,6.45703,0.13431,-0.258465,-0.101095,0
2024-12-13 15:17:41.360,0.431007,3.4666,5.88694,0.131256,-0.249913,-0.14813,0
2024-12-13 15:17:41.364,0.421436,3.62214,5.72423,0.101935,-0.232198,-0.159126,0
2024-12-13 15:17:41.376,0.409472,3.88564,5.44188,0.0139731,-0.191272,-0.174397,0
2024-12-13 15:17:41.378,0.411865,3.88564,5.44188,0.0139731,-0.191272,-0.174397,0
2024-12-13 15:17:41.395,0.378365,4.19671,5.63809,-0.180276,-0.106364,-0.190279,0
2024-12-13 15:17:41.400,0.347258,4.25444,5.78884,-0.203488,-0.0910926,-0.192722,0
2024-12-13 15:17:41.407,0.294616,4.32383,5.9686,-0.293894,-0.0648262,-0.196387,0
2024-12-13 15:17:41.409,0.265603,4.33579,6.04995,-0.309776,-0.0599394,-0.198831,0
2024-12-13 15:17:41.411,0.236889,4.35733,6.11934,-0.322604,-0.0526092,-0.199442,0
2024-12-13 15:17:41.411,0.236889,4.35733,6.11934,-0.322604,-0.0526092,-0.199442,0
2024-12-13 15:17:41.416,0.179462,4.38126,6.24138,-0.344594,-0.0458899,-0.198831,0
2024-12-13 15:17:41.418,0.145962,4.40758,6.31077,-0.344594,-0.0458899,-0.198831,0
2024-12-13 15:17:41.421,0.129212,4.40997,6.38016,-0.365974,-0.041614,-0.200052,0
2024-12-13 15:17:41.423,0.102891,4.4339,6.469,-0.365974,-0.041614,-0.200052,0
2024-12-13 15:17:41.425,0.0622134,4.46022,6.5671,-0.385521,-0.0410031,-0.193333,0
2024-12-13 15:17:41.428,0.040678,4.4674,6.65085,-0.385521,-0.0410031,-0.193333,0
2024-12-13 15:17:41.430,0.0287139,4.50329,6.74417,-0.402625,-0.0403923,-0.187836,0
2024-12-13 15:17:41.433,0.0119641,4.52961,6.84228,-0.414231,-0.0428357,-0.181727,0
2024-12-13 15:17:41.433,0.0119641,4.52961,6.84228,-0.414231,-0.0428357,-0.181727,0
2024-12-13 15:17:41.435,-0.00717847,4.54876,6.94277,-0.414231,-0.0428357,-0.181727,0
2024-12-13 15:17:41.437,-0.00239282,4.57508,7.04597,-0.430724,-0.0422248,-0.16951,0
2024-12-13 15:17:41.440,0.00957129,4.6014,7.15125,-0.440497,-0.041614,-0.16218,0
2024-12-13 15:17:41.440,0.00957129,4.6014,7.15125,-0.440497,-0.041614,-0.16218,0
2024-12-13 15:17:41.440,0.00957129,4.6014,7.15125,-0.440497,-0.041614,-0.16218,0
2024-12-13 15:17:41.444,0.0598206,4.64208,7.31635,-0.453325,-0.0367272,-0.149963,0
2024-12-13 15:17:41.447,0.0885344,4.65643,7.40489,-0.463099,-0.0330621,-0.143244,0
2024-12-13 15:17:41.449,0.114855,4.6684,7.49821,-0.467985,-0.029397,-0.137135,0
2024-12-13 15:17:41.449,0.114855,4.6684,7.49821,-0.467985,-0.029397,-0.137135,0
2024-12-13 15:17:41.451,0.136391,4.67797,7.60379,-0.475926,-0.0263428,-0.130416,0
2024-12-13 15:17:41.454,0.148355,4.68754,7.68276,-0.475926,-0.0263428,-0.130416,0
2024-12-13 15:17:41.454,0.148355,4.68754,7.68276,-0.475926,-0.0263428,-0.130416,0
2024-12-13 15:17:41.456,0.172283,4.68754,7.74258,-0.485089,-0.0196235,-0.116977,0
2024-12-13 15:17:41.458,0.20339,4.67797,7.81197,-0.489365,-0.0177909,-0.110258,0
2024-12-13 15:17:41.458,0.20339,4.67797,7.81197,-0.489365,-0.0177909,-0.110258,0
2024-12-13 15:17:41.461,0.227318,4.66361,7.88854,-0.495473,-0.0184018,-0.105982,0
2024-12-13 15:17:41.461,0.227318,4.66361,7.88854,-0.495473,-0.0184018,-0.105982,0
2024-12-13 15:17:41.463,0.241675,4.6349,7.96989,-0.497306,-0.0122933,-0.101706,0
2024-12-13 15:17:41.463,0.241675,4.6349,7.96989,-0.497306,-0.0122933,-0.101706,0
2024-12-13 15:17:41.466,0.256032,4.62533,8.04886,-0.502804,-0.0129041,-0.0962084,0
2024-12-13 15:17:41.468,0.275175,4.61576,8.10389,-0.505858,-0.00923906,-0.0913217,0
2024-12-13 15:17:41.470,0.292223,4.58226,8.1664,-0.50769,-0.00679568,-0.0882674,0
2024-12-13 15:17:41.470,0.292223,4.58226,8.1664,-0.50769,-0.00679568,-0.0882674,0
2024-12-13 15:17:41.473,0.316152,4.55115,8.25494,-0.513188,-0.00862822,-0.082159,0
2024-12-13 15:17:41.475,0.335294,4.5344,8.34826,-0.511356,-0.00374144,-0.0791047,0
2024-12-13 15:17:41.477,0.354437,4.52004,8.44636,-0.511356,-0.00251974,-0.0742179,0
2024-12-13 15:17:41.477,0.354437,4.52004,8.44636,-0.511356,-0.00251974,-0.0742179,0
2024-12-13 15:17:41.480,0.378365,4.51286,8.53969,-0.515021,-0.00251974,-0.069942,0
2024-12-13 15:17:41.482,0.378365,4.49851,8.62343,-0.513799,-0.00435229,-0.0668878,0
2024-12-13 15:17:41.482,0.395115,4.49851,8.62343,-0.513799,-0.00435229,-0.0668878,0
2024-12-13 15:17:41.484,0.409472,4.48894,8.72184,-0.508912,-0.00374144,-0.0632227,0
2024-12-13 15:17:41.487,0.435793,4.49851,8.82952,-0.510134,-0.00496313,-0.0589468,0
2024-12-13 15:17:41.487,0.435793,4.49851,8.82952,-0.510134,-0.00496313,-0.0589468,0
2024-12-13 15:17:41.489,0.4669,4.49851,8.92284,-0.505247,-0.00496313,-0.0552817,0
2024-12-13 15:17:41.491,0.4669,4.49851,8.92284,-0.50036,-0.00496313,-0.05406,0
2024-12-13 15:17:41.491,0.488435,4.51047,9.01376,-0.50036,-0.00496313,-0.05406,0
2024-12-13 15:17:41.494,0.507577,4.52243,9.0999,-0.494252,-0.00251974,-0.0510057,0
2024-12-13 15:17:41.496,0.548256,4.52961,9.18126,-0.488754,0.00297788,-0.0485624,0
2024-12-13 15:17:41.496,0.548256,4.52961,9.18126,-0.488754,0.00297788,-0.0485624,0
2024-12-13 15:17:41.499,0.584148,4.5344,9.27249,-0.482035,0.00847551,-0.0442864,0
2024-12-13 15:17:41.501,0.584148,4.5344,9.27249,-0.47165,0.0176382,-0.041843,0
2024-12-13 15:17:41.503,0.612862,4.54158,9.35624,-0.463099,0.0249684,-0.0406213,0
2024-12-13 15:17:41.503,0.646361,4.56072,9.43998,-0.463099,0.0249684,-0.0406213,0
2024-12-13 15:17:41.506,0.670289,4.57508,9.50938,-0.452103,0.0377962,-0.0400105,0
2024-12-13 15:17:41.506,0.670289,4.57508,9.50938,-0.452103,0.0377962,-0.0400105,0
2024-12-13 15:17:41.508,0.684646,4.58943,9.56441,-0.439276,0.0469589,-0.0393996,0
2024-12-13 15:17:41.510,0.710967,4.60379,9.62423,-0.428891,0.0591758,-0.0400105,0
2024-12-13 15:17:41.510,0.710967,4.60379,9.62423,-0.428891,0.0591758,-0.0400105,0
2024-12-13 15:17:41.513,0.737288,4.62533,9.68884,-0.419118,0.0689494,-0.0400105,0
2024-12-13 15:17:41.513,0.737288,4.62533,9.68884,-0.419118,0.0689494,-0.0400105,0
2024-12-13 15:17:41.515,0.766002,4.64925,9.72952,-0.403236,0.0793338,-0.0424539,0
2024-12-13 15:17:41.517,0.782752,4.6684,9.74627,-0.387964,0.090329,-0.0430647,0
2024-12-13 15:17:41.517,0.782752,4.6684,9.74627,-0.387964,0.090329,-0.0430647,0
2024-12-13 15:17:41.520,0.782752,4.6684,9.74627,-0.372693,0.0988809,-0.0455081,0
2024-12-13 15:17:41.520,0.792323,4.69472,9.77019,-0.372693,0.0988809,-0.0455081,0
2024-12-13 15:17:41.522,0.801895,4.72582,9.79891,-0.365974,0.108654,-0.0497841,0
2024-12-13 15:17:41.522,0.801895,4.72582,9.79891,-0.365974,0.108654,-0.0497841,0
2024-12-13 15:17:41.524,0.804287,4.7665,9.81805,-0.350703,0.116595,-0.0534491,0
2024-12-13 15:17:41.527,0.804287,4.79552,9.83271,-0.338486,0.126369,-0.0571142,0
2024-12-13 15:17:41.527,0.816252,4.79552,9.83271,-0.338486,0.126369,-0.0571142,0
2024-12-13 15:17:41.527,0.816252,4.79552,9.83271,-0.338486,0.126369,-0.0571142,0
2024-12-13 15:17:41.531,0.811466,4.87448,9.86621,-0.318328,0.138586,-0.0656661,0
2024-12-13 15:17:41.531,0.787538,4.87448,9.86621,-0.318328,0.138586,-0.0656661,0
2024-12-13 15:17:41.534,0.777966,4.92712,9.89731,-0.306722,0.145305,-0.069942,0
2024-12-13 15:17:41.534,0.777966,4.92712,9.89731,-0.306722,0.145305,-0.069942,0
2024-12-13 15:17:41.536,0.770788,4.96301,9.94278,-0.300002,0.146527,-0.0742179,0
2024-12-13 15:17:41.536,0.770788,4.96301,9.94278,-0.300002,0.146527,-0.0742179,0
2024-12-13 15:17:41.539,0.732503,5.00369,9.97388,-0.292672,0.147138,-0.077883,0
2024-12-13 15:17:41.539,0.732503,5.00369,9.97388,-0.292672,0.147138,-0.077883,0
2024-12-13 15:17:41.541,0.701396,5.05633,9.99542,-0.28412,0.147138,-0.0797156,0
2024-12-13 15:17:41.543,0.667897,5.0994,10.017,-0.274958,0.147749,-0.0827698,0
2024-12-13 15:17:41.543,0.667897,5.0994,10.017,-0.274958,0.147749,-0.0827698,0
2024-12-13 15:17:41.547,0.63679,5.1353,10.0457,-0.263352,0.142862,-0.085824,0
2024-12-13 15:17:41.548,0.632004,5.18315,10.0816,-0.263352,0.142862,-0.085824,0
2024-12-13 15:17:41.548,0.632004,5.18315,10.0816,-0.263352,0.142862,-0.085824,0
2024-12-13 15:17:41.550,0.605683,5.24537,10.1055,-0.258465,0.136753,-0.0882674,0
2024-12-13 15:17:41.553,0.586541,5.30519,10.1198,-0.252967,0.130645,-0.0876566,0
2024-12-13 15:17:41.553,0.586541,5.30519,10.1198,-0.252967,0.130645,-0.0876566,0
2024-12-13 15:17:41.553,0.586541,5.30519,10.1198,-0.252967,0.130645,-0.0876566,0
2024-12-13 15:17:41.557,0.550648,5.41316,10.1677,-0.241361,0.119039,-0.0870457,0
2024-12-13 15:17:41.557,0.550648,5.41316,10.1677,-0.241361,0.119039,-0.0870457,0
2024-12-13 15:17:41.560,0.54347,5.47059,10.1749,-0.240139,0.11232,-0.0870457,0
2024-12-13 15:17:41.562,0.548256,5.5328,10.1964,-0.239528,0.104379,-0.0876566,0
2024-12-13 15:17:41.562,0.548256,5.5328,10.1964,-0.239528,0.104379,-0.0876566,0
2024-12-13 15:17:41.564,0.54347,5.59502,10.2275,-0.238307,0.0939941,-0.0852132,0
2024-12-13 15:17:41.564,0.54347,5.59502,10.2275,-0.238307,0.0939941,-0.0852132,0
2024-12-13 15:17:41.567,0.521934,5.65005,10.2682,-0.235863,0.0811663,-0.0864349,0
2024-12-13 15:17:41.567,0.521934,5.65005,10.2682,-0.235863,0.0811663,-0.0864349,0
2024-12-13 15:17:41.569,0.505185,5.69552,10.3113,-0.238307,0.0683385,-0.0852132,0
2024-12-13 15:17:41.569,0.505185,5.69552,10.3113,-0.238307,0.0683385,-0.0852132,0
2024-12-13 15:17:41.572,0.505185,5.73141,10.3591,-0.242583,0.0555107,-0.0839915,0
2024-12-13 15:17:41.574,0.495613,5.77209,10.4264,-0.245026,0.0420721,-0.0809373,0
2024-12-13 15:17:41.574,0.495613,5.77209,10.4264,-0.245026,0.0420721,-0.0809373,0
2024-12-13 15:17:41.576,0.469292,5.81516,10.4886,-0.247469,0.0292443,-0.0784939,0
2024-12-13 15:17:41.576,0.469292,5.81516,10.4886,-0.247469,0.0292443,-0.0784939,0
2024-12-13 15:17:41.579,0.462114,5.85344,10.5556,-0.249913,0.0188599,-0.0729962,0
2024-12-13 15:17:41.579,0.462114,5.85344,10.5556,-0.249913,0.0188599,-0.0729962,0
2024-12-13 15:17:41.581,0.445364,5.87498,10.6179,-0.253578,0.00725381,-0.0668878,0
2024-12-13 15:17:41.582,0.445364,5.87498,10.6179,-0.257243,-0.00435229,-0.062001,0
2024-12-13 15:17:41.583,0.411865,5.89681,10.6753,-0.257243,-0.00435229,-0.062001,0
2024-12-13 15:17:41.583,0.411865,5.89681,10.6753,-0.257243,-0.00435229,-0.062001,0
2024-12-13 15:17:41.586,0.133998,5.88455,10.7279,-0.263962,-0.00740652,-0.0516166,0
2024-12-13 15:17:41.586,0.133998,5.88455,10.7279,-0.263962,-0.00740652,-0.0516166,0
2024-12-13 15:17:41.588,-0.16989,5.88933,10.7734,-0.266406,0.0176382,-0.0424539,0
2024-12-13 15:17:41.590,-0.11007,5.95185,10.7973,-0.274347,0.0341311,-0.0326803,0
2024-12-13 15:17:41.590,-0.11007,5.95185,10.7973,-0.274347,0.0341311,-0.0326803,0
2024-12-13 15:17:41.590,-0.11007,5.95185,10.7973,-0.274347,0.0341311,-0.0326803,0
2024-12-13 15:17:41.593,0.0861416,5.99731,10.8236,-0.281066,0.0292443,-0.0204634,0
2024-12-13 15:17:41.593,0.0861416,5.99731,10.8236,-0.281066,0.0292443,-0.0204634,0
2024-12-13 15:17:41.595,0.282652,6.03081,10.9217,-0.287785,0.0176382,-0.0064139,0
2024-12-13 15:17:41.595,0.282652,6.03081,10.9217,-0.287785,0.0176382,-0.0064139,0
2024-12-13 15:17:41.597,0.457328,6.07388,11.068,-0.295116,0.00419957,0.00702474,0
2024-12-13 15:17:41.597,0.457328,6.07388,11.068,-0.295116,0.00419957,0.00702474,0
2024-12-13 15:17:41.600,0.565005,6.12892,11.2235,-0.300613,-0.00740652,0.0167983,0
2024-12-13 15:17:41.600,0.565005,6.12892,11.2235,-0.300613,-0.00740652,0.0167983,0
2024-12-13 15:17:41.602,0.632004,6.17677,11.3647,-0.3055,-0.0165692,0.0284044,0
2024-12-13 15:17:41.602,0.632004,6.17677,11.3647,-0.3055,-0.0165692,0.0284044,0
2024-12-13 15:17:41.604,0.651147,6.22941,11.4844,-0.318939,-0.0251211,0.0363454,0
2024-12-13 15:17:41.607,0.651147,6.27249,11.6019,-0.331766,-0.0226777,0.0479515,0
2024-12-13 15:17:41.607,0.572184,6.27249,11.6019,-0.331766,-0.0226777,0.0479515,0
2024-12-13 15:17:41.609,0.457328,6.31077,11.7287,-0.343983,-0.0122933,0.0589468,0
2024-12-13 15:17:41.609,0.457328,6.31077,11.7287,-0.343983,-0.0122933,0.0589468,0
2024-12-13 15:17:41.609,0.457328,6.31077,11.7287,-0.343983,-0.0122933,0.0589468,0
2024-12-13 15:17:41.612,0.373579,6.36341,11.8579,-0.3562,0.00236703,0.0693312,0
2024-12-13 15:17:41.612,0.373579,6.36341,11.8579,-0.3562,0.00236703,0.0693312,0
2024-12-13 15:17:41.614,0.335294,6.4017,11.968,-0.368417,0.0158057,0.0797156,0
2024-12-13 15:17:41.614,0.335294,6.4017,11.968,-0.368417,0.0158057,0.0797156,0
2024-12-13 15:17:41.616,0.313759,6.41366,12.0712,-0.37758,0.0261901,0.0919325,0
2024-12-13 15:17:41.616,0.313759,6.41366,12.0712,-0.37758,0.0261901,0.0919325,0
2024-12-13 15:17:41.619,0.297009,6.42563,12.1813,-0.385521,0.0390179,0.102928,0
2024-12-13 15:17:41.619,0.297009,6.42563,12.1813,-0.385521,0.0390179,0.102928,0
2024-12-13 15:17:41.621,0.27996,6.41366,12.3105,-0.393462,0.0542891,0.113312,0
2024-12-13 15:17:41.621,0.27996,6.41366,12.3105,-0.393462,0.0542891,0.113312,0
2024-12-13 15:17:41.623,0.256032,6.4017,12.4636,-0.394684,0.0738362,0.123086,0
2024-12-13 15:17:41.623,0.256032,6.4017,12.4636,-0.394684,0.0738362,0.123086,0
2024-12-13 15:17:41.626,0.258425,6.38495,12.6168,-0.39957,0.0958267,0.132859,0
2024-12-13 15:17:41.626,0.258425,6.38495,12.6168,-0.39957,0.0958267,0.132859,0
2024-12-13 15:17:41.628,0.267996,6.35623,12.7558,-0.396516,0.118428,0.139655,0
2024-12-13 15:17:41.628,0.267996,6.35623,12.7558,-0.396516,0.118428,0.139655,0
2024-12-13 15:17:41.630,0.119641,6.29402,12.897,-0.394073,0.14164,0.146374,0
2024-12-13 15:17:41.633,0.119641,6.24377,13.0454,-0.385521,0.180734,0.155537,0
2024-12-13 15:17:41.633,-0.0167498,6.24377,13.0454,-0.385521,0.180734,0.155537,0
2024-12-13 15:17:41.633,-0.0167498,6.24377,13.0454,-0.385521,0.180734,0.155537,0
2024-12-13 15:17:41.635,0.0478565,6.25574,13.1698,-0.378191,0.212498,0.1647,0
2024-12-13 15:17:41.635,0.0478565,6.25574,13.1698,-0.378191,0.212498,0.1647,0
2024-12-13 15:17:41.637,0.196211,6.26291,13.2993,-0.365363,0.230824,0.175084,0
2024-12-13 15:17:41.637,0.196211,6.26291,13.2993,-0.365363,0.230824,0.175084,0
2024-12-13 15:17:41.640,0.364008,6.27727,13.4501,-0.350703,0.235711,0.179971,0
2024-12-13 15:17:41.640,0.364008,6.27727,13.4501,-0.350703,0.235711,0.179971,0
2024-12-13 15:17:41.642,0.498006,6.31077,13.6104,-0.33421,0.235711,0.183636,0
2024-12-13 15:17:41.642,0.498006,6.31077,13.6104,-0.33421,0.235711,0.183636,0
2024-12-13 15:17:41.642,0.498006,6.31077,13.6104,-0.33421,0.235711,0.183636,0
2024-12-13 15:17:41.645,0.632004,6.36341,13.7901,-0.317106,0.2351,0.18669,0
2024-12-13 15:17:41.647,0.684646,6.40409,13.9457,-0.295726,0.232656,0.186079,0
2024-12-13 15:17:41.647,0.684646,6.40409,13.9457,-0.295726,0.232656,0.186079,0
2024-12-13 15:17:41.647,0.684646,6.40409,13.9457,-0.295726,0.232656,0.186079,0
2024-12-13 15:17:41.649,0.634397,6.42563,14.0797,-0.274347,0.236932,0.184858,0
2024-12-13 15:17:41.652,0.62004,6.46421,14.2017,-0.251135,0.247928,0.181803,0
2024-12-13 15:17:41.652,0.62004,6.46421,14.2017,-0.251135,0.247928,0.181803,0
2024-12-13 15:17:41.652,0.62004,6.46421,14.2017,-0.251135,0.247928,0.181803,0
2024-12-13 15:17:41.654,0.643968,6.5001,14.2783,-0.224257,0.258312,0.176306,0
2024-12-13 15:17:41.656,0.658325,6.52642,14.348,-0.193104,0.265031,0.168976,0
2024-12-13 15:17:41.656,0.658325,6.52642,14.348,-0.193104,0.265031,0.168976,0
2024-12-13 15:17:41.659,0.65354,6.55514,14.4221,-0.160729,0.269918,0.162256,0
2024-12-13 15:17:41.659,0.65354,6.55514,14.4221,-0.160729,0.269918,0.162256,0
2024-12-13 15:17:41.661,0.624826,6.59103,14.5011,-0.127743,0.274805,0.156148,0
2024-12-13 15:17:41.661,0.624826,6.59103,14.5011,-0.127743,0.274805,0.156148,0
2024-12-13 15:17:41.663,0.596112,6.62214,14.5896,-0.0910926,0.282135,0.147596,0
2024-12-13 15:17:41.663,0.596112,6.62214,14.5896,-0.0910926,0.282135,0.147596,0
2024-12-13 15:17:41.663,0.596112,6.62214,14.5896,-0.0910926,0.282135,0.147596,0
2024-12-13 15:17:41.666,0.584148,6.64367,14.659,-0.0501658,0.289465,0.137212,0
2024-12-13 15:17:41.666,0.584148,6.64367,14.659,-0.0501658,0.289465,0.137212,0
2024-12-13 15:17:41.666,0.584148,6.64367,14.659,-0.0501658,0.289465,0.137212,0
2024-12-13 15:17:41.670,0.600898,6.67956,14.7189,0.0347419,0.294963,0.117588,0
2024-12-13 15:17:41.670,0.600898,6.67956,14.7189,0.0347419,0.294963,0.117588,0
2024-12-13 15:17:41.673,0.605683,6.70349,14.7165,0.0787229,0.299239,0.107815,1
2024-12-13 15:17:41.673,0.605683,6.70349,14.7165,0.0787229,0.299239,0.107815,1
2024-12-13 15:17:41.675,0.608076,6.73221,14.6949,0.124536,0.301071,0.0974301,0
2024-12-13 15:17:41.675,0.608076,6.73221,14.6949,0.124536,0.301071,0.0974301,0
2024-12-13 15:17:41.678,0.608076,6.76092,14.6447,0.167907,0.306569,0.0901,0
2024-12-13 15:17:41.678,0.608076,6.76092,14.6447,0.167907,0.306569,0.0901,0
2024-12-13 15:17:41.680,0.610469,6.7681,14.5872,0.211888,0.307791,0.0784939,0
2024-12-13 15:17:41.681,0.610469,6.7681,14.5872,0.255869,0.30718,0.0687203,0
2024-12-13 15:17:41.682,0.612862,6.77528,14.5274,0.255869,0.30718,0.0687203,0
2024-12-13 15:17:41.682,0.612862,6.77528,14.5274,0.255869,0.30718,0.0687203,0
2024-12-13 15:17:41.685,0.612862,6.79203,14.4269,0.295574,0.306569,0.0607793,0
2024-12-13 15:17:41.687,0.605683,6.78963,14.3145,0.335279,0.304126,0.0534491,0
2024-12-13 15:17:41.688,0.605683,6.78963,14.3145,0.370784,0.305958,0.0479515,0
2024-12-13 15:17:41.689,0.598505,6.79203,14.2065,0.370784,0.305958,0.0479515,0
2024-12-13 15:17:41.692,0.567398,6.78724,14.0629,0.397662,0.305347,0.0430647,0
2024-12-13 15:17:41.692,0.567398,6.78724,14.0629,0.397662,0.305347,0.0430647,0
2024-12-13 15:17:41.694,0.538684,6.77528,13.9146,0.428204,0.309012,0.041843,0
2024-12-13 15:17:41.696,0.529113,6.76331,13.771,0.448362,0.309623,0.0430647,0
2024-12-13 15:17:41.696,0.529113,6.76331,13.771,0.448362,0.309623,0.0430647,0
2024-12-13 15:17:41.699,0.512363,6.74178,13.6152,0.467298,0.309623,0.0442864,0
2024-12-13 15:17:41.699,0.512363,6.74178,13.6152,0.467298,0.309623,0.0442864,0
2024-12-13 15:17:41.701,0.486042,6.69871,13.4453,0.480126,0.310234,0.0479515,0
2024-12-13 15:17:41.703,0.4669,6.65564,13.2682,0.487456,0.313899,0.0534491,0
2024-12-13 15:17:41.703,0.4669,6.65564,13.2682,0.487456,0.313899,0.0534491,0
2024-12-13 15:17:41.703,0.4669,6.65564,13.2682,0.487456,0.313899,0.0534491,0
2024-12-13 15:17:41.703,0.4669,6.65564,13.2682,0.487456,0.313899,0.0534491,0
2024-12-13 15:17:41.708,0.476471,6.56471,12.9616,0.491121,0.316953,0.0668878,0
2024-12-13 15:17:41.708,0.476471,6.56471,12.9616,0.491121,0.316953,0.0668878,0
2024-12-13 15:17:41.710,0.478864,6.51925,12.8252,0.485624,0.318175,0.0772722,0
2024-12-13 15:17:41.710,0.478864,6.51925,12.8252,0.485624,0.318175,0.0772722,0
2024-12-13 15:17:41.713,0.478864,6.4666,12.6888,0.479515,0.324894,0.0870457,0
2024-12-13 15:17:41.713,0.478864,6.4666,12.6888,0.479515,0.324894,0.0870457,0
2024-12-13 15:17:41.718,0.474078,6.34427,12.4564,0.448973,0.331614,0.11209,0
2024-12-13 15:17:41.720,0.519542,6.27009,12.3631,0.43248,0.334668,0.124918,0
2024-12-13 15:17:41.720,0.519542,6.27009,12.3631,0.43248,0.334668,0.124918,0
2024-12-13 15:17:41.722,0.529113,6.18395,12.277,0.407435,0.331614,0.138433,0
2024-12-13 15:17:41.722,0.529113,6.18395,12.277,0.407435,0.331614,0.138433,0
2024-12-13 15:17:41.725,0.529113,6.09781,12.2172,0.384834,0.327338,0.152483,0
2024-12-13 15:17:41.725,0.507577,6.09781,12.2172,0.384834,0.327338,0.152483,0
2024-12-13 15:17:41.727,0.498006,6.01645,12.1693,0.356048,0.320008,0.169586,0
2024-12-13 15:17:41.727,0.498006,6.01645,12.1693,0.356048,0.320008,0.169586,0
2024-12-13 15:17:41.729,0.495613,5.92313,12.1382,0.327338,0.315732,0.18669,0
2024-12-13 15:17:41.729,0.495613,5.92313,12.1382,0.327338,0.315732,0.18669,0
2024-12-13 15:17:41.729,0.495613,5.92313,12.1382,0.327338,0.315732,0.18669,0
2024-12-13 15:17:41.732,0.471685,5.81994,12.1502,0.298017,0.310845,0.204405,0
2024-12-13 15:17:41.732,0.471685,5.81994,12.1502,0.298017,0.310845,0.204405,0
2024-12-13 15:17:41.734,0.445364,5.71466,12.186,0.264421,0.305347,0.225174,0
2024-12-13 15:17:41.734,0.445364,5.71466,12.186,0.264421,0.305347,0.225174,0
2024-12-13 15:17:41.736,0.428614,5.60459,12.2483,0.2351,0.298017,0.245942,0
2024-12-13 15:17:41.739,0.428614,5.60459,12.2483,0.203336,0.289465,0.267322,0
2024-12-13 15:17:41.739,0.421436,5.49213,12.3464,0.203336,0.289465,0.267322,0
2024-12-13 15:17:41.739,0.421436,5.49213,12.3464,0.203336,0.289465,0.267322,0
2024-12-13 15:17:41.741,0.421436,5.35334,12.4493,0.177069,0.283357,0.292367,0
2024-12-13 15:17:41.741,0.421436,5.35334,12.4493,0.177069,0.283357,0.292367,0
2024-12-13 15:17:41.743,0.428614,5.21426,12.5665,0.150192,0.279081,0.317412,0
2024-12-13 15:17:41.743,0.428614,5.21426,12.5665,0.150192,0.279081,0.317412,0
2024-12-13 15:17:41.746,0.452543,5.08505,12.7199,0.123315,0.273583,0.341235,0
2024-12-13 15:17:41.746,0.452543,5.08505,12.7199,0.123315,0.273583,0.341235,0
2024-12-13 15:17:41.748,0.493221,4.9343,12.8922,0.102546,0.267475,0.363836,0
2024-12-13 15:17:41.748,0.493221,4.9343,12.8922,0.102546,0.267475,0.363836,0
2024-12-13 15:17:41.751,0.52672,4.77398,13.0621,0.0854423,0.265031,0.386437,0
2024-12-13 15:17:41.751,0.52672,4.77398,13.0621,0.0854423,0.265031,0.386437,0
2024-12-13 15:17:41.753,0.562612,4.60858,13.2108,0.0762796,0.266253,0.409039,0
2024-12-13 15:17:41.753,0.562612,4.60858,13.2108,0.0762796,0.266253,0.409039,0
2024-12-13 15:17:41.753,0.562612,4.60858,13.2108,0.0762796,0.266253,0.409039,0
2024-12-13 15:17:41.755,0.600898,4.43629,13.3591,0.0726145,0.269918,0.429197,0
2024-12-13 15:17:41.758,0.665504,4.24726,13.5003,0.0677277,0.274805,0.448133,0
2024-12-13 15:17:41.758,0.665504,4.24726,13.5003,0.0677277,0.274805,0.448133,0
2024-12-13 15:17:41.758,0.665504,4.24726,13.5003,0.0677277,0.274805,0.448133,0
2024-12-13 15:17:41.760,0.718146,4.05075,13.6176,0.0701711,0.280303,0.464015,0
2024-12-13 15:17:41.760,0.718146,4.05075,13.6176,0.0701711,0.280303,0.464015,0
2024-12-13 15:17:41.762,0.749253,3.85693,13.742,0.082388,0.287633,0.478064,0
2024-12-13 15:17:41.762,0.749253,3.85693,13.742,0.082388,0.287633,0.478064,0
2024-12-13 15:17:41.765,0.749253,3.85693,13.742,0.0958267,0.30046,0.490281,0
2024-12-13 15:17:41.765,0.801895,3.67508,13.8452,0.0958267,0.30046,0.490281,0
2024-12-13 15:17:41.767,0.857229,3.50249,13.9289,0.115374,0.315732,0.501277,0
2024-12-13 15:17:41.769,0.912264,3.32303,13.9935,0.138586,0.334057,0.510439,0
2024-12-13 15:17:41.769,0.912264,3.32303,13.9935,0.138586,0.334057,0.510439,0
2024-12-13 15:17:41.769,0.912264,3.32303,13.9935,0.138586,0.334057,0.510439,0
2024-12-13 15:17:41.769,0.912264,3.32303,13.9935,0.138586,0.334057,0.510439,0
2024-12-13 15:17:41.772,0.972084,3.15793,14.0175,0.169739,0.35788,0.516548,0
2024-12-13 15:17:41.774,1.02712,3.00927,14.0175,0.205168,0.385979,0.522656,0
2024-12-13 15:17:41.774,1.02712,3.00927,14.0175,0.205168,0.385979,0.522656,0
2024-12-13 15:17:41.774,1.02712,3.00927,14.0175,0.205168,0.385979,0.522656,0
2024-12-13 15:17:41.776,1.05823,2.85135,13.9768,0.246095,0.4153,0.524489,0
2024-12-13 15:17:41.776,1.05823,2.85135,13.9768,0.246095,0.4153,0.524489,0
2024-12-13 15:17:41.779,1.06301,2.69821,13.9098,0.287633,0.448286,0.526321,0
2024-12-13 15:17:41.779,1.06301,2.69821,13.9098,0.287633,0.448286,0.526321,0
2024-12-13 15:17:41.779,1.06301,2.69821,13.9098,0.287633,0.448286,0.526321,0
2024-12-13 15:17:41.779,1.06301,2.69821,13.9098,0.287633,0.448286,0.526321,0
2024-12-13 15:17:41.781,1.07258,2.58574,13.7997,0.329781,0.484326,0.526321,0
2024-12-13 15:17:41.781,1.07258,2.58574,13.7997,0.329781,0.484326,0.526321,0
2024-12-13 15:17:41.784,1.05823,2.48495,13.6439,0.329781,0.484326,0.526321,0
2024-12-13 15:17:41.786,1.02233,2.38684,13.4812,0.433091,0.562514,0.523878,0
2024-12-13 15:17:41.788,1.0008,2.31027,13.285,0.486845,0.599776,0.521434,0
2024-12-13 15:17:41.788,1.0008,2.31027,13.285,0.486845,0.599776,0.521434,0
2024-12-13 15:17:41.791,0.969691,2.25763,13.0238,0.543654,0.637648,0.517159,0
2024-12-13 15:17:41.793,0.929013,2.23849,12.7247,0.599852,0.672466,0.512272,0
2024-12-13 15:17:41.793,0.929013,2.23849,12.7247,0.599852,0.672466,0.512272,0
2024-12-13 15:17:41.793,0.929013,2.23849,12.7247,0.599852,0.672466,0.512272,0
2024-12-13 15:17:41.795,0.873978,2.24327,12.4373,0.65605,0.706139,0.504942,0
2024-12-13 15:17:41.795,0.873978,2.24327,12.4373,0.65605,0.706139,0.504942,0
2024-12-13 15:17:41.798,0.787538,2.25763,12.143,0.714691,0.740347,0.497611,0
2024-12-13 15:17:41.798,0.787538,2.25763,12.143,0.714691,0.740347,0.497611,0
2024-12-13 15:17:41.800,0.687039,2.28634,11.8101,0.7715,0.769668,0.490281,0
2024-12-13 15:17:41.800,0.687039,2.28634,11.8101,0.7715,0.769668,0.490281,0
2024-12-13 15:17:41.802,0.598505,2.31984,11.458,0.825866,0.794101,0.483562,0
2024-12-13 15:17:41.802,0.598505,2.31984,11.458,0.825866,0.794101,0.483562,0
2024-12-13 15:17:41.805,0.521934,2.34377,11.0967,0.87962,0.816092,0.474399,0
2024-12-13 15:17:41.805,0.521934,2.34377,11.0967,0.87962,0.816092,0.474399,0
2024-12-13 15:17:41.807,0.445364,2.3677,10.7088,0.927877,0.833807,0.460961,0
2024-12-13 15:17:41.809,0.371187,2.39402,10.328,0.972469,0.848467,0.449355,0
2024-12-13 15:17:41.809,0.371187,2.39402,10.328,0.972469,0.848467,0.449355,0
2024-12-13 15:17:41.809,0.371187,2.39402,10.328,0.972469,0.848467,0.449355,0
2024-12-13 15:17:41.812,0.294616,2.41795,9.95474,1.0134,0.858851,0.436527,0
2024-12-13 15:17:41.814,0.222533,2.43709,9.57398,1.0134,0.863738,0.423088,0
2024-12-13 15:17:41.814,0.222533,2.43709,9.57398,1.0134,0.863738,0.423088,0
2024-12-13 15:17:41.816,0.131605,2.47059,9.19801,1.08181,0.866792,0.411482,0
2024-12-13 15:17:41.816,0.131605,2.47059,9.19801,1.08181,0.866792,0.411482,0
2024-12-13 15:17:41.819,0.0311067,2.51127,8.81994,1.11357,0.865571,0.397433,0
2024-12-13 15:17:41.821,-0.081356,2.54985,8.43919,1.13373,0.85824,0.387048,0
2024-12-13 15:17:41.821,-0.081356,2.54985,8.43919,1.13373,0.85824,0.387048,0
2024-12-13 15:17:41.824,-0.301795,2.57857,8.07279,1.15145,0.852132,0.376664,0
2024-12-13 15:17:41.824,-0.301795,2.57857,8.07279,1.15145,0.852132,0.376664,0
2024-12-13 15:17:41.826,-0.447757,2.61924,7.6995,1.16122,0.854575,0.366279,0
2024-12-13 15:17:41.826,-0.447757,2.61924,7.6995,1.16122,0.854575,0.366279,0
2024-12-13 15:17:41.828,-0.45015,2.67906,7.32114,1.16305,0.839915,0.357727,0
2024-12-13 15:17:41.828,-0.45015,2.67906,7.32114,1.16305,0.839915,0.357727,0
2024-12-13 15:17:41.831,-0.457328,2.74367,6.97149,1.1655,0.8222,0.349786,0
2024-12-13 15:17:41.832,-0.457328,2.74367,6.97149,1.15633,0.795323,0.340624,0
2024-12-13 15:17:41.833,-0.481256,2.80349,6.64846,1.15633,0.795323,0.340624,0
2024-12-13 15:17:41.833,-0.481256,2.80349,6.64846,1.15633,0.795323,0.340624,0
2024-12-13 15:17:41.835,-0.529113,2.87528,6.35384,1.14412,0.770278,0.332683,0
2024-12-13 15:17:41.838,-0.596112,2.94227,6.08106,1.12946,0.75012,0.324131,0
2024-12-13 15:17:41.838,-0.596112,2.94227,6.08106,1.12946,0.75012,0.324131,0
2024-12-13 15:17:41.840,-0.682254,2.98535,5.81037,1.10563,0.731184,0.319855,0
2024-12-13 15:17:41.840,-0.682254,2.98535,5.81037,1.10563,0.731184,0.319855,0
2024-12-13 15:17:41.840,-0.682254,2.98535,5.81037,1.10563,0.731184,0.319855,0
2024-12-13 15:17:41.842,-0.766002,3.0332,5.5352,1.07326,0.712248,0.311914,0
2024-12-13 15:17:41.845,-0.84018,3.09571,5.27408,1.03661,0.701787,0.304584,0
2024-12-13 15:17:41.847,-0.84018,3.09571,5.03958,0.99507,0.695068,0.29481,0
2024-12-13 15:17:41.847,-0.895514,3.1675,5.03958,0.99507,0.695068,0.29481,0
2024-12-13 15:17:41.849,-0.979263,3.25364,4.83141,0.942537,0.685905,0.288091,0
2024-12-13 15:17:41.849,-0.979263,3.25364,4.83141,0.942537,0.685905,0.288091,0
2024-12-13 15:17:41.852,-1.1013,3.33021,4.66361,0.890615,0.68224,0.278928,0
2024-12-13 15:17:41.852,-1.1013,3.33021,4.66361,0.890615,0.68224,0.278928,0
2024-12-13 15:17:41.854,-1.17787,3.40439,4.50808,0.831363,0.686516,0.270376,0
2024-12-13 15:17:41.854,-1.17787,3.40439,4.50808,0.831363,0.686516,0.270376,0
2024-12-13 15:17:41.857,-1.19462,3.4666,4.37647,0.769668,0.684073,0.261214,0
2024-12-13 15:17:41.857,-1.19462,3.4666,4.37647,0.769668,0.684073,0.261214,0
2024-12-13 15:17:41.859,-1.20658,3.51207,4.29751,0.700031,0.680407,0.252662,0
2024-12-13 15:17:41.859,-1.20658,3.51207,4.29751,0.700031,0.680407,0.252662,0
2024-12-13 15:17:41.861,-1.22094,3.54078,4.24008,0.633449,0.671856,0.24411,0
2024-12-13 15:17:41.864,-1.22333,3.55274,4.21855,0.563201,0.663915,0.235558,0
2024-12-13 15:17:41.864,-1.22333,3.55274,4.21855,0.563201,0.663915,0.235558,0
2024-12-13 15:17:41.864,-1.22333,3.55274,4.21855,0.563201,0.663915,0.235558,0
2024-12-13 15:17:41.866,-1.24008,3.55514,4.24965,0.489289,0.657806,0.227617,0
2024-12-13 15:17:41.866,-1.24008,3.55514,4.24965,0.489289,0.657806,0.227617,0
2024-12-13 15:17:41.868,-1.27119,3.56949,4.29751,0.489289,0.657806,0.227617,0
2024-12-13 15:17:41.871,-1.35015,3.69661,4.36212,0.343831,0.644368,0.206237,0
2024-12-13 15:17:41.873,-1.42702,3.72054,4.48415,0.275416,0.645589,0.197685,0
2024-12-13 15:17:41.873,-1.42702,3.72054,4.48415,0.275416,0.645589,0.197685,0
2024-12-13 15:17:41.875,-1.37647,3.54078,4.57986,0.208223,0.654752,0.189744,0
2024-12-13 15:17:41.875,-1.37647,3.54078,4.57986,0.208223,0.654752,0.189744,0
2024-12-13 15:17:41.878,-1.37647,3.54078,4.59183,0.14164,0.651698,0.177527,0
2024-12-13 15:17:41.878,-1.31426,3.42592,4.59183,0.14164,0.651698,0.177527,0
2024-12-13 15:17:41.880,-1.32144,3.36371,4.64447,0.0707819,0.623599,0.1647,0
2024-12-13 15:17:41.880,-1.32144,3.36371,4.64447,0.0707819,0.623599,0.1647,0
2024-12-13 15:17:41.882,-1.35733,3.27996,4.85773,0.00786466,0.596111,0.155537,0
2024-12-13 15:17:41.882,-1.35733,3.27996,4.85773,0.00786466,0.596111,0.155537,0
2024-12-13 15:17:41.885,-1.38844,3.18903,5.16401,-0.0458899,0.580839,0.143931,0
2024-12-13 15:17:41.885,-1.38844,3.18903,5.16401,-0.0458899,0.580839,0.143931,0
2024-12-13 15:17:41.887,-1.41506,3.12204,5.41077,-0.0972011,0.566179,0.134768,0
2024-12-13 15:17:41.887,-1.41506,3.12204,5.41077,-0.0972011,0.566179,0.134768,0
2024-12-13 15:17:41.889,-1.42941,3.06431,5.57827,-0.143625,0.548464,0.124918,0
2024-12-13 15:17:41.889,-1.42941,3.06431,5.57827,-0.143625,0.548464,0.124918,0
2024-12-13 15:17:41.892,-1.45573,3.01406,5.75055,-0.181498,0.526474,0.115145,0
2024-12-13 15:17:41.892,-1.45573,3.01406,5.75055,-0.181498,0.526474,0.115145,0
2024-12-13 15:17:41.894,-1.48205,2.9686,5.94228,-0.21876,0.50204,0.105982,0
2024-12-13 15:17:41.897,-1.4988,2.93031,6.14567,-0.247469,0.478828,0.098041,0
2024-12-13 15:17:41.898,-1.4988,2.93031,6.14567,-0.272514,0.45867,0.0913217,0
2024-12-13 15:17:41.899,-1.51555,2.8992,6.37538,-0.272514,0.45867,0.0913217,0
2024-12-13 15:17:41.899,-1.51555,2.8992,6.37538,-0.272514,0.45867,0.0913217,0
2024-12-13 15:17:41.901,-1.52034,2.87049,6.58864,-0.288396,0.436069,0.085824,0
2024-12-13 15:17:41.904,-1.48923,2.82981,6.76571,-0.304278,0.414078,0.0833807,0
2024-12-13 15:17:41.905,-1.48923,2.82981,6.76571,-0.314052,0.394531,0.0803264,0
2024-12-13 15:17:41.906,-1.4342,2.79392,6.93799,-0.314052,0.394531,0.0803264,0
2024-12-13 15:17:41.906,-1.4342,2.79392,6.93799,-0.314052,0.394531,0.0803264,0
2024-12-13 15:17:41.908,-1.36929,2.76042,7.09621,-0.322604,0.375595,0.0742179,0
2024-12-13 15:17:41.908,-1.36929,2.76042,7.09621,-0.322604,0.375595,0.0742179,0
2024-12-13 15:17:41.911,-1.30229,2.69581,7.22303,-0.326269,0.357269,0.0723854,0
2024-12-13 15:17:41.911,-1.30229,2.69581,7.22303,-0.326269,0.357269,0.0723854,0
2024-12-13 15:17:41.913,-1.24965,2.65274,7.33789,-0.328712,0.341998,0.0662769,0
2024-12-13 15:17:41.913,-1.24965,2.65274,7.33789,-0.328712,0.341998,0.0662769,0
2024-12-13 15:17:41.915,-1.1994,2.60967,7.46471,-0.328101,0.327338,0.0613902,0
2024-12-13 15:17:41.915,-1.1994,2.60967,7.46471,-0.328101,0.327338,0.0613902,0
2024-12-13 15:17:41.918,-1.14676,2.55942,7.59422,-0.323215,0.312067,0.0565034,0
2024-12-13 15:17:41.920,-1.0989,2.53549,7.71865,-0.315274,0.298628,0.0552817,0
2024-12-13 15:17:41.922,-1.06301,2.50648,7.81436,-0.302446,0.290687,0.0516166,0
2024-12-13 15:17:41.922,-1.06301,2.50648,7.81436,-0.302446,0.290687,0.0516166,0
2024-12-13 15:17:41.925,-1.02473,2.48255,7.87897,-0.289618,0.284578,0.0503949,0
2024-12-13 15:17:41.925,-1.02473,2.48255,7.87897,-0.289618,0.284578,0.0503949,0
2024-12-13 15:17:41.927,-0.972084,2.4682,7.94357,-0.274958,0.279081,0.0479515,0
2024-12-13 15:17:41.930,-0.94337,2.45863,8.00339,-0.26213,0.272972,0.0485624,0
2024-12-13 15:17:41.930,-0.94337,2.45863,8.00339,-0.26213,0.272972,0.0485624,0
2024-12-13 15:17:41.932,-0.914656,2.44905,8.04407,-0.243804,0.265642,0.0467298,0
2024-12-13 15:17:41.932,-0.914656,2.44905,8.04407,-0.243804,0.265642,0.0467298,0
2024-12-13 15:17:41.934,-0.878764,2.43709,8.08475,-0.227312,0.258312,0.046119,0
2024-12-13 15:17:41.934,-0.878764,2.43709,8.08475,-0.227312,0.258312,0.046119,0
2024-12-13 15:17:41.937,-0.859622,2.41077,8.1015,-0.208986,0.24976,0.046119,0
2024-12-13 15:17:41.939,-0.82343,2.38684,8.09432,-0.187606,0.246095,0.0485624,0
2024-12-13 15:17:41.939,-0.82343,2.38684,8.09432,-0.187606,0.246095,0.0485624,0
2024-12-13 15:17:41.941,-0.794716,2.38206,8.10868,-0.171114,0.238765,0.0510057,0
2024-12-13 15:17:41.944,-0.777966,2.37248,8.1015,-0.150956,0.233267,0.0522274,0
2024-12-13 15:17:41.944,-0.777966,2.37248,8.1015,-0.150956,0.233267,0.0522274,0
2024-12-13 15:17:41.946,-0.758824,2.35573,8.07518,-0.128354,0.229602,0.0546708,0
2024-12-13 15:17:41.946,-0.758824,2.35573,8.07518,-0.128354,0.229602,0.0546708,0
2024-12-13 15:17:41.948,-0.768395,2.35334,8.05125,-0.110029,0.22105,0.0571142,0
2024-12-13 15:17:41.951,-0.775574,2.35813,8.00579,-0.0880384,0.217996,0.0583359,0
2024-12-13 15:17:41.951,-0.775574,2.35813,8.00579,-0.0880384,0.217996,0.0583359,0
2024-12-13 15:17:41.951,-0.775574,2.35813,8.00579,-0.0880384,0.217996,0.0583359,0
2024-12-13 15:17:41.953,-0.780359,2.34616,7.94836,-0.065437,0.211888,0.062001,0
2024-12-13 15:17:41.955,-0.777966,2.34377,7.90289,-0.0440574,0.207612,0.0656661,0
2024-12-13 15:17:41.955,-0.777966,2.34377,7.90289,-0.0440574,0.207612,0.0656661,0
2024-12-13 15:17:41.955,-0.777966,2.34377,7.90289,-0.0440574,0.207612,0.0656661,0
2024-12-13 15:17:41.958,-0.777966,2.33898,7.83111,-0.0245102,0.201503,0.0656661,0
2024-12-13 15:17:41.960,-0.789931,2.3342,7.75454,-0.00557398,0.195395,0.0705529,0
2024-12-13 15:17:41.963,-0.789931,2.3342,7.68993,0.0200816,0.191119,0.0760505,0
2024-12-13 15:17:41.963,-0.811466,2.34856,7.68993,0.0200816,0.191119,0.0760505,0
2024-12-13 15:17:41.965,-0.818644,2.36291,7.61576,0.0402396,0.188675,0.0809373,0
2024-12-13 15:17:41.965,-0.818644,2.36291,7.61576,0.0402396,0.188675,0.0809373,0
2024-12-13 15:17:41.965,-0.818644,2.36291,7.61576,0.0402396,0.188675,0.0809373,0
2024-12-13 15:17:41.967,-0.80668,2.38206,7.5341,0.0622301,0.183789,0.0870457,0
2024-12-13 15:17:41.970,-0.818644,2.41077,7.44796,0.0829989,0.179513,0.0949868,0
2024-12-13 15:17:41.970,-0.818644,2.41077,7.44796,0.0829989,0.179513,0.0949868,0
2024-12-13 15:17:41.970,-0.818644,2.41077,7.44796,0.0829989,0.179513,0.0949868,0
2024-12-13 15:17:41.972,-0.828216,2.4323,7.35943,0.104379,0.176459,0.101706,0
2024-12-13 15:17:41.972,-0.828216,2.4323,7.35943,0.104379,0.176459,0.101706,0
2024-12-13 15:17:41.974,-0.825823,2.43948,7.26611,0.120871,0.175237,0.107204,0
2024-12-13 15:17:41.974,-0.825823,2.43948,7.26611,0.120871,0.175237,0.107204,0
2024-12-13 15:17:41.977,-0.813859,2.46102,7.15125,0.139808,0.171572,0.113923,0
2024-12-13 15:17:41.979,-0.782752,2.49452,7.02682,0.157522,0.166685,0.120642,0
2024-12-13 15:17:41.979,-0.782752,2.49452,7.02682,0.157522,0.166685,0.120642,0
2024-12-13 15:17:41.981,-0.754038,2.52323,6.90449,0.172793,0.158744,0.128583,0
2024-12-13 15:17:41.984,-0.749253,2.54028,6.76092,0.183789,0.147749,0.134157,0
2024-12-13 15:17:41.984,-0.749253,2.54028,6.76092,0.183789,0.147749,0.134157,0
2024-12-13 15:17:41.986,-0.76361,2.5666,6.62453,0.196006,0.139197,0.141487,0
2024-12-13 15:17:41.988,-0.758824,2.61446,6.5025,0.203947,0.125147,0.148207,0
2024-12-13 15:17:41.988,-0.758824,2.61446,6.5025,0.203947,0.125147,0.148207,0
2024-12-13 15:17:41.991,-0.73011,2.65274,6.37298,0.208223,0.114763,0.155537,0
2024-12-13 15:17:41.991,-0.73011,2.65274,6.37298,0.208223,0.114763,0.155537,0
2024-12-13 15:17:41.993,-0.722932,2.6671,6.24616,0.212498,0.107433,0.162256,0
2024-12-13 15:17:41.993,-0.722932,2.6671,6.24616,0.212498,0.107433,0.162256,0
2024-12-13 15:17:41.995,-0.720539,2.69103,6.12174,0.216164,0.100103,0.171419,0
2024-12-13 15:17:41.998,-0.71336,2.71256,6.01406,0.217996,0.0939941,0.17936,0
2024-12-13 15:17:41.998,-0.71336,2.71256,6.01406,0.217996,0.0939941,0.17936,0
2024-12-13 15:17:42.000,-0.708575,2.73649,5.91117,0.216774,0.0897182,0.18669,0
2024-12-13 15:17:42.003,-0.701396,2.77478,5.79362,0.211277,0.0860531,0.196464,0
2024-12-13 15:17:42.005,-0.689432,2.79871,5.68834,0.204557,0.0842206,0.205016,0
2024-12-13 15:17:42.007,-0.667897,2.81785,5.60459,0.197838,0.0836097,0.213567,0
2024-12-13 15:17:42.007,-0.667897,2.81785,5.60459,0.197838,0.0836097,0.213567,0
2024-12-13 15:17:42.010,-0.651147,2.83699,5.53041,0.187454,0.082388,0.223952,0
2024-12-13 15:17:42.010,-0.651147,2.83699,5.53041,0.187454,0.082388,0.223952,0
2024-12-13 15:17:42.010,-0.651147,2.83699,5.53041,0.187454,0.082388,0.223952,0
2024-12-13 15:17:42.014,-0.596112,2.89681,5.40359,0.167296,0.0848314,0.242277,0
2024-12-13 15:17:42.014,-0.596112,2.89681,5.40359,0.167296,0.0848314,0.242277,0
2024-12-13 15:17:42.017,-0.567398,2.92792,5.35095,0.153857,0.0884965,0.252662,0
2024-12-13 15:17:42.017,-0.567398,2.92792,5.35095,0.153857,0.0884965,0.252662,0
2024-12-13 15:17:42.017,-0.567398,2.92792,5.35095,0.153857,0.0884965,0.252662,0
2024-12-13 15:17:42.019,-0.567398,2.9662,5.32194,0.142251,0.0909399,0.260603,0
2024-12-13 15:17:42.024,-0.469292,3.03559,5.25494,0.111709,0.100713,0.275263,0
2024-12-13 15:17:42.024,-0.469292,3.03559,5.25494,0.111709,0.100713,0.275263,0
2024-12-13 15:17:42.026,-0.426222,3.08584,5.24058,0.100713,0.108654,0.281982,0
2024-12-13 15:17:42.026,-0.426222,3.08584,5.24058,0.100713,0.108654,0.281982,0
2024-12-13 15:17:42.028,-0.3999,3.11007,5.24297,0.0891073,0.114763,0.286258,0
2024-12-13 15:17:42.028,-0.3999,3.11007,5.24297,0.0891073,0.114763,0.286258,0
2024-12-13 15:17:42.031,-0.366401,3.14596,5.22862,0.0762796,0.123315,0.290534,0
2024-12-13 15:17:42.032,-0.366401,3.14596,5.22862,0.0646735,0.127591,0.292367,0
2024-12-13 15:17:42.033,-0.328116,3.20578,5.21187,0.0646735,0.127591,0.292367,0
2024-12-13 15:17:42.033,-0.328116,3.20578,5.21187,0.0646735,0.127591,0.292367,0
2024-12-13 15:17:42.036,-0.294616,3.23928,5.20947,0.0536782,0.133699,0.294199,0
2024-12-13 15:17:42.036,-0.294616,3.23928,5.20947,0.0536782,0.133699,0.294199,0
2024-12-13 15:17:42.038,-0.258425,3.27039,5.20469,0.0414613,0.139808,0.294199,0
2024-12-13 15:17:42.038,-0.258425,3.27039,5.20469,0.0414613,0.139808,0.294199,0
2024-12-13 15:17:42.040,-0.248854,3.32782,5.19512,0.0335202,0.145916,0.292367,0
2024-12-13 15:17:42.040,-0.248854,3.32782,5.19512,0.0335202,0.145916,0.292367,0
2024-12-13 15:17:42.043,-0.232104,3.38285,5.18315,0.0231358,0.147749,0.289923,0
2024-12-13 15:17:42.043,-0.232104,3.38285,5.18315,0.0231358,0.147749,0.289923,0
2024-12-13 15:17:42.045,-0.217747,3.42353,5.17358,0.0121406,0.151414,0.28748,0
2024-12-13 15:17:42.047,-0.22014,3.46899,5.17119,0.00236703,0.152025,0.283204,0
2024-12-13 15:17:42.047,-0.22014,3.46899,5.17119,0.00236703,0.152025,0.283204,0
2024-12-13 15:17:42.047,-0.22014,3.46899,5.17119,0.00236703,0.152025,0.283204,0
2024-12-13 15:17:42.050,-0.224925,3.50728,5.17119,-0.00923906,0.154468,0.280761,0
2024-12-13 15:17:42.050,-0.224925,3.50728,5.17119,-0.00923906,0.154468,0.280761,0
2024-12-13 15:17:42.052,-0.215354,3.56231,5.17119,-0.0184018,0.154468,0.274652,0
2024-12-13 15:17:42.052,-0.215354,3.56231,5.17119,-0.0184018,0.154468,0.274652,0
2024-12-13 15:17:42.054,-0.210568,3.6341,5.1688,-0.0300079,0.153857,0.269155,0
2024-12-13 15:17:42.054,-0.210568,3.6341,5.1688,-0.0300079,0.153857,0.269155,0
2024-12-13 15:17:42.057,-0.229711,3.67508,5.18555,-0.0422248,0.156301,0.266711,0
2024-12-13 15:17:42.057,-0.229711,3.67508,5.18555,-0.0422248,0.156301,0.266711,0
2024-12-13 15:17:42.059,-0.229711,3.73011,5.20708,-0.0513875,0.151414,0.259992,0
2024-12-13 15:17:42.059,-0.244068,3.73011,5.20708,-0.0513875,0.151414,0.259992,0
2024-12-13 15:17:42.061,-0.244068,3.78275,5.22144,-0.0611611,0.147749,0.255105,0
2024-12-13 15:17:42.061,-0.253639,3.78275,5.22144,-0.0611611,0.147749,0.255105,0
2024-12-13 15:17:42.064,-0.275175,3.82582,5.23101,-0.0709346,0.147138,0.250829,0
2024-12-13 15:17:42.064,-0.275175,3.82582,5.23101,-0.0709346,0.147138,0.250829,0
2024-12-13 15:17:42.066,-0.30658,3.87368,5.24297,-0.0825407,0.144084,0.248386,0
2024-12-13 15:17:42.066,-0.30658,3.87368,5.24297,-0.0825407,0.144084,0.248386,0
2024-12-13 15:17:42.069,-0.328116,3.91197,5.25015,-0.0947577,0.137975,0.244721,0
2024-12-13 15:17:42.069,-0.328116,3.91197,5.25015,-0.0947577,0.137975,0.244721,0
2024-12-13 15:17:42.071,-0.335294,3.94307,5.27408,-0.11064,0.131256,0.241056,0
2024-12-13 15:17:42.071,-0.335294,3.94307,5.27408,-0.11064,0.131256,0.241056,0
2024-12-13 15:17:42.073,-0.342473,3.97897,5.30519,-0.126522,0.128202,0.239834,0
2024-12-13 15:17:42.073,-0.342473,3.97897,5.30519,-0.126522,0.128202,0.239834,0
2024-12-13 15:17:42.073,-0.342473,3.97897,5.30519,-0.126522,0.128202,0.239834,0
2024-12-13 15:17:42.076,-0.35683,4.01486,5.32672,-0.142404,0.122704,0.239223,0
2024-12-13 15:17:42.076,-0.35683,4.01486,5.32672,-0.142404,0.122704,0.239223,0
2024-12-13 15:17:42.078,-0.383151,4.04357,5.36531,-0.157064,0.115985,0.237391,0
2024-12-13 15:17:42.078,-0.383151,4.04357,5.36531,-0.157064,0.115985,0.237391,0
2024-12-13 15:17:42.080,-0.397508,4.07468,5.42513,-0.176611,0.108654,0.236169,0
2024-12-13 15:17:42.080,-0.397508,4.07468,5.42513,-0.176611,0.108654,0.236169,0
2024-12-13 15:17:42.083,-0.3999,4.09861,5.48973,-0.196158,0.102546,0.238001,0
2024-12-13 15:17:42.083,-0.3999,4.09861,5.48973,-0.196158,0.102546,0.238001,0
2024-12-13 15:17:42.083,-0.3999,4.09861,5.48973,-0.196158,0.102546,0.238001,0
2024-12-13 15:17:42.085,-0.426222,4.11296,5.55913,-0.21204,0.0958267,0.237391,0
2024-12-13 15:17:42.085,-0.426222,4.11296,5.55913,-0.21204,0.0958267,0.237391,0
2024-12-13 15:17:42.087,-0.4334,4.11775,5.6357,-0.234642,0.0915507,0.237391,0
2024-12-13 15:17:42.090,-0.409472,4.12253,5.71705,-0.256021,0.0836097,0.239223,0
2024-12-13 15:17:42.090,-0.409472,4.12253,5.71705,-0.256021,0.0836097,0.239223,0
2024-12-13 15:17:42.090,-0.409472,4.12253,5.71705,-0.256021,0.0836097,0.239223,0
2024-12-13 15:17:42.092,-0.404686,4.13689,5.82234,-0.274958,0.0793338,0.241056,0
2024-12-13 15:17:42.092,-0.404686,4.13689,5.82234,-0.274958,0.0793338,0.241056,0
2024-12-13 15:17:42.094,-0.414257,4.14886,5.93749,-0.295116,0.0750579,0.241056,0
2024-12-13 15:17:42.097,-0.407079,4.17039,6.03799,-0.314052,0.0701711,0.242277,0
2024-12-13 15:17:42.097,-0.407079,4.17039,6.03799,-0.314052,0.0701711,0.242277,0
2024-12-13 15:17:42.099,-0.390329,4.17757,6.1337,-0.333599,0.066506,0.243499,0
2024-12-13 15:17:42.101,-0.385544,4.17039,6.24616,-0.355589,0.0646735,0.245332,0
2024-12-13 15:17:42.101,-0.385544,4.17039,6.24616,-0.355589,0.0646735,0.245332,0
2024-12-13 15:17:42.104,-0.390329,4.17518,6.35384,-0.37758,0.0567324,0.245332,0
2024-12-13 15:17:42.104,-0.390329,4.17518,6.35384,-0.37758,0.0567324,0.245332,0
2024-12-13 15:17:42.106,-0.387936,4.19193,6.469,-0.395905,0.0561216,0.247164,0
2024-12-13 15:17:42.106,-0.387936,4.19193,6.469,-0.395905,0.0561216,0.247164,0
2024-12-13 15:17:42.109,-0.3999,4.20389,6.59582,-0.41362,0.0500131,0.250829,0
2024-12-13 15:17:42.110,-0.3999,4.20389,6.59582,-0.430724,0.0475697,0.254494,0
2024-12-13 15:17:42.111,-0.414257,4.20389,6.71546,-0.430724,0.0475697,0.254494,0
2024-12-13 15:17:42.111,-0.414257,4.20389,6.71546,-0.430724,0.0475697,0.254494,0
2024-12-13 15:17:42.113,-0.411865,4.21376,6.83988,-0.445384,0.0494023,0.255716,0
2024-12-13 15:17:42.116,-0.3999,4.24726,6.97627,-0.458212,0.0542891,0.25877,0
2024-12-13 15:17:42.116,-0.3999,4.24726,6.97627,-0.458212,0.0542891,0.25877,0
2024-12-13 15:17:42.118,-0.385544,4.2688,7.11057,-0.472872,0.0567324,0.262435,0
2024-12-13 15:17:42.118,-0.385544,4.2688,7.11057,-0.472872,0.0567324,0.262435,0
2024-12-13 15:17:42.118,-0.385544,4.2688,7.11057,-0.472872,0.0567324,0.262435,0
2024-12-13 15:17:42.120,-0.364008,4.27358,7.23978,-0.483867,0.0597867,0.264268,0
2024-12-13 15:17:42.120,-0.364008,4.27358,7.23978,-0.483867,0.0597867,0.264268,0
2024-12-13 15:17:42.123,-0.34008,4.28555,7.37617,-0.489365,0.0646735,0.264879,0
2024-12-13 15:17:42.123,-0.34008,4.28555,7.37617,-0.489365,0.0646735,0.264879,0
2024-12-13 15:17:42.125,-0.313759,4.30708,7.50539,-0.497306,0.0713928,0.267322,0
2024-12-13 15:17:42.125,-0.313759,4.30708,7.50539,-0.497306,0.0713928,0.267322,0
2024-12-13 15:17:42.125,-0.313759,4.30708,7.50539,-0.497306,0.0713928,0.267322,0
2024-12-13 15:17:42.125,-0.313759,4.30708,7.50539,-0.497306,0.0713928,0.267322,0
2024-12-13 15:17:42.127,-0.287438,4.32383,7.62293,-0.502193,0.0768904,0.267933,0
2024-12-13 15:17:42.130,-0.265603,4.32144,7.73779,-0.500971,0.082388,0.267322,0
2024-12-13 15:17:42.130,-0.265603,4.32144,7.73779,-0.500971,0.082388,0.267322,0
2024-12-13 15:17:42.132,-0.248854,4.32862,7.8694,-0.502804,0.0860531,0.264879,0
2024-12-13 15:17:42.132,-0.248854,4.32862,7.8694,-0.502804,0.0860531,0.264879,0
2024-12-13 15:17:42.132,-0.248854,4.32862,7.8694,-0.502804,0.0860531,0.264879,0
2024-12-13 15:17:42.134,-0.244068,4.35015,7.99621,-0.502804,0.0884965,0.264879,0
2024-12-13 15:17:42.137,-0.224925,4.37887,8.11346,-0.500971,0.090329,0.261214,0
2024-12-13 15:17:42.139,-0.224925,4.37887,8.11346,-0.494863,0.0927724,0.258159,0
2024-12-13 15:17:42.139,-0.200997,4.39562,8.24537,-0.494863,0.0927724,0.258159,0
2024-12-13 15:17:42.142,-0.191426,4.40279,8.36022,-0.489365,0.094605,0.254494,0
2024-12-13 15:17:42.142,-0.191426,4.40279,8.36022,-0.489365,0.094605,0.254494,0
2024-12-13 15:17:42.142,-0.191426,4.40279,8.36022,-0.489365,0.094605,0.254494,0
2024-12-13 15:17:42.144,-0.184247,4.41715,8.47508,-0.479591,0.0952158,0.249607,0
2024-12-13 15:17:42.144,-0.184247,4.41715,8.47508,-0.479591,0.0952158,0.249607,0
2024-12-13 15:17:42.146,-0.16989,4.42911,8.59711,-0.470429,0.0958267,0.244721,0
2024-12-13 15:17:42.146,-0.16989,4.42911,8.59711,-0.470429,0.0958267,0.244721,0
2024-12-13 15:17:42.149,-0.16989,4.43629,8.69283,-0.459433,0.0994917,0.237391,0
2024-12-13 15:17:42.151,-0.16989,4.43869,8.7697,-0.450882,0.100103,0.231282,0
2024-12-13 15:17:42.151,-0.16989,4.43869,8.7697,-0.450882,0.100103,0.231282,0
2024-12-13 15:17:42.153,-0.160319,4.44586,8.84866,-0.435,0.0988809,0.222119,0
2024-12-13 15:17:42.153,-0.160319,4.44586,8.84866,-0.435,0.0988809,0.222119,0
2024-12-13 15:17:42.153,-0.160319,4.44586,8.84866,-0.435,0.0988809,0.222119,0
2024-12-13 15:17:42.156,-0.153141,4.45783,8.91326,-0.421561,0.0982701,0.2154,0
2024-12-13 15:17:42.158,-0.143569,4.46022,8.97069,-0.404457,0.0970484,0.206237,0
2024-12-13 15:17:42.158,-0.143569,4.46022,8.97069,-0.404457,0.0970484,0.206237,0
2024-12-13 15:17:42.158,-0.143569,4.46022,8.97069,-0.404457,0.0970484,0.206237,0
2024-12-13 15:17:42.160,-0.133998,4.47219,9.01376,-0.387354,0.0958267,0.198907,0
2024-12-13 15:17:42.160,-0.133998,4.47219,9.01376,-0.387354,0.0958267,0.198907,0
2024-12-13 15:17:42.163,-0.129212,4.46501,9.04726,-0.373915,0.094605,0.189744,0
2024-12-13 15:17:42.163,-0.129212,4.46501,9.04726,-0.373915,0.094605,0.189744,0
2024-12-13 15:17:42.165,-0.131605,4.44347,9.07598,-0.3562,0.0933833,0.17936,0
2024-12-13 15:17:42.167,-0.131605,4.44347,9.09512,-0.343373,0.0891073,0.168976,0
2024-12-13 15:17:42.167,-0.12682,4.43869,9.09512,-0.343373,0.0891073,0.168976,0
2024-12-13 15:17:42.167,-0.12682,4.43869,9.09512,-0.343373,0.0891073,0.168976,0
2024-12-13 15:17:42.170,-0.122034,4.44826,9.11905,-0.328712,0.0891073,0.158591,0
2024-12-13 15:17:42.170,-0.122034,4.44826,9.11905,-0.328712,0.0891073,0.158591,0
2024-12-13 15:17:42.172,-0.119641,4.4674,9.15494,-0.315884,0.0872748,0.148207,0
2024-12-13 15:17:42.174,-0.119641,4.4674,9.15494,-0.303667,0.0817772,0.137212,0
2024-12-13 15:17:42.174,-0.129212,4.47936,9.2004,-0.303667,0.0817772,0.137212,0
2024-12-13 15:17:42.174,-0.129212,4.47936,9.2004,-0.303667,0.0817772,0.137212,0
2024-12-13 15:17:42.177,-0.148355,4.47697,9.23151,-0.293894,0.0775012,0.126751,0
2024-12-13 15:17:42.177,-0.148355,4.47697,9.23151,-0.293894,0.0775012,0.126751,0
2024-12-13 15:17:42.179,-0.136391,4.48176,9.24587,-0.280455,0.0701711,0.116366,0
2024-12-13 15:17:42.182,-0.136391,4.48176,9.24587,-0.270071,0.0628409,0.105982,0
2024-12-13 15:17:42.182,-0.143569,4.50568,9.26531,-0.270071,0.0628409,0.105982,0
2024-12-13 15:17:42.182,-0.143569,4.50568,9.26531,-0.270071,0.0628409,0.105982,0
2024-12-13 15:17:42.182,-0.143569,4.50568,9.26531,-0.270071,0.0628409,0.105982,0
2024-12-13 15:17:42.186,-0.196211,4.55593,9.32274,-0.252967,0.0500131,0.0827698,0
2024-12-13 15:17:42.186,-0.196211,4.55593,9.32274,-0.252967,0.0500131,0.0827698,0
2024-12-13 15:17:42.189,-0.210568,4.57508,9.3347,-0.245026,0.0475697,0.0723854,0
2024-12-13 15:17:42.189,-0.210568,4.57508,9.3347,-0.245026,0.0475697,0.0723854,0
2024-12-13 15:17:42.191,-0.227318,4.59183,9.34906,-0.237085,0.0439046,0.0601685,0
2024-12-13 15:17:42.191,-0.227318,4.59183,9.34906,-0.237085,0.0439046,0.0601685,0
2024-12-13 15:17:42.193,-0.236889,4.62293,9.3682,-0.227312,0.0402396,0.0510057,0
2024-12-13 15:17:42.194,-0.236889,4.62293,9.3682,-0.227312,0.0402396,0.0510057,0
2024-12-13 15:17:42.198,-0.246461,4.68275,9.4017,-0.227312,0.0402396,0.0510057,0
2024-12-13 15:17:42.203,-0.227318,4.73061,9.42323,-0.186996,0.0481806,0.00397051,0
2024-12-13 15:17:42.203,-0.227318,4.73061,9.42323,-0.186996,0.0481806,0.00397051,0
2024-12-13 15:17:42.203,-0.227318,4.73061,9.42323,-0.186996,0.0481806,0.00397051,0
2024-12-13 15:17:42.206,-0.208176,4.78594,9.42084,-0.164394,0.0573433,-0.0235176,0
2024-12-13 15:17:42.207,-0.20339,4.8338,9.41606,-0.164394,0.0573433,-0.0235176,0
2024-12-13 15:17:42.207,-0.20339,4.8338,9.41606,-0.164394,0.0573433,-0.0235176,0
2024-12-13 15:17:42.207,-0.20339,4.8338,9.41606,-0.164394,0.0573433,-0.0235176,0
2024-12-13 15:17:42.210,-0.18664,4.87448,9.39452,-0.152177,0.0610084,-0.0375671,0
2024-12-13 15:17:42.212,-0.184247,4.91037,9.3682,-0.138128,0.0646735,-0.0510057,0
2024-12-13 15:17:42.212,-0.184247,4.91037,9.3682,-0.138128,0.0646735,-0.0510057,0
2024-12-13 15:17:42.212,-0.184247,4.91037,9.3682,-0.138128,0.0646735,-0.0510057,0
2024-12-13 15:17:42.215,-0.196211,4.96062,9.33709,-0.124078,0.0683385,-0.0681095,0
2024-12-13 15:17:42.217,-0.212961,5.01566,9.30838,-0.111251,0.0689494,-0.0827698,0
2024-12-13 15:17:42.217,-0.212961,5.01566,9.30838,-0.111251,0.0689494,-0.0827698,0
2024-12-13 15:17:42.217,-0.212961,5.01566,9.30838,-0.111251,0.0689494,-0.0827698,0
2024-12-13 15:17:42.219,-0.224925,5.08505,9.28445,-0.0990336,0.0671168,-0.0955976,0
2024-12-13 15:17:42.222,-0.256032,5.15683,9.23151,-0.0886492,0.0671168,-0.11209,0
2024-12-13 15:17:42.222,-0.256032,5.15683,9.23151,-0.0886492,0.0671168,-0.11209,0
2024-12-13 15:17:42.222,-0.256032,5.15683,9.23151,-0.0886492,0.0671168,-0.11209,0
2024-12-13 15:17:42.224,-0.294616,5.21665,9.16212,-0.0782648,0.0634518,-0.124307,0
2024-12-13 15:17:42.224,-0.294616,5.21665,9.16212,-0.0782648,0.0634518,-0.124307,0
2024-12-13 15:17:42.226,-0.316152,5.28604,9.07358,-0.0672696,0.0555107,-0.138357,0
2024-12-13 15:17:42.229,-0.366401,5.34377,8.97787,-0.0648262,0.050624,-0.150574,0
2024-12-13 15:17:42.229,-0.366401,5.34377,8.97787,-0.0648262,0.050624,-0.150574,0
2024-12-13 15:17:42.229,-0.366401,5.34377,8.97787,-0.0648262,0.050624,-0.150574,0
2024-12-13 15:17:42.231,-0.421436,5.37966,8.89412,-0.0599394,0.0451263,-0.161569,0
2024-12-13 15:17:42.231,-0.421436,5.37966,8.89412,-0.0599394,0.0451263,-0.161569,0
2024-12-13 15:17:42.233,-0.447757,5.43709,8.80798,-0.0556635,0.0377962,-0.172564,0
2024-12-13 15:17:42.233,-0.447757,5.43709,8.80798,-0.0556635,0.0377962,-0.172564,0
2024-12-13 15:17:42.236,-0.495613,5.48016,8.71945,-0.0581068,0.0310769,-0.181116,0
2024-12-13 15:17:42.236,-0.495613,5.48016,8.71945,-0.0581068,0.0310769,-0.181116,0
2024-12-13 15:17:42.238,-0.565005,5.52084,8.64018,-0.0629936,0.0237467,-0.189668,0
2024-12-13 15:17:42.238,-0.565005,5.52084,8.64018,-0.0629936,0.0237467,-0.189668,0
2024-12-13 15:17:42.240,-0.622433,5.55673,8.58515,-0.0703238,0.0139731,-0.19822,0
2024-12-13 15:17:42.240,-0.622433,5.55673,8.58515,-0.0703238,0.0139731,-0.19822,0
2024-12-13 15:17:42.243,-0.660718,5.57348,8.54447,-0.077654,0.00481042,-0.204939,0
2024-12-13 15:17:42.243,-0.660718,5.57348,8.54447,-0.077654,0.00481042,-0.204939,0
2024-12-13 15:17:42.245,-0.696611,5.61177,8.53011,-0.0904818,-0.00251974,-0.211659,0
2024-12-13 15:17:42.248,-0.73011,5.66441,8.53011,-0.105753,-0.00679568,-0.215324,0
2024-12-13 15:17:42.250,-0.751645,5.67398,8.54208,-0.119802,-0.0129041,-0.221432,0
2024-12-13 15:17:42.250,-0.73011,5.66441,8.53011,-0.119802,-0.0129041,-0.221432,0
2024-12-13 15:17:42.250,-0.751645,5.67398,8.54208,-0.119802,-0.0129041,-0.221432,0
2024-12-13 15:17:42.252,-0.773181,5.67877,8.6019,-0.134463,-0.0171801,-0.223265,0
2024-12-13 15:17:42.252,-0.773181,5.67877,8.6019,-0.134463,-0.0171801,-0.223265,0
2024-12-13 15:17:42.255,-0.789931,5.70987,8.68086,-0.152177,-0.0232886,-0.225097,0
2024-12-13 15:17:42.257,-0.80668,5.72184,8.76012,-0.168059,-0.0251211,-0.228151,0
2024-12-13 15:17:42.257,-0.80668,5.72184,8.76012,-0.168059,-0.0251211,-0.228151,0
2024-12-13 15:17:42.259,-0.799502,5.72423,8.81755,-0.184552,-0.0251211,-0.228762,0
2024-12-13 15:17:42.259,-0.799502,5.72423,8.81755,-0.184552,-0.0251211,-0.228762,0
2024-12-13 15:17:42.262,-0.768395,5.72662,8.87259,-0.200434,-0.029397,-0.233649,0
2024-12-13 15:17:42.262,-0.768395,5.72662,8.87259,-0.200434,-0.029397,-0.233649,0
2024-12-13 15:17:42.264,-0.734896,5.72423,8.94198,-0.219371,-0.0312296,-0.237925,0
2024-12-13 15:17:42.266,-0.725324,5.73619,9.02333,-0.241361,-0.0330621,-0.242201,0
2024-12-13 15:17:42.266,-0.725324,5.73619,9.02333,-0.241361,-0.0330621,-0.242201,0
2024-12-13 15:17:42.269,-0.727717,5.73619,9.12144,-0.259686,-0.0342838,-0.246477,0
2024-12-13 15:17:42.271,-0.727717,5.73619,9.24347,-0.280455,-0.0348946,-0.250753,0
2024-12-13 15:17:42.271,-0.718146,5.74337,9.24347,-0.280455,-0.0348946,-0.250753,0
2024-12-13 15:17:42.273,-0.699003,5.76491,9.38974,-0.29817,-0.0355055,-0.253807,0
2024-12-13 15:17:42.273,-0.699003,5.76491,9.38974,-0.29817,-0.0355055,-0.253807,0
2024-12-13 15:17:42.274,-0.699003,5.76491,9.38974,-0.29817,-0.0355055,-0.253807,0
2024-12-13 15:17:42.276,-0.699003,5.77209,9.56202,-0.317717,-0.0348946,-0.256861,0
2024-12-13 15:17:42.278,-0.708575,5.76252,9.73909,-0.332988,-0.0355055,-0.26297,0
2024-12-13 15:17:42.280,-0.694218,5.77209,9.89013,-0.347038,-0.037338,-0.267246,0
2024-12-13 15:17:42.280,-0.694218,5.77209,9.89013,-0.347038,-0.037338,-0.267246,0
2024-12-13 15:17:42.283,-0.677468,5.79841,10.0528,-0.358033,-0.0385597,-0.269689,0
2024-12-13 15:17:42.283,-0.677468,5.79841,10.0528,-0.358033,-0.0385597,-0.269689,0
2024-12-13 15:17:42.285,-0.682254,5.81037,10.2299,-0.364141,-0.0422248,-0.271522,0
2024-12-13 15:17:42.285,-0.682254,5.81037,10.2299,-0.364141,-0.0422248,-0.271522,0
2024-12-13 15:17:42.288,-0.701396,5.80798,10.4001,-0.370861,-0.041614,-0.273354,0
2024-12-13 15:17:42.288,-0.701396,5.80798,10.4001,-0.370861,-0.041614,-0.273354,0
2024-12-13 15:17:42.290,-0.710967,5.79123,10.5676,-0.373304,-0.0422248,-0.278241,0
2024-12-13 15:17:42.290,-0.710967,5.79123,10.5676,-0.373304,-0.0422248,-0.278241,0
2024-12-13 15:17:42.292,-0.715753,5.81037,10.7375,-0.375747,-0.0440574,-0.279463,0
2024-12-13 15:17:42.292,-0.715753,5.81037,10.7375,-0.375747,-0.0440574,-0.279463,0
2024-12-13 15:17:42.295,-0.71336,5.8343,10.9002,-0.372693,-0.0465007,-0.283739,0
2024-12-13 15:17:42.295,-0.71336,5.8343,10.9002,-0.372693,-0.0465007,-0.283739,0
2024-12-13 15:17:42.297,-0.71336,5.8343,10.9002,-0.365363,-0.0440574,-0.289847,0
2024-12-13 15:17:42.297,-0.694218,5.84626,11.0536,-0.365363,-0.0440574,-0.289847,0
2024-12-13 15:17:42.297,-0.694218,5.84626,11.0536,-0.365363,-0.0440574,-0.289847,0
2024-12-13 15:17:42.299,-0.670289,5.86541,11.214,-0.358644,-0.0446682,-0.292901,0
2024-12-13 15:17:42.299,-0.670289,5.86541,11.214,-0.358644,-0.0446682,-0.292901,0
2024-12-13 15:17:42.302,-0.646361,5.86062,11.3743,-0.350092,-0.0489441,-0.298399,0
2024-12-13 15:17:42.302,-0.646361,5.86062,11.3743,-0.350092,-0.0489441,-0.298399,0
2024-12-13 15:17:42.304,-0.622433,5.8678,11.5086,-0.332988,-0.0519984,-0.303897,0
2024-12-13 15:17:42.304,-0.622433,5.8678,11.5086,-0.332988,-0.0519984,-0.303897,0
2024-12-13 15:17:42.304,-0.622433,5.8678,11.5086,-0.332988,-0.0519984,-0.303897,0
2024-12-13 15:17:42.306,-0.615255,5.88216,11.6282,-0.318939,-0.0532201,-0.308783,0
2024-12-13 15:17:42.306,-0.615255,5.88216,11.6282,-0.318939,-0.0532201,-0.308783,0
2024-12-13 15:17:42.309,-0.598505,5.89681,11.7455,-0.301224,-0.0556635,-0.315503,0
2024-12-13 15:17:42.311,-0.598505,5.90638,11.8603,-0.281677,-0.0581068,-0.321,0
2024-12-13 15:17:42.311,-0.576969,5.90638,11.8603,-0.281677,-0.0581068,-0.321,0
2024-12-13 15:17:42.313,-0.572184,5.92313,11.9632,-0.261519,-0.0599394,-0.328941,0
2024-12-13 15:17:42.314,-0.572184,5.92313,11.9632,-0.261519,-0.0599394,-0.328941,0
2024-12-13 15:17:42.316,-0.569791,5.94706,12.047,-0.237696,-0.0623828,-0.336271,0
2024-12-13 15:17:42.316,-0.569791,5.94706,12.047,-0.237696,-0.0623828,-0.336271,0
2024-12-13 15:17:42.318,-0.565005,5.96142,12.1334,-0.21143,-0.065437,-0.34238,0
2024-12-13 15:17:42.318,-0.565005,5.96142,12.1334,-0.21143,-0.065437,-0.34238,0
2024-12-13 15:17:42.318,-0.565005,5.96142,12.1334,-0.21143,-0.065437,-0.34238,0
2024-12-13 15:17:42.321,-0.572184,5.9662,12.21,-0.19005,-0.0642153,-0.346656,0
2024-12-13 15:17:42.321,-0.572184,5.9662,12.21,-0.19005,-0.0642153,-0.346656,0
2024-12-13 15:17:42.323,-0.596112,5.97817,12.253,-0.162562,-0.0648262,-0.350321,0
2024-12-13 15:17:42.323,-0.596112,5.97817,12.253,-0.162562,-0.0648262,-0.350321,0
2024-12-13 15:17:42.323,-0.596112,5.97817,12.253,-0.162562,-0.0648262,-0.350321,0
2024-12-13 15:17:42.325,-0.622433,5.98535,12.2937,-0.135684,-0.0617719,-0.354597,0
2024-12-13 15:17:42.328,-0.643968,6.00449,12.32,-0.11064,-0.0599394,-0.357651,0
2024-12-13 15:17:42.328,-0.643968,6.00449,12.32,-0.11064,-0.0599394,-0.357651,0
2024-12-13 15:17:42.328,-0.643968,6.00449,12.32,-0.11064,-0.0599394,-0.357651,0
2024-12-13 15:17:42.330,-0.665504,6.02363,12.3224,-0.085595,-0.0556635,-0.358262,0
2024-12-13 15:17:42.330,-0.665504,6.02363,12.3224,-0.085595,-0.0556635,-0.358262,0
2024-12-13 15:17:42.332,-0.696611,6.02602,12.32,-0.0587177,-0.0519984,-0.355819,0
2024-12-13 15:17:42.332,-0.696611,6.02602,12.32,-0.0587177,-0.0519984,-0.355819,0
2024-12-13 15:17:42.335,-0.696611,6.02602,12.32,-0.033673,-0.0458899,-0.356429,0
2024-12-13 15:17:42.335,-0.727717,6.0356,12.3177,-0.033673,-0.0458899,-0.356429,0
2024-12-13 15:17:42.335,-0.727717,6.0356,12.3177,-0.033673,-0.0458899,-0.356429,0
2024-12-13 15:17:42.337,-0.76361,6.04038,12.3129,-0.0110716,-0.0428357,-0.354597,0
2024-12-13 15:17:42.337,-0.76361,6.04038,12.3129,-0.0110716,-0.0428357,-0.354597,0
2024-12-13 15:17:42.339,-0.801895,6.05235,12.3033,0.0115297,-0.0403923,-0.347878,0
2024-12-13 15:17:42.339,-0.801895,6.05235,12.3033,0.0115297,-0.0403923,-0.347878,0
2024-12-13 15:17:42.342,-0.845265,6.07388,12.2865,0.0286335,-0.0379489,-0.341769,0
2024-12-13 15:17:42.342,-0.845265,6.07388,12.2865,0.0286335,-0.0379489,-0.341769,0
2024-12-13 15:17:42.344,-0.9003,6.10499,12.2554,0.0481806,-0.037338,-0.336271,0
2024-12-13 15:17:42.344,-0.9003,6.10499,12.2554,0.0481806,-0.037338,-0.336271,0
2024-12-13 15:17:42.346,-0.950549,6.13131,12.2363,0.0658951,-0.0361163,-0.328941,0
2024-12-13 15:17:42.346,-0.950549,6.13131,12.2363,0.0658951,-0.0361163,-0.328941,0
2024-12-13 15:17:42.349,-1.00319,6.14806,12.2578,0.0793338,-0.0397814,-0.319779,0
2024-12-13 15:17:42.351,-1.07258,6.18156,12.2698,0.0952158,-0.0446682,-0.310616,0
2024-12-13 15:17:42.351,-1.07258,6.18156,12.2698,0.0952158,-0.0446682,-0.310616,0
2024-12-13 15:17:42.353,-1.13958,6.21027,12.2698,0.108044,-0.0501658,-0.300842,0
2024-12-13 15:17:42.353,-1.13958,6.21027,12.2698,0.108044,-0.0501658,-0.300842,0
2024-12-13 15:17:42.353,-1.13958,6.21027,12.2698,0.108044,-0.0501658,-0.300842,0
2024-12-13 15:17:42.356,-1.18744,6.2342,12.2794,0.122704,-0.057496,-0.289847,0
2024-12-13 15:17:42.356,-1.18744,6.2342,12.2794,0.122704,-0.057496,-0.289847,0
2024-12-13 15:17:42.356,-1.18744,6.2342,12.2794,0.122704,-0.057496,-0.289847,0
2024-12-13 15:17:42.358,-1.2329,6.26531,12.2961,0.138586,-0.0611611,-0.278241,0
2024-12-13 15:17:42.358,-1.2329,6.26531,12.2961,0.138586,-0.0611611,-0.278241,0
2024-12-13 15:17:42.361,-1.28554,6.29402,12.3057,0.150803,-0.0678804,-0.265413,0
2024-12-13 15:17:42.361,-1.28554,6.29402,12.3057,0.150803,-0.0678804,-0.265413,0
2024-12-13 15:17:42.363,-1.32861,6.33231,12.3033,0.167907,-0.0727672,-0.253196,0
2024-12-13 15:17:42.363,-1.32861,6.33231,12.3033,0.167907,-0.0727672,-0.253196,0
2024-12-13 15:17:42.363,-1.32861,6.33231,12.3033,0.167907,-0.0727672,-0.253196,0
2024-12-13 15:17:42.365,-1.36929,6.36341,12.32,0.1844,-0.0794865,-0.24159,0
2024-12-13 15:17:42.365,-1.36929,6.36341,12.32,0.1844,-0.0794865,-0.24159,0
2024-12-13 15:17:42.368,-1.42463,6.40409,12.332,0.202725,-0.0849841,-0.228762,0
2024-12-13 15:17:42.368,-1.42463,6.40409,12.332,0.202725,-0.0849841,-0.228762,0
2024-12-13 15:17:42.370,-1.47488,6.44238,12.3272,0.218607,-0.0929251,-0.214713,0
2024-12-13 15:17:42.370,-1.47488,6.44238,12.3272,0.218607,-0.0929251,-0.214713,0
2024-12-13 15:17:42.370,-1.47488,6.44238,12.3272,0.218607,-0.0929251,-0.214713,0
2024-12-13 15:17:42.372,-1.52752,6.47617,12.3224,0.239376,-0.100255,-0.204328,0
2024-12-13 15:17:42.372,-1.52752,6.47617,12.3224,0.239376,-0.100255,-0.204328,0
2024-12-13 15:17:42.375,-1.5658,6.50489,12.3177,0.258923,-0.108196,-0.191501,0
2024-12-13 15:17:42.375,-1.5658,6.50489,12.3177,0.258923,-0.108196,-0.191501,0
2024-12-13 15:17:42.375,-1.5658,6.50489,12.3177,0.258923,-0.108196,-0.191501,0
2024-12-13 15:17:42.375,-1.5658,6.50489,12.3177,0.258923,-0.108196,-0.191501,0
2024-12-13 15:17:42.377,-1.6017,6.5336,12.3009,0.258923,-0.108196,-0.191501,0
2024-12-13 15:17:42.379,-1.63998,6.5671,12.2674,0.302904,-0.124689,-0.167067,0
2024-12-13 15:17:42.379,-1.63998,6.5671,12.2674,0.302904,-0.124689,-0.167067,0
2024-12-13 15:17:42.379,-1.63998,6.5671,12.2674,0.302904,-0.124689,-0.167067,0
2024-12-13 15:17:42.382,-1.66391,6.58864,12.2219,0.323062,-0.130798,-0.154239,0
2024-12-13 15:17:42.384,-1.66869,6.62453,12.1525,0.342609,-0.13996,-0.141411,0
2024-12-13 15:17:42.384,-1.66869,6.62453,12.1525,0.342609,-0.13996,-0.141411,0
2024-12-13 15:17:42.384,-1.66869,6.62453,12.1525,0.342609,-0.13996,-0.141411,0
2024-12-13 15:17:42.386,-1.66869,6.65324,12.0808,0.362767,-0.14668,-0.131027,0
2024-12-13 15:17:42.386,-1.66869,6.65324,12.0808,0.362767,-0.14668,-0.131027,0
2024-12-13 15:17:42.389,-1.6663,6.69631,11.9967,0.379336,-0.15401,-0.11881,0
2024-12-13 15:17:42.389,-1.6663,6.69631,11.9967,0.379336,-0.15401,-0.11881,0
2024-12-13 15:17:42.391,-1.6663,6.74896,11.8962,0.397051,-0.160729,-0.107815,0
2024-12-13 15:17:42.391,-1.65434,6.74896,11.8962,0.397051,-0.160729,-0.107815,0
2024-12-13 15:17:42.391,-1.65434,6.74896,11.8962,0.397051,-0.160729,-0.107815,0
2024-12-13 15:17:42.394,-1.65434,6.79442,11.7957,0.410489,-0.169281,-0.0968193,0
2024-12-13 15:17:42.394,-1.65434,6.79442,11.7957,0.410489,-0.169281,-0.0968193,0
2024-12-13 15:17:42.394,-1.65434,6.79442,11.7957,0.410489,-0.169281,-0.0968193,0
2024-12-13 15:17:42.396,-1.65912,6.84228,11.6856,0.416598,-0.177222,-0.085824,0
2024-12-13 15:17:42.396,-1.65912,6.84228,11.6856,0.416598,-0.177222,-0.085824,0
2024-12-13 15:17:42.398,-1.65912,6.88295,11.566,0.420874,-0.182109,-0.0736071,0
2024-12-13 15:17:42.398,-1.65912,6.88295,11.566,0.420874,-0.182109,-0.0736071,0
2024-12-13 15:17:42.401,-1.65912,6.91406,11.458,0.420263,-0.185774,-0.0595576,0
2024-12-13 15:17:42.401,-1.65912,6.91406,11.458,0.420263,-0.185774,-0.0595576,0
2024-12-13 15:17:42.401,-1.65912,6.91406,11.458,0.420263,-0.185774,-0.0595576,0
2024-12-13 15:17:42.403,-1.66391,6.94995,11.3719,0.415376,-0.191882,-0.0467298,0
2024-12-13 15:17:42.403,-1.66391,6.94995,11.3719,0.415376,-0.191882,-0.0467298,0
2024-12-13 15:17:42.405,-1.67109,6.99302,11.2857,0.408046,-0.199823,-0.033902,0
2024-12-13 15:17:42.405,-1.67109,6.99302,11.2857,0.408046,-0.199823,-0.033902,0
2024-12-13 15:17:42.408,-1.68066,7.01217,11.202,0.395218,-0.205321,-0.01802,0
2024-12-13 15:17:42.408,-1.68066,7.01217,11.202,0.395218,-0.205321,-0.01802,0
2024-12-13 15:17:42.410,-1.68544,7.034,11.1254,0.376282,-0.215095,-0.00274881,0
2024-12-13 15:17:42.410,-1.68544,7.034,11.1254,0.376282,-0.215095,-0.00274881,0
2024-12-13 15:17:42.412,-1.67348,7.06989,11.0632,0.355437,-0.220592,0.0149658,0
2024-12-13 15:17:42.412,-1.67348,7.06989,11.0632,0.355437,-0.220592,0.0149658,0
2024-12-13 15:17:42.412,-1.67348,7.06989,11.0632,0.355437,-0.220592,0.0149658,0
2024-12-13 15:17:42.415,-1.64716,7.101,11.0082,0.329781,-0.221203,0.0308478,0
2024-12-13 15:17:42.415,-1.64716,7.101,11.0082,0.329781,-0.221203,0.0308478,0
2024-12-13 15:17:42.417,-1.5993,7.12254,10.9747,0.301071,-0.221814,0.0467298,0
2024-12-13 15:17:42.417,-1.5993,7.12254,10.9747,0.301071,-0.221814,0.0467298,0
2024-12-13 15:17:42.419,-1.54188,7.1345,10.9337,0.272362,-0.21876,0.0638335,0
2024-12-13 15:17:42.419,-1.54188,7.1345,10.9337,0.272362,-0.21876,0.0638335,0
2024-12-13 15:17:42.422,-1.47727,7.12254,10.9074,0.239376,-0.213262,0.077883,0
2024-12-13 15:17:42.422,-1.47727,7.12254,10.9074,0.239376,-0.213262,0.077883,0
2024-12-13 15:17:42.424,-1.39561,7.11536,10.9193,0.201503,-0.205321,0.0931542,0
2024-12-13 15:17:42.424,-1.39561,7.11536,10.9193,0.201503,-0.205321,0.0931542,0
2024-12-13 15:17:42.427,-1.32144,7.09621,10.9385,0.158744,-0.196158,0.105982,0
2024-12-13 15:17:42.427,-1.32144,7.09621,10.9385,0.158744,-0.196158,0.105982,0
2024-12-13 15:17:42.427,-1.32144,7.09621,10.9385,0.158744,-0.196158,0.105982,0
2024-12-13 15:17:42.427,-1.32144,7.09621,10.9385,0.158744,-0.196158,0.105982,0
2024-12-13 15:17:42.429,-1.23529,7.03639,10.9723,0.117817,-0.189439,0.116977,0
2024-12-13 15:17:42.429,-1.23529,7.03639,10.9723,0.117817,-0.189439,0.116977,0
2024-12-13 15:17:42.431,-1.1659,6.95713,11.0201,0.0713928,-0.182109,0.12614,0
2024-12-13 15:17:42.431,-1.1659,6.95713,11.0201,0.0713928,-0.182109,0.12614,0
2024-12-13 15:17:42.434,-1.29751,6.85663,11.1135,0.0213033,-0.172946,0.132859,0
2024-12-13 15:17:42.436,-1.29751,6.85663,11.2092,-0.0300079,-0.148512,0.141487,0
2024-12-13 15:17:42.436,-1.35494,6.75613,11.2092,-0.0300079,-0.148512,0.141487,0
2024-12-13 15:17:42.436,-1.35494,6.75613,11.2092,-0.0300079,-0.148512,0.141487,0
2024-12-13 15:17:42.438,-1.14676,6.65564,11.336,-0.0843733,-0.136295,0.147596,0
2024-12-13 15:17:42.438,-1.14676,6.65564,11.336,-0.0843733,-0.136295,0.147596,0
2024-12-13 15:17:42.441,-0.950549,6.52882,11.5588,-0.135074,-0.136906,0.152483,0
2024-12-13 15:17:42.441,-0.950549,6.52882,11.5588,-0.135074,-0.136906,0.152483,0
2024-12-13 15:17:42.443,-0.799502,6.37059,11.8149,-0.187606,-0.147291,0.156759,0
2024-12-13 15:17:42.443,-0.799502,6.37059,11.8149,-0.187606,-0.147291,0.156759,0
2024-12-13 15:17:42.443,-0.799502,6.37059,11.8149,-0.187606,-0.147291,0.156759,0
2024-12-13 15:17:42.445,-0.799502,6.37059,12.0879,-0.241972,-0.157675,0.158591,0
2024-12-13 15:17:42.445,-0.701396,6.19831,12.0879,-0.241972,-0.157675,0.158591,0
2024-12-13 15:17:42.445,-0.701396,6.19831,12.0879,-0.241972,-0.157675,0.158591,0
2024-12-13 15:17:42.448,-0.651147,6.01406,12.3679,-0.295116,-0.168059,0.161035,0
2024-12-13 15:17:42.448,-0.651147,6.01406,12.3679,-0.295116,-0.168059,0.161035,0
2024-12-13 15:17:42.450,-0.639183,5.8008,12.6386,-0.350703,-0.17539,0.162256,0
2024-12-13 15:17:42.450,-0.639183,5.8008,12.6386,-0.350703,-0.17539,0.162256,0
2024-12-13 15:17:42.452,-0.660718,5.57587,12.9138,-0.402625,-0.177222,0.161645,0
2024-12-13 15:17:42.452,-0.660718,5.57587,12.9138,-0.402625,-0.177222,0.161645,0
2024-12-13 15:17:42.452,-0.660718,5.57587,12.9138,-0.402625,-0.177222,0.161645,0
2024-12-13 15:17:42.455,-0.663111,5.36052,13.1988,-0.452103,-0.174779,0.158591,0
2024-12-13 15:17:42.455,-0.663111,5.36052,13.1988,-0.452103,-0.174779,0.158591,0
2024-12-13 15:17:42.455,-0.663111,5.36052,13.1988,-0.452103,-0.174779,0.158591,0
2024-12-13 15:17:42.457,-0.646361,5.13769,13.4836,-0.50036,-0.165616,0.155537,0
2024-12-13 15:17:42.457,-0.646361,5.13769,13.4836,-0.50036,-0.165616,0.155537,0
2024-12-13 15:17:42.459,-0.629611,4.91037,13.7782,-0.546174,-0.156453,0.152483,0
2024-12-13 15:17:42.459,-0.629611,4.91037,13.7782,-0.546174,-0.156453,0.152483,0
2024-12-13 15:17:42.462,-0.596112,4.70668,14.1084,-0.585879,-0.150345,0.150039,0
2024-12-13 15:17:42.463,-0.596112,4.70668,14.1084,-0.61581,-0.138128,0.146374,0
2024-12-13 15:17:42.464,-0.565005,4.50808,14.4748,-0.61581,-0.138128,0.146374,0
2024-12-13 15:17:42.464,-0.565005,4.50808,14.4748,-0.61581,-0.138128,0.146374,0
2024-12-13 15:17:42.467,-0.519542,4.29512,14.8481,-0.635357,-0.124689,0.139655,0
2024-12-13 15:17:42.467,-0.519542,4.29512,14.8481,-0.635357,-0.124689,0.139655,0
2024-12-13 15:17:42.469,-0.464507,4.07229,15.1834,-0.65185,-0.11064,0.131027,0
2024-12-13 15:17:42.469,-0.464507,4.07229,15.1834,-0.65185,-0.11064,0.131027,0
2024-12-13 15:17:42.471,-0.52672,3.82822,15.4923,-0.653683,-0.0868167,0.124918,0
2024-12-13 15:17:42.471,-0.52672,3.82822,15.4923,-0.653683,-0.0868167,0.124918,0
2024-12-13 15:17:42.474,-0.56022,3.62214,15.7771,-0.648185,-0.0501658,0.113312,0
2024-12-13 15:17:42.474,-0.56022,3.62214,15.7771,-0.648185,-0.0501658,0.113312,0
2024-12-13 15:17:42.476,-0.758824,3.51924,15.9565,-0.632303,-0.0159584,0.107815,0
2024-12-13 15:17:42.476,-0.758824,3.51924,15.9565,-0.632303,-0.0159584,0.107815,0
2024-12-13 15:17:42.478,-0.725324,3.3996,16.0502,-0.602983,0.0469589,0.107204,0
2024-12-13 15:17:42.478,-0.725324,3.3996,16.0502,-0.602983,0.0469589,0.107204,0
2024-12-13 15:17:42.478,-0.725324,3.3996,16.0502,-0.602983,0.0469589,0.107204,0
2024-12-13 15:17:42.481,-0.260818,3.19621,16.1507,-0.602983,0.0469589,0.107204,0
2024-12-13 15:17:42.483,0.0382852,2.95185,16.4139,-0.521129,0.146527,0.0955976,0
2024-12-13 15:17:42.483,0.0382852,2.95185,16.4139,-0.521129,0.146527,0.0955976,0
2024-12-13 15:17:42.485,0.189033,2.67189,16.7731,-0.468596,0.146527,0.0809373,0
2024-12-13 15:17:42.485,0.189033,2.67189,16.7731,-0.468596,0.146527,0.0809373,0
2024-12-13 15:17:42.488,0.253639,2.39402,16.9765,-0.409955,0.129423,0.0601685,1
2024-12-13 15:17:42.488,0.253639,2.39402,16.9765,-0.409955,0.129423,0.0601685,1
2024-12-13 15:17:42.490,0.344866,2.12363,16.9741,-0.342151,0.109265,0.0369563,0
2024-12-13 15:17:42.492,0.524327,1.86012,16.8592,-0.270682,0.0909399,0.0064139,0
2024-12-13 15:17:42.492,0.524327,1.86012,16.8592,-0.270682,0.0909399,0.0064139,0
2024-12-13 15:17:42.492,0.524327,1.86012,16.8592,-0.270682,0.0909399,0.0064139,0
2024-12-13 15:17:42.495,0.722932,1.64237,16.7276,-0.19738,0.0658951,-0.0277936,0
2024-12-13 15:17:42.497,0.8668,1.47727,16.5888,-0.115526,0.038407,-0.069942,0
2024-12-13 15:17:42.500,0.8668,1.37169,16.421,-0.0318404,0.00664296,-0.11148,0
2024-12-13 15:17:42.500,0.957727,1.37169,16.421,-0.0318404,0.00664296,-0.11148,0
2024-12-13 15:17:42.502,1.00319,1.32144,16.1889,0.0555107,-0.0281753,-0.157293,0
2024-12-13 15:17:42.503,1.00319,1.32144,16.1889,0.149581,-0.0587177,-0.203107,0
2024-12-13 15:17:42.504,0.99362,1.31665,15.9039,0.149581,-0.0587177,-0.203107,0
2024-12-13 15:17:42.504,0.99362,1.31665,15.9039,0.149581,-0.0587177,-0.203107,0
2024-12-13 15:17:42.507,0.96012,1.34776,15.5976,0.248538,-0.0898709,-0.250142,0
2024-12-13 15:17:42.509,0.888335,1.40279,15.2647,0.345663,-0.126522,-0.293512,0
2024-12-13 15:17:42.509,0.888335,1.40279,15.2647,0.345663,-0.126522,-0.293512,0
2024-12-13 15:17:42.509,0.888335,1.40279,15.2647,0.345663,-0.126522,-0.293512,0
2024-12-13 15:17:42.511,0.787538,1.48205,14.9034,0.446529,-0.165005,-0.337493,0
2024-12-13 15:17:42.514,0.675075,1.57059,14.5322,0.446529,-0.202878,-0.375976,0
2024-12-13 15:17:42.516,0.550648,1.65673,14.1491,0.651163,-0.244415,-0.409573,0
2024-12-13 15:17:42.516,0.550648,1.65673,14.1491,0.651163,-0.244415,-0.409573,0
2024-12-13 15:17:42.516,0.550648,1.65673,14.1491,0.651163,-0.244415,-0.409573,0
2024-12-13 15:17:42.518,0.435793,1.74527,13.7468,0.748288,-0.287785,-0.440726,0
2024-12-13 15:17:42.521,0.349651,1.82901,13.3376,0.846023,-0.331156,-0.468214,0
2024-12-13 15:17:42.521,0.349651,1.82901,13.3376,0.846023,-0.331156,-0.468214,0
2024-12-13 15:17:42.523,0.287438,1.90319,12.9401,0.937651,-0.379413,-0.492648,0
2024-12-13 15:17:42.523,0.287438,1.90319,12.9401,0.937651,-0.379413,-0.492648,0
2024-12-13 15:17:42.525,0.224925,1.9681,12.5521,1.02806,-0.425226,-0.512195,0
2024-12-13 15:17:42.528,0.184247,2.00399,12.1789,1.1148,-0.476537,-0.52991,0
2024-12-13 15:17:42.528,0.184247,2.00399,12.1789,1.1148,-0.476537,-0.52991,0
2024-12-13 15:17:42.530,0.150748,2.03749,11.8005,1.19848,-0.524794,-0.543349,0
2024-12-13 15:17:42.533,0.133998,2.08295,11.4102,1.27423,-0.574273,-0.554955,0
2024-12-13 15:17:42.533,0.133998,2.08295,11.4102,1.27423,-0.574273,-0.554955,0
2024-12-13 15:17:42.535,0.153141,2.11884,10.9962,1.3402,-0.621919,-0.563507,0
2024-12-13 15:17:42.535,0.153141,2.11884,10.9962,1.3402,-0.621919,-0.563507,0
2024-12-13 15:17:42.537,0.18664,2.15713,10.57,1.40373,-0.661624,-0.571448,0
2024-12-13 15:17:42.537,0.18664,2.15713,10.57,1.40373,-0.661624,-0.571448,0
2024-12-13 15:17:42.540,0.222533,2.2002,10.1438,1.45687,-0.70194,-0.576334,0
2024-12-13 15:17:42.542,0.265603,2.24088,9.71277,1.45687,-0.70194,-0.576334,0
2024-12-13 15:17:42.544,0.285045,2.27916,9.30838,1.54117,-0.763025,-0.589773,0
2024-12-13 15:17:42.544,0.285045,2.27916,9.30838,1.54117,-0.763025,-0.589773,0
2024-12-13 15:17:42.547,0.287438,2.32941,8.89651,1.57293,-0.785626,-0.592827,0
2024-12-13 15:17:42.547,0.287438,2.32941,8.89651,1.57293,-0.785626,-0.592827,0
2024-12-13 15:17:42.549,0.287438,2.38684,8.50379,1.59675,-0.805173,-0.595271,0
2024-12-13 15:17:42.551,0.277567,2.42752,8.14248,1.60836,-0.823498,-0.595882,0
2024-12-13 15:17:42.551,0.277567,2.42752,8.14248,1.60836,-0.823498,-0.595882,0
2024-12-13 15:17:42.551,0.277567,2.42752,8.14248,1.60836,-0.823498,-0.595882,0
2024-12-13 15:17:42.554,0.256032,2.46341,7.79043,1.61997,-0.835105,-0.597103,0
2024-12-13 15:17:42.554,0.256032,2.46341,7.79043,1.61997,-0.835105,-0.597103,0
2024-12-13 15:17:42.556,0.217747,2.51845,7.47189,1.62302,-0.842435,-0.592216,0
2024-12-13 15:17:42.556,0.217747,2.51845,7.47189,1.62302,-0.842435,-0.592216,0
2024-12-13 15:17:42.558,0.162712,2.59053,7.19193,1.62058,-0.8461,-0.586108,0
2024-12-13 15:17:42.558,0.162712,2.59053,7.19193,1.62058,-0.8461,-0.586108,0
2024-12-13 15:17:42.561,0.117248,2.65035,6.9332,1.61142,-0.847932,-0.578167,0
2024-12-13 15:17:42.561,0.117248,2.65035,6.9332,1.61142,-0.847932,-0.578167,0
2024-12-13 15:17:42.561,0.117248,2.65035,6.9332,1.61142,-0.847932,-0.578167,0
2024-12-13 15:17:42.563,0.0981057,2.70299,6.69631,1.60164,-0.848543,-0.564728,0
2024-12-13 15:17:42.563,0.0981057,2.70299,6.69631,1.60164,-0.848543,-0.564728,0
2024-12-13 15:17:42.563,0.0981057,2.70299,6.69631,1.60164,-0.848543,-0.564728,0
2024-12-13 15:17:42.565,0.0765703,2.76281,6.47617,1.58637,-0.8461,-0.553733,0
2024-12-13 15:17:42.568,0.066999,2.8322,6.27249,1.56377,-0.839381,-0.538462,0
2024-12-13 15:17:42.568,0.066999,2.8322,6.27249,1.56377,-0.839381,-0.538462,0
2024-12-13 15:17:42.570,0.0574277,2.9016,6.09542,1.54239,-0.83205,-0.521969,0
2024-12-13 15:17:42.570,0.0574277,2.9016,6.09542,1.54239,-0.83205,-0.521969,0
2024-12-13 15:17:42.570,0.0574277,2.9016,6.09542,1.54239,-0.83205,-0.521969,0
2024-12-13 15:17:42.573,0.0430708,2.96381,5.91596,1.51551,-0.82472,-0.503033,0
2024-12-13 15:17:42.575,0.0430708,3.03081,5.74816,1.48253,-0.816168,-0.482264,0
2024-12-13 15:17:42.576,0.0430708,3.03081,5.74816,1.48253,-0.816168,-0.482264,0
2024-12-13 15:17:42.577,0.0430708,3.08854,5.59741,1.48253,-0.816168,-0.482264,0
2024-12-13 15:17:42.580,0.0502493,3.14357,5.45145,1.41167,-0.796621,-0.438894,0
2024-12-13 15:17:42.580,0.0502493,3.14357,5.45145,1.41167,-0.796621,-0.438894,0
2024-12-13 15:17:42.582,0.0574277,3.19621,5.32672,1.37013,-0.785626,-0.41446,0
2024-12-13 15:17:42.582,0.0574277,3.19621,5.32672,1.37013,-0.785626,-0.41446,0
2024-12-13 15:17:42.582,0.0574277,3.19621,5.32672,1.37013,-0.785626,-0.41446,0
2024-12-13 15:17:42.584,0.0574277,3.24407,5.21665,1.32798,-0.77402,-0.390637,0
2024-12-13 15:17:42.584,0.0574277,3.24407,5.21665,1.32798,-0.77402,-0.390637,0
2024-12-13 15:17:42.587,0.0693919,3.27757,5.11615,1.28156,-0.76669,-0.365592,0
2024-12-13 15:17:42.587,0.0693919,3.27757,5.11615,1.28156,-0.76669,-0.365592,0
2024-12-13 15:17:42.589,0.11007,3.3015,5.02523,1.28156,-0.76669,-0.365592,0
2024-12-13 15:17:42.591,0.145962,3.335,4.94387,1.18688,-0.735536,-0.315503,0
2024-12-13 15:17:42.592,0.145962,3.335,4.94387,1.18688,-0.735536,-0.315503,0
2024-12-13 15:17:42.594,0.177069,3.3661,4.8673,1.13618,-0.719654,-0.291069,0
2024-12-13 15:17:42.594,0.177069,3.3661,4.8673,1.13618,-0.719654,-0.291069,0
2024-12-13 15:17:42.596,0.217747,3.38525,4.79791,1.08425,-0.703772,-0.265413,0
2024-12-13 15:17:42.598,0.253639,3.39721,4.73061,1.03233,-0.686058,-0.240979,0
2024-12-13 15:17:42.601,0.282652,3.40678,4.68036,0.979188,-0.663456,-0.217156,0
2024-12-13 15:17:42.601,0.282652,3.40678,4.68036,0.979188,-0.663456,-0.217156,0
2024-12-13 15:17:42.601,0.282652,3.40678,4.68036,0.979188,-0.663456,-0.217156,0
2024-12-13 15:17:42.603,0.311366,3.41875,4.65883,0.927877,-0.642077,-0.194555,0
2024-12-13 15:17:42.603,0.311366,3.41875,4.65883,0.927877,-0.642077,-0.194555,0
2024-12-13 15:17:42.606,0.328116,3.42832,4.65404,0.874733,-0.620697,-0.173175,0
2024-12-13 15:17:42.606,0.328116,3.42832,4.65404,0.874733,-0.620697,-0.173175,0
2024-12-13 15:17:42.608,0.344866,3.41635,4.65643,0.824644,-0.598096,-0.153017,0
2024-12-13 15:17:42.608,0.344866,3.41635,4.65643,0.824644,-0.598096,-0.153017,0
2024-12-13 15:17:42.610,0.383151,3.402,4.67558,0.773333,-0.569997,-0.132859,0
2024-12-13 15:17:42.610,0.383151,3.402,4.67558,0.773333,-0.569997,-0.132859,0
2024-12-13 15:17:42.613,0.392722,3.38764,4.70907,0.7208,-0.546785,-0.113312,0
2024-12-13 15:17:42.615,0.392722,3.3996,4.76411,0.670099,-0.52174,-0.0955976,0
2024-12-13 15:17:42.615,0.392722,3.3996,4.76411,0.670099,-0.52174,-0.0955976,0
2024-12-13 15:17:42.617,0.414257,3.402,4.81705,0.622453,-0.495473,-0.0791047,0
2024-12-13 15:17:42.617,0.414257,3.402,4.81705,0.622453,-0.495473,-0.0791047,0
2024-12-13 15:17:42.620,0.4334,3.402,4.87209,0.576029,-0.469818,-0.0638335,0
2024-12-13 15:17:42.620,0.4334,3.402,4.87209,0.576029,-0.469818,-0.0638335,0
2024-12-13 15:17:42.622,0.442971,3.41875,4.93909,0.530826,-0.445384,-0.0479515,0
2024-12-13 15:17:42.622,0.442971,3.41875,4.93909,0.530826,-0.445384,-0.0479515,0
2024-12-13 15:17:42.624,0.431007,3.42353,5.01805,0.486845,-0.421561,-0.0357346,0
2024-12-13 15:17:42.624,0.431007,3.42353,5.01805,0.486845,-0.421561,-0.0357346,0
2024-12-13 15:17:42.624,0.431007,3.42353,5.01805,0.486845,-0.421561,-0.0357346,0
2024-12-13 15:17:42.624,0.431007,3.42353,5.01805,0.486845,-0.421561,-0.0357346,0
2024-12-13 15:17:42.627,0.409472,3.42353,5.09223,0.444086,-0.39896,-0.0241285,0
2024-12-13 15:17:42.629,0.397508,3.40678,5.1688,0.404992,-0.374526,-0.0113007,0
2024-12-13 15:17:42.631,0.390329,3.39003,5.25015,0.367043,-0.351924,0.000916271,0
2024-12-13 15:17:42.631,0.390329,3.39003,5.25015,0.367043,-0.351924,0.000916271,0
2024-12-13 15:17:42.631,0.390329,3.39003,5.25015,0.367043,-0.351924,0.000916271,0
2024-12-13 15:17:42.634,0.390329,3.38764,5.32433,0.333446,-0.332377,0.0106898,0
2024-12-13 15:17:42.634,0.368794,3.38764,5.32433,0.333446,-0.332377,0.0106898,0
2024-12-13 15:17:42.636,0.347258,3.38285,5.39881,0.298628,-0.310998,0.01802,0
2024-12-13 15:17:42.638,0.347258,3.38285,5.47777,0.267475,-0.289007,0.0265719,0
2024-12-13 15:17:42.638,0.337687,3.37328,5.47777,0.267475,-0.289007,0.0265719,0
2024-12-13 15:17:42.639,0.337687,3.37328,5.47777,0.267475,-0.289007,0.0265719,0
2024-12-13 15:17:42.641,0.328116,3.35414,5.56391,0.238154,-0.270682,0.033902,0
2024-12-13 15:17:42.643,0.316152,3.34696,5.65245,0.214331,-0.252356,0.0393996,0
2024-12-13 15:17:42.643,0.316152,3.34696,5.65245,0.214331,-0.252356,0.0393996,0
2024-12-13 15:17:42.643,0.316152,3.34696,5.65245,0.214331,-0.252356,0.0393996,0
2024-12-13 15:17:42.646,0.289831,3.33978,5.73141,0.19173,-0.23342,0.046119,0
2024-12-13 15:17:42.646,0.289831,3.33978,5.73141,0.19173,-0.23342,0.046119,0
2024-12-13 15:17:42.648,0.282652,3.32064,5.81037,0.166685,-0.217538,0.0522274,0
2024-12-13 15:17:42.648,0.282652,3.32064,5.81037,0.166685,-0.217538,0.0522274,0
2024-12-13 15:17:42.648,0.282652,3.32064,5.81037,0.166685,-0.217538,0.0522274,0
2024-12-13 15:17:42.650,0.292223,3.30628,5.90399,0.150192,-0.205932,0.0552817,0
2024-12-13 15:17:42.650,0.292223,3.30628,5.90399,0.150192,-0.205932,0.0552817,0
2024-12-13 15:17:42.653,0.299402,3.28235,6.0021,0.13431,-0.194326,0.0601685,0
2024-12-13 15:17:42.653,0.299402,3.28235,6.0021,0.13431,-0.194326,0.0601685,0
2024-12-13 15:17:42.653,0.299402,3.28235,6.0021,0.13431,-0.194326,0.0601685,0
2024-12-13 15:17:42.653,0.299402,3.28235,6.0021,0.13431,-0.194326,0.0601685,0
2024-12-13 15:17:42.655,0.299402,3.26082,6.10738,0.11965,-0.185774,0.0644444,0
2024-12-13 15:17:42.655,0.299402,3.26082,6.10738,0.11965,-0.185774,0.0644444,0
2024-12-13 15:17:42.657,0.289831,3.2345,6.20788,0.107433,-0.179055,0.0668878,0
2024-12-13 15:17:42.657,0.289831,3.2345,6.20788,0.107433,-0.179055,0.0668878,0
2024-12-13 15:17:42.660,0.297009,3.20339,6.30838,0.0988809,-0.17539,0.0687203,0
2024-12-13 15:17:42.662,0.318545,3.19382,6.40888,0.0933833,-0.173557,0.0711637,0
2024-12-13 15:17:42.662,0.297009,3.19382,6.40888,0.0933833,-0.173557,0.0711637,0
2024-12-13 15:17:42.662,0.318545,3.19382,6.40888,0.0933833,-0.173557,0.0711637,0
2024-12-13 15:17:42.664,0.335294,3.17707,6.5025,0.090329,-0.173557,0.069942,0
2024-12-13 15:17:42.664,0.335294,3.17707,6.5025,0.090329,-0.173557,0.069942,0
2024-12-13 15:17:42.664,0.335294,3.17707,6.5025,0.090329,-0.173557,0.069942,0
2024-12-13 15:17:42.667,0.366401,3.15553,6.58624,0.0927724,-0.172946,0.0711637,0
2024-12-13 15:17:42.667,0.366401,3.15553,6.58624,0.0927724,-0.172946,0.0711637,0
2024-12-13 15:17:42.669,0.383151,3.14357,6.62931,0.094605,-0.174779,0.0687203,0
2024-12-13 15:17:42.669,0.383151,3.14357,6.62931,0.094605,-0.174779,0.0687203,0
2024-12-13 15:17:42.669,0.383151,3.14357,6.62931,0.094605,-0.174779,0.0687203,0
2024-12-13 15:17:42.671,0.395115,3.13161,6.65085,0.101935,-0.172946,0.0650552,0
2024-12-13 15:17:42.671,0.395115,3.13161,6.65085,0.101935,-0.172946,0.0650552,0
2024-12-13 15:17:42.674,0.423829,3.12443,6.68674,0.109876,-0.179055,0.0613902,0
2024-12-13 15:17:42.674,0.423829,3.12443,6.68674,0.109876,-0.179055,0.0613902,0
2024-12-13 15:17:42.674,0.423829,3.12443,6.68674,0.109876,-0.179055,0.0613902,0
2024-12-13 15:17:42.676,0.454935,3.11964,6.69392,0.118428,-0.180887,0.0552817,0
2024-12-13 15:17:42.676,0.454935,3.11964,6.69392,0.118428,-0.180887,0.0552817,0
2024-12-13 15:17:42.679,0.471685,3.11246,6.67717,0.12698,-0.180887,0.0491732,0
2024-12-13 15:17:42.679,0.471685,3.11246,6.67717,0.12698,-0.180887,0.0491732,0
2024-12-13 15:17:42.679,0.471685,3.11246,6.67717,0.12698,-0.180887,0.0491732,0
2024-12-13 15:17:42.681,0.478864,3.10289,6.6676,0.141029,-0.180887,0.0424539,0
2024-12-13 15:17:42.681,0.478864,3.10289,6.6676,0.141029,-0.180887,0.0424539,0
2024-12-13 15:17:42.683,0.495613,3.1005,6.63171,0.152025,-0.183941,0.0345129,0
2024-12-13 15:17:42.683,0.495613,3.1005,6.63171,0.152025,-0.183941,0.0345129,0
2024-12-13 15:17:42.683,0.495613,3.1005,6.63171,0.152025,-0.183941,0.0345129,0
2024-12-13 15:17:42.686,0.519542,3.10289,6.57667,0.162409,-0.186996,0.0241285,0
2024-12-13 15:17:42.686,0.519542,3.10289,6.57667,0.162409,-0.186996,0.0241285,0
2024-12-13 15:17:42.688,0.519542,3.10289,6.51685,0.177069,-0.189439,0.0131332,0
2024-12-13 15:17:42.688,0.538684,3.09811,6.51685,0.177069,-0.189439,0.0131332,0
2024-12-13 15:17:42.688,0.538684,3.09811,6.51685,0.177069,-0.189439,0.0131332,0
2024-12-13 15:17:42.690,0.541077,3.08584,6.45703,0.187454,-0.191882,-0.00152712,0
2024-12-13 15:17:42.690,0.541077,3.08584,6.45703,0.187454,-0.191882,-0.00152712,0
2024-12-13 15:17:42.693,0.536291,3.08345,6.38973,0.197838,-0.193104,-0.0161875,0
2024-12-13 15:17:42.693,0.536291,3.08345,6.38973,0.197838,-0.193104,-0.0161875,0
2024-12-13 15:17:42.693,0.536291,3.08345,6.38973,0.197838,-0.193104,-0.0161875,0
2024-12-13 15:17:42.695,0.553041,3.09332,6.32273,0.204557,-0.191272,-0.0296261,0
2024-12-13 15:17:42.695,0.553041,3.09332,6.32273,0.204557,-0.191272,-0.0296261,0
2024-12-13 15:17:42.697,0.581755,3.10768,6.23659,0.214942,-0.180887,-0.0448973,0
2024-12-13 15:17:42.697,0.581755,3.10768,6.23659,0.214942,-0.180887,-0.0448973,0
2024-12-13 15:17:42.700,0.574577,3.08584,6.14567,0.223494,-0.179055,-0.0607793,0
2024-12-13 15:17:42.700,0.574577,3.08584,6.14567,0.223494,-0.179055,-0.0607793,0
2024-12-13 15:17:42.700,0.574577,3.08584,6.14567,0.223494,-0.179055,-0.0607793,0
2024-12-13 15:17:42.702,0.531506,3.06192,6.07388,0.232046,-0.183941,-0.0748288,0
2024-12-13 15:17:42.702,0.531506,3.06192,6.07388,0.232046,-0.183941,-0.0748288,0
2024-12-13 15:17:42.704,0.474078,3.05234,5.99253,0.238154,-0.188828,-0.0864349,0
2024-12-13 15:17:42.704,0.474078,3.05234,5.99253,0.238154,-0.188828,-0.0864349,0
2024-12-13 15:17:42.707,0.41665,3.04517,5.90399,0.241208,-0.19738,-0.0974301,0
2024-12-13 15:17:42.707,0.41665,3.04517,5.90399,0.241208,-0.19738,-0.0974301,0
2024-12-13 15:17:42.707,0.41665,3.04517,5.90399,0.241208,-0.19738,-0.0974301,0
2024-12-13 15:17:42.709,0.3999,3.04038,5.82951,0.244263,-0.20471,-0.107815,0
2024-12-13 15:17:42.709,0.3999,3.04038,5.82951,0.244263,-0.20471,-0.107815,0
2024-12-13 15:17:42.712,0.385544,3.05234,5.74816,0.247928,-0.20471,-0.118199,0
2024-12-13 15:17:42.712,0.385544,3.05234,5.74816,0.247928,-0.20471,-0.118199,0
2024-12-13 15:17:42.714,0.32333,3.06192,5.66441,0.24976,-0.20471,-0.127972,0
2024-12-13 15:17:42.714,0.32333,3.06192,5.66441,0.24976,-0.20471,-0.127972,0
2024-12-13 15:17:42.714,0.32333,3.06192,5.66441,0.24976,-0.20471,-0.127972,0
2024-12-13 15:17:42.716,0.265603,3.04277,5.5998,0.249149,-0.209597,-0.134081,0
2024-12-13 15:17:42.716,0.265603,3.04277,5.5998,0.249149,-0.209597,-0.134081,0
2024-12-13 15:17:42.719,0.265603,3.03799,5.51845,0.248538,-0.210208,-0.141411,0
2024-12-13 15:17:42.719,0.217747,3.03799,5.51845,0.248538,-0.210208,-0.141411,0
2024-12-13 15:17:42.719,0.217747,3.03799,5.51845,0.248538,-0.210208,-0.141411,0
2024-12-13 15:17:42.721,0.162712,3.04995,5.42991,0.247928,-0.215095,-0.146909,0
2024-12-13 15:17:42.721,0.162712,3.04995,5.42991,0.247928,-0.215095,-0.146909,0
2024-12-13 15:17:42.723,0.131605,3.06192,5.35334,0.243041,-0.216927,-0.151185,0
2024-12-13 15:17:42.723,0.131605,3.06192,5.35334,0.243041,-0.216927,-0.151185,0
2024-12-13 15:17:42.723,0.131605,3.06192,5.35334,0.243041,-0.216927,-0.151185,0
2024-12-13 15:17:42.726,0.124427,3.08106,5.27647,0.235711,-0.215705,-0.153628,0
2024-12-13 15:17:42.726,0.124427,3.08106,5.27647,0.235711,-0.215705,-0.153628,0
2024-12-13 15:17:42.728,0.129212,3.12682,5.21187,0.230213,-0.21143,-0.157904,0
2024-12-13 15:17:42.728,0.129212,3.12682,5.21187,0.230213,-0.21143,-0.157904,0
2024-12-13 15:17:42.730,0.162712,3.17946,5.13769,0.22044,-0.207764,-0.163402,0
2024-12-13 15:17:42.730,0.162712,3.17946,5.13769,0.22044,-0.207764,-0.163402,0
2024-12-13 15:17:42.733,0.208176,3.21296,5.05394,0.205168,-0.202878,-0.168899,0
2024-12-13 15:17:42.733,0.208176,3.21296,5.05394,0.205168,-0.202878,-0.168899,0
2024-12-13 15:17:42.733,0.208176,3.21296,5.05394,0.205168,-0.202878,-0.168899,0
2024-12-13 15:17:42.733,0.208176,3.21296,5.05394,0.205168,-0.202878,-0.168899,0
2024-12-13 15:17:42.735,0.260818,3.25125,4.98694,0.194173,-0.196158,-0.172564,0
2024-12-13 15:17:42.737,0.318545,3.2991,4.92234,0.17768,-0.189439,-0.179284,0
2024-12-13 15:17:42.737,0.318545,3.2991,4.92234,0.17768,-0.189439,-0.179284,0
2024-12-13 15:17:42.737,0.318545,3.2991,4.92234,0.17768,-0.189439,-0.179284,0
2024-12-13 15:17:42.740,0.354437,3.35175,4.86251,0.157522,-0.182109,-0.190279,0
2024-12-13 15:17:42.740,0.354437,3.35175,4.86251,0.157522,-0.182109,-0.190279,0
2024-12-13 15:17:42.742,0.366401,3.38764,4.8003,0.139197,-0.172946,-0.199442,0
2024-12-13 15:17:42.742,0.366401,3.38764,4.8003,0.139197,-0.172946,-0.199442,0
2024-12-13 15:17:42.742,0.366401,3.38764,4.8003,0.139197,-0.172946,-0.199442,0
2024-12-13 15:17:42.744,0.373579,3.40917,4.74736,0.116595,-0.161951,-0.208604,0
2024-12-13 15:17:42.744,0.373579,3.40917,4.74736,0.116595,-0.161951,-0.208604,0
2024-12-13 15:17:42.747,0.397508,3.4355,4.70907,0.0927724,-0.151566,-0.217156,0
2024-12-13 15:17:42.747,0.397508,3.4355,4.70907,0.0927724,-0.151566,-0.217156,0
2024-12-13 15:17:42.747,0.397508,3.4355,4.70907,0.0927724,-0.151566,-0.217156,0
2024-12-13 15:17:42.749,0.397508,3.47378,4.66122,0.0689494,-0.138739,-0.227541,0
2024-12-13 15:17:42.749,0.397508,3.47378,4.66122,0.0689494,-0.138739,-0.227541,0
2024-12-13 15:17:42.752,0.366401,3.5001,4.64686,0.0457372,-0.124078,-0.236703,0
2024-12-13 15:17:42.752,0.366401,3.5001,4.64686,0.0457372,-0.124078,-0.236703,0
2024-12-13 15:17:42.752,0.366401,3.5001,4.64686,0.0457372,-0.124078,-0.236703,0
2024-12-13 15:17:42.754,0.335294,3.52403,4.63968,0.0219141,-0.108196,-0.244644,0
2024-12-13 15:17:42.754,0.335294,3.52403,4.63968,0.0219141,-0.108196,-0.244644,0
2024-12-13 15:17:42.754,0.335294,3.52403,4.63968,0.0219141,-0.108196,-0.244644,0
2024-12-13 15:17:42.756,0.299402,3.55514,4.62054,-7.63559e-05,-0.093536,-0.25564,0
2024-12-13 15:17:42.756,0.299402,3.55514,4.62054,-7.63559e-05,-0.093536,-0.25564,0
2024-12-13 15:17:42.759,0.27996,3.57667,4.61815,-0.0245102,-0.0782648,-0.262359,0
2024-12-13 15:17:42.759,0.27996,3.57667,4.61815,-0.0245102,-0.0782648,-0.262359,0
2024-12-13 15:17:42.761,0.246461,3.60299,4.63729,-0.0526092,-0.0629936,-0.268467,0
2024-12-13 15:17:42.761,0.246461,3.60299,4.63729,-0.0526092,-0.0629936,-0.268467,0
2024-12-13 15:17:42.761,0.246461,3.60299,4.63729,-0.0526092,-0.0629936,-0.268467,0
2024-12-13 15:17:42.763,0.196211,3.6341,4.66122,-0.0758214,-0.0483333,-0.273965,0
2024-12-13 15:17:42.763,0.196211,3.6341,4.66122,-0.0758214,-0.0483333,-0.273965,0
2024-12-13 15:17:42.763,0.196211,3.6341,4.66122,-0.0758214,-0.0483333,-0.273965,0
2024-12-13 15:17:42.766,0.141177,3.64367,4.67079,-0.0990336,-0.0318404,-0.275798,0
2024-12-13 15:17:42.766,0.141177,3.64367,4.67079,-0.0990336,-0.0318404,-0.275798,0
2024-12-13 15:17:42.768,0.0909273,3.66311,4.69472,-0.120413,-0.0196235,-0.281295,0
2024-12-13 15:17:42.768,0.0909273,3.66311,4.69472,-0.120413,-0.0196235,-0.281295,0
2024-12-13 15:17:42.770,0.0478565,3.70379,4.72822,-0.138739,-0.00557398,-0.285571,0
2024-12-13 15:17:42.770,0.0478565,3.70379,4.72822,-0.138739,-0.00557398,-0.285571,0
2024-12-13 15:17:42.773,0.00957129,3.7325,4.75693,-0.158897,0.00908635,-0.286793,0
2024-12-13 15:17:42.773,0.00957129,3.7325,4.75693,-0.158897,0.00908635,-0.286793,0
2024-12-13 15:17:42.773,0.00957129,3.7325,4.75693,-0.158897,0.00908635,-0.286793,0
2024-12-13 15:17:42.773,0.00957129,3.7325,4.75693,-0.158897,0.00908635,-0.286793,0
2024-12-13 15:17:42.775,-0.0191426,3.75404,4.79552,-0.177222,0.0188599,-0.28496,0
2024-12-13 15:17:42.775,-0.0191426,3.75404,4.79552,-0.177222,0.0188599,-0.28496,0
2024-12-13 15:17:42.777,-0.0502493,3.78275,4.84577,-0.193715,0.0274118,-0.284349,0
2024-12-13 15:17:42.777,-0.0502493,3.78275,4.84577,-0.193715,0.0274118,-0.284349,0
2024-12-13 15:17:42.780,-0.0598206,3.8019,4.89841,-0.209597,0.0390179,-0.28496,0
2024-12-13 15:17:42.780,-0.0598206,3.8019,4.89841,-0.209597,0.0390179,-0.28496,0
2024-12-13 15:17:42.782,-0.0622134,3.82343,4.95344,-0.221203,0.0481806,-0.281906,0
2024-12-13 15:17:42.782,-0.0622134,3.82343,4.95344,-0.221203,0.0481806,-0.281906,0
2024-12-13 15:17:42.782,-0.0622134,3.82343,4.95344,-0.221203,0.0481806,-0.281906,0
2024-12-13 15:17:42.785,-0.0717847,3.85215,5.00848,-0.234031,0.0555107,-0.282517,0
2024-12-13 15:17:42.785,-0.0717847,3.85215,5.00848,-0.234031,0.0555107,-0.282517,0
2024-12-13 15:17:42.785,-0.0717847,3.85215,5.00848,-0.234031,0.0555107,-0.282517,0
2024-12-13 15:17:42.787,-0.0646062,3.8665,5.05155,-0.246248,0.058565,-0.281906,0
2024-12-13 15:17:42.787,-0.0646062,3.8665,5.05155,-0.246248,0.058565,-0.281906,0
2024-12-13 15:17:42.789,-0.0454636,3.88325,5.10658,-0.256021,0.0634518,-0.278241,0
2024-12-13 15:17:42.789,-0.0454636,3.88325,5.10658,-0.256021,0.0634518,-0.278241,0
2024-12-13 15:17:42.792,-0.0239282,3.91436,5.15444,-0.262741,0.066506,-0.278852,0
2024-12-13 15:17:42.792,-0.0239282,3.91436,5.15444,-0.262741,0.066506,-0.278852,0
2024-12-13 15:17:42.792,-0.0239282,3.91436,5.15444,-0.262741,0.066506,-0.278852,0
2024-12-13 15:17:42.794,-0.00717847,3.94786,5.19272,-0.273125,0.0646735,-0.278241,0
2024-12-13 15:17:42.794,-0.00717847,3.94786,5.19272,-0.273125,0.0646735,-0.278241,0
2024-12-13 15:17:42.794,-0.00717847,3.94786,5.19272,-0.273125,0.0646735,-0.278241,0
2024-12-13 15:17:42.796,0.0,3.97897,5.2334,-0.28412,0.0634518,-0.27763,0
2024-12-13 15:17:42.796,0.0,3.97897,5.2334,-0.28412,0.0634518,-0.27763,0
2024-12-13 15:17:42.799,0.0143569,4.0005,5.25254,-0.292672,0.0640626,-0.279463,0
2024-12-13 15:17:42.799,0.0143569,4.0005,5.25254,-0.292672,0.0640626,-0.279463,0
2024-12-13 15:17:42.801,0.0358923,4.02204,5.25254,-0.3055,0.0603975,-0.281295,0
2024-12-13 15:17:42.801,0.0358923,4.02204,5.25254,-0.3055,0.0603975,-0.281295,0
2024-12-13 15:17:42.801,0.0358923,4.02204,5.25254,-0.3055,0.0603975,-0.281295,0
2024-12-13 15:17:42.802,0.0358923,4.02204,5.25254,-0.318328,0.0548999,-0.282517,0
2024-12-13 15:17:42.803,0.0430708,4.05554,5.26451,-0.318328,0.0548999,-0.282517,0
2024-12-13 15:17:42.803,0.0430708,4.05554,5.26451,-0.318328,0.0548999,-0.282517,0
2024-12-13 15:17:42.806,0.0215354,4.08903,5.28604,-0.33421,0.0481806,-0.284349,0
2024-12-13 15:17:42.806,0.0215354,4.08903,5.28604,-0.33421,0.0481806,-0.284349,0
2024-12-13 15:17:42.806,0.0215354,4.08903,5.28604,-0.33421,0.0481806,-0.284349,0
2024-12-13 15:17:42.808,-0.00717847,4.12493,5.28126,-0.351924,0.0457372,-0.283739,0
2024-12-13 15:17:42.808,-0.00717847,4.12493,5.28126,-0.351924,0.0457372,-0.283739,0
2024-12-13 15:17:42.810,-0.0311067,4.168,5.29801,-0.369028,0.0408504,-0.281295,0
2024-12-13 15:17:42.810,-0.0311067,4.168,5.29801,-0.369028,0.0408504,-0.281295,0
2024-12-13 15:17:42.813,-0.0574277,4.20389,5.32672,-0.385521,0.0396287,-0.281906,0
2024-12-13 15:17:42.813,-0.0574277,4.20389,5.32672,-0.385521,0.0396287,-0.281906,0
2024-12-13 15:17:42.815,-0.100499,4.2353,5.33181,-0.406901,0.0420721,-0.280073,0
2024-12-13 15:17:42.815,-0.100499,4.2353,5.33181,-0.406901,0.0420721,-0.280073,0
2024-12-13 15:17:42.815,-0.100499,4.2353,5.33181,-0.406901,0.0420721,-0.280073,0
2024-12-13 15:17:42.818,-0.157926,4.27597,5.34616,-0.425837,0.0457372,-0.274576,0
2024-12-13 15:17:42.818,-0.157926,4.27597,5.34616,-0.425837,0.0457372,-0.274576,0
2024-12-13 15:17:42.820,-0.205783,4.31187,5.37488,-0.450882,0.0524565,-0.267857,0
2024-12-13 15:17:42.820,-0.205783,4.31187,5.37488,-0.450882,0.0524565,-0.267857,0
2024-12-13 15:17:42.822,-0.246461,4.35733,5.41077,-0.473483,0.0634518,-0.264191,0
2024-12-13 15:17:42.822,-0.246461,4.35733,5.41077,-0.473483,0.0634518,-0.264191,0
2024-12-13 15:17:42.822,-0.246461,4.35733,5.41077,-0.473483,0.0634518,-0.264191,0
2024-12-13 15:17:42.825,-0.289831,4.4004,5.47298,-0.496084,0.074447,-0.254418,0
2024-12-13 15:17:42.825,-0.289831,4.4004,5.47298,-0.496084,0.074447,-0.254418,0
2024-12-13 15:17:42.825,-0.289831,4.4004,5.47298,-0.496084,0.074447,-0.254418,0
2024-12-13 15:17:42.827,-0.313759,4.44826,5.53998,-0.522962,0.0872748,-0.244033,0
2024-12-13 15:17:42.827,-0.313759,4.44826,5.53998,-0.522962,0.0872748,-0.244033,0
2024-12-13 15:17:42.829,-0.328116,4.48894,5.58784,-0.553504,0.100713,-0.23426,0
2024-12-13 15:17:42.829,-0.328116,4.48894,5.58784,-0.553504,0.100713,-0.23426,0
2024-12-13 15:17:42.832,-0.335294,4.49611,5.65005,-0.580381,0.115985,-0.225708,0
2024-12-13 15:17:42.832,-0.335294,4.49611,5.65005,-0.580381,0.115985,-0.225708,0
2024-12-13 15:17:42.832,-0.335294,4.49611,5.65005,-0.580381,0.115985,-0.225708,0
2024-12-13 15:17:42.834,-0.342473,4.51286,5.73619,-0.609702,0.131256,-0.217767,0
2024-12-13 15:17:42.834,-0.342473,4.51286,5.73619,-0.609702,0.131256,-0.217767,0
2024-12-13 15:17:42.834,-0.342473,4.51286,5.73619,-0.609702,0.131256,-0.217767,0
2024-12-13 15:17:42.836,-0.366401,4.54158,5.83909,-0.639633,0.145305,-0.209826,0
2024-12-13 15:17:42.836,-0.366401,4.54158,5.83909,-0.639633,0.145305,-0.209826,0
2024-12-13 15:17:42.839,-0.375972,4.56551,5.93988,-0.665289,0.158744,-0.201274,0
2024-12-13 15:17:42.839,-0.375972,4.56551,5.93988,-0.665289,0.158744,-0.201274,0
2024-12-13 15:17:42.839,-0.375972,4.56551,5.93988,-0.665289,0.158744,-0.201274,0
2024-12-13 15:17:42.841,-0.383151,4.57986,6.02363,-0.693388,0.174015,-0.193944,0
2024-12-13 15:17:42.843,-0.397508,4.58943,6.14806,-0.719044,0.187454,-0.187225,0
2024-12-13 15:17:42.843,-0.397508,4.58943,6.14806,-0.719044,0.187454,-0.187225,0
2024-12-13 15:17:42.843,-0.397508,4.58943,6.14806,-0.719044,0.187454,-0.187225,0
2024-12-13 15:17:42.846,-0.397508,4.60379,6.26531,-0.747753,0.203336,-0.181116,0
2024-12-13 15:17:42.846,-0.397508,4.60379,6.26531,-0.747753,0.203336,-0.181116,0
2024-12-13 15:17:42.846,-0.397508,4.60379,6.26531,-0.747753,0.203336,-0.181116,0
2024-12-13 15:17:42.850,-0.41665,4.62293,6.50728,-0.793567,0.239987,-0.171343,0
2024-12-13 15:17:42.850,-0.41665,4.62293,6.50728,-0.793567,0.239987,-0.171343,0
2024-12-13 15:17:42.853,-0.404686,4.62533,6.63171,-0.818612,0.25648,-0.165845,0
