timestamp,accel_x,accel_y,accel_z,gyro_x,gyro_y,gyro_z,step_timestamp
2024-12-13 15:16:31.158,-0.0885344,3.9,9.19801,0.00664296,-0.0153475,0.0125224,0
2024-12-13 15:16:31.158,-0.0885344,3.9,9.19801,0.00664296,-0.0153475,0.0125224,0
2024-12-13 15:16:31.160,-0.081356,3.89522,9.2028,0.00664296,-0.0165692,0.0125224,0
2024-12-13 15:16:31.162,-0.081356,3.89522,9.19322,0.00481042,-0.0171801,0.0125224,0
2024-12-13 15:16:31.162,-0.0693919,3.90479,9.19322,0.00481042,-0.0171801,0.0125224,0
2024-12-13 15:16:31.165,-0.0550349,3.91197,9.17887,0.00725381,-0.0190126,0.0119115,0
2024-12-13 15:16:31.165,-0.0550349,3.91197,9.17887,0.00725381,-0.0190126,0.0119115,0
2024-12-13 15:16:31.165,-0.0550349,3.91197,9.17887,0.00725381,-0.0190126,0.0119115,0
2024-12-13 15:16:31.167,-0.0574277,3.90239,9.18605,0.00419957,-0.0190126,0.0106898,0
2024-12-13 15:16:31.170,-0.0574277,3.89282,9.17887,0.00542127,-0.0202343,0.00946813,0
2024-12-13 15:16:31.170,-0.0622134,3.89282,9.17887,0.00542127,-0.0202343,0.00946813,0
2024-12-13 15:16:31.172,-0.0717847,3.89522,9.17647,0.00358873,-0.021456,0.0106898,0
2024-12-13 15:16:31.172,-0.0717847,3.89522,9.17647,0.00358873,-0.021456,0.0106898,0
2024-12-13 15:16:31.174,-0.0885344,3.90239,9.17408,0.00114534,-0.021456,0.00824644,0
2024-12-13 15:16:31.174,-0.0885344,3.90239,9.17408,0.00114534,-0.021456,0.00824644,0
2024-12-13 15:16:31.177,-0.0885344,3.89522,9.16451,0.00114534,-0.021456,0.00824644,0
2024-12-13 15:16:31.179,-0.0741775,3.88564,9.15494,-0.000687203,-0.0208452,0.0064139,0
2024-12-13 15:16:31.181,-0.0717847,3.88086,9.15015,-0.00435229,-0.0220669,0.0051922,0
2024-12-13 15:16:31.181,-0.0717847,3.88086,9.15015,-0.00435229,-0.0220669,0.0051922,0
2024-12-13 15:16:31.184,-0.0789631,3.87368,9.14058,-0.00435229,-0.0196235,0.0051922,0
2024-12-13 15:16:31.184,-0.0789631,3.87368,9.14058,-0.00435229,-0.0196235,0.0051922,0
2024-12-13 15:16:31.186,-0.0909273,3.8665,9.11905,-0.00862822,-0.0220669,0.00274881,0
2024-12-13 15:16:31.188,-0.102891,3.84975,9.11187,-0.00923906,-0.0196235,0.00213797,0
2024-12-13 15:16:31.191,-0.114855,3.84018,9.1023,-0.013515,-0.0196235,-0.000305424,0
2024-12-13 15:16:31.191,-0.114855,3.84018,9.1023,-0.013515,-0.0196235,-0.000305424,0
2024-12-13 15:16:31.195,-0.117248,3.84257,9.12623,-0.0190126,-0.0232886,-0.00152712,0
2024-12-13 15:16:31.195,-0.117248,3.84257,9.12623,-0.0190126,-0.0232886,-0.00152712,0
2024-12-13 15:16:31.198,-0.117248,3.84257,9.1358,-0.0238994,-0.021456,-0.00274881,0
2024-12-13 15:16:31.205,-0.133998,3.82582,9.20758,-0.0263428,-0.021456,-0.00397051,0
2024-12-13 15:16:31.205,-0.133998,3.82582,9.20758,-0.0263428,-0.021456,-0.00397051,0
2024-12-13 15:16:31.205,-0.133998,3.82582,9.20758,-0.0263428,-0.021456,-0.00397051,0
2024-12-13 15:16:31.206,-0.133998,3.82582,9.20758,-0.0287862,-0.0196235,-0.00580305,0
2024-12-13 15:16:31.207,-0.133998,3.82582,9.24108,-0.0287862,-0.0196235,-0.00580305,0
2024-12-13 15:16:31.210,-0.112463,3.82582,9.27249,-0.0275645,-0.0171801,-0.00824644,0
2024-12-13 15:16:31.212,-0.124427,3.82582,9.28684,-0.0275645,-0.0171801,-0.00824644,0
2024-12-13 15:16:31.214,-0.12682,3.84018,9.30838,-0.0257319,-0.013515,-0.0106898,0
2024-12-13 15:16:31.214,-0.12682,3.84018,9.30838,-0.0257319,-0.013515,-0.0106898,0
2024-12-13 15:16:31.219,-0.105284,3.84018,9.32274,-0.021456,-0.0110716,-0.0155766,0
2024-12-13 15:16:31.221,-0.0981057,3.8354,9.32992,-0.0220669,-0.0116825,-0.0161875,0
2024-12-13 15:16:31.224,-0.100499,3.84257,9.34427,-0.021456,-0.0122933,-0.0198525,0
2024-12-13 15:16:31.224,-0.100499,3.84257,9.34427,-0.021456,-0.0122933,-0.0198525,0
2024-12-13 15:16:31.226,-0.100499,3.85215,9.35145,-0.0177909,-0.0110716,-0.0210742,0
2024-12-13 15:16:31.228,-0.112463,3.85454,9.35145,-0.0171801,-0.0110716,-0.0210742,0
2024-12-13 15:16:31.233,-0.129212,3.8665,9.33231,-0.0159584,-0.0141258,-0.0253502,0
2024-12-13 15:16:31.233,-0.141177,3.8665,9.33231,-0.0159584,-0.0141258,-0.0253502,0
2024-12-13 15:16:31.236,-0.172283,3.87129,9.33231,-0.0159584,-0.0165692,-0.0235176,0
2024-12-13 15:16:31.238,-0.205783,3.88564,9.32752,-0.0159584,-0.0165692,-0.0235176,0
2024-12-13 15:16:31.240,-0.205783,3.88086,9.31795,-0.0122933,-0.0141258,-0.0229068,0
2024-12-13 15:16:31.240,-0.205783,3.88086,9.31795,-0.0122933,-0.0141258,-0.0229068,0
2024-12-13 15:16:31.245,-0.236889,3.87607,9.32752,-0.0129041,-0.0122933,-0.01802,0
2024-12-13 15:16:31.245,-0.236889,3.87607,9.32752,-0.0129041,-0.0122933,-0.01802,0
2024-12-13 15:16:31.247,-0.253639,3.87847,9.32992,-0.0129041,-0.0122933,-0.01802,0
2024-12-13 15:16:31.250,-0.256032,3.89282,9.34427,-0.00984991,-0.0147367,-0.0137441,0
2024-12-13 15:16:31.254,-0.248854,3.88804,9.35624,-0.0104608,-0.0153475,-0.0119115,0
2024-12-13 15:16:31.254,-0.234497,3.87847,9.35624,-0.0104608,-0.0153475,-0.0119115,0
2024-12-13 15:16:31.257,-0.236889,3.89522,9.34906,-0.0129041,-0.0159584,-0.00885729,0
2024-12-13 15:16:31.259,-0.251246,3.92154,9.35863,-0.0122933,-0.0165692,-0.0064139,0
2024-12-13 15:16:31.261,-0.251246,3.92632,9.36581,-0.0141258,-0.0159584,-0.00397051,0
2024-12-13 15:16:31.264,-0.239282,3.94068,9.35384,-0.0147367,-0.0153475,-0.00274881,0
2024-12-13 15:16:31.266,-0.224925,3.95264,9.3347,-0.0147367,-0.0184018,-0.00397051,0
2024-12-13 15:16:31.268,-0.22014,3.95504,9.32992,-0.0153475,-0.0159584,-0.000916271,0
2024-12-13 15:16:31.273,-0.215354,3.96222,9.32992,-0.0159584,-0.0116825,-0.000916271,0
2024-12-13 15:16:31.273,-0.215354,3.96222,9.32992,-0.0159584,-0.0116825,-0.000916271,0
2024-12-13 15:16:31.276,-0.212961,3.96939,9.32034,-0.0122933,-0.00801737,0.000305424,0
2024-12-13 15:16:31.278,-0.205783,3.97657,9.31795,-0.0122933,-0.00801737,0.000305424,0
2024-12-13 15:16:31.280,-0.205783,3.95504,9.31316,-0.00984991,-0.00435229,0.00152712,0
2024-12-13 15:16:31.283,-0.215354,3.9335,9.29642,-0.00984991,-0.00435229,0.00152712,0
2024-12-13 15:16:31.285,-0.217747,3.92872,9.27249,-0.00862822,-7.63559e-05,0.00213797,0
2024-12-13 15:16:31.287,-0.217747,3.92872,9.25065,-0.00862822,-7.63559e-05,0.00213797,0
2024-12-13 15:16:31.290,-0.227318,3.94068,9.2339,-0.00862822,0.00297788,0.00458135,0
2024-12-13 15:16:31.290,-0.227318,3.94068,9.2339,-0.00862822,0.00297788,0.00458135,0
2024-12-13 15:16:31.294,-0.217747,3.95264,9.19801,-0.00496313,0.00236703,0.00274881,0
2024-12-13 15:16:31.294,-0.217747,3.95264,9.19801,-0.00496313,0.00236703,0.00274881,0
2024-12-13 15:16:31.299,-0.239282,3.96939,9.1693,-0.00618483,0.00358873,0.00458135,0
2024-12-13 15:16:31.299,-0.239282,3.96939,9.1693,-0.00618483,0.00358873,0.00458135,0
2024-12-13 15:16:31.301,-0.234497,3.967,9.1669,-0.00801737,0.00358873,0.00213797,0
2024-12-13 15:16:31.304,-0.229711,3.95743,9.1693,-0.00801737,0.00358873,0.000916271,0
2024-12-13 15:16:31.306,-0.227318,3.97418,9.1669,-0.00862822,0.00114534,-0.000305424,0
2024-12-13 15:16:31.309,-0.215354,3.98614,9.15733,-0.0116825,-0.000687203,-0.00213797,0
2024-12-13 15:16:31.311,-0.20339,3.98375,9.16451,-0.0110716,-0.000687203,-0.00213797,0
2024-12-13 15:16:31.313,-0.198604,3.98136,9.17647,-0.0110716,-0.000687203,-0.00213797,0
2024-12-13 15:16:31.316,-0.212961,3.967,9.17887,-0.013515,-0.00129805,-0.00702474,0
2024-12-13 15:16:31.316,-0.212961,3.967,9.17887,-0.013515,-0.00129805,-0.00702474,0
2024-12-13 15:16:31.320,-0.208176,3.96939,9.22194,-0.0141258,-0.00251974,-0.00946813,0
2024-12-13 15:16:31.320,-0.208176,3.96939,9.22194,-0.0141258,-0.00251974,-0.00946813,0
2024-12-13 15:16:31.325,-0.224925,3.95982,9.22433,-0.0147367,-0.00435229,-0.0119115,0
2024-12-13 15:16:31.325,-0.224925,3.95982,9.22433,-0.0147367,-0.00435229,-0.0119115,0
2024-12-13 15:16:31.330,-0.215354,3.95743,9.23869,-0.0190126,-0.00801737,-0.0161875,0
2024-12-13 15:16:31.331,-0.215354,3.95743,9.23869,-0.0190126,-0.00801737,-0.0161875,0
2024-12-13 15:16:31.334,-0.224925,3.97657,9.27249,-0.0190126,-0.00801737,-0.0149658,0
2024-12-13 15:16:31.334,-0.224925,3.97657,9.27249,-0.0190126,-0.00801737,-0.0149658,0
2024-12-13 15:16:31.337,-0.227318,3.96222,9.27009,-0.0196235,-0.00862822,-0.0155766,0
2024-12-13 15:16:31.339,-0.222533,3.95504,9.27009,-0.0220669,-0.00984991,-0.0143549,0
2024-12-13 15:16:31.344,-0.222533,3.95504,9.29402,-0.0196235,-0.00679568,-0.0155766,0
2024-12-13 15:16:31.344,-0.212961,3.95504,9.29402,-0.0196235,-0.00679568,-0.0155766,0
2024-12-13 15:16:31.346,-0.208176,3.94547,9.30838,-0.0190126,-0.00618483,-0.0155766,0
2024-12-13 15:16:31.346,-0.208176,3.94547,9.30838,-0.0190126,-0.00618483,-0.0155766,0
2024-12-13 15:16:31.349,-0.224925,3.95743,9.31316,-0.0226777,-0.00435229,-0.0155766,0
2024-12-13 15:16:31.349,-0.224925,3.95743,9.31316,-0.0226777,-0.00435229,-0.0155766,0
2024-12-13 15:16:31.351,-0.234497,3.95743,9.29881,-0.0208452,-0.00251974,-0.0143549,0
2024-12-13 15:16:31.353,-0.244068,3.95504,9.29163,-0.0190126,-0.00129805,-0.0131332,0
2024-12-13 15:16:31.356,-0.260818,3.95743,9.28684,-0.0190126,-0.00129805,-0.0131332,0
2024-12-13 15:16:31.356,-0.260818,3.95743,9.28684,-0.0190126,-0.00129805,-0.0131332,0
2024-12-13 15:16:31.363,-0.282652,3.95504,9.2677,-0.0184018,0.0096972,-0.0106898,0
2024-12-13 15:16:31.365,-0.275175,3.95264,9.27488,-0.0190126,0.00847551,-0.00702474,0
2024-12-13 15:16:31.367,-0.265603,3.95982,9.27727,-0.0190126,0.0096972,-0.00702474,0
2024-12-13 15:16:31.370,-0.267996,3.97657,9.27249,-0.0190126,0.0096972,-0.00702474,0
2024-12-13 15:16:31.372,-0.277567,3.98375,9.2677,-0.021456,0.0109189,-0.00274881,0
2024-12-13 15:16:31.372,-0.277567,3.98375,9.2677,-0.021456,0.0109189,-0.00274881,0
2024-12-13 15:16:31.374,-0.287438,3.98375,9.26531,-0.021456,0.0109189,-0.00274881,0
2024-12-13 15:16:31.377,-0.285045,3.98854,9.2677,-0.0208452,0.00725381,0.00213797,0
2024-12-13 15:16:31.379,-0.289831,3.99093,9.27966,-0.0232886,0.00725381,0.00274881,0
2024-12-13 15:16:31.382,-0.287438,3.98136,9.27727,-0.0232886,0.00786466,0.0051922,0
2024-12-13 15:16:31.384,-0.270389,3.96222,9.27488,-0.0232886,0.00847551,0.00763559,0
2024-12-13 15:16:31.384,-0.270389,3.96222,9.27488,-0.0232886,0.00847551,0.00763559,0
2024-12-13 15:16:31.389,-0.236889,3.97657,9.3012,-0.0251211,0.00847551,0.0113007,0
2024-12-13 15:16:31.389,-0.236889,3.97657,9.3012,-0.0251211,0.00847551,0.0113007,0
2024-12-13 15:16:31.391,-0.224925,3.97179,9.29881,-0.0245102,0.0109189,0.0131332,0
2024-12-13 15:16:31.393,-0.224925,3.97179,9.28924,-0.0257319,0.0096972,0.0137441,0
2024-12-13 15:16:31.396,-0.217747,3.94307,9.28684,-0.0257319,0.010308,0.0137441,0
2024-12-13 15:16:31.398,-0.205783,3.94307,9.28445,-0.0257319,0.010308,0.0137441,0
2024-12-13 15:16:31.400,-0.205783,3.94307,9.28445,-0.0300079,0.00908635,0.0143549,0
2024-12-13 15:16:31.403,-0.200997,3.93829,9.29402,-0.0306187,0.00786466,0.0155766,0
2024-12-13 15:16:31.403,-0.210568,3.93111,9.3012,-0.0306187,0.00786466,0.0155766,0
2024-12-13 15:16:31.405,-0.217747,3.92872,9.29163,-0.029397,0.0096972,0.0155766,0
2024-12-13 15:16:31.405,-0.217747,3.92872,9.29163,-0.029397,0.0096972,0.0155766,0
2024-12-13 15:16:31.407,-0.217747,3.92154,9.28924,-0.0287862,0.0115297,0.0143549,0
2024-12-13 15:16:31.410,-0.227318,3.91197,9.27966,-0.0281753,0.0121406,0.0137441,0
2024-12-13 15:16:31.412,-0.234497,3.91436,9.27727,-0.0287862,0.0139731,0.0161875,0
2024-12-13 15:16:31.415,-0.239282,3.91436,9.28206,-0.0269536,0.0158057,0.01802,0
2024-12-13 15:16:31.417,-0.253639,3.91675,9.27966,-0.0269536,0.0176382,0.0167983,0
2024-12-13 15:16:31.419,-0.256032,3.93111,9.27727,-0.0238994,0.0188599,0.01802,0
2024-12-13 15:16:31.422,-0.241675,3.93589,9.27488,-0.0190126,0.0176382,0.0174091,0
2024-12-13 15:16:31.424,-0.239282,3.9335,9.2677,-0.0190126,0.0176382,0.0174091,0
2024-12-13 15:16:31.424,-0.239282,3.9335,9.2677,-0.0190126,0.0176382,0.0174091,0
2024-12-13 15:16:31.426,-0.239282,3.94068,9.25783,-0.0171801,0.0121406,0.0167983,0
2024-12-13 15:16:31.429,-0.224925,3.95025,9.25305,-0.0122933,0.0096972,0.0167983,0
2024-12-13 15:16:31.431,-0.212961,3.95025,9.22672,-0.00984991,0.00908635,0.0149658,0
2024-12-13 15:16:31.431,-0.212961,3.95025,9.22672,-0.00984991,0.00908635,0.0149658,0
2024-12-13 15:16:31.434,-0.210568,3.92632,9.2004,-0.00862822,0.00481042,0.0149658,0
2024-12-13 15:16:31.436,-0.215354,3.91436,9.17647,-0.00557398,0.00542127,0.0119115,0
2024-12-13 15:16:31.438,-0.212961,3.91675,9.15494,-0.00496313,0.00358873,0.0131332,0
2024-12-13 15:16:31.440,-0.198604,3.89761,9.14297,-0.00435229,0.00419957,0.0113007,0
2024-12-13 15:16:31.443,-0.189033,3.89282,9.11905,-0.00740652,0.00419957,0.00824644,0
2024-12-13 15:16:31.445,-0.189033,3.89282,9.11905,-0.00679568,0.00297788,0.00885729,0
2024-12-13 15:16:31.445,-0.189033,3.88804,9.10708,-0.00679568,0.00297788,0.00885729,0
2024-12-13 15:16:31.447,-0.184247,3.8689,9.09512,-0.00679568,0.00297788,0.00946813,0
2024-12-13 15:16:31.447,-0.184247,3.8689,9.09512,-0.00679568,0.00297788,0.00946813,0
2024-12-13 15:16:31.450,-0.191426,3.85215,9.08794,-0.0104608,0.00175619,0.00885729,0
2024-12-13 15:16:31.450,-0.191426,3.85215,9.08794,-0.0104608,0.00175619,0.00885729,0
2024-12-13 15:16:31.455,-0.236889,3.81386,9.12623,-0.0129041,0.00236703,0.0051922,0
2024-12-13 15:16:31.455,-0.236889,3.81386,9.12623,-0.0129041,0.00236703,0.0051922,0
2024-12-13 15:16:31.459,-0.265603,3.80668,9.14058,-0.0104608,0.00297788,0.00335966,0
2024-12-13 15:16:31.462,-0.275175,3.78036,9.1334,-0.0104608,0.00297788,0.00335966,0
2024-12-13 15:16:31.464,-0.299402,3.77079,9.10708,-0.00557398,0.0096972,0.00335966,0
2024-12-13 15:16:31.466,-0.308973,3.77079,9.07837,-0.00129805,0.0115297,0.00152712,0
2024-12-13 15:16:31.469,-0.32333,3.78515,9.06162,0.00114534,0.0133623,0.00397051,0
2024-12-13 15:16:31.471,-0.32333,3.79472,9.0353,0.00542127,0.014584,0.000916271,0
2024-12-13 15:16:31.473,-0.32333,3.78036,8.99462,0.00542127,0.014584,0.000916271,0
2024-12-13 15:16:31.476,-0.325723,3.77557,8.9683,0.0109189,0.0151948,-0.00213797,0
2024-12-13 15:16:31.476,-0.325723,3.77557,8.9683,0.0109189,0.0151948,-0.00213797,0
2024-12-13 15:16:31.480,-0.344866,3.80429,8.87737,0.0164165,0.00725381,-0.0051922,0
2024-12-13 15:16:31.480,-0.344866,3.80429,8.87737,0.0164165,0.00725381,-0.0051922,0
2024-12-13 15:16:31.483,-0.342473,3.80668,8.83669,0.0176382,0.00175619,-0.00763559,0
2024-12-13 15:16:31.485,-0.342473,3.80668,8.78644,0.0176382,0.00175619,-0.00763559,0
2024-12-13 15:16:31.485,-0.32333,3.81625,8.78644,0.0176382,0.00175619,-0.00763559,0
2024-12-13 15:16:31.488,-0.308973,3.84497,8.74337,0.0176382,-0.00923906,-0.0137441,0
2024-12-13 15:16:31.492,-0.299402,3.84497,8.69283,0.014584,-0.0300079,-0.0235176,0
2024-12-13 15:16:31.492,-0.299402,3.84497,8.69283,0.014584,-0.0300079,-0.0235176,0
2024-12-13 15:16:31.495,-0.297009,3.86411,8.65693,0.00908635,-0.0422248,-0.0277936,0
2024-12-13 15:16:31.497,-0.325723,3.87368,8.62822,0.00175619,-0.0550526,-0.0326803,0
2024-12-13 15:16:31.499,-0.344866,3.87368,8.63779,-0.00374144,-0.0684913,-0.0345129,0
2024-12-13 15:16:31.499,-0.344866,3.87368,8.63779,-0.00374144,-0.0684913,-0.0345129,0
2024-12-13 15:16:31.504,-0.337687,3.90957,8.66411,-0.0184018,-0.093536,-0.0455081,0
2024-12-13 15:16:31.504,-0.337687,3.90957,8.66411,-0.0184018,-0.093536,-0.0455081,0
2024-12-13 15:16:31.506,-0.332901,3.91436,8.70748,-0.0287862,-0.108807,-0.0479515,0
2024-12-13 15:16:31.509,-0.32333,3.91197,8.74098,-0.0379489,-0.120413,-0.0491732,0
2024-12-13 15:16:31.511,-0.335294,3.92632,8.77927,-0.0465007,-0.130187,-0.0534491,0
2024-12-13 15:16:31.513,-0.335294,3.92632,8.84866,-0.0465007,-0.130187,-0.0534491,0
2024-12-13 15:16:31.516,-0.344866,3.91436,8.91566,-0.0666587,-0.144847,-0.05406,0
2024-12-13 15:16:31.516,-0.344866,3.91436,8.91566,-0.0666587,-0.144847,-0.05406,0
2024-12-13 15:16:31.518,-0.352044,3.89282,8.98744,-0.0764323,-0.150956,-0.0571142,0
2024-12-13 15:16:31.521,-0.34008,3.86411,9.05683,-0.0849841,-0.159507,-0.0571142,0
2024-12-13 15:16:31.523,-0.316152,3.84736,9.13819,-0.093536,-0.165005,-0.0558925,0
2024-12-13 15:16:31.525,-0.316152,3.84736,9.13819,-0.102088,-0.16867,-0.0552817,0
2024-12-13 15:16:31.528,-0.263211,3.79711,9.31556,-0.102088,-0.16867,-0.0552817,0
2024-12-13 15:16:31.528,-0.263211,3.79711,9.31556,-0.102088,-0.16867,-0.0552817,0
2024-12-13 15:16:31.532,-0.229711,3.71575,9.53809,-0.121024,-0.179665,-0.0552817,0
2024-12-13 15:16:31.532,-0.193819,3.71575,9.53809,-0.121024,-0.179665,-0.0552817,0
2024-12-13 15:16:31.532,-0.193819,3.71575,9.53809,-0.121024,-0.179665,-0.0552817,0
2024-12-13 15:16:31.535,-0.157926,3.68465,9.64098,-0.125911,-0.180887,-0.05406,0
2024-12-13 15:16:31.537,-0.117248,3.66551,9.73909,-0.127743,-0.180276,-0.0534491,0
2024-12-13 15:16:31.539,-0.0717847,3.63649,9.83031,-0.127743,-0.176611,-0.0558925,0
2024-12-13 15:16:31.542,-0.0334995,3.62931,9.89731,-0.124689,-0.170503,-0.05406,0
2024-12-13 15:16:31.544,0.0143569,3.6341,9.92842,-0.1253,-0.163783,-0.0558925,0
2024-12-13 15:16:31.546,0.0741775,3.60778,9.92842,-0.127743,-0.150345,-0.0565034,0
2024-12-13 15:16:31.549,0.145962,3.58385,9.91167,-0.127743,-0.150345,-0.0565034,0
2024-12-13 15:16:31.551,0.208176,3.55753,9.90449,-0.127743,-0.116137,-0.0613902,0
2024-12-13 15:16:31.551,0.208176,3.55753,9.90449,-0.127743,-0.116137,-0.0613902,0
2024-12-13 15:16:31.553,0.241675,3.50967,9.91406,-0.128965,-0.101477,-0.0681095,0
2024-12-13 15:16:31.556,0.256032,3.47378,9.93081,-0.128965,-0.101477,-0.0711637,0
2024-12-13 15:16:31.558,0.275175,3.45942,9.95953,-0.123468,-0.0825407,-0.0754396,0
2024-12-13 15:16:31.561,0.292223,3.46182,9.98824,-0.121024,-0.0788757,-0.0803264,0
2024-12-13 15:16:31.561,0.292223,3.46182,9.98824,-0.121024,-0.0788757,-0.0803264,0
2024-12-13 15:16:31.561,0.292223,3.46182,9.98824,-0.121024,-0.0788757,-0.0803264,0
2024-12-13 15:16:31.565,0.32333,3.49771,9.96192,-0.108196,-0.0739889,-0.0901,0
2024-12-13 15:16:31.568,0.361615,3.52403,9.90928,-0.0990336,-0.0721563,-0.0949868,0
2024-12-13 15:16:31.570,0.392722,3.54796,9.84946,-0.0904818,-0.0684913,-0.102317,0
2024-12-13 15:16:31.572,0.421436,3.56949,9.78934,-0.0800973,-0.0648262,-0.107815,0
2024-12-13 15:16:31.577,0.459721,3.59581,9.6673,-0.0605502,-0.0709346,-0.120642,0
2024-12-13 15:16:31.577,0.459721,3.59581,9.6673,-0.0605502,-0.0709346,-0.120642,0
2024-12-13 15:16:31.579,0.474078,3.61256,9.59073,-0.0526092,-0.0745997,-0.126751,0
2024-12-13 15:16:31.584,0.488435,3.63889,9.40409,-0.0318404,-0.0898709,-0.143855,0
2024-12-13 15:16:31.586,0.474078,3.66551,9.30838,-0.0238994,-0.0990336,-0.148741,0
2024-12-13 15:16:31.589,0.447757,3.68704,9.20519,-0.0122933,-0.106975,-0.156071,0
2024-12-13 15:16:31.589,0.447757,3.68704,9.20519,-0.0122933,-0.106975,-0.156071,0
2024-12-13 15:16:31.591,0.426222,3.699,9.08555,-0.00557398,-0.113694,-0.16218,0
2024-12-13 15:16:31.594,0.407079,3.71575,9.0018,0.00175619,-0.11797,-0.165234,0
2024-12-13 15:16:31.596,0.3999,3.72772,8.95873,0.00175619,-0.11797,-0.165234,0
2024-12-13 15:16:31.598,0.407079,3.7349,8.92762,0.0164165,-0.113083,-0.173175,0
2024-12-13 15:16:31.599,0.407079,3.7349,8.92762,0.0164165,-0.113083,-0.173175,0
2024-12-13 15:16:31.601,0.428614,3.75404,8.88216,0.0164165,-0.113083,-0.173175,0
2024-12-13 15:16:31.603,0.457328,3.78515,8.81755,0.0274118,-0.101477,-0.181727,0
2024-12-13 15:16:31.605,0.495613,3.82343,8.72662,0.0292443,-0.0953685,-0.184781,0
2024-12-13 15:16:31.608,0.533899,3.86411,8.62822,0.0292443,-0.0953685,-0.184781,0
2024-12-13 15:16:31.610,0.569791,3.9,8.52293,0.0316877,-0.085595,-0.197609,0
2024-12-13 15:16:31.610,0.569791,3.9,8.52293,0.0316877,-0.085595,-0.197609,0
2024-12-13 15:16:31.615,0.651147,3.94547,8.32194,0.0231358,-0.0800973,-0.209826,0
2024-12-13 15:16:31.615,0.651147,3.94547,8.32194,0.0231358,-0.0800973,-0.209826,0
2024-12-13 15:16:31.619,0.682254,3.94547,8.14487,0.0115297,-0.0709346,-0.228151,0
2024-12-13 15:16:31.619,0.703789,3.9335,8.14487,0.0115297,-0.0709346,-0.228151,0
2024-12-13 15:16:31.622,0.708575,3.90957,8.09671,0.00358873,-0.0666587,-0.233649,0
2024-12-13 15:16:31.622,0.708575,3.90957,8.09671,0.00358873,-0.0666587,-0.233649,0
2024-12-13 15:16:31.624,0.715753,3.89522,8.05604,0.00236703,-0.0629936,-0.243423,0
2024-12-13 15:16:31.627,0.727717,3.89043,7.99143,-0.00496313,-0.0581068,-0.249531,0
2024-12-13 15:16:31.629,0.751645,3.87129,7.94118,-0.0110716,-0.0538309,-0.25564,0
2024-12-13 15:16:31.631,0.751645,3.87129,7.94118,-0.0171801,-0.0501658,-0.264802,0
2024-12-13 15:16:31.634,0.809073,3.88086,7.8359,-0.021456,-0.041614,-0.272743,0
2024-12-13 15:16:31.634,0.809073,3.88086,7.8359,-0.021456,-0.041614,-0.272743,0
2024-12-13 15:16:31.636,0.82343,3.88804,7.78565,-0.021456,-0.041614,-0.272743,0
2024-12-13 15:16:31.638,0.830609,3.90718,7.72343,-0.0312296,-0.0257319,-0.290458,0
2024-12-13 15:16:31.641,0.859622,3.95264,7.65404,-0.0422248,-0.0177909,-0.29901,0
2024-12-13 15:16:31.643,0.881157,4.01725,7.58226,-0.0519984,-0.0141258,-0.307562,0
2024-12-13 15:16:31.645,0.864407,4.08903,7.51735,-0.0636045,-0.0116825,-0.316724,0
2024-12-13 15:16:31.645,0.864407,4.08903,7.51735,-0.0636045,-0.0116825,-0.316724,0
2024-12-13 15:16:31.648,0.847657,4.15125,7.48146,-0.0636045,-0.0116825,-0.316724,0
2024-12-13 15:16:31.650,0.830609,4.21376,7.45992,-0.0886492,-0.00557398,-0.337493,0
2024-12-13 15:16:31.652,0.804287,4.27597,7.42642,-0.100866,-0.00313059,-0.346656,0
2024-12-13 15:16:31.655,0.756431,4.3334,7.38814,-0.100866,-0.00313059,-0.346656,0
2024-12-13 15:16:31.657,0.708575,4.37887,7.36182,-0.121024,0.0121406,-0.368035,0
2024-12-13 15:16:31.657,0.708575,4.37887,7.36182,-0.121024,0.0121406,-0.368035,0
2024-12-13 15:16:31.659,0.689432,4.43151,7.34985,-0.128965,0.0243575,-0.379642,0
2024-12-13 15:16:31.659,0.689432,4.43151,7.34985,-0.128965,0.0243575,-0.379642,0
2024-12-13 15:16:31.659,0.689432,4.43151,7.34985,-0.128965,0.0243575,-0.379642,0
2024-12-13 15:16:31.667,0.634397,4.6014,7.21825,-0.157675,0.0377962,-0.415071,0
2024-12-13 15:16:31.669,0.622433,4.65404,7.168,-0.167449,0.0365745,-0.426677,0
2024-12-13 15:16:31.669,0.622433,4.65404,7.168,-0.167449,0.0365745,-0.426677,0
2024-12-13 15:16:31.674,0.565005,4.79552,7.16561,-0.194326,0.0255792,-0.446835,0
2024-12-13 15:16:31.674,0.565005,4.79552,7.16561,-0.194326,0.0255792,-0.446835,0
2024-12-13 15:16:31.676,0.569791,4.85294,7.18236,-0.208375,0.0170274,-0.45783,0
2024-12-13 15:16:31.678,0.591326,4.89123,7.22064,-0.208375,0.0170274,-0.45783,0
2024-12-13 15:16:31.681,0.60329,4.9343,7.25653,-0.245026,-0.00984991,-0.476155,0
2024-12-13 15:16:31.683,0.598505,4.97019,7.30918,-0.245026,-0.00984991,-0.476155,0
2024-12-13 15:16:31.685,0.648754,5.00608,7.39532,-0.282288,-0.0446682,-0.492648,0
2024-12-13 15:16:31.688,0.689432,5.05155,7.51496,-0.302446,-0.0660479,-0.498146,0
2024-12-13 15:16:31.688,0.689432,5.05155,7.51496,-0.302446,-0.0660479,-0.498146,0
2024-12-13 15:16:31.690,0.699003,5.09462,7.61815,-0.302446,-0.0660479,-0.498146,0
2024-12-13 15:16:31.692,0.742074,5.13051,7.68993,-0.336042,-0.108196,-0.509752,0
2024-12-13 15:16:31.695,0.809073,5.14248,7.78804,-0.336042,-0.108196,-0.509752,0
2024-12-13 15:16:31.695,0.809073,5.14248,7.78804,-0.336042,-0.108196,-0.509752,0
2024-12-13 15:16:31.697,0.88355,5.14248,7.87657,-0.380634,-0.148512,-0.518915,0
2024-12-13 15:16:31.700,0.969691,5.14008,7.95075,-0.403846,-0.170503,-0.521969,0
2024-12-13 15:16:31.702,1.06062,5.10658,8.05604,-0.431335,-0.193715,-0.526245,0
2024-12-13 15:16:31.704,1.12522,5.07548,8.19273,-0.463099,-0.216316,-0.531132,0
2024-12-13 15:16:31.707,1.18265,5.04198,8.35065,-0.500971,-0.245026,-0.534186,0
2024-12-13 15:16:31.707,1.18265,5.04198,8.35065,-0.500971,-0.245026,-0.534186,0
2024-12-13 15:16:31.709,1.24008,5.0013,8.5349,-0.538233,-0.273736,-0.534797,0
2024-12-13 15:16:31.711,1.29751,4.95344,8.75294,-0.57916,-0.302446,-0.536018,0
2024-12-13 15:16:31.714,1.35015,4.9008,8.98744,-0.57916,-0.302446,-0.536018,0
2024-12-13 15:16:31.716,1.38126,4.83619,9.20758,-0.664067,-0.356811,-0.53724,0
2024-12-13 15:16:31.716,1.38126,4.83619,9.20758,-0.664067,-0.356811,-0.53724,0
2024-12-13 15:16:31.718,1.38604,4.76172,9.41127,-0.664067,-0.356811,-0.53724,0
2024-12-13 15:16:31.721,1.37169,4.71865,9.63141,-0.744699,-0.381245,-0.530521,0
2024-12-13 15:16:31.723,1.35254,4.666,9.84228,-0.783793,-0.381856,-0.523191,0
2024-12-13 15:16:31.725,1.31426,4.60379,10.0337,-0.819833,-0.375747,-0.517082,0
2024-12-13 15:16:31.725,1.31426,4.60379,10.0337,-0.819833,-0.375747,-0.517082,0
2024-12-13 15:16:31.728,1.27358,4.53918,10.2323,-0.850376,-0.366585,-0.509141,0
2024-12-13 15:16:31.730,1.25683,4.46979,10.4504,-0.878475,-0.351314,-0.498757,0
2024-12-13 15:16:31.732,1.2329,4.40758,10.649,-0.903519,-0.331766,-0.489594,0
2024-12-13 15:16:31.735,1.17547,4.34776,10.8547,-0.924288,-0.316495,-0.478599,0
2024-12-13 15:16:31.735,1.17547,4.34776,10.8547,-0.924288,-0.316495,-0.478599,0
2024-12-13 15:16:31.740,0.909871,4.29512,11.4987,-0.954831,-0.294505,-0.45783,0
2024-12-13 15:16:31.740,0.909871,4.29512,11.4987,-0.954831,-0.294505,-0.45783,0
2024-12-13 15:16:31.742,0.782752,4.23769,11.779,-0.962161,-0.273736,-0.446835,0
2024-12-13 15:16:31.744,0.679861,4.19671,12.0206,-0.957274,-0.243194,-0.427898,0
2024-12-13 15:16:31.747,0.586541,4.1345,12.2315,-0.943225,-0.206543,-0.410184,0
2024-12-13 15:16:31.747,0.586541,4.1345,12.2315,-0.943225,-0.206543,-0.410184,0
2024-12-13 15:16:31.751,0.3999,4.01725,12.612,-0.902298,-0.127133,-0.366203,0
2024-12-13 15:16:31.751,0.3999,4.01725,12.612,-0.902298,-0.127133,-0.366203,0
2024-12-13 15:16:31.754,0.299402,3.96939,12.763,-0.874199,-0.0849841,-0.346656,0
2024-12-13 15:16:31.756,0.179462,3.9335,12.8922,-0.874199,-0.041614,-0.327109,0
2024-12-13 15:16:31.758,0.0885344,3.90957,13.0406,-0.806395,-0.00679568,-0.310005,0
2024-12-13 15:16:31.761,0.0454636,3.87847,13.1842,-0.806395,-0.00679568,-0.310005,0
2024-12-13 15:16:31.763,0.00717847,3.8689,13.3065,-0.720265,0.058565,-0.278241,0
2024-12-13 15:16:31.763,0.00717847,3.8689,13.3065,-0.720265,0.058565,-0.278241,0
2024-12-13 15:16:31.765,-0.0454636,3.87847,13.4142,-0.675063,0.0927724,-0.26297,0
2024-12-13 15:16:31.768,-0.112463,3.88804,13.4859,-0.624362,0.123315,-0.249531,0
2024-12-13 15:16:31.770,-0.177069,3.90957,13.5242,-0.57244,0.156301,-0.235482,0
2024-12-13 15:16:31.770,-0.177069,3.90957,13.5242,-0.57244,0.156301,-0.235482,0
2024-12-13 15:16:31.775,-0.227318,3.91914,13.4931,-0.461266,0.225326,-0.212269,0
2024-12-13 15:16:31.775,-0.265603,3.92393,13.4931,-0.461266,0.225326,-0.212269,0
2024-12-13 15:16:31.777,-0.299402,3.92872,13.4189,-0.405679,0.257701,-0.199442,0
2024-12-13 15:16:31.780,-0.344866,3.92632,13.2969,-0.348259,0.288244,-0.188446,0
2024-12-13 15:16:31.782,-0.390329,3.94068,13.1674,-0.293283,0.312067,-0.178062,0
2024-12-13 15:16:31.784,-0.452543,3.94068,13.0214,-0.241972,0.330392,-0.168288,0
2024-12-13 15:16:31.787,-0.514756,3.94068,12.8492,-0.189439,0.345663,-0.159737,0
2024-12-13 15:16:31.787,-0.514756,3.94068,12.8492,-0.189439,0.345663,-0.159737,0
2024-12-13 15:16:31.789,-0.541077,3.95264,12.6649,-0.141182,0.355437,-0.146298,0
2024-12-13 15:16:31.791,-0.569791,3.967,12.4875,-0.0965902,0.35788,-0.137746,0
2024-12-13 15:16:31.794,-0.596112,4.0005,12.32,-0.0556635,0.352993,-0.125529,0
2024-12-13 15:16:31.796,-0.600898,4.04596,12.143,-0.0556635,0.352993,-0.125529,0
2024-12-13 15:16:31.796,-0.600898,4.04596,12.143,-0.0556635,0.352993,-0.125529,0
2024-12-13 15:16:31.798,-0.586541,4.09382,11.9513,0.0109189,0.323062,-0.105371,0
2024-12-13 15:16:31.801,-0.562612,4.13689,11.7503,0.0408504,0.299239,-0.0992627,0
2024-12-13 15:16:31.801,-0.562612,4.13689,11.7503,0.0408504,0.299239,-0.0992627,0
2024-12-13 15:16:31.806,-0.548256,4.21855,11.403,0.0897182,0.250371,-0.0949868,0
2024-12-13 15:16:31.806,-0.548256,4.21855,11.403,0.0897182,0.250371,-0.0949868,0
2024-12-13 15:16:31.810,-0.488435,4.31187,11.0345,0.128812,0.199671,-0.0968193,0
2024-12-13 15:16:31.810,-0.488435,4.31187,11.0345,0.128812,0.199671,-0.0968193,0
2024-12-13 15:16:31.813,-0.505185,4.35015,10.8667,0.150192,0.17768,-0.100484,0
2024-12-13 15:16:31.813,-0.505185,4.35015,10.8667,0.150192,0.17768,-0.100484,0
2024-12-13 15:16:31.817,-0.56022,4.37647,10.5485,0.181956,0.133699,-0.11148,0
2024-12-13 15:16:31.820,-0.60329,4.37169,10.3953,0.200892,0.113541,-0.120031,0
2024-12-13 15:16:31.820,-0.60329,4.37169,10.3953,0.200892,0.113541,-0.120031,0
2024-12-13 15:16:31.822,-0.65354,4.34776,10.2562,0.218607,0.094605,-0.129805,0
2024-12-13 15:16:31.824,-0.706182,4.31905,10.1079,0.234489,0.0793338,-0.141411,0
2024-12-13 15:16:31.827,-0.768395,4.29272,9.94995,0.254647,0.0634518,-0.14752,0
2024-12-13 15:16:31.829,-0.837787,4.27597,9.8013,0.273583,0.0518457,-0.157293,0
2024-12-13 15:16:31.829,-0.837787,4.27597,9.8013,0.273583,0.0518457,-0.157293,0
2024-12-13 15:16:31.834,-0.895514,4.22094,9.45913,0.296185,0.0359636,-0.170732,0
2024-12-13 15:16:31.834,-0.948156,4.22094,9.45913,0.296185,0.0359636,-0.170732,0
2024-12-13 15:16:31.836,-1.01515,4.20389,9.28684,0.307791,0.0310769,-0.175008,0
2024-12-13 15:16:31.838,-1.0989,4.18475,9.1023,0.307791,0.0310769,-0.179895,0
2024-12-13 15:16:31.841,-1.19701,4.16321,8.91566,0.323062,0.0286335,-0.182949,0
2024-12-13 15:16:31.841,-1.19701,4.16321,8.91566,0.323062,0.0286335,-0.182949,0
2024-12-13 15:16:31.846,-1.3334,4.12014,8.61865,0.329781,0.0316877,-0.18356,0
2024-12-13 15:16:31.846,-1.3334,4.12014,8.61865,0.329781,0.0316877,-0.18356,0
2024-12-13 15:16:31.848,-1.38365,4.09382,8.51336,0.333446,0.0329094,-0.181116,0
2024-12-13 15:16:31.850,-1.41027,4.05554,8.42962,0.333446,0.0329094,-0.181116,0
2024-12-13 15:16:31.853,-1.41506,4.02443,8.35544,0.338333,0.0371853,-0.17684,0
2024-12-13 15:16:31.855,-1.41506,4.02204,8.24776,0.340776,0.0402396,-0.175619,0
2024-12-13 15:16:31.855,-1.40548,4.02204,8.24776,0.340776,0.0402396,-0.175619,0
2024-12-13 15:16:31.857,-1.4004,4.00529,8.11107,0.341387,0.046348,-0.171953,0
2024-12-13 15:16:31.860,-1.37408,3.98136,7.98664,0.338333,0.0481806,-0.170732,0
2024-12-13 15:16:31.860,-1.37408,3.98136,7.98664,0.338333,0.0481806,-0.170732,0
2024-12-13 15:16:31.864,-1.31186,3.92154,7.78325,0.335279,0.0524565,-0.16951,0
2024-12-13 15:16:31.864,-1.31186,3.92154,7.78325,0.335279,0.0524565,-0.16951,0
2024-12-13 15:16:31.867,-1.27837,3.89522,7.69472,0.331003,0.0561216,-0.170732,0
2024-12-13 15:16:31.869,-1.23529,3.8689,7.62293,0.327338,0.0567324,-0.173175,0
2024-12-13 15:16:31.871,-1.18505,3.84736,7.57986,0.323673,0.0555107,-0.177451,0
2024-12-13 15:16:31.871,-1.18505,3.84736,7.57986,0.323673,0.0555107,-0.177451,0
2024-12-13 15:16:31.876,-1.04387,3.80907,7.47667,0.313288,0.0561216,-0.189057,0
2024-12-13 15:16:31.876,-1.04387,3.80907,7.47667,0.313288,0.0561216,-0.189057,0
2024-12-13 15:16:31.879,-1.00798,3.7995,7.43121,0.309012,0.0548999,-0.195166,0
2024-12-13 15:16:31.881,-0.986441,3.77557,7.38575,0.304736,0.0561216,-0.202496,0
2024-12-13 15:16:31.883,-0.919442,3.75883,7.34507,0.299239,0.0561216,-0.209215,0
2024-12-13 15:16:31.883,-0.919442,3.75883,7.34507,0.299239,0.0561216,-0.209215,0
2024-12-13 15:16:31.888,-0.758824,3.68943,7.35464,0.29313,0.0567324,-0.216545,0
2024-12-13 15:16:31.888,-0.758824,3.68943,7.35464,0.29313,0.0567324,-0.216545,0
2024-12-13 15:16:31.890,-0.703789,3.66072,7.37378,0.284578,0.0475697,-0.231817,0
2024-12-13 15:16:31.893,-0.663111,3.6341,7.38575,0.280303,0.0420721,-0.240368,0
2024-12-13 15:16:31.895,-0.596112,3.61735,7.39053,0.277859,0.0371853,-0.247699,0
2024-12-13 15:16:31.895,-0.596112,3.61735,7.39053,0.277859,0.0371853,-0.247699,0
2024-12-13 15:16:31.900,-0.4669,3.59821,7.4336,0.271751,0.0231358,-0.268467,0
2024-12-13 15:16:31.902,-0.4669,3.59821,7.44078,0.267475,0.0200816,-0.275187,0
2024-12-13 15:16:31.902,-0.404686,3.58624,7.44078,0.267475,0.0200816,-0.275187,0
2024-12-13 15:16:31.904,-0.352044,3.54078,7.44557,0.264421,0.0158057,-0.28496,0
2024-12-13 15:16:31.907,-0.32333,3.49771,7.45275,0.260145,0.0121406,-0.293512,0
2024-12-13 15:16:31.909,-0.30658,3.45464,7.45753,0.258923,0.00908635,-0.300231,0
2024-12-13 15:16:31.912,-0.267996,3.40917,7.4671,0.258312,0.00297788,-0.308783,0
2024-12-13 15:16:31.912,-0.267996,3.40917,7.4671,0.258312,0.00297788,-0.308783,0
2024-12-13 15:16:31.914,-0.224925,3.3996,7.47189,0.255869,-7.63559e-05,-0.316113,0
2024-12-13 15:16:31.916,-0.205783,3.39721,7.47667,0.252814,-0.00496313,-0.321611,0
2024-12-13 15:16:31.919,-0.210568,3.39242,7.45992,0.250982,-0.00740652,-0.32833,0
2024-12-13 15:16:31.921,-0.215354,3.3661,7.4671,0.244873,-0.0110716,-0.333828,0
2024-12-13 15:16:31.923,-0.215354,3.3661,7.48624,0.239376,-0.0165692,-0.341158,0
2024-12-13 15:16:31.923,-0.208176,3.31585,7.48624,0.239376,-0.0165692,-0.341158,0
2024-12-13 15:16:31.926,-0.215354,3.27996,7.49103,0.236932,-0.0208452,-0.346045,0
2024-12-13 15:16:31.928,-0.215354,3.27996,7.49582,0.236932,-0.0208452,-0.346045,0
2024-12-13 15:16:31.930,-0.239282,3.29193,7.47907,0.227159,-0.0184018,-0.350932,0
2024-12-13 15:16:31.930,-0.239282,3.29193,7.47907,0.227159,-0.0184018,-0.350932,0
2024-12-13 15:16:31.930,-0.239282,3.29193,7.47907,0.227159,-0.0184018,-0.350932,0
2024-12-13 15:16:31.935,-0.246461,3.27278,7.46949,0.217385,-0.0116825,-0.355208,0
2024-12-13 15:16:31.937,-0.234497,3.268,7.4671,0.217385,-0.0116825,-0.355208,0
2024-12-13 15:16:31.940,-0.256032,3.27518,7.47428,0.200892,-0.00618483,-0.35704,0
2024-12-13 15:16:31.942,-0.294616,3.28475,7.45514,0.194784,-7.63559e-05,-0.359484,0
2024-12-13 15:16:31.944,-0.34008,3.28953,7.42882,0.194784,-7.63559e-05,-0.358262,0
2024-12-13 15:16:31.947,-0.380758,3.31825,7.40967,0.17768,0.0127514,-0.35704,0
2024-12-13 15:16:31.949,-0.397508,3.35414,7.41207,0.17768,0.0219141,-0.356429,0
2024-12-13 15:16:31.952,-0.3999,3.34696,7.45992,0.154468,0.0298552,-0.354597,0
2024-12-13 15:16:31.952,-0.3999,3.34696,7.45992,0.154468,0.0298552,-0.354597,0
2024-12-13 15:16:31.954,-0.409472,3.33739,7.52214,0.143473,0.0341311,-0.354597,0
2024-12-13 15:16:31.956,-0.438186,3.35175,7.55085,0.13431,0.0371853,-0.351543,0
2024-12-13 15:16:31.959,-0.481256,3.37567,7.55803,0.125758,0.042683,-0.347878,0
2024-12-13 15:16:31.961,-0.529113,3.40439,7.56521,0.125758,0.042683,-0.347878,0
2024-12-13 15:16:31.963,-0.588933,3.4355,7.57986,0.108654,0.0561216,-0.338715,0
2024-12-13 15:16:31.966,-0.641576,3.45703,7.58704,0.100713,0.0646735,-0.331995,0
2024-12-13 15:16:31.968,-0.677468,3.46421,7.57747,0.0897182,0.0762796,-0.324054,0
2024-12-13 15:16:31.970,-0.715753,3.47617,7.57478,0.0805555,0.0884965,-0.314281,0
2024-12-13 15:16:31.973,-0.727717,3.49532,7.56999,0.0683385,0.0976592,-0.303897,0
2024-12-13 15:16:31.975,-0.71336,3.51207,7.58704,0.058565,0.1056,-0.291069,0
2024-12-13 15:16:31.977,-0.694218,3.54078,7.63011,0.0481806,0.110487,-0.281295,0
2024-12-13 15:16:31.980,-0.701396,3.57906,7.68993,0.0365745,0.113541,-0.266024,0
2024-12-13 15:16:31.982,-0.737288,3.59342,7.74975,0.0237467,0.115374,-0.253196,0
2024-12-13 15:16:31.987,-0.773181,3.69422,7.85743,0.0115297,0.118428,-0.236092,0
2024-12-13 15:16:31.989,-0.773181,3.69422,7.85743,-0.0141258,0.114152,-0.201885,0
2024-12-13 15:16:31.992,-0.734896,3.75643,7.98186,-0.0226777,0.111098,-0.182949,0
2024-12-13 15:16:31.994,-0.73011,3.78754,8.05604,-0.037338,0.104379,-0.165845,0
2024-12-13 15:16:31.994,-0.73011,3.78754,8.05604,-0.037338,0.104379,-0.165845,0
2024-12-13 15:16:31.996,-0.699003,3.81147,8.15205,-0.0477224,0.0994917,-0.14813,0
2024-12-13 15:16:31.999,-0.651147,3.833,8.25015,-0.0544418,0.0933833,-0.130416,0
2024-12-13 15:16:32.001,-0.62004,3.85215,8.36022,-0.0642153,0.0817772,-0.115145,0
2024-12-13 15:16:32.006,-0.610469,3.86172,8.57318,-0.0758214,0.0610084,-0.082159,0
2024-12-13 15:16:32.006,-0.612862,3.89043,8.57318,-0.0758214,0.0610084,-0.082159,0
2024-12-13 15:16:32.008,-0.600898,3.91914,8.69283,-0.0825407,0.0500131,-0.0662769,0
2024-12-13 15:16:32.010,-0.569791,3.94307,8.81037,-0.0849841,0.0377962,-0.05406,0
2024-12-13 15:16:32.013,-0.545863,3.98854,8.89891,-0.0898709,0.0237467,-0.0406213,0
2024-12-13 15:16:32.015,-0.514756,4.01246,9.0018,-0.0978119,0.00847551,-0.0265719,0
2024-12-13 15:16:32.020,-0.495613,4.12014,9.18844,-0.102088,-0.00618483,-0.0131332,0
2024-12-13 15:16:32.022,-0.500399,4.16561,9.29402,-0.111251,-0.041614,0.0064139,0
2024-12-13 15:16:32.025,-0.512363,4.21376,9.42323,-0.111251,-0.041614,0.0064139,0
2024-12-13 15:16:32.027,-0.512363,4.2688,9.55484,-0.124078,-0.0849841,0.0271827,0
2024-12-13 15:16:32.029,-0.498006,4.2999,9.6697,-0.124078,-0.0849841,0.0271827,0
2024-12-13 15:16:32.032,-0.486042,4.34297,9.77019,-0.13996,-0.125911,0.0479515,0
2024-12-13 15:16:32.032,-0.486042,4.34297,9.77019,-0.13996,-0.125911,0.0479515,0
2024-12-13 15:16:32.034,-0.469292,4.40758,9.87338,-0.147901,-0.143625,0.0552817,0
2024-12-13 15:16:32.036,-0.447757,4.44586,9.98345,-0.155842,-0.16134,0.0656661,0
2024-12-13 15:16:32.039,-0.409472,4.4674,10.0744,-0.163783,-0.174168,0.0754396,0
2024-12-13 15:16:32.043,-0.404686,4.51765,10.285,-0.171114,-0.199213,0.0931542,0
2024-12-13 15:16:32.046,-0.442971,4.55833,10.4456,-0.186996,-0.209597,0.105371,0
2024-12-13 15:16:32.046,-0.442971,4.55833,10.4456,-0.186996,-0.209597,0.105371,0
2024-12-13 15:16:32.048,-0.452543,4.59661,10.6083,-0.186996,-0.209597,0.105371,0
2024-12-13 15:16:32.053,-0.45015,4.64686,10.8978,-0.202878,-0.236474,0.139044,0
2024-12-13 15:16:32.053,-0.4334,4.64686,10.8978,-0.202878,-0.236474,0.139044,0
2024-12-13 15:16:32.055,-0.409472,4.67318,11.0441,-0.205321,-0.235253,0.151261,0
2024-12-13 15:16:32.058,-0.395115,4.68754,11.1996,-0.204099,-0.229755,0.165311,0
2024-12-13 15:16:32.060,-0.380758,4.71625,11.391,-0.20471,-0.221814,0.17936,0
2024-12-13 15:16:32.062,-0.368794,4.74975,11.5804,-0.197991,-0.216927,0.192188,0
2024-12-13 15:16:32.065,-0.35683,4.7665,11.7311,-0.193715,-0.21143,0.206237,0
2024-12-13 15:16:32.067,-0.352044,4.80987,11.8484,-0.186385,-0.206543,0.217843,0
2024-12-13 15:16:32.069,-0.347258,4.84577,11.9536,-0.183941,-0.199823,0.230671,0
2024-12-13 15:16:32.072,-0.354437,4.85534,12.0664,-0.181498,-0.191882,0.243499,0
2024-12-13 15:16:32.074,-0.387936,4.86491,12.186,-0.17539,-0.179665,0.25877,0
2024-12-13 15:16:32.076,-0.4334,4.86491,12.2889,-0.167449,-0.165616,0.274652,0
2024-12-13 15:16:32.081,-0.445364,4.87448,12.4397,-0.160729,-0.151566,0.291756,0
2024-12-13 15:16:32.083,-0.442971,4.88166,12.4971,-0.152788,-0.11797,0.329018,0
2024-12-13 15:16:32.086,-0.423829,4.88884,12.5641,-0.148512,-0.0978119,0.346121,0
2024-12-13 15:16:32.086,-0.423829,4.88884,12.5641,-0.148512,-0.0978119,0.346121,0
2024-12-13 15:16:32.088,-0.438186,4.89123,12.6458,-0.140571,-0.0764323,0.362003,0
2024-12-13 15:16:32.091,-0.445364,4.91037,12.7271,-0.132019,-0.0550526,0.379107,0
2024-12-13 15:16:32.093,-0.423829,4.92473,12.7893,-0.124689,-0.0318404,0.394378,0
2024-12-13 15:16:32.095,-0.409472,4.93191,12.8133,-0.115526,-0.0122933,0.407206,0
2024-12-13 15:16:32.100,-0.383151,4.97737,12.8372,-0.113083,0.00664296,0.421866,0
2024-12-13 15:16:32.102,-0.3999,4.99891,12.8061,-0.102088,0.0335202,0.440803,0
2024-12-13 15:16:32.105,-0.411865,5.04437,12.763,-0.0978119,0.0451263,0.451187,0
2024-12-13 15:16:32.107,-0.421436,5.08265,12.708,-0.0965902,0.0536782,0.459128,0
2024-12-13 15:16:32.109,-0.41665,5.14008,12.6506,-0.0965902,0.0536782,0.459128,0
2024-12-13 15:16:32.112,-0.411865,5.22144,12.5809,-0.0953685,0.0616192,0.471345,0
2024-12-13 15:16:32.112,-0.411865,5.22144,12.5809,-0.0953685,0.0616192,0.471345,0
2024-12-13 15:16:32.114,-0.392722,5.27169,12.5043,-0.0984228,0.0640626,0.474399,0
2024-12-13 15:16:32.116,-0.385544,5.32433,12.411,-0.104531,0.0640626,0.476843,0
2024-12-13 15:16:32.119,-0.392722,5.38206,12.3033,-0.108807,0.0652843,0.476232,0
2024-12-13 15:16:32.123,-0.378365,5.46581,12.1334,-0.113083,0.0720036,0.476232,0
2024-12-13 15:16:32.126,-0.378365,5.46581,12.1334,-0.11797,0.0756687,0.47501,0
2024-12-13 15:16:32.128,-0.366401,5.58545,11.9848,-0.120413,0.0787229,0.470734,0
2024-12-13 15:16:32.128,-0.35683,5.58545,11.9848,-0.120413,0.0787229,0.470734,0
2024-12-13 15:16:32.131,-0.344866,5.65245,11.9345,-0.123468,0.0768904,0.465847,0
2024-12-13 15:16:32.133,-0.332901,5.71705,11.913,-0.127133,0.0720036,0.46035,0
2024-12-13 15:16:32.135,-0.316152,5.78884,11.8938,-0.125911,0.066506,0.454241,0
2024-12-13 15:16:32.138,-0.267996,5.85344,11.8555,-0.125911,0.0628409,0.442024,0
2024-12-13 15:16:32.140,-0.179462,5.91117,11.8053,-0.125911,0.0597867,0.427975,0
2024-12-13 15:16:32.142,-0.107677,5.98774,11.7191,-0.127743,0.0567324,0.413315,0
2024-12-13 15:16:32.147,0.0143569,6.10738,11.5564,-0.130187,0.0524565,0.393157,0
2024-12-13 15:16:32.149,0.0622134,6.14567,11.4772,-0.140571,0.0445155,0.348565,0
2024-12-13 15:16:32.152,0.0981057,6.16481,11.4126,-0.140571,0.0445155,0.318022,0
2024-12-13 15:16:32.154,0.129212,6.19113,11.3719,-0.16134,0.0298552,0.288702,0
2024-12-13 15:16:32.156,0.165105,6.21984,11.3312,-0.16134,0.0298552,0.288702,0
2024-12-13 15:16:32.159,0.174676,6.24138,11.3073,-0.185163,0.0121406,0.230671,0
2024-12-13 15:16:32.161,0.196211,6.26531,11.3001,-0.185163,0.0121406,0.230671,0
2024-12-13 15:16:32.164,0.224925,6.28445,11.3216,-0.216316,-0.013515,0.170808,0
2024-12-13 15:16:32.164,0.224925,6.28445,11.3216,-0.216316,-0.013515,0.170808,0
2024-12-13 15:16:32.166,0.241675,6.28445,11.3623,-0.237085,-0.0269536,0.142709,0
2024-12-13 15:16:32.171,0.32333,6.21984,11.4891,-0.27679,-0.0477224,0.0888783,0
2024-12-13 15:16:32.171,0.32333,6.21984,11.4891,-0.27679,-0.0477224,0.0888783,0
2024-12-13 15:16:32.173,0.35683,6.20549,11.5851,-0.296948,-0.0593285,0.062001,0
2024-12-13 15:16:32.175,0.361615,6.18634,11.7072,-0.314052,-0.0709346,0.0393996,0
2024-12-13 15:16:32.178,0.337687,6.1672,11.8508,-0.332377,-0.081319,0.01802,0
2024-12-13 15:16:32.180,0.297009,6.15524,11.98,-0.346427,-0.0892601,-0.00397051,0
2024-12-13 15:16:32.185,0.224925,6.08106,12.2411,-0.372082,-0.0990336,-0.0345129,0
2024-12-13 15:16:32.185,0.224925,6.08106,12.2411,-0.372082,-0.0990336,-0.0345129,0
2024-12-13 15:16:32.187,0.222533,6.0356,12.3535,-0.383688,-0.0984228,-0.0485624,0
2024-12-13 15:16:32.189,0.215354,6.01167,12.4923,-0.394073,-0.0972011,-0.0626118,0
2024-12-13 15:16:32.194,0.184247,5.92074,12.8181,-0.40629,-0.0917034,-0.085824,0
2024-12-13 15:16:32.194,0.184247,5.92074,12.8181,-0.40629,-0.0917034,-0.085824,0
2024-12-13 15:16:32.197,0.160319,5.88933,12.976,-0.409955,-0.0929251,-0.098041,0
2024-12-13 15:16:32.199,0.100499,5.83191,13.1459,-0.411177,-0.0953685,-0.109036,0
2024-12-13 15:16:32.201,0.0287139,5.73141,13.2921,-0.410566,-0.0910926,-0.11881,0
2024-12-13 15:16:32.206,-0.00957129,5.52563,13.5482,-0.403846,-0.081319,-0.131638,0
2024-12-13 15:16:32.206,-0.0550349,5.52563,13.5482,-0.403846,-0.081319,-0.131638,0
2024-12-13 15:16:32.208,-0.124427,5.44666,13.6487,-0.401403,-0.0745997,-0.136524,0
2024-12-13 15:16:32.211,-0.196211,5.34856,13.7468,-0.395905,-0.0703238,-0.137746,0
2024-12-13 15:16:32.213,-0.265603,5.20469,13.8356,-0.39224,-0.0672696,-0.139579,0
2024-12-13 15:16:32.218,-0.385544,4.92234,14.0055,-0.389797,-0.0629936,-0.138357,0
2024-12-13 15:16:32.220,-0.45015,4.77159,14.1108,-0.383078,-0.0666587,-0.131027,0
2024-12-13 15:16:32.222,-0.505185,4.60858,14.2328,-0.381856,-0.0703238,-0.124918,0
2024-12-13 15:16:32.225,-0.562612,4.46261,14.3743,-0.378802,-0.0709346,-0.116366,0
2024-12-13 15:16:32.225,-0.562612,4.46261,14.3743,-0.378802,-0.0709346,-0.116366,0
2024-12-13 15:16:32.227,-0.615255,4.33579,14.5107,-0.375747,-0.073378,-0.109647,0
2024-12-13 15:16:32.229,-0.655932,4.21137,14.6519,-0.369028,-0.0745997,-0.0992627,0
2024-12-13 15:16:32.232,-0.691825,4.07946,14.7882,-0.36292,-0.0752106,-0.0839915,0
2024-12-13 15:16:32.234,-0.725324,3.95264,14.9273,-0.353146,-0.0739889,-0.0711637,0
2024-12-13 15:16:32.237,-0.770788,3.84257,15.0709,-0.345205,-0.0721563,-0.0558925,0
2024-12-13 15:16:32.239,-0.828216,3.7349,15.224,-0.336042,-0.0697129,-0.0375671,0
2024-12-13 15:16:32.241,-0.864407,3.63649,15.3748,-0.324436,-0.0666587,-0.0186308,0
2024-12-13 15:16:32.244,-0.873978,3.51685,15.5091,-0.308554,-0.0617719,0.000916271,0
2024-12-13 15:16:32.246,-0.864407,3.38525,15.6168,-0.288396,-0.0587177,0.0192417,0
2024-12-13 15:16:32.248,-0.8668,3.2656,15.7268,-0.288396,-0.0587177,0.0192417,0
2024-12-13 15:16:32.251,-0.845265,3.12682,15.8513,-0.241972,-0.0434465,0.0644444,0
2024-12-13 15:16:32.253,-0.770788,2.99013,15.9685,-0.213873,-0.0348946,0.085824,0
2024-12-13 15:16:32.255,-0.732503,2.85374,16.0502,-0.182109,-0.0232886,0.10476,0
2024-12-13 15:16:32.262,-0.672682,2.54267,16.2009,-0.0636045,0.0194708,0.171419,1
2024-12-13 15:16:32.262,-0.634397,2.39641,16.2009,-0.0636045,0.0194708,0.171419,1
2024-12-13 15:16:32.265,-0.591326,2.26481,16.232,-0.013515,0.0341311,0.195242,0
2024-12-13 15:16:32.267,-0.56022,2.12842,16.22,0.0390179,0.0487914,0.216622,0
2024-12-13 15:16:32.267,-0.56022,2.12842,16.22,0.0390179,0.0487914,0.216622,0
2024-12-13 15:16:32.272,-0.476471,1.87208,16.1219,0.155079,0.0854423,0.262435,0
2024-12-13 15:16:32.274,-0.421436,1.75962,15.9781,0.216164,0.106211,0.286258,0
2024-12-13 15:16:32.277,-0.387936,1.65194,15.7914,0.282746,0.133088,0.312525,0
2024-12-13 15:16:32.277,-0.387936,1.65194,15.7914,0.282746,0.133088,0.312525,0
2024-12-13 15:16:32.279,-0.373579,1.57059,15.5809,0.35055,0.162409,0.337569,0
2024-12-13 15:16:32.281,-0.366401,1.51555,15.3269,0.419041,0.193562,0.361392,0
2024-12-13 15:16:32.284,-0.361615,1.4653,15.0254,0.484402,0.226548,0.385216,0
2024-12-13 15:16:32.286,-0.368794,1.42702,14.683,0.484402,0.226548,0.385216,0
2024-12-13 15:16:32.291,-0.361615,1.41027,14.0055,0.676819,0.320008,0.449355,0
2024-12-13 15:16:32.291,-0.361615,1.41027,14.0055,0.676819,0.320008,0.449355,0
2024-12-13 15:16:32.295,-0.464507,1.44377,13.3854,0.802042,0.352993,0.484173,0
2024-12-13 15:16:32.295,-0.464507,1.44377,13.3854,0.802042,0.352993,0.484173,0
2024-12-13 15:16:32.300,-0.615255,1.5658,12.6482,0.918103,0.393309,0.513493,0
2024-12-13 15:16:32.300,-0.615255,1.5658,12.6482,0.918103,0.393309,0.513493,0
2024-12-13 15:16:32.303,-0.629611,1.6017,12.2267,0.974912,0.424462,0.527543,0
2024-12-13 15:16:32.305,-0.646361,1.61605,11.822,1.0305,0.453783,0.53976,0
2024-12-13 15:16:32.307,-0.710967,1.64237,11.4293,1.07998,0.481271,0.553199,0
2024-12-13 15:16:32.310,-0.792323,1.66391,11.0225,1.12396,0.504483,0.566637,0
2024-12-13 15:16:32.312,-0.890728,1.68544,10.5939,1.16733,0.530139,0.580076,0
2024-12-13 15:16:32.314,-0.979263,1.71894,10.139,1.20031,0.54541,0.595347,0
2024-12-13 15:16:32.317,-1.0343,1.7333,9.6673,1.23086,0.560681,0.607564,0
2024-12-13 15:16:32.320,-1.08694,1.74287,9.20758,1.25896,0.583283,0.624668,0
2024-12-13 15:16:32.321,-1.1324,1.77159,8.78884,1.25896,0.583283,0.624668,0
2024-12-13 15:16:32.324,-1.17308,1.80269,8.40569,1.26506,0.592445,0.630165,0
2024-12-13 15:16:32.333,-1.35254,1.98724,7.11536,1.24063,0.608938,0.641161,0
2024-12-13 15:16:32.333,-1.35254,1.98724,7.11536,1.24063,0.608938,0.641161,0
2024-12-13 15:16:32.338,-1.50359,2.10927,6.6676,1.17405,0.607717,0.645436,0
2024-12-13 15:16:32.340,-1.57059,2.17388,6.44477,1.13984,0.607717,0.644826,0
2024-12-13 15:16:32.343,-1.58255,2.20259,6.25813,1.10136,0.605884,0.646047,0
2024-12-13 15:16:32.345,-1.5993,2.22652,6.11217,1.10136,0.605884,0.646047,0
2024-12-13 15:16:32.347,-1.62084,2.27199,5.97817,1.02073,0.594278,0.648491,0
2024-12-13 15:16:32.350,-1.64477,2.30309,5.86301,0.976745,0.586337,0.646047,0
2024-12-13 15:16:32.352,-1.67348,2.32702,5.76491,0.931542,0.575953,0.645436,0
2024-12-13 15:16:32.352,-1.67348,2.32702,5.76491,0.931542,0.575953,0.645436,0
2024-12-13 15:16:32.357,-1.91994,2.73888,5.58545,0.835639,0.55946,0.642382,0
2024-12-13 15:16:32.357,-1.91994,2.73888,5.58545,0.835639,0.55946,0.642382,0
2024-12-13 15:16:32.361,-1.88883,2.78196,5.51127,0.736682,0.564346,0.639328,0
2024-12-13 15:16:32.361,-1.63759,2.50409,5.56152,0.736682,0.564346,0.639328,0
2024-12-13 15:16:32.366,-1.51555,2.20259,5.81037,0.64139,0.528307,0.625889,0
2024-12-13 15:16:32.366,-1.54666,2.0016,5.81037,0.64139,0.528307,0.625889,0
2024-12-13 15:16:32.368,-1.61605,1.91516,5.94228,0.590689,0.489823,0.619781,0
2024-12-13 15:16:32.371,-1.64477,1.88405,6.06431,0.590689,0.489823,0.616116,0
2024-12-13 15:16:32.373,-1.63998,1.89123,6.07867,0.500895,0.404915,0.610007,0
2024-12-13 15:16:32.376,-1.67587,1.94865,6.09063,0.453249,0.370097,0.603288,0
2024-12-13 15:16:32.378,-1.67587,1.99681,6.18156,0.413544,0.342609,0.59779,0
2024-12-13 15:16:32.378,-1.71416,1.99681,6.18156,0.413544,0.342609,0.59779,0
2024-12-13 15:16:32.380,-1.71655,2.01595,6.31795,0.375671,0.324284,0.594736,0
2024-12-13 15:16:32.383,-1.69262,2.01595,6.4666,0.375671,0.324284,0.594736,0
2024-12-13 15:16:32.385,-1.6352,2.00399,6.61257,0.313899,0.301071,0.583741,0
2024-12-13 15:16:32.385,-1.6352,2.00399,6.61257,0.313899,0.301071,0.583741,0
2024-12-13 15:16:32.390,-1.57059,1.97288,6.74896,0.272362,0.279081,0.566637,0
2024-12-13 15:16:32.390,-1.5323,1.90798,6.84945,0.272362,0.279081,0.566637,0
2024-12-13 15:16:32.392,-1.4988,1.82901,6.92842,0.257701,0.268086,0.556864,0
2024-12-13 15:16:32.394,-1.44616,1.76441,6.99781,0.246706,0.25648,0.545258,0
2024-12-13 15:16:32.397,-1.35494,1.69741,7.04836,0.241208,0.248538,0.534262,0
2024-12-13 15:16:32.399,-1.25683,1.63041,7.06272,0.236322,0.239376,0.520213,0
2024-12-13 15:16:32.401,-1.18744,1.57059,7.0675,0.2351,0.234489,0.506163,0
2024-12-13 15:16:32.404,-1.13001,1.54427,7.09382,0.230824,0.225937,0.493336,0
2024-12-13 15:16:32.406,-1.07498,1.53948,7.14168,0.230824,0.218607,0.478675,0
2024-12-13 15:16:32.409,-1.02233,1.5347,7.16561,0.236322,0.213109,0.464015,0
2024-12-13 15:16:32.413,-0.955334,1.55145,7.17278,0.241819,0.196616,0.439581,0
2024-12-13 15:16:32.416,-0.921835,1.54905,7.16082,0.248538,0.189897,0.427364,0
2024-12-13 15:16:32.416,-0.921835,1.54905,7.16082,0.248538,0.189897,0.427364,0
2024-12-13 15:16:32.418,-0.885943,1.55623,7.1345,0.250982,0.181345,0.414536,0
2024-12-13 15:16:32.420,-0.871586,1.55384,7.11057,0.257701,0.175848,0.401708,0
2024-12-13 15:16:32.423,-0.837787,1.54427,7.09861,0.263199,0.164852,0.390713,0
2024-12-13 15:16:32.426,-0.780359,1.54905,7.08904,0.275416,0.144084,0.364447,0
2024-12-13 15:16:32.430,-0.737288,1.59691,7.07229,0.282746,0.131867,0.349786,0
2024-12-13 15:16:32.430,-0.720539,1.59691,7.07229,0.282746,0.131867,0.349786,0
2024-12-13 15:16:32.434,-0.675075,1.66391,7.03639,0.298628,0.111709,0.322909,0
2024-12-13 15:16:32.434,-0.675075,1.66391,7.03639,0.298628,0.111709,0.322909,0
2024-12-13 15:16:32.439,-0.651147,1.74766,7.0002,0.316343,0.0921616,0.289923,0
2024-12-13 15:16:32.441,-0.584148,1.79791,6.9356,0.323673,0.0811663,0.275874,0
2024-12-13 15:16:32.444,-0.567398,1.85055,6.84467,0.323673,0.0811663,0.275874,0
2024-12-13 15:16:32.446,-0.555434,1.88883,6.76571,0.341387,0.0610084,0.242888,0
2024-12-13 15:16:32.446,-0.555434,1.88883,6.76571,0.341387,0.0610084,0.242888,0
2024-12-13 15:16:32.449,-0.567398,1.93908,6.7011,0.341387,0.0610084,0.242888,0
2024-12-13 15:16:32.451,-0.581755,1.98963,6.64128,0.353604,0.038407,0.211735,0
2024-12-13 15:16:32.453,-0.586541,2.04227,6.58385,0.360934,0.0280226,0.199518,0
2024-12-13 15:16:32.456,-0.588933,2.08774,6.49771,0.367043,0.022525,0.186079,0
2024-12-13 15:16:32.458,-0.579362,2.14038,6.40648,0.367043,0.022525,0.186079,0
2024-12-13 15:16:32.460,-0.584148,2.18345,6.34666,0.372617,0.00542127,0.163478,0
2024-12-13 15:16:32.463,-0.60329,2.2337,6.27488,0.374449,0.000534491,0.153704,0
2024-12-13 15:16:32.465,-0.610469,2.28873,6.20309,0.376893,-0.00374144,0.145153,0
2024-12-13 15:16:32.467,-0.600898,2.33898,6.14806,0.378114,-0.00862822,0.139044,0
2024-12-13 15:16:32.470,-0.60329,2.38445,6.08345,0.376893,-0.013515,0.132248,0
2024-12-13 15:16:32.472,-0.591326,2.43709,6.0021,0.376893,-0.013515,0.12614,0
2024-12-13 15:16:32.474,-0.569791,2.48495,5.93749,0.376893,-0.013515,0.12614,0
2024-12-13 15:16:32.477,-0.541077,2.52323,5.87737,0.367043,-0.0153475,0.123697,0
2024-12-13 15:16:32.479,-0.505185,2.53789,5.8008,0.360324,-0.0141258,0.122475,0
2024-12-13 15:16:32.482,-0.462114,2.57617,5.71466,0.349939,-0.0122933,0.121253,0
2024-12-13 15:16:32.486,-0.342473,2.64078,5.54716,0.327949,-0.00496313,0.120642,0
2024-12-13 15:16:32.486,-0.342473,2.64078,5.54716,0.327949,-0.00496313,0.120642,0
2024-12-13 15:16:32.489,-0.297009,2.7006,5.5017,0.310845,0.000534491,0.116977,0
2024-12-13 15:16:32.491,-0.275175,2.76281,5.46581,0.296795,0.00725381,0.116366,0
2024-12-13 15:16:32.496,-0.208176,2.87528,5.34616,0.260145,0.0268009,0.121864,0
2024-12-13 15:16:32.496,-0.208176,2.87528,5.34616,0.260145,0.0268009,0.121864,0
2024-12-13 15:16:32.498,-0.155533,2.92552,5.3004,0.239376,0.0390179,0.124918,0
2024-12-13 15:16:32.500,-0.117248,2.95424,5.28126,0.214942,0.050624,0.12614,0
2024-12-13 15:16:32.503,-0.0957129,2.98056,5.26451,0.191119,0.0646735,0.127362,0
2024-12-13 15:16:32.505,-0.0765703,3.01406,5.24537,0.167296,0.0781121,0.128583,0
2024-12-13 15:16:32.510,-0.026321,3.05713,5.2358,0.115985,0.108654,0.131638,0
2024-12-13 15:16:32.510,-0.026321,3.05713,5.2358,0.115985,0.108654,0.131638,0
2024-12-13 15:16:32.512,0.00957129,3.05952,5.2358,0.0878856,0.122093,0.131027,0
2024-12-13 15:16:32.514,0.0526421,3.06192,5.23101,0.0628409,0.137975,0.131027,0
2024-12-13 15:16:32.517,0.0717847,3.08345,5.24058,0.0365745,0.154468,0.134157,0
2024-12-13 15:16:32.519,0.0717847,3.09811,5.2669,0.0109189,0.170961,0.13599,0
2024-12-13 15:16:32.522,0.0430708,3.10289,5.28604,-0.0147367,0.189286,0.135379,0
2024-12-13 15:16:32.524,0.0143569,3.11246,5.31476,-0.0379489,0.205779,0.139044,0
2024-12-13 15:16:32.529,-0.0239282,3.13639,5.39402,-0.0782648,0.240597,0.145763,0
2024-12-13 15:16:32.529,-0.0239282,3.13639,5.39402,-0.0782648,0.240597,0.145763,0
2024-12-13 15:16:32.531,-0.0502493,3.134,5.42273,-0.0782648,0.240597,0.145763,0
2024-12-13 15:16:32.533,-0.0717847,3.13161,5.47538,-0.116137,0.268696,0.151261,0
2024-12-13 15:16:32.536,-0.0933201,3.12921,5.55434,-0.132019,0.279692,0.152483,0
2024-12-13 15:16:32.538,-0.124427,3.12443,5.63091,-0.149734,0.287022,0.154926,0
2024-12-13 15:16:32.540,-0.157926,3.13161,5.69312,-0.161951,0.294352,0.153094,0
2024-12-13 15:16:32.543,-0.208176,3.134,5.74337,-0.173557,0.29985,0.151872,0
2024-12-13 15:16:32.547,-0.34008,3.15793,5.87498,-0.194937,0.307791,0.150039,0
2024-12-13 15:16:32.547,-0.34008,3.15793,5.87498,-0.194937,0.307791,0.150039,0
2024-12-13 15:16:32.552,-0.452543,3.18903,5.98056,-0.212651,0.313288,0.146374,0
2024-12-13 15:16:32.557,-0.565005,3.22732,6.1002,-0.230366,0.313899,0.143931,0
2024-12-13 15:16:32.557,-0.565005,3.22732,6.1002,-0.230366,0.313899,0.143931,0
2024-12-13 15:16:32.559,-0.629611,3.2345,6.16959,-0.235863,0.312677,0.142098,0
2024-12-13 15:16:32.562,-0.682254,3.24646,6.24856,-0.241361,0.309012,0.140877,0
2024-12-13 15:16:32.564,-0.722932,3.26082,6.34188,-0.246859,0.306569,0.140266,0
2024-12-13 15:16:32.566,-0.770788,3.27278,6.44716,-0.250524,0.298017,0.142098,0
2024-12-13 15:16:32.569,-0.809073,3.30389,6.53121,-0.251745,0.292519,0.139655,0
2024-12-13 15:16:32.571,-0.837787,3.33739,6.61974,-0.251745,0.292519,0.139655,0
2024-12-13 15:16:32.573,-0.85005,3.34935,6.68914,-0.255411,0.282746,0.139044,0
2024-12-13 15:16:32.576,-0.847657,3.37089,6.74417,-0.256632,0.27847,0.138433,0
2024-12-13 15:16:32.576,-0.847657,3.37089,6.74417,-0.256632,0.27847,0.138433,0
2024-12-13 15:16:32.580,-0.837787,3.42114,6.82074,-0.255411,0.269918,0.135379,0
2024-12-13 15:16:32.580,-0.837787,3.42114,6.82074,-0.255411,0.269918,0.135379,0
2024-12-13 15:16:32.585,-0.833001,3.45224,6.88535,-0.252356,0.255869,0.12614,0
2024-12-13 15:16:32.585,-0.825823,3.48096,6.94756,-0.252356,0.255869,0.12614,0
2024-12-13 15:16:32.588,-0.82343,3.51924,6.97388,-0.252356,0.255869,0.12614,0
2024-12-13 15:16:32.592,-0.80668,3.58864,6.95713,-0.259686,0.232046,0.116977,0
2024-12-13 15:16:32.592,-0.80668,3.58864,6.95713,-0.259686,0.232046,0.116977,0
2024-12-13 15:16:32.597,-0.80668,3.60539,6.98345,-0.270071,0.22105,0.105982,0
2024-12-13 15:16:32.597,-0.799502,3.60539,6.98345,-0.270071,0.22105,0.105982,0
2024-12-13 15:16:32.602,-0.804287,3.61256,7.09621,-0.282288,0.207612,0.0974301,0
2024-12-13 15:16:32.602,-0.80668,3.62214,7.09621,-0.282288,0.207612,0.0974301,0
2024-12-13 15:16:32.604,-0.818644,3.63889,7.14646,-0.288396,0.197227,0.0955976,0
2024-12-13 15:16:32.609,-0.871586,3.71097,7.26611,-0.299392,0.17768,0.0901,0
2024-12-13 15:16:32.609,-0.871586,3.71097,7.26611,-0.299392,0.17768,0.0901,0
2024-12-13 15:16:32.611,-0.88355,3.7349,7.30439,-0.307333,0.167907,0.0882674,0
2024-12-13 15:16:32.613,-0.893121,3.75883,7.34746,-0.31283,0.162409,0.0876566,0
2024-12-13 15:16:32.616,-0.914656,3.78036,7.39532,-0.320771,0.157522,0.0888783,0
2024-12-13 15:16:32.618,-0.926621,3.80907,7.42403,-0.32688,0.157522,0.0870457,0
2024-12-13 15:16:32.620,-0.917049,3.82822,7.44317,-0.33421,0.159966,0.085824,0
2024-12-13 15:16:32.623,-0.909871,3.85215,7.47189,-0.339707,0.163631,0.0870457,0
2024-12-13 15:16:32.625,-0.907478,3.87368,7.50299,-0.34887,0.168517,0.0870457,0
2024-12-13 15:16:32.628,-0.885943,3.88325,7.51735,-0.3562,0.17768,0.0852132,0
2024-12-13 15:16:32.630,-0.8668,3.90718,7.52453,-0.369028,0.185621,0.0852132,0
2024-12-13 15:16:32.632,-0.871586,3.94547,7.54128,-0.38491,0.195395,0.0827698,0
2024-12-13 15:16:32.635,-0.885943,3.97657,7.58465,-0.394684,0.201503,0.0797156,0
2024-12-13 15:16:32.637,-0.9003,3.98854,7.66601,-0.411177,0.207001,0.0784939,0
2024-12-13 15:16:32.642,-0.907478,4.0005,7.7354,-0.438665,0.222272,0.0772722,0
2024-12-13 15:16:32.642,-0.912264,4.03161,7.79761,-0.438665,0.222272,0.0772722,0
2024-12-13 15:16:32.644,-0.909871,4.07229,7.87179,-0.450882,0.2351,0.0760505,0
2024-12-13 15:16:32.646,-0.9003,4.10818,7.94118,-0.468596,0.243652,0.0766613,0
2024-12-13 15:16:32.649,-0.888335,4.12493,7.98425,-0.477148,0.252814,0.0748288,0
2024-12-13 15:16:32.651,-0.905085,4.13211,8.02014,-0.491808,0.257701,0.0742179,0
2024-12-13 15:16:32.656,-0.948156,4.17996,8.10629,-0.503415,0.26381,0.0717745,0
2024-12-13 15:16:32.658,-0.972084,4.20628,8.15923,-0.530292,0.260145,0.0711637,0
2024-12-13 15:16:32.658,-0.972084,4.20628,8.15923,-0.530292,0.260145,0.0711637,0
2024-12-13 15:16:32.663,-0.957727,4.24487,8.29801,-0.553504,0.246706,0.0681095,0
2024-12-13 15:16:32.663,-0.957727,4.24487,8.29801,-0.553504,0.246706,0.0681095,0
2024-12-13 15:16:32.665,-0.96012,4.24487,8.37697,-0.565721,0.236932,0.0644444,0
2024-12-13 15:16:32.668,-0.940978,4.25205,8.4679,-0.576716,0.227159,0.062001,0
2024-12-13 15:16:32.670,-0.921835,4.25444,8.56361,-0.585879,0.214331,0.0589468,0
2024-12-13 15:16:32.672,-0.929013,4.24008,8.63779,-0.595652,0.201503,0.0571142,0
2024-12-13 15:16:32.675,-0.945763,4.22094,8.70748,-0.602983,0.186843,0.0577251,0
2024-12-13 15:16:32.677,-0.948156,4.20628,8.78166,-0.610924,0.174015,0.0558925,0
2024-12-13 15:16:32.682,-0.919442,4.18475,8.93241,-0.619475,0.140419,0.0497841,0
2024-12-13 15:16:32.682,-0.9003,4.16082,8.93241,-0.619475,0.140419,0.0497841,0
2024-12-13 15:16:32.684,-0.909871,4.168,9.07598,-0.624973,0.115985,0.0473407,0
2024-12-13 15:16:32.686,-0.907478,4.17996,9.19322,-0.628638,0.0884965,0.0448973,0
2024-12-13 15:16:32.689,-0.888335,4.17518,9.29642,-0.631082,0.0610084,0.041843,0
2024-12-13 15:16:32.694,-0.847657,4.16082,9.45434,-0.628027,0.0121406,0.0400105,0
2024-12-13 15:16:32.694,-0.847657,4.16082,9.45434,-0.628027,0.0121406,0.0400105,0
2024-12-13 15:16:32.698,-0.754038,4.15364,9.6003,-0.624973,-0.0269536,0.0369563,0
2024-12-13 15:16:32.698,-0.754038,4.15364,9.6003,-0.624973,-0.0269536,0.0369563,0
2024-12-13 15:16:32.703,-0.643968,4.14407,9.74866,-0.612756,-0.0513875,0.0265719,0
2024-12-13 15:16:32.703,-0.643968,4.14407,9.74866,-0.612756,-0.0513875,0.0265719,0
2024-12-13 15:16:32.705,-0.555434,4.14407,9.83271,-0.606648,-0.0611611,0.0216851,0
2024-12-13 15:16:32.708,-0.464507,4.12732,9.91406,-0.596263,-0.0672696,0.0149658,0
2024-12-13 15:16:32.712,-0.366401,4.1345,10.0002,-0.57244,-0.0721563,-0.000305424,0
2024-12-13 15:16:32.712,-0.366401,4.1345,10.0002,-0.57244,-0.0721563,-0.000305424,0
2024-12-13 15:16:32.715,-0.318545,4.15603,10.0002,-0.559002,-0.0666587,-0.00824644,0
2024-12-13 15:16:32.717,-0.292223,4.15125,9.98106,-0.548006,-0.0587177,-0.0174091,0
2024-12-13 15:16:32.719,-0.258425,4.13211,9.97867,-0.533346,-0.0477224,-0.0253502,0
2024-12-13 15:16:32.722,-0.234497,4.11296,9.97388,-0.522351,-0.0348946,-0.0320695,0
2024-12-13 15:16:32.724,-0.215354,4.10818,9.94038,-0.513188,-0.0245102,-0.0400105,0
2024-12-13 15:16:32.726,-0.208176,4.11775,9.90928,-0.502193,-0.00984991,-0.0473407,0
2024-12-13 15:16:32.731,-0.229711,4.12971,9.83749,-0.491808,0.00481042,-0.0546708,0
2024-12-13 15:16:32.734,-0.248854,4.15603,9.80848,-0.475926,0.0347419,-0.0681095,0
2024-12-13 15:16:32.734,-0.248854,4.15603,9.80848,-0.475926,0.0347419,-0.0681095,0
2024-12-13 15:16:32.736,-0.277567,4.18475,9.79173,-0.469818,0.050624,-0.0717745,0
2024-12-13 15:16:32.738,-0.320937,4.20389,9.77737,-0.464931,0.0646735,-0.0772722,0
2024-12-13 15:16:32.743,-0.414257,4.23769,9.74866,-0.454547,0.0952158,-0.0839915,0
2024-12-13 15:16:32.743,-0.414257,4.23769,9.74866,-0.454547,0.0952158,-0.0839915,0
2024-12-13 15:16:32.745,-0.452543,4.28794,9.72712,-0.450882,0.114763,-0.0870457,0
2024-12-13 15:16:32.748,-0.474078,4.32862,9.70559,-0.447827,0.13431,-0.0925434,0
2024-12-13 15:16:32.752,-0.486042,4.3334,9.67687,-0.442941,0.170961,-0.0955976,0
2024-12-13 15:16:32.752,-0.502792,4.34297,9.6673,-0.442941,0.170961,-0.0955976,0
2024-12-13 15:16:32.755,-0.548256,4.36212,9.69602,-0.444162,0.182567,-0.0974301,0
2024-12-13 15:16:32.757,-0.634397,4.39083,9.75105,-0.444162,0.192341,-0.0992627,0
2024-12-13 15:16:32.759,-0.732503,4.4339,9.81566,-0.441108,0.196006,-0.0986518,0
2024-12-13 15:16:32.762,-0.797109,4.48176,9.87817,-0.438054,0.197227,-0.0955976,0
2024-12-13 15:16:32.764,-0.835394,4.52961,9.9332,-0.433167,0.194173,-0.0949868,0
2024-12-13 15:16:32.767,-0.873978,4.58226,10.0098,-0.429502,0.191119,-0.0931542,0
2024-12-13 15:16:32.769,-0.878764,4.61097,10.0768,-0.429502,0.191119,-0.0931542,0
2024-12-13 15:16:32.771,-0.854836,4.6349,10.1533,-0.416063,0.183789,-0.0931542,0
2024-12-13 15:16:32.774,-0.845265,4.67318,10.2586,-0.403846,0.175848,-0.0907108,0
2024-12-13 15:16:32.778,-0.890728,4.71865,10.4288,-0.395905,0.166685,-0.0901,0
2024-12-13 15:16:32.781,-0.912264,4.75454,10.4886,-0.370861,0.14164,-0.0894891,0
2024-12-13 15:16:32.783,-0.945763,4.78116,10.5389,-0.370861,0.14164,-0.0894891,0
2024-12-13 15:16:32.783,-0.945763,4.78116,10.5389,-0.370861,0.14164,-0.0894891,0
2024-12-13 15:16:32.785,-0.97687,4.78355,10.6035,-0.343373,0.108654,-0.0888783,0
2024-12-13 15:16:32.788,-1.01515,4.78594,10.6825,-0.326269,0.0909399,-0.0894891,0
2024-12-13 15:16:32.790,-1.04387,4.77637,10.7638,-0.308554,0.0726145,-0.0876566,0
2024-12-13 15:16:32.792,-1.07498,4.74975,10.8332,-0.289007,0.0548999,-0.0846023,0
2024-12-13 15:16:32.795,-1.10608,4.75693,10.905,-0.263352,0.0365745,-0.082159,0
2024-12-13 15:16:32.797,-1.11565,4.77398,10.9699,-0.238918,0.0139731,-0.0772722,0
2024-12-13 15:16:32.800,-1.12762,4.77159,11.0201,-0.213262,-0.00435229,-0.0729962,0
2024-12-13 15:16:32.802,-1.15394,4.7665,11.068,-0.188828,-0.0220669,-0.0668878,0
2024-12-13 15:16:32.804,-1.19462,4.74975,11.0967,-0.159507,-0.0355055,-0.0626118,0
2024-12-13 15:16:32.807,-1.21137,4.72104,11.0895,-0.133852,-0.0465007,-0.0558925,0
2024-12-13 15:16:32.809,-1.21376,4.7019,11.0704,-0.107585,-0.049555,-0.0479515,0
2024-12-13 15:16:32.811,-1.21854,4.70429,11.0465,-0.0831516,-0.0556635,-0.0387888,0
2024-12-13 15:16:32.814,-1.21376,4.70907,11.0058,-0.0611611,-0.057496,-0.0314586,0
2024-12-13 15:16:32.816,-1.19462,4.70429,10.9555,-0.0397814,-0.0550526,-0.0216851,0
2024-12-13 15:16:32.818,-1.19222,4.69472,10.8978,-0.0202343,-0.0538309,-0.0167983,0
2024-12-13 15:16:32.821,-1.21376,4.7019,10.8404,-0.00313059,-0.0519984,-0.0106898,0
2024-12-13 15:16:32.823,-1.2329,4.73779,10.7782,0.0096972,-0.0465007,-0.00458135,0
2024-12-13 15:16:32.825,-1.24726,4.75215,10.7423,0.0219141,-0.0422248,-0.00152712,0
2024-12-13 15:16:32.830,-1.32383,4.76172,10.6896,0.0322986,-0.0355055,0.00213797,0
2024-12-13 15:16:32.832,-1.35494,4.78355,10.6633,0.0402396,-0.0300079,0.00946813,0
2024-12-13 15:16:32.832,-1.35494,4.78355,10.6633,0.0402396,-0.0300079,0.00946813,0
2024-12-13 15:16:32.835,-1.38604,4.79791,10.649,0.0542891,-0.0208452,0.0149658,0
2024-12-13 15:16:32.837,-1.41506,4.79791,10.649,0.0634518,-0.0184018,0.0167983,0
2024-12-13 15:16:32.840,-1.44616,4.80987,10.6537,0.0677277,-0.0190126,0.01802,0
2024-12-13 15:16:32.842,-1.47727,4.82184,10.649,0.074447,-0.0208452,0.01802,0
2024-12-13 15:16:32.844,-1.4988,4.83859,10.6753,0.0750579,-0.0257319,0.0198525,0
2024-12-13 15:16:32.847,-1.51077,4.87209,10.7136,0.0817772,-0.033673,0.0210742,0
2024-12-13 15:16:32.849,-1.52991,4.90559,10.7399,0.0872748,-0.0403923,0.0192417,0
2024-12-13 15:16:32.851,-1.55623,4.94148,10.7877,0.0921616,-0.0519984,0.0198525,0
2024-12-13 15:16:32.854,-1.58016,4.96541,10.8523,0.0976592,-0.0599394,0.0216851,0
2024-12-13 15:16:32.856,-1.59691,4.99651,10.9146,0.104379,-0.0745997,0.0216851,0
2024-12-13 15:16:32.858,-1.60648,5.03001,10.9531,0.104379,-0.0745997,0.0216851,0
2024-12-13 15:16:32.861,-1.58973,5.05633,11.013,0.124536,-0.105142,0.0198525,0
2024-12-13 15:16:32.863,-1.56102,5.08505,11.0824,0.13431,-0.122857,0.0155766,0
2024-12-13 15:16:32.865,-1.52991,5.10898,11.135,0.145916,-0.141182,0.0155766,0
2024-12-13 15:16:32.868,-1.48684,5.1353,11.2044,0.152025,-0.160729,0.0143549,0
2024-12-13 15:16:32.870,-1.45573,5.15683,11.2738,0.161187,-0.179055,0.00885729,0
2024-12-13 15:16:32.873,-1.41745,5.17597,11.3216,0.171572,-0.201045,0.00397051,0
2024-12-13 15:16:32.877,-1.31904,5.19033,11.4461,0.178291,-0.223036,0.000916271,0
2024-12-13 15:16:32.880,-1.27837,5.20469,11.5493,0.189897,-0.265184,-0.0106898,0
2024-12-13 15:16:32.880,-1.27837,5.20469,11.5493,0.189897,-0.265184,-0.0106898,0
2024-12-13 15:16:32.882,-1.25922,5.19751,11.6856,0.189897,-0.265184,-0.0106898,0
2024-12-13 15:16:32.884,-1.24726,5.19033,11.8149,0.203947,-0.315884,-0.0222959,0
2024-12-13 15:16:32.887,-1.24965,5.2023,11.9632,0.214942,-0.344594,-0.0284044,0
2024-12-13 15:16:32.891,-1.22572,5.22144,12.1262,0.233878,-0.409955,-0.0375671,0
2024-12-13 15:16:32.891,-1.17069,5.23819,12.1262,0.233878,-0.409955,-0.0375671,0
2024-12-13 15:16:32.894,-1.11087,5.25733,12.1717,0.239376,-0.441719,-0.0424539,0
2024-12-13 15:16:32.896,-1.02951,5.28365,12.2052,0.246095,-0.47165,-0.0485624,0
2024-12-13 15:16:32.898,-0.97687,5.32433,12.2435,0.252204,-0.498528,-0.0571142,0
2024-12-13 15:16:32.901,-0.96012,5.34856,12.2961,0.258312,-0.520518,-0.0632227,0
2024-12-13 15:16:32.903,-0.950549,5.37727,12.3727,0.26381,-0.541287,-0.069942,0
2024-12-13 15:16:32.905,-0.952942,5.38924,12.4588,0.27114,-0.555947,-0.0754396,0
2024-12-13 15:16:32.908,-0.938585,5.37488,12.5139,0.277248,-0.570608,-0.0791047,0
2024-12-13 15:16:32.913,-0.835394,5.4012,12.5067,0.285189,-0.596263,-0.0931542,0
2024-12-13 15:16:32.913,-0.835394,5.4012,12.5067,0.285189,-0.596263,-0.0931542,0
2024-12-13 15:16:32.915,-0.775574,5.42991,12.4875,0.286411,-0.607869,-0.103539,0
2024-12-13 15:16:32.917,-0.754038,5.45863,12.5426,0.287022,-0.609091,-0.114534,0
2024-12-13 15:16:32.922,-0.742074,5.52323,12.6841,0.29985,-0.593209,-0.128583,0
2024-12-13 15:16:32.922,-0.742074,5.52323,12.6841,0.29985,-0.593209,-0.128583,0
2024-12-13 15:16:32.927,-0.694218,5.57348,12.7606,0.303515,-0.567553,-0.141411,0
2024-12-13 15:16:32.929,-0.699003,5.5998,12.8468,0.303515,-0.567553,-0.141411,0
2024-12-13 15:16:32.931,-0.689432,5.63809,12.8874,0.309012,-0.551061,-0.154239,0
2024-12-13 15:16:32.934,-0.665504,5.67398,12.8755,0.309012,-0.551061,-0.154239,0
2024-12-13 15:16:32.936,-0.634397,5.68595,12.8659,0.313288,-0.509523,-0.167678,0
2024-12-13 15:16:32.938,-0.584148,5.68834,12.8827,0.313288,-0.509523,-0.167678,0
2024-12-13 15:16:32.943,-0.541077,5.67398,12.9497,0.310234,-0.433167,-0.184781,0
2024-12-13 15:16:32.943,-0.514756,5.67398,12.9497,0.310234,-0.433167,-0.184781,0
2024-12-13 15:16:32.946,-0.505185,5.68116,12.9616,0.310234,-0.433167,-0.184781,0
2024-12-13 15:16:32.948,-0.502792,5.67398,12.9712,0.301071,-0.393462,-0.19089,0
2024-12-13 15:16:32.953,-0.495613,5.69791,13.086,0.287633,-0.367806,-0.198831,0
2024-12-13 15:16:32.955,-0.498006,5.70987,13.1339,0.282135,-0.354979,-0.202496,0
2024-12-13 15:16:32.957,-0.483649,5.73141,13.1626,0.272362,-0.345205,-0.204939,0
2024-12-13 15:16:32.960,-0.462114,5.74577,13.1892,0.272362,-0.345205,-0.204939,0
2024-12-13 15:16:32.962,-0.457328,5.75055,13.2419,0.252204,-0.32749,-0.209826,0
2024-12-13 15:16:32.964,-0.462114,5.75534,13.2945,0.243652,-0.318328,-0.214102,0
2024-12-13 15:16:32.967,-0.464507,5.76012,13.3352,0.228991,-0.313441,-0.214102,0
2024-12-13 15:16:32.969,-0.4669,5.76012,13.3807,0.228991,-0.313441,-0.214102,0
2024-12-13 15:16:32.969,-0.4669,5.76012,13.3807,0.228991,-0.313441,-0.214102,0
2024-12-13 15:16:32.974,-0.481256,5.7673,13.3998,0.208223,-0.295726,-0.2196,0
2024-12-13 15:16:32.976,-0.507577,5.77448,13.3783,0.188675,-0.282899,-0.222043,0
2024-12-13 15:16:32.979,-0.507577,5.77448,13.3783,0.174015,-0.272514,-0.222654,0
2024-12-13 15:16:32.979,-0.536291,5.77687,13.352,0.174015,-0.272514,-0.222654,0
2024-12-13 15:16:32.981,-0.56022,5.76252,13.3496,0.161187,-0.267627,-0.2196,0
2024-12-13 15:16:32.986,-0.514756,5.69073,13.395,0.128202,-0.263352,-0.217156,0
2024-12-13 15:16:32.986,-0.514756,5.69073,13.395,0.128202,-0.263352,-0.217156,0
2024-12-13 15:16:32.986,-0.514756,5.69073,13.395,0.128202,-0.263352,-0.217156,0
2024-12-13 15:16:32.993,-0.464507,5.54477,13.5482,0.109876,-0.271293,-0.213491,0
2024-12-13 15:16:32.995,-0.464507,5.47298,13.5912,0.0597867,-0.281677,-0.207993,0
2024-12-13 15:16:32.997,-0.395115,5.37249,13.6343,0.038407,-0.289618,-0.20555,0
2024-12-13 15:16:33.000,-0.368794,5.25015,13.6893,0.0194708,-0.296948,-0.204328,0
2024-12-13 15:16:33.002,-0.347258,5.13051,13.7734,0.00358873,-0.301224,-0.203718,0
2024-12-13 15:16:33.002,-0.347258,5.13051,13.7734,0.00358873,-0.301224,-0.203718,0
2024-12-13 15:16:33.004,-0.311366,5.0013,13.8954,-0.0202343,-0.307333,-0.200052,0
2024-12-13 15:16:33.007,-0.27996,4.86969,14.0294,-0.037338,-0.310387,-0.198831,0
2024-12-13 15:16:33.009,-0.265603,4.74257,14.1634,-0.037338,-0.310387,-0.198831,0
2024-12-13 15:16:33.011,-0.251246,4.6014,14.3022,-0.0660479,-0.304278,-0.191501,0
2024-12-13 15:16:33.011,-0.251246,4.6014,14.3022,-0.0660479,-0.304278,-0.191501,0
2024-12-13 15:16:33.014,-0.222533,4.45065,14.4389,-0.0764323,-0.295726,-0.186614,0
2024-12-13 15:16:33.016,-0.18664,4.30469,14.5561,-0.0874275,-0.281677,-0.181116,0
2024-12-13 15:16:33.019,-0.153141,4.15603,14.6782,-0.0898709,-0.260908,-0.177451,0
2024-12-13 15:16:33.021,-0.124427,3.99811,14.7882,-0.0898709,-0.260908,-0.177451,0
2024-12-13 15:16:33.026,-0.119641,3.85932,14.9704,-0.0819299,-0.178444,-0.166456,1
2024-12-13 15:16:33.026,-0.119641,3.71336,14.9704,-0.0819299,-0.178444,-0.166456,1
2024-12-13 15:16:33.028,-0.117248,3.55274,15.0398,-0.0703238,-0.14668,-0.161569,0
2024-12-13 15:16:33.030,-0.112463,3.40439,15.0876,-0.0519984,-0.113694,-0.160347,0
2024-12-13 15:16:33.033,-0.0981057,3.24407,15.1092,-0.0300079,-0.0800973,-0.159737,0
2024-12-13 15:16:33.035,-0.0861416,3.09093,15.0781,-0.00313059,-0.0458899,-0.157904,0
2024-12-13 15:16:33.037,-0.0957129,2.94706,15.0326,0.0268009,-0.0116825,-0.155461,0
2024-12-13 15:16:33.040,-0.12682,2.79871,14.956,0.0610084,0.0219141,-0.154239,0
2024-12-13 15:16:33.042,-0.162712,2.66231,14.8433,0.100103,0.0561216,-0.156071,0
2024-12-13 15:16:33.044,-0.20339,2.54267,14.7045,0.144084,0.0884965,-0.153017,0
2024-12-13 15:16:33.047,-0.239282,2.45863,14.5131,0.144084,0.0884965,-0.153017,0
2024-12-13 15:16:33.054,-0.435793,2.18584,13.771,0.318175,0.1844,-0.146298,0
2024-12-13 15:16:33.054,-0.435793,2.18584,13.771,0.318175,0.1844,-0.146298,0
2024-12-13 15:16:33.054,-0.435793,2.18584,13.771,0.318175,0.1844,-0.146298,0
2024-12-13 15:16:33.059,-0.533899,2.03749,13.0621,0.408657,0.216774,-0.137135,0
2024-12-13 15:16:33.061,-0.612862,1.9657,12.6817,0.452027,0.229602,-0.131027,0
2024-12-13 15:16:33.063,-0.682254,1.91276,12.3392,0.495397,0.236932,-0.123697,0
2024-12-13 15:16:33.066,-0.734896,1.87448,12.0183,0.538767,0.241819,-0.115756,0
2024-12-13 15:16:33.068,-0.76361,1.83619,11.6689,0.580305,0.244873,-0.108425,0
2024-12-13 15:16:33.071,-0.768395,1.80987,11.3121,0.618177,0.241819,-0.100484,0
2024-12-13 15:16:33.073,-0.744467,1.79551,10.9484,0.654828,0.241819,-0.0919325,0
2024-12-13 15:16:33.075,-0.734896,1.77637,10.5509,0.692701,0.238154,-0.085824,0
2024-12-13 15:16:33.077,-0.742074,1.76201,10.1629,0.731184,0.236322,-0.0772722,0
2024-12-13 15:16:33.080,-0.722932,1.76201,9.78694,0.766613,0.232046,-0.0705529,0
2024-12-13 15:16:33.085,-0.658325,1.77159,9.01137,0.826476,0.219218,-0.0589468,0
2024-12-13 15:16:33.085,-0.658325,1.77159,9.01137,0.826476,0.219218,-0.0589468,0
2024-12-13 15:16:33.089,-0.574577,1.78355,8.29083,0.872901,0.191119,-0.0571142,0
2024-12-13 15:16:33.092,-0.574577,1.78355,8.29083,0.872901,0.191119,-0.0571142,0
2024-12-13 15:16:33.094,-0.50997,1.84816,7.63251,0.904054,0.154468,-0.0589468,0
2024-12-13 15:16:33.096,-0.464507,1.88405,7.32832,0.904054,0.154468,-0.0589468,0
2024-12-13 15:16:33.099,-0.402293,1.91994,7.04357,0.917493,0.106822,-0.0705529,0
2024-12-13 15:16:33.099,-0.402293,1.91994,7.04357,0.917493,0.106822,-0.0705529,0
2024-12-13 15:16:33.103,-0.287438,2.01356,6.57667,0.917493,0.0475697,-0.0839915,0
2024-12-13 15:16:33.103,-0.287438,2.01356,6.57667,0.917493,0.0475697,-0.0839915,0
2024-12-13 15:16:33.108,-0.239282,2.11406,6.17438,0.907108,-0.0159584,-0.107815,0
2024-12-13 15:16:33.108,-0.198604,2.11406,6.17438,0.907108,-0.0159584,-0.107815,0
2024-12-13 15:16:33.113,-0.157926,2.18584,5.91356,0.887561,-0.0770431,-0.130416,0
2024-12-13 15:16:33.113,-0.157926,2.18584,5.91356,0.887561,-0.0770431,-0.130416,0
2024-12-13 15:16:33.115,-0.148355,2.22891,5.81276,0.873512,-0.109418,-0.140189,0
2024-12-13 15:16:33.117,-0.131605,2.26481,5.71227,0.873512,-0.109418,-0.140189,0
2024-12-13 15:16:33.117,-0.131605,2.26481,5.71227,0.873512,-0.109418,-0.140189,0
2024-12-13 15:16:33.122,-0.0765703,2.3342,5.58545,0.842969,-0.172335,-0.159737,0
2024-12-13 15:16:33.125,-0.0622134,2.37009,5.5352,0.805097,-0.234031,-0.172564,0
2024-12-13 15:16:33.127,-0.0550349,2.41795,5.50648,0.805097,-0.234031,-0.172564,0
2024-12-13 15:16:33.129,-0.0287139,2.46341,5.4993,0.758672,-0.296337,-0.179895,0
2024-12-13 15:16:33.132,0.026321,2.51605,5.49691,0.734849,-0.325658,-0.180505,0
2024-12-13 15:16:33.134,0.0741775,2.55703,5.51845,0.706139,-0.353146,-0.182338,0
2024-12-13 15:16:33.136,0.0741775,2.58335,5.56391,0.706139,-0.353146,-0.182338,0
2024-12-13 15:16:33.139,0.18664,2.61207,5.6022,0.644444,-0.402625,-0.181727,0
2024-12-13 15:16:33.141,0.256032,2.64556,5.63809,0.618788,-0.422172,-0.182338,0
2024-12-13 15:16:33.143,0.330509,2.6671,5.68355,0.585192,-0.440497,-0.182949,0
2024-12-13 15:16:33.146,0.4334,2.71017,5.73141,0.549763,-0.455768,-0.18417,0
2024-12-13 15:16:33.147,0.4334,2.71017,5.73141,0.512501,-0.466764,-0.187225,0
2024-12-13 15:16:33.148,0.555434,2.74128,5.80798,0.512501,-0.466764,-0.187225,0
2024-12-13 15:16:33.150,0.660718,2.72931,5.91835,0.477072,-0.474705,-0.192111,0
2024-12-13 15:16:33.153,0.739681,2.71735,6.04277,0.442253,-0.482646,-0.195166,0
2024-12-13 15:16:33.155,0.797109,2.70299,6.15045,0.405603,-0.485089,-0.200663,0
2024-12-13 15:16:33.160,0.902692,2.6671,6.32991,0.372006,-0.482035,-0.201885,0
2024-12-13 15:16:33.162,0.938585,2.63599,6.3993,0.30718,-0.467375,-0.203718,0
2024-12-13 15:16:33.165,0.979263,2.60728,6.45195,0.274805,-0.45699,-0.203107,0
2024-12-13 15:16:33.167,1.00558,2.58335,6.49532,0.244873,-0.444162,-0.202496,0
2024-12-13 15:16:33.170,1.02473,2.54267,6.5671,0.188675,-0.417285,-0.199442,0
2024-12-13 15:16:33.172,1.02233,2.48973,6.63171,0.188675,-0.417285,-0.199442,0
2024-12-13 15:16:33.174,1.01515,2.44427,6.67717,0.188675,-0.417285,-0.199442,0
2024-12-13 15:16:33.174,1.01515,2.44427,6.67717,0.188675,-0.417285,-0.199442,0
2024-12-13 15:16:33.176,0.996012,2.39402,6.74417,0.132477,-0.395295,-0.192722,0
2024-12-13 15:16:33.179,0.955334,2.34616,6.8351,0.107433,-0.386743,-0.187836,0
2024-12-13 15:16:33.181,0.919442,2.29352,6.89731,0.0860531,-0.372693,-0.181116,0
2024-12-13 15:16:33.183,0.864407,2.24088,6.95474,0.0658951,-0.358033,-0.173786,0
2024-12-13 15:16:33.186,0.804287,2.20259,7.034,0.0481806,-0.343983,-0.164623,0
2024-12-13 15:16:33.188,0.74686,2.1667,7.09382,0.0316877,-0.328712,-0.156682,0
2024-12-13 15:16:33.190,0.699003,2.12842,7.14886,0.0151948,-0.314663,-0.145687,0
2024-12-13 15:16:33.193,0.643968,2.0997,7.19193,0.00297788,-0.303057,-0.134692,0
2024-12-13 15:16:33.195,0.591326,2.08295,7.23261,-0.00618483,-0.289618,-0.120031,0
2024-12-13 15:16:33.200,0.541077,2.0662,7.302,-0.0238994,-0.261519,-0.0901,0
2024-12-13 15:16:33.202,0.452543,2.0686,7.31396,-0.0238994,-0.261519,-0.0901,0
2024-12-13 15:16:33.205,0.414257,2.0662,7.32353,-0.0306187,-0.231587,-0.0662769,0
2024-12-13 15:16:33.205,0.414257,2.0662,7.32353,-0.0306187,-0.231587,-0.0662769,0
2024-12-13 15:16:33.207,0.380758,2.07338,7.34268,-0.0306187,-0.231587,-0.0662769,0
2024-12-13 15:16:33.209,0.342473,2.05902,7.35225,-0.0355055,-0.199213,-0.0448973,0
2024-12-13 15:16:33.214,0.30658,2.01595,7.369,-0.0330621,-0.163783,-0.0284044,0
2024-12-13 15:16:33.214,0.289831,2.00399,7.39771,-0.0330621,-0.163783,-0.0284044,0
2024-12-13 15:16:33.216,0.258425,1.99681,7.40967,-0.0306187,-0.145458,-0.0229068,0
2024-12-13 15:16:33.219,0.212961,1.98006,7.4001,-0.0257319,-0.127133,-0.0161875,0
2024-12-13 15:16:33.221,0.162712,1.97528,7.38335,-0.0208452,-0.109418,-0.0113007,0
2024-12-13 15:16:33.223,0.100499,1.96301,7.37857,-0.0141258,-0.0917034,-0.0064139,0
2024-12-13 15:16:33.228,0.0143569,1.94148,7.29721,-0.0019089,-0.0636045,0.00213797,0
2024-12-13 15:16:33.231,-0.0215354,1.9343,7.235,-0.0019089,-0.0636045,0.00213797,0
2024-12-13 15:16:33.234,-0.0574277,1.93908,7.16321,0.0170274,-0.029397,0.0113007,0
2024-12-13 15:16:33.235,-0.0837488,1.95823,7.08425,0.0170274,-0.029397,0.0113007,0
2024-12-13 15:16:33.238,-0.122034,1.95823,6.99302,0.0182491,-0.0208452,0.0131332,0
2024-12-13 15:16:33.238,-0.122034,1.95823,6.99302,0.0182491,-0.0208452,0.0131332,0
2024-12-13 15:16:33.242,-0.155533,1.97288,6.78963,0.0255792,-0.0116825,0.0192417,0
2024-12-13 15:16:33.242,-0.155533,1.97288,6.78963,0.0255792,-0.0116825,0.0192417,0
2024-12-13 15:16:33.245,-0.189033,2.00877,6.69631,0.0243575,-0.00923906,0.0222959,0
2024-12-13 15:16:33.247,-0.208176,2.01356,6.59821,0.0237467,-0.00801737,0.0216851,0
2024-12-13 15:16:33.249,-0.212961,2.03749,6.49292,0.0219141,-0.00618483,0.0216851,0
2024-12-13 15:16:33.252,-0.234497,2.06381,6.40648,0.0200816,-0.00557398,0.0222959,0
2024-12-13 15:16:33.254,-0.27996,2.08295,6.31795,0.0139731,-0.00313059,0.0235176,0
2024-12-13 15:16:33.256,-0.330509,2.12363,6.21027,0.00725381,-7.63559e-05,0.0241285,0
2024-12-13 15:16:33.261,-0.359223,2.21934,5.96142,-0.00557398,0.00725381,0.0290152,0
2024-12-13 15:16:33.261,-0.359223,2.21934,5.96142,-0.00557398,0.00725381,0.0290152,0
2024-12-13 15:16:33.266,-0.375972,2.31266,5.79601,-0.0226777,0.0176382,0.0271827,0
2024-12-13 15:16:33.266,-0.375972,2.31266,5.79601,-0.0226777,0.0176382,0.0271827,0
2024-12-13 15:16:33.271,-0.392722,2.36052,5.62373,-0.0428357,0.0298552,0.025961,0
2024-12-13 15:16:33.273,-0.411865,2.40598,5.62373,-0.0501658,0.0371853,0.0247393,0
2024-12-13 15:16:33.273,-0.442971,2.41795,5.53759,-0.0501658,0.0371853,0.0247393,0
2024-12-13 15:16:33.275,-0.478864,2.43948,5.48016,-0.0629936,0.0481806,0.0235176,0
2024-12-13 15:16:33.278,-0.514756,2.4682,5.45863,-0.0709346,0.058565,0.0216851,0
2024-12-13 15:16:33.280,-0.533899,2.48734,5.44188,-0.0831516,0.0671168,0.0222959,0
2024-12-13 15:16:33.282,-0.557827,2.51845,5.4012,-0.0941468,0.0695602,0.0222959,0
2024-12-13 15:16:33.285,-0.593719,2.54507,5.36291,-0.10331,0.0720036,0.0229068,0
2024-12-13 15:16:33.287,-0.627219,2.58335,5.3342,-0.113694,0.0671168,0.0247393,0
2024-12-13 15:16:33.289,-0.646361,2.61924,5.31715,-0.125911,0.0622301,0.0235176,0
2024-12-13 15:16:33.292,-0.643968,2.65514,5.3004,-0.136906,0.0555107,0.0253502,0
2024-12-13 15:16:33.294,-0.634397,2.69581,5.27647,-0.149734,0.0451263,0.0241285,0
2024-12-13 15:16:33.296,-0.608076,2.73649,5.28365,-0.163783,0.0396287,0.0241285,0
2024-12-13 15:16:33.299,-0.581755,2.77717,5.29801,-0.177222,0.030466,0.0210742,0
2024-12-13 15:16:33.301,-0.550648,2.81545,5.31715,-0.191272,0.0182491,0.01802,0
2024-12-13 15:16:33.304,-0.524327,2.85135,5.36291,-0.191272,0.0182491,0.01802,0
2024-12-13 15:16:33.306,-0.490828,2.88724,5.39163,-0.21204,-0.00740652,0.0131332,0
2024-12-13 15:16:33.308,-0.457328,2.91835,5.42752,-0.21204,-0.00740652,0.0131332,0
2024-12-13 15:16:33.313,-0.435793,2.99252,5.55434,-0.238307,-0.0458899,0.00213797,0
2024-12-13 15:16:33.313,-0.435793,2.99252,5.55434,-0.238307,-0.0458899,0.00213797,0
2024-12-13 15:16:33.315,-0.428614,3.02124,5.61416,-0.247469,-0.0562743,-0.00335966,0
2024-12-13 15:16:33.318,-0.409472,3.04995,5.66441,-0.247469,-0.0562743,-0.00335966,0
2024-12-13 15:16:33.322,-0.385544,3.11246,5.80319,-0.264573,-0.0831516,-0.0174091,0
2024-12-13 15:16:33.325,-0.368794,3.13879,5.84148,-0.264573,-0.0831516,-0.0174091,0
2024-12-13 15:16:33.327,-0.366401,3.18903,5.88694,-0.271293,-0.0965902,-0.0216851,0
2024-12-13 15:16:33.329,-0.366401,3.22253,5.95185,-0.271293,-0.0965902,-0.0216851,0
2024-12-13 15:16:33.332,-0.3999,3.24168,5.99253,-0.280455,-0.102699,-0.0277936,0
2024-12-13 15:16:33.334,-0.402293,3.27757,6.01645,-0.282899,-0.102699,-0.0296261,0
2024-12-13 15:16:33.337,-0.397508,3.32543,6.06431,-0.287175,-0.102699,-0.0302369,0
2024-12-13 15:16:33.337,-0.397508,3.32543,6.06431,-0.287175,-0.102699,-0.0302369,0
2024-12-13 15:16:33.341,-0.378365,3.3685,6.1337,-0.293283,-0.10392,-0.0308478,0
2024-12-13 15:16:33.341,-0.349651,3.39721,6.19831,-0.293283,-0.10392,-0.0308478,0
2024-12-13 15:16:33.344,-0.320937,3.44267,6.2677,-0.296337,-0.102088,-0.0308478,0
2024-12-13 15:16:33.346,-0.311366,3.5001,6.34188,-0.300002,-0.0990336,-0.0314586,0
2024-12-13 15:16:33.348,-0.294616,3.54556,6.4017,-0.301224,-0.0953685,-0.0345129,0
2024-12-13 15:16:33.351,-0.267996,3.59581,6.45942,-0.303057,-0.0917034,-0.0363454,0
2024-12-13 15:16:33.353,-0.253639,3.6679,6.49292,-0.308554,-0.0862058,-0.0375671,0
2024-12-13 15:16:33.355,-0.234497,3.72533,6.48335,-0.311608,-0.0770431,-0.0375671,0
2024-12-13 15:16:33.360,-0.193819,3.78993,6.469,-0.324436,-0.0605502,-0.0442864,0
2024-12-13 15:16:33.360,-0.141177,3.78993,6.469,-0.324436,-0.0605502,-0.0442864,0
2024-12-13 15:16:33.363,-0.100499,3.8019,6.49292,-0.332988,-0.0538309,-0.0473407,0
2024-12-13 15:16:33.365,-0.0837488,3.7995,6.51925,-0.34154,-0.0526092,-0.0497841,0
2024-12-13 15:16:33.367,-0.0765703,3.82104,6.55274,-0.352535,-0.0544418,-0.0510057,0
2024-12-13 15:16:33.370,-0.0861416,3.84975,6.61496,-0.36353,-0.0587177,-0.0516166,0
2024-12-13 15:16:33.372,-0.0885344,3.90239,6.68674,-0.373915,-0.0672696,-0.05406,0
2024-12-13 15:16:33.377,-0.119641,3.98614,6.83271,-0.393462,-0.0794865,-0.0528383,0
2024-12-13 15:16:33.377,-0.119641,3.98614,6.83271,-0.393462,-0.0794865,-0.0528383,0
2024-12-13 15:16:33.379,-0.100499,4.02443,6.91645,-0.393462,-0.0794865,-0.0528383,0
2024-12-13 15:16:33.381,-0.0741775,4.04836,7.00977,-0.414231,-0.0953685,-0.0528383,0
2024-12-13 15:16:33.384,-0.040678,4.07468,7.11296,-0.422172,-0.10331,-0.0528383,0
2024-12-13 15:16:33.388,-0.00239282,4.12732,7.32114,-0.433167,-0.120413,-0.05406,0
2024-12-13 15:16:33.388,-0.00239282,4.12732,7.32114,-0.433167,-0.120413,-0.05406,0
2024-12-13 15:16:33.394,0.0215354,4.17757,7.51735,-0.445995,-0.142404,-0.0626118,0
2024-12-13 15:16:33.395,0.0550349,4.19671,7.60858,-0.445995,-0.142404,-0.0626118,0
2024-12-13 15:16:33.398,0.102891,4.20628,7.7019,-0.448438,-0.147901,-0.0650552,0
2024-12-13 15:16:33.400,0.143569,4.2353,7.79283,-0.448438,-0.147901,-0.0650552,0
2024-12-13 15:16:33.400,0.143569,4.2353,7.79283,-0.448438,-0.147901,-0.0650552,0
2024-12-13 15:16:33.402,0.153141,4.2688,7.88615,-0.452103,-0.152788,-0.0681095,0
2024-12-13 15:16:33.405,0.131605,4.29033,7.97947,-0.450271,-0.153399,-0.0705529,0
2024-12-13 15:16:33.407,0.112463,4.31905,8.06321,-0.452103,-0.155232,-0.069942,0
2024-12-13 15:16:33.412,0.119641,4.34297,8.1999,-0.453936,-0.150956,-0.0723854,0
2024-12-13 15:16:33.412,0.133998,4.34297,8.1999,-0.453936,-0.150956,-0.0723854,0
2024-12-13 15:16:33.414,0.148355,4.35494,8.26212,-0.456379,-0.150956,-0.0723854,0
2024-12-13 15:16:33.419,0.181855,4.34058,8.38894,-0.461266,-0.149734,-0.0729962,0
2024-12-13 15:16:33.419,0.181855,4.34058,8.38894,-0.461266,-0.149734,-0.0729962,0
2024-12-13 15:16:33.421,0.184247,4.34058,8.45354,-0.466764,-0.149123,-0.0742179,0
2024-12-13 15:16:33.424,0.167498,4.31905,8.51576,-0.47165,-0.148512,-0.0723854,0
2024-12-13 15:16:33.426,0.165105,4.29272,8.60668,-0.47165,-0.148512,-0.0723854,0
2024-12-13 15:16:33.431,0.253639,4.22333,8.79123,-0.489976,-0.135684,-0.0656661,0
2024-12-13 15:16:33.433,0.287438,4.2329,8.9013,-0.489976,-0.135684,-0.0656661,0
2024-12-13 15:16:33.435,0.297009,4.24487,8.99701,-0.503415,-0.123468,-0.0595576,0
2024-12-13 15:16:33.438,0.297009,4.24487,9.08315,-0.503415,-0.123468,-0.0595576,0
2024-12-13 15:16:33.438,0.287438,4.24487,9.08315,-0.503415,-0.123468,-0.0595576,0
2024-12-13 15:16:33.440,0.297009,4.2353,9.19083,-0.518686,-0.112472,-0.0479515,0
2024-12-13 15:16:33.443,0.330509,4.22094,9.31316,-0.526016,-0.108196,-0.0436756,0
2024-12-13 15:16:33.445,0.364008,4.21137,9.43041,-0.5364,-0.0990336,-0.0387888,0
2024-12-13 15:16:33.447,0.3999,4.21855,9.55484,-0.544341,-0.0929251,-0.0363454,0
2024-12-13 15:16:33.450,0.421436,4.2329,9.67687,-0.554726,-0.0837624,-0.0302369,0
2024-12-13 15:16:33.452,0.428614,4.25444,9.81087,-0.560834,-0.0727672,-0.0277936,0
2024-12-13 15:16:33.454,0.4334,4.2688,9.95235,-0.567553,-0.0629936,-0.0216851,0
2024-12-13 15:16:33.457,0.442971,4.2688,10.0935,-0.569997,-0.0513875,-0.0192417,0
2024-12-13 15:16:33.459,0.452543,4.2688,10.2371,-0.569997,-0.0513875,-0.0192417,0
2024-12-13 15:16:33.461,0.447757,4.25444,10.3783,-0.573662,-0.0220669,-0.0137441,0
2024-12-13 15:16:33.466,0.438186,4.22572,10.6514,-0.563888,0.00542127,-0.0125224,0
2024-12-13 15:16:33.466,0.438186,4.22572,10.6514,-0.563888,0.00542127,-0.0125224,0
2024-12-13 15:16:33.473,0.332901,4.13211,10.9771,-0.532124,0.0622301,-0.010079,0
2024-12-13 15:16:33.473,0.332901,4.13211,10.9771,-0.532124,0.0622301,-0.010079,0
2024-12-13 15:16:33.475,0.332901,4.13211,11.0656,-0.515631,0.0854423,-0.00763559,0
2024-12-13 15:16:33.478,0.224925,4.09861,11.1111,-0.497306,0.103768,-0.00213797,0
2024-12-13 15:16:33.480,0.181855,4.08425,11.147,-0.497306,0.103768,-0.00213797,0
2024-12-13 15:16:33.483,0.143569,4.0675,11.1781,-0.454547,0.142862,0.00763559,0
2024-12-13 15:16:33.485,0.0909273,4.05793,11.1805,-0.454547,0.142862,0.00763559,0
2024-12-13 15:16:33.487,0.0358923,4.05793,11.1565,-0.404457,0.17768,0.0210742,0
2024-12-13 15:16:33.490,0.00239282,4.05554,11.1278,-0.404457,0.17768,0.0210742,0
2024-12-13 15:16:33.492,-0.00478565,4.04596,11.1087,-0.358644,0.201503,0.0393996,0
2024-12-13 15:16:33.492,-0.00478565,4.04596,11.1087,-0.358644,0.201503,0.0393996,0
2024-12-13 15:16:33.494,0.00478565,4.04836,11.068,-0.336653,0.208833,0.0491732,0
2024-12-13 15:16:33.499,0.00957129,4.0675,11.0297,-0.312219,0.213109,0.0565034,0
2024-12-13 15:16:33.501,0.00957129,4.10339,10.989,-0.267017,0.212498,0.0736071,0
2024-12-13 15:16:33.501,0.00957129,4.10339,10.989,-0.267017,0.212498,0.0736071,0
2024-12-13 15:16:33.506,0.0191426,4.16082,10.9026,-0.225479,0.200282,0.0882674,0
2024-12-13 15:16:33.506,0.0191426,4.16082,10.9026,-0.225479,0.200282,0.0882674,0
2024-12-13 15:16:33.511,0.0119641,4.22094,10.7806,-0.184552,0.182567,0.098041,0
2024-12-13 15:16:33.513,0.0287139,4.24247,10.7447,-0.184552,0.182567,0.098041,0
2024-12-13 15:16:33.516,0.040678,4.28555,10.6753,-0.13935,0.150803,0.10476,0
2024-12-13 15:16:33.518,0.0550349,4.31905,10.6059,-0.13935,0.150803,0.10476,0
2024-12-13 15:16:33.523,0.066999,4.38844,10.4169,-0.13935,0.150803,0.10476,0
2024-12-13 15:16:33.527,0.0717847,4.47219,10.2419,-0.0544418,0.0671168,0.105982,0
2024-12-13 15:16:33.530,0.0717847,4.52483,10.1486,-0.0446682,0.0536782,0.10476,0
2024-12-13 15:16:33.532,0.0717847,4.56072,10.0457,-0.0446682,0.0536782,0.10476,0
2024-12-13 15:16:33.534,0.066999,4.58226,9.96192,-0.0287862,0.0316877,0.105371,0
2024-12-13 15:16:33.537,0.066999,4.62054,9.88296,-0.0226777,0.0231358,0.105371,0
2024-12-13 15:16:33.539,0.0693919,4.65643,9.79652,-0.0196235,0.0133623,0.105982,0
2024-12-13 15:16:33.539,0.0693919,4.65643,9.79652,-0.0196235,0.0133623,0.105982,0
2024-12-13 15:16:33.541,0.066999,4.69472,9.72473,-0.0196235,0.0133623,0.105982,0
2024-12-13 15:16:33.544,0.0741775,4.72822,9.66252,-0.0177909,-0.000687203,0.109036,0
2024-12-13 15:16:33.546,0.0933201,4.75454,9.62184,-0.0226777,-0.00435229,0.110258,0
2024-12-13 15:16:33.549,0.11007,4.78594,9.60509,-0.0269536,-0.00557398,0.112701,0
2024-12-13 15:16:33.551,0.143569,4.83141,9.59073,-0.0312296,-0.00740652,0.116366,0
2024-12-13 15:16:33.553,0.191426,4.87209,9.59552,-0.0367272,-0.00862822,0.118199,0
2024-12-13 15:16:33.556,0.22014,4.91037,9.62423,-0.0367272,-0.00862822,0.118199,0
2024-12-13 15:16:33.556,0.22014,4.91037,9.62423,-0.0367272,-0.00862822,0.118199,0
2024-12-13 15:16:33.560,0.316152,4.99173,9.72712,-0.0617719,-0.00313059,0.11881,0
2024-12-13 15:16:33.560,0.316152,4.99173,9.72712,-0.0617719,-0.00313059,0.11881,0
2024-12-13 15:16:33.565,0.375972,5.01566,9.90688,-0.0770431,-0.00251974,0.117588,0
2024-12-13 15:16:33.565,0.421436,5.04676,9.90688,-0.0770431,-0.00251974,0.117588,0
2024-12-13 15:16:33.570,0.476471,5.10898,10.1055,-0.0843733,-0.0019089,0.11209,0
2024-12-13 15:16:33.570,0.476471,5.10898,10.1055,-0.0843733,-0.0019089,0.11209,0
2024-12-13 15:16:33.574,0.500399,5.15444,10.3639,-0.0880384,-0.00435229,0.105982,0
2024-12-13 15:16:33.574,0.500399,5.15444,10.3639,-0.0880384,-0.00435229,0.105982,0
2024-12-13 15:16:33.579,0.517149,5.21187,10.6155,-0.0904818,-0.0165692,0.0998735,0
2024-12-13 15:16:33.581,0.514756,5.24776,10.7542,-0.0904818,-0.0165692,0.0998735,0
2024-12-13 15:16:33.584,0.483649,5.27887,10.9002,-0.0880384,-0.0300079,0.0949868,0
2024-12-13 15:16:33.586,0.45015,5.30997,11.0178,-0.0880384,-0.0300079,0.0949868,0
2024-12-13 15:16:33.589,0.459721,5.3342,11.1159,-0.0880384,-0.0410031,0.0894891,0
2024-12-13 15:16:33.589,0.459721,5.3342,11.1159,-0.0880384,-0.0410031,0.0894891,0
2024-12-13 15:16:33.593,0.502792,5.33899,11.3743,-0.0874275,-0.0550526,0.0815481,0
2024-12-13 15:16:33.593,0.502792,5.33899,11.3743,-0.0874275,-0.0550526,0.0815481,0
2024-12-13 15:16:33.598,0.505185,5.36531,11.7144,-0.0819299,-0.0666587,0.0784939,0
2024-12-13 15:16:33.598,0.505185,5.36531,11.7144,-0.0819299,-0.0666587,0.0784939,0
2024-12-13 15:16:33.603,0.471685,5.39402,12.0494,-0.0666587,-0.0807082,0.0784939,0
2024-12-13 15:16:33.604,0.471685,5.39402,12.0494,-0.0568851,-0.0874275,0.0754396,0
2024-12-13 15:16:33.605,0.445364,5.41556,12.1813,-0.0568851,-0.0874275,0.0754396,0
2024-12-13 15:16:33.605,0.445364,5.41556,12.1813,-0.0568851,-0.0874275,0.0754396,0
2024-12-13 15:16:33.612,0.426222,5.48495,12.5665,-0.0263428,-0.102088,0.0797156,0
2024-12-13 15:16:33.614,0.428614,5.52323,12.6888,-0.0147367,-0.10392,0.0797156,0
2024-12-13 15:16:33.617,0.442971,5.53998,12.7702,-0.0147367,-0.10392,0.0797156,0
2024-12-13 15:16:33.622,0.431007,5.5663,12.9138,0.00908635,-0.0941468,0.0803264,0
2024-12-13 15:16:33.624,0.423829,5.58784,12.9808,0.0280226,-0.0831516,0.082159,0
2024-12-13 15:16:33.629,0.390329,5.60459,13.031,0.0445155,-0.0678804,0.0803264,0
2024-12-13 15:16:33.629,0.390329,5.60459,13.031,0.0445155,-0.0678804,0.0803264,0
2024-12-13 15:16:33.633,0.414257,5.6357,13.1698,0.0494023,-0.0550526,0.0772722,0
2024-12-13 15:16:33.633,0.414257,5.6357,13.1698,0.0494023,-0.0550526,0.0772722,0
2024-12-13 15:16:33.638,0.385544,5.70987,13.3663,0.0652843,-0.00862822,0.0766613,0
2024-12-13 15:16:33.640,0.368794,5.75055,13.3974,0.0707819,0.0096972,0.0803264,0
2024-12-13 15:16:33.643,0.349651,5.76969,13.4477,0.0768904,0.0298552,0.0797156,0
2024-12-13 15:16:33.645,0.344866,5.79123,13.5027,0.0775012,0.0524565,0.0839915,0
2024-12-13 15:16:33.647,0.352044,5.80559,13.5793,0.0775012,0.0756687,0.0864349,0
2024-12-13 15:16:33.650,0.354437,5.80559,13.6654,0.0768904,0.100713,0.0882674,0
2024-12-13 15:16:33.652,0.368794,5.79841,13.73,0.0781121,0.125147,0.0913217,0
2024-12-13 15:16:33.655,0.3999,5.79123,13.7854,0.0799446,0.150192,0.0913217,0
2024-12-13 15:16:33.655,0.3999,5.79123,13.7854,0.0799446,0.150192,0.0913217,0
2024-12-13 15:16:33.659,0.414257,5.83191,13.8476,0.0781121,0.19906,0.0919325,0
2024-12-13 15:16:33.662,0.414257,5.83191,13.8476,0.0781121,0.19906,0.0919325,0
2024-12-13 15:16:33.664,0.375972,5.85823,13.9289,0.074447,0.245484,0.0901,0
2024-12-13 15:16:33.664,0.375972,5.85823,13.9289,0.074447,0.245484,0.0901,0
2024-12-13 15:16:33.669,0.30658,5.90878,14.0175,0.0720036,0.283357,0.0852132,0
2024-12-13 15:16:33.669,0.30658,5.90878,14.0175,0.0720036,0.283357,0.0852132,0
2024-12-13 15:16:33.671,0.292223,5.90878,14.027,0.0732253,0.301071,0.0803264,0
2024-12-13 15:16:33.673,0.265603,5.90638,14.0629,0.0756687,0.313899,0.0754396,0
2024-12-13 15:16:33.676,0.236889,5.89921,14.0821,0.0781121,0.325505,0.0681095,0
2024-12-13 15:16:33.678,0.20339,5.87976,14.0821,0.0811663,0.33589,0.062001,0
2024-12-13 15:16:33.680,0.148355,5.86541,14.0821,0.0872748,0.341998,0.0552817,0
2024-12-13 15:16:33.683,0.148355,5.86541,14.0533,0.0872748,0.341998,0.0552817,0
2024-12-13 15:16:33.685,0.0646062,5.79601,14.0103,0.0964375,0.341998,0.0351237,0
2024-12-13 15:16:33.687,0.0646062,5.79601,14.0103,0.101935,0.331003,0.0253502,0
2024-12-13 15:16:33.690,0.0,5.70509,13.9098,0.1056,0.319397,0.0131332,0
2024-12-13 15:16:33.690,0.0,5.70509,13.9098,0.1056,0.319397,0.0131332,0
2024-12-13 15:16:33.695,-0.0550349,5.6022,13.838,0.114763,0.284578,-0.0131332,0
2024-12-13 15:16:33.697,-0.102891,5.50648,13.7973,0.114763,0.284578,-0.0131332,0
2024-12-13 15:16:33.702,-0.193819,5.29801,13.7925,0.11232,0.216774,-0.05406,0
2024-12-13 15:16:33.704,-0.224925,5.18076,13.8117,0.106822,0.1844,-0.0656661,0
2024-12-13 15:16:33.706,-0.267996,5.05394,13.8428,0.100713,0.150803,-0.077883,0
2024-12-13 15:16:33.709,-0.308973,4.90798,13.905,0.100713,0.150803,-0.077883,0
2024-12-13 15:16:33.711,-0.364008,4.77877,14.0007,0.0860531,0.0805555,-0.0962084,0
2024-12-13 15:16:33.711,-0.364008,4.77877,14.0007,0.0860531,0.0805555,-0.0962084,0
2024-12-13 15:16:33.713,-0.411865,4.65643,14.1012,0.0781121,0.0445155,-0.100484,0
2024-12-13 15:16:33.716,-0.438186,4.52243,14.1993,0.0732253,0.0121406,-0.100484,0
2024-12-13 15:16:33.718,-0.431007,4.39562,14.2902,0.0683385,-0.021456,-0.100484,0
2024-12-13 15:16:33.720,-0.397508,4.25683,14.3719,0.0591758,-0.049555,-0.0992627,0
2024-12-13 15:16:33.723,-0.366401,4.10339,14.47,0.0518457,-0.0709346,-0.0955976,0
2024-12-13 15:16:33.723,-0.366401,4.10339,14.47,0.0518457,-0.0709346,-0.0955976,0
2024-12-13 15:16:33.728,-0.263211,3.78993,14.7093,0.0487914,-0.0947577,-0.0882674,0
2024-12-13 15:16:33.728,-0.263211,3.78993,14.7093,0.0487914,-0.0947577,-0.0882674,0
2024-12-13 15:16:33.730,-0.212961,3.61017,14.8528,0.0494023,-0.0959794,-0.085824,0
2024-12-13 15:16:33.732,-0.184247,3.41635,15.0111,0.0573433,-0.0898709,-0.0791047,0
2024-12-13 15:16:33.735,-0.174676,3.22014,15.1499,0.0713928,-0.0745997,-0.0687203,0
2024-12-13 15:16:33.737,-0.174676,3.03081,15.2336,0.0915507,-0.0526092,-0.0577251,0
2024-12-13 15:16:33.739,-0.20339,2.84895,15.2767,0.115374,-0.0226777,-0.0436756,1
2024-12-13 15:16:33.742,-0.189033,2.66231,15.3556,0.145916,0.00847551,-0.0277936,0
2024-12-13 15:16:33.744,-0.114855,2.46341,15.4131,0.179513,0.038407,-0.00824644,0
2024-12-13 15:16:33.746,-0.0574277,2.28395,15.4517,0.179513,0.038407,-0.00824644,0
2024-12-13 15:16:33.749,-0.0502493,2.1332,15.4875,0.251593,0.102546,0.0271827,0
2024-12-13 15:16:33.751,-0.0574277,2.01117,15.4947,0.251593,0.102546,0.0271827,0
2024-12-13 15:16:33.753,-0.081356,1.94626,15.4564,0.353604,0.176459,0.0742179,0
2024-12-13 15:16:33.753,-0.081356,1.94626,15.4564,0.353604,0.176459,0.0742179,0
2024-12-13 15:16:33.756,-0.136391,1.88883,15.3078,0.411711,0.213109,0.0986518,0
2024-12-13 15:16:33.756,-0.136391,1.88883,15.3078,0.411711,0.213109,0.0986518,0
2024-12-13 15:16:33.761,-0.145962,1.75244,14.7691,0.535102,0.320618,0.151872,0
2024-12-13 15:16:33.761,-0.145962,1.75244,14.7691,0.535102,0.320618,0.151872,0
2024-12-13 15:16:33.763,-0.12682,1.6998,14.4724,0.596187,0.380481,0.178749,0
2024-12-13 15:16:33.765,-0.117248,1.6663,14.1515,0.660937,0.434236,0.204405,0
2024-12-13 15:16:33.768,-0.141177,1.65673,13.8236,0.660937,0.434236,0.204405,0
2024-12-13 15:16:33.772,-0.208176,1.67827,13.1363,0.855797,0.560681,0.277096,0
2024-12-13 15:16:33.773,-0.208176,1.67827,13.1363,0.919325,0.590613,0.298475,0
2024-12-13 15:16:33.775,-0.212961,1.69502,12.775,0.919325,0.590613,0.298475,0
2024-12-13 15:16:33.777,-0.227318,1.72852,12.4038,0.98041,0.615658,0.315579,0
2024-12-13 15:16:33.779,-0.258425,1.77398,12.0063,1.04333,0.641313,0.332072,0
2024-12-13 15:16:33.782,-0.282652,1.81226,11.5923,1.10258,0.672466,0.343678,0
2024-12-13 15:16:33.784,-0.311366,1.85533,11.1661,1.15939,0.705529,0.354673,0
2024-12-13 15:16:33.786,-0.371187,1.90558,10.6992,1.21253,0.733017,0.366279,0
2024-12-13 15:16:33.789,-0.442971,1.94865,10.2275,1.25773,0.761116,0.372999,0
2024-12-13 15:16:33.791,-0.514756,2.00638,9.74627,1.29622,0.784939,0.380329,0
2024-12-13 15:16:33.793,-0.62004,2.08295,9.23869,1.33043,0.804486,0.387659,0
2024-12-13 15:16:33.796,-0.701396,2.1332,8.69522,1.35425,0.817314,0.393767,0
2024-12-13 15:16:33.798,-0.73011,2.14756,8.16162,1.36647,0.825866,0.3956,0
2024-12-13 15:16:33.801,-0.770788,2.1667,7.66601,1.36769,0.830141,0.3956,0
2024-12-13 15:16:33.803,-0.835394,2.21456,7.21107,1.35852,0.829531,0.393157,0
2024-12-13 15:16:33.805,-0.912264,2.28156,6.77528,1.34325,0.825255,0.391324,0
2024-12-13 15:16:33.810,-1.04865,2.42991,5.93031,1.27484,0.812427,0.379718,0
2024-12-13 15:16:33.812,-1.09173,2.5331,5.59262,1.22658,0.804486,0.378496,0
2024-12-13 15:16:33.815,-1.14437,2.62881,5.31476,1.17588,0.792269,0.37422,0
2024-12-13 15:16:33.817,-1.22094,2.72453,5.08505,1.11663,0.775776,0.370555,0
2024-12-13 15:16:33.819,-1.30708,2.81545,4.91755,1.11663,0.775776,0.370555,0
2024-12-13 15:16:33.822,-1.38126,2.89681,4.76411,0.981632,0.725076,0.357727,0
2024-12-13 15:16:33.822,-1.38126,2.89681,4.76411,0.981632,0.725076,0.357727,0
2024-12-13 15:16:33.824,-1.43659,2.9662,4.60618,0.981632,0.725076,0.357727,0
2024-12-13 15:16:33.826,-1.47727,3.02124,4.48894,0.829531,0.671245,0.34551,0
2024-12-13 15:16:33.829,-1.50598,3.08584,4.40758,0.829531,0.671245,0.34551,0
2024-12-13 15:16:33.831,-1.5323,3.14118,4.35254,0.667045,0.616879,0.324131,0
2024-12-13 15:16:33.834,-1.57298,3.18186,4.33579,0.587024,0.594278,0.314357,0
2024-12-13 15:16:33.836,-1.63041,3.20818,4.34776,0.505782,0.571066,0.303362,0
2024-12-13 15:16:33.838,-1.67109,3.21775,4.40279,0.424539,0.547854,0.291145,0
2024-12-13 15:16:33.841,-1.6998,3.21536,4.50808,0.348107,0.526474,0.28015,0
2024-12-13 15:16:33.843,-1.73569,3.19382,4.65165,0.277859,0.506927,0.268544,0
2024-12-13 15:16:33.845,-1.75723,3.16511,4.83141,0.20639,0.485547,0.256327,0
2024-12-13 15:16:33.848,-1.76919,3.12204,5.02762,0.20639,0.485547,0.256327,0
2024-12-13 15:16:33.852,-1.74048,3.0021,5.47777,0.0878856,0.445842,0.227617,0
2024-12-13 15:16:33.855,-1.72612,2.94945,5.73859,-0.00923906,0.402472,0.198907,0
2024-12-13 15:16:33.857,-1.70937,2.9016,6.00449,-0.0483333,0.378038,0.183636,0
2024-12-13 15:16:33.857,-1.70937,2.9016,6.00449,-0.0483333,0.378038,0.183636,0
2024-12-13 15:16:33.862,-1.6017,2.75324,6.52642,-0.105753,0.33589,0.149429,0
2024-12-13 15:16:33.862,-1.6017,2.75324,6.52642,-0.105753,0.33589,0.149429,0
2024-12-13 15:16:33.866,-1.52752,2.6336,6.99302,-0.1253,0.290076,0.114534,0
2024-12-13 15:16:33.869,-1.51555,2.55942,7.19671,-0.147291,0.270529,0.098041,0
2024-12-13 15:16:33.871,-1.55623,2.50409,7.369,-0.147291,0.270529,0.098041,0
2024-12-13 15:16:33.874,-1.62323,2.45145,7.51257,-0.146069,0.238765,0.0650552,0
2024-12-13 15:16:33.874,-1.62323,2.45145,7.51257,-0.146069,0.238765,0.0650552,0
2024-12-13 15:16:33.878,-1.68066,2.31027,7.72822,-0.132019,0.212498,0.0375671,0
2024-12-13 15:16:33.878,-1.70937,2.31027,7.72822,-0.132019,0.212498,0.0375671,0
2024-12-13 15:16:33.881,-1.72134,2.25524,7.83111,-0.123468,0.198449,0.0265719,0
2024-12-13 15:16:33.883,-1.73091,2.21216,7.94357,-0.111251,0.181345,0.01802,0
2024-12-13 15:16:33.885,-1.74287,2.19063,8.05843,-0.0959794,0.161187,0.0113007,0
2024-12-13 15:16:33.888,-1.74287,2.17388,8.16401,-0.0800973,0.136753,0.0064139,0
2024-12-13 15:16:33.890,-1.7333,2.15234,8.2358,-0.0800973,0.136753,0.0064139,0
2024-12-13 15:16:33.892,-1.72134,2.14517,8.27647,-0.041614,0.0933833,-0.000916271,0
2024-12-13 15:16:33.895,-1.70219,2.12842,8.31715,-0.0208452,0.0775012,-0.00274881,0
2024-12-13 15:16:33.899,-1.59212,2.11884,8.38654,0.00114534,0.0439046,-0.00580305,0
2024-12-13 15:16:33.904,-1.47248,2.14038,8.34108,0.0646735,0.0219141,-0.00213797,0
2024-12-13 15:16:33.904,-1.47248,2.14038,8.34108,0.0646735,0.0219141,-0.00213797,0
2024-12-13 15:16:33.907,-1.39801,2.14038,8.29801,0.0646735,0.0219141,-0.00213797,0
2024-12-13 15:16:33.909,-1.34058,2.14995,8.25015,0.109265,0.000534491,0.00213797,0
2024-12-13 15:16:33.911,-1.26162,2.15234,8.1688,0.127591,-0.00740652,0.00213797,0
2024-12-13 15:16:33.914,-1.17308,2.15713,8.09432,0.14164,-0.0141258,0.00335966,0
2024-12-13 15:16:33.916,-1.12044,2.17149,8.03689,0.156911,-0.0226777,0.00397051,0
2024-12-13 15:16:33.918,-1.07976,2.19541,7.96511,0.156911,-0.0226777,0.00885729,0
2024-12-13 15:16:33.921,-1.05105,2.22652,7.89093,0.182567,-0.0275645,0.0143549,0
2024-12-13 15:16:33.923,-1.05105,2.25284,7.82154,0.182567,-0.0275645,0.0143549,0
2024-12-13 15:16:33.925,-1.02233,2.2672,7.71625,0.207612,-0.0306187,0.0320695,0
2024-12-13 15:16:33.925,-1.02233,2.2672,7.71625,0.207612,-0.0306187,0.0320695,0
2024-12-13 15:16:33.930,-0.96012,2.27916,7.40489,0.222883,-0.0184018,0.0497841,0
2024-12-13 15:16:33.930,-0.96012,2.27916,7.40489,0.222883,-0.0184018,0.0497841,0
2024-12-13 15:16:33.932,-0.895514,2.27916,7.27568,0.222883,-0.0184018,0.0497841,0
2024-12-13 15:16:33.935,-0.837787,2.27438,7.14646,0.225326,-0.00129805,0.0687203,0
2024-12-13 15:16:33.937,-0.780359,2.27916,7.02682,0.221661,0.0115297,0.0797156,0
2024-12-13 15:16:33.940,-0.742074,2.29591,6.91406,0.22044,0.0219141,0.0888783,0
2024-12-13 15:16:33.942,-0.703789,2.32702,6.78485,0.214331,0.0316877,0.098041,0
2024-12-13 15:16:33.947,-0.665504,2.35813,6.64846,0.202114,0.0597867,0.119421,0
2024-12-13 15:16:33.947,-0.641576,2.37727,6.52642,0.202114,0.0597867,0.119421,0
2024-12-13 15:16:33.949,-0.612862,2.38923,6.41845,0.189897,0.0732253,0.128583,0
2024-12-13 15:16:33.951,-0.584148,2.41795,6.31795,0.179513,0.0872748,0.137212,0
2024-12-13 15:16:33.954,-0.562612,2.46341,6.22463,0.170961,0.102546,0.146374,0
2024-12-13 15:16:33.956,-0.541077,2.47777,6.1337,0.158133,0.117206,0.154315,0
2024-12-13 15:16:33.958,-0.52672,2.47537,6.03799,0.147138,0.133088,0.161645,0
2024-12-13 15:16:33.961,-0.500399,2.48734,5.95903,0.136143,0.143473,0.167754,0
2024-12-13 15:16:33.963,-0.486042,2.50648,5.92074,0.12698,0.158133,0.173252,0
2024-12-13 15:16:33.965,-0.490828,2.52592,5.9016,0.114152,0.171572,0.178138,0
2024-12-13 15:16:33.968,-0.478864,2.53789,5.87258,0.1056,0.182567,0.183025,0
2024-12-13 15:16:33.970,-0.445364,2.54985,5.83909,0.0964375,0.190508,0.190966,0
2024-12-13 15:16:33.972,-0.419043,2.59292,5.80319,0.0878856,0.19906,0.192799,0
2024-12-13 15:16:33.975,-0.411865,2.63599,5.76012,0.0805555,0.205168,0.195853,0
2024-12-13 15:16:33.977,-0.41665,2.65992,5.71227,0.0756687,0.209444,0.200129,0
2024-12-13 15:16:33.980,-0.421436,2.67189,5.65962,0.0713928,0.212498,0.203183,0
2024-12-13 15:16:33.982,-0.41665,2.67189,5.61177,0.0652843,0.217385,0.206237,0
2024-12-13 15:16:33.984,-0.392722,2.67189,5.56391,0.0628409,0.222272,0.20807,0
2024-12-13 15:16:33.987,-0.366401,2.67428,5.48734,0.0573433,0.225937,0.209902,0
2024-12-13 15:16:33.989,-0.364008,2.68146,5.43231,0.0512348,0.22777,0.209292,0
2024-12-13 15:16:33.991,-0.366401,2.68864,5.43709,0.042683,0.225937,0.209902,0
2024-12-13 15:16:33.994,-0.383151,2.7006,5.45384,0.0414613,0.223494,0.211124,0
2024-12-13 15:16:33.996,-0.404686,2.72931,5.45863,0.0390179,0.226548,0.213567,0
2024-12-13 15:16:33.998,-0.397508,2.75324,5.44906,0.0396287,0.222272,0.214789,0
2024-12-13 15:16:34.001,-0.392722,2.75563,5.42752,0.0377962,0.217385,0.217233,0
2024-12-13 15:16:34.003,-0.395115,2.7676,5.41316,0.0359636,0.210666,0.219065,0
2024-12-13 15:16:34.005,-0.378365,2.78674,5.40838,0.0365745,0.205168,0.217843,0
2024-12-13 15:16:34.008,-0.335294,2.78913,5.4012,0.0377962,0.199671,0.214789,0
2024-12-13 15:16:34.010,-0.316152,2.79871,5.40598,0.0353528,0.192951,0.214178,0
2024-12-13 15:16:34.013,-0.294616,2.8011,5.41316,0.0329094,0.185621,0.210513,0
2024-12-13 15:16:34.015,-0.260818,2.80588,5.41316,0.0310769,0.180734,0.208681,0
2024-12-13 15:16:34.017,-0.265603,2.83699,5.42273,0.0298552,0.175848,0.206237,0
2024-12-13 15:16:34.020,-0.265603,2.86092,5.44188,0.0274118,0.169739,0.203794,0
2024-12-13 15:16:34.022,-0.263211,2.87288,5.45863,0.0255792,0.166685,0.201961,0
2024-12-13 15:16:34.024,-0.263211,2.90399,5.4682,0.022525,0.162409,0.198296,0
2024-12-13 15:16:34.027,-0.248854,2.94945,5.46341,0.0200816,0.159355,0.195853,0
2024-12-13 15:16:34.029,-0.246461,2.98056,5.43709,0.0139731,0.158744,0.192188,0
2024-12-13 15:16:34.031,-0.251246,3.00927,5.41316,0.0096972,0.159966,0.189134,0
2024-12-13 15:16:34.034,-0.260818,3.04995,5.39641,0.00603212,0.159355,0.184247,0
2024-12-13 15:16:34.036,-0.258425,3.08345,5.36291,-0.000687203,0.161187,0.178138,0
2024-12-13 15:16:34.038,-0.256032,3.10529,5.31476,-0.0122933,0.162409,0.170808,0
2024-12-13 15:16:34.041,-0.263211,3.13161,5.28604,-0.0208452,0.160576,0.1647,0
2024-12-13 15:16:34.043,-0.253639,3.16032,5.27887,-0.0355055,0.160576,0.159202,0
2024-12-13 15:16:34.046,-0.258425,3.19382,5.27647,-0.0501658,0.161798,0.151872,0
2024-12-13 15:16:34.048,-0.292223,3.21775,5.26451,-0.0666587,0.161798,0.14332,0
2024-12-13 15:16:34.050,-0.335294,3.23928,5.27647,-0.0843733,0.160576,0.137212,0
2024-12-13 15:16:34.053,-0.383151,3.2656,5.30758,-0.104531,0.159355,0.131027,0
2024-12-13 15:16:34.055,-0.445364,3.28714,5.36052,-0.126522,0.159355,0.123697,0
2024-12-13 15:16:34.057,-0.507577,3.30868,5.41316,-0.148512,0.15569,0.119421,0
2024-12-13 15:16:34.060,-0.567398,3.32543,5.4682,-0.168059,0.151414,0.115145,0
2024-12-13 15:16:34.062,-0.632004,3.36371,5.54238,-0.187606,0.147138,0.113923,0
2024-12-13 15:16:34.064,-0.696611,3.40678,5.6333,-0.212651,0.142862,0.113923,0
2024-12-13 15:16:34.067,-0.749253,3.41157,5.74577,-0.235863,0.140419,0.109647,0
2024-12-13 15:16:34.069,-0.801895,3.41875,5.84866,-0.255411,0.133699,0.105371,0
2024-12-13 15:16:34.071,-0.85005,3.44746,5.95663,-0.275568,0.128812,0.106593,0
2024-12-13 15:16:34.074,-0.881157,3.46899,6.10259,-0.294505,0.12698,0.106593,0
2024-12-13 15:16:34.076,-0.914656,3.47378,6.2342,-0.31283,0.11965,0.10476,0
2024-12-13 15:16:34.078,-0.952942,3.46899,6.34188,-0.328101,0.11293,0.104149,0
2024-12-13 15:16:34.081,-1.0008,3.47617,6.46182,-0.337875,0.106211,0.107204,0
2024-12-13 15:16:34.083,-1.04148,3.48814,6.57428,-0.350703,0.0952158,0.109036,0
2024-12-13 15:16:34.086,-1.05344,3.50249,6.69153,-0.359255,0.086664,0.109647,0
2024-12-13 15:16:34.088,-1.0654,3.50728,6.80878,-0.369639,0.0775012,0.11209,0
2024-12-13 15:16:34.090,-1.08933,3.51685,6.90449,-0.37758,0.0671168,0.114534,0
2024-12-13 15:16:34.093,-1.12283,3.54078,6.99302,-0.388575,0.0597867,0.116366,0
2024-12-13 15:16:34.095,-1.14197,3.54078,7.08904,-0.39224,0.0542891,0.11881,0
2024-12-13 15:16:34.097,-1.15155,3.53121,7.18714,-0.397127,0.0500131,0.120642,0
2024-12-13 15:16:34.100,-1.17787,3.53121,7.27568,-0.402014,0.0481806,0.122475,0
2024-12-13 15:16:34.102,-1.21376,3.53121,7.369,-0.408733,0.0439046,0.12614,0
2024-12-13 15:16:34.104,-1.25922,3.53839,7.48146,-0.411787,0.0408504,0.127972,0
2024-12-13 15:16:34.107,-1.29751,3.54556,7.62533,-0.417285,0.0353528,0.131027,0
2024-12-13 15:16:34.109,-1.30708,3.55992,7.76411,-0.419118,0.0280226,0.132248,0
2024-12-13 15:16:34.111,-1.31426,3.5671,7.87418,-0.42095,0.0219141,0.134768,0
2024-12-13 15:16:34.114,-1.3334,3.59103,7.97468,-0.421561,0.014584,0.139655,0
2024-12-13 15:16:34.116,-1.34297,3.61256,8.06082,-0.420339,0.010308,0.142709,0
2024-12-13 15:16:34.119,-1.32622,3.64367,8.13769,-0.420339,0.010308,0.142709,0
2024-12-13 15:16:34.121,-1.30947,3.69183,8.19751,-0.417896,0.00847551,0.145153,0
2024-12-13 15:16:34.126,-1.29751,3.7349,8.3028,-0.414842,0.00603212,0.144542,0
2024-12-13 15:16:34.128,-1.27119,3.75883,8.36022,-0.419728,0.00297788,0.142098,0
2024-12-13 15:16:34.130,-1.23051,3.77797,8.42244,-0.419728,-7.63559e-05,0.140266,0
2024-12-13 15:16:34.133,-1.22812,3.81147,8.45354,-0.419728,-7.63559e-05,0.140266,0
2024-12-13 15:16:34.135,-1.23051,3.82104,8.47747,-0.422783,-0.0122933,0.132248,0
2024-12-13 15:16:34.137,-1.23769,3.82822,8.51336,-0.424004,-0.0129041,0.129805,0
2024-12-13 15:16:34.140,-1.26162,3.86411,8.51815,-0.423394,-0.0129041,0.127972,0
2024-12-13 15:16:34.144,-1.25444,3.88086,8.53011,-0.425837,-0.0122933,0.123086,0
2024-12-13 15:16:34.147,-1.25444,3.88086,8.53011,-0.42828,-0.0129041,0.118199,0
2024-12-13 15:16:34.147,-1.26401,3.90239,8.53011,-0.42828,-0.0129041,0.118199,0
2024-12-13 15:16:34.149,-1.26879,3.90479,8.53969,-0.431335,-0.0129041,0.114534,0
2024-12-13 15:16:34.156,-1.25444,3.95504,8.5349,-0.450882,-0.0153475,0.105982,0
2024-12-13 15:16:34.159,-1.23769,3.97418,8.54686,-0.458823,-0.0184018,0.102317,0
2024-12-13 15:16:34.161,-1.22094,3.99811,8.55404,-0.467985,-0.0202343,0.0974301,0
2024-12-13 15:16:34.163,-1.21137,4.0005,8.57079,-0.467985,-0.0202343,0.0974301,0
2024-12-13 15:16:34.166,-1.18505,4.02443,8.6019,-0.483867,-0.0184018,0.0901,0
2024-12-13 15:16:34.168,-1.1324,4.05554,8.61865,-0.493641,-0.0184018,0.0852132,0
2024-12-13 15:16:34.170,-1.1324,4.05554,8.61865,-0.500971,-0.0165692,0.0784939,0
2024-12-13 15:16:34.170,-1.09173,4.06989,8.62583,-0.500971,-0.0165692,0.0784939,0
2024-12-13 15:16:34.173,-1.05105,4.09143,8.65933,-0.511356,-0.0159584,0.0729962,0
2024-12-13 15:16:34.175,-1.01276,4.12253,8.71945,-0.511356,-0.0159584,0.0687203,0
2024-12-13 15:16:34.177,-0.99362,4.15364,8.7697,-0.533957,-0.0165692,0.0607793,0
2024-12-13 15:16:34.177,-0.99362,4.15364,8.7697,-0.533957,-0.0165692,0.0607793,0
2024-12-13 15:16:34.180,-0.991227,4.17278,8.83191,-0.533957,-0.0165692,0.0552817,0
2024-12-13 15:16:34.182,-0.984048,4.18714,8.90848,-0.553504,-0.0196235,0.0485624,0
2024-12-13 15:16:34.184,-0.981655,4.21137,8.97548,-0.560834,-0.0232886,0.0400105,0
2024-12-13 15:16:34.187,-0.955334,4.22812,9.04008,-0.560834,-0.0269536,0.0332912,0
2024-12-13 15:16:34.189,-0.885943,4.24726,9.1334,-0.580381,-0.0275645,0.0247393,0
2024-12-13 15:16:34.192,-0.818644,4.27597,9.24826,-0.580381,-0.0275645,0.0247393,0
2024-12-13 15:16:34.192,-0.818644,4.27597,9.24826,-0.580381,-0.0275645,0.0247393,0
2024-12-13 15:16:34.194,-0.770788,4.29512,9.34906,-0.595652,-0.0318404,0.0064139,0
2024-12-13 15:16:34.196,-0.744467,4.32862,9.4352,-0.60115,-0.0330621,-0.00152712,0
2024-12-13 15:16:34.201,-0.699003,4.39562,9.61945,-0.610313,-0.0348946,-0.0235176,0
2024-12-13 15:16:34.201,-0.699003,4.39562,9.61945,-0.610313,-0.0348946,-0.0235176,0
2024-12-13 15:16:34.203,-0.687039,4.43151,9.71277,-0.6152,-0.033673,-0.0345129,0
2024-12-13 15:16:34.206,-0.672682,4.45783,9.78455,-0.617032,-0.0330621,-0.0424539,0
2024-12-13 15:16:34.210,-0.615255,4.46501,9.94278,-0.618865,-0.0281753,-0.0565034,0
2024-12-13 15:16:34.210,-0.615255,4.46501,9.94278,-0.618865,-0.0281753,-0.0565034,0
2024-12-13 15:16:34.213,-0.624826,4.48176,10.0289,-0.609702,-0.0159584,-0.0797156,0
2024-12-13 15:16:34.215,-0.65354,4.49611,10.1103,-0.602372,-0.0104608,-0.0925434,0
2024-12-13 15:16:34.217,-0.687039,4.49851,10.1725,-0.595042,-0.00313059,-0.104149,0
2024-12-13 15:16:34.220,-0.710967,4.49611,10.2323,-0.585879,0.00236703,-0.116366,0
2024-12-13 15:16:34.222,-0.73011,4.49611,10.285,-0.576105,0.00847551,-0.123697,0
2024-12-13 15:16:34.225,-0.758824,4.49372,10.3328,-0.563278,0.0170274,-0.137135,0
2024-12-13 15:16:34.227,-0.80668,4.47697,10.3834,-0.563278,0.0170274,-0.137135,0
2024-12-13 15:16:34.232,-0.847657,4.47219,10.4432,-0.522351,0.0286335,-0.164623,0
2024-12-13 15:16:34.232,-0.9003,4.47219,10.4432,-0.522351,0.0286335,-0.164623,0
2024-12-13 15:16:34.234,-0.955334,4.47219,10.4599,-0.508301,0.0316877,-0.173175,0
2024-12-13 15:16:34.236,-0.998405,4.46022,10.4743,-0.493641,0.0329094,-0.180505,0
2024-12-13 15:16:34.239,-1.03669,4.4674,10.4815,-0.477148,0.0347419,-0.187225,0
2024-12-13 15:16:34.241,-1.05344,4.47219,10.4575,-0.461266,0.0353528,-0.193333,0
2024-12-13 15:16:34.243,-1.07258,4.47219,10.4504,-0.445384,0.0359636,-0.196387,0
2024-12-13 15:16:34.246,-1.10848,4.47458,10.4432,-0.431335,0.0359636,-0.202496,0
2024-12-13 15:16:34.248,-1.13958,4.47458,10.4216,-0.416674,0.0341311,-0.204939,0
2024-12-13 15:16:34.251,-1.15155,4.48415,10.4145,-0.403846,0.0322986,-0.208604,0
2024-12-13 15:16:34.253,-1.15872,4.49851,10.4192,-0.389186,0.0261901,-0.209826,0
2024-12-13 15:16:34.255,-1.1659,4.51765,10.424,-0.373915,0.0231358,-0.211048,0
2024-12-13 15:16:34.257,-1.14197,4.54876,10.4264,-0.361087,0.0170274,-0.212269,0
2024-12-13 15:16:34.260,-1.12283,4.57029,10.4192,-0.350703,0.0139731,-0.211659,0
2024-12-13 15:16:34.262,-1.12762,4.58226,10.424,-0.339707,0.010308,-0.213491,0
2024-12-13 15:16:34.265,-1.13958,4.61336,10.448,-0.325658,0.00664296,-0.211659,0
2024-12-13 15:16:34.267,-1.14437,4.64686,10.4647,-0.315884,-0.000687203,-0.211659,0
2024-12-13 15:16:34.269,-1.13719,4.67318,10.4671,-0.303667,-0.00496313,-0.209826,0
2024-12-13 15:16:34.272,-1.12522,4.68993,10.448,-0.29084,-0.00679568,-0.209826,0
2024-12-13 15:16:34.274,-1.12283,4.71386,10.436,-0.279234,-0.00862822,-0.208604,0
2024-12-13 15:16:34.276,-1.13001,4.7354,10.4384,-0.265795,-0.00801737,-0.207993,0
2024-12-13 15:16:34.281,-1.1324,4.8003,10.4216,-0.265795,-0.00801737,-0.207993,0
2024-12-13 15:16:34.286,-1.17308,4.85773,10.3639,-0.213262,-0.00679568,-0.196387,0
2024-12-13 15:16:34.286,-1.17308,4.85773,10.3639,-0.213262,-0.00679568,-0.196387,0
2024-12-13 15:16:34.288,-1.1994,4.86491,10.3424,-0.198602,-0.00923906,-0.192722,0
2024-12-13 15:16:34.290,-1.22094,4.88166,10.3184,-0.198602,-0.00923906,-0.188446,0
2024-12-13 15:16:34.293,-1.23051,4.89601,10.3137,-0.172946,-0.00923906,-0.18417,0
2024-12-13 15:16:34.295,-1.23051,4.91516,10.3208,-0.172946,-0.00923906,-0.18417,0
2024-12-13 15:16:34.298,-1.24247,4.93669,10.2897,-0.143015,-0.0159584,-0.172564,0
2024-12-13 15:16:34.298,-1.24247,4.93669,10.2897,-0.143015,-0.0159584,-0.172564,0
2024-12-13 15:16:34.300,-1.22094,4.94148,10.2036,-0.129576,-0.0159584,-0.164623,0
2024-12-13 15:16:34.302,-1.22333,4.95344,10.1414,-0.116748,-0.0196235,-0.157904,0
2024-12-13 15:16:34.305,-1.22812,4.97258,10.0935,-0.105753,-0.0220669,-0.150574,0
2024-12-13 15:16:34.307,-1.2018,4.98694,10.0289,-0.0947577,-0.0257319,-0.145076,0
2024-12-13 15:16:34.309,-1.18505,5.00608,9.97867,-0.0862058,-0.0324513,-0.137746,0
2024-12-13 15:16:34.314,-1.14915,5.03958,9.88774,-0.0709346,-0.0452791,-0.124918,0
2024-12-13 15:16:34.314,-1.14915,5.03958,9.88774,-0.0709346,-0.0452791,-0.124918,0
2024-12-13 15:16:34.316,-1.12044,5.06112,9.83988,-0.0648262,-0.0513875,-0.118199,0
2024-12-13 15:16:34.319,-1.10848,5.09462,9.81326,-0.0605502,-0.057496,-0.112701,0
2024-12-13 15:16:34.321,-1.09412,5.1018,9.78216,-0.0544418,-0.0629936,-0.107815,0
2024-12-13 15:16:34.323,-1.06301,5.11855,9.76062,-0.049555,-0.0672696,-0.104149,0
2024-12-13 15:16:34.326,-1.0319,5.1329,9.74866,-0.0489441,-0.073378,-0.0998735,0
2024-12-13 15:16:34.328,-1.01755,5.12573,9.76302,-0.0483333,-0.0782648,-0.0968193,0
2024-12-13 15:16:34.331,-1.02473,5.14487,9.78455,-0.0446682,-0.0819299,-0.0949868,0
2024-12-13 15:16:34.333,-1.02712,5.16401,9.80369,-0.0403923,-0.0874275,-0.0931542,0
2024-12-13 15:16:34.338,-1.02712,5.15444,9.85664,-0.037338,-0.0984228,-0.0937651,0
2024-12-13 15:16:34.338,-1.02473,5.15444,9.85664,-0.037338,-0.0984228,-0.0937651,0
2024-12-13 15:16:34.340,-1.01515,5.1664,9.90928,-0.0348946,-0.105142,-0.0901,0
2024-12-13 15:16:34.342,-1.01515,5.16401,9.95953,-0.0306187,-0.111251,-0.0913217,0
2024-12-13 15:16:34.345,-1.02951,5.1329,10.0265,-0.0263428,-0.11797,-0.0907108,0
2024-12-13 15:16:34.347,-1.02951,5.11615,10.1198,-0.0226777,-0.126522,-0.0913217,0
2024-12-13 15:16:34.349,-1.01515,5.11615,10.2203,-0.0159584,-0.135074,-0.0925434,0
2024-12-13 15:16:34.353,-1.02712,5.12333,10.3113,-0.00251974,-0.152788,-0.0986518,0
2024-12-13 15:16:34.354,-1.04865,5.12333,10.3857,-0.00251974,-0.152788,-0.0986518,0
2024-12-13 15:16:34.356,-1.05105,5.12094,10.4767,0.00603212,-0.16134,-0.0986518,0
2024-12-13 15:16:34.359,-1.05344,5.11615,10.5891,0.0158057,-0.169892,-0.101095,0
2024-12-13 15:16:34.362,-1.0654,5.11615,10.6872,0.038407,-0.187606,-0.102928,0
2024-12-13 15:16:34.363,-1.0678,5.12812,10.7734,0.038407,-0.187606,-0.102928,0
2024-12-13 15:16:34.366,-1.0654,5.14726,10.8523,0.0512348,-0.198602,-0.103539,0
2024-12-13 15:16:34.368,-1.0654,5.15922,10.9436,0.066506,-0.207764,-0.107815,0
2024-12-13 15:16:34.373,-1.04865,5.17597,11.0321,0.0915507,-0.230366,-0.108425,0
2024-12-13 15:16:34.373,-1.04148,5.21187,11.1135,0.0915507,-0.230366,-0.108425,0
2024-12-13 15:16:34.375,-1.03908,5.2358,11.2092,0.106822,-0.243194,-0.11148,0
2024-12-13 15:16:34.378,-1.01994,5.26451,11.2905,0.120261,-0.256632,-0.11209,0
2024-12-13 15:16:34.380,-1.00798,5.29562,11.3504,0.134921,-0.271293,-0.11148,0
2024-12-13 15:16:34.382,-1.0008,5.30997,11.4126,0.146527,-0.285342,-0.11148,0
2024-12-13 15:16:34.385,-0.99362,5.33899,11.47,0.159355,-0.300613,-0.112701,0
2024-12-13 15:16:34.387,-0.991227,5.3677,11.5205,0.169739,-0.312219,-0.110869,0
2024-12-13 15:16:34.389,-0.979263,5.38684,11.578,0.180124,-0.321382,-0.110258,0
2024-12-13 15:16:34.392,-0.964906,5.40598,11.6354,0.190508,-0.331766,-0.110258,0
2024-12-13 15:16:34.394,-0.955334,5.41316,11.6904,0.201503,-0.339097,-0.108425,0
2024-12-13 15:16:34.396,-0.96012,5.42752,11.7455,0.210055,-0.344594,-0.107815,0
2024-12-13 15:16:34.399,-0.97687,5.45863,11.8053,0.22105,-0.347648,-0.106593,0
2024-12-13 15:16:34.401,-0.991227,5.48495,11.846,0.230213,-0.347648,-0.105371,0
2024-12-13 15:16:34.404,-0.986441,5.51366,11.8579,0.239376,-0.344594,-0.102928,0
2024-12-13 15:16:34.406,-0.974477,5.5352,11.8675,0.247317,-0.339097,-0.0968193,0
2024-12-13 15:16:34.409,-0.97687,5.54238,11.889,0.252204,-0.32688,-0.0913217,0
2024-12-13 15:16:34.411,-0.979263,5.57348,11.913,0.252204,-0.32688,-0.0913217,0
2024-12-13 15:16:34.413,-0.962513,5.6022,11.9393,0.252814,-0.321993,-0.0870457,0
2024-12-13 15:16:34.415,-0.955334,5.62852,11.9489,0.254647,-0.315274,-0.0846023,0
2024-12-13 15:16:34.418,-0.972084,5.66441,11.9608,0.252814,-0.308554,-0.0815481,0
2024-12-13 15:16:34.420,-0.972084,5.69073,11.9919,0.250982,-0.299392,-0.0784939,0
2024-12-13 15:16:34.422,-0.967299,5.73141,12.0087,0.250371,-0.293283,-0.0760505,0
2024-12-13 15:16:34.425,-0.96012,5.76012,12.0111,0.247317,-0.290229,-0.0748288,0
2024-12-13 15:16:34.427,-0.950549,5.77209,11.9991,0.243041,-0.287785,-0.0754396,0
2024-12-13 15:16:34.429,-0.936192,5.77926,12.0039,0.236932,-0.285953,-0.0760505,0
2024-12-13 15:16:34.432,-0.936192,5.78644,12.0087,0.230213,-0.285953,-0.0760505,0
2024-12-13 15:16:34.434,-0.948156,5.79601,11.9991,0.225326,-0.281066,-0.0760505,0
2024-12-13 15:16:34.437,-0.967299,5.79841,11.9991,0.218607,-0.278623,-0.0754396,0
2024-12-13 15:16:34.439,-1.0008,5.78644,12.0087,0.211277,-0.275568,-0.0754396,0
2024-12-13 15:16:34.441,-1.02233,5.77687,12.0374,0.211277,-0.275568,-0.0754396,0
2024-12-13 15:16:34.444,-1.04626,5.76491,12.0951,0.192951,-0.273736,-0.0760505,0
2024-12-13 15:16:34.446,-1.07019,5.73859,12.1621,0.183789,-0.275568,-0.0754396,0
2024-12-13 15:16:34.448,-1.07976,5.70509,12.2411,0.174015,-0.278623,-0.0748288,0
2024-12-13 15:16:34.451,-1.07976,5.68355,12.3368,0.168517,-0.283509,-0.0723854,0
2024-12-13 15:16:34.453,-1.08933,5.67398,12.4277,0.161187,-0.289007,-0.0723854,0
2024-12-13 15:16:34.455,-1.10848,5.67877,12.4899,0.15569,-0.296948,-0.0729962,0
2024-12-13 15:16:34.458,-1.12044,5.67877,12.5354,0.154468,-0.301224,-0.0742179,0
2024-12-13 15:16:34.460,-1.11805,5.66202,12.5785,0.150192,-0.304278,-0.0742179,0
2024-12-13 15:16:34.462,-1.09412,5.64766,12.6096,0.145916,-0.304278,-0.0766613,0
2024-12-13 15:16:34.465,-1.05823,5.62373,12.6144,0.142862,-0.303057,-0.0784939,0
2024-12-13 15:16:34.467,-1.03908,5.61416,12.6191,0.140419,-0.297559,-0.0846023,0
2024-12-13 15:16:34.469,-1.0319,5.60937,12.6458,0.140419,-0.297559,-0.0846023,0
2024-12-13 15:16:34.472,-1.05583,5.59262,12.6482,0.129423,-0.281677,-0.0925434,0
2024-12-13 15:16:34.474,-1.07737,5.57587,12.6362,0.119039,-0.275568,-0.0937651,0
2024-12-13 15:16:34.477,-1.09651,5.55913,12.6721,0.108654,-0.271293,-0.098041,0
2024-12-13 15:16:34.479,-1.1324,5.55195,12.7176,0.0970484,-0.268238,-0.0992627,0
2024-12-13 15:16:34.481,-1.16351,5.53759,12.7582,0.0836097,-0.260297,-0.100484,0
2024-12-13 15:16:34.484,-1.17308,5.50888,12.7822,0.0720036,-0.252967,-0.100484,0
