timestamp,accel_x,accel_y,accel_z,gyro_x,gyro_y,gyro_z,step_timestamp
2024-11-26 21:45:40.508,0.138784,4.14407,8.39133,0.225555,0.111861,0.425608,0
2024-11-26 21:45:40.508,0.191426,4.14407,8.39133,0.225555,0.111861,0.425608,0
2024-11-26 21:45:40.508,0.191426,4.14407,8.39133,0.225555,0.111861,0.425608,0
2024-11-26 21:45:40.510,0.248854,4.18953,8.3363,0.243881,0.113083,0.413391,0
2024-11-26 21:45:40.511,0.248854,4.18953,8.3363,0.25793,0.11064,0.403006,0
2024-11-26 21:45:40.514,0.311366,4.22812,8.3028,0.25793,0.11064,0.403006,0
2024-11-26 21:45:40.515,0.364008,4.27119,8.22383,0.275645,0.108807,0.390179,0
2024-11-26 21:45:40.516,0.364008,4.27119,8.22383,0.290305,0.100866,0.378573,0
2024-11-26 21:45:40.518,0.4334,4.30708,8.09671,0.290305,0.100866,0.378573,0
2024-11-26 21:45:40.518,0.4334,4.30708,8.09671,0.290305,0.100866,0.378573,0
2024-11-26 21:45:40.521,0.52672,4.31905,8.02014,0.303133,0.0910926,0.365134,0
2024-11-26 21:45:40.521,0.52672,4.31905,8.02014,0.303133,0.0910926,0.365134,0
2024-11-26 21:45:40.522,0.576969,4.31905,7.99143,0.314739,0.0745997,0.347419,0
2024-11-26 21:45:40.522,0.576969,4.31905,7.99143,0.314739,0.0745997,0.347419,0
2024-11-26 21:45:40.525,0.529113,4.37169,7.90289,0.325734,0.0605502,0.333981,0
2024-11-26 21:45:40.527,0.462114,4.46261,7.78086,0.335508,0.0538309,0.321764,0
2024-11-26 21:45:40.527,0.529113,4.37169,7.90289,0.335508,0.0538309,0.321764,0
2024-11-26 21:45:40.529,0.41665,4.57268,7.7019,0.344671,0.0440574,0.312601,0
2024-11-26 21:45:40.529,0.41665,4.57268,7.7019,0.344671,0.0440574,0.312601,0
2024-11-26 21:45:40.530,0.41665,4.57268,7.7019,0.344671,0.0440574,0.312601,0
2024-11-26 21:45:40.531,0.383151,4.68036,7.65643,0.352612,0.0306187,0.303438,0
2024-11-26 21:45:40.535,0.335294,4.75215,7.57478,0.35872,0.013515,0.299162,0
2024-11-26 21:45:40.535,0.335294,4.75215,7.57478,0.35872,0.013515,0.299162,0
2024-11-26 21:45:40.536,0.32333,4.82902,7.47907,0.361774,-0.00664296,0.293054,0
2024-11-26 21:45:40.536,0.32333,4.82902,7.47907,0.361774,-0.00664296,0.293054,0
2024-11-26 21:45:40.538,0.347258,4.89601,7.42642,0.364218,-0.0310769,0.286335,0
2024-11-26 21:45:40.539,0.347258,4.89601,7.42642,0.364218,-0.0310769,0.286335,0
2024-11-26 21:45:40.541,0.344866,4.94387,7.35464,0.366661,-0.058565,0.280837,0
2024-11-26 21:45:40.541,0.344866,4.94387,7.35464,0.366661,-0.058565,0.280837,0
2024-11-26 21:45:40.543,0.342473,4.98455,7.30439,0.364218,-0.0915507,0.274118,0
2024-11-26 21:45:40.543,0.342473,4.98455,7.30439,0.364218,-0.0915507,0.274118,0
2024-11-26 21:45:40.546,0.342473,5.03719,7.28046,0.364829,-0.124536,0.269231,0
2024-11-26 21:45:40.546,0.342473,5.03719,7.28046,0.364829,-0.124536,0.269231,0
2024-11-26 21:45:40.549,0.364008,5.08983,7.2685,0.362385,-0.156301,0.264955,0
2024-11-26 21:45:40.550,0.364008,5.08983,7.28046,0.355055,-0.190508,0.260679,0
2024-11-26 21:45:40.550,0.440578,5.11376,7.28046,0.355055,-0.190508,0.260679,0
2024-11-26 21:45:40.553,0.440578,5.11855,7.29003,0.348336,-0.224105,0.25396,0
2024-11-26 21:45:40.553,0.495613,5.11855,7.29003,0.348336,-0.224105,0.25396,0
2024-11-26 21:45:40.555,0.488435,5.14965,7.28764,0.340395,-0.248538,0.250906,0
2024-11-26 21:45:40.555,0.488435,5.14965,7.28764,0.340395,-0.248538,0.250906,0
2024-11-26 21:45:40.557,0.471685,5.23101,7.31157,0.340395,-0.248538,0.250906,0
2024-11-26 21:45:40.558,0.471685,5.23101,7.31157,0.340395,-0.248538,0.250906,0
2024-11-26 21:45:40.558,0.471685,5.23101,7.31157,0.340395,-0.248538,0.250906,0
2024-11-26 21:45:40.560,0.454935,5.31476,7.38335,0.32268,-0.284578,0.246019,0
2024-11-26 21:45:40.563,0.457328,5.36052,7.45035,0.304965,-0.30718,0.253349,0
2024-11-26 21:45:40.563,0.457328,5.36052,7.45035,0.304965,-0.30718,0.253349,0
2024-11-26 21:45:40.564,0.486042,5.40598,7.50299,0.304965,-0.30718,0.253349,0
2024-11-26 21:45:40.568,0.524327,5.43709,7.56999,0.297024,-0.305958,0.256403,0
2024-11-26 21:45:40.569,0.588933,5.42991,7.64686,0.288473,-0.299239,0.263733,0
2024-11-26 21:45:40.569,0.588933,5.42991,7.64686,0.288473,-0.299239,0.263733,0
2024-11-26 21:45:40.572,0.663111,5.41795,7.71865,0.277477,-0.286411,0.269842,0
2024-11-26 21:45:40.575,0.742074,5.40838,7.81436,0.268315,-0.266864,0.277172,0
2024-11-26 21:45:40.576,0.837787,5.39163,7.93879,0.260374,-0.245484,0.285113,0
2024-11-26 21:45:40.579,0.909871,5.36291,8.068,0.251822,-0.222272,0.291832,0
2024-11-26 21:45:40.581,0.972084,5.34856,8.1999,0.251822,-0.222272,0.291832,0
2024-11-26 21:45:40.582,0.909871,5.34856,8.1999,0.232886,-0.161187,0.306493,0
2024-11-26 21:45:40.582,0.972084,5.34856,8.1999,0.232886,-0.161187,0.306493,0
2024-11-26 21:45:40.586,1.04865,5.3004,8.41047,0.232886,-0.161187,0.306493,0
2024-11-26 21:45:40.587,1.04865,5.3004,8.41047,0.232886,-0.161187,0.306493,0
2024-11-26 21:45:40.589,1.08455,5.29322,8.50379,0.197456,-0.0432938,0.331537,0
2024-11-26 21:45:40.589,1.08455,5.29322,8.50379,0.197456,-0.0432938,0.331537,0
2024-11-26 21:45:40.594,1.14676,5.32194,8.71705,0.184018,-0.00236703,0.3407,0
2024-11-26 21:45:40.595,1.17308,5.35813,8.82473,0.169357,0.0367272,0.345587,0
2024-11-26 21:45:40.595,1.17308,5.35813,8.82473,0.169357,0.0367272,0.345587,0
2024-11-26 21:45:40.598,1.21615,5.37966,8.95873,0.155308,0.0758214,0.351084,0
2024-11-26 21:45:40.600,1.27597,5.39641,9.1334,0.135761,0.108807,0.351695,0
2024-11-26 21:45:40.603,1.28315,5.46341,9.30838,0.119268,0.141793,0.351084,0
2024-11-26 21:45:40.605,1.22812,5.55195,9.46152,0.119268,0.141793,0.351084,0
2024-11-26 21:45:40.608,1.1683,5.6357,9.61227,0.0856713,0.218149,0.345587,0
2024-11-26 21:45:40.608,1.1683,5.6357,9.61227,0.0856713,0.218149,0.345587,0
2024-11-26 21:45:40.610,1.1013,5.71944,9.78455,0.050853,0.28412,0.338257,0
2024-11-26 21:45:40.613,1.04865,5.79123,9.95235,0.0343602,0.308554,0.33337,0
2024-11-26 21:45:40.616,0.996012,5.86062,10.2634,0.0221432,0.33421,0.32604,0
2024-11-26 21:45:40.617,0.996012,5.86062,10.2634,0.0221432,0.33421,0.32604,0
2024-11-26 21:45:40.619,1.00558,5.89681,10.3834,0.00626118,0.361087,0.31871,0
2024-11-26 21:45:40.621,1.00558,5.89681,10.5102,-0.00901,0.386132,0.307103,0
2024-11-26 21:45:40.623,1.07258,5.92553,10.649,-0.0224486,0.414231,0.293665,0
2024-11-26 21:45:40.627,1.10369,5.9351,10.7758,-0.0224486,0.43561,0.279004,0
2024-11-26 21:45:40.629,1.11565,5.9327,10.8691,-0.0481042,0.452103,0.260679,0
2024-11-26 21:45:40.631,1.08933,5.92553,10.9603,-0.0603212,0.461266,0.242964,0
2024-11-26 21:45:40.633,1.03908,5.9327,11.0536,-0.0725381,0.460655,0.219752,0
2024-11-26 21:45:40.635,1.03908,5.93749,11.1422,-0.0725381,0.460655,0.219752,0
2024-11-26 21:45:40.636,0.988834,5.93749,11.1422,-0.0933069,0.436832,0.16783,0
2024-11-26 21:45:40.637,0.955334,5.9351,11.2355,-0.0933069,0.436832,0.16783,0
2024-11-26 21:45:40.641,0.929013,5.97338,11.3384,-0.104913,0.411787,0.142175,0
2024-11-26 21:45:40.643,0.991227,6.10259,11.458,-0.104913,0.411787,0.142175,0
2024-11-26 21:45:40.644,1.05344,6.21267,11.5612,-0.116519,0.360476,0.076814,0
2024-11-26 21:45:40.648,0.986441,6.20788,11.688,-0.116519,0.340318,0.0401632,0
2024-11-26 21:45:40.649,0.893121,6.1672,11.8866,-0.113465,0.317106,0.00473407,0
2024-11-26 21:45:40.650,0.893121,6.1672,11.8866,-0.113465,0.317106,0.00473407,0
2024-11-26 21:45:40.654,0.8668,6.08106,12.1167,-0.096972,0.259076,-0.0600157,0
2024-11-26 21:45:40.655,0.8668,6.08106,12.1167,-0.096972,0.259076,-0.0600157,0
2024-11-26 21:45:40.659,0.833001,6.07867,12.3727,-0.0829225,0.164394,-0.12782,0
2024-11-26 21:45:40.660,0.833001,6.07867,12.3727,-0.0829225,0.164394,-0.12782,0
2024-11-26 21:45:40.661,0.691825,6.12174,12.5067,-0.0755923,0.109418,-0.15714,0
2024-11-26 21:45:40.664,0.512363,6.17917,12.6458,-0.0615429,0.0611611,-0.188294,0
2024-11-26 21:45:40.667,0.344866,6.21267,12.7893,-0.0218378,-0.00542127,-0.238383,0
2024-11-26 21:45:40.669,0.212961,6.21267,12.9401,-0.0218378,-0.00542127,-0.238383,0
2024-11-26 21:45:40.673,0.0215354,6.13131,13.2275,0.0343602,-0.0274118,-0.281753,0
2024-11-26 21:45:40.675,0.040678,6.07867,13.4046,0.0722327,-0.0237467,-0.300079,0
2024-11-26 21:45:40.680,0.162712,6.02363,13.7734,0.14981,-0.00175619,-0.33734,0
2024-11-26 21:45:40.681,0.162712,6.02363,13.7734,0.14981,-0.00175619,-0.33734,0
2024-11-26 21:45:40.685,0.282652,6.05474,13.8141,0.245102,0.0819299,-0.376435,0
2024-11-26 21:45:40.689,0.574577,6.3012,13.6965,0.292138,0.155232,-0.397203,0
2024-11-26 21:45:40.692,0.672682,6.41366,13.7468,0.391095,0.32749,-0.442406,0
2024-11-26 21:45:40.694,0.718146,6.49292,13.8021,0.442406,0.394073,-0.462564,0
2024-11-26 21:45:40.696,0.569791,6.59103,13.6989,0.494328,0.450882,-0.479057,1
2024-11-26 21:45:40.696,0.569791,6.59103,13.6989,0.494328,0.450882,-0.479057,1
2024-11-26 21:45:40.699,0.253639,6.71306,13.4883,0.542585,0.506469,-0.490663,0
2024-11-26 21:45:40.701,-0.117248,6.80638,13.2826,0.542585,0.55045,-0.494328,0
2024-11-26 21:45:40.703,-0.548256,6.8351,13.0908,0.542585,0.55045,-0.494328,0
2024-11-26 21:45:40.706,-1.0654,6.81356,12.9138,0.621384,0.580381,-0.486387,0
2024-11-26 21:45:40.709,-1.57298,6.72503,12.708,0.672696,0.59382,-0.469283,0
2024-11-26 21:45:40.710,-1.82184,6.75135,12.5234,0.672696,0.59382,-0.469283,0
2024-11-26 21:45:40.711,-1.82184,6.75135,12.5234,0.672696,0.59382,-0.469283,0
2024-11-26 21:45:40.716,-2.17388,6.40648,12.4325,0.70446,0.570608,-0.43813,0
2024-11-26 21:45:40.716,-1.95823,6.40648,12.4325,0.70446,0.570608,-0.43813,0
2024-11-26 21:45:40.717,-2.17388,6.40648,12.3847,0.71912,0.523572,-0.404534,0
2024-11-26 21:45:40.722,-2.53549,4.46501,12.2315,0.711179,0.473483,-0.361163,0
2024-11-26 21:45:40.723,-2.53549,4.46501,12.2315,0.703238,0.433167,-0.33673,0
2024-11-26 21:45:40.725,-2.60728,3.86411,12.3105,0.703238,0.433167,-0.33673,0
2024-11-26 21:45:40.726,-2.60728,3.86411,12.3105,0.703238,0.433167,-0.33673,0
2024-11-26 21:45:40.727,-2.58574,3.35414,12.399,0.691021,0.378802,-0.309852,0
2024-11-26 21:45:40.733,-2.53071,2.82981,12.3559,0.676971,0.316495,-0.283586,0
2024-11-26 21:45:40.734,-2.47298,2.75324,12.3009,0.623217,0.183941,-0.231053,0
2024-11-26 21:45:40.735,-2.47298,2.75324,12.3009,0.623217,0.183941,-0.231053,0
2024-11-26 21:45:40.736,-2.2672,2.68624,12.2937,0.585955,0.110029,-0.204787,0
2024-11-26 21:45:40.742,-1.65194,2.57139,12.1334,0.4815,-0.0335202,-0.15653,0
2024-11-26 21:45:40.743,-1.35015,2.48016,11.9871,0.424081,-0.0933833,-0.135761,0
2024-11-26 21:45:40.744,-1.65194,2.57139,11.9871,0.424081,-0.0933833,-0.135761,0
2024-11-26 21:45:40.747,-1.11565,2.35334,11.8173,0.364829,-0.139808,-0.114992,0
2024-11-26 21:45:40.749,-1.11565,2.35334,11.8173,0.239605,-0.170961,-0.0807846,0
2024-11-26 21:45:40.750,-0.722932,2.12363,11.3934,0.239605,-0.170961,-0.0807846,0
2024-11-26 21:45:40.751,-0.722932,2.12363,11.3934,0.239605,-0.170961,-0.0807846,0
2024-11-26 21:45:40.755,-0.452543,1.9657,11.0225,0.117435,-0.13431,-0.0569615,0
2024-11-26 21:45:40.755,-0.452543,1.9657,11.0225,0.117435,-0.13431,-0.0569615,0
2024-11-26 21:45:40.761,-0.474078,1.93669,10.8739,-0.0279463,-0.010308,-0.0166456,0
2024-11-26 21:45:40.761,-0.474078,1.93669,10.8739,-0.0279463,-0.010308,-0.0166456,0
2024-11-26 21:45:40.763,-0.529113,1.95344,10.8906,-0.0279463,-0.010308,-0.0166456,0
2024-11-26 21:45:40.766,-0.598505,1.97288,10.905,-0.0841442,0.0837624,0.0145076,0
2024-11-26 21:45:40.768,-0.65354,1.95344,10.9098,-0.0841442,0.0837624,0.0145076,0
2024-11-26 21:45:40.770,-0.703789,1.93191,10.9002,-0.0841442,0.0837624,0.0145076,0
2024-11-26 21:45:40.772,-0.73011,1.91516,10.893,-0.1098,0.17539,0.0426066,0
2024-11-26 21:45:40.775,-0.718146,1.89362,10.893,-0.106746,0.257854,0.0621537,0
2024-11-26 21:45:40.776,-0.718146,1.88883,10.8547,-0.106746,0.257854,0.0621537,0
2024-11-26 21:45:40.776,-0.691825,1.88883,10.8547,-0.106746,0.257854,0.0621537,0
2024-11-26 21:45:40.781,-0.651147,1.91037,10.7495,-0.0798683,0.332377,0.0676513,0
2024-11-26 21:45:40.782,-0.651147,1.91037,10.7495,-0.0566561,0.364752,0.0639862,0
2024-11-26 21:45:40.784,-0.632004,1.88405,10.692,-0.0566561,0.364752,0.0639862,0
2024-11-26 21:45:40.787,-0.63679,1.86491,10.5963,0.00320695,0.412398,0.0548235,0
2024-11-26 21:45:40.789,-0.701396,1.87448,10.5078,0.00320695,0.412398,0.0548235,0
2024-11-26 21:45:40.789,-0.701396,1.87448,10.5078,0.00320695,0.412398,0.0548235,0
2024-11-26 21:45:40.792,-0.797109,1.91276,10.4049,0.0820062,0.444773,0.0432174,0
2024-11-26 21:45:40.796,-1.01037,1.93908,10.0696,0.124155,0.455158,0.0358873,0
2024-11-26 21:45:40.798,-1.14437,1.97049,9.92363,0.124155,0.455158,0.0358873,0
2024-11-26 21:45:40.799,-1.14437,1.97049,9.92363,0.213949,0.461266,0.0297788,0
2024-11-26 21:45:40.801,-1.25922,2.00399,9.76302,0.213949,0.461266,0.0297788,0
2024-11-26 21:45:40.802,-1.35972,2.03031,9.6003,0.259152,0.450882,0.0261137,0
2024-11-26 21:45:40.805,-1.4342,2.03749,9.47348,0.301911,0.43561,0.0285571,0
2024-11-26 21:45:40.807,-1.4653,2.04706,9.31316,0.345892,0.417896,0.0285571,0
2024-11-26 21:45:40.809,-1.41745,2.08535,9.12383,0.38743,0.393462,0.029168,0
2024-11-26 21:45:40.813,-1.03669,2.23131,8.9348,0.38743,0.393462,0.029168,0
2024-11-26 21:45:40.814,-0.897907,2.30788,8.88216,0.457677,0.320771,0.00167983,0
2024-11-26 21:45:40.817,-1.25444,2.23609,8.78166,0.457677,0.320771,0.00167983,0
2024-11-26 21:45:40.819,-1.50359,2.16431,8.55404,0.52426,0.254189,-0.0221432,0
2024-11-26 21:45:40.820,-1.50359,2.16431,8.55404,0.52426,0.254189,-0.0221432,0
2024-11-26 21:45:40.824,-1.63759,2.08056,8.42004,0.568241,0.169892,-0.0331385,0
2024-11-26 21:45:40.827,-1.81466,1.95105,8.13021,0.592675,0.0752106,-0.0313059,0
2024-11-26 21:45:40.827,-1.81466,1.95105,8.13021,0.592675,0.0752106,-0.0313059,0
2024-11-26 21:45:40.829,-1.90319,1.89601,7.96511,0.592675,0.0752106,-0.0313059,0
2024-11-26 21:45:40.831,-1.97288,1.85533,7.82393,0.592064,0.0269536,-0.0251975,0
2024-11-26 21:45:40.833,-2.05902,1.82423,7.67797,0.58962,-0.0176382,-0.0203107,0
2024-11-26 21:45:40.838,-2.23849,1.73091,7.37617,0.580458,-0.0591758,0.000458135,0
2024-11-26 21:45:40.839,-2.23849,1.73091,7.37617,0.548694,-0.135532,0.0132859,0
2024-11-26 21:45:40.840,-2.3007,1.69741,7.24218,0.548694,-0.135532,0.0132859,0
2024-11-26 21:45:40.843,-2.36531,1.67109,7.14407,0.525481,-0.17035,0.0267246,0
2024-11-26 21:45:40.845,-2.41555,1.64955,7.07468,0.496161,-0.201503,0.0383307,0
2024-11-26 21:45:40.847,-2.44188,1.63759,7.04597,0.460121,-0.229602,0.0511585,0
2024-11-26 21:45:40.850,-2.45863,1.63759,7.05314,0.424081,-0.254647,0.0664296,0
2024-11-26 21:45:40.853,-2.47777,1.63041,7.08425,0.341616,-0.289465,0.0908635,0
2024-11-26 21:45:40.855,-2.50648,1.61605,7.16561,0.341616,-0.289465,0.0908635,0
2024-11-26 21:45:40.856,-2.54267,1.62562,7.29243,0.341616,-0.289465,0.0908635,0
2024-11-26 21:45:40.857,-2.54267,1.62562,7.29243,0.341616,-0.289465,0.0908635,0
2024-11-26 21:45:40.860,-2.57378,1.64237,7.43121,0.215171,-0.304736,0.117741,0
2024-11-26 21:45:40.861,-2.6001,1.64955,7.56999,0.215171,-0.304736,0.117741,0
2024-11-26 21:45:40.864,-2.6671,1.66391,7.71865,0.169968,-0.302293,0.123849,0
2024-11-26 21:45:40.867,-2.72692,1.6663,7.84307,0.0899473,-0.273583,0.132401,0
2024-11-26 21:45:40.869,-2.68624,1.68544,7.95554,0.0496313,-0.257701,0.134234,0
2024-11-26 21:45:40.871,-2.72213,1.73569,8.07996,0.0496313,-0.257701,0.134234,0
2024-11-26 21:45:40.872,-2.72213,1.73569,8.07996,0.0496313,-0.257701,0.134234,0
2024-11-26 21:45:40.875,-2.69821,1.81466,8.42004,-0.0224486,-0.249149,0.13912,0
2024-11-26 21:45:40.876,-2.69821,1.81466,8.42004,-0.0560452,-0.241819,0.134234,0
2024-11-26 21:45:40.881,-2.34856,1.89841,8.51336,-0.120795,-0.215553,0.118352,0
2024-11-26 21:45:40.881,-2.5331,1.89841,8.51336,-0.120795,-0.215553,0.118352,0
2024-11-26 21:45:40.883,-2.18345,1.94148,8.55165,-0.120795,-0.215553,0.118352,0
2024-11-26 21:45:40.887,-1.93669,1.98724,8.60668,-0.181345,-0.1844,0.0902527,0
2024-11-26 21:45:40.888,-2.04706,1.96301,8.58276,-0.181345,-0.1844,0.0902527,0
2024-11-26 21:45:40.890,-1.86012,2.02552,8.65693,-0.181345,-0.1844,0.0902527,0
2024-11-26 21:45:40.892,-1.80987,2.0662,8.75534,-0.230824,-0.177069,0.0603212,0
2024-11-26 21:45:40.893,-1.80987,2.0662,8.75534,-0.230824,-0.177069,0.0603212,0
2024-11-26 21:45:40.898,-1.64955,2.19302,8.99462,-0.267475,-0.187454,0.0297788,0
2024-11-26 21:45:40.900,-1.59691,2.25524,9.10948,-0.280913,-0.196616,0.0181727,0
2024-11-26 21:45:40.900,-1.59691,2.25524,9.10948,-0.280913,-0.196616,0.0181727,0
2024-11-26 21:45:40.900,-1.59691,2.25524,9.10948,-0.280913,-0.196616,0.0181727,0
2024-11-26 21:45:40.904,-1.52034,2.3677,9.37299,-0.296795,-0.217385,0.00106898,0
2024-11-26 21:45:40.907,-1.49402,2.4347,9.49502,-0.297406,-0.222272,-0.00442864,0
2024-11-26 21:45:40.908,-1.47966,2.5017,9.58595,-0.294352,-0.227159,-0.00503949,0
2024-11-26 21:45:40.912,-1.53948,2.59532,9.64337,-0.294352,-0.227159,-0.00503949,0
2024-11-26 21:45:40.913,-1.58016,2.68864,9.67927,-0.279081,-0.221661,0.000458135,0
2024-11-26 21:45:40.915,-1.52273,2.73649,9.75344,-0.279081,-0.221661,0.000458135,0
2024-11-26 21:45:40.919,-1.44855,2.74606,9.85424,-0.254036,-0.22105,0.0175619,0
2024-11-26 21:45:40.919,-1.44855,2.74606,9.85424,-0.254036,-0.22105,0.0175619,0
2024-11-26 21:45:40.922,-1.29751,2.77238,9.9332,-0.214942,-0.214331,0.0358873,0
2024-11-26 21:45:40.923,-1.29751,2.77238,9.9332,-0.214942,-0.214331,0.0358873,0
2024-11-26 21:45:40.926,-1.17308,2.78435,9.94756,-0.162333,-0.203336,0.0474934,0
2024-11-26 21:45:40.928,-1.06062,2.78913,9.95713,-0.133012,-0.193562,0.0523802,0
2024-11-26 21:45:40.930,-0.984048,2.80588,9.94517,-0.133012,-0.193562,0.0523802,0
2024-11-26 21:45:40.932,-0.909871,2.84895,9.89971,-0.103691,-0.181345,0.0566561,0
2024-11-26 21:45:40.934,-0.821037,2.88245,9.83749,-0.0682622,-0.169739,0.060932,0
2024-11-26 21:45:40.937,-0.761217,2.92313,9.73909,-0.0682622,-0.169739,0.060932,0
2024-11-26 21:45:40.939,-0.720539,2.96381,9.62902,-0.0340547,-0.153246,0.0603212,0
2024-11-26 21:45:40.940,-0.720539,2.96381,9.62902,-0.0340547,-0.153246,0.0603212,0
2024-11-26 21:45:40.941,-0.682254,3.03799,9.50459,0.0380252,-0.116595,0.0627646,0
2024-11-26 21:45:40.945,-0.672682,3.13161,9.38495,0.110716,-0.0817772,0.060932,0
2024-11-26 21:45:40.947,-0.667897,3.19621,9.27249,0.110716,-0.0817772,0.060932,0
2024-11-26 21:45:40.948,-0.643968,3.26082,9.1358,0.110716,-0.0817772,0.060932,0
2024-11-26 21:45:40.952,-0.622433,3.3326,8.97787,0.173022,-0.066506,0.0566561,0
2024-11-26 21:45:40.954,-0.622433,3.3326,8.80559,0.22922,-0.0597867,0.0468825,0
2024-11-26 21:45:40.956,-0.596112,3.48335,8.61625,0.22922,-0.0597867,0.0468825,0
2024-11-26 21:45:40.959,-0.579362,3.54556,8.42483,0.2506,-0.0603975,0.0389415,0
2024-11-26 21:45:40.960,-0.550648,3.58385,8.24058,0.27198,-0.058565,0.0297788,0
2024-11-26 21:45:40.962,-0.531506,3.61974,8.05364,0.27198,-0.0646735,0.0236703,0
2024-11-26 21:45:40.968,-0.519542,3.65593,7.71625,0.318404,-0.0860531,-0.00198525,0
2024-11-26 21:45:40.968,-0.529113,3.68465,7.71625,0.318404,-0.0860531,-0.00198525,0
2024-11-26 21:45:40.972,-0.529113,3.73968,7.42164,0.320237,-0.0958267,-0.00931542,0
2024-11-26 21:45:40.973,-0.529113,3.73968,7.42164,0.320237,-0.0958267,-0.00931542,0
2024-11-26 21:45:40.977,-0.505185,3.75165,7.17518,0.321458,-0.115374,-0.0245866,0
2024-11-26 21:45:40.978,-0.505185,3.75165,7.17518,0.321458,-0.115374,-0.0245866,0
2024-11-26 21:45:40.981,-0.502792,3.77797,6.96431,0.309852,-0.133088,-0.0343602,0
2024-11-26 21:45:40.982,-0.502792,3.77797,6.96431,0.309852,-0.133088,-0.0343602,0
2024-11-26 21:45:40.986,-0.4334,3.74447,6.76331,0.29397,-0.144084,-0.0441337,0
2024-11-26 21:45:40.987,-0.4334,3.74447,6.76331,0.29397,-0.144084,-0.0441337,0
2024-11-26 21:45:40.992,-0.328116,3.71336,6.61496,0.282364,-0.150803,-0.050853,0
2024-11-26 21:45:40.992,-0.328116,3.71336,6.61496,0.282364,-0.150803,-0.050853,0
2024-11-26 21:45:40.994,-0.294616,3.70379,6.57667,0.256709,-0.164242,-0.0569615,0
2024-11-26 21:45:40.996,-0.251246,3.68465,6.52882,0.256709,-0.164242,-0.0569615,0
2024-11-26 21:45:40.998,-0.229711,3.67508,6.49532,0.229831,-0.177069,-0.0642917,0
2024-11-26 21:45:40.999,-0.229711,3.67508,6.49532,0.215782,-0.183789,-0.0661242,0
2024-11-26 21:45:41.004,-0.215354,3.64128,6.44716,0.202954,-0.189897,-0.0685676,0
2024-11-26 21:45:41.004,-0.20339,3.64128,6.44716,0.202954,-0.189897,-0.0685676,0
2024-11-26 21:45:41.007,-0.153141,3.54317,6.38016,0.172412,-0.192341,-0.0734544,0
2024-11-26 21:45:41.008,-0.153141,3.54317,6.38016,0.15714,-0.19173,-0.0765086,0
2024-11-26 21:45:41.011,-0.12682,3.5001,6.3682,0.15714,-0.19173,-0.0765086,0
2024-11-26 21:45:41.012,-0.114855,3.46182,6.37777,0.15714,-0.19173,-0.0771195,0
2024-11-26 21:45:41.014,-0.112463,3.41396,6.39452,0.127209,-0.189897,-0.0801737,0
2024-11-26 21:45:41.015,-0.112463,3.41396,6.39452,0.127209,-0.189897,-0.0801737,0
2024-11-26 21:45:41.020,-0.114855,3.30628,6.45195,0.0942232,-0.188065,-0.0862822,0
2024-11-26 21:45:41.020,-0.114855,3.30628,6.45195,0.0942232,-0.188065,-0.0862822,0
2024-11-26 21:45:41.024,-0.172283,3.25364,6.54796,0.0685676,-0.180124,-0.091169,0
2024-11-26 21:45:41.024,-0.172283,3.25364,6.54796,0.0685676,-0.180124,-0.091169,0
2024-11-26 21:45:41.027,-0.184247,3.22732,6.61496,0.0447446,-0.163631,-0.094834,0
2024-11-26 21:45:41.028,-0.189033,3.18425,6.7011,0.0447446,-0.163631,-0.094834,0
2024-11-26 21:45:41.032,-0.174676,3.14836,6.81835,0.0361927,-0.14897,-0.0966666,0
2024-11-26 21:45:41.033,-0.129212,3.11964,6.94038,0.0361927,-0.14897,-0.0966666,0
2024-11-26 21:45:41.036,-0.100499,3.07627,7.05793,0.0264191,-0.109876,-0.0984991,0
2024-11-26 21:45:41.036,-0.100499,3.07627,7.05793,0.0264191,-0.109876,-0.0984991,0
2024-11-26 21:45:41.039,-0.0837488,3.04277,7.14407,0.0258083,-0.0683385,-0.100943,0
2024-11-26 21:45:41.041,-0.0598206,3.01884,7.19671,0.0258083,-0.0683385,-0.100943,0
2024-11-26 21:45:41.043,-0.0789631,3.00927,7.235,0.0264191,-0.0518457,-0.102164,0
2024-11-26 21:45:41.046,-0.131605,3.03559,7.23261,0.0313059,-0.0274118,-0.102775,0
2024-11-26 21:45:41.048,-0.198604,3.05952,7.19911,0.0313059,-0.0274118,-0.102775,0
2024-11-26 21:45:41.048,-0.198604,3.05952,7.19911,0.0313059,-0.0274118,-0.102775,0
2024-11-26 21:45:41.052,-0.335294,3.09093,7.08425,0.0368035,-0.0133623,-0.0972774,0
2024-11-26 21:45:41.052,-0.335294,3.09093,7.08425,0.0368035,-0.0133623,-0.0972774,0
2024-11-26 21:45:41.055,-0.392722,3.10289,7.01725,0.0398578,-0.010308,-0.0978883,0
2024-11-26 21:45:41.057,-0.431007,3.11964,6.95952,0.0423012,-0.00481042,-0.0966666,0
2024-11-26 21:45:41.060,-0.474078,3.12921,6.91645,0.047188,0.000687203,-0.0936123,0
2024-11-26 21:45:41.062,-0.533899,3.15314,6.9021,0.047188,0.000687203,-0.0936123,0
2024-11-26 21:45:41.065,-0.574577,3.19861,6.88295,0.0490205,0.00374144,-0.0917798,0
2024-11-26 21:45:41.067,-0.617647,3.2345,6.8662,0.0539073,0.00557398,-0.091169,0
2024-11-26 21:45:41.068,-0.655932,3.27518,6.84228,0.0539073,0.00557398,-0.091169,0
2024-11-26 21:45:41.069,-0.655932,3.27518,6.84228,0.0539073,0.00557398,-0.091169,0
2024-11-26 21:45:41.071,-0.677468,3.31825,6.80399,0.0526856,0.00496313,-0.0905581,0
2024-11-26 21:45:41.073,-0.696611,3.37328,6.77528,0.0526856,0.00251974,-0.0899473,0
2024-11-26 21:45:41.076,-0.737288,3.44985,6.74656,0.0526856,0.00251974,-0.0899473,0
2024-11-26 21:45:41.079,-0.859622,3.52642,6.69392,0.0484096,-0.00297788,-0.0887256,0
2024-11-26 21:45:41.081,-0.955334,3.60299,6.61735,0.0416903,-0.00114534,-0.0862822,0
2024-11-26 21:45:41.084,-0.952942,3.65833,6.55992,0.0331385,-0.00175619,-0.0783412,0
2024-11-26 21:45:41.086,-0.969691,3.72293,6.55274,0.0331385,-0.00175619,-0.0765086,0
2024-11-26 21:45:41.088,-1.01276,3.77557,6.58864,0.0331385,-0.00175619,-0.0765086,0
2024-11-26 21:45:41.091,-1.04148,3.80907,6.6006,0.0239758,-0.022525,-0.0728435,0
2024-11-26 21:45:41.092,-1.07258,3.8354,6.59821,0.0239758,-0.022525,-0.0728435,0
2024-11-26 21:45:41.095,-1.10369,3.8689,6.61496,0.0135914,-0.0439046,-0.0667351,0
2024-11-26 21:45:41.097,-1.11087,3.94786,6.62214,0.00992627,-0.0494023,-0.0618483,0
2024-11-26 21:45:41.099,-1.12283,4.03879,6.62453,0.00442864,-0.0500131,-0.0594049,0
2024-11-26 21:45:41.099,-1.11087,4.03879,6.62453,0.00442864,-0.0500131,-0.0594049,0
2024-11-26 21:45:41.104,-1.08215,4.34776,6.7346,0.000152712,-0.0475697,-0.0557398,0
2024-11-26 21:45:41.105,-1.11565,4.17996,6.65803,-0.0077883,-0.0268009,-0.0581832,0
2024-11-26 21:45:41.106,-1.07258,4.42194,6.81117,-0.0077883,-0.0268009,-0.0581832,0
2024-11-26 21:45:41.109,-1.0989,4.42194,6.86381,-0.0077883,-0.0268009,-0.0581832,0
2024-11-26 21:45:41.112,-1.14197,4.41476,6.88774,-0.00962084,-0.00725381,-0.0575724,0
2024-11-26 21:45:41.112,-1.14197,4.41476,6.88774,-0.00962084,-0.00725381,-0.0575724,0
2024-11-26 21:45:41.117,-1.28554,4.48176,6.94995,-0.0132859,-0.0139731,-0.0423012,0
2024-11-26 21:45:41.117,-1.28554,4.48176,6.94995,-0.0132859,-0.0139731,-0.0423012,0
2024-11-26 21:45:41.121,-1.35015,4.65643,7.04357,-0.0126751,-0.0206925,-0.034971,0
2024-11-26 21:45:41.121,-1.39561,4.65643,7.04357,-0.0126751,-0.0206925,-0.034971,0
2024-11-26 21:45:41.123,-1.46291,4.74736,7.12254,-0.0145076,-0.0298552,-0.0294734,0
2024-11-26 21:45:41.125,-1.54427,4.82902,7.18953,-0.0151185,-0.0347419,-0.0221432,0
2024-11-26 21:45:41.127,-1.62323,4.90559,7.24218,-0.0157293,-0.0377962,-0.014813,0
2024-11-26 21:45:41.130,-1.62323,4.96062,7.33071,-0.0157293,-0.0377962,-0.014813,0
2024-11-26 21:45:41.133,-1.71177,5.01326,7.436,-0.0145076,-0.0365745,0.00901,0
2024-11-26 21:45:41.135,-1.73091,5.07548,7.51974,-0.0145076,-0.0365745,0.00901,0
2024-11-26 21:45:41.138,-1.73091,5.15922,7.60379,-0.0120642,-0.0329094,0.0187836,0
2024-11-26 21:45:41.138,-1.73091,5.15922,7.60379,-0.0120642,-0.0329094,0.0187836,0
2024-11-26 21:45:41.141,-1.74766,5.37249,7.77129,-0.00901,-0.0408504,0.0340547,0
2024-11-26 21:45:41.141,-1.78116,5.37249,7.77129,-0.00901,-0.0408504,0.0340547,0
2024-11-26 21:45:41.145,-1.80509,5.45623,7.8359,-0.00595576,-0.0439046,0.0419957,0
2024-11-26 21:45:41.146,-1.80509,5.50888,7.88136,-0.00595576,-0.0439046,0.0419957,0
2024-11-26 21:45:41.149,-1.87448,5.56152,7.92922,-0.00717746,-0.0658951,0.0572669,0
2024-11-26 21:45:41.152,-1.66152,5.55913,8.068,-0.00839915,-0.0817772,0.0603212,0
2024-11-26 21:45:41.156,-1.6328,5.47777,8.15683,-0.00901,-0.124536,0.0536018,0
2024-11-26 21:45:41.159,-1.7333,5.51127,8.19273,-0.00901,-0.124536,0.0536018,0
2024-11-26 21:45:41.160,-1.80748,5.56152,8.29083,-0.00656661,-0.154468,0.0566561,0
2024-11-26 21:45:41.163,-1.80748,5.56152,8.29083,-0.00656661,-0.154468,0.0566561,0
2024-11-26 21:45:41.165,-1.91037,5.70987,8.43919,-0.00351237,-0.200282,0.0633754,0
2024-11-26 21:45:41.167,-1.93669,5.77926,8.50379,-0.00351237,-0.200282,0.0633754,0
2024-11-26 21:45:41.167,-1.93669,5.77926,8.50379,-0.00351237,-0.200282,0.0633754,0
2024-11-26 21:45:41.171,-1.96301,5.8678,8.53969,-0.00229068,-0.252814,0.0737598,0
2024-11-26 21:45:41.172,-1.97288,5.95903,8.55643,-0.00656661,-0.276027,0.0804791,0
2024-11-26 21:45:41.175,-1.94865,6.03799,8.61147,-0.0077883,-0.298017,0.0847551,0
2024-11-26 21:45:41.178,-1.90558,6.10738,8.68565,-0.0157293,-0.338944,0.0926961,0
2024-11-26 21:45:41.180,-1.81705,6.19352,8.78166,-0.0200052,-0.360324,0.0896418,0
2024-11-26 21:45:41.182,-1.68544,6.28445,8.9013,-0.0200052,-0.360324,0.0896418,0
2024-11-26 21:45:41.185,-1.68544,6.35145,9.01376,-0.0261137,-0.411024,0.076814,0
2024-11-26 21:45:41.186,-1.33579,6.41127,9.14297,-0.0261137,-0.411024,0.076814,0
2024-11-26 21:45:41.187,-1.33579,6.41127,9.14297,-0.0261137,-0.411024,0.076814,0
2024-11-26 21:45:41.191,-0.917049,6.50728,9.41606,-0.0297788,-0.467833,0.0456608,0
2024-11-26 21:45:41.191,-0.917049,6.50728,9.41606,-0.0297788,-0.467833,0.0456608,0
2024-11-26 21:45:41.194,-0.737288,6.536,9.57398,-0.0316113,-0.491045,0.0224486,0
2024-11-26 21:45:41.196,-0.600898,6.5671,9.74148,-0.0285571,-0.51609,-0.0038178,0
2024-11-26 21:45:41.198,-0.521934,6.59821,9.88535,-0.0261137,-0.535026,-0.0288625,0
2024-11-26 21:45:41.200,-0.507577,6.63171,10.005,-0.0261137,-0.535026,-0.0288625,0
2024-11-26 21:45:41.203,-0.502792,6.64367,10.1222,-0.0145076,-0.569844,-0.0832279,0
2024-11-26 21:45:41.203,-0.502792,6.64367,10.1222,-0.0145076,-0.569844,-0.0832279,0
2024-11-26 21:45:41.208,-0.529113,6.65803,10.3881,-0.00167983,-0.605273,-0.132096,0
2024-11-26 21:45:41.208,-0.56022,6.67956,10.3881,-0.00167983,-0.605273,-0.132096,0
2024-11-26 21:45:41.210,-0.591326,6.69153,10.5174,-0.00167983,-0.605273,-0.132096,0
2024-11-26 21:45:41.213,-0.660718,6.71546,10.6083,0.0160347,-0.641924,-0.169968,0
2024-11-26 21:45:41.217,-0.76361,6.7346,10.6968,0.034971,-0.662082,-0.196846,0
2024-11-26 21:45:41.217,-0.881157,6.72981,10.7925,0.034971,-0.662082,-0.196846,0
2024-11-26 21:45:41.219,-1.01515,6.72264,10.8452,0.042912,-0.669412,-0.201121,0
2024-11-26 21:45:41.219,-1.01515,6.72264,10.8452,0.042912,-0.669412,-0.201121,0
2024-11-26 21:45:41.225,-1.25444,6.66042,10.9603,0.0600157,-0.666358,-0.203565,0
2024-11-26 21:45:41.225,-1.25444,6.66042,10.9603,0.0600157,-0.666358,-0.203565,0
2024-11-26 21:45:41.226,-1.35254,6.58864,11.0465,0.0667351,-0.658417,-0.203565,0
2024-11-26 21:45:41.230,-1.41027,6.50728,11.1589,0.0746761,-0.643757,-0.199289,0
2024-11-26 21:45:41.231,-1.44616,6.41605,11.3169,0.0838388,-0.619934,-0.190737,0
2024-11-26 21:45:41.234,-1.47009,6.32752,11.5277,0.091169,-0.589391,-0.182185,0
2024-11-26 21:45:41.237,-1.5012,6.23181,11.7407,0.102164,-0.549075,-0.171801,0
2024-11-26 21:45:41.239,-1.52034,6.14567,11.9321,0.119879,-0.464778,-0.144313,0
2024-11-26 21:45:41.240,-1.53948,6.06192,12.0999,0.119879,-0.464778,-0.144313,0
2024-11-26 21:45:41.241,-1.53948,6.06192,12.0999,0.119879,-0.464778,-0.144313,0
2024-11-26 21:45:41.245,-1.57059,5.84626,12.3942,0.132707,-0.376206,-0.107662,0
2024-11-26 21:45:41.248,-1.57059,5.84626,12.3942,0.139426,-0.330392,-0.0856713,0
2024-11-26 21:45:41.248,-1.60648,5.71944,12.5402,0.139426,-0.330392,-0.0856713,0
2024-11-26 21:45:41.251,-1.64237,5.59262,12.6673,0.140648,-0.282746,-0.0636808,0
2024-11-26 21:45:41.252,-1.67109,5.50648,12.7941,0.138204,-0.226548,-0.0392469,0
2024-11-26 21:45:41.256,-1.70219,5.4347,13.0023,0.13515,-0.127591,0.0138968,0
2024-11-26 21:45:41.258,-1.70219,5.4347,13.0023,0.13515,-0.127591,0.0138968,0
2024-11-26 21:45:41.258,-1.74527,5.37488,13.2299,0.13515,-0.127591,0.0138968,0
2024-11-26 21:45:41.260,-1.78355,5.3342,13.4022,0.133317,-0.0408504,0.0829225,0
2024-11-26 21:45:41.263,-1.80269,5.26212,13.5529,0.131485,-0.00603212,0.118352,0
2024-11-26 21:45:41.265,-1.80748,5.18076,13.6893,0.131485,-0.00603212,0.118352,0
2024-11-26 21:45:41.267,-1.80509,5.10658,13.7806,0.125987,0.0642153,0.183712,0
2024-11-26 21:45:41.270,-1.79791,5.04437,13.8787,0.125987,0.0642153,0.183712,0
2024-11-26 21:45:41.271,-1.78116,5.01326,14.0198,0.125987,0.0642153,0.183712,0
2024-11-26 21:45:41.274,-1.77637,4.99891,14.173,0.1211,0.128354,0.241132,0
2024-11-26 21:45:41.274,-1.77637,4.99891,14.173,0.1211,0.128354,0.241132,0
2024-11-26 21:45:41.279,-1.7668,5.01087,14.3743,0.132096,0.219371,0.296108,0
2024-11-26 21:45:41.280,-1.75005,5.05633,14.4413,0.132096,0.219371,0.296108,1
2024-11-26 21:45:41.281,-1.75005,5.05633,14.4413,0.132096,0.219371,0.296108,0
2024-11-26 21:45:41.284,-1.75005,5.05633,14.4413,0.132096,0.219371,0.296108,0
2024-11-26 21:45:41.285,-1.65912,5.16162,14.5657,0.159584,0.258465,0.316877,0
2024-11-26 21:45:41.288,-1.61605,5.25733,14.5705,0.177909,0.270682,0.321153,0
2024-11-26 21:45:41.290,-1.55623,5.36531,14.5394,0.199289,0.274347,0.322375,0
2024-11-26 21:45:41.290,-1.55623,5.36531,14.5394,0.199289,0.274347,0.322375,0
2024-11-26 21:45:41.296,-1.4004,5.55673,14.1969,0.236551,0.256632,0.307714,0
2024-11-26 21:45:41.296,-1.4004,5.55673,14.1969,0.236551,0.256632,0.307714,0
2024-11-26 21:45:41.297,-1.4004,5.75294,14.1658,0.256098,0.236474,0.298552,0
2024-11-26 21:45:41.299,-1.36929,5.89921,14.1275,0.287862,0.207764,0.29,0
2024-11-26 21:45:41.303,-1.2999,6.02602,13.984,0.32268,0.171724,0.277172,0
2024-11-26 21:45:41.303,-1.2999,6.02602,13.984,0.32268,0.171724,0.277172,0
2024-11-26 21:45:41.307,-1.26879,6.24616,13.5458,0.381932,0.0800973,0.242964,0
2024-11-26 21:45:41.307,-1.26879,6.24616,13.5458,0.381932,0.0800973,0.242964,0
2024-11-26 21:45:41.309,-1.28554,6.34427,13.3065,0.381932,0.0800973,0.242964,0
2024-11-26 21:45:41.312,-1.34297,6.41366,13.0502,0.457677,-0.118428,0.187377,0
2024-11-26 21:45:41.314,-1.43898,6.45464,12.7941,0.457677,-0.118428,0.187377,0
2024-11-26 21:45:41.317,-1.56102,6.4666,12.4923,0.488831,-0.268086,0.153781,0
2024-11-26 21:45:41.319,-1.6998,6.45195,12.0302,0.488831,-0.268086,0.153781,0
2024-11-26 21:45:41.320,-1.88883,6.56471,11.7191,0.489441,-0.337111,0.140342,0
2024-11-26 21:45:41.323,-2.11884,6.73939,11.6593,0.494939,-0.401861,0.135455,0
2024-11-26 21:45:41.323,-2.11884,6.73939,11.6593,0.494939,-0.401861,0.135455,0
2024-11-26 21:45:41.329,-2.42034,6.82074,11.3336,0.512043,-0.531972,0.13912,0
2024-11-26 21:45:41.330,-2.4993,6.84467,11.0273,0.512043,-0.531972,0.13912,0
2024-11-26 21:45:41.331,-2.4993,6.84467,11.0273,0.512043,-0.531972,0.13912,0
2024-11-26 21:45:41.333,-2.53549,6.85663,10.7853,0.505323,-0.557627,0.140953,0
2024-11-26 21:45:41.335,-2.52832,6.79442,10.6226,0.494328,-0.582061,0.143396,0
2024-11-26 21:45:41.335,-2.52832,6.79442,10.6226,0.494328,-0.582061,0.143396,0
2024-11-26 21:45:41.337,-2.51366,6.67478,10.5269,0.494328,-0.582061,0.143396,0
2024-11-26 21:45:41.340,-2.49212,6.48096,10.4862,0.465618,-0.629096,0.149505,0
2024-11-26 21:45:41.345,-2.50648,5.9351,10.4216,0.425302,-0.659639,0.158057,0
2024-11-26 21:45:41.345,-2.50648,5.9351,10.4216,0.425302,-0.659639,0.158057,0
2024-11-26 21:45:41.346,-2.49691,5.65723,10.4288,0.399647,-0.666358,0.162944,0
2024-11-26 21:45:41.349,-2.49452,5.38924,10.4384,0.375213,-0.665747,0.170885,0
2024-11-26 21:45:41.352,-2.4993,5.13051,10.4456,0.348336,-0.648643,0.176382,0
2024-11-26 21:45:41.353,-2.46102,4.89841,10.4695,0.348336,-0.648643,0.176382,0
2024-11-26 21:45:41.357,-2.39402,4.65165,10.5413,0.292749,-0.590002,0.198373,0
2024-11-26 21:45:41.359,-2.3342,4.38604,10.6322,0.23594,-0.500818,0.22525,0
2024-11-26 21:45:41.362,-2.26481,4.12971,10.6777,0.206619,-0.45134,0.238689,0
2024-11-26 21:45:41.362,-2.26481,4.12971,10.6777,0.206619,-0.45134,0.238689,0
2024-11-26 21:45:41.365,-1.91994,3.62453,10.7423,0.177298,-0.396364,0.256403,0
2024-11-26 21:45:41.366,-1.91994,3.62453,10.7423,0.147978,-0.343831,0.26862,0
2024-11-26 21:45:41.369,-1.73091,3.38046,10.8284,0.121711,-0.299239,0.279615,0
2024-11-26 21:45:41.371,-1.51077,3.15314,10.9313,0.121711,-0.299239,0.279615,0
2024-11-26 21:45:41.373,-1.24008,2.91835,11.0273,0.0954449,-0.258923,0.29,0
2024-11-26 21:45:41.375,-0.907478,2.71017,11.1302,0.0722327,-0.222883,0.294276,0
2024-11-26 21:45:41.377,-0.50997,2.52592,11.2642,0.0545181,-0.190508,0.293054,0
2024-11-26 21:45:41.378,-0.50997,2.52592,11.2642,0.0545181,-0.190508,0.293054,0
2024-11-26 21:45:41.379,-0.119641,2.36531,11.3767,0.0392469,-0.164852,0.287556,0
2024-11-26 21:45:41.383,0.260818,2.22413,11.4772,0.0233649,-0.123926,0.260068,0
2024-11-26 21:45:41.385,0.639183,2.09252,11.5517,0.0233649,-0.123926,0.260068,0
2024-11-26 21:45:41.387,0.991227,1.97767,11.5923,0.0264191,-0.1056,0.239299,0
2024-11-26 21:45:41.387,0.991227,1.97767,11.5923,0.0264191,-0.1056,0.239299,0
2024-11-26 21:45:41.390,1.18505,1.9657,11.5397,0.0319168,-0.0921616,0.213033,0
2024-11-26 21:45:41.395,1.6017,2.00399,11.4772,0.078952,-0.108654,0.12446,0
2024-11-26 21:45:41.395,1.6017,2.00399,11.4772,0.078952,-0.108654,0.12446,0
2024-11-26 21:45:41.397,1.90798,1.98485,11.4245,0.078952,-0.108654,0.12446,0
2024-11-26 21:45:41.398,2.13559,1.9657,11.3264,0.078952,-0.132477,0.0871984,0
2024-11-26 21:45:41.402,2.28873,1.96301,11.1709,0.132707,-0.159966,0.0468825,0
2024-11-26 21:45:41.402,2.28873,1.96301,11.1709,0.132707,-0.159966,0.0468825,0
2024-11-26 21:45:41.403,2.39163,1.99681,10.989,0.132707,-0.159966,0.0468825,0
2024-11-26 21:45:41.406,2.4682,2.04467,10.826,0.195013,-0.217385,-0.0392469,0
2024-11-26 21:45:41.410,2.56899,2.15713,10.5341,0.26526,-0.2858,-0.125376,0
2024-11-26 21:45:41.410,2.56899,2.15713,10.5341,0.26526,-0.2858,-0.125376,0
2024-11-26 21:45:41.412,2.56421,2.21934,10.3472,0.298857,-0.326116,-0.166914,0
2024-11-26 21:45:41.415,2.52592,2.28156,10.1486,0.298857,-0.367654,-0.206619,0
2024-11-26 21:45:41.418,2.44666,2.32702,9.94517,0.367883,-0.443399,-0.273201,0
2024-11-26 21:45:41.420,2.34856,2.36531,9.71994,0.367883,-0.443399,-0.273201,0
2024-11-26 21:45:41.422,2.24806,2.38445,9.47588,0.424692,-0.476995,-0.301911,0
2024-11-26 21:45:41.425,2.15474,2.37727,9.23151,0.424692,-0.476995,-0.301911,0
2024-11-26 21:45:41.426,2.04945,2.35334,8.98026,0.465618,-0.53075,-0.352001,0
2024-11-26 21:45:41.430,1.93908,2.33659,8.71466,0.465618,-0.53075,-0.352001,0
2024-11-26 21:45:41.431,1.88644,2.35573,8.52772,0.500437,-0.531972,-0.404534,0
2024-11-26 21:45:41.431,1.88644,2.35573,8.52772,0.500437,-0.531972,-0.404534,0
2024-11-26 21:45:41.437,2.01595,2.49212,8.36262,0.513264,-0.580839,-0.460732,0
2024-11-26 21:45:41.437,2.01595,2.49212,8.36262,0.513264,-0.580839,-0.460732,0
2024-11-26 21:45:41.439,2.36052,2.65274,8.34587,0.508988,-0.605273,-0.482111,0
2024-11-26 21:45:41.442,2.29113,2.66231,8.40569,0.501047,-0.621155,-0.489441,0
2024-11-26 21:45:41.444,2.12363,2.60967,8.31954,0.501047,-0.621155,-0.489441,0
2024-11-26 21:45:41.445,2.19063,2.54507,8.22622,0.488831,-0.635205,-0.500437,0
2024-11-26 21:45:41.448,2.11406,2.42513,8.19033,0.471727,-0.642535,-0.503491,0
2024-11-26 21:45:41.448,2.11406,2.42513,8.19033,0.471727,-0.642535,-0.503491,0
2024-11-26 21:45:41.452,2.47298,2.39163,7.95554,0.430189,-0.639481,-0.502269,0
2024-11-26 21:45:41.453,2.47298,2.39163,7.95554,0.430189,-0.639481,-0.502269,0
2024-11-26 21:45:41.456,2.6001,2.39641,7.90768,0.381932,-0.627264,-0.505323,0
2024-11-26 21:45:41.458,2.24088,2.21934,7.74497,0.353833,-0.612603,-0.491885,0
2024-11-26 21:45:41.460,1.88166,2.0327,7.65404,0.353833,-0.612603,-0.491885,0
2024-11-26 21:45:41.462,1.61845,1.86251,7.70429,0.329399,-0.582672,-0.469283,0
2024-11-26 21:45:41.464,1.24247,1.72134,7.72104,0.303133,-0.546632,-0.434465,0
2024-11-26 21:45:41.468,1.24247,1.58734,7.69472,0.303133,-0.546632,-0.434465,0
2024-11-26 21:45:41.470,0.689432,1.5347,7.55564,0.260984,-0.416521,-0.321458,0
2024-11-26 21:45:41.471,0.847657,1.57298,7.36421,0.260984,-0.416521,-0.321458,0
2024-11-26 21:45:41.474,1.14676,1.62562,7.24457,0.212728,-0.255869,-0.188294,0
2024-11-26 21:45:41.474,1.14676,1.62562,7.24457,0.212728,-0.255869,-0.188294,0
2024-11-26 21:45:41.478,1.65434,1.75962,7.07468,0.160195,-0.111709,-0.0716218,0
2024-11-26 21:45:41.478,1.65434,1.75962,7.07468,0.160195,-0.111709,-0.0716218,0
2024-11-26 21:45:41.481,1.87687,1.82423,6.99781,0.135761,-0.0414613,-0.0288625,0
2024-11-26 21:45:41.484,2.06381,1.90798,7.06511,0.0960557,0.0709346,0.0383307,0
2024-11-26 21:45:41.486,2.22174,2.0016,6.96431,0.0960557,0.0709346,0.0383307,0
2024-11-26 21:45:41.489,2.37966,2.09731,6.81356,0.0960557,0.0709346,0.0383307,0
2024-11-26 21:45:41.490,2.48255,2.17627,6.91645,0.055129,0.210819,0.0762032,0
2024-11-26 21:45:41.490,2.48255,2.17627,6.91645,0.055129,0.210819,0.0762032,0
2024-11-26 21:45:41.495,2.42991,2.2672,7.0675,0.0294734,0.320771,0.0945286,0
2024-11-26 21:45:41.498,2.30788,2.31745,7.09382,0.0123697,0.410566,0.0981937,0
2024-11-26 21:45:41.500,2.17388,2.37009,7.12014,0.0123697,0.410566,0.0981937,0
2024-11-26 21:45:41.500,2.17388,2.37009,7.12014,0.0123697,0.410566,0.0981937,0
2024-11-26 21:45:41.503,2.02552,2.41795,7.13689,0.00320695,0.472872,0.0902527,0
2024-11-26 21:45:41.505,1.85294,2.48255,7.15125,0.000152712,0.494252,0.0847551,0
2024-11-26 21:45:41.510,1.69023,2.54985,7.11536,-0.00167983,0.513799,0.0682622,0
2024-11-26 21:45:41.510,1.52752,2.61685,7.11536,-0.00167983,0.513799,0.0682622,0
2024-11-26 21:45:41.512,1.37886,2.67189,7.07707,-0.00167983,0.513799,0.0682622,0
2024-11-26 21:45:41.514,1.24008,2.70778,7.01964,-0.00290152,0.516853,0.0560452,0
2024-11-26 21:45:41.517,1.08694,2.74128,6.95952,-0.00595576,0.515021,0.04505,0
2024-11-26 21:45:41.518,0.933799,2.7676,6.8997,-0.00962084,0.50769,0.0303897,0
2024-11-26 21:45:41.521,0.768395,2.8011,6.83749,-0.0132859,0.499139,0.0145076,0
2024-11-26 21:45:41.524,0.596112,2.84895,6.77767,-0.0132859,0.490587,0.000458135,0
2024-11-26 21:45:41.526,0.4334,2.88245,6.71306,-0.0267246,0.480813,-0.0160347,0
2024-11-26 21:45:41.528,0.285045,2.91117,6.65803,-0.0346656,0.47165,-0.0319168,0
2024-11-26 21:45:41.531,0.136391,2.93988,6.62214,-0.0395524,0.463709,-0.0459663,0
2024-11-26 21:45:41.531,0.136391,2.93988,6.62214,-0.0395524,0.463709,-0.0459663,0
2024-11-26 21:45:41.536,-0.11007,3.0332,6.5671,-0.0615429,0.44966,-0.0722327,0
2024-11-26 21:45:41.536,-0.11007,3.0332,6.5671,-0.0615429,0.44966,-0.0722327,0
2024-11-26 21:45:41.540,-0.35683,3.09811,6.54796,-0.0786466,0.43561,-0.0997208,0
2024-11-26 21:45:41.541,-0.35683,3.09811,6.54796,-0.0786466,0.43561,-0.0997208,0
2024-11-26 21:45:41.544,-0.469292,3.18425,6.5336,-0.101859,0.41362,-0.1211,0
2024-11-26 21:45:41.544,-0.565005,3.18425,6.5336,-0.101859,0.41362,-0.1211,0
2024-11-26 21:45:41.548,-0.646361,3.19621,6.55514,-0.1098,0.402625,-0.128431,0
2024-11-26 21:45:41.550,-0.691825,3.21536,6.57189,-0.128125,0.376358,-0.143091,0
2024-11-26 21:45:41.551,-0.703789,3.25364,6.56232,-0.128125,0.376358,-0.143091,0
2024-11-26 21:45:41.554,-0.71336,3.3015,6.59582,-0.128125,0.376358,-0.143091,0
2024-11-26 21:45:41.556,-0.696611,3.32782,6.66999,-0.146451,0.351314,-0.152865,0
2024-11-26 21:45:41.556,-0.696611,3.32782,6.66999,-0.146451,0.351314,-0.152865,0
2024-11-26 21:45:41.561,-0.641576,3.34218,6.71785,-0.159278,0.315274,-0.162638,0
2024-11-26 21:45:41.561,-0.567398,3.3685,6.74178,-0.159278,0.315274,-0.162638,0
2024-11-26 21:45:41.564,-0.490828,3.37328,6.78006,-0.171572,0.273736,-0.171801,0
2024-11-26 21:45:41.566,-0.419043,3.38525,6.8351,-0.171572,0.273736,-0.171801,0
2024-11-26 21:45:41.568,-0.366401,3.37567,6.88774,-0.174015,0.255411,-0.17852,0
2024-11-26 21:45:41.571,-0.366401,3.37567,6.92842,-0.174015,0.255411,-0.17852,0
2024-11-26 21:45:41.573,-0.222533,3.41875,6.9691,-0.175848,0.215705,-0.18585,0
2024-11-26 21:45:41.574,-0.222533,3.41875,6.9691,-0.175848,0.215705,-0.18585,0
2024-11-26 21:45:41.576,-0.16989,3.45703,7.0002,-0.179513,0.176,-0.194402,0
2024-11-26 21:45:41.577,-0.131605,3.48096,7.02682,-0.179513,0.176,-0.194402,0
2024-11-26 21:45:41.582,-0.0502493,3.54078,7.04118,-0.181956,0.142404,-0.195624,0
2024-11-26 21:45:41.583,-0.0502493,3.54078,7.04118,-0.180734,0.125911,-0.196846,0
2024-11-26 21:45:41.585,-0.0239282,3.58624,7.02922,-0.182567,0.107585,-0.1999,0
2024-11-26 21:45:41.587,0.0191426,3.61735,7.01725,-0.182567,0.107585,-0.1999,0
2024-11-26 21:45:41.588,0.0191426,3.61735,7.01725,-0.182567,0.107585,-0.1999,0
2024-11-26 21:45:41.588,0.0191426,3.61735,7.01725,-0.182567,0.107585,-0.1999,0
2024-11-26 21:45:41.594,0.153141,3.67268,6.94517,-0.182567,0.0642153,-0.205397,0
2024-11-26 21:45:41.597,0.177069,3.68465,6.93081,-0.181956,0.0526092,-0.209062,0
2024-11-26 21:45:41.598,0.193819,3.7014,6.93799,-0.1844,0.0391706,-0.212728,0
2024-11-26 21:45:41.599,0.193819,3.7014,6.93799,-0.1844,0.0391706,-0.212728,0
2024-11-26 21:45:41.602,0.205783,3.73011,6.95235,-0.1844,0.0275645,-0.212117,0
2024-11-26 21:45:41.604,0.210568,3.75404,6.96192,-0.181345,0.0110716,-0.213949,0
2024-11-26 21:45:41.606,0.193819,3.76361,6.96431,-0.181345,0.0110716,-0.213949,0
2024-11-26 21:45:41.608,0.18664,3.77797,6.95235,-0.180124,0.00251974,-0.213949,0
2024-11-26 21:45:41.610,0.177069,3.78275,6.9356,-0.178291,-0.00175619,-0.212728,0
2024-11-26 21:45:41.611,0.177069,3.78275,6.9356,-0.178291,-0.00175619,-0.212728,0
2024-11-26 21:45:41.616,0.177069,3.82822,6.89013,-0.172183,-0.00725381,-0.213949,0
2024-11-26 21:45:41.617,0.162712,3.8354,6.83749,-0.172183,-0.00725381,-0.213949,0
2024-11-26 21:45:41.620,0.157926,3.84736,6.78724,-0.163554,-0.00786466,-0.21456,0
2024-11-26 21:45:41.623,0.157926,3.85932,6.75613,-0.159889,-0.00542127,-0.21456,0
2024-11-26 21:45:41.628,0.189033,3.87607,6.71306,-0.143396,0.0019089,-0.213338,0
2024-11-26 21:45:41.629,0.208176,3.89522,6.70589,-0.143396,0.0019089,-0.213338,0
2024-11-26 21:45:41.631,0.248854,3.93111,6.70349,-0.13851,0.00313059,-0.216393,0
2024-11-26 21:45:41.634,0.27996,3.967,6.69871,-0.134845,0.00923906,-0.217614,0
2024-11-26 21:45:41.636,0.297009,3.99571,6.68196,-0.127514,0.0116825,-0.217614,0
2024-11-26 21:45:41.638,0.275175,4.02921,6.66281,-0.120795,0.0141258,-0.220058,0
2024-11-26 21:45:41.641,0.232104,4.07229,6.65324,-0.115297,0.0177909,-0.223112,0
2024-11-26 21:45:41.642,0.232104,4.07229,6.65324,-0.115297,0.0177909,-0.223112,0
2024-11-26 21:45:41.646,0.143569,4.17039,6.66521,-0.100026,0.0177909,-0.223112,0
2024-11-26 21:45:41.649,0.100499,4.1991,6.65564,-0.0871984,0.0171801,-0.219447,0
2024-11-26 21:45:41.651,0.0550349,4.2353,6.66281,-0.0871984,0.0171801,-0.219447,0
2024-11-26 21:45:41.651,0.0550349,4.2353,6.66281,-0.0871984,0.0171801,-0.219447,0
2024-11-26 21:45:41.656,-0.0119641,4.35494,6.69153,-0.0749815,0.0171801,-0.209062,0
2024-11-26 21:45:41.656,-0.0119641,4.35494,6.69153,-0.0749815,0.0171801,-0.209062,0
2024-11-26 21:45:41.662,0.0311067,4.55115,6.69631,-0.0590995,0.0202343,-0.195624,0
2024-11-26 21:45:41.663,0.0119641,4.49851,6.72264,-0.0590995,0.0202343,-0.195624,0
2024-11-26 21:45:41.665,0.0717847,4.60379,6.69153,-0.0548235,0.0184018,-0.191348,0
2024-11-26 21:45:41.667,0.20339,4.65643,6.72742,-0.0548235,0.0184018,-0.191348,0
2024-11-26 21:45:41.671,0.0358923,4.68993,6.87338,-0.0493259,-0.014584,-0.187072,0
2024-11-26 21:45:41.674,0.0358923,4.68993,6.87338,-0.0493259,-0.014584,-0.187072,0
2024-11-26 21:45:41.676,-0.00478565,4.7689,6.81117,-0.0487151,-0.00603212,-0.179742,0
2024-11-26 21:45:41.676,-0.00478565,4.7689,6.81117,-0.0487151,-0.00603212,-0.179742,0
2024-11-26 21:45:41.679,0.0550349,4.79312,6.87817,-0.0499368,0.00801737,-0.173633,0
2024-11-26 21:45:41.682,0.344866,4.7019,7.11057,-0.0536018,0.0312296,-0.171801,0
2024-11-26 21:45:41.684,0.512363,4.62772,7.19193,-0.0536018,0.0312296,-0.171801,0
2024-11-26 21:45:41.686,0.332901,4.64925,7.17518,-0.0536018,0.0593285,-0.169357,0
2024-11-26 21:45:41.688,0.117248,4.68036,7.30678,-0.0542127,0.0819299,-0.166303,0
2024-11-26 21:45:41.691,-0.0622134,4.74257,7.45514,-0.0548235,0.108196,-0.149199,0
2024-11-26 21:45:41.694,-0.193819,4.82662,7.62293,-0.0560452,0.118581,-0.133928,0
2024-11-26 21:45:41.696,-0.239282,4.89841,7.80718,-0.0542127,0.1253,-0.12049,0
2024-11-26 21:45:41.698,-0.205783,4.94866,7.95793,-0.0542127,0.1253,-0.12049,0
2024-11-26 21:45:41.701,-0.141177,4.98216,8.06321,-0.0554344,0.138128,-0.104608,0
2024-11-26 21:45:41.702,-0.0550349,5.01087,8.14008,-0.0572669,0.155842,-0.0899473,0
2024-11-26 21:45:41.702,-0.0550349,5.01087,8.14008,-0.0572669,0.155842,-0.0899473,0
2024-11-26 21:45:41.704,0.0574277,5.03719,8.22622,-0.060932,0.172335,-0.0777303,0
2024-11-26 21:45:41.708,0.0861416,5.00608,8.31715,-0.0682622,0.188828,-0.0636808,0
2024-11-26 21:45:41.710,0.0430708,4.96062,8.36501,-0.0682622,0.188828,-0.0636808,0
2024-11-26 21:45:41.711,0.0526421,4.92951,8.38176,-0.0762032,0.202878,-0.0563507,0
2024-11-26 21:45:41.715,0.0837488,4.91037,8.39851,-0.0853659,0.221814,-0.0520747,0
2024-11-26 21:45:41.716,0.193819,4.98694,8.48226,-0.0853659,0.239528,-0.0484096,0
2024-11-26 21:45:41.720,0.244068,5.05633,8.59472,-0.10308,0.2548,-0.047188,0
2024-11-26 21:45:41.722,0.16989,4.99412,8.65693,-0.117741,0.287175,-0.0386361,0
2024-11-26 21:45:41.723,0.114855,4.87209,8.66172,-0.117741,0.287175,-0.0386361,0
2024-11-26 21:45:41.724,0.114855,4.87209,8.66172,-0.117741,0.287175,-0.0386361,0
2024-11-26 21:45:41.729,0.0574277,4.74257,8.6689,-0.144007,0.300002,-0.0264191,0
2024-11-26 21:45:41.730,0.026321,4.79312,8.71466,-0.144007,0.300002,-0.0264191,0
2024-11-26 21:45:41.730,0.026321,4.79312,8.71466,-0.144007,0.300002,-0.0264191,0
2024-11-26 21:45:41.734,-0.0191426,4.87448,8.7362,-0.170961,0.272514,-0.0105371,0
2024-11-26 21:45:41.737,-0.0550349,4.94148,8.74337,-0.203336,0.255411,0.000458135,0
2024-11-26 21:45:41.738,-0.0933201,4.99891,8.74337,-0.203336,0.255411,0.000458135,0
2024-11-26 21:45:41.741,-0.143569,5.0659,8.72902,-0.22044,0.255411,0.00962084,0
2024-11-26 21:45:41.743,-0.198604,5.14008,8.71945,-0.260145,0.259686,0.0151185,0
2024-11-26 21:45:41.745,-0.27996,5.20469,8.74816,-0.260145,0.259686,0.0151185,0
2024-11-26 21:45:41.748,-0.385544,5.26212,8.82952,-0.291909,0.257854,0.0230595,0
2024-11-26 21:45:41.750,-0.488435,5.30997,8.95155,-0.302904,0.252356,0.0261137,0
2024-11-26 21:45:41.750,-0.488435,5.30997,8.95155,-0.302904,0.252356,0.0261137,0
2024-11-26 21:45:41.754,-0.694218,5.39641,9.19562,-0.310845,0.246859,0.0297788,0
2024-11-26 21:45:41.755,-0.694218,5.39641,9.19562,-0.310845,0.246859,0.0297788,0
2024-11-26 21:45:41.756,-0.789931,5.42752,9.34188,-0.315732,0.24075,0.0352764,0
2024-11-26 21:45:41.759,-0.864407,5.46341,9.49023,-0.315732,0.234642,0.0407741,0
2024-11-26 21:45:41.762,-0.945763,5.51845,9.6338,-0.309012,0.231587,0.0413849,0
2024-11-26 21:45:41.764,-1.04865,5.57109,9.77737,-0.309012,0.231587,0.0413849,0
2024-11-26 21:45:41.766,-1.18026,5.61416,9.91646,-0.287633,0.230366,0.0542127,0
2024-11-26 21:45:41.766,-1.18026,5.61416,9.91646,-0.287633,0.230366,0.0542127,0
2024-11-26 21:45:41.770,-1.4342,5.72184,10.1175,-0.254647,0.230366,0.073149,0
2024-11-26 21:45:41.771,-1.4342,5.72184,10.1175,-0.254647,0.230366,0.073149,0
2024-11-26 21:45:41.773,-1.53948,5.78166,10.2132,-0.254647,0.230366,0.073149,0
2024-11-26 21:45:41.776,-1.60887,5.82951,10.3208,-0.210666,0.237085,0.0945286,0
2024-11-26 21:45:41.778,-1.64955,5.8678,10.4288,-0.187454,0.246859,0.106135,0
2024-11-26 21:45:41.781,-1.69023,5.91356,10.5269,-0.133012,0.273736,0.130569,0
2024-11-26 21:45:41.782,-1.74048,5.94467,10.6107,-0.133012,0.273736,0.130569,0
2024-11-26 21:45:41.783,-1.74048,5.94467,10.6107,-0.133012,0.273736,0.130569,0
2024-11-26 21:45:41.788,-1.78834,5.96142,10.7949,-0.0792574,0.290229,0.158057,0
2024-11-26 21:45:41.788,-1.82423,5.96142,10.7949,-0.0792574,0.290229,0.158057,0
2024-11-26 21:45:41.793,-1.8673,5.95903,10.9771,-0.0261137,0.293894,0.189821,0
2024-11-26 21:45:41.793,-1.89123,5.95903,10.9771,-0.0261137,0.293894,0.189821,0
2024-11-26 21:45:41.795,-1.91037,5.96381,11.0345,0.0215324,0.299392,0.224639,0
2024-11-26 21:45:41.796,-1.89601,5.98535,11.068,0.0215324,0.299392,0.224639,0
2024-11-26 21:45:41.799,-1.81226,5.97578,11.0776,0.0447446,0.304889,0.246019,0
2024-11-26 21:45:41.802,-1.81226,5.97578,11.0776,0.0813954,0.319549,0.277783,0
2024-11-26 21:45:41.804,-1.59212,5.89442,11.001,0.0813954,0.319549,0.277783,0
2024-11-26 21:45:41.804,-1.59212,5.89442,11.001,0.0813954,0.319549,0.277783,0
2024-11-26 21:45:41.808,-1.31904,5.83669,11.0082,0.10644,0.326269,0.308936,0
2024-11-26 21:45:41.808,-1.31904,5.83669,11.0082,0.10644,0.326269,0.308936,0
2024-11-26 21:45:41.811,-1.19222,5.82234,10.9843,0.113159,0.323825,0.320542,0
2024-11-26 21:45:41.813,-1.07498,5.80559,10.9241,0.113159,0.321993,0.331537,0
2024-11-26 21:45:41.816,-0.97687,5.76491,10.8667,0.122322,0.325658,0.341922,0
2024-11-26 21:45:41.818,-0.878764,5.70987,10.8212,0.122322,0.325658,0.341922,0
2024-11-26 21:45:41.820,-0.76361,5.65723,10.7853,0.114992,0.337875,0.352306,0
2024-11-26 21:45:41.821,-0.76361,5.65723,10.7853,0.108273,0.345816,0.354139,0
2024-11-26 21:45:41.825,-0.655932,5.59262,10.692,0.100332,0.353757,0.352917,0
2024-11-26 21:45:41.826,-0.550648,5.59262,10.692,0.0899473,0.364752,0.348641,0
2024-11-26 21:45:41.828,-0.431007,5.5663,10.625,0.0771195,0.375747,0.3407,0
2024-11-26 21:45:41.830,-0.32333,5.55195,10.5532,0.058794,0.387354,0.330927,0
2024-11-26 21:45:41.833,-0.244068,5.55195,10.4862,0.058794,0.387354,0.330927,0
2024-11-26 21:45:41.834,-0.18664,5.55434,10.4169,0.058794,0.387354,0.330927,0
2024-11-26 21:45:41.836,-0.172283,5.5687,10.3663,0.0239758,0.40629,0.302828,0
2024-11-26 21:45:41.839,-0.172283,5.5687,10.3663,0.0239758,0.40629,0.302828,0
2024-11-26 21:45:41.841,-0.212961,5.66202,10.3376,-0.0126751,0.421561,0.271063,0
2024-11-26 21:45:41.842,-0.212961,5.66202,10.3376,-0.0126751,0.421561,0.271063,0
2024-11-26 21:45:41.846,-0.263211,5.82473,10.3065,-0.0474934,0.424615,0.242964,0
2024-11-26 21:45:41.846,-0.263211,5.82473,10.3065,-0.0474934,0.424615,0.242964,0
2024-11-26 21:45:41.849,-0.241675,5.97338,10.2778,-0.0762032,0.421561,0.2112,0
2024-11-26 21:45:41.851,-0.189033,6.14088,10.2538,-0.0762032,0.421561,0.2112,0
2024-11-26 21:45:41.856,-0.0717847,6.56471,10.1725,-0.0988045,0.417285,0.173328,0
2024-11-26 21:45:41.856,-0.131605,6.33709,10.2227,-0.0988045,0.417285,0.173328,0
2024-11-26 21:45:41.859,-0.0119641,6.79442,10.1031,-0.105524,0.414842,0.152559,0
2024-11-26 21:45:41.861,0.040678,7.00977,10.0313,-0.105524,0.414842,0.152559,0
2024-11-26 21:45:41.862,0.102891,7.20868,9.9691,-0.121406,0.40629,0.104913,0
2024-11-26 21:45:41.863,0.102891,7.20868,9.9691,-0.127514,0.394073,0.0786466,0
2024-11-26 21:45:41.868,0.177069,7.55324,9.90449,-0.127514,0.394073,0.0499368,0
2024-11-26 21:45:41.868,0.177069,7.55324,9.90449,-0.127514,0.394073,0.0499368,0
2024-11-26 21:45:41.873,0.141177,7.71386,9.97388,-0.141564,0.321993,-0.00870457,0
2024-11-26 21:45:41.874,0.066999,7.8694,9.97388,-0.141564,0.321993,-0.00870457,0
2024-11-26 21:45:41.877,0.00478565,7.98186,10.0744,-0.151948,0.241972,-0.0655134,0
2024-11-26 21:45:41.877,0.0909273,7.96989,10.261,-0.151948,0.241972,-0.0655134,0
2024-11-26 21:45:41.881,-0.538684,7.9005,10.3328,-0.168517,0.171724,-0.122933,0
2024-11-26 21:45:41.882,-0.538684,7.9005,10.3328,-0.168517,0.171724,-0.122933,0
2024-11-26 21:45:41.886,-0.988834,7.55803,10.716,-0.200892,0.0648262,-0.152254,0
2024-11-26 21:45:41.886,-1.42463,7.55803,10.716,-0.200892,0.0648262,-0.152254,0
2024-11-26 21:45:41.888,-1.8338,7.25653,10.9436,-0.222272,7.63559e-05,-0.152254,0
2024-11-26 21:45:41.891,-2.22174,6.86381,11.2187,-0.243652,-0.0579541,-0.144924,0
2024-11-26 21:45:41.893,-2.51605,6.38256,11.5205,-0.267475,-0.108654,-0.124766,0
2024-11-26 21:45:41.895,-2.71017,5.87976,11.8579,-0.290076,-0.150803,-0.09911,0
2024-11-26 21:45:41.895,-2.71017,5.87976,11.8579,-0.290076,-0.150803,-0.09911,0
2024-11-26 21:45:41.896,-2.51605,6.38256,11.5205,-0.31451,-0.181956,-0.071011,0
2024-11-26 21:45:41.901,-2.83699,4.91516,12.5139,-0.340776,-0.202725,-0.0380252,0
2024-11-26 21:45:41.901,-2.83699,4.91516,12.5139,-0.340776,-0.202725,-0.0380252,0
2024-11-26 21:45:41.907,-2.68385,3.84018,13.5721,-0.412856,-0.218607,0.0670405,0
2024-11-26 21:45:41.907,-2.78196,3.84018,13.5721,-0.412856,-0.218607,0.0670405,0
2024-11-26 21:45:41.912,-2.34138,3.41396,14.1108,-0.464168,-0.194784,0.134845,0
2024-11-26 21:45:41.913,-2.56421,3.59821,14.1108,-0.464168,-0.194784,0.134845,0
2024-11-26 21:45:41.914,-1.82423,3.36371,14.4748,-0.489823,-0.181956,0.163554,0
2024-11-26 21:45:41.917,-1.47488,3.21775,14.7284,-0.489823,-0.181956,0.163554,0
2024-11-26 21:45:41.920,-1.58973,2.87049,14.8026,-0.534415,-0.164852,0.2112,0
2024-11-26 21:45:41.920,-1.58973,2.87049,14.8026,-0.534415,-0.164852,0.2112,0
2024-11-26 21:45:41.921,-1.69023,2.50648,15.0183,-0.534415,-0.164852,0.2112,0
2024-11-26 21:45:41.923,-1.69741,2.26241,15.3269,-0.577785,-0.130645,0.279004,0
2024-11-26 21:45:41.928,-0.969691,1.97288,16.0119,-0.600997,-0.0512348,0.345587,0
2024-11-26 21:45:41.928,-0.969691,1.97288,16.0119,-0.600997,-0.0512348,0.345587,0
2024-11-26 21:45:41.931,-0.428614,1.79312,16.3277,-0.605884,-0.00175619,0.371242,0
2024-11-26 21:45:41.933,0.0717847,1.62323,16.6606,-0.605884,0.0385597,0.387735,0
2024-11-26 21:45:41.936,0.514756,1.46291,16.9621,-0.561292,0.136906,0.406061,0
2024-11-26 21:45:41.939,0.871586,1.34058,17.2089,-0.526474,0.202267,0.406061,0
2024-11-26 21:45:41.941,1.14915,1.26879,17.4314,-0.526474,0.202267,0.406061,0
2024-11-26 21:45:41.941,1.14915,1.26879,17.4314,-0.526474,0.202267,0.406061,0
2024-11-26 21:45:41.945,1.49402,1.23529,17.7308,-0.433625,0.367196,0.399341,1
2024-11-26 21:45:41.945,1.49402,1.23529,17.7308,-0.433625,0.367196,0.399341,1
2024-11-26 21:45:41.947,1.54427,1.26401,17.8074,-0.369486,0.461266,0.394455,0
2024-11-26 21:45:41.949,1.51316,1.33579,17.8074,-0.295574,0.555337,0.393233,0
2024-11-26 21:45:41.952,1.39561,1.47488,17.7571,-0.214942,0.650629,0.395676,0
2024-11-26 21:45:41.955,1.19222,1.65912,17.63,-0.123849,0.744699,0.400563,0
2024-11-26 21:45:41.956,0.962513,1.86969,17.4482,-0.0273354,0.832661,0.409115,0
2024-11-26 21:45:41.960,0.754038,2.10688,17.2208,0.180353,0.977432,0.436603,0
2024-11-26 21:45:41.961,0.553041,2.35573,16.9789,0.180353,0.977432,0.436603,0
2024-11-26 21:45:41.962,0.553041,2.35573,16.9789,0.288473,1.03363,0.451874,0
2024-11-26 21:45:41.967,0.289831,2.76999,16.3205,0.508378,1.12098,0.483638,0
2024-11-26 21:45:41.968,0.212961,2.94706,15.9206,0.508378,1.12098,0.483638,0
2024-11-26 21:45:41.969,0.212961,2.94706,15.9206,0.614665,1.14725,0.494023,0
2024-11-26 21:45:41.972,0.155533,3.09093,15.4971,0.721563,1.1558,0.501353,0
2024-11-26 21:45:41.974,0.0933201,3.17468,15.0518,0.828462,1.15824,0.506851,0
2024-11-26 21:45:41.975,0.00957129,3.25364,14.537,0.828462,1.15824,0.506851,0
2024-11-26 21:45:41.978,-0.0981057,3.35175,13.9816,0.928641,1.14908,0.511126,0
2024-11-26 21:45:41.981,-0.217747,3.42114,13.4285,1.02149,1.12953,0.511126,0
2024-11-26 21:45:41.982,-0.378365,3.48335,12.8444,1.02149,1.12953,0.511126,0
2024-11-26 21:45:41.986,-0.557827,3.56949,12.2554,1.11006,1.09227,0.505629,0
2024-11-26 21:45:41.987,-0.751645,3.66551,11.6689,1.264,1.00736,0.501353,0
2024-11-26 21:45:41.988,-0.557827,3.56949,12.2554,1.32936,0.955441,0.494023,0
2024-11-26 21:45:41.992,-1.02233,4.03161,10.625,1.38494,0.900465,0.481806,0
2024-11-26 21:45:41.993,-1.02233,4.03161,10.625,1.43076,0.852819,0.46287,0
2024-11-26 21:45:41.997,-1.33101,4.25683,9.67209,1.46985,0.801508,0.448209,0
2024-11-26 21:45:41.997,-1.33101,4.25683,9.67209,1.46985,0.801508,0.448209,0
2024-11-26 21:45:41.999,-1.52991,4.24965,9.18365,1.49673,0.744088,0.437825,0
2024-11-26 21:45:42.002,-1.75484,4.21615,8.69043,1.52605,0.592598,0.423164,0
2024-11-26 21:45:42.004,-1.92712,4.21615,8.19033,1.52605,0.592598,0.423164,0
2024-11-26 21:45:42.007,-2.06142,4.20389,7.67318,1.50528,0.415452,0.401785,0
2024-11-26 21:45:42.008,-2.32463,4.13928,7.15604,1.50528,0.415452,0.401785,0
2024-11-26 21:45:42.009,-2.32463,4.13928,7.15604,1.50528,0.415452,0.401785,0
2024-11-26 21:45:42.011,-2.63839,4.08903,6.69392,1.50528,0.415452,0.401785,0
2024-11-26 21:45:42.013,-2.87049,4.03879,6.28684,1.47901,0.326269,0.392622,0
2024-11-26 21:45:42.016,-3.01406,3.967,5.87498,1.40693,0.13263,0.395676,0
2024-11-26 21:45:42.018,-3.11725,3.89761,5.43709,1.35807,0.0348946,0.39812,0
2024-11-26 21:45:42.021,-3.21057,3.86411,5.0348,1.29881,-0.0567324,0.404839,0
2024-11-26 21:45:42.022,-3.21057,3.86411,4.68275,1.29881,-0.0567324,0.404839,0
2024-11-26 21:45:42.026,-3.40917,3.77557,4.38365,1.16198,-0.231435,0.424386,0
2024-11-26 21:45:42.026,-3.40917,3.77557,4.38365,1.16198,-0.231435,0.424386,0
2024-11-26 21:45:42.028,-3.46899,3.699,4.12971,1.16198,-0.231435,0.424386,0
2024-11-26 21:45:42.030,-3.45464,3.59342,3.92154,0.995223,-0.394531,0.451263,0
2024-11-26 21:45:42.032,-3.3661,3.46899,3.77318,0.995223,-0.394531,0.451263,0
2024-11-26 21:45:42.034,-3.2345,3.36371,3.71336,0.81319,-0.536248,0.475697,0
2024-11-26 21:45:42.037,-3.09332,3.27757,3.71097,0.81319,-0.536248,0.475697,0
2024-11-26 21:45:42.039,-2.92074,3.18186,3.71575,0.626271,-0.650476,0.494023,0
2024-11-26 21:45:42.042,-2.70299,3.1005,3.73729,0.443628,-0.707896,0.501964,0
2024-11-26 21:45:42.042,-2.70299,3.1005,3.73729,0.443628,-0.707896,0.501964,0
2024-11-26 21:45:42.046,-2.18106,3.02602,3.88325,0.357498,-0.718891,0.501964,0
2024-11-26 21:45:42.046,-2.18106,3.02602,3.88325,0.357498,-0.718891,0.501964,0
2024-11-26 21:45:42.048,-1.92473,3.02363,3.99571,0.271369,-0.720723,0.497077,0
2024-11-26 21:45:42.052,-1.67587,3.02124,4.12253,0.187072,-0.71828,0.485471,0
2024-11-26 21:45:42.053,-1.47966,3.01406,4.24965,0.187072,-0.71828,0.485471,0
2024-11-26 21:45:42.056,-1.31426,3.01406,4.39801,0.0288625,-0.69629,0.462259,0
2024-11-26 21:45:42.058,-1.16112,3.00688,4.54397,-0.0456608,-0.67491,0.447598,0
2024-11-26 21:45:42.061,-1.16112,3.00688,4.68275,-0.186843,-0.621155,0.420721,0
2024-11-26 21:45:42.063,-0.85005,2.92552,4.81944,-0.186843,-0.621155,0.420721,0
2024-11-26 21:45:42.066,-0.646361,2.88724,4.95583,-0.186843,-0.621155,0.420721,0
2024-11-26 21:45:42.067,-0.442971,2.85853,5.08983,-0.318175,-0.560071,0.3914,0
2024-11-26 21:45:42.068,-0.442971,2.85853,5.08983,-0.318175,-0.560071,0.3914,0
2024-11-26 21:45:42.072,-0.248854,2.80828,5.40598,-0.432404,-0.502651,0.360247,0
2024-11-26 21:45:42.073,-0.0933201,2.75085,5.40598,-0.432404,-0.502651,0.360247,0
2024-11-26 21:45:42.074,0.0574277,2.69342,5.60459,-0.485547,-0.478217,0.347419,0
2024-11-26 21:45:42.080,0.299402,2.5666,6.06192,-0.569844,-0.434847,0.322986,0
2024-11-26 21:45:42.080,0.191426,2.63599,6.06192,-0.569844,-0.434847,0.322986,0
2024-11-26 21:45:42.081,0.409472,2.51127,6.27966,-0.569844,-0.434847,0.322986,0
2024-11-26 21:45:42.084,0.52672,2.47059,6.5025,-0.62482,-0.406137,0.299162,0
2024-11-26 21:45:42.085,0.52672,2.47059,6.5025,-0.62482,-0.406137,0.299162,0
2024-11-26 21:45:42.088,0.720539,2.41077,6.91885,-0.654141,-0.383536,0.274729,0
2024-11-26 21:45:42.089,0.720539,2.41077,6.91885,-0.654141,-0.383536,0.274729,0
2024-11-26 21:45:42.093,0.909871,2.38923,7.29003,-0.656584,-0.359713,0.247851,0
2024-11-26 21:45:42.093,0.909871,2.38923,7.29003,-0.656584,-0.359713,0.247851,0
2024-11-26 21:45:42.100,1.11565,2.40838,7.67079,-0.615658,-0.313288,0.205092,0
2024-11-26 21:45:42.103,1.14437,2.40838,7.75215,-0.58817,-0.294352,0.189821,0
2024-11-26 21:45:42.110,0.859622,2.73171,7.77129,-0.529528,-0.247317,0.1605,0
2024-11-26 21:45:42.111,0.777966,2.73171,7.77129,-0.529528,-0.247317,0.1605,0
2024-11-26 21:45:42.114,0.766002,2.70299,7.8359,-0.417743,-0.18501,0.136066,0
2024-11-26 21:45:42.118,0.761217,2.64796,7.82872,-0.417743,-0.154468,0.12446,0
2024-11-26 21:45:42.120,0.80668,2.60728,7.80958,-0.3365,-0.123926,0.114687,0
2024-11-26 21:45:42.121,0.8668,2.59532,7.81675,-0.3365,-0.123926,0.114687,0
2024-11-26 21:45:42.124,0.921835,2.57139,7.8335,-0.251593,-0.0579541,0.0896418,0
2024-11-26 21:45:42.125,0.921835,2.57139,7.8335,-0.251593,-0.0579541,0.0896418,0
2024-11-26 21:45:42.128,0.950549,2.55703,7.86222,-0.165998,0.00801737,0.0670405,0
2024-11-26 21:45:42.132,0.845265,2.58335,7.83111,-0.12446,0.0440574,0.0584886,0
2024-11-26 21:45:42.132,0.845265,2.58335,7.83111,-0.12446,0.0440574,0.0584886,0
2024-11-26 21:45:42.134,0.718146,2.64317,7.79283,-0.12446,0.0440574,0.0584886,0
2024-11-26 21:45:42.135,0.565005,2.71974,7.72583,-0.0407741,0.10392,0.0542127,0
2024-11-26 21:45:42.139,0.397508,2.80828,7.59901,0.0288625,0.149734,0.0713164,0
2024-11-26 21:45:42.140,0.232104,2.89681,7.42882,0.0288625,0.149734,0.0713164,0
2024-11-26 21:45:42.141,0.232104,2.89681,7.42882,0.0581832,0.169281,0.0835334,0
2024-11-26 21:45:42.146,-0.0215354,3.04995,7.03161,0.0997208,0.21204,0.118352,0
2024-11-26 21:45:42.146,-0.0215354,3.04995,7.03161,0.0997208,0.21204,0.118352,0
2024-11-26 21:45:42.148,-0.0717847,3.10768,6.8351,0.0997208,0.21204,0.118352,0
2024-11-26 21:45:42.151,-0.0957129,3.134,6.63171,0.11377,0.232809,0.137288,0
2024-11-26 21:45:42.151,-0.0957129,3.134,6.63171,0.11377,0.232809,0.137288,0
2024-11-26 21:45:42.154,-0.0741775,3.14357,6.32273,0.11377,0.232809,0.137288,0
2024-11-26 21:45:42.157,-0.0502493,3.15553,6.18874,0.127209,0.293894,0.178215,0
2024-11-26 21:45:42.160,-0.0454636,3.18903,6.08106,0.118046,0.337875,0.190432,0
2024-11-26 21:45:42.162,-0.0550349,3.22732,6.00449,0.124155,0.337875,0.190432,0
2024-11-26 21:45:42.162,-0.0550349,3.22732,6.00449,0.124155,0.337875,0.190432,0
2024-11-26 21:45:42.167,-0.117248,3.29432,5.86062,0.0856713,0.40629,0.208146,0
2024-11-26 21:45:42.167,-0.117248,3.29432,5.86062,0.0856713,0.40629,0.208146,0
2024-11-26 21:45:42.169,-0.179462,3.31825,5.78884,0.0856713,0.40629,0.208146,0
2024-11-26 21:45:42.171,-0.232104,3.34218,5.72662,0.0856713,0.40629,0.208146,0
2024-11-26 21:45:42.174,-0.258425,3.37089,5.67877,0.0545181,0.453936,0.21792,0
2024-11-26 21:45:42.174,-0.258425,3.37089,5.67877,0.0545181,0.453936,0.21792,0
2024-11-26 21:45:42.178,-0.260818,3.43071,5.59023,0.0178673,0.490587,0.227082,0
2024-11-26 21:45:42.180,-0.22014,3.47139,5.55913,-0.00106898,0.499749,0.228304,0
2024-11-26 21:45:42.180,-0.22014,3.47139,5.55913,-0.00106898,0.499749,0.228304,0
2024-11-26 21:45:42.184,-0.191426,3.49292,5.52563,-0.0419957,0.50036,0.22525,0
2024-11-26 21:45:42.186,-0.165105,3.49771,5.48016,-0.0645971,0.491808,0.219752,0
2024-11-26 21:45:42.188,-0.138784,3.49292,5.45145,-0.0645971,0.491808,0.219752,0
2024-11-26 21:45:42.191,-0.124427,3.49292,5.45384,-0.105524,0.45699,0.205703,0
2024-11-26 21:45:42.194,-0.160319,3.50967,5.50648,-0.126293,0.429502,0.195318,0
2024-11-26 21:45:42.195,-0.160319,3.50967,5.50648,-0.126293,0.429502,0.195318,0
2024-11-26 21:45:42.197,-0.160319,3.50967,5.50648,-0.126293,0.429502,0.195318,0
2024-11-26 21:45:42.198,-0.198604,3.51446,5.53998,-0.166609,0.360476,0.172106,0
2024-11-26 21:45:42.199,-0.246461,3.54078,5.58305,-0.166609,0.360476,0.172106,0
2024-11-26 21:45:42.201,-0.299402,3.57906,5.64048,-0.166609,0.360476,0.172106,0
2024-11-26 21:45:42.205,-0.34008,3.61496,5.67637,-0.210055,0.227922,0.140342,0
2024-11-26 21:45:42.207,-0.368794,3.65833,5.70748,-0.210055,0.227922,0.140342,0
2024-11-26 21:45:42.209,-0.423829,3.68943,5.74098,-0.210055,0.227922,0.140342,0
2024-11-26 21:45:42.212,-0.464507,3.699,5.78644,-0.236322,0.126522,0.118352,0
2024-11-26 21:45:42.213,-0.464507,3.69661,5.82234,-0.236322,0.126522,0.118352,0
2024-11-26 21:45:42.216,-0.507577,3.71336,5.8343,-0.254036,0.0208452,0.0988045,0
2024-11-26 21:45:42.216,-0.507577,3.71336,5.8343,-0.254036,0.0208452,0.0988045,0
2024-11-26 21:45:42.219,-0.500399,3.72293,5.86301,-0.269918,-0.082388,0.076814,0
2024-11-26 21:45:42.221,-0.488435,3.72054,5.89921,-0.269918,-0.082388,0.076814,0
2024-11-26 21:45:42.223,-0.483649,3.7325,5.94945,-0.277248,-0.127591,0.0664296,0
2024-11-26 21:45:42.226,-0.476471,3.74925,5.98774,-0.290076,-0.204557,0.0468825,0
2024-11-26 21:45:42.228,-0.462114,3.766,6.02602,-0.294352,-0.235711,0.0346656,0
2024-11-26 21:45:42.231,-0.4334,3.78036,6.09542,-0.301682,-0.266253,0.0224486,0
2024-11-26 21:45:42.233,-0.3999,3.78515,6.14806,-0.301682,-0.266253,0.0224486,0
2024-11-26 21:45:42.233,-0.3999,3.78515,6.14806,-0.301682,-0.266253,0.0224486,0
2024-11-26 21:45:42.235,-0.368794,3.79472,6.19592,-0.301682,-0.266253,0.0224486,0
2024-11-26 21:45:42.237,-0.352044,3.79711,6.25095,-0.315121,-0.313288,-0.0025961,0
2024-11-26 21:45:42.240,-0.337687,3.79711,6.29641,-0.327949,-0.33589,-0.0160347,0
2024-11-26 21:45:42.241,-0.325723,3.7995,6.32513,-0.340166,-0.35788,-0.0306951,0
2024-11-26 21:45:42.244,-0.337687,3.7995,6.37298,-0.354826,-0.377427,-0.0404686,0
2024-11-26 21:45:42.245,-0.337687,3.7995,6.37298,-0.354826,-0.377427,-0.0404686,0
2024-11-26 21:45:42.249,-0.316152,3.77318,6.53121,-0.388422,-0.404305,-0.0642917,0
2024-11-26 21:45:42.249,-0.316152,3.77318,6.53121,-0.388422,-0.404305,-0.0642917,0
2024-11-26 21:45:42.251,-0.275175,3.78036,6.64128,-0.388422,-0.404305,-0.0642917,0
2024-11-26 21:45:42.253,-0.241675,3.78515,6.75374,-0.423852,-0.410413,-0.0813954,0
2024-11-26 21:45:42.259,-0.181855,3.82104,7.01964,-0.459281,-0.395753,-0.103997,0
2024-11-26 21:45:42.259,-0.217747,3.82104,7.01964,-0.459281,-0.395753,-0.103997,0
2024-11-26 21:45:42.261,-0.122034,3.8354,7.16321,-0.492877,-0.376206,-0.125376,0
2024-11-26 21:45:42.261,-0.122034,3.8354,7.16321,-0.492877,-0.376206,-0.125376,0
2024-11-26 21:45:42.264,-0.0478565,3.86172,7.32593,-0.506927,-0.36521,-0.138204,0
2024-11-26 21:45:42.267,0.107677,3.98375,7.63968,-0.506927,-0.36521,-0.138204,0
2024-11-26 21:45:42.271,0.145962,4.05075,7.77847,-0.554573,-0.341998,-0.179742,0
2024-11-26 21:45:42.271,0.145962,4.05075,7.77847,-0.554573,-0.341998,-0.179742,0
2024-11-26 21:45:42.275,0.16989,4.10818,8.06321,-0.564957,-0.33589,-0.195013,0
2024-11-26 21:45:42.275,0.174676,4.10818,8.06321,-0.564957,-0.33589,-0.195013,0
2024-11-26 21:45:42.277,0.162712,4.14407,8.22383,-0.575342,-0.327949,-0.206619,0
2024-11-26 21:45:42.279,0.138784,4.17996,8.40569,-0.583283,-0.319397,-0.216393,0
2024-11-26 21:45:42.281,0.143569,4.2015,8.57558,-0.586337,-0.311456,-0.225555,0
2024-11-26 21:45:42.285,0.184247,4.22572,8.74816,-0.586337,-0.311456,-0.237161,0
2024-11-26 21:45:42.287,0.244068,4.25444,8.94198,-0.58878,-0.301071,-0.245102,0
2024-11-26 21:45:42.287,0.244068,4.25444,8.94198,-0.58878,-0.301071,-0.245102,0
2024-11-26 21:45:42.289,0.325723,4.29751,9.1334,-0.583283,-0.294352,-0.254876,0
2024-11-26 21:45:42.292,0.423829,4.37169,9.30359,-0.56679,-0.2858,-0.278699,0
2024-11-26 21:45:42.294,0.512363,4.44347,9.47109,-0.56679,-0.2858,-0.278699,0
2024-11-26 21:45:42.297,0.584148,4.51765,9.65055,-0.533193,-0.287633,-0.310463,0
2024-11-26 21:45:42.299,0.634397,4.60618,9.81326,-0.511203,-0.294352,-0.323902,0
2024-11-26 21:45:42.300,0.663111,4.68754,9.97149,-0.511203,-0.294352,-0.323902,0
2024-11-26 21:45:42.304,0.663111,4.78116,10.1246,-0.45134,-0.317564,-0.35872,0
2024-11-26 21:45:42.304,0.691825,4.78116,10.1246,-0.45134,-0.317564,-0.35872,0
2024-11-26 21:45:42.308,0.73011,4.94148,10.3711,-0.4153,-0.33589,-0.376435,0
2024-11-26 21:45:42.308,0.73011,4.94148,10.3711,-0.4153,-0.33589,-0.376435,0
2024-11-26 21:45:42.310,0.749253,5.01326,10.4623,-0.376816,-0.356658,-0.391706,0
2024-11-26 21:45:42.313,0.768395,5.08983,10.5461,-0.376816,-0.356658,-0.391706,0
2024-11-26 21:45:42.314,0.797109,5.18555,10.6059,-0.290687,-0.401861,-0.425913,0
2024-11-26 21:45:42.317,0.837787,5.28844,10.6514,-0.290687,-0.401861,-0.425913,0
2024-11-26 21:45:42.320,0.864407,5.37966,10.6777,-0.194173,-0.450118,-0.460121,0
2024-11-26 21:45:42.320,0.864407,5.37966,10.6777,-0.194173,-0.450118,-0.460121,0
2024-11-26 21:45:42.325,0.873978,5.52563,10.6705,-0.0945286,-0.489212,-0.489441,0
2024-11-26 21:45:42.325,0.873978,5.52563,10.6705,-0.0945286,-0.489212,-0.489441,0
2024-11-26 21:45:42.329,0.837787,5.69073,10.5867,0.00565034,-0.517922,-0.518151,0
2024-11-26 21:45:42.330,0.837787,5.69073,10.5867,0.00565034,-0.517922,-0.518151,0
2024-11-26 21:45:42.331,0.789931,5.76491,10.4934,0.0557398,-0.531972,-0.527314,0
2024-11-26 21:45:42.333,0.73011,5.81755,10.3881,0.100332,-0.542356,-0.538309,0
2024-11-26 21:45:42.337,0.648754,5.86301,10.261,0.141869,-0.55274,-0.54625,0
2024-11-26 21:45:42.339,0.569791,5.89921,10.1103,0.141869,-0.55274,-0.54625,0
2024-11-26 21:45:42.341,0.514756,5.9327,9.97149,0.213949,-0.565568,-0.554802,0
2024-11-26 21:45:42.341,0.514756,5.9327,9.97149,0.213949,-0.565568,-0.554802,0
2024-11-26 21:45:42.346,0.392722,6.02124,9.69841,0.266482,-0.577785,-0.554802,0
2024-11-26 21:45:42.347,0.392722,6.04517,9.56202,0.284197,-0.580839,-0.550526,0
2024-11-26 21:45:42.347,0.304188,6.04517,9.56202,0.284197,-0.580839,-0.550526,0
2024-11-26 21:45:42.350,0.205783,6.08106,9.4017,0.300079,-0.586948,-0.542585,0
2024-11-26 21:45:42.352,0.112463,6.10738,9.21955,0.309241,-0.594278,-0.536477,0
2024-11-26 21:45:42.355,0.00957129,6.11456,9.04965,0.312296,-0.600997,-0.527314,0
2024-11-26 21:45:42.358,-0.0909273,6.10738,8.88934,0.312296,-0.609549,-0.51693,0
2024-11-26 21:45:42.359,-0.174676,6.08585,8.7338,0.306798,-0.620544,-0.507156,0
2024-11-26 21:45:42.362,-0.239282,6.05713,8.58993,0.296414,-0.62482,-0.496161,0
2024-11-26 21:45:42.365,-0.263211,5.9997,8.49661,0.266482,-0.606495,-0.473559,0
2024-11-26 21:45:42.367,-0.258425,5.92792,8.45833,0.249989,-0.579007,-0.460732,0
2024-11-26 21:45:42.367,-0.258425,5.92792,8.45833,0.249989,-0.579007,-0.460732,0
2024-11-26 21:45:42.371,-0.200997,5.75534,8.66411,0.231053,-0.536248,-0.44546,0
2024-11-26 21:45:42.372,-0.200997,5.75534,8.66411,0.231053,-0.536248,-0.44546,0
2024-11-26 21:45:42.373,-0.138784,5.69552,8.86302,0.21456,-0.476385,-0.428357,0
2024-11-26 21:45:42.376,-0.124427,5.6333,9.07358,0.198067,-0.40858,-0.40881,0
2024-11-26 21:45:42.378,-0.16989,5.55673,9.32274,0.182185,-0.330392,-0.386208,0
2024-11-26 21:45:42.381,-0.256032,5.50648,9.58595,0.16386,-0.252204,-0.367272,0
2024-11-26 21:45:42.383,-0.380758,5.5017,9.78934,0.147367,-0.175237,-0.342838,0
2024-11-26 21:45:42.385,-0.502792,5.51845,9.95474,0.128431,-0.101935,-0.316572,0
2024-11-26 21:45:42.388,-0.596112,5.54477,10.1103,0.107662,-0.0298552,-0.288473,0
2024-11-26 21:45:42.388,-0.596112,5.54477,10.1103,0.107662,-0.0298552,-0.288473,0
2024-11-26 21:45:42.393,-0.811466,5.57827,10.3977,0.0624591,0.105753,-0.233496,0
2024-11-26 21:45:42.393,-0.811466,5.57827,10.3977,0.0624591,0.105753,-0.233496,0
2024-11-26 21:45:42.395,-0.974477,5.5663,10.6011,0.0624591,0.105753,-0.233496,0
2024-11-26 21:45:42.398,-1.12522,5.55195,10.85,0.0172564,0.237085,-0.173633,0
2024-11-26 21:45:42.403,-1.4004,5.50409,11.458,-0.0230595,0.351314,-0.119879,0
2024-11-26 21:45:42.403,-1.4004,5.50409,11.458,-0.0230595,0.351314,-0.119879,0
2024-11-26 21:45:42.406,-1.44855,5.50409,12.0688,-0.0456608,0.441719,-0.0807846,0
2024-11-26 21:45:42.407,-1.46291,5.50409,12.0688,-0.0456608,0.441719,-0.0807846,0
2024-11-26 21:45:42.410,-1.45334,5.54477,12.3559,-0.0566561,0.500971,-0.0594049,0
2024-11-26 21:45:42.412,-1.47488,5.58066,12.5976,-0.0548235,0.524183,-0.0563507,0
2024-11-26 21:45:42.414,-1.43898,5.65245,12.7558,-0.0548235,0.524183,-0.0563507,0
2024-11-26 21:45:42.417,-1.35254,5.78166,12.9401,-0.04505,0.538844,-0.0606266,0
2024-11-26 21:45:42.419,-1.34058,5.93031,13.1674,-0.04505,0.538844,-0.0606266,0
2024-11-26 21:45:42.420,-1.34058,6.07149,13.3304,-0.0346656,0.521129,-0.0685676,0
2024-11-26 21:45:42.423,-1.30708,6.22941,13.4189,-0.0206161,0.495473,-0.0807846,0
2024-11-26 21:45:42.425,-1.27119,6.3993,13.4859,-0.00229068,0.458212,-0.0954449,0
2024-11-26 21:45:42.428,-1.22572,6.57907,13.5123,0.0166456,0.411177,-0.113159,0
2024-11-26 21:45:42.431,-1.14915,6.77049,13.4836,0.0569615,0.293894,-0.158973,0
2024-11-26 21:45:42.433,-1.03908,6.94277,13.4524,0.0765086,0.223646,-0.190126,0
2024-11-26 21:45:42.433,-1.03908,6.94277,13.4524,0.0765086,0.223646,-0.190126,0
2024-11-26 21:45:42.437,-0.792323,7.25414,13.4572,0.0978883,0.147291,-0.223112,0
2024-11-26 21:45:42.438,-0.792323,7.25414,13.4572,0.118046,0.0623828,-0.261595,0
2024-11-26 21:45:42.440,-0.660718,7.35943,13.4644,0.118046,0.0623828,-0.261595,0
2024-11-26 21:45:42.442,-0.519542,7.44557,13.474,0.138815,-0.0261901,-0.302522,0
2024-11-26 21:45:42.445,-0.397508,7.49821,13.5075,0.15714,-0.116595,-0.349557,0
2024-11-26 21:45:42.446,-0.304188,7.5341,13.5386,0.174855,-0.208833,-0.397814,1
2024-11-26 21:45:42.450,-0.227318,7.52453,13.5362,0.19318,-0.304736,-0.449736,0
2024-11-26 21:45:42.451,-0.177069,7.48146,13.5266,0.19318,-0.304736,-0.449736,0
2024-11-26 21:45:42.453,-0.167498,7.41925,13.5051,0.223723,-0.489212,-0.548083,0
2024-11-26 21:45:42.453,-0.167498,7.41925,13.5051,0.223723,-0.489212,-0.548083,0
2024-11-26 21:45:42.459,-0.253639,7.18714,13.4572,0.238383,-0.668801,-0.64704,0
2024-11-26 21:45:42.461,-0.320937,7.01486,13.4142,0.242659,-0.755542,-0.691021,0
2024-11-26 21:45:42.461,-0.320937,7.01486,13.4142,0.242659,-0.755542,-0.691021,0
2024-11-26 21:45:42.464,-0.397508,6.79681,13.3807,0.24327,-0.836784,-0.727061,0
2024-11-26 21:45:42.468,-0.536291,6.31077,13.3304,0.225555,-0.976668,-0.788146,0
2024-11-26 21:45:42.468,-0.536291,6.31077,13.3304,0.225555,-0.976668,-0.788146,0
2024-11-26 21:45:42.470,-0.641576,6.06192,13.3089,0.215782,-1.02737,-0.805249,0
2024-11-26 21:45:42.473,-0.792323,5.81755,13.3017,0.187683,-1.07624,-0.817466,0
2024-11-26 21:45:42.476,-0.974477,5.57348,13.3232,0.187683,-1.07624,-0.817466,0
2024-11-26 21:45:42.477,-1.1659,5.35334,13.3735,0.187683,-1.07624,-0.817466,0
2024-11-26 21:45:42.480,-1.35015,5.12573,13.4501,0.162638,-1.04875,-0.783259,0
2024-11-26 21:45:42.480,-1.35015,5.12573,13.4501,0.162638,-1.04875,-0.783259,0
2024-11-26 21:45:42.484,-1.54188,4.72822,13.6223,0.146145,-0.957732,-0.716066,0
2024-11-26 21:45:42.487,-1.52752,4.53201,13.7372,0.139426,-0.900923,-0.672085,0
2024-11-26 21:45:42.489,-1.52752,4.53201,13.7372,0.132707,-0.838617,-0.623828,0
2024-11-26 21:45:42.489,-1.47009,4.36451,13.8428,0.132707,-0.838617,-0.623828,0
2024-11-26 21:45:42.491,-1.37408,4.22333,13.8954,0.127209,-0.771424,-0.574349,0
2024-11-26 21:45:42.494,-1.37408,4.22333,13.8954,0.127209,-0.771424,-0.574349,0
2024-11-26 21:45:42.497,-1.1324,3.93829,13.8715,0.114992,-0.635816,-0.471727,0
2024-11-26 21:45:42.499,-1.1324,3.76122,13.8476,0.114992,-0.635816,-0.471727,0
2024-11-26 21:45:42.501,-0.988834,3.76122,13.838,0.107051,-0.505094,-0.376435,0
2024-11-26 21:45:42.501,-0.864407,3.56471,13.838,0.107051,-0.505094,-0.376435,0
2024-11-26 21:45:42.505,-0.600898,3.18664,13.8428,0.0850605,-0.396364,-0.296414,0
2024-11-26 21:45:42.506,-0.744467,3.18664,13.8428,0.078952,-0.343831,-0.261595,0
2024-11-26 21:45:42.509,-0.426222,2.98774,13.8811,0.078952,-0.343831,-0.261595,0
2024-11-26 21:45:42.511,-0.20339,2.81785,13.9457,0.078952,-0.294352,-0.231053,0
2024-11-26 21:45:42.512,0.0765703,2.71256,14.0127,0.078952,-0.245484,-0.208452,0
2024-11-26 21:45:42.516,0.414257,2.64078,14.0653,0.0826171,-0.195395,-0.193791,0
2024-11-26 21:45:42.517,0.780359,2.59053,14.094,0.0826171,-0.195395,-0.193791,0
2024-11-26 21:45:42.519,1.13001,2.57139,14.0892,0.0881147,-0.149581,-0.187683,0
2024-11-26 21:45:42.522,1.41745,2.58096,14.051,0.110716,-0.0628409,-0.196235,0
2024-11-26 21:45:42.523,1.41745,2.58096,14.051,0.126598,-0.0255792,-0.212117,0
2024-11-26 21:45:42.525,1.65673,2.60728,13.9768,0.126598,-0.0255792,-0.212117,0
2024-11-26 21:45:42.527,1.87687,2.63839,13.8715,0.126598,-0.0255792,-0.212117,0
2024-11-26 21:45:42.532,2.03749,2.68146,13.5649,0.227388,0.0348946,-0.304965,0
2024-11-26 21:45:42.532,2.14517,2.71256,13.5649,0.227388,0.0348946,-0.304965,0
2024-11-26 21:45:42.535,2.24088,2.75085,13.3807,0.227388,0.0348946,-0.304965,0
2024-11-26 21:45:42.537,2.32702,2.8322,13.1868,0.227388,0.0348946,-0.304965,0
2024-11-26 21:45:42.538,2.40838,2.9351,12.9879,0.30069,0.0104608,-0.355055,0
2024-11-26 21:45:42.541,2.50648,3.02842,12.7774,0.340395,-0.010308,-0.379489,0
2024-11-26 21:45:42.542,2.50648,3.02842,12.7774,0.340395,-0.010308,-0.379489,0
2024-11-26 21:45:42.544,2.60489,3.14118,12.5234,0.424692,-0.0646735,-0.430189,0
2024-11-26 21:45:42.548,2.74128,3.35653,11.9273,0.468062,-0.0915507,-0.455234,0
2024-11-26 21:45:42.549,2.74128,3.35653,11.9273,0.468062,-0.0915507,-0.455234,0
2024-11-26 21:45:42.550,2.78196,3.45464,11.578,0.509599,-0.121482,-0.479668,0
2024-11-26 21:45:42.552,2.82024,3.50249,11.2451,0.55358,-0.156301,-0.505323,0
2024-11-26 21:45:42.556,2.86331,3.51924,10.9409,0.638488,-0.226548,-0.559689,0
2024-11-26 21:45:42.558,2.86331,3.51924,10.6155,0.678193,-0.265031,-0.585344,0
2024-11-26 21:45:42.559,2.94467,3.61496,10.2754,0.678193,-0.265031,-0.585344,0
2024-11-26 21:45:42.560,2.94467,3.61496,10.2754,0.678193,-0.265031,-0.585344,0
2024-11-26 21:45:42.565,2.75324,3.65593,9.64577,0.749662,-0.356048,-0.63971,0
2024-11-26 21:45:42.565,2.75324,3.65593,9.64577,0.749662,-0.356048,-0.63971,0
2024-11-26 21:45:42.569,2.5331,3.73729,8.86302,0.799752,-0.414078,-0.687356,0
2024-11-26 21:45:42.569,2.5331,3.73729,8.86302,0.799752,-0.414078,-0.687356,0
2024-11-26 21:45:42.575,2.23609,3.87368,8.31237,0.830905,-0.460502,-0.725839,0
2024-11-26 21:45:42.576,2.05902,3.92632,8.03211,0.838235,-0.483104,-0.735613,0
2024-11-26 21:45:42.581,1.85773,3.97657,7.54607,0.833959,-0.533193,-0.735002,0
2024-11-26 21:45:42.582,1.65194,3.97657,7.54607,0.833959,-0.533193,-0.735002,0
2024-11-26 21:45:42.583,1.45334,3.967,7.2996,0.822353,-0.560071,-0.727672,0
2024-11-26 21:45:42.586,1.26401,3.92872,7.08904,0.804639,-0.586337,-0.711179,0
2024-11-26 21:45:42.586,1.26401,3.92872,7.08904,0.804639,-0.586337,-0.711179,0
2024-11-26 21:45:42.586,1.26401,3.92872,7.08904,0.804639,-0.586337,-0.711179,0
2024-11-26 21:45:42.589,1.26401,3.92872,7.08904,0.804639,-0.586337,-0.711179,0
2024-11-26 21:45:42.592,0.888335,3.67747,6.61496,0.720952,-0.649254,-0.642153,0
2024-11-26 21:45:42.598,0.845265,3.44507,6.37298,0.648262,-0.665136,-0.585955,0
2024-11-26 21:45:42.598,0.845265,3.44507,6.37298,0.648262,-0.665136,-0.585955,0
2024-11-26 21:45:42.603,0.8668,3.23689,6.22702,0.565186,-0.652919,-0.525481,0
2024-11-26 21:45:42.603,0.9003,3.23689,6.22702,0.565186,-0.652919,-0.525481,0
2024-11-26 21:45:42.604,0.921835,3.16511,6.17677,0.520595,-0.637037,-0.49555,0
2024-11-26 21:45:42.607,0.929013,3.10529,6.14806,0.520595,-0.609549,-0.465618,0
2024-11-26 21:45:42.609,0.933799,3.0667,6.14327,0.430189,-0.573509,-0.432633,0
2024-11-26 21:45:42.611,0.924228,3.03799,6.15284,0.430189,-0.530139,-0.407588,0
2024-11-26 21:45:42.615,0.912264,3.01884,6.15524,0.342227,-0.478217,-0.374602,0
2024-11-26 21:45:42.617,0.912264,3.01884,6.15524,0.253043,-0.360324,-0.320848,0
2024-11-26 21:45:42.618,0.905085,2.92074,6.20549,0.253043,-0.360324,-0.320848,0
2024-11-26 21:45:42.619,0.905085,2.92074,6.20549,0.253043,-0.360324,-0.320848,0
2024-11-26 21:45:42.622,0.905085,2.87767,6.27249,0.166914,-0.239987,-0.268926,0
2024-11-26 21:45:42.623,0.897907,2.79871,6.34427,0.166914,-0.239987,-0.268926,0
2024-11-26 21:45:42.625,0.9003,2.71017,6.41845,0.12782,-0.1844,-0.247546,0
2024-11-26 21:45:42.628,0.9003,2.63839,6.5336,0.0899473,-0.135532,-0.230442,0
2024-11-26 21:45:42.630,0.878764,2.58335,6.65564,0.0563507,-0.0927724,-0.218225,0
2024-11-26 21:45:42.633,0.859622,2.52323,6.76092,0.0563507,-0.0927724,-0.218225,0
2024-11-26 21:45:42.636,0.833001,2.45623,6.85903,-0.00412322,-0.0170274,-0.1999,0
2024-11-26 21:45:42.638,0.787538,2.42273,6.98585,-0.00412322,-0.0170274,-0.1999,0
2024-11-26 21:45:42.638,0.787538,2.42273,6.98585,-0.00412322,-0.0170274,-0.1999,0
2024-11-26 21:45:42.641,0.710967,2.41316,7.10579,-0.0542127,0.0397814,-0.191959,0
2024-11-26 21:45:42.642,0.643968,2.40359,7.20868,-0.0780357,0.0636045,-0.191959,0
2024-11-26 21:45:42.644,0.605683,2.40838,7.31875,-0.0981937,0.0831516,-0.194402,0
2024-11-26 21:45:42.648,0.565005,2.41077,7.41685,-0.13179,0.113083,-0.207841,0
2024-11-26 21:45:42.650,0.500399,2.40598,7.51257,-0.148283,0.128965,-0.215171,0
2024-11-26 21:45:42.652,0.411865,2.40359,7.59901,-0.148283,0.128965,-0.215171,0
2024-11-26 21:45:42.654,0.411865,2.40359,7.59901,-0.148283,0.128965,-0.215171,0
2024-11-26 21:45:42.656,0.313759,2.4323,7.77847,-0.148283,0.128965,-0.215171,0
2024-11-26 21:45:42.658,0.272782,2.42991,7.86461,-0.181956,0.160118,-0.256709,0
2024-11-26 21:45:42.662,0.246461,2.44905,7.91725,-0.191119,0.165616,-0.275034,0
2024-11-26 21:45:42.664,0.208176,2.48495,7.96032,-0.205168,0.169281,-0.319015,0
2024-11-26 21:45:42.666,0.160319,2.54028,8.01775,-0.205168,0.169281,-0.319015,0
2024-11-26 21:45:42.669,0.114855,2.58814,8.06561,-0.211277,0.159507,-0.36605,0
2024-11-26 21:45:42.671,0.0358923,2.62164,8.10629,-0.211277,0.159507,-0.36605,0
2024-11-26 21:45:42.675,-0.0502493,2.67428,8.13769,-0.208833,0.142404,-0.410642,0
2024-11-26 21:45:42.678,-0.232104,2.80588,8.18315,-0.203947,0.133852,-0.431411,0
2024-11-26 21:45:42.681,-0.316152,2.88245,8.18555,-0.18501,0.111861,-0.467451,0
2024-11-26 21:45:42.683,-0.385544,2.94227,8.17837,-0.18501,0.111861,-0.467451,0
2024-11-26 21:45:42.684,-0.447757,3.01884,8.16401,-0.172793,0.102699,-0.483333,0
2024-11-26 21:45:42.687,-0.517149,3.08854,8.11586,-0.159278,0.0929251,-0.496772,0
2024-11-26 21:45:42.688,-0.517149,3.08854,8.11586,-0.159278,0.0929251,-0.496772,0
2024-11-26 21:45:42.691,-0.634397,3.22014,7.99143,-0.126904,0.0770431,-0.523038,0
2024-11-26 21:45:42.695,-0.694218,3.28714,7.92204,-0.126904,0.0770431,-0.523038,0
2024-11-26 21:45:42.696,-0.734896,3.34696,7.81675,-0.0896418,0.0519984,-0.539531,0
2024-11-26 21:45:42.698,-0.787538,3.3996,7.7019,-0.0896418,0.0519984,-0.539531,0
2024-11-26 21:45:42.702,-0.847657,3.46182,7.6014,-0.0896418,0.0519984,-0.539531,0
2024-11-26 21:45:42.704,-0.907478,3.51446,7.49582,-0.0364981,0.00557398,-0.548083,0
2024-11-26 21:45:42.708,-1.02473,3.59581,7.26611,0.000763559,-0.0249684,-0.541974,0
2024-11-26 21:45:42.709,-1.02473,3.59581,7.26611,0.000763559,-0.0249684,-0.541974,0
2024-11-26 21:45:42.711,-1.05583,3.63171,7.12971,0.0313059,-0.0530674,-0.528536,0
2024-11-26 21:45:42.716,-1.11326,3.69661,6.83031,0.050853,-0.0750579,-0.505934,0
2024-11-26 21:45:42.718,-1.15872,3.73968,6.67239,0.050853,-0.0750579,-0.505934,0
2024-11-26 21:45:42.718,-1.15872,3.73968,6.67239,0.050853,-0.0750579,-0.505934,0
2024-11-26 21:45:42.723,-1.23051,3.80429,6.37298,0.0624591,-0.0878856,-0.475392,0
2024-11-26 21:45:42.723,-1.23051,3.80429,6.37298,0.0624591,-0.0878856,-0.475392,0
2024-11-26 21:45:42.724,-1.2329,3.83779,6.21506,0.0624591,-0.0878856,-0.475392,0
2024-11-26 21:45:42.728,-1.22812,3.86411,6.06431,0.0661242,-0.090329,-0.44485,0
2024-11-26 21:45:42.731,-1.15872,3.90479,5.81037,0.0563507,-0.0848314,-0.411864,0
2024-11-26 21:45:42.732,-1.15872,3.90479,5.81037,0.0563507,-0.0848314,-0.411864,0
2024-11-26 21:45:42.737,-1.10848,3.90718,5.59262,0.0490205,-0.082388,-0.381932,0
2024-11-26 21:45:42.739,-1.10848,3.90718,5.51605,0.0490205,-0.082388,-0.381932,0
2024-11-26 21:45:42.742,-1.0654,3.90479,5.48016,0.00748288,-0.0494023,-0.340395,0
2024-11-26 21:45:42.744,-1.02712,3.90718,5.46581,0.00748288,-0.0494023,-0.340395,0
2024-11-26 21:45:42.749,-1.00798,3.91436,5.44906,-0.0181727,-0.0109189,-0.299468,0
2024-11-26 21:45:42.749,-1.01994,3.92872,5.44906,-0.0181727,-0.0109189,-0.299468,0
2024-11-26 21:45:42.751,-1.01994,3.95264,5.45145,-0.0181727,-0.0109189,-0.299468,0
2024-11-26 21:45:42.753,-1.02473,3.97179,5.42991,-0.0230595,0.00374144,-0.283586,0
2024-11-26 21:45:42.755,-1.05105,3.98136,5.40838,-0.0273354,0.0184018,-0.268315,0
2024-11-26 21:45:42.758,-1.06062,4.00289,5.4012,-0.0346656,0.0428357,-0.233496,0
2024-11-26 21:45:42.760,-1.04626,4.01486,5.41795,-0.0346656,0.0428357,-0.233496,0
2024-11-26 21:45:42.762,-1.0343,4.01486,5.42513,-0.0346656,0.0428357,-0.233496,0
2024-11-26 21:45:42.765,-1.0319,4.01725,5.41077,-0.0322222,0.0715455,-0.199289,0
2024-11-26 21:45:42.765,-1.0319,4.01725,5.41077,-0.0322222,0.0715455,-0.199289,0
2024-11-26 21:45:42.768,-1.01037,4.02921,5.38684,-0.0340547,0.085595,-0.164471,0
2024-11-26 21:45:42.770,-0.988834,4.04118,5.3677,-0.0340547,0.085595,-0.164471,0
2024-11-26 21:45:42.771,-0.984048,4.03879,5.32911,-0.0352764,0.0886492,-0.148589,0
2024-11-26 21:45:42.774,-0.984048,4.05793,5.28365,-0.0395524,0.0868167,-0.130263,0
2024-11-26 21:45:42.777,-0.984048,4.08186,5.25254,-0.0426066,0.085595,-0.11377,0
2024-11-26 21:45:42.778,-0.984048,4.08186,5.21665,-0.0426066,0.085595,-0.0960557,0
2024-11-26 21:45:42.782,-0.969691,4.12253,5.18555,-0.0505476,0.0745997,-0.0765086,0
2024-11-26 21:45:42.784,-0.969691,4.14407,5.17597,-0.0621537,0.0599394,-0.0423012,0
2024-11-26 21:45:42.787,-0.962513,4.14407,5.20469,-0.0670405,0.0532201,-0.0258083,0
2024-11-26 21:45:42.787,-0.962513,4.14407,5.20469,-0.0670405,0.0532201,-0.0258083,0
2024-11-26 21:45:42.789,-0.962513,4.14646,5.24776,-0.0670405,0.0532201,-0.0258083,0
2024-11-26 21:45:42.790,-0.967299,4.15125,5.27169,-0.0725381,0.0410031,-0.00748288,0
2024-11-26 21:45:42.794,-0.972084,4.16321,5.29801,-0.08109,0.021456,0.0267246,0
2024-11-26 21:45:42.795,-0.96012,4.19193,5.33899,-0.08109,0.021456,0.0267246,0
2024-11-26 21:45:42.798,-0.94337,4.22812,5.37488,-0.0884201,0.0116825,0.0426066,0
2024-11-26 21:45:42.801,-0.940978,4.27119,5.42273,-0.0926961,-0.0139731,0.0749815,0
2024-11-26 21:45:42.803,-0.940978,4.27119,5.42273,-0.0926961,-0.0139731,0.0749815,0
2024-11-26 21:45:42.804,-0.974477,4.3334,5.50648,-0.0963612,-0.0268009,0.0920852,0
2024-11-26 21:45:42.805,-0.974477,4.3334,5.50648,-0.0963612,-0.0268009,0.0920852,0
2024-11-26 21:45:42.807,-0.940978,4.37169,5.52084,-0.0994154,-0.0322986,0.104913,0
2024-11-26 21:45:42.810,-0.88355,4.39801,5.54477,-0.105524,-0.0408504,0.121406,0
2024-11-26 21:45:42.812,-0.825823,4.40997,5.58545,-0.105524,-0.0408504,0.121406,0
2024-11-26 21:45:42.814,-0.797109,4.41715,5.61416,-0.118963,-0.0487914,0.15317,0
2024-11-26 21:45:42.817,-0.799502,4.41715,5.65245,-0.133623,-0.0512348,0.18188,0
2024-11-26 21:45:42.819,-0.801895,4.42194,5.7003,-0.133623,-0.0512348,0.18188,0
2024-11-26 21:45:42.820,-0.801895,4.42194,5.7003,-0.143396,-0.0524565,0.200816,0
2024-11-26 21:45:42.822,-0.780359,4.42672,5.73859,-0.143396,-0.0524565,0.200816,0
2024-11-26 21:45:42.823,-0.74686,4.42911,5.77209,-0.155613,-0.0481806,0.214255,0
2024-11-26 21:45:42.826,-0.687039,4.40519,5.8008,-0.169128,-0.0432938,0.231969,0
2024-11-26 21:45:42.828,-0.610469,4.35733,5.83191,-0.181345,-0.0353528,0.243575,0
2024-11-26 21:45:42.831,-0.54347,4.30469,5.87019,-0.197227,-0.0274118,0.255792,0
2024-11-26 21:45:42.834,-0.488435,4.24726,5.90638,-0.232046,0.00251974,0.27595,0
2024-11-26 21:45:42.835,-0.426222,4.18953,5.95903,-0.232046,0.00251974,0.27595,0
2024-11-26 21:45:42.836,-0.426222,4.18953,5.95903,-0.232046,0.00251974,0.27595,0
2024-11-26 21:45:42.838,-0.383151,4.14646,6.0332,-0.250982,0.0238994,0.284502,0
2024-11-26 21:45:42.840,-0.347258,4.11057,6.11695,-0.250982,0.0238994,0.284502,0
2024-11-26 21:45:42.843,-0.313759,4.07707,6.2007,-0.294352,0.0672696,0.300995,0
2024-11-26 21:45:42.845,-0.318545,4.06032,6.30359,-0.318175,0.0923143,0.300995,0
2024-11-26 21:45:42.847,-0.337687,4.06271,6.42323,-0.339555,0.11797,0.304049,0
2024-11-26 21:45:42.847,-0.337687,4.06271,6.42323,-0.339555,0.11797,0.304049,0
2024-11-26 21:45:42.852,-0.263211,4.01486,6.75613,-0.385979,0.172946,0.306493,0
2024-11-26 21:45:42.852,-0.263211,4.01486,6.75613,-0.385979,0.172946,0.306493,0
2024-11-26 21:45:42.855,-0.227318,3.98136,6.94038,-0.40797,0.200434,0.305271,0
2024-11-26 21:45:42.856,-0.198604,3.94547,7.11775,-0.40797,0.200434,0.305271,0
2024-11-26 21:45:42.859,-0.179462,3.91436,7.28046,-0.450729,0.254189,0.293665,0
2024-11-26 21:45:42.862,-0.16989,3.88804,7.45753,-0.450729,0.28412,0.284502,0
2024-11-26 21:45:42.862,-0.16989,3.88804,7.45753,-0.450729,0.28412,0.284502,0
2024-11-26 21:45:42.863,-0.172283,3.88325,7.64447,-0.48738,0.314052,0.279004,0
2024-11-26 21:45:42.868,-0.18664,3.96222,7.94597,-0.522809,0.364141,0.255181,0
2024-11-26 21:45:42.868,-0.18664,3.96222,7.94597,-0.522809,0.364141,0.255181,0
2024-11-26 21:45:42.870,-0.244068,4.00529,8.10868,-0.536858,0.381856,0.244186,0
2024-11-26 21:45:42.871,-0.244068,4.00529,8.10868,-0.536858,0.381856,0.244186,0
2024-11-26 21:45:42.876,-0.474078,4.13928,8.44397,-0.558238,0.407511,0.228915,0
2024-11-26 21:45:42.877,-0.596112,4.24726,8.63061,-0.558238,0.407511,0.228915,0
2024-11-26 21:45:42.881,-0.682254,4.32622,8.82952,-0.569233,0.419118,0.219141,0
2024-11-26 21:45:42.881,-0.682254,4.32622,8.82952,-0.569233,0.419118,0.219141,0
2024-11-26 21:45:42.885,-0.725324,4.39083,9.03051,-0.568012,0.415452,0.214866,0
2024-11-26 21:45:42.885,-0.780359,4.46501,9.2363,-0.568012,0.415452,0.214866,0
2024-11-26 21:45:42.888,-0.84018,4.5344,9.43998,-0.557627,0.413009,0.214866,0
2024-11-26 21:45:42.890,-0.926621,4.61336,9.62663,-0.557627,0.413009,0.216698,0
2024-11-26 21:45:42.892,-1.01755,4.7019,9.78694,-0.527696,0.405679,0.220974,0
2024-11-26 21:45:42.895,-1.07976,4.79312,9.94517,-0.48005,0.39896,0.236856,0
2024-11-26 21:45:42.897,-1.1324,4.86969,10.1151,-0.48005,0.39896,0.236856,0
2024-11-26 21:45:42.897,-1.1324,4.86969,10.1151,-0.48005,0.39896,0.236856,0
2024-11-26 21:45:42.900,-1.17069,4.93909,10.2897,-0.414689,0.389186,0.25396,0
2024-11-26 21:45:42.902,-1.21376,5.04437,10.4264,-0.414689,0.389186,0.25396,0
2024-11-26 21:45:42.902,-1.21376,5.04437,10.4264,-0.414689,0.389186,0.25396,0
2024-11-26 21:45:42.907,-1.26401,5.15444,10.6274,-0.342609,0.378802,0.281448,0
2024-11-26 21:45:42.909,-1.42223,5.37488,10.6872,-0.301071,0.376969,0.296719,0
2024-11-26 21:45:42.909,-1.42223,5.37488,10.6872,-0.301071,0.376969,0.296719,0
2024-11-26 21:45:42.910,-1.4988,5.48255,10.7375,-0.301071,0.376969,0.296719,0
2024-11-26 21:45:42.913,-1.54427,5.55913,10.7686,-0.260145,0.376969,0.337035,0
2024-11-26 21:45:42.916,-1.5682,5.61895,10.7806,-0.177069,0.385521,0.360247,0
2024-11-26 21:45:42.918,-1.57777,5.66202,10.7758,-0.177069,0.385521,0.360247,0
2024-11-26 21:45:42.920,-1.59691,5.69073,10.7447,-0.0963612,0.396516,0.412169,0
2024-11-26 21:45:42.921,-1.59691,5.69073,10.7447,-0.0963612,0.396516,0.412169,0
2024-11-26 21:45:42.926,-1.62802,5.7338,10.6825,0.00503949,0.397738,0.488525,0
2024-11-26 21:45:42.926,-1.62802,5.7338,10.6825,0.00503949,0.397738,0.488525,0
2024-11-26 21:45:42.928,-1.61605,5.75294,10.6394,0.0325276,0.398349,0.511126,0
2024-11-26 21:45:42.930,-1.5682,5.77448,10.5939,0.0569615,0.400181,0.534339,0
2024-11-26 21:45:42.933,-1.5012,5.80559,10.5365,0.0569615,0.400181,0.534339,0
2024-11-26 21:45:42.935,-1.5012,5.85344,10.4647,0.091169,0.409955,0.573433,0
2024-11-26 21:45:42.936,-1.34297,5.91356,10.4097,0.091169,0.409955,0.573433,0
2024-11-26 21:45:42.936,-1.42463,5.91356,10.4097,0.091169,0.409955,0.573433,0
2024-11-26 21:45:42.941,-1.20658,6.01406,10.3017,0.113159,0.425226,0.601532,0
2024-11-26 21:45:42.942,-1.26879,5.96381,10.3017,0.116825,0.432556,0.610695,0
2024-11-26 21:45:42.944,-1.12522,6.05474,10.2754,0.116825,0.432556,0.610695,0
2024-11-26 21:45:42.947,-1.03669,6.08106,10.2634,0.121711,0.43561,0.619246,0
2024-11-26 21:45:42.948,-0.955334,6.1002,10.2634,0.122322,0.438054,0.625355,0
2024-11-26 21:45:42.950,-0.842872,6.13131,10.2754,0.122322,0.438054,0.625355,0
2024-11-26 21:45:42.954,-0.687039,6.17438,10.285,0.119268,0.439886,0.62902,0
2024-11-26 21:45:42.954,-0.687039,6.17438,10.285,0.119268,0.439886,0.62902,0
2024-11-26 21:45:42.957,-0.299402,6.26291,10.2515,0.103997,0.439886,0.616803,0
2024-11-26 21:45:42.957,-0.299402,6.26291,10.2515,0.103997,0.439886,0.616803,0
2024-11-26 21:45:42.961,-0.0454636,6.32034,10.2443,0.0844496,0.444773,0.584428,0
2024-11-26 21:45:42.963,0.191426,6.39452,10.2443,0.0716218,0.445384,0.561216,0
2024-11-26 21:45:42.966,0.421436,6.49532,10.2562,0.0716218,0.445384,0.561216,0
2024-11-26 21:45:42.968,0.639183,6.59582,10.2586,0.0404686,0.435,0.503796,0
2024-11-26 21:45:42.969,0.825823,6.69871,10.2467,0.0404686,0.435,0.503796,0
2024-11-26 21:45:42.970,0.639183,6.69871,10.2467,0.0251975,0.427059,0.469589,0
2024-11-26 21:45:42.973,0.991227,6.80638,10.2371,0.00503949,0.417285,0.432327,0
2024-11-26 21:45:42.975,1.1324,6.94756,10.2371,0.00503949,0.417285,0.432327,0
2024-11-26 21:45:42.976,1.26162,7.11536,10.2467,-0.0120642,0.403236,0.3914,0
2024-11-26 21:45:42.980,1.38604,7.28764,10.2658,-0.0493259,0.374526,0.308325,0
2024-11-26 21:45:42.981,1.47009,7.47907,10.2562,-0.0493259,0.374526,0.308325,0
2024-11-26 21:45:42.982,1.47009,7.47907,10.2562,-0.0493259,0.374526,0.308325,0
2024-11-26 21:45:42.986,1.52273,7.87657,10.2395,-0.0902527,0.334821,0.220974,0
2024-11-26 21:45:42.987,1.57537,7.87657,10.2395,-0.0902527,0.334821,0.220974,0
2024-11-26 21:45:42.990,1.61366,8.12543,10.3352,-0.134845,0.282288,0.131179,0
2024-11-26 21:45:42.990,1.84098,8.12543,10.3352,-0.134845,0.282288,0.131179,0
2024-11-26 21:45:42.993,2.2002,8.01775,10.4767,-0.158668,0.234031,0.0780357,0
2024-11-26 21:45:42.995,2.15952,7.97707,10.4599,-0.179513,0.215705,0.0175619,0
2024-11-26 21:45:42.999,1.81466,8.04646,10.4432,-0.202114,0.201656,-0.0380252,0
2024-11-26 21:45:43.001,1.81466,8.04646,10.4432,-0.253425,0.0953685,-0.136372,0
2024-11-26 21:45:43.003,1.06301,7.98904,10.7973,-0.253425,0.0953685,-0.136372,0
2024-11-26 21:45:43.003,1.06301,7.98904,10.7973,-0.253425,0.0953685,-0.136372,0
2024-11-26 21:45:43.005,0.672682,7.84307,11.001,-0.253425,0.0953685,-0.136372,0
2024-11-26 21:45:43.008,0.325723,7.59422,11.2259,-0.348717,-0.147749,-0.224945,0
2024-11-26 21:45:43.010,-0.00717847,7.23739,11.5086,-0.384757,-0.22105,-0.234107,0
2024-11-26 21:45:43.012,-0.00717847,6.80638,11.8508,-0.384757,-0.22105,-0.234107,0
2024-11-26 21:45:43.015,-0.579362,6.31795,12.2387,-0.456837,-0.334668,-0.230442,0
2024-11-26 21:45:43.015,-0.579362,6.31795,12.2387,-0.456837,-0.334668,-0.230442,0
2024-11-26 21:45:43.020,-0.756431,5.33899,13.0956,-0.491656,-0.382314,-0.220669,0
2024-11-26 21:45:43.020,-0.756431,5.33899,13.0956,-0.491656,-0.382314,-0.220669,0
2024-11-26 21:45:43.022,-0.821037,4.95344,13.4668,-0.531361,-0.428738,-0.20723,0
2024-11-26 21:45:43.023,-0.871586,4.59901,13.8476,-0.570455,-0.467222,-0.187072,0
2024-11-26 21:45:43.027,-0.909871,4.28076,14.2352,-0.61016,-0.499597,-0.16386,0
2024-11-26 21:45:43.029,-0.909871,4.28076,14.2352,-0.68224,-0.539913,-0.102164,0
2024-11-26 21:45:43.032,-0.801895,3.71097,15.0637,-0.717058,-0.54541,-0.0685676,0
2024-11-26 21:45:43.033,-0.624826,3.4666,15.5043,-0.717058,-0.54541,-0.0685676,0
2024-11-26 21:45:43.038,-0.066999,2.97338,16.366,-0.772035,-0.52342,0.00229068,0
2024-11-26 21:45:43.040,0.263211,2.72453,16.7396,-0.772035,-0.52342,0.00229068,0
2024-11-26 21:45:43.043,0.62004,2.49691,17.0937,-0.808075,-0.445842,0.0682622,0
2024-11-26 21:45:43.046,1.01037,2.28873,17.3907,-0.808075,-0.310845,0.126293,0
2024-11-26 21:45:43.047,1.42223,2.11406,17.6611,-0.808075,-0.310845,0.126293,0
2024-11-26 21:45:43.048,1.42223,2.11406,17.6611,-0.800134,-0.224105,0.148283,0
2024-11-26 21:45:43.053,2.16192,1.85055,18.1113,-0.781197,-0.130645,0.165387,0
2024-11-26 21:45:43.053,1.80987,1.97767,18.1113,-0.781197,-0.130645,0.165387,0
2024-11-26 21:45:43.054,2.45384,1.76441,18.2791,-0.757374,-0.0292443,0.180047,0
2024-11-26 21:45:43.057,2.66949,1.70698,18.4226,-0.720723,0.0782648,0.189821,0
2024-11-26 21:45:43.059,2.81306,1.67109,18.5662,-0.676132,0.196769,0.199594,0
2024-11-26 21:45:43.061,2.87049,1.69262,18.6787,-0.676132,0.196769,0.199594,0
2024-11-26 21:45:43.064,2.86331,1.76441,18.7337,-0.557627,0.452103,0.215476,0
2024-11-26 21:45:43.067,2.77717,1.8673,18.7217,-0.40797,0.717211,0.230748,1
2024-11-26 21:45:43.068,2.61685,2.00638,18.6308,-0.40797,0.717211,0.230748,0
2024-11-26 21:45:43.069,2.77717,1.8673,18.6308,-0.32184,0.844878,0.242964,0
2024-11-26 21:45:43.072,2.38445,2.17627,18.4514,-0.22777,0.968269,0.255181,0
2024-11-26 21:45:43.074,2.01835,2.38445,18.1567,-0.131179,1.08372,0.274118,0
2024-11-26 21:45:43.076,1.64477,2.60249,17.8409,-0.131179,1.08372,0.274118,0
2024-11-26 21:45:43.079,1.37647,2.79153,17.5271,-0.131179,1.08372,0.274118,0
2024-11-26 21:45:43.080,1.18265,2.95424,17.1562,0.0636808,1.24865,0.313823,0
2024-11-26 21:45:43.083,1.05583,3.08584,16.7444,0.251822,1.34577,0.345587,0
2024-11-26 21:45:43.086,0.981655,3.14596,16.3038,0.251822,1.34577,0.345587,0
2024-11-26 21:45:43.087,0.811466,3.201,15.8154,0.251822,1.34577,0.345587,0
2024-11-26 21:45:43.089,0.533899,3.29193,15.2791,0.427746,1.38853,0.362691,0
2024-11-26 21:45:43.092,0.256032,3.39003,14.7308,0.427746,1.38853,0.362691,0
2024-11-26 21:45:43.095,-0.026321,3.50249,14.1802,0.663533,1.36043,0.382238,0
2024-11-26 21:45:43.096,-0.301795,3.60778,13.6343,0.663533,1.36043,0.382238,0
2024-11-26 21:45:43.102,-0.553041,3.69422,13.0884,0.846787,1.26087,0.39079,0
2024-11-26 21:45:43.102,-0.789931,3.78515,12.5258,0.846787,1.26087,0.39079,0
2024-11-26 21:45:43.107,-1.34776,3.94068,11.3504,0.923754,1.18329,0.388346,0
2024-11-26 21:45:43.109,-1.64716,4.01964,10.7925,0.890768,1.18329,0.388346,0
2024-11-26 21:45:43.111,-1.96062,4.08664,10.2491,0.890768,1.18329,0.388346,0
2024-11-26 21:45:43.114,-2.27916,4.13928,9.73191,0.962237,1.09227,0.3914,0
2024-11-26 21:45:43.118,-2.84656,4.19671,8.75294,0.956129,0.979875,0.392011,0
2024-11-26 21:45:43.119,-2.84656,4.19671,8.75294,0.956129,0.979875,0.392011,0
2024-11-26 21:45:43.121,-3.10768,4.23769,8.32672,0.91398,0.864425,0.384681,0
2024-11-26 21:45:43.126,-3.36371,4.21855,7.54128,0.836403,0.722098,0.381627,0
2024-11-26 21:45:43.128,-3.57189,4.07946,7.21586,0.836403,0.722098,0.381627,0
2024-11-26 21:45:43.130,-3.60539,3.90718,6.94517,0.786313,0.639023,0.379794,0
2024-11-26 21:45:43.132,-3.82104,3.75404,6.70828,0.786313,0.639023,0.379794,0
2024-11-26 21:45:43.135,-4.04118,3.61496,6.5001,0.614054,0.367806,0.387124,0
2024-11-26 21:45:43.137,-4.22572,3.48574,6.28445,0.614054,0.367806,0.387124,0
2024-11-26 21:45:43.139,-4.31905,3.37567,6.08585,0.614054,0.281066,0.39079,0
2024-11-26 21:45:43.141,-4.35733,3.30628,5.96381,0.477224,0.196158,0.392622,0
2024-11-26 21:45:43.145,-4.40279,3.2656,5.82951,0.477224,0.196158,0.392622,0
2024-11-26 21:45:43.147,-4.40758,3.24168,5.73619,0.254265,-0.0176382,0.407893,0
2024-11-26 21:45:43.149,-4.34297,3.201,5.75294,0.180964,-0.0811663,0.414002,0
2024-11-26 21:45:43.151,-4.22812,3.10529,5.80319,0.180964,-0.0811663,0.414002,0
2024-11-26 21:45:43.152,-4.22812,3.10529,5.80319,0.180964,-0.0811663,0.414002,0
2024-11-26 21:45:43.156,-3.85932,2.87528,5.9686,0.0453554,-0.180734,0.421943,0
2024-11-26 21:45:43.159,-3.65593,2.72213,6.06431,-0.016951,-0.216774,0.421943,0
2024-11-26 21:45:43.159,-3.65593,2.72213,6.06431,-0.016951,-0.216774,0.421943,0
2024-11-26 21:45:43.159,-3.65593,2.72213,6.06431,-0.016951,-0.216774,0.421943,0
2024-11-26 21:45:43.165,-3.02842,2.44666,6.46421,-0.171572,-0.265031,0.409726,0
2024-11-26 21:45:43.166,-3.02842,2.44666,6.46421,-0.217385,-0.269918,0.404228,0
2024-11-26 21:45:43.168,-2.82263,2.4347,6.62214,-0.217385,-0.269918,0.404228,0
2024-11-26 21:45:43.168,-2.82263,2.4347,6.62214,-0.217385,-0.269918,0.404228,0
2024-11-26 21:45:43.168,-2.82263,2.4347,6.62214,-0.217385,-0.269918,0.404228,0
2024-11-26 21:45:43.168,-2.82263,2.4347,6.62214,-0.217385,-0.269918,0.404228,0
2024-11-26 21:45:43.173,-2.60249,2.42273,6.96192,-0.217385,-0.269918,0.404228,0
2024-11-26 21:45:43.182,-1.90798,2.30788,7.48385,-0.398807,-0.334057,0.329705,0
2024-11-26 21:45:43.182,-1.90798,2.30788,7.48385,-0.398807,-0.334057,0.329705,0
2024-11-26 21:45:43.185,-1.81705,2.27677,7.5676,-0.410413,-0.35055,0.321153,0
2024-11-26 21:45:43.187,-1.67348,2.25524,7.6349,-0.410413,-0.35055,0.321153,0
2024-11-26 21:45:43.188,-1.51077,2.25284,7.70429,-0.417132,-0.367654,0.311379,0
2024-11-26 21:45:43.192,-1.33579,2.26959,7.77368,-0.42263,-0.403694,0.293665,0
2024-11-26 21:45:43.194,-1.18505,2.28156,7.83829,-0.42263,-0.403694,0.293665,0
2024-11-26 21:45:43.196,-1.05105,2.29831,7.89572,-0.423241,-0.417743,0.281448,0
2024-11-26 21:45:43.196,-1.05105,2.29831,7.89572,-0.423241,-0.417743,0.281448,0
2024-11-26 21:45:43.200,-0.80668,2.34856,7.95075,-0.418965,-0.436679,0.255181,0
2024-11-26 21:45:43.201,-0.80668,2.34856,7.95075,-0.418965,-0.436679,0.255181,0
2024-11-26 21:45:43.205,-0.612862,2.40838,8.02971,-0.402472,-0.449507,0.228915,0
2024-11-26 21:45:43.207,-0.612862,2.40838,8.05843,-0.39392,-0.448896,0.217309,0
2024-11-26 21:45:43.208,-0.505185,2.41795,8.05843,-0.39392,-0.448896,0.217309,0
2024-11-26 21:45:43.212,-0.387936,2.43709,8.07996,-0.378038,-0.445842,0.203259,0
2024-11-26 21:45:43.214,-0.141177,2.48016,8.06082,-0.361545,-0.439123,0.177604,0
2024-11-26 21:45:43.214,-0.141177,2.48016,8.06082,-0.361545,-0.439123,0.177604,0
2024-11-26 21:45:43.215,-0.141177,2.48016,8.06082,-0.32184,-0.412246,0.1605,0
2024-11-26 21:45:43.215,-0.141177,2.48016,8.06082,-0.32184,-0.412246,0.1605,0
2024-11-26 21:45:43.222,0.143569,2.50887,7.96272,-0.276027,-0.365821,0.129958,0
2024-11-26 21:45:43.222,0.143569,2.50887,7.96272,-0.276027,-0.365821,0.129958,0
2024-11-26 21:45:43.228,0.155533,2.72213,7.76172,-0.276027,-0.365821,0.129958,0
2024-11-26 21:45:43.232,0.246461,2.70539,7.70429,-0.13912,-0.230824,0.0670405,0
2024-11-26 21:45:43.234,0.301795,2.68864,7.61576,-0.13912,-0.230824,0.0670405,0
2024-11-26 21:45:43.234,0.301795,2.68864,7.61576,-0.13912,-0.230824,0.0670405,0
2024-11-26 21:45:43.239,0.337687,2.67189,7.3666,-0.0804791,-0.179513,0.0432174,0
2024-11-26 21:45:43.240,0.301795,2.67189,7.26371,-0.0511585,-0.158744,0.0334439,0
2024-11-26 21:45:43.246,0.162712,2.72692,7.01725,0.00687203,-0.12698,0.0157293,0
2024-11-26 21:45:43.246,0.162712,2.72692,7.01725,0.00687203,-0.12698,0.0157293,0
2024-11-26 21:45:43.250,-0.0358923,2.87049,6.73221,0.0606266,-0.111098,0.00839915,0
2024-11-26 21:45:43.251,-0.0358923,2.87049,6.73221,0.0606266,-0.111098,0.00839915,0
2024-11-26 21:45:43.255,-0.248854,2.98056,6.35145,0.102164,-0.1056,0.00656661,0
2024-11-26 21:45:43.258,-0.344866,3.0021,6.19352,0.119268,-0.104989,0.0108425,0
2024-11-26 21:45:43.260,-0.385544,3.00688,6.05713,0.129652,-0.0952158,0.0212269,0
2024-11-26 21:45:43.262,-0.375972,3.01167,5.93988,0.138204,-0.0952158,0.0212269,0
2024-11-26 21:45:43.265,-0.320937,3.02124,5.85344,0.140648,-0.0878856,0.0279463,0
2024-11-26 21:45:43.267,-0.234497,3.03799,5.78166,0.141258,-0.074447,0.0340547,0
2024-11-26 21:45:43.272,-0.0574277,3.07867,5.73859,0.135761,-0.030466,0.04505,0
2024-11-26 21:45:43.272,-0.0574277,3.07867,5.73859,0.135761,-0.030466,0.04505,0
2024-11-26 21:45:43.274,0.0143569,3.12443,5.72662,0.130263,-0.000534491,0.0499368,0
2024-11-26 21:45:43.276,0.0981057,3.15793,5.68355,0.130263,-0.000534491,0.0499368,0
2024-11-26 21:45:43.279,0.162712,3.201,5.62612,0.110105,0.0568851,0.0572669,0
2024-11-26 21:45:43.280,0.184247,3.24168,5.5352,0.110105,0.0568851,0.0572669,0
2024-11-26 21:45:43.280,0.184247,3.24168,5.5352,0.110105,0.0568851,0.0572669,0
2024-11-26 21:45:43.284,0.165105,3.27039,5.43231,0.0954449,0.113083,0.0682622,0
2024-11-26 21:45:43.287,0.162712,3.31107,5.25015,0.0294734,0.166227,0.0835334,0
2024-11-26 21:45:43.288,0.162712,3.31107,5.25015,0.0294734,0.166227,0.0835334,0
2024-11-26 21:45:43.292,0.138784,3.32543,5.11855,-0.0218378,0.216927,0.0926961,0
2024-11-26 21:45:43.294,0.112463,3.32303,5.1018,-0.0218378,0.216927,0.0926961,0
2024-11-26 21:45:43.297,0.102891,3.30868,5.09223,-0.0847551,0.274347,0.106746,0
2024-11-26 21:45:43.298,0.102891,3.30868,5.09223,-0.0847551,0.274347,0.106746,0
2024-11-26 21:45:43.301,0.0717847,3.24168,5.13769,-0.146451,0.336042,0.114076,0
2024-11-26 21:45:43.301,0.0717847,3.24168,5.13769,-0.146451,0.336042,0.114076,0
2024-11-26 21:45:43.306,0.0502493,3.21057,5.24776,-0.208223,0.394073,0.122628,0
2024-11-26 21:45:43.309,0.0167498,3.19382,5.34616,-0.208223,0.394073,0.122628,0
2024-11-26 21:45:43.312,-0.00717847,3.17468,5.44188,-0.268086,0.43561,0.129347,0
2024-11-26 21:45:43.314,-0.0311067,3.16032,5.53998,-0.292519,0.449049,0.13179,0
2024-11-26 21:45:43.317,-0.0502493,3.14596,5.69791,-0.335279,0.458212,0.129958,0
2024-11-26 21:45:43.317,-0.0502493,3.14596,5.69791,-0.335279,0.458212,0.129958,0
2024-11-26 21:45:43.320,-0.133998,3.12921,6.0691,-0.352993,0.450271,0.129347,0
2024-11-26 21:45:43.321,-0.0861416,3.12921,6.0691,-0.352993,0.450271,0.129347,0
2024-11-26 21:45:43.325,-0.234497,3.15553,6.48096,-0.377427,0.406901,0.11713,0
2024-11-26 21:45:43.326,-0.234497,3.15553,6.48096,-0.381703,0.375747,0.110411,0
2024-11-26 21:45:43.330,-0.342473,3.201,6.87578,-0.383536,0.337875,0.104302,0
2024-11-26 21:45:43.330,-0.342473,3.201,6.87578,-0.383536,0.337875,0.104302,0
2024-11-26 21:45:43.334,-0.407079,3.22014,7.21825,-0.371319,0.251135,0.0871984,0
2024-11-26 21:45:43.335,-0.407079,3.22014,7.21825,-0.371319,0.251135,0.0871984,0
2024-11-26 21:45:43.340,-0.502792,3.22732,7.47907,-0.348107,0.158897,0.0725381,0
2024-11-26 21:45:43.342,-0.502792,3.2345,7.59661,-0.329781,0.111251,0.0633754,0
2024-11-26 21:45:43.342,-0.524327,3.2345,7.59661,-0.329781,0.111251,0.0633754,0
2024-11-26 21:45:43.344,-0.517149,3.24168,7.6995,-0.309012,0.0605502,0.0560452,0
2024-11-26 21:45:43.347,-0.502792,3.25843,7.78086,-0.288244,0.00923906,0.0474934,0
2024-11-26 21:45:43.348,-0.488435,3.27278,7.867,-0.265642,-0.0451263,0.0364981,0
2024-11-26 21:45:43.349,-0.488435,3.27278,7.867,-0.265642,-0.0451263,0.0364981,0
2024-11-26 21:45:43.353,-0.419043,3.31825,7.99382,-0.240597,-0.0982701,0.0279463,0
2024-11-26 21:45:43.356,-0.397508,3.34696,8.01775,-0.197227,-0.200892,0.00534491,0
2024-11-26 21:45:43.358,-0.375972,3.38525,8.02493,-0.176459,-0.247928,-0.00626118,0
2024-11-26 21:45:43.361,-0.354437,3.41875,8.02014,-0.152559,-0.292519,-0.019089,0
2024-11-26 21:45:43.363,-0.313759,3.44746,7.98425,-0.133623,-0.334668,-0.0319168,0
2024-11-26 21:45:43.367,-0.27996,3.54317,7.84307,-0.100026,-0.409191,-0.0545181,0
2024-11-26 21:45:43.368,-0.27996,3.54317,7.84307,-0.100026,-0.409191,-0.0545181,0
2024-11-26 21:45:43.372,-0.253639,3.62931,7.64208,-0.0762032,-0.471498,-0.0801737,0
2024-11-26 21:45:43.372,-0.253639,3.62931,7.64208,-0.0762032,-0.471498,-0.0801737,0
2024-11-26 21:45:43.377,-0.263211,3.72533,7.37617,-0.068873,-0.5167,-0.103997,0
2024-11-26 21:45:43.378,-0.263211,3.72533,7.37617,-0.068873,-0.5167,-0.114381,0
2024-11-26 21:45:43.381,-0.308973,3.78036,7.22303,-0.0725381,-0.541134,-0.1211,0
2024-11-26 21:45:43.382,-0.308973,3.78036,7.22303,-0.0725381,-0.541134,-0.1211,0
2024-11-26 21:45:43.387,-0.342473,3.82343,7.12493,-0.0878093,-0.546632,-0.135761,0
2024-11-26 21:45:43.390,-0.297009,3.84736,7.05793,-0.0878093,-0.546632,-0.135761,0
2024-11-26 21:45:43.392,-0.277567,3.88564,6.99302,-0.116519,-0.546632,-0.143702,0
2024-11-26 21:45:43.393,-0.285045,3.90479,6.94995,-0.116519,-0.546632,-0.143702,0
2024-11-26 21:45:43.399,-0.294616,3.97657,6.89253,-0.197227,-0.542356,-0.157751,0
2024-11-26 21:45:43.399,-0.294616,3.97657,6.89253,-0.197227,-0.542356,-0.157751,0
2024-11-26 21:45:43.401,-0.297009,4.01246,6.87817,-0.197227,-0.542356,-0.157751,0
2024-11-26 21:45:43.401,-0.297009,4.01246,6.87817,-0.197227,-0.542356,-0.157751,0
2024-11-26 21:45:43.411,-0.285045,4.0675,7.02682,-0.282135,-0.502651,-0.182185,0
2024-11-26 21:45:43.411,-0.27996,4.08903,7.10339,-0.282135,-0.502651,-0.182185,0
2024-11-26 21:45:43.414,-0.285045,4.12493,7.2996,-0.320008,-0.47333,-0.19318,0
2024-11-26 21:45:43.415,-0.285045,4.12493,7.2996,-0.320008,-0.47333,-0.19318,0
2024-11-26 21:45:43.420,-0.325723,4.18714,7.52692,-0.354215,-0.44462,-0.209673,0
2024-11-26 21:45:43.422,-0.328116,4.25205,7.63251,-0.37193,-0.44462,-0.209673,0
2024-11-26 21:45:43.424,-0.328116,4.3334,7.73779,-0.385979,-0.441566,-0.218836,0
2024-11-26 21:45:43.424,-0.328116,4.3334,7.73779,-0.385979,-0.441566,-0.218836,0
2024-11-26 21:45:43.429,-0.347258,4.46501,7.95075,-0.40858,-0.432404,-0.232886,0
2024-11-26 21:45:43.431,-0.344866,4.52004,8.1015,-0.40858,-0.431793,-0.238383,0
2024-11-26 21:45:43.433,-0.344866,4.58226,8.27169,-0.423852,-0.428738,-0.246935,0
2024-11-26 21:45:43.436,-0.344866,4.58226,8.44876,-0.423852,-0.428738,-0.246935,0
2024-11-26 21:45:43.438,-0.375972,4.68993,8.64975,-0.42996,-0.416521,-0.263428,0
2024-11-26 21:45:43.441,-0.361615,4.76411,8.86302,-0.428128,-0.410413,-0.270758,0
2024-11-26 21:45:43.441,-0.375972,4.68993,8.64975,-0.428128,-0.410413,-0.270758,0
2024-11-26 21:45:43.444,-0.320937,4.82423,9.09273,-0.411635,-0.399418,-0.291527,0
2024-11-26 21:45:43.446,-0.275175,4.90559,9.32034,-0.411635,-0.399418,-0.291527,0
2024-11-26 21:45:43.448,-0.212961,5.00848,9.52852,-0.398807,-0.392088,-0.302522,0
2024-11-26 21:45:43.451,-0.150748,5.1018,9.73191,-0.363989,-0.375595,-0.326956,0
2024-11-26 21:45:43.453,-0.112463,5.19751,9.92603,-0.338944,-0.368265,-0.341616,0
2024-11-26 21:45:43.455,-0.107677,5.28365,10.1127,-0.338944,-0.368265,-0.341616,0
2024-11-26 21:45:43.457,-0.0909273,5.34856,10.2897,-0.313899,-0.357269,-0.354444,0
2024-11-26 21:45:43.459,-0.0693919,5.41077,10.4456,-0.285189,-0.345052,-0.367883,0
2024-11-26 21:45:43.463,-0.0693919,5.41077,10.582,-0.225937,-0.326727,-0.393538,0
2024-11-26 21:45:43.464,-0.129212,5.54477,10.6849,-0.225937,-0.326727,-0.393538,0
2024-11-26 21:45:43.465,-0.129212,5.54477,10.6849,-0.225937,-0.326727,-0.393538,0
2024-11-26 21:45:43.469,-0.212961,5.61655,10.85,-0.165998,-0.319397,-0.41614,0
2024-11-26 21:45:43.471,-0.212961,5.61655,10.85,-0.139731,-0.320618,-0.424692,0
2024-11-26 21:45:43.473,-0.232104,5.68595,10.9795,-0.1098,-0.326727,-0.433854,0
2024-11-26 21:45:43.476,-0.232104,5.70269,11.0178,-0.1098,-0.326727,-0.433854,0
2024-11-26 21:45:43.479,-0.35683,5.71705,11.0178,-0.0334439,-0.357269,-0.457677,0
2024-11-26 21:45:43.479,-0.35683,5.71705,11.0178,-0.0334439,-0.357269,-0.457677,0
2024-11-26 21:45:43.483,-0.411865,5.72423,11.0249,-0.0114534,-0.375595,-0.461953,0
2024-11-26 21:45:43.484,-0.488435,5.7338,11.0608,-0.0114534,-0.375595,-0.461953,0
2024-11-26 21:45:43.487,-0.703789,5.75294,11.1278,0.02703,-0.422019,-0.463175,0
2024-11-26 21:45:43.490,-0.811466,5.72423,11.1685,0.0465771,-0.446453,-0.460732,0
2024-11-26 21:45:43.493,-0.907478,5.70269,11.202,0.0612374,-0.47333,-0.457677,0
2024-11-26 21:45:43.495,-0.907478,5.70269,11.1924,0.0612374,-0.47333,-0.457677,0
2024-11-26 21:45:43.497,-1.01276,5.7003,11.1709,0.0905581,-0.520366,-0.446682,0
2024-11-26 21:45:43.500,-1.01276,5.7003,11.1709,0.0905581,-0.520366,-0.446682,0
2024-11-26 21:45:43.502,-1.00558,5.69791,11.2068,0.116214,-0.553962,-0.425913,0
2024-11-26 21:45:43.503,-1.00558,5.69791,11.2068,0.116214,-0.553962,-0.425913,0
2024-11-26 21:45:43.506,-0.933799,5.73141,11.3815,0.137593,-0.574731,-0.398425,0
2024-11-26 21:45:43.506,-0.933799,5.73141,11.3815,0.137593,-0.574731,-0.398425,0
2024-11-26 21:45:43.512,-0.777966,5.7338,11.6186,0.160806,-0.572287,-0.363607,0
2024-11-26 21:45:43.512,-0.777966,5.7338,11.6186,0.160806,-0.572287,-0.363607,0
2024-11-26 21:45:43.514,-0.703789,5.74098,11.7024,0.160806,-0.572287,-0.363607,0
2024-11-26 21:45:43.517,-0.651147,5.75294,11.7742,0.189515,-0.513646,-0.298857,0
2024-11-26 21:45:43.519,-0.63679,5.77209,11.8627,0.199289,-0.478217,-0.273201,0
2024-11-26 21:45:43.521,-0.643968,5.79362,11.9345,0.199289,-0.478217,-0.273201,0
2024-11-26 21:45:43.523,-0.684646,5.81994,12.0087,0.205397,-0.431182,-0.246935,0
2024-11-26 21:45:43.525,-0.799502,5.81516,12.1406,0.205397,-0.373762,-0.218836,0
2024-11-26 21:45:43.527,-0.981655,5.78644,12.32,0.218836,-0.305347,-0.185239,0
2024-11-26 21:45:43.530,-1.17547,5.75055,12.5258,0.226166,-0.224105,-0.152865,0
2024-11-26 21:45:43.531,-1.17547,5.75055,12.5258,0.226166,-0.224105,-0.152865,0
2024-11-26 21:45:43.536,-1.48205,5.67877,12.9975,0.247546,0.0666587,-0.050853,0
2024-11-26 21:45:43.538,-1.59452,5.64527,13.2395,0.247546,0.0666587,-0.050853,0
2024-11-26 21:45:43.540,-1.65912,5.62134,13.4668,0.265871,0.262741,0.0077883,0
2024-11-26 21:45:43.542,-1.65434,5.62134,13.675,0.265871,0.262741,0.0077883,0
2024-11-26 21:45:43.545,-1.65434,5.65484,13.8547,0.265871,0.262741,0.0077883,0
2024-11-26 21:45:43.553,-1.4653,5.89203,14.0653,0.334897,0.590155,0.0933069,0
2024-11-26 21:45:43.556,-1.50359,6.11695,14.0007,0.334897,0.590155,0.0933069,0
2024-11-26 21:45:43.558,-1.52513,6.22702,13.8858,0.368494,0.621308,0.107356,1
2024-11-26 21:45:43.564,-1.49163,6.30838,13.5817,0.408199,0.602983,0.107356,0
2024-11-26 21:45:43.564,-1.49163,6.30838,13.5817,0.408199,0.602983,0.107356,0
2024-11-26 21:45:43.565,-1.70219,6.4352,13.2491,0.421637,0.593209,0.103691,0
2024-11-26 21:45:43.569,-1.76919,6.55514,13.1315,0.421637,0.593209,0.103691,0
2024-11-26 21:45:43.570,-1.80509,6.61974,13.1124,0.443628,0.482035,0.0963612,0
2024-11-26 21:45:43.575,-1.74287,6.58864,12.9018,0.457066,0.287785,0.0817008,0
2024-11-26 21:45:43.576,-1.63041,6.58864,12.9018,0.457066,0.287785,0.0817008,0
2024-11-26 21:45:43.578,-1.58495,6.55753,12.7702,0.460121,0.183941,0.0658188,0
2024-11-26 21:45:43.579,-1.58495,6.55753,12.7702,0.460732,0.0764323,0.0462717,0
2024-11-26 21:45:43.583,-1.60648,6.48575,12.521,0.453401,-0.149581,0.00534491,0
2024-11-26 21:45:43.585,-1.62562,6.43998,12.4373,0.446071,-0.266864,-0.0178673,0
2024-11-26 21:45:43.587,-1.60648,6.35384,12.387,0.446071,-0.266864,-0.0178673,0
2024-11-26 21:45:43.587,-1.60648,6.35384,12.387,0.446071,-0.266864,-0.0178673,0
2024-11-26 21:45:43.587,-1.60648,6.35384,12.387,0.446071,-0.266864,-0.0178673,0
2024-11-26 21:45:43.594,-1.60648,6.09302,12.1262,0.446071,-0.266864,-0.0178673,0
2024-11-26 21:45:43.597,-1.56341,5.70987,12.0494,0.383765,-0.686516,-0.110105,0
2024-11-26 21:45:43.599,-1.55623,5.46581,12.0159,0.333675,-0.825178,-0.143702,0
2024-11-26 21:45:43.601,-1.55145,5.19512,12.0183,0.333675,-0.825178,-0.143702,0
2024-11-26 21:45:43.604,-1.55623,4.94148,12.0278,0.271369,-0.906421,-0.158973,0
2024-11-26 21:45:43.606,-1.60409,4.67079,12.0422,0.271369,-0.906421,-0.158973,0
2024-11-26 21:45:43.606,-1.60409,4.67079,12.0422,0.271369,-0.906421,-0.158973,0
2024-11-26 21:45:43.611,-1.7333,4.07468,12.2339,0.203565,-0.931466,-0.14981,0
2024-11-26 21:45:43.613,-1.7333,3.78993,12.3344,0.141258,-0.894815,-0.121711,0
2024-11-26 21:45:43.616,-1.73091,3.49771,12.4134,0.141258,-0.894815,-0.121711,0
2024-11-26 21:45:43.616,-1.73091,3.49771,12.4134,0.141258,-0.894815,-0.121711,0
2024-11-26 21:45:43.618,-1.6998,3.22971,12.4995,0.0807846,-0.808685,-0.0746761,0
2024-11-26 21:45:43.619,-1.6328,2.97817,12.5952,0.0807846,-0.808685,-0.0746761,0
2024-11-26 21:45:43.623,-1.57777,2.75803,12.6649,0.0227541,-0.701787,-0.0129805,0
2024-11-26 21:45:43.624,-1.57777,2.57378,12.7319,0.0227541,-0.701787,-0.0129805,0
2024-11-26 21:45:43.626,-1.52034,2.41555,12.7798,-0.00656661,-0.647422,0.0193944,0
2024-11-26 21:45:43.630,-1.52034,2.41555,12.8444,-0.0682622,-0.541134,0.0902527,0
2024-11-26 21:45:43.630,-1.43659,2.26002,12.8444,-0.0682622,-0.541134,0.0902527,0
2024-11-26 21:45:43.632,-1.26879,2.07338,12.9281,-0.096972,-0.484326,0.122628,0
2024-11-26 21:45:43.634,-1.07498,1.88883,12.9664,-0.096972,-0.484326,0.122628,0
2024-11-26 21:45:43.636,-0.864407,1.73091,13.0119,-0.12446,-0.426906,0.153781,0
2024-11-26 21:45:43.639,-0.62004,1.59691,13.086,-0.147672,-0.365821,0.178215,0
2024-11-26 21:45:43.639,-0.62004,1.59691,13.086,-0.147672,-0.365821,0.178215,0
2024-11-26 21:45:43.641,-0.330509,1.47248,13.1868,-0.166609,-0.302293,0.198373,0
2024-11-26 21:45:43.641,-0.330509,1.47248,13.1868,-0.166609,-0.302293,0.198373,0
2024-11-26 21:45:43.646,0.320937,1.31665,13.4142,-0.188065,-0.174015,0.221585,0
2024-11-26 21:45:43.649,0.665504,1.31426,13.4955,-0.181345,-0.0500131,0.212422,0
2024-11-26 21:45:43.650,1.02951,1.32622,13.5649,-0.181345,-0.0500131,0.212422,0
2024-11-26 21:45:43.651,1.02951,1.32622,13.5649,-0.181345,-0.0500131,0.212422,0
2024-11-26 21:45:43.652,1.02951,1.32622,13.6008,-0.181345,-0.0500131,0.212422,0
2024-11-26 21:45:43.658,1.85055,1.4677,13.5721,-0.147672,0.057496,0.176993,0
2024-11-26 21:45:43.659,2.00399,1.5658,13.5147,-0.0804791,0.144236,0.118352,0
2024-11-26 21:45:43.659,2.00399,1.5658,13.5147,-0.0804791,0.144236,0.118352,0
2024-11-26 21:45:43.665,2.08774,1.91994,13.2538,0.0636808,0.216927,0.016951,0
2024-11-26 21:45:43.667,2.13559,2.13559,13.098,0.0636808,0.216927,0.016951,0
2024-11-26 21:45:43.670,2.16909,2.38206,12.9353,0.123544,0.221814,-0.0178673,0
2024-11-26 21:45:43.670,2.16909,2.38206,12.9353,0.123544,0.221814,-0.0178673,0
2024-11-26 21:45:43.675,2.17149,2.9016,12.5091,0.245102,0.199213,-0.0832279,0
2024-11-26 21:45:43.677,2.17149,2.9016,12.2937,0.245102,0.199213,-0.0832279,0
2024-11-26 21:45:43.679,2.18584,3.2656,12.0541,0.428357,0.0721563,-0.182796,0
2024-11-26 21:45:43.679,2.18584,3.2656,12.0541,0.428357,0.0721563,-0.182796,0
2024-11-26 21:45:43.681,2.17149,3.3996,11.7766,0.428357,0.0721563,-0.182796,0
2024-11-26 21:45:43.683,2.12602,3.51685,11.4604,0.428357,0.0721563,-0.182796,0
2024-11-26 21:45:43.686,2.05424,3.60539,11.1326,0.601837,-0.110487,-0.268315,0
2024-11-26 21:45:43.689,1.9657,3.68943,10.8069,0.651316,-0.174015,-0.292749,0
2024-11-26 21:45:43.690,1.9657,3.68943,10.5245,0.651316,-0.174015,-0.292749,0
2024-11-26 21:45:43.697,1.45095,4.03639,9.65773,0.74111,-0.312677,-0.328178,0
2024-11-26 21:45:43.697,1.45095,4.03639,9.65773,0.74111,-0.312677,-0.328178,0
2024-11-26 21:45:43.698,1.45095,4.03639,9.65773,0.74111,-0.312677,-0.328178,0
2024-11-26 21:45:43.699,1.3334,4.10339,9.40888,0.808304,-0.449507,-0.342227,0
2024-11-26 21:45:43.699,1.3334,4.10339,9.40888,0.808304,-0.449507,-0.342227,0
2024-11-26 21:45:43.704,1.06062,4.15364,8.89891,0.846176,-0.577785,-0.332454,0
2024-11-26 21:45:43.705,1.06062,4.15364,8.89891,0.846176,-0.577785,-0.332454,0
2024-11-26 21:45:43.707,0.979263,4.15125,8.7362,0.859615,-0.641313,-0.319626,0
2024-11-26 21:45:43.709,0.756431,4.08664,8.62104,0.866945,-0.709728,-0.302522,0
2024-11-26 21:45:43.712,0.440578,3.97657,8.41765,0.871221,-0.764704,-0.27931,0
2024-11-26 21:45:43.714,0.241675,3.85932,8.20469,0.871221,-0.764704,-0.248157,0
2024-11-26 21:45:43.717,0.361615,3.80668,7.99143,0.864502,-0.806853,-0.210284,0
2024-11-26 21:45:43.718,0.677468,3.84975,7.733,0.85595,-0.825178,-0.176077,0
2024-11-26 21:45:43.722,0.833001,3.87847,7.49342,0.835181,-0.831287,-0.144924,0
2024-11-26 21:45:43.724,0.881157,3.83061,7.31157,0.815023,-0.823346,-0.111327,0
2024-11-26 21:45:43.725,0.8668,3.7349,7.17039,0.788757,-0.802577,-0.0765086,0
2024-11-26 21:45:43.726,0.8668,3.7349,7.17039,0.788757,-0.802577,-0.0765086,0
2024-11-26 21:45:43.730,0.818644,3.51685,6.93799,0.729504,-0.733551,0.00656661,0
2024-11-26 21:45:43.730,0.818644,3.51685,6.93799,0.729504,-0.733551,0.00656661,0
2024-11-26 21:45:43.733,1.09651,3.46899,6.75374,0.729504,-0.733551,0.00656661,0
2024-11-26 21:45:43.736,1.25204,3.42353,6.5671,0.660479,-0.648033,0.0804791,0
2024-11-26 21:45:43.738,1.29512,3.37328,6.39452,0.617719,-0.591835,0.114076,0
2024-11-26 21:45:43.739,1.33579,3.32782,6.27488,0.57496,-0.524641,0.147061,0
2024-11-26 21:45:43.743,1.38604,3.28953,6.16002,0.527925,-0.45134,0.180047,0
2024-11-26 21:45:43.744,1.41984,3.23928,6.06431,0.477835,-0.379871,0.21059,0
2024-11-26 21:45:43.748,1.42941,3.16511,5.97338,0.373991,-0.227159,0.263733,0
