timestamp,accel_x,accel_y,accel_z,gyro_x,gyro_y,gyro_z,step_timestamp
2024-11-26 21:46:43.316,0.153141,2.95663,9.35145,-0.0487151,-0.100713,0.165998,0
2024-11-26 21:46:43.316,0.0789631,2.9662,9.31316,-0.0487151,-0.100713,0.165998,0
2024-11-26 21:46:43.316,0.153141,2.95663,9.35145,-0.0487151,-0.100713,0.165998,0
2024-11-26 21:46:43.316,0.153141,2.95663,9.35145,-0.0487151,-0.100713,0.165998,0
2024-11-26 21:46:43.316,0.153141,2.95663,9.35145,-0.0487151,-0.100713,0.165998,0
2024-11-26 21:46:43.316,0.153141,2.95663,9.35145,-0.0487151,-0.100713,0.165998,0
2024-11-26 21:46:43.316,0.153141,2.95663,9.35145,-0.0487151,-0.100713,0.165998,0
2024-11-26 21:46:43.316,0.153141,2.95663,9.35145,-0.0487151,-0.100713,0.165998,0
2024-11-26 21:46:43.316,0.153141,2.95663,9.35145,-0.0487151,-0.100713,0.165998,0
2024-11-26 21:46:43.316,0.153141,2.95663,9.35145,-0.0487151,-0.100713,0.165998,0
2024-11-26 21:46:43.317,0.153141,2.95663,9.35145,-0.0487151,-0.100713,0.165998,0
2024-11-26 21:46:43.317,0.153141,2.95663,9.35145,-0.0487151,-0.100713,0.165998,0
2024-11-26 21:46:43.317,0.153141,2.95663,9.35145,-0.0487151,-0.100713,0.165998,0
2024-11-26 21:46:43.317,0.153141,2.95663,9.35145,-0.0487151,-0.100713,0.165998,0
2024-11-26 21:46:43.317,0.153141,2.95663,9.35145,-0.0487151,-0.100713,0.165998,0
2024-11-26 21:46:43.317,0.153141,2.95663,9.35145,-0.0487151,-0.100713,0.165998,0
2024-11-26 21:46:43.317,0.153141,2.95663,9.35145,-0.0487151,-0.100713,0.165998,0
2024-11-26 21:46:43.317,0.153141,2.95663,9.35145,-0.0487151,-0.100713,0.165998,0
2024-11-26 21:46:43.317,0.153141,2.95663,9.35145,-0.0487151,-0.100713,0.165998,0
2024-11-26 21:46:43.317,0.153141,2.95663,9.35145,-0.0487151,-0.100713,0.165998,0
2024-11-26 21:46:43.317,0.153141,2.95663,9.35145,-0.0487151,-0.100713,0.165998,0
2024-11-26 21:46:43.317,0.153141,2.95663,9.35145,-0.0487151,-0.100713,0.165998,0
2024-11-26 21:46:43.317,0.153141,2.95663,9.35145,-0.0487151,-0.100713,0.165998,0
2024-11-26 21:46:43.317,0.153141,2.95663,9.35145,-0.0487151,-0.100713,0.165998,0
2024-11-26 21:46:43.317,0.153141,2.95663,9.35145,-0.0487151,-0.100713,0.165998,0
2024-11-26 21:46:43.334,0.167498,2.98774,9.87099,-0.0346656,-0.123926,0.18921,0
2024-11-26 21:46:43.335,0.167498,2.98774,9.87099,-0.0346656,-0.123926,0.18921,0
2024-11-26 21:46:43.335,0.167498,2.98774,9.87099,-0.0346656,-0.123926,0.18921,0
2024-11-26 21:46:43.335,0.167498,2.98774,9.87099,-0.0346656,-0.123926,0.18921,0
2024-11-26 21:46:43.335,0.167498,2.98774,9.87099,-0.0346656,-0.123926,0.18921,0
2024-11-26 21:46:43.335,0.167498,2.98774,9.87099,-0.0346656,-0.123926,0.18921,0
2024-11-26 21:46:43.340,0.292223,3.00688,9.84467,-0.0346656,-0.123926,0.18921,0
2024-11-26 21:46:43.344,0.41665,3.05713,9.74866,-0.0126751,-0.110487,0.17455,0
2024-11-26 21:46:43.346,0.454935,3.05713,9.7008,-0.0102317,-0.104379,0.164165,0
2024-11-26 21:46:43.347,0.454935,3.05713,9.7008,-0.00534491,-0.0976592,0.154392,0
2024-11-26 21:46:43.347,0.454935,3.05713,9.7008,-0.00534491,-0.0976592,0.154392,0
2024-11-26 21:46:43.347,0.454935,3.05713,9.7008,-0.00534491,-0.0976592,0.154392,0
2024-11-26 21:46:43.349,0.490828,3.05234,9.65534,-0.00534491,-0.0976592,0.154392,0
2024-11-26 21:46:43.350,0.490828,3.05234,9.65534,-0.00534491,-0.0976592,0.144618,0
2024-11-26 21:46:43.351,0.512363,3.04995,9.59791,-0.00595576,-0.0939941,0.144618,0
2024-11-26 21:46:43.352,0.512363,3.04995,9.59791,-0.00595576,-0.0939941,0.144618,0
2024-11-26 21:46:43.352,0.512363,3.04995,9.59791,-0.00595576,-0.0939941,0.144618,0
2024-11-26 21:46:43.352,0.512363,3.04995,9.59791,-0.00595576,-0.0939941,0.144618,0
2024-11-26 21:46:43.353,0.507577,3.04995,9.57638,-0.00351237,-0.090329,0.134845,0
2024-11-26 21:46:43.354,0.507577,3.04995,9.57638,-0.00534491,-0.0884965,0.122628,0
2024-11-26 21:46:43.356,0.488435,3.05713,9.54288,-0.00534491,-0.0884965,0.122628,0
2024-11-26 21:46:43.357,0.488435,3.05713,9.54288,-0.00717746,-0.0891073,0.115908,0
2024-11-26 21:46:43.357,0.488435,3.05713,9.54288,-0.00717746,-0.0891073,0.115908,0
2024-11-26 21:46:43.357,0.488435,3.05713,9.54288,-0.00717746,-0.0891073,0.115908,0
2024-11-26 21:46:43.359,0.454935,3.07627,9.49741,-0.00839915,-0.0891073,0.108578,0
2024-11-26 21:46:43.360,0.419043,3.09571,9.47827,-0.00839915,-0.0891073,0.108578,0
2024-11-26 21:46:43.360,0.419043,3.09571,9.47827,-0.00839915,-0.0891073,0.108578,0
2024-11-26 21:46:43.360,0.419043,3.09571,9.47827,-0.00839915,-0.0891073,0.108578,0
2024-11-26 21:46:43.361,0.454935,3.07627,9.49741,-0.00839915,-0.0891073,0.108578,0
2024-11-26 21:46:43.364,0.387936,3.11246,9.44238,-0.0114534,-0.0872748,0.0975828,0
2024-11-26 21:46:43.364,0.387936,3.11246,9.44238,-0.0114534,-0.0872748,0.0975828,0
2024-11-26 21:46:43.365,0.361615,3.12921,9.4017,-0.0114534,-0.0872748,0.0975828,0
2024-11-26 21:46:43.365,0.361615,3.12921,9.4017,-0.0114534,-0.0872748,0.0975828,0
2024-11-26 21:46:43.365,0.361615,3.12921,9.4017,-0.0114534,-0.0872748,0.0975828,0
2024-11-26 21:46:43.366,0.361615,3.12921,9.4017,-0.0108425,-0.0860531,0.0951395,0
2024-11-26 21:46:43.366,0.387936,3.12921,9.4017,-0.0108425,-0.0860531,0.0951395,0
2024-11-26 21:46:43.367,0.335294,3.15314,9.37538,-0.0108425,-0.0860531,0.0951395,0
2024-11-26 21:46:43.367,0.335294,3.15314,9.37538,-0.0108425,-0.0860531,0.0951395,0
2024-11-26 21:46:43.368,0.335294,3.15314,9.37538,-0.0108425,-0.0860531,0.0951395,0
2024-11-26 21:46:43.370,0.318545,3.17228,9.32992,-0.0138968,-0.0854423,0.0914744,0
2024-11-26 21:46:43.371,0.318545,3.17228,9.32992,-0.0151185,-0.0872748,0.0896418,0
2024-11-26 21:46:43.371,0.318545,3.17228,9.32992,-0.0151185,-0.0872748,0.0896418,0
2024-11-26 21:46:43.371,0.318545,3.17228,9.32992,-0.0151185,-0.0872748,0.0896418,0
2024-11-26 21:46:43.371,0.318545,3.17228,9.32992,-0.0151185,-0.0872748,0.0896418,0
2024-11-26 21:46:43.373,0.320937,3.17707,9.29163,-0.0193944,-0.0891073,0.089031,0
2024-11-26 21:46:43.375,0.320937,3.17707,9.25305,-0.0193944,-0.0891073,0.089031,0
2024-11-26 21:46:43.375,0.325723,3.19382,9.25305,-0.0193944,-0.0891073,0.089031,0
2024-11-26 21:46:43.376,0.325723,3.19382,9.25305,-0.0236703,-0.0939941,0.0896418,0
2024-11-26 21:46:43.377,0.320937,3.23211,9.20519,-0.0236703,-0.0939941,0.0896418,0
2024-11-26 21:46:43.378,0.320937,3.23211,9.20519,-0.0236703,-0.0939941,0.0896418,0
2024-11-26 21:46:43.379,0.311366,3.25843,9.17887,-0.0273354,-0.0970484,0.089031,0
2024-11-26 21:46:43.379,0.311366,3.25843,9.17887,-0.0273354,-0.0970484,0.089031,0
2024-11-26 21:46:43.380,0.311366,3.25843,9.17887,-0.0352764,-0.101935,0.0914744,0
2024-11-26 21:46:43.382,0.299402,3.2656,9.13819,-0.0352764,-0.101935,0.0914744,0
2024-11-26 21:46:43.383,0.299402,3.2656,9.13819,-0.0389415,-0.1056,0.0920852,0
2024-11-26 21:46:43.384,0.285045,3.28714,9.11187,-0.0389415,-0.1056,0.0920852,0
2024-11-26 21:46:43.385,0.285045,3.28714,9.11187,-0.0389415,-0.1056,0.0920852,0
2024-11-26 21:46:43.386,0.275175,3.30628,9.09751,-0.0468825,-0.108654,0.0933069,0
2024-11-26 21:46:43.386,0.275175,3.30628,9.09751,-0.0468825,-0.108654,0.0933069,0
2024-11-26 21:46:43.389,0.267996,3.32064,9.08315,-0.0566561,-0.110487,0.0951395,0
2024-11-26 21:46:43.389,0.267996,3.32064,9.08315,-0.0566561,-0.110487,0.0951395,0
2024-11-26 21:46:43.390,0.267996,3.32064,9.08315,-0.0639862,-0.109265,0.100026,0
2024-11-26 21:46:43.392,0.248854,3.3326,9.07358,-0.073149,-0.109876,0.106135,0
2024-11-26 21:46:43.393,0.234497,3.34218,9.05683,-0.073149,-0.109876,0.106135,0
2024-11-26 21:46:43.394,0.234497,3.34218,9.05683,-0.073149,-0.109876,0.106135,0
2024-11-26 21:46:43.396,0.222533,3.34935,9.06641,-0.08109,-0.107433,0.110411,0
2024-11-26 21:46:43.399,0.217747,3.35892,9.08555,-0.0988045,-0.101935,0.120184,0
2024-11-26 21:46:43.399,0.217747,3.35892,9.08555,-0.0988045,-0.101935,0.120184,0
2024-11-26 21:46:43.399,0.217747,3.35892,9.08555,-0.0988045,-0.101935,0.120184,0
2024-11-26 21:46:43.399,0.217747,3.35892,9.08555,-0.0988045,-0.101935,0.120184,0
2024-11-26 21:46:43.404,0.212961,3.3661,9.13101,-0.117741,-0.090329,0.128736,0
2024-11-26 21:46:43.404,0.212961,3.3661,9.13101,-0.117741,-0.090329,0.128736,0
2024-11-26 21:46:43.404,0.212961,3.3661,9.13101,-0.117741,-0.090329,0.128736,0
2024-11-26 21:46:43.405,0.222533,3.35175,9.14776,-0.117741,-0.090329,0.128736,0
2024-11-26 21:46:43.408,0.217747,3.33739,9.17887,-0.128125,-0.0860531,0.134234,0
2024-11-26 21:46:43.408,0.217747,3.33739,9.17887,-0.128125,-0.0860531,0.134234,0
2024-11-26 21:46:43.411,0.205783,3.32543,9.22912,-0.149505,-0.0732253,0.140953,0
2024-11-26 21:46:43.411,0.205783,3.32543,9.22912,-0.149505,-0.0732253,0.140953,0
2024-11-26 21:46:43.413,0.184247,3.31825,9.26531,-0.149505,-0.0732253,0.140953,0
2024-11-26 21:46:43.413,0.184247,3.31825,9.26531,-0.149505,-0.0732253,0.140953,0
2024-11-26 21:46:43.415,0.172283,3.32064,9.31795,-0.159889,-0.0652843,0.147061,0
2024-11-26 21:46:43.415,0.172283,3.32064,9.31795,-0.159889,-0.0652843,0.147061,0
2024-11-26 21:46:43.418,0.155533,3.31585,9.38495,-0.170961,-0.0487914,0.155613,0
2024-11-26 21:46:43.418,0.155533,3.31585,9.38495,-0.170961,-0.0487914,0.155613,0
2024-11-26 21:46:43.419,0.124427,3.29671,9.44477,-0.170961,-0.0487914,0.155613,0
2024-11-26 21:46:43.420,0.124427,3.29671,9.44477,-0.17768,-0.0390179,0.159889,0
2024-11-26 21:46:43.422,0.119641,3.27278,9.52134,-0.17768,-0.0390179,0.159889,0
2024-11-26 21:46:43.422,0.119641,3.27278,9.52134,-0.17768,-0.0390179,0.159889,0
2024-11-26 21:46:43.424,0.119641,3.268,9.60748,-0.18501,-0.0310769,0.164776,0
2024-11-26 21:46:43.425,0.119641,3.268,9.60748,-0.189897,-0.0219141,0.168441,0
2024-11-26 21:46:43.427,0.100499,3.2656,9.69841,-0.189897,-0.0219141,0.168441,0
2024-11-26 21:46:43.427,0.100499,3.2656,9.69841,-0.189897,-0.0219141,0.168441,0
2024-11-26 21:46:43.429,0.081356,3.25843,9.78455,-0.194173,-0.014584,0.172717,0
2024-11-26 21:46:43.430,0.081356,3.25843,9.78455,-0.196006,-0.0096972,0.176382,0
2024-11-26 21:46:43.431,0.081356,3.25843,9.84946,-0.196006,-0.0096972,0.176382,0
2024-11-26 21:46:43.431,0.081356,3.25843,9.84946,-0.196006,-0.0096972,0.176382,0
2024-11-26 21:46:43.433,0.0789631,3.25364,9.92124,-0.198449,-0.00664296,0.178215,0
2024-11-26 21:46:43.436,0.0837488,3.24407,9.99063,-0.198449,-0.00481042,0.178826,0
2024-11-26 21:46:43.436,0.0837488,3.24407,9.99063,-0.198449,-0.00481042,0.178826,0
2024-11-26 21:46:43.437,0.0837488,3.24407,9.99063,-0.197838,-0.00175619,0.179436,0
2024-11-26 21:46:43.439,0.0789631,3.24646,10.0385,-0.197838,-0.00175619,0.179436,0
2024-11-26 21:46:43.440,0.0789631,3.24646,10.0385,-0.195395,-0.00236703,0.179436,0
2024-11-26 21:46:43.440,0.0909273,3.23689,10.0863,-0.195395,-0.00236703,0.179436,0
2024-11-26 21:46:43.440,0.0909273,3.23689,10.0863,-0.195395,-0.00236703,0.179436,0
2024-11-26 21:46:43.443,0.11007,3.21775,10.139,-0.196616,-0.00419957,0.179436,0
2024-11-26 21:46:43.444,0.11007,3.21775,10.139,-0.194173,-0.00725381,0.175771,0
2024-11-26 21:46:43.446,0.117248,3.22253,10.206,-0.194173,-0.00725381,0.175771,0
2024-11-26 21:46:43.446,0.117248,3.22253,10.206,-0.194173,-0.00725381,0.175771,0
2024-11-26 21:46:43.448,0.124427,3.21536,10.2706,-0.191119,-0.0115297,0.176382,0
2024-11-26 21:46:43.449,0.124427,3.21536,10.2706,-0.191119,-0.0115297,0.176382,0
2024-11-26 21:46:43.450,0.122034,3.19143,10.3304,-0.18501,-0.0121406,0.17455,0
2024-11-26 21:46:43.451,0.122034,3.19143,10.3304,-0.18501,-0.0121406,0.17455,0
2024-11-26 21:46:43.452,0.133998,3.18425,10.3953,-0.183789,-0.014584,0.172106,0
2024-11-26 21:46:43.455,0.155533,3.17707,10.4504,-0.177069,-0.0194708,0.168441,0
2024-11-26 21:46:43.455,0.155533,3.17707,10.4504,-0.177069,-0.0194708,0.168441,0
2024-11-26 21:46:43.456,0.155533,3.17707,10.4504,-0.177069,-0.0194708,0.168441,0
2024-11-26 21:46:43.456,0.155533,3.17707,10.4504,-0.177069,-0.0194708,0.168441,0
2024-11-26 21:46:43.460,0.181855,3.15793,10.5389,-0.169739,-0.0359636,0.15317,0
2024-11-26 21:46:43.460,0.181855,3.15793,10.5389,-0.169739,-0.0359636,0.15317,0
2024-11-26 21:46:43.460,0.181855,3.15793,10.5389,-0.169739,-0.0359636,0.15317,0
2024-11-26 21:46:43.464,0.246461,3.17228,10.6274,-0.156224,-0.0408504,0.147061,0
2024-11-26 21:46:43.465,0.246461,3.17228,10.6274,-0.156224,-0.0408504,0.147061,0
2024-11-26 21:46:43.465,0.246461,3.17228,10.6274,-0.156224,-0.0408504,0.147061,0
2024-11-26 21:46:43.465,0.246461,3.17228,10.6274,-0.156224,-0.0408504,0.147061,0
2024-11-26 21:46:43.469,0.332901,3.15793,10.6585,-0.141564,-0.0542891,0.135455,0
2024-11-26 21:46:43.470,0.332901,3.15793,10.6585,-0.133623,-0.0573433,0.131179,0
2024-11-26 21:46:43.472,0.373579,3.1675,10.6729,-0.126904,-0.0634518,0.123849,0
2024-11-26 21:46:43.472,0.373579,3.1675,10.6729,-0.126904,-0.0634518,0.123849,0
2024-11-26 21:46:43.473,0.426222,3.17228,10.6633,-0.126904,-0.0634518,0.123849,0
2024-11-26 21:46:43.474,0.373579,3.17228,10.6633,-0.126904,-0.0634518,0.123849,0
2024-11-26 21:46:43.474,0.426222,3.17228,10.6633,-0.126904,-0.0634518,0.123849,0
2024-11-26 21:46:43.476,0.462114,3.17228,10.6561,-0.118963,-0.066506,0.114687,0
2024-11-26 21:46:43.476,0.462114,3.17228,10.6561,-0.118963,-0.066506,0.114687,0
2024-11-26 21:46:43.478,0.500399,3.17228,10.6442,-0.1098,-0.0701711,0.106135,0
2024-11-26 21:46:43.479,0.500399,3.17228,10.6442,-0.1098,-0.0701711,0.106135,0
2024-11-26 21:46:43.479,0.500399,3.17228,10.6442,-0.1098,-0.0701711,0.106135,0
2024-11-26 21:46:43.481,0.538684,3.17707,10.5987,-0.100026,-0.0732253,0.0988045,0
2024-11-26 21:46:43.483,0.550648,3.16989,10.5509,-0.0902527,-0.0756687,0.0902527,0
2024-11-26 21:46:43.484,0.550648,3.16989,10.5509,-0.08109,-0.0775012,0.0829225,0
2024-11-26 21:46:43.486,0.555434,3.15075,10.5221,-0.0725381,-0.0750579,0.076814,0
2024-11-26 21:46:43.486,0.555434,3.15075,10.5221,-0.0725381,-0.0750579,0.076814,0
2024-11-26 21:46:43.488,0.54347,3.14118,10.491,-0.0725381,-0.0750579,0.076814,0
2024-11-26 21:46:43.489,0.54347,3.14118,10.491,-0.0639862,-0.0726145,0.0707056,0
2024-11-26 21:46:43.489,0.54347,3.14118,10.491,-0.0639862,-0.0726145,0.0707056,0
2024-11-26 21:46:43.490,0.531506,3.134,10.4599,-0.0639862,-0.0726145,0.0707056,0
2024-11-26 21:46:43.492,0.541077,3.13161,10.4264,-0.0536018,-0.0701711,0.0633754,0
2024-11-26 21:46:43.493,0.541077,3.13161,10.4264,-0.0536018,-0.0701711,0.0633754,0
2024-11-26 21:46:43.493,0.541077,3.13161,10.4264,-0.0536018,-0.0701711,0.0633754,0
2024-11-26 21:46:43.496,0.550648,3.11486,10.3735,-0.037109,-0.0634518,0.0548235,0
2024-11-26 21:46:43.497,0.550648,3.11007,10.3161,-0.037109,-0.0634518,0.0548235,0
2024-11-26 21:46:43.498,0.550648,3.11007,10.3161,-0.0316113,-0.0622301,0.0511585,0
2024-11-26 21:46:43.498,0.550648,3.11007,10.3161,-0.0316113,-0.0622301,0.0511585,0
2024-11-26 21:46:43.500,0.545863,3.11007,10.2467,-0.0316113,-0.0622301,0.0511585,0
2024-11-26 21:46:43.502,0.548256,3.10529,10.1749,-0.0224486,-0.0616192,0.0474934,0
2024-11-26 21:46:43.503,0.548256,3.10529,10.1749,-0.0224486,-0.0616192,0.0474934,0
2024-11-26 21:46:43.507,0.531506,3.1005,10.0983,-0.0138968,-0.0610084,0.0438283,0
2024-11-26 21:46:43.507,0.502792,3.09811,10.0265,-0.0138968,-0.0610084,0.0438283,0
2024-11-26 21:46:43.509,0.493221,3.09571,9.97388,-0.00962084,-0.0610084,0.0426066,0
2024-11-26 21:46:43.512,0.471685,3.11486,9.89492,-0.00595576,-0.0555107,0.0419957,0
2024-11-26 21:46:43.514,0.4334,3.13639,9.82314,-0.00290152,-0.050624,0.0426066,0
2024-11-26 21:46:43.517,0.402293,3.12921,9.77259,0.000152712,-0.0445155,0.0456608,0
2024-11-26 21:46:43.519,0.375972,3.11964,9.72234,0.00748288,-0.0292443,0.0517693,0
2024-11-26 21:46:43.522,0.344866,3.11486,9.67448,0.00748288,-0.0292443,0.0517693,0
2024-11-26 21:46:43.525,0.30658,3.12682,9.57159,0.011148,-0.0127514,0.0615429,0
2024-11-26 21:46:43.525,0.30658,3.12682,9.57159,0.011148,-0.0127514,0.0615429,0
2024-11-26 21:46:43.529,0.289831,3.12921,9.53091,0.0129805,0.00557398,0.073149,0
2024-11-26 21:46:43.531,0.275175,3.12443,9.49023,0.0129805,0.00557398,0.073149,0
2024-11-26 21:46:43.533,0.285045,3.11964,9.45434,0.0123697,0.0104608,0.08109,0
2024-11-26 21:46:43.535,0.313759,3.12204,9.42084,0.0129805,0.0171801,0.0896418,0
2024-11-26 21:46:43.539,0.311366,3.17228,9.34427,0.0129805,0.0257319,0.103691,0
2024-11-26 21:46:43.539,0.311366,3.17228,9.34427,0.0129805,0.0257319,0.103691,0
2024-11-26 21:46:43.543,0.330509,3.17468,9.29642,0.00809373,0.0269536,0.117741,0
2024-11-26 21:46:43.545,0.330509,3.17946,9.27249,0.00809373,0.0269536,0.117741,0
2024-11-26 21:46:43.549,0.347258,3.21057,9.26292,-0.00290152,0.0226777,0.128125,0
2024-11-26 21:46:43.550,0.364008,3.22732,9.23869,-0.00290152,0.0226777,0.128125,0
2024-11-26 21:46:43.555,0.354437,3.25364,9.2004,-0.0077883,0.0177909,0.145229,0
2024-11-26 21:46:43.555,0.354437,3.25364,9.2004,-0.0077883,0.0177909,0.145229,0
2024-11-26 21:46:43.557,0.352044,3.25364,9.17887,-0.0114534,0.0171801,0.147672,0
2024-11-26 21:46:43.559,0.364008,3.25364,9.14776,-0.0163402,0.0159584,0.152559,0
2024-11-26 21:46:43.562,0.371187,3.26321,9.12862,-0.0163402,0.0159584,0.152559,0
2024-11-26 21:46:43.563,0.378365,3.26082,9.12144,-0.0175619,0.0153475,0.15317,0
2024-11-26 21:46:43.565,0.385544,3.25364,9.11665,-0.0212269,0.013515,0.155002,0
2024-11-26 21:46:43.569,0.404686,3.24885,9.12144,-0.0218378,0.0104608,0.155002,0
2024-11-26 21:46:43.577,0.414257,3.19143,9.08794,-0.0316113,-0.00175619,0.147061,0
2024-11-26 21:46:43.582,0.419043,3.16511,9.0353,-0.0340547,-0.00114534,0.141564,0
2024-11-26 21:46:43.583,0.419043,3.16511,9.0353,-0.0340547,-0.00114534,0.141564,0
2024-11-26 21:46:43.583,0.419043,3.16511,9.0353,-0.0340547,-0.00114534,0.141564,0
2024-11-26 21:46:43.587,0.423829,3.12443,8.96591,-0.0419957,0.00374144,0.133623,0
2024-11-26 21:46:43.589,0.428614,3.10289,8.91326,-0.0487151,0.00374144,0.127514,0
2024-11-26 21:46:43.591,0.423829,3.08106,8.8678,-0.0554344,0.00740652,0.122628,0
2024-11-26 21:46:43.592,0.423829,3.08106,8.8678,-0.0554344,0.00740652,0.122628,0
2024-11-26 21:46:43.595,0.411865,3.06431,8.82712,-0.0554344,0.00740652,0.122628,0
2024-11-26 21:46:43.596,0.392722,3.04995,8.8008,-0.0707056,0.0116825,0.11713,0
2024-11-26 21:46:43.596,0.392722,3.04995,8.8008,-0.0707056,0.0116825,0.11713,0
2024-11-26 21:46:43.599,0.349651,3.03081,8.78405,-0.089031,0.0165692,0.107356,0
2024-11-26 21:46:43.602,0.320937,3.00688,8.7673,-0.0786466,0.0147367,0.107356,0
2024-11-26 21:46:43.602,0.320937,3.00688,8.7673,-0.0786466,0.0147367,0.107356,0
2024-11-26 21:46:43.605,0.282652,2.99013,8.75294,-0.109189,0.0220669,0.10308,0
2024-11-26 21:46:43.606,0.282652,2.99013,8.75294,-0.109189,0.0220669,0.10308,0
2024-11-26 21:46:43.611,0.210568,2.94467,8.72184,-0.133012,0.033673,0.100637,0
2024-11-26 21:46:43.611,0.210568,2.94467,8.72184,-0.133012,0.033673,0.100637,0
2024-11-26 21:46:43.613,0.184247,2.92313,8.72662,-0.145229,0.0434465,0.0988045,0
2024-11-26 21:46:43.616,0.138784,2.88724,8.7362,-0.165998,0.0599394,0.100637,0
2024-11-26 21:46:43.618,0.117248,2.86092,8.75055,-0.165998,0.0599394,0.100637,0
2024-11-26 21:46:43.620,0.105284,2.85374,8.78405,-0.176459,0.0684913,0.0981937,0
2024-11-26 21:46:43.622,0.0885344,2.82981,8.81755,-0.186843,0.0782648,0.0975828,0
2024-11-26 21:46:43.625,0.0765703,2.81545,8.84626,-0.202114,0.0978119,0.0951395,0
2024-11-26 21:46:43.629,0.081356,2.82742,8.92523,-0.213109,0.10331,0.0951395,0
2024-11-26 21:46:43.630,0.081356,2.82742,8.92523,-0.213109,0.10331,0.0951395,0
2024-11-26 21:46:43.631,0.0789631,2.82742,8.92762,-0.218607,0.108196,0.0908635,0
2024-11-26 21:46:43.635,0.081356,2.82024,8.94198,-0.223494,0.113694,0.0884201,0
2024-11-26 21:46:43.637,0.0717847,2.82024,8.98026,-0.231435,0.125911,0.08109,0
2024-11-26 21:46:43.639,0.0550349,2.83699,9.02094,-0.231435,0.125911,0.08109,0
2024-11-26 21:46:43.645,0.0311067,2.85613,9.10948,-0.235711,0.132019,0.0743707,0
2024-11-26 21:46:43.648,0.0239282,2.8681,9.12144,-0.235711,0.136295,0.0670405,0
2024-11-26 21:46:43.651,0.0239282,2.89442,9.11426,-0.230213,0.132019,0.0615429,0
2024-11-26 21:46:43.653,0.0,2.91835,9.10948,-0.230213,0.132019,0.0615429,0
2024-11-26 21:46:43.656,-0.0167498,2.94467,9.11187,-0.224715,0.122857,0.0542127,0
2024-11-26 21:46:43.658,-0.0191426,2.97577,9.10708,-0.218607,0.118581,0.0493259,0
2024-11-26 21:46:43.660,-0.00717847,3.0021,9.09751,-0.218607,0.118581,0.0493259,0
2024-11-26 21:46:43.665,0.00239282,3.04756,9.09033,-0.199671,0.10331,0.0377198,0
2024-11-26 21:46:43.668,-0.00239282,3.07388,9.06162,-0.196006,0.100866,0.0364981,0
2024-11-26 21:46:43.668,-0.00239282,3.07388,9.06162,-0.196006,0.100866,0.0364981,0
2024-11-26 21:46:43.670,-0.0167498,3.09093,9.05444,-0.186843,0.0959794,0.0340547,0
2024-11-26 21:46:43.672,-0.0334995,3.11725,9.02094,-0.186843,0.0959794,0.0340547,0
2024-11-26 21:46:43.672,-0.0334995,3.11725,9.02094,-0.186843,0.0959794,0.0340547,0
2024-11-26 21:46:43.676,-0.0430708,3.134,8.98026,-0.175848,0.0898709,0.029168,0
2024-11-26 21:46:43.676,-0.0502493,3.15314,8.98026,-0.175848,0.0898709,0.029168,0
2024-11-26 21:46:43.676,-0.0502493,3.15314,8.98026,-0.175848,0.0898709,0.029168,0
2024-11-26 21:46:43.679,-0.0622134,3.18425,8.93719,-0.170961,0.085595,0.0285571,0
2024-11-26 21:46:43.681,-0.0693919,3.21057,8.90369,-0.162944,0.0819299,0.0267246,0
2024-11-26 21:46:43.683,-0.081356,3.22014,8.86302,-0.156224,0.0794865,0.0279463,0
2024-11-26 21:46:43.686,-0.0885344,3.24168,8.82473,-0.155002,0.0758214,0.0267246,0
2024-11-26 21:46:43.691,-0.0933201,3.28714,8.74337,-0.150727,0.0709346,0.0273354,0
2024-11-26 21:46:43.691,-0.0933201,3.28714,8.74337,-0.150727,0.0709346,0.0273354,0
2024-11-26 21:46:43.693,-0.105284,3.29193,8.7027,-0.150116,0.0684913,0.0273354,0
2024-11-26 21:46:43.696,-0.107677,3.30389,8.67608,-0.150727,0.0666587,0.0285571,0
2024-11-26 21:46:43.697,-0.122034,3.2991,8.64736,-0.150116,0.0648262,0.0303897,0
2024-11-26 21:46:43.701,-0.124427,3.28475,8.61625,-0.154392,0.0678804,0.0346656,0
2024-11-26 21:46:43.703,-0.114855,3.27757,8.60429,-0.156224,0.0678804,0.037109,0
2024-11-26 21:46:43.705,-0.117248,3.27039,8.59233,-0.156224,0.0678804,0.037109,0
2024-11-26 21:46:43.709,-0.136391,3.2656,8.59951,-0.164165,0.073378,0.04505,0
2024-11-26 21:46:43.712,-0.155533,3.25603,8.60668,-0.165387,0.0745997,0.0511585,0
2024-11-26 21:46:43.712,-0.155533,3.25603,8.60668,-0.165387,0.0745997,0.0511585,0
2024-11-26 21:46:43.714,-0.133998,3.27039,8.61865,-0.167907,0.077654,0.0542127,0
2024-11-26 21:46:43.716,-0.0957129,3.28475,8.6019,-0.172793,0.0843733,0.0590995,0
2024-11-26 21:46:43.719,-0.0550349,3.29193,8.57318,-0.178291,0.093536,0.060932,0
2024-11-26 21:46:43.723,0.0430708,3.28714,8.53969,-0.192951,0.119192,0.0645971,0
2024-11-26 21:46:43.723,0.0430708,3.28714,8.53969,-0.192951,0.119192,0.0645971,0
2024-11-26 21:46:43.725,0.0789631,3.3015,8.54447,-0.192951,0.119192,0.0645971,0
2024-11-26 21:46:43.729,0.0933201,3.3015,8.55165,-0.21372,0.14668,0.0652079,0
2024-11-26 21:46:43.732,0.12682,3.30389,8.59472,-0.21372,0.14668,0.0652079,0
2024-11-26 21:46:43.735,0.11007,3.30389,8.65454,-0.244263,0.17539,0.0621537,0
2024-11-26 21:46:43.738,0.0885344,3.31825,8.70987,-0.265031,0.190661,0.0639862,0
2024-11-26 21:46:43.741,0.0885344,3.31825,8.70987,-0.274194,0.195547,0.0645971,0
2024-11-26 21:46:43.741,0.066999,3.33739,8.77209,-0.274194,0.195547,0.0645971,0
2024-11-26 21:46:43.743,0.0382852,3.34696,8.83191,-0.27847,0.200434,0.0676513,0
2024-11-26 21:46:43.744,0.026321,3.37089,8.90609,-0.27847,0.200434,0.0676513,0
2024-11-26 21:46:43.748,0.0334995,3.402,8.98266,-0.284578,0.208375,0.068873,0
2024-11-26 21:46:43.750,0.040678,3.41396,9.04487,-0.288854,0.215705,0.0694839,0
2024-11-26 21:46:43.751,0.0622134,3.41875,9.10708,-0.292519,0.217538,0.0713164,0
2024-11-26 21:46:43.754,0.0717847,3.4331,9.19083,-0.294352,0.218149,0.0719273,0
2024-11-26 21:46:43.757,0.0717847,3.45464,9.27488,-0.291909,0.220592,0.0700947,0
2024-11-26 21:46:43.759,0.081356,3.45942,9.33709,-0.289465,0.223646,0.0694839,0
2024-11-26 21:46:43.762,0.0909273,3.4666,9.39452,-0.286411,0.222425,0.0694839,0
2024-11-26 21:46:43.763,0.107677,3.48574,9.44477,-0.280913,0.223036,0.0658188,0
2024-11-26 21:46:43.766,0.122034,3.50967,9.49263,-0.273583,0.219981,0.0670405,0
2024-11-26 21:46:43.769,0.124427,3.53121,9.53809,-0.25648,0.215095,0.0670405,0
2024-11-26 21:46:43.771,0.114855,3.53599,9.56202,-0.250371,0.210819,0.0670405,0
2024-11-26 21:46:43.774,0.0957129,3.54796,9.58834,-0.250371,0.210819,0.0670405,0
2024-11-26 21:46:43.775,0.0861416,3.57667,9.6027,-0.240597,0.205932,0.0682622,0
2024-11-26 21:46:43.778,0.0909273,3.58624,9.60748,-0.2351,0.200434,0.0707056,0
2024-11-26 21:46:43.780,0.0765703,3.59581,9.62184,-0.226548,0.193715,0.0713164,0
2024-11-26 21:46:43.782,0.0454636,3.61256,9.62902,-0.216774,0.185774,0.0737598,0
2024-11-26 21:46:43.785,0.0215354,3.61735,9.62184,-0.201503,0.172335,0.0829225,0
2024-11-26 21:46:43.787,0.00478565,3.61496,9.59791,-0.201503,0.172335,0.0829225,0
2024-11-26 21:46:43.790,0.00478565,3.59821,9.5692,-0.194173,0.164394,0.0902527,0
2024-11-26 21:46:43.795,0.0,3.57906,9.51895,-0.182567,0.146069,0.109189,0
2024-11-26 21:46:43.796,0.0239282,3.57189,9.46391,-0.186232,0.152788,0.109189,0
2024-11-26 21:46:43.797,0.0239282,3.57189,9.46391,-0.186232,0.152788,0.109189,0
2024-11-26 21:46:43.799,0.0454636,3.57189,9.43041,-0.181345,0.13996,0.113465,0
2024-11-26 21:46:43.801,0.0574277,3.55274,9.40648,-0.175848,0.134463,0.118963,0
2024-11-26 21:46:43.804,0.066999,3.54556,9.34906,-0.175237,0.130187,0.125682,0
2024-11-26 21:46:43.809,0.0861416,3.54796,9.31077,-0.17768,0.123468,0.136066,0
2024-11-26 21:46:43.809,0.117248,3.55992,9.27249,-0.17768,0.123468,0.136066,0
2024-11-26 21:46:43.810,0.138784,3.55753,9.23151,-0.174626,0.119192,0.141564,0
2024-11-26 21:46:43.814,0.150748,3.56231,9.22433,-0.174015,0.117359,0.14584,0
2024-11-26 21:46:43.816,0.172283,3.56949,9.2028,-0.174015,0.117359,0.14584,0
2024-11-26 21:46:43.818,0.18664,3.57906,9.1693,-0.172793,0.114305,0.150727,0
2024-11-26 21:46:43.821,0.215354,3.60299,9.15255,-0.172793,0.114305,0.150727,0
2024-11-26 21:46:43.822,0.256032,3.61256,9.15733,-0.172183,0.114305,0.151337,0
2024-11-26 21:46:43.825,0.292223,3.62453,9.1669,-0.173404,0.115526,0.151337,0
2024-11-26 21:46:43.828,0.325723,3.6341,9.16451,-0.172793,0.116748,0.151337,0
2024-11-26 21:46:43.830,0.354437,3.65115,9.17169,-0.171572,0.116137,0.150116,0
2024-11-26 21:46:43.832,0.371187,3.67029,9.17887,-0.171572,0.116137,0.150116,0
2024-11-26 21:46:43.834,0.392722,3.66311,9.19083,-0.169128,0.115526,0.147061,0
2024-11-26 21:46:43.837,0.378365,3.65593,9.21955,-0.169739,0.112472,0.146451,0
2024-11-26 21:46:43.839,0.373579,3.6679,9.2363,-0.169739,0.112472,0.146451,0
2024-11-26 21:46:43.841,0.404686,3.67268,9.25065,-0.165387,0.112472,0.14584,0
2024-11-26 21:46:43.843,0.414257,3.69661,9.27009,-0.162944,0.111861,0.144618,0
2024-11-26 21:46:43.846,0.423829,3.74208,9.28445,-0.159278,0.112472,0.142786,0
2024-11-26 21:46:43.848,0.442971,3.74925,9.29881,-0.159278,0.112472,0.142786,0
2024-11-26 21:46:43.851,0.45015,3.76122,9.31795,-0.155002,0.113694,0.141564,0
2024-11-26 21:46:43.853,0.452543,3.80668,9.30838,-0.150727,0.117359,0.139731,0
2024-11-26 21:46:43.856,0.454935,3.82582,9.28206,-0.149505,0.121024,0.136677,0
2024-11-26 21:46:43.860,0.447757,3.84018,9.26292,-0.14584,0.13263,0.130569,0
2024-11-26 21:46:43.860,0.447757,3.84018,9.26292,-0.14584,0.13263,0.130569,0
2024-11-26 21:46:43.863,0.454935,3.85693,9.26052,-0.150116,0.141793,0.126293,0
2024-11-26 21:46:43.865,0.459721,3.8689,9.25065,-0.150116,0.141793,0.126293,0
2024-11-26 21:46:43.867,0.440578,3.88804,9.26292,-0.150116,0.141793,0.126293,0
2024-11-26 21:46:43.869,0.4334,3.91914,9.27249,-0.153781,0.144236,0.122628,0
2024-11-26 21:46:43.872,0.431007,3.94307,9.27488,-0.159278,0.141793,0.119573,0
2024-11-26 21:46:43.874,0.421436,3.97657,9.26292,-0.164165,0.136295,0.11713,0
2024-11-26 21:46:43.877,0.390329,4.01725,9.26292,-0.167907,0.129576,0.115297,0
2024-11-26 21:46:43.879,0.347258,4.05075,9.27727,-0.173404,0.118581,0.115297,0
2024-11-26 21:46:43.882,0.320937,4.0675,9.29163,-0.178291,0.112472,0.112854,0
2024-11-26 21:46:43.883,0.297009,4.09143,9.29881,-0.18501,0.101477,0.112854,0
2024-11-26 21:46:43.889,0.272782,4.11296,9.3682,-0.195395,0.0898709,0.116519,0
2024-11-26 21:46:43.890,0.239282,4.13211,9.39452,-0.195395,0.0898709,0.116519,0
2024-11-26 21:46:43.891,0.272782,4.11296,9.3682,-0.195395,0.0898709,0.116519,0
2024-11-26 21:46:43.893,0.212961,4.15125,9.42563,-0.205779,0.0782648,0.120184,0
2024-11-26 21:46:43.895,0.198604,4.168,9.48066,-0.211277,0.0697129,0.123849,0
2024-11-26 21:46:43.897,0.198604,4.17996,9.53091,-0.216164,0.0636045,0.127514,0
2024-11-26 21:46:43.900,0.191426,4.18235,9.57398,-0.216164,0.0636045,0.127514,0
2024-11-26 21:46:43.903,0.18664,4.18953,9.62423,-0.22044,0.049555,0.133012,0
2024-11-26 21:46:43.904,0.179462,4.19432,9.68166,-0.224105,0.0471116,0.137899,0
2024-11-26 21:46:43.907,0.172283,4.20628,9.73191,-0.228381,0.0422248,0.140342,0
2024-11-26 21:46:43.910,0.155533,4.20897,9.76302,-0.22777,0.041614,0.147061,0
2024-11-26 21:46:43.912,0.143569,4.20897,9.78934,-0.228381,0.0440574,0.152559,0
2024-11-26 21:46:43.915,0.136391,4.21615,9.82792,-0.227159,0.0446682,0.159278,0
2024-11-26 21:46:43.917,0.133998,4.21855,9.87099,-0.227159,0.0446682,0.159278,0
2024-11-26 21:46:43.920,0.122034,4.21855,9.90928,-0.227159,0.0446682,0.159278,0
2024-11-26 21:46:43.921,0.0957129,4.21615,9.95713,-0.22105,0.0452791,0.16783,0
2024-11-26 21:46:43.924,0.0454636,4.21615,9.99781,-0.212498,0.0489441,0.175771,0
2024-11-26 21:46:43.927,-0.00239282,4.2015,10.0265,-0.207612,0.0519984,0.183712,0
2024-11-26 21:46:43.929,-0.0311067,4.19671,10.0672,-0.207612,0.0519984,0.183712,0
2024-11-26 21:46:43.931,-0.0550349,4.1991,10.1222,-0.202114,0.0587177,0.189821,0
2024-11-26 21:46:43.934,-0.0837488,4.19432,10.1892,-0.193562,0.065437,0.195318,0
2024-11-26 21:46:43.935,-0.119641,4.1991,10.2658,-0.186232,0.0684913,0.202649,0
2024-11-26 21:46:43.938,-0.162712,4.20628,10.3352,-0.177069,0.0727672,0.209368,0
2024-11-26 21:46:43.941,-0.200997,4.21855,10.3591,-0.166609,0.077654,0.214255,0
2024-11-26 21:46:43.944,-0.227318,4.2353,10.3881,-0.148894,0.0972011,0.224028,0
2024-11-26 21:46:43.944,-0.222533,4.24008,10.3881,-0.148894,0.0972011,0.224028,0
2024-11-26 21:46:43.947,-0.20339,4.24247,10.424,-0.142175,0.108196,0.224639,0
2024-11-26 21:46:43.949,-0.184247,4.2664,10.4767,-0.136066,0.120413,0.228304,0
2024-11-26 21:46:43.953,-0.162712,4.27837,10.5174,-0.126904,0.128965,0.227693,0
2024-11-26 21:46:43.955,-0.157926,4.28076,10.5341,-0.120795,0.133852,0.225861,0
2024-11-26 21:46:43.957,-0.148355,4.29272,10.5485,-0.106135,0.137517,0.222807,0
2024-11-26 21:46:43.959,-0.141177,4.2999,10.558,-0.106135,0.137517,0.222807,0
2024-11-26 21:46:43.961,-0.12682,4.31187,10.5748,-0.0994154,0.137517,0.220974,0
2024-11-26 21:46:43.966,-0.0909273,4.3669,10.6083,-0.0994154,0.137517,0.220974,0
2024-11-26 21:46:43.969,0.0382852,4.40279,10.5604,-0.0823117,0.144847,0.216698,0
2024-11-26 21:46:43.969,0.0382852,4.40279,10.5604,-0.0823117,0.144847,0.216698,0
2024-11-26 21:46:43.973,0.136391,4.44108,10.4192,-0.0817008,0.164394,0.206925,0
2024-11-26 21:46:43.974,0.136391,4.44108,10.4192,-0.0817008,0.164394,0.206925,0
2024-11-26 21:46:43.978,0.162712,4.43629,10.3256,-0.0859767,0.183941,0.197151,0
2024-11-26 21:46:43.980,0.141177,4.4339,10.3208,-0.0926961,0.190661,0.189821,0
2024-11-26 21:46:43.982,0.114855,4.45065,10.3448,-0.0988045,0.191272,0.184323,0
2024-11-26 21:46:43.983,0.114855,4.45065,10.3448,-0.0988045,0.191272,0.184323,0
2024-11-26 21:46:43.987,0.040678,4.47697,10.4695,-0.105524,0.187606,0.172717,0
2024-11-26 21:46:43.988,0.040678,4.47697,10.4695,-0.105524,0.187606,0.172717,0
2024-11-26 21:46:43.989,0.0167498,4.48176,10.5221,-0.109189,0.181498,0.16783,0
2024-11-26 21:46:43.993,0.00957129,4.46979,10.5844,-0.111021,0.174779,0.164776,0
2024-11-26 21:46:43.994,0.0143569,4.4674,10.6202,-0.110411,0.16867,0.1605,0
2024-11-26 21:46:43.997,0.0311067,4.45304,10.6705,-0.105524,0.162562,0.151948,0
2024-11-26 21:46:44.000,0.0693919,4.42911,10.7399,-0.105524,0.162562,0.151948,0
2024-11-26 21:46:44.001,0.100499,4.42911,10.7997,-0.101859,0.164394,0.144618,0
2024-11-26 21:46:44.006,0.129212,4.39562,10.9098,-0.0884201,0.169892,0.132401,0
2024-11-26 21:46:44.007,0.129212,4.39562,10.9098,-0.0884201,0.169892,0.132401,0
2024-11-26 21:46:44.008,0.150748,4.36929,10.9699,-0.076814,0.174168,0.126293,0
2024-11-26 21:46:44.010,0.153141,4.34776,11.0297,-0.0652079,0.180276,0.118963,0
2024-11-26 21:46:44.013,0.124427,4.3669,11.08,-0.0560452,0.185163,0.113465,0
2024-11-26 21:46:44.016,0.0693919,4.43629,11.1589,-0.029168,0.191882,0.109189,0
2024-11-26 21:46:44.018,0.0334995,4.44826,11.2475,-0.029168,0.191882,0.109189,0
2024-11-26 21:46:44.020,-0.0454636,4.41954,11.3049,-0.0193944,0.201656,0.106746,0
2024-11-26 21:46:44.023,-0.131605,4.4339,11.348,-0.00229068,0.21876,0.107967,0
2024-11-26 21:46:44.025,-0.119641,4.41236,11.3791,0.011148,0.234642,0.111021,0
2024-11-26 21:46:44.027,-0.0526421,4.31665,11.403,0.0239758,0.246859,0.112854,0
2024-11-26 21:46:44.030,0.0334995,4.24726,11.391,0.0343602,0.260297,0.111632,0
2024-11-26 21:46:44.033,0.114855,4.24965,11.3839,0.0447446,0.274347,0.1098,0
2024-11-26 21:46:44.034,0.148355,4.28555,11.3815,0.0575724,0.287785,0.106746,0
2024-11-26 21:46:44.037,0.155533,4.3334,11.3862,0.0575724,0.287785,0.106746,0
2024-11-26 21:46:44.040,0.141177,4.38126,11.4197,0.0875039,0.317717,0.0981937,0
2024-11-26 21:46:44.043,0.0693919,4.42672,11.5325,0.0942232,0.329323,0.0945286,0
2024-11-26 21:46:44.044,0.0693919,4.42672,11.5325,0.0942232,0.329323,0.0945286,0
2024-11-26 21:46:44.047,0.0,4.42433,11.578,0.109494,0.34154,0.0945286,0
2024-11-26 21:46:44.049,-0.0574277,4.42433,11.6186,0.109494,0.34154,0.0945286,0
2024-11-26 21:46:44.050,-0.0933201,4.39562,11.6952,0.119268,0.340318,0.0951395,0
2024-11-26 21:46:44.054,-0.129212,4.31665,11.8077,0.127209,0.333599,0.0945286,0
2024-11-26 21:46:44.056,-0.133998,4.20389,11.8962,0.12782,0.325658,0.0963612,0
2024-11-26 21:46:44.058,-0.174676,4.06511,12.0135,0.13515,0.317106,0.0994154,0
2024-11-26 21:46:44.060,-0.224925,3.89522,12.1884,0.138204,0.29817,0.101859,0
2024-11-26 21:46:44.063,-0.212961,3.71097,12.3368,0.14248,0.246248,0.1098,0
2024-11-26 21:46:44.065,-0.227318,3.49053,12.4612,0.14248,0.246248,0.1098,0
2024-11-26 21:46:44.067,-0.244068,3.2345,12.5976,0.143702,0.210208,0.114076,0
2024-11-26 21:46:44.070,-0.22014,2.9686,12.7104,0.141258,0.172946,0.118352,0
2024-11-26 21:46:44.072,-0.256032,2.70299,12.8013,0.135761,0.123468,0.126293,0
2024-11-26 21:46:44.074,-0.32333,2.44666,12.9233,0.132707,0.0697129,0.134845,0
2024-11-26 21:46:44.077,-0.32333,2.21695,13.1076,0.125987,0.0245102,0.143396,0
2024-11-26 21:46:44.080,-0.27996,1.98963,13.3232,0.12049,-0.00114534,0.151337,0
2024-11-26 21:46:44.081,-0.236889,1.74527,13.4812,0.11377,-0.0151948,0.159889,0
2024-11-26 21:46:44.083,-0.162712,1.52513,13.6534,0.103386,-0.0255792,0.169052,0
2024-11-26 21:46:44.087,-0.0933201,1.31186,13.8763,0.0954449,-0.022525,0.176382,0
2024-11-26 21:46:44.089,-0.066999,1.13958,14.0486,0.0807846,0.00923906,0.194097,0
2024-11-26 21:46:44.091,-0.0215354,0.988834,14.1706,0.0807846,0.00923906,0.194097,0
2024-11-26 21:46:44.093,0.0454636,0.818644,14.2831,0.0734544,0.0379489,0.201427,0
2024-11-26 21:46:44.096,0.129212,0.679861,14.3432,0.0557398,0.109418,0.198983,0
2024-11-26 21:46:44.099,0.198604,0.572184,14.3551,0.0453554,0.14668,0.198373,0
2024-11-26 21:46:44.101,0.251246,0.486042,14.3288,0.0386361,0.185774,0.194708,0
2024-11-26 21:46:44.103,0.258425,0.41665,14.2783,0.0313059,0.222425,0.187988,0
2024-11-26 21:46:44.106,0.208176,0.352044,14.2352,0.0276408,0.258465,0.181269,0
2024-11-26 21:46:44.109,0.0622134,0.248854,14.173,0.0282517,0.290229,0.175771,0
2024-11-26 21:46:44.109,0.0622134,0.248854,14.173,0.0282517,0.290229,0.175771,0
2024-11-26 21:46:44.113,-0.0454636,0.227318,14.1682,0.0306951,0.317717,0.170274,0
2024-11-26 21:46:44.115,-0.148355,0.236889,14.2089,0.0410795,0.34154,0.165998,1
2024-11-26 21:46:44.116,-0.256032,0.272782,14.2687,0.058794,0.360476,0.163554,0
2024-11-26 21:46:44.120,-0.361615,0.320937,14.3288,0.0807846,0.376969,0.163554,0
2024-11-26 21:46:44.122,-0.476471,0.380758,14.3862,0.107051,0.39224,0.164165,0
2024-11-26 21:46:44.123,-0.677468,0.469292,14.4413,0.141258,0.408733,0.164165,0
2024-11-26 21:46:44.127,-0.833001,0.562612,14.47,0.185239,0.439276,0.162944,0
2024-11-26 21:46:44.128,-0.751645,0.639183,14.4796,0.234107,0.459433,0.161722,0
2024-11-26 21:46:44.133,-0.574577,0.710967,14.3743,0.355055,0.436832,0.158668,0
2024-11-26 21:46:44.135,-0.344866,0.71336,14.2424,0.355055,0.436832,0.158668,0
2024-11-26 21:46:44.136,-0.344866,0.71336,14.2424,0.485165,0.358033,0.162333,0
2024-11-26 21:46:44.139,-0.27996,0.699003,14.0725,0.550526,0.307943,0.159278,0
2024-11-26 21:46:44.140,-0.316152,0.660718,13.8643,0.550526,0.307943,0.159278,0
2024-11-26 21:46:44.143,-0.426222,0.660718,13.5912,0.615276,0.256632,0.157446,0
2024-11-26 21:46:44.147,-0.675075,0.718146,13.0238,0.735002,0.157064,0.148894,0
2024-11-26 21:46:44.147,-0.675075,0.718146,13.0238,0.735002,0.157064,0.148894,0
2024-11-26 21:46:44.153,-0.845265,0.766002,12.4517,0.8419,0.0617719,0.142175,0
2024-11-26 21:46:44.153,-0.845265,0.766002,12.4517,0.8419,0.0617719,0.142175,0
2024-11-26 21:46:44.154,-0.921835,0.787538,12.1549,0.888325,0.0220669,0.143396,0
2024-11-26 21:46:44.157,-1.00798,0.799502,11.8579,0.931695,-0.0151948,0.144007,0
2024-11-26 21:46:44.160,-1.08933,0.801895,11.578,0.992779,-0.094605,0.150116,0
2024-11-26 21:46:44.162,-1.15872,0.801895,11.2857,1.01172,-0.13431,0.15317,0
2024-11-26 21:46:44.165,-1.20419,0.797109,10.9938,1.02699,-0.171572,0.157446,0
2024-11-26 21:46:44.167,-1.22572,0.799502,10.7231,1.03065,-0.203947,0.161111,0
2024-11-26 21:46:44.168,-1.24965,0.797109,10.448,1.03065,-0.203947,0.161111,0
2024-11-26 21:46:44.172,-1.24247,0.809073,10.1821,1.01721,-0.24976,0.164165,0
2024-11-26 21:46:44.174,-1.14437,0.859622,9.93799,1.00011,-0.255258,0.159278,0
2024-11-26 21:46:44.175,-1.05823,0.854836,9.74387,1.00011,-0.255258,0.159278,0
2024-11-26 21:46:44.178,-1.08933,0.801895,9.60509,0.981173,-0.262588,0.157446,0
2024-11-26 21:46:44.181,-1.1683,0.792323,9.49263,0.937192,-0.261366,0.165998,0
2024-11-26 21:46:44.183,-1.1348,0.761217,9.34188,0.937192,-0.261366,0.165998,0
2024-11-26 21:46:44.186,-1.01276,0.710967,9.15494,0.906039,-0.250371,0.16783,0
2024-11-26 21:46:44.188,-0.929013,0.675075,9.01376,0.868778,-0.240597,0.16783,0
2024-11-26 21:46:44.192,-0.816252,0.722932,8.8008,0.789978,-0.219218,0.170274,0
2024-11-26 21:46:44.193,-0.816252,0.722932,8.8008,0.748441,-0.209444,0.169663,0
2024-11-26 21:46:44.194,-0.722932,0.751645,8.72184,0.748441,-0.209444,0.169663,0
2024-11-26 21:46:44.196,-0.632004,0.780359,8.65454,0.701405,-0.197838,0.169663,0
2024-11-26 21:46:44.200,-0.54347,0.811466,8.59233,0.604891,-0.175237,0.161722,0
2024-11-26 21:46:44.201,-0.4669,0.854836,8.54208,0.604891,-0.175237,0.161722,0
2024-11-26 21:46:44.204,-0.3999,0.905085,8.52054,0.551748,-0.167296,0.158668,0
2024-11-26 21:46:44.207,-0.335294,0.957727,8.50858,0.50288,-0.161187,0.151948,0
2024-11-26 21:46:44.209,-0.275175,1.01515,8.51336,0.400869,-0.158744,0.136066,0
2024-11-26 21:46:44.212,-0.20339,1.1013,8.53969,0.352612,-0.166074,0.125682,0
2024-11-26 21:46:44.214,-0.145962,1.20897,8.59711,0.352612,-0.166074,0.125682,0
2024-11-26 21:46:44.215,-0.133998,1.26879,8.65454,0.307409,-0.174015,0.112243,0
2024-11-26 21:46:44.219,-0.155533,1.30469,8.69043,0.222501,-0.178291,0.0871984,0
2024-11-26 21:46:44.223,-0.00717847,1.40548,8.93001,0.187683,-0.175237,0.0713164,0
2024-11-26 21:46:44.223,-0.00717847,1.40548,8.93001,0.187683,-0.175237,0.0713164,0
2024-11-26 21:46:44.225,0.040678,1.42702,9.0018,0.154697,-0.179513,0.0548235,0
2024-11-26 21:46:44.228,0.0358923,1.4653,9.0018,0.125376,-0.186843,0.0364981,0
2024-11-26 21:46:44.230,0.0334995,1.54427,9.00898,0.0966666,-0.189286,0.0181727,0
2024-11-26 21:46:44.233,0.040678,1.61366,9.11187,0.0777303,-0.183789,0.00229068,0
2024-11-26 21:46:44.235,0.0550349,1.65673,9.25305,0.0612374,-0.178291,-0.014813,0
2024-11-26 21:46:44.238,0.0981057,1.69262,9.35384,0.0361927,-0.179513,-0.0490205,0
2024-11-26 21:46:44.241,0.193819,1.71416,9.52852,0.0319168,-0.181956,-0.0649025,0
2024-11-26 21:46:44.242,0.193819,1.71416,9.52852,0.0319168,-0.181956,-0.0649025,0
2024-11-26 21:46:44.245,0.222533,1.74287,9.61945,0.0306951,-0.182567,-0.0813954,0
2024-11-26 21:46:44.246,0.265603,1.77637,9.69602,0.0313059,-0.182567,-0.0966666,0
2024-11-26 21:46:44.249,0.299402,1.79551,9.74866,0.0343602,-0.183178,-0.109494,0
2024-11-26 21:46:44.252,0.318545,1.80987,9.78934,0.0435229,-0.180124,-0.124155,0
2024-11-26 21:46:44.253,0.344866,1.81466,9.79652,0.0539073,-0.182567,-0.139426,0
2024-11-26 21:46:44.256,0.366401,1.8338,9.79412,0.06307,-0.181956,-0.154697,0
2024-11-26 21:46:44.259,0.368794,1.86491,9.80609,0.0795629,-0.178902,-0.166303,0
2024-11-26 21:46:44.260,0.344866,1.9008,9.80609,0.0936123,-0.180124,-0.177298,0
2024-11-26 21:46:44.263,0.313759,1.93908,9.8013,0.108273,-0.177069,-0.185239,0
2024-11-26 21:46:44.266,0.299402,1.97528,9.80369,0.148589,-0.168517,-0.198067,0
2024-11-26 21:46:44.269,0.265603,2.07338,9.75584,0.148589,-0.168517,-0.198067,0
2024-11-26 21:46:44.280,0.167498,2.25045,9.51895,0.231053,-0.147749,-0.198678,0
2024-11-26 21:46:44.286,0.205783,2.33659,9.11187,0.275645,-0.139197,-0.187683,0
2024-11-26 21:46:44.292,0.196211,2.51127,8.93241,0.35139,-0.124536,-0.168747,0
2024-11-26 21:46:44.298,0.244068,2.63121,8.63061,0.371548,-0.1056,-0.154086,0
2024-11-26 21:46:44.308,0.222533,2.7341,8.27408,0.496772,-0.0310769,-0.107051,0
2024-11-26 21:46:44.308,0.222533,2.7341,8.27408,0.496772,-0.0310769,-0.107051,0
2024-11-26 21:46:44.311,0.22014,2.73649,8.17358,0.515097,-0.0121406,-0.0978883,0
2024-11-26 21:46:44.311,0.22014,2.73649,8.17358,0.515097,-0.0121406,-0.0978883,0
2024-11-26 21:46:44.312,0.217747,2.74606,8.07039,0.515097,-0.0121406,-0.0978883,0
2024-11-26 21:46:44.312,0.217747,2.74606,8.07039,0.515097,-0.0121406,-0.0978883,0
2024-11-26 21:46:44.313,0.217747,2.74606,8.07039,0.515097,-0.0121406,-0.0978883,0
2024-11-26 21:46:44.313,0.217747,2.74606,8.07039,0.515097,-0.0121406,-0.0978883,0
2024-11-26 21:46:44.314,0.129212,2.68146,7.94357,0.532201,0.00374144,-0.0893364,0
2024-11-26 21:46:44.317,0.0526421,2.64556,7.8359,0.547472,0.00801737,-0.0758978,0
2024-11-26 21:46:44.318,0.0526421,2.64556,7.8359,0.563965,0.0196235,-0.0636808,0
2024-11-26 21:46:44.318,0.0526421,2.64556,7.8359,0.563965,0.0196235,-0.0636808,0
2024-11-26 21:46:44.320,0.081356,2.70299,7.74736,0.578014,0.0391706,-0.0557398,0
2024-11-26 21:46:44.320,0.081356,2.70299,7.74736,0.578014,0.0391706,-0.0557398,0
2024-11-26 21:46:44.322,0.107677,2.77478,7.6684,0.590842,0.0611611,-0.0496313,0
2024-11-26 21:46:44.322,0.107677,2.77478,7.6684,0.590842,0.0611611,-0.0496313,0
2024-11-26 21:46:44.325,0.138784,2.84895,7.61097,0.602448,0.0849841,-0.042912,0
2024-11-26 21:46:44.325,0.138784,2.84895,7.61097,0.602448,0.0849841,-0.042912,0
2024-11-26 21:46:44.327,0.18664,2.90878,7.5341,0.613443,0.111251,-0.0392469,0
2024-11-26 21:46:44.327,0.18664,2.90878,7.5341,0.613443,0.111251,-0.0392469,0
2024-11-26 21:46:44.328,0.232104,2.9662,7.436,0.613443,0.111251,-0.0392469,0
2024-11-26 21:46:44.329,0.232104,2.9662,7.436,0.613443,0.111251,-0.0392469,0
2024-11-26 21:46:44.331,0.285045,3.02842,7.34746,0.620774,0.13263,-0.0361927,0
2024-11-26 21:46:44.333,0.34008,3.09093,7.24936,0.62566,0.154621,-0.034971,0
2024-11-26 21:46:44.336,0.387936,3.14118,7.13689,0.626882,0.177833,-0.0361927,0
2024-11-26 21:46:44.338,0.383151,3.1675,7.02204,0.625049,0.199213,-0.0392469,0
2024-11-26 21:46:44.341,0.349651,3.18186,6.89013,0.618941,0.216316,-0.0410795,0
2024-11-26 21:46:44.343,0.34008,3.21775,6.78006,0.611,0.230366,-0.0435229,0
2024-11-26 21:46:44.345,0.27996,3.23928,6.68196,0.60367,0.242583,-0.0459663,0
2024-11-26 21:46:44.347,0.0933201,3.16989,6.58864,0.591453,0.256632,-0.0496313,0
2024-11-26 21:46:44.351,-0.148355,3.0332,6.51925,0.563965,0.279234,-0.0398578,0
2024-11-26 21:46:44.353,-0.373579,2.90878,6.4352,0.547472,0.292672,-0.0313059,0
2024-11-26 21:46:44.355,-0.495613,2.90638,6.34906,0.530368,0.309776,-0.0264191,0
2024-11-26 21:46:44.358,-0.555434,2.92792,6.28684,0.513264,0.318328,-0.0221432,0
2024-11-26 21:46:44.360,-0.63679,2.83938,6.25813,0.513264,0.318328,-0.0221432,0
2024-11-26 21:46:44.362,-0.699003,2.7006,6.27727,0.499826,0.318328,-0.0166456,0
2024-11-26 21:46:44.364,-0.699003,2.59532,6.30598,0.483333,0.315884,-0.00748288,0
2024-11-26 21:46:44.367,-0.701396,2.53789,6.31077,0.470505,0.309776,0.00106898,0
2024-11-26 21:46:44.371,-0.720539,2.48734,6.32034,0.44485,0.286564,0.0242812,0
2024-11-26 21:46:44.371,-0.682254,2.42273,6.34427,0.44485,0.286564,0.0242812,0
2024-11-26 21:46:44.374,-0.639183,2.37248,6.32034,0.430189,0.270682,0.0352764,0
2024-11-26 21:46:44.375,-0.62004,2.33898,6.26291,0.415529,0.249913,0.0444391,0
2024-11-26 21:46:44.378,-0.584148,2.33181,6.24856,0.398425,0.228533,0.0487151,0
2024-11-26 21:46:44.383,-0.514756,2.38923,6.25334,0.365439,0.194326,0.0481042,0
2024-11-26 21:46:44.384,-0.54347,2.35813,6.25334,0.354444,0.182109,0.0462717,0
2024-11-26 21:46:44.386,-0.481256,2.44188,6.25813,0.34406,0.171724,0.0444391,0
2024-11-26 21:46:44.388,-0.409472,2.51127,6.2677,0.34406,0.171724,0.0444391,0
2024-11-26 21:46:44.390,-0.332901,2.58335,6.27727,0.33734,0.162562,0.037109,0
2024-11-26 21:46:44.393,-0.285045,2.62881,6.2677,0.325734,0.150345,0.0181727,0
2024-11-26 21:46:44.395,-0.215354,2.62642,6.25574,0.322069,0.144236,0.00595576,0
2024-11-26 21:46:44.398,-0.162712,2.65274,6.23659,0.322069,0.144236,0.00595576,0
2024-11-26 21:46:44.400,-0.165105,2.69821,6.21267,0.319626,0.143625,-0.00992627,0
2024-11-26 21:46:44.402,-0.141177,2.71496,6.19592,0.319015,0.149123,-0.0294734,0
2024-11-26 21:46:44.405,-0.0454636,2.70539,6.18874,0.317182,0.133241,-0.0667351,0
2024-11-26 21:46:44.407,0.0311067,2.67906,6.20309,0.317182,0.133241,-0.0667351,0
2024-11-26 21:46:44.408,0.0382852,2.65035,6.19592,0.316572,0.11797,-0.086893,0
2024-11-26 21:46:44.412,0.0,2.62403,6.16481,0.320237,0.0972011,-0.103997,0
2024-11-26 21:46:44.413,-0.0526421,2.60967,6.13131,0.320237,0.0758214,-0.119268,0
2024-11-26 21:46:44.417,-0.0933201,2.59771,6.09063,0.313517,0.0361163,-0.155919,0
2024-11-26 21:46:44.419,-0.148355,2.59771,6.04756,0.305576,0.0184018,-0.173022,0
2024-11-26 21:46:44.421,-0.212961,2.59292,5.98774,0.297635,0.0019089,-0.187072,0
2024-11-26 21:46:44.424,-0.260818,2.6001,5.94228,0.297635,0.0019089,-0.187072,0
2024-11-26 21:46:44.425,-0.316152,2.62403,5.89681,0.28664,-0.0096972,-0.204787,0
2024-11-26 21:46:44.427,-0.366401,2.64317,5.83191,0.276256,-0.0200816,-0.221279,0
2024-11-26 21:46:44.431,-0.409472,2.65753,5.76969,0.260984,-0.0286335,-0.235329,0
2024-11-26 21:46:44.432,-0.452543,2.67189,5.72184,0.249378,-0.0347419,-0.246935,0
2024-11-26 21:46:44.435,-0.483649,2.67906,5.67637,0.231053,-0.0408504,-0.262206,0
2024-11-26 21:46:44.438,-0.505185,2.69821,5.6357,0.188294,-0.0475697,-0.28664,0
2024-11-26 21:46:44.440,-0.531506,2.73888,5.60698,0.188294,-0.0475697,-0.28664,0
2024-11-26 21:46:44.441,-0.545863,2.75803,5.58784,0.166914,-0.0469589,-0.299468,0
2024-11-26 21:46:44.445,-0.574577,2.78196,5.57109,0.140648,-0.0457372,-0.314739,0
2024-11-26 21:46:44.446,-0.615255,2.81545,5.55434,0.115603,-0.0475697,-0.328789,0
2024-11-26 21:46:44.449,-0.658325,2.85135,5.56391,0.0905581,-0.0445155,-0.342838,0
2024-11-26 21:46:44.452,-0.696611,2.88006,5.60698,0.0374144,-0.038407,-0.367883,0
2024-11-26 21:46:44.454,-0.732503,2.91356,5.65245,0.0374144,-0.038407,-0.367883,0
2024-11-26 21:46:44.456,-0.785145,2.96381,5.70987,0.011148,-0.0359636,-0.3801,0
2024-11-26 21:46:44.458,-0.830609,3.00449,5.78884,-0.0151185,-0.0341311,-0.392927,0
2024-11-26 21:46:44.460,-0.857229,3.04756,5.85344,-0.0395524,-0.0316877,-0.405144,0
2024-11-26 21:46:44.463,-0.881157,3.12682,5.9351,-0.0621537,-0.0310769,-0.416751,0
2024-11-26 21:46:44.466,-0.905085,3.201,6.01406,-0.0847551,-0.030466,-0.4308,0
2024-11-26 21:46:44.468,-0.938585,3.2656,6.07388,-0.103691,-0.030466,-0.440574,0
2024-11-26 21:46:44.471,-0.962513,3.34935,6.16242,-0.120184,-0.0316877,-0.448515,0
2024-11-26 21:46:44.473,-0.99362,3.4355,6.24856,-0.15317,-0.038407,-0.470505,0
2024-11-26 21:46:44.475,-1.04865,3.51207,6.30838,-0.15317,-0.038407,-0.470505,0
2024-11-26 21:46:44.478,-1.10369,3.58624,6.37538,-0.163554,-0.0445155,-0.4815,0
2024-11-26 21:46:44.479,-1.15155,3.67029,6.45195,-0.174626,-0.0475697,-0.489441,0
2024-11-26 21:46:44.481,-1.20419,3.75165,6.54078,-0.181956,-0.0500131,-0.497382,0
2024-11-26 21:46:44.485,-1.25683,3.81625,6.61496,-0.188675,-0.0530674,-0.502269,0
2024-11-26 21:46:44.487,-1.29033,3.88325,6.67239,-0.207001,-0.0542891,-0.509599,0
2024-11-26 21:46:44.490,-1.33101,3.96461,6.72981,-0.207001,-0.0542891,-0.509599,0
2024-11-26 21:46:44.491,-1.37169,4.04836,6.78485,-0.211277,-0.0555107,-0.512043,0
2024-11-26 21:46:44.494,-1.41745,4.13689,6.84467,-0.225326,-0.0628409,-0.51021,0
2024-11-26 21:46:44.497,-1.47488,4.23769,6.85663,-0.2351,-0.058565,-0.510821,0
2024-11-26 21:46:44.499,-1.47966,4.32144,6.90688,-0.2351,-0.058565,-0.510821,0
2024-11-26 21:46:44.501,-1.43898,4.40758,7.04357,-0.250982,-0.0335202,-0.506545,0
2024-11-26 21:46:44.504,-1.43659,4.51286,7.06511,-0.260145,-0.0353528,-0.505323,0
2024-11-26 21:46:44.506,-1.55862,4.61576,7.02443,-0.260145,-0.0353528,-0.505323,0
2024-11-26 21:46:44.507,-1.66391,4.70429,7.03639,-0.275416,-0.0408504,-0.507767,0
2024-11-26 21:46:44.510,-1.62802,4.78355,7.1345,-0.290687,-0.0530674,-0.504102,0
2024-11-26 21:46:44.513,-1.57537,4.86251,7.28046,-0.302293,-0.0671168,-0.500437,0
2024-11-26 21:46:44.515,-1.57537,4.92473,7.37617,-0.312677,-0.082388,-0.493106,0
2024-11-26 21:46:44.517,-1.61127,4.98216,7.47189,-0.328559,-0.103768,-0.483944,0
2024-11-26 21:46:44.520,-1.63759,5.05155,7.56042,-0.341998,-0.120261,-0.471727,0
2024-11-26 21:46:44.522,-1.64955,5.13051,7.61336,-0.35788,-0.127591,-0.463175,0
2024-11-26 21:46:44.525,-1.66152,5.22144,7.68993,-0.375595,-0.131867,-0.454012,0
2024-11-26 21:46:44.526,-1.64955,5.32433,7.78804,-0.395142,-0.128812,-0.446071,0
2024-11-26 21:46:44.530,-1.62562,5.42273,7.90768,-0.417743,-0.123926,-0.43813,0
2024-11-26 21:46:44.532,-1.59212,5.5017,8.05843,-0.435458,-0.115985,-0.432022,0
2024-11-26 21:46:44.533,-1.54905,5.57587,8.22144,-0.45134,-0.107433,-0.422859,0
2024-11-26 21:46:44.536,-1.51795,5.6357,8.39372,-0.469054,-0.0939941,-0.413085,0
2024-11-26 21:46:44.538,-1.51077,5.67877,8.56122,-0.481271,-0.0799446,-0.406977,0
2024-11-26 21:46:44.540,-1.4988,5.71227,8.7003,-0.497153,-0.0671168,-0.399036,0
2024-11-26 21:46:44.544,-1.4677,5.71466,8.85584,-0.508759,-0.0469589,-0.390484,0
2024-11-26 21:46:44.546,-1.46052,5.71944,9.04965,-0.527696,-0.0164165,-0.378267,0
2024-11-26 21:46:44.548,-1.48445,5.71944,9.24108,-0.527696,-0.0164165,-0.378267,0
2024-11-26 21:46:44.550,-1.50598,5.70748,9.46631,-0.536858,-0.0133623,-0.367883,0
2024-11-26 21:46:44.552,-1.52273,5.7003,9.70798,-0.542356,-0.0151948,-0.35872,0
2024-11-26 21:46:44.554,-1.53948,5.70987,9.92363,-0.544189,-0.0231358,-0.350168,0
2024-11-26 21:46:44.558,-1.5682,5.74577,10.1366,-0.546021,-0.0347419,-0.341005,0
2024-11-26 21:46:44.559,-1.60648,5.77687,10.3424,-0.544799,-0.0451263,-0.331843,0
2024-11-26 21:46:44.563,-1.70459,5.79362,10.5461,-0.542967,-0.0561216,-0.323902,0
2024-11-26 21:46:44.565,-1.75244,5.82473,10.7542,-0.533804,-0.066506,-0.307409,0
2024-11-26 21:46:44.567,-1.67827,5.87019,10.989,-0.533804,-0.066506,-0.307409,0
2024-11-26 21:46:44.569,-1.59452,5.90878,11.2307,-0.525863,-0.0891073,-0.299468,0
2024-11-26 21:46:44.572,-1.50838,5.9327,11.4652,-0.499597,-0.154468,-0.284197,0
2024-11-26 21:46:44.574,-1.40548,5.89681,11.6737,-0.499597,-0.154468,-0.284197,0
2024-11-26 21:46:44.576,-1.33579,5.85823,11.8771,-0.48738,-0.195395,-0.27931,0
2024-11-26 21:46:44.579,-1.31665,5.82712,12.0374,-0.478217,-0.232656,-0.278699,0
2024-11-26 21:46:44.580,-1.26401,5.82234,12.186,-0.467833,-0.257701,-0.281753,0
2024-11-26 21:46:44.583,-1.17308,5.91117,12.4493,-0.456837,-0.285189,-0.285418,0
2024-11-26 21:46:44.586,-1.18265,6.02602,12.7726,-0.448896,-0.312677,-0.289694,0
2024-11-26 21:46:44.587,-1.18983,6.12892,13.0908,-0.43729,-0.334057,-0.292749,0
2024-11-26 21:46:44.592,-1.00319,6.21506,13.6367,-0.43729,-0.334057,-0.292749,0
2024-11-26 21:46:44.593,-1.00319,6.21506,13.6367,-0.404305,-0.412856,-0.284197,0
2024-11-26 21:46:44.596,-0.940978,6.21506,13.85,-0.363378,-0.52342,-0.277477,0
2024-11-26 21:46:44.598,-0.914656,6.15524,13.972,-0.343831,-0.576563,-0.267704,0
2024-11-26 21:46:44.600,-0.940978,6.04277,14.0079,-0.343831,-0.576563,-0.267704,0
2024-11-26 21:46:44.603,-1.00319,5.91596,13.9911,-0.322451,-0.618101,-0.255487,0
2024-11-26 21:46:44.604,-1.0319,5.75055,13.9744,-0.305958,-0.646811,-0.238994,0
2024-11-26 21:46:44.607,-1.01515,5.5328,13.9792,-0.287633,-0.661471,-0.221279,0
2024-11-26 21:46:44.609,-1.0654,5.3677,14.0342,-0.270529,-0.670023,-0.196846,0
2024-11-26 21:46:44.612,-1.21615,5.29083,14.1347,-0.250982,-0.662693,-0.163249,0
2024-11-26 21:46:44.614,-1.34536,5.25254,14.2615,-0.230824,-0.630929,-0.129652,0
2024-11-26 21:46:44.617,-1.37408,5.24776,14.4197,-0.208833,-0.594278,-0.0875039,0
2024-11-26 21:46:44.618,-1.32383,5.24297,14.5849,-0.183178,-0.546632,-0.0398578,0
2024-11-26 21:46:44.620,-1.27358,5.22383,14.7571,-0.159889,-0.48738,0.00901,0
2024-11-26 21:46:44.623,-1.24487,5.20947,14.9297,-0.129347,-0.414078,0.0621537,0
2024-11-26 21:46:44.625,-1.23529,5.2023,15.0733,-0.10308,-0.329781,0.115297,0
2024-11-26 21:46:44.628,-1.24008,5.19272,15.181,-0.0737598,-0.235711,0.170274,0
2024-11-26 21:46:44.630,-1.23529,5.18794,15.2671,-0.0426066,-0.136753,0.216087,0
2024-11-26 21:46:44.633,-1.21376,5.19033,15.3532,-0.0114534,-0.0402396,0.258236,0
2024-11-26 21:46:44.635,-1.17069,5.17597,15.4011,0.0209215,0.0526092,0.298552,0
2024-11-26 21:46:44.638,-1.1348,5.14487,15.4107,0.0514639,0.140571,0.330927,0
2024-11-26 21:46:44.639,-1.16112,5.10898,15.4732,0.0875039,0.204099,0.357804,0
2024-11-26 21:46:44.643,-1.24247,5.07308,15.533,0.124155,0.252967,0.377962,0
2024-11-26 21:46:44.647,-1.51316,5.0013,15.4373,0.211506,0.309165,0.411558,1
2024-11-26 21:46:44.647,-1.51316,5.0013,15.4373,0.211506,0.309165,0.411558,1
2024-11-26 21:46:44.656,-1.96301,5.19751,15.1594,0.436909,0.349481,0.468978,0
2024-11-26 21:46:44.656,-1.96301,5.19751,15.1594,0.436909,0.349481,0.468978,0
2024-11-26 21:46:44.657,-1.96301,5.19751,15.1594,0.436909,0.349481,0.468978,0
2024-11-26 21:46:44.657,-1.96301,5.19751,15.1594,0.436909,0.349481,0.468978,0
2024-11-26 21:46:44.660,-1.90558,5.46341,14.6901,0.436909,0.349481,0.468978,0
2024-11-26 21:46:44.670,-1.71416,6.09542,13.3878,0.744165,0.39224,0.47753,0
2024-11-26 21:46:44.671,-1.71416,6.09542,13.3878,0.77715,0.367196,0.46348,0
2024-11-26 21:46:44.673,-1.51316,6.22941,13.1339,0.77715,0.367196,0.46348,0
2024-11-26 21:46:44.675,-1.36929,6.29163,12.8731,0.800363,0.323825,0.444544,0
2024-11-26 21:46:44.676,-1.36929,6.29163,12.8731,0.800363,0.323825,0.444544,0
2024-11-26 21:46:44.677,-1.32383,6.29881,12.6191,0.813801,0.263962,0.42744,0
2024-11-26 21:46:44.680,-1.34536,6.26291,12.3703,0.818077,0.194326,0.406672,0
2024-11-26 21:46:44.680,-1.34536,6.26291,12.3703,0.818077,0.194326,0.406672,0
2024-11-26 21:46:44.683,-1.37169,6.19592,12.1214,0.815023,0.120413,0.377962,0
2024-11-26 21:46:44.685,-1.40788,6.09542,11.9058,0.780815,-0.0359636,0.319931,0
2024-11-26 21:46:44.686,-1.4653,5.95185,11.8244,0.780815,-0.0359636,0.319931,0
2024-11-26 21:46:44.687,-1.4653,5.95185,11.8244,0.780815,-0.0359636,0.319931,0
2024-11-26 21:46:44.689,-1.55862,5.79601,11.7814,0.755771,-0.108654,0.288167,0
2024-11-26 21:46:44.694,-1.80748,5.34138,11.5421,0.755771,-0.108654,0.288167,0
2024-11-26 21:46:44.696,-1.84098,5.04437,11.3839,0.651316,-0.339555,0.209979,0
2024-11-26 21:46:44.697,-1.84098,5.04437,11.3839,0.651316,-0.339555,0.209979,0
2024-11-26 21:46:44.699,-1.83619,4.74018,11.2522,0.603059,-0.414078,0.184323,0
2024-11-26 21:46:44.703,-1.86491,4.12971,11.1183,0.490663,-0.505705,0.137288,0
2024-11-26 21:46:44.704,-1.86491,4.12971,11.1183,0.490663,-0.505705,0.137288,0
2024-11-26 21:46:44.705,-1.82423,3.8689,11.1159,0.428357,-0.520976,0.115297,0
2024-11-26 21:46:44.709,-1.78355,3.58385,11.1517,0.367272,-0.5167,0.0939178,0
2024-11-26 21:46:44.715,-1.64237,2.63599,11.511,0.246935,-0.461113,0.060932,0
2024-11-26 21:46:44.715,-1.64237,2.63599,11.511,0.246935,-0.461113,0.060932,0
2024-11-26 21:46:44.717,-1.57777,2.30548,11.6856,0.132707,-0.363378,0.037109,0
2024-11-26 21:46:44.718,-1.57777,2.30548,11.6856,0.132707,-0.363378,0.037109,0
2024-11-26 21:46:44.719,-1.52034,1.98006,11.8723,0.0844496,-0.308401,0.029168,0
2024-11-26 21:46:44.722,-1.4653,1.64477,12.076,0.0374144,-0.246095,0.0224486,0
2024-11-26 21:46:44.726,-1.35015,0.988834,12.4636,-0.0352764,-0.120871,0.016951,0
2024-11-26 21:46:44.727,-1.41745,1.30708,12.4636,-0.0352764,-0.120871,0.016951,0
2024-11-26 21:46:44.729,-1.27119,0.703789,12.6529,-0.0627646,-0.0640626,0.0138968,0
2024-11-26 21:46:44.732,-1.20419,0.428614,12.8539,-0.0926961,0.0330621,0.00962084,0
2024-11-26 21:46:44.734,-1.11087,0.177069,13.0334,-0.0926961,0.0330621,0.00962084,0
2024-11-26 21:46:44.737,-0.96012,-0.0239282,13.1794,-0.0951395,0.0715455,0.00595576,0
2024-11-26 21:46:44.738,-0.785145,-0.184247,13.3113,-0.0902527,0.0996445,-0.000763559,0
2024-11-26 21:46:44.742,-0.576969,-0.287438,13.3735,-0.0572669,0.136295,-0.0282517,0
2024-11-26 21:46:44.743,-0.299402,-0.325723,13.3663,-0.0572669,0.136295,-0.0282517,0
2024-11-26 21:46:44.745,0.0287139,-0.318545,13.3161,-0.0334439,0.145458,-0.0502422,0
2024-11-26 21:46:44.748,0.387936,-0.287438,13.2108,-0.00412322,0.150956,-0.0795629,0
2024-11-26 21:46:44.750,0.766002,-0.227318,13.0884,0.0319168,0.149734,-0.116825,0
2024-11-26 21:46:44.753,1.15394,-0.12682,12.964,0.0685676,0.145458,-0.158362,0
2024-11-26 21:46:44.755,1.53948,0.00239282,12.8276,0.110716,0.143015,-0.208452,0
2024-11-26 21:46:44.758,1.89601,0.138784,12.6745,0.155919,0.136295,-0.267704,0
2024-11-26 21:46:44.760,2.2002,0.244068,12.4756,0.201732,0.122857,-0.331843,0
2024-11-26 21:46:44.762,2.38206,0.344866,12.2483,0.246935,0.101477,-0.397203,0
2024-11-26 21:46:44.765,2.45384,0.469292,12.0422,0.289694,0.093536,-0.468673,0
2024-11-26 21:46:44.766,2.60728,0.60329,11.8603,0.331843,0.0831516,-0.539531,0
2024-11-26 21:46:44.769,2.84417,0.720539,11.6402,0.370937,0.0526092,-0.607335,0
2024-11-26 21:46:44.771,2.98774,0.797109,11.3743,0.411864,0.00374144,-0.672085,0
2024-11-26 21:46:44.775,2.97099,0.842872,11.0824,0.449736,-0.050624,-0.735002,0
2024-11-26 21:46:44.777,2.84656,0.8668,10.8021,0.507156,-0.17035,-0.832738,0
2024-11-26 21:46:44.779,2.67189,0.890728,10.5341,0.507156,-0.17035,-0.832738,0
2024-11-26 21:46:44.782,2.43948,0.933799,10.273,0.543807,-0.283357,-0.900007,0
2024-11-26 21:46:44.784,2.14756,0.964906,10.0385,0.543807,-0.283357,-0.900007,0
2024-11-26 21:46:44.785,1.86251,1.0008,9.81326,0.55358,-0.338944,-0.919554,0
2024-11-26 21:46:44.788,1.57298,1.06062,9.61466,0.558467,-0.396974,-0.929939,0
2024-11-26 21:46:44.791,1.24008,1.12283,9.48066,0.555413,-0.459281,-0.926274,0
2024-11-26 21:46:44.793,1.01994,1.15155,9.38256,0.551748,-0.529528,-0.9165,0
2024-11-26 21:46:44.795,0.756431,1.1659,9.32274,0.542585,-0.609549,-0.896953,0
2024-11-26 21:46:44.797,0.316152,1.20897,9.30359,0.527925,-0.695068,-0.868243,0
2024-11-26 21:46:44.800,0.0191426,1.24726,9.24108,0.512654,-0.771424,-0.82724,0
2024-11-26 21:46:44.802,-0.0957129,1.28554,9.12623,0.499215,-0.8264,-0.775929,0
2024-11-26 21:46:44.805,-0.160319,1.30947,9.02812,0.485165,-0.869159,-0.720342,0
2024-11-26 21:46:44.806,-0.117248,1.29751,8.94198,0.46684,-0.905199,-0.659257,0
2024-11-26 21:46:44.810,-0.00239282,1.24965,8.86302,0.450347,-0.933298,-0.59695,0
2024-11-26 21:46:44.812,0.184247,1.18983,8.8008,0.432022,-0.951624,-0.532812,0
2024-11-26 21:46:44.818,0.342473,1.20658,8.6019,0.411253,-0.968727,-0.475392,0
2024-11-26 21:46:44.823,1.05344,1.21376,8.56601,0.355055,-0.928411,-0.254265,0
2024-11-26 21:46:44.824,1.05344,1.21376,8.56601,0.355055,-0.928411,-0.254265,0
2024-11-26 21:46:44.826,1.24008,1.22333,8.55165,0.340395,-0.900312,-0.202343,0
2024-11-26 21:46:44.829,1.45813,1.24726,8.48226,0.340395,-0.900312,-0.202343,0
2024-11-26 21:46:44.830,1.68305,1.25922,8.4009,0.319015,-0.813572,-0.109494,0
2024-11-26 21:46:44.830,1.68305,1.25922,8.4009,0.319015,-0.813572,-0.109494,0
2024-11-26 21:46:44.835,2.0686,1.28794,8.28844,0.300079,-0.695679,-0.0294734,0
2024-11-26 21:46:44.835,2.0686,1.28794,8.28844,0.300079,-0.695679,-0.0294734,0
2024-11-26 21:46:44.836,2.0686,1.28794,8.28844,0.300079,-0.695679,-0.0294734,0
2024-11-26 21:46:44.839,2.3988,1.33101,8.13769,0.278699,-0.57412,0.0340547,0
2024-11-26 21:46:44.840,2.3988,1.33101,8.13769,0.278699,-0.57412,0.0340547,0
2024-11-26 21:46:44.843,2.59532,1.34776,8.09193,0.256098,-0.467222,0.0743707,0
2024-11-26 21:46:44.845,2.67189,1.38604,8.01536,0.256098,-0.467222,0.0743707,0
2024-11-26 21:46:44.849,2.54746,1.49163,7.79283,0.245713,-0.363378,0.104302,0
2024-11-26 21:46:44.851,2.45623,1.58973,7.67797,0.227388,-0.30718,0.116519,0
2024-11-26 21:46:44.852,2.45623,1.58973,7.67797,0.227388,-0.30718,0.116519,0
2024-11-26 21:46:44.855,2.33898,1.70698,7.60379,0.216393,-0.250371,0.12446,0
2024-11-26 21:46:44.857,2.19541,1.81705,7.5676,0.204787,-0.192341,0.136677,0
2024-11-26 21:46:44.858,2.01835,1.90798,7.53171,0.198067,-0.139197,0.147672,0
2024-11-26 21:46:44.862,1.83859,1.98724,7.50539,0.190737,-0.0915507,0.155002,0
2024-11-26 21:46:44.863,1.67587,2.04706,7.45275,0.181574,-0.0500131,0.164165,0
2024-11-26 21:46:44.868,1.41027,2.16909,7.21586,0.160806,0.0196235,0.17455,0
2024-11-26 21:46:44.868,1.41027,2.16909,7.21586,0.160806,0.0196235,0.17455,0
2024-11-26 21:46:44.870,1.24726,2.12842,7.07468,0.147367,0.0568851,0.181269,0
2024-11-26 21:46:44.873,1.0678,2.07817,6.90449,0.130263,0.0923143,0.190432,0
2024-11-26 21:46:44.877,0.96012,2.21456,6.55514,0.0832279,0.164394,0.195929,0
2024-11-26 21:46:44.879,0.996012,2.18584,6.39691,0.0520747,0.201656,0.188599,0
2024-11-26 21:46:44.880,0.96012,2.18584,6.39691,0.0520747,0.201656,0.188599,0
2024-11-26 21:46:44.882,1.00558,2.1667,6.32752,0.0142022,0.237085,0.177604,0
2024-11-26 21:46:44.884,0.945763,2.26481,6.3347,-0.0218378,0.260908,0.163554,0
2024-11-26 21:46:44.888,0.859622,2.36052,6.36581,-0.0884201,0.285342,0.136066,0
2024-11-26 21:46:44.889,0.754038,2.4658,6.34188,-0.0884201,0.285342,0.136066,0
2024-11-26 21:46:44.892,0.648754,2.56182,6.25095,-0.125682,0.298781,0.119573,0
2024-11-26 21:46:44.894,0.565005,2.57617,6.16002,-0.125682,0.298781,0.119573,0
2024-11-26 21:46:44.897,0.471685,2.54267,6.0667,-0.211277,0.347648,0.0884201,0
2024-11-26 21:46:44.902,0.212961,2.55703,6.11695,-0.335279,0.430113,0.0462717,0
2024-11-26 21:46:44.903,0.114855,2.53549,6.17199,-0.335279,0.430113,0.0462717,0
2024-11-26 21:46:44.904,0.114855,2.53549,6.17199,-0.37193,0.449049,0.0273354,0
2024-11-26 21:46:44.906,0.0311067,2.54028,6.21267,-0.37193,0.449049,0.0273354,0
2024-11-26 21:46:44.910,-0.066999,2.55464,6.27966,-0.411635,0.469207,0.00839915,0
2024-11-26 21:46:44.911,-0.066999,2.55464,6.27966,-0.486769,0.486311,-0.0343602,0
2024-11-26 21:46:44.912,-0.102891,2.54985,6.37059,-0.486769,0.486311,-0.0343602,0
2024-11-26 21:46:44.916,-0.18664,2.49691,6.38734,-0.520366,0.488143,-0.0532964,0
2024-11-26 21:46:44.917,-0.277567,2.47298,6.39691,-0.564346,0.478981,-0.0685676,0
2024-11-26 21:46:44.921,-0.318545,2.48973,6.55514,-0.623599,0.454547,-0.103386,0
2024-11-26 21:46:44.928,-0.332901,2.60489,7.13689,-0.623599,0.454547,-0.103386,0
2024-11-26 21:46:44.930,-0.330509,2.65514,7.3355,-0.623599,0.454547,-0.103386,0
2024-11-26 21:46:44.937,-0.354437,2.85135,7.93879,-0.643146,0.301224,-0.183407,0
2024-11-26 21:46:44.944,-0.478864,3.21057,8.26451,-0.486158,0.0917034,-0.220058,0
2024-11-26 21:46:44.946,-0.495613,3.2656,8.29801,-0.486158,0.0917034,-0.220058,0
2024-11-26 21:46:44.946,-0.495613,3.2656,8.29801,-0.486158,0.0917034,-0.220058,0
2024-11-26 21:46:44.949,-0.493221,3.30389,8.33869,-0.486158,0.0917034,-0.220058,0
2024-11-26 21:46:44.950,-0.452543,3.28714,8.3674,-0.397585,0.0147367,-0.223112,0
2024-11-26 21:46:44.953,-0.35683,3.17946,8.37219,-0.349939,-0.0206925,-0.22861,0
2024-11-26 21:46:44.963,-0.18664,3.1005,8.35065,-0.148283,-0.146527,-0.242659,0
2024-11-26 21:46:44.963,-0.224925,3.15075,8.34826,-0.148283,-0.146527,-0.242659,0
2024-11-26 21:46:44.964,-0.277567,3.18903,8.3363,-0.0902527,-0.15569,-0.24327,0
2024-11-26 21:46:44.968,-0.347258,3.21296,8.3674,-0.0902527,-0.15569,-0.24327,0
2024-11-26 21:46:44.969,-0.423829,3.21057,8.36979,0.0288625,-0.133088,-0.232886,0
2024-11-26 21:46:44.971,-0.483649,3.17707,8.31954,0.0905581,-0.114152,-0.220669,0
2024-11-26 21:46:44.971,-0.483649,3.17707,8.31954,0.0905581,-0.114152,-0.220669,0
2024-11-26 21:46:44.972,-0.483649,3.17707,8.31954,0.0905581,-0.114152,-0.220669,0
2024-11-26 21:46:44.976,-0.550648,3.10289,8.14726,0.200511,-0.0909399,-0.195624,0
2024-11-26 21:46:44.976,-0.550648,3.10289,8.14726,0.200511,-0.0909399,-0.195624,0
2024-11-26 21:46:44.977,-0.550648,3.10289,8.14726,0.200511,-0.0909399,-0.195624,0
2024-11-26 21:46:44.978,-0.553041,3.06431,8.0345,0.249989,-0.0829989,-0.182185,0
2024-11-26 21:46:44.979,-0.553041,3.06431,8.0345,0.249989,-0.0829989,-0.182185,0
2024-11-26 21:46:44.982,-0.553041,3.04517,7.89332,0.339173,-0.0658951,-0.146756,0
2024-11-26 21:46:44.982,-0.553041,3.04517,7.89332,0.339173,-0.0658951,-0.146756,0
2024-11-26 21:46:44.984,-0.56022,3.01884,7.74497,0.374602,-0.0567324,-0.128431,0
2024-11-26 21:46:44.986,-0.581755,2.98774,7.62054,0.374602,-0.0567324,-0.128431,0
2024-11-26 21:46:44.986,-0.581755,2.98774,7.62054,0.374602,-0.0567324,-0.128431,0
2024-11-26 21:46:44.986,-0.581755,2.98774,7.62054,0.374602,-0.0567324,-0.128431,0
2024-11-26 21:46:44.988,-0.62004,2.97338,7.51017,0.410031,-0.0469589,-0.107662,0
2024-11-26 21:46:44.991,-0.670289,2.98535,7.41446,0.440574,-0.0341311,-0.0850605,0
2024-11-26 21:46:44.994,-0.722932,3.01406,7.32593,0.493717,-0.00786466,-0.0282517,0
2024-11-26 21:46:44.996,-0.76361,3.04038,7.23978,0.493717,-0.00786466,-0.0282517,0
2024-11-26 21:46:44.997,-0.811466,3.07867,7.17996,0.513264,0.00435229,0.00167983,0
2024-11-26 21:46:45.001,-0.857229,3.11486,7.10339,0.530368,0.0153475,0.0340547,0
2024-11-26 21:46:45.003,-0.88355,3.16271,7.01725,0.530368,0.0153475,0.0340547,0
2024-11-26 21:46:45.004,-0.888335,3.21536,6.95474,0.55358,0.0300079,0.101859,0
2024-11-26 21:46:45.007,-0.88355,3.2345,6.85663,0.55358,0.0300079,0.101859,0
2024-11-26 21:46:45.015,-0.797109,3.30389,6.52403,0.562132,0.049555,0.244186,0
2024-11-26 21:46:45.017,-0.797109,3.30868,6.43041,0.53892,0.065437,0.311379,0
2024-11-26 21:46:45.019,-0.699003,3.30868,6.35863,0.53892,0.065437,0.311379,0
2024-11-26 21:46:45.022,-0.651147,3.30628,6.30838,0.50288,0.0947577,0.368799,0
2024-11-26 21:46:45.023,-0.624826,3.30868,6.28924,0.50288,0.0947577,0.368799,0
2024-11-26 21:46:45.026,-0.586541,3.32303,6.27727,0.480889,0.108807,0.394455,0
2024-11-26 21:46:45.026,-0.586541,3.32303,6.27727,0.480889,0.108807,0.394455,0
2024-11-26 21:46:45.027,-0.586541,3.32303,6.27727,0.480889,0.108807,0.394455,0
2024-11-26 21:46:45.028,-0.541077,3.33739,6.30838,0.454623,0.122246,0.417667,0
2024-11-26 21:46:45.030,-0.50997,3.35414,6.35623,0.428967,0.134463,0.440879,0
2024-11-26 21:46:45.034,-0.474078,3.37328,6.39691,0.399647,0.144847,0.459815,0
2024-11-26 21:46:45.036,-0.419043,3.40678,6.44238,0.339784,0.147901,0.489747,0
2024-11-26 21:46:45.040,-0.347258,3.47378,6.58864,0.339784,0.147901,0.489747,0
2024-11-26 21:46:45.042,-0.318545,3.50967,6.65324,0.273201,0.144847,0.509905,0
2024-11-26 21:46:45.047,-0.234497,3.56471,6.76571,0.202954,0.134463,0.514792,0
2024-11-26 21:46:45.048,-0.234497,3.56471,6.76571,0.167525,0.128354,0.512348,0
2024-11-26 21:46:45.050,-0.208176,3.59103,6.81117,0.131485,0.1253,0.508683,0
2024-11-26 21:46:45.050,-0.208176,3.59103,6.81117,0.131485,0.1253,0.508683,0
2024-11-26 21:46:45.052,-0.167498,3.62214,6.85185,0.131485,0.1253,0.508683,0
2024-11-26 21:46:45.055,-0.122034,3.65115,6.89492,0.0612374,0.126522,0.49219,0
2024-11-26 21:46:45.057,-0.0741775,3.68943,6.93081,0.0612374,0.126522,0.49219,0
2024-11-26 21:46:45.058,-0.0502493,3.71575,6.98345,0.0239758,0.127743,0.480584,0
2024-11-26 21:46:45.062,-0.0454636,3.72533,7.05793,-0.0474934,0.132019,0.450653,0
2024-11-26 21:46:45.064,-0.0287139,3.73011,7.14646,-0.0474934,0.132019,0.450653,0
2024-11-26 21:46:45.067,-0.0311067,3.74208,7.25893,-0.112854,0.130187,0.417056,0
2024-11-26 21:46:45.068,-0.0598206,3.74686,7.39053,-0.112854,0.130187,0.417056,0
2024-11-26 21:46:45.071,-0.102891,3.76122,7.56042,-0.167296,0.128354,0.381627,0
2024-11-26 21:46:45.074,-0.136391,3.78275,7.75215,-0.190508,0.124078,0.367577,0
2024-11-26 21:46:45.076,-0.155533,3.78754,7.93879,-0.190508,0.124078,0.367577,0
2024-11-26 21:46:45.078,-0.177069,3.81386,8.14248,-0.208833,0.119802,0.352917,0
2024-11-26 21:46:45.081,-0.200997,3.84736,8.35304,-0.236932,0.10392,0.324818,0
2024-11-26 21:46:45.083,-0.198604,3.8665,8.55404,-0.236932,0.10392,0.324818,0
2024-11-26 21:46:45.085,-0.191426,3.90957,8.77209,-0.240597,0.0929251,0.310769,0
2024-11-26 21:46:45.090,-0.193819,4.0005,9.1669,-0.245484,0.0709346,0.277783,0
2024-11-26 21:46:45.090,-0.172283,4.0005,9.1669,-0.245484,0.0709346,0.277783,0
2024-11-26 21:46:45.091,-0.117248,4.02443,9.35384,-0.240597,0.0568851,0.264344,0
2024-11-26 21:46:45.095,-0.0311067,4.06511,9.51416,-0.234489,0.0471116,0.249684,0
2024-11-26 21:46:45.097,0.0646062,4.12493,9.65534,-0.222272,0.0348946,0.233802,0
2024-11-26 21:46:45.099,0.162712,4.1991,9.79173,-0.208833,0.021456,0.217309,0
2024-11-26 21:46:45.102,0.263211,4.28794,9.89253,-0.175237,0.00374144,0.180658,0
2024-11-26 21:46:45.104,0.359223,4.36451,10.0074,-0.15317,-0.00419957,0.162944,0
2024-11-26 21:46:45.107,0.440578,4.44586,10.1342,-0.15317,-0.00419957,0.162944,0
2024-11-26 21:46:45.108,0.495613,4.53679,10.2371,-0.129347,-0.0127514,0.144618,0
2024-11-26 21:46:45.111,0.519542,4.61097,10.3256,-0.0792574,-0.0329094,0.117741,0
2024-11-26 21:46:45.114,0.500399,4.68754,10.3953,-0.0792574,-0.0329094,0.117741,0
2024-11-26 21:46:45.116,0.464507,4.7689,10.4504,-0.0523802,-0.0457372,0.105524,0
2024-11-26 21:46:45.117,0.383151,4.84098,10.4527,-0.0255029,-0.0579541,0.0963612,0
2024-11-26 21:46:45.121,0.30658,4.91037,10.4551,0.019089,-0.0836097,0.0804791,0
2024-11-26 21:46:45.123,0.263211,4.9678,10.4623,0.0392469,-0.090329,0.0804791,0
2024-11-26 21:46:45.125,0.184247,5.03001,10.4336,0.0392469,-0.090329,0.0804791,0
2024-11-26 21:46:45.127,0.0717847,5.10658,10.4025,0.0594049,-0.0958267,0.0798683,0
2024-11-26 21:46:45.130,-0.0382852,5.1688,10.3783,0.0893364,-0.0952158,0.0902527,0
2024-11-26 21:46:45.132,-0.148355,5.21905,10.3448,0.0893364,-0.0952158,0.0902527,0
2024-11-26 21:46:45.135,-0.272782,5.24776,10.3232,0.110716,-0.0836097,0.112854,0
2024-11-26 21:46:45.137,-0.392722,5.24776,10.3161,0.110716,-0.0836097,0.112854,0
2024-11-26 21:46:45.139,-0.486042,5.25733,10.3065,0.110716,-0.0836097,0.112854,0
2024-11-26 21:46:45.142,-0.584148,5.25972,10.3041,0.119879,-0.0726145,0.151948,0
2024-11-26 21:46:45.143,-0.675075,5.24537,10.2969,0.129652,-0.0457372,0.17516,0
2024-11-26 21:46:45.146,-0.754038,5.22383,10.2993,0.132707,-0.0268009,0.200816,0
2024-11-26 21:46:45.148,-0.821037,5.19751,10.3065,0.129652,-0.0096972,0.224639,0
2024-11-26 21:46:45.151,-0.893121,5.18315,10.2802,0.12782,0.00923906,0.252738,0
2024-11-26 21:46:45.154,-0.955334,5.16162,10.2562,0.116214,0.0599394,0.310769,0
2024-11-26 21:46:45.156,-0.972084,5.12573,10.2538,0.116214,0.0599394,0.310769,0
2024-11-26 21:46:45.158,-0.969691,5.08026,10.2586,0.107051,0.0898709,0.334592,0
2024-11-26 21:46:45.161,-0.952942,5.02762,10.2443,0.0978883,0.122246,0.358415,0
2024-11-26 21:46:45.162,-0.917049,4.9678,10.2371,0.0875039,0.154621,0.379794,0
2024-11-26 21:46:45.165,-0.857229,4.91037,10.261,0.0728435,0.188828,0.394455,0
2024-11-26 21:46:45.167,-0.76361,4.86491,10.2897,0.0569615,0.221814,0.403617,0
2024-11-26 21:46:45.170,-0.672682,4.81705,10.3184,0.0245866,0.290229,0.408504,0
2024-11-26 21:46:45.172,-0.598505,4.77398,10.3496,0.0245866,0.290229,0.408504,0
2024-11-26 21:46:45.174,-0.52672,4.7354,10.3929,0.0038178,0.318328,0.401174,0
2024-11-26 21:46:45.176,-0.459721,4.68993,10.4456,-0.0151185,0.340929,0.3914,0
2024-11-26 21:46:45.180,-0.395115,4.65165,10.491,-0.0590995,0.384299,0.356582,0
2024-11-26 21:46:45.181,-0.342473,4.6349,10.5341,-0.0590995,0.384299,0.356582,0
2024-11-26 21:46:45.184,-0.297009,4.63011,10.5748,-0.0804791,0.403236,0.330927,0
2024-11-26 21:46:45.187,-0.232104,4.63011,10.625,-0.106135,0.422172,0.302828,0
2024-11-26 21:46:45.188,-0.160319,4.63729,10.7207,-0.132401,0.440497,0.269842,0
2024-11-26 21:46:45.194,-0.0215354,4.73061,10.9819,-0.188065,0.462488,0.189821,0
2024-11-26 21:46:45.194,-0.0215354,4.73061,10.9819,-0.188065,0.462488,0.189821,0
2024-11-26 21:46:45.197,0.107677,4.67558,11.2594,-0.244263,0.459433,0.0933069,0
2024-11-26 21:46:45.201,0.299402,4.65404,11.4317,-0.297406,0.425837,-0.0166456,0
2024-11-26 21:46:45.201,0.299402,4.65404,11.4317,-0.297406,0.425837,-0.0166456,0
2024-11-26 21:46:45.202,0.373579,4.65643,11.6067,-0.297406,0.425837,-0.0166456,0
2024-11-26 21:46:45.206,0.414257,4.64925,11.7718,-0.3365,0.371471,-0.129652,0
2024-11-26 21:46:45.208,0.438186,4.66122,11.9249,-0.3365,0.371471,-0.129652,0
2024-11-26 21:46:45.215,0.407079,4.82902,12.3392,-0.368265,0.319549,-0.238994,0
2024-11-26 21:46:45.224,0.45015,5.45384,12.6482,-0.391477,0.224868,-0.470505,0
2024-11-26 21:46:45.227,0.390329,5.64766,12.696,-0.381092,0.183331,-0.545028,0
2024-11-26 21:46:45.229,0.316152,5.8343,12.7032,-0.381092,0.183331,-0.545028,0
2024-11-26 21:46:45.229,0.316152,5.8343,12.7032,-0.381092,0.183331,-0.545028,0
2024-11-26 21:46:45.231,0.189033,6.01885,12.6984,-0.373762,0.158897,-0.57496,0
2024-11-26 21:46:45.234,0.0119641,6.17917,12.7152,-0.356048,0.100866,-0.620163,0
2024-11-26 21:46:45.234,0.0119641,6.17917,12.7152,-0.356048,0.100866,-0.620163,0
2024-11-26 21:46:45.236,-0.212961,6.29163,12.7463,-0.356048,0.100866,-0.620163,0
2024-11-26 21:46:45.236,-0.212961,6.29163,12.7463,-0.356048,0.100866,-0.620163,0
2024-11-26 21:46:45.236,-0.212961,6.29163,12.7463,-0.356048,0.100866,-0.620163,0
2024-11-26 21:46:45.238,-0.41665,6.37538,12.7558,-0.356048,0.100866,-0.620163,0
2024-11-26 21:46:45.241,-0.584148,6.40888,12.7774,-0.323673,0.00374144,-0.652538,0
2024-11-26 21:46:45.242,-0.634397,6.34666,12.7654,-0.323673,0.00374144,-0.652538,0
2024-11-26 21:46:45.243,-0.634397,6.34666,12.7654,-0.320008,-0.0243575,-0.670863,0
2024-11-26 21:46:45.245,-0.588933,6.24138,12.6864,-0.320008,-0.0243575,-0.670863,0
2024-11-26 21:46:45.247,-0.715753,6.07149,12.6769,-0.317564,-0.0487914,-0.691021,0
2024-11-26 21:46:45.250,-1.00798,5.76969,12.7606,-0.32184,-0.066506,-0.705681,0
2024-11-26 21:46:45.255,-1.80269,5.22622,13.0023,-0.337722,-0.137364,-0.666587,0
2024-11-26 21:46:45.256,-2.09013,5.01087,13.1626,-0.337722,-0.137364,-0.666587,0
2024-11-26 21:46:45.257,-2.09013,5.01087,13.1626,-0.337722,-0.137364,-0.666587,0
2024-11-26 21:46:45.260,-2.26959,4.71865,13.3735,-0.338333,-0.164242,-0.629325,0
2024-11-26 21:46:45.263,-2.42034,4.09861,13.8021,-0.343831,-0.197227,-0.530979,0
2024-11-26 21:46:45.264,-2.42034,4.09861,13.8021,-0.343831,-0.197227,-0.530979,0
2024-11-26 21:46:45.267,-2.40838,3.75165,14.0007,-0.349328,-0.208833,-0.470505,0
2024-11-26 21:46:45.268,-2.35095,3.38046,14.1562,-0.357269,-0.217385,-0.401479,0
2024-11-26 21:46:45.273,-2.14995,2.60489,14.4461,-0.381703,-0.24243,-0.2506,0
2024-11-26 21:46:45.274,-2.14995,2.60489,14.4461,-0.381703,-0.24243,-0.2506,0
2024-11-26 21:46:45.275,-1.92951,2.28156,14.6662,-0.398807,-0.239987,-0.168136,0
2024-11-26 21:46:45.278,-1.70698,2.02313,14.8938,-0.4153,-0.2351,-0.0826171,0
2024-11-26 21:46:45.281,-1.50598,1.78834,15.0853,-0.458059,-0.207001,0.0896418,0
2024-11-26 21:46:45.283,-1.31665,1.53709,15.2336,-0.458059,-0.207001,0.0896418,0
2024-11-26 21:46:45.286,-1.06062,1.31186,15.3509,-0.515479,-0.131867,0.243575,0
2024-11-26 21:46:45.288,-0.725324,1.0989,15.4732,-0.547243,-0.0805555,0.308325,0
2024-11-26 21:46:45.289,-0.387936,0.929013,15.6383,-0.547243,-0.0805555,0.308325,0
2024-11-26 21:46:45.293,-0.0646062,0.768395,15.7795,-0.576563,-0.0213033,0.367577,0
2024-11-26 21:46:45.294,0.153141,0.610469,15.8824,-0.607717,0.0391706,0.421943,0
2024-11-26 21:46:45.296,0.359223,0.469292,15.6838,-0.633983,0.0220669,0.472032,0
2024-11-26 21:46:45.300,0.785145,0.272782,15.8369,-0.665136,0.0410031,0.514181,0
2024-11-26 21:46:45.302,1.1013,0.167498,16.232,-0.685294,0.164394,0.552664,0
2024-11-26 21:46:45.303,1.23051,0.227318,16.2847,-0.698122,0.265184,0.584428,0
2024-11-26 21:46:45.307,1.40548,0.311366,16.4306,-0.690792,0.452103,0.638183,0
2024-11-26 21:46:45.309,1.49402,0.380758,16.5793,-0.666358,0.555337,0.655286,0
2024-11-26 21:46:45.311,1.52513,0.445364,16.6558,-0.666358,0.555337,0.655286,0
2024-11-26 21:46:45.313,1.53948,0.50997,16.6511,-0.630929,0.65124,0.673001,1
2024-11-26 21:46:45.316,1.52034,0.572184,16.6104,-0.585115,0.731261,0.682775,0
2024-11-26 21:46:45.319,1.4653,0.651147,16.5383,-0.585115,0.731261,0.682775,0
2024-11-26 21:46:45.320,1.38604,0.758824,16.4306,-0.45867,0.83877,0.693159,0
2024-11-26 21:46:45.322,1.32383,0.885943,16.2703,-0.45867,0.83877,0.693159,0
2024-11-26 21:46:45.326,1.25683,1.02712,16.0478,-0.288854,0.887027,0.696213,0
2024-11-26 21:46:45.327,1.17069,1.16112,15.7795,-0.288854,0.887027,0.696213,0
2024-11-26 21:46:45.330,1.07976,1.27597,15.4971,-0.0865876,0.887637,0.694381,0
2024-11-26 21:46:45.332,0.96012,1.38604,15.2073,0.0196998,0.871145,0.690105,0
2024-11-26 21:46:45.334,0.794716,1.46052,14.9034,0.131485,0.846711,0.68644,0
2024-11-26 21:46:45.339,0.579362,1.60648,14.2017,0.366661,0.739812,0.68705,0
2024-11-26 21:46:45.341,0.0837488,1.69262,13.7348,0.477224,0.668954,0.679109,0
2024-11-26 21:46:45.344,-0.160319,1.76919,13.2491,0.585955,0.590766,0.667503,0
2024-11-26 21:46:45.344,-0.160319,1.76919,13.2491,0.585955,0.590766,0.667503,0
2024-11-26 21:46:45.347,-0.380758,1.81705,12.7534,0.782648,0.41362,0.634518,0
2024-11-26 21:46:45.349,-0.569791,1.84576,12.2459,0.873053,0.32749,0.615581,0
2024-11-26 21:46:45.351,-0.722932,1.86012,11.7335,0.873053,0.32749,0.615581,0
2024-11-26 21:46:45.353,-0.876371,1.82901,11.2164,0.95674,0.247469,0.595423,0
2024-11-26 21:46:45.356,-1.01515,1.77637,10.6825,1.0331,0.176611,0.57893,0
2024-11-26 21:46:45.359,-1.13719,1.72134,10.1366,1.15404,0.0587177,0.548999,0
2024-11-26 21:46:45.361,-1.25922,1.67348,9.61227,1.15404,0.0587177,0.548999,0
2024-11-26 21:46:45.362,-1.36929,1.62802,9.10708,1.19619,0.00984991,0.536171,0
2024-11-26 21:46:45.365,-1.47966,1.57059,8.58993,1.22673,-0.0347419,0.521511,0
2024-11-26 21:46:45.367,-1.5682,1.52991,8.09671,1.24567,-0.0707819,0.507461,0
2024-11-26 21:46:45.369,-1.64237,1.51316,7.63729,1.25178,-0.102546,0.497077,0
2024-11-26 21:46:45.372,-1.72612,1.52991,7.22543,1.24567,-0.128812,0.487914,0
2024-11-26 21:46:45.375,-1.83619,1.53709,6.86142,1.2304,-0.149581,0.481806,0
2024-11-26 21:46:45.376,-2.05185,1.58016,6.65324,1.20963,-0.164242,0.47753,0
2024-11-26 21:46:45.379,-2.24327,1.60409,6.48335,1.19253,-0.174015,0.48486,0
2024-11-26 21:46:45.382,-2.27199,1.54905,6.21506,1.16504,-0.178902,0.493412,0
2024-11-26 21:46:45.385,-2.22174,1.51077,6.0021,1.08502,-0.17768,0.501964,0
2024-11-26 21:46:45.387,-2.20499,1.52991,5.7673,1.08502,-0.17768,0.501964,0
2024-11-26 21:46:45.389,-2.15713,1.52034,5.48016,0.968956,-0.181956,0.49952,0
2024-11-26 21:46:45.392,-2.02074,1.43181,5.22383,0.897487,-0.174015,0.494023,0
2024-11-26 21:46:45.393,-1.86969,1.34776,4.97737,0.897487,-0.174015,0.494023,0
2024-11-26 21:46:45.395,-1.70459,1.29751,4.77877,0.816855,-0.161798,0.481195,0
2024-11-26 21:46:45.398,-1.47488,1.34297,4.65883,0.73378,-0.150192,0.459815,0
2024-11-26 21:46:45.400,-1.21854,1.42941,4.54876,0.645207,-0.144084,0.43416,0
2024-11-26 21:46:45.403,-1.02712,1.41266,4.42672,0.645207,-0.144084,0.43416,0
2024-11-26 21:46:45.406,-0.917049,1.3669,4.38844,0.347725,-0.161187,0.330316,0
2024-11-26 21:46:45.407,-0.888335,1.35733,4.47697,0.347725,-0.161187,0.330316,0
2024-11-26 21:46:45.410,-0.852443,1.34058,4.6014,0.248768,-0.168517,0.302217,0
2024-11-26 21:46:45.413,-0.775574,1.34776,4.72582,0.148589,-0.181956,0.274118,0
2024-11-26 21:46:45.414,-0.703789,1.40279,4.85294,0.0514639,-0.203947,0.24663,0
2024-11-26 21:46:45.417,-0.670289,1.4677,5.01087,-0.04505,-0.224105,0.224639,0
2024-11-26 21:46:45.420,-0.622433,1.53709,5.1999,-0.228381,-0.246706,0.18188,0
2024-11-26 21:46:45.424,-0.483649,1.68066,5.62373,-0.313899,-0.247928,0.162333,0
2024-11-26 21:46:45.425,-0.483649,1.68066,5.62373,-0.395753,-0.246095,0.146451,0
2024-11-26 21:46:45.427,-0.435793,1.74527,5.85584,-0.395753,-0.246095,0.146451,0
2024-11-26 21:46:45.428,-0.387936,1.80269,6.07867,-0.468443,-0.239987,0.131179,0
2024-11-26 21:46:45.431,-0.311366,1.86251,6.29641,-0.533804,-0.229602,0.117741,0
2024-11-26 21:46:45.434,-0.232104,1.90319,6.49292,-0.592445,-0.22044,0.104913,0
2024-11-26 21:46:45.435,-0.181855,1.90798,6.67478,-0.643757,-0.211888,0.0939178,0
2024-11-26 21:46:45.439,-0.165105,1.89841,6.87817,-0.68957,-0.201503,0.0835334,0
2024-11-26 21:46:45.440,-0.177069,1.87926,7.101,-0.723778,-0.191119,0.0737598,0
2024-11-26 21:46:45.443,-0.224925,1.84098,7.3331,-0.751877,-0.179513,0.0670405,0
2024-11-26 21:46:45.445,-0.299402,1.79312,7.59901,-0.770813,-0.166685,0.0627646,0
2024-11-26 21:46:45.448,-0.366401,1.74766,7.87179,-0.776921,-0.137975,0.0627646,0
2024-11-26 21:46:45.450,-0.41665,1.6998,8.13021,-0.776921,-0.137975,0.0627646,0
2024-11-26 21:46:45.453,-0.469292,1.66152,8.37458,-0.745768,-0.108654,0.068873,0
2024-11-26 21:46:45.455,-0.517149,1.63041,8.60668,-0.717669,-0.094605,0.076814,0
2024-11-26 21:46:45.458,-0.557827,1.61127,8.80319,-0.717669,-0.094605,0.076814,0
2024-11-26 21:46:45.459,-0.591326,1.5993,8.9683,-0.681018,-0.0793338,0.0865876,0
2024-11-26 21:46:45.461,-0.605683,1.60409,9.11187,-0.638259,-0.0634518,0.0945286,0
2024-11-26 21:46:45.467,-0.624826,1.63759,9.30838,-0.474552,-0.0139731,0.13179,0
2024-11-26 21:46:45.467,-0.624826,1.63759,9.30838,-0.474552,-0.0139731,0.13179,0
2024-11-26 21:46:45.472,-0.641576,1.69023,9.3682,-0.409191,0.00679568,0.14584,0
2024-11-26 21:46:45.472,-0.655932,1.69023,9.3682,-0.409191,0.00679568,0.14584,0
2024-11-26 21:46:45.473,-0.655932,1.75005,9.34906,-0.340166,0.0306187,0.158057,0
2024-11-26 21:46:45.475,-0.655932,1.80269,9.30359,-0.273583,0.0519984,0.170885,0
2024-11-26 21:46:45.478,-0.65354,1.85533,9.26531,-0.204557,0.0727672,0.183712,0
2024-11-26 21:46:45.481,-0.643968,1.91516,9.2004,-0.0639862,0.121635,0.207535,0
2024-11-26 21:46:45.482,-0.62004,1.95823,9.09512,-0.0639862,0.121635,0.207535,0
2024-11-26 21:46:45.486,-0.600898,1.99202,8.97069,0.0704001,0.169281,0.227693,0
2024-11-26 21:46:45.488,-0.593719,2.02552,8.81994,0.130263,0.200434,0.236856,0
2024-11-26 21:46:45.491,-0.576969,2.04467,8.64736,0.130263,0.200434,0.236856,0
2024-11-26 21:46:45.492,-0.572184,2.0686,8.47029,0.186461,0.234031,0.24724,0
2024-11-26 21:46:45.495,-0.576969,2.09013,8.29562,0.239605,0.26946,0.257014,0
2024-11-26 21:46:45.498,-0.591326,2.11406,8.11346,0.324513,0.350703,0.27595,0
2024-11-26 21:46:45.500,-0.612862,2.16192,7.94118,0.324513,0.350703,0.27595,0
2024-11-26 21:46:45.501,-0.629611,2.20738,7.79522,0.356277,0.394073,0.287556,0
2024-11-26 21:46:45.505,-0.646361,2.24806,7.65165,0.402701,0.470429,0.314434,0
2024-11-26 21:46:45.509,-0.655932,2.3342,7.32114,0.421026,0.501582,0.329094,0
2024-11-26 21:46:45.509,-0.655932,2.3342,7.32114,0.421026,0.501582,0.329094,0
2024-11-26 21:46:45.512,-0.679861,2.39163,7.12732,0.432633,0.522962,0.341922,0
2024-11-26 21:46:45.513,-0.694218,2.48016,6.97149,0.438741,0.541287,0.355971,0
2024-11-26 21:46:45.516,-0.682254,2.55224,6.86142,0.438741,0.541287,0.355971,0
2024-11-26 21:46:45.519,-0.679861,2.60728,6.70828,0.435076,0.57916,0.381016,0
2024-11-26 21:46:45.523,-0.665504,2.72213,6.42323,0.428357,0.59382,0.390179,0
2024-11-26 21:46:45.526,-0.672682,2.76281,6.29163,0.386208,0.640855,0.416445,0
2024-11-26 21:46:45.526,-0.672682,2.76281,6.29163,0.386208,0.640855,0.416445,0
2024-11-26 21:46:45.528,-0.694218,2.80828,6.17677,0.386208,0.640855,0.416445,0
2024-11-26 21:46:45.532,-0.550648,2.9016,6.11456,0.348336,0.686058,0.419499,0
2024-11-26 21:46:45.533,-0.550648,2.9016,6.11456,0.348336,0.686058,0.419499,0
2024-11-26 21:46:45.534,-0.445364,2.89203,6.13849,0.333064,0.698275,0.418278,0
2024-11-26 21:46:45.538,-0.366401,2.8681,6.13849,0.318404,0.703772,0.41278,0
2024-11-26 21:46:45.542,-0.330509,2.83938,6.12892,0.276867,0.676895,0.397509,0
2024-11-26 21:46:45.545,-0.342473,2.83699,6.10977,0.264039,0.657959,0.390179,0
2024-11-26 21:46:45.545,-0.342473,2.83699,6.10977,0.264039,0.657959,0.390179,0
2024-11-26 21:46:45.547,-0.347258,2.84895,6.08585,0.264039,0.657959,0.390179,0
2024-11-26 21:46:45.549,-0.354437,2.86092,6.08824,0.251211,0.640244,0.382849,0
2024-11-26 21:46:45.552,-0.371187,2.88485,6.08824,0.237772,0.621308,0.371853,0
2024-11-26 21:46:45.553,-0.407079,2.9327,6.07867,0.227999,0.600539,0.363301,0
2024-11-26 21:46:45.555,-0.440578,2.98295,6.07149,0.213949,0.57916,0.352917,0
2024-11-26 21:46:45.560,-0.459721,3.0667,6.02842,0.196235,0.533346,0.331537,0
2024-11-26 21:46:45.561,-0.459721,3.0667,6.02842,0.196235,0.533346,0.331537,0
2024-11-26 21:46:45.564,-0.498006,3.11725,6.01167,0.186461,0.50708,0.322986,0
2024-11-26 21:46:45.566,-0.483649,3.13879,5.98056,0.179131,0.479591,0.312601,0
2024-11-26 21:46:45.570,-0.407079,3.14836,6.0021,0.162027,0.417285,0.294276,0
2024-11-26 21:46:45.571,-0.407079,3.14836,6.0021,0.154697,0.380023,0.285113,0
2024-11-26 21:46:45.573,-0.380758,3.15314,6.01406,0.154697,0.380023,0.285113,0
2024-11-26 21:46:45.574,-0.378365,3.16511,6.03081,0.147978,0.347038,0.274729,0
2024-11-26 21:46:45.580,-0.378365,3.24646,6.09302,0.135761,0.278012,0.254571,0
2024-11-26 21:46:45.580,-0.378365,3.24646,6.09302,0.135761,0.278012,0.254571,0
2024-11-26 21:46:45.582,-0.366401,3.28475,6.13131,0.131485,0.245026,0.246019,0
2024-11-26 21:46:45.585,-0.352044,3.32303,6.17199,0.116825,0.183941,0.226472,0
2024-11-26 21:46:45.588,-0.359223,3.42832,6.21984,0.109494,0.157675,0.218531,0
2024-11-26 21:46:45.589,-0.359223,3.42832,6.21984,0.109494,0.157675,0.218531,0
2024-11-26 21:46:45.593,-0.373579,3.48574,6.25334,0.0917798,0.116137,0.203259,0
2024-11-26 21:46:45.596,-0.387936,3.57189,6.32752,0.0844496,0.0984228,0.194097,0
2024-11-26 21:46:45.596,-0.387936,3.57189,6.32752,0.0844496,0.0984228,0.194097,0
2024-11-26 21:46:45.598,-0.3999,3.62453,6.35384,0.0771195,0.081319,0.187377,0
2024-11-26 21:46:45.604,-0.385544,3.70618,6.3993,0.0490205,0.0367272,0.169052,0
2024-11-26 21:46:45.606,-0.383151,3.73729,6.41845,0.0490205,0.0367272,0.169052,0
2024-11-26 21:46:45.607,-0.392722,3.77557,6.43041,0.0368035,0.0208452,0.162944,0
2024-11-26 21:46:45.607,-0.392722,3.77557,6.43041,0.0368035,0.0208452,0.162944,0
2024-11-26 21:46:45.612,-0.383151,3.80429,6.45195,0.00870457,-0.0133623,0.151948,0
2024-11-26 21:46:45.613,-0.3999,3.82822,6.48575,-0.0077883,-0.0341311,0.147061,0
2024-11-26 21:46:45.615,-0.426222,3.8665,6.51925,-0.0077883,-0.0341311,0.147061,0
2024-11-26 21:46:45.617,-0.445364,3.90239,6.55992,-0.0242812,-0.0567324,0.142175,0
2024-11-26 21:46:45.619,-0.469292,3.90957,6.60778,-0.0389415,-0.0781121,0.139731,0
2024-11-26 21:46:45.622,-0.483649,3.95025,6.64606,-0.0560452,-0.103157,0.134845,0
2024-11-26 21:46:45.626,-0.493221,4.0005,6.72024,-0.0933069,-0.152635,0.131179,0
2024-11-26 21:46:45.627,-0.493221,4.0005,6.72024,-0.0933069,-0.152635,0.131179,0
2024-11-26 21:46:45.628,-0.495613,4.01246,6.75853,-0.113465,-0.177069,0.128125,0
2024-11-26 21:46:45.631,-0.490828,4.00768,6.78963,-0.133623,-0.197838,0.125071,0
2024-11-26 21:46:45.633,-0.471685,4.01486,6.84706,-0.133623,-0.197838,0.125071,0
2024-11-26 21:46:45.636,-0.440578,4.01964,6.92363,-0.17768,-0.228381,0.112854,0
2024-11-26 21:46:45.638,-0.407079,4.00289,7.01725,-0.17768,-0.228381,0.112854,0
2024-11-26 21:46:45.640,-0.364008,3.99811,7.12254,-0.22105,-0.233267,0.0988045,0
2024-11-26 21:46:45.644,-0.332901,3.99811,7.25175,-0.261366,-0.223494,0.0774249,0
2024-11-26 21:46:45.646,-0.294616,3.99571,7.39771,-0.261366,-0.223494,0.0774249,0
2024-11-26 21:46:45.650,-0.234497,4.01964,7.67797,-0.299239,-0.214942,0.0517693,0
2024-11-26 21:46:45.653,-0.18664,4.03879,7.8359,-0.316343,-0.212498,0.0364981,0
2024-11-26 21:46:45.655,-0.150748,4.06032,7.95314,-0.331614,-0.21372,0.016951,0
2024-11-26 21:46:45.657,-0.100499,4.101,8.08714,-0.349328,-0.214942,-0.00198525,0
2024-11-26 21:46:45.658,-0.100499,4.101,8.08714,-0.362767,-0.216774,-0.0227541,0
2024-11-26 21:46:45.660,-0.0622134,4.15125,8.2334,-0.374373,-0.218607,-0.0447446,0
2024-11-26 21:46:45.662,-0.026321,4.17039,8.36262,-0.374373,-0.218607,-0.0447446,0
2024-11-26 21:46:45.667,0.0646062,4.22812,8.64736,-0.387812,-0.233267,-0.0923906,0
2024-11-26 21:46:45.670,0.105284,4.26401,8.77209,-0.392698,-0.249149,-0.144313,0
2024-11-26 21:46:45.670,0.105284,4.26401,8.77209,-0.392698,-0.249149,-0.144313,0
2024-11-26 21:46:45.672,0.131605,4.30708,8.9013,-0.393309,-0.261366,-0.173022,0
2024-11-26 21:46:45.674,0.155533,4.35015,9.03051,-0.393309,-0.261366,-0.173022,0
2024-11-26 21:46:45.676,0.191426,4.39801,9.14537,-0.393309,-0.261366,-0.173022,0
2024-11-26 21:46:45.679,0.222533,4.45783,9.26052,-0.387201,-0.280913,-0.226166,0
2024-11-26 21:46:45.683,0.258425,4.56311,9.45673,-0.374373,-0.305347,-0.286029,0
2024-11-26 21:46:45.683,0.258425,4.56311,9.45673,-0.374373,-0.305347,-0.286029,0
2024-11-26 21:46:45.686,0.275175,4.6325,9.5333,-0.354826,-0.332225,-0.339784,0
2024-11-26 21:46:45.688,0.272782,4.68754,9.60987,-0.354826,-0.332225,-0.339784,0
2024-11-26 21:46:45.692,0.22014,4.76411,9.75823,-0.332225,-0.359713,-0.389873,0
2024-11-26 21:46:45.693,0.22014,4.76411,9.75823,-0.332225,-0.359713,-0.389873,0
2024-11-26 21:46:45.695,0.184247,4.79312,9.81087,-0.319397,-0.369486,-0.413696,0
2024-11-26 21:46:45.698,0.124427,4.80748,9.8686,-0.309623,-0.381092,-0.433243,0
2024-11-26 21:46:45.699,0.0693919,4.83859,9.92842,-0.298628,-0.387812,-0.449736,0
2024-11-26 21:46:45.701,0.0,4.8673,9.99063,-0.290076,-0.388422,-0.465007,0
2024-11-26 21:46:45.705,-0.0622134,4.88166,10.0433,-0.274194,-0.385368,-0.486387,0
2024-11-26 21:46:45.707,-0.119641,4.90559,10.1007,-0.274194,-0.385368,-0.486387,0
2024-11-26 21:46:45.711,-0.241675,4.95583,10.2491,-0.263199,-0.381092,-0.502269,0
2024-11-26 21:46:45.711,-0.241675,4.95583,10.2491,-0.263199,-0.381092,-0.502269,0
2024-11-26 21:46:45.716,-0.380758,5.02762,10.4288,-0.263199,-0.381092,-0.502269,0
2024-11-26 21:46:45.721,-0.572184,5.08505,10.7136,-0.263199,-0.403694,-0.521205,0
2024-11-26 21:46:45.723,-0.634397,5.12573,10.8619,-0.263199,-0.403694,-0.521205,0
2024-11-26 21:46:45.726,-0.641576,5.16401,11.0393,-0.263199,-0.420797,-0.524871,0
2024-11-26 21:46:45.730,-0.581755,5.20469,11.3982,-0.255258,-0.417132,-0.527314,0
2024-11-26 21:46:45.730,-0.581755,5.20469,11.3982,-0.255258,-0.417132,-0.527314,0
2024-11-26 21:46:45.731,-0.581755,5.20469,11.3982,-0.250982,-0.405526,-0.529757,0
2024-11-26 21:46:45.734,-0.507577,5.1999,11.7838,-0.246095,-0.389033,-0.528536,0
2024-11-26 21:46:45.735,-0.507577,5.1999,11.7838,-0.246095,-0.389033,-0.528536,0
2024-11-26 21:46:45.737,-0.507577,5.17597,11.9728,-0.24243,-0.370097,-0.527314,0
2024-11-26 21:46:45.737,-0.507577,5.17597,11.9728,-0.24243,-0.370097,-0.527314,0
2024-11-26 21:46:45.740,-0.541077,5.12812,12.143,-0.239987,-0.341998,-0.525481,0
2024-11-26 21:46:45.742,-0.608076,5.07069,12.3105,-0.235711,-0.316953,-0.515097,0
2024-11-26 21:46:45.745,-0.727717,4.99891,12.4875,-0.231435,-0.290076,-0.502269,0
2024-11-26 21:46:45.747,-0.837787,4.87209,12.6314,-0.227159,-0.264421,-0.4815,0
2024-11-26 21:46:45.749,-0.967299,4.69233,12.7391,-0.225937,-0.238154,-0.454623,0
2024-11-26 21:46:45.751,-1.1994,4.58943,12.8444,-0.225937,-0.215553,-0.422248,0
2024-11-26 21:46:45.754,-1.47009,4.57029,12.9521,-0.228381,-0.161798,-0.333675,0
2024-11-26 21:46:45.757,-1.71177,4.58226,13.0717,-0.234489,-0.12698,-0.276867,0
2024-11-26 21:46:45.759,-1.93669,4.59183,13.1916,-0.234489,-0.12698,-0.276867,0
2024-11-26 21:46:45.761,-2.18106,4.60379,13.2873,-0.234489,-0.12698,-0.276867,0
2024-11-26 21:46:45.763,-2.31266,4.63968,13.352,-0.247317,0.000687203,-0.152254,0
2024-11-26 21:46:45.765,-2.28634,4.6684,13.4931,-0.254647,0.0910926,-0.0844496,0
2024-11-26 21:46:45.768,-2.25284,4.68036,13.6846,-0.25709,0.196769,-0.0209215,0
2024-11-26 21:46:45.770,-2.2337,4.69711,13.8476,-0.265031,0.295116,0.0389415,0
2024-11-26 21:46:45.773,-2.2002,4.72343,14.0198,-0.268696,0.383078,0.0933069,0
2024-11-26 21:46:45.775,-2.14277,4.78834,14.1658,-0.272362,0.460044,0.13912,0
2024-11-26 21:46:45.778,-2.08295,4.88405,14.2902,-0.274194,0.52174,0.178215,0
2024-11-26 21:46:45.782,-1.96301,5.08026,14.4939,-0.276027,0.606037,0.22525,0
2024-11-26 21:46:45.783,-1.96301,5.08026,14.4939,-0.272362,0.631082,0.233802,0
2024-11-26 21:46:45.784,-1.93191,5.18555,14.537,-0.272362,0.631082,0.233802,0
2024-11-26 21:46:45.787,-1.92473,5.29322,14.5298,-0.257701,0.639023,0.22525,0
2024-11-26 21:46:45.790,-1.90798,5.39641,14.5322,-0.257701,0.639023,0.22525,0
2024-11-26 21:46:45.791,-1.89841,5.48495,14.5466,-0.244873,0.620086,0.21059,0
2024-11-26 21:46:45.794,-1.85773,5.56152,14.5705,-0.232656,0.588322,0.190432,1
2024-11-26 21:46:45.797,-1.80509,5.57348,14.5825,-0.195395,0.494252,0.139731,0
2024-11-26 21:46:45.799,-1.78355,5.53759,14.549,-0.195395,0.494252,0.139731,0
2024-11-26 21:46:45.801,-1.76201,5.4993,14.4867,-0.177069,0.441719,0.108578,0
2024-11-26 21:46:45.804,-1.7333,5.43231,14.3958,-0.156835,0.388575,0.0755923,0
2024-11-26 21:46:45.805,-1.69741,5.35095,14.3216,-0.137899,0.332988,0.0413849,0
2024-11-26 21:46:45.808,-1.64237,5.2358,14.2759,-0.118352,0.273736,0.00412322,0
2024-11-26 21:46:45.810,-1.55623,5.08026,14.2328,-0.107356,0.21204,-0.0355819,0
2024-11-26 21:46:45.815,-1.36929,4.70429,14.1873,-0.0957503,0.150345,-0.0795629,0
2024-11-26 21:46:45.816,-1.36929,4.70429,14.1873,-0.0957503,0.150345,-0.0795629,0
2024-11-26 21:46:45.819,-1.1994,4.2664,14.1203,-0.0664296,-0.0298552,-0.209062,0
2024-11-26 21:46:45.820,-1.1994,4.2664,14.1203,-0.0664296,-0.0829989,-0.254876,0
2024-11-26 21:46:45.824,-1.02473,3.76122,14.0055,-0.0676513,-0.130645,-0.302522,0
2024-11-26 21:46:45.825,-1.02473,3.76122,14.0055,-0.0707056,-0.176459,-0.35139,0
2024-11-26 21:46:45.826,-0.957727,3.50489,13.8835,-0.0707056,-0.176459,-0.35139,0
2024-11-26 21:46:45.829,-0.897907,3.23928,13.6965,-0.0749815,-0.217996,-0.400869,0
2024-11-26 21:46:45.831,-0.869193,2.96142,13.5769,-0.0865876,-0.244263,-0.450958,0
2024-11-26 21:46:45.834,-0.871586,2.67667,13.5242,-0.0963612,-0.261977,-0.498604,0
2024-11-26 21:46:45.839,-0.957727,2.04945,13.4261,-0.132401,-0.310234,-0.624439,0
2024-11-26 21:46:45.839,-0.957727,2.04945,13.4261,-0.132401,-0.310234,-0.624439,0
2024-11-26 21:46:45.844,-1.1013,1.44377,13.3998,-0.132401,-0.310234,-0.624439,0
2024-11-26 21:46:45.845,-1.2018,1.1659,13.3759,-0.156835,-0.315732,-0.691021,0
2024-11-26 21:46:45.846,-1.2018,1.1659,13.3759,-0.165998,-0.305958,-0.714233,0
2024-11-26 21:46:45.848,-1.32861,0.929013,13.352,-0.165998,-0.305958,-0.714233,0
2024-11-26 21:46:45.851,-1.44855,0.742074,13.2945,-0.171572,-0.287022,-0.731948,0
2024-11-26 21:46:45.853,-1.55145,0.579362,13.2203,-0.18501,-0.231435,-0.74783,0
2024-11-26 21:46:45.856,-1.66391,0.454935,13.1818,-0.18501,-0.231435,-0.74783,0
2024-11-26 21:46:45.858,-1.7668,0.344866,13.2036,-0.189897,-0.194173,-0.745386,0
2024-11-26 21:46:45.859,-1.83619,0.246461,13.2275,-0.194173,-0.153246,-0.738056,0
2024-11-26 21:46:45.862,-1.91276,0.179462,13.2634,-0.193562,-0.110487,-0.720342,0
2024-11-26 21:46:45.866,-2.01117,0.133998,13.3639,-0.190508,-0.0219141,-0.667809,0
2024-11-26 21:46:45.867,-2.01117,0.133998,13.3639,-0.190508,-0.0219141,-0.667809,0
2024-11-26 21:46:45.869,-2.02552,0.162712,13.3998,-0.182567,0.0208452,-0.635434,0
2024-11-26 21:46:45.872,-1.98724,0.205783,13.4381,-0.169739,0.0617719,-0.599394,0
2024-11-26 21:46:45.874,-1.9008,0.260818,13.462,-0.156835,0.101477,-0.560911,0
2024-11-26 21:46:45.877,-1.74287,0.337687,13.4788,-0.109189,0.172335,-0.482111,0
2024-11-26 21:46:45.879,-1.51077,0.438186,13.5147,-0.109189,0.172335,-0.482111,0
2024-11-26 21:46:45.880,-1.22572,0.557827,13.5171,-0.0841442,0.197991,-0.444239,0
2024-11-26 21:46:45.885,-0.521934,0.835394,13.4261,-0.0163402,0.229144,-0.382543,0
2024-11-26 21:46:45.886,-0.521934,0.835394,13.4261,0.0209215,0.229755,-0.358109,0
2024-11-26 21:46:45.888,-0.117248,0.950549,13.3543,0.0209215,0.229755,-0.358109,0
2024-11-26 21:46:45.890,0.272782,1.06301,13.2562,0.0636808,0.224868,-0.339173,0
2024-11-26 21:46:45.892,0.65354,1.17308,13.1315,0.104608,0.214484,-0.329399,0
2024-11-26 21:46:45.896,1.03908,1.27597,12.9736,0.187683,0.172946,-0.321458,0
2024-11-26 21:46:45.899,1.64716,1.47727,12.6314,0.22922,0.145458,-0.325734,0
2024-11-26 21:46:45.900,1.64716,1.47727,12.6314,0.22922,0.145458,-0.325734,0
2024-11-26 21:46:45.902,1.88405,1.57059,12.4325,0.27198,0.117359,-0.331843,0
2024-11-26 21:46:45.905,2.04945,1.66152,12.2267,0.314128,0.081319,-0.341005,0
2024-11-26 21:46:45.909,2.18106,1.83141,11.7718,0.394149,0.00557398,-0.359942,0
2024-11-26 21:46:45.909,2.18106,1.83141,11.7718,0.394149,0.00557398,-0.359942,0
2024-11-26 21:46:45.911,2.16431,1.91994,11.5373,0.4308,-0.0359636,-0.372159,0
2024-11-26 21:46:45.913,2.09492,2.00638,11.2953,0.462564,-0.0775012,-0.379489,0
2024-11-26 21:46:45.917,1.99202,2.11167,11.0321,0.494939,-0.115374,-0.384376,0
2024-11-26 21:46:45.918,1.84816,2.21934,10.7662,0.525481,-0.152635,-0.385597,0
2024-11-26 21:46:45.921,1.67348,2.31506,10.4815,0.548694,-0.186232,-0.384376,0
2024-11-26 21:46:45.924,1.48445,2.39402,10.2012,0.577403,-0.243041,-0.370937,0
2024-11-26 21:46:45.926,1.31665,2.45623,9.9667,0.584734,-0.268086,-0.359331,0
2024-11-26 21:46:45.929,1.23529,2.50409,9.74387,0.589009,-0.302904,-0.348946,0
2024-11-26 21:46:45.931,1.05583,2.54507,9.55245,0.589009,-0.302904,-0.348946,0
2024-11-26 21:46:45.932,0.758824,2.58574,9.38974,0.585955,-0.334057,-0.333675,0
2024-11-26 21:46:45.935,0.536291,2.6336,9.17887,0.580458,-0.35788,-0.312296,0
2024-11-26 21:46:45.937,0.366401,2.6671,8.91087,0.571906,-0.374984,-0.287862,0
2024-11-26 21:46:45.940,0.198604,2.69581,8.67847,0.571906,-0.374984,-0.287862,0
2024-11-26 21:46:45.943,0.040678,2.72931,8.50858,0.545639,-0.387812,-0.230442,0
2024-11-26 21:46:45.945,-0.0933201,2.75085,8.38654,0.508988,-0.405526,-0.160195,0
2024-11-26 21:46:45.947,-0.191426,2.76281,8.3028,0.508988,-0.405526,-0.160195,0
2024-11-26 21:46:45.949,-0.256032,2.74606,8.24298,0.489441,-0.414689,-0.118657,0
2024-11-26 21:46:45.951,-0.27996,2.71974,8.19512,0.471116,-0.426906,-0.0783412,0
2024-11-26 21:46:45.954,-0.251246,2.68146,8.15923,0.451569,-0.436069,-0.0361927,0
2024-11-26 21:46:45.956,-0.200997,2.61924,8.13769,0.434465,-0.441566,0.00595576,0
2024-11-26 21:46:45.959,-0.124427,2.5666,8.12782,0.407588,-0.442788,0.0847551,0
2024-11-26 21:46:45.962,-0.0382852,2.52323,8.1015,0.395982,-0.436679,0.122017,0
2024-11-26 21:46:45.963,0.066999,2.4682,8.07279,0.395982,-0.436679,0.122017,0
2024-11-26 21:46:45.965,0.196211,2.41077,8.05604,0.385597,-0.419576,0.156224,0
2024-11-26 21:46:45.969,0.316152,2.35095,8.03211,0.373991,-0.375595,0.213033,0
2024-11-26 21:46:45.971,0.442971,2.29113,8.01536,0.373991,-0.375595,0.213033,0
2024-11-26 21:46:45.975,0.646361,2.19063,8.02014,0.361774,-0.323062,0.252738,0
2024-11-26 21:46:45.976,0.646361,2.19063,8.02014,0.35872,-0.297406,0.264955,0
2024-11-26 21:46:45.977,0.715753,2.12363,8.02014,0.35872,-0.297406,0.264955,0
2024-11-26 21:46:45.979,0.768395,2.08056,8.01775,0.35139,-0.270529,0.274729,0
2024-11-26 21:46:45.984,0.787538,1.9992,7.99382,0.342227,-0.228991,0.285113,0
2024-11-26 21:46:45.984,0.787538,1.9992,7.99382,0.342227,-0.228991,0.285113,0
2024-11-26 21:46:45.987,0.754038,1.97528,7.95793,0.33673,-0.210055,0.282059,0
2024-11-26 21:46:45.990,0.720539,1.95344,7.93161,0.331232,-0.191119,0.282059,0
2024-11-26 21:46:45.992,0.682254,1.95344,7.92922,0.317182,-0.159966,0.269842,0
2024-11-26 21:46:45.995,0.610469,1.92473,7.93639,0.317182,-0.159966,0.269842,0
2024-11-26 21:46:45.998,0.52672,1.81705,7.78804,0.298246,-0.13431,0.247851,0
2024-11-26 21:46:45.999,0.52672,1.81705,7.78804,0.298246,-0.13431,0.247851,0
2024-11-26 21:46:46.002,0.486042,1.80509,7.69233,0.286029,-0.123926,0.236245,0
2024-11-26 21:46:46.004,0.447757,1.81226,7.63251,0.269536,-0.109876,0.220974,0
2024-11-26 21:46:46.005,0.402293,1.82901,7.59183,0.253654,-0.0982701,0.202649,0
2024-11-26 21:46:46.009,0.354437,1.83859,7.54128,0.236551,-0.0848314,0.184323,0
2024-11-26 21:46:46.010,0.328116,1.84576,7.45035,0.217614,-0.0707819,0.162944,0
2024-11-26 21:46:46.012,0.32333,1.89123,7.38814,0.194402,-0.0524565,0.140953,0
2024-11-26 21:46:46.016,0.294616,1.94148,7.35464,0.144313,-0.00358873,0.0963612,0
2024-11-26 21:46:46.018,0.212961,1.94387,7.30439,0.144313,-0.00358873,0.0963612,0
2024-11-26 21:46:46.022,0.0957129,1.90319,7.20628,0.119879,0.0300079,0.0505476,0
2024-11-26 21:46:46.025,-0.0143569,1.90319,7.20628,0.0575724,0.0972011,0.0316113,0
2024-11-26 21:46:46.025,-0.11007,1.91755,7.12493,0.0575724,0.0972011,0.0316113,0
2024-11-26 21:46:46.026,-0.189033,1.95583,7.06032,0.0245866,0.123468,0.00656661,0
2024-11-26 21:46:46.030,-0.285045,2.0327,7.02682,0.0245866,0.123468,0.00656661,0
2024-11-26 21:46:46.031,-0.404686,2.13559,7.04357,-0.0407741,0.156453,-0.0355819,0
2024-11-26 21:46:46.035,-0.52672,2.22174,7.09861,-0.0988045,0.15401,-0.071011,0
2024-11-26 21:46:46.037,-0.63679,2.30788,7.17039,-0.12446,0.142404,-0.0850605,0
2024-11-26 21:46:46.039,-0.751645,2.39641,7.23739,-0.12446,0.142404,-0.0850605,0
2024-11-26 21:46:46.041,-0.869193,2.4682,7.29003,-0.142175,0.129576,-0.0972774,0
2024-11-26 21:46:46.044,-0.945763,2.52832,7.3331,-0.168517,0.0910926,-0.117435,0
2024-11-26 21:46:46.046,-0.991227,2.58096,7.37378,-0.155613,0.111861,-0.117435,0
2024-11-26 21:46:46.049,-1.0319,2.6336,7.41207,-0.183789,0.0471116,-0.137593,0
2024-11-26 21:46:46.051,-1.04865,2.67428,7.44317,-0.183789,0.0471116,-0.137593,0
2024-11-26 21:46:46.053,-1.04148,2.69821,7.48624,-0.183789,0.0471116,-0.137593,0
2024-11-26 21:46:46.056,-1.02951,2.71256,7.54607,-0.175848,-0.0286335,-0.162638,0
2024-11-26 21:46:46.058,-0.988834,2.74606,7.58704,-0.175848,-0.0286335,-0.162638,0
2024-11-26 21:46:46.060,-0.952942,2.77717,7.63011,-0.167907,-0.0530674,-0.169968,0
2024-11-26 21:46:46.062,-0.919442,2.79631,7.67079,-0.155613,-0.082388,-0.179131,0
2024-11-26 21:46:46.064,-0.864407,2.82024,7.6995,-0.143396,-0.110487,-0.188294,0
2024-11-26 21:46:46.067,-0.816252,2.8346,7.73061,-0.129958,-0.142862,-0.195624,0
2024-11-26 21:46:46.070,-0.768395,2.83699,7.75454,-0.0945286,-0.202114,-0.213338,0
2024-11-26 21:46:46.074,-0.667897,2.85613,7.77129,-0.0713164,-0.229602,-0.221279,0
2024-11-26 21:46:46.075,-0.667897,2.85613,7.77129,-0.0481042,-0.254036,-0.229831,0
2024-11-26 21:46:46.077,-0.608076,2.85135,7.71625,-0.0255029,-0.277248,-0.235329,0
2024-11-26 21:46:46.079,-0.545863,2.84178,7.64447,-0.0255029,-0.277248,-0.235329,0
2024-11-26 21:46:46.082,-0.502792,2.83938,7.57747,-0.00106898,-0.299239,-0.242659,0
2024-11-26 21:46:46.083,-0.459721,2.82981,7.49582,0.0209215,-0.318175,-0.248157,0
2024-11-26 21:46:46.085,-0.407079,2.81785,7.41685,0.0459663,-0.335279,-0.254265,0
2024-11-26 21:46:46.091,-0.328116,2.77717,7.33071,0.116214,-0.377427,-0.27198,0
2024-11-26 21:46:46.093,-0.328116,2.77717,7.33071,0.116214,-0.377427,-0.27198,0
2024-11-26 21:46:46.093,-0.27996,2.75803,7.27568,0.116214,-0.377427,-0.27198,0
2024-11-26 21:46:46.098,-0.22014,2.76281,7.16082,0.158362,-0.392698,-0.282975,0
2024-11-26 21:46:46.098,-0.22014,2.76281,7.16082,0.158362,-0.392698,-0.282975,0
2024-11-26 21:46:46.102,-0.141177,2.81067,7.04597,0.195624,-0.39392,-0.292138,0
2024-11-26 21:46:46.103,-0.141177,2.81067,7.04597,0.195624,-0.39392,-0.292138,0
2024-11-26 21:46:46.105,-0.0861416,2.83699,6.96192,0.22861,-0.378038,-0.298857,0
2024-11-26 21:46:46.108,-0.040678,2.86092,6.89253,0.22861,-0.378038,-0.298857,0
2024-11-26 21:46:46.110,0.0,2.87049,6.82313,0.245102,-0.358491,-0.299468,0
2024-11-26 21:46:46.111,0.0693919,2.87288,6.74656,0.25793,-0.335279,-0.3013,0
2024-11-26 21:46:46.114,0.102891,2.8681,6.69153,0.25793,-0.335279,-0.3013,0
2024-11-26 21:46:46.117,0.0693919,2.86331,6.66999,0.277477,-0.276027,-0.306187,0
2024-11-26 21:46:46.119,0.0454636,2.86092,6.66042,0.282975,-0.232656,-0.304965,0
2024-11-26 21:46:46.122,0.0550349,2.84417,6.64128,0.290305,-0.1844,-0.301911,0
2024-11-26 21:46:46.123,0.0598206,2.83699,6.6341,0.295192,-0.136753,-0.296414,0
2024-11-26 21:46:46.125,0.0143569,2.84417,6.65324,0.297635,-0.0897182,-0.287862,0
2024-11-26 21:46:46.131,-0.157926,2.85853,6.7346,0.296414,0.0171801,-0.239605,0
2024-11-26 21:46:46.132,-0.157926,2.85853,6.74178,0.296414,0.0171801,-0.239605,0
2024-11-26 21:46:46.133,-0.258425,2.8681,6.74178,0.296414,0.0171801,-0.239605,0
2024-11-26 21:46:46.136,-0.390329,2.86331,6.73221,0.287251,0.0593285,-0.182185,0
2024-11-26 21:46:46.140,-0.660718,2.84895,6.68196,0.281142,0.0745997,-0.149199,0
2024-11-26 21:46:46.141,-0.660718,2.84895,6.68196,0.273201,0.0868167,-0.108884,0
2024-11-26 21:46:46.143,-0.818644,2.84417,6.64846,0.26526,0.0996445,-0.0642917,0
2024-11-26 21:46:46.145,-0.988834,2.84895,6.62453,0.26526,0.0996445,-0.0642917,0
2024-11-26 21:46:46.149,-1.24965,2.88245,6.5671,0.249989,0.113083,0.0383307,0
2024-11-26 21:46:46.149,-1.24965,2.88245,6.5671,0.249989,0.113083,0.0383307,0
2024-11-26 21:46:46.155,-1.41984,2.93749,6.50728,0.232886,0.116748,0.148283,0
2024-11-26 21:46:46.155,-1.41984,2.93749,6.50728,0.232886,0.116748,0.148283,0
2024-11-26 21:46:46.158,-1.4653,2.99013,6.42563,0.212117,0.113694,0.252738,0
2024-11-26 21:46:46.158,-1.4653,2.99013,6.42563,0.212117,0.113694,0.252738,0
2024-11-26 21:46:46.163,-1.44855,3.04756,6.45703,0.191348,0.0953685,0.344976,0
2024-11-26 21:46:46.164,-1.4342,3.04756,6.45703,0.191348,0.0953685,0.344976,0
2024-11-26 21:46:46.166,-1.43181,3.05713,6.49532,0.180964,0.0843733,0.38407,0
2024-11-26 21:46:46.168,-1.4342,3.06192,6.54557,0.170579,0.0745997,0.418278,0
2024-11-26 21:46:46.171,-1.41266,3.07867,6.59342,0.14981,0.0629936,0.478752,0
2024-11-26 21:46:46.174,-1.3669,3.10289,6.6341,0.140648,0.0666587,0.503185,0
2024-11-26 21:46:46.177,-1.25683,3.14357,6.77049,0.140648,0.0666587,0.503185,0
2024-11-26 21:46:46.177,-1.25683,3.14357,6.77049,0.140648,0.0666587,0.503185,0
2024-11-26 21:46:46.181,-1.1994,3.16271,6.8662,0.122322,0.0770431,0.558773,0
2024-11-26 21:46:46.183,-1.1348,3.17468,6.95952,0.122322,0.0770431,0.558773,0
2024-11-26 21:46:46.185,-1.0654,3.19382,7.03161,0.114992,0.085595,0.586261,0
2024-11-26 21:46:46.188,-0.991227,3.21296,7.08904,0.114992,0.085595,0.586261,0
2024-11-26 21:46:46.191,-0.84018,3.24168,7.17996,0.105218,0.093536,0.600921,0
2024-11-26 21:46:46.192,-0.84018,3.24168,7.17996,0.105218,0.093536,0.600921,0
2024-11-26 21:46:46.196,-0.708575,3.26321,7.23978,0.0917798,0.100255,0.613749,0
2024-11-26 21:46:46.199,-0.655932,3.29432,7.24936,0.0856713,0.102699,0.616192,0
2024-11-26 21:46:46.201,-0.60329,3.32064,7.26611,0.0746761,0.105142,0.619857,0
2024-11-26 21:46:46.202,-0.60329,3.32064,7.26611,0.0746761,0.105142,0.619857,0
2024-11-26 21:46:46.203,-0.538684,3.33021,7.27328,0.06307,0.104531,0.620468,0
2024-11-26 21:46:46.205,-0.476471,3.34696,7.28764,0.0465771,0.0990336,0.618636,0
2024-11-26 21:46:46.209,-0.423829,3.36371,7.32114,0.0325276,0.093536,0.615581,0
2024-11-26 21:46:46.210,-0.35683,3.39242,7.37139,0.0129805,0.0868167,0.608251,0
2024-11-26 21:46:46.213,-0.294616,3.41396,7.41446,-0.00656661,0.0837624,0.597256,0
2024-11-26 21:46:46.215,-0.200997,3.43071,7.45514,-0.0310005,0.0758214,0.583817,0
2024-11-26 21:46:46.217,-0.0909273,3.46182,7.5006,-0.0310005,0.0758214,0.583817,0
2024-11-26 21:46:46.220,0.0,3.49532,7.53649,-0.0774249,0.0837624,0.551442,0
2024-11-26 21:46:46.223,0.102891,3.52642,7.5676,-0.104913,0.0892601,0.52823,0
2024-11-26 21:46:46.224,0.20339,3.56471,7.60618,-0.133012,0.0959794,0.500131,0
2024-11-26 21:46:46.228,0.292223,3.61735,7.65404,-0.196006,0.11064,0.437214,0
2024-11-26 21:46:46.232,0.325723,3.69183,7.733,-0.224715,0.122246,0.404839,0
2024-11-26 21:46:46.232,0.253639,3.78515,7.83829,-0.224715,0.122246,0.404839,0
2024-11-26 21:46:46.236,0.189033,3.89043,8.11107,-0.279692,0.154621,0.342533,0
2024-11-26 21:46:46.239,0.150748,3.91436,8.25015,-0.299239,0.177222,0.310769,0
2024-11-26 21:46:46.239,0.150748,3.91436,8.25015,-0.299239,0.177222,0.310769,0
2024-11-26 21:46:46.241,0.0909273,3.97179,8.42962,-0.32184,0.198602,0.277783,0
2024-11-26 21:46:46.244,0.0239282,4.05793,8.64258,-0.335279,0.216316,0.249073,0
2024-11-26 21:46:46.247,-0.066999,4.168,8.85105,-0.346885,0.232809,0.216087,0
2024-11-26 21:46:46.248,-0.167498,4.28555,9.05683,-0.351161,0.241972,0.188599,0
2024-11-26 21:46:46.253,-0.352044,4.53201,9.49023,-0.347496,0.248691,0.145229,0
2024-11-26 21:46:46.254,-0.270389,4.53201,9.49023,-0.347496,0.248691,0.145229,0
2024-11-26 21:46:46.255,-0.431007,4.64208,9.68884,-0.337722,0.247469,0.125071,0
2024-11-26 21:46:46.258,-0.54347,4.75932,9.85664,-0.324894,0.243194,0.110411,0
2024-11-26 21:46:46.260,-0.646361,4.86491,10.0074,-0.310234,0.237696,0.0988045,0
2024-11-26 21:46:46.263,-0.734896,4.97019,10.1557,-0.291298,0.229755,0.0914744,0
2024-11-26 21:46:46.267,-0.950549,5.18315,10.3543,-0.245484,0.210208,0.0920852,0
2024-11-26 21:46:46.268,-0.950549,5.18315,10.3543,-0.245484,0.210208,0.0920852,0
2024-11-26 21:46:46.270,-1.05823,5.26451,10.4599,-0.223494,0.199213,0.0957503,0
2024-11-26 21:46:46.271,-1.15394,5.32672,10.5652,-0.200282,0.188828,0.101248,0
2024-11-26 21:46:46.274,-1.24726,5.3677,10.6753,-0.17768,0.17539,0.111632,0
2024-11-26 21:46:46.276,-1.31665,5.41077,10.8045,-0.155613,0.158897,0.12446,0
2024-11-26 21:46:46.280,-1.37408,5.43709,10.9436,-0.132401,0.138739,0.137899,0
2024-11-26 21:46:46.281,-1.43181,5.44427,11.08,-0.109189,0.117359,0.153781,0
2024-11-26 21:46:46.284,-1.47727,5.45145,11.2092,-0.0658188,0.0660479,0.190432,0
2024-11-26 21:46:46.287,-1.47488,5.45863,11.3192,-0.0658188,0.0660479,0.190432,0
2024-11-26 21:46:46.288,-1.43659,5.4682,11.4054,-0.0499368,0.0446682,0.209368,0
2024-11-26 21:46:46.291,-1.37647,5.45145,11.4796,-0.0334439,0.0257319,0.227693,0
2024-11-26 21:46:46.294,-1.29272,5.42513,11.5301,-0.0224486,0.00862822,0.244186,0
2024-11-26 21:46:46.295,-1.18744,5.39641,11.5756,-0.0102317,-0.00481042,0.259457,0
2024-11-26 21:46:46.298,-1.06062,5.37009,11.6378,-0.00167983,-0.0164165,0.271063,0
2024-11-26 21:46:46.301,-0.921835,5.34856,11.6904,0.00626118,-0.0237467,0.282059,0
2024-11-26 21:46:46.302,-0.775574,5.30997,11.7168,0.00870457,-0.0322986,0.290611,0
2024-11-26 21:46:46.305,-0.615255,5.27169,11.755,0.00809373,-0.0408504,0.293665,0
2024-11-26 21:46:46.310,-0.308973,5.22383,11.8555,0.00198525,-0.0481806,0.294886,0
2024-11-26 21:46:46.310,-0.308973,5.22383,11.8555,0.00198525,-0.0481806,0.294886,0
2024-11-26 21:46:46.311,-0.16989,5.18315,11.8986,-0.00656661,-0.0481806,0.29,0
2024-11-26 21:46:46.314,-0.0574277,5.14965,11.9417,-0.0157293,-0.0487914,0.281448,0
2024-11-26 21:46:46.320,0.138784,5.08505,12.0613,-0.0554344,-0.038407,0.246019,0
2024-11-26 21:46:46.320,0.138784,5.08505,12.0613,-0.0554344,-0.038407,0.246019,0
2024-11-26 21:46:46.324,0.253639,5.02283,12.1071,-0.068873,-0.0335202,0.230748,0
2024-11-26 21:46:46.324,0.354437,4.9678,12.1382,-0.068873,-0.0335202,0.230748,0
2024-11-26 21:46:46.329,0.483649,4.81466,12.2052,-0.100637,-0.0158057,0.194708,0
2024-11-26 21:46:46.329,0.483649,4.81466,12.2052,-0.100637,-0.0158057,0.194708,0
2024-11-26 21:46:46.333,0.627219,4.69233,12.3057,-0.116519,0.0019089,0.173328,0
2024-11-26 21:46:46.334,0.627219,4.69233,12.3057,-0.144007,0.0397814,0.128125,0
2024-11-26 21:46:46.338,0.696611,4.65165,12.3344,-0.157446,0.0568851,0.103691,0
2024-11-26 21:46:46.338,0.742074,4.65165,12.3679,-0.157446,0.0568851,0.103691,0
2024-11-26 21:46:46.340,0.813859,4.66361,12.4229,-0.167907,0.0800973,0.0786466,0
2024-11-26 21:46:46.343,0.893121,4.69472,12.4828,-0.178902,0.100866,0.0517693,0
2024-11-26 21:46:46.347,1.00319,4.88884,12.5378,-0.193562,0.141793,-0.000152712,0
2024-11-26 21:46:46.348,1.00319,4.88884,12.5378,-0.193562,0.141793,-0.000152712,0
2024-11-26 21:46:46.350,0.998405,4.99891,12.545,-0.19906,0.153399,-0.0282517,0
2024-11-26 21:46:46.352,0.893121,5.11855,12.4995,-0.200892,0.14668,-0.0532964,0
2024-11-26 21:46:46.357,0.658325,5.4682,12.5904,-0.194173,0.195547,-0.114381,0
2024-11-26 21:46:46.357,0.658325,5.4682,12.5904,-0.194173,0.195547,-0.114381,0
2024-11-26 21:46:46.360,0.538684,5.65962,12.6601,-0.194173,0.195547,-0.114381,0
2024-11-26 21:46:46.362,0.354437,5.81516,12.696,-0.180734,0.236474,-0.130874,0
2024-11-26 21:46:46.364,0.155533,5.89681,12.7463,-0.150116,0.286564,-0.155919,0
2024-11-26 21:46:46.367,-0.0143569,5.92792,12.7989,-0.150116,0.286564,-0.155919,0
2024-11-26 21:46:46.368,-0.172283,5.94945,12.8587,-0.132401,0.296948,-0.16386,0
2024-11-26 21:46:46.371,-0.34008,5.91596,12.9377,-0.114687,0.29817,-0.169968,0
2024-11-26 21:46:46.374,-0.498006,5.83669,13.0286,-0.0786466,0.285342,-0.168747,0
2024-11-26 21:46:46.376,-0.639183,5.74577,13.1483,-0.0786466,0.285342,-0.168747,0
2024-11-26 21:46:46.378,-0.785145,5.62852,13.2802,-0.0603212,0.273125,-0.166303,0
2024-11-26 21:46:46.381,-0.919442,5.48973,13.4261,-0.0267246,0.243194,-0.143091,0
2024-11-26 21:46:46.383,-1.02951,5.32433,13.5721,-0.0132859,0.227312,-0.127209,0
2024-11-26 21:46:46.385,-1.11087,5.15683,13.7109,-0.0132859,0.227312,-0.127209,0
2024-11-26 21:46:46.389,-1.22812,4.77398,13.9481,0.0142022,0.185163,-0.0826171,0
2024-11-26 21:46:46.389,-1.22812,4.77398,13.9481,0.0142022,0.185163,-0.0826171,0
2024-11-26 21:46:46.392,-1.23529,4.55593,14.0629,0.0239758,0.164394,-0.0557398,0
2024-11-26 21:46:46.395,-1.2018,4.32622,14.1395,0.0306951,0.146069,-0.0245866,0
2024-11-26 21:46:46.400,-1.07019,3.79232,14.2807,0.0380252,0.116748,0.0407741,0
2024-11-26 21:46:46.400,-1.07019,3.79232,14.2807,0.0380252,0.116748,0.0407741,0
2024-11-26 21:46:46.402,-1.03908,3.49053,14.2926,0.0313059,0.0825407,0.114687,0
2024-11-26 21:46:46.404,-0.988834,3.21536,14.3336,0.0313059,0.0825407,0.114687,0
2024-11-26 21:46:46.406,-0.854836,2.97338,14.4796,0.0209215,0.0953685,0.156224,0
2024-11-26 21:46:46.409,-0.689432,2.75324,14.6542,0.0117588,0.128965,0.194097,0
2024-11-26 21:46:46.411,-0.54347,2.52832,14.7858,0.000763559,0.172946,0.233802,0
2024-11-26 21:46:46.413,-0.41665,2.30788,14.9034,-0.0108425,0.216927,0.269231,0
2024-11-26 21:46:46.415,-0.282652,2.08295,14.968,-0.0273354,0.258465,0.303438,0
2024-11-26 21:46:46.418,-0.160319,1.86969,14.9919,-0.0474934,0.293283,0.337646,0
2024-11-26 21:46:46.421,-0.026321,1.68544,15.0637,-0.0896418,0.358644,0.397509,0
2024-11-26 21:46:46.423,0.141177,1.52991,15.1881,-0.110411,0.398349,0.424386,0
2024-11-26 21:46:46.427,0.502792,1.24965,15.3867,-0.129958,0.439886,0.448209,0
2024-11-26 21:46:46.428,0.502792,1.24965,15.3867,-0.129958,0.439886,0.448209,0
2024-11-26 21:46:46.430,0.643968,1.15633,15.4179,-0.144618,0.481424,0.468367,1
2024-11-26 21:46:46.432,0.744467,1.08215,15.4298,-0.157446,0.524183,0.485471,0
2024-11-26 21:46:46.434,0.804287,1.01755,15.4564,-0.163554,0.562667,0.501964,0
2024-11-26 21:46:46.436,0.816252,0.991227,15.478,-0.158668,0.600539,0.514181,0
2024-11-26 21:46:46.440,0.789931,0.99362,15.4828,-0.14584,0.634136,0.525176,0
2024-11-26 21:46:46.442,0.775574,1.02712,15.4469,-0.0914744,0.697664,0.54228,0
2024-11-26 21:46:46.443,0.76361,1.08694,15.37,-0.0914744,0.697664,0.54228,0
2024-11-26 21:46:46.447,0.725324,1.1683,15.2862,-0.0505476,0.720876,0.545334,0
2024-11-26 21:46:46.448,0.689432,1.26879,15.2001,-0.0505476,0.720876,0.545334,0
2024-11-26 21:46:46.450,0.658325,1.40548,15.0829,0.058794,0.748364,0.546556,0
2024-11-26 21:46:46.453,0.627219,1.5323,14.9584,0.126598,0.748975,0.543501,0
2024-11-26 21:46:46.455,0.615255,1.63998,14.8241,0.1999,0.736758,0.539836,0
2024-11-26 21:46:46.459,0.610469,1.78116,14.6327,0.280532,0.689112,0.528841,0
2024-11-26 21:46:46.461,0.579362,1.89841,14.4078,0.367272,0.689112,0.528841,0
2024-11-26 21:46:46.463,0.536291,1.98485,14.1299,0.458288,0.652461,0.519067,0
2024-11-26 21:46:46.465,0.4669,2.07099,13.8093,0.547472,0.604815,0.505018,0
2024-11-26 21:46:46.470,0.270389,2.20977,13.0765,0.731948,0.492419,0.47753,0
2024-11-26 21:46:46.472,0.150748,2.25524,12.6553,0.731948,0.492419,0.47753,0
2024-11-26 21:46:46.473,0.150748,2.25524,12.6553,0.731948,0.492419,0.47753,0
2024-11-26 21:46:46.474,-0.0167498,2.27916,12.2291,0.908483,0.368417,0.449431,0
2024-11-26 21:46:46.477,-0.210568,2.30309,11.7838,0.991558,0.312219,0.439046,0
2024-11-26 21:46:46.480,-0.397508,2.30788,11.3073,1.06975,0.257854,0.42683,0
2024-11-26 21:46:46.482,-0.60329,2.29352,10.8236,1.06975,0.257854,0.42683,0
2024-11-26 21:46:46.483,-0.80668,2.29352,10.3448,1.20597,0.158897,0.415223,0
2024-11-26 21:46:46.487,-1.00319,2.28156,9.88774,1.26033,0.112472,0.41278,0
2024-11-26 21:46:46.489,-1.18744,2.24566,9.47827,1.30553,0.0709346,0.408504,0
2024-11-26 21:46:46.490,-1.32383,2.21456,9.04008,1.3428,0.0330621,0.410337,0
2024-11-26 21:46:46.493,-1.42941,2.21216,8.55643,1.36906,-0.00358873,0.411558,0
2024-11-26 21:46:46.496,-1.54905,2.22413,8.09432,1.38983,-0.074447,0.418278,0
2024-11-26 21:46:46.499,-1.65434,2.23609,7.68276,1.38983,-0.074447,0.418278,0
2024-11-26 21:46:46.500,-1.69741,2.30309,7.32114,1.38311,-0.101324,0.422554,0
2024-11-26 21:46:46.502,-1.73569,2.34856,6.97388,1.3715,-0.129423,0.42744,0
2024-11-26 21:46:46.505,-1.78834,2.29591,6.60299,1.3715,-0.129423,0.42744,0
2024-11-26 21:46:46.507,-1.83859,2.22652,6.27009,1.3208,-0.172793,0.439046,0
2024-11-26 21:46:46.509,-1.86251,2.16192,6.09781,1.28354,-0.1844,0.445766,0
2024-11-26 21:46:46.512,-1.88883,2.10209,5.99492,1.23895,-0.195395,0.450042,0
2024-11-26 21:46:46.515,-1.94626,2.07577,5.72662,1.19069,-0.213109,0.455539,0
2024-11-26 21:46:46.516,-1.95583,2.07338,5.25972,1.13572,-0.225326,0.461648,0
2024-11-26 21:46:46.520,-1.90558,2.08774,4.83619,1.07463,-0.224105,0.468367,0
2024-11-26 21:46:46.521,-1.78355,2.19541,4.60618,1.00683,-0.216774,0.474476,0
2024-11-26 21:46:46.526,-1.77637,2.17866,4.45544,0.859615,-0.196616,0.47753,0
2024-11-26 21:46:46.527,-1.77637,2.17866,4.45544,0.859615,-0.196616,0.47753,0
2024-11-26 21:46:46.531,-1.82901,2.04467,4.16082,0.780205,-0.166685,0.483027,0
2024-11-26 21:46:46.534,-1.82901,1.93669,4.16082,0.610389,-0.145916,0.48486,0
2024-11-26 21:46:46.535,-1.6663,1.87687,3.833,0.51754,-0.118428,0.483027,0
2024-11-26 21:46:46.536,-1.6663,1.87687,3.833,0.51754,-0.118428,0.483027,0
2024-11-26 21:46:46.541,-1.51795,1.88405,3.89761,0.33001,-0.0683385,0.472032,0
2024-11-26 21:46:46.542,-1.45095,1.86491,4.0005,0.242048,-0.050624,0.465313,0
2024-11-26 21:46:46.543,-1.51795,1.88405,3.89761,0.242048,-0.050624,0.465313,0
2024-11-26 21:46:46.545,-1.36929,1.86012,4.09143,0.152865,-0.0347419,0.457372,0
2024-11-26 21:46:46.549,-1.15394,1.82662,4.3669,-0.0200052,-0.00786466,0.437825,0
2024-11-26 21:46:46.549,-1.15394,1.82662,4.3669,-0.0200052,-0.00786466,0.437825,0
2024-11-26 21:46:46.553,-1.04387,1.82423,4.56072,-0.181956,0.0110716,0.406672,0
2024-11-26 21:46:46.555,-0.933799,1.82901,4.78116,-0.181956,0.0110716,0.406672,0
2024-11-26 21:46:46.557,-0.821037,1.85294,4.99412,-0.255258,0.0129041,0.388957,0
2024-11-26 21:46:46.560,-0.708575,1.86012,5.19751,-0.322451,0.0153475,0.370021,0
2024-11-26 21:46:46.561,-0.591326,1.84576,5.40838,-0.383536,0.0159584,0.349252,0
2024-11-26 21:46:46.563,-0.478864,1.86491,5.6333,-0.43729,0.013515,0.32604,0
2024-11-26 21:46:46.568,-0.256032,1.88883,6.11695,-0.527085,0.00862822,0.277172,0
2024-11-26 21:46:46.569,-0.256032,1.88883,6.11695,-0.527085,0.00862822,0.277172,0
2024-11-26 21:46:46.572,-0.143569,1.91516,6.35384,-0.593667,0.00679568,0.221585,0
2024-11-26 21:46:46.574,-0.0287139,1.94387,6.58385,-0.593667,0.00679568,0.221585,0
2024-11-26 21:46:46.576,0.0550349,1.95344,6.79681,-0.632761,7.63559e-05,0.167219,0
2024-11-26 21:46:46.579,0.124427,1.97528,6.98585,-0.632761,7.63559e-05,0.167219,0
2024-11-26 21:46:46.582,0.224925,2.02552,7.31635,-0.647422,-0.00542127,0.115297,0
2024-11-26 21:46:46.586,0.256032,2.05902,7.46232,-0.640702,-0.0139731,0.0694839,0
2024-11-26 21:46:46.588,0.256032,2.05902,7.46232,-0.630929,-0.0206925,0.0462717,0
2024-11-26 21:46:46.588,0.270389,2.0997,7.60618,-0.630929,-0.0206925,0.0462717,0
2024-11-26 21:46:46.593,0.236889,2.18584,7.86461,-0.594278,-0.0329094,0.00901,0
2024-11-26 21:46:46.595,0.236889,2.18584,7.86461,-0.568622,-0.0402396,-0.00442864,0
2024-11-26 21:46:46.595,0.229711,2.21934,7.97229,-0.568622,-0.0402396,-0.00442864,0
2024-11-26 21:46:46.597,0.210568,2.25045,8.05604,-0.568622,-0.0402396,-0.00442864,0
2024-11-26 21:46:46.601,0.20339,2.26241,8.13769,-0.511203,-0.0500131,-0.034971,0
2024-11-26 21:46:46.602,0.191426,2.27199,8.19512,-0.511203,-0.0500131,-0.034971,0
