timestamp,accel_x,accel_y,accel_z,gyro_x,gyro_y,gyro_z,step_timestamp
2024-11-26 21:46:20.236,-0.699003,3.19143,9.77019,-0.0664296,0.124078,-0.0355819,0
2024-11-26 21:46:20.236,-0.699003,3.19143,9.77019,-0.0664296,0.124078,-0.0355819,0
2024-11-26 21:46:20.236,-0.699003,3.19143,9.77019,-0.0664296,0.124078,-0.0355819,0
2024-11-26 21:46:20.236,-0.699003,3.19143,9.77019,-0.0664296,0.124078,-0.0355819,0
2024-11-26 21:46:20.236,-0.699003,3.19143,9.77019,-0.0664296,0.124078,-0.0355819,0
2024-11-26 21:46:20.236,-0.699003,3.19143,9.77019,-0.0664296,0.124078,-0.0355819,0
2024-11-26 21:46:20.236,-0.699003,3.19143,9.77019,-0.0664296,0.124078,-0.0355819,0
2024-11-26 21:46:20.237,-0.699003,3.19143,9.77019,-0.0664296,0.124078,-0.0319168,0
2024-11-26 21:46:20.237,-0.699003,3.19143,9.77019,-0.0664296,0.124078,-0.0319168,0
2024-11-26 21:46:20.237,-0.699003,3.19143,9.77019,-0.0664296,0.124078,-0.0319168,0
2024-11-26 21:46:20.237,-0.699003,3.19143,9.77019,-0.0664296,0.124078,-0.0319168,0
2024-11-26 21:46:20.237,-0.699003,3.19143,9.77019,-0.0664296,0.124078,-0.0319168,0
2024-11-26 21:46:20.237,-0.699003,3.19143,9.77019,-0.0664296,0.124078,-0.0319168,0
2024-11-26 21:46:20.237,-0.699003,3.19143,9.77019,-0.0664296,0.124078,-0.0319168,0
2024-11-26 21:46:20.237,-0.699003,3.19143,9.77019,-0.0664296,0.124078,-0.0319168,0
2024-11-26 21:46:20.237,-0.699003,3.19143,9.77019,-0.0664296,0.124078,-0.0319168,0
2024-11-26 21:46:20.237,-0.699003,3.19143,9.77019,-0.0664296,0.124078,-0.0319168,0
2024-11-26 21:46:20.237,-0.699003,3.19143,9.77019,-0.0664296,0.124078,-0.0319168,0
2024-11-26 21:46:20.237,-0.699003,3.19143,9.77019,-0.0664296,0.124078,-0.0319168,0
2024-11-26 21:46:20.237,-0.699003,3.19143,9.77019,-0.0664296,0.124078,-0.0319168,0
2024-11-26 21:46:20.237,-0.699003,3.19143,9.77019,-0.0664296,0.124078,-0.0319168,0
2024-11-26 21:46:20.249,-0.785145,3.2345,9.53091,-0.0664296,0.124078,-0.0319168,0
2024-11-26 21:46:20.255,-0.85005,3.28235,9.4017,-0.0322222,0.134463,-0.0319168,0
2024-11-26 21:46:20.255,-0.85005,3.28235,9.4017,-0.0322222,0.134463,-0.0319168,0
2024-11-26 21:46:20.256,-0.85005,3.28235,9.4017,-0.0322222,0.134463,-0.0319168,0
2024-11-26 21:46:20.256,-0.85005,3.28235,9.4017,-0.0322222,0.134463,-0.0319168,0
2024-11-26 21:46:20.257,-0.869193,3.30868,9.34906,-0.0322222,0.134463,-0.0319168,0
2024-11-26 21:46:20.258,-0.869193,3.30868,9.34906,-0.0322222,0.134463,-0.0319168,0
2024-11-26 21:46:20.264,-0.917049,3.39482,9.1358,-0.00351237,0.132019,-0.0447446,0
2024-11-26 21:46:20.264,-0.917049,3.39482,9.1358,-0.00351237,0.132019,-0.0447446,0
2024-11-26 21:46:20.265,-0.919442,3.36132,9.20758,0.00198525,0.125911,-0.0453554,0
2024-11-26 21:46:20.265,-0.917049,3.39482,9.1358,0.00198525,0.125911,-0.0453554,0
2024-11-26 21:46:20.268,-0.917049,3.4355,9.0688,0.00992627,0.119802,-0.0496313,0
2024-11-26 21:46:20.268,-0.917049,3.4355,9.0688,0.00992627,0.119802,-0.0496313,0
2024-11-26 21:46:20.269,-0.917049,3.46182,9.00898,0.00992627,0.119802,-0.0496313,0
2024-11-26 21:46:20.269,-0.948156,3.46182,9.00898,0.00992627,0.119802,-0.0496313,0
2024-11-26 21:46:20.270,-0.948156,3.46182,9.00898,0.00992627,0.119802,-0.0496313,0
2024-11-26 21:46:20.270,-0.948156,3.46182,9.00898,0.00992627,0.119802,-0.0496313,0
2024-11-26 21:46:20.271,-0.957727,3.48335,8.95394,0.0129805,0.112472,-0.055129,0
2024-11-26 21:46:20.272,-0.957727,3.48335,8.95394,0.0129805,0.112472,-0.055129,0
2024-11-26 21:46:20.272,-0.957727,3.48335,8.95394,0.0129805,0.112472,-0.055129,0
2024-11-26 21:46:20.274,-0.952942,3.50489,8.9013,0.0172564,0.10331,-0.0624591,0
2024-11-26 21:46:20.275,-0.952942,3.50489,8.9013,0.0196998,0.0941468,-0.0679568,0
2024-11-26 21:46:20.276,-0.94337,3.52642,8.85105,0.0196998,0.0941468,-0.0679568,0
2024-11-26 21:46:20.276,-0.94337,3.52642,8.85105,0.0196998,0.0941468,-0.0679568,0
2024-11-26 21:46:20.277,-0.94337,3.52642,8.85105,0.0196998,0.0941468,-0.0679568,0
2024-11-26 21:46:20.278,-0.926621,3.55035,8.82712,0.0203107,0.0825407,-0.0752869,0
2024-11-26 21:46:20.278,-0.926621,3.55035,8.82712,0.0203107,0.0825407,-0.0752869,0
2024-11-26 21:46:20.279,-0.926621,3.55035,8.82712,0.0203107,0.0825407,-0.0752869,0
2024-11-26 21:46:20.279,-0.926621,3.55035,8.82712,0.0203107,0.0825407,-0.0752869,0
2024-11-26 21:46:20.281,-0.921835,3.56949,8.82952,0.0178673,0.073378,-0.0838388,0
2024-11-26 21:46:20.281,-0.921835,3.56949,8.82952,0.0178673,0.073378,-0.0838388,0
2024-11-26 21:46:20.284,-0.921835,3.58146,8.82712,0.0154239,0.0483333,-0.101553,0
2024-11-26 21:46:20.284,-0.921835,3.58146,8.82712,0.0154239,0.0483333,-0.101553,0
2024-11-26 21:46:20.284,-0.921835,3.58146,8.82712,0.0154239,0.0483333,-0.101553,0
2024-11-26 21:46:20.286,-0.924228,3.58385,8.84148,0.0154239,0.0483333,-0.101553,0
2024-11-26 21:46:20.286,-0.924228,3.58385,8.84148,0.0154239,0.0483333,-0.101553,0
2024-11-26 21:46:20.288,-0.952942,3.58864,8.8678,0.0123697,0.0287862,-0.113159,0
2024-11-26 21:46:20.288,-0.952942,3.58864,8.8678,0.0123697,0.0287862,-0.113159,0
2024-11-26 21:46:20.288,-0.952942,3.58864,8.8678,0.0123697,0.0287862,-0.113159,0
2024-11-26 21:46:20.289,-0.952942,3.58864,8.8678,0.0123697,0.0116825,-0.122322,0
2024-11-26 21:46:20.291,-0.97687,3.60299,8.90848,0.00320695,-0.00603212,-0.130874,0
2024-11-26 21:46:20.291,-0.97687,3.60299,8.90848,0.00320695,-0.00603212,-0.130874,0
2024-11-26 21:46:20.294,-1.00558,3.60778,8.96591,0.00320695,-0.00603212,-0.130874,0
2024-11-26 21:46:20.294,-1.00558,3.60778,8.96591,0.00320695,-0.00603212,-0.130874,0
2024-11-26 21:46:20.294,-1.00558,3.60778,8.96591,0.00320695,-0.00603212,-0.130874,0
2024-11-26 21:46:20.296,-1.05105,3.63171,9.02573,0.00198525,-0.0182491,-0.151643,0
2024-11-26 21:46:20.297,-1.08455,3.66311,9.09033,0.000152712,-0.030466,-0.151643,0
2024-11-26 21:46:20.298,-1.08455,3.66311,9.09033,-0.00106898,-0.0408504,-0.157751,0
2024-11-26 21:46:20.298,-1.08455,3.66311,9.09033,-0.00106898,-0.0408504,-0.157751,0
2024-11-26 21:46:20.301,-1.10848,3.69422,9.15255,0.000152712,-0.0439046,-0.164471,0
2024-11-26 21:46:20.302,-1.12044,3.73729,9.20519,0.000152712,-0.0439046,-0.164471,0
2024-11-26 21:46:20.302,-1.12044,3.73729,9.20519,0.000152712,-0.0439046,-0.164471,0
2024-11-26 21:46:20.303,-1.12044,3.73729,9.20519,0.000152712,-0.0439046,-0.164471,0
2024-11-26 21:46:20.304,-1.12283,3.76361,9.23869,0.000152712,-0.0439046,-0.164471,0
2024-11-26 21:46:20.307,-1.12283,3.7684,9.26052,0.000763559,-0.0439046,-0.174855,0
2024-11-26 21:46:20.307,-1.10848,3.7684,9.26052,0.000763559,-0.0439046,-0.174855,0
2024-11-26 21:46:20.308,-1.10848,3.7684,9.26052,0.000763559,-0.0439046,-0.174855,0
2024-11-26 21:46:20.311,-1.09651,3.77557,9.28684,0.00137441,-0.0365745,-0.187683,0
2024-11-26 21:46:20.312,-1.09651,3.77557,9.28684,0.00137441,-0.0365745,-0.187683,0
2024-11-26 21:46:20.315,-1.06062,3.78275,9.3012,-0.000458135,-0.0347419,-0.19318,0
2024-11-26 21:46:20.316,-1.03908,3.79472,9.31556,-0.00290152,-0.0329094,-0.1999,0
2024-11-26 21:46:20.317,-1.03908,3.79472,9.31556,-0.00290152,-0.0329094,-0.1999,0
2024-11-26 21:46:20.319,-1.02712,3.78275,9.3347,-0.00595576,-0.0292443,-0.204176,0
2024-11-26 21:46:20.319,-1.02712,3.78275,9.3347,-0.00595576,-0.0292443,-0.204176,0
2024-11-26 21:46:20.321,-0.996012,3.77557,9.37059,-0.00717746,-0.0268009,-0.209673,0
2024-11-26 21:46:20.322,-0.996012,3.77557,9.37059,-0.00717746,-0.0268009,-0.209673,0
2024-11-26 21:46:20.326,-0.936192,3.76122,9.5022,-0.0132859,-0.0200816,-0.223112,0
2024-11-26 21:46:20.327,-0.936192,3.76122,9.5022,-0.0126751,-0.0164165,-0.22922,0
2024-11-26 21:46:20.327,-0.936192,3.76122,9.5022,-0.0126751,-0.0164165,-0.22922,0
2024-11-26 21:46:20.329,-0.924228,3.74686,9.56441,-0.0175619,-0.0127514,-0.236551,0
2024-11-26 21:46:20.329,-0.924228,3.74686,9.56441,-0.0175619,-0.0127514,-0.236551,0
2024-11-26 21:46:20.331,-0.914656,3.7325,9.64816,-0.0175619,-0.0127514,-0.236551,0
2024-11-26 21:46:20.333,-0.9003,3.72772,9.73669,-0.0175619,-0.0127514,-0.236551,0
2024-11-26 21:46:20.334,-0.9003,3.72772,9.73669,-0.0224486,-0.00847551,-0.249378,0
2024-11-26 21:46:20.336,-0.9003,3.72533,9.80848,-0.0224486,-0.00847551,-0.249378,0
2024-11-26 21:46:20.337,-0.905085,3.7014,9.88296,-0.0224486,-0.00847551,-0.249378,0
2024-11-26 21:46:20.338,-0.905085,3.7014,9.88296,-0.0273354,-0.00481042,-0.260374,0
2024-11-26 21:46:20.341,-0.895514,3.67986,9.96192,-0.0273354,-0.00481042,-0.260374,0
2024-11-26 21:46:20.341,-0.895514,3.67986,9.96192,-0.0273354,-0.00481042,-0.260374,0
2024-11-26 21:46:20.342,-0.869193,3.68226,10.0457,-0.0261137,-0.00419957,-0.265871,0
2024-11-26 21:46:20.343,-0.869193,3.68226,10.0457,-0.0261137,-0.00419957,-0.265871,0
2024-11-26 21:46:20.345,-0.821037,3.68704,10.127,-0.024892,-0.00236703,-0.272591,0
2024-11-26 21:46:20.347,-0.768395,3.69661,10.1964,-0.0236703,-0.000534491,-0.278699,0
2024-11-26 21:46:20.347,-0.768395,3.69661,10.1964,-0.0236703,-0.000534491,-0.278699,0
2024-11-26 21:46:20.350,-0.703789,3.71097,10.261,-0.0187836,0.00801737,-0.295803,0
2024-11-26 21:46:20.352,-0.703789,3.71097,10.3184,-0.0187836,0.00801737,-0.295803,0
2024-11-26 21:46:20.352,-0.624826,3.71336,10.3184,-0.0187836,0.00801737,-0.295803,0
2024-11-26 21:46:20.354,-0.572184,3.71336,10.3807,-0.0187836,0.0184018,-0.306798,0
2024-11-26 21:46:20.355,-0.572184,3.71336,10.3807,-0.0187836,0.0184018,-0.306798,0
2024-11-26 21:46:20.356,-0.533899,3.69661,10.4647,-0.0187836,0.0184018,-0.306798,0
2024-11-26 21:46:20.357,-0.533899,3.69661,10.4647,-0.0175619,0.0477224,-0.328789,0
2024-11-26 21:46:20.359,-0.507577,3.65354,10.5365,-0.0175619,0.0477224,-0.328789,0
2024-11-26 21:46:20.361,-0.505185,3.62214,10.5891,-0.0138968,0.0611611,-0.339173,0
2024-11-26 21:46:20.362,-0.505185,3.62214,10.5891,-0.0102317,0.073378,-0.346503,0
2024-11-26 21:46:20.363,-0.536291,3.59103,10.6466,-0.0102317,0.073378,-0.346503,0
2024-11-26 21:46:20.364,-0.536291,3.59103,10.6466,-0.0102317,0.073378,-0.346503,0
2024-11-26 21:46:20.367,-0.591326,3.53599,10.6992,-0.00534491,0.0917034,-0.358109,0
2024-11-26 21:46:20.369,-0.65354,3.48335,10.7566,-0.00534491,0.0917034,-0.358109,0
2024-11-26 21:46:20.369,-0.65354,3.48335,10.7566,-0.00534491,0.0917034,-0.358109,0
2024-11-26 21:46:20.370,-0.696611,3.44028,10.8165,-0.00290152,0.0923143,-0.360553,0
2024-11-26 21:46:20.371,-0.696611,3.44028,10.8165,-0.00106898,0.0917034,-0.360553,0
2024-11-26 21:46:20.374,-0.715753,3.402,10.8404,-0.00106898,0.0917034,-0.360553,0
2024-11-26 21:46:20.374,-0.715753,3.402,10.8404,-0.00106898,0.0917034,-0.360553,0
2024-11-26 21:46:20.375,-0.739681,3.36371,10.85,0.00198525,0.0886492,-0.360553,0
2024-11-26 21:46:20.377,-0.758824,3.34696,10.8858,0.00503949,0.0837624,-0.357498,0
2024-11-26 21:46:20.377,-0.758824,3.34696,10.8858,0.00503949,0.0837624,-0.357498,0
2024-11-26 21:46:20.382,-0.789931,3.34696,10.9508,0.0129805,0.0709346,-0.350779,0
2024-11-26 21:46:20.383,-0.789931,3.34696,10.9508,0.0129805,0.0611611,-0.347725,0
2024-11-26 21:46:20.383,-0.789931,3.34696,10.9508,0.0129805,0.0611611,-0.347725,0
2024-11-26 21:46:20.384,-0.789931,3.33021,10.9795,0.0166456,0.0611611,-0.347725,0
2024-11-26 21:46:20.385,-0.789931,3.33021,10.9795,0.0166456,0.0611611,-0.347725,0
2024-11-26 21:46:20.388,-0.780359,3.32064,10.9866,0.0184781,0.0501658,-0.342838,0
2024-11-26 21:46:20.388,-0.780359,3.32064,10.9866,0.0184781,0.0501658,-0.342838,0
2024-11-26 21:46:20.389,-0.782752,3.31107,10.989,0.0221432,0.0397814,-0.337951,0
2024-11-26 21:46:20.391,-0.773181,3.30628,10.9938,0.0245866,0.0269536,-0.334897,0
2024-11-26 21:46:20.392,-0.773181,3.30628,10.9938,0.0245866,0.0269536,-0.334897,0
2024-11-26 21:46:20.392,-0.773181,3.30628,10.9938,0.0245866,0.0269536,-0.334897,0
2024-11-26 21:46:20.394,-0.775574,3.31585,10.9938,0.0300842,0.013515,-0.332454,0
2024-11-26 21:46:20.397,-0.789931,3.31107,10.9819,0.0343602,-0.0121406,-0.32268,0
2024-11-26 21:46:20.400,-0.811466,3.3015,10.9651,0.0361927,-0.0121406,-0.318404,0
2024-11-26 21:46:20.400,-0.811466,3.3015,10.9651,0.0361927,-0.0121406,-0.318404,0
2024-11-26 21:46:20.401,-0.84018,3.30868,10.9337,0.0392469,-0.0255792,-0.318404,0
2024-11-26 21:46:20.401,-0.84018,3.30868,10.9337,0.0392469,-0.0255792,-0.318404,0
2024-11-26 21:46:20.403,-0.869193,3.31825,10.9026,0.0410795,-0.0359636,-0.312296,0
2024-11-26 21:46:20.404,-0.869193,3.31825,10.9026,0.0465771,-0.0432938,-0.304355,0
2024-11-26 21:46:20.407,-0.902692,3.30868,10.8763,0.050853,-0.0481806,-0.296414,0
2024-11-26 21:46:20.408,-0.936192,3.30868,10.8452,0.050853,-0.0481806,-0.296414,0
2024-11-26 21:46:20.409,-0.936192,3.30868,10.8452,0.050853,-0.0481806,-0.296414,0
2024-11-26 21:46:20.410,-0.952942,3.34935,10.7997,0.055129,-0.0494023,-0.287251,0
2024-11-26 21:46:20.410,-0.952942,3.34935,10.7997,0.055129,-0.0494023,-0.287251,0
2024-11-26 21:46:20.414,-0.979263,3.3685,10.7279,0.0722327,-0.042683,-0.267093,0
2024-11-26 21:46:20.415,-0.99362,3.37807,10.6561,0.0722327,-0.042683,-0.267093,0
2024-11-26 21:46:20.416,-0.99362,3.37807,10.6561,0.0771195,-0.0316877,-0.258541,0
2024-11-26 21:46:20.418,-0.998405,3.39482,10.5867,0.0771195,-0.0316877,-0.258541,0
2024-11-26 21:46:20.418,-0.998405,3.39482,10.5867,0.0771195,-0.0316877,-0.258541,0
2024-11-26 21:46:20.420,-1.01515,3.39242,10.5054,0.0856713,-0.0237467,-0.248768,0
2024-11-26 21:46:20.420,-1.01515,3.39242,10.5054,0.0856713,-0.0237467,-0.248768,0
2024-11-26 21:46:20.423,-1.01515,3.38285,10.4049,0.09911,0.00251974,-0.226166,0
2024-11-26 21:46:20.424,-1.01515,3.38764,10.285,0.09911,0.00251974,-0.226166,0
2024-11-26 21:46:20.427,-1.0343,3.402,10.1821,0.107051,0.0165692,-0.217003,0
2024-11-26 21:46:20.428,-1.0343,3.402,10.1821,0.118046,0.0281753,-0.206008,0
2024-11-26 21:46:20.430,-1.05344,3.39482,10.0887,0.122322,0.0410031,-0.199289,0
2024-11-26 21:46:20.430,-1.05344,3.39482,10.0887,0.122322,0.0410031,-0.199289,0
2024-11-26 21:46:20.432,-1.05105,3.402,9.98824,0.122322,0.0410031,-0.199289,0
2024-11-26 21:46:20.432,-1.05105,3.402,9.98824,0.122322,0.0410031,-0.199289,0
2024-11-26 21:46:20.435,-1.05344,3.43071,9.88535,0.130263,0.0526092,-0.190737,0
2024-11-26 21:46:20.437,-1.06301,3.44985,9.77498,0.136372,0.0605502,-0.182796,0
2024-11-26 21:46:20.439,-1.0654,3.46899,9.6673,0.139426,0.0666587,-0.173022,0
2024-11-26 21:46:20.440,-1.0654,3.46899,9.6673,0.146145,0.0709346,-0.166914,0
2024-11-26 21:46:20.440,-1.0654,3.46899,9.6673,0.146145,0.0709346,-0.166914,0
2024-11-26 21:46:20.442,-1.08455,3.50728,9.56202,0.152254,0.0739889,-0.161416,0
2024-11-26 21:46:20.443,-1.11326,3.53839,9.47348,0.152254,0.0739889,-0.161416,0
2024-11-26 21:46:20.443,-1.11326,3.53839,9.47348,0.152254,0.0739889,-0.161416,0
2024-11-26 21:46:20.447,-1.12522,3.54556,9.38734,0.160195,0.0794865,-0.14981,0
2024-11-26 21:46:20.448,-1.13001,3.5336,9.30599,0.160195,0.0794865,-0.14981,0
2024-11-26 21:46:20.449,-1.13001,3.5336,9.30599,0.165692,0.0807082,-0.146145,0
2024-11-26 21:46:20.449,-1.13001,3.5336,9.30599,0.165692,0.0807082,-0.146145,0
2024-11-26 21:46:20.451,-1.12762,3.53599,9.23869,0.165692,0.0807082,-0.146145,0
2024-11-26 21:46:20.453,-1.12762,3.53839,9.16212,0.168136,0.0788757,-0.14248,0
2024-11-26 21:46:20.454,-1.12762,3.53839,9.16212,0.168136,0.0788757,-0.14248,0
2024-11-26 21:46:20.455,-1.12762,3.53839,9.09751,0.168136,0.0788757,-0.14248,0
2024-11-26 21:46:20.457,-1.15394,3.49532,9.04726,0.17852,0.077654,-0.134539,0
2024-11-26 21:46:20.458,-1.14197,3.50967,9.04726,0.17852,0.077654,-0.134539,0
2024-11-26 21:46:20.458,-1.15394,3.49532,9.04726,0.17852,0.077654,-0.134539,0
2024-11-26 21:46:20.460,-1.1683,3.48096,9.00658,0.179742,0.0770431,-0.133317,0
2024-11-26 21:46:20.462,-1.18744,3.46421,8.9683,0.18585,0.0739889,-0.129041,0
2024-11-26 21:46:20.463,-1.18744,3.46421,8.9683,0.188294,0.0727672,-0.126598,0
2024-11-26 21:46:20.466,-1.20419,3.45942,8.92284,0.190126,0.0739889,-0.124766,0
2024-11-26 21:46:20.467,-1.21854,3.47139,8.88934,0.190126,0.0739889,-0.124766,0
2024-11-26 21:46:20.468,-1.21854,3.47139,8.88934,0.190126,0.0739889,-0.124766,0
2024-11-26 21:46:20.469,-1.2329,3.48335,8.87019,0.193791,0.0764323,-0.124766,0
2024-11-26 21:46:20.472,-1.24487,3.48574,8.86302,0.198067,0.0788757,-0.121711,0
2024-11-26 21:46:20.477,-1.24965,3.52642,8.80798,0.20723,0.0947577,-0.116825,0
2024-11-26 21:46:20.480,-1.22572,3.55035,8.78644,0.209673,0.0978119,-0.114992,0
2024-11-26 21:46:20.480,-1.22572,3.55035,8.78644,0.209673,0.0978119,-0.114992,0
2024-11-26 21:46:20.482,-1.21137,3.57667,8.76491,0.209673,0.0978119,-0.114992,0
2024-11-26 21:46:20.483,-1.19701,3.59821,8.7362,0.212728,0.101477,-0.114992,0
2024-11-26 21:46:20.487,-1.18983,3.61974,8.71705,0.213338,0.104531,-0.117435,0
2024-11-26 21:46:20.489,-1.19222,3.62931,8.7027,0.213949,0.108807,-0.119879,0
2024-11-26 21:46:20.491,-1.20658,3.61256,8.69283,0.213949,0.108807,-0.119879,0
2024-11-26 21:46:20.493,-1.22812,3.61496,8.69283,0.215171,0.108196,-0.121711,0
2024-11-26 21:46:20.495,-1.24965,3.62931,8.67608,0.215782,0.107585,-0.122322,0
2024-11-26 21:46:20.500,-1.29512,3.64128,8.64736,0.208452,0.10331,-0.1211,0
2024-11-26 21:46:20.501,-1.33579,3.64606,8.64736,0.20723,0.102088,-0.116825,0
2024-11-26 21:46:20.503,-1.37408,3.64606,8.63061,0.20723,0.102088,-0.116825,0
2024-11-26 21:46:20.505,-1.27358,3.57428,8.64497,0.201121,0.0984228,-0.114381,0
2024-11-26 21:46:20.507,-1.14915,3.48335,8.70509,0.196846,0.0959794,-0.117435,0
2024-11-26 21:46:20.510,-1.22094,3.48814,8.68565,0.189515,0.10392,-0.122933,0
2024-11-26 21:46:20.513,-1.32144,3.53599,8.64736,0.189515,0.10392,-0.122933,0
2024-11-26 21:46:20.514,-1.37886,3.58146,8.66411,0.186461,0.102699,-0.1211,0
2024-11-26 21:46:20.520,-1.50598,3.72293,8.65454,0.177298,0.100866,-0.113159,0
2024-11-26 21:46:20.520,-1.50598,3.72293,8.65454,0.177298,0.100866,-0.113159,0
2024-11-26 21:46:20.523,-1.52034,3.84497,8.58754,0.164471,0.105142,-0.103997,0
2024-11-26 21:46:20.524,-1.52034,3.84497,8.58754,0.164471,0.105142,-0.103997,0
2024-11-26 21:46:20.527,-1.52034,3.88564,8.55404,0.148589,0.117359,-0.094834,0
2024-11-26 21:46:20.529,-1.49641,3.91436,8.52772,0.140037,0.125911,-0.0887256,0
2024-11-26 21:46:20.531,-1.47009,3.93111,8.47986,0.140037,0.125911,-0.0887256,0
2024-11-26 21:46:20.533,-1.47248,3.92872,8.43201,0.133317,0.135684,-0.0850605,0
2024-11-26 21:46:20.538,-1.5012,3.88564,8.38654,0.114381,0.147901,-0.0783412,0
2024-11-26 21:46:20.538,-1.5012,3.88564,8.38654,0.114381,0.147901,-0.0783412,0
2024-11-26 21:46:20.540,-1.54188,3.85932,8.35783,0.103386,0.150956,-0.0752869,0
2024-11-26 21:46:20.542,-1.54905,3.83779,8.35065,0.0917798,0.152788,-0.071011,0
2024-11-26 21:46:20.546,-1.52991,3.7995,8.34587,0.0691785,0.149734,-0.0624591,0
2024-11-26 21:46:20.548,-1.49402,3.79711,8.31715,0.0691785,0.149734,-0.0624591,0
2024-11-26 21:46:20.549,-1.45573,3.84736,8.31476,0.0600157,0.149734,-0.0624591,0
2024-11-26 21:46:20.552,-1.47966,3.81386,8.29083,0.0490205,0.150345,-0.0612374,0
2024-11-26 21:46:20.555,-1.57298,3.71336,8.21426,0.0300842,0.173557,-0.0539073,0
2024-11-26 21:46:20.557,-1.61605,3.63649,8.13021,0.0300842,0.173557,-0.0539073,0
2024-11-26 21:46:20.562,-1.47966,3.57189,7.97707,-0.00167983,0.209597,-0.0520747,0
2024-11-26 21:46:20.564,-1.41745,3.58146,7.96989,-0.00167983,0.209597,-0.0520747,0
2024-11-26 21:46:20.567,-1.39801,3.65354,8.02014,-0.029168,0.221814,-0.0539073,0
2024-11-26 21:46:20.569,-1.44138,3.70858,8.06321,-0.0456608,0.217538,-0.0465771,0
2024-11-26 21:46:20.570,-1.52273,3.72293,8.06561,-0.0456608,0.217538,-0.0465771,0
2024-11-26 21:46:20.571,-1.52273,3.72293,8.06561,-0.0456608,0.217538,-0.0465771,0
2024-11-26 21:46:20.574,-1.59212,3.74447,8.06082,-0.0542127,0.223646,-0.0435229,0
2024-11-26 21:46:20.575,-1.65912,3.766,8.04407,-0.0603212,0.234031,-0.0416903,0
2024-11-26 21:46:20.578,-1.70219,3.77797,8.04168,-0.0694839,0.242583,-0.0386361,0
2024-11-26 21:46:20.581,-1.73091,3.80907,8.08236,-0.0755923,0.252356,-0.0337493,0
2024-11-26 21:46:20.585,-1.75244,3.89282,8.1664,-0.0817008,0.260908,-0.0239758,0
2024-11-26 21:46:20.586,-1.75244,3.89282,8.1664,-0.0853659,0.259686,-0.0166456,0
2024-11-26 21:46:20.588,-1.76201,3.93829,8.2023,-0.0853659,0.259686,-0.0166456,0
2024-11-26 21:46:20.590,-1.77159,3.97418,8.22383,-0.0829225,0.257854,-0.00992627,0
2024-11-26 21:46:20.593,-1.77637,4.0005,8.2358,-0.0829225,0.251745,-0.0025961,0
2024-11-26 21:46:20.594,-1.79791,4.02682,8.24537,-0.0823117,0.244415,0.00351237,0
2024-11-26 21:46:20.596,-1.81705,4.05314,8.25972,-0.08109,0.231587,0.00901,0
2024-11-26 21:46:20.600,-1.81944,4.08903,8.27408,-0.08109,0.21876,0.0138968,0
2024-11-26 21:46:20.601,-1.81466,4.12971,8.27887,-0.0792574,0.20471,0.0212269,0
2024-11-26 21:46:20.603,-1.77159,4.20897,8.3028,-0.0786466,0.183941,0.0242812,0
2024-11-26 21:46:20.607,-1.72134,4.30469,8.35065,-0.0755923,0.160729,0.0285571,0
2024-11-26 21:46:20.609,-1.68784,4.33101,8.33869,-0.068873,0.135684,0.0346656,0
2024-11-26 21:46:20.612,-1.65194,4.31426,8.25494,-0.0682622,0.108807,0.0358873,0
2024-11-26 21:46:20.614,-1.58016,4.28794,8.17119,-0.0707056,0.104531,0.0297788,0
2024-11-26 21:46:20.615,-1.47488,4.2664,8.11346,-0.0707056,0.104531,0.0297788,0
2024-11-26 21:46:20.618,-1.40279,4.28555,8.07518,-0.0755923,0.101477,0.024892,0
2024-11-26 21:46:20.620,-1.35972,4.32383,8.08236,-0.0804791,0.0953685,0.016951,0
2024-11-26 21:46:20.623,-1.32383,4.36451,8.11346,-0.08109,0.0849841,0.00839915,0
2024-11-26 21:46:20.627,-1.26879,4.44347,8.05843,-0.0804791,0.0629936,-0.0038178,0
2024-11-26 21:46:20.627,-1.26879,4.44347,8.05843,-0.0804791,0.0629936,-0.0038178,0
2024-11-26 21:46:20.629,-1.25204,4.47697,8.02493,-0.08109,0.0538309,-0.0105371,0
2024-11-26 21:46:20.633,-1.23769,4.49372,7.99621,-0.0865876,0.0428357,-0.0245866,0
2024-11-26 21:46:20.634,-1.21376,4.48894,7.96511,-0.0865876,0.0428357,-0.0245866,0
2024-11-26 21:46:20.637,-1.2018,4.48415,7.934,-0.0896418,0.0385597,-0.0313059,0
2024-11-26 21:46:20.641,-1.17308,4.43151,7.84786,-0.0963612,0.0275645,-0.047188,0
2024-11-26 21:46:20.642,-1.17308,4.43151,7.84786,-0.0963612,0.0275645,-0.047188,0
2024-11-26 21:46:20.646,-1.07498,4.35254,7.74018,-0.113465,0.0171801,-0.0661242,0
2024-11-26 21:46:20.649,-1.05823,4.30947,7.7019,-0.122628,0.0153475,-0.0752869,0
2024-11-26 21:46:20.649,-1.05823,4.30947,7.7019,-0.122628,0.0153475,-0.0752869,0
2024-11-26 21:46:20.651,-1.05105,4.2688,7.67318,-0.134845,0.013515,-0.0881147,0
2024-11-26 21:46:20.654,-1.05344,4.24965,7.64447,-0.159278,0.0159584,-0.110105,0
2024-11-26 21:46:20.656,-1.0678,4.23051,7.62054,-0.159278,0.0159584,-0.110105,0
2024-11-26 21:46:20.658,-1.08933,4.20628,7.60618,-0.170961,0.0177909,-0.119268,0
2024-11-26 21:46:20.661,-1.12762,4.1991,7.58465,-0.202114,0.0208452,-0.132707,0
2024-11-26 21:46:20.663,-1.17308,4.18475,7.5676,-0.202114,0.0208452,-0.132707,0
2024-11-26 21:46:20.666,-1.22572,4.16561,7.56999,-0.218607,0.0220669,-0.141258,0
2024-11-26 21:46:20.667,-1.26879,4.16082,7.58944,-0.233878,0.0251211,-0.145534,0
2024-11-26 21:46:20.670,-1.2999,4.14407,7.62054,-0.253425,0.0269536,-0.150421,0
2024-11-26 21:46:20.673,-1.32144,4.12014,7.67318,-0.286411,0.0245102,-0.157751,0
2024-11-26 21:46:20.675,-1.32383,4.10818,7.72343,-0.301682,0.021456,-0.162638,0
2024-11-26 21:46:20.677,-1.31904,4.09861,7.78565,-0.301682,0.021456,-0.162638,0
2024-11-26 21:46:20.680,-1.28554,4.08664,7.88136,-0.320618,0.0177909,-0.165692,0
2024-11-26 21:46:20.681,-1.22572,4.06271,7.98425,-0.337111,0.0116825,-0.174244,0
2024-11-26 21:46:20.685,-1.18983,4.05793,8.08953,-0.349939,0.00374144,-0.180964,0
2024-11-26 21:46:20.687,-1.17787,4.06989,8.17837,-0.349939,0.00374144,-0.180964,0
2024-11-26 21:46:20.689,-1.17308,4.07707,8.27887,-0.378038,-0.0164165,-0.195624,0
2024-11-26 21:46:20.692,-1.18505,4.09382,8.3674,-0.388422,-0.030466,-0.203565,0
2024-11-26 21:46:20.693,-1.20658,4.09861,8.44636,-0.398196,-0.0439046,-0.208452,0
2024-11-26 21:46:20.696,-1.21376,4.08903,8.53011,-0.404305,-0.058565,-0.212728,0
2024-11-26 21:46:20.698,-1.19701,4.06511,8.61865,-0.411024,-0.0720036,-0.215171,0
2024-11-26 21:46:20.701,-1.15633,4.05554,8.70987,-0.419576,-0.101935,-0.226166,0
2024-11-26 21:46:20.703,-1.1013,4.04357,8.80319,-0.419576,-0.101935,-0.226166,0
2024-11-26 21:46:20.706,-1.0654,4.01486,8.89412,-0.417743,-0.11232,-0.229831,0
2024-11-26 21:46:20.708,-1.04148,4.01007,8.96112,-0.418354,-0.121482,-0.234718,0
2024-11-26 21:46:20.709,-0.988834,4.01246,9.03769,-0.415911,-0.130645,-0.237772,0
2024-11-26 21:46:20.713,-0.921835,3.99811,9.11665,-0.411635,-0.136753,-0.242659,0
2024-11-26 21:46:20.718,-0.782752,4.01486,9.27009,-0.390866,-0.153857,-0.257319,0
2024-11-26 21:46:20.720,-0.74686,4.03879,9.3347,-0.381703,-0.155079,-0.261595,0
2024-11-26 21:46:20.720,-0.74686,4.03879,9.3347,-0.381703,-0.155079,-0.261595,0
2024-11-26 21:46:20.722,-0.725324,4.04357,9.38016,-0.381703,-0.155079,-0.261595,0
2024-11-26 21:46:20.725,-0.696611,4.05314,9.38734,-0.359713,-0.164242,-0.269536,0
2024-11-26 21:46:20.727,-0.691825,4.04836,9.38256,-0.359713,-0.164242,-0.269536,0
2024-11-26 21:46:20.728,-0.691825,4.03161,9.39452,-0.35055,-0.17035,-0.270147,0
2024-11-26 21:46:20.731,-0.682254,4.01246,9.39452,-0.3365,-0.172183,-0.271369,0
2024-11-26 21:46:20.733,-0.682254,4.00768,9.38734,-0.324284,-0.174626,-0.273201,0
2024-11-26 21:46:20.736,-0.679861,4.00529,9.35863,-0.31451,-0.17768,-0.273812,0
2024-11-26 21:46:20.739,-0.696611,3.99811,9.31556,-0.295574,-0.181956,-0.270758,0
2024-11-26 21:46:20.741,-0.71336,3.97657,9.31077,-0.283968,-0.180734,-0.268315,0
2024-11-26 21:46:20.746,-0.71336,3.96222,9.27249,-0.277248,-0.181956,-0.26465,0
2024-11-26 21:46:20.746,-0.71336,3.96222,9.27249,-0.277248,-0.181956,-0.26465,0
2024-11-26 21:46:20.750,-0.71336,3.96461,9.23869,-0.260145,-0.178291,-0.260374,0
2024-11-26 21:46:20.752,-0.720539,3.93829,9.16212,-0.250982,-0.172793,-0.260374,0
2024-11-26 21:46:20.753,-0.708575,3.93829,9.16212,-0.250982,-0.172793,-0.260374,0
2024-11-26 21:46:20.755,-0.696611,3.93111,9.11187,-0.246095,-0.168517,-0.256709,0
2024-11-26 21:46:20.760,-0.679861,3.88804,9.06162,-0.246095,-0.168517,-0.256709,0
2024-11-26 21:46:20.761,-0.689432,3.87368,9.0353,-0.229602,-0.150192,-0.254876,0
2024-11-26 21:46:20.762,-0.689432,3.87368,9.0353,-0.229602,-0.150192,-0.254876,0
2024-11-26 21:46:20.764,-0.677468,3.8689,9.00658,-0.226548,-0.140419,-0.255487,0
2024-11-26 21:46:20.766,-0.682254,3.8689,8.99223,-0.226548,-0.140419,-0.255487,0
2024-11-26 21:46:20.769,-0.701396,3.8665,8.98505,-0.217996,-0.117817,-0.259763,0
2024-11-26 21:46:20.773,-0.766002,3.85693,8.9348,-0.212498,-0.0897182,-0.262206,0
2024-11-26 21:46:20.775,-0.80668,3.84497,8.9013,-0.209444,-0.0768904,-0.262817,0
2024-11-26 21:46:20.776,-0.80668,3.84497,8.9013,-0.209444,-0.0768904,-0.262817,0
2024-11-26 21:46:20.779,-0.869193,3.833,8.84387,-0.20639,-0.0634518,-0.262206,0
2024-11-26 21:46:20.783,-0.926621,3.82104,8.79362,-0.203947,-0.0322986,-0.260374,0
2024-11-26 21:46:20.783,-0.974477,3.81865,8.76012,-0.203947,-0.0322986,-0.260374,0
2024-11-26 21:46:20.785,-1.02233,3.79232,8.7362,-0.203947,-0.0182491,-0.259152,0
2024-11-26 21:46:20.787,-1.06301,3.75643,8.71227,-0.203336,-0.00297788,-0.255487,0
2024-11-26 21:46:20.793,-1.10369,3.73011,8.68804,-0.195395,0.0440574,-0.245713,0
2024-11-26 21:46:20.793,-1.10369,3.73011,8.68804,-0.195395,0.0440574,-0.245713,0
2024-11-26 21:46:20.797,-1.0989,3.72054,8.64258,-0.194173,0.0568851,-0.241437,0
2024-11-26 21:46:20.798,-1.0989,3.72054,8.64258,-0.194173,0.0568851,-0.241437,0
2024-11-26 21:46:20.799,-1.09173,3.71815,8.62104,-0.194173,0.0568851,-0.241437,0
2024-11-26 21:46:20.801,-1.08694,3.73011,8.59711,-0.189286,0.0782648,-0.238994,0
2024-11-26 21:46:20.804,-1.08455,3.73011,8.58036,-0.186232,0.0831516,-0.23594,0
2024-11-26 21:46:20.806,-1.10608,3.7349,8.54686,-0.183178,0.0862058,-0.234718,0
2024-11-26 21:46:20.809,-1.14437,3.75165,8.50619,-0.179513,0.0880384,-0.235329,0
2024-11-26 21:46:20.812,-1.16351,3.76361,8.44636,-0.172183,0.0886492,-0.227388,0
2024-11-26 21:46:20.814,-1.17787,3.78993,8.39612,-0.165387,0.0892601,-0.223723,0
2024-11-26 21:46:20.816,-1.18265,3.8019,8.3674,-0.165387,0.0892601,-0.223723,0
2024-11-26 21:46:20.820,-1.18026,3.81147,8.26451,-0.163554,0.0886492,-0.221279,0
2024-11-26 21:46:20.821,-1.18026,3.81147,8.26451,-0.163554,0.0886492,-0.221279,0
2024-11-26 21:46:20.826,-1.17787,3.833,8.20948,-0.1605,0.0825407,-0.217614,0
2024-11-26 21:46:20.827,-1.1659,3.8665,8.18315,-0.1605,0.0825407,-0.217614,0
2024-11-26 21:46:20.828,-1.1659,3.8665,8.18315,-0.161111,0.0697129,-0.213949,0
2024-11-26 21:46:20.831,-1.15155,3.87129,8.16162,-0.162333,0.0593285,-0.21456,0
2024-11-26 21:46:20.833,-1.14676,3.85215,8.12064,-0.162333,0.0593285,-0.21456,0
2024-11-26 21:46:20.834,-1.15872,3.85693,8.068,-0.167907,0.0477224,-0.215171,0
2024-11-26 21:46:20.837,-1.17547,3.85693,8.02254,-0.167907,0.0477224,-0.215171,0
2024-11-26 21:46:20.840,-1.22094,3.86411,8.00579,-0.174626,0.0245102,-0.220669,0
2024-11-26 21:46:20.844,-1.28554,3.88804,8.01775,-0.183789,-0.00114534,-0.224334,0
2024-11-26 21:46:20.844,-1.35972,3.88804,8.01775,-0.183789,-0.00114534,-0.224334,0
2024-11-26 21:46:20.847,-1.4653,3.91675,8.04646,-0.187454,-0.00847551,-0.223723,0
2024-11-26 21:46:20.849,-1.5347,3.93589,8.08236,-0.191119,-0.0158057,-0.221279,0
2024-11-26 21:46:20.852,-1.58255,3.95982,8.09671,-0.196006,-0.0243575,-0.217003,0
2024-11-26 21:46:20.854,-1.63041,4.0005,8.12064,-0.192951,-0.022525,-0.218836,0
2024-11-26 21:46:20.856,-1.66391,4.02921,8.14487,-0.196006,-0.0280226,-0.212728,0
2024-11-26 21:46:20.858,-1.6663,4.04836,8.15444,-0.200892,-0.0298552,-0.209062,0
2024-11-26 21:46:20.861,-1.66152,4.07946,8.15444,-0.202114,-0.0286335,-0.206619,0
2024-11-26 21:46:20.864,-1.65194,4.101,8.14008,-0.205779,-0.0268009,-0.208452,0
2024-11-26 21:46:20.866,-1.63998,4.11057,8.12064,-0.208223,-0.0268009,-0.210284,0
2024-11-26 21:46:20.867,-1.66391,4.12732,8.09911,-0.211277,-0.0243575,-0.213949,0
2024-11-26 21:46:20.871,-1.70459,4.14407,8.10389,-0.215553,-0.0188599,-0.215782,0
2024-11-26 21:46:20.872,-1.75484,4.16321,8.11346,-0.214942,-0.0164165,-0.216393,0
2024-11-26 21:46:20.875,-1.81226,4.18953,8.10389,-0.217996,-0.0121406,-0.219447,0
2024-11-26 21:46:20.878,-1.85294,4.21615,8.11107,-0.224715,-0.00725381,-0.22189,0
2024-11-26 21:46:20.880,-1.88883,4.2353,8.11825,-0.226548,-0.00297788,-0.224334,0
2024-11-26 21:46:20.882,-1.92233,4.2688,8.10629,-0.230824,0.0019089,-0.227999,0
2024-11-26 21:46:20.886,-2.02074,4.33819,8.06321,-0.248538,0.0129041,-0.238383,0
2024-11-26 21:46:20.886,-2.02074,4.33819,8.06321,-0.248538,0.0129041,-0.238383,0
2024-11-26 21:46:20.888,-2.0686,4.38126,8.06321,-0.25648,0.0147367,-0.241437,0
2024-11-26 21:46:20.892,-2.12602,4.42194,8.06082,-0.268696,0.0159584,-0.248768,0
2024-11-26 21:46:20.897,-2.2672,4.52483,8.04886,-0.291909,0.0159584,-0.259152,0
2024-11-26 21:46:20.898,-2.33898,4.58704,8.04168,-0.310234,0.0129041,-0.262817,0
2024-11-26 21:46:20.900,-2.38684,4.62772,8.05125,-0.326116,0.0110716,-0.266482,0
2024-11-26 21:46:20.900,-2.38684,4.62772,8.05125,-0.326116,0.0110716,-0.266482,0
2024-11-26 21:46:20.906,-2.45384,4.69472,8.11586,-0.382314,-0.00114534,-0.278699,0
2024-11-26 21:46:20.906,-2.45384,4.69472,8.11586,-0.382314,-0.00114534,-0.278699,0
2024-11-26 21:46:20.910,-2.4993,4.75454,8.24537,-0.40125,-0.0109189,-0.283586,0
2024-11-26 21:46:20.910,-2.4993,4.75454,8.24537,-0.40125,-0.0109189,-0.283586,0
2024-11-26 21:46:20.915,-2.45384,4.82902,8.53251,-0.442788,-0.050624,-0.296414,0
2024-11-26 21:46:20.915,-2.45384,4.82902,8.53251,-0.442788,-0.050624,-0.296414,0
2024-11-26 21:46:20.917,-2.53071,4.82902,8.71227,-0.462946,-0.0775012,-0.304965,0
2024-11-26 21:46:20.920,-2.61446,4.80509,8.91326,-0.481271,-0.103768,-0.31535,0
2024-11-26 21:46:20.924,-2.49691,4.78834,9.34188,-0.51609,-0.152635,-0.334897,0
2024-11-26 21:46:20.925,-2.49691,4.78834,9.34188,-0.51609,-0.152635,-0.334897,0
2024-11-26 21:46:20.927,-2.20499,4.73061,9.48784,-0.525252,-0.163631,-0.348946,0
2024-11-26 21:46:20.929,-2.19541,4.69233,9.61945,-0.535637,-0.141029,-0.366661,0
2024-11-26 21:46:20.931,-2.35573,4.70668,9.90928,-0.538691,-0.117817,-0.381321,0
2024-11-26 21:46:20.934,-2.54746,4.70429,10.2921,-0.536858,-0.109876,-0.391706,0
2024-11-26 21:46:20.937,-2.7341,4.67797,10.6681,-0.524031,-0.133088,-0.398425,0
2024-11-26 21:46:20.939,-2.89681,4.66361,11.0058,-0.524031,-0.133088,-0.398425,0
2024-11-26 21:46:20.944,-3.10529,4.81466,11.8292,-0.492877,-0.164852,-0.393538,0
2024-11-26 21:46:20.944,-3.10529,4.81466,11.8292,-0.492877,-0.164852,-0.393538,0
2024-11-26 21:46:20.947,-3.30389,4.75215,12.4014,-0.44462,-0.17768,-0.377045,0
2024-11-26 21:46:20.950,-3.34696,4.75454,12.6168,-0.420187,-0.166685,-0.369715,0
2024-11-26 21:46:20.950,-3.34696,4.75454,12.6168,-0.420187,-0.166685,-0.369715,0
2024-11-26 21:46:20.952,-3.38764,4.81227,12.8037,-0.395142,-0.144084,-0.359942,0
2024-11-26 21:46:20.958,-3.42353,4.97498,13.2921,-0.332225,-0.107433,-0.329399,0
2024-11-26 21:46:20.958,-3.42353,4.97498,13.2921,-0.332225,-0.107433,-0.329399,0
2024-11-26 21:46:20.959,-3.42353,5.06112,13.4333,-0.294963,-0.0982701,-0.310463,0
2024-11-26 21:46:20.962,-3.38525,5.11855,13.5003,-0.260145,-0.086664,-0.289083,0
2024-11-26 21:46:20.965,-3.32064,5.14965,13.529,-0.192951,-0.0494023,-0.246935,0
2024-11-26 21:46:20.967,-3.26082,5.12094,13.5482,-0.192951,-0.0494023,-0.246935,0
2024-11-26 21:46:20.971,-3.22014,5.03958,13.5673,-0.13912,-0.0164165,-0.209062,0
2024-11-26 21:46:20.972,-3.17228,5.03958,13.5673,-0.113465,-0.0096972,-0.191348,0
2024-11-26 21:46:20.973,-3.05713,5.01566,13.5577,-0.113465,-0.0096972,-0.191348,0
2024-11-26 21:46:20.977,-2.8992,4.98455,13.5194,-0.0908635,-0.0139731,-0.179131,0
2024-11-26 21:46:20.978,-2.76042,4.98694,13.4716,-0.0700947,-0.0292443,-0.17119,0
2024-11-26 21:46:20.981,-2.65035,5.01326,13.4357,-0.0413849,-0.0872748,-0.158973,0
2024-11-26 21:46:20.984,-2.58814,5.04915,13.4094,-0.0413849,-0.0872748,-0.158973,0
2024-11-26 21:46:20.985,-2.56899,5.09701,13.3902,-0.0285571,-0.120871,-0.154697,0
2024-11-26 21:46:20.990,-2.56421,5.1688,13.3711,-0.00106898,-0.200282,-0.140648,0
2024-11-26 21:46:20.990,-2.57139,5.25015,13.3567,-0.00106898,-0.200282,-0.140648,0
2024-11-26 21:46:20.993,-2.54985,5.32672,13.352,0.0123697,-0.241208,-0.132707,0
2024-11-26 21:46:20.994,-2.52084,5.42752,13.3256,0.0233649,-0.283357,-0.122933,0
2024-11-26 21:46:20.998,-2.48734,5.54716,13.2921,0.0496313,-0.370097,-0.107051,0
2024-11-26 21:46:21.000,-2.4347,5.65005,13.261,0.0496313,-0.370097,-0.107051,0
2024-11-26 21:46:21.002,-2.3988,5.76012,13.2275,0.0612374,-0.4153,-0.100332,0
2024-11-26 21:46:21.004,-2.36052,5.85105,13.194,0.0746761,-0.463557,-0.094834,0
2024-11-26 21:46:21.009,-2.22413,5.94945,13.1124,0.0954449,-0.558238,-0.0875039,0
2024-11-26 21:46:21.009,-2.22413,5.94945,13.1124,0.0954449,-0.558238,-0.0875039,0
2024-11-26 21:46:21.011,-2.12842,5.93749,13.1052,0.0954449,-0.558238,-0.0875039,0
2024-11-26 21:46:21.014,-2.04706,5.9016,13.1219,0.125987,-0.729886,-0.0960557,0
2024-11-26 21:46:21.017,-2.00638,5.82951,13.1435,0.125987,-0.729886,-0.0960557,0
2024-11-26 21:46:21.018,-2.00877,5.71944,13.1916,0.135761,-0.801966,-0.101553,0
2024-11-26 21:46:21.024,-2.05185,5.51605,13.4429,0.184629,-1.01576,-0.114992,0
2024-11-26 21:46:21.025,-2.07338,5.38445,13.5888,0.184629,-1.01576,-0.114992,0
2024-11-26 21:46:21.028,-2.08774,5.22862,13.7228,0.204176,-1.07685,-0.116214,0
2024-11-26 21:46:21.028,-2.08774,5.22862,13.7228,0.204176,-1.07685,-0.116214,0
2024-11-26 21:46:21.033,-2.06142,4.86969,14.0079,0.272591,-1.21131,-0.115603,0
2024-11-26 21:46:21.033,-2.06142,4.86969,14.0079,0.272591,-1.21131,-0.115603,0
2024-11-26 21:46:21.037,-2.04945,4.40279,14.2974,0.299468,-1.23819,-0.114381,0
2024-11-26 21:46:21.038,-2.04945,4.40279,14.2974,0.325123,-1.25285,-0.110105,0
2024-11-26 21:46:21.040,-2.07817,4.11775,14.4461,0.325123,-1.25285,-0.110105,0
2024-11-26 21:46:21.042,-2.12363,3.82343,14.5801,0.349557,-1.26201,-0.105829,0
2024-11-26 21:46:21.047,-2.14277,3.21536,14.8747,0.424081,-1.23513,-0.0752869,0
2024-11-26 21:46:21.050,-2.13799,2.90878,15.0254,0.45218,-1.20337,-0.058794,0
2024-11-26 21:46:21.050,-2.1332,2.90878,15.0254,0.45218,-1.20337,-0.058794,0
2024-11-26 21:46:21.052,-2.13081,2.63121,15.1881,0.45218,-1.20337,-0.058794,0
2024-11-26 21:46:21.056,-2.09013,2.05424,15.521,0.503491,-1.11044,-0.0258083,0
2024-11-26 21:46:21.057,-2.09013,2.05424,15.521,0.528536,-1.04997,-0.00992627,0
2024-11-26 21:46:21.059,-2.05902,1.77637,15.6574,0.528536,-1.04997,-0.00992627,0
2024-11-26 21:46:21.061,-2.01356,1.50838,15.7986,0.552969,-0.981555,0.00962084,0
2024-11-26 21:46:21.064,-1.94865,1.24965,15.9254,0.601837,-0.824567,0.0419957,0
2024-11-26 21:46:21.066,-1.86491,1.00319,16.0502,0.601837,-0.824567,0.0419957,0
2024-11-26 21:46:21.067,-1.78116,0.758824,16.1339,0.623217,-0.741492,0.0590995,0
2024-11-26 21:46:21.071,-1.69741,0.56022,16.1674,0.669641,-0.563736,0.0902527,1
2024-11-26 21:46:21.072,-1.62323,0.411865,16.1961,0.669641,-0.563736,0.0902527,0
2024-11-26 21:46:21.076,-1.5347,0.265603,16.2177,0.69041,-0.475163,0.101248,0
2024-11-26 21:46:21.077,-1.45095,0.162712,16.1746,0.714233,-0.396364,0.113465,0
2024-11-26 21:46:21.079,-1.38844,0.114855,16.0789,0.73378,-0.321229,0.122628,0
2024-11-26 21:46:21.083,-1.30947,0.0789631,15.9637,0.767988,-0.200282,0.140342,0
2024-11-26 21:46:21.085,-1.22572,0.0478565,15.7938,0.767988,-0.200282,0.140342,0
2024-11-26 21:46:21.090,-1.13719,0.026321,15.5737,0.795476,-0.114152,0.153781,0
2024-11-26 21:46:21.093,-0.818644,0.177069,14.7404,0.821742,-0.0530674,0.159889,0
2024-11-26 21:46:21.094,-0.818644,0.177069,14.7404,0.821742,-0.0530674,0.159889,0
2024-11-26 21:46:21.094,-0.818644,0.177069,14.7404,0.821742,-0.0530674,0.159889,0
2024-11-26 21:46:21.098,-0.569791,0.352044,14.1275,0.842511,-0.00847551,0.166609,0
2024-11-26 21:46:21.099,-0.569791,0.352044,14.1275,0.842511,-0.00847551,0.166609,0
2024-11-26 21:46:21.101,-0.447757,0.474078,13.7782,0.852895,0.0129041,0.170274,0
2024-11-26 21:46:21.103,-0.313759,0.593719,13.4213,0.863891,0.0318404,0.173939,0
2024-11-26 21:46:21.109,0.0837488,0.852443,12.6024,0.899931,0.0739889,0.173328,0
2024-11-26 21:46:21.109,0.0837488,0.852443,12.6024,0.899931,0.0739889,0.173328,0
2024-11-26 21:46:21.112,0.507577,1.11565,11.779,0.910926,0.0782648,0.165387,0
2024-11-26 21:46:21.112,0.507577,1.11565,11.779,0.910926,0.0782648,0.165387,0
2024-11-26 21:46:21.118,0.936192,1.2664,10.9385,0.934138,0.0721563,0.137899,0
2024-11-26 21:46:21.118,0.936192,1.2664,10.9385,0.934138,0.0721563,0.137899,0
2024-11-26 21:46:21.120,1.13001,1.33819,10.5102,0.94269,0.065437,0.118352,0
2024-11-26 21:46:21.122,1.28794,1.38844,10.0792,0.947577,0.0538309,0.096972,0
2024-11-26 21:46:21.125,1.37169,1.44377,9.68405,0.952464,0.0116825,0.0474934,0
2024-11-26 21:46:21.127,1.41984,1.47727,9.31077,0.952464,0.0116825,0.0474934,0
2024-11-26 21:46:21.129,1.47248,1.45813,8.96351,0.953074,-0.0121406,0.0224486,0
2024-11-26 21:46:21.132,1.51555,1.41506,8.64497,0.953074,-0.0359636,-0.00503949,0
2024-11-26 21:46:21.133,1.55384,1.36451,8.34826,0.948188,-0.0579541,-0.0313059,0
2024-11-26 21:46:21.136,1.59212,1.32144,8.04168,0.944523,-0.0762796,-0.0612374,0
2024-11-26 21:46:21.139,1.60409,1.30469,7.74258,0.937192,-0.0952158,-0.091169,0
2024-11-26 21:46:21.140,1.62084,1.28554,7.51974,0.929251,-0.109265,-0.121711,0
2024-11-26 21:46:21.143,1.62084,1.26401,7.34507,0.917645,-0.122704,-0.151032,0
2024-11-26 21:46:21.146,1.58016,1.24965,7.18714,0.901763,-0.134921,-0.179742,0
2024-11-26 21:46:21.149,1.51555,1.24008,7.03879,0.88466,-0.14836,-0.208452,0
2024-11-26 21:46:21.150,1.4004,1.23051,6.90688,0.862669,-0.16302,-0.234107,0
2024-11-26 21:46:21.153,1.25683,1.22812,6.81596,0.862669,-0.16302,-0.234107,0
2024-11-26 21:46:21.156,1.12522,1.21615,6.76092,0.810136,-0.200282,-0.274423,0
2024-11-26 21:46:21.159,0.862014,1.18026,6.72981,0.752106,-0.24243,-0.299468,0
2024-11-26 21:46:21.162,0.862014,1.18026,6.75613,0.725228,-0.258312,-0.311685,0
2024-11-26 21:46:21.162,0.801895,1.21137,6.75613,0.725228,-0.258312,-0.311685,0
2024-11-26 21:46:21.165,0.804287,1.20897,6.80878,0.70507,-0.269918,-0.325734,0
2024-11-26 21:46:21.166,0.9003,1.14915,6.87817,0.683691,-0.292519,-0.339173,0
2024-11-26 21:46:21.170,1.06062,1.09412,6.94517,0.659868,-0.317564,-0.353222,0
2024-11-26 21:46:21.172,1.15633,1.04387,7.04836,0.617108,-0.370708,-0.377656,0
2024-11-26 21:46:21.177,1.07737,0.88355,7.22782,0.592064,-0.394531,-0.381321,0
2024-11-26 21:46:21.178,0.996012,0.816252,7.32353,0.568852,-0.418965,-0.383154,0
2024-11-26 21:46:21.179,0.996012,0.816252,7.32353,0.568852,-0.418965,-0.383154,0
2024-11-26 21:46:21.181,0.881157,0.74686,7.39532,0.548694,-0.437901,-0.377656,0
2024-11-26 21:46:21.183,0.842872,0.71336,7.39053,0.523649,-0.462335,-0.362385,0
2024-11-26 21:46:21.188,0.859622,0.725324,7.30918,0.466229,-0.517311,-0.326345,0
2024-11-26 21:46:21.188,0.859622,0.725324,7.30918,0.466229,-0.517311,-0.326345,0
2024-11-26 21:46:21.191,0.703789,0.76361,7.21586,0.400869,-0.543578,-0.286029,0
2024-11-26 21:46:21.193,0.651147,0.837787,7.08664,0.400869,-0.543578,-0.286029,0
2024-11-26 21:46:21.195,0.907478,0.893121,7.22064,0.370937,-0.558238,-0.27198,0
2024-11-26 21:46:21.198,1.24487,0.878764,7.47667,0.318404,-0.596111,-0.248157,0
2024-11-26 21:46:21.203,1.7333,0.82343,7.57478,0.295803,-0.61016,-0.246935,0
2024-11-26 21:46:21.203,1.7333,0.82343,7.57478,0.295803,-0.61016,-0.246935,0
2024-11-26 21:46:21.206,1.66391,0.905085,7.35703,0.245102,-0.597332,-0.249989,0
2024-11-26 21:46:21.209,1.64237,0.955334,7.37139,0.222501,-0.579007,-0.256709,0
2024-11-26 21:46:21.210,1.64237,0.955334,7.37139,0.222501,-0.579007,-0.256709,0
2024-11-26 21:46:21.212,1.64955,0.991227,7.45514,0.182185,-0.532582,-0.275034,0
2024-11-26 21:46:21.216,1.68066,1.05105,7.59183,0.160195,-0.50937,-0.288473,0
2024-11-26 21:46:21.217,1.68066,1.05105,7.59183,0.160195,-0.50937,-0.288473,0
2024-11-26 21:46:21.218,1.66391,1.14915,7.58944,0.140648,-0.48738,-0.304355,0
2024-11-26 21:46:21.222,1.58734,1.30469,7.53649,0.0997208,-0.439123,-0.333675,0
2024-11-26 21:46:21.224,1.55623,1.44138,7.50778,0.078952,-0.415911,-0.348336,0
2024-11-26 21:46:21.226,1.50838,1.55384,7.46232,0.078952,-0.415911,-0.348336,0
2024-11-26 21:46:21.230,1.1994,1.82184,7.31875,0.0221432,-0.379871,-0.372159,0
2024-11-26 21:46:21.230,1.1994,1.82184,7.31875,0.0221432,-0.379871,-0.372159,0
2024-11-26 21:46:21.233,1.07976,1.95105,7.21825,-0.00901,-0.360934,-0.378267,0
2024-11-26 21:46:21.235,0.97687,2.04706,7.12971,-0.0432174,-0.339555,-0.388041,0
2024-11-26 21:46:21.238,0.9003,2.11645,7.03161,-0.117741,-0.292519,-0.393538,0
2024-11-26 21:46:21.240,0.825823,2.18584,6.93799,-0.117741,-0.292519,-0.393538,0
2024-11-26 21:46:21.243,0.722932,2.28395,6.87338,-0.200892,-0.238154,-0.395982,0
2024-11-26 21:46:21.245,0.605683,2.39163,6.8351,-0.200892,-0.238154,-0.395982,0
2024-11-26 21:46:21.246,0.553041,2.46341,6.79203,-0.243652,-0.205779,-0.39476,0
2024-11-26 21:46:21.250,0.4669,2.52592,6.77049,-0.332835,-0.16302,-0.384376,0
2024-11-26 21:46:21.254,0.244068,2.6336,6.83031,-0.375595,-0.145916,-0.3801,0
2024-11-26 21:46:21.255,0.244068,2.6336,6.83031,-0.375595,-0.145916,-0.3801,0
2024-11-26 21:46:21.257,0.181855,2.68385,6.8016,-0.418965,-0.130645,-0.369715,0
2024-11-26 21:46:21.258,0.117248,2.71496,6.81835,-0.461724,-0.11232,-0.356888,0
2024-11-26 21:46:21.261,0.066999,2.72931,6.84467,-0.502651,-0.0921616,-0.346503,0
2024-11-26 21:46:21.264,0.0119641,2.75085,6.89013,-0.577785,-0.050624,-0.315961,0
2024-11-26 21:46:21.265,-0.0837488,2.77717,6.97149,-0.577785,-0.050624,-0.315961,0
2024-11-26 21:46:21.268,-0.184247,2.80828,7.05793,-0.614436,-0.0310769,-0.296414,0
2024-11-26 21:46:21.271,-0.256032,2.8322,7.14407,-0.675521,0.00435229,-0.255487,0
2024-11-26 21:46:21.273,-0.325723,2.84417,7.24457,-0.675521,0.00435229,-0.255487,0
2024-11-26 21:46:21.276,-0.397508,2.8657,7.35943,-0.70362,0.0220669,-0.234718,0
2024-11-26 21:46:21.277,-0.452543,2.89203,7.47907,-0.731719,0.0391706,-0.212728,0
2024-11-26 21:46:21.279,-0.498006,2.91595,7.63251,-0.753098,0.0544418,-0.190126,0
2024-11-26 21:46:21.283,-0.54347,2.94467,7.78565,-0.7757,0.065437,-0.168747,0
2024-11-26 21:46:21.288,-0.576969,3.02842,8.08236,-0.810518,0.0996445,-0.112549,0
2024-11-26 21:46:21.290,-0.536291,3.10768,8.22622,-0.810518,0.0996445,-0.112549,0
2024-11-26 21:46:21.291,-0.488435,3.17946,8.37697,-0.816016,0.108196,-0.0984991,0
2024-11-26 21:46:21.292,-0.488435,3.17946,8.37697,-0.816016,0.108196,-0.0984991,0
2024-11-26 21:46:21.295,-0.483649,3.24646,8.4679,-0.816016,0.113694,-0.086893,0
2024-11-26 21:46:21.296,-0.521934,3.32782,8.47269,-0.81174,0.114305,-0.0771195,0
2024-11-26 21:46:21.301,-0.675075,3.4331,8.25494,-0.806242,0.0904818,-0.0722327,0
2024-11-26 21:46:21.301,-0.675075,3.4331,8.25494,-0.806242,0.0904818,-0.0722327,0
2024-11-26 21:46:21.303,-0.811466,3.48335,8.1664,-0.803799,0.0678804,-0.071011,0
2024-11-26 21:46:21.306,-0.933799,3.51207,8.16401,-0.792193,0.0355055,-0.0728435,0
2024-11-26 21:46:21.309,-1.01276,3.49532,8.14487,-0.781197,0.0019089,-0.0734544,0
2024-11-26 21:46:21.311,-1.0678,3.49771,8.21187,-0.770202,-0.0255792,-0.0771195,0
2024-11-26 21:46:21.315,-0.972084,3.52642,8.61147,-0.720723,-0.0432938,-0.0875039,0
2024-11-26 21:46:21.317,-0.857229,3.50967,8.89173,-0.681629,-0.0280226,-0.0984991,0
2024-11-26 21:46:21.317,-0.857229,3.50967,8.89173,-0.681629,-0.0280226,-0.0984991,0
2024-11-26 21:46:21.320,-0.734896,3.48574,9.21715,-0.637037,0.00129805,-0.11377,0
2024-11-26 21:46:21.324,-0.519542,3.46182,9.95474,-0.582061,0.041614,-0.132707,0
2024-11-26 21:46:21.325,-0.519542,3.46182,9.95474,-0.582061,0.041614,-0.132707,0
2024-11-26 21:46:21.328,-0.395115,3.41875,10.3089,-0.37926,0.181498,-0.202343,0
2024-11-26 21:46:21.330,-0.337687,3.45464,10.6442,-0.301071,0.212651,-0.22861,0
2024-11-26 21:46:21.331,-0.371187,3.48335,10.8595,-0.301071,0.212651,-0.22861,0
2024-11-26 21:46:21.334,-0.538684,3.40678,10.9436,-0.224105,0.231587,-0.255487,0
2024-11-26 21:46:21.336,-0.804287,3.28953,10.9651,-0.146451,0.238307,-0.272591,0
2024-11-26 21:46:21.339,-1.05583,3.27996,10.8715,-0.073149,0.229755,-0.281753,0
2024-11-26 21:46:21.344,-1.45334,3.25125,10.4551,0.124155,0.123468,-0.266482,0
2024-11-26 21:46:21.345,-1.64716,3.14357,10.1988,0.124155,0.123468,-0.266482,0
2024-11-26 21:46:21.346,-1.64716,3.14357,10.1988,0.124155,0.123468,-0.266482,0
2024-11-26 21:46:21.349,-1.84576,3.07149,9.94517,0.180353,0.0629936,-0.245102,0
2024-11-26 21:46:21.351,-2.04945,3.03081,9.7008,0.229831,-0.00297788,-0.217614,0
2024-11-26 21:46:21.353,-2.12363,2.99013,9.49502,0.275034,-0.0683385,-0.180353,0
2024-11-26 21:46:21.356,-2.13081,2.96381,9.34188,0.318404,-0.137364,-0.140648,0
2024-11-26 21:46:21.357,-2.19063,2.9662,9.2004,0.352001,-0.21372,-0.0966666,0
2024-11-26 21:46:21.360,-2.24566,2.98295,9.03291,0.384376,-0.27847,-0.050853,0
2024-11-26 21:46:21.362,-2.25763,3.0021,8.84387,0.40942,-0.332225,-0.000152712,0
2024-11-26 21:46:21.367,-2.11645,3.07627,8.49661,0.448515,-0.399418,0.0981937,0
2024-11-26 21:46:21.368,-2.11645,3.07627,8.49661,0.448515,-0.399418,0.0981937,0
2024-11-26 21:46:21.369,-2.00877,3.11725,8.3363,0.448515,-0.399418,0.0981937,0
2024-11-26 21:46:21.371,-1.89601,3.17468,8.15923,0.471727,-0.423241,0.195318,0
2024-11-26 21:46:21.377,-1.71894,3.2656,7.8359,0.464397,-0.40797,0.31932,0
2024-11-26 21:46:21.379,-1.65912,3.29193,7.71865,0.464397,-0.40797,0.31932,0
2024-11-26 21:46:21.379,-1.65912,3.29193,7.71865,0.464397,-0.40797,0.31932,0
2024-11-26 21:46:21.382,-1.59691,3.335,7.61815,0.442406,-0.381092,0.384681,0
2024-11-26 21:46:21.384,-1.52513,3.37567,7.55564,0.425913,-0.371319,0.411558,0
2024-11-26 21:46:21.386,-1.43898,3.40439,7.53171,0.425913,-0.371319,0.411558,0
2024-11-26 21:46:21.391,-1.2999,3.41635,7.51735,0.393538,-0.345052,0.464091,0
2024-11-26 21:46:21.391,-1.2999,3.41635,7.51735,0.393538,-0.345052,0.464091,0
2024-11-26 21:46:21.396,-1.25444,3.40439,7.51735,0.37277,-0.333446,0.487303,0
2024-11-26 21:46:21.397,-1.10608,3.38764,7.50299,0.333675,-0.296185,0.529452,0
2024-11-26 21:46:21.397,-1.10608,3.38764,7.50299,0.333675,-0.296185,0.529452,0
2024-11-26 21:46:21.400,-0.94337,3.3685,7.50778,0.319015,-0.270529,0.544112,0
2024-11-26 21:46:21.403,-0.74686,3.335,7.51017,0.304355,-0.244263,0.556329,0
2024-11-26 21:46:21.405,-0.541077,3.2991,7.49103,0.287251,-0.210055,0.562438,0
2024-11-26 21:46:21.409,-0.193819,3.19143,7.44796,0.25793,-0.142251,0.561827,0
2024-11-26 21:46:21.410,-0.193819,3.19143,7.44796,0.25793,-0.142251,0.561827,0
2024-11-26 21:46:21.411,-0.0382852,3.15314,7.41685,0.25793,-0.142251,0.561827,0
2024-11-26 21:46:21.414,0.0933201,3.09332,7.369,0.225555,-0.0793338,0.537393,0
2024-11-26 21:46:21.418,0.320937,3.00449,7.2685,0.186461,-0.0164165,0.49891,0
2024-11-26 21:46:21.419,0.320937,3.00449,7.2685,0.186461,-0.0164165,0.49891,0
2024-11-26 21:46:21.422,0.397508,2.98774,7.30439,0.173022,0.013515,0.473865,0
2024-11-26 21:46:21.423,0.464507,2.95185,7.26371,0.159584,0.0434465,0.450653,0
2024-11-26 21:46:21.425,0.521934,2.9351,7.17039,0.146756,0.0727672,0.418278,0
2024-11-26 21:46:21.429,0.579362,2.92792,7.12254,0.133928,0.102699,0.386514,0
2024-11-26 21:46:21.430,0.598505,2.90399,7.11296,0.116214,0.128354,0.354139,0
2024-11-26 21:46:21.434,0.593719,2.88963,7.19911,0.100332,0.13996,0.316266,0
2024-11-26 21:46:21.438,0.550648,2.93749,6.9332,0.0704001,0.168059,0.23991,0
2024-11-26 21:46:21.440,0.550648,2.97338,6.92602,0.0545181,0.179055,0.200205,0
2024-11-26 21:46:21.442,0.524327,3.00688,6.92363,0.0368035,0.185774,0.1605,0
2024-11-26 21:46:21.442,0.524327,3.00688,6.92363,0.0368035,0.185774,0.1605,0
2024-11-26 21:46:21.450,0.368794,3.10768,6.8997,-0.0138968,0.186385,0.0481042,0
2024-11-26 21:46:21.450,0.287438,3.18903,6.90928,-0.0138968,0.186385,0.0481042,0
2024-11-26 21:46:21.451,0.212961,3.27757,6.94277,-0.0279463,0.179055,0.0157293,0
2024-11-26 21:46:21.452,0.287438,3.18903,6.90928,-0.0279463,0.179055,0.0157293,0
2024-11-26 21:46:21.454,0.143569,3.34935,6.98585,-0.0279463,0.179055,0.0157293,0
2024-11-26 21:46:21.458,0.066999,3.41396,7.04836,-0.0707056,0.145458,-0.071011,0
2024-11-26 21:46:21.458,-0.00478565,3.49053,7.12254,-0.0707056,0.145458,-0.071011,0
2024-11-26 21:46:21.461,-0.0765703,3.56231,7.16082,-0.0853659,0.133852,-0.094834,0
2024-11-26 21:46:21.463,-0.141177,3.61256,7.19432,-0.096972,0.122857,-0.113159,0
2024-11-26 21:46:21.466,-0.198604,3.65354,7.28286,-0.107967,0.106364,-0.132096,0
2024-11-26 21:46:21.469,-0.244068,3.68943,7.369,-0.116519,0.0917034,-0.147367,0
2024-11-26 21:46:21.470,-0.292223,3.71815,7.46232,-0.125682,0.073378,-0.160195,0
2024-11-26 21:46:21.474,-0.349651,3.74447,7.59183,-0.126293,0.0434465,-0.177909,0
2024-11-26 21:46:21.475,-0.407079,3.78275,7.73061,-0.126293,0.0434465,-0.177909,0
2024-11-26 21:46:21.480,-0.464507,3.8665,8.02732,-0.120184,0.0147367,-0.183407,0
2024-11-26 21:46:21.483,-0.478864,3.90479,8.18315,-0.111021,0.00374144,-0.180964,0
2024-11-26 21:46:21.484,-0.502792,3.95504,8.32912,-0.101248,-0.00542127,-0.17852,0
2024-11-26 21:46:21.485,-0.502792,3.95504,8.32912,-0.101248,-0.00542127,-0.17852,0
2024-11-26 21:46:21.487,-0.519542,4.02921,8.47747,-0.0859767,-0.010308,-0.171801,0
2024-11-26 21:46:21.490,-0.517149,4.09621,8.64018,-0.0670405,-0.0096972,-0.162027,0
2024-11-26 21:46:21.492,-0.507577,4.13928,8.8008,-0.0462717,-0.00419957,-0.151032,0
2024-11-26 21:46:21.494,-0.490828,4.17278,8.93719,-0.0236703,0.00618483,-0.139426,0
2024-11-26 21:46:21.496,-0.447757,4.22094,9.02812,0.0025961,0.021456,-0.124155,0
2024-11-26 21:46:21.499,-0.402293,4.2688,9.0999,0.0300842,0.0397814,-0.107051,0
2024-11-26 21:46:21.504,-0.265603,4.29512,9.2028,0.115603,0.113083,-0.047188,0
2024-11-26 21:46:21.507,-0.20339,4.31426,9.24826,0.115603,0.113083,-0.047188,0
2024-11-26 21:46:21.507,-0.20339,4.31426,9.24826,0.115603,0.113083,-0.047188,0
2024-11-26 21:46:21.509,-0.145962,4.35494,9.27488,0.146145,0.141182,-0.0258083,0
2024-11-26 21:46:21.514,-0.0717847,4.41954,9.27966,0.196235,0.193715,0.016951,0
2024-11-26 21:46:21.514,-0.0717847,4.41954,9.27966,0.196235,0.193715,0.016951,0
2024-11-26 21:46:21.518,-0.0526421,4.49851,9.29163,0.243881,0.241361,0.0664296,0
2024-11-26 21:46:21.518,-0.0526421,4.49851,9.29163,0.243881,0.241361,0.0664296,0
2024-11-26 21:46:21.522,-0.040678,4.58226,9.27727,0.276867,0.283509,0.112243,0
2024-11-26 21:46:21.523,-0.040678,4.58226,9.27727,0.276867,0.283509,0.112243,0
2024-11-26 21:46:21.527,-0.0382852,4.67797,9.24826,0.297635,0.313441,0.153781,0
2024-11-26 21:46:21.528,-0.0334995,4.62533,9.2677,0.303744,0.323825,0.173328,0
2024-11-26 21:46:21.531,-0.0215354,4.76172,9.18126,0.304355,0.332988,0.18921,0
2024-11-26 21:46:21.531,-0.0215354,4.76172,9.18126,0.304355,0.332988,0.18921,0
2024-11-26 21:46:21.535,-0.0143569,4.78116,9.14537,0.293359,0.337264,0.211811,0
2024-11-26 21:46:21.537,-0.040678,4.79552,9.12862,0.293359,0.337264,0.211811,0
2024-11-26 21:46:21.539,-0.0885344,4.83141,9.11426,0.293359,0.337264,0.211811,0
2024-11-26 21:46:21.542,-0.157926,4.86012,9.12623,0.268315,0.324436,0.225861,0
2024-11-26 21:46:21.544,-0.241675,4.88166,9.14297,0.235329,0.293894,0.236245,0
2024-11-26 21:46:21.546,-0.318545,4.90559,9.15973,0.235329,0.293894,0.236245,0
2024-11-26 21:46:21.549,-0.380758,4.93191,9.19562,0.191959,0.251745,0.244797,0
2024-11-26 21:46:21.551,-0.402293,4.94387,9.24587,0.191959,0.251745,0.244797,0
2024-11-26 21:46:21.554,-0.402293,4.94148,9.29642,0.140648,0.205321,0.246019,0
2024-11-26 21:46:21.556,-0.411865,4.92473,9.36341,0.11377,0.180276,0.244186,0
2024-11-26 21:46:21.558,-0.440578,4.89841,9.4687,0.11377,0.180276,0.244186,0
2024-11-26 21:46:21.560,-0.464507,4.86251,9.58595,0.0832279,0.154621,0.240521,0
2024-11-26 21:46:21.564,-0.457328,4.71147,9.85903,0.0245866,0.093536,0.236856,0
2024-11-26 21:46:21.565,-0.457328,4.71147,9.85903,0.0245866,0.093536,0.236856,0
2024-11-26 21:46:21.567,-0.409472,4.62293,10.0409,-0.00534491,0.0593285,0.23258,0
2024-11-26 21:46:21.570,-0.337687,4.53918,10.2299,-0.0310005,0.0226777,0.229526,0
2024-11-26 21:46:21.573,-0.248854,4.47219,10.4456,-0.0597103,-0.0151948,0.224639,0
2024-11-26 21:46:21.574,-0.131605,4.41236,10.7016,-0.0835334,-0.0524565,0.219752,0
2024-11-26 21:46:21.576,0.0,4.37647,10.9699,-0.106135,-0.0891073,0.2112,0
2024-11-26 21:46:21.580,0.122034,4.35015,11.2522,-0.126904,-0.121482,0.200205,0
2024-11-26 21:46:21.584,0.342473,4.35972,11.8603,-0.140953,-0.152025,0.188599,0
2024-11-26 21:46:21.586,0.445364,4.36929,12.1262,-0.151948,-0.202114,0.161111,0
2024-11-26 21:46:21.589,0.54347,4.39083,12.3918,-0.148894,-0.233267,0.128125,0
2024-11-26 21:46:21.589,0.54347,4.39083,12.3918,-0.148894,-0.233267,0.128125,0
2024-11-26 21:46:21.591,0.581755,4.39801,12.6649,-0.148894,-0.233267,0.128125,0
2024-11-26 21:46:21.594,0.648754,4.37647,12.9209,-0.136066,-0.247928,0.110411,0
2024-11-26 21:46:21.597,0.828216,4.38126,13.3328,-0.0920852,-0.252814,0.0755923,0
2024-11-26 21:46:21.597,0.828216,4.38126,13.3328,-0.0920852,-0.252814,0.0755923,0
2024-11-26 21:46:21.602,0.890728,4.43869,13.5649,-0.029168,-0.232046,0.0413849,0
2024-11-26 21:46:21.608,0.933799,4.49133,13.6415,0.00748288,-0.215553,0.0242812,0
2024-11-26 21:46:21.609,0.933799,4.49133,13.5912,0.00748288,-0.215553,0.0242812,0
2024-11-26 21:46:21.613,0.964906,4.62533,13.5218,0.168136,-0.106822,-0.0355819,0
2024-11-26 21:46:21.613,0.964906,4.62533,13.5218,0.168136,-0.106822,-0.0355819,0
2024-11-26 21:46:21.615,0.948156,4.72343,13.4237,0.168136,-0.106822,-0.0355819,0
2024-11-26 21:46:21.617,0.921835,4.85773,13.3089,0.20723,-0.0726145,-0.0477988,0
2024-11-26 21:46:21.620,0.921835,5.0013,13.1746,0.245102,-0.0359636,-0.0594049,0
2024-11-26 21:46:21.620,0.909871,5.0013,13.1746,0.245102,-0.0359636,-0.0594049,0
2024-11-26 21:46:21.622,0.890728,5.15683,13.0047,0.280532,-0.00297788,-0.0679568,0
2024-11-26 21:46:21.623,0.8668,5.34856,12.842,0.312296,0.0257319,-0.0758978,0
2024-11-26 21:46:21.627,0.852443,5.52563,12.7176,0.344671,0.049555,-0.0844496,0
2024-11-26 21:46:21.631,0.71336,5.79601,12.4158,0.396593,0.0721563,-0.0972774,0
2024-11-26 21:46:21.634,0.227318,5.81037,12.2746,0.428967,0.0886492,-0.0801737,0
2024-11-26 21:46:21.634,0.227318,5.81037,12.2746,0.428967,0.0886492,-0.0801737,0
2024-11-26 21:46:21.636,-1.20897,5.46341,12.4253,0.428967,0.0886492,-0.0801737,0
2024-11-26 21:46:21.640,-1.36929,5.17358,11.7957,0.453401,0.0397814,0.0218378,0
2024-11-26 21:46:21.641,-1.36929,5.17358,11.7957,0.453401,0.0397814,0.0218378,0
2024-11-26 21:46:21.643,-0.852443,5.24297,11.3312,0.441184,-0.0396287,0.0542127,0
2024-11-26 21:46:21.645,-0.45015,5.27647,11.1374,0.41614,-0.0921616,0.0719273,0
2024-11-26 21:46:21.650,-0.160319,5.15444,11.5971,0.367883,-0.139808,0.08109,0
2024-11-26 21:46:21.650,-0.0143569,5.15444,11.5971,0.367883,-0.139808,0.08109,0
2024-11-26 21:46:21.652,0.0885344,5.01805,11.8579,0.367883,-0.139808,0.08109,0
2024-11-26 21:46:21.655,0.184247,4.84577,12.0808,0.319015,-0.182567,0.0645971,0
2024-11-26 21:46:21.657,0.20339,4.60618,12.2818,0.319015,-0.182567,0.0645971,0
2024-11-26 21:46:21.661,0.184247,3.96222,12.7774,0.220669,-0.277248,0.0151185,0
2024-11-26 21:46:21.662,0.184247,3.96222,12.7774,0.188905,-0.291909,-0.0038178,0
2024-11-26 21:46:21.664,0.217747,3.63171,13.0047,0.188905,-0.291909,-0.0038178,0
2024-11-26 21:46:21.669,0.196211,3.25603,13.2491,0.12049,-0.310234,-0.0416903,0
2024-11-26 21:46:21.669,0.141177,2.84178,13.5075,0.12049,-0.310234,-0.0416903,0
2024-11-26 21:46:21.670,0.112463,2.44427,13.7061,0.12049,-0.310234,-0.0416903,0
2024-11-26 21:46:21.675,-0.00717847,1.6663,14.1658,0.0209215,-0.35788,-0.0966666,0
2024-11-26 21:46:21.676,-0.00717847,1.6663,14.1658,0.0209215,-0.35788,-0.0966666,0
2024-11-26 21:46:21.677,-0.0598206,1.28794,14.4102,-0.00901,-0.379871,-0.111327,0
2024-11-26 21:46:21.680,-0.0502493,0.94337,14.6566,-0.0389415,-0.395753,-0.125376,0
2024-11-26 21:46:21.683,-0.0119641,0.596112,14.956,-0.0597103,-0.411635,-0.141869,0
2024-11-26 21:46:21.685,0.0191426,0.275175,15.2575,-0.0755923,-0.423241,-0.154086,0
2024-11-26 21:46:21.687,0.00717847,-0.00957129,15.4612,-0.0853659,-0.422019,-0.164471,0
2024-11-26 21:46:21.690,0.00957129,-0.287438,15.7388,-0.0884201,-0.409191,-0.171801,0
2024-11-26 21:46:21.692,0.040678,-0.512363,16.0382,-0.0804791,-0.39392,-0.179131,1
2024-11-26 21:46:21.695,0.0789631,-0.665504,16.1937,-0.0383307,-0.335279,-0.184018,0
2024-11-26 21:46:21.697,0.193819,-0.639183,16.3182,-0.0383307,-0.335279,-0.184018,0
2024-11-26 21:46:21.700,0.244068,-0.490828,16.1794,-0.00167983,-0.274805,-0.177909,0
2024-11-26 21:46:21.701,0.196211,-0.385544,16.1315,0.0392469,-0.181345,-0.170579,0
2024-11-26 21:46:21.704,0.174676,-0.332901,16.3134,0.0942232,-0.1056,-0.165692,0
2024-11-26 21:46:21.707,0.181855,-0.287438,16.2727,0.152254,-0.0371853,-0.160806,0
2024-11-26 21:46:21.710,0.287438,-0.122034,16.0238,0.297024,0.0831516,-0.154086,0
2024-11-26 21:46:21.714,0.297009,0.0143569,15.7627,0.456456,0.185163,-0.155919,0
2024-11-26 21:46:21.714,0.297009,0.0143569,15.7627,0.456456,0.185163,-0.155919,0
2024-11-26 21:46:21.716,0.294616,0.198604,15.4899,0.456456,0.185163,-0.155919,0
2024-11-26 21:46:21.718,0.347258,0.411865,15.1451,0.537698,0.216927,-0.155919,0
2024-11-26 21:46:21.720,0.392722,0.682254,14.7308,0.615276,0.242583,-0.158362,0
2024-11-26 21:46:21.723,0.397508,0.962513,14.2998,0.76982,0.289618,-0.168136,0
2024-11-26 21:46:21.726,0.297009,1.19701,13.8906,0.76982,0.289618,-0.168136,0
2024-11-26 21:46:21.729,0.272782,1.94387,13.2682,0.920089,0.329934,-0.184018,0
2024-11-26 21:46:21.732,0.318545,2.23131,12.9568,0.920089,0.329934,-0.184018,0
2024-11-26 21:46:21.733,0.318545,2.23131,12.9568,0.920089,0.329934,-0.184018,0
2024-11-26 21:46:21.734,0.282652,2.37248,12.5904,1.06852,0.373304,-0.221279,0
2024-11-26 21:46:21.737,0.124427,2.4658,12.2961,1.06852,0.373304,-0.221279,0
2024-11-26 21:46:21.740,-0.0598206,2.54507,12.0015,1.19314,0.427669,-0.253654,0
2024-11-26 21:46:21.741,-0.117248,2.69821,11.7335,1.24506,0.44233,-0.267093,0
2024-11-26 21:46:21.743,-0.138784,2.87288,11.3025,1.28904,0.464931,-0.289083,0
2024-11-26 21:46:21.746,-0.241675,3.03559,10.8284,1.28904,0.464931,-0.289083,0
2024-11-26 21:46:21.749,-0.380758,3.26321,10.4719,1.34829,0.497917,-0.333064,0
2024-11-26 21:46:21.751,-0.596112,3.47139,10.0983,1.34829,0.497917,-0.333064,0
2024-11-26 21:46:21.754,-1.01276,3.5671,9.71755,1.39777,0.50708,-0.349557,0
2024-11-26 21:46:21.755,-1.52752,3.67747,9.34427,1.40754,0.517464,-0.341005,0
2024-11-26 21:46:21.758,-1.87926,3.82822,8.97308,1.40388,0.49303,-0.321458,0
2024-11-26 21:46:21.761,-2.08774,3.89761,8.50379,1.39166,0.45699,-0.296414,0
2024-11-26 21:46:21.762,-2.3007,3.90957,8.01775,1.36784,0.422783,-0.26465,0
2024-11-26 21:46:21.768,-2.75324,4.02443,7.15604,1.21452,0.292672,-0.13515,0
2024-11-26 21:46:21.768,-2.75324,4.02443,7.15604,1.21452,0.292672,-0.13515,0
2024-11-26 21:46:21.773,-3.24168,4.15125,6.54078,1.07647,0.205932,-0.0215324,0
2024-11-26 21:46:21.773,-3.24168,4.15125,6.54078,1.07647,0.205932,-0.0215324,0
2024-11-26 21:46:21.775,-3.67747,4.27119,6.29881,1.07647,0.205932,-0.0215324,0
2024-11-26 21:46:21.777,-3.97179,4.36212,6.11695,1.00011,0.177222,0.0456608,0
2024-11-26 21:46:21.780,-3.90479,4.30469,6.01885,0.837624,0.0965902,0.18921,0
2024-11-26 21:46:21.782,-3.74925,4.16082,6.02124,0.751495,0.0483333,0.262512,0
2024-11-26 21:46:21.784,-3.57189,3.98854,6.08106,0.751495,0.0483333,0.262512,0
2024-11-26 21:46:21.787,-3.45942,3.81147,6.03799,0.661089,-0.010308,0.33337,0
2024-11-26 21:46:21.791,-3.34218,3.63889,5.84626,0.568852,-0.116595,0.476919,0
2024-11-26 21:46:21.792,-3.34218,3.63889,5.84626,0.371548,-0.150192,0.541058,0
2024-11-26 21:46:21.794,-3.29432,3.63649,5.79601,0.273812,-0.174015,0.603975,0
2024-11-26 21:46:21.795,-3.19861,3.65593,5.8008,0.273812,-0.174015,0.603975,0
2024-11-26 21:46:21.798,-3.13879,3.67747,5.87976,0.177909,-0.190508,0.662617,0
2024-11-26 21:46:21.801,-3.11486,3.67508,5.98774,0.0826171,-0.195395,0.718204,0
2024-11-26 21:46:21.802,-3.06192,3.65833,6.11456,-0.0114534,-0.188065,0.771958,0
2024-11-26 21:46:21.805,-2.96381,3.61974,6.27249,-0.100026,-0.174015,0.81655,0
2024-11-26 21:46:21.807,-2.83938,3.54796,6.47139,-0.18501,-0.150192,0.858088,0
2024-11-26 21:46:21.810,-2.68146,3.49053,6.69631,-0.268086,-0.120261,0.892295,0
2024-11-26 21:46:21.812,-2.52323,3.44028,6.9667,-0.34322,-0.0836097,0.921616,0
2024-11-26 21:46:21.815,-2.3342,3.35653,7.23978,-0.414078,-0.0420721,0.946661,0
2024-11-26 21:46:21.817,-2.07099,3.24885,7.47189,-0.414078,-0.0420721,0.946661,0
2024-11-26 21:46:21.819,-1.80509,3.13161,7.72343,-0.546021,0.0501658,0.97476,0
2024-11-26 21:46:21.822,-1.5347,3.00688,7.98186,-0.604662,0.0953685,0.979035,0
2024-11-26 21:46:21.824,-1.27597,2.90399,8.21187,-0.66025,0.138128,0.975981,0
2024-11-26 21:46:21.828,-0.988834,2.6671,8.56122,-0.750655,0.22609,0.954602,0
2024-11-26 21:46:21.829,-0.988834,2.6671,8.56122,-0.790971,0.276179,0.936276,0
2024-11-26 21:46:21.833,-1.04865,2.52832,8.97308,-0.822735,0.317106,0.915507,0
2024-11-26 21:46:21.833,-1.04865,2.52832,8.97308,-0.822735,0.317106,0.915507,0
2024-11-26 21:46:21.839,-0.682254,2.44427,9.4017,-0.867938,0.337875,0.86725,0
2024-11-26 21:46:21.839,-0.682254,2.44427,9.4017,-0.867938,0.337875,0.86725,0
2024-11-26 21:46:21.842,-0.612862,2.36052,9.74387,-0.878933,0.348259,0.818993,0
2024-11-26 21:46:21.843,-0.612862,2.36052,9.74387,-0.878933,0.348259,0.818993,0
2024-11-26 21:46:21.846,-0.639183,2.31027,9.79412,-0.877711,0.357422,0.797003,0
2024-11-26 21:46:21.847,-0.627219,2.27438,9.82074,-0.869159,0.367806,0.773791,0
2024-11-26 21:46:21.849,-0.553041,2.24327,9.86381,-0.855721,0.383688,0.749357,0
2024-11-26 21:46:21.852,-0.457328,2.16192,9.91167,-0.837395,0.397738,0.724312,0
2024-11-26 21:46:21.857,-0.297009,1.99202,10.0505,-0.786084,0.42828,0.669336,0
2024-11-26 21:46:21.857,-0.297009,1.99202,10.0505,-0.786084,0.42828,0.669336,0
2024-11-26 21:46:21.860,-0.143569,2.02074,10.127,-0.75432,0.444162,0.635128,0
2024-11-26 21:46:21.862,0.0478565,2.09013,10.1797,-0.679186,0.483867,0.562438,0
2024-11-26 21:46:21.865,0.244068,2.17627,10.2538,-0.679186,0.483867,0.562438,0
2024-11-26 21:46:21.866,0.361615,2.28634,10.3184,-0.633983,0.508301,0.522733,0
2024-11-26 21:46:21.868,0.380758,2.42513,10.3448,-0.586948,0.533346,0.483027,0
2024-11-26 21:46:21.872,0.316152,2.53549,10.3232,-0.481271,0.575494,0.416445,0
2024-11-26 21:46:21.873,0.196211,2.61685,10.2299,-0.481271,0.575494,0.416445,0
2024-11-26 21:46:21.878,-0.066999,2.75803,9.87099,-0.428128,0.590155,0.370021,0
2024-11-26 21:46:21.879,-0.066999,2.75803,9.87099,-0.32184,0.589544,0.35475,0
2024-11-26 21:46:21.881,-0.18664,2.80349,9.6338,-0.27114,0.57977,0.343143,0
2024-11-26 21:46:21.882,-0.285045,2.8346,9.37777,-0.27114,0.57977,0.343143,0
2024-11-26 21:46:21.887,-0.380758,2.9016,8.87737,-0.17768,0.556558,0.326651,0
2024-11-26 21:46:21.888,-0.380758,2.9016,8.87737,-0.17768,0.556558,0.326651,0
2024-11-26 21:46:21.890,-0.402293,2.92074,8.6689,-0.13179,0.547396,0.31871,0
2024-11-26 21:46:21.893,-0.395115,2.93749,8.45354,-0.0444391,0.538233,0.31199,0
2024-11-26 21:46:21.895,-0.385544,2.95902,8.25972,-0.0444391,0.538233,0.31199,0
2024-11-26 21:46:21.900,-0.35683,2.99252,7.87897,0.0374144,0.528459,0.310158,0
2024-11-26 21:46:21.900,-0.35683,2.99252,7.87897,0.0374144,0.528459,0.310158,0
2024-11-26 21:46:21.904,-0.392722,3.03799,7.50299,0.111938,0.516242,0.312601,0
2024-11-26 21:46:21.905,-0.392722,3.03799,7.50299,0.146145,0.506469,0.315655,0
2024-11-26 21:46:21.906,-0.402293,3.05713,7.31396,0.146145,0.506469,0.315655,0
2024-11-26 21:46:21.909,-0.402293,3.07867,7.09861,0.174244,0.494863,0.320542,0
2024-11-26 21:46:21.911,-0.378365,3.10529,6.82792,0.198678,0.484478,0.326651,0
2024-11-26 21:46:21.914,-0.342473,3.14357,6.5336,0.234718,0.446606,0.336424,0
2024-11-26 21:46:21.919,-0.294616,3.16989,5.9662,0.247546,0.391629,0.342533,0
2024-11-26 21:46:21.919,-0.229711,3.17468,5.9662,0.247546,0.391629,0.342533,0
2024-11-26 21:46:21.920,-0.138784,3.18903,5.7003,0.247546,0.391629,0.342533,0
2024-11-26 21:46:21.923,-0.0478565,3.21296,5.49213,0.248768,0.36353,0.342533,0
2024-11-26 21:46:21.925,0.0143569,3.22493,5.34377,0.245713,0.333599,0.345587,0
2024-11-26 21:46:21.927,0.0598206,3.22253,5.23101,0.246324,0.314663,0.343754,0
2024-11-26 21:46:21.931,0.0885344,3.21775,5.14248,0.237161,0.285953,0.342533,0
2024-11-26 21:46:21.933,0.131605,3.17946,5.04437,0.237161,0.285953,0.342533,0
2024-11-26 21:46:21.935,0.20339,3.12682,4.97498,0.232275,0.278012,0.343143,0
2024-11-26 21:46:21.942,0.364008,2.91356,4.80748,0.204176,0.268849,0.332148,0
2024-11-26 21:46:21.944,0.411865,2.85853,4.74497,0.204176,0.268849,0.332148,0
2024-11-26 21:46:21.946,0.442971,2.79871,4.7019,0.191959,0.270071,0.330316,0
2024-11-26 21:46:21.947,0.442971,2.79871,4.7019,0.181574,0.270071,0.324207,0
2024-11-26 21:46:21.947,0.442971,2.79871,4.7019,0.181574,0.270071,0.324207,0
2024-11-26 21:46:21.960,0.531506,2.53789,4.33579,0.181574,0.270071,0.324207,0
2024-11-26 21:46:21.962,0.471685,2.47298,4.30469,0.0893364,0.272514,0.300995,0
2024-11-26 21:46:21.966,0.423829,2.41316,4.35494,0.0557398,0.2548,0.293665,0
2024-11-26 21:46:21.966,0.423829,2.41316,4.35494,0.0557398,0.2548,0.293665,0
2024-11-26 21:46:21.968,0.364008,2.3677,4.33819,0.0380252,0.252967,0.291832,0
2024-11-26 21:46:21.968,0.364008,2.3677,4.33819,0.0380252,0.252967,0.291832,0
2024-11-26 21:46:21.971,0.308973,2.31984,4.28076,0.0203107,0.249302,0.290611,0
2024-11-26 21:46:21.972,0.260818,2.27199,4.35972,0.0203107,0.249302,0.290611,0
2024-11-26 21:46:21.973,0.260818,2.27199,4.35972,0.0203107,0.249302,0.290611,0
2024-11-26 21:46:21.974,0.212961,2.24806,4.45304,0.0025961,0.241361,0.29,0
2024-11-26 21:46:21.974,0.212961,2.24806,4.45304,0.0025961,0.241361,0.29,0
2024-11-26 21:46:21.978,0.157926,2.21934,4.54158,-0.024892,0.228533,0.293054,0
2024-11-26 21:46:21.980,0.129212,2.17388,4.65883,-0.0114534,0.234642,0.293054,0
2024-11-26 21:46:21.980,0.129212,2.17388,4.65883,-0.0114534,0.234642,0.293054,0
2024-11-26 21:46:21.981,0.119641,2.14995,4.78594,-0.0364981,0.218149,0.294886,0
2024-11-26 21:46:21.984,0.0957129,2.16431,4.92473,-0.0444391,0.210208,0.29733,0
2024-11-26 21:46:21.987,0.0933201,2.19541,5.08505,-0.0542127,0.201656,0.297941,0
2024-11-26 21:46:21.988,0.107677,2.2337,5.2669,-0.0566561,0.188828,0.295497,0
2024-11-26 21:46:21.991,0.0909273,2.29113,5.46102,-0.0566561,0.188828,0.295497,0
2024-11-26 21:46:21.994,0.0598206,2.37488,5.65245,-0.0603212,0.149123,0.29,0
2024-11-26 21:46:21.996,0.0430708,2.4323,5.84387,-0.0603212,0.149123,0.29,0
2024-11-26 21:46:21.999,0.00478565,2.47059,6.03081,-0.0364981,0.0764323,0.28328,0
2024-11-26 21:46:22.001,-0.0454636,2.53549,6.2007,-0.0236703,0.0526092,0.28328,0
2024-11-26 21:46:22.004,-0.0909273,2.5666,6.33948,-0.0236703,0.0526092,0.28328,0
2024-11-26 21:46:22.005,-0.138784,2.57378,6.44477,-0.0108425,0.033673,0.285724,0
2024-11-26 21:46:22.008,-0.189033,2.60489,6.51685,0.00565034,0.0165692,0.290611,0
2024-11-26 21:46:22.010,-0.244068,2.63121,6.57428,0.00565034,0.0165692,0.290611,0
2024-11-26 21:46:22.013,-0.292223,2.61924,6.62931,0.0361927,-0.0158057,0.301606,0
2024-11-26 21:46:22.017,-0.297009,2.65992,6.74417,0.0661242,-0.0396287,0.316877,0
2024-11-26 21:46:22.018,-0.297009,2.65992,6.74417,0.0771195,-0.0500131,0.324207,0
2024-11-26 21:46:22.021,-0.198604,2.74846,6.87099,0.0917798,-0.0567324,0.327261,0
2024-11-26 21:46:22.021,-0.198604,2.74846,6.87099,0.0917798,-0.0567324,0.327261,0
2024-11-26 21:46:22.025,-0.141177,2.8346,6.94277,0.0997208,-0.0597867,0.327872,0
2024-11-26 21:46:22.027,-0.102891,2.93749,7.01725,0.118046,-0.0634518,0.329094,0
2024-11-26 21:46:22.028,-0.0789631,3.0332,7.07468,0.118046,-0.0634518,0.329094,0
2024-11-26 21:46:22.032,-0.0693919,3.15075,7.12971,0.123544,-0.0646735,0.325429,0
2024-11-26 21:46:22.034,-0.124427,3.27518,7.17039,0.12782,-0.0597867,0.321153,0
2024-11-26 21:46:22.037,-0.18664,3.37567,7.21586,0.136372,-0.0494023,0.308936,0
2024-11-26 21:46:22.039,-0.181855,3.49292,7.23021,0.136372,-0.0536782,0.302217,0
2024-11-26 21:46:22.041,-0.177069,3.61496,7.21107,0.136372,-0.0536782,0.302217,0
2024-11-26 21:46:22.043,-0.217747,3.74686,7.17996,0.132707,-0.0634518,0.294886,0
2024-11-26 21:46:22.046,-0.251246,3.88804,7.17278,0.129041,-0.0762796,0.288778,0
2024-11-26 21:46:22.047,-0.260818,3.97657,7.16561,0.119879,-0.0927724,0.27595,0
2024-11-26 21:46:22.051,-0.344866,4.06032,7.17039,0.0899473,-0.159355,0.251516,0
2024-11-26 21:46:22.052,-0.502792,4.15843,7.26132,0.0899473,-0.159355,0.251516,0
2024-11-26 21:46:22.054,-0.689432,4.29272,7.35943,0.0667351,-0.192341,0.237467,0
2024-11-26 21:46:22.058,-0.80668,4.42911,7.45753,0.042912,-0.223494,0.222196,0
2024-11-26 21:46:22.060,-0.862014,4.51286,7.56042,0.0172564,-0.252814,0.20387,0
2024-11-26 21:46:22.062,-0.96012,4.58465,7.64926,-0.0138968,-0.282746,0.183712,0
2024-11-26 21:46:22.065,-1.07498,4.68275,7.8024,-0.073149,-0.32917,0.13851,0
2024-11-26 21:46:22.067,-1.18505,4.81705,8.03211,-0.10247,-0.353604,0.114687,0
2024-11-26 21:46:22.069,-1.24965,4.92473,8.28126,-0.10247,-0.353604,0.114687,0
2024-11-26 21:46:22.072,-1.23529,4.99173,8.53251,-0.155613,-0.389033,0.0652079,0
2024-11-26 21:46:22.076,-1.18265,5.08744,9.00898,-0.155613,-0.389033,0.0652079,0
2024-11-26 21:46:22.077,-1.15155,5.08744,9.00898,-0.201503,-0.406137,0.00473407,0
2024-11-26 21:46:22.079,-1.14197,5.12573,9.25065,-0.201503,-0.406137,0.00473407,0
2024-11-26 21:46:22.083,-1.18026,5.13769,9.79412,-0.233267,-0.411024,-0.0624591,0
2024-11-26 21:46:22.084,-1.18026,5.13769,9.79412,-0.233267,-0.411024,-0.0624591,0
2024-11-26 21:46:22.087,-1.27597,5.08505,10.2419,-0.254647,-0.412856,-0.128431,0
2024-11-26 21:46:22.087,-1.27597,5.08505,10.2419,-0.254647,-0.412856,-0.128431,0
2024-11-26 21:46:22.090,-1.31186,5.05155,10.448,-0.260145,-0.412246,-0.155308,0
2024-11-26 21:46:22.092,-1.31426,5.01326,10.6346,-0.260145,-0.409802,-0.183407,0
2024-11-26 21:46:22.098,-1.23051,4.96541,11.0536,-0.252204,-0.397585,-0.234107,0
2024-11-26 21:46:22.098,-1.23051,4.96541,11.0536,-0.252204,-0.397585,-0.234107,0
2024-11-26 21:46:22.100,-1.13958,4.97019,11.2379,-0.222272,-0.366432,-0.278699,0
2024-11-26 21:46:22.102,-1.05105,5.0013,11.4102,-0.222272,-0.366432,-0.278699,0
2024-11-26 21:46:22.105,-0.974477,5.0324,11.5828,-0.222272,-0.366432,-0.278699,0
2024-11-26 21:46:22.109,-0.825823,5.14008,11.9273,-0.183789,-0.326116,-0.321458,0
2024-11-26 21:46:22.110,-0.825823,5.14008,11.9273,-0.136066,-0.290076,-0.364829,0
2024-11-26 21:46:22.113,-0.758824,5.26451,12.2028,-0.136066,-0.290076,-0.364829,0
2024-11-26 21:46:22.114,-0.758824,5.26451,12.2028,-0.0871984,-0.270529,-0.406977,0
2024-11-26 21:46:22.117,-0.76361,5.31954,12.2961,-0.0871984,-0.270529,-0.406977,0
2024-11-26 21:46:22.118,-0.811466,5.36531,12.3416,-0.0652079,-0.269307,-0.427135,0
2024-11-26 21:46:22.121,-0.897907,5.40838,12.3751,-0.0242812,-0.2858,-0.460732,0
2024-11-26 21:46:22.124,-1.01276,5.40838,12.4182,-0.0242812,-0.2858,-0.460732,0
2024-11-26 21:46:22.126,-1.0989,5.36531,12.4373,-0.00656661,-0.293741,-0.474781,0
2024-11-26 21:46:22.130,-1.30947,5.32672,12.6434,0.0239758,-0.285189,-0.496772,0
2024-11-26 21:46:22.130,-1.30947,5.32672,12.6434,0.0239758,-0.285189,-0.496772,0
2024-11-26 21:46:22.133,-1.44138,5.31954,12.7893,0.0465771,-0.302904,-0.502269,0
2024-11-26 21:46:22.135,-1.50838,5.30997,12.8803,0.0465771,-0.302904,-0.502269,0
2024-11-26 21:46:22.139,-1.35972,5.25254,12.8851,0.0496313,-0.320618,-0.497993,0
2024-11-26 21:46:22.139,-1.35972,5.25254,12.8851,0.0496313,-0.320618,-0.497993,0
2024-11-26 21:46:22.141,-1.19701,5.22862,12.8994,0.0447446,-0.319397,-0.499215,0
2024-11-26 21:46:22.145,-1.01755,5.22383,12.9855,0.0386361,-0.320008,-0.490052,0
2024-11-26 21:46:22.147,-0.888335,5.20708,13.043,0.0380252,-0.310234,-0.478446,0
2024-11-26 21:46:22.149,-0.833001,5.21187,13.0573,0.0380252,-0.310234,-0.478446,0
2024-11-26 21:46:22.152,-0.8668,5.25015,13.0358,0.02703,-0.27114,-0.441184,0
2024-11-26 21:46:22.154,-0.974477,5.29322,13.0119,0.02703,-0.27114,-0.441184,0
2024-11-26 21:46:22.157,-1.14676,5.33181,12.9832,0.0196998,-0.232046,-0.41614,0
2024-11-26 21:46:22.159,-1.34776,5.39163,12.9521,0.00626118,-0.183178,-0.388652,0
2024-11-26 21:46:22.161,-1.54666,5.49691,12.9879,-0.00901,-0.119039,-0.356277,0
2024-11-26 21:46:22.163,-1.77159,5.62373,13.0669,-0.0261137,-0.0475697,-0.322069,0
2024-11-26 21:46:22.165,-1.98485,5.75055,13.1387,-0.0432174,0.0269536,-0.286029,0
2024-11-26 21:46:22.167,-2.14756,5.8678,13.285,-0.0542127,0.11064,-0.247546,0
2024-11-26 21:46:22.172,-2.29113,5.97099,13.4692,-0.0676513,0.292061,-0.171801,0
2024-11-26 21:46:22.172,-2.38206,6.05952,13.6247,-0.0676513,0.292061,-0.171801,0
2024-11-26 21:46:22.175,-2.38206,6.11934,13.7782,-0.0676513,0.292061,-0.171801,0
2024-11-26 21:46:22.178,-2.39163,6.16481,13.9481,-0.0615429,0.498528,-0.103386,0
2024-11-26 21:46:22.180,-2.45623,6.23181,14.0773,-0.0615429,0.498528,-0.103386,0
2024-11-26 21:46:22.182,-2.48255,6.30838,14.1682,-0.0358873,0.707437,-0.0532964,0
2024-11-26 21:46:22.185,-2.45623,6.35623,14.2591,0.00442864,0.878475,-0.0160347,0
2024-11-26 21:46:22.186,-2.4012,6.37777,14.2902,0.00442864,0.878475,-0.0160347,0
2024-11-26 21:46:22.189,-2.4012,6.42323,14.2878,0.0282517,0.945668,-0.000763559,0
2024-11-26 21:46:22.191,-2.47059,6.49292,14.2113,0.0557398,0.996368,0.0120642,0
2024-11-26 21:46:22.196,-2.55464,6.74417,13.8284,0.105829,1.05745,0.0358873,0
2024-11-26 21:46:22.196,-2.55464,6.74417,13.8284,0.105829,1.05745,0.0358873,0
2024-11-26 21:46:22.198,-2.52832,6.94517,13.6056,0.130874,1.07028,0.0413849,1
2024-11-26 21:46:22.200,-2.50887,7.08904,13.4046,0.147367,1.077,0.0413849,0
2024-11-26 21:46:22.203,-2.50409,7.21107,13.2634,0.166914,1.05929,0.0438283,0
2024-11-26 21:46:22.206,-2.4658,7.27807,13.0884,0.218225,0.96155,0.0603212,0
2024-11-26 21:46:22.208,-2.40359,7.28286,12.8946,0.218225,0.96155,0.0603212,0
2024-11-26 21:46:22.211,-2.29352,7.235,12.6673,0.241437,0.879696,0.0670405,0
2024-11-26 21:46:22.212,-2.16431,7.14168,12.3942,0.25793,0.783793,0.0700947,0
2024-11-26 21:46:22.216,-2.06142,7.01964,12.1789,0.281753,0.548006,0.0639862,0
2024-11-26 21:46:22.218,-2.00638,6.85663,12.023,0.283586,0.408122,0.0590995,0
2024-11-26 21:46:22.219,-1.9992,6.67239,11.8675,0.283586,0.408122,0.0590995,0
2024-11-26 21:46:22.223,-2.0351,6.49292,11.8029,0.289083,0.119192,0.0462717,0
2024-11-26 21:46:22.225,-2.08535,6.34906,11.8101,0.289083,0.119192,0.0462717,0
2024-11-26 21:46:22.230,-2.15234,6.09781,11.8795,0.304355,-0.268696,0.0493259,0
2024-11-26 21:46:22.230,-2.15234,6.09781,11.8795,0.304355,-0.268696,0.0493259,0
2024-11-26 21:46:22.231,-2.11884,5.95903,11.956,0.304355,-0.268696,0.0493259,0
2024-11-26 21:46:22.234,-2.05185,5.80559,12.0326,0.312296,-0.381092,0.0542127,0
2024-11-26 21:46:22.236,-1.94626,5.64766,12.1071,0.321458,-0.482493,0.0584886,0
2024-11-26 21:46:22.239,-1.81226,5.44666,12.1765,0.338562,-0.657195,0.0652079,0
2024-11-26 21:46:22.241,-1.65434,5.21665,12.2243,0.338562,-0.657195,0.0652079,0
2024-11-26 21:46:22.243,-1.48445,4.98694,12.2698,0.346503,-0.728664,0.0700947,0
2024-11-26 21:46:22.246,-1.28315,4.72343,12.3488,0.353833,-0.792193,0.0670405,0
2024-11-26 21:46:22.250,-0.902692,4.06511,12.5306,0.362385,-0.888096,0.0597103,0
2024-11-26 21:46:22.252,-0.74686,3.7349,12.641,0.362385,-0.888096,0.0597103,0
2024-11-26 21:46:22.256,-0.593719,3.3685,12.7846,0.370326,-0.921692,0.0511585,0
2024-11-26 21:46:22.256,-0.593719,3.3685,12.7846,0.370326,-0.921692,0.0511585,0
2024-11-26 21:46:22.260,-0.328116,2.56899,13.0597,0.380711,-0.863662,0.0389415,0
2024-11-26 21:46:22.263,-0.141177,2.20499,13.2658,0.380711,-0.863662,0.0389415,0
2024-11-26 21:46:22.263,-0.141177,2.20499,13.2658,0.380711,-0.863662,0.0389415,0
2024-11-26 21:46:22.267,0.35683,1.44377,13.675,0.39476,-0.775089,0.0261137,0
2024-11-26 21:46:22.267,0.35683,1.44377,13.675,0.39476,-0.775089,0.0261137,0
2024-11-26 21:46:22.270,0.624826,1.07019,13.8188,0.405755,-0.71828,0.016951,0
2024-11-26 21:46:22.271,0.8668,0.699003,13.9265,0.414307,-0.657195,0.00106898,0
2024-11-26 21:46:22.274,1.10369,0.349651,13.9863,0.422859,-0.593667,-0.0172564,0
2024-11-26 21:46:22.277,1.35733,0.0574277,13.9863,0.447904,-0.454394,-0.0642917,0
2024-11-26 21:46:22.278,1.56102,-0.157926,13.9146,0.447904,-0.454394,-0.0642917,0
2024-11-26 21:46:22.280,1.72852,-0.328116,13.7638,0.458288,-0.387201,-0.091169,0
2024-11-26 21:46:22.283,1.96301,-0.474078,13.5194,0.471727,-0.320618,-0.118657,0
2024-11-26 21:46:22.290,2.54507,-0.471685,12.4947,0.485165,-0.11232,-0.221279,0
2024-11-26 21:46:22.292,2.5666,-0.349651,12.143,0.483944,-0.0481806,-0.254265,0
2024-11-26 21:46:22.293,2.5666,-0.349651,12.143,0.482722,0.0116825,-0.287251,0
2024-11-26 21:46:22.296,2.52592,-0.198604,11.779,0.476614,0.0605502,-0.316572,0
2024-11-26 21:46:22.300,2.49691,0.16989,11.1254,0.461342,0.128965,-0.376435,0
2024-11-26 21:46:22.300,2.49691,0.16989,11.1254,0.461342,0.128965,-0.376435,0
2024-11-26 21:46:22.302,2.48495,0.385544,10.8571,0.461342,0.128965,-0.376435,0
2024-11-26 21:46:22.303,2.48495,0.385544,10.8571,0.454623,0.153399,-0.405144,0
2024-11-26 21:46:22.305,2.48255,0.576969,10.5532,0.454623,0.153399,-0.405144,0
2024-11-26 21:46:22.306,2.50648,0.754038,10.2203,0.441184,0.169892,-0.435076,0
2024-11-26 21:46:22.309,2.54507,0.967299,9.9332,0.433243,0.183941,-0.465618,0
2024-11-26 21:46:22.312,2.53071,1.17787,9.68405,0.418583,0.188217,-0.497993,0
2024-11-26 21:46:22.313,2.4323,1.36211,9.45913,0.405755,0.183331,-0.528536,0
2024-11-26 21:46:22.317,2.30309,1.52034,9.24587,0.394149,0.169892,-0.557245,0
2024-11-26 21:46:22.318,2.11406,1.67827,9.04248,0.381932,0.147291,-0.580458,0
2024-11-26 21:46:22.321,1.86012,1.82901,8.83669,0.366661,0.118581,-0.597561,0
2024-11-26 21:46:22.324,1.61845,1.96301,8.64975,0.35139,0.081319,-0.608557,0
2024-11-26 21:46:22.326,1.39801,2.07577,8.49661,0.319626,-0.00786466,-0.609167,0
2024-11-26 21:46:22.329,1.21376,2.16431,8.34347,0.298246,-0.0567324,-0.600005,0
2024-11-26 21:46:22.331,1.07976,2.24566,8.18076,0.298246,-0.0567324,-0.600005,0
2024-11-26 21:46:22.332,0.962513,2.31266,8.04168,0.279921,-0.101935,-0.587177,0
2024-11-26 21:46:22.335,0.847657,2.37009,7.93879,0.257319,-0.147138,-0.569462,0
2024-11-26 21:46:22.338,0.754038,2.41795,7.85025,0.208452,-0.232046,-0.520595,0
2024-11-26 21:46:22.339,0.687039,2.45145,7.7689,0.208452,-0.232046,-0.520595,0
2024-11-26 21:46:22.343,0.663111,2.47059,7.70429,0.163249,-0.296795,-0.45951,0
2024-11-26 21:46:22.344,0.672682,2.47777,7.67079,0.163249,-0.296795,-0.45951,0
2024-11-26 21:46:22.346,0.699003,2.46341,7.65883,0.138815,-0.325505,-0.427135,0
2024-11-26 21:46:22.350,0.742074,2.44666,7.65643,0.0923906,-0.367043,-0.368494,0
2024-11-26 21:46:22.352,0.809073,2.44905,7.63729,0.0923906,-0.367043,-0.368494,0
2024-11-26 21:46:22.353,0.917049,2.43948,7.60379,0.0728435,-0.378649,-0.33734,0
2024-11-26 21:46:22.357,1.0319,2.42752,7.56042,0.0331385,-0.382925,-0.283586,0
2024-11-26 21:46:22.358,1.13958,2.4347,7.49103,0.0331385,-0.382925,-0.283586,0
2024-11-26 21:46:22.362,1.23529,2.44666,7.41446,0.0135914,-0.374984,-0.257319,0
2024-11-26 21:46:22.363,1.30708,2.4658,7.35464,-0.000458135,-0.360934,-0.23594,0
2024-11-26 21:46:22.366,1.32383,2.5017,7.29243,-0.0322222,-0.315121,-0.190126,0
2024-11-26 21:46:22.369,1.31186,2.55464,7.235,-0.0322222,-0.315121,-0.190126,0
2024-11-26 21:46:22.371,1.3334,2.59771,7.21586,-0.0572669,-0.232046,-0.151643,0
2024-11-26 21:46:22.373,1.39083,2.6336,7.18236,-0.0572669,-0.232046,-0.151643,0
2024-11-26 21:46:22.376,1.44138,2.63599,7.16082,-0.0652079,-0.180734,-0.136372,0
2024-11-26 21:46:22.377,1.44138,2.60489,7.19432,-0.0743707,-0.12698,-0.121711,0
2024-11-26 21:46:22.379,1.40279,2.57857,7.23261,-0.0798683,-0.0762796,-0.107051,0
2024-11-26 21:46:22.383,1.33101,2.56182,7.26371,-0.0908635,0.0202343,-0.0856713,0
2024-11-26 21:46:22.385,1.25204,2.53549,7.31396,-0.0926961,0.0666587,-0.0777303,0
2024-11-26 21:46:22.386,1.18744,2.48016,7.34985,-0.0926961,0.0666587,-0.0777303,0
2024-11-26 21:46:22.390,1.11326,2.44427,7.3666,-0.0933069,0.108807,-0.0728435,0
2024-11-26 21:46:22.391,1.02712,2.42513,7.369,-0.0945286,0.149123,-0.0673459,0
2024-11-26 21:46:22.394,0.948156,2.42513,7.37857,-0.0939178,0.184552,-0.0636808,0
2024-11-26 21:46:22.396,0.878764,2.44427,7.39292,-0.0963612,0.221203,-0.0636808,0
2024-11-26 21:46:22.398,0.813859,2.4682,7.39532,-0.0963612,0.250524,-0.0655134,0
2024-11-26 21:46:22.402,0.742074,2.47777,7.39771,-0.0926961,0.275568,-0.0679568,0
2024-11-26 21:46:22.403,0.663111,2.48016,7.37378,-0.0926961,0.296948,-0.0722327,0
2024-11-26 21:46:22.405,0.576969,2.48973,7.34985,-0.0939178,0.316495,-0.0795629,0
2024-11-26 21:46:22.409,0.462114,2.4993,7.32832,-0.0951395,0.331156,-0.0862822,0
2024-11-26 21:46:22.411,0.313759,2.51127,7.29721,-0.0988045,0.351924,-0.105218,0
2024-11-26 21:46:22.413,0.145962,2.52323,7.27328,-0.0988045,0.351924,-0.105218,0
2024-11-26 21:46:22.416,0.0,2.52323,7.24696,-0.100026,0.382467,-0.123544,0
2024-11-26 21:46:22.418,-0.0861416,2.52084,7.17518,-0.106746,0.398349,-0.133928,0
2024-11-26 21:46:22.420,-0.12682,2.52592,7.15364,-0.106746,0.398349,-0.133928,0
2024-11-26 21:46:22.423,-0.174676,2.53071,7.19432,-0.109189,0.406901,-0.145534,0
2024-11-26 21:46:22.424,-0.232104,2.5331,7.18714,-0.114076,0.409344,-0.15714,0
2024-11-26 21:46:22.427,-0.277567,2.5331,7.15125,-0.119573,0.407511,-0.172412,0
2024-11-26 21:46:22.430,-0.32333,2.55224,7.10818,-0.12446,0.405068,-0.190126,0
2024-11-26 21:46:22.432,-0.361615,2.57139,7.07468,-0.135455,0.400181,-0.208452,0
2024-11-26 21:46:22.434,-0.404686,2.59053,7.06032,-0.147061,0.389797,-0.226777,0
2024-11-26 21:46:22.436,-0.483649,2.61924,7.05554,-0.155613,0.380634,-0.245713,0
2024-11-26 21:46:22.439,-0.584148,2.68146,7.04357,-0.175237,0.353757,-0.285418,0
2024-11-26 21:46:22.442,-0.667897,2.78674,7.01964,-0.175237,0.353757,-0.285418,0
2024-11-26 21:46:22.443,-0.751645,2.8992,7.00738,-0.186843,0.343983,-0.305576,0
2024-11-26 21:46:22.446,-0.85005,2.93988,7.01964,-0.192951,0.330545,-0.325734,0
2024-11-26 21:46:22.448,-0.962513,2.93031,7.01486,-0.197227,0.314052,-0.342838,0
2024-11-26 21:46:22.451,-1.08215,2.93031,7.02204,-0.208833,0.255411,-0.363607,0
2024-11-26 21:46:22.453,-1.18505,2.95663,7.03639,-0.208833,0.255411,-0.363607,0
2024-11-26 21:46:22.455,-1.24487,2.99731,7.01725,-0.211888,0.215095,-0.369715,0
2024-11-26 21:46:22.457,-1.23769,3.04756,6.98106,-0.214942,0.172335,-0.376435,0
2024-11-26 21:46:22.459,-1.19701,3.11725,6.94277,-0.221661,0.128965,-0.380711,0
2024-11-26 21:46:22.463,-1.18026,3.18186,6.94756,-0.229602,0.0538309,-0.393538,0
2024-11-26 21:46:22.465,-1.14915,3.24646,6.97388,-0.229602,0.0538309,-0.393538,0
2024-11-26 21:46:22.468,-1.1013,3.30628,6.98824,-0.229602,0.0226777,-0.399036,0
2024-11-26 21:46:22.470,-1.04387,3.33739,7.00738,-0.233267,-0.000534491,-0.405755,0
2024-11-26 21:46:22.471,-0.97687,3.35175,7.04357,-0.233267,-0.000534491,-0.405755,0
2024-11-26 21:46:22.475,-0.921835,3.35892,7.09621,-0.233878,-0.022525,-0.415529,0
2024-11-26 21:46:22.477,-0.895514,3.3326,7.14168,-0.230824,-0.0292443,-0.418583,0
2024-11-26 21:46:22.478,-0.890728,3.31825,7.2015,-0.226548,-0.0316877,-0.424081,0
2024-11-26 21:46:22.482,-0.893121,3.32303,7.25653,-0.221661,-0.0365745,-0.425913,0
2024-11-26 21:46:22.483,-0.893121,3.32782,7.29482,-0.216774,-0.0371853,-0.427746,0
2024-11-26 21:46:22.485,-0.907478,3.34218,7.3355,-0.209444,-0.0377962,-0.425302,0
2024-11-26 21:46:22.489,-0.929013,3.37328,7.34507,-0.203336,-0.0377962,-0.421026,0
2024-11-26 21:46:22.491,-0.945763,3.402,7.32593,-0.189897,-0.0371853,-0.407588,0
2024-11-26 21:46:22.493,-0.955334,3.41157,7.28525,-0.189897,-0.0371853,-0.407588,0
2024-11-26 21:46:22.496,-0.97687,3.44746,7.23261,-0.176459,-0.0500131,-0.386819,0
2024-11-26 21:46:22.498,-1.02473,3.48096,7.17518,-0.170961,-0.0548999,-0.372159,0
2024-11-26 21:46:22.501,-1.0654,3.5001,7.08425,-0.167296,-0.0579541,-0.356277,0
2024-11-26 21:46:22.503,-1.09412,3.54796,6.97867,-0.167296,-0.0579541,-0.356277,0
2024-11-26 21:46:22.505,-1.12762,3.56949,6.89731,-0.161111,-0.0512348,-0.316572,0
2024-11-26 21:46:22.508,-1.17787,3.57667,6.82792,-0.158668,-0.0408504,-0.29397,0
2024-11-26 21:46:22.510,-1.22812,3.59581,6.77049,-0.155613,-0.0316877,-0.268926,0
2024-11-26 21:46:22.512,-1.24008,3.59821,6.73221,-0.150727,-0.0200816,-0.24327,0
2024-11-26 21:46:22.515,-1.24965,3.62453,6.7011,-0.150727,-0.0200816,-0.24327,0
2024-11-26 21:46:22.516,-1.26401,3.67747,6.6676,-0.148283,-0.00786466,-0.217003,0
2024-11-26 21:46:22.518,-1.27597,3.72054,6.63889,-0.14584,0.00313059,-0.191348,0
2024-11-26 21:46:22.522,-1.29512,3.74686,6.60539,-0.143396,0.0147367,-0.163249,0
2024-11-26 21:46:22.524,-1.28794,3.76122,6.56232,-0.141564,0.0269536,-0.138204,0
2024-11-26 21:46:22.525,-1.28076,3.76361,6.55035,-0.139731,0.0410031,-0.112549,0
2024-11-26 21:46:22.529,-1.26401,3.75643,6.56232,-0.134234,0.0739889,-0.0667351,0
2024-11-26 21:46:22.531,-1.21615,3.74686,6.57428,-0.134234,0.0739889,-0.0667351,0
2024-11-26 21:46:22.533,-1.1683,3.70618,6.60778,-0.134234,0.0904818,-0.0453554,0
2024-11-26 21:46:22.535,-1.10369,3.68704,6.67239,-0.131179,0.111251,-0.0258083,0
2024-11-26 21:46:22.538,-1.0343,3.68943,6.72503,-0.133012,0.141182,0.00106898,0
2024-11-26 21:46:22.541,-0.969691,3.6679,6.74896,-0.133012,0.141182,0.00106898,0
2024-11-26 21:46:22.543,-0.917049,3.63889,6.78485,-0.136066,0.160729,0.0206161,0
2024-11-26 21:46:22.544,-0.88355,3.61017,6.81835,-0.136066,0.160729,0.0206161,0
2024-11-26 21:46:22.548,-0.857229,3.58624,6.84945,-0.139731,0.167449,0.0267246,0
2024-11-26 21:46:22.550,-0.828216,3.54796,6.87817,-0.142175,0.174168,0.0316113,0
2024-11-26 21:46:22.551,-0.797109,3.51924,6.9021,-0.144007,0.180887,0.0364981,0
2024-11-26 21:46:22.554,-0.737288,3.50249,6.94277,-0.151337,0.185774,0.0364981,0
2024-11-26 21:46:22.556,-0.675075,3.49053,6.98585,-0.15317,0.185774,0.0358873,0
2024-11-26 21:46:22.559,-0.617647,3.48574,7.02922,-0.159889,0.18272,0.0352764,0
2024-11-26 21:46:22.561,-0.567398,3.49292,7.09861,-0.166609,0.176,0.029168,0
2024-11-26 21:46:22.563,-0.529113,3.51924,7.17996,-0.172183,0.163783,0.024892,0
2024-11-26 21:46:22.565,-0.500399,3.53121,7.26611,-0.181345,0.151566,0.0157293,0
2024-11-26 21:46:22.568,-0.476471,3.55514,7.369,-0.188065,0.137517,0.00656661,0
2024-11-26 21:46:22.570,-0.454935,3.58385,7.46232,-0.194784,0.122246,-0.00442864,0
2024-11-26 21:46:22.573,-0.459721,3.60299,7.57478,-0.200892,0.11064,-0.0135914,0
2024-11-26 21:46:22.576,-0.471685,3.61974,7.71625,-0.202725,0.0898709,-0.0325276,0
2024-11-26 21:46:22.578,-0.457328,3.62214,7.84547,-0.202114,0.0800973,-0.0441337,0
2024-11-26 21:46:22.581,-0.428614,3.62453,7.97229,-0.200892,0.0727672,-0.0557398,0
2024-11-26 21:46:22.583,-0.402293,3.63649,8.09671,-0.200892,0.0727672,-0.0557398,0
2024-11-26 21:46:22.584,-0.383151,3.65354,8.20469,-0.195395,0.0660479,-0.0636808,0
2024-11-26 21:46:22.588,-0.371187,3.68704,8.31237,-0.188065,0.0587177,-0.0740652,0
2024-11-26 21:46:22.590,-0.366401,3.71575,8.42004,-0.170961,0.0501658,-0.0917798,0
2024-11-26 21:46:22.592,-0.354437,3.72533,8.49422,-0.170961,0.0501658,-0.0917798,0
2024-11-26 21:46:22.594,-0.344866,3.75883,8.55165,-0.170961,0.0501658,-0.0917798,0
2024-11-26 21:46:22.596,-0.35683,3.79711,8.60668,-0.148283,0.049555,-0.103997,0
2024-11-26 21:46:22.602,-0.392722,3.87129,8.66172,-0.116519,0.0568851,-0.111327,0
2024-11-26 21:46:22.604,-0.392722,3.87129,8.66172,-0.0981937,0.065437,-0.110716,0
2024-11-26 21:46:22.605,-0.407079,3.92393,8.62583,-0.0841442,0.0807082,-0.108273,0
2024-11-26 21:46:22.605,-0.407079,3.92393,8.62583,-0.0841442,0.0807082,-0.108273,0
2024-11-26 21:46:22.609,-0.387936,3.94068,8.59951,-0.0670405,0.0959794,-0.107051,0
2024-11-26 21:46:22.611,-0.378365,3.95025,8.57318,-0.0499368,0.115526,-0.103997,0
2024-11-26 21:46:22.614,-0.395115,3.95982,8.56601,-0.0181727,0.16134,-0.094834,0
2024-11-26 21:46:22.616,-0.438186,3.98854,8.58754,-0.00167983,0.18272,-0.0893364,0
2024-11-26 21:46:22.618,-0.512363,4.01486,8.61865,0.0135914,0.20471,-0.0826171,0
2024-11-26 21:46:22.621,-0.588933,4.05314,8.64497,0.0135914,0.20471,-0.0826171,0
2024-11-26 21:46:22.623,-0.65354,4.10578,8.67847,0.0490205,0.251135,-0.0649025,0
2024-11-26 21:46:22.625,-0.71336,4.15603,8.7003,0.0490205,0.251135,-0.0649025,0
2024-11-26 21:46:22.630,-0.871586,4.31187,8.69522,0.094834,0.303667,-0.0294734,0
2024-11-26 21:46:22.630,-0.871586,4.31187,8.69522,0.094834,0.303667,-0.0294734,0
2024-11-26 21:46:22.632,-0.986441,4.37408,8.67129,0.094834,0.303667,-0.0294734,0
2024-11-26 21:46:22.634,-1.08933,4.44826,8.64258,0.102775,0.320771,-0.0135914,0
2024-11-26 21:46:22.637,-1.19701,4.52004,8.62104,0.115603,0.34887,0.0157293,0
2024-11-26 21:46:22.638,-1.30947,4.58226,8.59472,0.115603,0.34887,0.0157293,0
2024-11-26 21:46:22.642,-1.42223,4.65883,8.56361,0.113159,0.367806,0.0536018,0
2024-11-26 21:46:22.647,-1.62802,4.78116,8.5684,0.113159,0.367806,0.0536018,0
2024-11-26 21:46:22.647,-1.62802,4.78116,8.5684,0.113159,0.367806,0.0536018,0
2024-11-26 21:46:22.653,-1.94865,5.01087,8.68325,0.0862822,0.373915,0.13851,0
2024-11-26 21:46:22.654,-1.94865,5.01087,8.68325,0.0862822,0.373915,0.13851,0
2024-11-26 21:46:22.654,-1.94865,5.01087,8.68325,0.0862822,0.373915,0.13851,0
2024-11-26 21:46:22.662,-2.20499,5.35813,9.12862,0.0477988,0.320771,0.241132,0
2024-11-26 21:46:22.664,-2.29591,5.45145,9.20519,0.0477988,0.303057,0.266788,0
2024-11-26 21:46:22.665,-2.29591,5.45145,9.20519,0.0477988,0.303057,0.266788,0
2024-11-26 21:46:22.667,-2.39402,5.53041,9.30838,0.0221432,0.28412,0.296108,0
2024-11-26 21:46:22.670,-2.39402,5.58545,9.4352,0.00442864,0.254189,0.356582,0
2024-11-26 21:46:22.670,-2.47537,5.58545,9.4352,0.00442864,0.254189,0.356582,0
2024-11-26 21:46:22.671,-2.53789,5.6333,9.55245,0.00442864,0.254189,0.356582,0
2024-11-26 21:46:22.672,-2.53789,5.6333,9.55245,0.00442864,0.254189,0.356582,0
2024-11-26 21:46:22.675,-2.59053,5.65245,9.67687,-0.00534491,0.239528,0.390179,0
2024-11-26 21:46:22.676,-2.66231,5.66441,9.78934,-0.0132859,0.227922,0.42683,0
2024-11-26 21:46:22.679,-2.70778,5.6692,9.88056,-0.0181727,0.21876,0.461648,0
2024-11-26 21:46:22.682,-2.72213,5.64766,9.95713,-0.0261137,0.210208,0.500742,0
2024-11-26 21:46:22.684,-2.74128,5.61177,10.0433,-0.0377198,0.196158,0.577709,0
2024-11-26 21:46:22.687,-2.7341,5.56391,10.1557,-0.0426066,0.191882,0.616192,0
2024-11-26 21:46:22.689,-2.72453,5.51366,10.2778,-0.0426066,0.191882,0.616192,0
2024-11-26 21:46:22.691,-2.72213,5.46581,10.4145,-0.0517693,0.186996,0.690105,0
2024-11-26 21:46:22.694,-2.70299,5.39641,10.5652,-0.0517693,0.186996,0.690105,0
2024-11-26 21:46:22.695,-2.66471,5.33899,10.7303,-0.0517693,0.190661,0.72248,0
2024-11-26 21:46:22.697,-2.60728,5.3004,10.9026,-0.0536018,0.196769,0.754855,0
2024-11-26 21:46:22.701,-2.50887,5.23819,11.0871,-0.0505476,0.205932,0.783564,0
2024-11-26 21:46:22.703,-2.37488,5.15922,11.2666,-0.0499368,0.215705,0.807387,0
2024-11-26 21:46:22.704,-2.23849,5.09462,11.4221,-0.0444391,0.229755,0.826324,0
2024-11-26 21:46:22.708,-2.10688,5.04198,11.5517,-0.0316113,0.254189,0.850147,0
2024-11-26 21:46:22.710,-1.99202,4.98694,11.6593,-0.0261137,0.268849,0.854423,0
2024-11-26 21:46:22.712,-1.90319,4.94866,11.7503,-0.0261137,0.268849,0.854423,0
2024-11-26 21:46:22.717,-1.76919,4.89123,11.9154,-0.00595576,0.29817,0.850758,0
2024-11-26 21:46:22.717,-1.76919,4.89123,11.9154,-0.00595576,0.29817,0.850758,0
2024-11-26 21:46:22.720,-1.68544,4.85294,12.0063,0.0160347,0.332377,0.827545,0
2024-11-26 21:46:22.722,-1.56341,4.82423,12.1047,0.0160347,0.332377,0.827545,0
2024-11-26 21:46:22.724,-1.41266,4.82423,12.1884,0.0300842,0.345205,0.812885,0
2024-11-26 21:46:22.727,-1.24726,4.81227,12.2483,0.0563507,0.364752,0.760963,0
2024-11-26 21:46:22.729,-1.05823,4.79791,12.3129,0.0563507,0.364752,0.760963,0
2024-11-26 21:46:22.731,-0.893121,4.77159,12.3823,0.0691785,0.367806,0.724923,0
2024-11-26 21:46:22.733,-0.775574,4.75215,12.466,0.0777303,0.366585,0.680942,0
2024-11-26 21:46:22.736,-0.710967,4.74736,12.5426,0.100943,0.348259,0.591147,0
2024-11-26 21:46:22.738,-0.696611,4.74018,12.6048,0.100943,0.348259,0.591147,0
2024-11-26 21:46:22.741,-0.689432,4.74497,12.6386,0.122322,0.313441,0.497077,0
2024-11-26 21:46:22.743,-0.663111,4.76411,12.6577,0.122322,0.313441,0.497077,0
2024-11-26 21:46:22.745,-0.62004,4.8003,12.6721,0.130263,0.289618,0.44882,0
2024-11-26 21:46:22.748,-0.591326,4.86969,12.6649,0.140037,0.264573,0.402396,0
2024-11-26 21:46:22.749,-0.586541,4.96062,12.6529,0.146756,0.238918,0.355971,0
2024-11-26 21:46:22.753,-0.600898,5.11615,12.6191,0.152254,0.208375,0.311379,0
2024-11-26 21:46:22.756,-0.612862,5.55195,12.5187,0.168136,0.166838,0.227082,0
2024-11-26 21:46:22.756,-0.612862,5.55195,12.5187,0.168136,0.166838,0.227082,0
2024-11-26 21:46:22.760,-0.584148,5.80559,12.466,0.191348,0.14668,0.15317,0
2024-11-26 21:46:22.762,-0.536291,6.05235,12.4134,0.191348,0.14668,0.15317,0
2024-11-26 21:46:22.764,-0.50997,6.28206,12.3703,0.216393,0.141182,0.0780357,0
2024-11-26 21:46:22.767,-0.531506,6.49053,12.3727,0.216393,0.141182,0.0780357,0
2024-11-26 21:46:22.769,-0.565005,6.66281,12.4253,0.254265,0.135684,0.0193944,0
2024-11-26 21:46:22.771,-0.617647,6.82792,12.4828,0.254265,0.135684,0.0193944,0
2024-11-26 21:46:22.774,-0.694218,6.99302,12.533,0.300079,0.112472,-0.0251975,0
2024-11-26 21:46:22.775,-0.785145,7.12493,12.6168,0.300079,0.112472,-0.0251975,0
2024-11-26 21:46:22.778,-0.897907,7.2015,12.7367,0.326345,0.0892601,-0.0392469,0
2024-11-26 21:46:22.781,-1.00558,7.24218,12.8587,0.353222,0.0587177,-0.0514639,0
2024-11-26 21:46:22.783,-1.11087,7.24218,12.9951,0.377656,0.0202343,-0.0563507,0
2024-11-26 21:46:22.786,-1.20897,7.14407,13.1339,0.433243,-0.0677277,-0.0557398,0
2024-11-26 21:46:22.788,-1.24247,6.95713,13.2515,0.433243,-0.0677277,-0.0557398,0
2024-11-26 21:46:22.789,-1.32383,6.76092,13.4142,0.457066,-0.115374,-0.0477988,0
2024-11-26 21:46:22.793,-1.60409,6.58385,13.608,0.50288,-0.226548,-0.00748288,0
2024-11-26 21:46:22.795,-1.89362,6.41127,13.7519,0.525481,-0.265642,0.024892,0
2024-11-26 21:46:22.797,-2.06142,6.21984,13.8452,0.53892,-0.29985,0.0639862,0
2024-11-26 21:46:22.799,-2.19063,6.00688,14.0294,0.53892,-0.29985,0.0639862,0
2024-11-26 21:46:22.802,-2.27916,5.76012,14.3022,0.569462,-0.345052,0.1605,0
2024-11-26 21:46:22.803,-2.27916,5.48255,14.5322,0.569462,-0.345052,0.1605,0
2024-11-26 21:46:22.806,-2.19781,5.17358,14.7308,0.581068,-0.354826,0.213644,0
2024-11-26 21:46:22.809,-2.04467,4.82902,14.956,0.599394,-0.359102,0.319931,0
2024-11-26 21:46:22.811,-1.81944,4.48654,15.1858,0.599394,-0.359102,0.319931,0
2024-11-26 21:46:22.813,-1.54188,4.1345,15.3604,0.606724,-0.355437,0.368188,1
2024-11-26 21:46:22.815,-1.22812,3.77318,15.4732,0.611611,-0.346274,0.416445,0
2024-11-26 21:46:22.818,-0.914656,3.42832,15.5498,0.609167,-0.340776,0.461037,0
2024-11-26 21:46:22.821,-0.634397,3.09093,15.6287,0.604891,-0.337722,0.502575,0
2024-11-26 21:46:22.822,-0.397508,2.73888,15.6694,0.598783,-0.341998,0.541669,0
2024-11-26 21:46:22.825,-0.20339,2.38206,15.6168,0.585955,-0.353604,0.577709,0
2024-11-26 21:46:22.828,-0.040678,2.04467,15.4923,0.563965,-0.368265,0.611916,0
2024-11-26 21:46:22.829,0.117248,1.75723,15.3413,0.535866,-0.378649,0.641237,0
2024-11-26 21:46:22.832,0.229711,1.5012,15.1523,0.504713,-0.383536,0.670558,0
2024-11-26 21:46:22.835,0.313759,1.29512,15.0135,0.468062,-0.382314,0.720647,0
2024-11-26 21:46:22.836,0.464507,1.15155,14.8962,0.428967,-0.380481,0.720647,0
2024-11-26 21:46:22.840,0.660718,1.07498,14.7045,0.394149,-0.360934,0.740194,0
2024-11-26 21:46:22.842,0.847657,1.07258,14.5202,0.356277,-0.316953,0.754244,0
2024-11-26 21:46:22.844,0.97687,1.11326,14.336,0.327567,-0.248538,0.767682,0
2024-11-26 21:46:22.846,1.0343,1.19701,14.1108,0.302522,-0.157522,0.776845,0
2024-11-26 21:46:22.849,1.02712,1.31665,13.8165,0.277477,-0.0481806,0.785397,0
2024-11-26 21:46:22.850,0.957727,1.4653,13.5027,0.256709,0.0739889,0.793338,0
2024-11-26 21:46:22.854,0.9003,1.62084,13.2036,0.242659,0.201045,0.79517,0
2024-11-26 21:46:22.856,0.917049,1.76441,12.8898,0.230442,0.324436,0.79517,0
2024-11-26 21:46:22.858,0.981655,1.89601,12.5952,0.221279,0.436832,0.792116,0
2024-11-26 21:46:22.861,1.0343,2.02313,12.3129,0.206619,0.616421,0.766461,0
2024-11-26 21:46:22.863,1.08215,2.16192,12.0087,0.20723,0.688501,0.751189,0
2024-11-26 21:46:22.866,1.08694,2.30309,11.6665,0.20723,0.688501,0.751189,0
2024-11-26 21:46:22.867,1.01755,2.42991,11.2977,0.210284,0.752029,0.729199,0
2024-11-26 21:46:22.869,0.926621,2.52832,10.9436,0.212117,0.808227,0.707819,0
2024-11-26 21:46:22.873,0.84018,2.59292,10.6561,0.215782,0.8461,0.685829,0
2024-11-26 21:46:22.874,0.682254,2.66231,10.2945,0.223723,0.883972,0.663227,0
2024-11-26 21:46:22.876,0.435793,2.77717,9.83031,0.230442,0.924288,0.639404,0
2024-11-26 21:46:22.880,0.136391,2.90638,9.43041,0.236551,0.955441,0.616803,0
2024-11-26 21:46:22.882,-0.189033,3.04038,9.11665,0.251211,0.974989,0.57893,0
2024-11-26 21:46:22.883,-0.514756,3.17707,8.86062,0.251211,0.974989,0.57893,0
2024-11-26 21:46:22.887,-0.785145,3.30389,8.66172,0.256098,0.96155,0.56427,0
2024-11-26 21:46:22.888,-0.996012,3.42832,8.48465,0.264039,0.93284,0.552053,0
2024-11-26 21:46:22.890,-1.24247,3.51924,8.29083,0.273201,0.893135,0.541669,0
2024-11-26 21:46:22.894,-1.51555,3.57428,8.08953,0.27931,0.856484,0.534339,0
2024-11-26 21:46:22.896,-1.80509,3.61256,7.89572,0.285418,0.821055,0.525176,0
2024-11-26 21:46:22.898,-2.18345,3.65593,7.68276,0.289083,0.78135,0.5209,0
2024-11-26 21:46:22.901,-2.52084,3.66311,7.52932,0.295803,0.656126,0.516013,0
2024-11-26 21:46:22.903,-2.60967,3.63889,7.37139,0.296414,0.595042,0.517235,0
2024-11-26 21:46:22.906,-2.58814,3.64367,7.14886,0.296414,0.595042,0.517235,0
2024-11-26 21:46:22.907,-2.62403,3.66072,6.9667,0.295803,0.527238,0.514181,0
2024-11-26 21:46:22.909,-2.71974,3.62692,6.79921,0.290305,0.460044,0.509905,0
2024-11-26 21:46:22.913,-2.82742,3.54556,6.61257,0.280532,0.389186,0.505018,0
2024-11-26 21:46:22.914,-2.94467,3.47617,6.42802,0.271369,0.320771,0.501964,0
2024-11-26 21:46:22.917,-3.07867,3.41875,6.3012,0.255487,0.253578,0.497688,0
2024-11-26 21:46:22.919,-3.18664,3.37089,6.22224,0.237772,0.185774,0.496466,0
2024-11-26 21:46:22.921,-3.2656,3.335,6.18874,0.218836,0.116748,0.491579,0
2024-11-26 21:46:22.924,-3.34457,3.29671,6.16959,0.191959,0.0465007,0.489747,0
2024-11-26 21:46:22.926,-3.3996,3.26082,6.12413,0.164471,-0.0200816,0.489747,0
2024-11-26 21:46:22.929,-3.42592,3.23928,6.10259,0.105829,-0.141029,0.489136,0
2024-11-26 21:46:22.932,-3.38525,3.28475,6.14088,0.105829,-0.141029,0.489136,0
2024-11-26 21:46:22.933,-3.3326,3.2656,6.18874,0.0716218,-0.194784,0.483027,0
2024-11-26 21:46:22.936,-3.33739,3.09571,6.22224,-0.00229068,-0.290687,0.475697,0
2024-11-26 21:46:22.939,-3.32543,2.92792,6.27249,-0.0401632,-0.331614,0.473865,0
2024-11-26 21:46:22.941,-3.29193,2.79153,6.3347,-0.0401632,-0.331614,0.473865,0
2024-11-26 21:46:22.942,-3.22971,2.68624,6.4017,-0.0762032,-0.368265,0.470811,0
2024-11-26 21:46:22.945,-3.09093,2.6001,6.48575,-0.112243,-0.403083,0.467145,0
2024-11-26 21:46:22.947,-2.91356,2.52832,6.59582,-0.148894,-0.433625,0.461037,0
2024-11-26 21:46:22.949,-2.75085,2.44188,6.67956,-0.185621,-0.45134,0.450042,0
2024-11-26 21:46:22.953,-2.56182,2.35573,6.72981,-0.258312,-0.473941,0.424386,0
2024-11-26 21:46:22.955,-2.37248,2.29113,6.8686,-0.291909,-0.491045,0.407282,0
2024-11-26 21:46:22.957,-2.2002,2.24566,7.05314,-0.291909,-0.491045,0.407282,0
2024-11-26 21:46:22.960,-2.02552,2.19302,7.16321,-0.354215,-0.532582,0.367577,0
2024-11-26 21:46:22.962,-1.85533,2.15234,7.25653,-0.385368,-0.55213,0.346198,0
2024-11-26 21:46:22.964,-1.70219,2.11884,7.3355,-0.385368,-0.55213,0.346198,0
2024-11-26 21:46:22.967,-1.55862,2.06142,7.40489,-0.415911,-0.571066,0.323596,0
2024-11-26 21:46:22.969,-1.43659,2.01117,7.47189,-0.442788,-0.584504,0.299162,0
2024-11-26 21:46:22.972,-1.31904,1.97528,7.53889,-0.468443,-0.592445,0.274118,0
2024-11-26 21:46:22.974,-1.21376,1.93669,7.61815,-0.5167,-0.598554,0.231358,0
2024-11-26 21:46:22.976,-1.11805,1.89841,7.69711,-0.5167,-0.598554,0.231358,0
2024-11-26 21:46:22.978,-1.01755,1.87448,7.78325,-0.53808,-0.597943,0.207535,0
2024-11-26 21:46:22.981,-0.914656,1.86491,7.87179,-0.554573,-0.594278,0.184934,0
2024-11-26 21:46:22.982,-0.797109,1.85533,7.96511,-0.569233,-0.58878,0.163554,0
2024-11-26 21:46:22.986,-0.687039,1.83619,8.07039,-0.580839,-0.577785,0.144007,0
2024-11-26 21:46:22.987,-0.593719,1.80269,8.1664,-0.586948,-0.564346,0.120795,0
2024-11-26 21:46:22.989,-0.471685,1.75962,8.22862,-0.594278,-0.549075,0.0988045,0
2024-11-26 21:46:22.992,-0.387936,1.75962,8.25733,-0.592445,-0.529528,0.0798683,0
2024-11-26 21:46:22.995,-0.359223,1.8003,8.34108,-0.590613,-0.509981,0.0597103,0
2024-11-26 21:46:22.997,-0.30658,1.83619,8.40569,-0.583283,-0.484326,0.0419957,0
2024-11-26 21:46:22.999,-0.246461,1.86969,8.37697,-0.575342,-0.453783,0.024892,0
2024-11-26 21:46:23.002,-0.200997,1.92712,8.35304,-0.560681,-0.413467,0.00839915,0
2024-11-26 21:46:23.005,-0.18664,1.98485,8.34587,-0.544799,-0.367043,-0.00748288,0
2024-11-26 21:46:23.006,-0.172283,2.03031,8.35783,-0.52342,-0.323062,-0.019089,0
2024-11-26 21:46:23.008,-0.117248,2.08295,8.36979,-0.500208,-0.276027,-0.02703,0
2024-11-26 21:46:23.012,-0.0358923,2.10449,8.37219,-0.448896,-0.191119,-0.0477988,0
2024-11-26 21:46:23.014,-0.0382852,2.11884,8.3363,-0.448896,-0.191119,-0.0477988,0
2024-11-26 21:46:23.016,-0.0909273,2.19302,8.31476,-0.421408,-0.150192,-0.0563507,0
2024-11-26 21:46:23.019,-0.0478565,2.26481,8.30519,-0.356048,-0.0445155,-0.0667351,0
2024-11-26 21:46:23.021,0.0598206,2.32702,8.19033,-0.356048,-0.0445155,-0.0667351,0
2024-11-26 21:46:23.023,0.131605,2.41077,8.07996,-0.320618,0.0104608,-0.0740652,0
2024-11-26 21:46:23.026,0.122034,2.49212,8.02014,-0.2858,0.057496,-0.0807846,0
2024-11-26 21:46:23.027,0.0598206,2.55942,7.90289,-0.248538,0.0990336,-0.0856713,0
2024-11-26 21:46:23.029,0.0,2.61685,7.75215,-0.216774,0.13263,-0.0905581,0
2024-11-26 21:46:23.033,-0.0741775,2.66471,7.59422,-0.1844,0.153399,-0.0917798,0
2024-11-26 21:46:23.034,-0.155533,2.71256,7.44317,-0.15317,0.166838,-0.0899473,0
2024-11-26 21:46:23.037,-0.232104,2.76521,7.29482,-0.125682,0.173557,-0.086893,0
2024-11-26 21:46:23.040,-0.292223,2.79392,7.14407,-0.10247,0.176,-0.0820062,0
2024-11-26 21:46:23.041,-0.304188,2.81545,7.02443,-0.0792574,0.17539,-0.078952,0
2024-11-26 21:46:23.044,-0.342473,2.87288,6.89731,-0.0584886,0.166838,-0.0734544,0
2024-11-26 21:46:23.046,-0.41665,2.95663,6.74656,-0.0413849,0.158897,-0.0655134,0
2024-11-26 21:46:23.049,-0.469292,3.04517,6.59821,-0.0108425,0.130798,-0.0496313,0
2024-11-26 21:46:23.052,-0.495613,3.14357,6.44477,-0.0108425,0.130798,-0.0496313,0
2024-11-26 21:46:23.053,-0.567398,3.20578,6.3012,-0.000458135,0.109418,-0.0398578,0
2024-11-26 21:46:23.055,-0.682254,3.24885,6.14567,0.00748288,0.0868167,-0.0313059,0
2024-11-26 21:46:23.059,-0.696611,3.28475,5.98535,0.0117588,0.0703238,-0.0196998,0
2024-11-26 21:46:23.060,-0.617647,3.30628,5.88455,0.019089,0.0562743,-0.00626118,0
2024-11-26 21:46:23.062,-0.52672,3.335,5.83909,0.0221432,0.0434465,0.00595576,0
2024-11-26 21:46:23.066,-0.4334,3.35653,5.79841,0.0306951,0.0342838,0.0267246,0
2024-11-26 21:46:23.067,-0.335294,3.37089,5.74337,0.0306951,0.0342838,0.0267246,0
2024-11-26 21:46:23.070,-0.260818,3.38525,5.69312,0.034971,0.037338,0.0377198,0
2024-11-26 21:46:23.073,-0.22014,3.40917,5.64287,0.0380252,0.0501658,0.0603212,0
2024-11-26 21:46:23.075,-0.217747,3.42832,5.6022,0.0380252,0.0501658,0.0603212,0
2024-11-26 21:46:23.077,-0.239282,3.44028,5.56152,0.0392469,0.0593285,0.0725381,0
2024-11-26 21:46:23.080,-0.239282,3.45464,5.51127,0.0319168,0.0843733,0.0988045,0
2024-11-26 21:46:23.081,-0.215354,3.48574,5.47298,0.0319168,0.0843733,0.0988045,0
2024-11-26 21:46:23.085,-0.177069,3.51924,5.42513,0.0264191,0.118581,0.126293,0
2024-11-26 21:46:23.087,-0.131605,3.54078,5.38206,0.0184781,0.138739,0.137288,0
2024-11-26 21:46:23.089,-0.081356,3.57189,5.35334,0.0184781,0.138739,0.137288,0
2024-11-26 21:46:23.092,-0.0191426,3.59342,5.34377,0.0117588,0.16134,0.142786,0
2024-11-26 21:46:23.094,0.040678,3.61256,5.34138,0.0025961,0.183331,0.150727,0
2024-11-26 21:46:23.095,0.0885344,3.63171,5.32911,-0.0077883,0.202878,0.155613,0
2024-11-26 21:46:23.099,0.114855,3.63171,5.31954,-0.016951,0.221814,0.156224,0
2024-11-26 21:46:23.100,0.117248,3.62692,5.33899,-0.0255029,0.239528,0.155002,0
2024-11-26 21:46:23.103,0.119641,3.62214,5.35574,-0.0389415,0.255411,0.154392,0
2024-11-26 21:46:23.105,0.0957129,3.63889,5.37966,-0.0493259,0.270682,0.151337,0
2024-11-26 21:46:23.108,0.0239282,3.64367,5.43231,-0.0719273,0.298781,0.144618,0
2024-11-26 21:46:23.110,-0.0502493,3.62931,5.49452,-0.0719273,0.298781,0.144618,0
2024-11-26 21:46:23.113,-0.129212,3.62692,5.54955,-0.0920852,0.314663,0.140953,0
2024-11-26 21:46:23.115,-0.215354,3.62214,5.58784,-0.0920852,0.314663,0.140953,0
2024-11-26 21:46:23.118,-0.299402,3.61256,5.63809,-0.106746,0.317106,0.140342,0
2024-11-26 21:46:23.120,-0.419043,3.5671,5.68355,-0.133623,0.311608,0.136066,0
2024-11-26 21:46:23.122,-0.493221,3.55035,5.71466,-0.146451,0.303667,0.134234,0
2024-11-26 21:46:23.125,-0.519542,3.57906,5.76969,-0.157446,0.289618,0.132401,0
2024-11-26 21:46:23.126,-0.579362,3.6006,5.85105,-0.157446,0.289618,0.132401,0
2024-11-26 21:46:23.129,-0.646361,3.64367,5.96142,-0.171572,0.26946,0.133012,0
2024-11-26 21:46:23.132,-0.701396,3.70858,6.07627,-0.180124,0.245026,0.133623,0
2024-11-26 21:46:23.134,-0.754038,3.75883,6.16002,-0.192951,0.215095,0.133012,0
2024-11-26 21:46:23.135,-0.811466,3.79711,6.21984,-0.200892,0.184552,0.13179,0
2024-11-26 21:46:23.138,-0.873978,3.8354,6.2677,-0.210666,0.147291,0.13179,0
2024-11-26 21:46:23.143,-0.938585,3.86172,6.39452,-0.2351,0.0648262,0.130569,0
2024-11-26 21:46:23.146,-0.964906,3.88564,6.46421,-0.259534,-0.0188599,0.125071,0
2024-11-26 21:46:23.148,-0.99362,3.89522,6.51925,-0.259534,-0.0188599,0.125071,0
2024-11-26 21:46:23.148,-0.99362,3.89522,6.51925,-0.259534,-0.0188599,0.125071,0
2024-11-26 21:46:23.152,-1.0989,3.88325,6.64128,-0.284578,-0.0952158,0.118352,0
2024-11-26 21:46:23.153,-1.0989,3.88325,6.64128,-0.284578,-0.0952158,0.118352,0
2024-11-26 21:46:23.155,-1.14676,3.85932,6.70589,-0.311456,-0.169128,0.1098,0
2024-11-26 21:46:23.158,-1.19222,3.82104,6.77767,-0.311456,-0.169128,0.1098,0
2024-11-26 21:46:23.160,-1.21137,3.78275,6.8662,-0.338333,-0.247317,0.101248,0
2024-11-26 21:46:23.161,-1.19462,3.7684,6.95474,-0.338333,-0.247317,0.101248,0
2024-11-26 21:46:23.164,-1.15155,3.76122,7.02443,-0.347496,-0.286411,0.0951395,0
2024-11-26 21:46:23.166,-1.09173,3.78993,7.09382,-0.35788,-0.326116,0.0871984,0
2024-11-26 21:46:23.169,-1.0319,3.84257,7.17757,-0.368265,-0.361545,0.0762032,0
2024-11-26 21:46:23.171,-0.986441,3.89282,7.24696,-0.375595,-0.394531,0.0652079,0
2024-11-26 21:46:23.173,-0.957727,3.94307,7.31157,-0.385368,-0.425684,0.0536018,0
2024-11-26 21:46:23.175,-0.929013,3.98854,7.37617,-0.395142,-0.453783,0.0395524,0
2024-11-26 21:46:23.180,-0.785145,4.05554,7.48864,-0.409802,-0.501429,0.00595576,0
2024-11-26 21:46:23.184,-0.73011,4.08425,7.55564,-0.416521,-0.522198,-0.0123697,0
2024-11-26 21:46:23.184,-0.73011,4.08425,7.55564,-0.416521,-0.522198,-0.0123697,0
2024-11-26 21:46:23.185,-0.696611,4.10818,7.65883,-0.423852,-0.53808,-0.0306951,0
2024-11-26 21:46:23.190,-0.720539,4.13689,7.87657,-0.437901,-0.561903,-0.0649025,0
2024-11-26 21:46:23.191,-0.706182,4.12493,7.87657,-0.443399,-0.562514,-0.0801737,0
2024-11-26 21:46:23.194,-0.809073,4.14646,8.17358,-0.448286,-0.553351,-0.094834,0
2024-11-26 21:46:23.195,-0.809073,4.14646,8.17358,-0.448286,-0.553351,-0.094834,0
2024-11-26 21:46:23.197,-0.857229,4.14886,8.35544,-0.448896,-0.541745,-0.104608,0
2024-11-26 21:46:23.199,-0.890728,4.15364,8.53251,-0.449507,-0.524641,-0.111938,0
2024-11-26 21:46:23.204,-0.962513,4.1991,8.87259,-0.440345,-0.481882,-0.124155,0
2024-11-26 21:46:23.205,-0.962513,4.1991,8.87259,-0.440345,-0.481882,-0.124155,0
2024-11-26 21:46:23.206,-0.972084,4.25205,9.02573,-0.431793,-0.456227,-0.12782,0
2024-11-26 21:46:23.209,-0.957727,4.29751,9.17408,-0.424462,-0.42996,-0.130263,0
2024-11-26 21:46:23.211,-0.945763,4.37408,9.27966,-0.414078,-0.40125,-0.136372,0
2024-11-26 21:46:23.214,-0.921835,4.45544,9.34188,-0.392698,-0.344442,-0.148589,0
2024-11-26 21:46:23.217,-0.902692,4.53918,9.41127,-0.376206,-0.317564,-0.15714,0
2024-11-26 21:46:23.219,-0.878764,4.62533,9.48066,-0.362156,-0.294963,-0.166914,0
2024-11-26 21:46:23.220,-0.833001,4.70668,9.53091,-0.362156,-0.294963,-0.166914,0
2024-11-26 21:46:23.223,-0.804287,4.80269,9.57159,-0.349328,-0.275416,-0.177298,0
2024-11-26 21:46:23.227,-0.828216,5.03719,9.66012,-0.320008,-0.24243,-0.196235,0
2024-11-26 21:46:23.228,-0.828216,5.03719,9.66012,-0.309012,-0.230213,-0.205397,0
2024-11-26 21:46:23.232,-0.876371,5.25015,9.66012,-0.297406,-0.222883,-0.21456,0
2024-11-26 21:46:23.233,-0.876371,5.25015,9.66012,-0.297406,-0.222883,-0.21456,0
2024-11-26 21:46:23.235,-0.890728,5.33659,9.66012,-0.282135,-0.217996,-0.22189,0
2024-11-26 21:46:23.238,-0.909871,5.41795,9.6697,-0.254036,-0.215553,-0.23594,0
2024-11-26 21:46:23.240,-0.924228,5.46102,9.69841,-0.254036,-0.215553,-0.23594,0
2024-11-26 21:46:23.241,-0.955334,5.50888,9.75105,-0.241208,-0.217385,-0.244492,0
2024-11-26 21:46:23.247,-1.01276,5.62134,9.87578,-0.195395,-0.232046,-0.254876,0
2024-11-26 21:46:23.250,-1.03908,5.67398,9.92124,-0.195395,-0.232046,-0.254876,0
2024-11-26 21:46:23.251,-1.08215,5.71944,9.98585,-0.17768,-0.238765,-0.25793,0
2024-11-26 21:46:23.251,-1.08215,5.71944,9.98585,-0.17768,-0.238765,-0.25793,0
2024-11-26 21:46:23.256,-1.2329,5.75294,10.0792,-0.162944,-0.260755,-0.260984,0
2024-11-26 21:46:23.256,-1.2329,5.75294,10.0792,-0.162944,-0.260755,-0.260984,0
2024-11-26 21:46:23.258,-1.33101,5.74337,10.1366,-0.162944,-0.260755,-0.260984,0
2024-11-26 21:46:23.260,-1.38604,5.71705,10.218,-0.123238,-0.294352,-0.256098,0
2024-11-26 21:46:23.263,-1.4004,5.71227,10.3113,-0.110411,-0.315121,-0.251211,0
2024-11-26 21:46:23.265,-1.40548,5.69312,10.4097,-0.100637,-0.340776,-0.245713,0
2024-11-26 21:46:23.268,-1.40548,5.67398,10.5126,-0.0884201,-0.367654,-0.240827,0
2024-11-26 21:46:23.271,-1.39083,5.67159,10.6202,-0.0792574,-0.393309,-0.232886,0
2024-11-26 21:46:23.273,-1.36451,5.67398,10.7351,-0.0536018,-0.448896,-0.22189,0
2024-11-26 21:46:23.275,-1.30947,5.6668,10.905,-0.0536018,-0.448896,-0.22189,0
2024-11-26 21:46:23.277,-1.30708,5.6357,11.0991,-0.0438283,-0.47333,-0.217003,0
2024-11-26 21:46:23.279,-1.35015,5.61416,11.2905,-0.0297788,-0.491656,-0.207841,0
2024-11-26 21:46:23.281,-1.29512,5.60698,11.4748,-0.0145076,-0.492877,-0.198067,0
2024-11-26 21:46:23.285,-1.20419,5.59741,11.6665,0.0196998,-0.476385,-0.17852,0
2024-11-26 21:46:23.287,-1.14197,5.58545,11.8651,0.0368035,-0.462946,-0.165081,0
2024-11-26 21:46:23.290,-1.09412,5.55195,11.9991,0.055129,-0.446453,-0.154086,0
2024-11-26 21:46:23.292,-1.0343,5.53041,12.0855,0.055129,-0.446453,-0.154086,0
2024-11-26 21:46:23.294,-1.04387,5.51127,12.1382,0.0673459,-0.433625,-0.143091,0
2024-11-26 21:46:23.296,-1.11805,5.4682,12.2267,0.0777303,-0.42263,-0.12782,0
2024-11-26 21:46:23.299,-1.1348,5.4347,12.3679,0.094834,-0.380481,-0.0930015,0
2024-11-26 21:46:23.301,-1.1324,5.41077,12.478,0.103386,-0.35055,-0.0746761,0
2024-11-26 21:46:23.304,-1.16351,5.38924,12.5952,0.104608,-0.313899,-0.0496313,0
2024-11-26 21:46:23.305,-1.20419,5.37009,12.7822,0.104608,-0.313899,-0.0496313,0
2024-11-26 21:46:23.308,-1.23529,5.35334,12.976,0.111938,-0.266864,-0.0239758,0
2024-11-26 21:46:23.312,-1.24487,5.33181,13.3663,0.119879,-0.159966,0.0310005,0
2024-11-26 21:46:23.313,-1.24487,5.33181,13.3663,0.119879,-0.159966,0.0310005,0
2024-11-26 21:46:23.317,-1.23051,5.32672,13.6199,0.130263,-0.0402396,0.0896418,0
2024-11-26 21:46:23.320,-1.23529,5.3342,13.6989,0.14248,0.0800973,0.148283,0
2024-11-26 21:46:23.322,-1.25683,5.34616,13.7468,0.14248,0.0800973,0.148283,0
2024-11-26 21:46:23.323,-1.25683,5.34616,13.7468,0.14248,0.0800973,0.148283,0
2024-11-26 21:46:23.326,-1.37647,5.37966,13.7614,0.158362,0.201656,0.204481,1
2024-11-26 21:46:23.326,-1.37647,5.37966,13.7614,0.158362,0.201656,0.204481,1
2024-11-26 21:46:23.331,-1.54188,5.46341,13.6511,0.173022,0.319549,0.257625,0
2024-11-26 21:46:23.332,-1.46052,5.41316,13.6511,0.173022,0.319549,0.257625,0
2024-11-26 21:46:23.336,-1.64477,5.57587,13.4883,0.184629,0.416063,0.307714,0
2024-11-26 21:46:23.337,-1.64477,5.57587,13.4883,0.184629,0.416063,0.307714,0
2024-11-26 21:46:23.340,-1.63041,5.81755,13.273,0.19318,0.485089,0.345587,0
2024-11-26 21:46:23.341,-1.63041,5.81755,13.273,0.19318,0.485089,0.345587,0
2024-11-26 21:46:23.346,-1.60409,6.08345,12.9712,0.195624,0.50769,0.359636,0
2024-11-26 21:46:23.347,-1.58734,6.17438,12.8013,0.195624,0.530292,0.374297,0
2024-11-26 21:46:23.348,-1.58734,6.17438,12.8013,0.195624,0.530292,0.374297,0
2024-11-26 21:46:23.351,-1.56102,6.22224,12.6482,0.194402,0.530903,0.373686,0
2024-11-26 21:46:23.352,-1.48923,6.26052,12.5306,0.190126,0.518075,0.368188,0
2024-11-26 21:46:23.355,-1.38844,6.28445,12.3966,0.188905,0.494863,0.358415,0
2024-11-26 21:46:23.358,-1.33819,6.27009,12.2363,0.181574,0.430113,0.318099,0
2024-11-26 21:46:23.360,-1.34536,6.24377,12.1023,0.173022,0.390408,0.293054,0
2024-11-26 21:46:23.363,-1.28076,6.20549,11.9776,0.173022,0.390408,0.293054,0
2024-11-26 21:46:23.364,-1.1659,6.13849,11.8603,0.165081,0.339097,0.266177,0
2024-11-26 21:46:23.369,-1.1683,5.88933,11.822,0.154086,0.270071,0.235023,0
2024-11-26 21:46:23.372,-1.20419,5.73141,11.8005,0.118046,0.0141258,0.132401,0
2024-11-26 21:46:23.372,-1.20419,5.73141,11.8005,0.118046,0.0141258,0.132401,0
2024-11-26 21:46:23.374,-1.24247,5.57109,11.8053,0.118046,0.0141258,0.132401,0
2024-11-26 21:46:23.378,-1.22333,5.25015,11.9632,0.0930015,-0.147749,0.0658188,0
2024-11-26 21:46:23.379,-1.22333,5.25015,11.9632,0.0930015,-0.147749,0.0658188,0
2024-11-26 21:46:23.383,-1.17547,4.96541,12.1502,0.0691785,-0.268086,0.00167983,0
2024-11-26 21:46:23.384,-1.17547,4.96541,12.1502,0.0691785,-0.268086,0.00167983,0
2024-11-26 21:46:23.387,-1.06062,4.67558,12.4158,0.0600157,-0.310845,-0.0594049,0
2024-11-26 21:46:23.391,-0.962513,4.51286,12.5115,0.0386361,-0.406748,-0.11377,0
2024-11-26 21:46:23.392,-0.828216,4.33101,12.5976,0.0386361,-0.406748,-0.11377,0
2024-11-26 21:46:23.393,-0.828216,4.33101,12.5976,0.0300842,-0.427517,-0.138815,0
2024-11-26 21:46:23.395,-0.71336,4.14886,12.6793,0.0300842,-0.427517,-0.138815,0
2024-11-26 21:46:23.397,-0.639183,3.94307,12.7463,0.0239758,-0.43729,-0.164471,0
2024-11-26 21:46:23.399,-0.591326,3.70858,12.8109,0.0184781,-0.441566,-0.188905,0
2024-11-26 21:46:23.403,-0.584148,3.47857,12.8874,0.0129805,-0.434847,-0.208452,0
2024-11-26 21:46:23.407,-0.65354,3.02842,13.0956,-0.00717746,-0.396974,-0.247546,0
2024-11-26 21:46:23.409,-0.679861,2.78674,13.194,-0.00717746,-0.396974,-0.247546,0
2024-11-26 21:46:23.410,-0.679861,2.78674,13.194,-0.0120642,-0.377427,-0.252433,0
2024-11-26 21:46:23.412,-0.682254,2.55224,13.2897,-0.0120642,-0.377427,-0.252433,0
2024-11-26 21:46:23.416,-0.734896,2.09252,13.4716,-0.0261137,-0.32917,-0.251822,0
2024-11-26 21:46:23.416,-0.734896,2.09252,13.4716,-0.0261137,-0.32917,-0.251822,0
2024-11-26 21:46:23.421,-0.777966,1.65673,13.5936,-0.0401632,-0.275416,-0.238383,0
2024-11-26 21:46:23.421,-0.830609,1.65673,13.5936,-0.0401632,-0.275416,-0.238383,0
2024-11-26 21:46:23.425,-0.809073,1.35733,13.7348,-0.0548235,-0.226548,-0.213949,0
2024-11-26 21:46:23.426,-0.845265,1.35733,13.7348,-0.0548235,-0.226548,-0.213949,0
2024-11-26 21:46:23.428,-0.74686,1.24726,13.8141,-0.0597103,-0.205779,-0.201732,0
2024-11-26 21:46:23.431,-0.672682,1.15394,13.8547,-0.0652079,-0.185621,-0.188905,0
2024-11-26 21:46:23.435,-0.407079,1.07019,13.7372,-0.0743707,-0.139197,-0.16386,0
2024-11-26 21:46:23.436,-0.407079,1.07019,13.7372,-0.0804791,-0.118428,-0.154086,0
2024-11-26 21:46:23.439,-0.0119641,1.10848,13.4668,-0.0847551,-0.0952158,-0.146756,0
2024-11-26 21:46:23.440,-0.210568,1.06301,13.4668,-0.0859767,-0.0695602,-0.140037,0
2024-11-26 21:46:23.443,0.193819,1.18744,13.2826,-0.0859767,-0.0695602,-0.140037,0
2024-11-26 21:46:23.444,0.395115,1.2664,13.0813,-0.0884201,-0.0445155,-0.137593,0
2024-11-26 21:46:23.447,0.572184,1.34776,12.8755,-0.0878093,-0.0121406,-0.134539,0
2024-11-26 21:46:23.450,0.73011,1.44138,12.641,-0.0829225,0.0526092,-0.13515,0
2024-11-26 21:46:23.452,0.864407,1.53709,12.3751,-0.0829225,0.0526092,-0.13515,0
2024-11-26 21:46:23.454,1.00558,1.63041,12.1071,-0.0804791,0.0800973,-0.137593,0
2024-11-26 21:46:23.457,1.15155,1.73091,11.8316,-0.0737598,0.108196,-0.14248,0
2024-11-26 21:46:23.459,1.28554,1.82662,11.5373,-0.0658188,0.141182,-0.155919,0
2024-11-26 21:46:23.461,1.40279,1.92233,11.2403,-0.0658188,0.141182,-0.155919,0
2024-11-26 21:46:23.463,1.50359,2.0016,10.9026,-0.0597103,0.144847,-0.162638,0
2024-11-26 21:46:23.466,1.57537,2.05663,10.5652,-0.0566561,0.142404,-0.173633,0
2024-11-26 21:46:23.469,1.66869,2.07338,10.2443,-0.052991,0.111251,-0.200511,0
2024-11-26 21:46:23.471,1.68544,2.09013,10.0026,-0.052991,0.111251,-0.200511,0
2024-11-26 21:46:23.472,1.62084,2.16192,9.8013,-0.0487151,0.0898709,-0.216393,0
2024-11-26 21:46:23.475,1.59691,2.22891,9.51416,-0.0419957,0.077654,-0.22922,0
2024-11-26 21:46:23.478,1.5347,2.29831,9.28206,-0.0377198,0.0666587,-0.239605,0
2024-11-26 21:46:23.480,1.42702,2.36531,9.12383,-0.0340547,0.0538309,-0.248157,0
2024-11-26 21:46:23.483,1.29512,2.42034,8.95394,-0.0193944,0.0208452,-0.256098,0
2024-11-26 21:46:23.485,1.18026,2.45863,8.79602,-0.0132859,-0.00358873,-0.255487,0
2024-11-26 21:46:23.486,1.09173,2.49212,8.63779,-0.0132859,-0.00358873,-0.255487,0
2024-11-26 21:46:23.489,1.00558,2.51605,8.47747,-0.0132859,-0.00358873,-0.255487,0
2024-11-26 21:46:23.492,0.919442,2.52084,8.33869,0.00503949,-0.0897182,-0.249989,0
2024-11-26 21:46:23.497,0.756431,2.53549,8.08953,0.0117588,-0.137364,-0.233496,0
2024-11-26 21:46:23.497,0.756431,2.53549,8.08953,0.0117588,-0.137364,-0.233496,0
2024-11-26 21:46:23.499,0.687039,2.51845,7.97947,0.0123697,-0.158744,-0.224945,0
2024-11-26 21:46:23.502,0.629611,2.51605,7.87657,0.0123697,-0.158744,-0.224945,0
2024-11-26 21:46:23.503,0.584148,2.54028,7.79043,0.0160347,-0.176459,-0.213949,0
2024-11-26 21:46:23.506,0.555434,2.55942,7.69711,0.014813,-0.202114,-0.184018,0
2024-11-26 21:46:23.510,0.545863,2.54267,7.51017,0.0105371,-0.205168,-0.166303,0
2024-11-26 21:46:23.510,0.545863,2.54267,7.51017,0.0105371,-0.205168,-0.166303,0
2024-11-26 21:46:23.513,0.533899,2.53071,7.42164,0.0105371,-0.205168,-0.166303,0
2024-11-26 21:46:23.515,0.512363,2.50648,7.34268,-0.00412322,-0.192341,-0.126598,0
2024-11-26 21:46:23.517,0.483649,2.43948,7.25893,-0.0145076,-0.175237,-0.105829,0
2024-11-26 21:46:23.520,0.464507,2.39402,7.18475,-0.0236703,-0.149581,-0.0850605,0
2024-11-26 21:46:23.524,0.478864,2.29591,7.06272,-0.0340547,-0.0805555,-0.0465771,0
2024-11-26 21:46:23.524,0.478864,2.29591,7.06272,-0.0340547,-0.0805555,-0.0465771,0
2024-11-26 21:46:23.529,0.519542,2.25763,7.02204,-0.0829225,-0.00175619,-0.0178673,0
2024-11-26 21:46:23.529,0.555434,2.22891,7.00499,-0.0829225,-0.00175619,-0.0178673,0
