timestamp,accel_x,accel_y,accel_z,gyro_x,gyro_y,gyro_z,step_timestamp
2024-12-11 21:03:15.996,0.553041,2.26002,9.9356,-0.000534491,-0.0141258,-0.0177909,0
2024-12-11 21:03:15.996,0.555434,2.26002,9.9356,-0.000534491,-0.0141258,-0.0177909,0
2024-12-11 21:03:15.996,0.553041,2.26002,9.9356,-0.000534491,-0.0141258,-0.0177909,0
2024-12-11 21:03:15.996,0.553041,2.26002,9.9356,-0.000534491,-0.0141258,-0.0177909,0
2024-12-11 21:03:15.996,0.553041,2.26002,9.9356,-0.000534491,-0.0141258,-0.0177909,0
2024-12-11 21:03:15.996,0.553041,2.26002,9.9356,-0.000534491,-0.0141258,-0.0177909,0
2024-12-11 21:03:15.996,0.553041,2.26002,9.9356,-0.000534491,-0.0141258,-0.0177909,0
2024-12-11 21:03:15.996,0.553041,2.26002,9.9356,-0.000534491,-0.0141258,-0.0177909,0
2024-12-11 21:03:15.996,0.553041,2.26002,9.9356,-0.000534491,-0.0141258,-0.0177909,0
2024-12-11 21:03:15.996,0.553041,2.26002,9.9356,-0.000534491,-0.0141258,-0.0177909,0
2024-12-11 21:03:15.996,0.553041,2.26002,9.9356,-0.000534491,-0.0141258,-0.0177909,0
2024-12-11 21:03:15.996,0.553041,2.26002,9.9356,-0.000534491,-0.0141258,-0.0177909,0
2024-12-11 21:03:15.996,0.553041,2.26002,9.9356,-0.000534491,-0.0141258,-0.0177909,0
2024-12-11 21:03:15.996,0.553041,2.26002,9.9356,-0.000534491,-0.0141258,-0.0177909,0
2024-12-11 21:03:15.996,0.553041,2.26002,9.9356,-0.000534491,-0.0141258,-0.0177909,0
2024-12-11 21:03:15.996,0.553041,2.26002,9.9356,-0.000534491,-0.0141258,-0.0177909,0
2024-12-11 21:03:15.996,0.553041,2.26002,9.9356,-0.000534491,-0.0141258,-0.0177909,0
2024-12-11 21:03:15.996,0.553041,2.26002,9.9356,-0.000534491,-0.0141258,-0.0177909,0
2024-12-11 21:03:15.996,0.553041,2.26002,9.9356,-0.000534491,-0.0141258,-0.0177909,0
2024-12-11 21:03:15.996,0.553041,2.26002,9.9356,-0.000534491,-0.0141258,-0.0177909,0
2024-12-11 21:03:15.996,0.553041,2.26002,9.9356,-0.000534491,-0.0141258,-0.0177909,0
2024-12-11 21:03:15.996,0.553041,2.26002,9.9356,-0.000534491,-0.0141258,-0.0177909,0
2024-12-11 21:03:15.996,0.553041,2.26002,9.9356,-0.000534491,-0.0141258,-0.0177909,0
2024-12-11 21:03:15.996,0.553041,2.26002,9.9356,-0.000534491,-0.0141258,-0.0177909,0
2024-12-11 21:03:15.996,0.553041,2.26002,9.9356,-0.000534491,-0.0141258,-0.0177909,0
2024-12-11 21:03:15.996,0.553041,2.26002,9.9356,-0.000534491,-0.0141258,-0.0177909,0
2024-12-11 21:03:15.996,0.553041,2.26002,9.9356,-0.000534491,-0.0141258,-0.0177909,0
2024-12-11 21:03:15.996,0.553041,2.26002,9.9356,-0.000534491,-0.0141258,-0.0177909,0
2024-12-11 21:03:15.996,0.553041,2.26002,9.9356,-0.000534491,-0.0141258,-0.0177909,0
2024-12-11 21:03:15.996,0.553041,2.26002,9.9356,-0.000534491,-0.0141258,-0.0177909,0
2024-12-11 21:03:15.996,0.553041,2.26002,9.9356,-0.000534491,-0.0141258,-0.0177909,0
2024-12-11 21:03:15.997,0.553041,2.26002,9.9356,-0.000534491,-0.0141258,-0.0177909,0
2024-12-11 21:03:15.997,0.553041,2.26002,9.9356,-0.000534491,-0.0141258,-0.0177909,0
2024-12-11 21:03:15.997,0.553041,2.26002,9.9356,-0.000534491,-0.0141258,-0.0177909,0
2024-12-11 21:03:15.997,0.553041,2.26002,9.9356,-0.000534491,-0.0141258,-0.0177909,0
2024-12-11 21:03:15.997,0.553041,2.26002,9.9356,-0.000534491,-0.0141258,-0.0177909,0
2024-12-11 21:03:15.997,0.553041,2.26002,9.9356,-0.000534491,-0.0141258,-0.0177909,0
2024-12-11 21:03:15.997,0.553041,2.26002,9.9356,-0.000534491,-0.0141258,-0.0177909,0
2024-12-11 21:03:15.997,0.553041,2.26002,9.9356,-0.000534491,-0.0141258,-0.0177909,0
2024-12-11 21:03:15.997,0.553041,2.26002,9.9356,-0.000534491,-0.0141258,-0.0177909,0
2024-12-11 21:03:15.997,0.553041,2.26002,9.9356,-0.000534491,-0.0141258,-0.0177909,0
2024-12-11 21:03:15.997,0.553041,2.26002,9.9356,-0.000534491,-0.0141258,-0.0177909,0
2024-12-11 21:03:15.997,0.553041,2.26002,9.9356,-0.000534491,-0.0141258,-0.0177909,0
2024-12-11 21:03:15.997,0.553041,2.26002,9.9356,-0.000534491,-0.0141258,-0.0177909,0
2024-12-11 21:03:15.997,0.553041,2.26002,9.9356,-0.000534491,-0.0141258,-0.0177909,0
2024-12-11 21:03:15.997,0.553041,2.26002,9.9356,-0.000534491,-0.0141258,-0.0177909,0
2024-12-11 21:03:15.997,0.553041,2.26002,9.9356,-0.000534491,-0.0141258,-0.0177909,0
2024-12-11 21:03:15.997,0.553041,2.26002,9.9356,-0.000534491,-0.0141258,-0.0177909,0
2024-12-11 21:03:15.997,0.553041,2.26002,9.9356,-0.000534491,-0.0141258,-0.0177909,0
2024-12-11 21:03:15.997,0.553041,2.26002,9.9356,-0.000534491,-0.0141258,-0.0177909,0
2024-12-11 21:03:16.011,0.4334,2.3007,9.87338,0.000687203,-0.0116825,-0.0190126,0
2024-12-11 21:03:16.015,0.419043,2.29113,9.82074,0.000687203,-0.0116825,-0.0190126,0
2024-12-11 21:03:16.020,0.3999,2.27677,9.79412,0.0129041,0.00725381,0.00358873,0
2024-12-11 21:03:16.020,0.3999,2.27677,9.79412,0.0129041,0.00725381,0.00358873,0
2024-12-11 21:03:16.020,0.3999,2.27677,9.79412,0.0129041,0.00725381,0.00358873,0
2024-12-11 21:03:16.020,0.3999,2.27677,9.79412,0.0129041,0.00725381,0.00358873,0
2024-12-11 21:03:16.021,0.3999,2.27677,9.79412,0.0129041,0.00725381,0.00358873,0
2024-12-11 21:03:16.021,0.3999,2.27677,9.79412,0.0129041,0.00725381,0.00358873,0
2024-12-11 21:03:16.021,0.3999,2.27677,9.79412,0.0129041,0.00725381,0.00358873,0
2024-12-11 21:03:16.024,0.442971,2.27199,9.75823,0.0116825,0.0121406,0.0115297,0
2024-12-11 21:03:16.025,0.442971,2.27199,9.75823,0.0116825,0.0121406,0.0115297,0
2024-12-11 21:03:16.027,0.454935,2.27199,9.72952,0.0110716,0.0176382,0.0164165,0
2024-12-11 21:03:16.027,0.454935,2.27199,9.72952,0.0110716,0.0176382,0.0164165,0
2024-12-11 21:03:16.028,0.454935,2.27199,9.72952,0.00923906,0.0213033,0.0194708,0
2024-12-11 21:03:16.029,0.459721,2.2672,9.71037,0.00923906,0.0213033,0.0194708,0
2024-12-11 21:03:16.029,0.459721,2.2672,9.71037,0.00923906,0.0213033,0.0194708,0
2024-12-11 21:03:16.029,0.459721,2.2672,9.71037,0.00923906,0.0213033,0.0194708,0
2024-12-11 21:03:16.029,0.459721,2.2672,9.71037,0.00923906,0.0213033,0.0194708,0
2024-12-11 21:03:16.029,0.459721,2.2672,9.71037,0.00923906,0.0213033,0.0194708,0
2024-12-11 21:03:16.029,0.459721,2.2672,9.71037,0.00923906,0.0213033,0.0194708,0
2024-12-11 21:03:16.029,0.459721,2.2672,9.71037,0.00923906,0.0213033,0.0194708,0
2024-12-11 21:03:16.032,0.486042,2.27677,9.70319,0.00618483,0.022525,0.0219141,0
2024-12-11 21:03:16.032,0.459721,2.27677,9.70319,0.00618483,0.022525,0.0219141,0
2024-12-11 21:03:16.034,0.517149,2.28873,9.69841,0.00435229,0.0231358,0.0237467,0
2024-12-11 21:03:16.034,0.517149,2.28873,9.69841,0.00435229,0.0231358,0.0237467,0
2024-12-11 21:03:16.034,0.517149,2.28873,9.69841,0.00435229,0.0231358,0.0237467,0
2024-12-11 21:03:16.034,0.517149,2.28873,9.69841,0.00435229,0.0231358,0.0237467,0
2024-12-11 21:03:16.034,0.517149,2.28873,9.69841,0.00435229,0.0231358,0.0237467,0
2024-12-11 21:03:16.034,0.517149,2.28873,9.69841,0.00435229,0.0231358,0.0237467,0
2024-12-11 21:03:16.034,0.517149,2.28873,9.69841,0.00435229,0.0231358,0.0237467,0
2024-12-11 21:03:16.035,0.517149,2.28873,9.69841,0.00435229,0.0231358,0.0237467,0
2024-12-11 21:03:16.035,0.517149,2.28873,9.69841,0.00435229,0.0231358,0.0237467,0
2024-12-11 21:03:16.036,0.531506,2.28156,9.69123,0.00435229,0.0231358,0.0237467,0
2024-12-11 21:03:16.037,0.531506,2.28156,9.69123,-0.00175619,0.0255792,0.0280226,0
2024-12-11 21:03:16.038,0.545863,2.28634,9.68645,-0.00175619,0.0255792,0.0280226,0
2024-12-11 21:03:16.039,0.545863,2.28634,9.68645,-0.00175619,0.0255792,0.0280226,0
2024-12-11 21:03:16.041,0.548256,2.3007,9.68884,-0.00481042,0.0243575,0.0261901,0
2024-12-11 21:03:16.041,0.548256,2.3007,9.68884,-0.00481042,0.0243575,0.0261901,0
2024-12-11 21:03:16.042,0.548256,2.3007,9.68884,-0.00664296,0.022525,0.0274118,0
2024-12-11 21:03:16.043,0.545863,2.32223,9.68166,-0.00664296,0.022525,0.0274118,0
2024-12-11 21:03:16.043,0.545863,2.32223,9.68166,-0.00664296,0.022525,0.0274118,0
2024-12-11 21:03:16.043,0.545863,2.32223,9.68166,-0.00664296,0.022525,0.0274118,0
2024-12-11 21:03:16.044,0.545863,2.32223,9.68166,-0.0096972,0.0206925,0.0268009,0
2024-12-11 21:03:16.044,0.545863,2.32223,9.68166,-0.0096972,0.0206925,0.0268009,0
2024-12-11 21:03:16.046,0.569791,2.34138,9.6673,-0.0096972,0.0206925,0.0268009,0
2024-12-11 21:03:16.046,0.569791,2.34138,9.6673,-0.0096972,0.0206925,0.0268009,0
2024-12-11 21:03:16.048,0.588933,2.35573,9.6697,-0.0139731,0.0188599,0.0237467,0
2024-12-11 21:03:16.048,0.588933,2.35573,9.6697,-0.0139731,0.0188599,0.0237467,0
2024-12-11 21:03:16.048,0.588933,2.35573,9.6697,-0.0139731,0.0188599,0.0237467,0
2024-12-11 21:03:16.049,0.588933,2.35573,9.6697,-0.0176382,0.0170274,0.0219141,0
2024-12-11 21:03:16.049,0.588933,2.35573,9.6697,-0.0176382,0.0170274,0.0219141,0
2024-12-11 21:03:16.049,0.588933,2.35573,9.6697,-0.0176382,0.0170274,0.0219141,0
2024-12-11 21:03:16.050,0.588933,2.37727,9.6673,-0.0176382,0.0170274,0.0219141,0
2024-12-11 21:03:16.050,0.588933,2.35573,9.6697,-0.0176382,0.0170274,0.0219141,0
2024-12-11 21:03:16.050,0.588933,2.37727,9.6673,-0.0176382,0.0170274,0.0219141,0
2024-12-11 21:03:16.051,0.588933,2.37727,9.6673,-0.0176382,0.0139731,0.0188599,0
2024-12-11 21:03:16.053,0.596112,2.4012,9.6673,-0.0176382,0.0139731,0.0188599,0
2024-12-11 21:03:16.053,0.596112,2.4012,9.6673,-0.0176382,0.0139731,0.0188599,0
2024-12-11 21:03:16.053,0.596112,2.4012,9.6673,-0.0176382,0.0139731,0.0188599,0
2024-12-11 21:03:16.055,0.600898,2.3988,9.67448,-0.0231358,0.010308,0.0151948,0
2024-12-11 21:03:16.057,0.605683,2.38684,9.67448,-0.0274118,0.010308,0.0109189,0
2024-12-11 21:03:16.061,0.612862,2.38684,9.68166,-0.030466,0.00725381,0.00236703,0
2024-12-11 21:03:16.062,0.610469,2.39402,9.69123,-0.030466,0.00725381,0.00236703,0
2024-12-11 21:03:16.064,0.610469,2.38923,9.69841,-0.0347419,0.00664296,-0.00129805,0
2024-12-11 21:03:16.067,0.617647,2.38206,9.69362,-0.0322986,0.00664296,-0.00801737,0
2024-12-11 21:03:16.069,0.617647,2.37727,9.70319,-0.0353528,0.00603212,-0.0122933,0
2024-12-11 21:03:16.071,0.608076,2.36531,9.71994,-0.0359636,0.00664296,-0.0141258,0
2024-12-11 21:03:16.074,0.605683,2.37488,9.71277,-0.0377962,0.00175619,-0.0202343,0
2024-12-11 21:03:16.077,0.598505,2.38445,9.70798,-0.038407,0.000534491,-0.0287862,0
2024-12-11 21:03:16.079,0.579362,2.37488,9.71994,-0.038407,0.000534491,-0.0287862,0
2024-12-11 21:03:16.081,0.565005,2.35334,9.71755,-0.042683,0.00114534,-0.0318404,0
2024-12-11 21:03:16.083,0.548256,2.34377,9.71037,-0.0420721,0.00236703,-0.0342838,0
2024-12-11 21:03:16.086,0.541077,2.34138,9.71994,-0.038407,0.00114534,-0.0355055,0
2024-12-11 21:03:16.088,0.536291,2.31745,9.72952,-0.0396287,-7.63559e-05,-0.0361163,0
2024-12-11 21:03:16.090,0.517149,2.3007,9.73191,-0.0396287,-0.0019089,-0.0367272,0
2024-12-11 21:03:16.093,0.505185,2.29113,9.72234,-0.0396287,-0.000687203,-0.0391706,0
2024-12-11 21:03:16.096,0.493221,2.28156,9.72234,-0.0377962,-0.00313059,-0.037338,0
2024-12-11 21:03:16.098,0.4669,2.27677,9.7343,-0.0377962,-0.00313059,-0.037338,0
2024-12-11 21:03:16.100,0.445364,2.28395,9.73909,-0.0377962,-0.00679568,-0.0379489,0
2024-12-11 21:03:16.103,0.442971,2.27677,9.7343,-0.0414613,-0.00984991,-0.0318404,0
2024-12-11 21:03:16.105,0.4334,2.25284,9.74866,-0.0414613,-0.00984991,-0.0318404,0
2024-12-11 21:03:16.107,0.423829,2.25045,9.76302,-0.0396287,-0.00984991,-0.0306187,0
2024-12-11 21:03:16.109,0.421436,2.26481,9.7678,-0.0396287,-0.0110716,-0.0287862,0
2024-12-11 21:03:16.111,0.407079,2.26241,9.77737,-0.0396287,-0.0147367,-0.0245102,0
2024-12-11 21:03:16.114,0.3999,2.23609,9.78934,-0.0390179,-0.0147367,-0.0245102,0
2024-12-11 21:03:16.116,0.421436,2.2337,9.79412,-0.0359636,-0.0153475,-0.0220669,0
2024-12-11 21:03:16.119,0.438186,2.23849,9.80369,-0.0359636,-0.0165692,-0.0208452,0
2024-12-11 21:03:16.123,0.462114,2.21216,9.8351,-0.0298552,-0.0141258,-0.0196235,0
2024-12-11 21:03:16.124,0.462114,2.21216,9.8351,-0.0316877,-0.0153475,-0.0202343,0
2024-12-11 21:03:16.126,0.483649,2.20738,9.83988,-0.0316877,-0.0153475,-0.0202343,0
2024-12-11 21:03:16.128,0.502792,2.19541,9.82314,-0.0286335,-0.0141258,-0.0202343,0
2024-12-11 21:03:16.131,0.50997,2.18345,9.82314,-0.0255792,-0.00923906,-0.0226777,0
2024-12-11 21:03:16.133,0.50997,2.18345,9.83031,-0.0255792,-0.00923906,-0.0226777,0
2024-12-11 21:03:16.135,0.498006,2.18106,9.81326,-0.0255792,-0.00374144,-0.0251211,0
2024-12-11 21:03:16.137,0.500399,2.17866,9.81087,-0.0249684,-0.00251974,-0.0257319,0
2024-12-11 21:03:16.142,0.486042,2.20259,9.80369,-0.0213033,-7.63559e-05,-0.0281753,0
2024-12-11 21:03:16.142,0.486042,2.20259,9.80369,-0.0213033,-7.63559e-05,-0.0281753,0
2024-12-11 21:03:16.144,0.486042,2.18345,9.79652,-0.0255792,-7.63559e-05,-0.0275645,0
2024-12-11 21:03:16.147,0.481256,2.17627,9.77737,-0.0249684,-0.00129805,-0.0287862,0
2024-12-11 21:03:16.149,0.481256,2.17866,9.77498,-0.022525,-0.0019089,-0.0287862,0
2024-12-11 21:03:16.152,0.481256,2.17866,9.76062,-0.0268009,-0.00129805,-0.0287862,0
2024-12-11 21:03:16.154,0.481256,2.16909,9.75105,-0.0292443,-0.00374144,-0.029397,0
2024-12-11 21:03:16.156,0.476471,2.1667,9.75344,-0.0310769,-0.00313059,-0.0287862,0
2024-12-11 21:03:16.161,0.452543,2.16909,9.70798,-0.0335202,0.000534491,-0.0275645,0
2024-12-11 21:03:16.162,0.452543,2.16909,9.70798,-0.0335202,0.000534491,-0.0275645,0
2024-12-11 21:03:16.163,0.457328,2.15234,9.68884,-0.0335202,0.000534491,-0.0275645,0
2024-12-11 21:03:16.167,0.445364,2.16192,9.68884,-0.0402396,0.00114534,-0.0245102,0
2024-12-11 21:03:16.168,0.428614,2.16192,9.69602,-0.0402396,0.00114534,-0.0245102,0
2024-12-11 21:03:16.170,0.426222,2.15474,9.69123,-0.0445155,0.00175619,-0.0232886,0
2024-12-11 21:03:16.174,0.41665,2.14517,9.67927,-0.0481806,0.00542127,-0.0202343,0
2024-12-11 21:03:16.176,0.3999,2.14517,9.68166,-0.0518457,0.00542127,-0.0202343,0
2024-12-11 21:03:16.178,0.395115,2.14756,9.68166,-0.0518457,0.00542127,-0.0202343,0
2024-12-11 21:03:16.180,0.3999,2.15234,9.67448,-0.0561216,0.00664296,-0.0202343,0
2024-12-11 21:03:16.182,0.407079,2.15234,9.66252,-0.0579541,0.00786466,-0.0171801,0
2024-12-11 21:03:16.184,0.407079,2.14995,9.6673,-0.0603975,0.0096972,-0.0171801,0
2024-12-11 21:03:16.187,0.407079,2.13559,9.67448,-0.0597867,0.0096972,-0.0153475,0
2024-12-11 21:03:16.189,0.41665,2.10688,9.67448,-0.0603975,0.0109189,-0.0141258,0
2024-12-11 21:03:16.194,0.428614,2.11406,9.68884,-0.0628409,0.010308,-0.00923906,0
2024-12-11 21:03:16.195,0.428614,2.11406,9.68884,-0.0628409,0.010308,-0.00923906,0
2024-12-11 21:03:16.197,0.423829,2.10449,9.68645,-0.0658951,0.0096972,-0.0122933,0
2024-12-11 21:03:16.199,0.426222,2.11645,9.68884,-0.0634518,0.00725381,-0.0110716,0
2024-12-11 21:03:16.201,0.438186,2.12842,9.69602,-0.0652843,0.00786466,-0.00862822,0
2024-12-11 21:03:16.203,0.435793,2.14038,9.7008,-0.0671168,0.00908635,-0.00923906,0
2024-12-11 21:03:16.207,0.431007,2.14756,9.7008,-0.0683385,0.0115297,-0.00679568,0
2024-12-11 21:03:16.208,0.438186,2.14038,9.7008,-0.0683385,0.0115297,-0.00679568,0
2024-12-11 21:03:16.213,0.414257,2.16192,9.7008,-0.0695602,0.0139731,-0.00435229,0
2024-12-11 21:03:16.214,0.428614,2.14995,9.7008,-0.0713928,0.0121406,-0.00496313,0
2024-12-11 21:03:16.215,0.402293,2.16909,9.68884,-0.0713928,0.0121406,-0.00496313,0
2024-12-11 21:03:16.217,0.411865,2.16909,9.68645,-0.0695602,0.0127514,-0.00251974,0
2024-12-11 21:03:16.220,0.414257,2.15474,9.67927,-0.0695602,0.0127514,-0.00251974,0
2024-12-11 21:03:16.222,0.390329,2.14756,9.67687,-0.0695602,0.0158057,-0.00129805,0
2024-12-11 21:03:16.227,0.383151,2.17627,9.64337,-0.0689494,0.0182491,0.00297788,0
2024-12-11 21:03:16.228,0.383151,2.17627,9.64337,-0.0683385,0.0213033,0.00419957,0
2024-12-11 21:03:16.229,0.385544,2.17388,9.62423,-0.0683385,0.0213033,0.00419957,0
2024-12-11 21:03:16.232,0.397508,2.17388,9.60748,-0.0683385,0.0206925,0.00603212,0
2024-12-11 21:03:16.234,0.3999,2.17149,9.59313,-0.0701711,0.0194708,0.00786466,0
2024-12-11 21:03:16.236,0.397508,2.16909,9.58116,-0.0701711,0.0213033,0.0096972,0
2024-12-11 21:03:16.240,0.407079,2.16431,9.58595,-0.0720036,0.0206925,0.00725381,0
2024-12-11 21:03:16.241,0.4334,2.16431,9.58116,-0.0720036,0.0206925,0.00725381,0
2024-12-11 21:03:16.244,0.445364,2.1667,9.5692,-0.0726145,0.0206925,0.00847551,0
2024-12-11 21:03:16.246,0.45015,2.16909,9.55963,-0.0732253,0.0194708,0.00908635,0
2024-12-11 21:03:16.250,0.478864,2.16192,9.52134,-0.0750579,0.0200816,0.00419957,0
2024-12-11 21:03:16.253,0.4669,2.17149,9.51416,-0.0805555,0.0170274,0.00297788,0
2024-12-11 21:03:16.254,0.4669,2.17149,9.51416,-0.0793338,0.0133623,0.00114534,0
2024-12-11 21:03:16.255,0.4669,2.17388,9.50459,-0.0793338,0.0133623,0.00114534,0
2024-12-11 21:03:16.259,0.486042,2.17149,9.49741,-0.086664,0.00847551,0.000534491,0
2024-12-11 21:03:16.261,0.493221,2.17388,9.49981,-0.0884965,0.00481042,-0.00251974,0
2024-12-11 21:03:16.263,0.495613,2.1667,9.49263,-0.0897182,-0.0019089,-0.00435229,0
2024-12-11 21:03:16.265,0.50997,2.16192,9.48545,-0.0897182,-0.0019089,-0.00435229,0
2024-12-11 21:03:16.267,0.505185,2.1667,9.5022,-0.0915507,-0.00801737,-0.00557398,0
2024-12-11 21:03:16.269,0.478864,2.17866,9.51416,-0.0964375,-0.0116825,-0.00801737,0
2024-12-11 21:03:16.273,0.435793,2.18584,9.50938,-0.0982701,-0.0251211,-0.0110716,0
2024-12-11 21:03:16.276,0.371187,2.23849,9.51416,-0.0982701,-0.0251211,-0.0110716,0
2024-12-11 21:03:16.277,0.371187,2.23849,9.51416,-0.0982701,-0.0251211,-0.0110716,0
2024-12-11 21:03:16.280,0.344866,2.24806,9.5333,-0.100103,-0.0397814,-0.00862822,0
2024-12-11 21:03:16.282,0.325723,2.24088,9.54527,-0.102546,-0.0446682,-0.00740652,0
2024-12-11 21:03:16.284,0.318545,2.23849,9.54527,-0.102546,-0.0446682,-0.00740652,0
2024-12-11 21:03:16.288,0.301795,2.25284,9.55484,-0.101324,-0.0507767,-0.00557398,0
2024-12-11 21:03:16.288,0.301795,2.25284,9.55484,-0.101324,-0.0507767,-0.00557398,0
2024-12-11 21:03:16.293,0.328116,2.25284,9.58116,-0.102546,-0.0562743,-0.00251974,0
2024-12-11 21:03:16.294,0.328116,2.25284,9.58116,-0.104989,-0.0562743,-0.00251974,0
2024-12-11 21:03:16.295,0.330509,2.26481,9.57877,-0.104989,-0.0562743,-0.00251974,0
2024-12-11 21:03:16.298,0.337687,2.26002,9.57638,-0.102546,-0.0556635,-0.0019089,0
2024-12-11 21:03:16.302,0.352044,2.26481,9.60987,-0.108654,-0.0599394,-0.00129805,0
2024-12-11 21:03:16.302,0.352044,2.26481,9.60987,-0.108654,-0.0599394,-0.00129805,0
2024-12-11 21:03:16.305,0.318545,2.27916,9.60987,-0.104989,-0.0605502,-0.0019089,0
2024-12-11 21:03:16.307,0.299402,2.29831,9.60509,-0.104989,-0.0581068,-0.00129805,0
2024-12-11 21:03:16.312,0.297009,2.3342,9.60509,-0.108044,-0.0513875,-0.000687203,0
2024-12-11 21:03:16.313,0.297009,2.3342,9.60509,-0.108044,-0.0513875,-0.000687203,0
2024-12-11 21:03:16.315,0.311366,2.34616,9.60509,-0.111098,-0.0440574,-0.0019089,0
2024-12-11 21:03:16.316,0.330509,2.34616,9.59313,-0.111098,-0.0440574,-0.0019089,0
2024-12-11 21:03:16.320,0.342473,2.3342,9.58355,-0.111709,-0.0391706,-0.00496313,0
2024-12-11 21:03:16.321,0.347258,2.33898,9.58355,-0.11293,-0.0330621,-0.00435229,0
2024-12-11 21:03:16.323,0.342473,2.35573,9.59313,-0.120261,-0.0287862,-0.00740652,0
2024-12-11 21:03:16.326,0.328116,2.36052,9.59552,-0.121482,-0.0238994,-0.00862822,0
2024-12-11 21:03:16.328,0.320937,2.35573,9.57398,-0.125758,-0.0208452,-0.0104608,0
2024-12-11 21:03:16.332,0.299402,2.36531,9.55245,-0.134921,-0.0184018,-0.0110716,0
2024-12-11 21:03:16.333,0.285045,2.38684,9.55723,-0.134921,-0.0184018,-0.0110716,0
2024-12-11 21:03:16.335,0.275175,2.42273,9.55723,-0.14897,-0.0129041,-0.013515,0
2024-12-11 21:03:16.340,0.239282,2.42752,9.5357,-0.16302,-0.00496313,-0.0122933,0
2024-12-11 21:03:16.341,0.208176,2.42752,9.5357,-0.169739,0.000534491,-0.00923906,0
2024-12-11 21:03:16.342,0.193819,2.4323,9.5333,-0.169739,0.000534491,-0.00923906,0
2024-12-11 21:03:16.345,0.167498,2.46341,9.52373,-0.17768,0.00481042,-0.00740652,0
2024-12-11 21:03:16.348,0.148355,2.48016,9.5333,-0.187454,0.0121406,-0.00557398,0
2024-12-11 21:03:16.349,0.150748,2.47537,9.54288,-0.196006,0.0170274,-0.000687203,0
2024-12-11 21:03:16.354,0.191426,2.48255,9.55484,-0.210666,0.0243575,0.00603212,0
2024-12-11 21:03:16.355,0.191426,2.48255,9.55484,-0.22105,0.0261901,0.0096972,0
2024-12-11 21:03:16.357,0.217747,2.48495,9.57638,-0.22105,0.0261901,0.0096972,0
2024-12-11 21:03:16.360,0.244068,2.48016,9.59313,-0.238154,0.030466,0.0115297,0
2024-12-11 21:03:16.362,0.256032,2.47777,9.62184,-0.238154,0.030466,0.0115297,0
2024-12-11 21:03:16.364,0.27996,2.47537,9.63859,-0.243041,0.0286335,0.0127514,0
2024-12-11 21:03:16.368,0.344866,2.48495,9.69362,-0.254036,0.0286335,0.0127514,0
2024-12-11 21:03:16.368,0.344866,2.48495,9.69362,-0.254036,0.0286335,0.0127514,0
2024-12-11 21:03:16.372,0.371187,2.5017,9.73191,-0.266253,0.0261901,0.0115297,0
2024-12-11 21:03:16.373,0.387936,2.52832,9.78216,-0.266253,0.0261901,0.0115297,0
2024-12-11 21:03:16.375,0.390329,2.5331,9.82553,-0.269918,0.0268009,0.010308,0
2024-12-11 21:03:16.379,0.402293,2.54028,9.85424,-0.276027,0.0268009,0.00542127,0
2024-12-11 21:03:16.382,0.3999,2.56899,9.8686,-0.280913,0.0255792,0.00419957,0
2024-12-11 21:03:16.385,0.395115,2.61924,9.93081,-0.279081,0.0298552,0.00175619,0
2024-12-11 21:03:16.386,0.395115,2.61924,9.93081,-0.279081,0.0298552,0.00175619,0
2024-12-11 21:03:16.387,0.395115,2.62403,9.95953,-0.27847,0.0292443,-0.0019089,0
2024-12-11 21:03:16.390,0.395115,2.6336,9.98585,-0.277248,0.0329094,-0.00435229,0
2024-12-11 21:03:16.393,0.395115,2.65753,10.0026,-0.272972,0.0432938,-0.0122933,0
2024-12-11 21:03:16.394,0.392722,2.65753,10.0026,-0.272972,0.0432938,-0.0122933,0
2024-12-11 21:03:16.397,0.378365,2.64556,9.98585,-0.271751,0.0530674,-0.0147367,0
2024-12-11 21:03:16.400,0.364008,2.63839,9.98345,-0.266864,0.0695602,-0.0238994,0
2024-12-11 21:03:16.401,0.35683,2.61446,9.95953,-0.266864,0.0695602,-0.0238994,0
2024-12-11 21:03:16.404,0.34008,2.59771,9.9021,-0.26381,0.0787229,-0.0263428,0
2024-12-11 21:03:16.406,0.320937,2.59771,9.88296,-0.262588,0.0872748,-0.029397,0
2024-12-11 21:03:16.408,0.294616,2.59292,9.87099,-0.258923,0.0964375,-0.0318404,0
2024-12-11 21:03:16.411,0.258425,2.60967,9.84467,-0.257701,0.102546,-0.0330621,0
2024-12-11 21:03:16.413,0.217747,2.62642,9.8351,-0.25648,0.109876,-0.0361163,0
2024-12-11 21:03:16.415,0.179462,2.63599,9.81566,-0.25648,0.11293,-0.0367272,0
2024-12-11 21:03:16.419,0.133998,2.65514,9.78694,-0.25648,0.11965,-0.033673,0
2024-12-11 21:03:16.420,0.0885344,2.67189,9.76062,-0.25648,0.11965,-0.033673,0
2024-12-11 21:03:16.423,0.0478565,2.68864,9.7343,-0.25709,0.123315,-0.0342838,0
2024-12-11 21:03:16.426,0.0191426,2.68146,9.70798,-0.259534,0.127591,-0.0306187,0
2024-12-11 21:03:16.427,0.00957129,2.66949,9.68405,-0.259534,0.127591,-0.0306187,0
2024-12-11 21:03:16.429,-0.00717847,2.65992,9.66012,-0.260145,0.128812,-0.0281753,0
2024-12-11 21:03:16.433,-0.026321,2.65274,9.62663,-0.261977,0.122704,-0.0251211,0
2024-12-11 21:03:16.435,-0.0334995,2.66231,9.6027,-0.261977,0.122704,-0.0251211,0
2024-12-11 21:03:16.439,-0.0454636,2.64078,9.59313,-0.267475,0.113541,-0.0184018,0
2024-12-11 21:03:16.439,-0.0454636,2.64078,9.59313,-0.267475,0.113541,-0.0184018,0
2024-12-11 21:03:16.445,-0.0382852,2.67428,9.5692,-0.269307,0.0927724,-0.00923906,0
2024-12-11 21:03:16.446,-0.0334995,2.7006,9.58355,-0.269307,0.0927724,-0.00923906,0
2024-12-11 21:03:16.447,-0.0334995,2.7006,9.58355,-0.266864,0.0836097,-0.00496313,0
2024-12-11 21:03:16.448,-0.0191426,2.71256,9.58116,-0.266864,0.0836097,-0.00496313,0
2024-12-11 21:03:16.451,0.00239282,2.70539,9.59073,-0.267475,0.0756687,0.00114534,0
2024-12-11 21:03:16.454,0.0454636,2.69103,9.61466,-0.26381,0.0671168,0.00481042,0
2024-12-11 21:03:16.455,0.105284,2.69581,9.65534,-0.26381,0.0671168,0.00481042,0
2024-12-11 21:03:16.459,0.145962,2.69342,9.68405,-0.254647,0.042683,0.0170274,0
2024-12-11 21:03:16.461,0.193819,2.68864,9.70559,-0.246706,0.0274118,0.0200816,0
2024-12-11 21:03:16.463,0.241675,2.67906,9.73909,-0.246706,0.0274118,0.0200816,0
2024-12-11 21:03:16.465,0.285045,2.6671,9.77259,-0.24243,0.014584,0.0249684,0
2024-12-11 21:03:16.467,0.364008,2.64556,9.79652,-0.232046,0.00175619,0.0274118,0
2024-12-11 21:03:16.472,0.555434,2.61446,9.85903,-0.21372,-0.0220669,0.0286335,0
2024-12-11 21:03:16.472,0.555434,2.61446,9.85903,-0.21372,-0.0220669,0.0286335,0
2024-12-11 21:03:16.474,0.648754,2.59532,9.89971,-0.202725,-0.0361163,0.0280226,0
2024-12-11 21:03:16.478,0.744467,2.56421,9.93081,-0.172183,-0.0550526,0.0206925,0
2024-12-11 21:03:16.479,0.833001,2.52084,9.95235,-0.172183,-0.0550526,0.0206925,0
2024-12-11 21:03:16.481,0.907478,2.48255,9.98106,-0.159355,-0.0691021,0.0176382,0
2024-12-11 21:03:16.485,0.984048,2.45145,9.99303,-0.121482,-0.0862058,0.00481042,0
2024-12-11 21:03:16.486,1.04626,2.41795,9.99542,-0.121482,-0.0862058,0.00481042,0
2024-12-11 21:03:16.488,1.09173,2.38923,10.0146,-0.103768,-0.0947577,-0.00435229,0
2024-12-11 21:03:16.491,1.1324,2.36291,10.0265,-0.0829989,-0.0996445,-0.0104608,0
2024-12-11 21:03:16.493,1.13001,2.34377,10.0241,-0.0616192,-0.105753,-0.0177909,0
2024-12-11 21:03:16.495,1.07976,2.32463,10.0026,-0.0390179,-0.115526,-0.0245102,0
2024-12-11 21:03:16.498,1.1013,2.29352,9.94756,-0.0182491,-0.124078,-0.0257319,0
2024-12-11 21:03:16.500,1.19222,2.25524,9.89013,0.00129805,-0.130187,-0.0306187,0
2024-12-11 21:03:16.502,1.2329,2.21934,9.83988,0.0226777,-0.129576,-0.033673,0
2024-12-11 21:03:16.505,1.22333,2.17149,9.79412,0.0440574,-0.122246,-0.0361163,0
2024-12-11 21:03:16.508,1.20658,2.13559,9.74866,0.0941468,-0.0978119,-0.0391706,0
2024-12-11 21:03:16.510,1.18983,2.11645,9.69123,0.0941468,-0.0978119,-0.0391706,0
2024-12-11 21:03:16.512,1.18744,2.08056,9.6338,0.11797,-0.0825407,-0.0410031,0
2024-12-11 21:03:16.514,1.1994,2.04467,9.56441,0.13996,-0.0672696,-0.0391706,0
2024-12-11 21:03:16.518,1.1994,2.01117,9.49263,0.165616,-0.0501658,-0.037338,0
2024-12-11 21:03:16.519,1.18744,1.98963,9.39213,0.186385,-0.033673,-0.0330621,0
2024-12-11 21:03:16.528,1.08694,1.96301,8.92523,0.265184,0.0732253,-0.0196235,0
2024-12-11 21:03:16.528,1.08694,1.96301,8.92523,0.265184,0.0732253,-0.0196235,0
2024-12-11 21:03:16.531,1.04387,1.95823,8.79362,0.282899,0.103768,-0.0141258,0
2024-12-11 21:03:16.532,1.04387,1.95823,8.79362,0.282899,0.103768,-0.0141258,0
2024-12-11 21:03:16.533,1.02233,1.95823,8.65693,0.292061,0.131867,-0.00679568,0
2024-12-11 21:03:16.534,1.02233,1.95823,8.65693,0.292061,0.131867,-0.00679568,0
2024-12-11 21:03:16.538,0.919442,1.98963,8.36022,0.308554,0.192341,0.00786466,0
2024-12-11 21:03:16.539,0.919442,1.98963,8.36022,0.308554,0.192341,0.00786466,0
2024-12-11 21:03:16.543,0.847657,2.0351,8.07757,0.315274,0.243652,0.0274118,0
2024-12-11 21:03:16.543,0.847657,2.0351,8.07757,0.315274,0.243652,0.0274118,0
2024-12-11 21:03:16.545,0.818644,2.06142,7.93161,0.310387,0.268086,0.0371853,0
2024-12-11 21:03:16.547,0.797109,2.09731,7.78804,0.310387,0.288854,0.0457372,0
2024-12-11 21:03:16.551,0.770788,2.14038,7.65404,0.289618,0.326116,0.0634518,0
2024-12-11 21:03:16.553,0.737288,2.17149,7.51735,0.289618,0.326116,0.0634518,0
2024-12-11 21:03:16.554,0.706182,2.19302,7.36182,0.289618,0.326116,0.0634518,0
2024-12-11 21:03:16.557,0.691825,2.19781,7.21107,0.254189,0.349328,0.0805555,0
2024-12-11 21:03:16.560,0.682254,2.20259,7.09382,0.206543,0.354826,0.0970484,0
2024-12-11 21:03:16.561,0.677468,2.23849,7.0002,0.206543,0.354826,0.0970484,0
2024-12-11 21:03:16.566,0.696611,2.27677,6.83271,0.144236,0.325505,0.103768,0
2024-12-11 21:03:16.566,0.696611,2.27677,6.83271,0.144236,0.325505,0.103768,0
2024-12-11 21:03:16.568,0.699003,2.30548,6.78963,0.108807,0.29985,0.104379,0
2024-12-11 21:03:16.571,0.71336,2.34377,6.75853,0.0666587,0.266864,0.103768,0
2024-12-11 21:03:16.576,0.766002,2.42752,6.74417,-0.0182491,0.181345,0.0964375,0
2024-12-11 21:03:16.576,0.766002,2.42752,6.74417,-0.0182491,0.181345,0.0964375,0
2024-12-11 21:03:16.583,1.02473,2.5017,6.94756,-0.16302,0.00908635,0.0652843,0
2024-12-11 21:03:16.584,1.02473,2.5017,6.94756,-0.16302,0.00908635,0.0652843,0
2024-12-11 21:03:16.586,1.18744,2.50648,7.06511,-0.16302,0.00908635,0.0652843,0
2024-12-11 21:03:16.590,1.5323,2.44427,7.38096,-0.316343,-0.212651,0.00236703,0
2024-12-11 21:03:16.590,1.5323,2.44427,7.38096,-0.316343,-0.212651,0.00236703,0
2024-12-11 21:03:16.592,1.73569,2.41555,7.57478,-0.369486,-0.294505,-0.0287862,0
2024-12-11 21:03:16.593,1.73569,2.41555,7.57478,-0.369486,-0.294505,-0.0287862,0
2024-12-11 21:03:16.594,1.95583,2.35573,7.79761,-0.417743,-0.382467,-0.0660479,0
2024-12-11 21:03:16.597,2.15474,2.30309,8.07039,-0.467222,-0.47104,-0.106364,0
2024-12-11 21:03:16.600,2.32223,2.27677,8.36022,-0.513646,-0.55778,-0.149734,0
2024-12-11 21:03:16.602,2.46102,2.26481,8.65693,-0.557016,-0.643299,-0.194326,0
2024-12-11 21:03:16.604,2.55703,2.26002,8.97069,-0.599776,-0.726374,-0.241361,0
2024-12-11 21:03:16.607,2.63839,2.24088,9.28445,-0.672466,-0.865036,-0.336042,0
2024-12-11 21:03:16.609,2.72692,2.23849,9.60987,-0.672466,-0.865036,-0.336042,0
2024-12-11 21:03:16.611,2.82263,2.20738,9.9356,-0.702398,-0.918791,-0.382467,0
2024-12-11 21:03:16.613,2.89203,2.17388,10.2515,-0.728664,-0.956052,-0.427059,0
2024-12-11 21:03:16.616,2.91595,2.17627,10.5939,-0.74699,-0.976821,-0.468596,0
2024-12-11 21:03:16.618,2.89681,2.18824,10.917,-0.764094,-0.984762,-0.506469,0
2024-12-11 21:03:16.621,2.8346,2.20977,11.1876,-0.782419,-0.963382,-0.569386,0
2024-12-11 21:03:16.623,2.76521,2.22174,11.4628,-0.782419,-0.963382,-0.569386,0
2024-12-11 21:03:16.625,2.68146,2.23609,11.7598,-0.786695,-0.937727,-0.595042,0
2024-12-11 21:03:16.627,2.57857,2.26481,12.0206,-0.781808,-0.901687,-0.614589,0
2024-12-11 21:03:16.631,2.47298,2.28156,12.2411,-0.760428,-0.795399,-0.640244,0
2024-12-11 21:03:16.632,2.37009,2.27916,12.4373,-0.760428,-0.795399,-0.640244,0
2024-12-11 21:03:16.634,2.2672,2.28156,12.5833,-0.746379,-0.72393,-0.648185,0
2024-12-11 21:03:16.637,2.16192,2.27916,12.6912,-0.728664,-0.641466,-0.653683,0
2024-12-11 21:03:16.640,2.06381,2.27677,12.7822,-0.685294,-0.460044,-0.648185,0
2024-12-11 21:03:16.641,1.95344,2.2672,12.8348,-0.685294,-0.460044,-0.648185,0
2024-12-11 21:03:16.644,1.82423,2.26002,12.8539,-0.661471,-0.361087,-0.642688,0
2024-12-11 21:03:16.646,1.70219,2.25045,12.8348,-0.637037,-0.263352,-0.634747,0
2024-12-11 21:03:16.649,1.57537,2.26002,12.7606,-0.615047,-0.163173,-0.62253,0
2024-12-11 21:03:16.652,1.42702,2.28395,12.6601,-0.592445,-0.0660479,-0.60848,0
2024-12-11 21:03:16.653,1.28554,2.29591,12.5258,-0.573509,0.0249684,-0.593209,0
2024-12-11 21:03:16.656,1.15155,2.33181,12.3607,-0.558238,0.111709,-0.574273,0
2024-12-11 21:03:16.659,1.02473,2.36052,12.1765,-0.533193,0.263199,-0.532124,0
2024-12-11 21:03:16.661,0.909871,2.37009,11.9632,-0.533193,0.263199,-0.532124,0
2024-12-11 21:03:16.663,0.794716,2.4012,11.7431,-0.527696,0.326727,-0.508301,0
2024-12-11 21:03:16.665,0.687039,2.43948,11.5205,-0.527085,0.381703,-0.485089,0
2024-12-11 21:03:16.671,0.531506,2.51366,11.08,-0.546632,0.489823,-0.405679,0
2024-12-11 21:03:16.671,0.531506,2.51366,11.08,-0.546632,0.489823,-0.405679,0
2024-12-11 21:03:16.672,0.464507,2.56182,10.905,-0.546632,0.489823,-0.405679,0
2024-12-11 21:03:16.675,0.428614,2.63599,10.7255,-0.55946,0.508759,-0.376969,0
2024-12-11 21:03:16.677,0.402293,2.71974,10.5365,-0.575342,0.524031,-0.350092,0
2024-12-11 21:03:16.679,0.35683,2.79392,10.3857,-0.596111,0.535026,-0.325047,0
2024-12-11 21:03:16.682,0.308973,2.87528,10.2706,-0.615047,0.539302,-0.295726,0
2024-12-11 21:03:16.684,0.289831,2.9686,10.1629,-0.637037,0.538691,-0.270071,0
2024-12-11 21:03:16.686,0.267996,3.05713,10.0648,-0.658417,0.535637,-0.243804,0
2024-12-11 21:03:16.689,0.244068,3.13879,9.99303,-0.680407,0.53075,-0.218149,0
2024-12-11 21:03:16.691,0.248854,3.22971,9.93799,-0.701176,0.527696,-0.195547,0
2024-12-11 21:03:16.694,0.282652,3.32543,9.89971,-0.722556,0.527085,-0.172335,0
2024-12-11 21:03:16.696,0.328116,3.38285,9.87099,-0.722556,0.527085,-0.172335,0
2024-12-11 21:03:16.698,0.366401,3.41396,9.83988,-0.757985,0.53075,-0.133852,0
2024-12-11 21:03:16.701,0.392722,3.45942,9.83271,-0.774478,0.537469,-0.116748,0
2024-12-11 21:03:16.704,0.423829,3.5001,9.83271,-0.787306,0.547854,-0.104531,0
2024-12-11 21:03:16.706,0.454935,3.54796,9.84467,-0.80502,0.567401,-0.0831516,0
2024-12-11 21:03:16.708,0.481256,3.6006,9.86142,-0.80502,0.567401,-0.0831516,0
2024-12-11 21:03:16.711,0.500399,3.64367,9.87099,-0.811129,0.58817,-0.0715455,0
2024-12-11 21:03:16.713,0.500399,3.67986,9.88056,-0.809907,0.598554,-0.0660479,0
2024-12-11 21:03:16.715,0.476471,3.71336,9.89013,-0.809907,0.598554,-0.0660479,0
2024-12-11 21:03:16.717,0.4334,3.75165,9.89253,-0.806853,0.608938,-0.0636045,0
2024-12-11 21:03:16.719,0.3999,3.79472,9.88296,-0.799523,0.622377,-0.0605502,0
2024-12-11 21:03:16.723,0.392722,3.81865,9.87817,-0.781808,0.652309,-0.0550526,0
2024-12-11 21:03:16.724,0.364008,3.84018,9.87099,-0.781808,0.652309,-0.0550526,0
2024-12-11 21:03:16.727,0.330509,3.85693,9.85664,-0.767148,0.665136,-0.0562743,0
2024-12-11 21:03:16.729,0.337687,3.84975,9.83749,-0.751266,0.679797,-0.0550526,0
2024-12-11 21:03:16.732,0.32333,3.84975,9.81566,-0.714004,0.705452,-0.057496,0
2024-12-11 21:03:16.733,0.285045,3.8665,9.79891,-0.714004,0.705452,-0.057496,0
2024-12-11 21:03:16.736,0.260818,3.85693,9.77977,-0.691403,0.716447,-0.0611611,0
2024-12-11 21:03:16.738,0.251246,3.83779,9.75105,-0.668191,0.72561,-0.0648262,0
2024-12-11 21:03:16.740,0.222533,3.82343,9.72952,-0.646811,0.731108,-0.0660479,0
2024-12-11 21:03:16.743,0.18664,3.82582,9.70559,-0.622988,0.734162,-0.0715455,0
2024-12-11 21:03:16.746,0.172283,3.8354,9.67209,-0.568012,0.734773,-0.0825407,0
2024-12-11 21:03:16.748,0.165105,3.82104,9.63859,-0.568012,0.734773,-0.0825407,0
2024-12-11 21:03:16.751,0.141177,3.8019,9.61227,-0.540523,0.732329,-0.0868167,0
2024-12-11 21:03:16.752,0.112463,3.78754,9.58116,-0.513035,0.726221,-0.0917034,0
2024-12-11 21:03:16.755,0.0885344,3.77557,9.5357,-0.484936,0.716447,-0.0984228,0
2024-12-11 21:03:16.758,0.0646062,3.77557,9.50698,-0.429349,0.691403,-0.110029,0
2024-12-11 21:03:16.759,0.0430708,3.766,9.49023,-0.429349,0.691403,-0.110029,0
2024-12-11 21:03:16.763,0.00957129,3.75883,9.47588,-0.400029,0.676132,-0.116748,0
2024-12-11 21:03:16.764,-0.0143569,3.75404,9.45195,-0.37193,0.654752,-0.120413,0
2024-12-11 21:03:16.766,-0.0382852,3.75883,9.43998,-0.34322,0.633983,-0.124689,0
2024-12-11 21:03:16.769,-0.0765703,3.77557,9.4352,-0.310234,0.611993,-0.130187,0
2024-12-11 21:03:16.772,-0.114855,3.75883,9.42563,-0.247317,0.571677,-0.13996,0
2024-12-11 21:03:16.774,-0.153141,3.72054,9.38256,-0.247317,0.571677,-0.13996,0
2024-12-11 21:03:16.777,-0.117248,3.72054,9.32274,-0.1844,0.522198,-0.14668,0
2024-12-11 21:03:16.778,-0.0909273,3.766,9.31556,-0.1844,0.522198,-0.14668,0
2024-12-11 21:03:16.783,-0.294616,3.80907,9.39213,-0.123315,0.442788,-0.157064,0
2024-12-11 21:03:16.784,-0.294616,3.80907,9.39213,-0.123315,0.442788,-0.157064,0
2024-12-11 21:03:16.787,-0.344866,3.78275,9.22912,-0.0597867,0.363378,-0.163783,0
2024-12-11 21:03:16.787,-0.344866,3.78275,9.22912,-0.0597867,0.363378,-0.163783,0
2024-12-11 21:03:16.790,-0.366401,3.766,9.18605,-0.0274118,0.328559,-0.165616,0
2024-12-11 21:03:16.793,-0.378365,3.75165,9.17887,0.00251974,0.288854,-0.169281,0
2024-12-11 21:03:16.796,-0.397508,3.72772,9.15255,0.0599394,0.20639,-0.176,0
2024-12-11 21:03:16.798,-0.4334,3.70858,9.10948,0.0880384,0.161798,-0.181498,0
2024-12-11 21:03:16.799,-0.481256,3.69661,9.08076,0.0880384,0.161798,-0.181498,0
2024-12-11 21:03:16.802,-0.541077,3.69183,9.03769,0.116748,0.118428,-0.185163,0
2024-12-11 21:03:16.804,-0.600898,3.68943,8.98744,0.144236,0.0762796,-0.189439,0
2024-12-11 21:03:16.806,-0.670289,3.68226,8.95634,0.168059,0.0353528,-0.191882,0
2024-12-11 21:03:16.809,-0.742074,3.67747,8.93959,0.193715,-0.00557398,-0.196769,0
2024-12-11 21:03:16.811,-0.797109,3.68943,8.92523,0.217538,-0.0465007,-0.201045,0
2024-12-11 21:03:16.813,-0.845265,3.7014,8.89412,0.243194,-0.0837624,-0.203488,0
2024-12-11 21:03:16.816,-0.893121,3.68943,8.84866,0.263962,-0.119192,-0.206543,0
2024-12-11 21:03:16.818,-0.933799,3.68226,8.78644,0.263962,-0.119192,-0.206543,0
2024-12-11 21:03:16.820,-0.967299,3.67268,8.72423,0.304889,-0.180887,-0.216316,0
2024-12-11 21:03:16.825,-1.0343,3.64876,8.60429,0.335431,-0.230366,-0.224868,0
2024-12-11 21:03:16.826,-1.0343,3.64876,8.60429,0.344594,-0.252356,-0.229144,0
2024-12-11 21:03:16.830,-1.06301,3.66072,8.42004,0.353757,-0.273736,-0.234031,0
2024-12-11 21:03:16.830,-1.08933,3.65833,8.42004,0.353757,-0.273736,-0.234031,0
2024-12-11 21:03:16.832,-1.11326,3.63649,8.33869,0.359255,-0.293283,-0.239528,0
2024-12-11 21:03:16.835,-1.14197,3.61974,8.27408,0.361698,-0.306722,-0.245026,0
2024-12-11 21:03:16.837,-1.15872,3.61256,8.21426,0.360476,-0.323215,-0.249913,0
2024-12-11 21:03:16.840,-1.1683,3.60539,8.14487,0.355589,-0.333599,-0.253578,0
2024-12-11 21:03:16.842,-1.17787,3.58624,8.07518,0.348259,-0.343983,-0.259686,0
2024-12-11 21:03:16.845,-1.17547,3.56231,8.02493,0.322604,-0.359255,-0.26946,0
2024-12-11 21:03:16.846,-1.17069,3.54078,7.96511,0.322604,-0.359255,-0.26946,0
2024-12-11 21:03:16.849,-1.17069,3.51685,7.91725,0.306722,-0.365363,-0.27679,0
2024-12-11 21:03:16.852,-1.17308,3.48814,7.89332,0.287175,-0.369639,-0.279844,0
2024-12-11 21:03:16.853,-1.17308,3.46182,7.867,0.263352,-0.372693,-0.284731,0
2024-12-11 21:03:16.857,-1.18265,3.4355,7.86222,0.238918,-0.373304,-0.289618,0
2024-12-11 21:03:16.858,-1.18744,3.402,7.87657,0.215705,-0.375137,-0.297559,0
2024-12-11 21:03:16.861,-1.17787,3.37567,7.89093,0.185163,-0.375747,-0.301224,0
2024-12-11 21:03:16.863,-1.17787,3.34457,7.93161,0.16134,-0.372693,-0.306111,0
2024-12-11 21:03:16.866,-1.18026,3.3015,7.99861,0.105142,-0.365363,-0.313441,0
2024-12-11 21:03:16.868,-1.17547,3.25603,8.06561,0.105142,-0.365363,-0.313441,0
2024-12-11 21:03:16.871,-1.17308,3.21057,8.14008,0.0477224,-0.356811,-0.317717,0
2024-12-11 21:03:16.872,-1.18026,3.16032,8.22862,0.0477224,-0.356811,-0.317717,0
2024-12-11 21:03:16.875,-1.1994,3.10768,8.33151,0.0208452,-0.353757,-0.32016,0
2024-12-11 21:03:16.878,-1.22094,3.0667,8.45115,-0.0268009,-0.343983,-0.32016,0
2024-12-11 21:03:16.879,-1.24008,3.02363,8.59711,-0.0268009,-0.343983,-0.32016,0
2024-12-11 21:03:16.883,-1.26162,2.97099,8.74098,-0.0494023,-0.34154,-0.318939,0
2024-12-11 21:03:16.884,-1.27597,2.92792,8.88216,-0.0726145,-0.339707,-0.315274,0
2024-12-11 21:03:16.891,-1.32144,2.78674,9.40409,-0.115985,-0.339707,-0.303057,0
2024-12-11 21:03:16.891,-1.32144,2.78674,9.40409,-0.115985,-0.339707,-0.303057,0
2024-12-11 21:03:16.892,-1.32144,2.78674,9.40409,-0.12698,-0.343983,-0.295726,0
2024-12-11 21:03:16.893,-1.32383,2.74128,9.58355,-0.12698,-0.343983,-0.295726,0
2024-12-11 21:03:16.897,-1.31904,2.70299,9.74148,-0.136753,-0.34887,-0.287785,0
2024-12-11 21:03:16.898,-1.30229,2.66231,9.90928,-0.142251,-0.354368,-0.281066,0
2024-12-11 21:03:16.902,-1.2999,2.62403,10.0768,-0.151414,-0.37025,-0.263352,0
2024-12-11 21:03:16.903,-1.28076,2.58814,10.261,-0.151414,-0.37025,-0.263352,0
2024-12-11 21:03:16.906,-1.25683,2.56182,10.4575,-0.152635,-0.378802,-0.252356,0
2024-12-11 21:03:16.908,-1.23051,2.54028,10.6394,-0.152025,-0.387964,-0.246859,0
2024-12-11 21:03:16.910,-1.20658,2.50887,10.8236,-0.147749,-0.393462,-0.235253,0
2024-12-11 21:03:16.913,-1.19462,2.49212,11.0082,-0.141029,-0.402014,-0.22609,0
2024-12-11 21:03:16.916,-1.1683,2.45623,11.2116,-0.122093,-0.416063,-0.205321,0
2024-12-11 21:03:16.917,-1.14676,2.4012,11.415,-0.122093,-0.416063,-0.205321,0
2024-12-11 21:03:16.920,-1.13958,2.38445,11.5995,-0.107433,-0.419728,-0.194937,0
2024-12-11 21:03:16.926,-1.1013,2.34138,12.1549,-0.0524565,-0.42095,-0.163173,0
2024-12-11 21:03:16.926,-1.1013,2.34138,12.1549,-0.0524565,-0.42095,-0.163173,0
2024-12-11 21:03:16.926,-1.1013,2.34138,12.1549,-0.0524565,-0.42095,-0.163173,0
2024-12-11 21:03:16.929,-1.08933,2.32223,12.32,-0.0286335,-0.421561,-0.148512,0
2024-12-11 21:03:16.936,-1.11805,2.28873,12.7199,0.0556635,-0.387964,-0.113694,0
2024-12-11 21:03:16.936,-1.11805,2.28873,12.7199,0.0556635,-0.387964,-0.113694,0
2024-12-11 21:03:16.936,-1.11805,2.28873,12.7199,0.0556635,-0.387964,-0.113694,0
2024-12-11 21:03:16.938,-1.13001,2.27438,12.7941,0.0843733,-0.367196,-0.0990336,0
2024-12-11 21:03:16.941,-1.14197,2.26241,12.8611,0.115526,-0.343983,-0.0843733,0
2024-12-11 21:03:16.943,-1.16351,2.25524,12.909,0.14668,-0.317717,-0.0672696,0
2024-12-11 21:03:16.945,-1.18505,2.24088,12.909,0.179665,-0.287175,-0.049555,0
2024-12-11 21:03:16.948,-1.22572,2.22891,12.8803,0.210208,-0.256632,-0.0330621,0
2024-12-11 21:03:16.950,-1.25683,2.21456,12.8468,0.241361,-0.222425,-0.0129041,0
2024-12-11 21:03:16.952,-1.26401,2.18584,12.775,0.26946,-0.193104,0.00847551,0
2024-12-11 21:03:16.955,-1.27837,2.16431,12.6649,0.29084,-0.158897,0.030466,0
2024-12-11 21:03:16.957,-1.29751,2.13559,12.5426,0.311608,-0.129576,0.0536782,0
2024-12-11 21:03:16.960,-1.2999,2.10688,12.4062,0.328101,-0.100866,0.0787229,0
2024-12-11 21:03:16.963,-1.29033,2.10449,12.2507,0.347648,-0.0513875,0.129423,0
2024-12-11 21:03:16.964,-1.28076,2.11406,12.0879,0.347648,-0.0513875,0.129423,0
2024-12-11 21:03:16.968,-1.26162,2.09492,11.9225,0.352535,-0.0281753,0.155079,0
2024-12-11 21:03:16.969,-1.24726,2.08056,11.7622,0.352535,-0.00801737,0.181956,0
2024-12-11 21:03:16.971,-1.23529,2.08774,11.6186,0.347648,0.014584,0.208223,0
2024-12-11 21:03:16.975,-1.22094,2.10927,11.4748,0.323825,0.058565,0.260145,0
2024-12-11 21:03:16.976,-1.1994,2.14756,11.3432,0.323825,0.058565,0.260145,0
2024-12-11 21:03:16.979,-1.1659,2.17627,11.2235,0.292672,0.101324,0.31451,0
2024-12-11 21:03:16.982,-1.11565,2.20738,11.1159,0.270682,0.11965,0.341387,0
2024-12-11 21:03:16.983,-1.05823,2.23849,11.0321,0.270682,0.11965,0.341387,0
2024-12-11 21:03:16.985,-0.996012,2.26959,10.9603,0.250524,0.136753,0.363378,0
2024-12-11 21:03:16.988,-0.921835,2.31506,10.9146,0.221203,0.150192,0.382314,0
2024-12-11 21:03:16.990,-0.842872,2.36291,10.8763,0.198602,0.167296,0.404305,0
2024-12-11 21:03:16.992,-0.770788,2.42034,10.838,0.172946,0.183178,0.422019,0
2024-12-11 21:03:16.995,-0.689432,2.47777,10.8117,0.14668,0.201503,0.433014,0
2024-12-11 21:03:16.997,-0.593719,2.51845,10.8021,0.120413,0.217996,0.44462,0
2024-12-11 21:03:17.000,-0.50997,2.57617,10.8045,0.0947577,0.238154,0.453783,0
2024-12-11 21:03:17.003,-0.423829,2.6336,10.8117,0.0452791,0.276637,0.461724,0
2024-12-11 21:03:17.004,-0.347258,2.67906,10.8093,0.0452791,0.276637,0.461724,0
2024-12-11 21:03:17.007,-0.263211,2.70539,10.8117,0.0220669,0.295574,0.462946,0
2024-12-11 21:03:17.009,-0.181855,2.74128,10.8236,-0.00358873,0.309623,0.459892,0
2024-12-11 21:03:17.012,-0.107677,2.79153,10.8308,-0.0518457,0.335279,0.443399,0
2024-12-11 21:03:17.015,-0.0430708,2.82981,10.8356,-0.0768904,0.345663,0.432404,0
2024-12-11 21:03:17.016,0.00957129,2.87049,10.8404,-0.0768904,0.345663,0.432404,0
2024-12-11 21:03:17.018,0.0622134,2.90638,10.8428,-0.0994917,0.354826,0.419576,0
2024-12-11 21:03:17.021,0.0957129,2.93749,10.8356,-0.122093,0.361545,0.407359,0
2024-12-11 21:03:17.023,0.105284,2.95663,10.8428,-0.145305,0.370708,0.391477,0
2024-12-11 21:03:17.026,0.0981057,2.98295,10.8619,-0.164852,0.378649,0.374984,0
2024-12-11 21:03:17.029,0.0885344,3.0332,10.8715,-0.188675,0.384147,0.359713,0
2024-12-11 21:03:17.030,0.0885344,3.06431,10.893,-0.213109,0.39392,0.345052,0
2024-12-11 21:03:17.032,0.0622134,3.08106,10.9002,-0.230824,0.399418,0.32917,0
2024-12-11 21:03:17.035,0.0430708,3.09811,10.905,-0.250371,0.406137,0.313899,0
2024-12-11 21:03:17.038,0.0478565,3.09571,10.9313,-0.268086,0.409191,0.302293,0
2024-12-11 21:03:17.040,0.040678,3.08854,10.9508,-0.284578,0.412246,0.291298,0
2024-12-11 21:03:17.042,0.0430708,3.08345,10.9723,-0.302904,0.4153,0.279081,0
2024-12-11 21:03:17.045,0.0334995,3.0667,11.0082,-0.315732,0.417132,0.267475,0
2024-12-11 21:03:17.048,0.0143569,3.04277,11.0345,-0.353604,0.417743,0.248538,0
2024-12-11 21:03:17.049,0.00717847,3.02842,11.0584,-0.353604,0.417743,0.248538,0
2024-12-11 21:03:17.051,-0.00717847,3.01406,11.0943,-0.366432,0.413467,0.239376,0
2024-12-11 21:03:17.054,-0.0311067,2.98535,11.0919,-0.378038,0.413467,0.232656,0
2024-12-11 21:03:17.056,-0.0502493,2.95185,11.1183,-0.392088,0.409802,0.225937,0
2024-12-11 21:03:17.058,-0.081356,2.92074,11.1709,-0.407359,0.405526,0.223494,0
2024-12-11 21:03:17.061,-0.119641,2.90878,11.2044,-0.421408,0.403083,0.22044,0
2024-12-11 21:03:17.063,-0.150748,2.89681,11.2546,-0.431182,0.396364,0.217996,0
2024-12-11 21:03:17.065,-0.167498,2.88485,11.3049,-0.44401,0.392698,0.221661,0
2024-12-11 21:03:17.068,-0.181855,2.8657,11.3767,-0.453172,0.393309,0.221661,0
2024-12-11 21:03:17.070,-0.205783,2.84895,11.4532,-0.463557,0.389644,0.224105,0
2024-12-11 21:03:17.073,-0.239282,2.86092,11.5035,-0.467222,0.392088,0.229602,0
2024-12-11 21:03:17.077,-0.35683,2.90399,11.6091,-0.478217,0.399418,0.244873,0
2024-12-11 21:03:17.078,-0.35683,2.90399,11.6091,-0.478217,0.399418,0.244873,0
2024-12-11 21:03:17.081,-0.411865,2.92792,11.645,-0.486769,0.409191,0.266253,0
2024-12-11 21:03:17.082,-0.488435,2.95663,11.6761,-0.486769,0.409191,0.266253,0
2024-12-11 21:03:17.084,-0.538684,2.97817,11.7048,-0.489823,0.409191,0.279692,0
2024-12-11 21:03:17.087,-0.545863,2.99013,11.7431,-0.49471,0.400029,0.292519,0
2024-12-11 21:03:17.089,-0.541077,2.99013,11.7694,-0.502651,0.38659,0.305347,0
2024-12-11 21:03:17.091,-0.502792,2.99492,11.8053,-0.511203,0.366432,0.316953,0
2024-12-11 21:03:17.095,-0.454935,2.98295,11.8412,-0.520366,0.340776,0.32917,0
2024-12-11 21:03:17.096,-0.392722,2.95424,11.8914,-0.533193,0.312677,0.337111,0
2024-12-11 21:03:17.098,-0.297009,2.91835,11.9824,-0.54541,0.275416,0.341998,0
2024-12-11 21:03:17.101,-0.174676,2.84895,12.0879,-0.55946,0.234489,0.343831,0
2024-12-11 21:03:17.103,-0.0239282,2.77956,12.2243,-0.576563,0.182567,0.342609,0
2024-12-11 21:03:17.105,0.174676,2.7006,12.4038,-0.589391,0.122093,0.33589,0
2024-12-11 21:03:17.108,0.390329,2.59532,12.6096,-0.605884,0.0548999,0.326116,0
2024-12-11 21:03:17.110,0.610469,2.48734,12.842,-0.621766,-0.0208452,0.308401,0
2024-12-11 21:03:17.113,0.85005,2.38684,13.1076,-0.63887,-0.102088,0.287022,0
2024-12-11 21:03:17.115,1.05105,2.29591,13.407,-0.649865,-0.186385,0.260145,0
2024-12-11 21:03:17.117,1.2329,2.20738,13.7109,-0.662082,-0.270071,0.22777,0
2024-12-11 21:03:17.120,1.42223,2.11645,14.0414,-0.671856,-0.348259,0.194784,0
2024-12-11 21:03:17.122,1.58016,2.0351,14.4054,-0.676132,-0.421561,0.159966,0
2024-12-11 21:03:17.124,1.69502,1.96062,14.7691,-0.678575,-0.491808,0.120871,0
2024-12-11 21:03:17.127,1.78834,1.88883,15.1666,-0.677353,-0.549839,0.0842206,0
2024-12-11 21:03:17.129,1.85773,1.8338,15.5833,-0.66758,-0.596263,0.0481806,0
2024-12-11 21:03:17.132,1.91037,1.78834,15.9927,-0.652919,-0.633525,0.0127514,0
2024-12-11 21:03:17.134,1.93908,1.73569,16.4139,-0.632761,-0.656737,-0.0220669,0
2024-12-11 21:03:17.136,1.96062,1.66869,16.8257,-0.599776,-0.668954,-0.0568851,0
2024-12-11 21:03:17.138,1.98485,1.58734,17.2448,-0.564346,-0.670176,-0.0868167,0
2024-12-11 21:03:17.141,1.99202,1.48923,17.63,-0.520366,-0.660402,-0.117359,0
2024-12-11 21:03:17.144,2.0016,1.35733,17.9462,-0.466,-0.638412,-0.14668,0
2024-12-11 21:03:17.146,1.99442,1.20419,18.2309,-0.406748,-0.609702,-0.174779,0
2024-12-11 21:03:17.148,1.94148,1.04626,18.4609,-0.339555,-0.567553,-0.200434,0
2024-12-11 21:03:17.150,1.86012,0.9003,18.6236,-0.267475,-0.517464,-0.224257,0
2024-12-11 21:03:17.153,1.78116,0.742074,18.7385,-0.190508,-0.458212,-0.243804,1
2024-12-11 21:03:17.155,1.71177,0.56022,18.7986,-0.106211,-0.391019,-0.257243,0
2024-12-11 21:03:17.157,1.63759,0.385544,18.7911,-0.0200816,-0.317106,-0.271293,0
2024-12-11 21:03:17.161,1.58734,0.222533,18.7098,0.0678804,-0.238307,-0.27679,0
2024-12-11 21:03:17.162,1.51316,0.0550349,18.559,0.159507,-0.149123,-0.278623,0
2024-12-11 21:03:17.164,1.38604,-0.11007,18.3532,0.247469,-0.0550526,-0.274347,0
2024-12-11 21:03:17.167,1.23051,-0.244068,18.0897,0.336653,0.0445155,-0.264573,0
2024-12-11 21:03:17.169,1.06062,-0.364008,17.7859,0.424004,0.14836,-0.24808,0
2024-12-11 21:03:17.172,0.907478,-0.469292,17.4625,0.516242,0.259534,-0.221814,0
2024-12-11 21:03:17.174,0.766002,-0.54347,17.1299,0.599317,0.37254,-0.19005,0
2024-12-11 21:03:17.176,0.624826,-0.596112,16.7492,0.681782,0.485547,-0.15401,0
2024-12-11 21:03:17.179,0.476471,-0.651147,16.3325,0.761192,0.597332,-0.111251,0
2024-12-11 21:03:17.181,0.335294,-0.715753,15.9063,0.836937,0.71095,-0.0636045,0
2024-12-11 21:03:17.183,0.215354,-0.768395,15.4445,0.91085,0.82159,-0.0147367,0
2024-12-11 21:03:17.187,0.114855,-0.830609,14.9536,0.978654,0.928488,0.0365745,0
2024-12-11 21:03:17.188,0.0311067,-0.893121,14.4652,1.04035,1.03233,0.0897182,0
2024-12-11 21:03:17.191,-0.0430708,-0.948156,13.9648,1.10021,1.13129,0.142862,0
2024-12-11 21:03:17.194,-0.0909273,-0.991227,13.4477,1.20406,1.30416,0.248538,0
2024-12-11 21:03:17.195,-0.129212,-1.00798,12.9401,1.20406,1.30416,0.248538,0
2024-12-11 21:03:17.197,-0.181855,-1.02233,12.4469,1.2462,1.37929,0.298017,0
2024-12-11 21:03:17.200,-0.22014,-1.04626,11.9513,1.28469,1.44771,0.346274,0
2024-12-11 21:03:17.202,-0.251246,-1.05583,11.4772,1.31767,1.50635,0.394531,0
2024-12-11 21:03:17.205,-0.27996,-1.05344,11.0058,1.34638,1.55583,0.439734,0
2024-12-11 21:03:17.207,-0.287438,-1.03669,10.5389,1.3696,1.59614,0.483104,0
2024-12-11 21:03:17.211,-0.193819,-1.04148,9.74148,1.38914,1.63524,0.557016,0
2024-12-11 21:03:17.212,-0.193819,-1.04148,9.74148,1.38914,1.63524,0.557016,0
2024-12-11 21:03:17.214,-0.102891,-1.0654,9.40409,1.41419,1.63463,0.58878,0
2024-12-11 21:03:17.216,-0.0287139,-1.07737,9.04726,1.42335,1.62302,0.609549,0
2024-12-11 21:03:17.220,-0.00717847,-1.04387,8.62343,1.42702,1.61142,0.626042,0
2024-12-11 21:03:17.221,0.00239282,-0.99362,8.21665,1.42396,1.59492,0.643146,0
2024-12-11 21:03:17.223,0.0191426,-0.919442,7.87418,1.42091,1.57415,0.655974,0
2024-12-11 21:03:17.227,0.026321,-0.835394,7.57747,1.39769,1.50452,0.675521,0
2024-12-11 21:03:17.228,0.0287139,-0.732503,7.30678,1.39769,1.50452,0.675521,0
2024-12-11 21:03:17.230,0.0358923,-0.622433,7.04836,1.38059,1.45687,0.680407,0
2024-12-11 21:03:17.233,0.0287139,-0.531506,6.8016,1.3586,1.40128,0.685294,0
2024-12-11 21:03:17.235,0.0119641,-0.457328,6.58385,1.33783,1.3457,0.686516,0
2024-12-11 21:03:17.237,0.00957129,-0.395115,6.39452,1.31279,1.28644,0.692014,0
2024-12-11 21:03:17.240,0.0358923,-0.337687,6.21506,1.28896,1.22353,0.690181,0
2024-12-11 21:03:17.242,0.0622134,-0.287438,6.05235,1.25964,1.16,0.688959,0
2024-12-11 21:03:17.244,0.0981057,-0.253639,5.92792,1.23338,1.09036,0.685294,0
2024-12-11 21:03:17.247,0.143569,-0.22014,5.83191,1.20345,1.01828,0.676742,0
2024-12-11 21:03:17.249,0.189033,-0.18664,5.75773,1.17962,0.945592,0.666969,0
2024-12-11 21:03:17.253,0.229711,-0.16989,5.70987,1.12831,0.793414,0.638259,0
2024-12-11 21:03:17.255,0.265603,-0.155533,5.66441,1.10571,0.713393,0.619934,0
2024-12-11 21:03:17.257,0.289831,-0.119641,5.61895,1.08494,0.630929,0.597943,0
2024-12-11 21:03:17.260,0.297009,-0.0837488,5.58066,1.06478,0.549075,0.577785,0
2024-12-11 21:03:17.262,0.294616,-0.0574277,5.5328,1.04096,0.464778,0.555795,0
2024-12-11 21:03:17.263,0.260818,-0.0311067,5.48734,1.04096,0.464778,0.555795,0
2024-12-11 21:03:17.267,0.22014,0.0167498,5.45623,0.996979,0.294963,0.511814,0
2024-12-11 21:03:17.268,0.196211,0.0646062,5.4012,0.996979,0.294963,0.511814,0
2024-12-11 21:03:17.271,0.136391,0.0765703,5.34138,0.973767,0.204557,0.490434,0
2024-12-11 21:03:17.274,0.0741775,0.0933201,5.31476,0.924899,0.0243575,0.448896,0
2024-12-11 21:03:17.275,0.0215354,0.119641,5.29562,0.924899,0.0243575,0.448896,0
2024-12-11 21:03:17.277,-0.0287139,0.155533,5.26451,0.901076,-0.0648262,0.42996,0
2024-12-11 21:03:17.280,-0.0789631,0.189033,5.22622,0.870534,-0.153399,0.411635,0
2024-12-11 21:03:17.282,-0.119641,0.208176,5.21665,0.842435,-0.240139,0.395142,0
2024-12-11 21:03:17.286,-0.145962,0.227318,5.22383,0.815557,-0.325047,0.379871,0
2024-12-11 21:03:17.287,-0.155533,0.246461,5.23101,0.786237,-0.404457,0.365821,0
2024-12-11 21:03:17.290,-0.141177,0.244068,5.25972,0.722709,-0.554726,0.337111,0
2024-12-11 21:03:17.292,-0.12682,0.229711,5.30519,0.722709,-0.554726,0.337111,0
2024-12-11 21:03:17.294,-0.112463,0.229711,5.37966,0.691555,-0.623141,0.324284,0
2024-12-11 21:03:17.296,-0.0789631,0.236889,5.46102,0.657959,-0.686669,0.311456,0
2024-12-11 21:03:17.300,-0.0239282,0.232104,5.55195,0.595042,-0.786237,0.282746,0
2024-12-11 21:03:17.301,0.0191426,0.22014,5.6668,0.595042,-0.786237,0.282746,0
2024-12-11 21:03:17.303,0.0598206,0.210568,5.78405,0.565721,-0.823498,0.269307,0
2024-12-11 21:03:17.307,0.0909273,0.222533,5.91596,0.534568,-0.850987,0.255258,0
2024-12-11 21:03:17.308,0.112463,0.244068,6.05235,0.50708,-0.869312,0.24243,0
2024-12-11 21:03:17.311,0.138784,0.248854,6.18156,0.482035,-0.885194,0.22777,0
2024-12-11 21:03:17.314,0.153141,0.272782,6.29163,0.428891,-0.883972,0.202114,0
2024-12-11 21:03:17.315,0.150748,0.313759,6.40409,0.428891,-0.883972,0.202114,0
2024-12-11 21:03:17.318,0.136391,0.344866,6.53121,0.407511,-0.87481,0.188675,0
2024-12-11 21:03:17.321,0.11007,0.354437,6.65324,0.361698,-0.842435,0.165463,0
2024-12-11 21:03:17.323,0.0957129,0.354437,6.74896,0.339097,-0.818612,0.154468,0
2024-12-11 21:03:17.326,0.0837488,0.373579,6.82074,0.318328,-0.789291,0.141029,0
2024-12-11 21:03:17.327,0.0789631,0.402293,6.87578,0.318328,-0.789291,0.141029,0
2024-12-11 21:03:17.329,0.0909273,0.402293,6.91885,0.293283,-0.757527,0.128812,0
2024-12-11 21:03:17.332,0.0885344,0.409472,6.96192,0.267627,-0.720876,0.120261,0
2024-12-11 21:03:17.335,0.0789631,0.426222,6.99781,0.21876,-0.63719,0.094605,0
2024-12-11 21:03:17.337,0.0478565,0.438186,7.01486,0.21876,-0.63719,0.094605,0
2024-12-11 21:03:17.340,-0.00717847,0.45015,7.04836,0.159507,-0.552282,0.0726145,0
2024-12-11 21:03:17.341,-0.0574277,0.445364,7.0675,0.159507,-0.552282,0.0726145,0
2024-12-11 21:03:17.343,-0.0861416,0.4669,7.07468,0.127133,-0.502804,0.0628409,0
2024-12-11 21:03:17.346,-0.124427,0.490828,7.09861,0.0947577,-0.458212,0.0530674,0
2024-12-11 21:03:17.348,-0.193819,0.500399,7.13929,0.0605502,-0.408122,0.0432938,0
2024-12-11 21:03:17.351,-0.253639,0.533899,7.19193,0.0257319,-0.360476,0.0371853,0
2024-12-11 21:03:17.354,-0.304188,0.555434,7.23739,-0.0396287,-0.266406,0.0249684,0
2024-12-11 21:03:17.355,-0.359223,0.569791,7.29721,-0.0396287,-0.266406,0.0249684,0
2024-12-11 21:03:17.358,-0.409472,0.591326,7.37378,-0.0726145,-0.21876,0.022525,0
2024-12-11 21:03:17.360,-0.459721,0.612862,7.4336,-0.106211,-0.176611,0.0194708,0
2024-12-11 21:03:17.362,-0.495613,0.629611,7.50778,-0.134921,-0.135074,0.0170274,0
2024-12-11 21:03:17.365,-0.538684,0.617647,7.59901,-0.164242,-0.0923143,0.0164165,0
2024-12-11 21:03:17.367,-0.598505,0.610469,7.6995,-0.189286,-0.0532201,0.0133623,0
2024-12-11 21:03:17.369,-0.641576,0.610469,7.80958,-0.213109,-0.0202343,0.0127514,0
2024-12-11 21:03:17.373,-0.675075,0.60329,7.92682,-0.250982,0.0494023,0.0158057,0
2024-12-11 21:03:17.374,-0.725324,0.60329,8.03929,-0.250982,0.0494023,0.0158057,0
2024-12-11 21:03:17.376,-0.792323,0.615255,8.12782,-0.262588,0.082388,0.0200816,0
2024-12-11 21:03:17.379,-0.864407,0.629611,8.22622,-0.271751,0.115374,0.0231358,0
2024-12-11 21:03:17.381,-0.924228,0.639183,8.3339,-0.276637,0.143473,0.0280226,0
2024-12-11 21:03:17.384,-0.99362,0.675075,8.42962,-0.279081,0.174015,0.0353528,0
2024-12-11 21:03:17.387,-1.05583,0.703789,8.50858,-0.279081,0.226548,0.0548999,0
2024-12-11 21:03:17.388,-1.10369,0.715753,8.56601,-0.279081,0.226548,0.0548999,0
2024-12-11 21:03:17.391,-1.14437,0.73011,8.61147,-0.271751,0.248538,0.0677277,0
2024-12-11 21:03:17.393,-1.18505,0.766002,8.64736,-0.261977,0.267475,0.0787229,0
2024-12-11 21:03:17.395,-1.23051,0.787538,8.67608,-0.255869,0.285189,0.0921616,0
2024-12-11 21:03:17.398,-1.26401,0.797109,8.68565,-0.246095,0.299239,0.107433,0
2024-12-11 21:03:17.400,-1.2999,0.85005,8.67129,-0.232046,0.312067,0.124536,0
2024-12-11 21:03:17.402,-1.35015,0.888335,8.65215,-0.22105,0.321229,0.140419,0
2024-12-11 21:03:17.406,-1.38604,0.912264,8.64258,-0.194784,0.331614,0.179513,0
2024-12-11 21:03:17.408,-1.41027,0.94337,8.60908,-0.1844,0.331003,0.198449,0
2024-12-11 21:03:17.409,-1.4342,0.974477,8.56122,-0.1844,0.331003,0.198449,0
2024-12-11 21:03:17.412,-1.45334,1.00558,8.52533,-0.168517,0.328559,0.217996,0
2024-12-11 21:03:17.414,-1.45813,1.0343,8.48704,-0.151414,0.323062,0.2351,0
2024-12-11 21:03:17.417,-1.44616,1.08694,8.44397,-0.14164,0.312067,0.25709,0
2024-12-11 21:03:17.419,-1.4342,1.1348,8.39851,-0.125758,0.304736,0.277248,0
2024-12-11 21:03:17.421,-1.40788,1.18265,8.3674,-0.11293,0.29313,0.298628,0
2024-12-11 21:03:17.423,-1.36211,1.23769,8.33869,-0.0976592,0.280913,0.316953,0
2024-12-11 21:03:17.426,-1.30708,1.26401,8.31237,-0.0848314,0.266253,0.334668,0
2024-12-11 21:03:17.428,-1.24726,1.30708,8.28365,-0.0701711,0.253425,0.351161,0
2024-12-11 21:03:17.431,-1.19462,1.36451,8.23819,-0.0573433,0.239987,0.368875,0
2024-12-11 21:03:17.433,-1.14915,1.41027,8.18076,-0.0420721,0.227159,0.382925,0
2024-12-11 21:03:17.435,-1.10369,1.45813,8.15923,-0.0280226,0.21372,0.399418,0
2024-12-11 21:03:17.439,-1.06301,1.51077,8.15444,-0.014584,0.197227,0.412856,0
2024-12-11 21:03:17.440,-1.01276,1.57059,8.12303,0.000687203,0.182567,0.424462,0
2024-12-11 21:03:17.442,-0.950549,1.6328,8.09193,0.0171801,0.17035,0.436069,0
2024-12-11 21:03:17.445,-0.890728,1.70459,8.06082,0.0306187,0.156911,0.447675,0
2024-12-11 21:03:17.447,-0.830609,1.76919,8.02014,0.0458899,0.144084,0.456227,0
2024-12-11 21:03:17.450,-0.773181,1.80987,7.97229,0.0617719,0.129423,0.464778,0
2024-12-11 21:03:17.452,-0.696611,1.85533,7.93161,0.0745997,0.115374,0.472109,0
2024-12-11 21:03:17.454,-0.615255,1.91037,7.87657,0.0898709,0.106822,0.476385,0
2024-12-11 21:03:17.456,-0.529113,1.9657,7.80958,0.0996445,0.0939941,0.477606,0
2024-12-11 21:03:17.460,-0.4334,1.99681,7.74736,0.112472,0.0768904,0.478217,0
2024-12-11 21:03:17.461,-0.352044,2.04227,7.67558,0.112472,0.0768904,0.478217,0
2024-12-11 21:03:17.464,-0.277567,2.10449,7.59183,0.121635,0.0671168,0.474552,0
2024-12-11 21:03:17.467,-0.210568,2.14756,7.53889,0.128354,0.0518457,0.464168,0
2024-12-11 21:03:17.469,-0.141177,2.2002,7.50778,0.128354,0.0518457,0.464168,0
2024-12-11 21:03:17.471,-0.0598206,2.26481,7.4671,0.133241,0.0439046,0.457448,0
2024-12-11 21:03:17.473,0.00239282,2.3342,7.43121,0.132019,0.0371853,0.447675,0
2024-12-11 21:03:17.475,0.0622134,2.38923,7.40489,0.128965,0.0286335,0.437901,0
2024-12-11 21:03:17.478,0.129212,2.44427,7.38575,0.127133,0.0237467,0.424462,0
2024-12-11 21:03:17.480,0.184247,2.50648,7.3666,0.124689,0.0188599,0.410413,0
2024-12-11 21:03:17.483,0.248854,2.5666,7.34268,0.116748,0.0164165,0.395142,0
2024-12-11 21:03:17.485,0.318545,2.60728,7.3331,0.114916,0.0170274,0.378038,0
2024-12-11 21:03:17.488,0.368794,2.64796,7.31396,0.0990336,0.0170274,0.342609,0
2024-12-11 21:03:17.489,0.41665,2.69821,7.31396,0.0990336,0.0170274,0.342609,0
2024-12-11 21:03:17.492,0.459721,2.74606,7.32353,0.0929251,0.0206925,0.322451,0
2024-12-11 21:03:17.494,0.493221,2.78913,7.34028,0.085595,0.0261901,0.298628,0
2024-12-11 21:03:17.497,0.517149,2.81306,7.37378,0.0752106,0.030466,0.276637,0
2024-12-11 21:03:17.499,0.533899,2.84417,7.39771,0.0648262,0.0347419,0.254036,0
2024-12-11 21:03:17.501,0.548256,2.89442,7.436,0.0562743,0.0377962,0.229602,0
2024-12-11 21:03:17.505,0.574577,2.92313,7.46949,0.0471116,0.0408504,0.205168,0
2024-12-11 21:03:17.506,0.610469,2.93749,7.51257,0.0403923,0.0445155,0.181345,0
2024-12-11 21:03:17.508,0.598505,2.97577,7.55324,0.0275645,0.0439046,0.156301,0
2024-12-11 21:03:17.511,0.576969,2.99731,7.58226,0.0190126,0.042683,0.132477,0
2024-12-11 21:03:17.513,0.572184,3.02124,7.62772,0.00984991,0.0445155,0.108654,0
2024-12-11 21:03:17.516,0.548256,3.04517,7.69233,-0.000534491,0.0390179,0.0836097,0
2024-12-11 21:03:17.519,0.50997,3.05234,7.74258,-0.0170274,0.0365745,0.0439046,0
2024-12-11 21:03:17.520,0.45015,3.07149,7.79043,-0.0170274,0.0365745,0.0439046,0
2024-12-11 21:03:17.522,0.395115,3.08106,7.8694,-0.0249684,0.0329094,0.0237467,0
2024-12-11 21:03:17.525,0.352044,3.08345,7.94357,-0.0298552,0.0274118,0.00542127,0
2024-12-11 21:03:17.527,0.299402,3.08345,8.0345,-0.0359636,0.0194708,-0.0110716,0
2024-12-11 21:03:17.530,0.248854,3.08584,8.12782,-0.0396287,0.0121406,-0.0263428,0
2024-12-11 21:03:17.533,0.198604,3.09571,8.20948,-0.0445155,-0.0153475,-0.0519984,0
2024-12-11 21:03:17.534,0.143569,3.08584,8.31715,-0.0445155,-0.0153475,-0.0519984,0
2024-12-11 21:03:17.537,0.107677,3.09093,8.44397,-0.0451263,-0.0306187,-0.0623828,0
2024-12-11 21:03:17.539,0.081356,3.10529,8.5684,-0.0457372,-0.0458899,-0.073378,0
2024-12-11 21:03:17.541,0.0717847,3.11486,8.69522,-0.0420721,-0.0623828,-0.0831516,0
2024-12-11 21:03:17.545,0.0741775,3.12921,8.81994,-0.0390179,-0.0794865,-0.0898709,0
2024-12-11 21:03:17.547,0.0837488,3.134,8.96591,-0.0286335,-0.114916,-0.102088,0
2024-12-11 21:03:17.548,0.100499,3.12443,9.11426,-0.0286335,-0.114916,-0.102088,0
2024-12-11 21:03:17.552,0.11007,3.12682,9.2363,-0.0200816,-0.148512,-0.113694,0
2024-12-11 21:03:17.553,0.117248,3.15553,9.36341,-0.0200816,-0.148512,-0.113694,0
2024-12-11 21:03:17.555,0.129212,3.18664,9.48545,-0.0115297,-0.166838,-0.11797,0
2024-12-11 21:03:17.558,0.155533,3.20339,9.59552,-0.00664296,-0.185163,-0.1253,0
2024-12-11 21:03:17.560,0.177069,3.24168,9.70319,0.0019089,-0.205321,-0.130798,0
2024-12-11 21:03:17.563,0.174676,3.27518,9.80848,0.00618483,-0.227312,-0.137517,0
2024-12-11 21:03:17.566,0.167498,3.28475,9.91406,0.0153475,-0.273736,-0.150345,0
2024-12-11 21:03:17.567,0.167498,3.29671,9.99781,0.0153475,-0.273736,-0.150345,0
2024-12-11 21:03:17.570,0.167498,3.32782,10.0792,0.0171801,-0.296337,-0.157064,0
2024-12-11 21:03:17.572,0.174676,3.38046,10.1725,0.013515,-0.323825,-0.164394,0
2024-12-11 21:03:17.574,0.208176,3.41875,10.2706,0.0141258,-0.347648,-0.172335,0
2024-12-11 21:03:17.578,0.232104,3.44267,10.3783,0.0122933,-0.374526,-0.181498,0
2024-12-11 21:03:17.579,0.244068,3.4666,10.4767,0.00801737,-0.402014,-0.192493,0
2024-12-11 21:03:17.582,0.244068,3.50967,10.5676,-0.00603212,-0.452103,-0.216316,0
2024-12-11 21:03:17.585,0.239282,3.55274,10.6777,-0.00603212,-0.452103,-0.216316,0
2024-12-11 21:03:17.586,0.241675,3.59342,10.7973,-0.0151948,-0.477759,-0.225479,0
2024-12-11 21:03:17.588,0.244068,3.62214,10.917,-0.0237467,-0.502804,-0.238307,0
2024-12-11 21:03:17.591,0.258425,3.6341,11.0393,-0.0365745,-0.532735,-0.249913,0
2024-12-11 21:03:17.593,0.260818,3.65354,11.19,-0.0451263,-0.562056,-0.263962,0
2024-12-11 21:03:17.595,0.277567,3.66072,11.3312,-0.0610084,-0.59382,-0.27679,0
2024-12-11 21:03:17.598,0.320937,3.6679,11.4556,-0.0750579,-0.621919,-0.291451,0
2024-12-11 21:03:17.600,0.371187,3.66072,11.5947,-0.090329,-0.65185,-0.306722,0
2024-12-11 21:03:17.603,0.428614,3.64367,11.7383,-0.110487,-0.68056,-0.323215,0
2024-12-11 21:03:17.605,0.486042,3.62692,11.9058,-0.128202,-0.714157,-0.340318,0
2024-12-11 21:03:17.608,0.519542,3.61017,12.0784,-0.14836,-0.742256,-0.358644,0
2024-12-11 21:03:17.610,0.553041,3.59103,12.2626,-0.167296,-0.774631,-0.376969,0
2024-12-11 21:03:17.612,0.591326,3.55274,12.4373,-0.189286,-0.802119,-0.392851,0
2024-12-11 21:03:17.614,0.617647,3.52403,12.6239,-0.210055,-0.825942,-0.410566,0
2024-12-11 21:03:17.617,0.658325,3.50728,12.8468,-0.230213,-0.847322,-0.427669,0
2024-12-11 21:03:17.619,0.699003,3.48814,13.0837,-0.247317,-0.866258,-0.445384,0
2024-12-11 21:03:17.622,0.727717,3.44746,13.3208,-0.262588,-0.881529,-0.458823,0
2024-12-11 21:03:17.624,0.770788,3.40439,13.5625,-0.276027,-0.888248,-0.472261,0
2024-12-11 21:03:17.626,0.821037,3.36371,13.826,-0.286411,-0.890692,-0.4857,0
2024-12-11 21:03:17.629,0.864407,3.31825,14.0821,-0.294352,-0.879086,-0.494863,0
2024-12-11 21:03:17.631,0.914656,3.25603,14.3216,-0.298628,-0.86809,-0.508301,0
2024-12-11 21:03:17.634,0.97687,3.18186,14.5466,-0.299239,-0.811282,-0.52174,0
2024-12-11 21:03:17.635,1.02233,3.12204,14.7667,-0.299239,-0.811282,-0.52174,0
2024-12-11 21:03:17.638,1.05105,3.07388,14.98,-0.292519,-0.770355,-0.530292,0
2024-12-11 21:03:17.640,1.07498,3.04038,15.169,-0.285189,-0.728817,-0.537622,0
2024-12-11 21:03:17.644,1.07737,3.00449,15.3341,-0.262588,-0.624362,-0.54312,0
2024-12-11 21:03:17.645,1.06062,2.9662,15.4517,-0.262588,-0.624362,-0.54312,0
2024-12-11 21:03:17.648,1.01515,2.96142,15.5306,-0.248538,-0.560834,-0.544952,0
2024-12-11 21:03:17.650,0.945763,2.97099,15.5761,-0.232656,-0.489976,-0.54373,0
2024-12-11 21:03:17.652,0.871586,2.99252,15.5785,-0.215553,-0.414842,-0.538844,0
2024-12-11 21:03:17.655,0.768395,3.05474,15.5474,-0.18501,-0.245637,-0.522962,0
2024-12-11 21:03:17.658,0.658325,3.134,15.4636,-0.18501,-0.245637,-0.522962,0
2024-12-11 21:03:17.659,0.555434,3.21057,15.3102,-0.171572,-0.160729,-0.510134,0
2024-12-11 21:03:17.662,0.478864,3.2656,15.1211,-0.162409,-0.0807082,-0.495473,0
2024-12-11 21:03:17.665,0.442971,3.2991,14.9034,-0.167907,0.0475697,-0.470429,0
2024-12-11 21:03:17.667,0.442971,3.3326,14.6519,-0.167907,0.0475697,-0.470429,0
2024-12-11 21:03:17.668,0.483649,3.34696,14.4006,-0.178902,0.0921616,-0.460044,0
2024-12-11 21:03:17.671,0.550648,3.31346,14.1682,-0.201503,0.121482,-0.456379,0
2024-12-11 21:03:17.673,0.639183,3.27996,13.9481,-0.231435,0.139808,-0.457601,0
2024-12-11 21:03:17.676,0.754038,3.24885,13.7348,-0.26381,0.152635,-0.462488,0
2024-12-11 21:03:17.678,0.895514,3.22493,13.5625,-0.30718,0.156911,-0.474094,0
2024-12-11 21:03:17.680,1.0319,3.20339,13.462,-0.352383,0.149581,-0.489365,0
2024-12-11 21:03:17.684,1.14437,3.201,13.4142,-0.445231,0.120261,-0.535789,0
2024-12-11 21:03:17.685,1.23769,3.20578,13.4166,-0.445231,0.120261,-0.535789,0
2024-12-11 21:03:17.687,1.30708,3.19861,13.4812,-0.495932,0.0970484,-0.563888,0
2024-12-11 21:03:17.690,1.34776,3.19143,13.596,-0.541134,0.0756687,-0.595652,0
2024-12-11 21:03:17.693,1.40279,3.18425,13.7542,-0.61749,0.0274118,-0.663456,0
2024-12-11 21:03:17.695,1.44616,3.16511,13.9672,-0.61749,0.0274118,-0.663456,0
2024-12-11 21:03:17.697,1.47966,3.12682,14.228,-0.645589,0.00419957,-0.698275,0
2024-12-11 21:03:17.699,1.52752,3.08106,14.4963,-0.66086,-0.0141258,-0.734315,0
2024-12-11 21:03:17.701,1.56102,3.02602,14.7643,-0.673688,-0.0287862,-0.771576,0
2024-12-11 21:03:17.704,1.58255,2.94706,15.0254,-0.679797,-0.0348946,-0.808838,0
2024-12-11 21:03:17.706,1.58495,2.84895,15.2647,-0.671245,-0.0367272,-0.849154,0
2024-12-11 21:03:17.708,1.57298,2.73649,15.4947,-0.66025,-0.033673,-0.884583,0
2024-12-11 21:03:17.711,1.53948,2.6336,15.6957,-0.637037,-0.021456,-0.920623,0
2024-12-11 21:03:17.714,1.47009,2.53071,15.8632,-0.574731,0.010308,-0.981708,0
2024-12-11 21:03:17.717,1.38365,2.40359,16.0095,-0.533804,0.0274118,-1.0092,0
2024-12-11 21:03:17.718,1.28794,2.28395,16.1459,-0.533804,0.0274118,-1.0092,0
2024-12-11 21:03:17.720,1.15633,2.18584,16.2583,-0.491045,0.0481806,-1.03241,0
2024-12-11 21:03:17.723,1.02951,2.07577,16.3229,-0.439734,0.0713928,-1.05134,0
2024-12-11 21:03:17.725,0.897907,1.93908,16.3397,-0.382925,0.0933833,-1.06784,1
2024-12-11 21:03:17.727,0.742074,1.78834,16.3277,-0.326116,0.120871,-1.07578,0
2024-12-11 21:03:17.730,0.586541,1.64955,16.2942,-0.262588,0.149581,-1.08128,0
2024-12-11 21:03:17.732,0.409472,1.51795,16.2129,-0.194784,0.181956,-1.08555,0
2024-12-11 21:03:17.735,0.239282,1.38126,16.1028,-0.128202,0.214942,-1.08128,0
2024-12-11 21:03:17.737,0.0789631,1.26879,15.9613,-0.0591758,0.246706,-1.07578,0
2024-12-11 21:03:17.739,-0.081356,1.14197,15.7699,0.0153475,0.287022,-1.06356,0
2024-12-11 21:03:17.741,-0.227318,1.0343,15.5545,0.0874275,0.326116,-1.04585,0
2024-12-11 21:03:17.744,-0.380758,0.931406,15.3197,0.163783,0.370097,-1.02447,0
2024-12-11 21:03:17.746,-0.531506,0.809073,15.0685,0.234031,0.412246,-0.998201,0
2024-12-11 21:03:17.750,-0.665504,0.710967,14.8098,0.37758,0.504483,-0.934673,0
2024-12-11 21:03:17.751,-0.775574,0.627219,14.5274,0.37758,0.504483,-0.934673,0
2024-12-11 21:03:17.753,-0.878764,0.548256,14.2232,0.446606,0.547243,-0.8968,0
2024-12-11 21:03:17.757,-0.984048,0.469292,13.9026,0.515631,0.592445,-0.85343,0
2024-12-11 21:03:17.758,-1.08455,0.421436,13.5625,0.582825,0.635205,-0.808227,0
2024-12-11 21:03:17.760,-1.17308,0.395115,13.2251,0.643299,0.681018,-0.758749,0
2024-12-11 21:03:17.764,-1.24726,0.364008,12.8874,0.75997,0.76165,-0.654294,0
2024-12-11 21:03:17.766,-1.30708,0.337687,12.545,0.814947,0.793414,-0.598707,0
2024-12-11 21:03:17.768,-1.33579,0.320937,12.1693,0.814947,0.793414,-0.598707,0
2024-12-11 21:03:17.770,-1.33819,0.304188,11.7814,0.863814,0.823422,-0.545563,0
2024-12-11 21:03:17.773,-1.33579,0.275175,11.4197,0.9475,0.856408,-0.438665,0
2024-12-11 21:03:17.775,-1.30708,0.251246,11.0489,0.9475,0.856408,-0.438665,0
2024-12-11 21:03:17.778,-1.28554,0.253639,10.6561,1.00797,0.859462,-0.339707,0
2024-12-11 21:03:17.779,-1.27119,0.272782,10.2921,1.00797,0.859462,-0.339707,0
2024-12-11 21:03:17.783,-1.2329,0.285045,9.95235,1.0489,0.826476,-0.255411,0
2024-12-11 21:03:17.784,-1.17547,0.301795,9.61705,1.0489,0.826476,-0.255411,0
2024-12-11 21:03:17.787,-1.0989,0.34008,9.31316,1.06784,0.758596,-0.180887,0
2024-12-11 21:03:17.789,-1.01755,0.373579,9.01616,1.06784,0.758596,-0.180887,0
2024-12-11 21:03:17.791,-0.929013,0.404686,8.75055,1.06845,0.711561,-0.150345,0
2024-12-11 21:03:17.794,-0.830609,0.442971,8.52054,1.06784,0.659028,-0.125911,0
2024-12-11 21:03:17.796,-0.727717,0.498006,8.29801,1.06173,0.601608,-0.102699,0
2024-12-11 21:03:17.798,-0.632004,0.555434,8.09671,1.05012,0.536858,-0.085595,0
2024-12-11 21:03:17.800,-0.548256,0.600898,7.934,1.04035,0.468443,-0.073378,0
2024-12-11 21:03:17.803,-0.442971,0.675075,7.8,1.02813,0.396364,-0.0617719,0
2024-12-11 21:03:17.805,-0.359223,0.749253,7.68276,1.01103,0.323062,-0.057496,0
2024-12-11 21:03:17.808,-0.270389,0.809073,7.57747,0.991481,0.247928,-0.0550526,0
2024-12-11 21:03:17.810,-0.167498,0.881157,7.50539,0.975599,0.172793,-0.0550526,0
2024-12-11 21:03:17.812,-0.0837488,0.945763,7.46949,0.956052,0.0964375,-0.0581068,0
2024-12-11 21:03:17.814,0.00478565,1.00798,7.45275,0.934062,0.0237467,-0.0648262,0
2024-12-11 21:03:17.817,0.0957129,1.07019,7.44557,0.916958,-0.0489441,-0.073378,0
2024-12-11 21:03:17.819,0.18664,1.11326,7.46232,0.900465,-0.119802,-0.0843733,0
2024-12-11 21:03:17.822,0.275175,1.15155,7.48385,0.885194,-0.189439,-0.0984228,0
2024-12-11 21:03:17.825,0.364008,1.18265,7.49582,0.850987,-0.322604,-0.13263,0
2024-12-11 21:03:17.827,0.462114,1.1994,7.5341,0.836937,-0.383078,-0.149734,0
2024-12-11 21:03:17.830,0.555434,1.1994,7.57747,0.822888,-0.439886,-0.171724,0
2024-12-11 21:03:17.832,0.63679,1.18505,7.61815,0.808838,-0.493641,-0.194326,0
2024-12-11 21:03:17.833,0.722932,1.1659,7.65643,0.808838,-0.493641,-0.194326,0
2024-12-11 21:03:17.838,0.8668,1.13719,7.71386,0.78868,-0.584657,-0.239528,0
2024-12-11 21:03:17.838,0.8668,1.13719,7.71386,0.78868,-0.584657,-0.239528,0
2024-12-11 21:03:17.840,0.929013,1.10608,7.7354,0.77402,-0.619475,-0.263962,0
2024-12-11 21:03:17.843,0.972084,1.07019,7.75215,0.764857,-0.649407,-0.288396,0
2024-12-11 21:03:17.846,0.99362,1.0319,7.7689,0.742867,-0.69461,-0.330545,0
2024-12-11 21:03:17.847,1.00798,0.99362,7.77129,0.742867,-0.69461,-0.330545,0
2024-12-11 21:03:17.850,1.01994,0.964906,7.76411,0.733093,-0.706827,-0.351314,0
2024-12-11 21:03:17.852,1.01276,0.948156,7.76172,0.719044,-0.715379,-0.372082,0
2024-12-11 21:03:17.856,1.00319,0.938585,7.7665,0.698275,-0.715989,-0.402625,0
2024-12-11 21:03:17.857,0.974477,0.936192,7.74736,0.698275,-0.715989,-0.402625,0
2024-12-11 21:03:17.860,0.929013,0.940978,7.71386,0.685447,-0.703772,-0.416674,0
2024-12-11 21:03:17.862,0.88355,0.948156,7.68276,0.674452,-0.692166,-0.425837,0
2024-12-11 21:03:17.866,0.813859,0.969691,7.65883,0.653072,-0.64452,-0.443551,0
2024-12-11 21:03:17.867,0.756431,0.979263,7.62533,0.653072,-0.64452,-0.443551,0
2024-12-11 21:03:17.869,0.703789,0.981655,7.57478,0.640244,-0.6152,-0.446606,0
2024-12-11 21:03:17.871,0.634397,1.00319,7.5341,0.631082,-0.578549,-0.450271,0
2024-12-11 21:03:17.876,0.517149,1.03908,7.4001,0.607259,-0.495473,-0.452103,0
2024-12-11 21:03:17.876,0.517149,1.03908,7.4001,0.607259,-0.495473,-0.452103,0
2024-12-11 21:03:17.878,0.454935,1.06062,7.31396,0.59382,-0.453936,-0.448438,0
2024-12-11 21:03:17.880,0.385544,1.07976,7.24218,0.583435,-0.408733,-0.447217,0
2024-12-11 21:03:17.883,0.320937,1.08694,7.15604,0.570608,-0.362309,-0.441108,0
2024-12-11 21:03:17.885,0.270389,1.09173,7.05793,0.553504,-0.316495,-0.436221,0
2024-12-11 21:03:17.888,0.232104,1.11087,6.95952,0.537622,-0.267627,-0.430113,0
2024-12-11 21:03:17.891,0.181855,1.15394,6.86142,0.521129,-0.220592,-0.424615,0
2024-12-11 21:03:17.892,0.136391,1.2018,6.74656,0.503415,-0.174779,-0.417896,0
2024-12-11 21:03:17.895,0.0909273,1.24008,6.63171,0.485089,-0.123468,-0.412398,0
2024-12-11 21:03:17.897,0.0478565,1.28076,6.54317,0.485089,-0.123468,-0.412398,0
2024-12-11 21:03:17.900,0.00478565,1.32861,6.46182,0.448438,-0.033673,-0.397738,0
2024-12-11 21:03:17.902,-0.0382852,1.37647,6.38734,0.430113,0.0109189,-0.391629,0
2024-12-11 21:03:17.904,-0.0693919,1.42463,6.32513,0.410566,0.0500131,-0.38491,0
2024-12-11 21:03:17.907,-0.0981057,1.46052,6.26531,0.39224,0.0884965,-0.378191,0
2024-12-11 21:03:17.909,-0.119641,1.49402,6.20549,0.376358,0.122704,-0.371471,0
2024-12-11 21:03:17.911,-0.131605,1.54188,6.15524,0.358644,0.153246,-0.366585,0
2024-12-11 21:03:17.913,-0.133998,1.57298,6.12652,0.342151,0.180734,-0.361698,0
2024-12-11 21:03:17.916,-0.133998,1.59212,6.08824,0.32688,0.207001,-0.357422,0
2024-12-11 21:03:17.919,-0.133998,1.62562,6.05474,0.304278,0.244873,-0.349481,0
2024-12-11 21:03:17.921,-0.117248,1.66152,6.03799,0.304278,0.244873,-0.349481,0
2024-12-11 21:03:17.923,-0.105284,1.68544,6.02124,0.293283,0.258923,-0.34887,0
2024-12-11 21:03:17.925,-0.0957129,1.72134,6.02124,0.284731,0.269918,-0.346427,0
2024-12-11 21:03:17.928,-0.0717847,1.74527,6.0332,0.280455,0.276027,-0.345205,0
2024-12-11 21:03:17.931,-0.0717847,1.75962,6.04277,0.271293,0.285189,-0.342151,0
2024-12-11 21:03:17.932,-0.081356,1.79073,6.04277,0.271293,0.285189,-0.342151,0
2024-12-11 21:03:17.936,-0.0741775,1.80269,6.04517,0.271903,0.2858,-0.340318,0
2024-12-11 21:03:17.940,-0.0646062,1.85055,6.08106,0.274958,0.276027,-0.340318,0
2024-12-11 21:03:17.940,-0.0646062,1.85055,6.08106,0.274958,0.276027,-0.340318,0
2024-12-11 21:03:17.942,-0.0693919,1.85533,6.07867,0.278623,0.268696,-0.338486,0
2024-12-11 21:03:17.945,-0.0574277,1.8673,6.07627,0.289007,0.244873,-0.336653,0
2024-12-11 21:03:17.946,-0.0454636,1.88644,6.08824,0.289007,0.244873,-0.336653,0
2024-12-11 21:03:17.949,-0.0334995,1.88644,6.09542,0.289007,0.244873,-0.336653,0
2024-12-11 21:03:17.951,-0.0287139,1.88644,6.09781,0.307943,0.213109,-0.339707,0
2024-12-11 21:03:17.954,-0.0215354,1.88644,6.10499,0.314052,0.193562,-0.338486,0
2024-12-11 21:03:17.956,-0.0143569,1.89123,6.11695,0.324436,0.173404,-0.340318,0
2024-12-11 21:03:17.958,-0.0215354,1.91276,6.11695,0.337264,0.153857,-0.340929,0
2024-12-11 21:03:17.961,-0.0454636,1.92951,6.09542,0.347038,0.130645,-0.340929,0
2024-12-11 21:03:17.964,-0.0550349,1.92951,6.08824,0.369028,0.0915507,-0.342151,0
2024-12-11 21:03:17.965,-0.0741775,1.94865,6.07627,0.369028,0.0915507,-0.342151,0
2024-12-11 21:03:17.968,-0.0909273,1.95823,6.04995,0.383078,0.0738362,-0.34154,0
2024-12-11 21:03:17.971,-0.11007,1.9657,6.02842,0.394684,0.0567324,-0.34154,0
2024-12-11 21:03:17.973,-0.133998,1.99202,6.00449,0.415452,0.022525,-0.340929,0
2024-12-11 21:03:17.975,-0.153141,1.9992,5.97099,0.415452,0.022525,-0.340929,0
2024-12-11 21:03:17.978,-0.181855,2.01117,5.93749,0.427059,0.00847551,-0.342151,0
2024-12-11 21:03:17.979,-0.200997,2.02792,5.9016,0.435,-0.00557398,-0.340318,0
2024-12-11 21:03:17.983,-0.208176,2.04467,5.86301,0.438054,-0.0202343,-0.338486,0
2024-12-11 21:03:17.984,-0.227318,2.04945,5.8343,0.445995,-0.0342838,-0.340929,0
2024-12-11 21:03:17.989,-0.297009,2.08056,5.7673,0.451492,-0.0599394,-0.337264,0
2024-12-11 21:03:17.990,-0.297009,2.08056,5.7673,0.451492,-0.0697129,-0.335431,0
2024-12-11 21:03:17.991,-0.330509,2.13081,5.74577,0.451492,-0.0697129,-0.335431,0
2024-12-11 21:03:17.993,-0.337687,2.16909,5.72184,0.450882,-0.0800973,-0.33421,0
2024-12-11 21:03:17.996,-0.342473,2.20499,5.71944,0.44966,-0.0886492,-0.331766,0
2024-12-11 21:03:17.999,-0.371187,2.23131,5.72662,0.441108,-0.10331,-0.329323,0
2024-12-11 21:03:18.002,-0.3999,2.27199,5.72662,0.438665,-0.105142,-0.328712,0
2024-12-11 21:03:18.003,-0.428614,2.32463,5.72423,0.438665,-0.105142,-0.328712,0
2024-12-11 21:03:18.005,-0.4669,2.35334,5.73859,0.431945,-0.10392,-0.325047,0
2024-12-11 21:03:18.008,-0.505185,2.38923,5.75773,0.426448,-0.101477,-0.322604,0
2024-12-11 21:03:18.010,-0.541077,2.43709,5.77448,0.417896,-0.0978119,-0.318939,0
2024-12-11 21:03:18.012,-0.574577,2.48016,5.77687,0.411787,-0.0923143,-0.314663,0
2024-12-11 21:03:18.016,-0.586541,2.51127,5.77209,0.394684,-0.081319,-0.309776,0
2024-12-11 21:03:18.017,-0.612862,2.55464,5.76969,0.394684,-0.081319,-0.309776,0
2024-12-11 21:03:18.023,-0.682254,2.63599,5.75294,0.350092,-0.0764323,-0.297559,0
2024-12-11 21:03:18.023,-0.682254,2.63599,5.75294,0.350092,-0.0764323,-0.297559,0
2024-12-11 21:03:18.024,-0.739681,2.69821,5.76252,0.350092,-0.0764323,-0.297559,0
2024-12-11 21:03:18.026,-0.792323,2.76042,5.77448,0.332988,-0.0788757,-0.292672,0
2024-12-11 21:03:18.029,-0.85005,2.82503,5.79123,0.308554,-0.085595,-0.288396,0
2024-12-11 21:03:18.032,-0.917049,2.90638,5.82951,0.287175,-0.0880384,-0.280455,0
2024-12-11 21:03:18.034,-0.97687,2.97817,5.87737,0.26213,-0.093536,-0.274958,0
2024-12-11 21:03:18.038,-1.08933,3.11964,6.04517,0.20471,-0.105753,-0.260297,0
2024-12-11 21:03:18.039,-1.08933,3.11964,6.04517,0.20471,-0.105753,-0.260297,0
2024-12-11 21:03:18.041,-1.17547,3.201,6.1337,0.176611,-0.111251,-0.252356,0
2024-12-11 21:03:18.045,-1.39801,3.38764,6.31556,0.114916,-0.115526,-0.231587,0
2024-12-11 21:03:18.045,-1.39801,3.38764,6.31556,0.114916,-0.115526,-0.231587,0
2024-12-11 21:03:18.048,-1.51555,3.46182,6.43041,0.085595,-0.111861,-0.217538,0
2024-12-11 21:03:18.050,-1.61366,3.55035,6.57189,0.0587177,-0.112472,-0.200434,0
2024-12-11 21:03:18.052,-1.67348,3.62931,6.72742,0.033673,-0.110029,-0.183331,0
2024-12-11 21:03:18.055,-1.70459,3.7014,6.8686,0.00923906,-0.111861,-0.165616,0
2024-12-11 21:03:18.059,-1.71894,3.82822,7.2015,-0.0359636,-0.117359,-0.130798,0
2024-12-11 21:03:18.059,-1.69023,3.82822,7.2015,-0.0359636,-0.117359,-0.130798,0
2024-12-11 21:03:18.064,-1.56341,3.92154,7.54367,-0.0762796,-0.127133,-0.105142,0
2024-12-11 21:03:18.064,-1.56341,3.92154,7.54367,-0.0762796,-0.127133,-0.105142,0
2024-12-11 21:03:18.067,-1.50598,3.97657,7.71147,-0.0933833,-0.128354,-0.0947577,0
2024-12-11 21:03:18.070,-1.44616,4.02921,7.87179,-0.125758,-0.127743,-0.0788757,0
2024-12-11 21:03:18.074,-1.34776,4.11775,8.17119,-0.142251,-0.123468,-0.0739889,0
2024-12-11 21:03:18.074,-1.34776,4.11775,8.17119,-0.142251,-0.123468,-0.0739889,0
2024-12-11 21:03:18.076,-1.30947,4.168,8.33151,-0.152635,-0.116748,-0.0691021,0
2024-12-11 21:03:18.079,-1.27837,4.21137,8.47269,-0.174626,-0.110029,-0.065437,0
2024-12-11 21:03:18.082,-1.24008,4.24008,8.60429,-0.188065,-0.111861,-0.065437,0
2024-12-11 21:03:18.083,-1.20419,4.25444,8.7338,-0.188065,-0.111861,-0.065437,0
2024-12-11 21:03:18.088,-1.13958,4.29751,8.95873,-0.210666,-0.124078,-0.0672696,0
2024-12-11 21:03:18.088,-1.13958,4.29751,8.95873,-0.210666,-0.124078,-0.0672696,0
2024-12-11 21:03:18.090,-1.11565,4.31665,9.05923,-0.22777,-0.13935,-0.0697129,0
2024-12-11 21:03:18.092,-1.11087,4.32383,9.15015,-0.244873,-0.157675,-0.0745997,0
2024-12-11 21:03:18.095,-1.11565,4.34058,9.25544,-0.261977,-0.182109,-0.0800973,0
2024-12-11 21:03:18.097,-1.10369,4.34058,9.37059,-0.281524,-0.209597,-0.085595,0
2024-12-11 21:03:18.102,-1.10608,4.34537,9.62423,-0.319397,-0.272514,-0.0965902,0
2024-12-11 21:03:18.102,-1.10608,4.34537,9.62423,-0.319397,-0.272514,-0.0965902,0
2024-12-11 21:03:18.105,-1.10848,4.33101,9.78455,-0.366432,-0.340318,-0.108807,0
2024-12-11 21:03:18.108,-1.09412,4.3334,9.97388,-0.366432,-0.340318,-0.108807,0
2024-12-11 21:03:18.111,-1.04148,4.34537,10.3977,-0.409802,-0.407511,-0.118581,0
2024-12-11 21:03:18.111,-1.04148,4.34537,10.3977,-0.409802,-0.407511,-0.118581,0
2024-12-11 21:03:18.114,-1.01994,4.34058,10.6011,-0.430571,-0.435,-0.124689,0
2024-12-11 21:03:18.116,-1.01276,4.32862,10.8284,-0.450118,-0.459433,-0.129576,0
2024-12-11 21:03:18.119,-0.986441,4.32622,11.0584,-0.466611,-0.480202,-0.134463,0
2024-12-11 21:03:18.121,-0.964906,4.30469,11.281,-0.483104,-0.497917,-0.13996,0
2024-12-11 21:03:18.123,-0.936192,4.26401,11.5011,-0.500818,-0.510134,-0.14668,0
2024-12-11 21:03:18.125,-0.921835,4.23769,11.7311,-0.515479,-0.516853,-0.153399,0
2024-12-11 21:03:18.128,-0.912264,4.21137,11.9848,-0.525252,-0.518075,-0.161951,0
2024-12-11 21:03:18.130,-0.917049,4.1991,12.2172,-0.53808,-0.515021,-0.166838,0
2024-12-11 21:03:18.132,-0.94337,4.18475,12.4301,-0.549075,-0.50708,-0.172335,0
2024-12-11 21:03:18.135,-0.986441,4.17278,12.6673,-0.553351,-0.497306,-0.177833,0
2024-12-11 21:03:18.138,-1.03669,4.17039,12.8922,-0.561292,-0.46432,-0.183941,0
2024-12-11 21:03:18.141,-1.08215,4.16321,13.0765,-0.561903,-0.439886,-0.185163,0
2024-12-11 21:03:18.142,-1.1348,4.16321,13.2658,-0.561903,-0.439886,-0.185163,0
2024-12-11 21:03:18.144,-1.20419,4.17518,13.462,-0.560681,-0.413009,-0.183331,0
2024-12-11 21:03:18.149,-1.31665,4.17278,13.7782,-0.55213,-0.337264,-0.177222,0
2024-12-11 21:03:18.151,-1.37886,4.168,13.9337,-0.547243,-0.293283,-0.171724,0
2024-12-11 21:03:18.152,-1.37886,4.168,13.9337,-0.547243,-0.293283,-0.171724,0
2024-12-11 21:03:18.154,-1.42941,4.16082,14.0797,-0.542356,-0.246248,-0.161951,0
2024-12-11 21:03:18.156,-1.47009,4.14407,14.1969,-0.533804,-0.194326,-0.150956,0
2024-12-11 21:03:18.158,-1.5012,4.12493,14.3145,-0.524641,-0.135074,-0.138739,0
2024-12-11 21:03:18.161,-1.5323,4.09143,14.4102,-0.514257,-0.0745997,-0.122857,0
2024-12-11 21:03:18.163,-1.54905,4.06989,14.4891,-0.503262,-0.00679568,-0.109418,0
2024-12-11 21:03:18.165,-1.57777,4.04596,14.549,-0.491656,0.0634518,-0.0898709,0
2024-12-11 21:03:18.168,-1.6017,4.01486,14.5825,-0.481271,0.137975,-0.0709346,0
2024-12-11 21:03:18.171,-1.62802,3.99093,14.5992,-0.467833,0.216774,-0.0501658,0
2024-12-11 21:03:18.173,-1.65673,3.97657,14.5872,-0.456837,0.298628,-0.0263428,0
2024-12-11 21:03:18.176,-1.67109,3.98614,14.5466,-0.435458,0.469054,0.0261901,0
2024-12-11 21:03:18.177,-1.71894,4.01246,14.4652,-0.435458,0.469054,0.0261901,0
2024-12-11 21:03:18.182,-1.87687,4.07946,14.2161,-0.421408,0.638259,0.0872748,0
2024-12-11 21:03:18.182,-1.87687,4.07946,14.2161,-0.421408,0.638259,0.0872748,0
2024-12-11 21:03:18.184,-1.99681,4.17278,14.0414,-0.417743,0.716447,0.11965,0
2024-12-11 21:03:18.187,-2.08295,4.28076,13.8571,-0.417132,0.786084,0.156301,0
2024-12-11 21:03:18.189,-2.13559,4.38604,13.6941,-0.423241,0.844191,0.194173,0
2024-12-11 21:03:18.191,-2.14277,4.47219,13.5314,-0.431793,0.889394,0.22777,0
2024-12-11 21:03:18.194,-2.09731,4.54876,13.3352,-0.448896,0.917493,0.261977,0
2024-12-11 21:03:18.196,-1.98245,4.59661,13.1507,-0.47333,0.929099,0.292519,0
2024-12-11 21:03:18.198,-1.81466,4.62054,13.019,-0.503873,0.924212,0.317564,0
2024-12-11 21:03:18.201,-1.59212,4.64925,12.9401,-0.539302,0.899167,0.334668,0
2024-12-11 21:03:18.203,-1.34297,4.64686,12.9233,-0.58145,0.850299,0.344442,0
2024-12-11 21:03:18.205,-1.09412,4.63968,12.9808,-0.626653,0.78303,0.346274,0
2024-12-11 21:03:18.210,-0.617647,4.63729,13.2945,-0.723167,0.593056,0.330392,0
2024-12-11 21:03:18.211,-0.617647,4.63729,13.2945,-0.723167,0.593056,0.330392,0
2024-12-11 21:03:18.213,-0.387936,4.62293,13.5625,-0.767148,0.47333,0.310845,0
2024-12-11 21:03:18.215,-0.145962,4.5679,13.9098,-0.805631,0.338333,0.285189,0
2024-12-11 21:03:18.217,0.105284,4.49133,14.307,-0.838617,0.195395,0.252814,0
2024-12-11 21:03:18.221,0.34008,4.40758,14.7739,-0.861829,0.0481806,0.215553,0
2024-12-11 21:03:18.222,0.553041,4.29033,15.3054,-0.874046,-0.0947577,0.175237,0
2024-12-11 21:03:18.224,0.749253,4.15125,15.8656,-0.873435,-0.232198,0.131867,0
2024-12-11 21:03:18.229,1.04626,3.85693,16.9071,-0.830065,-0.467375,0.0457372,0
2024-12-11 21:03:18.229,1.04626,3.85693,16.9071,-0.830065,-0.467375,0.0457372,0
2024-12-11 21:03:18.231,1.12762,3.74447,17.4218,-0.830065,-0.467375,0.0457372,0
2024-12-11 21:03:18.234,1.19462,3.60778,17.9127,-0.734773,-0.653072,-0.0379489,0
2024-12-11 21:03:18.237,1.28076,3.3996,18.3532,-0.591835,-0.802119,-0.120413,0
2024-12-11 21:03:18.239,1.36451,3.16271,18.7385,-0.591835,-0.802119,-0.120413,0
2024-12-11 21:03:18.241,1.41745,2.94227,19.0523,-0.506927,-0.856484,-0.158897,0
2024-12-11 21:03:18.243,1.4677,2.70539,19.2844,-0.412856,-0.893746,-0.197991,0
2024-12-11 21:03:18.248,1.52034,2.22652,19.5263,-0.204557,-0.923677,-0.272514,1
2024-12-11 21:03:18.248,1.52034,2.22652,19.5263,-0.204557,-0.923677,-0.272514,1
2024-12-11 21:03:18.250,1.48205,2.0016,19.5072,-0.0958267,-0.916347,-0.302446,0
2024-12-11 21:03:18.254,1.41027,1.76201,19.4163,0.0147367,-0.896189,-0.330545,0
2024-12-11 21:03:18.255,1.29272,1.52273,19.2269,0.127743,-0.859538,-0.351314,0
2024-12-11 21:03:18.258,1.11565,1.30469,18.9302,0.235253,-0.814947,-0.366585,0
2024-12-11 21:03:18.260,0.881157,1.11087,18.5638,0.343373,-0.762414,-0.374526,0
2024-12-11 21:03:18.262,0.608076,0.917049,18.1496,0.445995,-0.702551,-0.375137,0
2024-12-11 21:03:18.264,0.316152,0.737288,17.6758,0.539454,-0.63719,-0.362309,0
2024-12-11 21:03:18.267,0.0358923,0.612862,17.1634,0.627416,-0.566332,-0.342762,0
2024-12-11 21:03:18.271,-0.471685,0.438186,16.1554,0.706827,-0.490587,-0.312219,0
2024-12-11 21:03:18.274,-0.732503,0.390329,15.612,0.8461,-0.329934,-0.224868,0
2024-12-11 21:03:18.274,-0.732503,0.390329,15.612,0.8461,-0.329934,-0.224868,0
2024-12-11 21:03:18.276,-1.00319,0.371187,15.0374,0.90413,-0.24075,-0.170503,0
2024-12-11 21:03:18.279,-1.24487,0.368794,14.4556,0.955441,-0.143625,-0.105753,0
2024-12-11 21:03:18.281,-1.45813,0.352044,13.8882,0.99759,-0.041614,-0.0342838,0
2024-12-11 21:03:18.283,-1.64477,0.330509,13.3208,1.03241,0.0628409,0.0396287,0
2024-12-11 21:03:18.287,-1.77159,0.313759,12.7678,1.088,0.267475,0.194173,0
2024-12-11 21:03:18.289,-1.84098,0.304188,12.253,1.10266,0.363989,0.270529,0
2024-12-11 21:03:18.290,-1.86251,0.297009,11.7239,1.10266,0.363989,0.270529,0
2024-12-11 21:03:18.295,-1.83619,0.27996,10.6944,1.11732,0.53808,0.417743,0
2024-12-11 21:03:18.295,-1.83619,0.27996,10.6944,1.11732,0.53808,0.417743,0
2024-12-11 21:03:18.297,-1.8003,0.287438,10.1701,1.11487,0.615658,0.483715,0
2024-12-11 21:03:18.300,-1.74048,0.320937,9.67448,1.10571,0.687127,0.541745,0
2024-12-11 21:03:18.303,-1.68066,0.373579,9.19083,1.0715,0.810594,0.648643,0
2024-12-11 21:03:18.305,-1.61845,0.442971,8.73141,1.0715,0.810594,0.648643,0
2024-12-11 21:03:18.309,-1.45334,0.62004,7.85504,1.01164,0.915049,0.732329,0
2024-12-11 21:03:18.309,-1.45334,0.62004,7.85504,1.01164,0.915049,0.732329,0
2024-12-11 21:03:18.312,-1.38365,0.727717,7.47667,0.976821,0.956587,0.767224,0
2024-12-11 21:03:18.314,-1.28794,0.85005,7.12014,0.934673,0.988962,0.794712,0
2024-12-11 21:03:18.317,-1.18983,0.96012,6.79681,0.885805,1.01217,0.819757,0
2024-12-11 21:03:18.319,-1.10848,1.05583,6.49053,0.834494,1.02745,0.838082,0
2024-12-11 21:03:18.323,-0.902692,1.2664,5.95185,0.728206,1.02806,0.855797,0
2024-12-11 21:03:18.323,-0.902692,1.2664,5.95185,0.728206,1.02806,0.855797,0
2024-12-11 21:03:18.326,-0.801895,1.36929,5.73619,0.670176,1.01401,0.859462,0
2024-12-11 21:03:18.328,-0.718146,1.45095,5.56391,0.610313,0.990794,0.854575,0
2024-12-11 21:03:18.330,-0.651147,1.52752,5.43709,0.549839,0.958419,0.846023,0
2024-12-11 21:03:18.333,-0.588933,1.6017,5.34138,0.491198,0.913827,0.835028,0
2024-12-11 21:03:18.335,-0.50997,1.67109,5.27647,0.432556,0.861905,0.818535,0
2024-12-11 21:03:18.338,-0.41665,1.73091,5.25972,0.376358,0.798912,0.797767,0
2024-12-11 21:03:18.342,-0.287438,1.80748,5.30997,0.272514,0.65353,0.74951,0
2024-12-11 21:03:18.343,-0.287438,1.80748,5.30997,0.22609,0.576563,0.721334,0
2024-12-11 21:03:18.347,-0.167498,1.82901,5.46102,0.183331,0.49471,0.68957,0
2024-12-11 21:03:18.348,-0.167498,1.82901,5.46102,0.144236,0.410413,0.656584,0
2024-12-11 21:03:18.349,-0.0981057,1.83619,5.56391,0.144236,0.410413,0.656584,0
2024-12-11 21:03:18.352,-0.0287139,1.83141,5.68116,0.11064,0.326116,0.621766,0
2024-12-11 21:03:18.355,0.0334995,1.80269,5.81276,0.0794865,0.239987,0.585726,0
2024-12-11 21:03:18.356,0.0861416,1.74766,5.96381,0.0544418,0.15569,0.551519,0
2024-12-11 21:03:18.360,0.12682,1.69262,6.10499,0.0177909,-0.00862822,0.48066,0
2024-12-11 21:03:18.362,0.145962,1.64237,6.23899,0.0177909,-0.00862822,0.48066,0
2024-12-11 21:03:18.363,0.141177,1.58495,6.3993,0.00129805,-0.0874275,0.44462,0
2024-12-11 21:03:18.366,0.131605,1.50838,6.55753,-0.00786466,-0.163173,0.412856,0
2024-12-11 21:03:18.370,0.0837488,1.37169,6.84706,-0.0133623,-0.300002,0.357269,0
2024-12-11 21:03:18.370,0.0837488,1.37169,6.84706,-0.0133623,-0.300002,0.357269,0
2024-12-11 21:03:18.375,-0.0143569,1.24247,7.10579,-0.0121406,-0.417285,0.312677,0
2024-12-11 21:03:18.375,-0.0143569,1.24247,7.10579,-0.0121406,-0.417285,0.312677,0
2024-12-11 21:03:18.377,-0.0574277,1.2018,7.20628,-0.00908635,-0.47165,0.294352,0
2024-12-11 21:03:18.380,-0.112463,1.15155,7.30678,-0.00297788,-0.518075,0.279081,0
2024-12-11 21:03:18.382,-0.160319,1.10848,7.41685,0.00496313,-0.560834,0.266864,0
2024-12-11 21:03:18.385,-0.227318,1.0654,7.5006,0.0122933,-0.601761,0.25709,0
2024-12-11 21:03:18.389,-0.304188,0.967299,7.62533,0.0318404,-0.668954,0.240597,0
2024-12-11 21:03:18.389,-0.354437,0.967299,7.62533,0.0318404,-0.668954,0.240597,0
2024-12-11 21:03:18.392,-0.3999,0.924228,7.67079,0.0318404,-0.668954,0.240597,0
2024-12-11 21:03:18.395,-0.440578,0.88355,7.70908,0.0623828,-0.726985,0.22777,0
2024-12-11 21:03:18.396,-0.457328,0.859622,7.733,0.0623828,-0.726985,0.22777,0
2024-12-11 21:03:18.400,-0.486042,0.837787,7.733,0.0715455,-0.734315,0.225937,0
2024-12-11 21:03:18.403,-0.572184,0.804287,7.68276,0.0837624,-0.736147,0.225937,0
2024-12-11 21:03:18.403,-0.572184,0.804287,7.68276,0.0837624,-0.736147,0.225937,0
2024-12-11 21:03:18.408,-0.699003,0.797109,7.62772,0.0880384,-0.719654,0.231435,0
2024-12-11 21:03:18.408,-0.699003,0.797109,7.62772,0.0880384,-0.719654,0.231435,0
2024-12-11 21:03:18.410,-0.73011,0.811466,7.59661,0.0892601,-0.702551,0.237543,0
2024-12-11 21:03:18.413,-0.777966,0.835394,7.56042,0.0886492,-0.683614,0.240597,0
2024-12-11 21:03:18.415,-0.84018,0.85005,7.51257,0.0886492,-0.683614,0.240597,0
2024-12-11 21:03:18.417,-0.876371,0.85005,7.48864,0.0770431,-0.632303,0.259534,0
2024-12-11 21:03:18.420,-0.929013,0.869193,7.45992,0.0703238,-0.598707,0.266864,0
2024-12-11 21:03:18.422,-0.974477,0.893121,7.41446,0.0581068,-0.563888,0.277859,0
2024-12-11 21:03:18.425,-1.0008,0.9003,7.38814,0.0465007,-0.524794,0.288244,0
2024-12-11 21:03:18.427,-1.02233,0.907478,7.37139,0.0385597,-0.484478,0.301682,0
2024-12-11 21:03:18.430,-1.04387,0.926621,7.34985,0.0129041,-0.398349,0.323673,0
2024-12-11 21:03:18.432,-1.07498,0.96012,7.3331,0.0129041,-0.398349,0.323673,0
2024-12-11 21:03:18.434,-1.08215,0.981655,7.31396,0.0129041,-0.398349,0.323673,0
2024-12-11 21:03:18.437,-1.08215,1.00319,7.302,-0.0164165,-0.304278,0.347496,0
2024-12-11 21:03:18.439,-1.0654,1.0343,7.27568,-0.0329094,-0.256632,0.359102,0
2024-12-11 21:03:18.442,-1.02473,1.0678,7.23739,-0.0671168,-0.157675,0.376206,0
2024-12-11 21:03:18.443,-0.972084,1.09173,7.21586,-0.0671168,-0.157675,0.376206,0
2024-12-11 21:03:18.446,-0.931406,1.1013,7.18475,-0.0848314,-0.108196,0.385368,0
2024-12-11 21:03:18.448,-0.905085,1.12762,7.14886,-0.103768,-0.057496,0.390866,0
2024-12-11 21:03:18.450,-0.8668,1.16351,7.1345,-0.124536,-0.00862822,0.395753,0
2024-12-11 21:03:18.453,-0.84018,1.19222,7.11296,-0.14164,0.0420721,0.399418,0
2024-12-11 21:03:18.455,-0.833001,1.21376,7.08186,-0.162409,0.0891073,0.403083,0
2024-12-11 21:03:18.458,-0.821037,1.24487,7.08186,-0.183178,0.134921,0.403694,0
2024-12-11 21:03:18.460,-0.794716,1.28315,7.09621,-0.199671,0.178291,0.405526,0
2024-12-11 21:03:18.462,-0.770788,1.32861,7.10818,-0.217385,0.219218,0.406137,0
2024-12-11 21:03:18.465,-0.761217,1.3669,7.12732,-0.233267,0.254647,0.406748,0
2024-12-11 21:03:18.467,-0.744467,1.39083,7.16082,-0.248538,0.289465,0.406137,0
2024-12-11 21:03:18.470,-0.708575,1.42223,7.19432,-0.274194,0.347496,0.404305,0
2024-12-11 21:03:18.472,-0.682254,1.44377,7.21346,-0.274194,0.347496,0.404305,0
2024-12-11 21:03:18.475,-0.65354,1.46052,7.22064,-0.291909,0.400029,0.399418,0
2024-12-11 21:03:18.479,-0.634397,1.48205,7.25175,-0.298017,0.420797,0.397585,0
2024-12-11 21:03:18.479,-0.624826,1.49402,7.25175,-0.298017,0.420797,0.397585,0
2024-12-11 21:03:18.482,-0.617647,1.51316,7.26611,-0.310845,0.458059,0.390255,0
2024-12-11 21:03:18.483,-0.610469,1.54188,7.29482,-0.310845,0.458059,0.390255,0
2024-12-11 21:03:18.488,-0.555434,1.58734,7.37378,-0.313288,0.483104,0.385979,0
2024-12-11 21:03:18.488,-0.555434,1.58734,7.37378,-0.313288,0.483104,0.385979,0
2024-12-11 21:03:18.494,-0.541077,1.64237,7.47428,-0.313899,0.49471,0.382925,0
2024-12-11 21:03:18.495,-0.521934,1.65912,7.50778,-0.309012,0.495932,0.381703,0
2024-12-11 21:03:18.495,-0.521934,1.65912,7.50778,-0.309012,0.495932,0.381703,0
2024-12-11 21:03:18.499,-0.514756,1.68066,7.56282,-0.295574,0.495932,0.383536,0
2024-12-11 21:03:18.502,-0.502792,1.73569,7.65404,-0.287022,0.495932,0.385368,0
2024-12-11 21:03:18.505,-0.502792,1.76441,7.70668,-0.274805,0.492267,0.385368,0
2024-12-11 21:03:18.505,-0.502792,1.76441,7.70668,-0.274805,0.492267,0.385368,0
2024-12-11 21:03:18.508,-0.495613,1.78355,7.74258,-0.244263,0.48066,0.388422,0
2024-12-11 21:03:18.510,-0.471685,1.80269,7.7689,-0.244263,0.48066,0.388422,0
2024-12-11 21:03:18.512,-0.442971,1.84816,7.79283,-0.231435,0.47333,0.391477,0
2024-12-11 21:03:18.515,-0.419043,1.88166,7.82393,-0.211888,0.462335,0.391477,0
2024-12-11 21:03:18.516,-0.385544,1.89841,7.85982,-0.19173,0.449507,0.390255,0
2024-12-11 21:03:18.520,-0.364008,1.93191,7.89093,-0.172793,0.434236,0.39392,0
2024-12-11 21:03:18.521,-0.354437,1.98245,7.89572,-0.153857,0.418965,0.394531,0
2024-12-11 21:03:18.523,-0.349651,2.02074,7.88615,-0.131867,0.401861,0.395142,0
2024-12-11 21:03:18.526,-0.325723,2.07577,7.87657,-0.110487,0.383536,0.393309,0
2024-12-11 21:03:18.528,-0.294616,2.12602,7.86461,-0.0915507,0.363989,0.392698,0
2024-12-11 21:03:18.532,-0.285045,2.15474,7.86222,-0.0695602,0.340776,0.392088,0
2024-12-11 21:03:18.533,-0.275175,2.19063,7.86461,-0.050624,0.319397,0.390255,0
2024-12-11 21:03:18.535,-0.248854,2.24806,7.87179,-0.0292443,0.296185,0.387201,0
2024-12-11 21:03:18.538,-0.22014,2.29591,7.86461,-0.00786466,0.274194,0.385368,0
2024-12-11 21:03:18.540,-0.196211,2.33659,7.85743,0.00923906,0.250371,0.381703,0
2024-12-11 21:03:18.542,-0.160319,2.39402,7.86222,0.0312296,0.227159,0.376206,0
2024-12-11 21:03:18.545,-0.122034,2.44188,7.86222,0.049555,0.205168,0.37193,0
2024-12-11 21:03:18.547,-0.0717847,2.48734,7.85025,0.0697129,0.183789,0.36521,0
2024-12-11 21:03:18.549,-0.0358923,2.53071,7.85025,0.0904818,0.162409,0.355437,0
2024-12-11 21:03:18.552,-0.00957129,2.5666,7.86222,0.106364,0.144694,0.346885,0
2024-12-11 21:03:18.554,0.0215354,2.61685,7.86461,0.122857,0.124536,0.338944,0
2024-12-11 21:03:18.556,0.0430708,2.66471,7.85025,0.138739,0.108044,0.329781,0
2024-12-11 21:03:18.560,0.0741775,2.71017,7.82154,0.166227,0.0787229,0.310234,0
2024-12-11 21:03:18.562,0.081356,2.74846,7.8024,0.166227,0.0787229,0.310234,0
2024-12-11 21:03:18.564,0.0789631,2.78196,7.78565,0.179665,0.0683385,0.29985,0
2024-12-11 21:03:18.568,0.0598206,2.8681,7.74018,0.19738,0.0530674,0.276637,0
2024-12-11 21:03:18.569,0.0598206,2.8681,7.74018,0.19738,0.0530674,0.276637,0
2024-12-11 21:03:18.571,0.0430708,2.90878,7.71147,0.204099,0.0475697,0.265031,0
2024-12-11 21:03:18.574,0.0119641,2.95663,7.68754,0.214484,0.046348,0.243652,0
2024-12-11 21:03:18.576,-0.0287139,3.0021,7.67079,0.215095,0.0469589,0.2351,0
2024-12-11 21:03:18.579,-0.066999,3.04277,7.64686,0.215095,0.0469589,0.2351,0
2024-12-11 21:03:18.580,-0.102891,3.09093,7.62054,0.213262,0.046348,0.227159,0
2024-12-11 21:03:18.582,-0.155533,3.13879,7.61576,0.212651,0.0481806,0.218607,0
2024-12-11 21:03:18.586,-0.205783,3.201,7.59183,0.209597,0.0487914,0.211277,0
2024-12-11 21:03:18.587,-0.239282,3.25603,7.5676,0.204099,0.0494023,0.203947,0
2024-12-11 21:03:18.590,-0.263211,3.28475,7.5676,0.197991,0.0512348,0.196616,0
2024-12-11 21:03:18.592,-0.282652,3.32064,7.55324,0.186996,0.0536782,0.190508,0
2024-12-11 21:03:18.594,-0.301795,3.3661,7.53171,0.177833,0.0542891,0.183178,0
2024-12-11 21:03:18.597,-0.320937,3.42592,7.52932,0.165616,0.0597867,0.178291,0
2024-12-11 21:03:18.599,-0.330509,3.49053,7.53171,0.147291,0.0634518,0.171572,0
2024-12-11 21:03:18.602,-0.344866,3.53599,7.54128,0.11064,0.0707819,0.157522,0
2024-12-11 21:03:18.604,-0.364008,3.57667,7.56282,0.11064,0.0707819,0.157522,0
2024-12-11 21:03:18.606,-0.366401,3.61735,7.58944,0.0898709,0.0762796,0.151414,0
2024-12-11 21:03:18.608,-0.361615,3.65833,7.62772,0.0678804,0.0799446,0.145916,0
2024-12-11 21:03:18.611,-0.354437,3.7014,7.67797,0.0434465,0.0799446,0.139808,0
2024-12-11 21:03:18.613,-0.34008,3.73968,7.75215,0.0226777,0.0817772,0.13431,0
2024-12-11 21:03:18.616,-0.294616,3.77318,7.8359,-0.00419957,0.0787229,0.125758,0
2024-12-11 21:03:18.618,-0.244068,3.81147,7.93161,-0.0261901,0.0738362,0.116595,0
2024-12-11 21:03:18.621,-0.20339,3.84975,8.05125,-0.0762796,0.0591758,0.094605,0
2024-12-11 21:03:18.625,-0.131605,3.91436,8.33151,-0.0994917,0.046348,0.0787229,0
2024-12-11 21:03:18.626,-0.131605,3.91436,8.33151,-0.123926,0.0353528,0.0640626,0
2024-12-11 21:03:18.627,-0.122034,3.94547,8.46551,-0.123926,0.0353528,0.0640626,0
2024-12-11 21:03:18.629,-0.114855,3.98854,8.60429,-0.147138,0.0219141,0.0494023,0
2024-12-11 21:03:18.632,-0.112463,4.034,8.75294,-0.167296,0.00725381,0.0335202,0
2024-12-11 21:03:18.634,-0.122034,4.03879,8.89651,-0.188065,-0.00740652,0.0194708,0
2024-12-11 21:03:18.639,-0.157926,4.07229,9.22194,-0.224715,-0.0428357,-0.0165692,0
2024-12-11 21:03:18.640,-0.157926,4.07229,9.22194,-0.24243,-0.0648262,-0.0318404,0
2024-12-11 21:03:18.641,-0.172283,4.08186,9.38016,-0.24243,-0.0648262,-0.0318404,0
2024-12-11 21:03:18.644,-0.191426,4.09861,9.52852,-0.260145,-0.085595,-0.0477224,0
2024-12-11 21:03:18.647,-0.200997,4.10339,9.69602,-0.289465,-0.130187,-0.0794865,0
2024-12-11 21:03:18.649,-0.217747,4.101,9.86142,-0.302293,-0.150345,-0.0923143,0
2024-12-11 21:03:18.651,-0.258425,4.09621,10.0122,-0.302293,-0.150345,-0.0923143,0
2024-12-11 21:03:18.653,-0.313759,4.09143,10.1605,-0.312067,-0.171724,-0.105753,0
2024-12-11 21:03:18.656,-0.359223,4.07707,10.3208,-0.323062,-0.194326,-0.114916,0
2024-12-11 21:03:18.659,-0.402293,4.05554,10.5006,-0.338333,-0.241972,-0.131409,0
2024-12-11 21:03:18.660,-0.428614,4.04118,10.6801,-0.338333,-0.241972,-0.131409,0
2024-12-11 21:03:18.662,-0.442971,4.01725,10.8428,-0.345052,-0.265795,-0.136295,0
2024-12-11 21:03:18.665,-0.452543,3.96461,11.013,-0.349939,-0.290229,-0.141182,0
2024-12-11 21:03:18.667,-0.447757,3.91436,11.1661,-0.355437,-0.315274,-0.144236,0
2024-12-11 21:03:18.672,-0.440578,3.81386,11.4724,-0.355437,-0.364141,-0.144236,0
2024-12-11 21:03:18.673,-0.440578,3.81386,11.4724,-0.355437,-0.364141,-0.144236,0
2024-12-11 21:03:18.674,-0.438186,3.75165,11.6282,-0.355437,-0.364141,-0.144236,0
2024-12-11 21:03:18.678,-0.414257,3.67747,11.7981,-0.352383,-0.403236,-0.141182,0
2024-12-11 21:03:18.679,-0.383151,3.60539,11.956,-0.348107,-0.422172,-0.13996,0
2024-12-11 21:03:18.681,-0.361615,3.54556,12.1095,-0.345052,-0.441108,-0.135074,0
2024-12-11 21:03:18.684,-0.337687,3.49053,12.2674,-0.340166,-0.458212,-0.128354,0
2024-12-11 21:03:18.686,-0.318545,3.44267,12.399,-0.3365,-0.474094,-0.121024,0
2024-12-11 21:03:18.688,-0.297009,3.39721,12.5306,-0.330392,-0.486922,-0.112472,0
2024-12-11 21:03:18.691,-0.263211,3.3661,12.6625,-0.323673,-0.50036,-0.105142,0
2024-12-11 21:03:18.694,-0.224925,3.33978,12.7869,-0.313288,-0.52174,-0.0862058,0
2024-12-11 21:03:18.696,-0.184247,3.31346,12.9066,-0.313288,-0.52174,-0.0862058,0
2024-12-11 21:03:18.699,-0.155533,3.2991,13.0143,-0.306569,-0.534568,-0.0697129,0
2024-12-11 21:03:18.701,-0.133998,3.28475,13.11,-0.306569,-0.534568,-0.0697129,0
2024-12-11 21:03:18.702,-0.102891,3.28475,13.2203,-0.301682,-0.5364,-0.0587177,0
2024-12-11 21:03:18.705,-0.0622134,3.29432,13.352,-0.298017,-0.5364,-0.0513875,0
2024-12-11 21:03:18.708,-0.0430708,3.29671,13.4764,-0.290076,-0.516242,-0.0306187,0
2024-12-11 21:03:18.711,-0.040678,3.32064,13.5793,-0.283357,-0.494252,-0.0251211,0
2024-12-11 21:03:18.713,-0.0526421,3.37328,13.6774,-0.276637,-0.460655,-0.0159584,0
2024-12-11 21:03:18.714,-0.0861416,3.43071,13.7662,-0.276637,-0.460655,-0.0159584,0
2024-12-11 21:03:18.719,-0.205783,3.62214,13.826,-0.260755,-0.372082,0.00725381,0
2024-12-11 21:03:18.719,-0.205783,3.62214,13.826,-0.260755,-0.372082,0.00725381,0
2024-12-11 21:03:18.721,-0.270389,3.71336,13.8165,-0.260755,-0.372082,0.00725381,0
2024-12-11 21:03:18.724,-0.308973,3.81386,13.7686,-0.246706,-0.263352,0.0329094,0
2024-12-11 21:03:18.726,-0.313759,3.9,13.7061,-0.244873,-0.215705,0.0457372,0
2024-12-11 21:03:18.728,-0.270389,3.94068,13.5936,-0.24976,-0.174779,0.0536782,0
2024-12-11 21:03:18.731,-0.18664,3.93589,13.4333,-0.260145,-0.144847,0.0573433,0
2024-12-11 21:03:18.734,-0.0789631,3.89761,13.2873,-0.27847,-0.122857,0.0561216,0
2024-12-11 21:03:18.736,0.0502493,3.84736,13.1483,-0.301682,-0.113694,0.050624,0
2024-12-11 21:03:18.738,0.198604,3.77318,13.0382,-0.334668,-0.116137,0.0377962,0
2024-12-11 21:03:18.740,0.349651,3.70618,12.9544,-0.334668,-0.116137,0.0377962,0
2024-12-11 21:03:18.743,0.486042,3.66072,12.8851,-0.414078,-0.141182,-0.00251974,0
2024-12-11 21:03:18.746,0.627219,3.61496,12.8635,-0.507538,-0.178444,-0.0587177,0
2024-12-11 21:03:18.747,0.749253,3.56471,12.8827,-0.507538,-0.178444,-0.0587177,0
2024-12-11 21:03:18.750,0.85005,3.51685,12.9257,-0.553962,-0.201656,-0.0910926,0
2024-12-11 21:03:18.752,0.936192,3.45464,13.0238,-0.605884,-0.223036,-0.124078,0
2024-12-11 21:03:18.755,0.996012,3.38525,13.1746,-0.69629,-0.256632,-0.191272,0
2024-12-11 21:03:18.758,1.02473,3.30389,13.3591,-0.73966,-0.268238,-0.223036,0
2024-12-11 21:03:18.760,1.04148,3.20818,13.5745,-0.773256,-0.273125,-0.252356,0
2024-12-11 21:03:18.762,1.05823,3.12443,13.8093,-0.773256,-0.273125,-0.252356,0
2024-12-11 21:03:18.764,1.01755,3.04038,14.0653,-0.802577,-0.267017,-0.279844,0
2024-12-11 21:03:18.766,0.936192,2.96142,14.3312,-0.825178,-0.250524,-0.301835,0
2024-12-11 21:03:18.768,0.869193,2.8992,14.5801,-0.840449,-0.221814,-0.320771,0
2024-12-11 21:03:18.771,0.813859,2.8346,14.8098,-0.84778,-0.180887,-0.336653,0
2024-12-11 21:03:18.776,0.660718,2.70539,15.2671,-0.836784,-0.0758214,-0.358644,0
2024-12-11 21:03:18.776,0.660718,2.70539,15.2671,-0.836784,-0.0758214,-0.358644,0
2024-12-11 21:03:18.780,0.483649,2.52592,15.5641,-0.795858,0.0512348,-0.366585,1
2024-12-11 21:03:18.781,0.483649,2.52592,15.5641,-0.795858,0.0512348,-0.366585,0
2024-12-11 21:03:18.783,0.390329,2.4347,15.6622,-0.765315,0.122093,-0.367196,0
2024-12-11 21:03:18.785,0.277567,2.34377,15.7316,-0.73294,0.189286,-0.365974,0
2024-12-11 21:03:18.787,0.136391,2.25284,15.7627,-0.693846,0.259534,-0.357422,0
2024-12-11 21:03:18.790,0.00478565,2.16192,15.7412,-0.650476,0.327949,-0.34887,0
2024-12-11 21:03:18.792,-0.131605,2.07817,15.6622,-0.603441,0.391477,-0.339097,0
2024-12-11 21:03:18.794,-0.282652,1.99681,15.5522,-0.554573,0.453172,-0.325658,0
2024-12-11 21:03:18.797,-0.411865,1.91276,15.3987,-0.500818,0.511203,-0.304889,0
2024-12-11 21:03:18.799,-0.536291,1.82662,15.2097,-0.448896,0.567401,-0.282899,0
2024-12-11 21:03:18.802,-0.665504,1.76441,15.0159,-0.39392,0.615658,-0.259686,0
2024-12-11 21:03:18.804,-0.797109,1.70698,14.805,-0.339555,0.664525,-0.231587,0
2024-12-11 21:03:18.806,-0.929013,1.66869,14.5777,-0.284578,0.709728,-0.200434,0
2024-12-11 21:03:18.808,-1.04865,1.63998,14.3264,-0.231435,0.748822,-0.165005,0
2024-12-11 21:03:18.811,-1.1683,1.62084,14.0701,-0.17768,0.783641,-0.128965,0
2024-12-11 21:03:18.814,-1.26401,1.61845,13.8188,-0.123926,0.814259,-0.0917034,0
2024-12-11 21:03:18.816,-1.31904,1.59452,13.5697,-0.0720036,0.838082,-0.0526092,0
2024-12-11 21:03:18.819,-1.36211,1.5682,13.3232,0.0281753,0.872901,0.030466,0
2024-12-11 21:03:18.820,-1.40788,1.5658,13.0765,0.0281753,0.872901,0.030466,0
2024-12-11 21:03:18.823,-1.43898,1.57777,12.8085,0.0794865,0.88695,0.0707819,0
2024-12-11 21:03:18.825,-1.47727,1.61366,12.5234,0.126522,0.89428,0.111098,0
2024-12-11 21:03:18.827,-1.4988,1.64237,12.2507,0.17539,0.899167,0.151414,0
2024-12-11 21:03:18.830,-1.4988,1.65194,11.9943,0.219981,0.896724,0.190508,0
2024-12-11 21:03:18.833,-1.48684,1.65673,11.7311,0.298781,0.875955,0.264421,0
2024-12-11 21:03:18.835,-1.4653,1.67587,11.4604,0.298781,0.875955,0.264421,0
2024-12-11 21:03:18.837,-1.4342,1.70937,11.19,0.337264,0.855797,0.299239,0
2024-12-11 21:03:18.840,-1.38844,1.72134,10.9289,0.39957,0.792803,0.357269,0
2024-12-11 21:03:18.841,-1.33579,1.73091,10.6896,0.39957,0.792803,0.357269,0
2024-12-11 21:03:18.844,-1.27119,1.74527,10.4504,0.425837,0.752487,0.382314,0
2024-12-11 21:03:18.846,-1.17787,1.76201,10.2395,0.446606,0.703009,0.403083,0
2024-12-11 21:03:18.849,-1.07737,1.76919,10.0552,0.46432,0.643757,0.420187,0
2024-12-11 21:03:18.851,-0.974477,1.77398,9.88056,0.47837,0.580229,0.434236,0
2024-12-11 21:03:18.854,-0.873978,1.79312,9.71755,0.503415,0.434236,0.453172,0
2024-12-11 21:03:18.856,-0.777966,1.81466,9.58595,0.503415,0.434236,0.453172,0
2024-12-11 21:03:18.858,-0.677468,1.8338,9.48545,0.513799,0.357269,0.454394,0
2024-12-11 21:03:18.860,-0.579362,1.86251,9.4017,0.521129,0.280303,0.452561,0
2024-12-11 21:03:18.864,-0.476471,1.89123,9.33709,0.52907,0.113541,0.445231,0
2024-12-11 21:03:18.865,-0.371187,1.9008,9.30599,0.52907,0.113541,0.445231,0
2024-12-11 21:03:18.867,-0.282652,1.92233,9.28206,0.537011,0.0316877,0.435458,0
2024-12-11 21:03:18.870,-0.205783,1.94148,9.27966,0.540676,-0.0477224,0.424462,0
2024-12-11 21:03:18.873,-0.133998,1.95105,9.30599,0.544952,-0.200434,0.398807,0
2024-12-11 21:03:18.875,-0.0574277,1.95823,9.34666,0.544952,-0.200434,0.398807,0
2024-12-11 21:03:18.880,0.12682,1.95583,9.42563,0.561445,-0.392851,0.354826,0
2024-12-11 21:03:18.880,0.12682,1.95583,9.42563,0.561445,-0.392851,0.354826,0
2024-12-11 21:03:18.882,0.208176,1.94148,9.47588,0.561445,-0.392851,0.354826,0
2024-12-11 21:03:18.884,0.313759,1.9008,9.50938,0.568164,-0.446606,0.337111,0
2024-12-11 21:03:18.887,0.409472,1.84098,9.53809,0.57916,-0.533957,0.303515,0
2024-12-11 21:03:18.890,0.486042,1.77398,9.5668,0.582825,-0.573051,0.284578,0
2024-12-11 21:03:18.892,0.548256,1.71894,9.6027,0.583435,-0.609091,0.265642,0
2024-12-11 21:03:18.893,0.612862,1.66391,9.61466,0.583435,-0.609091,0.265642,0
2024-12-11 21:03:18.896,0.691825,1.59212,9.62663,0.582825,-0.640855,0.246095,0
2024-12-11 21:03:18.898,0.76361,1.52991,9.64098,0.57977,-0.6659,0.229602,0
2024-12-11 21:03:18.901,0.821037,1.48445,9.63859,0.575494,-0.689112,0.211277,0
2024-12-11 21:03:18.904,0.869193,1.43181,9.62663,0.558391,-0.726374,0.175237,0
2024-12-11 21:03:18.907,0.948156,1.30947,9.68405,0.551061,-0.741034,0.159355,0
2024-12-11 21:03:18.907,0.948156,1.30947,9.68405,0.551061,-0.741034,0.159355,0
2024-12-11 21:03:18.910,0.97687,1.26401,9.7008,0.539454,-0.750808,0.143473,0
2024-12-11 21:03:18.912,1.02712,1.21854,9.71037,0.526016,-0.756305,0.12698,0
2024-12-11 21:03:18.914,1.08215,1.17787,9.72952,0.51441,-0.75264,0.111098,0
2024-12-11 21:03:18.917,1.11087,1.14197,9.77259,0.498528,-0.739202,0.0964375,0
2024-12-11 21:03:18.919,1.12762,1.10608,9.80848,0.480813,-0.72393,0.0805555,0
2024-12-11 21:03:18.923,1.13719,1.08455,9.83031,0.46432,-0.699496,0.0683385,0
2024-12-11 21:03:18.925,1.12522,1.07498,9.86142,0.431335,-0.632303,0.0481806,0
2024-12-11 21:03:18.926,1.10608,1.07258,9.88296,0.431335,-0.632303,0.0481806,0
2024-12-11 21:03:18.931,1.02233,1.07737,9.90688,0.397738,-0.548006,0.0335202,0
2024-12-11 21:03:18.931,1.02233,1.07737,9.90688,0.397738,-0.548006,0.0335202,0
2024-12-11 21:03:18.933,0.955334,1.1013,9.93081,0.383688,-0.496084,0.0280226,0
2024-12-11 21:03:18.936,0.9003,1.12283,9.93081,0.367806,-0.442941,0.0261901,0
2024-12-11 21:03:18.938,0.828216,1.14915,9.92363,0.354368,-0.386132,0.0261901,0
2024-12-11 21:03:18.940,0.74686,1.17069,9.9356,0.343373,-0.321993,0.0255792,0
2024-12-11 21:03:18.943,0.667897,1.20658,9.94038,0.331766,-0.257854,0.0292443,0
2024-12-11 21:03:18.946,0.576969,1.26162,9.91646,0.323825,-0.194326,0.0316877,0
2024-12-11 21:03:18.950,0.3999,1.33579,9.86142,0.311608,-0.0550526,0.0402396,0
2024-12-11 21:03:18.951,0.3999,1.33579,9.86142,0.306111,0.0151948,0.0469589,0
2024-12-11 21:03:18.953,0.294616,1.38126,9.81805,0.301224,0.0860531,0.058565,0
2024-12-11 21:03:18.955,0.196211,1.42941,9.76062,0.301224,0.0860531,0.058565,0
2024-12-11 21:03:18.959,0.0311067,1.49402,9.59073,0.304278,0.228381,0.0750579,0
2024-12-11 21:03:18.960,0.0311067,1.49402,9.59073,0.306111,0.295574,0.0860531,0
2024-12-11 21:03:18.963,-0.0382852,1.53948,9.49502,0.307943,0.359102,0.094605,0
2024-12-11 21:03:18.965,-0.105284,1.5682,9.4017,0.307943,0.359102,0.094605,0
2024-12-11 21:03:18.966,-0.172283,1.5993,9.28445,0.307943,0.359102,0.094605,0
2024-12-11 21:03:18.969,-0.22014,1.63759,9.14297,0.315884,0.474552,0.115985,0
2024-12-11 21:03:18.971,-0.251246,1.65912,9.00658,0.315884,0.474552,0.115985,0
2024-12-11 21:03:18.973,-0.272782,1.68066,8.8678,0.324436,0.569844,0.137364,0
2024-12-11 21:03:18.977,-0.294616,1.70937,8.71466,0.32688,0.61016,0.146527,0
2024-12-11 21:03:18.978,-0.332901,1.74048,8.57079,0.332988,0.647422,0.153857,0
2024-12-11 21:03:18.981,-0.342473,1.75005,8.43679,0.332988,0.647422,0.153857,0
2024-12-11 21:03:18.984,-0.34008,1.75962,8.31476,0.347038,0.728664,0.178902,0
2024-12-11 21:03:18.985,-0.354437,1.78116,8.18794,0.347038,0.728664,0.178902,0
2024-12-11 21:03:18.988,-0.368794,1.81705,8.05843,0.351924,0.746379,0.188065,0
2024-12-11 21:03:18.990,-0.3999,1.85533,7.95554,0.358644,0.762872,0.196616,0
2024-12-11 21:03:18.993,-0.431007,1.89601,7.85025,0.37025,0.775089,0.211277,0
2024-12-11 21:03:18.996,-0.445364,1.92712,7.74736,0.37025,0.775089,0.211277,0
2024-12-11 21:03:18.997,-0.459721,1.94387,7.63968,0.37758,0.773256,0.22044,0
2024-12-11 21:03:19.002,-0.474078,1.95823,7.52932,0.394684,0.760428,0.235711,0
2024-12-11 21:03:19.002,-0.481256,1.96062,7.42882,0.394684,0.760428,0.235711,0
2024-12-11 21:03:19.004,-0.488435,1.9657,7.34507,0.405679,0.74699,0.241819,0
2024-12-11 21:03:19.006,-0.493221,1.98485,7.27089,0.419118,0.731108,0.249149,0
2024-12-11 21:03:19.010,-0.500399,1.99681,7.19193,0.427059,0.710339,0.25709,0
2024-12-11 21:03:19.011,-0.529113,2.01356,7.12254,0.437443,0.688959,0.262588,0
2024-12-11 21:03:19.014,-0.567398,2.0327,7.04597,0.452103,0.664525,0.268696,0
2024-12-11 21:03:19.017,-0.600898,2.05424,6.9667,0.478981,0.608938,0.282746,0
2024-12-11 21:03:19.018,-0.627219,2.07817,6.88295,0.478981,0.608938,0.282746,0
2024-12-11 21:03:19.021,-0.646361,2.09492,6.79203,0.494863,0.579007,0.290076,0
2024-12-11 21:03:19.024,-0.672682,2.11167,6.71306,0.512577,0.547854,0.298628,0
2024-12-11 21:03:19.025,-0.699003,2.1332,6.63171,0.526627,0.51609,0.304736,0
2024-12-11 21:03:19.029,-0.722932,2.13799,6.5336,0.540676,0.482493,0.311456,0
2024-12-11 21:03:19.030,-0.737288,2.14038,6.44238,0.554726,0.448896,0.320618,0
2024-12-11 21:03:19.032,-0.758824,2.14277,6.35145,0.568164,0.416521,0.328559,0
2024-12-11 21:03:19.035,-0.780359,2.15713,6.25095,0.580992,0.384147,0.33589,0
2024-12-11 21:03:19.039,-0.785145,2.16909,6.02124,0.60115,0.319397,0.352383,0
2024-12-11 21:03:19.039,-0.785145,2.16909,6.02124,0.60115,0.319397,0.352383,0
2024-12-11 21:03:19.043,-0.799502,2.18345,5.90399,0.613978,0.260755,0.367654,0
2024-12-11 21:03:19.045,-0.813859,2.18106,5.79601,0.613978,0.260755,0.367654,0
2024-12-11 21:03:19.049,-0.789931,2.18824,5.55195,0.617643,0.208223,0.381703,0
2024-12-11 21:03:19.049,-0.789931,2.18824,5.55195,0.617643,0.208223,0.381703,0
2024-12-11 21:03:19.054,-0.787538,2.19302,5.36291,0.611534,0.161187,0.396974,0
2024-12-11 21:03:19.054,-0.787538,2.19302,5.36291,0.611534,0.161187,0.396974,0
2024-12-11 21:03:19.056,-0.782752,2.21695,5.26212,0.604204,0.144084,0.404305,0
2024-12-11 21:03:19.058,-0.773181,2.24327,5.16401,0.595042,0.126369,0.409802,0
2024-12-11 21:03:19.063,-0.797109,2.30309,5.00848,0.569997,0.100103,0.423852,0
2024-12-11 21:03:19.063,-0.797109,2.30309,5.00848,0.569997,0.100103,0.423852,0
2024-12-11 21:03:19.066,-0.80668,2.33181,4.94148,0.554726,0.0915507,0.429349,0
2024-12-11 21:03:19.068,-0.799502,2.36531,4.89601,0.537622,0.0836097,0.436069,0
2024-12-11 21:03:19.072,-0.80668,2.41555,4.80269,0.496084,0.0793338,0.445231,0
2024-12-11 21:03:19.073,-0.80668,2.41555,4.80269,0.496084,0.0793338,0.445231,0
2024-12-11 21:03:19.077,-0.804287,2.48495,4.70429,0.453325,0.0805555,0.453783,0
2024-12-11 21:03:19.077,-0.804287,2.48495,4.70429,0.453325,0.0805555,0.453783,0
2024-12-11 21:03:19.082,-0.842872,2.5331,4.64925,0.403236,0.086664,0.461724,0
2024-12-11 21:03:19.084,-0.871586,2.54507,4.62293,0.378802,0.0927724,0.464778,0
2024-12-11 21:03:19.084,-0.871586,2.54507,4.62293,0.378802,0.0927724,0.464778,0
2024-12-11 21:03:19.087,-0.907478,2.58096,4.60618,0.350703,0.0964375,0.466,0
2024-12-11 21:03:19.090,-0.938585,2.63121,4.59422,0.320771,0.101935,0.467222,0
2024-12-11 21:03:19.091,-0.969691,2.66231,4.59901,0.294505,0.106211,0.468443,0
2024-12-11 21:03:19.094,-0.988834,2.71256,4.60858,0.265184,0.111709,0.469054,0
2024-12-11 21:03:19.096,-0.984048,2.76999,4.61576,0.234031,0.11965,0.469054,0
2024-12-11 21:03:19.099,-0.967299,2.80828,4.63968,0.172946,0.132477,0.463557,0
2024-12-11 21:03:19.102,-0.950549,2.83938,4.67318,0.172946,0.132477,0.463557,0
2024-12-11 21:03:19.103,-0.952942,2.88245,4.69472,0.13996,0.138586,0.45867,0
2024-12-11 21:03:19.105,-0.964906,2.92313,4.70429,0.108196,0.14836,0.453172,0
2024-12-11 21:03:19.110,-1.02233,3.00688,4.74497,0.0367272,0.163631,0.439123,0
2024-12-11 21:03:19.110,-1.02233,3.00688,4.74497,0.0367272,0.163631,0.439123,0
2024-12-11 21:03:19.115,-1.07737,3.08584,4.8003,-0.0390179,0.173404,0.425684,0
2024-12-11 21:03:19.116,-1.07737,3.08584,4.8003,-0.0775012,0.173404,0.416521,0
2024-12-11 21:03:19.118,-1.11805,3.10289,4.86969,-0.117206,0.168517,0.410413,0
2024-12-11 21:03:19.120,-1.16112,3.11246,4.94148,-0.117206,0.168517,0.410413,0
2024-12-11 21:03:19.122,-1.17547,3.12443,5.01326,-0.15569,0.164242,0.403694,0
2024-12-11 21:03:19.125,-1.1683,3.13879,5.09701,-0.236322,0.141029,0.384147,0
2024-12-11 21:03:19.127,-1.17547,3.13879,5.19512,-0.236322,0.141029,0.384147,0
2024-12-11 21:03:19.130,-1.17787,3.11725,5.33659,-0.315121,0.106822,0.364599,0
2024-12-11 21:03:19.134,-1.24965,3.10768,5.68355,-0.351161,0.0848314,0.352383,0
2024-12-11 21:03:19.135,-1.24965,3.10768,5.68355,-0.351161,0.0848314,0.352383,0
2024-12-11 21:03:19.136,-1.31665,3.09571,5.87019,-0.38659,0.058565,0.341387,0
2024-12-11 21:03:19.138,-1.37408,3.08345,6.08345,-0.418354,0.0329094,0.335279,0
2024-12-11 21:03:19.144,-1.58255,3.05474,6.61017,-0.492877,-0.0629936,0.316953,0
2024-12-11 21:03:19.144,-1.58255,3.05474,6.61017,-0.492877,-0.0629936,0.316953,0
2024-12-11 21:03:19.148,-1.78594,3.0021,7.12971,-0.510592,-0.0984228,0.316343,0
2024-12-11 21:03:19.148,-1.78594,3.0021,7.12971,-0.510592,-0.0984228,0.316343,0
2024-12-11 21:03:19.150,-1.87687,2.97817,7.41685,-0.524031,-0.133852,0.316953,0
2024-12-11 21:03:19.152,-1.97288,2.94467,7.70908,-0.532582,-0.172335,0.321229,0
2024-12-11 21:03:19.155,-2.06381,2.90399,7.99861,-0.535637,-0.208986,0.327949,0
2024-12-11 21:03:19.158,-2.14995,2.8657,8.29083,-0.535637,-0.243804,0.3365,0
2024-12-11 21:03:19.162,-2.31745,2.80588,8.85823,-0.524031,-0.303667,0.360324,0
2024-12-11 21:03:19.163,-2.31745,2.80588,8.85823,-0.513035,-0.329323,0.375595,0
2024-12-11 21:03:19.164,-2.39402,2.77238,9.12623,-0.513035,-0.329323,0.375595,0
2024-12-11 21:03:19.168,-2.47059,2.73649,9.37777,-0.482493,-0.366585,0.414689,0
2024-12-11 21:03:19.170,-2.54746,2.69342,9.62184,-0.462946,-0.382467,0.436069,0
2024-12-11 21:03:19.172,-2.63121,2.64556,9.8686,-0.440955,-0.397738,0.460502,0
2024-12-11 21:03:19.174,-2.71256,2.6001,10.0863,-0.440955,-0.397738,0.460502,0
2024-12-11 21:03:19.176,-2.79153,2.55464,10.2802,-0.420187,-0.406901,0.484936,0
2024-12-11 21:03:19.178,-2.87049,2.50887,10.4623,-0.396974,-0.415452,0.514868,0
2024-12-11 21:03:19.181,-2.95185,2.48255,10.625,-0.369486,-0.424004,0.546632,0
2024-12-11 21:03:19.183,-3.04038,2.46341,10.7901,-0.346274,-0.426448,0.577785,0
2024-12-11 21:03:19.186,-3.12204,2.42273,10.9436,-0.32184,-0.427669,0.615658,0
2024-12-11 21:03:19.190,-3.24646,2.3677,11.1948,-0.272362,-0.414231,0.694457,0
2024-12-11 21:03:19.192,-3.28235,2.35573,11.2929,-0.250371,-0.400792,0.738514,0
2024-12-11 21:03:19.196,-3.30868,2.3342,11.3958,-0.203336,-0.367196,0.824644,0
2024-12-11 21:03:19.196,-3.30868,2.3342,11.3958,-0.203336,-0.367196,0.824644,0
2024-12-11 21:03:19.197,-3.32303,2.30548,11.4796,-0.203336,-0.367196,0.824644,0
2024-12-11 21:03:19.200,-3.32064,2.28873,11.554,-0.181956,-0.342151,0.870457,0
2024-12-11 21:03:19.202,-3.29193,2.26959,11.5971,-0.164852,-0.317106,0.913217,0
2024-12-11 21:03:19.204,-3.24646,2.24327,11.621,-0.147138,-0.289007,0.956587,0
2024-12-11 21:03:19.212,-3.1005,2.14277,11.7191,-0.111709,-0.174168,1.11968,0
2024-12-11 21:03:19.214,-3.05952,2.13799,11.7646,-0.111709,-0.174168,1.11968,0
2024-12-11 21:03:19.215,-3.05952,2.13799,11.7646,-0.108654,-0.142404,1.15633,0
2024-12-11 21:03:19.217,-3.02602,2.12363,11.8173,-0.108654,-0.111251,1.19176,0
2024-12-11 21:03:19.217,-3.02602,2.12363,11.8173,-0.108654,-0.111251,1.19176,0
2024-12-11 21:03:19.219,-2.99731,2.12602,11.8603,-0.108654,-0.111251,1.19176,0
2024-12-11 21:03:19.223,-2.93988,2.11645,11.98,-0.107433,-0.0397814,1.26262,0
2024-12-11 21:03:19.224,-2.93988,2.11645,11.98,-0.107433,-0.0397814,1.26262,0
2024-12-11 21:03:19.225,-2.91595,2.11884,12.0688,-0.109876,0.00175619,1.29744,0
2024-12-11 21:03:19.228,-2.89203,2.12363,12.143,-0.109265,0.0451263,1.33104,0
2024-12-11 21:03:19.230,-2.85613,2.14517,12.2195,-0.108654,0.0933833,1.36585,0
2024-12-11 21:03:19.233,-2.79392,2.15474,12.2985,-0.107433,0.140419,1.39945,0
2024-12-11 21:03:19.236,-2.73649,2.15474,12.3703,-0.101935,0.251593,1.46115,0
2024-12-11 21:03:19.238,-2.66949,2.17149,12.4158,-0.101935,0.251593,1.46115,0
2024-12-11 21:03:19.240,-2.60728,2.19781,12.4493,-0.0976592,0.311456,1.48925,0
2024-12-11 21:03:19.242,-2.55464,2.22652,12.4708,-0.0921616,0.370708,1.51612,0
2024-12-11 21:03:19.245,-2.50648,2.25524,12.4564,-0.0848314,0.436069,1.53811,0
2024-12-11 21:03:19.247,-2.47059,2.25763,12.4301,-0.0793338,0.500208,1.56071,0
2024-12-11 21:03:19.249,-2.44666,2.26959,12.3799,-0.0738362,0.563736,1.58209,0
2024-12-11 21:03:19.252,-2.42752,2.28634,12.3129,-0.0622301,0.68957,1.61936,0
2024-12-11 21:03:19.254,-2.41795,2.3007,12.2267,-0.0622301,0.68957,1.61936,0
2024-12-11 21:03:19.256,-2.41555,2.3342,12.0975,-0.0597867,0.748212,1.63707,0
2024-12-11 21:03:19.259,-2.41316,2.35334,11.9632,-0.0561216,0.805708,1.65173,0
2024-12-11 21:03:19.261,-2.42273,2.36052,11.8555,-0.050624,0.859462,1.66822,0
2024-12-11 21:03:19.263,-2.41795,2.34616,11.7383,-0.050624,0.859462,1.66822,0
2024-12-11 21:03:19.266,-2.41795,2.3342,11.5923,-0.0432938,0.953533,1.69816,0
2024-12-11 21:03:19.270,-2.53789,2.38684,11.2834,-0.0432938,1.03172,1.72809,0
2024-12-11 21:03:19.270,-2.53789,2.38684,11.2834,-0.0432938,1.03172,1.72809,0
2024-12-11 21:03:19.273,-2.65992,2.44666,11.1087,-0.0445155,1.06776,1.7458,0
2024-12-11 21:03:19.275,-2.82503,2.52323,10.9193,-0.0457372,1.10014,1.76901,0
2024-12-11 21:03:19.278,-2.99013,2.61685,10.7351,-0.0518457,1.1319,1.81483,0
2024-12-11 21:03:19.281,-3.13161,2.73649,10.5437,-0.0646735,1.1264,1.8417,0
2024-12-11 21:03:19.283,-3.21775,2.84178,10.3472,-0.0793338,1.10319,1.86675,0
2024-12-11 21:03:19.285,-3.24885,2.91356,10.1533,-0.101935,1.06593,1.88569,0
2024-12-11 21:03:19.289,-3.3015,3.0021,9.77259,-0.133088,1.01156,1.90218,0
2024-12-11 21:03:19.289,-3.3015,3.0021,9.77259,-0.133088,1.01156,1.90218,0
2024-12-11 21:03:19.291,-3.2991,2.99492,9.63859,-0.133088,1.01156,1.90218,0
2024-12-11 21:03:19.294,-3.25843,2.98295,9.54288,-0.211277,0.836861,1.92783,0
2024-12-11 21:03:19.298,-3.09811,2.94706,9.52852,-0.307791,0.586337,1.93272,0
2024-12-11 21:03:19.299,-3.09811,2.94706,9.52852,-0.307791,0.586337,1.93272,0
2024-12-11 21:03:19.302,-3.01884,2.93031,9.65773,-0.412246,0.274805,1.92234,0
2024-12-11 21:03:19.304,-2.93031,2.92552,9.8686,-0.465389,0.106822,1.91073,0
2024-12-11 21:03:19.309,-2.65992,2.88245,10.5939,-0.512424,-0.0629936,1.89912,0
2024-12-11 21:03:19.309,-2.65992,2.88245,10.5939,-0.512424,-0.0629936,1.89912,0
