timestamp,accel_x,accel_y,accel_z,gyro_x,gyro_y,gyro_z,step_timestamp
2024-12-11 20:58:24.283,-0.0311067,2.30788,9.76541,-0.00603212,-0.00496313,-0.00801737,0
2024-12-11 20:58:24.283,-0.0311067,2.30788,9.76541,-0.00603212,-0.00496313,-0.00801737,0
2024-12-11 20:58:24.286,-0.00717847,2.30788,9.77737,-0.00542127,-0.00251974,-0.00923906,0
2024-12-11 20:58:24.287,-0.00717847,2.30788,9.77737,-0.00725381,0.00114534,-0.0116825,0
2024-12-11 20:58:24.288,-0.00239282,2.31745,9.78216,-0.00725381,0.00114534,-0.0116825,0
2024-12-11 20:58:24.288,-0.00239282,2.31745,9.78216,-0.00725381,0.00114534,-0.0116825,0
2024-12-11 20:58:24.290,-0.00717847,2.32223,9.75584,-0.00908635,0.00175619,-0.0122933,0
2024-12-11 20:58:24.290,-0.00717847,2.32223,9.75584,-0.00908635,0.00175619,-0.0122933,0
2024-12-11 20:58:24.293,-0.0119641,2.33181,9.72952,-0.00847551,0.00542127,-0.013515,0
2024-12-11 20:58:24.294,-0.0119641,2.33181,9.72952,-0.0109189,0.00908635,-0.0141258,0
2024-12-11 20:58:24.295,-0.0191426,2.35095,9.71516,-0.0109189,0.00908635,-0.0141258,0
2024-12-11 20:58:24.296,-0.0191426,2.35095,9.71516,-0.0133623,0.0115297,-0.0153475,0
2024-12-11 20:58:24.296,-0.0191426,2.35095,9.71516,-0.0133623,0.0115297,-0.0153475,0
2024-12-11 20:58:24.297,-0.0311067,2.35813,9.71277,-0.0133623,0.0115297,-0.0153475,0
2024-12-11 20:58:24.297,-0.0311067,2.35813,9.71277,-0.0133623,0.0115297,-0.0153475,0
2024-12-11 20:58:24.298,-0.0311067,2.35813,9.71277,-0.0133623,0.0115297,-0.0153475,0
2024-12-11 20:58:24.300,-0.040678,2.37009,9.70559,-0.0158057,0.0127514,-0.0141258,0
2024-12-11 20:58:24.300,-0.040678,2.37009,9.70559,-0.0158057,0.0127514,-0.0141258,0
2024-12-11 20:58:24.302,-0.0574277,2.38206,9.70559,-0.0151948,0.0164165,-0.0159584,0
2024-12-11 20:58:24.302,-0.0574277,2.38206,9.70559,-0.0151948,0.0164165,-0.0159584,0
2024-12-11 20:58:24.304,-0.0717847,2.37966,9.71037,-0.0158057,0.0151948,-0.0153475,0
2024-12-11 20:58:24.305,-0.0717847,2.37966,9.71037,-0.0158057,0.0151948,-0.0153475,0
2024-12-11 20:58:24.307,-0.0646062,2.39163,9.69123,-0.0170274,0.0133623,-0.0153475,0
2024-12-11 20:58:24.307,-0.0646062,2.39163,9.69123,-0.0170274,0.0133623,-0.0153475,0
2024-12-11 20:58:24.307,-0.0646062,2.39163,9.69123,-0.0170274,0.0133623,-0.0153475,0
2024-12-11 20:58:24.309,-0.0622134,2.42034,9.67448,-0.0243575,0.0096972,-0.0165692,0
2024-12-11 20:58:24.309,-0.0622134,2.42034,9.67448,-0.0243575,0.0096972,-0.0165692,0
2024-12-11 20:58:24.313,-0.0646062,2.42991,9.67209,-0.0268009,0.000534491,-0.0159584,0
2024-12-11 20:58:24.314,-0.0789631,2.40838,9.67927,-0.0268009,0.000534491,-0.0159584,0
2024-12-11 20:58:24.315,-0.0789631,2.40838,9.67927,-0.0261901,-0.00129805,-0.0171801,0
2024-12-11 20:58:24.316,-0.0789631,2.39163,9.70319,-0.0261901,-0.00129805,-0.0171801,0
2024-12-11 20:58:24.319,-0.066999,2.38445,9.72712,-0.0243575,-0.00496313,-0.0147367,0
2024-12-11 20:58:24.320,-0.066999,2.38445,9.72712,-0.0274118,-0.0116825,-0.0165692,0
2024-12-11 20:58:24.321,-0.066999,2.38445,9.72712,-0.0274118,-0.0116825,-0.0165692,0
2024-12-11 20:58:24.322,-0.0693919,2.36291,9.76302,-0.022525,-0.0147367,-0.0159584,0
2024-12-11 20:58:24.323,-0.0741775,2.35095,9.80848,-0.0274118,-0.0116825,-0.0165692,0
2024-12-11 20:58:24.324,-0.0741775,2.35095,9.80848,-0.0274118,-0.0116825,-0.0165692,0
2024-12-11 20:58:24.327,-0.0717847,2.35334,9.85424,-0.0206925,-0.0208452,-0.0153475,0
2024-12-11 20:58:24.328,-0.0717847,2.34377,9.8686,-0.0206925,-0.0208452,-0.0153475,0
2024-12-11 20:58:24.328,-0.0717847,2.34377,9.8686,-0.0206925,-0.0208452,-0.0153475,0
2024-12-11 20:58:24.330,-0.0837488,2.33659,9.87817,-0.0182491,-0.0226777,-0.013515,0
2024-12-11 20:58:24.330,-0.0837488,2.33659,9.87817,-0.0182491,-0.0226777,-0.013515,0
2024-12-11 20:58:24.334,-0.102891,2.34856,9.90928,-0.010308,-0.029397,-0.0104608,0
2024-12-11 20:58:24.335,-0.117248,2.36291,9.91885,-0.010308,-0.029397,-0.0104608,0
2024-12-11 20:58:24.336,-0.117248,2.36291,9.91885,-0.010308,-0.029397,-0.0104608,0
2024-12-11 20:58:24.337,-0.129212,2.36052,9.91406,-0.00725381,-0.0275645,-0.00740652,0
2024-12-11 20:58:24.337,-0.129212,2.36052,9.91406,-0.00725381,-0.0275645,-0.00740652,0
2024-12-11 20:58:24.340,-0.133998,2.36531,9.92363,-0.00419957,-0.0312296,-0.00496313,0
2024-12-11 20:58:24.340,-0.133998,2.36531,9.92363,-0.00419957,-0.0312296,-0.00496313,0
2024-12-11 20:58:24.342,-0.122034,2.37488,9.92124,-0.00297788,-0.0342838,-0.00251974,0
2024-12-11 20:58:24.343,-0.122034,2.37488,9.92124,-0.00236703,-0.0361163,-0.00129805,0
2024-12-11 20:58:24.345,-0.102891,2.3677,9.92363,-0.00236703,-0.0361163,-0.00129805,0
2024-12-11 20:58:24.347,-0.0933201,2.36052,9.92363,-0.00236703,-0.0361163,-0.00129805,0
2024-12-11 20:58:24.349,-0.0885344,2.3677,9.91167,0.0019089,-0.0367272,0.000534491,0
2024-12-11 20:58:24.350,-0.0933201,2.36052,9.91167,0.00251974,-0.0361163,-0.000687203,0
2024-12-11 20:58:24.353,-0.0885344,2.36291,9.89971,0.00251974,-0.0361163,-0.000687203,0
2024-12-11 20:58:24.354,-0.0741775,2.34138,9.87817,0.0019089,-0.0348946,-0.00129805,0
2024-12-11 20:58:24.354,-0.0741775,2.34138,9.87817,0.0019089,-0.0348946,-0.00129805,0
2024-12-11 20:58:24.357,-0.0837488,2.3342,9.87578,0.0019089,-0.0330621,0.000534491,0
2024-12-11 20:58:24.359,-0.100499,2.3342,9.88535,0.0019089,-0.0330621,0.000534491,0
2024-12-11 20:58:24.360,-0.100499,2.3342,9.88535,0.0019089,-0.0330621,0.000534491,0
2024-12-11 20:58:24.361,-0.119641,2.33659,9.87578,0.0019089,-0.0330621,0.000534491,0
2024-12-11 20:58:24.362,-0.119641,2.33659,9.87578,-0.000534491,-0.0287862,0.00236703,0
2024-12-11 20:58:24.363,-0.133998,2.32941,9.86142,-0.000534491,-0.0287862,0.00236703,0
2024-12-11 20:58:24.366,-0.160319,2.31506,9.83988,-0.00114534,-0.0275645,0.00175619,0
2024-12-11 20:58:24.368,-0.162712,2.30788,9.82074,-0.00358873,-0.0245102,0.00481042,0
2024-12-11 20:58:24.368,-0.162712,2.30788,9.82074,-0.00358873,-0.0245102,0.00481042,0
2024-12-11 20:58:24.371,-0.141177,2.31984,9.80369,-0.00603212,-0.0196235,0.00419957,0
2024-12-11 20:58:24.373,-0.141177,2.31984,9.80369,-0.00725381,-0.0165692,0.00358873,0
2024-12-11 20:58:24.373,-0.145962,2.32463,9.78455,-0.00725381,-0.0165692,0.00358873,0
2024-12-11 20:58:24.374,-0.145962,2.32463,9.78455,-0.0109189,-0.0116825,0.00481042,0
2024-12-11 20:58:24.375,-0.150748,2.32702,9.78216,-0.0109189,-0.0116825,0.00481042,0
2024-12-11 20:58:24.378,-0.141177,2.32941,9.77259,-0.0127514,-0.00435229,0.00481042,0
2024-12-11 20:58:24.379,-0.141177,2.32941,9.77259,-0.0133623,-0.000687203,0.00297788,0
2024-12-11 20:58:24.380,-0.114855,2.30309,9.77259,-0.0133623,-0.000687203,0.00297788,0
2024-12-11 20:58:24.382,-0.0957129,2.28156,9.78694,-0.014584,0.00419957,0.00236703,0
2024-12-11 20:58:24.382,-0.0957129,2.28156,9.78694,-0.014584,0.00419957,0.00236703,0
2024-12-11 20:58:24.385,-0.100499,2.2672,9.79173,-0.0182491,0.00542127,0.00114534,0
2024-12-11 20:58:24.386,-0.100499,2.2672,9.79173,-0.0194708,0.0096972,-7.63559e-05,0
2024-12-11 20:58:24.387,-0.0981057,2.2672,9.78934,-0.0194708,0.0096972,-7.63559e-05,0
2024-12-11 20:58:24.389,-0.0981057,2.2672,9.78934,-0.0194708,0.010308,-7.63559e-05,0
2024-12-11 20:58:24.389,-0.107677,2.28156,9.79891,-0.0194708,0.010308,-7.63559e-05,0
2024-12-11 20:58:24.392,-0.124427,2.28634,9.79412,-0.0237467,0.0127514,-0.0019089,0
2024-12-11 20:58:24.394,-0.124427,2.28395,9.77259,-0.0243575,0.0188599,-0.00374144,0
2024-12-11 20:58:24.394,-0.124427,2.28395,9.77259,-0.0243575,0.0188599,-0.00374144,0
2024-12-11 20:58:24.397,-0.153141,2.28634,9.7678,-0.0249684,0.0182491,-0.00496313,0
2024-12-11 20:58:24.400,-0.184247,2.29113,9.7678,-0.0298552,0.0231358,-0.00374144,0
2024-12-11 20:58:24.400,-0.184247,2.29113,9.7678,-0.0298552,0.0231358,-0.00374144,0
2024-12-11 20:58:24.401,-0.184247,2.29113,9.7678,-0.0298552,0.0231358,-0.00374144,0
2024-12-11 20:58:24.401,-0.191426,2.3007,9.74866,-0.0298552,0.0231358,-0.00374144,0
2024-12-11 20:58:24.403,-0.200997,2.3007,9.7343,-0.0310769,0.0219141,-0.00679568,0
2024-12-11 20:58:24.406,-0.208176,2.28395,9.7343,-0.0347419,0.0219141,-0.00435229,0
2024-12-11 20:58:24.406,-0.208176,2.28395,9.7343,-0.0347419,0.0219141,-0.00435229,0
2024-12-11 20:58:24.407,-0.208176,2.28395,9.7343,-0.0353528,0.0231358,-0.00435229,0
2024-12-11 20:58:24.408,-0.22014,2.28873,9.73669,-0.0353528,0.0231358,-0.00435229,0
2024-12-11 20:58:24.411,-0.234497,2.28873,9.74387,-0.0335202,0.0231358,-0.00618483,0
2024-12-11 20:58:24.411,-0.234497,2.28873,9.74387,-0.0335202,0.0231358,-0.00618483,0
2024-12-11 20:58:24.414,-0.239282,2.28156,9.77019,-0.0335202,0.0182491,-0.00557398,0
2024-12-11 20:58:24.416,-0.246461,2.29113,9.79891,-0.0335202,0.0182491,-0.00557398,0
2024-12-11 20:58:24.416,-0.246461,2.29113,9.79891,-0.0335202,0.0182491,-0.00557398,0
2024-12-11 20:58:24.418,-0.251246,2.29113,9.8013,-0.0335202,0.0182491,-0.00557398,0
2024-12-11 20:58:24.420,-0.263211,2.29352,9.78934,-0.0329094,0.0164165,-0.00557398,0
2024-12-11 20:58:24.420,-0.263211,2.29352,9.78934,-0.0329094,0.0164165,-0.00557398,0
2024-12-11 20:58:24.422,-0.285045,2.31027,9.78694,-0.0341311,0.0133623,-0.00618483,0
2024-12-11 20:58:24.422,-0.285045,2.31027,9.78694,-0.0341311,0.0133623,-0.00618483,0
2024-12-11 20:58:24.426,-0.292223,2.31506,9.78694,-0.0280226,0.0127514,-0.00557398,0
2024-12-11 20:58:24.426,-0.292223,2.31506,9.78694,-0.0280226,0.0127514,-0.00557398,0
2024-12-11 20:58:24.427,-0.301795,2.32463,9.78694,-0.0280226,0.0127514,-0.00557398,0
2024-12-11 20:58:24.429,-0.297009,2.32702,9.7678,-0.0268009,0.00847551,-0.00740652,0
2024-12-11 20:58:24.430,-0.301795,2.32463,9.7678,-0.0268009,0.00847551,-0.00740652,0
2024-12-11 20:58:24.430,-0.297009,2.32702,9.7678,-0.0268009,0.00847551,-0.00740652,0
2024-12-11 20:58:24.434,-0.282652,2.32941,9.76302,-0.022525,0.00664296,-0.00496313,0
2024-12-11 20:58:24.434,-0.282652,2.32941,9.76302,-0.022525,0.00664296,-0.00496313,0
2024-12-11 20:58:24.436,-0.277567,2.33181,9.7343,-0.0200816,0.00297788,-0.00374144,0
2024-12-11 20:58:24.437,-0.277567,2.33181,9.7343,-0.0200816,0.00297788,-0.00374144,0
2024-12-11 20:58:24.440,-0.282652,2.33659,9.72234,-0.0139731,0.00297788,-0.00251974,0
2024-12-11 20:58:24.440,-0.282652,2.33659,9.72234,-0.0139731,0.00297788,-0.00251974,0
2024-12-11 20:58:24.441,-0.287438,2.33898,9.70798,-0.0139731,0.00297788,-0.00251974,0
2024-12-11 20:58:24.442,-0.287438,2.33898,9.70798,-0.0133623,0.00358873,-0.00313059,0
2024-12-11 20:58:24.444,-0.277567,2.32941,9.68884,-0.0133623,0.00358873,-0.00313059,0
2024-12-11 20:58:24.446,-0.272782,2.32941,9.6673,-0.010308,0.00236703,-0.00313059,0
2024-12-11 20:58:24.449,-0.260818,2.3342,9.64337,-0.0109189,-0.00313059,-0.000687203,0
2024-12-11 20:58:24.449,-0.260818,2.3342,9.64337,-0.0109189,-0.00313059,-0.000687203,0
2024-12-11 20:58:24.451,-0.241675,2.3342,9.60748,-0.0109189,-0.00313059,-0.000687203,0
2024-12-11 20:58:24.452,-0.241675,2.3342,9.60748,-0.00786466,-0.00374144,-0.00129805,0
2024-12-11 20:58:24.453,-0.222533,2.35095,9.56441,-0.00786466,-0.00374144,-0.00129805,0
2024-12-11 20:58:24.453,-0.222533,2.35095,9.56441,-0.00786466,-0.00374144,-0.00129805,0
2024-12-11 20:58:24.455,-0.205783,2.37488,9.5333,-0.0096972,-0.00923906,-0.000687203,0
2024-12-11 20:58:24.458,-0.198604,2.37248,9.51895,-0.0109189,-0.0110716,0.000534491,0
2024-12-11 20:58:24.460,-0.191426,2.36531,9.50459,-0.0109189,-0.0116825,-0.000687203,0
2024-12-11 20:58:24.461,-0.198604,2.37248,9.51895,-0.014584,-0.0159584,-0.0019089,0
2024-12-11 20:58:24.463,-0.181855,2.35573,9.5022,-0.0176382,-0.0141258,-0.0019089,0
2024-12-11 20:58:24.466,-0.181855,2.33898,9.50698,-0.0206925,-0.0141258,-0.000687203,0
2024-12-11 20:58:24.466,-0.181855,2.33898,9.50698,-0.0206925,-0.0141258,-0.000687203,0
2024-12-11 20:58:24.467,-0.189033,2.33898,9.49741,-0.0206925,-0.0141258,-0.000687203,0
2024-12-11 20:58:24.468,-0.189033,2.33898,9.49741,-0.0206925,-0.0141258,-0.000687203,0
2024-12-11 20:58:24.469,-0.184247,2.33659,9.49981,-0.0206925,-0.0141258,-0.000687203,0
2024-12-11 20:58:24.472,-0.184247,2.3342,9.50459,-0.0268009,-0.0116825,-0.00251974,0
2024-12-11 20:58:24.472,-0.184247,2.3342,9.50459,-0.0268009,-0.0116825,-0.00251974,0
2024-12-11 20:58:24.472,-0.184247,2.3342,9.50459,-0.0268009,-0.0116825,-0.00251974,0
2024-12-11 20:58:24.475,-0.20339,2.33898,9.5022,-0.0347419,-0.00740652,0.000534491,0
2024-12-11 20:58:24.476,-0.208176,2.34138,9.48545,-0.0347419,-0.00740652,0.000534491,0
2024-12-11 20:58:24.479,-0.205783,2.33898,9.44956,-0.0408504,-0.00618483,0.00114534,0
2024-12-11 20:58:24.481,-0.184247,2.3342,9.42802,-0.0487914,-0.00801737,-7.63559e-05,0
2024-12-11 20:58:24.482,-0.184247,2.3342,9.42802,-0.0524565,-0.00435229,-0.000687203,0
2024-12-11 20:58:24.485,-0.165105,2.33898,9.43041,-0.0573433,-0.00435229,-0.0019089,0
2024-12-11 20:58:24.486,-0.167498,2.35095,9.44238,-0.0573433,-0.00435229,-0.0019089,0
2024-12-11 20:58:24.486,-0.167498,2.35095,9.44238,-0.0573433,-0.00435229,-0.0019089,0
2024-12-11 20:58:24.487,-0.167498,2.35095,9.44238,-0.0628409,-0.00557398,-0.0019089,0
2024-12-11 20:58:24.488,-0.162712,2.34856,9.45434,-0.0628409,-0.00557398,-0.0019089,0
2024-12-11 20:58:24.491,-0.165105,2.34616,9.46391,-0.066506,-0.00251974,-0.00313059,0
2024-12-11 20:58:24.491,-0.165105,2.34616,9.46391,-0.066506,-0.00251974,-0.00313059,0
2024-12-11 20:58:24.491,-0.165105,2.34616,9.46391,-0.066506,-0.00251974,-0.00313059,0
2024-12-11 20:58:24.492,-0.165105,2.34616,9.46391,-0.0707819,-0.0019089,-0.00557398,0
2024-12-11 20:58:24.495,-0.160319,2.35573,9.49981,-0.0707819,-0.0019089,-0.00557398,0
2024-12-11 20:58:24.496,-0.160319,2.35573,9.49981,-0.0707819,-0.0019089,-0.00557398,0
2024-12-11 20:58:24.501,-0.198604,2.32223,9.47348,-0.082388,0.0231358,-0.00923906,0
2024-12-11 20:58:24.502,-0.208176,2.32223,9.46391,-0.082388,0.0231358,-0.00923906,0
2024-12-11 20:58:24.502,-0.208176,2.32223,9.46391,-0.082388,0.0231358,-0.00923906,0
2024-12-11 20:58:24.506,-0.22014,2.32463,9.44716,-0.0878856,0.0365745,-0.00801737,0
2024-12-11 20:58:24.507,-0.234497,2.31506,9.43281,-0.0878856,0.0365745,-0.00801737,0
2024-12-11 20:58:24.509,-0.239282,2.32463,9.41845,-0.090329,0.0414613,-0.00557398,0
2024-12-11 20:58:24.512,-0.236889,2.33898,9.41127,-0.0915507,0.0439046,-0.00618483,0
2024-12-11 20:58:24.514,-0.229711,2.32941,9.41845,-0.0927724,0.0432938,-0.00679568,0
2024-12-11 20:58:24.517,-0.200997,2.31984,9.41845,-0.0939941,0.0469589,-0.00496313,0
2024-12-11 20:58:24.520,-0.181855,2.33181,9.44956,-0.0952158,0.0445155,-0.00496313,0
2024-12-11 20:58:24.524,-0.198604,2.37248,9.50698,-0.0921616,0.0390179,-0.00435229,0
2024-12-11 20:58:24.525,-0.189033,2.37248,9.50698,-0.0915507,0.0310769,-0.00435229,0
2024-12-11 20:58:24.528,-0.215354,2.38445,9.56441,-0.0872748,0.0274118,-0.00496313,0
2024-12-11 20:58:24.528,-0.215354,2.38445,9.56441,-0.0872748,0.0274118,-0.00496313,0
2024-12-11 20:58:24.533,-0.189033,2.38684,9.60748,-0.0817772,0.0182491,-0.00740652,0
2024-12-11 20:58:24.533,-0.189033,2.38684,9.60748,-0.0817772,0.0182491,-0.00740652,0
2024-12-11 20:58:24.536,-0.177069,2.37966,9.61227,-0.0799446,0.0121406,-0.00740652,0
2024-12-11 20:58:24.538,-0.167498,2.39163,9.59791,-0.0787229,0.00847551,-0.00740652,0
2024-12-11 20:58:24.540,-0.143569,2.40838,9.5668,-0.0756687,0.00542127,-0.0110716,0
2024-12-11 20:58:24.542,-0.145962,2.41795,9.52134,-0.0738362,0.000534491,-0.0141258,0
2024-12-11 20:58:24.547,-0.138784,2.45145,9.47109,-0.0775012,-0.00801737,-0.0184018,0
2024-12-11 20:58:24.548,-0.138784,2.45145,9.47109,-0.0775012,-0.00801737,-0.0184018,0
2024-12-11 20:58:24.549,-0.141177,2.4658,9.46631,-0.0756687,-0.0110716,-0.0202343,0
2024-12-11 20:58:24.552,-0.143569,2.47777,9.47348,-0.082388,-0.0190126,-0.0226777,0
2024-12-11 20:58:24.554,-0.162712,2.4993,9.47348,-0.0884965,-0.0226777,-0.0232886,0
2024-12-11 20:58:24.557,-0.174676,2.51605,9.48066,-0.0878856,-0.0251211,-0.0232886,0
2024-12-11 20:58:24.559,-0.177069,2.52592,9.49741,-0.0939941,-0.0306187,-0.0263428,0
2024-12-11 20:58:24.562,-0.177069,2.52832,9.52613,-0.0988809,-0.0330621,-0.0251211,0
2024-12-11 20:58:24.564,-0.165105,2.52592,9.55245,-0.0988809,-0.0330621,-0.0251211,0
2024-12-11 20:58:24.567,-0.155533,2.50887,9.57159,-0.104989,-0.0318404,-0.029397,0
2024-12-11 20:58:24.568,-0.136391,2.48734,9.58595,-0.104989,-0.0318404,-0.029397,0
2024-12-11 20:58:24.571,-0.122034,2.45863,9.6003,-0.107433,-0.0287862,-0.0312296,0
2024-12-11 20:58:24.573,-0.12682,2.43948,9.62663,-0.108654,-0.0269536,-0.0342838,0
2024-12-11 20:58:24.575,-0.138784,2.4347,9.6338,-0.111709,-0.0257319,-0.0348946,0
2024-12-11 20:58:24.580,-0.141177,2.37727,9.64577,-0.117206,-0.0245102,-0.0391706,0
2024-12-11 20:58:24.582,-0.153141,2.36531,9.65773,-0.115985,-0.0220669,-0.041614,0
2024-12-11 20:58:24.583,-0.153141,2.36531,9.65773,-0.115985,-0.0220669,-0.041614,0
2024-12-11 20:58:24.585,-0.153141,2.36291,9.66012,-0.116595,-0.021456,-0.0428357,0
2024-12-11 20:58:24.590,-0.157926,2.34377,9.73191,-0.117817,-0.0184018,-0.0446682,0
2024-12-11 20:58:24.591,-0.157926,2.34377,9.73191,-0.117817,-0.0184018,-0.0446682,0
2024-12-11 20:58:24.594,-0.145962,2.32941,9.8013,-0.111098,-0.0171801,-0.0452791,0
2024-12-11 20:58:24.598,-0.12682,2.32702,9.83271,-0.111098,-0.0190126,-0.0465007,0
2024-12-11 20:58:24.599,-0.0933201,2.33659,9.86142,-0.106211,-0.0226777,-0.0483333,0
2024-12-11 20:58:24.599,-0.0933201,2.33659,9.86142,-0.106211,-0.0226777,-0.0483333,0
2024-12-11 20:58:24.604,-0.0574277,2.32941,9.89971,-0.100103,-0.033673,-0.0465007,0
2024-12-11 20:58:24.605,-0.0574277,2.32941,9.89971,-0.100103,-0.033673,-0.0465007,0
2024-12-11 20:58:24.606,-0.0334995,2.31266,9.89253,-0.0921616,-0.0446682,-0.0477224,0
2024-12-11 20:58:24.608,-0.00957129,2.29352,9.89492,-0.0842206,-0.0526092,-0.0477224,0
2024-12-11 20:58:24.613,0.0239282,2.27916,9.86621,-0.0750579,-0.0617719,-0.0489441,0
2024-12-11 20:58:24.616,0.0478565,2.26959,9.83749,-0.0548999,-0.081319,-0.0519984,0
2024-12-11 20:58:24.616,0.0478565,2.26959,9.83749,-0.0548999,-0.081319,-0.0519984,0
2024-12-11 20:58:24.618,0.0765703,2.27438,9.8013,-0.0457372,-0.0929251,-0.0538309,0
2024-12-11 20:58:24.620,0.107677,2.27438,9.75105,-0.0335202,-0.102699,-0.0556635,0
2024-12-11 20:58:24.622,0.138784,2.28156,9.69123,-0.0219141,-0.114305,-0.0581068,0
2024-12-11 20:58:24.626,0.179462,2.31506,9.63141,-0.00786466,-0.122857,-0.0593285,0
2024-12-11 20:58:24.627,0.208176,2.34377,9.55484,0.00496313,-0.13263,-0.0611611,0
2024-12-11 20:58:24.631,0.236889,2.34856,9.4687,0.0159584,-0.143015,-0.0636045,0
2024-12-11 20:58:24.632,0.27996,2.35334,9.39213,0.0275645,-0.147901,-0.0642153,0
2024-12-11 20:58:24.635,0.32333,2.37009,9.31795,0.0397814,-0.152788,-0.0660479,0
2024-12-11 20:58:24.637,0.375972,2.37966,9.21955,0.0519984,-0.160118,-0.0672696,0
2024-12-11 20:58:24.641,0.459721,2.4347,9.00898,0.0758214,-0.159507,-0.0703238,0
2024-12-11 20:58:24.642,0.459721,2.4347,9.00898,0.0758214,-0.159507,-0.0703238,0
2024-12-11 20:58:24.646,0.553041,2.55464,8.7697,0.0984228,-0.153399,-0.0745997,0
2024-12-11 20:58:24.646,0.553041,2.55464,8.7697,0.0984228,-0.153399,-0.0745997,0
2024-12-11 20:58:24.649,0.596112,2.59771,8.65215,0.107585,-0.148512,-0.0739889,0
2024-12-11 20:58:24.651,0.641576,2.65992,8.53969,0.114305,-0.143625,-0.0745997,0
2024-12-11 20:58:24.653,0.691825,2.70539,8.43919,0.121635,-0.13996,-0.0764323,0
2024-12-11 20:58:24.655,0.754038,2.76521,8.34347,0.128965,-0.135074,-0.0770431,0
2024-12-11 20:58:24.661,0.847657,2.88006,8.15683,0.131409,-0.127743,-0.0831516,0
2024-12-11 20:58:24.663,0.890728,2.94945,8.05843,0.131409,-0.127743,-0.0831516,0
2024-12-11 20:58:24.663,0.890728,2.94945,8.05843,0.131409,-0.127743,-0.0831516,0
2024-12-11 20:58:24.666,0.921835,3.02124,7.95793,0.122246,-0.125911,-0.0910926,0
2024-12-11 20:58:24.670,0.964906,3.13639,7.77847,0.113083,-0.130187,-0.0941468,0
2024-12-11 20:58:24.670,0.964906,3.13639,7.77847,0.113083,-0.130187,-0.0941468,0
2024-12-11 20:58:24.672,0.996012,3.19861,7.68754,0.105753,-0.136295,-0.102088,0
2024-12-11 20:58:24.679,1.07498,3.35175,7.45514,0.0617719,-0.165616,-0.121635,0
2024-12-11 20:58:24.681,1.0989,3.39242,7.40967,0.0422248,-0.179055,-0.128965,0
2024-12-11 20:58:24.688,1.12522,3.43789,7.33789,-0.0249684,-0.228533,-0.154621,0
2024-12-11 20:58:24.689,1.13719,3.42353,7.33789,-0.0249684,-0.228533,-0.154621,0
2024-12-11 20:58:24.694,1.18983,3.4666,7.30918,-0.11232,-0.290229,-0.184552,0
2024-12-11 20:58:24.694,1.18983,3.4666,7.30918,-0.11232,-0.290229,-0.184552,0
2024-12-11 20:58:24.698,1.21615,3.48335,7.3355,-0.144694,-0.313441,-0.198602,0
2024-12-11 20:58:24.698,1.24247,3.5001,7.3355,-0.144694,-0.313441,-0.198602,0
2024-12-11 20:58:24.703,1.30947,3.51446,7.46471,-0.211277,-0.353757,-0.224868,0
2024-12-11 20:58:24.703,1.30947,3.51446,7.46471,-0.211277,-0.353757,-0.224868,0
2024-12-11 20:58:24.705,1.32861,3.49771,7.53889,-0.246095,-0.369639,-0.239528,0
2024-12-11 20:58:24.708,1.32622,3.4666,7.64447,-0.246095,-0.369639,-0.252967,0
2024-12-11 20:58:24.710,1.34058,3.44985,7.75933,-0.315121,-0.393462,-0.267627,0
2024-12-11 20:58:24.710,1.34058,3.44985,7.75933,-0.315121,-0.393462,-0.267627,0
2024-12-11 20:58:24.712,1.35972,3.42353,7.88136,-0.352383,-0.398349,-0.279844,0
2024-12-11 20:58:24.715,1.3669,3.36371,8.04886,-0.385979,-0.404457,-0.29084,0
2024-12-11 20:58:24.717,1.38604,3.31585,8.22383,-0.4153,-0.407511,-0.303667,0
2024-12-11 20:58:24.718,1.38604,3.31585,8.22383,-0.445842,-0.410566,-0.314052,0
2024-12-11 20:58:24.719,1.37408,3.29193,8.37458,-0.445842,-0.410566,-0.314052,0
2024-12-11 20:58:24.721,1.34536,3.27278,8.52533,-0.478828,-0.408122,-0.324436,0
2024-12-11 20:58:24.724,1.32144,3.24646,8.67368,-0.513035,-0.405068,-0.332377,0
2024-12-11 20:58:24.726,1.28794,3.23211,8.84148,-0.535637,-0.395295,-0.338486,0
2024-12-11 20:58:24.726,1.28794,3.23211,8.84148,-0.535637,-0.395295,-0.338486,0
2024-12-11 20:58:24.728,1.23769,3.23211,9.0018,-0.568622,-0.38491,-0.343983,0
2024-12-11 20:58:24.731,1.18265,3.24407,9.15015,-0.5955,-0.373304,-0.346427,0
2024-12-11 20:58:24.734,1.1348,3.2656,9.31556,-0.654141,-0.344594,-0.345816,0
2024-12-11 20:58:24.736,1.08933,3.28714,9.48066,-0.654141,-0.344594,-0.345816,0
2024-12-11 20:58:24.741,0.979263,3.37328,9.77019,-0.698733,-0.298781,-0.34154,0
2024-12-11 20:58:24.741,0.979263,3.37328,9.77019,-0.698733,-0.298781,-0.34154,0
2024-12-11 20:58:24.743,0.897907,3.44028,9.93799,-0.717058,-0.271293,-0.336653,0
2024-12-11 20:58:24.745,0.813859,3.46899,10.1294,-0.737216,-0.240139,-0.328712,0
2024-12-11 20:58:24.747,0.73011,3.49771,10.3376,-0.755542,-0.205932,-0.318328,0
2024-12-11 20:58:24.750,0.646361,3.53121,10.5604,-0.765926,-0.171114,-0.308554,0
2024-12-11 20:58:24.755,0.52672,3.54556,10.9747,-0.783641,-0.0996445,-0.284731,0
2024-12-11 20:58:24.755,0.52672,3.54556,10.9747,-0.783641,-0.0996445,-0.284731,0
2024-12-11 20:58:24.759,0.421436,3.5671,11.4317,-0.788527,-0.0300079,-0.258465,0
2024-12-11 20:58:24.759,0.421436,3.5671,11.4317,-0.788527,-0.0300079,-0.258465,0
2024-12-11 20:58:24.761,0.354437,3.57189,11.6498,-0.786084,0.00481042,-0.243194,0
2024-12-11 20:58:24.764,0.301795,3.57428,11.8531,-0.781197,0.0335202,-0.229755,0
2024-12-11 20:58:24.766,0.265603,3.57428,11.9991,-0.771424,0.0628409,-0.216316,0
2024-12-11 20:58:24.769,0.232104,3.55992,12.1454,-0.758596,0.0921616,-0.200434,0
2024-12-11 20:58:24.776,0.00957129,3.6006,12.5258,-0.712782,0.169739,-0.158286,0
2024-12-11 20:58:24.778,-0.0358923,3.60778,12.612,-0.693235,0.193562,-0.141793,0
2024-12-11 20:58:24.778,-0.0358923,3.60778,12.612,-0.693235,0.193562,-0.141793,0
2024-12-11 20:58:24.780,-0.0574277,3.60778,12.6721,-0.672466,0.216164,-0.127743,0
2024-12-11 20:58:24.783,-0.0574277,3.62692,12.7128,-0.647422,0.237543,-0.114916,0
2024-12-11 20:58:24.785,-0.0502493,3.64367,12.7247,-0.626042,0.259534,-0.102088,0
2024-12-11 20:58:24.787,-0.0837488,3.65593,12.7032,-0.598554,0.277859,-0.0904818,0
2024-12-11 20:58:24.790,-0.0837488,3.65593,12.6912,-0.573509,0.294352,-0.0788757,0
2024-12-11 20:58:24.790,-0.157926,3.68943,12.6912,-0.573509,0.294352,-0.0788757,0
2024-12-11 20:58:24.793,-0.232104,3.69422,12.6721,-0.522198,0.323673,-0.0538309,0
2024-12-11 20:58:24.795,-0.304188,3.68704,12.6239,-0.522198,0.323673,-0.0538309,0
2024-12-11 20:58:24.797,-0.378365,3.69661,12.5593,-0.492877,0.338333,-0.0410031,0
2024-12-11 20:58:24.799,-0.442971,3.67986,12.4732,-0.464168,0.348107,-0.0263428,0
2024-12-11 20:58:24.801,-0.483649,3.64367,12.3847,-0.428128,0.35788,-0.00984991,0
2024-12-11 20:58:24.804,-0.519542,3.61735,12.2961,-0.398196,0.358491,0.00481042,0
2024-12-11 20:58:24.806,-0.555434,3.58385,12.1908,-0.364599,0.361545,0.0176382,0
2024-12-11 20:58:24.811,-0.598505,3.52642,12.0063,-0.330392,0.364599,0.0316877,0
2024-12-11 20:58:24.814,-0.627219,3.48096,11.901,-0.217996,0.357269,0.0616192,0
2024-12-11 20:58:24.816,-0.667897,3.44985,11.7718,-0.217996,0.357269,0.0616192,0
2024-12-11 20:58:24.819,-0.667897,3.44985,11.6115,-0.144694,0.340776,0.074447,0
2024-12-11 20:58:24.820,-0.727717,3.41875,11.4437,-0.144694,0.340776,0.074447,0
2024-12-11 20:58:24.821,-0.727717,3.41875,11.4437,-0.144694,0.340776,0.074447,0
2024-12-11 20:58:24.823,-0.780359,3.41635,11.281,-0.109876,0.334057,0.0787229,0
2024-12-11 20:58:24.825,-0.813859,3.3996,11.1111,-0.0787229,0.327949,0.0817772,0
2024-12-11 20:58:24.828,-0.852443,3.39003,10.946,-0.0787229,0.327949,0.0817772,0
2024-12-11 20:58:24.830,-0.878764,3.402,10.783,-0.00542127,0.316343,0.0854423,0
2024-12-11 20:58:24.833,-0.888335,3.40439,10.6298,0.0226777,0.309012,0.0848314,0
2024-12-11 20:58:24.834,-0.929013,3.39721,10.4623,0.0532201,0.30046,0.0860531,0
2024-12-11 20:58:24.838,-0.991227,3.40439,10.2897,0.104531,0.283968,0.0848314,0
2024-12-11 20:58:24.839,-1.03908,3.40917,10.1151,0.104531,0.283968,0.0848314,0
2024-12-11 20:58:24.844,-1.22572,3.4355,9.81805,0.147901,0.268086,0.0848314,0
2024-12-11 20:58:24.847,-1.27119,3.4355,9.66252,0.166227,0.258923,0.0854423,0
2024-12-11 20:58:24.849,-1.27119,3.44507,9.48784,0.18272,0.253425,0.0897182,0
2024-12-11 20:58:24.849,-1.26879,3.44507,9.48784,0.18272,0.253425,0.0897182,0
2024-12-11 20:58:24.851,-1.24487,3.44985,9.31795,0.18272,0.253425,0.0897182,0
2024-12-11 20:58:24.858,-1.14437,3.42592,8.84387,0.23342,0.247317,0.086664,0
2024-12-11 20:58:24.858,-1.10369,3.41157,8.84387,0.23342,0.247317,0.086664,0
2024-12-11 20:58:24.860,-1.04865,3.3996,8.70748,0.246248,0.252814,0.0811663,0
2024-12-11 20:58:24.861,-1.04865,3.3996,8.70748,0.246248,0.252814,0.0811663,0
2024-12-11 20:58:24.863,-0.972084,3.3996,8.57797,0.246248,0.252814,0.0811663,0
2024-12-11 20:58:24.865,-0.895514,3.40678,8.44876,0.263352,0.275416,0.0671168,0
2024-12-11 20:58:24.867,-0.835394,3.39721,8.32194,0.268849,0.281524,0.0567324,0
2024-12-11 20:58:24.871,-0.809073,3.39242,8.21187,0.275568,0.313288,0.0353528,0
2024-12-11 20:58:24.872,-0.797109,3.41396,8.10629,0.275568,0.313288,0.0353528,0
2024-12-11 20:58:24.875,-0.789931,3.42592,7.98186,0.275568,0.325505,0.0274118,0
2024-12-11 20:58:24.877,-0.816252,3.42592,7.82393,0.277401,0.343831,0.0176382,0
2024-12-11 20:58:24.882,-0.825823,3.44028,7.88136,0.275568,0.39392,0.000534491,0
2024-12-11 20:58:24.882,-0.825823,3.44028,7.88136,0.275568,0.39392,0.000534491,0
2024-12-11 20:58:24.885,-0.801895,3.46421,7.74736,0.268238,0.412856,-0.0159584,0
2024-12-11 20:58:24.889,-0.773181,3.44267,7.17757,0.2548,0.390866,-0.0251211,0
2024-12-11 20:58:24.889,-0.799502,3.44267,7.17757,0.2548,0.390866,-0.0251211,0
2024-12-11 20:58:24.892,-0.869193,3.45224,7.17518,0.243804,0.378649,-0.0324513,0
2024-12-11 20:58:24.893,-0.909871,3.45942,7.16082,0.237085,0.37193,-0.0428357,0
2024-12-11 20:58:24.896,-0.919442,3.46899,7.14886,0.224868,0.370097,-0.0507767,0
2024-12-11 20:58:24.900,-0.988834,3.51446,7.13929,0.20471,0.37193,-0.0623828,0
2024-12-11 20:58:24.903,-1.00798,3.57189,7.15364,0.198602,0.368265,-0.0672696,0
2024-12-11 20:58:24.905,-1.02951,3.61256,7.22064,0.187606,0.359102,-0.0697129,0
2024-12-11 20:58:24.907,-1.0654,3.6679,7.31635,0.187606,0.359102,-0.0697129,0
2024-12-11 20:58:24.908,-1.0654,3.6679,7.31635,0.187606,0.359102,-0.0697129,0
2024-12-11 20:58:24.911,-1.10848,3.72533,7.40967,0.162562,0.31451,-0.0721563,0
2024-12-11 20:58:24.913,-1.1683,3.7684,7.49342,0.162562,0.31451,-0.0721563,0
2024-12-11 20:58:24.915,-1.2329,3.81147,7.56282,0.159507,0.298017,-0.0672696,0
2024-12-11 20:58:24.917,-1.26879,3.85215,7.61815,0.155232,0.282135,-0.0617719,0
2024-12-11 20:58:24.919,-1.27597,3.88564,7.66361,0.152788,0.265642,-0.0532201,0
2024-12-11 20:58:24.924,-1.27358,3.92393,7.8,0.152177,0.254647,-0.037338,0
2024-12-11 20:58:24.927,-1.27358,3.91914,7.87179,0.152177,0.2351,-0.0263428,0
2024-12-11 20:58:24.929,-1.27119,3.90957,7.92922,0.151566,0.22105,-0.0177909,0
2024-12-11 20:58:24.930,-1.27358,3.90957,7.92922,0.148512,0.210055,-0.0110716,0
2024-12-11 20:58:24.931,-1.25444,3.91197,7.96032,0.148512,0.210055,-0.0110716,0
2024-12-11 20:58:24.933,-1.21137,3.92393,7.99621,0.148512,0.200282,-0.00313059,0
2024-12-11 20:58:24.936,-1.17069,3.93829,8.04168,0.144236,0.185621,0.00419957,0
2024-12-11 20:58:24.938,-1.13958,3.92393,8.07518,0.141182,0.17768,0.0133623,0
2024-12-11 20:58:24.940,-1.12522,3.90479,8.09911,0.135684,0.166074,0.0206925,0
2024-12-11 20:58:24.944,-1.12762,3.9,8.12543,0.131409,0.154468,0.0286335,0
2024-12-11 20:58:24.945,-1.1324,3.89282,8.15683,0.123468,0.14164,0.0365745,0
2024-12-11 20:58:24.949,-1.12283,3.88804,8.18555,0.105753,0.116595,0.0561216,0
2024-12-11 20:58:24.951,-1.0989,3.87368,8.20469,0.0959794,0.103768,0.0646735,0
2024-12-11 20:58:24.953,-1.09412,3.87129,8.24058,0.0959794,0.103768,0.0646735,0
2024-12-11 20:58:24.957,-1.09173,3.86411,8.32433,0.0758214,0.0799446,0.0872748,0
2024-12-11 20:58:24.957,-1.09173,3.86411,8.32433,0.0758214,0.0799446,0.0872748,0
2024-12-11 20:58:24.959,-1.09651,3.86411,8.39851,0.0648262,0.0658951,0.0994917,0
2024-12-11 20:58:24.962,-1.11326,3.8689,8.4679,0.0544418,0.0561216,0.11232,0
2024-12-11 20:58:24.964,-1.10608,3.87129,8.54208,0.0434465,0.042683,0.12698,0
2024-12-11 20:58:24.966,-1.08694,3.88086,8.62583,0.0324513,0.0322986,0.140419,0
2024-12-11 20:58:24.969,-1.06062,3.88086,8.71705,0.0238994,0.022525,0.154468,0
2024-12-11 20:58:24.971,-1.03908,3.89522,8.81277,0.0129041,0.0121406,0.169739,0
2024-12-11 20:58:24.976,-1.01994,3.91436,8.90609,-0.00481042,-0.000687203,0.197227,0
2024-12-11 20:58:24.977,-0.996012,3.91914,8.99941,-0.0096972,-0.000687203,0.211277,0
2024-12-11 20:58:24.978,-0.964906,3.92632,9.08794,-0.0096972,-0.000687203,0.211277,0
2024-12-11 20:58:24.982,-0.924228,3.93111,9.17887,-0.0188599,-0.000687203,0.223494,0
2024-12-11 20:58:24.983,-0.902692,3.92632,9.27488,-0.0261901,0.00236703,0.236322,0
2024-12-11 20:58:24.986,-0.881157,3.93111,9.3682,-0.0280226,0.00786466,0.247928,0
2024-12-11 20:58:24.990,-0.821037,3.97657,9.57877,-0.0390179,0.0200816,0.27114,0
2024-12-11 20:58:24.992,-0.789931,4.01246,9.67927,-0.0420721,0.0286335,0.282135,0
2024-12-11 20:58:24.993,-0.821037,4.01246,9.67927,-0.0420721,0.0286335,0.282135,0
2024-12-11 20:58:24.995,-0.742074,4.04357,9.78216,-0.042683,0.0353528,0.290687,0
2024-12-11 20:58:24.999,-0.665504,4.12014,9.95953,-0.0518457,0.0475697,0.309012,0
2024-12-11 20:58:25.000,-0.665504,4.12014,9.95953,-0.0518457,0.0475697,0.309012,0
2024-12-11 20:58:25.004,-0.54347,4.24008,10.1414,-0.0481806,0.0622301,0.322451,0
2024-12-11 20:58:25.004,-0.54347,4.24008,10.1414,-0.0481806,0.0622301,0.322451,0
2024-12-11 20:58:25.006,-0.498006,4.29033,10.2132,-0.0451263,0.0701711,0.325505,0
2024-12-11 20:58:25.009,-0.447757,4.32622,10.2754,-0.0390179,0.0756687,0.330392,0
2024-12-11 20:58:25.013,-0.347258,4.38126,10.3448,-0.0268009,0.0799446,0.331614,0
2024-12-11 20:58:25.014,-0.347258,4.38126,10.3448,-0.0268009,0.0799446,0.331614,0
2024-12-11 20:58:25.016,-0.292223,4.40279,10.3783,-0.0200816,0.0842206,0.331003,0
2024-12-11 20:58:25.019,-0.241675,4.40519,10.4192,-0.00542127,0.0750579,0.32917,0
2024-12-11 20:58:25.022,-0.179462,4.39801,10.436,-0.00542127,0.0750579,0.32917,0
2024-12-11 20:58:25.025,-0.0430708,4.41715,10.4312,0.0116825,0.0683385,0.317564,0
2024-12-11 20:58:25.029,0.0167498,4.41476,10.4216,0.0306187,0.0555107,0.298017,0
2024-12-11 20:58:25.030,0.081356,4.42433,10.4049,0.0306187,0.0555107,0.298017,0
2024-12-11 20:58:25.031,0.081356,4.42433,10.4049,0.0306187,0.0555107,0.298017,0
2024-12-11 20:58:25.032,0.138784,4.41954,10.4097,0.0306187,0.0555107,0.298017,0
2024-12-11 20:58:25.036,0.198604,4.41236,10.4336,0.0458899,0.0402396,0.272362,0
2024-12-11 20:58:25.037,0.239282,4.41715,10.4551,0.0562743,0.0298552,0.255258,0
2024-12-11 20:58:25.042,0.246461,4.43151,10.5221,0.0697129,0.00175619,0.219218,0
2024-12-11 20:58:25.043,0.246461,4.43151,10.5221,0.0697129,0.00175619,0.219218,0
2024-12-11 20:58:25.044,0.229711,4.45544,10.5676,0.0745997,-0.0159584,0.200282,0
2024-12-11 20:58:25.047,0.210568,4.47697,10.6059,0.0837624,-0.0367272,0.181956,0
2024-12-11 20:58:25.049,0.157926,4.50329,10.6418,0.0892601,-0.0562743,0.162409,0
2024-12-11 20:58:25.051,0.11007,4.53201,10.6825,0.0929251,-0.0788757,0.145916,0
2024-12-11 20:58:25.056,0.0646062,4.58704,10.7877,0.10331,-0.119802,0.111709,0
2024-12-11 20:58:25.056,0.0646062,4.58704,10.7877,0.10331,-0.119802,0.111709,0
2024-12-11 20:58:25.059,0.0334995,4.60858,10.8236,0.108807,-0.163783,0.0829989,0
2024-12-11 20:58:25.061,0.0,4.60618,10.8452,0.108807,-0.163783,0.0829989,0
2024-12-11 20:58:25.063,-0.0215354,4.59901,10.8763,0.111251,-0.18272,0.0713928,0
2024-12-11 20:58:25.065,-0.0287139,4.60858,10.9241,0.109418,-0.201045,0.058565,0
2024-12-11 20:58:25.070,-0.0239282,4.63968,11.0154,0.108196,-0.228533,0.0310769,0
2024-12-11 20:58:25.072,-0.0239282,4.63968,11.0154,0.106975,-0.241972,0.0206925,0
2024-12-11 20:58:25.072,-0.0143569,4.65404,11.0608,0.106975,-0.241972,0.0206925,0
2024-12-11 20:58:25.076,0.0,4.67079,11.1015,0.105142,-0.251135,0.00847551,0
2024-12-11 20:58:25.077,0.026321,4.666,11.1613,0.100255,-0.259686,-0.00313059,0
2024-12-11 20:58:25.080,0.0311067,4.64686,11.2068,0.093536,-0.263352,-0.0141258,0
2024-12-11 20:58:25.084,0.00478565,4.60618,11.3192,0.0880384,-0.26213,-0.0306187,0
2024-12-11 20:58:25.084,0.00478565,4.60618,11.3192,0.0880384,-0.26213,-0.0306187,0
2024-12-11 20:58:25.087,-0.00478565,4.57268,11.3982,0.0800973,-0.258465,-0.0403923,0
2024-12-11 20:58:25.090,-0.0287139,4.55354,11.47,0.0672696,-0.244415,-0.0507767,0
2024-12-11 20:58:25.092,-0.0550349,4.53918,11.5732,0.057496,-0.231587,-0.0532201,0
2024-12-11 20:58:25.094,-0.066999,4.53679,11.6737,0.057496,-0.231587,-0.0532201,0
2024-12-11 20:58:25.098,-0.0741775,4.51765,11.834,0.0483333,-0.201045,-0.0532201,0
2024-12-11 20:58:25.099,-0.0741775,4.51765,11.834,0.0403923,-0.183941,-0.0489441,0
2024-12-11 20:58:25.101,-0.0957129,4.5009,11.8747,0.0403923,-0.183941,-0.0489441,0
2024-12-11 20:58:25.103,-0.119641,4.5009,11.9106,0.0312296,-0.163173,-0.0458899,0
2024-12-11 20:58:25.105,-0.122034,4.51286,11.9632,0.0226777,-0.140571,-0.0391706,0
2024-12-11 20:58:25.108,-0.112463,4.50808,12.0206,0.00801737,-0.116748,-0.0306187,0
2024-12-11 20:58:25.110,-0.100499,4.50808,12.0808,-0.00175619,-0.0923143,-0.0232886,0
2024-12-11 20:58:25.112,-0.081356,4.52722,12.1358,-0.0164165,-0.0678804,-0.00984991,0
2024-12-11 20:58:25.115,-0.0502493,4.52243,12.1908,-0.0310769,-0.0397814,0.00175619,0
2024-12-11 20:58:25.118,-0.026321,4.50808,12.2698,-0.0567324,0.010308,0.0268009,0
2024-12-11 20:58:25.119,-0.0215354,4.5009,12.3488,-0.0567324,0.010308,0.0268009,0
2024-12-11 20:58:25.122,-0.0119641,4.48415,12.4134,-0.0720036,0.0371853,0.0402396,0
2024-12-11 20:58:25.124,0.00717847,4.46501,12.4708,-0.0891073,0.0610084,0.0567324,0
2024-12-11 20:58:25.127,0.026321,4.44347,12.5569,-0.104379,0.0878856,0.0720036,0
2024-12-11 20:58:25.129,0.0430708,4.42672,12.6458,-0.120871,0.116595,0.0909399,0
2024-12-11 20:58:25.131,0.0789631,4.40997,12.7295,-0.134921,0.137364,0.109876,0
2024-12-11 20:58:25.134,0.105284,4.38126,12.8228,-0.147138,0.161798,0.130645,0
2024-12-11 20:58:25.136,0.112463,4.3669,12.9257,-0.161798,0.18501,0.153246,0
2024-12-11 20:58:25.141,0.136391,4.35494,13.11,-0.183178,0.228381,0.196006,0
2024-12-11 20:58:25.141,0.136391,4.35494,13.11,-0.183178,0.228381,0.196006,0
2024-12-11 20:58:25.146,0.119641,4.34537,13.2897,-0.202725,0.265031,0.244263,0
2024-12-11 20:58:25.146,0.119641,4.34537,13.2897,-0.202725,0.265031,0.244263,0
2024-12-11 20:58:25.150,0.117248,4.32862,13.4429,-0.204557,0.30046,0.290076,0
2024-12-11 20:58:25.151,0.117248,4.32862,13.4429,-0.204557,0.30046,0.290076,0
2024-12-11 20:58:25.155,0.0933201,4.34776,13.5314,-0.200282,0.327338,0.341998,1
2024-12-11 20:58:25.155,0.107677,4.34776,13.5314,-0.200282,0.327338,0.341998,1
2024-12-11 20:58:25.157,0.0622134,4.35972,13.5577,-0.19173,0.342609,0.363989,0
2024-12-11 20:58:25.161,0.0478565,4.37408,13.5529,-0.170961,0.362156,0.410413,0
2024-12-11 20:58:25.164,0.0885344,4.47458,13.4596,-0.156301,0.373151,0.432404,0
2024-12-11 20:58:25.165,0.0885344,4.47458,13.4596,-0.14164,0.382314,0.450729,0
2024-12-11 20:58:25.167,0.16989,4.54876,13.3663,-0.14164,0.382314,0.450729,0
2024-12-11 20:58:25.169,0.292223,4.60858,13.2491,-0.125147,0.385368,0.462335,0
2024-12-11 20:58:25.171,0.421436,4.64925,13.1219,-0.125147,0.385368,0.462335,0
2024-12-11 20:58:25.174,0.536291,4.65404,12.9879,-0.0872748,0.392088,0.475163,0
2024-12-11 20:58:25.176,0.634397,4.62772,12.8492,-0.0726145,0.385979,0.470887,0
2024-12-11 20:58:25.178,0.708575,4.57029,12.7271,-0.0622301,0.370708,0.459281,0
2024-12-11 20:58:25.181,0.756431,4.47936,12.6362,-0.0481806,0.35055,0.44462,0
2024-12-11 20:58:25.183,0.773181,4.35254,12.5545,-0.0396287,0.320008,0.418965,0
2024-12-11 20:58:25.186,0.761217,4.20897,12.4828,-0.0353528,0.288854,0.39392,0
2024-12-11 20:58:25.188,0.725324,4.05075,12.4134,-0.0322986,0.245484,0.363989,0
2024-12-11 20:58:25.191,0.655932,3.8689,12.3703,-0.0310769,0.201503,0.331003,0
2024-12-11 20:58:25.193,0.569791,3.69183,12.3607,-0.0341311,0.150803,0.297406,0
2024-12-11 20:58:25.195,0.476471,3.51446,12.3775,-0.0408504,0.090329,0.262588,0
2024-12-11 20:58:25.197,0.392722,3.33739,12.4205,-0.0494023,0.0280226,0.225937,0
2024-12-11 20:58:25.200,0.330509,3.15553,12.5019,-0.0579541,-0.0385597,0.190508,0
2024-12-11 20:58:25.202,0.27996,2.98295,12.6215,-0.0671168,-0.101477,0.156301,0
2024-12-11 20:58:25.207,0.224925,2.61207,12.9353,-0.086664,-0.216927,0.0878856,0
2024-12-11 20:58:25.209,0.196211,2.41077,13.0908,-0.094605,-0.265184,0.0567324,0
2024-12-11 20:58:25.209,0.196211,2.41077,13.0908,-0.094605,-0.265184,0.0567324,0
2024-12-11 20:58:25.211,0.181855,2.24088,13.2467,-0.0994917,-0.306722,0.0255792,0
2024-12-11 20:58:25.214,0.165105,2.07577,13.3878,-0.108044,-0.340929,-0.00251974,0
2024-12-11 20:58:25.216,0.133998,1.94387,13.5147,-0.114152,-0.367196,-0.0275645,0
2024-12-11 20:58:25.218,0.105284,1.83141,13.596,-0.116595,-0.385521,-0.0507767,0
2024-12-11 20:58:25.221,0.0861416,1.71416,13.6439,-0.117206,-0.394073,-0.0678804,0
2024-12-11 20:58:25.224,0.0526421,1.63998,13.7109,-0.115985,-0.389797,-0.0929251,0
2024-12-11 20:58:25.226,0.0215354,1.5658,13.783,-0.115985,-0.389797,-0.0929251,0
2024-12-11 20:58:25.228,0.00239282,1.48205,13.8571,-0.108654,-0.37758,-0.0984228,0
2024-12-11 20:58:25.230,0.00239282,1.42941,13.9146,-0.0964375,-0.364752,-0.100866,0
2024-12-11 20:58:25.234,0.0167498,1.33819,13.9624,-0.0817772,-0.342762,-0.0996445,0
2024-12-11 20:58:25.235,0.0287139,1.20897,13.9911,-0.0634518,-0.310387,-0.0953685,0
2024-12-11 20:58:25.240,0.0693919,0.969691,13.9576,-0.00358873,-0.229144,-0.0788757,0
2024-12-11 20:58:25.241,0.0502493,1.08455,13.9792,0.0281753,-0.181498,-0.0648262,0
2024-12-11 20:58:25.244,0.114855,0.74686,13.8428,0.0660479,-0.130798,-0.0507767,0
2024-12-11 20:58:25.245,0.114855,0.74686,13.8428,0.0660479,-0.130798,-0.0507767,0
2024-12-11 20:58:25.247,0.131605,0.639183,13.7782,0.10392,-0.077654,-0.033673,0
2024-12-11 20:58:25.249,0.133998,0.550648,13.6893,0.149734,-0.0251211,-0.0159584,0
2024-12-11 20:58:25.252,0.141177,0.459721,13.5601,0.197991,0.0316877,0.00297788,0
2024-12-11 20:58:25.254,0.138784,0.392722,13.3878,0.247469,0.0848314,0.0249684,0
2024-12-11 20:58:25.256,0.119641,0.347258,13.1722,0.299392,0.141029,0.0475697,0
2024-12-11 20:58:25.258,0.0933201,0.308973,12.9305,0.350703,0.196006,0.0707819,0
2024-12-11 20:58:25.261,0.0789631,0.297009,12.6697,0.401403,0.243041,0.0939941,0
2024-12-11 20:58:25.263,0.081356,0.285045,12.3918,0.458823,0.293741,0.119039,0
2024-12-11 20:58:25.267,0.0837488,0.251246,12.1047,0.562667,0.36521,0.162409,0
2024-12-11 20:58:25.268,0.0765703,0.241675,11.7957,0.562667,0.36521,0.162409,0
2024-12-11 20:58:25.270,0.0454636,0.227318,11.4724,0.614589,0.392088,0.182567,0
2024-12-11 20:58:25.276,-0.0550349,0.177069,10.8404,0.708659,0.420187,0.216774,0
2024-12-11 20:58:25.276,-0.0550349,0.177069,10.8404,0.708659,0.420187,0.216774,0
2024-12-11 20:58:25.277,-0.0957129,0.174676,10.5293,0.708659,0.420187,0.216774,0
2024-12-11 20:58:25.282,-0.174676,0.145962,9.92603,0.832661,0.421408,0.255869,0
2024-12-11 20:58:25.283,-0.174676,0.145962,9.92603,0.832661,0.421408,0.255869,0
2024-12-11 20:58:25.284,-0.272782,0.181855,9.59791,0.863814,0.402472,0.267475,0
2024-12-11 20:58:25.287,-0.335294,0.196211,9.28924,0.891913,0.385368,0.279081,0
2024-12-11 20:58:25.289,-0.368794,0.191426,9.03291,0.920623,0.371319,0.287633,0
2024-12-11 20:58:25.291,-0.404686,0.200997,8.81277,0.944446,0.355437,0.293741,0
2024-12-11 20:58:25.294,-0.428614,0.184247,8.59472,0.966437,0.337111,0.298628,0
2024-12-11 20:58:25.297,-0.438186,0.155533,8.37937,1.00553,0.288854,0.299239,0
2024-12-11 20:58:25.298,-0.462114,0.12682,8.20708,1.00553,0.288854,0.299239,0
2024-12-11 20:58:25.301,-0.512363,0.0861416,8.05843,1.02263,0.259534,0.295574,0
2024-12-11 20:58:25.304,-0.605683,0.0622134,7.89811,1.04585,0.194173,0.286411,0
2024-12-11 20:58:25.307,-0.720539,0.0502493,7.71625,1.04585,0.194173,0.286411,0
2024-12-11 20:58:25.310,-0.938585,0.0430708,7.4001,1.06173,0.130645,0.277248,0
2024-12-11 20:58:25.313,-1.0343,0.0741775,7.24696,1.06112,0.100713,0.273583,0
2024-12-11 20:58:25.314,-1.0343,0.0741775,7.24696,1.06112,0.100713,0.273583,0
2024-12-11 20:58:25.315,-1.1348,0.11007,7.08186,1.05806,0.0738362,0.269918,0
2024-12-11 20:58:25.318,-1.25204,0.148355,6.92124,1.05501,0.0469589,0.265642,0
2024-12-11 20:58:25.320,-1.37169,0.196211,6.77049,1.04218,0.0219141,0.266864,0
2024-12-11 20:58:25.322,-1.46052,0.241675,6.64367,1.0263,-0.0019089,0.269918,0
2024-12-11 20:58:25.324,-1.52752,0.297009,6.51207,1.01286,-0.0226777,0.268696,0
2024-12-11 20:58:25.327,-1.59212,0.335294,6.40409,0.989649,-0.041614,0.27114,0
2024-12-11 20:58:25.330,-1.60887,0.368794,6.3347,0.937116,-0.065437,0.279081,0
2024-12-11 20:58:25.331,-1.60648,0.421436,6.26052,0.937116,-0.065437,0.279081,0
2024-12-11 20:58:25.335,-1.62084,0.478864,6.18874,0.909628,-0.073378,0.280913,0
2024-12-11 20:58:25.336,-1.61605,0.52672,6.12174,0.87481,-0.077654,0.284578,0
2024-12-11 20:58:25.339,-1.6017,0.567398,6.0667,0.843046,-0.0770431,0.287633,0
2024-12-11 20:58:25.343,-1.51555,0.651147,5.98774,0.763635,-0.0678804,0.292519,0
2024-12-11 20:58:25.346,-1.46291,0.663111,5.97817,0.720876,-0.0599394,0.29313,0
2024-12-11 20:58:25.348,-1.40279,0.658325,5.98056,0.677506,-0.0513875,0.29313,0
2024-12-11 20:58:25.348,-1.40279,0.658325,5.98056,0.677506,-0.0513875,0.29313,0
2024-12-11 20:58:25.350,-1.35015,0.639183,5.97817,0.634136,-0.0379489,0.29313,0
2024-12-11 20:58:25.353,-1.31186,0.641576,5.95424,0.585268,-0.0287862,0.292519,0
2024-12-11 20:58:25.355,-1.27119,0.65354,5.93749,0.535179,-0.013515,0.290076,0
2024-12-11 20:58:25.357,-1.21376,0.660718,5.92553,0.483257,0.00297788,0.2858,0
2024-12-11 20:58:25.360,-1.16112,0.658325,5.91117,0.483257,0.00297788,0.2858,0
2024-12-11 20:58:25.364,-1.12283,0.658325,5.89681,0.321382,0.0579541,0.274194,0
2024-12-11 20:58:25.364,-1.08455,0.682254,5.91596,0.321382,0.0579541,0.274194,0
2024-12-11 20:58:25.367,-1.05344,0.706182,5.94467,0.264573,0.0799446,0.270529,0
2024-12-11 20:58:25.372,-1.02473,0.794716,6.02363,0.144847,0.114763,0.254036,0
2024-12-11 20:58:25.373,-1.02473,0.794716,6.02363,0.144847,0.114763,0.254036,0
2024-12-11 20:58:25.374,-0.991227,0.82343,6.09302,0.0880384,0.130034,0.249149,0
2024-12-11 20:58:25.376,-0.97687,0.862014,6.16959,0.0330621,0.144694,0.240597,0
2024-12-11 20:58:25.379,-0.97687,0.919442,6.26291,-0.0231358,0.158744,0.232656,0
2024-12-11 20:58:25.383,-0.955334,1.03669,6.49053,-0.128812,0.182567,0.222272,0
2024-12-11 20:58:25.384,-0.962513,0.984048,6.49053,-0.128812,0.182567,0.222272,0
2024-12-11 20:58:25.386,-0.950549,1.07976,6.61496,-0.175237,0.190508,0.215553,0
2024-12-11 20:58:25.388,-0.952942,1.13719,6.75853,-0.22044,0.196006,0.210055,0
2024-12-11 20:58:25.390,-0.957727,1.18026,6.92842,-0.258312,0.203336,0.203947,0
2024-12-11 20:58:25.393,-0.948156,1.21137,7.08904,-0.293741,0.205779,0.198449,0
2024-12-11 20:58:25.395,-0.952942,1.2329,7.24457,-0.323062,0.210055,0.192341,0
2024-12-11 20:58:25.400,-0.919442,1.25204,7.54846,-0.370708,0.214331,0.183178,0
2024-12-11 20:58:25.400,-0.919442,1.25204,7.54846,-0.370708,0.214331,0.183178,0
2024-12-11 20:58:25.402,-0.914656,1.25922,7.68993,-0.384147,0.214942,0.175848,0
2024-12-11 20:58:25.404,-0.917049,1.25683,7.82632,-0.392698,0.21372,0.167907,0
2024-12-11 20:58:25.407,-0.912264,1.25922,7.96272,-0.40125,0.211888,0.164242,0
2024-12-11 20:58:25.409,-0.907478,1.28794,8.08953,-0.409802,0.208223,0.156911,0
2024-12-11 20:58:25.414,-0.912264,1.31186,8.31715,-0.40797,0.196616,0.14836,0
2024-12-11 20:58:25.416,-0.912264,1.32861,8.42722,-0.403694,0.189286,0.145305,0
2024-12-11 20:58:25.417,-0.897907,1.32861,8.42722,-0.403694,0.189286,0.145305,0
2024-12-11 20:58:25.419,-0.9003,1.35494,8.51576,-0.395753,0.178902,0.142251,0
2024-12-11 20:58:25.423,-0.864407,1.42702,8.6354,-0.387201,0.164242,0.136753,0
2024-12-11 20:58:25.426,-0.845265,1.4677,8.69761,-0.365821,0.136753,0.136143,0
2024-12-11 20:58:25.428,-0.801895,1.49402,8.75294,-0.351772,0.122093,0.135532,0
2024-12-11 20:58:25.428,-0.801895,1.49402,8.75294,-0.351772,0.122093,0.135532,0
2024-12-11 20:58:25.431,-0.749253,1.52513,8.78166,-0.337111,0.103768,0.133088,0
2024-12-11 20:58:25.434,-0.706182,1.55623,8.79123,-0.323062,0.0884965,0.128202,0
2024-12-11 20:58:25.436,-0.65354,1.59691,8.8008,-0.293741,0.0451263,0.122704,0
2024-12-11 20:58:25.438,-0.584148,1.63998,8.81516,-0.293741,0.0451263,0.122704,0
2024-12-11 20:58:25.440,-0.517149,1.68784,8.81277,-0.276027,0.0274118,0.11965,0
2024-12-11 20:58:25.442,-0.483649,1.72134,8.80319,-0.259534,0.00664296,0.117206,0
2024-12-11 20:58:25.448,-0.447757,1.74527,8.7697,-0.232656,-0.0355055,0.11293,0
2024-12-11 20:58:25.449,-0.447757,1.77398,8.75055,-0.211277,-0.0532201,0.111709,0
2024-12-11 20:58:25.449,-0.426222,1.77398,8.75055,-0.211277,-0.0532201,0.111709,0
2024-12-11 20:58:25.452,-0.3999,1.78594,8.7003,-0.197838,-0.0715455,0.110487,0
2024-12-11 20:58:25.454,-0.371187,1.78355,8.64497,-0.182567,-0.0892601,0.111709,0
2024-12-11 20:58:25.457,-0.349651,1.81944,8.58993,-0.166074,-0.105142,0.11293,0
2024-12-11 20:58:25.459,-0.330509,1.86969,8.52533,-0.156301,-0.123468,0.114152,0
2024-12-11 20:58:25.462,-0.301795,1.90319,8.4344,-0.128812,-0.150956,0.118428,0
2024-12-11 20:58:25.466,-0.198604,1.97049,8.25972,-0.120871,-0.164394,0.11965,0
2024-12-11 20:58:25.467,-0.198604,1.97049,8.25972,-0.120871,-0.164394,0.11965,0
2024-12-11 20:58:25.468,-0.143569,1.99442,8.17358,-0.114152,-0.17539,0.122093,0
2024-12-11 20:58:25.470,-0.0789631,2.04467,8.11107,-0.104379,-0.184552,0.122704,0
2024-12-11 20:58:25.473,-0.026321,2.09731,8.05125,-0.0939941,-0.192493,0.122704,0
2024-12-11 20:58:25.475,0.0119641,2.1332,7.97229,-0.0891073,-0.196158,0.122704,0
2024-12-11 20:58:25.478,0.0454636,2.16192,7.9005,-0.0848314,-0.195547,0.123315,0
2024-12-11 20:58:25.481,0.066999,2.19063,7.81675,-0.0775012,-0.196158,0.124536,0
2024-12-11 20:58:25.482,0.0885344,2.21934,7.73779,-0.0817772,-0.196158,0.126369,0
2024-12-11 20:58:25.486,0.105284,2.25284,7.69233,-0.0781121,-0.186385,0.132477,0
2024-12-11 20:58:25.487,0.107677,2.27916,7.6349,-0.0781121,-0.186385,0.132477,0
2024-12-11 20:58:25.489,0.117248,2.29831,7.57986,-0.0793338,-0.179665,0.136143,0
2024-12-11 20:58:25.494,0.16989,2.32463,7.50778,-0.0872748,-0.163783,0.147749,0
2024-12-11 20:58:25.496,0.20339,2.35334,7.47907,-0.0909399,-0.155232,0.153246,0
2024-12-11 20:58:25.496,0.20339,2.35334,7.47907,-0.0909399,-0.155232,0.153246,0
2024-12-11 20:58:25.500,0.227318,2.37009,7.47428,-0.101935,-0.129576,0.166074,0
2024-12-11 20:58:25.502,0.241675,2.38684,7.47428,-0.108044,-0.113694,0.174015,0
2024-12-11 20:58:25.507,0.282652,2.45384,7.48624,-0.113541,-0.0959794,0.180734,0
2024-12-11 20:58:25.507,0.282652,2.45384,7.48624,-0.113541,-0.0959794,0.180734,0
2024-12-11 20:58:25.508,0.292223,2.49212,7.49103,-0.121482,-0.0752106,0.190508,0
2024-12-11 20:58:25.510,0.27996,2.53071,7.5006,-0.128202,-0.0532201,0.198449,0
2024-12-11 20:58:25.513,0.272782,2.5666,7.52692,-0.133088,-0.0287862,0.205779,0
2024-12-11 20:58:25.519,0.263211,2.61685,7.56282,-0.145305,0.0371853,0.235711,0
2024-12-11 20:58:25.519,0.263211,2.61685,7.56282,-0.145305,0.0371853,0.235711,0
2024-12-11 20:58:25.520,0.253639,2.65514,7.58226,-0.145305,0.0371853,0.235711,0
2024-12-11 20:58:25.525,0.20339,2.70539,7.64926,-0.153857,0.0756687,0.252814,0
2024-12-11 20:58:25.526,0.20339,2.70539,7.64926,-0.153857,0.0756687,0.252814,0
2024-12-11 20:58:25.527,0.160319,2.72692,7.69711,-0.150192,0.0933833,0.260755,0
2024-12-11 20:58:25.529,0.114855,2.73171,7.74975,-0.149581,0.111098,0.27114,0
2024-12-11 20:58:25.532,0.0909273,2.73888,7.80958,-0.144084,0.130034,0.279692,0
2024-12-11 20:58:25.534,0.0765703,2.75803,7.84786,-0.138586,0.144694,0.288244,0
2024-12-11 20:58:25.536,0.0574277,2.76999,7.86222,-0.133699,0.157522,0.296795,0
2024-12-11 20:58:25.539,0.040678,2.77956,7.8694,-0.131256,0.170961,0.303515,0
2024-12-11 20:58:25.541,0.0143569,2.78913,7.86461,-0.123926,0.183178,0.310845,0
2024-12-11 20:58:25.543,-0.0191426,2.79392,7.8694,-0.117206,0.19173,0.320008,0
2024-12-11 20:58:25.546,-0.026321,2.80349,7.89572,-0.109265,0.196006,0.324894,0
2024-12-11 20:58:25.548,-0.0311067,2.84417,7.92443,-0.104379,0.197838,0.329781,0
2024-12-11 20:58:25.552,-0.040678,2.8681,7.93879,-0.0964375,0.19906,0.334057,0
2024-12-11 20:58:25.553,-0.0287139,2.87528,7.94597,-0.0884965,0.195395,0.337111,0
2024-12-11 20:58:25.555,-0.0119641,2.8992,7.96032,-0.0775012,0.194784,0.337111,0
2024-12-11 20:58:25.558,-0.00239282,2.93749,7.9675,-0.0683385,0.192341,0.33589,0
2024-12-11 20:58:25.560,0.00957129,2.94945,7.96032,-0.0628409,0.185621,0.333446,0
2024-12-11 20:58:25.562,0.0143569,2.95663,7.94597,-0.0561216,0.180124,0.327949,0
2024-12-11 20:58:25.565,0.0167498,2.98295,7.92922,-0.0512348,0.171572,0.320008,0
2024-12-11 20:58:25.569,0.00478565,3.0021,7.91247,-0.0432938,0.149581,0.298628,0
2024-12-11 20:58:25.570,0.00478565,3.0021,7.91247,-0.0432938,0.149581,0.298628,0
2024-12-11 20:58:25.572,-0.026321,3.01167,7.90768,-0.0420721,0.136753,0.287022,0
2024-12-11 20:58:25.576,-0.0981057,3.04038,7.91247,-0.042683,0.103768,0.260145,0
2024-12-11 20:58:25.576,-0.0981057,3.04038,7.91247,-0.042683,0.103768,0.260145,0
2024-12-11 20:58:25.580,-0.138784,3.04517,7.92922,-0.042683,0.0860531,0.244873,0
2024-12-11 20:58:25.581,-0.184247,3.07388,7.96989,-0.0469589,0.0640626,0.228381,0
2024-12-11 20:58:25.585,-0.217747,3.11246,8.02254,-0.0542891,0.0213033,0.192341,0
2024-12-11 20:58:25.586,-0.253639,3.14357,8.07757,-0.0542891,0.0213033,0.192341,0
2024-12-11 20:58:25.588,-0.289831,3.17946,8.15205,-0.0548999,-7.63559e-05,0.170961,0
2024-12-11 20:58:25.593,-0.368794,3.268,8.28844,-0.0616192,-0.0397814,0.127591,0
2024-12-11 20:58:25.595,-0.409472,3.31107,8.37219,-0.0561216,-0.0623828,0.1056,0
2024-12-11 20:58:25.596,-0.409472,3.31107,8.37219,-0.0561216,-0.0623828,0.1056,0
2024-12-11 20:58:25.598,-0.452543,3.34457,8.47986,-0.0573433,-0.0849841,0.0836097,0
2024-12-11 20:58:25.602,-0.471685,3.40678,8.70748,-0.0494023,-0.125911,0.0377962,0
2024-12-11 20:58:25.602,-0.495613,3.40678,8.70748,-0.0494023,-0.125911,0.0377962,0
2024-12-11 20:58:25.605,-0.52672,3.43789,8.82234,-0.0396287,-0.147901,0.0151948,0
2024-12-11 20:58:25.607,-0.553041,3.47617,8.92523,-0.0365745,-0.171114,-0.00618483,0
2024-12-11 20:58:25.610,-0.581755,3.50967,9.03291,-0.0310769,-0.193715,-0.0269536,0
2024-12-11 20:58:25.612,-0.574577,3.54078,9.13819,-0.0200816,-0.220592,-0.0471116,0
2024-12-11 20:58:25.616,-0.514756,3.62692,9.26531,-0.00297788,-0.273736,-0.0886492,0
2024-12-11 20:58:25.619,-0.514756,3.62692,9.26531,0.0019089,-0.298781,-0.108807,0
2024-12-11 20:58:25.619,-0.4669,3.66551,9.31556,0.0019089,-0.298781,-0.108807,0
2024-12-11 20:58:25.622,-0.419043,3.7014,9.39691,0.00984991,-0.321382,-0.127743,0
2024-12-11 20:58:25.624,-0.378365,3.7325,9.49741,0.00984991,-0.321382,-0.127743,0
2024-12-11 20:58:25.626,-0.347258,3.76122,9.58116,0.0171801,-0.361698,-0.165005,0
2024-12-11 20:58:25.628,-0.318545,3.7995,9.67448,0.0177909,-0.37758,-0.181498,0
2024-12-11 20:58:25.632,-0.301795,3.85215,9.78455,0.0184018,-0.396516,-0.196158,0
2024-12-11 20:58:25.633,-0.289831,3.88325,9.88056,0.0202343,-0.411787,-0.208986,0
2024-12-11 20:58:25.636,-0.265603,3.92872,9.97149,0.0159584,-0.427669,-0.221203,0
2024-12-11 20:58:25.638,-0.251246,3.99093,10.0552,0.0159584,-0.427669,-0.221203,0
2024-12-11 20:58:25.641,-0.22014,4.02921,10.1438,0.00923906,-0.445384,-0.238307,0
2024-12-11 20:58:25.642,-0.179462,4.07229,10.2419,0.00923906,-0.445384,-0.238307,0
2024-12-11 20:58:25.645,-0.148355,4.11536,10.3424,0.00740652,-0.448438,-0.251745,0
2024-12-11 20:58:25.648,-0.112463,4.14886,10.4432,-0.00542127,-0.453936,-0.26213,0
2024-12-11 20:58:25.650,-0.0741775,4.18235,10.5437,-0.00542127,-0.453936,-0.26213,0
2024-12-11 20:58:25.653,-0.0454636,4.22572,10.6657,-0.00786466,-0.452103,-0.267627,0
2024-12-11 20:58:25.654,-0.00957129,4.24726,10.7925,-0.0115297,-0.447217,-0.272514,0
2024-12-11 20:58:25.659,0.0143569,4.33101,11.0154,-0.0200816,-0.433778,-0.278012,0
2024-12-11 20:58:25.660,0.0143569,4.33101,11.0154,-0.0200816,-0.433778,-0.278012,0
2024-12-11 20:58:25.662,0.0382852,4.39083,11.1278,-0.0255792,-0.423394,-0.285953,0
2024-12-11 20:58:25.664,0.0478565,4.44586,11.2283,-0.0286335,-0.423394,-0.285953,0
2024-12-11 20:58:25.668,0.0574277,4.52243,11.4078,-0.042683,-0.416063,-0.289007,0
2024-12-11 20:58:25.668,0.0789631,4.52243,11.4078,-0.042683,-0.416063,-0.289007,0
2024-12-11 20:58:25.671,0.0765703,4.54397,11.5062,-0.0494023,-0.411177,-0.29084,0
2024-12-11 20:58:25.673,0.0741775,4.56551,11.578,-0.0542891,-0.409344,-0.291451,0
2024-12-11 20:58:25.676,0.0741775,4.58226,11.6354,-0.0628409,-0.411177,-0.29084,0
2024-12-11 20:58:25.679,0.0693919,4.57986,11.712,-0.0683385,-0.410566,-0.292061,0
2024-12-11 20:58:25.680,0.0717847,4.57747,11.8053,-0.0811663,-0.414231,-0.29084,0
2024-12-11 20:58:25.682,0.0789631,4.57747,11.9154,-0.0878856,-0.419118,-0.292061,0
2024-12-11 20:58:25.685,0.0957129,4.55115,12.0422,-0.0958267,-0.421561,-0.289007,0
2024-12-11 20:58:25.687,0.107677,4.51047,12.2004,-0.104989,-0.421561,-0.285953,0
2024-12-11 20:58:25.692,0.119641,4.48654,12.3847,-0.123926,-0.410566,-0.278012,0
2024-12-11 20:58:25.694,0.148355,4.44586,12.7558,-0.13431,-0.39957,-0.275568,0
2024-12-11 20:58:25.694,0.172283,4.44586,12.7558,-0.13431,-0.39957,-0.275568,0
2024-12-11 20:58:25.698,0.181855,4.41954,12.9664,-0.149581,-0.364752,-0.265184,0
2024-12-11 20:58:25.700,0.184247,4.4004,13.1483,-0.149581,-0.364752,-0.265184,0
2024-12-11 20:58:25.701,0.172283,4.4004,13.2802,-0.16302,-0.350092,-0.259686,0
2024-12-11 20:58:25.704,0.160319,4.40997,13.3878,-0.169739,-0.328712,-0.251745,0
2024-12-11 20:58:25.707,0.150748,4.41715,13.5051,-0.200282,-0.279844,-0.238918,0
2024-12-11 20:58:25.709,0.131605,4.43151,13.6391,-0.200282,-0.279844,-0.238918,0
2024-12-11 20:58:25.711,0.102891,4.45783,13.7854,-0.211888,-0.251745,-0.230977,0
2024-12-11 20:58:25.714,0.0789631,4.45304,13.9457,-0.2351,-0.183941,-0.213262,0
2024-12-11 20:58:25.716,0.066999,4.43629,14.118,-0.2351,-0.183941,-0.213262,0
2024-12-11 20:58:25.718,0.0550349,4.42672,14.2998,-0.246095,-0.147291,-0.201045,0
2024-12-11 20:58:25.720,0.0478565,4.40758,14.4748,-0.257701,-0.108196,-0.189439,0
2024-12-11 20:58:25.723,0.0382852,4.37408,14.6207,-0.257701,-0.108196,-0.189439,0
2024-12-11 20:58:25.726,0.0311067,4.34537,14.7547,-0.266253,0.0151948,-0.159507,0
2024-12-11 20:58:25.727,0.0191426,4.35254,14.8433,-0.266253,0.0151948,-0.159507,0
2024-12-11 20:58:25.730,-0.0119641,4.40519,14.8819,-0.266864,0.058565,-0.149734,0
2024-12-11 20:58:25.735,-0.0765703,4.66122,14.8457,-0.25648,0.190508,-0.11797,0
2024-12-11 20:58:25.735,-0.0765703,4.66122,14.8457,-0.25648,0.190508,-0.11797,0
2024-12-11 20:58:25.739,-0.0885344,4.83619,14.7978,-0.25648,0.190508,-0.11797,0
2024-12-11 20:58:25.742,-0.0885344,5.12333,14.659,-0.240597,0.246706,-0.0947577,1
2024-12-11 20:58:25.742,-0.0885344,5.12333,14.659,-0.240597,0.246706,-0.0947577,1
2024-12-11 20:58:25.744,-0.0789631,5.1688,14.6112,-0.233878,0.255258,-0.0892601,0
2024-12-11 20:58:25.746,-0.0430708,5.14248,14.5537,-0.228381,0.250982,-0.0831516,0
2024-12-11 20:58:25.748,0.0167498,5.05873,14.5083,-0.217385,0.232656,-0.0794865,0
2024-12-11 20:58:25.751,0.0837488,4.91755,14.4772,-0.210666,0.203336,-0.0843733,0
2024-12-11 20:58:25.754,0.16989,4.73779,14.4317,-0.200892,0.126369,-0.105753,0
2024-12-11 20:58:25.755,0.277567,4.51765,14.3934,-0.200892,0.126369,-0.105753,0
2024-12-11 20:58:25.759,0.375972,4.2664,14.3599,-0.188675,0.0329094,-0.13935,0
2024-12-11 20:58:25.760,0.459721,4.00529,14.3121,-0.188675,0.0329094,-0.13935,0
2024-12-11 20:58:25.764,0.533899,3.77318,14.2567,-0.180124,-0.0147367,-0.163173,0
2024-12-11 20:58:25.768,0.605683,3.32064,14.1084,-0.185621,-0.150956,-0.237085,0
2024-12-11 20:58:25.770,0.605683,3.32064,14.1084,-0.185621,-0.150956,-0.237085,0
2024-12-11 20:58:25.770,0.598505,3.09811,14.0749,-0.185621,-0.150956,-0.237085,0
2024-12-11 20:58:25.774,0.474078,2.63121,14.0031,-0.204557,-0.212651,-0.273736,0
2024-12-11 20:58:25.777,0.387936,2.41077,13.9433,-0.219218,-0.229144,-0.290229,0
2024-12-11 20:58:25.778,0.387936,2.41077,13.9433,-0.238765,-0.232809,-0.300613,0
2024-12-11 20:58:25.780,0.30658,2.19781,13.9098,-0.257701,-0.22609,-0.310387,0
2024-12-11 20:58:25.781,0.217747,2.01356,13.9385,-0.257701,-0.22609,-0.310387,0
2024-12-11 20:58:25.784,0.143569,1.84816,13.9887,-0.277859,-0.202267,-0.318328,0
2024-12-11 20:58:25.786,0.0789631,1.6998,14.027,-0.294963,-0.172946,-0.323825,0
2024-12-11 20:58:25.788,0.00478565,1.5658,14.0988,-0.313899,-0.130798,-0.328101,0
2024-12-11 20:58:25.791,-0.066999,1.44616,14.1778,-0.324284,-0.0807082,-0.329934,0
2024-12-11 20:58:25.794,-0.148355,1.29272,14.2878,-0.344442,0.0310769,-0.331156,0
2024-12-11 20:58:25.795,-0.232104,1.14676,14.415,-0.344442,0.0310769,-0.331156,0
2024-12-11 20:58:25.800,-0.316152,1.0008,14.6375,-0.334057,0.15569,-0.329323,0
2024-12-11 20:58:25.800,-0.402293,0.830609,14.6375,-0.334057,0.15569,-0.329323,0
2024-12-11 20:58:25.804,-0.476471,0.684646,14.7189,-0.324894,0.21372,-0.324436,0
2024-12-11 20:58:25.805,-0.533899,0.555434,14.7858,-0.309012,0.27114,-0.321382,0
2024-12-11 20:58:25.810,-0.576969,0.287438,14.8866,-0.254647,0.363989,-0.311608,0
2024-12-11 20:58:25.811,-0.576969,0.287438,14.8866,-0.254647,0.363989,-0.311608,0
2024-12-11 20:58:25.814,-0.531506,0.0981057,14.8672,-0.217996,0.405526,-0.304889,0
2024-12-11 20:58:25.814,-0.531506,0.0981057,14.8672,-0.217996,0.405526,-0.304889,0
2024-12-11 20:58:25.817,-0.488435,0.0598206,14.8098,-0.131256,0.466611,-0.300613,0
2024-12-11 20:58:25.819,-0.407079,0.0550349,14.7236,-0.0854423,0.48738,-0.296948,0
2024-12-11 20:58:25.824,-0.229711,0.117248,14.3982,0.0190126,0.50937,-0.298781,0
2024-12-11 20:58:25.825,-0.229711,0.117248,14.3982,0.0807082,0.5167,-0.296948,0
2024-12-11 20:58:25.826,-0.153141,0.133998,14.1969,0.0807082,0.5167,-0.296948,0
2024-12-11 20:58:25.828,-0.0550349,0.150748,13.984,0.140571,0.514868,-0.298781,0
2024-12-11 20:58:25.831,0.0287139,0.189033,13.7324,0.200434,0.506316,-0.300002,0
2024-12-11 20:58:25.833,0.105284,0.205783,13.4453,0.266406,0.492267,-0.303667,0
2024-12-11 20:58:25.836,0.181855,0.200997,13.1339,0.330545,0.470276,-0.303667,0
2024-12-11 20:58:25.839,0.258425,0.191426,12.7965,0.457601,0.414078,-0.311608,0
2024-12-11 20:58:25.840,0.335294,0.18664,12.4397,0.457601,0.414078,-0.311608,0
2024-12-11 20:58:25.843,0.392722,0.155533,12.0808,0.52174,0.377427,-0.313441,0
2024-12-11 20:58:25.846,0.419043,0.119641,11.7335,0.578549,0.337722,-0.315884,0
2024-12-11 20:58:25.847,0.426222,0.114855,11.3743,0.637801,0.293741,-0.316495,0
2024-12-11 20:58:25.850,0.402293,0.0909273,10.9986,0.695221,0.247317,-0.315274,0
2024-12-11 20:58:25.852,0.371187,0.0693919,10.6346,0.748975,0.197227,-0.314052,0
2024-12-11 20:58:25.855,0.35683,0.066999,10.2969,0.796621,0.146527,-0.311608,0
2024-12-11 20:58:25.857,0.354437,0.0478565,9.97149,0.844878,0.0952158,-0.3055,0
2024-12-11 20:58:25.859,0.352044,0.0334995,9.6697,0.887637,0.0420721,-0.299392,0
2024-12-11 20:58:25.862,0.364008,0.0215354,9.36581,0.927953,-0.013515,-0.295116,0
2024-12-11 20:58:25.866,0.368794,0.0119641,8.84148,1.00126,-0.124078,-0.281066,0
2024-12-11 20:58:25.866,0.364008,0.0191426,8.84148,1.00126,-0.124078,-0.281066,0
2024-12-11 20:58:25.871,0.371187,0.0574277,8.38176,1.06539,-0.228533,-0.267017,0
2024-12-11 20:58:25.872,0.390329,0.0574277,8.38176,1.06539,-0.228533,-0.267017,0
2024-12-11 20:58:25.877,0.435793,0.150748,7.96511,1.12342,-0.373915,-0.252967,0
2024-12-11 20:58:25.877,0.435793,0.150748,7.96511,1.12342,-0.373915,-0.252967,0
2024-12-11 20:58:25.879,0.454935,0.227318,7.75933,1.13442,-0.417285,-0.246859,0
2024-12-11 20:58:25.881,0.462114,0.297009,7.57478,1.13442,-0.417285,-0.246859,0
2024-12-11 20:58:25.883,0.481256,0.366401,7.38575,1.14175,-0.455768,-0.241361,0
2024-12-11 20:58:25.886,0.498006,0.423829,7.20868,1.14114,-0.519297,-0.230977,0
2024-12-11 20:58:25.887,0.493221,0.486042,7.03161,1.14114,-0.519297,-0.230977,0
2024-12-11 20:58:25.890,0.50997,0.538684,6.82792,1.13564,-0.537622,-0.224257,0
2024-12-11 20:58:25.893,0.52672,0.576969,6.63171,1.10632,-0.557169,-0.212651,0
2024-12-11 20:58:25.895,0.541077,0.612862,6.45464,1.10632,-0.557169,-0.212651,0
2024-12-11 20:58:25.897,0.562612,0.646361,6.29163,1.10632,-0.557169,-0.212651,0
2024-12-11 20:58:25.899,0.572184,0.665504,6.1337,1.06234,-0.551061,-0.198602,0
2024-12-11 20:58:25.901,0.584148,0.694218,5.96381,1.06234,-0.551061,-0.198602,0
2024-12-11 20:58:25.906,0.598505,0.710967,5.69073,0.957274,-0.506469,-0.178444,0
2024-12-11 20:58:25.909,0.598505,0.710967,5.57827,0.957274,-0.506469,-0.178444,0
2024-12-11 20:58:25.909,0.60329,0.708575,5.57827,0.957274,-0.506469,-0.178444,0
2024-12-11 20:58:25.912,0.605683,0.710967,5.4682,0.829607,-0.418507,-0.155232,0
2024-12-11 20:58:25.914,0.608076,0.718146,5.37249,0.829607,-0.418507,-0.155232,0
2024-12-11 20:58:25.916,0.624826,0.718146,5.3004,0.780128,-0.380023,-0.14668,0
2024-12-11 20:58:25.918,0.643968,0.725324,5.23819,0.728206,-0.338486,-0.138128,0
2024-12-11 20:58:25.921,0.658325,0.737288,5.17837,0.675063,-0.299392,-0.13263,0
2024-12-11 20:58:25.923,0.679861,0.74686,5.1353,0.623751,-0.252356,-0.127743,0
2024-12-11 20:58:25.925,0.684646,0.749253,5.08265,0.566332,-0.210208,-0.124689,0
2024-12-11 20:58:25.928,0.679861,0.761217,5.04437,0.506469,-0.167449,-0.11797,0
2024-12-11 20:58:25.933,0.663111,0.80668,4.99173,0.323215,-0.0361163,-0.105753,0
2024-12-11 20:58:25.934,0.660718,0.833001,4.97019,0.323215,-0.0361163,-0.105753,0
2024-12-11 20:58:25.934,0.660718,0.833001,4.97019,0.323215,-0.0361163,-0.105753,0
2024-12-11 20:58:25.937,0.646361,0.854836,4.97976,0.260908,0.00603212,-0.101477,0
2024-12-11 20:58:25.939,0.605683,0.890728,5.01326,0.200434,0.0487914,-0.0978119,0
2024-12-11 20:58:25.942,0.56022,0.914656,5.04676,0.13935,0.0927724,-0.0917034,0
2024-12-11 20:58:25.944,0.529113,0.933799,5.08505,0.0819299,0.13431,-0.0862058,0
2024-12-11 20:58:25.946,0.507577,0.955334,5.12812,0.0251211,0.174015,-0.0807082,0
2024-12-11 20:58:25.949,0.486042,0.974477,5.20708,-0.0322986,0.210055,-0.0739889,0
2024-12-11 20:58:25.951,0.462114,0.998405,5.31237,-0.0836097,0.247928,-0.0678804,0
2024-12-11 20:58:25.953,0.426222,1.02233,5.41795,-0.133088,0.281524,-0.0617719,0
2024-12-11 20:58:25.956,0.383151,1.04148,5.52563,-0.17768,0.313899,-0.057496,0
2024-12-11 20:58:25.959,0.344866,1.07258,5.64048,-0.251593,0.369486,-0.0428357,0
2024-12-11 20:58:25.960,0.301795,1.1013,5.77209,-0.251593,0.369486,-0.0428357,0
2024-12-11 20:58:25.965,0.265603,1.15872,6.11695,-0.310234,0.4153,-0.0306187,0
2024-12-11 20:58:25.965,0.232104,1.15872,6.11695,-0.310234,0.4153,-0.0306187,0
2024-12-11 20:58:25.967,0.200997,1.2018,6.28445,-0.330392,0.431182,-0.0251211,0
2024-12-11 20:58:25.970,0.177069,1.25444,6.44238,-0.346274,0.44462,-0.0202343,0
2024-12-11 20:58:25.973,0.157926,1.2999,6.60539,-0.357269,0.45134,-0.0159584,0
2024-12-11 20:58:25.976,0.165105,1.32861,6.74656,-0.363989,0.456837,-0.0141258,0
2024-12-11 20:58:25.977,0.18664,1.35494,6.87817,-0.367654,0.458059,-0.0141258,0
2024-12-11 20:58:25.980,0.205783,1.37169,7.0026,-0.363989,0.457448,-0.0147367,0
2024-12-11 20:58:25.982,0.200997,1.38604,7.10579,-0.362156,0.454394,-0.0171801,0
2024-12-11 20:58:25.985,0.189033,1.39083,7.19432,-0.352383,0.448896,-0.0263428,0
2024-12-11 20:58:25.986,0.172283,1.4004,7.27328,-0.341998,0.440955,-0.0263428,0
2024-12-11 20:58:25.990,0.138784,1.42463,7.34028,-0.323673,0.420187,-0.0367272,0
2024-12-11 20:58:25.992,0.105284,1.43898,7.39053,-0.310234,0.407359,-0.0428357,0
2024-12-11 20:58:25.993,0.0861416,1.44855,7.436,-0.310234,0.407359,-0.0428357,0
2024-12-11 20:58:25.998,0.040678,1.49641,7.5006,-0.280303,0.374373,-0.0593285,0
2024-12-11 20:58:26.000,0.040678,1.51077,7.51735,-0.262588,0.355437,-0.0666587,0
2024-12-11 20:58:26.001,0.0239282,1.51077,7.51735,-0.262588,0.355437,-0.0666587,0
2024-12-11 20:58:26.003,0.0191426,1.52991,7.53171,-0.248538,0.332835,-0.0758214,0
2024-12-11 20:58:26.006,0.0143569,1.55623,7.5341,-0.216774,0.280303,-0.0929251,0
2024-12-11 20:58:26.008,0.0143569,1.58016,7.54128,-0.216774,0.280303,-0.0929251,0
2024-12-11 20:58:26.010,0.00957129,1.58495,7.54607,-0.203947,0.252814,-0.104531,0
2024-12-11 20:58:26.013,-0.00239282,1.61605,7.52453,-0.187454,0.227159,-0.117359,0
2024-12-11 20:58:26.016,-0.0167498,1.64955,7.50299,-0.174015,0.200282,-0.127133,0
2024-12-11 20:58:26.017,-0.0334995,1.67587,7.49103,-0.158744,0.17768,-0.141182,0
2024-12-11 20:58:26.019,-0.040678,1.72134,7.48385,-0.143473,0.154468,-0.150956,0
2024-12-11 20:58:26.024,-0.0550349,1.76919,7.44557,-0.133088,0.115374,-0.176,0
2024-12-11 20:58:26.026,-0.0765703,1.82901,7.45514,-0.104379,0.101935,-0.188217,0
2024-12-11 20:58:26.027,-0.0765703,1.82901,7.45514,-0.104379,0.101935,-0.188217,0
2024-12-11 20:58:26.029,-0.0741775,1.88405,7.44317,-0.0939941,0.0878856,-0.198602,0
2024-12-11 20:58:26.031,-0.0789631,1.92233,7.41685,-0.0836097,0.0732253,-0.208986,0
2024-12-11 20:58:26.034,-0.0981057,1.95823,7.37378,-0.0720036,0.0610084,-0.21876,0
2024-12-11 20:58:26.036,-0.117248,1.99202,7.33071,-0.0640626,0.050624,-0.227312,0
2024-12-11 20:58:26.040,-0.0981057,2.04467,7.24696,-0.0408504,0.0353528,-0.238307,0
2024-12-11 20:58:26.043,-0.0981057,2.06381,7.18236,-0.0365745,0.0286335,-0.245026,0
2024-12-11 20:58:26.045,-0.0622134,2.08535,7.13211,-0.0286335,0.0286335,-0.249913,0
2024-12-11 20:58:26.046,-0.0622134,2.08535,7.13211,-0.0286335,0.0286335,-0.249913,0
2024-12-11 20:58:26.050,-0.0239282,2.12602,7.06989,-0.0255792,0.0292443,-0.256632,0
2024-12-11 20:58:26.051,-0.0239282,2.12602,7.06989,-0.0255792,0.0292443,-0.256632,0
2024-12-11 20:58:26.055,-0.0311067,2.17627,7.01486,-0.0255792,0.0341311,-0.258465,0
2024-12-11 20:58:26.056,-0.0311067,2.17627,7.01486,-0.0261901,0.0469589,-0.256632,0
2024-12-11 20:58:26.057,-0.026321,2.2002,7.00977,-0.0243575,0.0469589,-0.256632,0
2024-12-11 20:58:26.060,-0.0430708,2.22652,7.00738,-0.0286335,0.0573433,-0.251135,0
2024-12-11 20:58:26.063,-0.0478565,2.24806,7.01486,-0.0335202,0.0811663,-0.242583,0
2024-12-11 20:58:26.066,-0.040678,2.32941,7.06272,-0.0353528,0.0921616,-0.234642,0
2024-12-11 20:58:26.066,-0.0454636,2.32941,7.06272,-0.0353528,0.0921616,-0.234642,0
2024-12-11 20:58:26.069,-0.0430708,2.34616,7.08664,-0.0359636,0.101935,-0.223646,0
2024-12-11 20:58:26.073,-0.0191426,2.41077,7.13689,-0.0402396,0.115374,-0.214484,0
2024-12-11 20:58:26.076,-0.0143569,2.44666,7.18953,-0.0432938,0.138586,-0.193715,0
2024-12-11 20:58:26.076,-0.0143569,2.44666,7.18953,-0.0432938,0.138586,-0.193715,0
2024-12-11 20:58:26.079,-0.0215354,2.48255,7.235,-0.0451263,0.156911,-0.172335,0
2024-12-11 20:58:26.081,-0.0215354,2.52592,7.29721,-0.0451263,0.156911,-0.172335,0
2024-12-11 20:58:26.083,-0.0239282,2.5666,7.369,-0.0481806,0.164852,-0.16134,0
2024-12-11 20:58:26.086,-0.0167498,2.60489,7.40489,-0.050624,0.176459,-0.140571,0
2024-12-11 20:58:26.088,0.00478565,2.65514,7.44557,-0.050624,0.176459,-0.140571,0
2024-12-11 20:58:26.092,0.0287139,2.73888,7.52214,-0.0603975,0.177069,-0.122246,0
2024-12-11 20:58:26.092,0.0287139,2.73888,7.52214,-0.0603975,0.177069,-0.122246,0
2024-12-11 20:58:26.096,0.0454636,2.78913,7.58226,-0.0677277,0.178291,-0.106364,0
2024-12-11 20:58:26.097,0.0741775,2.82981,7.63729,-0.0677277,0.178291,-0.106364,0
2024-12-11 20:58:26.099,0.0885344,2.86092,7.68993,-0.0720036,0.178902,-0.0996445,0
2024-12-11 20:58:26.102,0.081356,2.88724,7.74258,-0.0775012,0.174015,-0.0947577,0
2024-12-11 20:58:26.106,0.0837488,2.93749,7.88136,-0.0927724,0.167296,-0.0837624,0
2024-12-11 20:58:26.107,0.0837488,2.93749,7.88136,-0.0927724,0.167296,-0.0837624,0
2024-12-11 20:58:26.110,0.0693919,2.95902,7.96989,-0.100713,0.162409,-0.0788757,0
2024-12-11 20:58:26.112,0.0598206,2.9997,8.068,-0.115374,0.144694,-0.0684913,0
2024-12-11 20:58:26.114,0.0478565,3.03799,8.16401,-0.115374,0.144694,-0.0684913,0
2024-12-11 20:58:26.117,0.0215354,3.05952,8.2669,-0.132477,0.120261,-0.0593285,0
2024-12-11 20:58:26.118,0.00478565,3.08854,8.39851,-0.132477,0.120261,-0.0593285,0
2024-12-11 20:58:26.121,0.00239282,3.14357,8.53969,-0.137975,0.104379,-0.0562743,0
2024-12-11 20:58:26.124,-0.00478565,3.20339,8.67368,-0.144084,0.0884965,-0.0489441,0
2024-12-11 20:58:26.125,-0.0191426,3.24168,8.81516,-0.14836,0.0762796,-0.0446682,0
2024-12-11 20:58:26.130,-0.0334995,3.3015,9.11187,-0.145916,0.0567324,-0.0361163,0
2024-12-11 20:58:26.131,-0.0334995,3.3015,9.11187,-0.147749,0.046348,-0.0312296,0
2024-12-11 20:58:26.132,-0.026321,3.32782,9.27249,-0.147749,0.046348,-0.0312296,0
2024-12-11 20:58:26.135,-0.0334995,3.35414,9.4352,-0.144694,0.0377962,-0.0245102,0
2024-12-11 20:58:26.138,-0.0478565,3.37807,9.59552,-0.132477,0.0249684,-0.013515,0
2024-12-11 20:58:26.139,-0.0598206,3.41875,9.77019,-0.132477,0.0249684,-0.013515,0
2024-12-11 20:58:26.142,-0.0861416,3.47139,9.96431,-0.126369,0.0237467,-0.00679568,0
2024-12-11 20:58:26.144,-0.0981057,3.51446,10.1462,-0.114152,0.022525,0.00114534,0
2024-12-11 20:58:26.147,-0.102891,3.57667,10.3304,-0.100713,0.0249684,0.0121406,0
2024-12-11 20:58:26.150,-0.105284,3.64876,10.5245,-0.0842206,0.030466,0.0231358,0
2024-12-11 20:58:26.152,-0.0981057,3.7325,10.692,-0.0451263,0.042683,0.046348,0
2024-12-11 20:58:26.156,-0.0981057,3.83061,10.9409,-0.0274118,0.0475697,0.0561216,0
2024-12-11 20:58:26.157,-0.0741775,3.94307,10.9409,-0.0274118,0.0475697,0.0561216,0
2024-12-11 20:58:26.158,-0.0215354,4.05075,11.0369,-0.00481042,0.0530674,0.0677277,0
2024-12-11 20:58:26.161,0.0239282,4.16561,11.1302,-0.00481042,0.0530674,0.0677277,0
2024-12-11 20:58:26.164,0.0717847,4.29033,11.2116,0.0642153,0.066506,0.0964375,0
2024-12-11 20:58:26.166,0.119641,4.41236,11.2642,0.0892601,0.0701711,0.1056,0
2024-12-11 20:58:26.168,0.157926,4.52722,11.3025,0.0892601,0.0701711,0.1056,0
2024-12-11 20:58:26.170,0.198604,4.64447,11.3456,0.11064,0.0738362,0.115374,0
2024-12-11 20:58:26.172,0.234497,4.75454,11.3695,0.130798,0.074447,0.122093,0
2024-12-11 20:58:26.175,0.260818,4.86012,11.3839,0.155842,0.0750579,0.12698,0
2024-12-11 20:58:26.177,0.272782,4.95105,11.3862,0.176611,0.0750579,0.133088,0
2024-12-11 20:58:26.180,0.285045,5.04437,11.3815,0.192493,0.0707819,0.136753,0
2024-12-11 20:58:26.183,0.299402,5.13769,11.3839,0.207764,0.0677277,0.14164,0
2024-12-11 20:58:26.184,0.316152,5.2023,11.3527,0.221814,0.0616192,0.144694,0
2024-12-11 20:58:26.187,0.342473,5.25494,11.3097,0.234642,0.0561216,0.144084,0
2024-12-11 20:58:26.189,0.383151,5.29801,11.2953,0.242583,0.0500131,0.144084,0
2024-12-11 20:58:26.192,0.407079,5.33659,11.2618,0.249913,0.0451263,0.142862,0
2024-12-11 20:58:26.194,0.423829,5.34138,11.2164,0.249913,0.0451263,0.142862,0
2024-12-11 20:58:26.197,0.459721,5.32911,11.1996,0.249302,0.0286335,0.130034,0
2024-12-11 20:58:26.198,0.478864,5.30758,11.1829,0.245026,0.0133623,0.120261,0
2024-12-11 20:58:26.202,0.454935,5.28844,11.1589,0.221814,-0.00862822,0.0927724,0
2024-12-11 20:58:26.203,0.390329,5.27647,11.1398,0.221814,-0.00862822,0.0927724,0
2024-12-11 20:58:26.205,0.311366,5.26212,11.1517,0.20471,-0.0159584,0.0787229,0
2024-12-11 20:58:26.208,0.227318,5.24537,11.2187,0.18272,-0.0269536,0.0646735,0
2024-12-11 20:58:26.210,0.153141,5.21665,11.2834,0.16134,-0.0391706,0.046348,0
2024-12-11 20:58:26.212,0.0933201,5.18794,11.336,0.136295,-0.0483333,0.0286335,0
2024-12-11 20:58:26.215,0.0143569,5.1664,11.4006,0.106975,-0.0587177,0.00908635,0
2024-12-11 20:58:26.217,-0.081356,5.1664,11.4532,0.0758214,-0.0703238,-0.0104608,0
2024-12-11 20:58:26.219,-0.196211,5.17597,11.5229,0.0410031,-0.0782648,-0.0300079,0
2024-12-11 20:58:26.223,-0.304188,5.19512,11.6474,0.00984991,-0.0819299,-0.0477224,0
2024-12-11 20:58:26.224,-0.414257,5.21665,11.8053,-0.0231358,-0.0880384,-0.0660479,0
2024-12-11 20:58:26.227,-0.519542,5.2358,11.9943,-0.0628409,-0.0947577,-0.0843733,0
2024-12-11 20:58:26.229,-0.608076,5.24537,12.2004,-0.0964375,-0.101477,-0.102699,0
2024-12-11 20:58:26.231,-0.694218,5.25015,12.4301,-0.129423,-0.106364,-0.11797,0
2024-12-11 20:58:26.234,-0.761217,5.24537,12.6769,-0.162409,-0.116748,-0.135684,0
2024-12-11 20:58:26.236,-0.816252,5.22144,12.909,-0.192951,-0.121635,-0.150345,0
2024-12-11 20:58:26.238,-0.854836,5.18315,13.1435,-0.222272,-0.127133,-0.166227,0
2024-12-11 20:58:26.243,-0.82343,5.08265,13.6487,-0.274805,-0.136295,-0.186996,0
2024-12-11 20:58:26.245,-0.787538,4.99412,13.8978,-0.288854,-0.133852,-0.195547,0
2024-12-11 20:58:26.246,-0.787538,4.99412,13.8978,-0.288854,-0.133852,-0.195547,0
2024-12-11 20:58:26.248,-0.742074,4.9008,14.1395,-0.303515,-0.126522,-0.202267,0
2024-12-11 20:58:26.250,-0.708575,4.80509,14.3671,-0.312677,-0.114916,-0.206543,0
2024-12-11 20:58:26.252,-0.682254,4.73061,14.5681,-0.321229,-0.0972011,-0.208986,0
2024-12-11 20:58:26.257,-0.658325,4.61336,14.901,-0.31451,-0.0513875,-0.201656,0
2024-12-11 20:58:26.258,-0.658325,4.61336,14.901,-0.301682,-0.0232886,-0.191272,0
2024-12-11 20:58:26.260,-0.639183,4.59661,15.0159,-0.301682,-0.0232886,-0.191272,0
2024-12-11 20:58:26.263,-0.610469,4.59422,15.09,-0.292519,0.0127514,-0.177833,0
2024-12-11 20:58:26.264,-0.553041,4.63011,15.1451,-0.276637,0.0561216,-0.161951,0
2024-12-11 20:58:26.268,-0.442971,4.6995,15.1714,-0.254036,0.104379,-0.143625,0
2024-12-11 20:58:26.269,-0.304188,4.80269,15.169,-0.22777,0.154468,-0.124078,0
2024-12-11 20:58:26.274,-0.0502493,5.00608,15.0637,-0.164852,0.26381,-0.0800973,0
2024-12-11 20:58:26.274,-0.0502493,5.00608,15.0637,-0.164852,0.26381,-0.0800973,0
2024-12-11 20:58:26.277,0.0741775,5.07548,14.9297,-0.103157,0.354215,-0.0410031,1
2024-12-11 20:58:26.278,0.145962,5.12573,14.7667,-0.103157,0.354215,-0.0410031,0
2024-12-11 20:58:26.281,0.157926,5.12573,14.616,-0.0738362,0.387201,-0.0238994,0
2024-12-11 20:58:26.284,0.138784,5.08026,14.47,-0.0341311,0.402472,-0.00129805,0
2024-12-11 20:58:26.285,0.102891,4.98216,14.3408,-0.0341311,0.402472,-0.00129805,0
2024-12-11 20:58:26.291,-0.0167498,4.62772,14.2161,-0.0096972,0.369486,0.00847551,0
2024-12-11 20:58:26.291,-0.0167498,4.62772,14.2161,-0.0096972,0.369486,0.00847551,0
2024-12-11 20:58:26.292,-0.107677,4.38844,14.1897,-0.00236703,0.333446,0.00603212,0
2024-12-11 20:58:26.296,-0.227318,4.09621,14.2065,-0.00114534,0.232656,-0.0019089,0
2024-12-11 20:58:26.298,-0.368794,3.77318,14.2687,-0.0096972,0.167907,-0.00679568,0
2024-12-11 20:58:26.301,-0.524327,3.45703,14.3575,-0.0182491,0.101935,-0.0129041,0
2024-12-11 20:58:26.304,-0.82343,2.8322,14.6112,-0.0292443,0.0322986,-0.0165692,0
2024-12-11 20:58:26.304,-0.82343,2.8322,14.6112,-0.0292443,0.0322986,-0.0165692,0
2024-12-11 20:58:26.307,-0.917049,2.56421,14.7356,-0.042683,-0.0397814,-0.021456,0
2024-12-11 20:58:26.310,-0.94337,2.33898,14.8385,-0.0732253,-0.168059,-0.029397,0
2024-12-11 20:58:26.314,-0.986441,1.90798,15.1116,-0.0842206,-0.21876,-0.0355055,0
2024-12-11 20:58:26.315,-0.986441,1.90798,15.1116,-0.0842206,-0.21876,-0.0355055,0
2024-12-11 20:58:26.317,-0.991227,1.71416,15.2336,-0.104379,-0.28412,-0.0422248,0
2024-12-11 20:58:26.319,-0.991227,1.5658,15.3221,-0.104379,-0.28412,-0.0422248,0
2024-12-11 20:58:26.321,-0.991227,1.45573,15.3796,-0.1056,-0.293894,-0.0446682,0
2024-12-11 20:58:26.324,-0.981655,1.35733,15.4469,-0.0921616,-0.28412,-0.0458899,0
2024-12-11 20:58:26.325,-0.957727,1.28315,15.5234,-0.0921616,-0.28412,-0.0458899,0
2024-12-11 20:58:26.328,-0.933799,1.21376,15.5928,-0.0750579,-0.270682,-0.0428357,0
2024-12-11 20:58:26.331,-0.897907,1.15155,15.6359,-0.0164165,-0.222425,-0.0367272,0
2024-12-11 20:58:26.334,-0.835394,1.08694,15.6335,0.0251211,-0.19005,-0.0324513,0
2024-12-11 20:58:26.336,-0.74686,0.991227,15.5857,0.0752106,-0.151566,-0.0281753,0
2024-12-11 20:58:26.338,-0.632004,0.885943,15.4732,0.132019,-0.108196,-0.0238994,0
2024-12-11 20:58:26.341,-0.500399,0.792323,15.3078,0.132019,-0.108196,-0.0238994,0
2024-12-11 20:58:26.343,-0.387936,0.706182,15.0829,0.26213,-0.0141258,-0.0177909,0
2024-12-11 20:58:26.345,-0.30658,0.627219,14.8074,0.26213,-0.0141258,-0.0177909,0
2024-12-11 20:58:26.347,-0.244068,0.579362,14.4796,0.332377,0.0329094,-0.0141258,0
2024-12-11 20:58:26.349,-0.191426,0.548256,14.0892,0.403846,0.0756687,-0.0122933,0
2024-12-11 20:58:26.351,-0.162712,0.507577,13.6678,0.475316,0.11965,-0.00557398,0
2024-12-11 20:58:26.355,-0.160319,0.474078,13.2395,0.549228,0.166074,-0.00129805,0
2024-12-11 20:58:26.356,-0.155533,0.452543,12.8133,0.626195,0.207612,0.00542127,0
2024-12-11 20:58:26.358,-0.162712,0.438186,12.411,0.626195,0.207612,0.00542127,0
2024-12-11 20:58:26.361,-0.198604,0.41665,12.0015,0.771576,0.277248,0.0206925,0
2024-12-11 20:58:26.366,-0.229711,0.385544,11.1613,0.907795,0.316953,0.038407,0
2024-12-11 20:58:26.366,-0.229711,0.385544,11.1613,0.907795,0.316953,0.038407,0
2024-12-11 20:58:26.369,-0.272782,0.378365,10.7399,1.02569,0.319397,0.0597867,0
2024-12-11 20:58:26.370,-0.320937,0.373579,10.3161,1.02569,0.319397,0.0597867,0
2024-12-11 20:58:26.373,-0.373579,0.342473,9.89013,1.07639,0.315121,0.0695602,0
2024-12-11 20:58:26.375,-0.445364,0.311366,9.50938,1.11915,0.303515,0.0799446,0
2024-12-11 20:58:26.377,-0.512363,0.294616,9.15015,1.15519,0.292519,0.090329,0
2024-12-11 20:58:26.380,-0.576969,0.294616,8.77448,1.18207,0.272972,0.104989,0
2024-12-11 20:58:26.384,-0.715753,0.361615,8.04168,1.22238,0.230213,0.125758,0
2024-12-11 20:58:26.387,-0.751645,0.371187,7.74018,1.22238,0.230213,0.125758,0
2024-12-11 20:58:26.388,-0.751645,0.371187,7.74018,1.22421,0.18501,0.144084,0
2024-12-11 20:58:26.389,-0.76361,0.397508,7.45753,1.22421,0.18501,0.144084,0
2024-12-11 20:58:26.395,-0.837787,0.452543,6.86142,1.17412,0.13431,0.160576,0
2024-12-11 20:58:26.395,-0.837787,0.452543,6.86142,1.17412,0.13431,0.160576,0
2024-12-11 20:58:26.396,-0.854836,0.495613,6.57428,1.17412,0.13431,0.160576,0
2024-12-11 20:58:26.398,-0.852443,0.54347,6.33231,1.13931,0.124536,0.16302,0
2024-12-11 20:58:26.403,-0.869193,0.643968,5.90878,1.05318,0.11232,0.162409,0
2024-12-11 20:58:26.404,-0.869193,0.643968,5.90878,0.995147,0.109265,0.160576,0
2024-12-11 20:58:26.406,-0.885943,0.682254,5.72423,0.995147,0.109265,0.160576,0
2024-12-11 20:58:26.408,-0.912264,0.732503,5.55195,0.930397,0.111709,0.156301,0
2024-12-11 20:58:26.414,-1.02473,0.835394,5.27887,0.715379,0.132477,0.146527,0
2024-12-11 20:58:26.415,-1.02473,0.897907,5.2023,0.715379,0.132477,0.146527,0
2024-12-11 20:58:26.417,-1.14197,0.957727,5.14965,0.635357,0.144084,0.142862,0
2024-12-11 20:58:26.417,-1.14197,0.957727,5.14965,0.635357,0.144084,0.142862,0
2024-12-11 20:58:26.420,-1.18744,0.981655,5.10898,0.55045,0.158744,0.140419,0
2024-12-11 20:58:26.423,-1.23529,0.986441,5.10658,0.378191,0.181956,0.136753,0
2024-12-11 20:58:26.427,-1.27837,1.0008,5.14726,0.292061,0.194173,0.133699,0
2024-12-11 20:58:26.427,-1.27837,1.0008,5.14726,0.292061,0.194173,0.133699,0
2024-12-11 20:58:26.429,-1.27837,0.996012,5.19033,0.208375,0.203336,0.131256,0
2024-12-11 20:58:26.431,-1.25683,0.979263,5.24058,0.122857,0.212498,0.127591,0
2024-12-11 20:58:26.434,-1.2329,0.96012,5.32433,0.0428357,0.22044,0.122704,0
2024-12-11 20:58:26.436,-1.20897,0.929013,5.44906,-0.0371853,0.225326,0.11965,0
2024-12-11 20:58:26.439,-1.17787,0.878764,5.58545,-0.108654,0.230824,0.113541,0
2024-12-11 20:58:26.441,-1.13958,0.828216,5.74098,-0.173404,0.233267,0.106822,0
2024-12-11 20:58:26.443,-1.08455,0.787538,5.92792,-0.238154,0.230824,0.0994917,0
2024-12-11 20:58:26.447,-1.02712,0.756431,6.11456,-0.344442,0.215553,0.0884965,0
2024-12-11 20:58:26.448,-0.981655,0.744467,6.29641,-0.344442,0.215553,0.0884965,0
2024-12-11 20:58:26.451,-0.940978,0.737288,6.47378,-0.384147,0.208833,0.0836097,0
2024-12-11 20:58:26.454,-0.893121,0.710967,6.64606,-0.446453,0.194173,0.0720036,0
2024-12-11 20:58:26.455,-0.842872,0.699003,6.81835,-0.446453,0.194173,0.0720036,0
2024-12-11 20:58:26.457,-0.816252,0.689432,6.98106,-0.471498,0.180734,0.0695602,0
2024-12-11 20:58:26.460,-0.794716,0.689432,7.10339,-0.484326,0.167907,0.0677277,0
2024-12-11 20:58:26.463,-0.770788,0.706182,7.21107,-0.497153,0.155079,0.0695602,0
2024-12-11 20:58:26.464,-0.754038,0.725324,7.32114,-0.499597,0.142862,0.0713928,0
2024-12-11 20:58:26.467,-0.708575,0.74686,7.40728,-0.50204,0.133088,0.0732253,0
2024-12-11 20:58:26.469,-0.643968,0.768395,7.47667,-0.500208,0.121482,0.0781121,0
2024-12-11 20:58:26.472,-0.574577,0.80668,7.55085,-0.494099,0.107433,0.0811663,0
2024-12-11 20:58:26.475,-0.488435,0.85005,7.60618,-0.483715,0.0952158,0.0872748,0
2024-12-11 20:58:26.477,-0.387936,0.88355,7.66601,-0.459281,0.0640626,0.0933833,0
2024-12-11 20:58:26.479,-0.294616,0.905085,7.733,-0.459281,0.0640626,0.0933833,0
2024-12-11 20:58:26.483,-0.212961,0.969691,7.79761,-0.428128,0.0322986,0.0994917,0
2024-12-11 20:58:26.487,-0.040678,1.01276,7.8,-0.392698,-0.00496313,0.101324,0
2024-12-11 20:58:26.487,-0.040678,1.01276,7.8,-0.392698,-0.00496313,0.101324,0
2024-12-11 20:58:26.489,0.0382852,1.06062,7.79761,-0.392698,-0.00496313,0.101324,0
2024-12-11 20:58:26.494,0.148355,1.14437,7.78804,-0.333446,-0.0501658,0.104379,0
2024-12-11 20:58:26.495,0.179462,1.18744,7.74736,-0.333446,-0.0501658,0.104379,0
2024-12-11 20:58:26.496,0.179462,1.18744,7.74736,-0.311456,-0.0623828,0.106822,0
2024-12-11 20:58:26.498,0.205783,1.22094,7.71865,-0.311456,-0.0623828,0.106822,0
2024-12-11 20:58:26.500,0.239282,1.26162,7.66361,-0.291298,-0.0709346,0.108044,0
2024-12-11 20:58:26.502,0.256032,1.2999,7.58465,-0.27114,-0.0800973,0.111098,0
2024-12-11 20:58:26.505,0.246461,1.32383,7.52453,-0.254036,-0.0868167,0.11293,0
2024-12-11 20:58:26.508,0.246461,1.34776,7.46232,-0.219829,-0.0965902,0.124536,0
2024-12-11 20:58:26.510,0.253639,1.39322,7.38814,-0.219829,-0.0965902,0.124536,0
2024-12-11 20:58:26.512,0.241675,1.42223,7.31635,-0.210666,-0.100866,0.129423,0
2024-12-11 20:58:26.515,0.210568,1.45813,7.24696,-0.186843,-0.100866,0.141029,0
2024-12-11 20:58:26.517,0.193819,1.51555,7.17757,-0.186843,-0.100866,0.141029,0
2024-12-11 20:58:26.519,0.193819,1.57777,7.12014,-0.17768,-0.101477,0.14836,0
2024-12-11 20:58:26.524,0.16989,1.64716,7.07468,-0.160576,-0.0990336,0.162409,0
2024-12-11 20:58:26.526,0.148355,1.75005,7.01217,-0.152635,-0.0984228,0.168517,0
2024-12-11 20:58:26.528,0.114855,1.79312,6.98106,-0.146527,-0.093536,0.174015,0
2024-12-11 20:58:26.531,0.114855,1.79312,6.96431,-0.138586,-0.0904818,0.178902,0
2024-12-11 20:58:26.531,0.114855,1.82423,6.96431,-0.138586,-0.0904818,0.178902,0
2024-12-11 20:58:26.533,0.117248,1.8673,6.94756,-0.130645,-0.0849841,0.181956,0
2024-12-11 20:58:26.536,0.122034,1.90319,6.9332,-0.122093,-0.0819299,0.18501,0
2024-12-11 20:58:26.537,0.12682,1.94626,6.91406,-0.115985,-0.0837624,0.186843,0
2024-12-11 20:58:26.540,0.107677,1.99442,6.88056,-0.109876,-0.0825407,0.187454,0
2024-12-11 20:58:26.543,0.0861416,2.01595,6.84467,-0.100103,-0.0739889,0.182567,0
2024-12-11 20:58:26.545,0.0598206,2.0351,6.80878,-0.100103,-0.0739889,0.182567,0
2024-12-11 20:58:26.547,0.0191426,2.05424,6.77288,-0.100103,-0.0739889,0.182567,0
2024-12-11 20:58:26.549,-0.00239282,2.08535,6.74417,-0.0921616,-0.0752106,0.176459,0
2024-12-11 20:58:26.554,-0.026321,2.11884,6.68196,-0.0891073,-0.0770431,0.169739,0
2024-12-11 20:58:26.556,-0.0502493,2.13081,6.65324,-0.0872748,-0.0794865,0.166685,0
2024-12-11 20:58:26.559,-0.0598206,2.16192,6.61496,-0.0909399,-0.0794865,0.161798,0
2024-12-11 20:58:26.559,-0.0598206,2.16192,6.61496,-0.0909399,-0.0794865,0.161798,0
2024-12-11 20:58:26.563,-0.133998,2.21695,6.57907,-0.0891073,-0.0745997,0.155079,0
2024-12-11 20:58:26.563,-0.133998,2.21695,6.57907,-0.0891073,-0.0745997,0.155079,0
2024-12-11 20:58:26.568,-0.148355,2.22891,6.55035,-0.086664,-0.0721563,0.150192,0
2024-12-11 20:58:26.568,-0.157926,2.25045,6.55035,-0.086664,-0.0721563,0.150192,0
2024-12-11 20:58:26.570,-0.16989,2.27916,6.55753,-0.086664,-0.0709346,0.145305,0
2024-12-11 20:58:26.575,-0.162712,2.32702,6.60539,-0.0878856,-0.0727672,0.143473,0
2024-12-11 20:58:26.576,-0.160319,2.30309,6.60539,-0.0878856,-0.0727672,0.143473,0
2024-12-11 20:58:26.578,-0.172283,2.34616,6.61974,-0.0878856,-0.0703238,0.137975,0
2024-12-11 20:58:26.583,-0.193819,2.40598,6.65324,-0.082388,-0.0587177,0.125147,0
2024-12-11 20:58:26.586,-0.193819,2.43948,6.65085,-0.0817772,-0.0550526,0.11965,0
2024-12-11 20:58:26.587,-0.198604,2.46102,6.65803,-0.0817772,-0.0550526,0.11965,0
2024-12-11 20:58:26.588,-0.198604,2.46102,6.65803,-0.0805555,-0.0501658,0.114763,0
2024-12-11 20:58:26.590,-0.193819,2.50409,6.67717,-0.0817772,-0.0452791,0.108044,0
2024-12-11 20:58:26.593,-0.181855,2.55224,6.7011,-0.0817772,-0.0452791,0.108044,0
2024-12-11 20:58:26.594,-0.181855,2.60249,6.72024,-0.0836097,-0.0410031,0.102546,0
2024-12-11 20:58:26.596,-0.179462,2.66231,6.74178,-0.0817772,-0.0342838,0.0970484,0
2024-12-11 20:58:26.599,-0.200997,2.71974,6.77288,-0.0848314,-0.0245102,0.0915507,0
2024-12-11 20:58:26.602,-0.241675,2.76999,6.82792,-0.0854423,-0.00801737,0.0787229,0
2024-12-11 20:58:26.606,-0.285045,2.91356,6.94756,-0.0860531,-0.00129805,0.0726145,0
2024-12-11 20:58:26.607,-0.285045,2.91356,6.94756,-0.0860531,-0.00129805,0.0726145,0
2024-12-11 20:58:26.610,-0.308973,3.05234,7.09382,-0.086664,0.0109189,0.0579541,0
2024-12-11 20:58:26.611,-0.308973,3.05234,7.09382,-0.086664,0.0109189,0.0579541,0
2024-12-11 20:58:26.613,-0.311366,3.11246,7.14886,-0.0884965,0.0139731,0.050624,0
2024-12-11 20:58:26.615,-0.30658,3.16989,7.19671,-0.0884965,0.0194708,0.0402396,0
2024-12-11 20:58:26.619,-0.308973,3.22732,7.26611,-0.0909399,0.0213033,0.0310769,0
2024-12-11 20:58:26.620,-0.311366,3.26321,7.33789,-0.0884965,0.0219141,0.0194708,0
2024-12-11 20:58:26.625,-0.325723,3.33739,7.44317,-0.0829989,0.0268009,-0.00251974,0
2024-12-11 20:58:26.626,-0.325723,3.33739,7.44317,-0.0817772,0.0268009,-0.0159584,0
2024-12-11 20:58:26.628,-0.32333,3.37089,7.49103,-0.0817772,0.0237467,-0.0287862,0
2024-12-11 20:58:26.629,-0.313759,3.40439,7.54607,-0.0817772,0.0237467,-0.0287862,0
2024-12-11 20:58:26.634,-0.248854,3.46182,7.68276,-0.0854423,0.00603212,-0.0617719,0
2024-12-11 20:58:26.636,-0.234497,3.49771,7.74258,-0.0897182,-0.00618483,-0.0770431,0
2024-12-11 20:58:26.636,-0.234497,3.49771,7.74258,-0.0897182,-0.00618483,-0.0770431,0
2024-12-11 20:58:26.639,-0.258425,3.55753,7.8,-0.0921616,-0.0220669,-0.0978119,0
2024-12-11 20:58:26.643,-0.311366,3.60778,7.90529,-0.0988809,-0.0410031,-0.114305,0
2024-12-11 20:58:26.646,-0.361615,3.66072,7.99621,-0.106211,-0.0788757,-0.149734,0
2024-12-11 20:58:26.646,-0.361615,3.66072,7.99621,-0.106211,-0.0788757,-0.149734,0
2024-12-11 20:58:26.648,-0.421436,3.71575,8.09432,-0.123315,-0.0996445,-0.165616,0
2024-12-11 20:58:26.652,-0.476471,3.7684,8.19751,-0.143473,-0.133852,-0.200434,0
2024-12-11 20:58:26.655,-0.512363,3.86172,8.51576,-0.15569,-0.151566,-0.214484,0
2024-12-11 20:58:26.655,-0.548256,3.86172,8.51576,-0.15569,-0.151566,-0.214484,0
2024-12-11 20:58:26.658,-0.579362,3.89761,8.7027,-0.167907,-0.174779,-0.228533,0
2024-12-11 20:58:26.661,-0.612862,3.95025,8.91326,-0.180734,-0.223646,-0.257243,0
2024-12-11 20:58:26.662,-0.648754,3.99811,9.15494,-0.180734,-0.223646,-0.257243,0
2024-12-11 20:58:26.666,-0.663111,4.03639,9.40648,-0.189286,-0.276179,-0.286564,0
2024-12-11 20:58:26.668,-0.672682,4.07229,9.64816,-0.19173,-0.300002,-0.300002,0
2024-12-11 20:58:26.669,-0.677468,4.08664,9.87817,-0.19173,-0.300002,-0.300002,0
2024-12-11 20:58:26.672,-0.675075,4.11296,10.0959,-0.194784,-0.328712,-0.314663,0
2024-12-11 20:58:26.675,-0.687039,4.12971,10.3041,-0.19173,-0.381245,-0.338486,0
2024-12-11 20:58:26.676,-0.689432,4.11775,10.5293,-0.19173,-0.381245,-0.338486,0
2024-12-11 20:58:26.679,-0.651147,4.10818,10.7471,-0.186232,-0.409344,-0.351314,0
2024-12-11 20:58:26.681,-0.627219,4.09861,10.9385,-0.178291,-0.441108,-0.36292,0
2024-12-11 20:58:26.684,-0.608076,4.09621,11.1541,-0.170961,-0.47104,-0.375747,0
2024-12-11 20:58:26.687,-0.593719,4.09621,11.3647,-0.152635,-0.526627,-0.397738,0
2024-12-11 20:58:26.688,-0.581755,4.09861,11.554,-0.152635,-0.526627,-0.397738,0
2024-12-11 20:58:26.691,-0.531506,4.11296,11.7311,-0.136753,-0.552282,-0.406901,0
2024-12-11 20:58:26.693,-0.4669,4.14407,11.8962,-0.123926,-0.576105,-0.415452,0
2024-12-11 20:58:26.696,-0.392722,4.18235,12.0494,-0.090329,-0.611534,-0.435,0
2024-12-11 20:58:26.699,-0.299402,4.22333,12.1765,-0.0750579,-0.620086,-0.441719,0
2024-12-11 20:58:26.701,-0.212961,4.28076,12.2794,-0.0750579,-0.620086,-0.441719,0
2024-12-11 20:58:26.702,-0.129212,4.34058,12.3655,-0.0603975,-0.621308,-0.450882,0
2024-12-11 20:58:26.705,-0.0478565,4.39562,12.4564,-0.0457372,-0.624362,-0.459433,0
2024-12-11 20:58:26.709,0.040678,4.49851,12.6215,-0.0170274,-0.617032,-0.474705,0
2024-12-11 20:58:26.710,0.040678,4.49851,12.6215,-0.0170274,-0.617032,-0.474705,0
2024-12-11 20:58:26.712,0.081356,4.54876,12.6817,-0.00847551,-0.612756,-0.47837,0
2024-12-11 20:58:26.715,0.129212,4.58465,12.7271,-0.00114534,-0.604815,-0.482646,0
2024-12-11 20:58:26.716,0.18664,4.62293,12.7534,0.00618483,-0.596874,-0.488143,0
2024-12-11 20:58:26.719,0.246461,4.666,12.7798,0.0104608,-0.590766,-0.491808,0
2024-12-11 20:58:26.724,0.335294,4.72822,12.8492,0.00862822,-0.569386,-0.497917,0
2024-12-11 20:58:26.726,0.335294,4.77637,12.8946,0.00374144,-0.563278,-0.503415,0
2024-12-11 20:58:26.726,0.380758,4.77637,12.8946,0.00374144,-0.563278,-0.503415,0
2024-12-11 20:58:26.728,0.423829,4.81227,12.9329,-0.00603212,-0.554115,-0.505858,0
2024-12-11 20:58:26.733,0.488435,4.84816,13.0765,-0.030466,-0.541287,-0.508301,0
2024-12-11 20:58:26.735,0.514756,4.84816,13.1339,-0.0469589,-0.534568,-0.511966,0
2024-12-11 20:58:26.735,0.514756,4.84816,13.1339,-0.0469589,-0.534568,-0.511966,0
2024-12-11 20:58:26.739,0.541077,4.86012,13.2012,-0.082388,-0.522351,-0.51441,0
2024-12-11 20:58:26.740,0.565005,4.87687,13.285,-0.082388,-0.522351,-0.51441,0
2024-12-11 20:58:26.742,0.574577,4.88884,13.3854,-0.101324,-0.511356,-0.51441,0
2024-12-11 20:58:26.746,0.588933,4.89841,13.5051,-0.137364,-0.491808,-0.512577,0
2024-12-11 20:58:26.748,0.608076,4.91276,13.6439,-0.150192,-0.475316,-0.509523,0
2024-12-11 20:58:26.749,0.634397,4.92473,13.8117,-0.150192,-0.475316,-0.509523,0
2024-12-11 20:58:26.752,0.651147,4.91516,13.9911,-0.164852,-0.461266,-0.505858,0
2024-12-11 20:58:26.754,0.658325,4.90319,14.1658,-0.178291,-0.44966,-0.503415,0
2024-12-11 20:58:26.758,0.655932,4.88884,14.3575,-0.188675,-0.41362,-0.493641,0
2024-12-11 20:58:26.760,0.629611,4.86012,14.5537,-0.188675,-0.41362,-0.493641,0
2024-12-11 20:58:26.761,0.596112,4.83619,14.726,-0.190508,-0.391019,-0.4857,0
2024-12-11 20:58:26.765,0.557827,4.84577,14.8505,-0.186843,-0.364141,-0.47837,0
2024-12-11 20:58:26.766,0.52672,4.88166,14.9513,-0.176459,-0.333599,-0.466153,0
2024-12-11 20:58:26.769,0.495613,4.95105,15.0135,-0.150803,-0.275568,-0.44233,0
2024-12-11 20:58:26.773,0.402293,5.2023,14.9824,-0.136753,-0.243804,-0.427059,1
2024-12-11 20:58:26.774,0.402293,5.2023,14.9824,-0.136753,-0.243804,-0.427059,0
2024-12-11 20:58:26.779,0.325723,5.52323,14.8002,-0.0811663,-0.180887,-0.373304,0
2024-12-11 20:58:26.780,0.297009,5.61416,14.6758,-0.0811663,-0.180887,-0.373304,0
2024-12-11 20:58:26.781,0.297009,5.61416,14.6758,-0.0811663,-0.180887,-0.373304,0
2024-12-11 20:58:26.782,0.289831,5.64048,14.5729,-0.0671168,-0.183941,-0.354368,0
2024-12-11 20:58:26.785,0.308973,5.58784,14.5059,-0.0524565,-0.202267,-0.338486,0
2024-12-11 20:58:26.787,0.344866,5.45623,14.4509,-0.0377962,-0.22609,-0.325047,0
2024-12-11 20:58:26.789,0.404686,5.26451,14.4269,-0.0286335,-0.262741,-0.311608,0
2024-12-11 20:58:26.793,0.469292,5.01087,14.4724,-0.0194708,-0.303667,-0.302446,0
2024-12-11 20:58:26.794,0.531506,4.7354,14.549,-0.0127514,-0.339097,-0.295116,0
2024-12-11 20:58:26.797,0.54347,4.46501,14.6255,0.000687203,-0.371471,-0.29084,0
2024-12-11 20:58:26.800,0.521934,4.1991,14.7045,0.00557398,-0.39957,-0.284731,0
2024-12-11 20:58:26.801,0.490828,3.96461,14.7691,0.00923906,-0.419118,-0.278623,0
2024-12-11 20:58:26.804,0.428614,3.74925,14.8241,0.013515,-0.431945,-0.268849,0
2024-12-11 20:58:26.808,0.364008,3.34457,14.86,0.0116825,-0.445995,-0.241361,0
2024-12-11 20:58:26.809,0.275175,3.34457,14.86,0.0116825,-0.445995,-0.241361,0
2024-12-11 20:58:26.811,0.174676,3.15075,14.8265,0.00557398,-0.440497,-0.225479,0
2024-12-11 20:58:26.816,0.0885344,2.95663,14.8026,-0.0170274,-0.411177,-0.188217,0
2024-12-11 20:58:26.816,0.0143569,2.75803,14.805,-0.0170274,-0.411177,-0.188217,0
2024-12-11 20:58:26.818,-0.0334995,2.57617,14.8193,-0.0298552,-0.378191,-0.16867,0
2024-12-11 20:58:26.821,-0.0550349,2.41077,14.8505,-0.0500131,-0.287175,-0.13935,0
2024-12-11 20:58:26.822,-0.0430708,2.2337,14.889,-0.0500131,-0.287175,-0.13935,0
2024-12-11 20:58:26.825,-0.0119641,2.05663,14.9297,-0.0567324,-0.22609,-0.128354,0
2024-12-11 20:58:26.828,0.0334995,1.89123,14.9871,-0.0640626,-0.160729,-0.122857,0
2024-12-11 20:58:26.830,0.0358923,1.71894,15.0589,-0.0677277,-0.0868167,-0.124078,0
2024-12-11 20:58:26.833,0.00717847,1.53709,15.1307,-0.0579541,-0.00801737,-0.126522,0
2024-12-11 20:58:26.835,-0.0215354,1.33101,15.1905,-0.0353528,0.147749,-0.13935,0
2024-12-11 20:58:26.838,-0.0861416,1.12762,15.2145,-0.0158057,0.222272,-0.149123,0
2024-12-11 20:58:26.840,-0.16989,0.940978,15.1905,-0.0158057,0.222272,-0.149123,0
2024-12-11 20:58:26.841,-0.263211,0.770788,15.1331,0.0104608,0.292519,-0.158286,0
2024-12-11 20:58:26.844,-0.373579,0.608076,15.0494,0.0397814,0.356658,-0.16867,0
2024-12-11 20:58:26.847,-0.498006,0.474078,14.9297,0.105142,0.462946,-0.183941,0
2024-12-11 20:58:26.849,-0.622433,0.397508,14.7858,0.105142,0.462946,-0.183941,0
2024-12-11 20:58:26.851,-0.720539,0.34008,14.5992,0.146069,0.501429,-0.191882,0
2024-12-11 20:58:26.853,-0.797109,0.318545,14.3456,0.187606,0.530139,-0.19738,0
2024-12-11 20:58:26.855,-0.845265,0.347258,14.0342,0.228533,0.551519,-0.203488,0
2024-12-11 20:58:26.860,-0.847657,0.442971,13.2538,0.32016,0.564346,-0.223036,0
2024-12-11 20:58:26.863,-0.828216,0.507577,12.8492,0.361087,0.553351,-0.232809,0
2024-12-11 20:58:26.864,-0.828216,0.507577,12.8492,0.411177,0.536248,-0.246859,0
2024-12-11 20:58:26.865,-0.782752,0.569791,12.4684,0.411177,0.536248,-0.246859,0
2024-12-11 20:58:26.867,-0.722932,0.60329,12.1071,0.455768,0.50937,-0.26213,0
2024-12-11 20:58:26.871,-0.639183,0.617647,11.7598,0.546174,0.43729,-0.298781,0
2024-12-11 20:58:26.872,-0.521934,0.627219,11.4245,0.546174,0.43729,-0.298781,0
2024-12-11 20:58:26.874,-0.419043,0.641576,11.0848,0.591987,0.390866,-0.321993,0
2024-12-11 20:58:26.877,-0.330509,0.65354,10.7495,0.639633,0.334057,-0.347038,0
2024-12-11 20:58:26.880,-0.265603,0.660718,10.4001,0.686058,0.272362,-0.370861,0
2024-12-11 20:58:26.881,-0.210568,0.675075,10.0672,0.725763,0.205168,-0.397127,0
2024-12-11 20:58:26.884,-0.162712,0.682254,9.75105,0.7673,0.136143,-0.422783,0
2024-12-11 20:58:26.888,-0.148355,0.694218,9.17647,0.838159,-0.00801737,-0.469818,0
2024-12-11 20:58:26.889,-0.148355,0.694218,9.17647,0.838159,-0.00801737,-0.469818,0
2024-12-11 20:58:26.893,-0.179462,0.663111,8.63061,0.888859,-0.152177,-0.502804,0
2024-12-11 20:58:26.895,-0.304188,0.651147,8.3674,0.905352,-0.226701,-0.513799,0
2024-12-11 20:58:26.896,-0.304188,0.651147,8.3674,0.905352,-0.226701,-0.513799,0
2024-12-11 20:58:26.898,-0.352044,0.629611,8.14487,0.920012,-0.292672,-0.519297,0
2024-12-11 20:58:26.900,-0.375972,0.610469,7.92204,0.929786,-0.358644,-0.520518,0
2024-12-11 20:58:26.903,-0.397508,0.612862,7.733,0.931008,-0.422783,-0.516242,0
2024-12-11 20:58:26.906,-0.407079,0.632004,7.5676,0.919401,-0.520518,-0.505247,0
2024-12-11 20:58:26.907,-0.387936,0.660718,7.39532,0.919401,-0.520518,-0.505247,0
2024-12-11 20:58:26.910,-0.361615,0.696611,7.25175,0.906574,-0.55778,-0.496084,0
2024-12-11 20:58:26.912,-0.308973,0.732503,7.12493,0.888859,-0.584046,-0.484478,0
2024-12-11 20:58:26.917,-0.160319,0.835394,6.94995,0.841824,-0.604204,-0.460044,0
2024-12-11 20:58:26.918,-0.160319,0.835394,6.94995,0.813114,-0.599317,-0.449049,0
2024-12-11 20:58:26.920,-0.081356,0.862014,6.87578,0.777685,-0.588933,-0.43561,0
2024-12-11 20:58:26.921,0.00478565,0.9003,6.79203,0.777685,-0.588933,-0.43561,0
2024-12-11 20:58:26.925,0.081356,0.96012,6.73221,0.741645,-0.573662,-0.42095,0
2024-12-11 20:58:26.926,0.12682,1.00558,6.68674,0.703162,-0.551671,-0.411787,0
2024-12-11 20:58:26.928,0.174676,1.02712,6.62214,0.657959,-0.523572,-0.39896,0
2024-12-11 20:58:26.932,0.222533,1.05105,6.55274,0.610924,-0.492419,-0.384299,0
2024-12-11 20:58:26.933,0.234497,1.07019,6.48335,0.563888,-0.458823,-0.37025,0
2024-12-11 20:58:26.937,0.248854,1.07019,6.40888,0.513799,-0.421561,-0.357422,0
2024-12-11 20:58:26.938,0.270389,1.07737,6.33948,0.455158,-0.384299,-0.342762,0
2024-12-11 20:58:26.940,0.263211,1.0654,6.29163,0.397738,-0.343983,-0.329934,0
2024-12-11 20:58:26.943,0.251246,1.03669,6.26291,0.336042,-0.3055,-0.317106,0
2024-12-11 20:58:26.945,0.251246,1.0008,6.25334,0.274958,-0.266406,-0.3055,0
2024-12-11 20:58:26.947,0.234497,0.957727,6.24377,0.21143,-0.221814,-0.292672,0
2024-12-11 20:58:26.950,0.210568,0.914656,6.25813,0.150956,-0.177833,-0.279844,0
2024-12-11 20:58:26.954,0.153141,0.84018,6.31795,0.0257319,-0.0886492,-0.252967,0
2024-12-11 20:58:26.955,0.179462,0.84018,6.31795,0.0257319,-0.0886492,-0.252967,0
2024-12-11 20:58:26.958,0.12682,0.801895,6.35623,-0.0909399,-0.000687203,-0.224868,0
2024-12-11 20:58:26.959,0.0981057,0.754038,6.42563,-0.0909399,-0.000687203,-0.224868,0
2024-12-11 20:58:26.965,0.0,0.679861,6.64128,-0.247928,0.120871,-0.177833,0
2024-12-11 20:58:26.966,0.0,0.679861,6.75374,-0.247928,0.120871,-0.177833,0
2024-12-11 20:58:26.966,-0.0502493,0.663111,6.75374,-0.247928,0.120871,-0.177833,0
2024-12-11 20:58:26.969,-0.11007,0.658325,6.88535,-0.296185,0.156911,-0.158897,0
2024-12-11 20:58:26.971,-0.181855,0.65354,7.02204,-0.335279,0.189897,-0.13935,0
2024-12-11 20:58:26.974,-0.236889,0.660718,7.16561,-0.37193,0.22044,-0.121024,0
2024-12-11 20:58:26.978,-0.304188,0.739681,7.4671,-0.426906,0.276027,-0.0837624,0
2024-12-11 20:58:26.979,-0.304188,0.739681,7.4671,-0.450118,0.30046,-0.0642153,0
2024-12-11 20:58:26.980,-0.330509,0.770788,7.60618,-0.450118,0.30046,-0.0642153,0
2024-12-11 20:58:26.983,-0.328116,0.811466,7.72583,-0.467222,0.32184,-0.0440574,0
2024-12-11 20:58:26.986,-0.328116,0.873978,7.85265,-0.475774,0.338944,-0.0269536,0
2024-12-11 20:58:26.987,-0.313759,0.924228,7.99143,-0.483715,0.356048,-0.0129041,0
2024-12-11 20:58:26.993,-0.248854,1.01037,8.18794,-0.476995,0.400029,0.0206925,0
2024-12-11 20:58:26.993,-0.248854,1.01037,8.18794,-0.476995,0.400029,0.0206925,0
2024-12-11 20:58:26.994,-0.236889,1.01994,8.27408,-0.476995,0.400029,0.0206925,0
2024-12-11 20:58:26.997,-0.232104,1.0343,8.34826,-0.467833,0.4153,0.0280226,0
2024-12-11 20:58:26.999,-0.227318,1.05344,8.39851,-0.451951,0.424462,0.0329094,0
2024-12-11 20:58:27.001,-0.253639,1.04148,8.43201,-0.439123,0.431793,0.0390179,0
2024-12-11 20:58:27.005,-0.311366,1.04865,8.44158,-0.404305,0.439734,0.0500131,0
2024-12-11 20:58:27.007,-0.373579,1.0678,8.42722,-0.38659,0.439123,0.0542891,0
2024-12-11 20:58:27.010,-0.435793,1.07737,8.41287,-0.363989,0.435458,0.0610084,0
2024-12-11 20:58:27.011,-0.505185,1.1013,8.38176,-0.363989,0.435458,0.0610084,0
2024-12-11 20:58:27.016,-0.56022,1.1324,8.30758,-0.318786,0.427517,0.0756687,0
2024-12-11 20:58:27.016,-0.598505,1.16351,8.25972,-0.318786,0.427517,0.0756687,0
2024-12-11 20:58:27.018,-0.632004,1.18744,8.25015,-0.294963,0.418354,0.0787229,0
2024-12-11 20:58:27.020,-0.670289,1.22094,8.22622,-0.269918,0.409191,0.0854423,0
2024-12-11 20:58:27.027,-0.689432,1.32861,8.08953,-0.197227,0.374984,0.0970484,0
2024-12-11 20:58:27.031,-0.682254,1.36929,8.04407,-0.170961,0.359713,0.100103,0
2024-12-11 20:58:27.031,-0.682254,1.36929,8.04407,-0.170961,0.359713,0.100103,0
2024-12-11 20:58:27.032,-0.691825,1.40788,7.98186,-0.143473,0.347496,0.102546,0
2024-12-11 20:58:27.035,-0.701396,1.46052,7.90768,-0.117206,0.334057,0.104379,0
2024-12-11 20:58:27.037,-0.699003,1.51316,7.82872,-0.0891073,0.317564,0.104989,0
2024-12-11 20:58:27.039,-0.703789,1.5682,7.74258,-0.0891073,0.317564,0.106211,0
2024-12-11 20:58:27.042,-0.703789,1.5682,7.74258,-0.0347419,0.282135,0.106211,0
2024-12-11 20:58:27.042,-0.720539,1.62084,7.65883,-0.0347419,0.282135,0.106211,0
2024-12-11 20:58:27.046,-0.701396,1.75005,7.47189,0.0116825,0.247317,0.108654,0
2024-12-11 20:58:27.046,-0.701396,1.75005,7.47189,0.0116825,0.247317,0.108654,0
2024-12-11 20:58:27.049,-0.687039,1.78116,7.369,0.037338,0.230824,0.109876,0
2024-12-11 20:58:27.053,-0.632004,1.91037,7.18236,0.0745997,0.199671,0.11293,0
2024-12-11 20:58:27.054,-0.632004,1.91037,7.18236,0.0941468,0.185621,0.114763,0
2024-12-11 20:58:27.058,-0.529113,2.02792,6.97867,0.106975,0.174626,0.117206,0
2024-12-11 20:58:27.059,-0.529113,2.02792,6.97867,0.11797,0.164242,0.119039,0
2024-12-11 20:58:27.064,-0.442971,2.14277,6.7346,0.13263,0.141029,0.126369,0
2024-12-11 20:58:27.064,-0.442971,2.14277,6.7346,0.13263,0.141029,0.126369,0
2024-12-11 20:58:27.066,-0.385544,2.17149,6.62453,0.13263,0.141029,0.126369,0
2024-12-11 20:58:27.067,-0.328116,2.21456,6.53121,0.137517,0.135532,0.128812,0
2024-12-11 20:58:27.070,-0.282652,2.25763,6.43759,0.138128,0.125147,0.131867,0
2024-12-11 20:58:27.072,-0.260818,2.29113,6.35863,0.13263,0.118428,0.137364,0
2024-12-11 20:58:27.075,-0.229711,2.32463,6.29402,0.129576,0.117206,0.143473,0
2024-12-11 20:58:27.078,-0.189033,2.37009,6.23181,0.121024,0.113541,0.150192,0
2024-12-11 20:58:27.080,-0.179462,2.38923,6.18634,0.105142,0.11965,0.165463,0
2024-12-11 20:58:27.082,-0.179462,2.41555,6.1337,0.105142,0.11965,0.165463,0
2024-12-11 20:58:27.084,-0.160319,2.45863,6.08345,0.0959794,0.123926,0.175237,0
2024-12-11 20:58:27.086,-0.145962,2.47537,6.06192,0.0843733,0.133088,0.18501,0
2024-12-11 20:58:27.089,-0.143569,2.48973,6.03081,0.0703238,0.137975,0.196616,0
2024-12-11 20:58:27.091,-0.145962,2.52323,6.00927,0.0581068,0.14836,0.207612,0
2024-12-11 20:58:27.094,-0.174676,2.53789,6.02363,0.0477224,0.158133,0.219829,0
2024-12-11 20:58:27.096,-0.210568,2.56421,6.05713,0.0367272,0.169739,0.232046,0
2024-12-11 20:58:27.098,-0.244068,2.59771,6.09063,0.0245102,0.178291,0.246706,0
2024-12-11 20:58:27.101,-0.27996,2.61685,6.12652,0.0116825,0.187454,0.260145,0
2024-12-11 20:58:27.105,-0.344866,2.67189,6.24616,-0.00664296,0.204557,0.289465,0
2024-12-11 20:58:27.106,-0.344866,2.67189,6.24616,-0.0133623,0.209444,0.301071,0
2024-12-11 20:58:27.110,-0.361615,2.73171,6.37059,-0.022525,0.215553,0.313899,0
2024-12-11 20:58:27.111,-0.390329,2.73171,6.37059,-0.022525,0.215553,0.313899,0
2024-12-11 20:58:27.115,-0.426222,2.82024,6.54557,-0.0268009,0.214942,0.33589,0
2024-12-11 20:58:27.115,-0.426222,2.82024,6.54557,-0.0268009,0.214942,0.33589,0
2024-12-11 20:58:27.117,-0.438186,2.89442,6.63171,-0.0359636,0.210055,0.347496,0
2024-12-11 20:58:27.119,-0.435793,2.97817,6.72264,-0.0408504,0.204557,0.354826,0
2024-12-11 20:58:27.122,-0.442971,3.05474,6.79921,-0.0396287,0.197227,0.362767,0
2024-12-11 20:58:27.124,-0.462114,3.12921,6.88535,-0.0390179,0.182567,0.370097,0
2024-12-11 20:58:27.129,-0.498006,3.268,7.06032,-0.0371853,0.150192,0.380481,0
2024-12-11 20:58:27.130,-0.478864,3.19861,6.97627,-0.0371853,0.150192,0.380481,0
2024-12-11 20:58:27.131,-0.505185,3.33021,7.17039,-0.0371853,0.150192,0.380481,0
2024-12-11 20:58:27.137,-0.454935,3.48814,7.35464,-0.0158057,0.0640626,0.398807,0
2024-12-11 20:58:27.137,-0.454935,3.48814,7.35464,-0.0158057,0.0640626,0.398807,0
2024-12-11 20:58:27.139,-0.435793,3.55035,7.45275,-0.00481042,0.0402396,0.401861,0
2024-12-11 20:58:27.144,-0.373579,3.68226,7.66122,0.00862822,-0.0129041,0.404305,0
2024-12-11 20:58:27.144,-0.373579,3.68226,7.66122,0.00862822,-0.0129041,0.404305,0
2024-12-11 20:58:27.145,-0.342473,3.7349,7.75693,0.00862822,-0.0129041,0.404305,0
2024-12-11 20:58:27.148,-0.301795,3.78754,7.8359,0.0165692,-0.0385597,0.403694,0
2024-12-11 20:58:27.150,-0.272782,3.84497,7.89811,0.0165692,-0.0385597,0.403694,0
2024-12-11 20:58:27.152,-0.251246,3.89522,7.95793,0.0287862,-0.0880384,0.399418,0
2024-12-11 20:58:27.155,-0.241675,3.95743,8.0345,0.0330621,-0.110029,0.396364,0
2024-12-11 20:58:27.157,-0.234497,4.0005,8.12782,0.0367272,-0.134463,0.39392,0
2024-12-11 20:58:27.159,-0.232104,4.01246,8.22622,0.0422248,-0.159507,0.393309,0
2024-12-11 20:58:27.163,-0.234497,4.03161,8.31954,0.0434465,-0.177833,0.391477,0
2024-12-11 20:58:27.164,-0.248854,4.05314,8.42483,0.0422248,-0.195547,0.393309,0
2024-12-11 20:58:27.166,-0.256032,4.08186,8.5349,0.0434465,-0.206543,0.391477,0
2024-12-11 20:58:27.171,-0.251246,4.15364,8.78405,0.0458899,-0.230366,0.391477,0
2024-12-11 20:58:27.172,-0.244068,4.15364,8.78405,0.0428357,-0.234642,0.392088,0
2024-12-11 20:58:27.176,-0.253639,4.25922,9.03769,0.0428357,-0.234642,0.392698,0
2024-12-11 20:58:27.176,-0.253639,4.25922,9.03769,0.0428357,-0.234642,0.392698,0
2024-12-11 20:58:27.178,-0.248854,4.31187,9.1669,0.041614,-0.235863,0.396364,0
2024-12-11 20:58:27.180,-0.251246,4.37408,9.28206,0.0397814,-0.232198,0.399418,0
2024-12-11 20:58:27.183,-0.265603,4.4339,9.37777,0.0379489,-0.22609,0.400639,0
2024-12-11 20:58:27.185,-0.277567,4.48176,9.49023,0.0355055,-0.218149,0.403083,0
2024-12-11 20:58:27.188,-0.272782,4.53918,9.61227,0.0342838,-0.210819,0.409191,0
2024-12-11 20:58:27.190,-0.267996,4.58465,9.71994,0.0287862,-0.20471,0.415911,0
2024-12-11 20:58:27.195,-0.239282,4.63968,9.9356,0.0220669,-0.182109,0.426295,0
2024-12-11 20:58:27.196,-0.239282,4.63968,9.9356,0.0245102,-0.173557,0.431182,0
2024-12-11 20:58:27.197,-0.236889,4.666,10.0576,0.0245102,-0.173557,0.431182,0
2024-12-11 20:58:27.199,-0.229711,4.68515,10.1797,0.0202343,-0.163783,0.436679,0
2024-12-11 20:58:27.204,-0.145962,4.70907,10.4456,0.0165692,-0.144847,0.446453,0
2024-12-11 20:58:27.206,-0.112463,4.71386,10.5987,0.0147367,-0.133852,0.450729,0
2024-12-11 20:58:27.207,-0.145962,4.70907,10.4456,0.0147367,-0.133852,0.450729,0
2024-12-11 20:58:27.209,-0.0646062,4.71625,10.7423,0.0153475,-0.122857,0.455005,0
2024-12-11 20:58:27.213,0.0143569,4.72104,10.9986,0.0208452,-0.100866,0.461724,0
2024-12-11 20:58:27.214,0.0143569,4.72104,10.9986,0.0208452,-0.100866,0.461724,0
2024-12-11 20:58:27.218,0.0885344,4.70429,11.2211,0.0263428,-0.0782648,0.466,0
2024-12-11 20:58:27.219,0.0550349,4.71625,11.2211,0.0324513,-0.0660479,0.466611,0
2024-12-11 20:58:27.221,0.0981057,4.69233,11.3408,0.0324513,-0.0660479,0.466611,0
2024-12-11 20:58:27.223,0.117248,4.67558,11.4748,0.0367272,-0.0538309,0.466611,0
2024-12-11 20:58:27.226,0.160319,4.6325,11.5971,0.0410031,-0.0428357,0.467222,0
2024-12-11 20:58:27.228,0.172283,4.59422,11.7191,0.0471116,-0.0318404,0.469054,0
2024-12-11 20:58:27.230,0.160319,4.55593,11.8268,0.0544418,-0.021456,0.467833,0
2024-12-11 20:58:27.233,0.133998,4.50808,11.8962,0.0691021,0.00419957,0.464778,0
2024-12-11 20:58:27.235,0.11007,4.45544,11.9489,0.0691021,0.00419957,0.464778,0
2024-12-11 20:58:27.238,0.0837488,4.40519,11.9943,0.0745997,0.0139731,0.464168,0
2024-12-11 20:58:27.242,0.0430708,4.32383,12.035,0.0819299,0.0237467,0.456837,0
2024-12-11 20:58:27.244,0.00478565,4.29512,12.0422,0.093536,0.0329094,0.45134,0
2024-12-11 20:58:27.245,0.0239282,4.32383,12.035,0.0978119,0.0347419,0.44462,0
2024-12-11 20:58:27.246,-0.0334995,4.28076,12.023,0.0978119,0.0347419,0.44462,0
2024-12-11 20:58:27.252,-0.112463,4.26401,11.9871,0.111251,0.0280226,0.419576,0
2024-12-11 20:58:27.254,-0.141177,4.25205,11.9824,0.106975,0.0316877,0.429349,0
2024-12-11 20:58:27.255,-0.141177,4.25205,11.9824,0.106975,0.0316877,0.429349,0
2024-12-11 20:58:27.256,-0.20339,4.24247,11.9728,0.115526,0.0176382,0.405526,0
2024-12-11 20:58:27.259,-0.270389,4.22572,11.9584,0.116137,0.00847551,0.395753,0
2024-12-11 20:58:27.261,-0.34008,4.2015,11.9513,0.123468,-0.000687203,0.382314,0
2024-12-11 20:58:27.264,-0.4334,4.17518,11.9393,0.130187,-0.0281753,0.362156,0
2024-12-11 20:58:27.266,-0.536291,4.15125,11.9345,0.130187,-0.0281753,0.362156,0
2024-12-11 20:58:27.269,-0.643968,4.12014,11.9417,0.130187,-0.0281753,0.362156,0
2024-12-11 20:58:27.270,-0.751645,4.08664,11.956,0.143015,-0.0642153,0.346274,0
2024-12-11 20:58:27.275,-0.964906,4.02921,11.9297,0.155232,-0.100866,0.343831,0
2024-12-11 20:58:27.279,-1.12044,4.03161,11.9106,0.16867,-0.138739,0.353604,0
2024-12-11 20:58:27.279,-1.12044,4.03161,11.9106,0.16867,-0.138739,0.353604,0
2024-12-11 20:58:27.282,-1.19222,4.034,11.9178,0.177222,-0.157675,0.362156,0
2024-12-11 20:58:27.283,-1.19222,4.034,11.9178,0.179665,-0.177833,0.374984,0
2024-12-11 20:58:27.285,-1.23529,4.02682,11.9225,0.183941,-0.197991,0.392088,0
2024-12-11 20:58:27.287,-1.24487,4.01725,11.9273,0.183941,-0.197991,0.392088,0
2024-12-11 20:58:27.290,-1.2664,3.99332,11.9345,0.186996,-0.215705,0.409191,0
2024-12-11 20:58:27.291,-1.27119,3.967,11.9369,0.186996,-0.215705,0.409191,0
2024-12-11 20:58:27.296,-1.13958,3.92872,11.901,0.209597,-0.243804,0.476385,0
2024-12-11 20:58:27.296,-1.13958,3.92872,11.901,0.209597,-0.243804,0.476385,0
2024-12-11 20:58:27.298,-1.01994,3.91914,11.846,0.214484,-0.251135,0.500818,0
2024-12-11 20:58:27.303,-0.737288,3.92632,11.7574,0.222425,-0.251745,0.55213,0
2024-12-11 20:58:27.303,-0.737288,3.92632,11.7574,0.222425,-0.251745,0.55213,0
2024-12-11 20:58:27.305,-0.593719,3.94068,11.7168,0.232198,-0.245637,0.577785,0
2024-12-11 20:58:27.308,-0.486042,3.97179,11.6545,0.236474,-0.237696,0.604052,0
2024-12-11 20:58:27.310,-0.3999,4.01486,11.5899,0.242583,-0.223646,0.632151,0
2024-12-11 20:58:27.312,-0.320937,4.04836,11.4915,0.250524,-0.20471,0.66086,0
2024-12-11 20:58:27.316,-0.263211,4.10339,11.3192,0.254189,-0.177833,0.693235,0
2024-12-11 20:58:27.317,-0.189033,4.15843,11.135,0.257854,-0.145458,0.727443,0
2024-12-11 20:58:27.319,-0.0550349,4.20897,10.9484,0.259686,-0.107585,0.761116,0
2024-12-11 20:58:27.322,0.136391,4.26401,10.7327,0.259686,-0.0581068,0.79288,0
2024-12-11 20:58:27.325,0.325723,4.32862,10.4862,0.256021,0.0561216,0.846023,0
2024-12-11 20:58:27.328,0.478864,4.38604,10.2251,0.245026,0.11965,0.86496,0
2024-12-11 20:58:27.329,0.591326,4.44347,9.97388,0.245026,0.11965,0.86496,0
2024-12-11 20:58:27.332,0.655932,4.51047,9.74627,0.232809,0.177069,0.878398,0
2024-12-11 20:58:27.334,0.677468,4.57986,9.5357,0.214484,0.225937,0.883285,0
2024-12-11 20:58:27.336,0.689432,4.65165,9.34427,0.188828,0.255258,0.880842,0
2024-12-11 20:58:27.339,0.703789,4.69711,9.19562,0.117359,0.254647,0.847245,0
2024-12-11 20:58:27.341,0.691825,4.67558,9.1023,0.117359,0.254647,0.847245,0
2024-12-11 20:58:27.343,0.682254,4.58943,9.06162,0.0697129,0.224105,0.817924,0
2024-12-11 20:58:27.345,0.641576,4.41954,9.08555,0.0202343,0.174626,0.781884,0
2024-12-11 20:58:27.348,0.474078,4.17039,9.14297,0.0202343,0.174626,0.781884,0
2024-12-11 20:58:27.350,0.20339,3.86172,9.23151,-0.0994917,0.0322986,0.705452,0
2024-12-11 20:58:27.353,-0.141177,3.50249,9.38734,-0.166685,-0.0568851,0.668801,0
2024-12-11 20:58:27.356,-0.50997,3.12443,9.60987,-0.309623,-0.27679,0.609549,0
2024-12-11 20:58:27.358,-0.869193,2.74128,9.89253,-0.309623,-0.27679,0.609549,0
2024-12-11 20:58:27.360,-1.18265,2.37488,10.2156,-0.387201,-0.395905,0.585115,0
2024-12-11 20:58:27.363,-1.45095,2.05424,10.6083,-0.463557,-0.51441,0.565568,0
2024-12-11 20:58:27.364,-1.68066,1.78355,11.0824,-0.541745,-0.621919,0.548464,0
2024-12-11 20:58:27.367,-1.8003,1.55862,11.5612,-0.611993,-0.722098,0.535637,0
2024-12-11 20:58:27.370,-1.86012,1.36211,11.9943,-0.684683,-0.812503,0.525252,0
2024-12-11 20:58:27.371,-1.90558,1.20419,12.4229,-0.745768,-0.88947,0.51609,0
2024-12-11 20:58:27.376,-1.95105,0.921835,13.407,-0.845336,-1.00553,0.508149,0
2024-12-11 20:58:27.377,-1.93908,1.05583,12.8827,-0.879544,-1.03729,0.504483,0
2024-12-11 20:58:27.378,-1.92233,0.804287,13.9816,-0.879544,-1.03729,0.504483,0
2024-12-11 20:58:27.382,-1.82662,0.665504,14.5226,-0.900923,-1.05684,0.497153,0
2024-12-11 20:58:27.383,-1.69023,0.541077,14.968,-0.900923,-1.05684,0.497153,0
2024-12-11 20:58:27.385,-1.56341,0.428614,15.3867,-0.895426,-1.03668,0.490434,0
2024-12-11 20:58:27.388,-1.43898,0.27996,15.801,-0.873435,-1.00431,0.483715,0
2024-12-11 20:58:27.392,-1.29751,0.117248,16.3995,-0.799523,-0.909628,0.468443,0
2024-12-11 20:58:27.392,-1.12522,-0.0454636,16.3995,-0.799523,-0.909628,0.468443,0
2024-12-11 20:58:27.395,-0.785145,-0.215354,16.5936,-0.747601,-0.852819,0.457448,0
2024-12-11 20:58:27.397,-0.591326,-0.337687,16.6726,-0.685294,-0.794789,0.442788,0
2024-12-11 20:58:27.400,-0.789931,-0.445364,16.8281,-0.619323,-0.727595,0.431793,0
2024-12-11 20:58:27.402,-0.962513,-0.579362,16.9932,-0.539913,-0.639633,0.42996,1
2024-12-11 20:58:27.407,-0.909871,-0.857229,16.6295,-0.452561,-0.538233,0.42996,0
2024-12-11 20:58:27.409,-0.885943,-0.998405,16.3445,-0.2858,-0.353757,0.447064,0
2024-12-11 20:58:27.409,-0.885943,-0.998405,16.3445,-0.2858,-0.353757,0.447064,0
2024-12-11 20:58:27.412,-0.833001,-1.1013,16.0478,-0.203947,-0.266406,0.460502,0
2024-12-11 20:58:27.416,-0.715753,-1.18265,15.37,-0.123315,-0.181498,0.475774,0
2024-12-11 20:58:27.419,-0.689432,-1.19701,14.9848,0.0245102,-0.0238994,0.509981,0
2024-12-11 20:58:27.419,-0.689432,-1.19701,14.9848,0.0245102,-0.0238994,0.509981,0
2024-12-11 20:58:27.423,-0.722932,-1.1348,14.1323,0.154621,0.129423,0.551519,0
2024-12-11 20:58:27.425,-0.751645,-1.0654,13.6869,0.21204,0.202114,0.572287,0
2024-12-11 20:58:27.429,-0.782752,-0.97687,13.2586,0.252356,0.268696,0.593056,0
2024-12-11 20:58:27.430,-0.830609,-0.876371,12.8707,0.252356,0.268696,0.593056,0
2024-12-11 20:58:27.433,-0.869193,-0.751645,12.5139,0.323825,0.378649,0.63887,0
2024-12-11 20:58:27.434,-0.869193,-0.751645,12.5139,0.323825,0.378649,0.66025,0
2024-12-11 20:58:27.435,-0.9003,-0.629611,12.1621,0.343983,0.42263,0.66025,0
2024-12-11 20:58:27.440,-0.97687,-0.483649,11.5277,0.361698,0.49471,0.698122,0
2024-12-11 20:58:27.440,-0.97687,-0.483649,11.5277,0.361698,0.49471,0.698122,0
2024-12-11 20:58:27.444,-1.06301,-0.435793,10.9771,0.354979,0.546632,0.731719,0
2024-12-11 20:58:27.445,-1.06301,-0.435793,10.9771,0.354979,0.546632,0.731719,0
2024-12-11 20:58:27.447,-1.16351,-0.407079,10.692,0.337875,0.575342,0.744623,0
2024-12-11 20:58:27.449,-1.26879,-0.397508,10.4456,0.314663,0.605273,0.75684,0
2024-12-11 20:58:27.454,-1.58973,-0.4334,10.0433,0.2548,0.649865,0.78555,0
2024-12-11 20:58:27.455,-1.58973,-0.4334,10.0433,0.2548,0.649865,0.78555,0
2024-12-11 20:58:27.456,-1.80269,-0.435793,9.85664,0.212651,0.669412,0.800821,0
2024-12-11 20:58:27.458,-2.02313,-0.431007,9.68405,0.172335,0.688959,0.82159,0
2024-12-11 20:58:27.462,-2.2337,-0.421436,9.50938,0.0727672,0.72561,0.866792,0
2024-12-11 20:58:27.464,-2.42991,-0.414257,9.33949,0.0727672,0.72561,0.866792,0
2024-12-11 20:58:27.468,-2.7676,-0.332901,9.05923,-0.0365745,0.757374,0.919325,0
2024-12-11 20:58:27.469,-2.7676,-0.332901,9.05923,-0.0909399,0.764094,0.945592,0
2024-12-11 20:58:27.470,-2.88485,-0.260818,8.97308,-0.0909399,0.764094,0.945592,0
2024-12-11 20:58:27.473,-2.9686,-0.184247,8.89173,-0.145916,0.768369,0.968804,0
2024-12-11 20:58:27.476,-3.03799,-0.138784,8.83669,-0.252204,0.770813,1.01584,0
2024-12-11 20:58:27.478,-3.10289,-0.0933201,8.81277,-0.252204,0.770813,1.01584,0
2024-12-11 20:58:27.480,-3.14836,-0.0526421,8.81755,-0.252204,0.770813,1.01584,0
2024-12-11 20:58:27.483,-3.18186,-0.0334995,8.85823,-0.341387,0.764704,1.05799,0
2024-12-11 20:58:27.484,-3.21296,-0.0430708,8.91805,-0.379871,0.753098,1.07692,0
2024-12-11 20:58:27.488,-3.24885,-0.0526421,8.98026,-0.437901,0.724999,1.11541,0
2024-12-11 20:58:27.489,-3.27278,-0.0550349,9.05205,-0.437901,0.724999,1.11541,0
2024-12-11 20:58:27.491,-3.27996,-0.066999,9.1334,-0.456227,0.709728,1.13312,0
2024-12-11 20:58:27.494,-3.26321,-0.0765703,9.21237,-0.472109,0.691403,1.15267,0
2024-12-11 20:58:27.497,-3.22014,-0.0909273,9.27966,-0.483104,0.648033,1.18627,0
2024-12-11 20:58:27.499,-3.1675,-0.0861416,9.32513,-0.483104,0.648033,1.18627,0
2024-12-11 20:58:27.502,-3.11246,-0.0765703,9.35145,-0.48005,0.625431,1.20337,0
2024-12-11 20:58:27.503,-3.04038,-0.0717847,9.35384,-0.470276,0.604052,1.21925,0
2024-12-11 20:58:27.506,-2.97577,-0.0598206,9.32992,-0.455616,0.582672,1.23574,0
2024-12-11 20:58:27.510,-2.81545,-0.00239282,9.19562,-0.424462,0.550297,1.26384,0
2024-12-11 20:58:27.510,-2.81545,-0.00239282,9.19562,-0.424462,0.550297,1.26384,0
2024-12-11 20:58:27.515,-2.58574,0.0454636,8.97308,-0.385368,0.520976,1.2895,0
2024-12-11 20:58:27.516,-2.58574,0.0454636,8.97308,-0.385368,0.520976,1.2895,0
2024-12-11 20:58:27.517,-2.45145,0.0981057,8.83669,-0.366432,0.505705,1.30477,0
2024-12-11 20:58:27.520,-2.31266,0.157926,8.67847,-0.349328,0.491045,1.31515,0
2024-12-11 20:58:27.524,-2.04467,0.270389,8.35304,-0.312677,0.467833,1.33531,0
2024-12-11 20:58:27.525,-2.04467,0.270389,8.35304,-0.312677,0.467833,1.33531,0
2024-12-11 20:58:27.527,-1.92712,0.332901,8.17358,-0.296795,0.464168,1.34325,0
2024-12-11 20:58:27.529,-1.78834,0.361615,8.00339,-0.287022,0.459281,1.35303,0
2024-12-11 20:58:27.532,-1.66869,0.383151,7.85265,-0.277248,0.453172,1.35669,0
2024-12-11 20:58:27.536,-1.49641,0.409472,7.5676,-0.265642,0.447064,1.36708,0
2024-12-11 20:58:27.536,-1.49641,0.409472,7.5676,-0.265642,0.447064,1.36708,0
2024-12-11 20:58:27.539,-1.41745,0.41665,7.44078,-0.264421,0.445231,1.37074,0
2024-12-11 20:58:27.543,-1.30229,0.457328,7.20868,-0.272972,0.449507,1.37563,0
2024-12-11 20:58:27.546,-1.25204,0.447757,7.11296,-0.279692,0.454394,1.37441,0
2024-12-11 20:58:27.546,-1.25204,0.447757,7.11296,-0.279692,0.454394,1.37441,0
2024-12-11 20:58:27.549,-1.22333,0.464507,7.04357,-0.287633,0.459892,1.3738,0
2024-12-11 20:58:27.553,-1.21854,0.531506,6.94277,-0.287633,0.459892,1.3738,0
2024-12-11 20:58:27.558,-1.28794,0.574577,6.90928,-0.327338,0.483104,1.37257,0
2024-12-11 20:58:27.562,-1.4677,0.718146,6.94277,-0.373151,0.498375,1.37502,0
2024-12-11 20:58:27.563,-1.4677,0.718146,6.94277,-0.373151,0.498375,1.37502,0
2024-12-11 20:58:27.565,-1.52513,0.766002,6.99063,-0.373151,0.498375,1.37502,0
2024-12-11 20:58:27.567,-1.60409,0.785145,7.05314,-0.403083,0.513035,1.3799,0
2024-12-11 20:58:27.568,-1.60409,0.785145,7.05314,-0.413467,0.513035,1.38357,0
2024-12-11 20:58:27.569,-1.67587,0.787538,7.1345,-0.413467,0.513035,1.38357,0
2024-12-11 20:58:27.570,-1.67587,0.787538,7.1345,-0.420797,0.514868,1.3854,0
2024-12-11 20:58:27.572,-1.72612,0.804287,7.21825,-0.420797,0.514868,1.3854,0
2024-12-11 20:58:27.574,-1.77159,0.809073,7.302,-0.426295,0.515479,1.38784,0
2024-12-11 20:58:27.577,-1.82184,0.785145,7.39771,-0.42996,0.515479,1.39029,0
2024-12-11 20:58:27.579,-1.84337,0.789931,7.48624,-0.428738,0.512424,1.39212,0
2024-12-11 20:58:27.582,-1.8673,0.792323,7.54128,-0.420187,0.505094,1.3909,0
2024-12-11 20:58:27.583,-1.91994,0.775574,7.60379,-0.420187,0.505094,1.3909,0
2024-12-11 20:58:27.586,-1.97049,0.766002,7.64686,-0.411024,0.502651,1.38968,0
2024-12-11 20:58:27.590,-2.05902,0.768395,7.71147,-0.390255,0.498986,1.3909,0
2024-12-11 20:58:27.591,-2.05902,0.768395,7.71147,-0.390255,0.498986,1.3909,0
2024-12-11 20:58:27.595,-2.16192,0.758824,7.81436,-0.363989,0.492877,1.38907,0
2024-12-11 20:58:27.595,-2.10209,0.766002,7.7689,-0.363989,0.492877,1.38907,0
2024-12-11 20:58:27.598,-2.21934,0.737288,7.84547,-0.351772,0.489823,1.39273,0
