timestamp,accel_x,accel_y,accel_z,gyro_x,gyro_y,gyro_z,step_timestamp
2024-12-11 21:17:00.202,0.0741775,2.98056,9.43041,0.0910926,0.0164165,-0.0153475,0
2024-12-11 21:17:00.202,0.0741775,2.98056,9.43041,0.0910926,0.0164165,-0.0153475,0
2024-12-11 21:17:00.202,0.0741775,2.98056,9.43041,0.0910926,0.0164165,-0.0153475,0
2024-12-11 21:17:00.204,0.0885344,2.99252,9.38495,0.0959794,0.0268009,-0.0184018,0
2024-12-11 21:17:00.204,0.0885344,2.99252,9.38495,0.0959794,0.0268009,-0.0184018,0
2024-12-11 21:17:00.204,0.0885344,2.99252,9.38495,0.0959794,0.0268009,-0.0184018,0
2024-12-11 21:17:00.204,0.0885344,2.99252,9.38495,0.0959794,0.0268009,-0.0184018,0
2024-12-11 21:17:00.204,0.0885344,2.99252,9.38495,0.0959794,0.0268009,-0.0184018,0
2024-12-11 21:17:00.204,0.0885344,2.99252,9.38495,0.0959794,0.0268009,-0.0184018,0
2024-12-11 21:17:00.205,0.0885344,2.99252,9.38495,0.100255,0.0371853,-0.0226777,0
2024-12-11 21:17:00.207,0.0909273,3.0021,9.34666,0.100255,0.0371853,-0.0226777,0
2024-12-11 21:17:00.207,0.0909273,3.0021,9.34666,0.100255,0.0371853,-0.0226777,0
2024-12-11 21:17:00.207,0.0909273,3.0021,9.34666,0.100255,0.0371853,-0.0226777,0
2024-12-11 21:17:00.207,0.0909273,3.0021,9.34666,0.100255,0.0371853,-0.0226777,0
2024-12-11 21:17:00.208,0.0909273,3.0021,9.34666,0.101477,0.0439046,-0.0251211,0
2024-12-11 21:17:00.208,0.0885344,3.0021,9.34666,0.101477,0.0439046,-0.0251211,0
2024-12-11 21:17:00.208,0.0909273,3.0021,9.34666,0.101477,0.0439046,-0.0251211,0
2024-12-11 21:17:00.208,0.0909273,3.0021,9.34666,0.101477,0.0439046,-0.0251211,0
2024-12-11 21:17:00.209,0.11007,3.0021,9.29881,0.101477,0.0439046,-0.0251211,0
2024-12-11 21:17:00.209,0.11007,3.0021,9.29881,0.101477,0.0439046,-0.0251211,0
2024-12-11 21:17:00.209,0.11007,3.0021,9.29881,0.101477,0.0439046,-0.0251211,0
2024-12-11 21:17:00.209,0.11007,3.0021,9.29881,0.101477,0.0439046,-0.0251211,0
2024-12-11 21:17:00.210,0.11007,3.0021,9.29881,0.10392,0.0494023,-0.0300079,0
2024-12-11 21:17:00.210,0.11007,3.0021,9.29881,0.10392,0.0494023,-0.0300079,0
2024-12-11 21:17:00.211,0.11007,2.9997,9.22672,0.10392,0.0494023,-0.0300079,0
2024-12-11 21:17:00.211,0.11007,2.9997,9.22672,0.10392,0.0494023,-0.0300079,0
2024-12-11 21:17:00.211,0.11007,2.9997,9.22672,0.10392,0.0494023,-0.0300079,0
2024-12-11 21:17:00.212,0.11007,2.9997,9.22672,0.104531,0.0518457,-0.033673,0
2024-12-11 21:17:00.212,0.11007,2.9997,9.22672,0.104531,0.0518457,-0.033673,0
2024-12-11 21:17:00.212,0.11007,2.9997,9.22672,0.104531,0.0518457,-0.033673,0
2024-12-11 21:17:00.214,0.105284,3.00927,9.15255,0.104531,0.0518457,-0.033673,0
2024-12-11 21:17:00.214,0.105284,3.00927,9.15255,0.104531,0.0518457,-0.033673,0
2024-12-11 21:17:00.214,0.105284,3.00927,9.15255,0.104531,0.0518457,-0.033673,0
2024-12-11 21:17:00.214,0.105284,3.00927,9.15255,0.104531,0.0518457,-0.033673,0
2024-12-11 21:17:00.214,0.105284,3.00927,9.15255,0.104531,0.0518457,-0.033673,0
2024-12-11 21:17:00.214,0.105284,3.00927,9.15255,0.104531,0.0518457,-0.033673,0
2024-12-11 21:17:00.216,0.100499,3.01884,9.11665,0.106364,0.0555107,-0.0397814,0
2024-12-11 21:17:00.216,0.100499,3.01884,9.11665,0.106364,0.0555107,-0.0397814,0
2024-12-11 21:17:00.217,0.100499,3.01884,9.11665,0.109418,0.0561216,-0.0410031,0
2024-12-11 21:17:00.217,0.100499,3.01884,9.11665,0.109418,0.0561216,-0.0410031,0
2024-12-11 21:17:00.218,0.0717847,3.04277,9.06641,0.109418,0.0561216,-0.0410031,0
2024-12-11 21:17:00.218,0.0717847,3.04277,9.06641,0.109418,0.0561216,-0.0410031,0
2024-12-11 21:17:00.219,0.0717847,3.04277,9.06641,0.109418,0.0561216,-0.0410031,0
2024-12-11 21:17:00.219,0.0717847,3.04277,9.06641,0.109418,0.0561216,-0.0410031,0
2024-12-11 21:17:00.221,0.0311067,3.06909,9.00658,0.109418,0.0579541,-0.0458899,0
2024-12-11 21:17:00.221,0.0311067,3.06909,9.00658,0.109418,0.0579541,-0.0458899,0
2024-12-11 21:17:00.221,0.0311067,3.06909,9.00658,0.109418,0.0579541,-0.0458899,0
2024-12-11 21:17:00.221,0.0311067,3.06909,9.00658,0.109418,0.0579541,-0.0458899,0
2024-12-11 21:17:00.221,0.0311067,3.06909,9.00658,0.109418,0.0579541,-0.0458899,0
2024-12-11 21:17:00.222,0.0311067,3.06909,9.00658,0.110029,0.0561216,-0.0477224,0
2024-12-11 21:17:00.222,0.0311067,3.06909,9.00658,0.110029,0.0561216,-0.0477224,0
2024-12-11 21:17:00.223,-0.0191426,3.07627,8.94916,0.110029,0.0561216,-0.0477224,0
2024-12-11 21:17:00.223,-0.0191426,3.07627,8.94916,0.110029,0.0561216,-0.0477224,0
2024-12-11 21:17:00.223,-0.0191426,3.07627,8.94916,0.110029,0.0561216,-0.0477224,0
2024-12-11 21:17:00.223,-0.0191426,3.07627,8.94916,0.110029,0.0561216,-0.0477224,0
2024-12-11 21:17:00.225,-0.0598206,3.08854,8.90609,0.111251,0.0567324,-0.0477224,0
2024-12-11 21:17:00.225,-0.0598206,3.08854,8.90609,0.111251,0.0567324,-0.0477224,0
2024-12-11 21:17:00.225,-0.0598206,3.08854,8.90609,0.111251,0.0567324,-0.0477224,0
2024-12-11 21:17:00.226,-0.0598206,3.08854,8.90609,0.111251,0.0567324,-0.0477224,0
2024-12-11 21:17:00.226,-0.0598206,3.08854,8.90609,0.111251,0.0567324,-0.0477224,0
2024-12-11 21:17:00.228,-0.105284,3.11007,8.87019,0.111861,0.0573433,-0.049555,0
2024-12-11 21:17:00.228,-0.105284,3.11007,8.87019,0.111861,0.0573433,-0.049555,0
2024-12-11 21:17:00.228,-0.105284,3.11007,8.87019,0.111861,0.0573433,-0.049555,0
2024-12-11 21:17:00.229,-0.105284,3.11007,8.87019,0.110029,0.0536782,-0.0483333,0
2024-12-11 21:17:00.229,-0.105284,3.11007,8.87019,0.110029,0.0536782,-0.0483333,0
2024-12-11 21:17:00.229,-0.105284,3.11007,8.87019,0.110029,0.0536782,-0.0483333,0
2024-12-11 21:17:00.230,-0.157926,3.14357,8.81994,0.110029,0.0536782,-0.0483333,0
2024-12-11 21:17:00.230,-0.157926,3.14357,8.81994,0.110029,0.0536782,-0.0483333,0
2024-12-11 21:17:00.230,-0.157926,3.14357,8.81994,0.110029,0.0536782,-0.0483333,0
2024-12-11 21:17:00.231,-0.157926,3.14357,8.81994,0.109418,0.0487914,-0.0483333,0
2024-12-11 21:17:00.231,-0.157926,3.14357,8.81994,0.109418,0.0487914,-0.0483333,0
2024-12-11 21:17:00.231,-0.157926,3.14357,8.81994,0.109418,0.0487914,-0.0483333,0
2024-12-11 21:17:00.232,-0.198604,3.18903,8.75534,0.109418,0.0487914,-0.0483333,0
2024-12-11 21:17:00.233,-0.198604,3.18903,8.75534,0.109418,0.0487914,-0.0483333,0
2024-12-11 21:17:00.240,-0.332901,3.28475,8.57318,0.0984228,0.0298552,-0.0403923,0
2024-12-11 21:17:00.240,-0.332901,3.28475,8.57318,0.0984228,0.0298552,-0.0403923,0
2024-12-11 21:17:00.240,-0.332901,3.28475,8.57318,0.0984228,0.0298552,-0.0403923,0
2024-12-11 21:17:00.243,-0.361615,3.30628,8.51336,0.0929251,0.0182491,-0.0410031,0
2024-12-11 21:17:00.244,-0.375972,3.35175,8.45354,0.0831516,0.00358873,-0.037338,0
2024-12-11 21:17:00.247,-0.387936,3.402,8.41526,0.0764323,-0.0104608,-0.0348946,0
2024-12-11 21:17:00.249,-0.404686,3.43071,8.37697,0.0623828,-0.0263428,-0.0324513,0
2024-12-11 21:17:00.252,-0.426222,3.46421,8.34347,0.0483333,-0.0452791,-0.0318404,0
2024-12-11 21:17:00.254,-0.442971,3.51685,8.32672,0.033673,-0.0642153,-0.0300079,0
2024-12-11 21:17:00.256,-0.4334,3.55274,8.32672,0.0165692,-0.0868167,-0.0306187,0
2024-12-11 21:17:00.258,-0.411865,3.57906,8.33869,-0.00358873,-0.109418,-0.0348946,0
2024-12-11 21:17:00.261,-0.390329,3.61735,8.3674,-0.0237467,-0.13263,-0.0348946,0
2024-12-11 21:17:00.263,-0.352044,3.64128,8.41526,-0.0439046,-0.15401,-0.0391706,0
2024-12-11 21:17:00.265,-0.301795,3.66551,8.46551,-0.0646735,-0.176,-0.0452791,0
2024-12-11 21:17:00.269,-0.253639,3.69422,8.52054,-0.0848314,-0.201656,-0.0513875,0
2024-12-11 21:17:00.270,-0.191426,3.69661,8.58515,-0.109265,-0.224868,-0.0599394,0
2024-12-11 21:17:00.273,-0.107677,3.68465,8.64736,-0.133088,-0.249302,-0.0684913,0
2024-12-11 21:17:00.276,-0.0358923,3.66072,8.72662,-0.150803,-0.268238,-0.0794865,0
2024-12-11 21:17:00.277,0.0430708,3.62453,8.81994,-0.171572,-0.287785,-0.0904818,0
2024-12-11 21:17:00.280,0.148355,3.56231,8.91805,-0.196006,-0.306722,-0.102699,0
2024-12-11 21:17:00.283,0.239282,3.48574,8.99701,-0.218607,-0.321993,-0.116748,0
2024-12-11 21:17:00.284,0.30658,3.40917,9.09273,-0.238765,-0.334821,-0.127743,0
2024-12-11 21:17:00.287,0.385544,3.34935,9.21955,-0.260755,-0.346427,-0.141182,0
2024-12-11 21:17:00.290,0.459721,3.28714,9.36102,-0.282746,-0.353146,-0.15401,0
2024-12-11 21:17:00.291,0.517149,3.22014,9.50698,-0.304126,-0.359865,-0.16867,0
2024-12-11 21:17:00.294,0.567398,3.1675,9.62663,-0.323062,-0.364752,-0.180887,0
2024-12-11 21:17:00.297,0.627219,3.12204,9.77977,-0.352383,-0.358033,-0.203488,0
2024-12-11 21:17:00.299,0.672682,3.06909,9.95474,-0.352383,-0.358033,-0.203488,0
2024-12-11 21:17:00.302,0.677468,3.02124,10.1246,-0.366432,-0.348259,-0.213262,0
2024-12-11 21:17:00.303,0.672682,2.97577,10.3041,-0.375595,-0.332377,-0.220592,0
2024-12-11 21:17:00.306,0.684646,2.92313,10.4934,-0.378649,-0.31283,-0.226701,0
2024-12-11 21:17:00.309,0.689432,2.88485,10.6657,-0.375595,-0.253578,-0.230977,0
2024-12-11 21:17:00.311,0.699003,2.85135,10.8236,-0.367654,-0.216316,-0.235863,0
2024-12-11 21:17:00.313,0.701396,2.79631,10.9843,-0.367654,-0.216316,-0.235863,0
2024-12-11 21:17:00.316,0.682254,2.73171,11.135,-0.353604,-0.172946,-0.235863,0
2024-12-11 21:17:00.317,0.648754,2.69821,11.2905,-0.334668,-0.129576,-0.237085,0
2024-12-11 21:17:00.320,0.596112,2.67667,11.4245,-0.312067,-0.0849841,-0.234642,0
2024-12-11 21:17:00.322,0.50997,2.65753,11.5134,-0.287022,-0.0397814,-0.227312,0
2024-12-11 21:17:00.325,0.375972,2.63839,11.5636,-0.287022,-0.0397814,-0.227312,0
2024-12-11 21:17:00.331,-0.0454636,2.61446,11.5086,-0.161798,0.136753,-0.172946,0
2024-12-11 21:17:00.334,-0.0454636,2.6336,11.4174,-0.130034,0.181345,-0.152177,0
2024-12-11 21:17:00.334,-0.155533,2.6336,11.4174,-0.130034,0.181345,-0.152177,0
2024-12-11 21:17:00.335,-0.155533,2.6336,11.4174,-0.130034,0.181345,-0.152177,0
2024-12-11 21:17:00.336,-0.277567,2.65514,11.3216,-0.0939941,0.223494,-0.127743,0
2024-12-11 21:17:00.338,-0.402293,2.69103,11.1972,-0.0603975,0.258312,-0.102699,0
2024-12-11 21:17:00.341,-0.52672,2.73649,11.0273,-0.0298552,0.290076,-0.0745997,0
2024-12-11 21:17:00.343,-0.646361,2.8011,10.8571,-0.00236703,0.315121,-0.0452791,0
2024-12-11 21:17:00.347,-0.766002,2.87528,10.6896,0.0471116,0.345052,0.0194708,0
2024-12-11 21:17:00.348,-0.869193,2.96142,10.491,0.0471116,0.345052,0.0194708,0
2024-12-11 21:17:00.350,-0.948156,3.06192,10.2921,0.0691021,0.354826,0.0524565,0
2024-12-11 21:17:00.354,-1.04148,3.17468,10.1175,0.100255,0.358491,0.120261,0
2024-12-11 21:17:00.355,-1.12762,3.29432,9.94756,0.100255,0.358491,0.120261,0
2024-12-11 21:17:00.357,-1.17308,3.41875,9.76062,0.111861,0.349328,0.156911,0
2024-12-11 21:17:00.360,-1.2018,3.55035,9.56441,0.118581,0.337111,0.192951,0
2024-12-11 21:17:00.362,-1.20658,3.66551,9.38016,0.123468,0.320008,0.228991,0
2024-12-11 21:17:00.364,-1.1659,3.77079,9.20997,0.123468,0.302293,0.265642,0
2024-12-11 21:17:00.368,-1.07737,3.88564,9.04487,0.117359,0.258312,0.328559,0
2024-12-11 21:17:00.370,-0.938585,3.98614,8.89412,0.105142,0.232046,0.352383,0
2024-12-11 21:17:00.371,-0.799502,4.08186,8.78884,0.105142,0.232046,0.352383,0
2024-12-11 21:17:00.374,-0.646361,4.17757,8.69761,0.0904818,0.202114,0.373151,0
2024-12-11 21:17:00.377,-0.476471,4.27597,8.58993,0.0727672,0.172793,0.38659,0
2024-12-11 21:17:00.379,-0.301795,4.39562,8.51336,0.0544418,0.142251,0.395142,0
2024-12-11 21:17:00.381,-0.124427,4.49851,8.47747,0.0330621,0.11293,0.400639,0
2024-12-11 21:17:00.383,0.133998,4.52483,8.49183,0.0110716,0.082388,0.398196,0
2024-12-11 21:17:00.387,0.431007,4.52243,8.61147,-0.0109189,0.0481806,0.388422,0
2024-12-11 21:17:00.389,0.598505,4.62054,8.70748,-0.0500131,-0.0171801,0.351772,0
2024-12-11 21:17:00.391,0.63679,4.77877,8.6689,-0.0500131,-0.0171801,0.351772,0
2024-12-11 21:17:00.393,0.672682,4.9343,8.64497,-0.0695602,-0.0257319,0.332835,0
2024-12-11 21:17:00.396,0.782752,5.06351,8.71227,-0.108044,-0.0385597,0.290687,0
2024-12-11 21:17:00.397,0.96012,5.11137,8.78884,-0.108044,-0.0385597,0.290687,0
2024-12-11 21:17:00.400,1.1994,5.04676,8.87737,-0.125147,-0.0452791,0.261366,0
2024-12-11 21:17:00.402,1.40548,4.99651,9.00898,-0.144084,-0.0623828,0.226548,0
2024-12-11 21:17:00.404,1.52034,5.00848,9.07837,-0.160576,-0.0745997,0.188065,0
2024-12-11 21:17:00.408,1.60887,5.01805,9.05923,-0.188675,-0.0489441,0.109265,0
2024-12-11 21:17:00.410,1.68784,5.02044,9.07119,-0.188675,-0.0489441,0.109265,0
2024-12-11 21:17:00.411,1.74287,5.00369,9.11665,-0.202725,-0.0251211,0.0707819,0
2024-12-11 21:17:00.414,1.78116,4.97976,9.14297,-0.216164,0.00481042,0.0341311,0
2024-12-11 21:17:00.416,1.79551,4.92473,9.16451,-0.228991,0.0390179,-0.00251974,0
2024-12-11 21:17:00.419,1.79551,4.85773,9.20997,-0.241208,0.0762796,-0.0385597,0
2024-12-11 21:17:00.421,1.79791,4.7689,9.25305,-0.250371,0.114763,-0.0715455,0
2024-12-11 21:17:00.426,1.77876,4.58226,9.29402,-0.260145,0.156301,-0.10392,0
2024-12-11 21:17:00.427,1.77876,4.58226,9.29402,-0.274805,0.24243,-0.16134,0
2024-12-11 21:17:00.428,1.69741,4.51047,9.29163,-0.274805,0.24243,-0.16134,0
2024-12-11 21:17:00.430,1.60409,4.44826,9.25544,-0.280303,0.29313,-0.185163,0
2024-12-11 21:17:00.433,1.48923,4.38844,9.20758,-0.279692,0.343831,-0.206543,0
2024-12-11 21:17:00.435,1.34297,4.35254,9.17408,-0.284578,0.39392,-0.222425,0
2024-12-11 21:17:00.438,1.19701,4.31905,9.12862,-0.283968,0.445231,-0.237085,0
2024-12-11 21:17:00.441,1.05105,4.27119,9.05683,-0.282746,0.535026,-0.255411,0
2024-12-11 21:17:00.442,0.890728,4.23769,8.96112,-0.282746,0.535026,-0.255411,0
2024-12-11 21:17:00.445,0.734896,4.21855,8.85105,-0.2858,0.571677,-0.259686,0
2024-12-11 21:17:00.447,0.591326,4.18235,8.75055,-0.290076,0.602219,-0.261519,0
2024-12-11 21:17:00.449,0.452543,4.16082,8.65693,-0.295574,0.626653,-0.260297,0
2024-12-11 21:17:00.452,0.320937,4.15125,8.55643,-0.303515,0.647422,-0.256632,0
2024-12-11 21:17:00.455,0.196211,4.14646,8.4679,-0.308401,0.67491,-0.249913,0
2024-12-11 21:17:00.457,0.0861416,4.16082,8.39612,-0.308401,0.67491,-0.249913,0
2024-12-11 21:17:00.459,0.00478565,4.18235,8.34587,-0.318175,0.68224,-0.245026,0
2024-12-11 21:17:00.461,-0.0789631,4.18714,8.31954,-0.325505,0.688959,-0.240139,0
2024-12-11 21:17:00.464,-0.155533,4.18475,8.28365,-0.329781,0.693846,-0.234642,0
2024-12-11 21:17:00.466,-0.222533,4.18714,8.25255,-0.332835,0.693235,-0.229755,0
2024-12-11 21:17:00.468,-0.301795,4.18475,8.26212,-0.334057,0.690181,-0.223646,0
2024-12-11 21:17:00.471,-0.366401,4.17996,8.28126,-0.334668,0.688349,-0.219981,0
2024-12-11 21:17:00.474,-0.41665,4.17039,8.30519,-0.32917,0.672466,-0.21143,0
2024-12-11 21:17:00.476,-0.457328,4.14886,8.35304,-0.323673,0.662693,-0.206543,0
2024-12-11 21:17:00.477,-0.488435,4.12732,8.39133,-0.323673,0.662693,-0.206543,0
2024-12-11 21:17:00.480,-0.500399,4.09861,8.42483,-0.312067,0.649254,-0.204099,0
2024-12-11 21:17:00.482,-0.519542,4.07229,8.48465,-0.29985,0.632761,-0.201656,0
2024-12-11 21:17:00.487,-0.581755,4.01964,8.60668,-0.266253,0.596111,-0.199213,0
2024-12-11 21:17:00.488,-0.581755,4.01964,8.60668,-0.244263,0.570455,-0.199823,0
2024-12-11 21:17:00.489,-0.617647,4.01246,8.64736,-0.244263,0.570455,-0.199823,0
2024-12-11 21:17:00.492,-0.663111,3.98854,8.69043,-0.223494,0.546021,-0.198602,0
2024-12-11 21:17:00.495,-0.696611,3.94786,8.70987,-0.17035,0.483715,-0.199823,0
2024-12-11 21:17:00.496,-0.737288,3.90239,8.73859,-0.17035,0.483715,-0.199823,0
2024-12-11 21:17:00.499,-0.775574,3.87129,8.78644,-0.142862,0.447675,-0.201656,0
2024-12-11 21:17:00.502,-0.813859,3.86411,8.83191,-0.0799446,0.361545,-0.199823,0
2024-12-11 21:17:00.503,-0.881157,3.85454,8.86541,-0.0799446,0.361545,-0.199823,0
2024-12-11 21:17:00.506,-0.940978,3.85693,8.88216,-0.0494023,0.312677,-0.19738,0
2024-12-11 21:17:00.509,-0.998405,3.85215,8.89891,0.0196235,0.208223,-0.19005,0
2024-12-11 21:17:00.510,-1.05344,3.833,8.90609,0.0196235,0.208223,-0.19005,0
2024-12-11 21:17:00.513,-1.10608,3.82104,8.90369,0.0532201,0.156301,-0.183941,0
2024-12-11 21:17:00.515,-1.14915,3.80668,8.89412,0.0862058,0.101935,-0.177222,0
2024-12-11 21:17:00.517,-1.16351,3.78993,8.87976,0.121024,0.050624,-0.172335,0
2024-12-11 21:17:00.520,-1.16112,3.77079,8.84387,0.152788,0.00236703,-0.163173,0
2024-12-11 21:17:00.522,-1.1659,3.73729,8.79123,0.184552,-0.0452791,-0.157675,0
2024-12-11 21:17:00.526,-1.17547,3.69183,8.75055,0.212651,-0.085595,-0.150956,0
2024-12-11 21:17:00.527,-1.17069,3.6679,8.7027,0.238918,-0.1253,-0.144847,0
2024-12-11 21:17:00.529,-1.16112,3.66311,8.6354,0.265795,-0.161951,-0.138128,0
2024-12-11 21:17:00.533,-1.16351,3.66551,8.59233,0.307943,-0.222425,-0.121635,0
2024-12-11 21:17:00.535,-1.17547,3.64606,8.54686,0.328101,-0.246859,-0.111861,0
2024-12-11 21:17:00.536,-1.18983,3.6341,8.48944,0.328101,-0.246859,-0.111861,0
2024-12-11 21:17:00.539,-1.18026,3.63889,8.44397,0.342151,-0.270071,-0.10392,0
2024-12-11 21:17:00.542,-1.17069,3.64367,8.39133,0.356811,-0.288396,-0.0953685,0
2024-12-11 21:17:00.546,-1.15633,3.62931,8.29083,0.376969,-0.314052,-0.0703238,0
2024-12-11 21:17:00.547,-1.15633,3.62931,8.29083,0.384299,-0.320771,-0.0611611,0
2024-12-11 21:17:00.549,-1.14197,3.63649,8.23819,0.391629,-0.325658,-0.049555,0
2024-12-11 21:17:00.550,-1.1348,3.63889,8.2023,0.391629,-0.325658,-0.049555,0
2024-12-11 21:17:00.555,-1.1013,3.66072,8.12543,0.394073,-0.323825,-0.0245102,0
2024-12-11 21:17:00.555,-1.1013,3.66072,8.12543,0.394073,-0.323825,-0.0245102,0
2024-12-11 21:17:00.558,-1.08455,3.6679,8.09671,0.394073,-0.317106,-0.0129041,0
2024-12-11 21:17:00.560,-1.06301,3.67508,8.06321,0.392851,-0.308554,0.00175619,0
2024-12-11 21:17:00.562,-1.04626,3.7014,8.03689,0.389186,-0.300002,0.0133623,0
2024-12-11 21:17:00.565,-1.02712,3.7349,8.02254,0.383078,-0.288396,0.0261901,0
2024-12-11 21:17:00.567,-1.00798,3.77079,8.001,0.378191,-0.271293,0.0402396,0
2024-12-11 21:17:00.570,-0.984048,3.82343,7.9675,0.369028,-0.252967,0.0548999,0
2024-12-11 21:17:00.572,-0.967299,3.8665,7.94357,0.357422,-0.231587,0.0671168,0
2024-12-11 21:17:00.574,-0.962513,3.91436,7.934,0.357422,-0.231587,0.0671168,0
2024-12-11 21:17:00.577,-0.948156,3.98136,7.934,0.337875,-0.184552,0.0964375,0
2024-12-11 21:17:00.579,-0.917049,4.03879,7.91964,0.325658,-0.160118,0.111709,0
2024-12-11 21:17:00.581,-0.909871,4.08425,7.90529,0.310998,-0.13263,0.12698,0
2024-12-11 21:17:00.583,-0.907478,4.14886,7.90768,0.298781,-0.106975,0.142251,0
2024-12-11 21:17:00.586,-0.885943,4.21376,7.88854,0.284731,-0.081319,0.158744,0
2024-12-11 21:17:00.588,-0.88355,4.25922,7.867,0.268238,-0.0562743,0.172793,0
2024-12-11 21:17:00.591,-0.859622,4.32622,7.88136,0.250524,-0.033673,0.189897,0
2024-12-11 21:17:00.593,-0.818644,4.39801,7.89811,0.232198,-0.0104608,0.208223,0
2024-12-11 21:17:00.595,-0.789931,4.46501,7.90289,0.215705,0.014584,0.224105,0
2024-12-11 21:17:00.598,-0.734896,4.52483,7.92682,0.196158,0.0353528,0.24243,0
2024-12-11 21:17:00.600,-0.682254,4.58226,7.94118,0.178444,0.0579541,0.258923,0
2024-12-11 21:17:00.603,-0.615255,4.64925,7.94597,0.138128,0.101324,0.288854,0
2024-12-11 21:17:00.605,-0.521934,4.69472,8.00579,0.138128,0.101324,0.288854,0
2024-12-11 21:17:00.607,-0.3999,4.70668,8.10868,0.11797,0.109876,0.302293,0
2024-12-11 21:17:00.610,-0.282652,4.75932,8.09911,0.105142,0.121482,0.310845,0
2024-12-11 21:17:00.612,-0.184247,4.82902,8.05604,0.0868167,0.145916,0.318786,0
2024-12-11 21:17:00.615,-0.0598206,4.8673,8.13021,0.0532201,0.196616,0.331003,0
2024-12-11 21:17:00.617,0.0957129,4.88405,8.21905,0.0532201,0.196616,0.331003,0
2024-12-11 21:17:00.619,0.32333,4.80748,8.35544,0.0342838,0.211277,0.327949,0
2024-12-11 21:17:00.621,0.502792,4.79073,8.53969,0.0190126,0.210666,0.319397,0
2024-12-11 21:17:00.624,0.531506,4.93191,8.59951,0.00496313,0.21372,0.309012,0
2024-12-11 21:17:00.628,0.572184,5.17358,8.52293,-0.0182491,0.268696,0.29313,0
2024-12-11 21:17:00.628,0.572184,5.17358,8.52293,-0.0182491,0.268696,0.29313,0
2024-12-11 21:17:00.631,0.641576,5.28844,8.63779,-0.030466,0.301071,0.285189,0
2024-12-11 21:17:00.633,0.699003,5.39881,8.77448,-0.042683,0.316343,0.276637,0
2024-12-11 21:17:00.635,0.809073,5.41795,8.89173,-0.0555107,0.324284,0.269307,0
2024-12-11 21:17:00.645,1.04626,5.51127,9.39213,-0.0958267,0.294963,0.178291,0
2024-12-11 21:17:00.647,1.07019,5.58545,9.47588,-0.0952158,0.312067,0.154468,0
2024-12-11 21:17:00.647,1.04626,5.51127,9.39213,-0.0952158,0.312067,0.154468,0
2024-12-11 21:17:00.648,1.07019,5.58545,9.47588,-0.0952158,0.312067,0.154468,0
2024-12-11 21:17:00.649,1.09651,5.66202,9.57398,-0.0958267,0.324284,0.130034,0
2024-12-11 21:17:00.649,1.09651,5.66202,9.57398,-0.0958267,0.324284,0.130034,0
2024-12-11 21:17:00.654,1.05583,5.73141,9.68405,-0.0958267,0.342609,0.0756687,0
2024-12-11 21:17:00.655,1.05583,5.73141,9.68405,-0.0976592,0.340166,0.0475697,0
2024-12-11 21:17:00.656,1.01515,5.74577,9.73909,-0.0976592,0.340166,0.0475697,0
2024-12-11 21:17:00.666,0.76361,5.7338,9.99542,-0.0952158,0.281524,-0.0721563,0
2024-12-11 21:17:00.666,0.76361,5.7338,9.99542,-0.0952158,0.281524,-0.0721563,0
2024-12-11 21:17:00.667,0.76361,5.7338,9.99542,-0.0952158,0.281524,-0.0721563,0
2024-12-11 21:17:00.668,0.76361,5.7338,9.99542,-0.0915507,0.258923,-0.101477,0
2024-12-11 21:17:00.668,0.658325,5.74337,10.0505,-0.0915507,0.258923,-0.101477,0
2024-12-11 21:17:00.672,0.533899,5.75055,10.0863,-0.0872748,0.214331,-0.152788,0
2024-12-11 21:17:00.673,0.407079,5.75294,10.1055,-0.0872748,0.214331,-0.152788,0
2024-12-11 21:17:00.675,0.277567,5.75773,10.1342,-0.0848314,0.192951,-0.170503,0
2024-12-11 21:17:00.678,0.133998,5.76491,10.1629,-0.0811663,0.172183,-0.188828,0
2024-12-11 21:17:00.680,-0.0119641,5.7673,10.1892,-0.0768904,0.147749,-0.201045,0
2024-12-11 21:17:00.685,-0.265603,5.74337,10.2754,-0.0756687,0.108044,-0.217538,0
2024-12-11 21:17:00.686,-0.265603,5.74337,10.2754,-0.0762796,0.0878856,-0.220592,0
2024-12-11 21:17:00.687,-0.395115,5.74337,10.3328,-0.0762796,0.0878856,-0.220592,0
2024-12-11 21:17:00.689,-0.512363,5.76252,10.3783,-0.0750579,0.0701711,-0.221814,0
2024-12-11 21:17:00.692,-0.627219,5.76969,10.424,-0.0762796,0.0542891,-0.219371,0
2024-12-11 21:17:00.694,-0.727717,5.77209,10.4862,-0.0775012,0.0414613,-0.213262,0
2024-12-11 21:17:00.697,-0.80668,5.78884,10.5341,-0.0787229,0.0359636,-0.204099,0
2024-12-11 21:17:00.699,-0.878764,5.80319,10.5796,-0.0781121,0.0274118,-0.194937,0
2024-12-11 21:17:00.701,-0.945763,5.81516,10.6418,-0.0787229,0.0280226,-0.183331,0
2024-12-11 21:17:00.705,-0.991227,5.82951,10.692,-0.0787229,0.0329094,-0.161951,0
2024-12-11 21:17:00.707,-1.02473,5.83909,10.7327,-0.0787229,0.0329094,-0.161951,0
2024-12-11 21:17:00.708,-1.04626,5.86301,10.7877,-0.0799446,0.0359636,-0.150345,0
2024-12-11 21:17:00.712,-1.06301,5.89921,10.8523,-0.082388,0.0420721,-0.13996,0
2024-12-11 21:17:00.713,-1.07019,5.91835,10.9098,-0.0842206,0.0500131,-0.132019,0
2024-12-11 21:17:00.715,-1.0678,5.92553,10.9699,-0.086664,0.0622301,-0.123468,0
2024-12-11 21:17:00.718,-1.05823,5.94945,11.0345,-0.0897182,0.0726145,-0.114916,0
2024-12-11 21:17:00.720,-1.06062,5.98056,11.1039,-0.0915507,0.082388,-0.109418,0
2024-12-11 21:17:00.723,-1.0654,6.00449,11.1374,-0.0915507,0.0994917,-0.105142,0
2024-12-11 21:17:00.725,-1.07019,6.0332,11.1709,-0.0952158,0.117206,-0.0984228,0
2024-12-11 21:17:00.727,-1.07976,6.04756,11.2259,-0.094605,0.137364,-0.0959794,0
2024-12-11 21:17:00.729,-1.07498,6.05952,11.2738,-0.094605,0.157522,-0.0917034,0
2024-12-11 21:17:00.733,-1.0678,6.09542,11.3049,-0.0970484,0.175237,-0.0880384,0
2024-12-11 21:17:00.734,-1.0678,6.12413,11.324,-0.0970484,0.175237,-0.0880384,0
2024-12-11 21:17:00.737,-1.08455,6.14567,11.336,-0.0976592,0.217996,-0.0862058,0
2024-12-11 21:17:00.740,-1.09173,6.16959,11.336,-0.101935,0.240597,-0.0843733,0
2024-12-11 21:17:00.741,-1.11087,6.18395,11.3216,-0.101935,0.240597,-0.0843733,0
2024-12-11 21:17:00.744,-1.15872,6.19352,11.3001,-0.108044,0.282135,-0.0825407,0
2024-12-11 21:17:00.746,-1.20419,6.2007,11.2929,-0.11293,0.301682,-0.0788757,0
2024-12-11 21:17:00.748,-1.23769,6.20788,11.2546,-0.118428,0.319397,-0.0782648,0
2024-12-11 21:17:00.752,-1.27837,6.20788,11.2044,-0.131256,0.349328,-0.0697129,0
2024-12-11 21:17:00.753,-1.2999,6.21027,11.1685,-0.131256,0.349328,-0.0697129,0
2024-12-11 21:17:00.755,-1.31904,6.21506,11.1135,-0.142251,0.360934,-0.0648262,0
2024-12-11 21:17:00.759,-1.34776,6.22224,11.056,-0.152635,0.373762,-0.0605502,0
2024-12-11 21:17:00.760,-1.37408,6.22463,11.0225,-0.164242,0.388422,-0.0519984,0
2024-12-11 21:17:00.763,-1.39083,6.22224,10.9962,-0.175848,0.403083,-0.0434465,0
2024-12-11 21:17:00.766,-1.4004,6.20309,10.9627,-0.201503,0.429349,-0.0275645,0
2024-12-11 21:17:00.768,-1.42941,6.18156,10.9337,-0.213109,0.442177,-0.0159584,0
2024-12-11 21:17:00.771,-1.44616,6.15524,10.8954,-0.226548,0.456227,-0.00557398,0
2024-12-11 21:17:00.772,-1.45095,6.13131,10.8595,-0.226548,0.456227,-0.00557398,0
2024-12-11 21:17:00.775,-1.44138,6.10499,10.8547,-0.252204,0.481271,0.0176382,0
2024-12-11 21:17:00.777,-1.4342,6.07388,10.8332,-0.252204,0.481271,0.0176382,0
2024-12-11 21:17:00.779,-1.42702,6.05235,10.8117,-0.26381,0.492267,0.0298552,0
2024-12-11 21:17:00.781,-1.41506,6.02124,10.8093,-0.276637,0.500818,0.0408504,0
2024-12-11 21:17:00.785,-1.41027,5.99253,10.7997,-0.297406,0.520976,0.0628409,0
2024-12-11 21:17:00.786,-1.38604,5.9686,10.7853,-0.297406,0.520976,0.0628409,0
2024-12-11 21:17:00.789,-1.35972,5.93031,10.7614,-0.305958,0.531972,0.0750579,0
2024-12-11 21:17:00.792,-1.35733,5.89442,10.716,-0.316343,0.54541,0.086664,0
2024-12-11 21:17:00.793,-1.33819,5.87019,10.6825,-0.323673,0.55946,0.100103,0
2024-12-11 21:17:00.795,-1.31186,5.83909,10.6753,-0.334668,0.572898,0.11232,0
2024-12-11 21:17:00.798,-1.2999,5.80559,10.6705,-0.344442,0.582672,0.123926,0
2024-12-11 21:17:00.800,-1.27119,5.7673,10.6442,-0.351772,0.592445,0.134921,0
2024-12-11 21:17:00.805,-1.17787,5.6692,10.6537,-0.374373,0.611382,0.158744,0
2024-12-11 21:17:00.805,-1.17787,5.6692,10.6537,-0.374373,0.611382,0.158744,0
2024-12-11 21:17:00.807,-1.12283,5.5998,10.6418,-0.378649,0.600997,0.169739,0
2024-12-11 21:17:00.810,-1.14437,5.61416,10.4336,-0.385979,0.618101,0.179513,0
2024-12-11 21:17:00.812,-1.11805,5.6333,10.34,-0.394531,0.652919,0.189286,0
2024-12-11 21:17:00.814,-1.02712,5.61177,10.3567,-0.400029,0.681018,0.200892,0
2024-12-11 21:17:00.819,-0.864407,5.56152,10.1605,-0.4153,0.722556,0.218607,0
2024-12-11 21:17:00.820,-0.864407,5.56152,10.1605,-0.425684,0.732329,0.222272,0
2024-12-11 21:17:00.821,-0.792323,5.53759,10.06,-0.425684,0.732329,0.222272,0
2024-12-11 21:17:00.824,-0.65354,5.47777,10.0289,-0.439123,0.729886,0.22105,0
2024-12-11 21:17:00.827,-0.375972,5.3004,10.0696,-0.470276,0.641924,0.190508,0
2024-12-11 21:17:00.828,0.0861416,4.96541,10.3208,-0.470276,0.641924,0.190508,0
2024-12-11 21:17:00.831,0.267996,4.85773,10.3905,-0.479439,0.557627,0.153246,0
2024-12-11 21:17:00.833,-0.0143569,5.10419,9.98824,-0.492877,0.513035,0.117817,0
2024-12-11 21:17:00.836,-0.184247,5.31954,9.71755,-0.509981,0.50204,0.0933833,0
2024-12-11 21:17:00.839,0.0,5.33181,9.71037,-0.535637,0.467833,0.0652843,0
2024-12-11 21:17:00.840,0.30658,5.22622,9.73191,-0.568012,0.395142,0.0335202,0
2024-12-11 21:17:00.844,0.541077,5.11376,9.73669,-0.608328,0.296185,-0.00862822,0
2024-12-11 21:17:00.846,0.758824,4.95823,9.76302,-0.655974,0.186843,-0.0593285,0
2024-12-11 21:17:00.847,1.02473,4.74975,9.84467,-0.709117,0.0756687,-0.118581,0
2024-12-11 21:17:00.850,1.29751,4.50808,10.0193,-0.759207,-0.0391706,-0.184552,0
2024-12-11 21:17:00.853,1.54905,4.23769,10.3184,-0.844115,-0.259686,-0.340318,0
2024-12-11 21:17:00.855,1.76201,3.97179,10.6825,-0.844115,-0.259686,-0.340318,0
2024-12-11 21:17:00.857,1.92712,3.73729,11.068,-0.880155,-0.358644,-0.420339,0
2024-12-11 21:17:00.859,2.03988,3.51207,11.4628,-0.904588,-0.444773,-0.502193,0
2024-12-11 21:17:00.861,2.09731,3.29432,11.8555,-0.921692,-0.513188,-0.585268,0
2024-12-11 21:17:00.866,2.1332,2.8992,12.6386,-0.931466,-0.602983,-0.741034,0
2024-12-11 21:17:00.867,2.1332,2.8992,12.6386,-0.923525,-0.627416,-0.813114,0
2024-12-11 21:17:00.868,2.0997,2.68864,12.9903,-0.923525,-0.627416,-0.813114,0
2024-12-11 21:17:00.872,2.02552,2.48734,13.3137,-0.910697,-0.645742,-0.885805,0
2024-12-11 21:17:00.873,1.89601,2.32223,13.6223,-0.893593,-0.654294,-0.952998,0
2024-12-11 21:17:00.877,1.78355,2.10209,13.893,-0.842282,-0.654905,-1.07333,0
2024-12-11 21:17:00.880,1.65912,1.80987,14.2926,-0.813572,-0.634136,-1.13198,0
2024-12-11 21:17:00.880,1.40548,1.5682,14.2926,-0.813572,-0.634136,-1.13198,0
2024-12-11 21:17:00.883,1.0343,1.50838,14.403,-0.779365,-0.591987,-1.17901,0
2024-12-11 21:17:00.885,0.818644,1.34058,14.3575,-0.745768,-0.549839,-1.21383,0
2024-12-11 21:17:00.887,0.816252,1.07258,14.391,-0.71095,-0.512577,-1.24254,0
2024-12-11 21:17:00.891,0.804287,0.895514,14.4413,-0.633983,-0.470429,-1.2798,0
2024-12-11 21:17:00.893,0.794716,0.687039,14.4054,-0.633983,-0.470429,-1.2798,0
2024-12-11 21:17:00.894,0.766002,0.481256,14.4174,-0.592445,-0.44966,-1.29141,0
2024-12-11 21:17:00.898,0.641576,0.253639,14.391,-0.511203,-0.393462,-1.29874,0
2024-12-11 21:17:00.899,0.395115,0.0143569,14.3336,-0.511203,-0.393462,-1.29874,0
2024-12-11 21:17:00.901,0.11007,-0.224925,14.2878,-0.467222,-0.331156,-1.29324,0
2024-12-11 21:17:00.905,-0.160319,-0.478864,14.2711,-0.375595,-0.19005,-1.25903,1
2024-12-11 21:17:00.907,-0.4334,-0.725324,14.2328,-0.375595,-0.19005,-1.25903,0
2024-12-11 21:17:00.908,-0.663111,-0.964906,14.1658,-0.328559,-0.126522,-1.23154,0
2024-12-11 21:17:00.911,-0.864407,-1.14915,14.106,-0.279692,-0.0672696,-1.19428,0
2024-12-11 21:17:00.916,-1.17547,-1.52513,14.0581,-0.172183,0.0512348,-1.10999,0
2024-12-11 21:17:00.916,-1.17547,-1.52513,14.0581,-0.172183,0.0512348,-1.10999,0
2024-12-11 21:17:00.919,-1.30229,-1.6663,14.0438,-0.113541,0.104989,-1.05867,0
2024-12-11 21:17:00.920,-1.50838,-1.75484,13.9887,-0.0518457,0.158744,-1.0037,0
2024-12-11 21:17:00.923,-1.77637,-1.79791,13.8763,0.0122933,0.214331,-0.939559,0
2024-12-11 21:17:00.925,-2.02552,-1.79791,13.742,0.0819299,0.275416,-0.866869,0
2024-12-11 21:17:00.927,-2.23849,-1.7668,13.6176,0.150345,0.337111,-0.786848,0
2024-12-11 21:17:00.930,-2.42273,-1.72852,13.5003,0.220592,0.398196,-0.704383,0
2024-12-11 21:17:00.932,-2.55464,-1.69262,13.3543,0.292061,0.45867,-0.617643,0
2024-12-11 21:17:00.934,-2.64078,-1.64955,13.1916,0.364141,0.513646,-0.528459,0
2024-12-11 21:17:00.938,-2.7006,-1.60648,13.0214,0.50708,0.616879,-0.355589,0
2024-12-11 21:17:00.939,-2.73888,-1.56341,12.8228,0.50708,0.616879,-0.355589,0
2024-12-11 21:17:00.942,-2.73888,-1.50838,12.6048,0.573051,0.656584,-0.276179,0
2024-12-11 21:17:00.945,-2.69342,-1.44138,12.387,0.635968,0.686516,-0.200434,0
2024-12-11 21:17:00.946,-2.65514,-1.36211,12.1597,0.698275,0.709117,-0.128354,0
2024-12-11 21:17:00.950,-2.63121,-1.29272,11.9034,0.80334,0.73294,0.00175619,0
2024-12-11 21:17:00.952,-2.59292,-1.22572,11.633,0.851597,0.734773,0.0591758,0
2024-12-11 21:17:00.953,-2.55464,-1.15394,11.3599,0.851597,0.734773,0.0591758,0
2024-12-11 21:17:00.956,-2.51605,-1.06062,11.0776,0.892524,0.726832,0.111709,0
2024-12-11 21:17:00.958,-2.46102,-0.952942,10.7877,0.929175,0.712172,0.160576,0
2024-12-11 21:17:00.960,-2.3988,-0.830609,10.5006,0.959107,0.691403,0.20639,0
2024-12-11 21:17:00.964,-2.32941,-0.663111,10.2299,0.984762,0.664525,0.243652,0
2024-12-11 21:17:00.965,-2.25045,-0.524327,9.98585,1.00614,0.63154,0.276637,0
2024-12-11 21:17:00.967,-2.17149,-0.4334,9.7343,1.02325,0.594278,0.301071,0
2024-12-11 21:17:00.970,-2.11884,-0.311366,9.47348,1.03668,0.555184,0.323062,0
2024-12-11 21:17:00.973,-2.06381,-0.18664,9.25544,1.05073,0.45867,0.354826,0
2024-12-11 21:17:00.974,-1.97528,-0.0717847,9.04248,1.05073,0.45867,0.354826,0
2024-12-11 21:17:00.977,-1.88644,0.0454636,8.81277,1.0544,0.403694,0.363378,0
2024-12-11 21:17:00.979,-1.80509,0.143569,8.6354,1.05623,0.344442,0.368265,0
2024-12-11 21:17:00.981,-1.75244,0.236889,8.47986,1.05196,0.281524,0.365821,0
2024-12-11 21:17:00.986,-1.6352,0.383151,8.14008,1.03974,0.155079,0.353604,0
2024-12-11 21:17:00.986,-1.6352,0.383151,8.14008,1.03974,0.155079,0.353604,0
2024-12-11 21:17:00.989,-1.52991,0.41665,8.00339,1.0318,0.0872748,0.340776,0
2024-12-11 21:17:00.991,-1.4653,0.454935,7.88375,1.02141,0.0158057,0.327949,0
2024-12-11 21:17:00.993,-1.42223,0.514756,7.77368,1.00797,-0.0562743,0.311456,0
2024-12-11 21:17:00.996,-1.39561,0.600898,7.64926,0.996368,-0.130798,0.292519,0
2024-12-11 21:17:00.998,-1.38365,0.658325,7.53889,0.981708,-0.201045,0.272972,0
2024-12-11 21:17:01.000,-1.37408,0.682254,7.44557,0.964604,-0.275568,0.254036,0
2024-12-11 21:17:01.003,-1.36451,0.718146,7.369,0.949944,-0.347038,0.232046,0
2024-12-11 21:17:01.005,-1.34776,0.768395,7.2996,0.929786,-0.415452,0.211888,0
2024-12-11 21:17:01.008,-1.33579,0.794716,7.23978,0.909628,-0.481424,0.189897,0
2024-12-11 21:17:01.010,-1.32861,0.811466,7.20389,0.88947,-0.548006,0.17035,0
2024-12-11 21:17:01.013,-1.32144,0.835394,7.16561,0.844878,-0.669565,0.132477,0
2024-12-11 21:17:01.014,-1.30229,0.835394,7.11296,0.844878,-0.669565,0.132477,0
2024-12-11 21:17:01.017,-1.25683,0.818644,7.07468,0.820444,-0.725763,0.114152,0
2024-12-11 21:17:01.020,-1.22333,0.821037,7.05075,0.763635,-0.819223,0.0787229,0
2024-12-11 21:17:01.023,-1.2018,0.809073,7.04597,0.763635,-0.819223,0.0787229,0
2024-12-11 21:17:01.024,-1.18265,0.785145,7.04597,0.735536,-0.858317,0.0646735,0
2024-12-11 21:17:01.026,-1.17069,0.749253,7.05075,0.708048,-0.893135,0.0475697,0
2024-12-11 21:17:01.029,-1.15394,0.694218,7.08664,0.676895,-0.921234,0.0335202,0
2024-12-11 21:17:01.031,-1.15155,0.670289,7.13689,0.648185,-0.943225,0.0213033,0
2024-12-11 21:17:01.033,-1.15155,0.65354,7.19911,0.620086,-0.959107,0.00908635,0
2024-12-11 21:17:01.036,-1.13958,0.634397,7.27089,0.590155,-0.970713,0.000534491,0
2024-12-11 21:17:01.038,-1.14197,0.63679,7.3355,0.563278,-0.971934,-0.00862822,0
2024-12-11 21:17:01.040,-1.15872,0.658325,7.4001,0.535179,-0.965826,-0.0159584,0
2024-12-11 21:17:01.043,-1.17547,0.677468,7.44796,0.511356,-0.950555,-0.0220669,0
2024-12-11 21:17:01.045,-1.19462,0.699003,7.49821,0.485089,-0.927953,-0.0269536,0
2024-12-11 21:17:01.047,-1.20897,0.73011,7.54128,0.459433,-0.902909,-0.0348946,0
2024-12-11 21:17:01.050,-1.23769,0.758824,7.57239,0.433167,-0.871145,-0.0379489,0
2024-12-11 21:17:01.052,-1.27837,0.775574,7.63011,0.408122,-0.837548,-0.0391706,0
2024-12-11 21:17:01.056,-1.30947,0.787538,7.67558,0.354979,-0.76669,-0.041614,0
2024-12-11 21:17:01.058,-1.34776,0.811466,7.71147,0.32749,-0.729428,-0.041614,0
2024-12-11 21:17:01.059,-1.38604,0.84018,7.733,0.32749,-0.729428,-0.041614,0
2024-12-11 21:17:01.063,-1.42223,0.854836,7.75933,0.268849,-0.661013,-0.0379489,0
2024-12-11 21:17:01.065,-1.46291,0.878764,7.8,0.241361,-0.621919,-0.037338,0
2024-12-11 21:17:01.066,-1.51077,0.917049,7.82872,0.241361,-0.621919,-0.037338,0
2024-12-11 21:17:01.070,-1.55384,0.933799,7.85743,0.213262,-0.582825,-0.0330621,0
2024-12-11 21:17:01.072,-1.60887,0.945763,7.88375,0.152788,-0.504025,-0.0245102,0
2024-12-11 21:17:01.073,-1.66391,0.981655,7.89811,0.152788,-0.504025,-0.0245102,0
2024-12-11 21:17:01.076,-1.6998,1.01994,7.934,0.125911,-0.460655,-0.0184018,0
2024-12-11 21:17:01.078,-1.75005,1.03669,7.99143,0.100255,-0.417285,-0.0110716,0
2024-12-11 21:17:01.081,-1.80269,1.07019,8.03689,0.0721563,-0.375747,-0.0019089,0
2024-12-11 21:17:01.084,-1.82662,1.09412,8.08236,0.0245102,-0.292672,0.0213033,0
2024-12-11 21:17:01.085,-1.85294,1.09412,8.12543,0.0245102,-0.292672,0.0213033,0
2024-12-11 21:17:01.087,-1.88644,1.10848,8.16162,0.00251974,-0.250524,0.0347419,0
2024-12-11 21:17:01.091,-1.89362,1.14437,8.20469,-0.0182491,-0.208375,0.046348,0
2024-12-11 21:17:01.092,-1.90558,1.17547,8.26212,-0.0347419,-0.172335,0.0610084,0
2024-12-11 21:17:01.095,-1.92233,1.18265,8.30519,-0.0536782,-0.135684,0.0781121,0
2024-12-11 21:17:01.097,-1.92473,1.19222,8.32912,-0.0713928,-0.0965902,0.0927724,0
2024-12-11 21:17:01.100,-1.90798,1.20658,8.37937,-0.0976592,-0.0324513,0.123315,0
2024-12-11 21:17:01.102,-1.88883,1.21615,8.44397,-0.0976592,-0.0324513,0.123315,0
2024-12-11 21:17:01.104,-1.87687,1.22572,8.49183,-0.106822,-0.00313059,0.139808,0
2024-12-11 21:17:01.106,-1.86969,1.25204,8.52533,-0.114763,0.0231358,0.156301,0
2024-12-11 21:17:01.110,-1.86012,1.27597,8.56601,-0.127591,0.0646735,0.191119,0
2024-12-11 21:17:01.111,-1.83619,1.30947,8.61865,-0.127591,0.0646735,0.191119,0
2024-12-11 21:17:01.116,-1.78834,1.35733,8.7003,-0.128812,0.0988809,0.225937,0
2024-12-11 21:17:01.116,-1.78834,1.35733,8.7003,-0.128812,0.0988809,0.225937,0
2024-12-11 21:17:01.118,-1.75005,1.37647,8.74577,-0.127591,0.111709,0.241819,0
2024-12-11 21:17:01.121,-1.70459,1.37647,8.77448,-0.122704,0.127591,0.255258,0
2024-12-11 21:17:01.123,-1.66391,1.40788,8.80319,-0.117817,0.142251,0.269918,0
2024-12-11 21:17:01.125,-1.6352,1.46052,8.85823,-0.108654,0.153246,0.283357,0
2024-12-11 21:17:01.128,-1.60648,1.51795,8.91087,-0.0952158,0.16302,0.298628,0
2024-12-11 21:17:01.130,-1.57777,1.5658,8.93719,-0.0829989,0.169128,0.312677,0
2024-12-11 21:17:01.133,-1.57298,1.61127,8.93959,-0.0487914,0.183178,0.342609,0
2024-12-11 21:17:01.136,-1.57298,1.65194,8.95634,-0.0487914,0.183178,0.342609,0
2024-12-11 21:17:01.137,-1.53948,1.68305,8.98266,-0.0298552,0.186843,0.356658,0
2024-12-11 21:17:01.140,-1.49163,1.71655,8.98983,0.0165692,0.190508,0.384757,0
2024-12-11 21:17:01.142,-1.45573,1.75723,8.97308,0.0165692,0.190508,0.384757,0
2024-12-11 21:17:01.144,-1.41266,1.79312,8.96112,0.0403923,0.189897,0.398807,0
2024-12-11 21:17:01.146,-1.37169,1.82423,8.95394,0.0660479,0.189897,0.40797,0
2024-12-11 21:17:01.149,-1.3334,1.86491,8.9348,0.0892601,0.1844,0.42263,0
2024-12-11 21:17:01.151,-1.31186,1.9008,8.89891,0.116137,0.178902,0.431793,0
2024-12-11 21:17:01.156,-1.24487,1.96062,8.81277,0.171724,0.16302,0.453172,0
2024-12-11 21:17:01.157,-1.24487,1.96062,8.81277,0.19738,0.152635,0.462335,0
2024-12-11 21:17:01.159,-1.23051,2.00877,8.75773,0.19738,0.152635,0.462335,0
2024-12-11 21:17:01.161,-1.22333,2.05424,8.69522,0.22609,0.142251,0.470887,0
2024-12-11 21:17:01.164,-1.22094,2.12124,8.63061,0.278012,0.122093,0.487991,0
2024-12-11 21:17:01.166,-1.2018,2.19781,8.5684,0.300002,0.109265,0.497764,0
2024-12-11 21:17:01.169,-1.2018,2.25524,8.51097,0.323215,0.0958267,0.509981,0
2024-12-11 21:17:01.171,-1.1994,2.31027,8.44397,0.323215,0.0958267,0.509981,0
2024-12-11 21:17:01.172,-1.1683,2.37966,8.37458,0.347648,0.0842206,0.518533,0
2024-12-11 21:17:01.175,-1.1324,2.45145,8.3028,0.372082,0.0720036,0.527085,0
2024-12-11 21:17:01.177,-1.07737,2.50409,8.24298,0.391019,0.0555107,0.536858,0
2024-12-11 21:17:01.179,-1.01755,2.56421,8.18315,0.407511,0.0408504,0.54541,0
2024-12-11 21:17:01.183,-0.972084,2.61685,8.10389,0.426448,0.0255792,0.55274,0
2024-12-11 21:17:01.184,-0.907478,2.6671,8.04407,0.440497,0.00847551,0.556405,0
2024-12-11 21:17:01.186,-0.842872,2.72692,8.00339,0.458212,-0.00313059,0.563736,0
2024-12-11 21:17:01.189,-0.773181,2.77717,7.95314,0.47165,-0.0184018,0.567401,0
2024-12-11 21:17:01.191,-0.706182,2.83699,7.88854,0.486311,-0.029397,0.570455,0
2024-12-11 21:17:01.193,-0.651147,2.8992,7.82393,0.499139,-0.0403923,0.573509,0
2024-12-11 21:17:01.197,-0.586541,2.94706,7.77847,0.510134,-0.0483333,0.572898,0
2024-12-11 21:17:01.198,-0.538684,3.00449,7.74736,0.520518,-0.0556635,0.573509,0
2024-12-11 21:17:01.201,-0.498006,3.06431,7.72104,0.530292,-0.0636045,0.571066,0
2024-12-11 21:17:01.204,-0.438186,3.10768,7.67797,0.537011,-0.0721563,0.568622,0
2024-12-11 21:17:01.205,-0.373579,3.14836,7.64686,0.547396,-0.0764323,0.563736,0
2024-12-11 21:17:01.209,-0.313759,3.19382,7.62772,0.555337,-0.0843733,0.558849,0
2024-12-11 21:17:01.210,-0.265603,3.24407,7.61815,0.561445,-0.0898709,0.55213,0
2024-12-11 21:17:01.212,-0.227318,3.3015,7.6014,0.563278,-0.0947577,0.54541,0
2024-12-11 21:17:01.215,-0.189033,3.35414,7.55564,0.571829,-0.0953685,0.537469,0
2024-12-11 21:17:01.219,-0.112463,3.48335,7.49821,0.577938,-0.0929251,0.519144,0
2024-12-11 21:17:01.219,-0.112463,3.48335,7.49821,0.577938,-0.0929251,0.519144,0
2024-12-11 21:17:01.222,-0.0765703,3.52403,7.45514,0.57916,-0.0898709,0.507538,0
2024-12-11 21:17:01.224,-0.0358923,3.5671,7.41925,0.580992,-0.0874275,0.498375,0
2024-12-11 21:17:01.226,-0.00478565,3.62453,7.40967,0.582214,-0.0825407,0.484936,0
2024-12-11 21:17:01.229,0.040678,3.67268,7.40489,0.581603,-0.0831516,0.470887,0
2024-12-11 21:17:01.231,0.081356,3.70858,7.38575,0.577327,-0.0862058,0.456227,0
2024-12-11 21:17:01.235,0.124427,3.74686,7.37139,0.571829,-0.0898709,0.439734,0
2024-12-11 21:17:01.236,0.174676,3.79472,7.37139,0.569386,-0.0965902,0.424462,0
2024-12-11 21:17:01.238,0.224925,3.81865,7.38335,0.560834,-0.105753,0.406748,0
2024-12-11 21:17:01.242,0.27996,3.84018,7.42642,0.552282,-0.122246,0.36521,0
2024-12-11 21:17:01.244,0.344866,3.88086,7.47907,0.544341,-0.131409,0.34322,0
2024-12-11 21:17:01.245,0.411865,3.9,7.53171,0.544341,-0.131409,0.34322,0
2024-12-11 21:17:01.249,0.464507,3.93111,7.61336,0.538844,-0.150956,0.294963,0
2024-12-11 21:17:01.250,0.529113,3.97179,7.71386,0.538844,-0.150956,0.294963,0
2024-12-11 21:17:01.253,0.591326,4.00529,7.81436,0.532124,-0.163173,0.269918,0
2024-12-11 21:17:01.256,0.65354,4.04596,7.90768,0.532124,-0.178444,0.211277,0
2024-12-11 21:17:01.257,0.715753,4.08425,7.98904,0.532124,-0.178444,0.211277,0
2024-12-11 21:17:01.260,0.74686,4.11536,8.06321,0.533957,-0.177833,0.180734,0
2024-12-11 21:17:01.262,0.775574,4.14646,8.13261,0.533957,-0.176611,0.151414,0
2024-12-11 21:17:01.266,0.789931,4.24487,8.2693,0.533346,-0.165005,0.0872748,0
2024-12-11 21:17:01.267,0.789931,4.24487,8.2693,0.533346,-0.165005,0.0872748,0
2024-12-11 21:17:01.269,0.773181,4.29033,8.28605,0.533957,-0.155842,0.0542891,0
2024-12-11 21:17:01.272,0.742074,4.31187,8.31476,0.531513,-0.135074,-0.00923906,0
2024-12-11 21:17:01.274,0.682254,4.35254,8.34108,0.531513,-0.135074,-0.00923906,0
2024-12-11 21:17:01.276,0.610469,4.40519,8.36022,0.529681,-0.124689,-0.0397814,0
2024-12-11 21:17:01.278,0.519542,4.44108,8.36979,0.526016,-0.114916,-0.0684913,0
2024-12-11 21:17:01.281,0.438186,4.46501,8.34347,0.517464,-0.104531,-0.101477,0
2024-12-11 21:17:01.283,0.364008,4.49372,8.32912,0.505247,-0.0959794,-0.128354,0
2024-12-11 21:17:01.285,0.241675,4.53679,8.35065,0.499139,-0.0892601,-0.158897,0
2024-12-11 21:17:01.288,0.117248,4.57029,8.37219,0.486922,-0.085595,-0.184552,0
2024-12-11 21:17:01.291,-0.00239282,4.61336,8.36262,0.472261,-0.0819299,-0.208986,0
2024-12-11 21:17:01.295,-0.277567,4.68036,8.36501,0.432556,-0.0788757,-0.24808,0
2024-12-11 21:17:01.295,-0.277567,4.68036,8.36501,0.432556,-0.0788757,-0.24808,0
2024-12-11 21:17:01.297,-0.411865,4.71625,8.37219,0.413009,-0.0770431,-0.266406,0
2024-12-11 21:17:01.299,-0.52672,4.73779,8.38894,0.391629,-0.0752106,-0.279844,0
2024-12-11 21:17:01.303,-0.627219,4.76172,8.40569,0.339707,-0.0758214,-0.29817,0
2024-12-11 21:17:01.304,-0.739681,4.78116,8.41047,0.339707,-0.0758214,-0.29817,0
2024-12-11 21:17:01.308,-0.84018,4.80509,8.43201,0.279844,-0.077654,-0.307333,0
2024-12-11 21:17:01.309,-0.929013,4.84577,8.48226,0.279844,-0.077654,-0.307333,0
2024-12-11 21:17:01.311,-1.00319,4.88884,8.53729,0.246859,-0.077654,-0.310998,0
2024-12-11 21:17:01.315,-1.04865,4.91994,8.6019,0.216927,-0.0794865,-0.313441,0
2024-12-11 21:17:01.316,-1.08694,4.94387,8.67608,0.18272,-0.0788757,-0.31283,0
2024-12-11 21:17:01.318,-1.12522,4.97498,8.76491,0.149123,-0.0782648,-0.315274,0
2024-12-11 21:17:01.322,-1.15155,5.01326,8.87498,0.116748,-0.077654,-0.316495,0
2024-12-11 21:17:01.323,-1.16112,5.05873,8.99223,0.0807082,-0.0782648,-0.315274,0
2024-12-11 21:17:01.325,-1.1683,5.1018,9.09751,0.0489441,-0.0794865,-0.316495,0
2024-12-11 21:17:01.328,-1.18026,5.12812,9.2004,0.0171801,-0.0837624,-0.316495,0
2024-12-11 21:17:01.330,-1.18026,5.14008,9.32752,-0.0115297,-0.0874275,-0.317106,0
2024-12-11 21:17:01.333,-1.1659,5.14008,9.48066,-0.0390179,-0.093536,-0.320771,0
2024-12-11 21:17:01.337,-1.07258,5.1353,9.78455,-0.0915507,-0.115526,-0.328101,0
2024-12-11 21:17:01.338,-1.07258,5.1353,9.78455,-0.117206,-0.131409,-0.334821,0
2024-12-11 21:17:01.341,-1.02951,5.14726,9.94756,-0.117206,-0.131409,-0.334821,0
2024-12-11 21:17:01.342,-0.988834,5.15683,10.0911,-0.142251,-0.14668,-0.34154,0
2024-12-11 21:17:01.345,-0.952942,5.15922,10.2227,-0.187454,-0.16867,-0.355589,0
2024-12-11 21:17:01.348,-0.924228,5.16162,10.34,-0.187454,-0.16867,-0.355589,0
2024-12-11 21:17:01.350,-0.905085,5.15922,10.424,-0.187454,-0.16867,-0.355589,0
2024-12-11 21:17:01.351,-0.88355,5.15205,10.4958,-0.227159,-0.181498,-0.366585,0
2024-12-11 21:17:01.354,-0.857229,5.12333,10.5748,-0.24976,-0.186996,-0.368417,0
2024-12-11 21:17:01.357,-0.835394,5.08983,10.649,-0.294963,-0.194326,-0.378191,0
2024-12-11 21:17:01.359,-0.816252,5.0659,10.716,-0.294963,-0.194326,-0.378191,0
2024-12-11 21:17:01.361,-0.792323,5.04437,10.7758,-0.323673,-0.19738,-0.378802,0
2024-12-11 21:17:01.363,-0.766002,5.02044,10.8308,-0.349939,-0.201045,-0.382467,0
2024-12-11 21:17:01.366,-0.734896,4.98933,10.8882,-0.378038,-0.205321,-0.383078,0
2024-12-11 21:17:01.368,-0.708575,4.94148,10.9436,-0.409191,-0.206543,-0.383078,0
2024-12-11 21:17:01.370,-0.687039,4.89123,11.001,-0.439123,-0.210208,-0.381856,0
2024-12-11 21:17:01.372,-0.663111,4.84337,11.0776,-0.470276,-0.210208,-0.380023,0
2024-12-11 21:17:01.375,-0.646361,4.82184,11.1637,-0.500818,-0.209597,-0.376358,0
2024-12-11 21:17:01.377,-0.665504,4.80748,11.2618,-0.53075,-0.205321,-0.373915,0
2024-12-11 21:17:01.380,-0.703789,4.79791,11.3886,-0.55946,-0.201656,-0.367806,0
2024-12-11 21:17:01.382,-0.727717,4.81705,11.5301,-0.58817,-0.194326,-0.359255,0
2024-12-11 21:17:01.385,-0.777966,4.8673,11.6713,-0.640702,-0.16134,-0.330545,0
2024-12-11 21:17:01.387,-0.828216,4.92951,11.8173,-0.640702,-0.16134,-0.330545,0
2024-12-11 21:17:01.389,-0.862014,4.97976,11.956,-0.66025,-0.142404,-0.313441,0
2024-12-11 21:17:01.391,-0.873978,5.02523,12.1023,-0.676132,-0.121024,-0.297559,0
2024-12-11 21:17:01.395,-0.84018,5.07308,12.2435,-0.705452,-0.093536,-0.265184,0
2024-12-11 21:17:01.396,-0.754038,5.07787,12.3823,-0.705452,-0.093536,-0.265184,0
2024-12-11 21:17:01.398,-0.612862,5.0348,12.4923,-0.714004,-0.0910926,-0.252967,0
2024-12-11 21:17:01.401,-0.471685,4.98216,12.6072,-0.723167,-0.093536,-0.246859,0
2024-12-11 21:17:01.404,-0.328116,4.93909,12.7367,-0.734773,-0.111251,-0.244415,0
2024-12-11 21:17:01.409,0.0,4.86969,12.9329,-0.761039,-0.193104,-0.263962,0
2024-12-11 21:17:01.410,0.167498,4.81227,13.0262,-0.761039,-0.193104,-0.263962,0
2024-12-11 21:17:01.411,0.167498,4.81227,13.0262,-0.761039,-0.193104,-0.263962,0
2024-12-11 21:17:01.413,0.316152,4.74975,13.1243,-0.768369,-0.225479,-0.278623,0
2024-12-11 21:17:01.415,0.459721,4.6995,13.2251,-0.770813,-0.253578,-0.294505,0
2024-12-11 21:17:01.417,0.608076,4.63968,13.3089,-0.772035,-0.283509,-0.317106,0
2024-12-11 21:17:01.420,0.742074,4.56551,13.4046,-0.774478,-0.308554,-0.337875,0
2024-12-11 21:17:01.422,0.873978,4.4674,13.5027,-0.774478,-0.329323,-0.361698,0
2024-12-11 21:17:01.424,0.998405,4.34058,13.5793,-0.772035,-0.349481,-0.386132,0
2024-12-11 21:17:01.427,1.1013,4.21615,13.675,-0.764094,-0.361698,-0.411787,0
2024-12-11 21:17:01.429,1.20658,4.08186,13.7614,-0.754931,-0.371471,-0.438665,1
2024-12-11 21:17:01.432,1.31665,3.93829,13.8356,-0.748212,-0.373915,-0.464931,0
2024-12-11 21:17:01.434,1.40279,3.81147,13.9002,-0.734162,-0.372693,-0.494252,0
2024-12-11 21:17:01.437,1.44855,3.68704,13.9505,-0.70362,-0.361087,-0.548006,0
2024-12-11 21:17:01.438,1.47248,3.54556,14.0079,-0.70362,-0.361087,-0.548006,0
2024-12-11 21:17:01.441,1.47248,3.41396,14.051,-0.684683,-0.351314,-0.574884,0
2024-12-11 21:17:01.444,1.46052,3.2991,14.0797,-0.643757,-0.32749,-0.620697,0
2024-12-11 21:17:01.447,1.45095,3.17468,14.1012,-0.643757,-0.32749,-0.620697,0
2024-12-11 21:17:01.448,1.40548,3.04995,14.1323,-0.619323,-0.311608,-0.642688,0
2024-12-11 21:17:01.450,1.34536,2.93988,14.1538,-0.593056,-0.295116,-0.659181,0
2024-12-11 21:17:01.453,1.29033,2.82503,14.1706,-0.564957,-0.272514,-0.673841,0
2024-12-11 21:17:01.455,1.22094,2.69821,14.1873,-0.535637,-0.249302,-0.686058,0
2024-12-11 21:17:01.458,1.13001,2.57617,14.1826,-0.498986,-0.221814,-0.695221,0
2024-12-11 21:17:01.460,1.01994,2.45623,14.1802,-0.462335,-0.193715,-0.700107,0
2024-12-11 21:17:01.463,0.907478,2.35573,14.1826,-0.378038,-0.125911,-0.698275,0
2024-12-11 21:17:01.465,0.792323,2.25045,14.1778,-0.378038,-0.125911,-0.698275,0
2024-12-11 21:17:01.468,0.665504,2.13799,14.1515,-0.276027,-0.0519984,-0.681782,0
2024-12-11 21:17:01.469,0.529113,2.04706,14.1132,-0.276027,-0.0519984,-0.681782,0
2024-12-11 21:17:01.471,0.395115,1.97288,14.0749,-0.22105,-0.0147367,-0.668954,0
2024-12-11 21:17:01.474,0.256032,1.91276,14.0175,-0.16302,0.0231358,-0.650629,0
2024-12-11 21:17:01.476,0.119641,1.86251,13.9265,-0.0994917,0.0597867,-0.630471,0
2024-12-11 21:17:01.478,-0.026321,1.81705,13.8093,-0.0359636,0.0964375,-0.605426,0
2024-12-11 21:17:01.481,-0.165105,1.78594,13.6702,0.0257319,0.128812,-0.577327,0
2024-12-11 21:17:01.484,-0.30658,1.76441,13.5003,0.0923143,0.159355,-0.544341,0
2024-12-11 21:17:01.486,-0.447757,1.75484,13.2945,0.0923143,0.159355,-0.544341,0
2024-12-11 21:17:01.488,-0.572184,1.7668,13.0597,0.223036,0.207612,-0.473483,0
2024-12-11 21:17:01.491,-0.672682,1.78834,12.8037,0.347648,0.228991,-0.398349,0
2024-12-11 21:17:01.493,-0.74686,1.80269,12.5306,0.347648,0.228991,-0.398349,0
2024-12-11 21:17:01.495,-0.813859,1.81705,12.2602,0.402625,0.225326,-0.359865,0
2024-12-11 21:17:01.497,-0.871586,1.85055,11.9632,0.454547,0.214331,-0.323825,0
2024-12-11 21:17:01.500,-0.895514,1.88644,11.6761,0.499139,0.199671,-0.287175,0
2024-12-11 21:17:01.502,-0.905085,1.92233,11.4006,0.540676,0.171572,-0.252356,0
2024-12-11 21:17:01.504,-0.907478,1.98724,11.1135,0.576716,0.139808,-0.218149,0
2024-12-11 21:17:01.507,-0.893121,2.05663,10.8404,0.611534,0.100713,-0.186996,0
2024-12-11 21:17:01.511,-0.818644,2.17866,10.3448,0.660402,0.0133623,-0.132019,0
2024-12-11 21:17:01.512,-0.818644,2.17866,10.3448,0.660402,0.0133623,-0.132019,0
2024-12-11 21:17:01.515,-0.732503,2.21934,10.127,0.698275,-0.0910926,-0.0892601,0
2024-12-11 21:17:01.516,-0.629611,2.28395,9.93799,0.698275,-0.0910926,-0.0892601,0
2024-12-11 21:17:01.520,-0.500399,2.31745,9.77019,0.722709,-0.202267,-0.0605502,0
2024-12-11 21:17:01.521,-0.366401,2.33659,9.58116,0.722709,-0.202267,-0.0605502,0
2024-12-11 21:17:01.524,-0.241675,2.37009,9.40409,0.732482,-0.304278,-0.0471116,0
2024-12-11 21:17:01.526,-0.119641,2.40359,9.24826,0.732482,-0.304278,-0.0471116,0
2024-12-11 21:17:01.528,0.00239282,2.44666,9.10469,0.732482,-0.34887,-0.0471116,0
2024-12-11 21:17:01.531,0.117248,2.47537,8.96112,0.728206,-0.391019,-0.0501658,0
2024-12-11 21:17:01.535,0.222533,2.53549,8.71705,0.711713,-0.460044,-0.0605502,0
2024-12-11 21:17:01.535,0.328116,2.53549,8.71705,0.711713,-0.460044,-0.0605502,0
2024-12-11 21:17:01.537,0.431007,2.55703,8.60668,0.70194,-0.4857,-0.0691021,0
2024-12-11 21:17:01.540,0.536291,2.56899,8.51815,0.684836,-0.505247,-0.0819299,0
2024-12-11 21:17:01.542,0.632004,2.55942,8.42962,0.670176,-0.519907,-0.0929251,0
2024-12-11 21:17:01.544,0.722932,2.54028,8.34826,0.65185,-0.531513,-0.10392,0
2024-12-11 21:17:01.547,0.82343,2.51605,8.28126,0.633525,-0.539454,-0.11797,0
2024-12-11 21:17:01.549,0.924228,2.47777,8.24776,0.610924,-0.546174,-0.134463,0
2024-12-11 21:17:01.552,1.00558,2.43948,8.21665,0.588322,-0.551061,-0.150956,0
2024-12-11 21:17:01.555,1.08455,2.38923,8.17837,0.538844,-0.555337,-0.189439,0
2024-12-11 21:17:01.556,1.19701,2.32941,8.17358,0.538844,-0.555337,-0.189439,0
2024-12-11 21:17:01.560,1.27119,2.27677,8.1664,0.511356,-0.557169,-0.208986,0
2024-12-11 21:17:01.561,1.33101,2.23131,8.15683,0.486311,-0.556558,-0.229144,0
2024-12-11 21:17:01.564,1.39561,2.19302,8.1664,0.435,-0.545563,-0.270682,0
2024-12-11 21:17:01.566,1.43181,2.16431,8.17598,0.435,-0.545563,-0.270682,0
2024-12-11 21:17:01.569,1.45095,2.15234,8.18555,0.388575,-0.522351,-0.314663,0
2024-12-11 21:17:01.571,1.45573,2.14517,8.22144,0.388575,-0.522351,-0.314663,0
2024-12-11 21:17:01.574,1.44377,2.1332,8.2693,0.369028,-0.50769,-0.334821,0
2024-12-11 21:17:01.575,1.42702,2.10209,8.31237,0.350703,-0.490587,-0.356811,0
2024-12-11 21:17:01.578,1.39322,2.06142,8.36262,0.332377,-0.47104,-0.373304,0
2024-12-11 21:17:01.581,1.34776,2.01356,8.42244,0.309165,-0.424615,-0.406901,0
2024-12-11 21:17:01.582,1.29033,1.97767,8.47747,0.309165,-0.424615,-0.406901,0
2024-12-11 21:17:01.584,1.22812,1.94865,8.52054,0.300613,-0.400181,-0.421561,0
2024-12-11 21:17:01.587,1.16351,1.91755,8.55165,0.292061,-0.373304,-0.434389,0
2024-12-11 21:17:01.589,1.0654,1.90319,8.58036,0.288396,-0.340929,-0.444162,0
2024-12-11 21:17:01.593,0.950549,1.89841,8.58754,0.286564,-0.307333,-0.450882,0
2024-12-11 21:17:01.595,0.825823,1.88644,8.58515,0.285342,-0.272514,-0.456379,0
2024-12-11 21:17:01.597,0.691825,1.87208,8.60908,0.293283,-0.20471,-0.455768,0
2024-12-11 21:17:01.600,0.569791,1.84576,8.62104,0.301835,-0.172335,-0.450271,0
2024-12-11 21:17:01.601,0.442971,1.83141,8.6019,0.301835,-0.172335,-0.450271,0
2024-12-11 21:17:01.603,0.311366,1.82662,8.58036,0.31283,-0.13996,-0.439886,0
2024-12-11 21:17:01.606,0.193819,1.82662,8.54686,0.323215,-0.110029,-0.430113,0
2024-12-11 21:17:01.608,0.0933201,1.82662,8.5014,0.332377,-0.0849841,-0.419118,0
2024-12-11 21:17:01.610,-0.00957129,1.81944,8.45833,0.343373,-0.057496,-0.404457,0
2024-12-11 21:17:01.615,-0.107677,1.82423,8.34826,0.375747,-0.00801737,-0.37025,0
2024-12-11 21:17:01.615,-0.184247,1.82423,8.34826,0.375747,-0.00801737,-0.37025,0
2024-12-11 21:17:01.617,-0.256032,1.82662,8.29322,0.391019,0.0127514,-0.350703,0
2024-12-11 21:17:01.621,-0.337687,1.83619,8.2334,0.430113,0.0457372,-0.307943,0
2024-12-11 21:17:01.622,-0.397508,1.85055,8.17119,0.430113,0.0457372,-0.307943,0
2024-12-11 21:17:01.625,-0.445364,1.84816,8.10868,0.450271,0.0591758,-0.28412,0
2024-12-11 21:17:01.628,-0.476471,1.85533,8.04407,0.489976,0.0750579,-0.239528,0
2024-12-11 21:17:01.630,-0.488435,1.87208,7.97468,0.511966,0.0793338,-0.215095,0
2024-12-11 21:17:01.634,-0.469292,1.87687,7.81436,0.533957,0.0817772,-0.194937,0
2024-12-11 21:17:01.634,-0.469292,1.87687,7.81436,0.533957,0.0817772,-0.194937,0
2024-12-11 21:17:01.636,-0.464507,1.88883,7.74497,0.558391,0.0842206,-0.172946,0
2024-12-11 21:17:01.640,-0.459721,1.89601,7.68036,0.603593,0.0842206,-0.134463,0
2024-12-11 21:17:01.641,-0.447757,1.91994,7.59901,0.603593,0.0842206,-0.134463,0
2024-12-11 21:17:01.643,-0.421436,1.94626,7.50539,0.625584,0.0829989,-0.118581,0
2024-12-11 21:17:01.646,-0.397508,1.97288,7.41685,0.65185,0.082388,-0.102088,0
2024-12-11 21:17:01.648,-0.375972,1.98963,7.33789,0.677506,0.0811663,-0.0874275,0
2024-12-11 21:17:01.651,-0.330509,2.01356,7.24218,0.699496,0.0811663,-0.0727672,0
2024-12-11 21:17:01.653,-0.275175,2.04706,7.1345,0.724541,0.0762796,-0.0605502,0
2024-12-11 21:17:01.655,-0.236889,2.0662,7.03879,0.747143,0.0701711,-0.049555,0
2024-12-11 21:17:01.657,-0.212961,2.09252,6.92363,0.7673,0.0683385,-0.0385597,0
2024-12-11 21:17:01.660,-0.184247,2.11645,6.80638,0.788069,0.0658951,-0.0306187,0
2024-12-11 21:17:01.662,-0.145962,2.13081,6.69871,0.808838,0.0616192,-0.021456,0
2024-12-11 21:17:01.665,-0.105284,2.14995,6.57907,0.82472,0.0573433,-0.0159584,0
2024-12-11 21:17:01.667,-0.0789631,2.17627,6.45464,0.842435,0.0524565,-0.0129041,0
2024-12-11 21:17:01.672,-0.026321,2.21934,6.17677,0.869312,0.0414613,-0.00679568,0
2024-12-11 21:17:01.672,-0.026321,2.21934,6.17677,0.869312,0.0414613,-0.00679568,0
2024-12-11 21:17:01.674,0.00239282,2.25524,6.05474,0.879086,0.0359636,-0.00923906,0
2024-12-11 21:17:01.676,0.0526421,2.26959,5.92553,0.885805,0.0298552,-0.00801737,0
2024-12-11 21:17:01.679,0.0789631,2.29831,5.79841,0.890692,0.0237467,-0.0104608,0
2024-12-11 21:17:01.681,0.0957129,2.34138,5.69552,0.894357,0.0182491,-0.0159584,0
2024-12-11 21:17:01.683,0.112463,2.38445,5.58545,0.896189,0.0096972,-0.0171801,0
2024-12-11 21:17:01.687,0.133998,2.4323,5.45863,0.894968,0.00603212,-0.0245102,0
2024-12-11 21:17:01.688,0.138784,2.48255,5.36531,0.891913,0.000534491,-0.029397,0
2024-12-11 21:17:01.690,0.153141,2.53789,5.29083,0.883972,-0.00313059,-0.033673,0
2024-12-11 21:17:01.693,0.179462,2.57857,5.20469,0.87542,-0.00740652,-0.0434465,0
2024-12-11 21:17:01.695,0.210568,2.60249,5.13051,0.86809,-0.00923906,-0.0526092,0
2024-12-11 21:17:01.698,0.251246,2.62881,5.0683,0.857706,-0.0116825,-0.0617719,0
2024-12-11 21:17:01.701,0.272782,2.66231,5.00848,0.834494,-0.0122933,-0.0868167,0
2024-12-11 21:17:01.702,0.311366,2.68146,4.95105,0.834494,-0.0122933,-0.0868167,0
2024-12-11 21:17:01.706,0.347258,2.70778,4.89601,0.801508,-0.00496313,-0.117359,0
2024-12-11 21:17:01.709,0.383151,2.76521,4.7689,0.783793,0.00297788,-0.131409,0
2024-12-11 21:17:01.710,0.383151,2.76521,4.7689,0.783793,0.00297788,-0.131409,0
2024-12-11 21:17:01.712,0.380758,2.8011,4.71386,0.765468,0.0115297,-0.147901,0
2024-12-11 21:17:01.714,0.380758,2.84178,4.65404,0.745921,0.0219141,-0.162562,0
2024-12-11 21:17:01.716,0.375972,2.87049,4.58943,0.722709,0.0322986,-0.177833,0
2024-12-11 21:17:01.719,0.344866,2.90399,4.53201,0.70194,0.0445155,-0.194937,0
2024-12-11 21:17:01.721,0.301795,2.95902,4.47458,0.67323,0.0567324,-0.21204,0
2024-12-11 21:17:01.724,0.246461,3.02602,4.42672,0.646353,0.0707819,-0.225479,0
2024-12-11 21:17:01.727,0.172283,3.08584,4.38365,0.58649,0.0897182,-0.256632,0
2024-12-11 21:17:01.728,0.114855,3.13639,4.35494,0.58649,0.0897182,-0.256632,0
2024-12-11 21:17:01.732,0.0741775,3.20818,4.35015,0.521129,0.103768,-0.282288,0
2024-12-11 21:17:01.734,0.026321,3.28475,4.35254,0.488143,0.108044,-0.293894,0
2024-12-11 21:17:01.738,-0.0287139,3.40678,4.35972,0.447827,0.111709,-0.307943,0
2024-12-11 21:17:01.738,-0.0287139,3.40678,4.35972,0.447827,0.111709,-0.307943,0
2024-12-11 21:17:01.740,-0.0717847,3.49292,4.40279,0.414842,0.114763,-0.318328,0
2024-12-11 21:17:01.743,-0.105284,3.57667,4.44826,0.336653,0.113541,-0.340929,0
2024-12-11 21:17:01.747,-0.18664,3.73729,4.49133,0.292672,0.111098,-0.354979,0
2024-12-11 21:17:01.748,-0.18664,3.73729,4.49133,0.249913,0.109265,-0.369028,0
2024-12-11 21:17:01.750,-0.248854,3.81625,4.52961,0.249913,0.109265,-0.369028,0
2024-12-11 21:17:01.753,-0.328116,3.89043,4.57986,0.157675,0.106822,-0.392851,0
2024-12-11 21:17:01.754,-0.414257,3.98136,4.63011,0.157675,0.106822,-0.392851,0
2024-12-11 21:17:01.756,-0.507577,4.08186,4.6995,0.109418,0.109265,-0.402014,0
2024-12-11 21:17:01.759,-0.615255,4.17518,4.77398,0.0617719,0.110487,-0.413009,0
2024-12-11 21:17:01.762,-0.732503,4.2664,4.85294,-0.0365745,0.11965,-0.425837,0
2024-12-11 21:17:01.764,-0.845265,4.36212,4.95583,-0.0365745,0.11965,-0.425837,0
2024-12-11 21:17:01.766,-0.948156,4.45544,5.07308,-0.0829989,0.129423,-0.430724,0
2024-12-11 21:17:01.768,-1.0678,4.56311,5.22383,-0.129423,0.141029,-0.433778,0
2024-12-11 21:17:01.772,-1.2018,4.67558,5.39641,-0.22105,0.162409,-0.42828,0
2024-12-11 21:17:01.773,-1.32383,4.77398,5.56152,-0.22105,0.162409,-0.42828,0
2024-12-11 21:17:01.775,-1.42702,4.86012,5.74816,-0.260755,0.170961,-0.420339,0
2024-12-11 21:17:01.778,-1.52273,4.92712,5.9351,-0.301071,0.179513,-0.414231,0
2024-12-11 21:17:01.781,-1.62562,4.99412,6.11695,-0.373762,0.199671,-0.389186,0
2024-12-11 21:17:01.783,-1.70698,5.05633,6.31795,-0.373762,0.199671,-0.389186,0
2024-12-11 21:17:01.785,-1.74766,5.08744,6.50489,-0.406137,0.207001,-0.374526,0
2024-12-11 21:17:01.787,-1.76919,5.10658,6.69392,-0.431793,0.217385,-0.361087,0
2024-12-11 21:17:01.790,-1.78834,5.12573,6.89253,-0.458059,0.228381,-0.346427,0
2024-12-11 21:17:01.792,-1.8003,5.14965,7.08425,-0.482493,0.236932,-0.330545,0
2024-12-11 21:17:01.794,-1.81705,5.17597,7.27568,-0.505094,0.245484,-0.314663,0
2024-12-11 21:17:01.799,-1.82901,5.20469,7.60618,-0.547854,0.263199,-0.279844,0
2024-12-11 21:17:01.800,-1.82901,5.20469,7.60618,-0.568012,0.273583,-0.262741,0
2024-12-11 21:17:01.802,-1.85055,5.22144,7.78804,-0.568012,0.273583,-0.262741,0
2024-12-11 21:17:01.804,-1.87208,5.25015,7.99382,-0.583894,0.280303,-0.240139,0
2024-12-11 21:17:01.807,-1.87926,5.29083,8.16401,-0.599165,0.294352,-0.217538,0
2024-12-11 21:17:01.808,-1.88166,5.33181,8.31954,-0.613214,0.30718,-0.192493,0
2024-12-11 21:17:01.811,-1.85533,5.3677,8.47747,-0.62482,0.322451,-0.166227,0
2024-12-11 21:17:01.814,-1.79551,5.37488,8.62104,-0.646811,0.356048,-0.112472,0
2024-12-11 21:17:01.815,-1.72852,5.36531,8.75773,-0.646811,0.356048,-0.112472,0
2024-12-11 21:17:01.819,-1.66391,5.36291,8.88694,-0.66758,0.380481,-0.0636045,0
2024-12-11 21:17:01.820,-1.57777,5.35813,9.00419,-0.66758,0.380481,-0.0636045,0
2024-12-11 21:17:01.822,-1.4653,5.36052,9.09033,-0.679186,0.387201,-0.041614,0
2024-12-11 21:17:01.825,-1.35972,5.3677,9.17887,-0.690792,0.392698,-0.0208452,0
2024-12-11 21:17:01.827,-1.26162,5.38445,9.28206,-0.702398,0.392698,-0.00313059,0
2024-12-11 21:17:01.829,-1.15872,5.40838,9.37059,-0.714004,0.392698,0.0127514,0
2024-12-11 21:17:01.832,-1.06062,5.44427,9.46631,-0.72561,0.392698,0.0261901,0
2024-12-11 21:17:01.834,-0.984048,5.48734,9.57159,-0.737216,0.390866,0.0371853,0
2024-12-11 21:17:01.838,-0.926621,5.5328,9.69362,-0.763483,0.379871,0.0548999,0
2024-12-11 21:17:01.839,-0.881157,5.59741,9.83031,-0.763483,0.379871,0.0548999,0
2024-12-11 21:17:01.842,-0.852443,5.65245,9.94995,-0.786695,0.359713,0.0652843,0
2024-12-11 21:17:01.844,-0.845265,5.71227,10.0792,-0.786695,0.359713,0.0652843,0
2024-12-11 21:17:01.846,-0.847657,5.75773,10.2251,-0.796468,0.348717,0.0671168,0
2024-12-11 21:17:01.848,-0.854836,5.79123,10.3639,-0.801966,0.333446,0.0683385,0
2024-12-11 21:17:01.851,-0.864407,5.85105,10.515,-0.809296,0.315121,0.0677277,0
2024-12-11 21:17:01.854,-0.878764,5.9016,10.6825,-0.814794,0.291298,0.066506,0
2024-12-11 21:17:01.855,-0.905085,5.94467,10.85,-0.820292,0.263199,0.0646735,0
2024-12-11 21:17:01.858,-0.955334,5.99013,11.0249,-0.824567,0.232046,0.0622301,0
2024-12-11 21:17:01.860,-1.01037,6.04038,11.2116,-0.825789,0.19906,0.0616192,0
2024-12-11 21:17:01.866,-1.11805,6.07627,11.5899,-0.809907,0.0829989,0.0634518,0
2024-12-11 21:17:01.866,-1.11805,6.07627,11.5899,-0.809907,0.0829989,0.0634518,0
2024-12-11 21:17:01.867,-1.17308,6.08824,11.7718,-0.809907,0.0829989,0.0634518,0
2024-12-11 21:17:01.870,-1.21137,6.08585,11.9728,-0.80441,0.038407,0.066506,0
2024-12-11 21:17:01.872,-1.24008,6.0667,12.1693,-0.795247,-0.00374144,0.0683385,0
2024-12-11 21:17:01.875,-1.27597,6.05235,12.3535,-0.770202,-0.0862058,0.0781121,0
2024-12-11 21:17:01.877,-1.30229,6.04517,12.5498,-0.770202,-0.0862058,0.0781121,0
2024-12-11 21:17:01.880,-1.32144,6.02842,12.7678,-0.74027,-0.153399,0.0964375,0
2024-12-11 21:17:01.881,-1.34536,5.99253,12.9808,-0.74027,-0.153399,0.0964375,0
2024-12-11 21:17:01.884,-1.37408,5.96381,13.1842,-0.720723,-0.177833,0.103768,0
2024-12-11 21:17:01.886,-1.39322,5.93031,13.3831,-0.700565,-0.194937,0.117206,0
2024-12-11 21:17:01.888,-1.39322,5.89921,13.5817,-0.675521,-0.199823,0.131256,0
2024-12-11 21:17:01.891,-1.37886,5.86301,13.783,-0.646811,-0.197991,0.14897,0
2024-12-11 21:17:01.893,-1.36929,5.82712,13.9768,-0.618712,-0.188217,0.167296,0
2024-12-11 21:17:01.896,-1.3669,5.78644,14.1443,-0.587559,-0.170503,0.183178,0
2024-12-11 21:17:01.899,-1.38365,5.77926,14.2759,-0.555184,-0.144236,0.203947,0
2024-12-11 21:17:01.900,-1.41266,5.80559,14.3839,-0.517922,-0.108807,0.228381,0
2024-12-11 21:17:01.903,-1.4653,5.84626,14.4796,-0.476995,-0.0611611,0.250982,0
2024-12-11 21:17:01.905,-1.52273,5.92313,14.5346,-0.434847,-0.00740652,0.277248,0
2024-12-11 21:17:01.908,-1.58495,6.0021,14.5322,-0.396364,0.0475697,0.305347,0
2024-12-11 21:17:01.910,-1.61845,6.07627,14.4772,-0.357269,0.0994917,0.334057,0
2024-12-11 21:17:01.912,-1.61127,6.14567,14.3551,-0.317564,0.143473,0.359713,0
2024-12-11 21:17:01.914,-1.56341,6.17677,14.1658,-0.288854,0.176459,0.383536,0
2024-12-11 21:17:01.917,-1.44855,6.17438,13.9528,-0.268696,0.190508,0.40125,0
2024-12-11 21:17:01.919,-1.28315,6.14327,13.7228,-0.261366,0.180734,0.409191,0
2024-12-11 21:17:01.921,-1.09412,6.11217,13.4764,-0.263199,0.156911,0.410413,0
2024-12-11 21:17:01.924,-0.905085,6.09302,13.2347,-0.277859,0.117206,0.406137,0
2024-12-11 21:17:01.926,-0.691825,6.0691,13.0549,-0.302293,0.0622301,0.390255,0
2024-12-11 21:17:01.928,-0.476471,6.07627,12.9425,-0.33589,-0.00129805,0.368265,0
2024-12-11 21:17:01.932,-0.275175,6.07867,12.8563,-0.424462,-0.149734,0.309623,0
2024-12-11 21:17:01.934,-0.0646062,6.0356,12.8468,-0.477606,-0.22609,0.269918,0
2024-12-11 21:17:01.936,0.141177,5.9997,12.9521,-0.477606,-0.22609,0.269918,0
2024-12-11 21:17:01.938,0.35683,5.95903,13.165,-0.528917,-0.29817,0.229602,0
2024-12-11 21:17:01.941,0.574577,5.86062,13.4644,-0.616879,-0.417285,0.133699,0
2024-12-11 21:17:01.943,0.780359,5.72184,13.8571,-0.616879,-0.417285,0.133699,0
2024-12-11 21:17:01.945,0.979263,5.54238,14.3046,-0.649254,-0.457601,0.0817772,0
2024-12-11 21:17:01.948,1.14437,5.34138,14.7858,-0.669412,-0.481424,0.0310769,0
2024-12-11 21:17:01.950,1.28554,5.13769,15.2599,-0.676742,-0.484478,-0.021456,0
2024-12-11 21:17:01.952,1.42463,4.92951,15.7053,-0.668191,-0.469818,-0.0721563,0
2024-12-11 21:17:01.954,1.55145,4.69472,16.1028,-0.648643,-0.440497,-0.124078,0
2024-12-11 21:17:01.957,1.6352,4.43869,16.4378,-0.621766,-0.397127,-0.174168,0
2024-12-11 21:17:01.960,1.64716,4.17278,16.7204,-0.541745,-0.279844,-0.267627,1
2024-12-11 21:17:01.962,1.59452,3.93589,16.9119,-0.541745,-0.279844,-0.267627,0
2024-12-11 21:17:01.964,1.48205,3.72293,17.0124,-0.493488,-0.216927,-0.306722,0
2024-12-11 21:17:01.967,1.31426,3.50967,17.0459,-0.441566,-0.147291,-0.340929,0
2024-12-11 21:17:01.968,1.11565,3.2991,17.0363,-0.385368,-0.0782648,-0.367196,0
2024-12-11 21:17:01.971,0.907478,3.07388,16.9741,-0.330392,-0.0104608,-0.389797,0
2024-12-11 21:17:01.974,0.682254,2.84895,16.8784,-0.217385,0.120261,-0.404457,0
2024-12-11 21:17:01.976,0.447757,2.65035,16.7468,-0.217385,0.120261,-0.404457,0
2024-12-11 21:17:01.979,0.200997,2.45623,16.5841,-0.100103,0.248538,-0.388575,0
2024-12-11 21:17:01.980,-0.0287139,2.27199,16.4067,-0.100103,0.248538,-0.388575,0
2024-12-11 21:17:01.983,-0.253639,2.10927,16.22,-0.038407,0.310845,-0.368417,0
2024-12-11 21:17:01.985,-0.493221,1.9681,16.0238,0.0226777,0.373762,-0.340318,0
2024-12-11 21:17:01.987,-0.725324,1.84098,15.7938,0.0837624,0.432404,-0.306722,0
2024-12-11 21:17:01.991,-0.940978,1.72852,15.5402,0.21143,0.542356,-0.225479,0
2024-12-11 21:17:01.993,-1.1324,1.61845,15.2695,0.273125,0.590002,-0.177222,0
2024-12-11 21:17:01.995,-1.30947,1.50359,14.9871,0.334821,0.63154,-0.128354,0
2024-12-11 21:17:01.997,-1.46052,1.41266,14.7045,0.334821,0.63154,-0.128354,0
2024-12-11 21:17:02.000,-1.58495,1.35733,14.3886,0.451492,0.687127,-0.0257319,0
2024-12-11 21:17:02.001,-1.70459,1.32144,14.0605,0.451492,0.687127,-0.0257319,0
2024-12-11 21:17:02.004,-1.8003,1.28554,13.7228,0.508301,0.701787,0.0243575,0
2024-12-11 21:17:02.006,-1.86251,1.27119,13.3735,0.562056,0.706063,0.0701711,0
2024-12-11 21:17:02.009,-1.91755,1.29751,13.0167,0.610313,0.70362,0.114763,0
2024-12-11 21:17:02.011,-1.95105,1.32144,12.6625,0.654905,0.691403,0.161798,0
2024-12-11 21:17:02.013,-1.9657,1.34776,12.3296,0.697053,0.671856,0.198449,0
2024-12-11 21:17:02.016,-1.98724,1.41027,11.9991,0.737369,0.643757,0.2351,0
2024-12-11 21:17:02.019,-1.98724,1.48205,11.6737,0.771576,0.607717,0.268086,0
2024-12-11 21:17:02.020,-1.97288,1.52991,11.3695,0.80334,0.56679,0.30046,0
2024-12-11 21:17:02.023,-1.92951,1.58255,11.0704,0.831439,0.515479,0.327949,0
2024-12-11 21:17:02.025,-1.85294,1.63041,10.759,0.852819,0.459892,0.348717,0
2024-12-11 21:17:02.028,-1.76201,1.64955,10.4623,0.871755,0.399418,0.36521,0
2024-12-11 21:17:02.030,-1.66152,1.68784,10.1964,0.888859,0.332835,0.377427,0
2024-12-11 21:17:02.033,-1.57059,1.73809,9.94278,0.906574,0.190508,0.387812,0
2024-12-11 21:17:02.034,-1.47727,1.76919,9.69362,0.906574,0.190508,0.387812,0
2024-12-11 21:17:02.038,-1.3669,1.79073,9.47109,0.912682,0.0408504,0.378649,0
2024-12-11 21:17:02.041,-1.26401,1.84816,9.05205,0.906574,-0.0342838,0.368265,0
2024-12-11 21:17:02.042,-1.16351,1.84816,9.05205,0.906574,-0.0342838,0.368265,0
2024-12-11 21:17:02.044,-1.0678,1.87208,8.87976,0.902298,-0.110029,0.354215,0
2024-12-11 21:17:02.046,-0.99362,1.88405,8.7362,0.894357,-0.180887,0.337722,0
2024-12-11 21:17:02.048,-0.936192,1.91994,8.61386,0.882751,-0.250524,0.320008,0
2024-12-11 21:17:02.051,-0.881157,1.92233,8.49901,0.882751,-0.250524,0.320008,0
2024-12-11 21:17:02.054,-0.804287,1.88405,8.40329,0.838159,-0.430724,0.255258,0
2024-12-11 21:17:02.057,-0.720539,1.84576,8.28844,0.819223,-0.480813,0.236322,0
2024-12-11 21:17:02.058,-0.648754,1.80509,8.19273,0.819223,-0.480813,0.236322,0
2024-12-11 21:17:02.063,-0.54347,1.70937,8.05604,0.78135,-0.555947,0.194784,0
2024-12-11 21:17:02.063,-0.54347,1.70937,8.05604,0.78135,-0.555947,0.194784,0
2024-12-11 21:17:02.065,-0.505185,1.63759,7.99861,0.761192,-0.582825,0.175237,0
2024-12-11 21:17:02.068,-0.452543,1.57298,7.94597,0.73798,-0.599928,0.153857,0
2024-12-11 21:17:02.071,-0.409472,1.49641,7.88615,0.689723,-0.61581,0.119039,0
2024-12-11 21:17:02.073,-0.361615,1.41984,7.83829,0.689723,-0.61581,0.119039,0
2024-12-11 21:17:02.075,-0.311366,1.35015,7.80718,0.664678,-0.613978,0.101935,0
2024-12-11 21:17:02.078,-0.260818,1.27119,7.7689,0.611534,-0.59382,0.0671168,0
2024-12-11 21:17:02.080,-0.208176,1.20658,7.72104,0.611534,-0.59382,0.0671168,0
2024-12-11 21:17:02.081,-0.179462,1.16351,7.67797,0.581603,-0.576105,0.0500131,0
2024-12-11 21:17:02.085,-0.177069,1.14197,7.64926,0.555337,-0.554115,0.0316877,0
2024-12-11 21:17:02.086,-0.16989,1.10369,7.59901,0.522351,-0.527238,0.0158057,0
2024-12-11 21:17:02.089,-0.162712,1.06062,7.54128,0.489976,-0.496695,-7.63559e-05,0
2024-12-11 21:17:02.092,-0.162712,1.02233,7.49103,0.455158,-0.463099,-0.0147367,0
2024-12-11 21:17:02.094,-0.16989,0.988834,7.46949,0.390408,-0.386743,-0.0410031,0
2024-12-11 21:17:02.097,-0.179462,0.96012,7.46232,0.358033,-0.345205,-0.0519984,0
2024-12-11 21:17:02.101,-0.208176,0.890728,7.436,0.32688,-0.300613,-0.0617719,0
2024-12-11 21:17:02.101,-0.208176,0.890728,7.436,0.32688,-0.300613,-0.0617719,0
2024-12-11 21:17:02.105,-0.241675,0.85005,7.4001,0.258465,-0.19738,-0.081319,0
2024-12-11 21:17:02.106,-0.241675,0.85005,7.4001,0.258465,-0.19738,-0.081319,0
2024-12-11 21:17:02.107,-0.263211,0.818644,7.39292,0.226701,-0.141793,-0.0868167,0
2024-12-11 21:17:02.111,-0.313759,0.792323,7.39053,0.166838,-0.0281753,-0.0984228,0
2024-12-11 21:17:02.112,-0.366401,0.766002,7.37617,0.166838,-0.0281753,-0.0984228,0
2024-12-11 21:17:02.115,-0.409472,0.754038,7.34985,0.136906,0.0310769,-0.100255,0
2024-12-11 21:17:02.117,-0.462114,0.74686,7.32593,0.111861,0.0897182,-0.100255,0
2024-12-11 21:17:02.119,-0.533899,0.737288,7.31875,0.0843733,0.150192,-0.100866,0
2024-12-11 21:17:02.122,-0.624826,0.73011,7.31157,0.0611611,0.207001,-0.0984228,0
2024-12-11 21:17:02.124,-0.722932,0.727717,7.31157,0.0391706,0.261366,-0.0947577,0
2024-12-11 21:17:02.129,-0.811466,0.737288,7.33071,0.0019089,0.364599,-0.081319,0
2024-12-11 21:17:02.129,-0.897907,0.742074,7.33071,0.0019089,0.364599,-0.081319,0
2024-12-11 21:17:02.132,-0.986441,0.74686,7.31157,-0.0280226,0.459892,-0.0581068,0
2024-12-11 21:17:02.133,-1.08215,0.751645,7.31157,-0.0280226,0.459892,-0.0581068,0
2024-12-11 21:17:02.136,-1.1683,0.766002,7.30439,-0.0377962,0.503873,-0.0440574,0
2024-12-11 21:17:02.138,-1.2329,0.785145,7.26371,-0.0469589,0.543578,-0.0306187,0
2024-12-11 21:17:02.140,-1.32144,0.816252,7.23261,-0.0524565,0.578396,-0.0147367,0
2024-12-11 21:17:02.144,-1.40279,0.852443,7.22064,-0.0548999,0.612603,0.00358873,0
2024-12-11 21:17:02.145,-1.47009,0.890728,7.18236,-0.058565,0.640092,0.0206925,0
2024-12-11 21:17:02.148,-1.5658,0.933799,7.12732,-0.0591758,0.665747,0.0420721,0
2024-12-11 21:17:02.150,-1.65194,0.97687,7.08904,-0.0591758,0.685905,0.0616192,0
2024-12-11 21:17:02.153,-1.72373,1.02473,7.05793,-0.050624,0.709728,0.108044,0
2024-12-11 21:17:02.155,-1.78594,1.0654,7.02443,-0.050624,0.709728,0.108044,0
2024-12-11 21:17:02.157,-1.84337,1.10369,6.98345,-0.0451263,0.712172,0.131867,0
2024-12-11 21:17:02.159,-1.9008,1.14676,6.95235,-0.0402396,0.710339,0.155079,0
2024-12-11 21:17:02.163,-1.92712,1.19462,6.91885,-0.0188599,0.687738,0.204557,0
2024-12-11 21:17:02.164,-1.93669,1.23051,6.87099,-0.0188599,0.687738,0.204557,0
2024-12-11 21:17:02.166,-1.93669,1.2664,6.80399,-0.00908635,0.668191,0.228381,0
2024-12-11 21:17:02.169,-1.91755,1.30229,6.75613,0.00129805,0.643757,0.250982,0
2024-12-11 21:17:02.172,-1.89123,1.34536,6.71785,0.0220669,0.583283,0.298017,0
2024-12-11 21:17:02.173,-1.84816,1.41266,6.68914,0.0220669,0.583283,0.298017,0
2024-12-11 21:17:02.176,-1.79551,1.47009,6.6676,0.0330621,0.549075,0.317564,0
2024-12-11 21:17:02.178,-1.75005,1.48923,6.61735,0.0458899,0.513646,0.337111,0
2024-12-11 21:17:02.180,-1.72373,1.51316,6.59342,0.0581068,0.473941,0.353604,0
2024-12-11 21:17:02.183,-1.68305,1.55384,6.60299,0.0721563,0.434236,0.370097,0
2024-12-11 21:17:02.185,-1.61605,1.60409,6.6006,0.085595,0.39392,0.389644,0
2024-12-11 21:17:02.188,-1.52034,1.66152,6.6006,0.0990336,0.352993,0.405526,0
2024-12-11 21:17:02.190,-1.42941,1.71655,6.59103,0.117359,0.313899,0.418965,0
2024-12-11 21:17:02.192,-1.37169,1.77398,6.57907,0.133241,0.275416,0.431793,0
2024-12-11 21:17:02.196,-1.31904,1.84098,6.55514,0.166227,0.210055,0.454394,0
2024-12-11 21:17:02.197,-1.2329,1.88644,6.5336,0.166227,0.210055,0.454394,0
2024-12-11 21:17:02.199,-1.14437,1.91276,6.50967,0.185163,0.17768,0.463557,0
2024-12-11 21:17:02.204,-0.988834,1.98485,6.44955,0.213873,0.122704,0.479439,0
2024-12-11 21:17:02.204,-0.988834,1.98485,6.44955,0.213873,0.122704,0.479439,0
2024-12-11 21:17:02.206,-0.912264,2.05424,6.4352,0.228533,0.0927724,0.483104,0
2024-12-11 21:17:02.209,-0.85005,2.10927,6.41127,0.241972,0.0671168,0.488601,0
2024-12-11 21:17:02.211,-0.777966,2.16909,6.38973,0.252967,0.046348,0.491045,0
2024-12-11 21:17:02.213,-0.701396,2.2337,6.36341,0.265795,0.0261901,0.492267,0
2024-12-11 21:17:02.216,-0.615255,2.29113,6.32991,0.274958,0.00725381,0.493488,0
2024-12-11 21:17:02.218,-0.52672,2.34856,6.3012,0.285953,-0.00679568,0.491045,0
2024-12-11 21:17:02.220,-0.442971,2.40359,6.26291,0.292672,-0.0177909,0.48738,0
2024-12-11 21:17:02.223,-0.35683,2.4658,6.21506,0.296337,-0.029397,0.481882,0
2024-12-11 21:17:02.225,-0.272782,2.53789,6.17917,0.300613,-0.037338,0.475163,0
2024-12-11 21:17:02.229,-0.205783,2.60489,6.14806,0.302446,-0.0465007,0.453783,0
2024-12-11 21:17:02.230,-0.148355,2.65753,6.11456,0.302446,-0.0465007,0.453783,0
2024-12-11 21:17:02.232,-0.0981057,2.72213,6.07867,0.298781,-0.0483333,0.440345,0
2024-12-11 21:17:02.235,-0.0646062,2.78196,6.05474,0.296948,-0.0471116,0.427517,0
2024-12-11 21:17:02.238,-0.0454636,2.82503,6.04277,0.289007,-0.0410031,0.397585,0
2024-12-11 21:17:02.240,-0.0191426,2.87767,6.02124,0.284731,-0.037338,0.383536,0
2024-12-11 21:17:02.242,0.0215354,2.92552,5.9997,0.284731,-0.037338,0.383536,0
2024-12-11 21:17:02.244,0.0550349,2.9662,5.98056,0.27679,-0.0318404,0.367043,0
2024-12-11 21:17:02.246,0.081356,3.00688,5.98774,0.26946,-0.0251211,0.351161,0
2024-12-11 21:17:02.249,0.122034,3.04038,6.00927,0.262741,-0.0220669,0.335279,0
2024-12-11 21:17:02.252,0.162712,3.06909,6.02602,0.255411,-0.0159584,0.317564,0
2024-12-11 21:17:02.253,0.191426,3.10289,6.0356,0.246859,-0.00984991,0.298628,0
2024-12-11 21:17:02.256,0.215354,3.14836,6.02842,0.238307,-0.00313059,0.279692,0
2024-12-11 21:17:02.259,0.236889,3.19143,6.02602,0.230977,0.00786466,0.261977,0
2024-12-11 21:17:02.260,0.246461,3.23211,6.02842,0.221814,0.0182491,0.241819,0
2024-12-11 21:17:02.265,0.246461,3.29432,6.0021,0.199823,0.0432938,0.203947,0
2024-12-11 21:17:02.265,0.246461,3.29432,6.0021,0.199823,0.0432938,0.203947,0
2024-12-11 21:17:02.268,0.232104,3.33021,6.00449,0.186385,0.0548999,0.186232,0
2024-12-11 21:17:02.270,0.193819,3.37567,6.00449,0.173557,0.0652843,0.169128,0
2024-12-11 21:17:02.272,0.160319,3.42592,5.99253,0.160118,0.0768904,0.152635,0
2024-12-11 21:17:02.275,0.136391,3.48814,5.97578,0.143015,0.0848314,0.136143,0
2024-12-11 21:17:02.277,0.0885344,3.55035,5.9662,0.124689,0.0878856,0.120261,0
2024-12-11 21:17:02.279,0.0574277,3.61256,5.97338,0.10331,0.0933833,0.104379,0
2024-12-11 21:17:02.282,0.0382852,3.68943,6.00449,0.0819299,0.0976592,0.0897182,0
2024-12-11 21:17:02.284,0.00478565,3.76122,6.04277,0.0617719,0.101324,0.0768904,0
2024-12-11 21:17:02.286,-0.040678,3.83061,6.09781,0.037338,0.101324,0.0646735,0
2024-12-11 21:17:02.289,-0.0933201,3.9,6.16481,0.0159584,0.1056,0.0518457,0
2024-12-11 21:17:02.292,-0.145962,3.97657,6.24138,-0.00358873,0.111709,0.0390179,0
2024-12-11 21:17:02.293,-0.174676,4.05075,6.32991,-0.0255792,0.114152,0.030466,0
2024-12-11 21:17:02.296,-0.20339,4.11296,6.43041,-0.0445155,0.114152,0.0206925,0
2024-12-11 21:17:02.299,-0.236889,4.17518,6.52403,-0.0603975,0.11293,0.00908635,0
2024-12-11 21:17:02.301,-0.272782,4.23769,6.60539,-0.0793338,0.111709,-0.0019089,0
2024-12-11 21:17:02.303,-0.313759,4.31905,6.68914,-0.0939941,0.110487,-0.0110716,0
2024-12-11 21:17:02.305,-0.344866,4.4004,6.79442,-0.108654,0.104989,-0.021456,0
2024-12-11 21:17:02.308,-0.395115,4.48894,6.90928,-0.123926,0.094605,-0.033673,0
2024-12-11 21:17:02.311,-0.445364,4.57268,7.01217,-0.142251,0.0878856,-0.0440574,0
2024-12-11 21:17:02.312,-0.474078,4.64447,7.11057,-0.153246,0.0756687,-0.0550526,0
2024-12-11 21:17:02.315,-0.498006,4.72582,7.19911,-0.17035,0.0616192,-0.0666587,0
2024-12-11 21:17:02.317,-0.521934,4.79791,7.28286,-0.187454,0.0475697,-0.0770431,0
2024-12-11 21:17:02.319,-0.536291,4.86491,7.37378,-0.203947,0.0335202,-0.0880384,0
2024-12-11 21:17:02.323,-0.56022,4.94866,7.4336,-0.238765,-0.000687203,-0.111861,0
2024-12-11 21:17:02.325,-0.586541,5.01087,7.51735,-0.238765,-0.000687203,-0.111861,0
2024-12-11 21:17:02.327,-0.610469,5.05633,7.62293,-0.258923,-0.0159584,-0.121635,0
2024-12-11 21:17:02.329,-0.627219,5.11137,7.71386,-0.279081,-0.0342838,-0.130187,0
2024-12-11 21:17:02.331,-0.632004,5.16162,7.82632,-0.30046,-0.0526092,-0.13996,0
2024-12-11 21:17:02.334,-0.629611,5.20947,7.94836,-0.322451,-0.0691021,-0.150345,0
2024-12-11 21:17:02.336,-0.612862,5.24537,8.07279,-0.343831,-0.0868167,-0.160118,0
2024-12-11 21:17:02.338,-0.608076,5.25733,8.20708,-0.367043,-0.10331,-0.168059,0
2024-12-11 21:17:02.341,-0.596112,5.2669,8.34587,-0.387812,-0.11797,-0.178444,0
2024-12-11 21:17:02.343,-0.562612,5.25494,8.49183,-0.40797,-0.13263,-0.187606,0
2024-12-11 21:17:02.346,-0.52672,5.24776,8.6665,-0.446453,-0.16134,-0.208986,0
2024-12-11 21:17:02.348,-0.478864,5.23819,8.86302,-0.446453,-0.16134,-0.208986,0
2024-12-11 21:17:02.351,-0.447757,5.21905,9.05205,-0.48005,-0.196158,-0.229144,0
2024-12-11 21:17:02.352,-0.407079,5.19512,9.24108,-0.48005,-0.196158,-0.229144,0
2024-12-11 21:17:02.355,-0.361615,5.17597,9.42563,-0.495932,-0.213873,-0.239528,0
2024-12-11 21:17:02.357,-0.335294,5.16401,9.6027,-0.512424,-0.229144,-0.250524,0
2024-12-11 21:17:02.359,-0.311366,5.14965,9.77498,-0.522809,-0.240139,-0.260908,0
2024-12-11 21:17:02.362,-0.285045,5.12812,9.9356,-0.534415,-0.251745,-0.26946,0
2024-12-11 21:17:02.364,-0.251246,5.1018,10.0887,-0.54541,-0.259076,-0.278012,0
2024-12-11 21:17:02.366,-0.227318,5.07308,10.2371,-0.555184,-0.263352,-0.287785,0
2024-12-11 21:17:02.370,-0.22014,5.04676,10.3881,-0.577785,-0.278623,-0.301224,0
2024-12-11 21:17:02.371,-0.22014,5.02523,10.5413,-0.577785,-0.278623,-0.301224,0
2024-12-11 21:17:02.374,-0.236889,4.99173,10.6849,-0.590002,-0.287785,-0.306722,0
2024-12-11 21:17:02.376,-0.27996,4.97258,10.8308,-0.603441,-0.297559,-0.31283,0
2024-12-11 21:17:02.378,-0.342473,4.9678,11.001,-0.613214,-0.307333,-0.316495,0
2024-12-11 21:17:02.382,-0.385544,4.95105,11.1852,-0.635816,-0.335431,-0.318939,0
2024-12-11 21:17:02.383,-0.426222,4.94866,11.3767,-0.635816,-0.335431,-0.318939,0
2024-12-11 21:17:02.386,-0.471685,4.94866,11.5684,-0.645589,-0.345816,-0.318939,0
2024-12-11 21:17:02.388,-0.514756,4.94148,11.7622,-0.65353,-0.358033,-0.314663,0
2024-12-11 21:17:02.390,-0.538684,4.93191,11.9513,-0.662082,-0.37025,-0.309165,0
2024-12-11 21:17:02.392,-0.565005,4.92473,12.1597,-0.665747,-0.37758,-0.306111,0
2024-12-11 21:17:02.396,-0.596112,4.90559,12.3727,-0.670023,-0.395905,-0.289618,0
2024-12-11 21:17:02.398,-0.622433,4.89362,12.5737,-0.668801,-0.403236,-0.282288,0
2024-12-11 21:17:02.399,-0.648754,4.88405,12.7917,-0.668801,-0.403236,-0.282288,0
2024-12-11 21:17:02.402,-0.677468,4.85055,13.0358,-0.665136,-0.407511,-0.274347,0
2024-12-11 21:17:02.405,-0.706182,4.83141,13.273,-0.656584,-0.413009,-0.261519,0
2024-12-11 21:17:02.409,-0.787538,4.79791,13.7276,-0.635205,-0.422783,-0.235253,0
2024-12-11 21:17:02.409,-0.787538,4.79791,13.7276,-0.635205,-0.422783,-0.235253,0
2024-12-11 21:17:02.412,-0.85005,4.80748,13.9887,-0.618712,-0.427059,-0.217538,0
2024-12-11 21:17:02.414,-0.914656,4.81944,14.2304,-0.596111,-0.427059,-0.196769,0
2024-12-11 21:17:02.416,-0.979263,4.85055,14.4461,-0.571066,-0.425837,-0.176611,0
2024-12-11 21:17:02.418,-1.06301,4.92712,14.6351,-0.541745,-0.423394,-0.153399,0
2024-12-11 21:17:02.422,-1.18265,5.0324,14.8193,-0.511203,-0.412398,-0.1253,0
2024-12-11 21:17:02.424,-1.27358,5.15205,14.9704,-0.431182,-0.373304,-0.0636045,0
2024-12-11 21:17:02.425,-1.33101,5.3004,15.0829,-0.431182,-0.373304,-0.0636045,0
2024-12-11 21:17:02.428,-1.35733,5.44666,15.1523,-0.39392,-0.350703,-0.0318404,0
2024-12-11 21:17:02.431,-1.3334,5.55913,15.1666,-0.311456,-0.318328,0.0286335,0
2024-12-11 21:17:02.432,-1.29272,5.65245,15.1379,-0.311456,-0.318328,0.0286335,0
2024-12-11 21:17:02.435,-1.23769,5.71944,15.0637,-0.277859,-0.321382,0.0487914,1
2024-12-11 21:17:02.437,-1.15633,5.76012,14.9417,-0.248538,-0.334821,0.0677277,0
2024-12-11 21:17:02.439,-1.04626,5.78644,14.8002,-0.227159,-0.364752,0.0799446,0
2024-12-11 21:17:02.442,-0.907478,5.78644,14.683,-0.215553,-0.405068,0.0848314,0
2024-12-11 21:17:02.444,-0.751645,5.78405,14.5801,-0.207001,-0.455158,0.082388,0
2024-12-11 21:17:02.447,-0.591326,5.78166,14.4724,-0.207001,-0.511966,0.0726145,0
2024-12-11 21:17:02.449,-0.426222,5.77926,14.3862,-0.208833,-0.573051,0.0603975,0
2024-12-11 21:17:02.452,-0.258425,5.76969,14.3192,-0.229602,-0.68728,0.0188599,0
2024-12-11 21:17:02.454,-0.105284,5.75773,14.2783,-0.229602,-0.68728,0.0188599,0
2024-12-11 21:17:02.457,0.026321,5.74577,14.2831,-0.254647,-0.771576,-0.0312296,0
2024-12-11 21:17:02.459,0.160319,5.70748,14.3216,-0.254647,-0.771576,-0.0312296,0
2024-12-11 21:17:02.461,0.299402,5.64287,14.3815,-0.254647,-0.771576,-0.0312296,0
2024-12-11 21:17:02.463,0.423829,5.56391,14.458,-0.277859,-0.822888,-0.0904818,0
2024-12-11 21:17:02.466,0.553041,5.45145,14.5346,-0.286411,-0.831439,-0.120413,0
2024-12-11 21:17:02.468,0.689432,5.29322,14.6255,-0.29313,-0.830218,-0.149123,0
2024-12-11 21:17:02.470,0.813859,5.13051,14.7165,-0.298017,-0.816168,-0.180276,0
2024-12-11 21:17:02.472,0.912264,4.95823,14.7954,-0.299239,-0.793567,-0.210819,0
2024-12-11 21:17:02.475,0.97687,4.79073,14.8696,-0.298628,-0.759359,-0.239528,0
2024-12-11 21:17:02.478,1.01276,4.64925,14.913,-0.299239,-0.715379,-0.266406,0
2024-12-11 21:17:02.482,1.04148,4.52004,14.98,-0.279692,-0.595652,-0.318939,0
2024-12-11 21:17:02.482,1.05344,4.39322,14.98,-0.279692,-0.595652,-0.318939,0
2024-12-11 21:17:02.487,0.950549,4.18475,15.0446,-0.247928,-0.452714,-0.361087,0
2024-12-11 21:17:02.487,0.950549,4.18475,15.0446,-0.247928,-0.452714,-0.361087,0
2024-12-11 21:17:02.490,0.854836,4.06989,15.0661,-0.199671,-0.29817,-0.395905,0
2024-12-11 21:17:02.492,0.734896,3.95264,15.0757,-0.199671,-0.29817,-0.395905,0
2024-12-11 21:17:02.496,0.481256,3.70379,15.023,-0.137364,-0.149734,-0.416674,0
2024-12-11 21:17:02.496,0.481256,3.70379,15.023,-0.137364,-0.149734,-0.416674,0
2024-12-11 21:17:02.501,0.34008,3.41875,14.9106,-0.058565,-0.0159584,-0.42828,0
2024-12-11 21:17:02.501,0.20339,3.41875,14.9106,-0.058565,-0.0159584,-0.42828,0
2024-12-11 21:17:02.504,0.0430708,3.30868,14.8313,-0.0170274,0.0457372,-0.427669,0
2024-12-11 21:17:02.505,-0.129212,3.21775,14.7332,0.0318404,0.1056,-0.430724,0
2024-12-11 21:17:02.508,-0.320937,3.11246,14.6231,0.0807082,0.156911,-0.426448,0
2024-12-11 21:17:02.511,-0.52672,3.01406,14.5035,0.188828,0.258923,-0.409955,0
2024-12-11 21:17:02.514,-0.715753,2.93988,14.3551,0.245026,0.301682,-0.396516,0
2024-12-11 21:17:02.516,-0.909871,2.88724,14.185,0.309165,0.344442,-0.378191,0
2024-12-11 21:17:02.518,-1.11326,2.82742,14.0031,0.309165,0.344442,-0.378191,0
2024-12-11 21:17:02.520,-1.2999,2.77717,13.8045,0.369639,0.381703,-0.3562,0
2024-12-11 21:17:02.523,-1.44855,2.74367,13.5673,0.497917,0.446453,-0.306111,0
2024-12-11 21:17:02.525,-1.58016,2.71974,13.3017,0.497917,0.446453,-0.306111,0
2024-12-11 21:17:02.528,-1.70937,2.69342,13.019,0.621919,0.491045,-0.248691,0
2024-12-11 21:17:02.530,-1.8003,2.65274,12.7104,0.621919,0.491045,-0.248691,0
2024-12-11 21:17:02.531,-1.87687,2.6001,12.3823,0.679949,0.50204,-0.219371,0
2024-12-11 21:17:02.534,-1.95823,2.56899,12.0326,0.730039,0.503262,-0.190661,0
2024-12-11 21:17:02.537,-2.02552,2.55703,11.6713,0.783183,0.501429,-0.160729,0
2024-12-11 21:17:02.538,-2.11406,2.54746,11.3121,0.825331,0.483715,-0.133241,0
2024-12-11 21:17:02.541,-2.2002,2.55224,10.9361,0.863204,0.461113,-0.105753,0
2024-12-11 21:17:02.544,-2.25045,2.55464,10.5509,0.91818,0.379871,-0.0532201,0
2024-12-11 21:17:02.545,-2.27916,2.55942,10.1749,0.91818,0.379871,-0.0532201,0
2024-12-11 21:17:02.549,-2.29831,2.57857,9.82314,0.942614,0.261366,-0.00618483,0
2024-12-11 21:17:02.551,-2.30788,2.59771,9.48545,0.942614,0.261366,-0.00618483,0
2024-12-11 21:17:02.553,-2.32223,2.61924,9.18365,0.945668,0.195395,0.0127514,0
2024-12-11 21:17:02.555,-2.31266,2.64556,8.90609,0.938949,0.122093,0.0335202,0
2024-12-11 21:17:02.558,-2.27438,2.67428,8.64497,0.913904,-0.0263428,0.0646735,0
2024-12-11 21:17:02.560,-2.23131,2.69581,8.4344,0.913904,-0.0263428,0.0646735,0
2024-12-11 21:17:02.562,-2.18345,2.72453,8.26212,0.888859,-0.101477,0.0756687,0
2024-12-11 21:17:02.564,-2.12124,2.74846,8.11586,0.864425,-0.170503,0.0872748,0
2024-12-11 21:17:02.567,-2.03031,2.76042,8.00818,0.835715,-0.240139,0.0964375,0
2024-12-11 21:17:02.569,-1.9343,2.7676,7.92443,0.803951,-0.300002,0.104379,0
2024-12-11 21:17:02.571,-1.82662,2.78196,7.87897,0.772798,-0.34887,0.109265,0
2024-12-11 21:17:02.576,-1.58255,2.75803,7.89572,0.704994,-0.428891,0.113541,0
2024-12-11 21:17:02.578,-1.44377,2.72931,7.94597,0.67323,-0.453325,0.109265,0
2024-12-11 21:17:02.578,-1.44377,2.72931,7.94597,0.67323,-0.453325,0.109265,0
2024-12-11 21:17:02.581,-1.29751,2.69103,7.98186,0.639023,-0.469818,0.109876,0
2024-12-11 21:17:02.583,-1.15872,2.64796,8.02732,0.602983,-0.479591,0.107433,0
2024-12-11 21:17:02.586,-1.01037,2.59532,8.07279,0.569997,-0.478981,0.103157,0
2024-12-11 21:17:02.589,-0.869193,2.53071,8.12303,0.500971,-0.460044,0.0927724,0
2024-12-11 21:17:02.591,-0.71336,2.47298,8.18794,0.466153,-0.441719,0.082388,0
2024-12-11 21:17:02.595,-0.371187,2.32463,8.21665,0.427059,-0.42095,0.0707819,0
2024-12-11 21:17:02.595,-0.371187,2.32463,8.21665,0.427059,-0.42095,0.0707819,0
2024-12-11 21:17:02.598,-0.208176,2.26481,8.22862,0.389186,-0.39957,0.0567324,0
2024-12-11 21:17:02.600,-0.0598206,2.2002,8.24776,0.347648,-0.375747,0.0420721,0
2024-12-11 21:17:02.602,0.0861416,2.1332,8.25972,0.307333,-0.348259,0.0261901,0
2024-12-11 21:17:02.605,0.22014,2.04706,8.27647,0.263962,-0.318939,0.00725381,0
2024-12-11 21:17:02.607,0.328116,1.97528,8.32672,0.219371,-0.286564,-0.0122933,0
2024-12-11 21:17:02.609,0.3999,1.92951,8.38894,0.174779,-0.250524,-0.0312296,0
2024-12-11 21:17:02.611,0.45015,1.86969,8.44636,0.132019,-0.213262,-0.049555,0
2024-12-11 21:17:02.615,0.481256,1.80748,8.50858,0.0471116,-0.130798,-0.081319,0
2024-12-11 21:17:02.617,0.478864,1.75005,8.6019,0.0110716,-0.0868167,-0.093536,0
2024-12-11 21:17:02.618,0.457328,1.67827,8.70987,0.0110716,-0.0868167,-0.093536,0
2024-12-11 21:17:02.623,0.390329,1.54427,8.9013,-0.0548999,0.00725381,-0.114305,0
2024-12-11 21:17:02.623,0.390329,1.54427,8.9013,-0.0548999,0.00725381,-0.114305,0
2024-12-11 21:17:02.626,0.328116,1.4677,8.97308,-0.0805555,0.0603975,-0.121024,0
2024-12-11 21:17:02.629,0.258425,1.39083,9.0353,-0.103157,0.111098,-0.124078,0
2024-12-11 21:17:02.633,0.081356,1.25204,9.17169,-0.139808,0.218607,-0.125911,0
2024-12-11 21:17:02.634,0.081356,1.25204,9.17169,-0.153857,0.270529,-0.121635,0
2024-12-11 21:17:02.635,-0.0311067,1.20658,9.20758,-0.153857,0.270529,-0.121635,0
2024-12-11 21:17:02.637,-0.167498,1.15633,9.20997,-0.16302,0.32184,-0.115526,0
2024-12-11 21:17:02.640,-0.313759,1.11805,9.22194,-0.173404,0.37193,-0.105142,0
2024-12-11 21:17:02.642,-0.459721,1.09173,9.2363,-0.174015,0.420187,-0.0923143,0
2024-12-11 21:17:02.644,-0.612862,1.07258,9.26052,-0.175237,0.467222,-0.0727672,0
2024-12-11 21:17:02.648,-0.787538,1.07976,9.29642,-0.175848,0.506927,-0.0532201,0
2024-12-11 21:17:02.649,-0.972084,1.10608,9.32274,-0.169739,0.543578,-0.0269536,0
2024-12-11 21:17:02.651,-1.11805,1.13001,9.33231,-0.158133,0.574731,-0.000687203,0
2024-12-11 21:17:02.656,-1.3669,1.17308,9.35145,-0.128812,0.622988,0.0652843,0
2024-12-11 21:17:02.657,-1.3669,1.17308,9.35145,-0.128812,0.622988,0.0652843,0
2024-12-11 21:17:02.661,-1.57059,1.22333,9.32513,-0.0836097,0.66025,0.134921,0
2024-12-11 21:17:02.661,-1.57059,1.22333,9.32513,-0.0836097,0.66025,0.134921,0
2024-12-11 21:17:02.666,-1.69502,1.25444,9.2339,-0.0274118,0.681629,0.20639,0
2024-12-11 21:17:02.667,-1.69502,1.25444,9.2339,0.00435229,0.682851,0.241208,0
2024-12-11 21:17:02.668,-1.75244,1.28315,9.16451,0.00435229,0.682851,0.241208,0
2024-12-11 21:17:02.671,-1.80748,1.30708,9.0999,0.0379489,0.683462,0.277248,0
2024-12-11 21:17:02.673,-1.86969,1.34776,9.01855,0.0739889,0.677964,0.310234,0
2024-12-11 21:17:02.677,-1.9657,1.44855,8.83669,0.145458,0.655363,0.374984,0
2024-12-11 21:17:02.678,-1.9657,1.44855,8.83669,0.145458,0.655363,0.374984,0
2024-12-11 21:17:02.681,-2.01117,1.47488,8.74098,0.220592,0.618712,0.442788,0
2024-12-11 21:17:02.682,-2.04706,1.52034,8.63779,0.220592,0.618712,0.442788,0
2024-12-11 21:17:02.684,-2.07817,1.57298,8.52293,0.260297,0.599165,0.474552,0
2024-12-11 21:17:02.688,-2.09013,1.61127,8.38894,0.334821,0.554573,0.534415,0
2024-12-11 21:17:02.689,-2.0686,1.65194,8.24537,0.334821,0.554573,0.534415,0
2024-12-11 21:17:02.694,-2.03988,1.69741,7.98186,0.37025,0.528917,0.591224,0
2024-12-11 21:17:02.696,-2.03031,1.73091,7.83829,0.437443,0.478217,0.61749,0
2024-12-11 21:17:02.696,-2.03031,1.73091,7.83829,0.437443,0.478217,0.61749,0
2024-12-11 21:17:02.699,-2.00877,1.76919,7.68993,0.470429,0.45134,0.644368,0
2024-12-11 21:17:02.701,-1.98245,1.8003,7.55085,0.500971,0.425073,0.668191,0
2024-12-11 21:17:02.703,-1.94387,1.83141,7.40489,0.529681,0.398807,0.691403,0
2024-12-11 21:17:02.706,-1.88883,1.86251,7.26611,0.554115,0.37193,0.714615,0
2024-12-11 21:17:02.708,-1.84098,1.90798,7.13689,0.580381,0.347496,0.734773,0
2024-12-11 21:17:02.710,-1.79551,1.95105,7.00499,0.602983,0.323673,0.755618,0
2024-12-11 21:17:02.713,-1.74287,1.98245,6.87099,0.626195,0.301682,0.772722,0
2024-12-11 21:17:02.716,-1.69023,2.01835,6.75853,0.666511,0.25709,0.803875,0
2024-12-11 21:17:02.717,-1.64955,2.04706,6.65803,0.666511,0.25709,0.803875,0
2024-12-11 21:17:02.722,-1.5658,2.11406,6.48335,0.700718,0.212498,0.828309,0
2024-12-11 21:17:02.723,-1.5658,2.11406,6.48335,0.715989,0.194784,0.838693,0
2024-12-11 21:17:02.725,-1.52034,2.15474,6.39213,0.715989,0.194784,0.838693,0
2024-12-11 21:17:02.727,-1.47488,2.18584,6.29402,0.731261,0.174015,0.849078,0
2024-12-11 21:17:02.730,-1.42702,2.22652,6.18634,0.758138,0.144694,0.859462,0
2024-12-11 21:17:02.732,-1.37886,2.27677,6.07867,0.758138,0.144694,0.859462,0
2024-12-11 21:17:02.736,-1.32622,2.36291,5.82951,0.771576,0.123315,0.86496,0
2024-12-11 21:17:02.739,-1.29512,2.4323,5.71227,0.77402,0.116595,0.865571,0
2024-12-11 21:17:02.740,-1.29512,2.4323,5.71227,0.77402,0.114152,0.86496,0
2024-12-11 21:17:02.742,-1.2664,2.50648,5.58066,0.771576,0.111709,0.863127,0
2024-12-11 21:17:02.743,-1.25204,2.57378,5.4682,0.771576,0.111709,0.863127,0
2024-12-11 21:17:02.747,-1.24726,2.64317,5.37009,0.757527,0.111709,0.857019,0
2024-12-11 21:17:02.748,-1.24247,2.72453,5.27408,0.757527,0.111709,0.857019,0
2024-12-11 21:17:02.750,-1.24965,2.79153,5.18315,0.745921,0.115374,0.857019,0
2024-12-11 21:17:02.755,-1.24965,2.91117,5.03719,0.720876,0.12698,0.847856,0
2024-12-11 21:17:02.755,-1.24965,2.91117,5.03719,0.720876,0.12698,0.847856,0
2024-12-11 21:17:02.757,-1.25204,2.9662,4.96541,0.706216,0.136143,0.842358,0
2024-12-11 21:17:02.760,-1.25922,3.02363,4.89123,0.706216,0.136143,0.842358,0
2024-12-11 21:17:02.762,-1.26879,3.08854,4.84577,0.6659,0.14836,0.830141,0
2024-12-11 21:17:02.765,-1.27358,3.14836,4.8003,0.642688,0.156911,0.820979,0
2024-12-11 21:17:02.768,-1.30229,3.21296,4.74497,0.595652,0.172183,0.802653,0
2024-12-11 21:17:02.769,-1.34297,3.29671,4.69711,0.595652,0.172183,0.802653,0
2024-12-11 21:17:02.772,-1.38126,3.35892,4.64208,0.568164,0.180734,0.79288,0
2024-12-11 21:17:02.774,-1.43181,3.41875,4.61336,0.541287,0.188065,0.784328,0
2024-12-11 21:17:02.776,-1.48684,3.49292,4.60858,0.513188,0.196006,0.775776,0
2024-12-11 21:17:02.779,-1.53709,3.58146,4.59661,0.483257,0.203947,0.764781,0
2024-12-11 21:17:02.782,-1.57298,3.64876,4.58704,0.453936,0.214942,0.755618,0
2024-12-11 21:17:02.783,-1.6017,3.69422,4.5679,0.421561,0.222272,0.745844,0
2024-12-11 21:17:02.786,-1.64716,3.75165,4.53679,0.387354,0.232046,0.734773,0
2024-12-11 21:17:02.789,-1.68305,3.81625,4.51765,0.32016,0.247317,0.711561,0
2024-12-11 21:17:02.790,-1.73091,3.87129,4.50329,0.32016,0.247317,0.711561,0
2024-12-11 21:17:02.793,-1.79312,3.91675,4.49851,0.280455,0.254036,0.698733,0
2024-12-11 21:17:02.795,-1.84576,3.95743,4.51526,0.24075,0.25648,0.684683,0
2024-12-11 21:17:02.798,-1.91037,4.0005,4.54876,0.202878,0.255869,0.671245,0
2024-12-11 21:17:02.801,-1.98963,4.04118,4.59661,0.120413,0.244873,0.640702,0
2024-12-11 21:17:02.802,-2.0686,4.07468,4.67079,0.120413,0.244873,0.640702,0
2024-12-11 21:17:02.805,-2.14756,4.10578,4.76411,0.0782648,0.237543,0.626042,0
2024-12-11 21:17:02.808,-2.26002,4.12014,4.85055,-0.00175619,0.21372,0.593667,0
2024-12-11 21:17:02.810,-2.35573,4.12732,4.97498,-0.00175619,0.21372,0.593667,0
2024-12-11 21:17:02.812,-2.42991,4.11775,5.12573,-0.0390179,0.200282,0.578396,0
2024-12-11 21:17:02.816,-2.60967,4.02682,5.40838,-0.11232,0.17035,0.55213,0
2024-12-11 21:17:02.816,-2.60967,4.02682,5.40838,-0.11232,0.17035,0.55213,0
2024-12-11 21:17:02.819,-2.72931,4.0005,5.5687,-0.146527,0.157522,0.539913,0
2024-12-11 21:17:02.821,-2.86331,3.95264,5.74098,-0.178902,0.144694,0.53075,0
2024-12-11 21:17:02.823,-2.98774,3.87607,5.90878,-0.209444,0.128812,0.521587,0
2024-12-11 21:17:02.826,-3.11486,3.80429,6.07149,-0.241819,0.113541,0.517311,0
2024-12-11 21:17:02.829,-3.24168,3.73011,6.24377,-0.27114,0.0988809,0.513035,0
2024-12-11 21:17:02.830,-3.37089,3.65115,6.42084,-0.299239,0.0829989,0.514868,0
2024-12-11 21:17:02.835,-3.67747,3.47857,6.81356,-0.354215,0.0597867,0.528917,0
2024-12-11 21:17:02.835,-3.67747,3.47857,6.81356,-0.354215,0.0597867,0.528917,0
2024-12-11 21:17:02.838,-3.80907,3.40917,7.02204,-0.37926,0.050624,0.541745,0
2024-12-11 21:17:02.840,-3.92154,3.33739,7.22782,-0.402472,0.0439046,0.557016,0
2024-12-11 21:17:02.842,-4.01725,3.27518,7.44078,-0.402472,0.0439046,0.557016,0
2024-12-11 21:17:02.845,-4.15843,3.201,7.65404,-0.446453,0.0365745,0.597332,0
2024-12-11 21:17:02.848,-4.33579,3.12204,7.86222,-0.48066,0.046348,0.648643,0
2024-12-11 21:17:02.850,-4.48176,3.04995,8.08953,-0.48066,0.046348,0.648643,0
2024-12-11 21:17:02.852,-4.58465,2.99013,8.31715,-0.498375,0.058565,0.681629,0
2024-12-11 21:17:02.855,-4.65643,2.93988,8.55643,-0.522198,0.074447,0.753785,0
2024-12-11 21:17:02.856,-4.73779,2.88724,8.81755,-0.522198,0.074447,0.753785,0
2024-12-11 21:17:02.859,-4.83619,2.84178,9.09033,-0.526474,0.0817772,0.793491,0
2024-12-11 21:17:02.861,-4.9343,2.78435,9.38495,-0.530139,0.0836097,0.836861,0
2024-12-11 21:17:02.863,-5.01805,2.71974,9.67927,-0.528307,0.0909399,0.882674,0
2024-12-11 21:17:02.866,-5.08744,2.65753,9.95474,-0.522809,0.0970484,0.930931,0
2024-12-11 21:17:02.869,-5.1353,2.58574,10.2251,-0.513646,0.103768,0.979799,0
2024-12-11 21:17:02.871,-5.15922,2.51605,10.5006,-0.499597,0.109265,1.03172,0
2024-12-11 21:17:02.874,-5.17358,2.46341,10.7542,-0.48066,0.120261,1.08242,0
2024-12-11 21:17:02.875,-5.18794,2.41316,10.9914,-0.456837,0.134921,1.13557,0
2024-12-11 21:17:02.878,-5.18794,2.35095,11.1972,-0.436679,0.147138,1.18688,0
2024-12-11 21:17:02.881,-5.17119,2.28156,11.3695,-0.409191,0.16302,1.23941,0
2024-12-11 21:17:02.882,-5.13769,2.22413,11.5373,-0.382314,0.178902,1.29194,0
2024-12-11 21:17:02.885,-5.10898,2.17627,11.6737,-0.354826,0.198449,1.34264,0
2024-12-11 21:17:02.887,-5.08505,2.13559,11.7909,-0.326727,0.214942,1.39395,0
2024-12-11 21:17:02.889,-5.07069,2.0997,11.8866,-0.29985,0.235711,1.44465,0
2024-12-11 21:17:02.893,-5.07548,2.0662,11.9632,-0.276027,0.25648,1.49719,0
2024-12-11 21:17:02.895,-5.07308,2.03988,12.0398,-0.233878,0.301682,1.60103,0
2024-12-11 21:17:02.896,-5.07069,2.02552,12.1406,-0.233878,0.301682,1.60103,0
2024-12-11 21:17:02.900,-5.08026,2.0016,12.2435,-0.196006,0.346274,1.7061,0
2024-12-11 21:17:02.902,-5.05873,1.95823,12.3272,-0.180124,0.370708,1.76107,0
2024-12-11 21:17:02.904,-5.05155,1.91755,12.4229,-0.180124,0.370708,1.76107,0
2024-12-11 21:17:02.907,-5.05394,1.87448,12.5402,-0.14164,0.420797,1.86919,0
2024-12-11 21:17:02.908,-5.03958,1.81944,12.6697,-0.14164,0.420797,1.86919,0
2024-12-11 21:17:02.911,-5.02044,1.76441,12.8013,-0.120871,0.445842,1.92173,0
2024-12-11 21:17:02.915,-4.96301,1.67109,13.0717,-0.0756687,0.500208,2.0329,0
2024-12-11 21:17:02.915,-4.96301,1.67109,13.0717,-0.0756687,0.500208,2.0329,0
2024-12-11 21:17:02.918,-4.92951,1.61605,13.1626,-0.0518457,0.531972,2.08727,0
2024-12-11 21:17:02.920,-4.88884,1.57298,13.2443,-0.0219141,0.570455,2.14224,0
2024-12-11 21:17:02.922,-4.86491,1.54188,13.2897,0.00557398,0.608938,2.19905,0
2024-12-11 21:17:02.926,-4.83859,1.52034,13.3041,0.0605502,0.693846,2.31206,0
2024-12-11 21:17:02.927,-4.81705,1.4988,13.2826,0.0605502,0.693846,2.31206,0
2024-12-11 21:17:02.929,-4.81466,1.48205,13.2395,0.0874275,0.737216,2.36887,0
2024-12-11 21:17:02.932,-4.81944,1.47966,13.1892,0.109418,0.778143,2.42567,0
2024-12-11 21:17:02.934,-4.86012,1.50598,13.1172,0.131409,0.819757,2.48371,0
2024-12-11 21:17:02.936,-4.91755,1.55862,13.0214,0.150345,0.85763,2.54112,0
2024-12-11 21:17:02.939,-4.96062,1.62562,12.9018,0.167449,0.896113,2.60221,0
2024-12-11 21:17:02.942,-5.01566,1.71655,12.7678,0.181498,0.933375,2.66329,0
2024-12-11 21:17:02.944,-5.0683,1.82184,12.641,0.196158,0.966971,2.7256,0
2024-12-11 21:17:02.946,-5.10419,1.91755,12.4947,0.204099,0.998124,2.78852,0
2024-12-11 21:17:02.948,-5.1329,2.0327,12.3153,0.207154,1.02256,2.85205,0
2024-12-11 21:17:02.952,-5.15205,2.15234,12.1167,0.205932,1.0531,2.97299,0
2024-12-11 21:17:02.954,-5.12573,2.23609,11.8819,0.191272,1.05249,3.03041,0
2024-12-11 21:17:02.955,-5.05633,2.32941,11.6186,0.191272,1.05249,3.03041,0
2024-12-11 21:17:02.958,-4.95823,2.42034,11.3575,0.168059,1.03539,3.08539,0
2024-12-11 21:17:02.961,-4.82662,2.49212,11.1254,0.0984228,0.963306,3.17579,0
2024-12-11 21:17:02.962,-4.65404,2.56421,10.9217,0.0984228,0.963306,3.17579,0
2024-12-11 21:17:02.965,-4.42911,2.61446,10.7806,0.0477224,0.901611,3.21367,0
2024-12-11 21:17:02.967,-4.17518,2.65753,10.6968,-0.0096972,0.828309,3.24177,0
2024-12-11 21:17:02.969,-3.88804,2.69581,10.6585,-0.074447,0.746379,3.26192,0
2024-12-11 21:17:02.973,-3.55514,2.70778,10.692,-0.144694,0.659639,3.27475,0
2024-12-11 21:17:02.974,-3.20818,2.69581,10.7973,-0.214331,0.575953,3.2833,0
2024-12-11 21:17:02.977,-2.87288,2.64078,10.9675,-0.286411,0.497153,3.28453,0
2024-12-11 21:17:02.979,-2.53549,2.56182,11.2235,-0.354215,0.429349,3.28025,0
2024-12-11 21:17:02.981,-2.19063,2.4658,11.5708,-0.417743,0.371319,3.27414,0
2024-12-11 21:17:02.986,-1.62323,2.27677,12.4301,-0.476995,0.326727,3.26681,0
2024-12-11 21:17:02.987,-1.62323,2.27677,12.4301,-0.560681,0.277248,3.24665,0
2024-12-11 21:17:02.988,-1.3334,2.15234,12.8803,-0.560681,0.277248,3.24665,0
2024-12-11 21:17:02.991,-1.00558,2.00877,13.3328,-0.590002,0.274194,3.23505,0
2024-12-11 21:17:02.993,-0.677468,1.91516,13.7204,-0.61016,0.285189,3.22039,0
2024-12-11 21:17:02.996,-0.368794,1.83141,14.0797,-0.620544,0.312677,3.2045,0
2024-12-11 21:17:02.998,-0.0693919,1.72373,14.4413,-0.625431,0.351161,3.18801,0
2024-12-11 21:17:03.000,0.212961,1.61366,14.7476,-0.62421,0.396364,3.16541,0
2024-12-11 21:17:03.002,0.471685,1.49163,14.9967,-0.618101,0.450729,3.14403,0
2024-12-11 21:17:03.005,0.718146,1.35015,15.1929,-0.606495,0.509981,3.1196,0
2024-12-11 21:17:03.007,0.931406,1.18265,15.3461,-0.593667,0.569844,3.09516,0
2024-12-11 21:17:03.009,1.07258,1.02712,15.5091,-0.580229,0.634594,3.0689,0
2024-12-11 21:17:03.013,1.17547,0.881157,15.6239,-0.535637,0.775089,3.02614,0
2024-12-11 21:17:03.015,1.27119,0.718146,15.679,-0.535637,0.775089,3.02614,0
2024-12-11 21:17:03.017,1.33101,0.562612,15.7101,-0.511203,0.850299,3.0072,0
2024-12-11 21:17:03.019,1.35972,0.414257,15.7101,-0.485547,0.929099,2.98582,0
2024-12-11 21:17:03.021,1.34536,0.282652,15.6694,-0.455616,1.00851,2.97116,1
2024-12-11 21:17:03.024,1.27358,0.179462,15.5928,-0.422019,1.09158,2.96261,0
2024-12-11 21:17:03.026,1.16112,0.0957129,15.4899,-0.392088,1.1716,2.95222,0
2024-12-11 21:17:03.029,1.02233,0.0167498,15.3604,-0.360324,1.24552,2.94917,0
2024-12-11 21:17:03.031,0.862014,-0.0215354,15.224,-0.332225,1.31821,2.95406,0
2024-12-11 21:17:03.033,0.667897,-0.0454636,15.0661,-0.303515,1.38174,2.96139,0
2024-12-11 21:17:03.036,0.462114,-0.0526421,14.889,-0.276027,1.43916,2.97727,0
2024-12-11 21:17:03.038,0.256032,-0.0430708,14.7069,-0.251593,1.48925,3.00109,0
2024-12-11 21:17:03.041,0.0430708,-0.0167498,14.4963,-0.228991,1.53323,3.0298,0
2024-12-11 21:17:03.042,-0.136391,0.0191426,14.2663,-0.20639,1.56927,3.0634,0
2024-12-11 21:17:03.046,-0.287438,0.0454636,14.0438,-0.171572,1.62608,3.13548,0
2024-12-11 21:17:03.048,-0.397508,0.0646062,13.8308,-0.15569,1.64501,3.17518,0
2024-12-11 21:17:03.050,-0.481256,0.0933201,13.6295,-0.15569,1.64501,3.17518,0
2024-12-11 21:17:03.052,-0.531506,0.136391,13.4357,-0.139808,1.65723,3.21061,0
2024-12-11 21:17:03.055,-0.548256,0.162712,13.2443,-0.128202,1.66395,3.24299,0
2024-12-11 21:17:03.057,-0.536291,0.212961,13.0502,-0.11293,1.667,3.27414,0
2024-12-11 21:17:03.059,-0.50997,0.277567,12.8731,-0.0964375,1.667,3.30224,0
2024-12-11 21:17:03.061,-0.474078,0.337687,12.7199,-0.0829989,1.6615,3.32606,0
2024-12-11 21:17:03.065,-0.426222,0.395115,12.5545,-0.0683385,1.65417,3.34805,0
2024-12-11 21:17:03.066,-0.383151,0.440578,12.399,-0.0530674,1.64684,3.36821,0
2024-12-11 21:17:03.068,-0.308973,0.483649,12.2363,-0.0365745,1.63829,3.38165,0
2024-12-11 21:17:03.071,-0.20339,0.538684,12.076,-0.0213033,1.62913,3.39265,0
2024-12-11 21:17:03.073,-0.105284,0.581755,11.9249,-0.00542127,1.61813,3.40242,0
2024-12-11 21:17:03.075,-0.0143569,0.612862,11.7479,0.0116825,1.60775,3.40738,0
2024-12-11 21:17:03.080,0.224925,0.655932,11.3862,0.0410031,1.57904,3.4067,0
2024-12-11 21:17:03.080,0.224925,0.655932,11.3862,0.0410031,1.57904,3.4067,0
2024-12-11 21:17:03.086,0.431007,0.672682,11.0106,0.0752106,1.5259,3.37249,0
2024-12-11 21:17:03.086,0.431007,0.672682,11.0106,0.0752106,1.5259,3.37249,0
2024-12-11 21:17:03.088,0.536291,0.679861,10.8212,0.0837624,1.50207,3.35661,0
2024-12-11 21:17:03.091,0.63679,0.684646,10.6179,0.0898709,1.47764,3.33584,0
2024-12-11 21:17:03.092,0.73011,0.694218,10.424,0.0898709,1.47764,3.33584,0
2024-12-11 21:17:03.094,0.818644,0.701396,10.2275,0.0941468,1.45321,3.3114,0
2024-12-11 21:17:03.097,0.881157,0.694218,10.0433,0.0990336,1.42755,3.28697,0
2024-12-11 21:17:03.100,0.909871,0.691825,9.86381,0.0965902,1.3738,3.23321,0
2024-12-11 21:17:03.101,0.967299,0.694218,9.67927,0.0965902,1.3738,3.23321,0
2024-12-11 21:17:03.105,1.02712,0.701396,9.52134,0.0923143,1.34386,3.20328,0
2024-12-11 21:17:03.106,1.07737,0.696611,9.3682,0.0849841,1.31393,3.17518,0
2024-12-11 21:17:03.108,1.12762,0.667897,9.22912,0.0782648,1.28278,3.14647,0
2024-12-11 21:17:03.111,1.17069,0.639183,9.10948,0.0703238,1.25102,3.11532,0
2024-12-11 21:17:03.114,1.20658,0.615255,8.99941,0.0489441,1.18871,3.05485,0
2024-12-11 21:17:03.115,1.24487,0.596112,8.89651,0.0489441,1.18871,3.05485,0
2024-12-11 21:17:03.118,1.29512,0.565005,8.79123,0.0379489,1.16061,3.0243,0
2024-12-11 21:17:03.121,1.33101,0.519542,8.69761,0.0153475,1.10747,2.962,0
2024-12-11 21:17:03.124,1.3669,0.476471,8.63301,0.00435229,1.08303,2.93023,0
2024-12-11 21:17:03.126,1.39083,0.4334,8.58993,-0.00847551,1.05677,2.9003,0
2024-12-11 21:17:03.127,1.41984,0.383151,8.5349,-0.00847551,1.05677,2.9003,0
2024-12-11 21:17:03.132,1.44855,0.308973,8.4679,-0.0341311,1.0134,2.83677,0
2024-12-11 21:17:03.133,1.4653,0.308973,8.4679,-0.046348,0.993238,2.80806,0
2024-12-11 21:17:03.135,1.4653,0.246461,8.44876,-0.046348,0.993238,2.80806,0
2024-12-11 21:17:03.138,1.4653,0.198604,8.4344,-0.0579541,0.974301,2.77874,0
2024-12-11 21:17:03.140,1.4653,0.162712,8.42244,-0.0811663,0.936429,2.72377,0
2024-12-11 21:17:03.142,1.44377,0.138784,8.42483,-0.0811663,0.936429,2.72377,0
2024-12-11 21:17:03.146,1.38844,0.11007,8.45833,-0.101935,0.909552,2.67368,0
2024-12-11 21:17:03.147,1.38844,0.11007,8.45833,-0.108044,0.899167,2.65108,0
2024-12-11 21:17:03.148,1.35972,0.102891,8.47508,-0.108044,0.899167,2.65108,0
2024-12-11 21:17:03.151,1.34297,0.0885344,8.47508,-0.117206,0.894891,2.6297,0
2024-12-11 21:17:03.156,1.30947,0.0646062,8.51097,-0.12698,0.888783,2.58816,0
2024-12-11 21:17:03.157,1.30947,0.0646062,8.51097,-0.13431,0.886339,2.56678,0
2024-12-11 21:17:03.158,1.28315,0.0574277,8.51815,-0.13431,0.886339,2.56678,0
2024-12-11 21:17:03.161,1.25444,0.0478565,8.54686,-0.137975,0.887561,2.52341,0
2024-12-11 21:17:03.163,1.22094,0.0430708,8.58754,-0.137975,0.887561,2.52341,0
2024-12-11 21:17:03.165,1.17787,0.040678,8.61147,-0.139808,0.885118,2.50447,0
2024-12-11 21:17:03.167,1.12044,0.0311067,8.62822,-0.142251,0.885729,2.48493,0
2024-12-11 21:17:03.170,1.05823,0.0215354,8.6354,-0.139197,0.883896,2.46477,0
2024-12-11 21:17:03.172,1.00798,0.0311067,8.63061,-0.137975,0.880842,2.44583,0
2024-12-11 21:17:03.174,0.94337,0.0358923,8.62343,-0.137364,0.879009,2.42995,0
2024-12-11 21:17:03.177,0.878764,0.0382852,8.58993,-0.134921,0.876566,2.41101,0
2024-12-11 21:17:03.180,0.837787,0.0526421,8.56122,-0.131867,0.866181,2.37986,0
2024-12-11 21:17:03.182,0.789931,0.0526421,8.54208,-0.131867,0.866181,2.37986,0
2024-12-11 21:17:03.185,0.754038,0.0382852,8.52533,-0.132477,0.85091,2.35176,0
2024-12-11 21:17:03.186,0.732503,0.0311067,8.49422,-0.132477,0.85091,2.35176,0
2024-12-11 21:17:03.190,0.722932,0.0430708,8.44158,-0.138586,0.836861,2.32122,0
2024-12-11 21:17:03.191,0.734896,0.0382852,8.4009,-0.138586,0.836861,2.32122,0
2024-12-11 21:17:03.193,0.718146,0.026321,8.38654,-0.144694,0.827698,2.30717,0
2024-12-11 21:17:03.197,0.701396,0.0311067,8.39612,-0.14897,0.82159,2.29312,0
2024-12-11 21:17:03.198,0.689432,0.0574277,8.41287,-0.14897,0.82159,2.29312,0
2024-12-11 21:17:03.200,0.663111,0.0861416,8.42483,-0.158744,0.808151,2.26869,0
2024-12-11 21:17:03.203,0.634397,0.114855,8.42244,-0.163631,0.804486,2.25586,0
2024-12-11 21:17:03.206,0.615255,0.133998,8.44158,-0.172183,0.804486,2.23448,0
2024-12-11 21:17:03.208,0.615255,0.136391,8.47269,-0.172183,0.804486,2.23448,0
2024-12-11 21:17:03.211,0.627219,0.129212,8.50379,-0.180124,0.802653,2.20821,0
2024-12-11 21:17:03.212,0.665504,0.129212,8.5349,-0.180124,0.802653,2.20821,0
2024-12-11 21:17:03.214,0.710967,0.12682,8.54926,-0.1844,0.801432,2.19783,0
2024-12-11 21:17:03.217,0.737288,0.105284,8.55883,-0.190508,0.79769,2.185,0
2024-12-11 21:17:03.219,0.768395,0.105284,8.57079,-0.194173,0.789749,2.16851,0
2024-12-11 21:17:03.221,0.80668,0.102891,8.59472,-0.196616,0.783641,2.15507,0
2024-12-11 21:17:03.225,0.84018,0.102891,8.61147,-0.208223,0.765315,2.12636,0
2024-12-11 21:17:03.226,0.871586,0.114855,8.61625,-0.208223,0.765315,2.12636,0
2024-12-11 21:17:03.229,0.895514,0.117248,8.62583,-0.214331,0.756153,2.11109,0
2024-12-11 21:17:03.231,0.926621,0.117248,8.63061,-0.221661,0.74699,2.09398,0
2024-12-11 21:17:03.233,0.974477,0.12682,8.62583,-0.229602,0.737216,2.07871,0
2024-12-11 21:17:03.236,1.01276,0.148355,8.64258,-0.240597,0.727443,2.06283,0
2024-12-11 21:17:03.238,1.04626,0.177069,8.65933,-0.250982,0.720723,2.04573,0
2024-12-11 21:17:03.240,1.09412,0.217747,8.67129,-0.263199,0.709117,2.02923,0
2024-12-11 21:17:03.244,1.12283,0.256032,8.68565,-0.288854,0.688349,1.99258,0
2024-12-11 21:17:03.246,1.14915,0.292223,8.72423,-0.288854,0.688349,1.99258,0
2024-12-11 21:17:03.247,1.18265,0.328116,8.77927,-0.301071,0.68224,1.97609,0
2024-12-11 21:17:03.250,1.20658,0.364008,8.84148,-0.313899,0.673077,1.9596,0
2024-12-11 21:17:03.252,1.22333,0.390329,8.92523,-0.326727,0.666969,1.937,0
2024-12-11 21:17:03.255,1.23769,0.41665,9.02573,-0.337722,0.659639,1.92173,0
2024-12-11 21:17:03.257,1.24008,0.454935,9.12383,-0.347496,0.649865,1.90279,0
2024-12-11 21:17:03.260,1.24008,0.478864,9.22672,-0.355437,0.643146,1.88507,0
2024-12-11 21:17:03.262,1.25204,0.500399,9.32992,-0.359713,0.633983,1.86858,0
2024-12-11 21:17:03.264,1.24965,0.533899,9.42802,-0.362767,0.627875,1.85026,0
2024-12-11 21:17:03.266,1.23051,0.572184,9.52852,-0.366432,0.621766,1.83071,0
2024-12-11 21:17:03.269,1.21376,0.612862,9.62902,-0.366432,0.616879,1.81116,0
2024-12-11 21:17:03.272,1.19701,0.655932,9.73669,-0.359102,0.607106,1.77512,0
2024-12-11 21:17:03.273,1.2018,0.684646,9.83031,-0.359102,0.607106,1.77512,0
2024-12-11 21:17:03.276,1.2018,0.725324,9.87817,-0.355437,0.603441,1.75863,0
2024-12-11 21:17:03.279,1.18744,0.768395,9.90688,-0.344442,0.60283,1.72198,0
2024-12-11 21:17:03.280,1.17547,0.80668,9.94038,-0.344442,0.60283,1.72198,0
2024-12-11 21:17:03.283,1.1683,0.859622,9.9691,-0.337111,0.601608,1.70304,0
2024-12-11 21:17:03.285,1.1683,0.924228,9.9691,-0.333446,0.60283,1.68411,0
2024-12-11 21:17:03.288,1.16112,0.984048,9.95713,-0.332835,0.603441,1.667,0
2024-12-11 21:17:03.290,1.1348,1.03908,9.96192,-0.32917,0.604662,1.64807,0
2024-12-11 21:17:03.293,1.10369,1.12283,9.9691,-0.327338,0.61749,1.61508,0
2024-12-11 21:17:03.295,1.05823,1.19462,9.98106,-0.327338,0.61749,1.61508,0
2024-12-11 21:17:03.297,1.00558,1.24965,9.99542,-0.327338,0.62421,1.59553,0
2024-12-11 21:17:03.300,0.96012,1.32622,10.0122,-0.324284,0.637648,1.56255,0
2024-12-11 21:17:03.302,0.909871,1.39561,10.0289,-0.324284,0.637648,1.56255,0
2024-12-11 21:17:03.305,0.847657,1.47727,10.0481,-0.318175,0.65353,1.52956,0
2024-12-11 21:17:03.306,0.758824,1.5682,10.0648,-0.318175,0.65353,1.52956,0
2024-12-11 21:17:03.309,0.677468,1.6352,10.0792,-0.31451,0.66086,1.51001,0
2024-12-11 21:17:03.311,0.591326,1.70698,10.084,-0.310845,0.670023,1.49413,0
2024-12-11 21:17:03.316,0.483649,1.79073,10.0505,-0.301682,0.68224,1.4642,0
2024-12-11 21:17:03.316,0.392722,1.85773,10.0505,-0.301682,0.68224,1.4642,0
2024-12-11 21:17:03.320,0.155533,1.99442,10.0074,-0.290687,0.685905,1.43732,0
2024-12-11 21:17:03.323,0.0119641,2.05902,9.97867,-0.288854,0.683462,1.42388,0
2024-12-11 21:17:03.323,0.0119641,2.05902,9.97867,-0.288854,0.683462,1.42388,0
2024-12-11 21:17:03.325,-0.114855,2.11406,9.92363,-0.287022,0.676742,1.41594,0
2024-12-11 21:17:03.327,-0.241675,2.19541,9.89731,-0.284578,0.66758,1.40861,0
2024-12-11 21:17:03.330,-0.387936,2.26241,9.87817,-0.282746,0.657195,1.40189,0
2024-12-11 21:17:03.332,-0.521934,2.31027,9.85185,-0.281524,0.643146,1.39945,0
2024-12-11 21:17:03.336,-0.641576,2.37248,9.84467,-0.277859,0.614436,1.39456,0
2024-12-11 21:17:03.338,-0.76361,2.43948,9.85664,-0.277859,0.614436,1.39456,0
2024-12-11 21:17:03.339,-0.881157,2.4993,9.87817,-0.276027,0.596721,1.39884,0
2024-12-11 21:17:03.344,-0.981655,2.55224,9.90449,-0.27114,0.580839,1.40434,0
2024-12-11 21:17:03.346,-1.14437,2.64556,9.99063,-0.259534,0.549686,1.4135,0
2024-12-11 21:17:03.347,-1.14437,2.64556,9.99063,-0.248538,0.532582,1.41961,0
2024-12-11 21:17:03.350,-1.21137,2.68624,10.0193,-0.238765,0.515479,1.42633,0
2024-12-11 21:17:03.352,-1.27119,2.71496,10.06,-0.238765,0.515479,1.42633,0
2024-12-11 21:17:03.353,-1.32861,2.74128,10.1031,-0.224715,0.500208,1.43488,0
2024-12-11 21:17:03.356,-1.3669,2.78435,10.1222,-0.212498,0.482493,1.44404,0
2024-12-11 21:17:03.359,-1.39322,2.82981,10.1342,-0.181956,0.453783,1.45809,0
2024-12-11 21:17:03.361,-1.40279,2.85853,10.139,-0.181956,0.453783,1.45809,0
2024-12-11 21:17:03.363,-1.40279,2.87288,10.1414,-0.165463,0.440345,1.4642,0
2024-12-11 21:17:03.365,-1.39561,2.8992,10.1246,-0.154468,0.425073,1.4697,0
2024-12-11 21:17:03.368,-1.36211,2.92313,10.0863,-0.139808,0.412246,1.4752,0
2024-12-11 21:17:03.370,-1.31904,2.93988,10.0505,-0.131256,0.399418,1.47947,0
2024-12-11 21:17:03.372,-1.27597,2.96142,10.0361,-0.118428,0.389644,1.48253,0
2024-12-11 21:17:03.375,-1.22333,2.97338,10.0193,-0.110487,0.380481,1.48619,0
2024-12-11 21:17:03.377,-1.16351,2.9686,9.99303,-0.101935,0.371319,1.48497,0
2024-12-11 21:17:03.379,-1.11326,2.97338,9.99063,-0.0976592,0.364599,1.48741,0
2024-12-11 21:17:03.382,-1.07258,2.98295,9.99063,-0.0897182,0.359713,1.48741,0
2024-12-11 21:17:03.384,-1.0319,2.98535,9.99303,-0.0829989,0.355437,1.48558,0
2024-12-11 21:17:03.386,-0.991227,2.98056,10.0146,-0.0811663,0.353604,1.48558,0
2024-12-11 21:17:03.389,-0.962513,2.9662,10.0457,-0.0750579,0.352383,1.48436,0
2024-12-11 21:17:03.392,-0.919442,2.96381,10.0816,-0.0689494,0.355437,1.48253,0
2024-12-11 21:17:03.394,-0.878764,2.98295,10.1246,-0.0689494,0.355437,1.48253,0
2024-12-11 21:17:03.396,-0.862014,2.98535,10.1677,-0.058565,0.368265,1.48008,0
2024-12-11 21:17:03.398,-0.85005,2.97577,10.2012,-0.050624,0.378038,1.47703,0
2024-12-11 21:17:03.400,-0.835394,2.98295,10.2347,-0.0408504,0.390255,1.47459,0
2024-12-11 21:17:03.403,-0.818644,2.97817,10.273,-0.0316877,0.40125,1.47275,0
2024-12-11 21:17:03.405,-0.816252,2.96381,10.3041,-0.0219141,0.4153,1.47214,0
2024-12-11 21:17:03.408,-0.830609,2.95663,10.3137,-0.00603212,0.428738,1.4697,0
2024-12-11 21:17:03.411,-0.847657,2.94227,10.3065,0.00374144,0.438512,1.46787,0
2024-12-11 21:17:03.413,-0.859622,2.92074,10.2921,0.0147367,0.452561,1.46726,0
2024-12-11 21:17:03.415,-0.869193,2.90638,10.2682,0.0287862,0.466,1.46664,0
2024-12-11 21:17:03.417,-0.890728,2.88006,10.2347,0.0410031,0.477606,1.46848,0
2024-12-11 21:17:03.420,-0.919442,2.83938,10.1988,0.0507767,0.48738,1.4697,0
2024-12-11 21:17:03.422,-0.945763,2.80588,10.151,0.0617719,0.495932,1.47275,0
2024-12-11 21:17:03.424,-0.972084,2.78913,10.1055,0.0703238,0.502651,1.47581,0
2024-12-11 21:17:03.426,-0.981655,2.77956,10.0672,0.077654,0.506316,1.48253,0
2024-12-11 21:17:03.429,-0.986441,2.76281,10.0193,0.0868167,0.511203,1.48925,0
2024-12-11 21:17:03.432,-0.99362,2.7676,9.9691,0.0978119,0.511203,1.50513,0
2024-12-11 21:17:03.436,-0.998405,2.79392,9.91167,0.104531,0.508759,1.51307,0
2024-12-11 21:17:03.437,-0.998405,2.79392,9.91167,0.111861,0.50204,1.52223,0
2024-12-11 21:17:03.439,-1.00558,2.81785,9.90449,0.111861,0.50204,1.52223,0
2024-12-11 21:17:03.441,-0.996012,2.82981,9.88535,0.111861,0.50204,1.52223,0
2024-12-11 21:17:03.443,-0.972084,2.84178,9.86621,0.121635,0.481882,1.53995,0
2024-12-11 21:17:03.445,-0.936192,2.8681,9.84706,0.127743,0.467222,1.54422,0
2024-12-11 21:17:03.448,-0.888335,2.90399,9.83988,0.13263,0.445231,1.54728,0
2024-12-11 21:17:03.451,-0.82343,2.9327,9.85664,0.142404,0.39392,1.55033,0
2024-12-11 21:17:03.453,-0.754038,2.97099,9.87338,0.147291,0.363989,1.54728,0
2024-12-11 21:17:03.455,-0.687039,3.00449,9.86621,0.147291,0.363989,1.54728,0
2024-12-11 21:17:03.457,-0.615255,3.03081,9.83988,0.149734,0.330392,1.543,0
2024-12-11 21:17:03.459,-0.531506,3.06192,9.80609,0.15401,0.297406,1.53506,0
2024-12-11 21:17:03.462,-0.438186,3.08106,9.78694,0.15401,0.261977,1.5259,0
2024-12-11 21:17:03.466,-0.217747,3.02842,9.73669,0.146069,0.188065,1.50085,0
2024-12-11 21:17:03.467,-0.217747,3.02842,9.73669,0.146069,0.188065,1.50085,0
2024-12-11 21:17:03.469,-0.0909273,3.00449,9.67927,0.136295,0.149581,1.48253,0
2024-12-11 21:17:03.471,0.0454636,2.95902,9.6362,0.128354,0.106211,1.46359,0
2024-12-11 21:17:03.474,0.198604,2.89203,9.6027,0.110029,0.0616192,1.44221,0
2024-12-11 21:17:03.476,0.349651,2.8346,9.5692,0.0880384,0.014584,1.419,0
2024-12-11 21:17:03.478,0.502792,2.7676,9.56441,0.0623828,-0.0330621,1.39212,0
2024-12-11 21:17:03.482,0.65354,2.68864,9.58355,0.0281753,-0.0788757,1.36769,0
2024-12-11 21:17:03.483,0.818644,2.59771,9.58834,-0.010308,-0.124689,1.34264,0
2024-12-11 21:17:03.486,0.991227,2.52084,9.61705,-0.050624,-0.165616,1.31577,0
2024-12-11 21:17:03.490,1.33101,2.40838,9.77259,-0.14897,-0.21876,1.26018,0
2024-12-11 21:17:03.490,1.33101,2.40838,9.77259,-0.14897,-0.21876,1.26018,0
2024-12-11 21:17:03.492,1.49402,2.35573,9.90928,-0.201503,-0.234642,1.23635,0
2024-12-11 21:17:03.495,1.66152,2.30788,10.0863,-0.254036,-0.239528,1.20887,0
2024-12-11 21:17:03.497,1.82423,2.26959,10.3184,-0.304126,-0.239528,1.18016,0
2024-12-11 21:17:03.499,1.97767,2.23609,10.582,-0.352993,-0.231587,1.15267,0
2024-12-11 21:17:03.502,2.12842,2.19781,10.8595,-0.352993,-0.231587,1.15267,0
2024-12-11 21:17:03.504,2.27438,2.15952,11.1852,-0.442788,-0.179665,1.09464,0
2024-12-11 21:17:03.506,2.41077,2.13559,11.5421,-0.476995,-0.133852,1.06654,0
2024-12-11 21:17:03.510,2.55224,2.14517,11.8986,-0.528307,0.00297788,1.00729,0
2024-12-11 21:17:03.511,2.68864,2.12363,12.265,-0.528307,0.00297788,1.00729,0
2024-12-11 21:17:03.514,2.81306,2.07099,12.612,-0.540523,0.0872748,0.979188,0
2024-12-11 21:17:03.516,2.9351,2.01356,12.9257,-0.543578,0.178902,0.951089,0
2024-12-11 21:17:03.518,3.03559,1.95583,13.2323,-0.541745,0.279081,0.918714,0
2024-12-11 21:17:03.521,3.11007,1.89841,13.4859,-0.532582,0.387812,0.889394,0
2024-12-11 21:17:03.523,3.15793,1.80509,13.6726,-0.513035,0.506316,0.860073,0
2024-12-11 21:17:03.525,3.17707,1.70698,13.8021,-0.48738,0.630929,0.831363,0
2024-12-11 21:17:03.529,3.16032,1.62802,13.8835,-0.420797,0.896113,0.781274,0
2024-12-11 21:17:03.530,3.09811,1.56341,13.9074,-0.420797,0.896113,0.781274,0
2024-12-11 21:17:03.533,2.98774,1.51077,13.8452,-0.382314,1.02745,0.763559,0
2024-12-11 21:17:03.535,2.84178,1.47488,13.7157,-0.345052,1.15694,0.748899,0
2024-12-11 21:17:03.538,2.68864,1.44377,13.5362,-0.269307,1.38846,0.73294,0
2024-12-11 21:17:03.540,2.51127,1.42702,13.3113,-0.269307,1.38846,0.73294,0
2024-12-11 21:17:03.543,2.30788,1.42941,13.0478,-0.233267,1.49169,0.731719,0
2024-12-11 21:17:03.544,2.11406,1.43898,12.763,-0.201503,1.58576,0.736682,0
2024-12-11 21:17:03.547,1.92712,1.4677,12.4588,-0.171572,1.66273,0.746455,0
2024-12-11 21:17:03.549,1.75005,1.50359,12.1502,-0.146527,1.72992,0.760505,0
2024-12-11 21:17:03.552,1.59212,1.54905,11.8436,-0.1056,1.82765,0.790436,0
2024-12-11 21:17:03.554,1.45095,1.6017,11.5229,-0.1056,1.82765,0.790436,0
2024-12-11 21:17:03.557,1.33101,1.63759,11.1996,-0.0762796,1.88691,0.827087,0
2024-12-11 21:17:03.559,1.23051,1.69502,10.9074,-0.0616192,1.89912,0.84358,0
2024-12-11 21:17:03.561,1.12522,1.77637,10.6394,-0.0616192,1.89912,0.84358,0
2024-12-11 21:17:03.563,1.01276,1.85533,10.3687,-0.0518457,1.90157,0.861295,0
2024-12-11 21:17:03.566,0.933799,1.90798,10.0935,-0.0439046,1.89729,0.882063,0
2024-12-11 21:17:03.569,0.878764,1.95823,9.83031,-0.0341311,1.86858,0.916271,0
2024-12-11 21:17:03.571,0.830609,2.02313,9.58355,-0.030466,1.84293,0.930931,0
2024-12-11 21:17:03.573,0.811466,2.10927,9.33709,-0.030466,1.84293,0.930931,0
2024-12-11 21:17:03.575,0.816252,2.18106,9.11905,-0.0268009,1.81361,0.943759,0
2024-12-11 21:17:03.578,0.84018,2.24327,8.90848,-0.0322986,1.73786,0.957198,0
2024-12-11 21:17:03.581,0.8668,2.3342,8.69522,-0.0322986,1.73786,0.957198,0
2024-12-11 21:17:03.582,0.8668,2.4323,8.48944,-0.0347419,1.69449,0.962084,0
2024-12-11 21:17:03.584,0.830609,2.53071,8.27887,-0.0396287,1.64868,0.962084,0
2024-12-11 21:17:03.587,0.842872,2.63839,8.1015,-0.0414613,1.5992,0.957808,0
2024-12-11 21:17:03.589,0.909871,2.74846,7.96989,-0.0487914,1.54667,0.952311,0
2024-12-11 21:17:03.591,0.969691,2.85135,7.8335,-0.058565,1.48436,0.940705,0
2024-12-11 21:17:03.594,1.01755,2.95424,7.6995,-0.0695602,1.41655,0.926655,0
2024-12-11 21:17:03.596,1.04626,3.05713,7.61097,-0.0805555,1.3402,0.909552,0
2024-12-11 21:17:03.598,1.06301,3.15314,7.55564,-0.0933833,1.2559,0.889394,0
2024-12-11 21:17:03.601,1.08215,3.23689,7.51735,-0.104989,1.16855,0.869236,0
2024-12-11 21:17:03.604,1.0989,3.31107,7.49582,-0.128812,0.979188,0.818535,0
2024-12-11 21:17:03.605,1.0989,3.38525,7.49582,-0.128812,0.979188,0.818535,0
2024-12-11 21:17:03.608,1.10608,3.45942,7.50778,-0.137975,0.885118,0.792269,0
