timestamp,accel_x,accel_y,accel_z,gyro_x,gyro_y,gyro_z,step_timestamp
2024-12-11 21:03:31.292,0.428614,2.86331,9.6673,-0.000534491,-0.0465007,-0.0232886,0
2024-12-11 21:03:31.292,0.428614,2.86331,9.6673,-0.000534491,-0.0465007,-0.0232886,0
2024-12-11 21:03:31.294,0.423829,2.85853,9.6673,-0.00114534,-0.0465007,-0.0220669,0
2024-12-11 21:03:31.296,0.41665,2.85613,9.67209,-0.000534491,-0.0452791,-0.0190126,0
2024-12-11 21:03:31.296,0.41665,2.85613,9.67209,-0.000534491,-0.0452791,-0.0190126,0
2024-12-11 21:03:31.296,0.41665,2.85613,9.67209,-0.000534491,-0.0452791,-0.0190126,0
2024-12-11 21:03:31.296,0.41665,2.85613,9.67209,-0.000534491,-0.0452791,-0.0190126,0
2024-12-11 21:03:31.296,0.41665,2.85613,9.67209,-0.000534491,-0.0452791,-0.0190126,0
2024-12-11 21:03:31.297,0.41665,2.85613,9.67209,-0.000534491,-0.0452791,-0.0190126,0
2024-12-11 21:03:31.297,0.41665,2.85613,9.67209,-0.000534491,-0.0452791,-0.0190126,0
2024-12-11 21:03:31.297,0.41665,2.85613,9.67209,-0.000534491,-0.0452791,-0.0190126,0
2024-12-11 21:03:31.297,0.41665,2.85613,9.67209,-0.000534491,-0.0452791,-0.0190126,0
2024-12-11 21:03:31.299,0.3999,2.85374,9.68405,-0.00114534,-0.0452791,-0.0159584,0
2024-12-11 21:03:31.299,0.3999,2.85374,9.68405,-0.00114534,-0.0452791,-0.0159584,0
2024-12-11 21:03:31.299,0.3999,2.85374,9.68405,-0.00114534,-0.0452791,-0.0159584,0
2024-12-11 21:03:31.299,0.3999,2.85374,9.68405,-0.00114534,-0.0452791,-0.0159584,0
2024-12-11 21:03:31.299,0.3999,2.85374,9.68405,-0.00114534,-0.0452791,-0.0159584,0
2024-12-11 21:03:31.299,0.3999,2.85374,9.68405,-0.00114534,-0.0452791,-0.0159584,0
2024-12-11 21:03:31.299,0.3999,2.85374,9.68405,-0.00114534,-0.0452791,-0.0159584,0
2024-12-11 21:03:31.300,0.3999,2.85374,9.68405,7.63559e-05,-0.0477224,-0.0116825,0
2024-12-11 21:03:31.300,0.3999,2.85374,9.68405,7.63559e-05,-0.0477224,-0.0116825,0
2024-12-11 21:03:31.300,0.3999,2.85374,9.68405,7.63559e-05,-0.0477224,-0.0116825,0
2024-12-11 21:03:31.300,0.3999,2.85374,9.68405,7.63559e-05,-0.0477224,-0.0116825,0
2024-12-11 21:03:31.303,0.404686,2.83699,9.68405,0.00129805,-0.0483333,-0.0104608,0
2024-12-11 21:03:31.306,0.3999,2.83938,9.69602,0.00129805,-0.0483333,-0.0104608,0
2024-12-11 21:03:31.309,0.387936,2.8346,9.71516,-0.000534491,-0.0593285,0.00114534,0
2024-12-11 21:03:31.310,0.375972,2.82503,9.72473,-0.000534491,-0.0593285,0.00114534,0
2024-12-11 21:03:31.310,0.375972,2.82503,9.72473,-0.000534491,-0.0593285,0.00114534,0
2024-12-11 21:03:31.310,0.375972,2.82503,9.72473,-0.000534491,-0.0593285,0.00114534,0
2024-12-11 21:03:31.311,0.375972,2.82503,9.72473,-0.000534491,-0.0593285,0.00114534,0
2024-12-11 21:03:31.313,0.371187,2.81306,9.71994,0.00129805,-0.0623828,0.000534491,0
2024-12-11 21:03:31.313,0.371187,2.81306,9.71994,0.00129805,-0.0623828,0.000534491,0
2024-12-11 21:03:31.315,0.378365,2.82263,9.71994,0.00313059,-0.0666587,0.00297788,0
2024-12-11 21:03:31.315,0.378365,2.82263,9.71994,0.00313059,-0.0666587,0.00297788,0
2024-12-11 21:03:31.315,0.378365,2.82263,9.71994,0.00313059,-0.0666587,0.00297788,0
2024-12-11 21:03:31.315,0.378365,2.82263,9.71994,0.00313059,-0.0666587,0.00297788,0
2024-12-11 21:03:31.315,0.378365,2.82263,9.71994,0.00313059,-0.0666587,0.00297788,0
2024-12-11 21:03:31.315,0.378365,2.82263,9.71994,0.00313059,-0.0666587,0.00297788,0
2024-12-11 21:03:31.319,0.390329,2.82263,9.73191,0.000687203,-0.0691021,0.00603212,0
2024-12-11 21:03:31.319,0.390329,2.82263,9.73191,0.000687203,-0.0691021,0.00603212,0
2024-12-11 21:03:31.320,0.390329,2.82263,9.74387,0.000687203,-0.0691021,0.00603212,0
2024-12-11 21:03:31.320,0.390329,2.82263,9.74387,0.000687203,-0.0691021,0.00603212,0
2024-12-11 21:03:31.320,0.390329,2.82263,9.74387,0.000687203,-0.0691021,0.00603212,0
2024-12-11 21:03:31.321,0.390329,2.82263,9.74387,0.00251974,-0.0727672,0.00603212,0
2024-12-11 21:03:31.321,0.390329,2.82263,9.74387,0.00251974,-0.0727672,0.00603212,0
2024-12-11 21:03:31.322,0.385544,2.82503,9.76062,0.00251974,-0.0727672,0.00603212,0
2024-12-11 21:03:31.325,0.395115,2.82981,9.78455,0.00251974,-0.0739889,0.00786466,0
2024-12-11 21:03:31.325,0.395115,2.82981,9.78455,0.00251974,-0.0739889,0.00786466,0
2024-12-11 21:03:31.325,0.395115,2.82981,9.78455,0.00251974,-0.0739889,0.00786466,0
2024-12-11 21:03:31.326,0.395115,2.82981,9.78455,0.00374144,-0.0727672,0.00908635,0
2024-12-11 21:03:31.326,0.395115,2.82981,9.78455,0.00374144,-0.0727672,0.00908635,0
2024-12-11 21:03:31.327,0.409472,2.83699,9.79652,0.00374144,-0.0727672,0.00908635,0
2024-12-11 21:03:31.327,0.409472,2.83699,9.79652,0.00374144,-0.0727672,0.00908635,0
2024-12-11 21:03:31.327,0.409472,2.83699,9.79652,0.00374144,-0.0727672,0.00908635,0
2024-12-11 21:03:31.329,0.41665,2.83938,9.79891,0.00435229,-0.0715455,0.010308,0
2024-12-11 21:03:31.329,0.41665,2.83938,9.79891,0.00435229,-0.0715455,0.010308,0
2024-12-11 21:03:31.330,0.41665,2.83938,9.79891,0.00435229,-0.0709346,0.0115297,0
2024-12-11 21:03:31.330,0.41665,2.83938,9.79891,0.00435229,-0.0709346,0.0115297,0
2024-12-11 21:03:31.330,0.41665,2.83938,9.79891,0.00435229,-0.0709346,0.0115297,0
2024-12-11 21:03:31.333,0.411865,2.83938,9.81805,0.00618483,-0.0672696,0.0127514,0
2024-12-11 21:03:31.333,0.411865,2.83938,9.81805,0.00618483,-0.0672696,0.0127514,0
2024-12-11 21:03:31.333,0.411865,2.83938,9.81805,0.00618483,-0.0672696,0.0127514,0
2024-12-11 21:03:31.334,0.41665,2.82981,9.83749,0.00618483,-0.0672696,0.0127514,0
2024-12-11 21:03:31.334,0.41665,2.82981,9.83749,0.00618483,-0.0672696,0.0127514,0
2024-12-11 21:03:31.334,0.41665,2.82981,9.83749,0.00618483,-0.0672696,0.0127514,0
2024-12-11 21:03:31.334,0.41665,2.82981,9.83749,0.00618483,-0.0672696,0.0127514,0
2024-12-11 21:03:31.335,0.41665,2.82981,9.83749,0.00618483,-0.0672696,0.0127514,0
2024-12-11 21:03:31.335,0.41665,2.82981,9.83749,0.00618483,-0.0672696,0.0127514,0
2024-12-11 21:03:31.337,0.440578,2.82263,9.84706,0.00801737,-0.0617719,0.0127514,0
2024-12-11 21:03:31.339,0.454935,2.83938,9.83988,0.00618483,-0.0581068,0.0139731,0
2024-12-11 21:03:31.341,0.4669,2.85135,9.83271,0.0110716,-0.0532201,0.014584,0
2024-12-11 21:03:31.344,0.474078,2.85135,9.82074,0.0122933,-0.0446682,0.0158057,0
2024-12-11 21:03:31.346,0.476471,2.83938,9.80369,0.0129041,-0.0385597,0.0164165,0
2024-12-11 21:03:31.349,0.469292,2.82981,9.81326,0.0147367,-0.0318404,0.0200816,0
2024-12-11 21:03:31.351,0.459721,2.82503,9.80609,0.0141258,-0.0263428,0.0194708,0
2024-12-11 21:03:31.353,0.469292,2.80828,9.76541,0.013515,-0.0238994,0.0194708,0
2024-12-11 21:03:31.355,0.486042,2.81067,9.73669,0.0129041,-0.0165692,0.0206925,0
2024-12-11 21:03:31.358,0.500399,2.81545,9.72234,0.0147367,-0.0104608,0.0219141,0
2024-12-11 21:03:31.360,0.505185,2.80588,9.71277,0.0129041,-0.00251974,0.0219141,0
2024-12-11 21:03:31.362,0.490828,2.81306,9.71277,0.0165692,0.00358873,0.0237467,0
2024-12-11 21:03:31.365,0.476471,2.81785,9.70559,0.0141258,0.0096972,0.0237467,0
2024-12-11 21:03:31.367,0.464507,2.82263,9.68405,0.0159584,0.0182491,0.0249684,0
2024-12-11 21:03:31.369,0.452543,2.82981,9.66252,0.0171801,0.0243575,0.0274118,0
2024-12-11 21:03:31.372,0.457328,2.84178,9.65773,0.0165692,0.0310769,0.0298552,0
2024-12-11 21:03:31.374,0.464507,2.85135,9.64577,0.0165692,0.0341311,0.030466,0
2024-12-11 21:03:31.377,0.481256,2.85853,9.60987,0.0202343,0.0390179,0.0322986,0
2024-12-11 21:03:31.379,0.50997,2.87049,9.57638,0.0208452,0.0396287,0.0329094,0
2024-12-11 21:03:31.381,0.538684,2.87049,9.54048,0.0171801,0.042683,0.0316877,0
2024-12-11 21:03:31.383,0.562612,2.86331,9.50698,0.0147367,0.042683,0.0335202,0
2024-12-11 21:03:31.386,0.569791,2.86331,9.48784,0.0122933,0.0420721,0.0341311,0
2024-12-11 21:03:31.392,0.579362,2.8681,9.44956,0.00679568,0.0341311,0.0298552,0
2024-12-11 21:03:31.392,0.608076,2.8681,9.44956,0.00679568,0.0341311,0.0298552,0
2024-12-11 21:03:31.395,0.627219,2.89442,9.39931,7.63559e-05,0.0261901,0.0237467,0
2024-12-11 21:03:31.395,0.627219,2.89442,9.39931,7.63559e-05,0.0261901,0.0237467,0
2024-12-11 21:03:31.398,0.629611,2.91117,9.38974,7.63559e-05,0.0261901,0.0200816,0
2024-12-11 21:03:31.400,0.629611,2.92074,9.38495,-0.00358873,0.0194708,0.0170274,0
2024-12-11 21:03:31.402,0.632004,2.93988,9.39931,-0.00358873,0.0194708,0.0170274,0
2024-12-11 21:03:31.406,0.639183,2.95185,9.41127,-0.0096972,0.00175619,0.00664296,0
2024-12-11 21:03:31.408,0.648754,2.97338,9.4017,-0.0127514,-0.00313059,-7.63559e-05,0
2024-12-11 21:03:31.409,0.65354,2.99731,9.39931,-0.0127514,-0.00313059,-7.63559e-05,0
2024-12-11 21:03:31.413,0.660718,3.00449,9.40648,-0.0194708,-0.00984991,-0.00740652,0
2024-12-11 21:03:31.415,0.665504,3.00688,9.41606,-0.0194708,-0.00984991,-0.00740652,0
2024-12-11 21:03:31.416,0.667897,2.99731,9.40648,-0.0206925,-0.0153475,-0.0141258,0
2024-12-11 21:03:31.419,0.682254,2.98774,9.38974,-0.0200816,-0.0177909,-0.0226777,0
2024-12-11 21:03:31.424,0.682254,2.9662,9.38974,-0.0231358,-0.0275645,-0.0330621,0
2024-12-11 21:03:31.425,0.682254,2.9662,9.38974,-0.0261901,-0.0312296,-0.0410031,0
2024-12-11 21:03:31.426,0.670289,2.9662,9.38256,-0.0261901,-0.0312296,-0.0410031,0
2024-12-11 21:03:31.429,0.65354,2.97099,9.36341,-0.0274118,-0.041614,-0.0513875,0
2024-12-11 21:03:31.431,0.632004,2.9686,9.36102,-0.0274118,-0.041614,-0.0513875,0
2024-12-11 21:03:31.433,0.598505,2.95663,9.37059,-0.0335202,-0.0471116,-0.0556635,0
2024-12-11 21:03:31.439,0.536291,2.93749,9.34906,-0.0451263,-0.0587177,-0.0629936,0
2024-12-11 21:03:31.439,0.536291,2.93749,9.34906,-0.0451263,-0.0587177,-0.0629936,0
2024-12-11 21:03:31.440,0.495613,2.9351,9.34188,-0.0451263,-0.0587177,-0.0629936,0
2024-12-11 21:03:31.442,0.464507,2.94706,9.34906,-0.0475697,-0.0599394,-0.0636045,0
2024-12-11 21:03:31.446,0.423829,2.95424,9.34906,-0.0548999,-0.0617719,-0.0587177,0
2024-12-11 21:03:31.447,0.383151,2.94706,9.35863,-0.0548999,-0.0617719,-0.0587177,0
2024-12-11 21:03:31.450,0.35683,2.9327,9.3682,-0.0548999,-0.0617719,-0.0587177,0
2024-12-11 21:03:31.452,0.35683,2.92552,9.37538,-0.0622301,-0.0623828,-0.0538309,0
2024-12-11 21:03:31.456,0.328116,2.91117,9.4017,-0.0689494,-0.057496,-0.0477224,0
2024-12-11 21:03:31.457,0.35683,2.91595,9.39213,-0.0689494,-0.057496,-0.0477224,0
2024-12-11 21:03:31.462,0.297009,2.90638,9.43759,-0.0707819,-0.0538309,-0.0397814,0
2024-12-11 21:03:31.462,0.297009,2.90638,9.43759,-0.0707819,-0.0538309,-0.0397814,0
2024-12-11 21:03:31.464,0.299402,2.89442,9.44477,-0.0720036,-0.049555,-0.0355055,0
2024-12-11 21:03:31.466,0.294616,2.89681,9.44716,-0.074447,-0.0440574,-0.0306187,0
2024-12-11 21:03:31.468,0.275175,2.91117,9.43759,-0.0726145,-0.0361163,-0.0263428,0
2024-12-11 21:03:31.471,0.265603,2.92313,9.43281,-0.0762796,-0.0318404,-0.0220669,0
2024-12-11 21:03:31.473,0.265603,2.91117,9.44238,-0.0787229,-0.0281753,-0.0159584,0
2024-12-11 21:03:31.480,0.256032,2.91595,9.42563,-0.0799446,-0.0220669,-0.0019089,0
2024-12-11 21:03:31.480,0.256032,2.91595,9.42563,-0.0799446,-0.0220669,-0.0019089,0
2024-12-11 21:03:31.482,0.256032,2.92792,9.41366,-0.0799446,-0.0220669,-0.0019089,0
2024-12-11 21:03:31.485,0.277567,2.93988,9.41606,-0.086664,-0.029397,0.00725381,0
2024-12-11 21:03:31.487,0.301795,2.95663,9.4352,-0.0897182,-0.0275645,0.010308,0
2024-12-11 21:03:31.489,0.308973,2.97338,9.44716,-0.0927724,-0.0275645,0.014584,0
2024-12-11 21:03:31.489,0.308973,2.97338,9.44716,-0.0927724,-0.0275645,0.014584,0
2024-12-11 21:03:31.492,0.330509,2.97577,9.46391,-0.0952158,-0.0312296,0.0206925,0
2024-12-11 21:03:31.494,0.352044,2.97577,9.47348,-0.094605,-0.0330621,0.0219141,0
2024-12-11 21:03:31.497,0.364008,2.98535,9.48306,-0.0958267,-0.0391706,0.0243575,0
2024-12-11 21:03:31.500,0.387936,2.98535,9.52134,-0.0964375,-0.0532201,0.030466,0
2024-12-11 21:03:31.501,0.404686,2.98295,9.55484,-0.0964375,-0.0532201,0.030466,0
2024-12-11 21:03:31.504,0.419043,2.98774,9.58834,-0.0958267,-0.0611611,0.0292443,0
2024-12-11 21:03:31.506,0.438186,2.98774,9.62184,-0.094605,-0.0721563,0.0292443,0
2024-12-11 21:03:31.508,0.459721,2.98774,9.64816,-0.0915507,-0.0837624,0.0286335,0
2024-12-11 21:03:31.511,0.483649,2.99252,9.67448,-0.0921616,-0.0929251,0.0261901,0
2024-12-11 21:03:31.514,0.517149,2.99013,9.70319,-0.0872748,-0.102699,0.0249684,0
2024-12-11 21:03:31.518,0.567398,2.97817,9.77737,-0.0836097,-0.119192,0.0219141,0
2024-12-11 21:03:31.518,0.567398,2.97817,9.77737,-0.0836097,-0.119192,0.0219141,0
2024-12-11 21:03:31.525,0.617647,2.94945,9.82553,-0.0720036,-0.135074,0.0151948,0
2024-12-11 21:03:31.527,0.624826,2.95902,9.85664,-0.0597867,-0.143625,0.0096972,0
2024-12-11 21:03:31.528,0.624826,2.95902,9.85664,-0.0597867,-0.143625,0.0096972,0
2024-12-11 21:03:31.532,0.641576,2.9327,9.88296,-0.0469589,-0.145458,0.00358873,0
2024-12-11 21:03:31.534,0.648754,2.9351,9.8686,-0.0408504,-0.14668,-0.000687203,0
2024-12-11 21:03:31.537,0.641576,2.91356,9.85664,-0.0353528,-0.141793,-0.00129805,0
2024-12-11 21:03:31.538,0.641576,2.91356,9.85664,-0.0353528,-0.141793,-0.00129805,0
2024-12-11 21:03:31.542,0.643968,2.90878,9.85664,-0.0158057,-0.127743,-0.0104608,0
2024-12-11 21:03:31.542,0.643968,2.90878,9.85664,-0.0158057,-0.127743,-0.0104608,0
2024-12-11 21:03:31.544,0.632004,2.90399,9.83988,-0.0158057,-0.127743,-0.0104608,0
2024-12-11 21:03:31.544,0.632004,2.90399,9.83988,-0.0158057,-0.127743,-0.0104608,0
2024-12-11 21:03:31.546,0.63679,2.89442,9.80848,-0.0121406,-0.120413,-0.0116825,0
2024-12-11 21:03:31.548,0.648754,2.8992,9.7678,-0.00908635,-0.113083,-0.0165692,0
2024-12-11 21:03:31.551,0.639183,2.91595,9.73669,-0.00664296,-0.10392,-0.0165692,0
2024-12-11 21:03:31.555,0.596112,2.93749,9.63859,-0.00542127,-0.0782648,-0.0208452,0
2024-12-11 21:03:31.559,0.572184,2.95902,9.58116,-0.00664296,-0.0532201,-0.0232886,0
2024-12-11 21:03:31.560,0.54347,2.99013,9.52613,-0.00664296,-0.0532201,-0.0232886,0
2024-12-11 21:03:31.561,0.54347,2.99013,9.52613,-0.00908635,-0.0428357,-0.0232886,0
2024-12-11 21:03:31.563,0.519542,3.0021,9.47827,-0.00908635,-0.0428357,-0.0232886,0
2024-12-11 21:03:31.565,0.495613,3.01645,9.43041,-0.0133623,-0.033673,-0.0238994,0
2024-12-11 21:03:31.568,0.481256,3.04038,9.4017,-0.0231358,-0.0202343,-0.0208452,0
2024-12-11 21:03:31.571,0.474078,3.04995,9.37059,-0.0316877,-0.0165692,-0.0220669,0
2024-12-11 21:03:31.574,0.495613,3.05713,9.31077,-0.0396287,-0.0177909,-0.0220669,0
2024-12-11 21:03:31.574,0.495613,3.05713,9.31077,-0.0396287,-0.0177909,-0.0220669,0
2024-12-11 21:03:31.578,0.517149,3.05952,9.29642,-0.0548999,-0.0238994,-0.0232886,0
2024-12-11 21:03:31.579,0.54347,3.06431,9.27727,-0.0548999,-0.0238994,-0.0232886,0
2024-12-11 21:03:31.581,0.557827,3.07149,9.28445,-0.0628409,-0.0269536,-0.0257319,0
2024-12-11 21:03:31.584,0.584148,3.07627,9.30359,-0.0713928,-0.0330621,-0.0281753,0
2024-12-11 21:03:31.586,0.622433,3.09332,9.32513,-0.0817772,-0.0403923,-0.029397,0
2024-12-11 21:03:31.589,0.648754,3.10768,9.37299,-0.086664,-0.0477224,-0.0324513,0
2024-12-11 21:03:31.592,0.670289,3.11725,9.4352,-0.094605,-0.0581068,-0.0348946,0
2024-12-11 21:03:31.593,0.71336,3.12921,9.49023,-0.0994917,-0.0684913,-0.0385597,0
2024-12-11 21:03:31.596,0.76361,3.13639,9.5668,-0.103157,-0.0807082,-0.0428357,0
2024-12-11 21:03:31.598,0.80668,3.134,9.67448,-0.1056,-0.0959794,-0.0458899,0
2024-12-11 21:03:31.603,0.919442,3.12443,9.84706,-0.102546,-0.119802,-0.0556635,0
2024-12-11 21:03:31.603,0.919442,3.12443,9.84706,-0.102546,-0.119802,-0.0556635,0
2024-12-11 21:03:31.605,0.97687,3.12204,9.92842,-0.0982701,-0.134463,-0.0623828,0
2024-12-11 21:03:31.607,1.02712,3.12682,10.0217,-0.0939941,-0.144236,-0.0703238,0
2024-12-11 21:03:31.610,1.07498,3.09811,10.1079,-0.0854423,-0.152177,-0.0782648,0
2024-12-11 21:03:31.613,1.11326,3.06909,10.1725,-0.0628409,-0.159507,-0.0898709,0
2024-12-11 21:03:31.615,1.14915,3.05713,10.2395,-0.0512348,-0.160118,-0.0978119,0
2024-12-11 21:03:31.617,1.18505,3.05234,10.3208,-0.0512348,-0.160118,-0.0978119,0
2024-12-11 21:03:31.620,1.20419,3.04995,10.3834,-0.0188599,-0.151566,-0.111251,0
2024-12-11 21:03:31.622,1.23051,3.04756,10.4169,-0.0188599,-0.151566,-0.111251,0
2024-12-11 21:03:31.624,1.24247,3.04038,10.4312,-0.00175619,-0.141793,-0.117359,0
2024-12-11 21:03:31.626,1.24247,3.02602,10.424,0.0190126,-0.129576,-0.122246,0
2024-12-11 21:03:31.631,1.25204,3.01645,10.3735,0.0568851,-0.0910926,-0.128354,0
2024-12-11 21:03:31.631,1.25204,3.01645,10.3735,0.0568851,-0.0910926,-0.128354,0
2024-12-11 21:03:31.636,1.20658,3.02602,10.2395,0.0965902,-0.0391706,-0.133852,0
2024-12-11 21:03:31.637,1.20658,3.02602,10.2395,0.115526,-0.00984991,-0.133852,0
2024-12-11 21:03:31.638,1.17308,3.02124,10.1222,0.115526,-0.00984991,-0.133852,0
2024-12-11 21:03:31.640,1.1324,3.01884,9.99303,0.130798,0.0194708,-0.135074,0
2024-12-11 21:03:31.645,1.07737,3.0332,9.65055,0.155232,0.074447,-0.126522,0
2024-12-11 21:03:31.645,1.02951,3.04038,9.65055,0.155232,0.074447,-0.126522,0
2024-12-11 21:03:31.647,0.996012,3.05952,9.46152,0.165616,0.104989,-0.122857,0
2024-12-11 21:03:31.650,0.967299,3.07149,9.28206,0.169281,0.131867,-0.119192,0
2024-12-11 21:03:31.652,0.919442,3.07867,9.09512,0.171724,0.159966,-0.114305,0
2024-12-11 21:03:31.655,0.8668,3.10768,8.91566,0.171114,0.182567,-0.106364,0
2024-12-11 21:03:31.657,0.833001,3.15075,8.74098,0.163783,0.202114,-0.0978119,0
2024-12-11 21:03:31.659,0.799502,3.18186,8.57318,0.157064,0.216774,-0.0917034,0
2024-12-11 21:03:31.661,0.773181,3.21536,8.41526,0.147901,0.230213,-0.0825407,0
2024-12-11 21:03:31.664,0.754038,3.23928,8.28844,0.135684,0.240597,-0.0752106,0
2024-12-11 21:03:31.667,0.742074,3.25125,8.20708,0.105753,0.260145,-0.057496,0
2024-12-11 21:03:31.669,0.734896,3.28475,8.1015,0.105753,0.260145,-0.057496,0
2024-12-11 21:03:31.671,0.727717,3.31585,7.94118,0.105753,0.260145,-0.057496,0
2024-12-11 21:03:31.674,0.706182,3.34935,7.81675,0.0452791,0.296185,-0.0238994,0
2024-12-11 21:03:31.678,0.624826,3.45942,7.64686,0.0208452,0.305958,-0.0110716,0
2024-12-11 21:03:31.679,0.624826,3.45942,7.64686,0.0208452,0.305958,-0.0110716,0
2024-12-11 21:03:31.680,0.591326,3.52642,7.57478,-0.00175619,0.309623,0.00419957,0
2024-12-11 21:03:31.683,0.56022,3.58864,7.52692,-0.0237467,0.308401,0.0182491,0
2024-12-11 21:03:31.685,0.553041,3.65833,7.48624,-0.0237467,0.308401,0.0182491,0
2024-12-11 21:03:31.687,0.574577,3.73729,7.45992,-0.0787229,0.305347,0.0494023,0
2024-12-11 21:03:31.690,0.854836,3.61496,7.79283,-0.107433,0.296795,0.0640626,0
2024-12-11 21:03:31.692,1.13958,3.45703,8.2023,-0.123926,0.24976,0.0646735,0
2024-12-11 21:03:31.697,0.938585,3.87368,7.51257,-0.152635,0.253425,0.0732253,0
2024-12-11 21:03:31.697,0.687039,3.87368,7.51257,-0.152635,0.253425,0.0732253,0
2024-12-11 21:03:31.699,0.672682,4.08903,7.50778,-0.17035,0.290687,0.090329,0
2024-12-11 21:03:31.701,0.708575,4.25922,7.68993,-0.189897,0.302904,0.104379,0
2024-12-11 21:03:31.704,0.71336,4.4004,7.76172,-0.211888,0.304736,0.118428,0
2024-12-11 21:03:31.706,0.964906,4.31426,8.02014,-0.234489,0.287633,0.133699,0
2024-12-11 21:03:31.711,1.21615,4.1991,8.12543,-0.253425,0.17768,0.125147,0
2024-12-11 21:03:31.712,1.21615,4.1991,8.12543,-0.286411,0.189897,0.125758,0
2024-12-11 21:03:31.713,1.02473,4.39083,7.67558,-0.286411,0.189897,0.125758,0
2024-12-11 21:03:31.716,1.1659,4.49611,7.7665,-0.309012,0.199671,0.12698,0
2024-12-11 21:03:31.720,1.35015,4.55593,8.2358,-0.349328,0.14836,0.120261,0
2024-12-11 21:03:31.721,1.43898,4.61336,8.2358,-0.349328,0.14836,0.120261,0
2024-12-11 21:03:31.723,1.51555,4.64925,8.27408,-0.369486,0.11293,0.115985,0
2024-12-11 21:03:31.725,1.64237,4.63011,8.31476,-0.389033,0.0787229,0.107433,0
2024-12-11 21:03:31.728,1.95105,4.4674,8.73859,-0.40797,0.0286335,0.0915507,0
2024-12-11 21:03:31.730,2.21934,4.35733,9.14297,-0.409191,-0.0342838,0.0640626,0
2024-12-11 21:03:31.734,2.30548,4.55115,8.84866,-0.40797,-0.0672696,0.00664296,0
2024-12-11 21:03:31.735,2.2672,4.55115,8.84866,-0.40797,-0.0672696,0.00664296,0
2024-12-11 21:03:31.738,2.34616,4.67558,8.97548,-0.398807,-0.0428357,-0.0428357,0
2024-12-11 21:03:31.739,2.35813,4.7689,9.17887,-0.398807,-0.0428357,-0.0428357,0
2024-12-11 21:03:31.742,2.33181,4.82662,9.30359,-0.389644,-0.0465007,-0.0642153,0
2024-12-11 21:03:31.744,2.30548,4.85055,9.35384,-0.379871,-0.0519984,-0.0868167,0
2024-12-11 21:03:31.746,2.29113,4.84098,9.3682,-0.374373,-0.0550526,-0.11064,0
2024-12-11 21:03:31.749,2.29113,4.80987,9.36102,-0.367654,-0.0605502,-0.133241,0
2024-12-11 21:03:31.751,2.31266,4.77637,9.36581,-0.35788,-0.0617719,-0.154621,0
2024-12-11 21:03:31.753,2.32941,4.74018,9.38256,-0.347496,-0.0611611,-0.180276,0
2024-12-11 21:03:31.756,2.32463,4.69711,9.4017,-0.334668,-0.065437,-0.203488,0
2024-12-11 21:03:31.758,2.27677,4.666,9.41127,-0.32184,-0.0672696,-0.227312,0
2024-12-11 21:03:31.761,2.19781,4.63968,9.4017,-0.30718,-0.0709346,-0.251135,0
2024-12-11 21:03:31.763,2.0997,4.61097,9.37059,-0.291909,-0.0745997,-0.272514,0
2024-12-11 21:03:31.766,1.98245,4.60379,9.32274,-0.261977,-0.0800973,-0.310387,0
2024-12-11 21:03:31.768,1.83141,4.59422,9.25065,-0.261977,-0.0800973,-0.310387,0
2024-12-11 21:03:31.770,1.68066,4.57747,9.18365,-0.249149,-0.0831516,-0.324436,0
2024-12-11 21:03:31.772,1.5323,4.55593,9.11426,-0.233878,-0.0880384,-0.333599,0
2024-12-11 21:03:31.777,1.22333,4.53679,8.9348,-0.208223,-0.101477,-0.347038,0
2024-12-11 21:03:31.778,1.22333,4.53679,8.9348,-0.196006,-0.11064,-0.349481,0
2024-12-11 21:03:31.780,1.09412,4.52722,8.83669,-0.188065,-0.122246,-0.349481,0
2024-12-11 21:03:31.783,0.986441,4.50329,8.74098,-0.181345,-0.132019,-0.348259,0
2024-12-11 21:03:31.784,0.902692,4.48654,8.64736,-0.181345,-0.132019,-0.348259,0
2024-12-11 21:03:31.787,0.828216,4.46501,8.57079,-0.169739,-0.146069,-0.34154,0
2024-12-11 21:03:31.789,0.777966,4.44108,8.53011,-0.169739,-0.146069,-0.34154,0
2024-12-11 21:03:31.792,0.739681,4.43151,8.47747,-0.164852,-0.155842,-0.339097,0
2024-12-11 21:03:31.793,0.701396,4.40519,8.41047,-0.159966,-0.160118,-0.334821,0
2024-12-11 21:03:31.797,0.655932,4.37887,8.34347,-0.152635,-0.172335,-0.330545,0
2024-12-11 21:03:31.798,0.629611,4.35733,8.30758,-0.152635,-0.172335,-0.330545,0
2024-12-11 21:03:31.801,0.605683,4.34058,8.29322,-0.150192,-0.181498,-0.32749,0
2024-12-11 21:03:31.806,0.562612,4.31665,8.25972,-0.140419,-0.196158,-0.323825,0
2024-12-11 21:03:31.807,0.529113,4.31426,8.25494,-0.140419,-0.196158,-0.323825,0
2024-12-11 21:03:31.810,0.512363,4.30469,8.2334,-0.133699,-0.210208,-0.323215,0
2024-12-11 21:03:31.811,0.512363,4.30469,8.2334,-0.127591,-0.215095,-0.324436,0
2024-12-11 21:03:31.815,0.490828,4.2999,8.22862,-0.124536,-0.222425,-0.325047,0
2024-12-11 21:03:31.815,0.490828,4.2999,8.22862,-0.124536,-0.222425,-0.325047,0
2024-12-11 21:03:31.819,0.431007,4.31187,8.21665,-0.114763,-0.232198,-0.329323,0
2024-12-11 21:03:31.820,0.431007,4.31187,8.21665,-0.114763,-0.232198,-0.329323,0
2024-12-11 21:03:31.824,0.428614,4.30708,8.22383,-0.103768,-0.237696,-0.334821,0
2024-12-11 21:03:31.825,0.428614,4.30708,8.22383,-0.103768,-0.237696,-0.334821,0
2024-12-11 21:03:31.826,0.411865,4.29512,8.23819,-0.0976592,-0.237696,-0.337264,0
2024-12-11 21:03:31.830,0.404686,4.29272,8.23819,-0.082388,-0.239528,-0.344594,0
2024-12-11 21:03:31.831,0.380758,4.29512,8.2334,-0.082388,-0.239528,-0.344594,0
2024-12-11 21:03:31.834,0.366401,4.27597,8.21905,-0.0781121,-0.238307,-0.350092,0
2024-12-11 21:03:31.837,0.35683,4.26162,8.21426,-0.0597867,-0.238307,-0.356811,0
2024-12-11 21:03:31.839,0.325723,4.24965,8.22383,-0.050624,-0.239528,-0.359865,0
2024-12-11 21:03:31.844,0.27996,4.21376,8.2358,-0.0414613,-0.242583,-0.36353,0
2024-12-11 21:03:31.844,0.27996,4.21376,8.2358,-0.0414613,-0.242583,-0.36353,0
2024-12-11 21:03:31.845,0.256032,4.17757,8.21905,-0.0316877,-0.245637,-0.367806,0
2024-12-11 21:03:31.848,0.241675,4.14886,8.2023,-0.0213033,-0.245026,-0.37025,0
2024-12-11 21:03:31.850,0.227318,4.1345,8.19033,-0.010308,-0.246248,-0.372082,0
2024-12-11 21:03:31.852,0.184247,4.12493,8.19033,-0.00358873,-0.249913,-0.376969,0
2024-12-11 21:03:31.857,0.148355,4.07707,8.14726,0.0171801,-0.257243,-0.378802,0
2024-12-11 21:03:31.857,0.100499,4.07707,8.14726,0.0171801,-0.257243,-0.378802,0
2024-12-11 21:03:31.859,0.040678,4.05314,8.13021,0.0257319,-0.258465,-0.378802,0
2024-12-11 21:03:31.863,-0.00957129,4.02682,8.12303,0.0434465,-0.263352,-0.375747,0
2024-12-11 21:03:31.865,-0.0574277,4.00529,8.09432,0.0513875,-0.265795,-0.372082,0
2024-12-11 21:03:31.866,-0.102891,3.98854,8.068,0.0513875,-0.265795,-0.372082,0
2024-12-11 21:03:31.871,-0.165105,3.98854,8.03211,0.0660479,-0.270682,-0.361087,0
2024-12-11 21:03:31.872,-0.165105,3.98854,8.03211,0.0660479,-0.270682,-0.361087,0
2024-12-11 21:03:31.873,-0.229711,3.98614,7.99621,0.0752106,-0.271903,-0.355589,0
2024-12-11 21:03:31.876,-0.277567,3.98136,7.95314,0.0782648,-0.272514,-0.348259,0
2024-12-11 21:03:31.878,-0.325723,3.97897,7.92443,0.0843733,-0.274958,-0.34154,0
2024-12-11 21:03:31.881,-0.387936,3.98375,7.91725,0.0880384,-0.271903,-0.335431,0
2024-12-11 21:03:31.885,-0.574577,4.00768,7.88854,0.0892601,-0.272514,-0.316495,0
2024-12-11 21:03:31.885,-0.574577,4.00768,7.88854,0.0892601,-0.272514,-0.316495,0
2024-12-11 21:03:31.890,-0.761217,4.05075,7.92443,0.085595,-0.271903,-0.289007,0
2024-12-11 21:03:31.890,-0.761217,4.05075,7.92443,0.085595,-0.271903,-0.289007,0
2024-12-11 21:03:31.895,-0.940978,4.14168,7.9675,0.081319,-0.266406,-0.2548,0
2024-12-11 21:03:31.897,-1.03669,4.18475,7.96272,0.081319,-0.259076,-0.235863,0
2024-12-11 21:03:31.897,-1.03669,4.18475,7.96272,0.081319,-0.259076,-0.235863,0
2024-12-11 21:03:31.899,-1.13958,4.25683,7.96272,0.0764323,-0.2548,-0.21204,0
2024-12-11 21:03:31.903,-1.21376,4.32622,7.97468,0.065437,-0.232809,-0.163173,0
2024-12-11 21:03:31.904,-1.27837,4.41236,7.97707,0.065437,-0.232809,-0.163173,0
2024-12-11 21:03:31.907,-1.34297,4.49851,7.97468,0.0587177,-0.219371,-0.138739,0
2024-12-11 21:03:31.909,-1.37886,4.57986,7.98425,0.0532201,-0.206543,-0.112472,0
2024-12-11 21:03:31.911,-1.4004,4.68036,7.97947,0.0532201,-0.206543,-0.112472,0
2024-12-11 21:03:31.913,-1.41027,4.75932,7.98664,0.033673,-0.181498,-0.0629936,0
2024-12-11 21:03:31.916,-1.43181,4.8673,8.02254,0.0165692,-0.170503,-0.0361163,0
2024-12-11 21:03:31.918,-1.4653,4.97019,8.07757,0.00862822,-0.158897,-0.0122933,0
2024-12-11 21:03:31.923,-1.5012,5.18794,8.1999,-0.0170274,-0.127133,0.0292443,0
2024-12-11 21:03:31.924,-1.5012,5.18794,8.1999,-0.0310769,-0.105753,0.0494023,0
2024-12-11 21:03:31.926,-1.52513,5.31954,8.23819,-0.0310769,-0.105753,0.0494023,0
2024-12-11 21:03:31.928,-1.52991,5.44427,8.28126,-0.0420721,-0.0825407,0.0658951,0
2024-12-11 21:03:31.931,-1.51555,5.5687,8.3339,-0.0671168,-0.0324513,0.094605,0
2024-12-11 21:03:31.932,-1.47248,5.69073,8.37937,-0.0671168,-0.0324513,0.094605,0
2024-12-11 21:03:31.935,-1.4342,5.79841,8.4009,-0.0848314,-0.00618483,0.104989,0
2024-12-11 21:03:31.937,-1.42702,5.89681,8.41526,-0.103768,0.0206925,0.111709,0
2024-12-11 21:03:31.939,-1.38126,5.98774,8.43201,-0.120871,0.0518457,0.117817,0
2024-12-11 21:03:31.942,-1.32383,6.07149,8.43201,-0.142862,0.0817772,0.11965,0
2024-12-11 21:03:31.945,-1.32622,6.1672,8.39851,-0.194173,0.154468,0.115985,0
2024-12-11 21:03:31.947,-1.34536,6.27727,8.38654,-0.194173,0.154468,0.115985,0
2024-12-11 21:03:31.950,-1.33819,6.37538,8.41765,-0.250982,0.212498,0.108044,0
2024-12-11 21:03:31.952,-1.1324,6.34188,8.75055,-0.250982,0.212498,0.108044,0
2024-12-11 21:03:31.955,-0.789931,6.22702,9.27249,-0.276027,0.190508,0.0915507,0
2024-12-11 21:03:31.956,-1.01037,6.34906,8.97548,-0.291909,0.201503,0.0713928,0
2024-12-11 21:03:31.961,-1.41745,6.80399,8.50858,-0.357269,0.353604,0.066506,0
2024-12-11 21:03:31.962,-1.41745,6.80399,8.50858,-0.357269,0.353604,0.066506,0
2024-12-11 21:03:31.963,-1.46052,6.90688,8.79362,-0.357269,0.353604,0.066506,0
2024-12-11 21:03:31.965,-1.5682,6.98106,8.98026,-0.425073,0.409191,0.0695602,0
2024-12-11 21:03:31.968,-1.68066,7.02682,9.0999,-0.462946,0.404915,0.074447,0
2024-12-11 21:03:31.970,-1.74287,7.05075,9.2363,-0.500208,0.385368,0.0787229,0
2024-12-11 21:03:31.975,-1.75244,7.01486,9.67209,-0.56679,0.331003,0.0891073,0
2024-12-11 21:03:31.975,-1.75244,7.01486,9.67209,-0.56679,0.331003,0.0891073,0
2024-12-11 21:03:31.978,-1.70698,6.97149,10.0122,-0.590613,0.290076,0.0921616,0
2024-12-11 21:03:31.979,-1.66391,6.92602,10.4456,-0.607717,0.239987,0.0927724,0
2024-12-11 21:03:31.984,-1.7333,6.87338,11.3743,-0.615658,0.178902,0.0921616,0
2024-12-11 21:03:31.985,-1.7333,6.87338,11.3743,-0.594278,0.0481806,0.086664,0
2024-12-11 21:03:31.987,-1.80748,6.8662,11.822,-0.610771,0.0481806,0.086664,0
2024-12-11 21:03:31.989,-1.88405,6.84467,12.2578,-0.571066,-0.0232886,0.0860531,0
2024-12-11 21:03:31.994,-1.95823,6.79921,13.1052,-0.49471,-0.167449,0.0836097,0
2024-12-11 21:03:31.995,-1.95823,6.79921,13.1052,-0.447064,-0.242583,0.0836097,0
2024-12-11 21:03:31.996,-2.01117,6.77528,13.4931,-0.447064,-0.242583,0.0836097,0
2024-12-11 21:03:31.998,-2.07577,6.74178,13.8332,-0.394531,-0.310998,0.0872748,0
2024-12-11 21:03:32.001,-2.14517,6.69871,14.1275,-0.338333,-0.37758,0.0909399,0
2024-12-11 21:03:32.003,-2.21456,6.65564,14.391,-0.277248,-0.437443,0.094605,0
2024-12-11 21:03:32.009,-2.26241,6.5336,14.8771,-0.0811663,-0.580992,0.125758,0
2024-12-11 21:03:32.009,-2.29591,6.5336,14.8771,-0.0811663,-0.580992,0.125758,0
2024-12-11 21:03:32.010,-2.31745,6.44955,15.0685,-0.0811663,-0.580992,0.125758,0
2024-12-11 21:03:32.013,-2.32463,6.37059,15.2192,-0.0109189,-0.6152,0.139197,0
2024-12-11 21:03:32.015,-2.31027,6.3012,15.3604,0.0538309,-0.643909,0.156911,0
2024-12-11 21:03:32.018,-2.25763,6.22224,15.4612,0.182109,-0.675063,0.191119,0
2024-12-11 21:03:32.020,-2.18106,6.10738,15.4947,0.182109,-0.675063,0.191119,1
2024-12-11 21:03:32.022,-2.0997,5.97817,15.4899,0.182109,-0.675063,0.191119,0
2024-12-11 21:03:32.024,-2.00399,5.83909,15.4588,0.299392,-0.672619,0.222883,0
2024-12-11 21:03:32.027,-1.90558,5.70748,15.3844,0.347648,-0.663456,0.237543,0
2024-12-11 21:03:32.029,-1.79312,5.59262,15.291,0.347648,-0.663456,0.237543,0
2024-12-11 21:03:32.032,-1.69262,5.48495,15.1427,0.443551,-0.617643,0.265642,0
2024-12-11 21:03:32.036,-1.55623,5.31476,14.7882,0.502193,-0.547396,0.294963,0
2024-12-11 21:03:32.036,-1.55623,5.31476,14.7882,0.502193,-0.547396,0.294963,0
2024-12-11 21:03:32.038,-1.47248,5.25494,14.6207,0.521129,-0.499139,0.310234,0
2024-12-11 21:03:32.042,-1.40279,5.20947,14.4461,0.544952,-0.386743,0.340776,0
2024-12-11 21:03:32.043,-1.34776,5.16401,14.2663,0.544952,-0.386743,0.340776,0
2024-12-11 21:03:32.046,-1.27597,5.11376,14.0797,0.546174,-0.321382,0.356048,0
2024-12-11 21:03:32.049,-1.2018,5.06351,13.8835,0.546174,-0.253578,0.373762,0
2024-12-11 21:03:32.050,-1.12762,5.02283,13.6774,0.534568,-0.179055,0.389644,0
2024-12-11 21:03:32.056,-0.99362,4.94626,13.3065,0.478981,0.0658951,0.436679,0
2024-12-11 21:03:32.058,-0.921835,4.9008,13.153,0.448438,0.149581,0.449507,0
2024-12-11 21:03:32.060,-0.837787,4.87687,12.9951,0.448438,0.149581,0.449507,0
2024-12-11 21:03:32.061,-0.837787,4.87687,12.9951,0.419728,0.233878,0.464168,0
2024-12-11 21:03:32.062,-0.770788,4.85294,12.83,0.419728,0.233878,0.464168,0
2024-12-11 21:03:32.064,-0.715753,4.82662,12.6936,0.384299,0.318175,0.476385,0
2024-12-11 21:03:32.069,-0.60329,4.79073,12.4684,0.315884,0.486769,0.50204,0
2024-12-11 21:03:32.070,-0.60329,4.79073,12.4684,0.280455,0.569844,0.513646,0
2024-12-11 21:03:32.071,-0.545863,4.77637,12.3775,0.280455,0.569844,0.513646,0
2024-12-11 21:03:32.074,-0.483649,4.77159,12.3009,0.245637,0.652309,0.524031,0
2024-12-11 21:03:32.077,-0.414257,4.75215,12.2363,0.178444,0.806929,0.547854,0
2024-12-11 21:03:32.079,-0.359223,4.75693,12.1813,0.178444,0.806929,0.547854,0
2024-12-11 21:03:32.083,-0.285045,4.733,12.076,0.121024,0.952922,0.566179,0
2024-12-11 21:03:32.083,-0.285045,4.733,12.076,0.121024,0.952922,0.566179,0
2024-12-11 21:03:32.086,-0.251246,4.74257,12.0183,0.093536,1.01462,0.579618,0
2024-12-11 21:03:32.088,-0.20339,4.75215,11.9465,0.0697129,1.06715,0.591835,0
2024-12-11 21:03:32.091,-0.153141,4.74736,11.9106,0.0281753,1.14473,0.613825,0
2024-12-11 21:03:32.093,-0.0717847,4.7354,11.8843,0.0281753,1.14473,0.613825,0
2024-12-11 21:03:32.095,0.0550349,4.71625,11.8412,0.00923906,1.16794,0.621155,0
2024-12-11 21:03:32.097,0.212961,4.68515,11.8053,-0.010308,1.17955,0.627875,0
2024-12-11 21:03:32.100,0.380758,4.63729,11.7742,-0.0298552,1.17894,0.629096,0
2024-12-11 21:03:32.102,0.579362,4.56311,11.7168,-0.0481806,1.17344,0.627875,0
2024-12-11 21:03:32.104,0.804287,4.47697,11.6665,-0.0640626,1.16061,0.622988,0
2024-12-11 21:03:32.108,1.05344,4.36212,11.6234,-0.106822,1.11235,0.592445,0
2024-12-11 21:03:32.111,1.61605,4.12493,11.5373,-0.128812,1.08303,0.570455,0
2024-12-11 21:03:32.111,1.61605,4.12493,11.5373,-0.128812,1.08303,0.570455,0
2024-12-11 21:03:32.115,1.87448,4.01725,11.5158,-0.173404,1.01889,0.510592,0
2024-12-11 21:03:32.117,2.09492,3.91914,11.5205,-0.197227,0.98774,0.475774,0
2024-12-11 21:03:32.119,2.27199,3.83061,11.554,-0.197227,0.98774,0.475774,0
2024-12-11 21:03:32.122,2.42991,3.74447,11.5995,-0.238154,0.929099,0.402472,0
2024-12-11 21:03:32.124,2.58574,3.64367,11.6545,-0.258923,0.903443,0.362156,0
2024-12-11 21:03:32.125,2.71735,3.54796,11.7168,-0.258923,0.903443,0.362156,0
2024-12-11 21:03:32.129,2.82981,3.45703,11.7957,-0.288244,0.868014,0.27847,0
2024-12-11 21:03:32.130,2.92792,3.36371,11.8555,-0.288244,0.868014,0.27847,0
2024-12-11 21:03:32.135,3.03799,3.18186,11.9728,-0.310845,0.846634,0.195395,0
2024-12-11 21:03:32.136,3.03799,3.18186,11.9728,-0.316953,0.841748,0.153857,0
2024-12-11 21:03:32.137,3.0021,3.08854,12.0326,-0.316953,0.841748,0.153857,0
2024-12-11 21:03:32.140,2.92552,3.00927,12.1047,-0.32184,0.835639,0.115374,0
2024-12-11 21:03:32.144,2.65514,2.8346,12.2435,-0.321229,0.827698,0.0469589,0
2024-12-11 21:03:32.144,2.65514,2.8346,12.2435,-0.321229,0.827698,0.0469589,0
2024-12-11 21:03:32.148,2.48734,2.75324,12.2985,-0.315732,0.819146,0.0231358,0
2024-12-11 21:03:32.149,2.29831,2.67667,12.3296,-0.302904,0.810594,0.000534491,0
2024-12-11 21:03:32.152,2.09252,2.58335,12.3751,-0.291909,0.802042,-0.0159584,0
2024-12-11 21:03:32.155,1.89123,2.48016,12.4086,-0.253425,0.777532,-0.0306187,0
2024-12-11 21:03:32.157,1.69502,2.38206,12.4421,-0.228381,0.764094,-0.0300079,0
2024-12-11 21:03:32.158,1.48445,2.27916,12.4756,-0.228381,0.764094,-0.0300079,0
2024-12-11 21:03:32.163,1.08933,2.07577,12.466,-0.17035,0.73294,-0.0122933,0
2024-12-11 21:03:32.163,1.08933,2.07577,12.466,-0.17035,0.73294,-0.0122933,0
2024-12-11 21:03:32.165,0.921835,1.9681,12.4469,-0.135532,0.714004,0.00786466,0
2024-12-11 21:03:32.169,0.751645,1.86491,12.4325,-0.0603975,0.673077,0.0579541,0
2024-12-11 21:03:32.170,0.576969,1.77398,12.4062,-0.0603975,0.673077,0.0579541,0
2024-12-11 21:03:32.173,0.407079,1.72852,12.4014,-0.0194708,0.651698,0.0927724,0
2024-12-11 21:03:32.175,0.229711,1.6998,12.387,0.0232886,0.627264,0.13431,0
2024-12-11 21:03:32.178,0.0717847,1.6663,12.3488,0.11797,0.583283,0.227159,0
2024-12-11 21:03:32.181,-0.0382852,1.65434,12.3081,0.168059,0.561292,0.281524,0
2024-12-11 21:03:32.182,-0.100499,1.64477,12.2554,0.168059,0.561292,0.281524,0
2024-12-11 21:03:32.184,-0.129212,1.63759,12.1908,0.168059,0.561292,0.281524,0
2024-12-11 21:03:32.187,-0.100499,1.6017,12.0999,0.271293,0.529528,0.391477,0
2024-12-11 21:03:32.190,-0.0311067,1.55623,11.9895,0.373915,0.505705,0.494099,0
2024-12-11 21:03:32.192,0.0454636,1.51795,11.8555,0.373915,0.505705,0.494099,0
2024-12-11 21:03:32.194,0.167498,1.47009,11.7168,0.424004,0.496542,0.539913,0
2024-12-11 21:03:32.196,0.316152,1.42223,11.5756,0.473483,0.491656,0.582672,0
2024-12-11 21:03:32.198,0.4669,1.38844,11.403,0.519907,0.483715,0.616879,0
2024-12-11 21:03:32.202,0.615255,1.36211,11.2187,0.559002,0.475774,0.643757,0
2024-12-11 21:03:32.204,0.768395,1.35254,11.0345,0.63719,0.459892,0.684683,0
2024-12-11 21:03:32.206,0.905085,1.35254,10.838,0.63719,0.459892,0.684683,0
2024-12-11 21:03:32.208,1.0008,1.35733,10.6442,0.670176,0.45134,0.698733,0
2024-12-11 21:03:32.211,1.09412,1.37408,10.4408,0.703162,0.441566,0.70362,0
2024-12-11 21:03:32.215,1.26401,1.41266,10.0337,0.753862,0.417743,0.702398,0
2024-12-11 21:03:32.215,1.26401,1.41266,10.0337,0.753862,0.417743,0.702398,0
2024-12-11 21:03:32.217,1.34058,1.41266,9.83031,0.775852,0.403694,0.694457,0
2024-12-11 21:03:32.221,1.42463,1.41027,9.64098,0.80273,0.374984,0.665136,0
2024-12-11 21:03:32.224,1.57777,1.38844,9.2677,0.813725,0.356048,0.644978,0
2024-12-11 21:03:32.227,1.61127,1.37647,9.09273,0.819833,0.333446,0.619323,0
2024-12-11 21:03:32.228,1.61127,1.37647,9.09273,0.827164,0.308401,0.591835,0
2024-12-11 21:03:32.229,1.61605,1.3669,8.94437,0.827164,0.308401,0.591835,0
2024-12-11 21:03:32.234,1.62084,1.33101,8.65454,0.830218,0.24976,0.530139,0
2024-12-11 21:03:32.235,1.62084,1.33101,8.65454,0.830218,0.217385,0.493488,0
2024-12-11 21:03:32.236,1.60648,1.30708,8.50858,0.830218,0.217385,0.493488,0
2024-12-11 21:03:32.240,1.58973,1.27358,8.38415,0.824109,0.183789,0.460502,0
2024-12-11 21:03:32.243,1.55384,1.19222,8.14965,0.814336,0.113541,0.385979,0
2024-12-11 21:03:32.244,1.51077,1.19222,8.14965,0.814336,0.113541,0.385979,0
2024-12-11 21:03:32.248,1.39083,1.12522,7.95075,0.797232,0.0396287,0.318175,0
2024-12-11 21:03:32.251,1.32144,1.07498,7.84068,0.772798,-0.033673,0.254647,0
2024-12-11 21:03:32.251,1.32144,1.07498,7.84068,0.772798,-0.033673,0.254647,0
2024-12-11 21:03:32.253,1.24965,1.01994,7.73061,0.772798,-0.033673,0.254647,0
2024-12-11 21:03:32.255,1.16112,0.984048,7.64926,0.751418,-0.0636045,0.228381,0
2024-12-11 21:03:32.258,1.05823,0.945763,7.58465,0.737369,-0.0984228,0.203947,0
2024-12-11 21:03:32.260,0.96012,0.902692,7.51496,0.720876,-0.125911,0.181345,0
2024-12-11 21:03:32.262,0.869193,0.847657,7.45514,0.70194,-0.155842,0.164242,0
2024-12-11 21:03:32.264,0.773181,0.787538,7.41925,0.681782,-0.179665,0.151414,0
2024-12-11 21:03:32.267,0.710967,0.744467,7.38575,0.662846,-0.204099,0.138586,0
2024-12-11 21:03:32.270,0.660718,0.691825,7.35225,0.623751,-0.251745,0.116595,0
2024-12-11 21:03:32.271,0.598505,0.651147,7.32832,0.623751,-0.251745,0.116595,0
2024-12-11 21:03:32.274,0.538684,0.617647,7.32832,0.604815,-0.271903,0.11232,0
2024-12-11 21:03:32.277,0.488435,0.579362,7.32593,0.563888,-0.306722,0.103157,0
2024-12-11 21:03:32.281,0.440578,0.545863,7.32353,0.544952,-0.321382,0.0982701,0
2024-12-11 21:03:32.281,0.440578,0.545863,7.32353,0.544952,-0.321382,0.0982701,0
2024-12-11 21:03:32.283,0.438186,0.521934,7.33789,0.527848,-0.334821,0.0952158,0
2024-12-11 21:03:32.287,0.428614,0.514756,7.3355,0.508301,-0.345816,0.0897182,0
2024-12-11 21:03:32.290,0.419043,0.538684,7.33789,0.466153,-0.355589,0.0799446,0
2024-12-11 21:03:32.290,0.419043,0.538684,7.33789,0.466153,-0.355589,0.0799446,0
2024-12-11 21:03:32.294,0.426222,0.548256,7.35225,0.424615,-0.355589,0.066506,0
2024-12-11 21:03:32.295,0.419043,0.557827,7.35225,0.424615,-0.355589,0.066506,0
2024-12-11 21:03:32.297,0.395115,0.581755,7.35225,0.401403,-0.350703,0.058565,0
2024-12-11 21:03:32.300,0.366401,0.624826,7.34507,0.380023,-0.347038,0.0481806,0
2024-12-11 21:03:32.304,0.320937,0.706182,7.39053,0.336042,-0.330545,0.0292443,0
2024-12-11 21:03:32.309,0.256032,0.777966,7.436,0.291451,-0.310387,0.00847551,0
2024-12-11 21:03:32.309,0.256032,0.777966,7.436,0.291451,-0.310387,0.00847551,0
2024-12-11 21:03:32.309,0.256032,0.777966,7.436,0.291451,-0.310387,0.00847551,0
2024-12-11 21:03:32.313,0.227318,0.821037,7.45753,0.249913,-0.289618,-0.0165692,0
2024-12-11 21:03:32.315,0.208176,0.859622,7.47667,0.226701,-0.277401,-0.0287862,0
2024-12-11 21:03:32.317,0.196211,0.88355,7.50539,0.206543,-0.264573,-0.0428357,0
2024-12-11 21:03:32.319,0.179462,0.919442,7.54367,0.206543,-0.264573,-0.0428357,0
2024-12-11 21:03:32.322,0.157926,0.948156,7.58465,0.164394,-0.238307,-0.0709346,0
2024-12-11 21:03:32.324,0.141177,0.969691,7.60858,0.143625,-0.222425,-0.085595,0
2024-12-11 21:03:32.326,0.119641,1.01276,7.63968,0.143625,-0.222425,-0.085595,0
2024-12-11 21:03:32.328,0.0765703,1.02951,7.67318,0.123468,-0.204099,-0.0996445,0
2024-12-11 21:03:32.331,0.0311067,1.04626,7.7019,0.100866,-0.185774,-0.112472,0
2024-12-11 21:03:32.333,-0.0119641,1.08933,7.733,0.0788757,-0.166838,-0.122857,0
2024-12-11 21:03:32.335,-0.0598206,1.1324,7.75693,0.0599394,-0.144847,-0.136906,0
2024-12-11 21:03:32.338,-0.107677,1.15872,7.79522,0.0385597,-0.120413,-0.14668,0
2024-12-11 21:03:32.340,-0.160319,1.18983,7.83111,0.0165692,-0.101477,-0.155842,0
2024-12-11 21:03:32.342,-0.208176,1.23051,7.84786,7.63559e-05,-0.0794865,-0.162562,0
2024-12-11 21:03:32.345,-0.260818,1.25444,7.87897,7.63559e-05,-0.0794865,-0.162562,0
2024-12-11 21:03:32.347,-0.316152,1.27358,7.92204,-0.0445155,-0.0391706,-0.172335,0
2024-12-11 21:03:32.349,-0.368794,1.28076,7.96032,-0.0640626,-0.021456,-0.176611,0
2024-12-11 21:03:32.352,-0.409472,1.28554,8.00339,-0.0842206,-0.00435229,-0.177833,0
2024-12-11 21:03:32.354,-0.447757,1.30708,8.068,-0.101324,0.010308,-0.176611,0
2024-12-11 21:03:32.356,-0.490828,1.31904,8.14248,-0.116595,0.0243575,-0.174779,0
2024-12-11 21:03:32.360,-0.524327,1.32144,8.19273,-0.147138,0.0432938,-0.167449,0
2024-12-11 21:03:32.361,-0.553041,1.33101,8.26212,-0.147138,0.0432938,-0.167449,0
2024-12-11 21:03:32.363,-0.579362,1.32861,8.35304,-0.159355,0.050624,-0.162562,0
2024-12-11 21:03:32.366,-0.586541,1.32622,8.42483,-0.169128,0.0542891,-0.155842,0
2024-12-11 21:03:32.369,-0.591326,1.33101,8.49183,-0.179513,0.0610084,-0.141793,0
2024-12-11 21:03:32.371,-0.612862,1.34058,8.57318,-0.179513,0.0610084,-0.141793,0
2024-12-11 21:03:32.373,-0.63679,1.36451,8.64736,-0.183789,0.0634518,-0.133241,0
2024-12-11 21:03:32.375,-0.655932,1.38604,8.69283,-0.18501,0.0634518,-0.126522,0
2024-12-11 21:03:32.380,-0.677468,1.42223,8.78884,-0.183178,0.0597867,-0.105753,0
2024-12-11 21:03:32.380,-0.677468,1.42223,8.78884,-0.183178,0.0597867,-0.105753,0
2024-12-11 21:03:32.382,-0.689432,1.42223,8.86302,-0.178902,0.0567324,-0.0965902,0
2024-12-11 21:03:32.385,-0.696611,1.41506,8.91566,-0.174015,0.050624,-0.0862058,0
2024-12-11 21:03:32.388,-0.687039,1.42223,8.96112,-0.158744,0.0310769,-0.0617719,0
2024-12-11 21:03:32.390,-0.682254,1.43181,9.02812,-0.146527,0.0213033,-0.0477224,0
2024-12-11 21:03:32.394,-0.677468,1.45334,9.16212,-0.13431,0.00908635,-0.0348946,0
2024-12-11 21:03:32.396,-0.677468,1.45334,9.16212,-0.122704,-0.00251974,-0.0202343,0
2024-12-11 21:03:32.397,-0.677468,1.45573,9.2339,-0.122704,-0.00251974,-0.0202343,0
2024-12-11 21:03:32.399,-0.665504,1.4677,9.28924,-0.1056,-0.0147367,-0.00679568,0
2024-12-11 21:03:32.403,-0.667897,1.51316,9.38495,-0.0695602,-0.0397814,0.022525,0
2024-12-11 21:03:32.404,-0.667897,1.51316,9.38495,-0.0695602,-0.0397814,0.022525,0
2024-12-11 21:03:32.407,-0.665504,1.52034,9.40409,-0.0286335,-0.0562743,0.0548999,0
2024-12-11 21:03:32.409,-0.667897,1.52991,9.41606,-0.00542127,-0.0611611,0.0683385,0
2024-12-11 21:03:32.414,-0.672682,1.61366,9.39931,0.0177909,-0.065437,0.086664,0
2024-12-11 21:03:32.414,-0.672682,1.61366,9.39931,0.0177909,-0.065437,0.086664,0
2024-12-11 21:03:32.415,-0.655932,1.63998,9.37299,0.0403923,-0.0672696,0.102546,0
2024-12-11 21:03:32.419,-0.651147,1.68066,9.32274,0.0880384,-0.0617719,0.134921,0
2024-12-11 21:03:32.420,-0.651147,1.70937,9.25065,0.0880384,-0.0617719,0.134921,0
2024-12-11 21:03:32.423,-0.62004,1.73569,9.18365,0.128965,-0.0532201,0.166074,0
2024-12-11 21:03:32.425,-0.567398,1.7668,9.09751,0.128965,-0.0532201,0.166074,0
2024-12-11 21:03:32.428,-0.52672,1.79312,9.00419,0.162562,-0.0361163,0.194173,0
2024-12-11 21:03:32.429,-0.488435,1.82662,8.9013,0.162562,-0.0361163,0.194173,0
2024-12-11 21:03:32.432,-0.442971,1.84816,8.79123,0.177833,-0.0263428,0.204557,0
2024-12-11 21:03:32.436,-0.352044,1.94626,8.54686,0.193104,0.00481042,0.224105,0
2024-12-11 21:03:32.436,-0.352044,1.94626,8.54686,0.193104,0.00481042,0.224105,0
2024-12-11 21:03:32.439,-0.320937,2.00399,8.42722,0.202878,0.0261901,0.230824,0
2024-12-11 21:03:32.442,-0.289831,2.06381,8.31237,0.207764,0.0713928,0.246706,0
2024-12-11 21:03:32.446,-0.258425,2.18345,8.08236,0.206543,0.0976592,0.254036,0
2024-12-11 21:03:32.446,-0.258425,2.18345,8.08236,0.206543,0.0976592,0.254036,0
2024-12-11 21:03:32.448,-0.224925,2.23849,7.96989,0.205932,0.127591,0.260755,0
2024-12-11 21:03:32.452,-0.193819,2.28634,7.867,0.198602,0.180124,0.272972,0
2024-12-11 21:03:32.454,-0.174676,2.34138,7.77368,0.194326,0.204557,0.27847,0
2024-12-11 21:03:32.455,-0.138784,2.39641,7.67797,0.194326,0.204557,0.27847,0
2024-12-11 21:03:32.459,-0.102891,2.43709,7.58704,0.183941,0.253425,0.280303,0
2024-12-11 21:03:32.461,-0.0598206,2.4658,7.49582,0.177833,0.274194,0.281524,0
2024-12-11 21:03:32.465,0.0550349,2.50648,7.28286,0.169892,0.294352,0.277248,0
2024-12-11 21:03:32.467,0.0981057,2.53789,7.168,0.158897,0.312677,0.273583,0
2024-12-11 21:03:32.468,0.0981057,2.53789,7.168,0.158897,0.312677,0.273583,0
2024-12-11 21:03:32.469,0.138784,2.57857,7.08904,0.148512,0.324894,0.268696,0
2024-12-11 21:03:32.472,0.16989,2.60967,7.03161,0.136295,0.335279,0.265031,0
2024-12-11 21:03:32.474,0.191426,2.65514,6.97388,0.122857,0.341387,0.25648,0
2024-12-11 21:03:32.479,0.20339,2.75324,6.86381,0.0965902,0.348107,0.239376,0
2024-12-11 21:03:32.480,0.20339,2.75324,6.86381,0.0825407,0.346885,0.233267,0
2024-12-11 21:03:32.481,0.20339,2.79392,6.81356,0.0825407,0.346885,0.233267,0
2024-12-11 21:03:32.483,0.208176,2.84417,6.78246,0.0684913,0.346274,0.223494,0
2024-12-11 21:03:32.487,0.205783,2.8992,6.77288,0.0599394,0.34322,0.217385,0
2024-12-11 21:03:32.488,0.215354,2.92313,6.75853,0.0477224,0.337722,0.213109,0
2024-12-11 21:03:32.491,0.241675,2.94945,6.76331,0.037338,0.32917,0.205168,0
2024-12-11 21:03:32.494,0.270389,2.98056,6.78006,0.0232886,0.302904,0.189286,0
2024-12-11 21:03:32.495,0.299402,3.00449,6.79681,0.0232886,0.302904,0.189286,0
2024-12-11 21:03:32.498,0.344866,3.01406,6.83031,0.0177909,0.284578,0.181345,0
2024-12-11 21:03:32.500,0.387936,3.01645,6.87099,0.0129041,0.26381,0.168517,0
2024-12-11 21:03:32.502,0.41665,3.04517,6.91645,0.00923906,0.238154,0.156911,0
2024-12-11 21:03:32.505,0.438186,3.07627,6.97388,0.00923906,0.238154,0.156911,0
2024-12-11 21:03:32.508,0.469292,3.11486,7.034,0.00801737,0.187454,0.133088,0
2024-12-11 21:03:32.509,0.505185,3.15314,7.08664,0.00801737,0.187454,0.133088,0
2024-12-11 21:03:32.513,0.512363,3.18903,7.14646,0.0257319,0.114763,0.0909399,0
2024-12-11 21:03:32.515,0.507577,3.23928,7.20389,0.0257319,0.114763,0.0909399,0
2024-12-11 21:03:32.516,0.490828,3.268,7.25414,0.0342838,0.0927724,0.0756687,0
2024-12-11 21:03:32.519,0.457328,3.29432,7.2996,0.041614,0.0713928,0.0652843,0
2024-12-11 21:03:32.521,0.41665,3.33739,7.33789,0.0538309,0.050624,0.0524565,0
2024-12-11 21:03:32.525,0.385544,3.35892,7.3666,0.0770431,0.0115297,0.0261901,0
2024-12-11 21:03:32.527,0.366401,3.37328,7.38335,0.0880384,-0.00740652,0.0182491,0
2024-12-11 21:03:32.529,0.342473,3.40917,7.4001,0.100255,-0.0281753,0.00603212,0
2024-12-11 21:03:32.532,0.299402,3.44985,7.42642,0.100255,-0.0281753,0.00603212,0
2024-12-11 21:03:32.535,0.258425,3.49532,7.39292,0.120413,-0.0599394,-0.0141258,0
2024-12-11 21:03:32.535,0.234497,3.49532,7.39292,0.120413,-0.0599394,-0.0141258,0
2024-12-11 21:03:32.540,0.167498,3.55274,7.34507,0.13263,-0.0917034,-0.0312296,0
2024-12-11 21:03:32.540,0.167498,3.55274,7.34507,0.13263,-0.0917034,-0.0312296,0
2024-12-11 21:03:32.546,0.0885344,3.58624,7.27807,0.136295,-0.118581,-0.0489441,0
2024-12-11 21:03:32.546,0.0885344,3.58624,7.27807,0.136295,-0.118581,-0.0489441,0
2024-12-11 21:03:32.547,0.0550349,3.61017,7.25893,0.133852,-0.135074,-0.0562743,0
2024-12-11 21:03:32.549,0.026321,3.62214,7.24457,0.132019,-0.14668,-0.0623828,0
2024-12-11 21:03:32.558,-0.0430708,3.70379,7.25175,0.0996445,-0.19738,-0.0770431,0
2024-12-11 21:03:32.560,-0.107677,3.77557,7.32114,0.0874275,-0.207154,-0.077654,0
2024-12-11 21:03:32.560,-0.107677,3.77557,7.32114,0.0874275,-0.207154,-0.077654,0
2024-12-11 21:03:32.561,-0.143569,3.82822,7.37857,0.0874275,-0.207154,-0.077654,0
2024-12-11 21:03:32.561,-0.143569,3.82822,7.37857,0.0874275,-0.207154,-0.077654,0
2024-12-11 21:03:32.564,-0.174676,3.88325,7.45035,0.0764323,-0.213873,-0.0764323,0
2024-12-11 21:03:32.569,-0.200997,3.97657,7.64926,0.0452791,-0.229144,-0.073378,0
2024-12-11 21:03:32.569,-0.200997,3.97657,7.64926,0.0452791,-0.229144,-0.073378,0
2024-12-11 21:03:32.571,-0.222533,4.02921,7.74736,0.0452791,-0.229144,-0.073378,0
2024-12-11 21:03:32.573,-0.222533,4.07707,7.84307,0.0361163,-0.234031,-0.0721563,0
2024-12-11 21:03:32.578,-0.229711,4.17518,8.04886,0.0184018,-0.234642,-0.0709346,0
2024-12-11 21:03:32.578,-0.229711,4.17518,8.04886,0.0184018,-0.234642,-0.0709346,0
2024-12-11 21:03:32.581,-0.224925,4.24487,8.15444,0.0104608,-0.230977,-0.0703238,0
2024-12-11 21:03:32.582,-0.212961,4.28076,8.24537,0.00740652,-0.226701,-0.0703238,0
2024-12-11 21:03:32.587,-0.222533,4.38126,8.41287,-0.00725381,-0.219371,-0.0721563,0
2024-12-11 21:03:32.587,-0.222533,4.38126,8.41287,-0.00725381,-0.219371,-0.0721563,0
2024-12-11 21:03:32.589,-0.210568,4.42911,8.50379,-0.0127514,-0.217538,-0.0727672,0
2024-12-11 21:03:32.592,-0.189033,4.46022,8.59233,-0.0200816,-0.215705,-0.0782648,0
2024-12-11 21:03:32.594,-0.172283,4.47936,8.65693,-0.0292443,-0.219371,-0.0807082,0
2024-12-11 21:03:32.598,-0.162712,4.52004,8.72184,-0.0518457,-0.225479,-0.0910926,0
2024-12-11 21:03:32.600,-0.143569,4.56551,8.79123,-0.0603975,-0.229755,-0.0972011,0
2024-12-11 21:03:32.602,-0.124427,4.61815,8.85105,-0.0732253,-0.235253,-0.106364,0
2024-12-11 21:03:32.604,-0.102891,4.65643,8.93241,-0.0732253,-0.235253,-0.106364,0
2024-12-11 21:03:32.606,-0.0789631,4.6995,9.01376,-0.0854423,-0.24075,-0.114916,0
2024-12-11 21:03:32.608,-0.0598206,4.74257,9.09751,-0.0854423,-0.24075,-0.114916,0
2024-12-11 21:03:32.612,-0.0430708,4.78594,9.19322,-0.125147,-0.268238,-0.145458,0
2024-12-11 21:03:32.614,-0.0334995,4.8338,9.30359,-0.142251,-0.281066,-0.157675,0
2024-12-11 21:03:32.616,-0.0287139,4.86491,9.4352,-0.142251,-0.281066,-0.157675,0
2024-12-11 21:03:32.618,-0.0143569,4.89841,9.56441,-0.156301,-0.29817,-0.170503,0
2024-12-11 21:03:32.620,0.0,4.92712,9.69602,-0.171572,-0.316495,-0.182109,0
2024-12-11 21:03:32.625,0.00957129,4.97258,10.005,-0.200892,-0.351314,-0.206543,0
2024-12-11 21:03:32.627,0.0215354,4.99651,10.1845,-0.212498,-0.369639,-0.219981,0
2024-12-11 21:03:32.627,0.0215354,4.99651,10.1845,-0.212498,-0.369639,-0.219981,0
2024-12-11 21:03:32.631,0.0430708,5.01326,10.3687,-0.229602,-0.405679,-0.246248,0
2024-12-11 21:03:32.632,0.0861416,5.04437,10.558,-0.229602,-0.405679,-0.246248,0
2024-12-11 21:03:32.635,0.131605,5.06112,10.7518,-0.239987,-0.439276,-0.271903,0
2024-12-11 21:03:32.637,0.179462,5.04676,10.9555,-0.239987,-0.439276,-0.271903,0
2024-12-11 21:03:32.639,0.248854,5.04915,11.1517,-0.243041,-0.459433,-0.285953,0
2024-12-11 21:03:32.641,0.328116,5.02283,11.3264,-0.239987,-0.478981,-0.301835,0
2024-12-11 21:03:32.645,0.392722,4.97737,11.4963,-0.238154,-0.518686,-0.332377,0
2024-12-11 21:03:32.648,0.524327,4.86491,11.8292,-0.235711,-0.541287,-0.348259,0
2024-12-11 21:03:32.649,0.524327,4.86491,11.8292,-0.235711,-0.541287,-0.348259,0
2024-12-11 21:03:32.652,0.569791,4.78834,12.0015,-0.2351,-0.563278,-0.365974,0
2024-12-11 21:03:32.653,0.60329,4.7354,12.1741,-0.233878,-0.58649,-0.381245,0
2024-12-11 21:03:32.658,0.629611,4.65643,12.5713,-0.230213,-0.639023,-0.413009,0
2024-12-11 21:03:32.659,0.629611,4.65643,12.5713,-0.230213,-0.639023,-0.413009,0
2024-12-11 21:03:32.663,0.624826,4.57986,12.976,-0.225937,-0.689723,-0.438054,0
2024-12-11 21:03:32.663,0.624826,4.57986,12.976,-0.225937,-0.689723,-0.438054,0
2024-12-11 21:03:32.667,0.565005,4.50568,13.3926,-0.217996,-0.731871,-0.451492,0
2024-12-11 21:03:32.667,0.565005,4.50568,13.3926,-0.217996,-0.731871,-0.451492,0
2024-12-11 21:03:32.670,0.519542,4.49372,13.5936,-0.212498,-0.75264,-0.45699,0
2024-12-11 21:03:32.673,0.474078,4.46501,13.7901,-0.203336,-0.766079,-0.460655,0
2024-12-11 21:03:32.677,0.419043,4.38365,14.1682,-0.186843,-0.783793,-0.458212,0
2024-12-11 21:03:32.677,0.419043,4.38365,14.1682,-0.186843,-0.783793,-0.458212,0
2024-12-11 21:03:32.679,0.375972,4.34537,14.3312,-0.174626,-0.78135,-0.451492,0
2024-12-11 21:03:32.682,0.304188,4.32383,14.458,-0.163631,-0.774631,-0.445995,0
2024-12-11 21:03:32.685,0.239282,4.32383,14.5609,-0.135532,-0.733093,-0.424004,0
2024-12-11 21:03:32.687,0.167498,4.35015,14.6184,-0.123315,-0.699496,-0.40629,0
2024-12-11 21:03:32.688,0.0741775,4.37887,14.6471,-0.123315,-0.699496,-0.40629,0
2024-12-11 21:03:32.691,-0.00717847,4.41954,14.6495,-0.115374,-0.662235,-0.390408,0
2024-12-11 21:03:32.693,-0.0502493,4.47697,14.6016,-0.104989,-0.620697,-0.368417,0
2024-12-11 21:03:32.695,-0.0717847,4.50329,14.5035,-0.101935,-0.581603,-0.345816,0
2024-12-11 21:03:32.699,-0.0574277,4.5009,14.3958,-0.104989,-0.545563,-0.321382,0
2024-12-11 21:03:32.700,0.0119641,4.49851,14.2639,-0.111098,-0.516853,-0.300613,0
2024-12-11 21:03:32.706,0.234497,4.44586,14.0127,-0.169739,-0.468596,-0.259686,0
2024-12-11 21:03:32.706,0.234497,4.44586,14.0127,-0.169739,-0.468596,-0.259686,0
2024-12-11 21:03:32.708,0.380758,4.41715,13.9122,-0.200282,-0.464931,-0.254189,0
2024-12-11 21:03:32.710,0.521934,4.39083,13.8117,-0.200282,-0.464931,-0.254189,0
2024-12-11 21:03:32.713,0.691825,4.36451,13.7372,-0.230213,-0.463709,-0.253578,0
2024-12-11 21:03:32.714,0.859622,4.35254,13.7085,-0.267475,-0.464931,-0.256021,0
2024-12-11 21:03:32.718,1.01037,4.34537,13.7109,-0.305958,-0.468596,-0.26213,0
2024-12-11 21:03:32.719,1.17547,4.33579,13.7468,-0.34322,-0.469207,-0.271293,0
2024-12-11 21:03:32.722,1.34776,4.32862,13.8284,-0.378649,-0.469818,-0.283509,0
2024-12-11 21:03:32.725,1.51316,4.31187,13.9505,-0.414078,-0.47165,-0.298781,0
2024-12-11 21:03:32.726,1.65673,4.31426,14.0821,-0.446453,-0.467985,-0.315884,0
2024-12-11 21:03:32.728,1.7668,4.32144,14.2256,-0.476385,-0.460655,-0.332988,0
2024-12-11 21:03:32.733,1.97767,4.29033,14.5514,-0.514257,-0.433778,-0.378191,0
2024-12-11 21:03:32.733,1.97767,4.29033,14.5514,-0.514257,-0.433778,-0.378191,0
2024-12-11 21:03:32.736,2.04467,4.27837,14.738,-0.528307,-0.412398,-0.400181,0
2024-12-11 21:03:32.738,2.09013,4.27119,14.9154,-0.531972,-0.386132,-0.424615,0
2024-12-11 21:03:32.741,2.11645,4.24247,15.0685,-0.527696,-0.325658,-0.47165,0
2024-12-11 21:03:32.744,2.11884,4.20389,15.1929,-0.527696,-0.325658,-0.47165,0
2024-12-11 21:03:32.746,2.11167,4.16082,15.3054,-0.498986,-0.252356,-0.51441,0
2024-12-11 21:03:32.748,2.08295,4.12253,15.3963,-0.498986,-0.252356,-0.51441,0
2024-12-11 21:03:32.752,2.03031,4.06032,15.4564,-0.454394,-0.188217,-0.549228,1
2024-12-11 21:03:32.752,1.98485,3.95504,15.4875,-0.454394,-0.188217,-0.549228,1
2024-12-11 21:03:32.755,1.93908,3.8354,15.4756,-0.425073,-0.159507,-0.562056,0
2024-12-11 21:03:32.758,1.88644,3.71815,15.4469,-0.367043,-0.117359,-0.584657,0
2024-12-11 21:03:32.760,1.82662,3.59821,15.4011,-0.331614,-0.0996445,-0.591376,0
2024-12-11 21:03:32.762,1.75244,3.47378,15.3317,-0.331614,-0.0996445,-0.591376,0
2024-12-11 21:03:32.764,1.65912,3.3661,15.2551,-0.297406,-0.0849841,-0.595652,0
2024-12-11 21:03:32.766,1.57298,3.25843,15.1881,-0.258923,-0.0752106,-0.598096,0
2024-12-11 21:03:32.769,1.48684,3.13639,15.1259,-0.221661,-0.065437,-0.595042,0
2024-12-11 21:03:32.771,1.39561,3.02602,15.0589,-0.180734,-0.0581068,-0.590155,0
2024-12-11 21:03:32.774,1.30708,2.93988,14.9728,-0.094605,-0.0422248,-0.571219,0
2024-12-11 21:03:32.777,1.24008,2.84895,14.8962,-0.094605,-0.0422248,-0.571219,0
2024-12-11 21:03:32.778,1.1683,2.75563,14.8265,-0.0500131,-0.0330621,-0.558391,0
2024-12-11 21:03:32.780,1.07976,2.66949,14.7356,7.63559e-05,-0.0184018,-0.544952,0
2024-12-11 21:03:32.783,1.0008,2.59771,14.6447,0.0519984,0.00236703,-0.527238,0
2024-12-11 21:03:32.785,0.921835,2.5331,14.5346,0.104531,0.0268009,-0.50769,0
2024-12-11 21:03:32.787,0.84018,2.47059,14.403,0.160729,0.0591758,-0.487532,0
2024-12-11 21:03:32.790,0.749253,2.40598,14.2567,0.219981,0.0970484,-0.46432,0
2024-12-11 21:03:32.792,0.658325,2.33898,14.0749,0.281677,0.142862,-0.439276,0
2024-12-11 21:03:32.795,0.555434,2.28156,13.8523,0.340929,0.187454,-0.410566,0
2024-12-11 21:03:32.799,0.294616,2.15234,13.3854,0.464931,0.288244,-0.352535,0
2024-12-11 21:03:32.800,0.294616,2.15234,13.3854,0.523572,0.339555,-0.321382,0
2024-12-11 21:03:32.802,0.145962,2.11167,13.0956,0.523572,0.339555,-0.321382,0
2024-12-11 21:03:32.806,-0.157926,2.04467,12.4708,0.641466,0.436679,-0.251135,0
2024-12-11 21:03:32.809,-0.299402,2.00877,12.143,0.698275,0.477606,-0.216316,0
2024-12-11 21:03:32.809,-0.299402,2.00877,12.143,0.698275,0.477606,-0.216316,0
2024-12-11 21:03:32.811,-0.421436,1.97528,11.8173,0.752029,0.514868,-0.176611,0
2024-12-11 21:03:32.814,-0.524327,1.95105,11.4867,0.852208,0.570455,-0.0959794,0
2024-12-11 21:03:32.817,-0.588933,1.93669,11.135,0.852208,0.570455,-0.0959794,0
2024-12-11 21:03:32.818,-0.639183,1.90319,10.7782,0.895578,0.58878,-0.0587177,0
2024-12-11 21:03:32.820,-0.665504,1.86969,10.4264,0.935894,0.597943,-0.021456,0
2024-12-11 21:03:32.823,-0.660718,1.84576,10.0887,0.972545,0.600997,0.0158057,0
2024-12-11 21:03:32.827,-0.548256,1.77876,9.40648,1.02996,0.593667,0.0817772,0
2024-12-11 21:03:32.827,-0.548256,1.77876,9.40648,1.02996,0.593667,0.0817772,0
2024-12-11 21:03:32.830,-0.514756,1.75005,9.06641,1.04951,0.579618,0.111709,0
2024-12-11 21:03:32.832,-0.476471,1.73569,8.7362,1.06417,0.563736,0.137364,0
2024-12-11 21:03:32.834,-0.419043,1.73569,8.41287,1.07395,0.544189,0.162409,0
2024-12-11 21:03:32.838,-0.380758,1.70937,8.09432,1.07883,0.517922,0.18501,0
2024-12-11 21:03:32.839,-0.352044,1.69262,7.80718,1.07883,0.488601,0.205168,0
2024-12-11 21:03:32.842,-0.328116,1.71655,7.53889,1.07333,0.459892,0.224105,0
2024-12-11 21:03:32.846,-0.260818,1.74048,7.10339,1.05012,0.389033,0.255258,0
2024-12-11 21:03:32.847,-0.260818,1.74048,7.10339,1.05012,0.389033,0.255258,0
2024-12-11 21:03:32.852,-0.165105,1.81226,6.74417,1.03363,0.35055,0.269918,0
2024-12-11 21:03:32.853,-0.112463,1.85773,6.59342,0.991481,0.269918,0.292519,0
2024-12-11 21:03:32.856,-0.0598206,1.88166,6.46182,0.965215,0.223494,0.301071,0
2024-12-11 21:03:32.858,-0.00478565,1.89601,6.33948,0.965215,0.223494,0.301071,0
2024-12-11 21:03:32.863,0.100499,1.90798,6.1002,0.876642,0.090329,0.313288,0
2024-12-11 21:03:32.867,0.246461,1.91516,5.94706,0.807006,0.000534491,0.312067,0
2024-12-11 21:03:32.870,0.335294,1.92473,5.91356,0.772798,-0.0434465,0.305347,0
2024-12-11 21:03:32.870,0.335294,1.92473,5.91356,0.772798,-0.0434465,0.305347,0
2024-12-11 21:03:32.871,0.335294,1.92473,5.91356,0.772798,-0.0434465,0.305347,0
2024-12-11 21:03:32.872,0.414257,1.9343,5.87976,0.772798,-0.0434465,0.305347,0
2024-12-11 21:03:32.873,0.414257,1.9343,5.87976,0.696442,-0.124078,0.282746,0
2024-12-11 21:03:32.875,0.490828,1.9343,5.84148,0.696442,-0.124078,0.282746,0
2024-12-11 21:03:32.877,0.586541,1.93908,5.82234,0.659791,-0.160118,0.269918,0
2024-12-11 21:03:32.880,0.651147,1.93908,5.81994,0.57916,-0.222425,0.236322,0
2024-12-11 21:03:32.882,0.687039,1.92233,5.82951,0.57916,-0.222425,0.236322,0
2024-12-11 21:03:32.884,0.727717,1.91994,5.82712,0.540065,-0.24808,0.217996,0
2024-12-11 21:03:32.887,0.770788,1.91276,5.84387,0.461266,-0.29817,0.17768,0
2024-12-11 21:03:32.889,0.821037,1.89362,5.89442,0.461266,-0.29817,0.17768,0
2024-12-11 21:03:32.891,0.857229,1.86969,5.94945,0.425837,-0.318328,0.157522,0
2024-12-11 21:03:32.893,0.895514,1.86491,5.99013,0.389186,-0.337264,0.137364,0
2024-12-11 21:03:32.897,0.940978,1.85773,6.0356,0.314052,-0.359255,0.0958267,0
2024-12-11 21:03:32.899,0.988834,1.85533,6.10977,0.281066,-0.362309,0.0732253,0
2024-12-11 21:03:32.900,1.04865,1.87687,6.17917,0.281066,-0.362309,0.0732253,0
2024-12-11 21:03:32.904,1.09173,1.88644,6.24856,0.250524,-0.361698,0.050624,0
2024-12-11 21:03:32.908,1.05823,1.84337,6.41845,0.192493,-0.361087,0.0133623,0
2024-12-11 21:03:32.908,1.05823,1.84337,6.41845,0.192493,-0.361087,0.0133623,0
2024-12-11 21:03:32.910,1.01037,1.85294,6.5001,0.168059,-0.3562,-0.00129805,0
2024-12-11 21:03:32.912,0.967299,1.85533,6.57907,0.144847,-0.349481,-0.0153475,0
2024-12-11 21:03:32.916,0.936192,1.84816,6.64846,0.11064,-0.320771,-0.0361163,0
2024-12-11 21:03:32.917,0.921835,1.85294,6.71067,0.11064,-0.320771,-0.0361163,0
2024-12-11 21:03:32.919,0.921835,1.83859,6.77528,0.0947577,-0.302446,-0.0446682,0
2024-12-11 21:03:32.922,0.921835,1.82184,6.83271,0.0831516,-0.281066,-0.0538309,0
2024-12-11 21:03:32.925,0.919442,1.81705,6.88295,0.0666587,-0.239528,-0.0672696,0
2024-12-11 21:03:32.926,0.893121,1.79791,6.92602,0.0666587,-0.239528,-0.0672696,0
2024-12-11 21:03:32.930,0.8668,1.78834,6.95474,0.0599394,-0.214484,-0.0727672,0
2024-12-11 21:03:32.931,0.859622,1.78355,6.97388,0.0532201,-0.193104,-0.0758214,0
2024-12-11 21:03:32.934,0.847657,1.79312,6.99781,0.0513875,-0.169892,-0.0788757,0
2024-12-11 21:03:32.937,0.84018,1.81705,7.02682,0.0507767,-0.149123,-0.0837624,0
2024-12-11 21:03:32.940,0.890728,1.84576,7.04836,0.0532201,-0.109418,-0.0886492,0
2024-12-11 21:03:32.940,0.890728,1.84576,7.04836,0.0532201,-0.109418,-0.0886492,0
2024-12-11 21:03:32.943,0.919442,1.87687,7.08664,0.0581068,-0.0868167,-0.0898709,0
2024-12-11 21:03:32.946,0.964906,1.88405,7.10818,0.065437,-0.0642153,-0.093536,0
2024-12-11 21:03:32.948,1.01515,1.88883,7.10339,0.0745997,-0.0361163,-0.0984228,0
2024-12-11 21:03:32.950,1.05105,1.89601,7.09621,0.0831516,-0.00862822,-0.10392,0
2024-12-11 21:03:32.952,1.07258,1.89601,7.07707,0.0978119,0.0213033,-0.108196,0
2024-12-11 21:03:32.956,1.08694,1.91037,7.04357,0.111861,0.0750579,-0.121024,0
2024-12-11 21:03:32.959,1.07258,1.94387,6.98585,0.1253,0.100103,-0.124689,0
2024-12-11 21:03:32.959,1.07258,1.94387,6.98585,0.1253,0.100103,-0.124689,0
2024-12-11 21:03:32.965,1.07737,1.97767,6.85185,0.152177,0.159966,-0.144236,0
2024-12-11 21:03:32.965,1.07737,1.97767,6.85185,0.152177,0.159966,-0.144236,0
2024-12-11 21:03:32.969,1.07258,2.05902,6.68674,0.157675,0.175848,-0.149734,0
2024-12-11 21:03:32.969,1.07258,2.05902,6.68674,0.157675,0.175848,-0.149734,0
2024-12-11 21:03:32.972,1.07498,2.09252,6.59821,0.162562,0.198449,-0.163173,0
2024-12-11 21:03:32.974,1.07498,2.11884,6.52403,0.162562,0.198449,-0.163173,0
2024-12-11 21:03:32.976,1.1013,2.17149,6.46421,0.165005,0.207001,-0.169892,0
2024-12-11 21:03:32.978,1.1348,2.20259,6.39452,0.166838,0.21372,-0.176611,0
2024-12-11 21:03:32.981,1.15394,2.21934,6.32273,0.165616,0.217996,-0.185163,0
2024-12-11 21:03:32.984,1.17308,2.24566,6.27488,0.164394,0.216164,-0.205932,0
2024-12-11 21:03:32.985,1.18983,2.27916,6.22702,0.164394,0.216164,-0.205932,0
2024-12-11 21:03:32.988,1.2018,2.3007,6.18874,0.160729,0.213109,-0.216927,0
2024-12-11 21:03:32.990,1.1994,2.31506,6.17677,0.158286,0.209444,-0.227922,0
2024-12-11 21:03:32.992,1.18744,2.32223,6.1672,0.158286,0.202725,-0.24075,0
2024-12-11 21:03:32.995,1.18744,2.33181,6.15284,0.157064,0.197227,-0.253578,0
2024-12-11 21:03:32.997,1.18505,2.35573,6.15045,0.156453,0.190508,-0.267017,0
2024-12-11 21:03:32.999,1.15633,2.37248,6.15763,0.157064,0.180734,-0.278623,0
2024-12-11 21:03:33.002,1.13001,2.38206,6.16959,0.156453,0.169739,-0.292672,0
2024-12-11 21:03:33.004,1.12044,2.39402,6.18156,0.158897,0.159355,-0.304889,0
2024-12-11 21:03:33.006,1.13001,2.39163,6.18156,0.160118,0.146527,-0.316495,0
2024-12-11 21:03:33.010,1.1348,2.39402,6.18634,0.163173,0.133088,-0.329934,0
2024-12-11 21:03:33.011,1.12522,2.38923,6.18395,0.162562,0.120261,-0.342151,0
2024-12-11 21:03:33.013,1.11087,2.38923,6.17677,0.162562,0.120261,-0.342151,0
2024-12-11 21:03:33.017,1.11087,2.38684,6.16242,0.164394,0.0799446,-0.372082,0
2024-12-11 21:03:33.019,1.10608,2.37727,6.16002,0.161951,0.0677277,-0.38491,0
2024-12-11 21:03:33.021,1.07498,2.38206,6.15284,0.161951,0.0677277,-0.38491,0
2024-12-11 21:03:33.023,1.02951,2.3988,6.15045,0.163173,0.0567324,-0.392851,0
2024-12-11 21:03:33.025,0.99362,2.40359,6.16959,0.163783,0.0518457,-0.39896,0
2024-12-11 21:03:33.028,0.96012,2.40838,6.17677,0.157675,0.0451263,-0.403236,0
2024-12-11 21:03:33.030,0.914656,2.42273,6.18395,0.157675,0.0420721,-0.408122,0
2024-12-11 21:03:33.032,0.881157,2.42752,6.19113,0.153399,0.038407,-0.411787,0
2024-12-11 21:03:33.035,0.864407,2.42991,6.21267,0.148512,0.0347419,-0.412398,0
2024-12-11 21:03:33.038,0.82343,2.44188,6.24377,0.143625,0.0359636,-0.41362,0
2024-12-11 21:03:33.039,0.787538,2.46341,6.27488,0.13935,0.0359636,-0.411177,0
2024-12-11 21:03:33.043,0.749253,2.49212,6.29402,0.124689,0.038407,-0.407511,0
2024-12-11 21:03:33.045,0.710967,2.51366,6.31316,0.119192,0.042683,-0.403846,0
2024-12-11 21:03:33.047,0.694218,2.52832,6.35145,0.119192,0.042683,-0.403846,0
2024-12-11 21:03:33.049,0.648754,2.55703,6.38256,0.109418,0.0451263,-0.397738,0
2024-12-11 21:03:33.051,0.581755,2.59053,6.40888,0.100866,0.0469589,-0.391629,0
2024-12-11 21:03:33.058,0.335294,2.74606,6.54796,0.0752106,0.0487914,-0.360476,0
2024-12-11 21:03:33.058,0.335294,2.74606,6.54796,0.0752106,0.0487914,-0.360476,0
2024-12-11 21:03:33.058,0.335294,2.74606,6.54796,0.0752106,0.0487914,-0.360476,0
2024-12-11 21:03:33.062,0.256032,2.78435,6.60539,0.0550526,0.0439046,-0.332988,0
2024-12-11 21:03:33.063,0.200997,2.80828,6.67717,0.0550526,0.0439046,-0.332988,0
2024-12-11 21:03:33.065,0.155533,2.85853,6.76331,0.0489441,0.038407,-0.317106,0
2024-12-11 21:03:33.068,0.112463,2.93031,6.86142,0.0403923,0.0341311,-0.301224,0
2024-12-11 21:03:33.070,0.0885344,2.98056,6.95235,0.0355055,0.030466,-0.285342,0
2024-12-11 21:03:33.073,0.0454636,3.03081,7.01964,0.0318404,0.0280226,-0.263962,0
2024-12-11 21:03:33.075,0.00957129,3.11486,7.08425,0.0318404,0.0280226,-0.263962,0
2024-12-11 21:03:33.078,0.0,3.20578,7.16082,0.0226777,0.0347419,-0.227922,0
2024-12-11 21:03:33.079,-0.0215354,3.27757,7.23739,0.0226777,0.0347419,-0.227922,0
2024-12-11 21:03:33.082,-0.0550349,3.34218,7.30678,0.0220669,0.046348,-0.18272,0
2024-12-11 21:03:33.084,-0.0622134,3.4331,7.37857,0.0208452,0.0536782,-0.16134,0
2024-12-11 21:03:33.086,-0.0574277,3.54317,7.44796,0.0232886,0.0640626,-0.13935,0
2024-12-11 21:03:33.089,-0.0574277,3.63649,7.51017,0.0232886,0.0738362,-0.118581,0
2024-12-11 21:03:33.091,-0.0502493,3.73729,7.57478,0.0238994,0.082388,-0.0965902,0
2024-12-11 21:03:33.095,-0.0502493,3.85932,7.63729,0.0263428,0.102546,-0.057496,0
2024-12-11 21:03:33.097,-0.0287139,3.96939,7.69711,0.0312296,0.114763,-0.0391706,0
2024-12-11 21:03:33.099,0.0191426,4.08186,7.74497,0.0300079,0.122704,-0.0226777,0
2024-12-11 21:03:33.101,0.0550349,4.2015,7.79043,0.0300079,0.122704,-0.0226777,0
2024-12-11 21:03:33.104,0.0861416,4.30708,7.81915,0.0300079,0.136753,-0.00862822,0
2024-12-11 21:03:33.105,0.11007,4.41236,7.8335,0.0306187,0.14897,0.00481042,0
2024-12-11 21:03:33.109,0.129212,4.52483,7.8359,0.0245102,0.171572,0.0243575,0
2024-12-11 21:03:33.111,0.160319,4.62054,7.82154,0.0177909,0.183789,0.0322986,0
2024-12-11 21:03:33.113,0.189033,4.70907,7.81675,0.0177909,0.183789,0.0322986,0
2024-12-11 21:03:33.115,0.212961,4.82423,7.82632,0.00984991,0.194173,0.038407,0
2024-12-11 21:03:33.119,0.22014,5.03958,7.79761,-0.0115297,0.207612,0.0475697,0
2024-12-11 21:03:33.120,0.22014,5.03958,7.79761,-0.0115297,0.207612,0.0475697,0
2024-12-11 21:03:33.124,0.172283,5.26451,7.81915,-0.0445155,0.210666,0.0524565,0
2024-12-11 21:03:33.124,0.208176,5.26451,7.81915,-0.0445155,0.210666,0.0524565,0
2024-12-11 21:03:33.128,0.114855,5.39163,7.8359,-0.0891073,0.20639,0.0542891,0
2024-12-11 21:03:33.129,0.0502493,5.51605,7.867,-0.0891073,0.20639,0.0542891,0
2024-12-11 21:03:33.131,-0.0358923,5.6357,7.89811,-0.115374,0.198449,0.0555107,0
2024-12-11 21:03:33.135,-0.112463,5.75055,7.95554,-0.164242,0.17035,0.0597867,0
2024-12-11 21:03:33.136,-0.184247,5.86301,8.05125,-0.164242,0.17035,0.0597867,0
2024-12-11 21:03:33.138,-0.267996,5.95663,8.17358,-0.192341,0.149581,0.0610084,0
2024-12-11 21:03:33.143,-0.390329,6.11934,8.41765,-0.2351,0.0964375,0.0695602,0
2024-12-11 21:03:33.144,-0.390329,6.11934,8.41765,-0.258312,0.0658951,0.0726145,0
2024-12-11 21:03:33.148,-0.431007,6.21267,8.74337,-0.274805,0.0335202,0.0732253,0
2024-12-11 21:03:33.149,-0.431007,6.21267,8.74337,-0.294352,-0.0019089,0.074447,0
2024-12-11 21:03:33.150,-0.411865,6.2342,8.94198,-0.294352,-0.0019089,0.074447,0
2024-12-11 21:03:33.152,-0.366401,6.24616,9.13101,-0.30718,-0.0367272,0.0750579,0
2024-12-11 21:03:33.156,-0.311366,6.24616,9.32513,-0.334057,-0.111251,0.0750579,0
2024-12-11 21:03:33.158,-0.246461,6.25574,9.52373,-0.34322,-0.145458,0.0738362,0
2024-12-11 21:03:33.160,-0.193819,6.2677,9.71994,-0.34322,-0.145458,0.0738362,0
2024-12-11 21:03:33.162,-0.145962,6.28924,9.91406,-0.349328,-0.176611,0.0726145,0
2024-12-11 21:03:33.165,-0.0837488,6.31556,10.1198,-0.357269,-0.234642,0.0671168,0
2024-12-11 21:03:33.168,-0.0334995,6.35623,10.3376,-0.361545,-0.26213,0.0640626,0
2024-12-11 21:03:33.170,0.0191426,6.3993,10.5461,-0.362156,-0.286564,0.0616192,0
2024-12-11 21:03:33.172,0.0789631,6.43759,10.771,-0.360324,-0.304889,0.0573433,0
2024-12-11 21:03:33.175,0.141177,6.47857,10.9938,-0.355437,-0.318939,0.0512348,0
2024-12-11 21:03:33.176,0.22014,6.51446,11.1781,-0.355437,-0.318939,0.0512348,0
2024-12-11 21:03:33.178,0.285045,6.54078,11.3599,-0.35055,-0.331156,0.046348,0
2024-12-11 21:03:33.181,0.320937,6.56949,11.5397,-0.347496,-0.337875,0.0371853,0
2024-12-11 21:03:33.185,0.385544,6.60299,11.834,-0.334668,-0.348259,0.0151948,0
2024-12-11 21:03:33.185,0.385544,6.60299,11.834,-0.334668,-0.348259,0.0151948,0
2024-12-11 21:03:33.188,0.404686,6.61017,11.968,-0.32917,-0.349481,0.00358873,0
2024-12-11 21:03:33.191,0.414257,6.59821,12.0784,-0.326727,-0.350703,-0.00984991,0
2024-12-11 21:03:33.192,0.402293,6.59103,12.1765,-0.327338,-0.353757,-0.0263428,0
2024-12-11 21:03:33.196,0.383151,6.58864,12.2698,-0.331003,-0.354368,-0.057496,0
2024-12-11 21:03:33.198,0.335294,6.58146,12.3535,-0.334668,-0.351924,-0.0721563,0
2024-12-11 21:03:33.200,0.253639,6.57667,12.4517,-0.334668,-0.351924,-0.0721563,0
2024-12-11 21:03:33.204,0.0550349,6.56949,12.7128,-0.343831,-0.343373,-0.0965902,0
2024-12-11 21:03:33.205,0.0550349,6.56949,12.7128,-0.347496,-0.336042,-0.106975,0
2024-12-11 21:03:33.208,-0.066999,6.56232,12.8731,-0.351161,-0.328101,-0.113083,0
2024-12-11 21:03:33.210,-0.217747,6.55514,13.0406,-0.353604,-0.317717,-0.114916,0
2024-12-11 21:03:33.212,-0.387936,6.53121,13.2491,-0.353604,-0.317717,-0.114916,0
2024-12-11 21:03:33.214,-0.533899,6.50728,13.5099,-0.354215,-0.309776,-0.111861,0
2024-12-11 21:03:33.216,-0.672682,6.469,13.7662,-0.349939,-0.296337,-0.105753,0
2024-12-11 21:03:33.218,-0.794716,6.40648,14.0103,-0.341387,-0.281677,-0.0972011,0
2024-12-11 21:03:33.222,-0.890728,6.3347,14.2567,-0.326116,-0.261519,-0.0837624,0
2024-12-11 21:03:33.223,-0.986441,6.25813,14.4796,-0.304736,-0.232809,-0.0672696,0
2024-12-11 21:03:33.228,-1.17069,6.07867,14.8002,-0.255258,-0.152788,-0.021456,0
2024-12-11 21:03:33.228,-1.17069,6.07867,14.8002,-0.255258,-0.152788,-0.021456,0
2024-12-11 21:03:33.233,-1.41745,5.98535,14.9489,-0.186843,-0.0483333,0.0396287,0
2024-12-11 21:03:33.233,-1.41745,5.98535,14.9489,-0.186843,-0.0483333,0.0396287,0
2024-12-11 21:03:33.235,-1.55862,5.98056,14.956,-0.152635,0.00908635,0.0775012,0
2024-12-11 21:03:33.237,-1.67827,6.0021,14.9082,-0.118428,0.0634518,0.119039,0
2024-12-11 21:03:33.240,-1.74766,6.03081,14.8002,-0.0897182,0.115374,0.167296,0
2024-12-11 21:03:33.242,-1.75962,6.04517,14.6351,-0.066506,0.161187,0.216774,0
2024-12-11 21:03:33.244,-1.71416,6.04277,14.4365,-0.0524565,0.196616,0.266253,0
2024-12-11 21:03:33.247,-1.64716,6.03081,14.228,-0.0481806,0.218607,0.312067,0
2024-12-11 21:03:33.249,-1.54427,5.9997,14.0414,-0.0494023,0.227159,0.355437,0
2024-12-11 21:03:33.251,-1.40788,5.97578,13.8906,-0.0603975,0.22105,0.394531,0
2024-12-11 21:03:33.254,-1.27597,5.97817,13.783,-0.0787229,0.198449,0.428128,0
2024-12-11 21:03:33.257,-1.10369,5.96142,13.7228,-0.133088,0.116595,0.48066,0
2024-12-11 21:03:33.259,-0.895514,5.92313,13.7324,-0.133088,0.116595,0.48066,0
2024-12-11 21:03:33.261,-0.667897,5.88455,13.7997,-0.159355,0.0610084,0.498375,0
2024-12-11 21:03:33.263,-0.411865,5.8343,13.9265,-0.159355,0.0610084,0.498375,0
2024-12-11 21:03:33.266,-0.157926,5.79123,14.0868,-0.209444,-0.0611611,0.509981,0
2024-12-11 21:03:33.268,0.102891,5.75055,14.2639,-0.228381,-0.11797,0.506927,0
2024-12-11 21:03:33.270,0.35683,5.69552,14.4867,-0.240597,-0.171114,0.500208,0
2024-12-11 21:03:33.275,0.821037,5.54716,14.9824,-0.251593,-0.264573,0.464778,0
2024-12-11 21:03:33.276,0.821037,5.54716,14.9824,-0.245484,-0.304889,0.440345,0
2024-12-11 21:03:33.278,1.03908,5.43231,15.2216,-0.22777,-0.339707,0.410413,0
2024-12-11 21:03:33.281,1.24247,5.29801,15.454,-0.208833,-0.373304,0.37926,0
2024-12-11 21:03:33.282,1.41266,5.16401,15.6742,-0.208833,-0.373304,0.37926,0
2024-12-11 21:03:33.284,1.5682,5.03001,15.8584,-0.179513,-0.400792,0.341998,0
2024-12-11 21:03:33.287,1.70219,4.87687,16.0095,-0.144084,-0.425226,0.303515,0
2024-12-11 21:03:33.289,1.77159,4.71386,16.1435,-0.108044,-0.444162,0.266864,1
2024-12-11 21:03:33.291,1.80269,4.56072,16.2368,-0.0646735,-0.457601,0.228991,0
2024-12-11 21:03:33.295,1.80269,4.40519,16.2655,0.0306187,-0.47104,0.161187,0
2024-12-11 21:03:33.296,1.76919,4.2329,16.2631,0.0306187,-0.47104,0.161187,0
2024-12-11 21:03:33.298,1.71177,4.04596,16.2272,0.081319,-0.469207,0.133699,0
2024-12-11 21:03:33.302,1.63041,3.86411,16.1459,0.131409,-0.460655,0.109265,0
2024-12-11 21:03:33.306,1.40548,3.50967,15.9015,0.234031,-0.431335,0.0707819,0
2024-12-11 21:03:33.306,1.40548,3.50967,15.9015,0.234031,-0.431335,0.0707819,0
2024-12-11 21:03:33.308,1.29512,3.33978,15.7364,0.281677,-0.409955,0.0597867,0
2024-12-11 21:03:33.310,1.20419,3.16511,15.5522,0.328101,-0.383688,0.0542891,0
2024-12-11 21:03:33.313,1.12283,2.98295,15.3461,0.370861,-0.351924,0.0512348,0
2024-12-11 21:03:33.315,1.05344,2.81785,15.1092,0.412398,-0.312219,0.0518457,0
2024-12-11 21:03:33.317,0.998405,2.66231,14.8696,0.452714,-0.266406,0.0542891,0
2024-12-11 21:03:33.320,0.931406,2.52084,14.6231,0.489365,-0.210819,0.0640626,0
2024-12-11 21:03:33.323,0.862014,2.39641,14.3934,0.52174,-0.147901,0.0738362,0
2024-12-11 21:03:33.324,0.80668,2.28156,14.1706,0.552893,-0.0745997,0.0872748,0
2024-12-11 21:03:33.328,0.74686,2.18584,13.9193,0.613367,0.0909399,0.128812,0
2024-12-11 21:03:33.329,0.670289,2.10449,13.6726,0.613367,0.0909399,0.128812,0
2024-12-11 21:03:33.331,0.576969,2.01356,13.4118,0.642077,0.189286,0.152635,0
2024-12-11 21:03:33.336,0.397508,1.83859,12.8276,0.693999,0.406748,0.211277,0
2024-12-11 21:03:33.336,0.397508,1.83859,12.8276,0.693999,0.406748,0.211277,0
2024-12-11 21:03:33.341,0.253639,1.71416,12.1621,0.741034,0.641924,0.277248,0
2024-12-11 21:03:33.341,0.253639,1.71416,12.1621,0.741034,0.641924,0.277248,0
2024-12-11 21:03:33.343,0.177069,1.65673,11.7718,0.761803,0.756153,0.312067,0
2024-12-11 21:03:33.346,0.102891,1.5993,11.3671,0.775242,0.87229,0.343831,0
2024-12-11 21:03:33.350,-0.0143569,1.56341,10.5509,0.795399,1.08792,0.409802,0
2024-12-11 21:03:33.351,-0.0143569,1.56341,10.5509,0.800897,1.1881,0.439123,0
2024-12-11 21:03:33.353,-0.0574277,1.55384,10.0983,0.800897,1.1881,0.439123,0
2024-12-11 21:03:33.356,-0.0933201,1.54905,9.63859,0.791734,1.37257,0.489823,0
2024-12-11 21:03:33.358,-0.131605,1.54427,9.17647,0.791734,1.37257,0.489823,0
2024-12-11 21:03:33.361,-0.181855,1.55623,8.7338,0.781961,1.45504,0.512424,0
2024-12-11 21:03:33.364,-0.239282,1.55145,7.89811,0.742867,1.58209,0.548464,0
2024-12-11 21:03:33.364,-0.239282,1.55145,7.89811,0.742867,1.58209,0.548464,0
2024-12-11 21:03:33.367,-0.234497,1.57537,7.51017,0.7166,1.62791,0.562514,0
2024-12-11 21:03:33.370,-0.215354,1.60648,7.15604,0.650018,1.68166,0.579618,0
2024-12-11 21:03:33.373,-0.18664,1.63759,6.81117,0.650018,1.68166,0.579618,0
2024-12-11 21:03:33.374,-0.184247,1.66391,6.47139,0.609091,1.69083,0.587559,0
2024-12-11 21:03:33.376,-0.193819,1.70459,6.17917,0.570608,1.68716,0.589391,0
2024-12-11 21:03:33.380,-0.210568,1.76919,5.91835,0.527238,1.67372,0.590613,0
2024-12-11 21:03:33.381,-0.217747,1.84337,5.6692,0.527238,1.67372,0.590613,0
2024-12-11 21:03:33.384,-0.193819,1.88405,5.45384,0.380023,1.57599,0.577174,0
2024-12-11 21:03:33.386,-0.177069,1.91994,5.28365,0.380023,1.57599,0.577174,0
2024-12-11 21:03:33.389,-0.160319,1.97767,5.14008,0.279844,1.45687,0.554573,0
2024-12-11 21:03:33.391,-0.129212,2.04227,5.02762,0.279844,1.45687,0.554573,0
2024-12-11 21:03:33.394,-0.0933201,2.08774,4.95583,0.176,1.30049,0.519755,0
2024-12-11 21:03:33.396,-0.0622134,2.11884,4.90319,0.124689,1.21131,0.500818,0
2024-12-11 21:03:33.398,-0.0550349,2.1667,4.87209,0.124689,1.21131,0.500818,0
2024-12-11 21:03:33.400,-0.0526421,2.20499,4.87926,0.0770431,1.11296,0.479439,0
2024-12-11 21:03:33.402,-0.0478565,2.24327,4.92712,0.0318404,1.0079,0.456837,0
2024-12-11 21:03:33.404,-0.0574277,2.27916,5.02523,-0.0109189,0.89428,0.431182,0
2024-12-11 21:03:33.408,-0.0598206,2.30548,5.15444,-0.0793338,0.655363,0.381092,0
2024-12-11 21:03:33.409,-0.0717847,2.32463,5.30997,-0.0793338,0.655363,0.381092,0
2024-12-11 21:03:33.413,-0.0789631,2.33659,5.4993,-0.106211,0.53075,0.352993,0
2024-12-11 21:03:33.414,-0.0646062,2.32463,5.70987,-0.126369,0.404305,0.325505,0
2024-12-11 21:03:33.416,-0.0430708,2.29113,5.91835,-0.141029,0.279692,0.299239,0
2024-12-11 21:03:33.419,-0.0143569,2.25763,6.13849,-0.146527,0.157522,0.266864,0
2024-12-11 21:03:33.421,0.0119641,2.20259,6.38016,-0.147749,0.0365745,0.239376,0
2024-12-11 21:03:33.424,0.0311067,2.13081,6.60778,-0.141029,-0.0800973,0.210055,0
2024-12-11 21:03:33.427,0.0550349,2.05185,6.81117,-0.117206,-0.293283,0.155079,0
2024-12-11 21:03:33.429,0.066999,1.9681,7.0002,-0.0976592,-0.388575,0.129423,0
2024-12-11 21:03:33.430,0.0693919,1.89123,7.17278,-0.0976592,-0.388575,0.129423,0
2024-12-11 21:03:33.433,0.0526421,1.82662,7.31157,-0.0762796,-0.47837,0.1056,0
2024-12-11 21:03:33.436,0.00478565,1.75244,7.39771,-0.0518457,-0.561445,0.0854423,0
2024-12-11 21:03:33.437,-0.0693919,1.70219,7.45514,-0.0310769,-0.630471,0.0677277,0
2024-12-11 21:03:33.441,-0.160319,1.68305,7.52932,0.0141258,-0.759359,0.0432938,0
2024-12-11 21:03:33.443,-0.224925,1.65434,7.62293,0.033673,-0.812503,0.0347419,0
2024-12-11 21:03:33.446,-0.27996,1.64716,7.68993,0.0568851,-0.858928,0.0274118,0
2024-12-11 21:03:33.447,-0.347258,1.65434,7.71147,0.0568851,-0.858928,0.0274118,0
2024-12-11 21:03:33.449,-0.404686,1.65194,7.71386,0.0758214,-0.902909,0.0243575,0
2024-12-11 21:03:33.452,-0.442971,1.63759,7.71625,0.093536,-0.935894,0.0206925,0
2024-12-11 21:03:33.455,-0.469292,1.61366,7.71386,0.11064,-0.962772,0.0206925,0
2024-12-11 21:03:33.456,-0.464507,1.61605,7.7019,0.123468,-0.979264,0.0200816,0
2024-12-11 21:03:33.459,-0.426222,1.5993,7.69472,0.133241,-0.989649,0.0243575,0
2024-12-11 21:03:33.461,-0.397508,1.57537,7.69233,0.133241,-0.989649,0.0243575,0
2024-12-11 21:03:33.463,-0.375972,1.58016,7.68036,0.155232,-0.994536,0.0261901,0
2024-12-11 21:03:33.467,-0.366401,1.58734,7.65643,0.157675,-0.989038,0.0286335,0
2024-12-11 21:03:33.468,-0.35683,1.60409,7.62533,0.165616,-0.982319,0.0329094,0
2024-12-11 21:03:33.470,-0.344866,1.63041,7.59422,0.170503,-0.968269,0.0365745,0
2024-12-11 21:03:33.473,-0.347258,1.67348,7.56521,0.172946,-0.949944,0.0408504,0
2024-12-11 21:03:33.475,-0.332901,1.71894,7.54367,0.172946,-0.927953,0.0445155,0
2024-12-11 21:03:33.478,-0.311366,1.74766,7.49821,0.169892,-0.902909,0.0494023,0
2024-12-11 21:03:33.480,-0.27996,1.78834,7.45035,0.169281,-0.872977,0.0530674,0
2024-12-11 21:03:33.482,-0.224925,1.83141,7.4025,0.164394,-0.843656,0.0573433,0
2024-12-11 21:03:33.486,-0.167498,1.87208,7.35464,0.148512,-0.777685,0.0603975,0
2024-12-11 21:03:33.488,-0.100499,1.89601,7.31396,0.13996,-0.741034,0.0597867,0
2024-12-11 21:03:33.490,-0.0311067,1.90798,7.25414,0.130187,-0.705605,0.0567324,0
2024-12-11 21:03:33.493,0.0311067,1.92951,7.17996,0.111861,-0.666511,0.0530674,0
2024-12-11 21:03:33.495,0.107677,1.94387,7.101,0.111861,-0.666511,0.0530674,0
2024-12-11 21:03:33.496,0.167498,1.95583,7.02682,0.0965902,-0.624362,0.0475697,0
2024-12-11 21:03:33.499,0.234497,1.9681,6.9691,0.0788757,-0.580381,0.0414613,0
2024-12-11 21:03:33.501,0.320937,1.98485,6.89492,0.0599394,-0.535179,0.0335202,0
2024-12-11 21:03:33.503,0.385544,2.01117,6.82313,0.0391706,-0.488143,0.022525,0
2024-12-11 21:03:33.508,0.464507,2.04467,6.71067,-0.0096972,-0.387964,0.00542127,0
2024-12-11 21:03:33.510,0.524327,2.06142,6.64846,-0.0347419,-0.335431,-0.00801737,0
2024-12-11 21:03:33.511,0.464507,2.04467,6.64846,-0.0347419,-0.335431,-0.00801737,0
2024-12-11 21:03:33.515,0.605683,2.09492,6.56949,-0.086664,-0.231587,-0.0300079,0
2024-12-11 21:03:33.516,0.605683,2.09492,6.56949,-0.086664,-0.231587,-0.0300079,0
2024-12-11 21:03:33.518,0.646361,2.12842,6.51685,-0.086664,-0.231587,-0.0300079,0
2024-12-11 21:03:33.520,0.670289,2.14277,6.48814,-0.139808,-0.124689,-0.0538309,0
2024-12-11 21:03:33.526,0.71336,2.17149,6.47378,-0.217385,0.0200816,-0.0917034,0
2024-12-11 21:03:33.527,0.732503,2.24806,6.536,-0.217385,0.0200816,-0.0917034,0
2024-12-11 21:03:33.528,0.672682,2.24806,6.536,-0.241208,0.0701711,-0.102088,0
2024-12-11 21:03:33.529,0.670289,2.19781,6.45942,-0.241208,0.0701711,-0.102088,0
2024-12-11 21:03:33.534,0.84018,2.19063,6.29402,-0.287022,0.179513,-0.127743,0
2024-12-11 21:03:33.535,0.84018,2.19063,6.29402,-0.313288,0.230824,-0.143625,0
2024-12-11 21:03:33.536,0.876371,2.2002,6.30838,-0.313288,0.230824,-0.143625,0
2024-12-11 21:03:33.539,0.909871,2.21216,6.31795,-0.337111,0.279081,-0.157064,0
2024-12-11 21:03:33.543,0.854836,2.29591,6.28924,-0.385979,0.369486,-0.188828,0
2024-12-11 21:03:33.544,0.854836,2.29591,6.28924,-0.385979,0.369486,-0.188828,0
2024-12-11 21:03:33.546,0.76361,2.34138,6.27249,-0.40797,0.412246,-0.199213,0
2024-12-11 21:03:33.548,0.691825,2.38684,6.24856,-0.430571,0.454394,-0.213262,0
2024-12-11 21:03:33.551,0.624826,2.43709,6.24377,-0.451951,0.492267,-0.225479,0
2024-12-11 21:03:33.556,0.50997,2.5017,6.27009,-0.509981,0.582672,-0.253578,0
2024-12-11 21:03:33.556,0.50997,2.5017,6.27009,-0.509981,0.582672,-0.253578,0
2024-12-11 21:03:33.559,0.445364,2.4993,6.29881,-0.527085,0.606495,-0.260297,0
2024-12-11 21:03:33.560,0.387936,2.50887,6.34188,-0.527085,0.606495,-0.260297,0
2024-12-11 21:03:33.562,0.328116,2.53789,6.38734,-0.539302,0.626042,-0.267017,0
2024-12-11 21:03:33.565,0.265603,2.54028,6.44477,-0.55213,0.643146,-0.273736,0
2024-12-11 21:03:33.567,0.210568,2.53549,6.51925,-0.564957,0.655974,-0.278012,0
2024-12-11 21:03:33.572,0.11007,2.54507,6.64367,-0.576563,0.677353,-0.287785,0
2024-12-11 21:03:33.572,0.11007,2.54507,6.64367,-0.576563,0.677353,-0.287785,0
2024-12-11 21:03:33.574,0.0478565,2.57378,6.67239,-0.577174,0.687738,-0.290229,0
2024-12-11 21:03:33.576,0.00717847,2.59053,6.71546,-0.579007,0.691403,-0.288396,0
2024-12-11 21:03:33.579,-0.0334995,2.60728,6.76571,-0.579618,0.698733,-0.288396,0
2024-12-11 21:03:33.581,-0.0885344,2.62642,6.78724,-0.576563,0.701787,-0.28412,0
2024-12-11 21:03:33.583,-0.11007,2.62881,6.81117,-0.572287,0.701787,-0.279844,0
2024-12-11 21:03:33.587,-0.107677,2.62881,6.85185,-0.564346,0.700565,-0.272514,0
2024-12-11 21:03:33.591,-0.0837488,2.63599,6.91406,-0.562514,0.69629,-0.268238,0
2024-12-11 21:03:33.592,-0.0837488,2.63599,6.91406,-0.557016,0.688349,-0.263962,0
2024-12-11 21:03:33.593,-0.0598206,2.61207,6.96431,-0.557016,0.688349,-0.263962,0
2024-12-11 21:03:33.595,-0.0287139,2.59292,6.99781,-0.550908,0.67491,-0.259076,0
2024-12-11 21:03:33.598,-0.0215354,2.6001,7.02204,-0.546632,0.66086,-0.256632,0
2024-12-11 21:03:33.600,-0.0239282,2.60489,7.0675,-0.539913,0.646811,-0.257854,0
2024-12-11 21:03:33.603,-0.0287139,2.6336,7.11536,-0.532582,0.629096,-0.257243,0
2024-12-11 21:03:33.605,-0.0478565,2.67906,7.15604,-0.528307,0.611993,-0.257243,0
2024-12-11 21:03:33.608,-0.081356,2.74128,7.20628,-0.519755,0.593056,-0.258465,0
2024-12-11 21:03:33.609,-0.148355,2.83699,7.22543,-0.514257,0.577785,-0.257243,0
2024-12-11 21:03:33.612,-0.215354,2.92552,7.23021,-0.514257,0.577785,-0.257243,0
2024-12-11 21:03:33.616,-0.335294,3.08106,7.23978,-0.494099,0.51609,-0.252967,0
2024-12-11 21:03:33.617,-0.335294,3.08106,7.23978,-0.494099,0.51609,-0.252967,0
2024-12-11 21:03:33.619,-0.395115,3.16989,7.26132,-0.489823,0.49471,-0.249302,0
2024-12-11 21:03:33.621,-0.457328,3.24168,7.29003,-0.487991,0.469665,-0.247469,0
2024-12-11 21:03:33.624,-0.514756,3.31585,7.3331,-0.484936,0.437901,-0.243804,0
2024-12-11 21:03:33.628,-0.632004,3.44267,7.45035,-0.482493,0.366432,-0.24075,0
2024-12-11 21:03:33.628,-0.632004,3.44267,7.45035,-0.482493,0.366432,-0.24075,0
2024-12-11 21:03:33.632,-0.675075,3.49292,7.55803,-0.478828,0.285189,-0.237085,0
2024-12-11 21:03:33.633,-0.715753,3.53599,7.68515,-0.478828,0.285189,-0.237085,0
2024-12-11 21:03:33.635,-0.74686,3.60539,7.80958,-0.474552,0.239987,-0.237696,0
2024-12-11 21:03:33.638,-0.782752,3.66311,7.93639,-0.470276,0.195395,-0.238307,0
2024-12-11 21:03:33.640,-0.830609,3.72772,8.05843,-0.462335,0.147749,-0.238307,0
2024-12-11 21:03:33.642,-0.873978,3.78993,8.17119,-0.453172,0.0994917,-0.239528,0
2024-12-11 21:03:33.645,-0.914656,3.83779,8.29801,-0.445842,0.0481806,-0.237085,0
2024-12-11 21:03:33.647,-0.967299,3.88086,8.43919,-0.433014,-0.0019089,-0.236474,0
2024-12-11 21:03:33.649,-1.01037,3.90239,8.57797,-0.424462,-0.0568851,-0.232809,0
2024-12-11 21:03:33.652,-1.04387,3.91197,8.71705,-0.410413,-0.11064,-0.230977,0
2024-12-11 21:03:33.655,-1.07737,3.91675,8.87498,-0.378038,-0.230977,-0.221203,0
2024-12-11 21:03:33.657,-1.11326,3.90718,9.05444,-0.378038,-0.230977,-0.221203,0
2024-12-11 21:03:33.659,-1.15633,3.9,9.22912,-0.359713,-0.291451,-0.210819,0
2024-12-11 21:03:33.661,-1.18265,3.88086,9.40888,-0.337722,-0.358033,-0.203488,0
2024-12-11 21:03:33.664,-1.20419,3.85932,9.60748,-0.320618,-0.423394,-0.191882,0
2024-12-11 21:03:33.667,-1.21615,3.84975,9.81087,-0.274805,-0.554115,-0.165005,0
2024-12-11 21:03:33.668,-1.21376,3.85215,10.0146,-0.274805,-0.554115,-0.165005,0
2024-12-11 21:03:33.671,-1.2018,3.86172,10.2108,-0.247928,-0.614589,-0.151566,0
2024-12-11 21:03:33.675,-1.12522,3.87368,10.6274,-0.188675,-0.718433,-0.114305,0
2024-12-11 21:03:33.676,-1.12522,3.87368,10.6274,-0.188675,-0.718433,-0.114305,0
2024-12-11 21:03:33.678,-1.06301,3.89043,10.8452,-0.158133,-0.762414,-0.0947577,0
2024-12-11 21:03:33.680,-0.986441,3.92872,11.0513,-0.122093,-0.795399,-0.0770431,0
2024-12-11 21:03:33.683,-0.895514,3.97179,11.2499,-0.122093,-0.795399,-0.0770431,0
2024-12-11 21:03:33.687,-0.691825,4.02443,11.5588,-0.010308,-0.852208,-0.0281753,0
2024-12-11 21:03:33.688,-0.691825,4.02443,11.5588,0.0287862,-0.856484,-0.0122933,0
2024-12-11 21:03:33.690,-0.598505,4.06032,11.6593,0.0287862,-0.856484,-0.0122933,0
2024-12-11 21:03:33.692,-0.517149,4.09621,11.7455,0.0660479,-0.855873,0.00175619,0
2024-12-11 21:03:33.694,-0.457328,4.12732,11.7861,0.0972011,-0.851597,0.0133623,0
2024-12-11 21:03:33.704,-0.421436,4.3023,11.7694,0.201045,-0.802119,0.0561216,0
2024-12-11 21:03:33.706,-0.445364,4.36212,11.7359,0.217538,-0.779517,0.0652843,0
2024-12-11 21:03:33.706,-0.445364,4.36212,11.7359,0.217538,-0.779517,0.0652843,0
2024-12-11 21:03:33.706,-0.445364,4.36212,11.7359,0.217538,-0.779517,0.0652843,0
2024-12-11 21:03:33.708,-0.459721,4.41715,11.7024,0.229144,-0.756916,0.0756687,0
2024-12-11 21:03:33.709,-0.459721,4.41715,11.7024,0.229144,-0.756916,0.0756687,0
2024-12-11 21:03:33.711,-0.474078,4.47219,11.6426,0.237085,-0.728817,0.0860531,0
2024-12-11 21:03:33.714,-0.488435,4.53918,11.5732,0.245026,-0.669565,0.106211,0
2024-12-11 21:03:33.716,-0.481256,4.58704,11.5205,0.245026,-0.669565,0.106211,0
2024-12-11 21:03:33.718,-0.457328,4.63011,11.4532,0.244415,-0.634747,0.113541,0
2024-12-11 21:03:33.720,-0.445364,4.67318,11.3815,0.237696,-0.60115,0.122704,0
2024-12-11 21:03:33.722,-0.4334,4.7019,11.324,0.227922,-0.562056,0.131867,0
2024-12-11 21:03:33.725,-0.421436,4.72582,11.2546,0.21143,-0.524794,0.136143,0
2024-12-11 21:03:33.727,-0.3999,4.75932,11.1948,0.193715,-0.482035,0.142251,0
2024-12-11 21:03:33.730,-0.371187,4.80269,11.1374,0.171724,-0.439886,0.146527,0
2024-12-11 21:03:33.732,-0.34008,4.83619,11.0895,0.148512,-0.394073,0.14836,0
2024-12-11 21:03:33.735,-0.301795,4.86491,11.068,0.122857,-0.345205,0.150192,0
2024-12-11 21:03:33.737,-0.270389,4.90319,11.0608,0.0929251,-0.300613,0.151414,0
2024-12-11 21:03:33.739,-0.222533,4.94866,11.0632,0.0611611,-0.253578,0.149581,0
2024-12-11 21:03:33.741,-0.157926,4.97976,11.0704,0.029397,-0.208986,0.150803,0
2024-12-11 21:03:33.744,-0.0717847,5.0013,11.0776,-0.00358873,-0.162562,0.147749,0
2024-12-11 21:03:33.747,0.0167498,5.00369,11.08,-0.0683385,-0.0715455,0.138586,0
2024-12-11 21:03:33.749,0.11007,4.99891,11.0919,-0.0683385,-0.0715455,0.138586,0
2024-12-11 21:03:33.751,0.215354,4.99651,11.135,-0.102546,-0.0287862,0.130034,0
2024-12-11 21:03:33.754,0.325723,4.97976,11.1924,-0.174015,0.0390179,0.1056,0
2024-12-11 21:03:33.755,0.4334,4.95823,11.2546,-0.174015,0.0390179,0.1056,0
2024-12-11 21:03:33.759,0.50997,4.94148,11.3384,-0.20639,0.0646735,0.0939941,0
2024-12-11 21:03:33.767,0.651147,4.89362,11.7598,-0.327338,0.141029,0.0408504,0
2024-12-11 21:03:33.768,0.651147,4.89362,11.7598,-0.327338,0.141029,0.0408504,0
2024-12-11 21:03:33.768,0.651147,4.89362,11.7598,-0.327338,0.141029,0.0408504,0
2024-12-11 21:03:33.768,0.651147,4.89362,11.7598,-0.327338,0.141029,0.0408504,0
2024-12-11 21:03:33.774,0.536291,4.93191,12.0975,-0.391477,0.191119,0.0115297,0
2024-12-11 21:03:33.775,0.536291,4.93191,12.0975,-0.391477,0.191119,0.0115297,0
2024-12-11 21:03:33.775,0.536291,4.93191,12.0975,-0.391477,0.191119,0.0115297,0
2024-12-11 21:03:33.781,0.155533,5.1688,12.3631,-0.433625,0.281524,0.010308,0
2024-12-11 21:03:33.784,0.040678,5.27169,12.411,-0.445231,0.31451,0.0170274,0
2024-12-11 21:03:33.785,0.040678,5.27169,12.411,-0.458059,0.345663,0.0274118,0
2024-12-11 21:03:33.787,-0.0334995,5.33181,12.4517,-0.469665,0.369486,0.0371853,0
2024-12-11 21:03:33.787,-0.0334995,5.33181,12.4517,-0.469665,0.369486,0.0371853,0
2024-12-11 21:03:33.789,-0.066999,5.3677,12.4708,-0.469665,0.369486,0.0371853,0
2024-12-11 21:03:33.792,-0.0454636,5.36531,12.4875,-0.503873,0.381092,0.050624,0
2024-12-11 21:03:33.794,0.0358923,5.30758,12.4947,-0.503873,0.381092,0.050624,0
2024-12-11 21:03:33.795,0.150748,5.2334,12.4828,-0.530139,0.370708,0.0487914,0
2024-12-11 21:03:33.798,0.308973,5.15683,12.4756,-0.556405,0.349328,0.0445155,0
2024-12-11 21:03:33.800,0.488435,5.0683,12.4923,-0.584504,0.316953,0.0316877,0
2024-12-11 21:03:33.804,0.667897,4.99173,12.5402,-0.65353,0.234489,-0.0122933,0
2024-12-11 21:03:33.806,0.837787,4.94626,12.6096,-0.688349,0.187454,-0.0440574,0
2024-12-11 21:03:33.807,1.0008,4.90559,12.7056,-0.688349,0.187454,-0.0440574,0
2024-12-11 21:03:33.810,1.14676,4.85773,12.8563,-0.721334,0.141029,-0.0739889,0
2024-12-11 21:03:33.812,1.25922,4.82662,13.0621,-0.754931,0.0964375,-0.108807,0
2024-12-11 21:03:33.814,1.3669,4.80987,13.2897,-0.780586,0.0548999,-0.145458,0
2024-12-11 21:03:33.818,1.45573,4.78834,13.5338,-0.828233,-0.0110716,-0.219371,0
2024-12-11 21:03:33.820,1.54188,4.76172,13.7949,-0.84106,-0.0263428,-0.256021,0
2024-12-11 21:03:33.821,1.6328,4.71147,14.0677,-0.84106,-0.0263428,-0.256021,0
2024-12-11 21:03:33.825,1.69023,4.65883,14.348,-0.850834,-0.0287862,-0.325658,0
2024-12-11 21:03:33.826,1.73809,4.57747,14.604,-0.850834,-0.0287862,-0.325658,0
2024-12-11 21:03:33.828,1.79791,4.46261,14.8265,-0.847169,-0.0147367,-0.358033,0
2024-12-11 21:03:33.831,1.85055,4.34537,15.0326,-0.842282,0.000534491,-0.390408,0
2024-12-11 21:03:33.833,1.90558,4.1991,15.1905,-0.842282,0.000534491,-0.390408,0
2024-12-11 21:03:33.836,1.95583,4.03161,15.3126,-0.816016,0.0512348,-0.458823,0
2024-12-11 21:03:33.840,2.0016,3.71097,15.5282,-0.781197,0.101324,-0.529681,0
2024-12-11 21:03:33.841,2.0016,3.71097,15.5282,-0.781197,0.101324,-0.529681,0
2024-12-11 21:03:33.843,1.97288,3.53121,15.6072,-0.757985,0.131256,-0.565721,0
2024-12-11 21:03:33.845,1.91994,3.35414,15.6574,-0.732329,0.159355,-0.600539,0
2024-12-11 21:03:33.848,1.83141,3.19143,15.6694,-0.673077,0.22105,-0.662235,0
2024-12-11 21:03:33.850,1.70219,3.01884,15.6718,-0.673077,0.22105,-0.662235,1
2024-12-11 21:03:33.852,1.5347,2.85374,15.6694,-0.637648,0.251593,-0.689723,0
2024-12-11 21:03:33.855,1.35015,2.69342,15.6526,-0.599165,0.280913,-0.714768,0
2024-12-11 21:03:33.858,1.14437,2.53549,15.6072,-0.558238,0.309012,-0.735536,0
2024-12-11 21:03:33.859,0.931406,2.38923,15.5522,-0.514868,0.337722,-0.751418,0
2024-12-11 21:03:33.864,0.524327,2.09492,15.3915,-0.4153,0.398807,-0.763635,0
2024-12-11 21:03:33.864,0.524327,2.09492,15.3915,-0.4153,0.398807,-0.763635,0
2024-12-11 21:03:33.866,0.32333,1.95583,15.2934,-0.363378,0.432404,-0.762414,0
2024-12-11 21:03:33.869,0.102891,1.83619,15.1499,-0.306569,0.469665,-0.753862,0
2024-12-11 21:03:33.872,-0.138784,1.73091,14.98,-0.188065,0.553962,-0.720876,0
2024-12-11 21:03:33.873,-0.375972,1.62562,14.8002,-0.188065,0.553962,-0.720876,0
2024-12-11 21:03:33.876,-0.596112,1.52513,14.6255,-0.124536,0.60283,-0.69461,0
2024-12-11 21:03:33.878,-0.813859,1.45095,14.415,-0.0622301,0.652309,-0.663456,0
2024-12-11 21:03:33.883,-1.21376,1.32622,13.9026,0.0642153,0.753709,-0.585268,0
2024-12-11 21:03:33.884,-1.21376,1.32622,13.9026,0.0642153,0.753709,-0.585268,0
2024-12-11 21:03:33.886,-1.39083,1.28076,13.6176,0.185163,0.844802,-0.488143,0
2024-12-11 21:03:33.887,-1.54666,1.24726,13.3208,0.185163,0.844802,-0.488143,0
2024-12-11 21:03:33.890,-1.67587,1.20658,12.9999,0.241972,0.882063,-0.437443,0
2024-12-11 21:03:33.892,-1.77637,1.17069,12.6506,0.295116,0.91566,-0.381245,0
2024-12-11 21:03:33.894,-1.84098,1.13719,12.2746,0.295116,0.91566,-0.381245,0
2024-12-11 21:03:33.897,-1.87208,1.11087,11.8962,0.386132,0.95903,-0.271903,0
2024-12-11 21:03:33.901,-1.89841,1.07976,11.1637,0.455768,0.971858,-0.167449,0
2024-12-11 21:03:33.901,-1.89841,1.07976,11.1637,0.455768,0.971858,-0.167449,0
2024-12-11 21:03:33.904,-1.91516,1.08455,10.826,0.482646,0.965139,-0.116137,0
2024-12-11 21:03:33.906,-1.89362,1.10369,10.4982,0.502193,0.948035,-0.0691021,0
2024-12-11 21:03:33.909,-1.84337,1.11326,10.1964,0.502193,0.948035,-0.0691021,0
2024-12-11 21:03:33.912,-1.75005,1.15394,9.9332,0.52907,0.884507,0.0182491,0
2024-12-11 21:03:33.913,-1.64716,1.19462,9.70559,0.52907,0.884507,0.0182491,0
2024-12-11 21:03:33.916,-1.55384,1.23051,9.48545,0.537011,0.792193,0.0848314,0
2024-12-11 21:03:33.919,-1.44616,1.27119,9.27727,0.535179,0.676742,0.137364,0
2024-12-11 21:03:33.921,-1.34536,1.31426,9.09273,0.535179,0.676742,0.137364,0
2024-12-11 21:03:33.924,-1.25922,1.36451,8.93241,0.535179,0.676742,0.137364,0
2024-12-11 21:03:33.925,-1.17308,1.4342,8.8008,0.523572,0.549075,0.174626,0
2024-12-11 21:03:33.927,-1.07976,1.5012,8.70748,0.515631,0.48066,0.18501,0
2024-12-11 21:03:33.930,-1.0008,1.55384,8.61386,0.50708,0.410413,0.195395,0
2024-12-11 21:03:33.934,-0.830609,1.66869,8.51097,0.488754,0.274194,0.200892,0
2024-12-11 21:03:33.935,-0.830609,1.66869,8.51097,0.488754,0.274194,0.200892,0
2024-12-11 21:03:33.937,-0.754038,1.72612,8.49183,0.480813,0.20639,0.199671,0
2024-12-11 21:03:33.939,-0.691825,1.75962,8.49422,0.473483,0.140419,0.194784,0
2024-12-11 21:03:33.942,-0.632004,1.77398,8.52533,0.465542,0.074447,0.188675,0
2024-12-11 21:03:33.945,-0.553041,1.79073,8.57079,0.45699,-0.0556635,0.171572,0
2024-12-11 21:03:33.946,-0.478864,1.79551,8.64258,0.45699,-0.0556635,0.171572,0
2024-12-11 21:03:33.949,-0.411865,1.78355,8.71705,0.458823,-0.121024,0.159966,0
2024-12-11 21:03:33.951,-0.354437,1.76201,8.80559,0.461266,-0.181498,0.14897,0
2024-12-11 21:03:33.953,-0.304188,1.73569,8.88455,0.462488,-0.238918,0.137364,0
2024-12-11 21:03:33.957,-0.244068,1.69502,8.97069,0.477148,-0.340929,0.111709,0
2024-12-11 21:03:33.958,-0.200997,1.65912,9.06641,0.477148,-0.340929,0.111709,0
2024-12-11 21:03:33.961,-0.174676,1.61845,9.11905,0.484478,-0.383688,0.101935,0
2024-12-11 21:03:33.963,-0.131605,1.54905,9.16212,0.494252,-0.422172,0.0939941,0
2024-12-11 21:03:33.965,-0.0861416,1.4988,9.19801,0.508912,-0.454547,0.0829989,0
2024-12-11 21:03:33.970,-0.00239282,1.41506,9.19322,0.530903,-0.504636,0.0695602,0
2024-12-11 21:03:33.971,-0.00239282,1.41506,9.19322,0.530903,-0.504636,0.0695602,0
2024-12-11 21:03:33.972,0.0143569,1.37886,9.15733,0.540676,-0.520518,0.0640626,0
2024-12-11 21:03:33.976,0.0119641,1.35254,9.10948,0.554115,-0.541287,0.0567324,0
2024-12-11 21:03:33.977,-0.0143569,1.35254,9.07837,0.554115,-0.541287,0.0567324,0
2024-12-11 21:03:33.980,-0.0478565,1.37169,9.05444,0.564499,-0.549228,0.0561216,0
2024-12-11 21:03:33.982,-0.0957129,1.38844,8.99462,0.564499,-0.549228,0.0561216,0
2024-12-11 21:03:33.987,-0.196211,1.44138,8.8678,0.571829,-0.510134,0.0707819,0
2024-12-11 21:03:33.987,-0.196211,1.44138,8.8678,0.571829,-0.510134,0.0707819,0
2024-12-11 21:03:33.990,-0.239282,1.46052,8.80319,0.571829,-0.510134,0.0707819,0
2024-12-11 21:03:33.992,-0.294616,1.48445,8.76012,0.568775,-0.453936,0.0921616,0
2024-12-11 21:03:33.994,-0.354437,1.51555,8.70509,0.568775,-0.453936,0.0921616,0
2024-12-11 21:03:33.996,-0.423829,1.56341,8.63779,0.568164,-0.419118,0.104989,0
2024-12-11 21:03:33.998,-0.481256,1.61366,8.56601,0.566332,-0.38491,0.11965,0
2024-12-11 21:03:34.001,-0.529113,1.64716,8.48465,0.566332,-0.344594,0.13431,0
2024-12-11 21:03:34.004,-0.572184,1.67348,8.40808,0.563278,-0.303667,0.150803,0
2024-12-11 21:03:34.005,-0.605683,1.71894,8.31954,0.558391,-0.260908,0.163631,0
2024-12-11 21:03:34.007,-0.622433,1.74287,8.21187,0.554115,-0.218149,0.178291,0
2024-12-11 21:03:34.010,-0.629611,1.78355,8.10389,0.551061,-0.172335,0.192951,0
2024-12-11 21:03:34.012,-0.65354,1.83859,8.00579,0.54312,-0.129576,0.203947,0
2024-12-11 21:03:34.015,-0.677468,1.87687,7.88854,0.538233,-0.0886492,0.214942,0
2024-12-11 21:03:34.018,-0.689432,1.91516,7.78325,0.520518,-0.00496313,0.232656,0
2024-12-11 21:03:34.020,-0.706182,1.96301,7.68993,0.511966,0.0341311,0.239987,0
2024-12-11 21:03:34.022,-0.727717,2.01595,7.59183,0.511966,0.0341311,0.239987,0
2024-12-11 21:03:34.025,-0.737288,2.06381,7.49342,0.50036,0.0689494,0.246706,0
2024-12-11 21:03:34.029,-0.756431,2.18584,7.31157,0.477148,0.135532,0.253425,0
2024-12-11 21:03:34.030,-0.756431,2.18584,7.31157,0.477148,0.135532,0.253425,0
2024-12-11 21:03:34.031,-0.770788,2.22652,7.24696,0.466764,0.166685,0.258312,0
2024-12-11 21:03:34.033,-0.804287,2.24327,7.16561,0.456379,0.195395,0.258923,0
2024-12-11 21:03:34.038,-0.804287,2.27916,7.01486,0.430113,0.246095,0.266253,0
2024-12-11 21:03:34.039,-0.801895,2.31027,7.01486,0.419728,0.265642,0.267475,0
2024-12-11 21:03:34.040,-0.833001,2.32941,6.98585,0.419728,0.265642,0.267475,0
2024-12-11 21:03:34.043,-0.859622,2.37009,6.95952,0.411177,0.280303,0.267475,0
2024-12-11 21:03:34.048,-0.88355,2.41077,6.89731,0.397127,0.301682,0.268696,0
2024-12-11 21:03:34.049,-0.88355,2.41077,6.89731,0.389797,0.305958,0.271751,0
2024-12-11 21:03:34.050,-0.888335,2.42273,6.87338,0.389797,0.305958,0.271751,0
2024-12-11 21:03:34.055,-0.931406,2.44666,6.81835,0.383078,0.312677,0.272362,0
2024-12-11 21:03:34.055,-0.931406,2.44666,6.81835,0.383078,0.312677,0.272362,0
2024-12-11 21:03:34.057,-0.967299,2.46102,6.81356,0.382467,0.312067,0.276027,0
2024-12-11 21:03:34.060,-1.0008,2.4682,6.81596,0.381856,0.308401,0.277859,0
2024-12-11 21:03:34.063,-1.04387,2.47537,6.81356,0.385521,0.287022,0.282746,0
2024-12-11 21:03:34.064,-1.08215,2.47537,6.8016,0.385521,0.287022,0.282746,0
2024-12-11 21:03:34.066,-1.11565,2.49452,6.78006,0.388575,0.274194,0.284578,0
2024-12-11 21:03:34.069,-1.14676,2.50887,6.77767,0.393462,0.257701,0.288854,0
2024-12-11 21:03:34.071,-1.17308,2.50648,6.78246,0.401403,0.240597,0.292519,0
2024-12-11 21:03:34.074,-1.19701,2.51605,6.78724,0.411177,0.221661,0.301071,0
2024-12-11 21:03:34.077,-1.22094,2.52592,6.81356,0.417285,0.202725,0.309012,0
2024-12-11 21:03:34.084,-1.23529,2.54746,6.82553,0.45699,0.107433,0.339555,0
2024-12-11 21:03:34.084,-1.23529,2.54746,6.82553,0.45699,0.107433,0.339555,0
2024-12-11 21:03:34.084,-1.23529,2.54746,6.82553,0.45699,0.107433,0.339555,0
2024-12-11 21:03:34.085,-1.24247,2.55224,6.83271,0.45699,0.107433,0.339555,0
2024-12-11 21:03:34.088,-1.24487,2.56182,6.84228,0.469207,0.0836097,0.346274,0
2024-12-11 21:03:34.090,-1.25683,2.56182,6.83988,0.477148,0.0610084,0.353604,0
2024-12-11 21:03:34.092,-1.2664,2.5666,6.81356,0.488143,0.0402396,0.363989,0
2024-12-11 21:03:34.096,-1.28315,2.57378,6.78963,0.502804,-0.00435229,0.37926,0
2024-12-11 21:03:34.097,-1.30469,2.56899,6.78246,0.502804,-0.00435229,0.37926,0
2024-12-11 21:03:34.099,-1.32861,2.59292,6.75374,0.508912,-0.0263428,0.392698,0
2024-12-11 21:03:34.102,-1.35733,2.62403,6.72503,0.511966,-0.0471116,0.401861,0
2024-12-11 21:03:34.104,-1.38365,2.64556,6.69871,0.516853,-0.0684913,0.412856,0
2024-12-11 21:03:34.106,-1.41506,2.66231,6.67478,0.521129,-0.0874275,0.425684,0
2024-12-11 21:03:34.109,-1.44138,2.67906,6.66521,0.526627,-0.106364,0.437901,0
2024-12-11 21:03:34.112,-1.4677,2.70778,6.66042,0.526627,-0.144236,0.462946,0
2024-12-11 21:03:34.114,-1.49163,2.74606,6.66281,0.526627,-0.144236,0.462946,0
2024-12-11 21:03:34.116,-1.50838,2.77238,6.66999,0.530292,-0.162562,0.476385,0
2024-12-11 21:03:34.118,-1.51077,2.81067,6.67717,0.532124,-0.182109,0.491045,0
2024-12-11 21:03:34.121,-1.50598,2.83938,6.67239,0.530292,-0.196158,0.503873,0
2024-12-11 21:03:34.124,-1.49402,2.84178,6.67239,0.526016,-0.221814,0.531972,0
2024-12-11 21:03:34.125,-1.46052,2.85374,6.67717,0.526016,-0.221814,0.531972,0
2024-12-11 21:03:34.128,-1.41266,2.87049,6.68674,0.524794,-0.23342,0.542356,0
2024-12-11 21:03:34.130,-1.35733,2.88485,6.70349,0.52174,-0.239528,0.554573,0
2024-12-11 21:03:34.133,-1.32144,2.89442,6.71067,0.516853,-0.245637,0.563736,0
2024-12-11 21:03:34.135,-1.29751,2.91117,6.70828,0.513188,-0.248691,0.57412,0
2024-12-11 21:03:34.137,-1.24008,2.9327,6.7011,0.504025,-0.248691,0.583283,0
2024-12-11 21:03:34.139,-1.18744,2.95185,6.68674,0.495473,-0.246859,0.591224,0
2024-12-11 21:03:34.142,-1.15155,2.96142,6.66999,0.487532,-0.243804,0.600997,0
2024-12-11 21:03:34.145,-1.10608,2.98774,6.63889,0.475926,-0.238918,0.606495,0
2024-12-11 21:03:34.150,-1.06062,3.02602,6.62214,0.448438,-0.225479,0.618712,0
2024-12-11 21:03:34.150,-1.01755,3.02602,6.62214,0.448438,-0.225479,0.618712,0
2024-12-11 21:03:34.151,-0.97687,3.04756,6.61496,0.433167,-0.214484,0.622988,0
2024-12-11 21:03:34.154,-0.945763,3.07388,6.59821,0.414842,-0.203488,0.62482,0
2024-12-11 21:03:34.156,-0.914656,3.09571,6.58146,0.395295,-0.188828,0.627875,0
2024-12-11 21:03:34.158,-0.873978,3.11486,6.57428,0.375747,-0.17539,0.629096,0
2024-12-11 21:03:34.162,-0.847657,3.12443,6.58864,0.329934,-0.13935,0.626042,0
2024-12-11 21:03:34.164,-0.828216,3.14357,6.6006,0.329934,-0.13935,0.626042,0
2024-12-11 21:03:34.165,-0.804287,3.15314,6.60539,0.3055,-0.119192,0.623599,0
2024-12-11 21:03:34.168,-0.777966,3.16271,6.61974,0.280455,-0.0990336,0.622988,0
2024-12-11 21:03:34.170,-0.768395,3.19143,6.63889,0.256021,-0.0782648,0.618712,0
2024-12-11 21:03:34.172,-0.751645,3.20578,6.6676,0.229755,-0.0544418,0.612603,0
2024-12-11 21:03:34.175,-0.74686,3.20818,6.69871,0.201656,-0.0330621,0.610771,0
2024-12-11 21:03:34.177,-0.756431,3.20578,6.73939,0.176611,-0.00801737,0.606495,0
2024-12-11 21:03:34.179,-0.751645,3.20339,6.78006,0.150345,0.0139731,0.600997,0
2024-12-11 21:03:34.182,-0.742074,3.20339,6.80878,0.124078,0.038407,0.597943,0
2024-12-11 21:03:34.184,-0.722932,3.19143,6.8662,0.0972011,0.0591758,0.593667,0
2024-12-11 21:03:34.187,-0.710967,3.17707,6.92842,0.0697129,0.0799446,0.587559,0
2024-12-11 21:03:34.189,-0.715753,3.15793,6.9691,0.0452791,0.104989,0.583894,0
2024-12-11 21:03:34.192,-0.744467,3.14836,7.01486,-0.00603212,0.142251,0.577174,0
2024-12-11 21:03:34.194,-0.766002,3.12921,7.11057,-0.00603212,0.142251,0.577174,0
2024-12-11 21:03:34.196,-0.792323,3.09332,7.21107,-0.0329094,0.160576,0.577174,0
2024-12-11 21:03:34.198,-0.830609,3.07627,7.302,-0.0542891,0.175848,0.574731,0
2024-12-11 21:03:34.201,-0.88355,3.06431,7.4001,-0.0738362,0.192951,0.577785,0
2024-12-11 21:03:34.203,-0.955334,3.05952,7.50778,-0.0927724,0.207001,0.582061,0
2024-12-11 21:03:34.205,-1.04148,3.05952,7.63968,-0.111709,0.221661,0.58878,0
2024-12-11 21:03:34.208,-1.1348,3.0667,7.77129,-0.12698,0.236932,0.597943,0
2024-12-11 21:03:34.211,-1.2018,3.06909,7.90768,-0.137364,0.252814,0.609549,0
2024-12-11 21:03:34.212,-1.25683,3.08106,8.04886,-0.146527,0.265642,0.621155,0
2024-12-11 21:03:34.215,-1.32383,3.1005,8.17119,-0.150803,0.27847,0.63887,0
2024-12-11 21:03:34.217,-1.39322,3.1005,8.28126,-0.153246,0.291298,0.655363,0
2024-12-11 21:03:34.219,-1.45573,3.10768,8.38894,-0.157522,0.299239,0.675521,0
2024-12-11 21:03:34.222,-1.52752,3.134,8.51576,-0.155079,0.310234,0.693846,0
2024-12-11 21:03:34.224,-1.59691,3.15314,8.62583,-0.151414,0.316953,0.716447,0
2024-12-11 21:03:34.227,-1.65912,3.16989,8.70509,-0.145916,0.322451,0.738514,0
2024-12-11 21:03:34.229,-1.71177,3.19621,8.78884,-0.137975,0.330392,0.760505,0
2024-12-11 21:03:34.231,-1.76201,3.21296,8.85344,-0.128812,0.333446,0.782495,0
2024-12-11 21:03:34.234,-1.82184,3.23928,8.90609,-0.116595,0.340166,0.809373,0
2024-12-11 21:03:34.236,-1.88644,3.28235,8.96112,-0.106211,0.345052,0.834417,0
2024-12-11 21:03:34.238,-1.93669,3.33021,8.99462,-0.0970484,0.351161,0.860684,0
2024-12-11 21:03:34.241,-1.97528,3.37567,9.01376,-0.0805555,0.351772,0.888172,0
2024-12-11 21:03:34.243,-2.0016,3.41157,9.03291,-0.0713928,0.35055,0.915049,0
2024-12-11 21:03:34.246,-2.01356,3.46182,9.03769,-0.058565,0.349939,0.938872,0
2024-12-11 21:03:34.248,-2.00877,3.49532,9.02573,-0.0512348,0.341998,0.963917,0
2024-12-11 21:03:34.251,-1.98006,3.51924,8.99941,-0.042683,0.337722,0.98774,0
2024-12-11 21:03:34.252,-1.95823,3.55753,8.96351,-0.0353528,0.327949,1.00851,0
2024-12-11 21:03:34.255,-1.93908,3.58864,8.93001,-0.0322986,0.319397,1.02867,0
2024-12-11 21:03:34.258,-1.91516,3.62214,8.9013,-0.0310769,0.311456,1.04821,0
2024-12-11 21:03:34.261,-1.89601,3.66551,8.86062,-0.0329094,0.291909,1.08303,0
2024-12-11 21:03:34.263,-1.8673,3.699,8.84387,-0.0390179,0.281524,1.09708,0
2024-12-11 21:03:34.264,-1.84337,3.73011,8.83669,-0.0390179,0.281524,1.09708,0
2024-12-11 21:03:34.267,-1.81944,3.75883,8.83191,-0.0457372,0.272972,1.10869,0
2024-12-11 21:03:34.269,-1.78116,3.77797,8.84148,-0.0561216,0.26381,1.1209,0
2024-12-11 21:03:34.272,-1.75244,3.81865,8.86062,-0.0671168,0.252204,1.13068,0
2024-12-11 21:03:34.274,-1.72373,3.84018,8.89891,-0.0768904,0.239987,1.14106,0
2024-12-11 21:03:34.277,-1.67827,3.84975,8.95394,-0.100103,0.213109,1.15633,0
2024-12-11 21:03:34.279,-1.63041,3.87368,8.99701,-0.100103,0.213109,1.15633,0
2024-12-11 21:03:34.281,-1.57777,3.85454,9.04008,-0.11293,0.200892,1.15878,0
2024-12-11 21:03:34.283,-1.52752,3.83779,9.1023,-0.126369,0.183178,1.16061,0
2024-12-11 21:03:34.285,-1.48205,3.82822,9.15973,-0.139808,0.164852,1.16122,0
2024-12-11 21:03:34.289,-1.45573,3.7995,9.2363,-0.168517,0.12698,1.1545,0
2024-12-11 21:03:34.290,-1.45334,3.78993,9.3347,-0.168517,0.12698,1.1545,0
2024-12-11 21:03:34.293,-1.45334,3.79472,9.44716,-0.180734,0.101324,1.15328,0
2024-12-11 21:03:34.295,-1.46291,3.79472,9.5692,-0.195395,0.0750579,1.14717,0
2024-12-11 21:03:34.297,-1.4988,3.78754,9.68405,-0.207001,0.0518457,1.14167,0
2024-12-11 21:03:34.300,-1.5658,3.7684,9.80369,-0.219829,0.0213033,1.13495,0
2024-12-11 21:03:34.302,-1.65434,3.75883,9.93081,-0.229602,-0.00618483,1.13007,0
2024-12-11 21:03:34.304,-1.72852,3.76122,10.0792,-0.235711,-0.0318404,1.12335,0
2024-12-11 21:03:34.307,-1.80748,3.75404,10.2658,-0.239987,-0.057496,1.12213,0
2024-12-11 21:03:34.309,-1.91755,3.75404,10.4527,-0.244873,-0.0862058,1.11907,0
2024-12-11 21:03:34.311,-2.04706,3.75404,10.6394,-0.241208,-0.109418,1.1209,0
2024-12-11 21:03:34.314,-2.18824,3.74447,10.8523,-0.238765,-0.130798,1.12029,0
2024-12-11 21:03:34.316,-2.30309,3.73968,11.0632,-0.231435,-0.147291,1.12335,0
2024-12-11 21:03:34.319,-2.40838,3.71336,11.2881,-0.216774,-0.158897,1.12946,0
2024-12-11 21:03:34.321,-2.51366,3.67029,11.511,-0.198449,-0.162562,1.13495,0
2024-12-11 21:03:34.323,-2.61446,3.62931,11.7024,-0.179513,-0.155232,1.14412,0
2024-12-11 21:03:34.326,-2.73649,3.59342,11.8771,-0.155079,-0.137517,1.15328,0
2024-12-11 21:03:34.328,-2.88724,3.55992,12.0278,-0.126369,-0.111861,1.16611,0
2024-12-11 21:03:34.331,-3.09332,3.54317,12.131,-0.0952158,-0.0703238,1.17955,0
2024-12-11 21:03:34.333,-3.35653,3.5671,12.1573,-0.0640626,-0.0159584,1.1997,0
2024-12-11 21:03:34.335,-3.67508,3.61017,12.1525,-0.0316877,0.0475697,1.22292,0
2024-12-11 21:03:34.337,-3.98854,3.68465,12.1167,0.000687203,0.113541,1.25346,0
2024-12-11 21:03:34.341,-4.24008,3.76122,12.0278,0.0526092,0.244873,1.32615,0
2024-12-11 21:03:34.343,-4.44347,3.80429,11.9225,0.0678804,0.297406,1.36647,0
2024-12-11 21:03:34.345,-4.68036,3.83061,11.7766,0.0703238,0.328559,1.41106,0
2024-12-11 21:03:34.348,-4.89123,3.85454,11.5947,0.0636045,0.338944,1.45321,0
2024-12-11 21:03:34.349,-4.98455,3.833,11.4269,0.0636045,0.338944,1.45321,0
2024-12-11 21:03:34.352,-5.0348,3.75643,11.2499,0.0458899,0.326727,1.49108,0
2024-12-11 21:03:34.354,-5.09462,3.67268,11.0608,0.0153475,0.298628,1.53017,0
2024-12-11 21:03:34.356,-5.12573,3.60539,10.9289,-0.0255792,0.258312,1.56621,0
2024-12-11 21:03:34.359,-5.10898,3.55035,10.9002,-0.0756687,0.19906,1.59798,0
2024-12-11 21:03:34.361,-5.04198,3.5001,11.0034,-0.133088,0.119039,1.62974,0
2024-12-11 21:03:34.363,-4.91755,3.40678,11.2187,-0.191119,0.0249684,1.65845,0
2024-12-11 21:03:34.366,-4.72582,3.29193,11.5158,-0.250371,-0.0788757,1.68533,0
2024-12-11 21:03:34.369,-4.48654,3.17946,11.9034,-0.361545,-0.285342,1.73603,0
2024-12-11 21:03:34.371,-4.22333,3.04277,12.3847,-0.404915,-0.376969,1.75558,0
2024-12-11 21:03:34.373,-3.96461,2.88724,12.9138,-0.404915,-0.376969,1.75558,0
2024-12-11 21:03:34.376,-3.72293,2.76042,13.4836,-0.437901,-0.455768,1.77634,0
2024-12-11 21:03:34.377,-3.48574,2.66949,14.1395,-0.461113,-0.525405,1.79162,0
2024-12-11 21:03:34.380,-3.28235,2.58335,14.8074,-0.466,-0.57977,1.80689,0
2024-12-11 21:03:34.382,-3.10768,2.49212,15.4373,-0.458059,-0.621308,1.82399,0
2024-12-11 21:03:34.384,-2.95185,2.3988,16.0645,-0.436679,-0.643909,1.83865,0
2024-12-11 21:03:34.387,-2.80349,2.30788,16.7085,-0.397585,-0.654905,1.85148,0
2024-12-11 21:03:34.389,-2.63839,2.20977,17.3453,-0.346885,-0.648796,1.86308,0
2024-12-11 21:03:34.392,-2.48495,2.10927,17.9031,-0.280303,-0.629249,1.87408,0
2024-12-11 21:03:34.394,-2.35813,2.00877,18.3628,-0.204557,-0.592598,1.88385,0
2024-12-11 21:03:34.396,-2.25045,1.91037,18.7289,-0.123315,-0.539454,1.89729,0
2024-12-11 21:03:34.399,-2.17388,1.77637,19.014,-0.0341311,-0.470429,1.91012,0
2024-12-11 21:03:34.401,-2.15234,1.63998,19.215,0.0611611,-0.386132,1.9205,1
2024-12-11 21:03:34.404,-2.1667,1.5323,19.337,0.256021,-0.193104,1.95593,0
2024-12-11 21:03:34.407,-2.21456,1.41745,19.3708,0.351924,-0.0868167,1.98159,0
2024-12-11 21:03:34.408,-2.28634,1.30708,19.3011,0.351924,-0.0868167,1.98159,0
2024-12-11 21:03:34.411,-2.37009,1.18983,19.124,0.523572,0.130034,2.04512,0
2024-12-11 21:03:34.413,-2.4658,1.08455,18.8297,0.523572,0.130034,2.04512,0
2024-12-11 21:03:34.415,-2.57617,0.984048,18.4394,0.598707,0.241819,2.08421,0
2024-12-11 21:03:34.417,-2.65992,0.88355,17.9988,0.662846,0.349939,2.12941,0
2024-12-11 21:03:34.421,-2.71496,0.813859,17.5128,0.753251,0.542967,2.23631,0
2024-12-11 21:03:34.422,-2.74606,0.734896,17.0172,0.753251,0.542967,2.23631,0
2024-12-11 21:03:34.425,-2.73888,0.639183,16.5287,0.776463,0.623599,2.29068,0
2024-12-11 21:03:34.428,-2.68864,0.545863,16.0358,0.785015,0.769591,2.40368,0
2024-12-11 21:03:34.429,-2.58814,0.452543,15.5474,0.785015,0.769591,2.40368,0
2024-12-11 21:03:34.431,-2.44666,0.364008,15.0757,0.772798,0.831974,2.4611,0
2024-12-11 21:03:34.434,-2.27916,0.287438,14.6399,0.748975,0.889394,2.51303,0
2024-12-11 21:03:34.437,-2.09013,0.217747,14.2543,0.714157,0.942537,2.56189,0
2024-12-11 21:03:34.439,-1.89362,0.167498,13.9122,0.672008,0.993849,2.60771,0
2024-12-11 21:03:34.441,-1.70459,0.129212,13.6032,0.620697,1.03905,2.64924,0
2024-12-11 21:03:34.444,-1.48923,0.114855,13.3567,0.571219,1.08609,2.6859,0
2024-12-11 21:03:34.446,-1.26162,0.11007,13.1698,0.508912,1.13007,2.71949,0
2024-12-11 21:03:34.448,-1.05823,0.124427,13.0238,0.450882,1.17832,2.74881,0
2024-12-11 21:03:34.451,-0.869193,0.160319,12.9377,0.391629,1.22414,2.7708,0
2024-12-11 21:03:34.453,-0.689432,0.205783,12.8898,0.329323,1.27423,2.79157,0
2024-12-11 21:03:34.455,-0.524327,0.246461,12.8755,0.278623,1.3292,2.80929,0
2024-12-11 21:03:34.458,-0.371187,0.275175,12.8994,0.223036,1.3854,2.82334,0
2024-12-11 21:03:34.460,-0.256032,0.313759,12.9497,0.177222,1.44099,2.83128,0
2024-12-11 21:03:34.463,-0.157926,0.347258,13.0095,0.141182,1.50146,2.838,0
2024-12-11 21:03:34.464,-0.0646062,0.366401,13.0765,0.111861,1.56255,2.84472,0
2024-12-11 21:03:34.467,0.0358923,0.392722,13.1387,0.0886492,1.62363,2.84594,0
2024-12-11 21:03:34.469,0.119641,0.414257,13.206,0.0721563,1.67983,2.84349,0
2024-12-11 21:03:34.473,0.177069,0.421436,13.2491,0.0672696,1.79711,2.83861,0
2024-12-11 21:03:34.474,0.232104,0.407079,13.261,0.0672696,1.79711,2.83861,0
2024-12-11 21:03:34.476,0.282652,0.392722,13.2419,0.0727672,1.8527,2.83433,0
2024-12-11 21:03:34.479,0.304188,0.375972,13.1842,0.0886492,1.90584,2.827,0
2024-12-11 21:03:34.481,0.325723,0.352044,13.0932,0.109418,1.95471,2.81906,0
2024-12-11 21:03:34.484,0.344866,0.320937,12.9329,0.15401,2.03656,2.80501,0
2024-12-11 21:03:34.487,0.347258,0.270389,12.7582,0.181498,2.06894,2.7989,0
2024-12-11 21:03:34.489,0.347258,0.222533,12.5617,0.210819,2.09643,2.79157,0
2024-12-11 21:03:34.491,0.349651,0.177069,12.3153,0.210819,2.09643,2.79157,0
2024-12-11 21:03:34.493,0.342473,0.122034,12.0565,0.237085,2.11414,2.78546,0
2024-12-11 21:03:34.495,0.325723,0.081356,11.7814,0.262741,2.12575,2.78119,0
2024-12-11 21:03:34.497,0.297009,0.0550349,11.4891,0.286564,2.13064,2.77508,0
2024-12-11 21:03:34.500,0.272782,0.0143569,11.1829,0.308554,2.12941,2.7708,0
2024-12-11 21:03:34.502,0.251246,-0.0215354,10.8547,0.328101,2.12086,2.77202,0
2024-12-11 21:03:34.504,0.217747,-0.0478565,10.5269,0.343373,2.10437,2.77019,0
2024-12-11 21:03:34.507,0.205783,-0.081356,10.2012,0.354979,2.08482,2.77019,0
2024-12-11 21:03:34.509,0.193819,-0.12682,9.88535,0.364141,2.05856,2.77202,0
2024-12-11 21:03:34.512,0.184247,-0.181855,9.57877,0.367196,2.02985,2.77447,0
2024-12-11 21:03:34.514,0.200997,-0.212961,9.28924,0.369028,1.99686,2.77997,0
2024-12-11 21:03:34.517,0.18664,-0.224925,9.02812,0.36292,1.91623,2.78791,0
2024-12-11 21:03:34.520,0.181855,-0.239282,8.76491,0.356811,1.87103,2.79463,0
2024-12-11 21:03:34.521,0.189033,-0.251246,8.51336,0.356811,1.87103,2.79463,0
2024-12-11 21:03:34.524,0.18664,-0.258425,8.28365,0.348259,1.8246,2.7989,0
2024-12-11 21:03:34.526,0.193819,-0.270389,8.07996,0.337875,1.77573,2.80257,0
2024-12-11 21:03:34.528,0.18664,-0.289831,7.89572,0.328101,1.73236,2.80745,0
2024-12-11 21:03:34.531,0.196211,-0.289831,7.72822,0.316495,1.68411,2.81234,0
2024-12-11 21:03:34.533,0.205783,-0.272782,7.5676,0.303057,1.63585,2.81478,0
2024-12-11 21:03:34.535,0.179462,-0.263211,7.42642,0.29084,1.59309,2.82028,0
2024-12-11 21:03:34.538,0.16989,-0.253639,7.31396,0.276179,1.54667,2.82395,0
2024-12-11 21:03:34.540,0.16989,-0.217747,7.19193,0.263352,1.50452,2.82578,0
2024-12-11 21:03:34.542,0.155533,-0.150748,7.05793,0.251135,1.46603,2.82761,0
2024-12-11 21:03:34.545,0.138784,-0.100499,6.92602,0.238918,1.42755,2.83128,0
2024-12-11 21:03:34.547,0.122034,-0.0526421,6.81117,0.223036,1.3909,2.83189,0
2024-12-11 21:03:34.549,0.122034,0.0119641,6.71067,0.210208,1.3573,2.83311,0
2024-12-11 21:03:34.553,0.12682,0.0837488,6.59821,0.191272,1.31821,2.83189,0
2024-12-11 21:03:34.554,0.133998,0.174676,6.48814,0.172946,1.28034,2.82944,0
2024-12-11 21:03:34.557,0.133998,0.244068,6.40648,0.155232,1.24307,2.82639,0
2024-12-11 21:03:34.559,0.150748,0.289831,6.30598,0.135074,1.20215,2.81784,0
2024-12-11 21:03:34.561,0.210568,0.335294,6.17677,0.114305,1.16611,2.81051,0
2024-12-11 21:03:34.564,0.270389,0.395115,6.0667,0.0923143,1.1319,2.80012,0
2024-12-11 21:03:34.566,0.316152,0.471685,5.99492,0.0642153,1.09891,2.78363,0
2024-12-11 21:03:34.568,0.361615,0.538684,5.93988,0.0348946,1.06349,2.76347,0
2024-12-11 21:03:34.570,0.3999,0.596112,5.87258,0.00557398,1.02867,2.74331,0
2024-12-11 21:03:34.573,0.41665,0.641576,5.81276,-0.0268009,0.992627,2.71888,0
2024-12-11 21:03:34.575,0.4334,0.689432,5.78166,-0.0573433,0.954754,2.69323,0
2024-12-11 21:03:34.578,0.462114,0.756431,5.7673,-0.0909399,0.919325,2.66574,0
2024-12-11 21:03:34.580,0.474078,0.816252,5.77687,-0.126369,0.880231,2.63642,0
2024-12-11 21:03:34.582,0.483649,0.869193,5.81755,-0.163631,0.846634,2.60526,0
2024-12-11 21:03:34.586,0.505185,0.919442,5.87019,-0.232656,0.778143,2.54051,0
2024-12-11 21:03:34.587,0.50997,0.940978,5.93031,-0.232656,0.778143,2.54051,0
2024-12-11 21:03:34.590,0.52672,0.967299,6.01406,-0.294963,0.714004,2.47088,0
2024-12-11 21:03:34.593,0.548256,0.99362,6.12652,-0.324894,0.688959,2.43606,0
2024-12-11 21:03:34.595,0.550648,0.991227,6.24616,-0.324894,0.688959,2.43606,0
2024-12-11 21:03:34.596,0.569791,0.991227,6.35623,-0.351772,0.662693,2.40002,0
2024-12-11 21:03:34.600,0.581755,0.984048,6.48335,-0.400029,0.622377,2.32794,0
2024-12-11 21:03:34.601,0.581755,0.964906,6.61017,-0.400029,0.622377,2.32794,0
2024-12-11 21:03:34.604,0.562612,0.94337,6.70828,-0.420797,0.607106,2.29129,0
2024-12-11 21:03:34.607,0.531506,0.919442,6.80399,-0.459892,0.580839,2.22287,0
2024-12-11 21:03:34.608,0.483649,0.88355,6.89013,-0.459892,0.580839,2.22287,0
2024-12-11 21:03:34.610,0.402293,0.845265,6.9691,-0.476995,0.569233,2.19233,0
2024-12-11 21:03:34.613,0.297009,0.828216,7.07946,-0.495321,0.557627,2.1624,0
2024-12-11 21:03:34.615,0.189033,0.82343,7.20389,-0.512424,0.544799,2.13797,0
2024-12-11 21:03:34.619,0.0646062,0.80668,7.30918,-0.544189,0.5167,2.09521,0
2024-12-11 21:03:34.621,-0.0693919,0.799502,7.42164,-0.544189,0.5167,2.09521,0
2024-12-11 21:03:34.622,-0.189033,0.797109,7.52692,-0.560681,0.501429,2.0781,0
2024-12-11 21:03:34.625,-0.304188,0.799502,7.62293,-0.57412,0.489823,2.06405,0
2024-12-11 21:03:34.627,-0.419043,0.809073,7.7354,-0.591224,0.475774,2.05489,0
2024-12-11 21:03:34.629,-0.524327,0.809073,7.867,-0.602219,0.460502,2.04695,0
2024-12-11 21:03:34.632,-0.588933,0.799502,8.01536,-0.611993,0.44462,2.03901,0
2024-12-11 21:03:34.634,-0.639183,0.782752,8.18076,-0.621155,0.430571,2.03473,0
2024-12-11 21:03:34.637,-0.677468,0.756431,8.34826,-0.627875,0.420187,2.03168,0
2024-12-11 21:03:34.640,-0.710967,0.725324,8.51097,-0.630929,0.409191,2.03046,0
2024-12-11 21:03:34.642,-0.756431,0.703789,8.6665,-0.629707,0.40797,2.03229,0
2024-12-11 21:03:34.644,-0.799502,0.689432,8.81277,-0.629707,0.40797,2.03229,0
2024-12-11 21:03:34.646,-0.85005,0.655932,8.94437,-0.627264,0.409191,2.03412,0
2024-12-11 21:03:34.648,-0.902692,0.617647,9.09033,-0.622377,0.412856,2.03901,0
2024-12-11 21:03:34.652,-0.926621,0.608076,9.21955,-0.615658,0.416521,2.04328,0
2024-12-11 21:03:34.653,-0.955334,0.591326,9.32513,-0.605884,0.420187,2.05061,0
2024-12-11 21:03:34.655,-0.979263,0.565005,9.42323,-0.598554,0.423241,2.05794,0
2024-12-11 21:03:34.658,-0.967299,0.548256,9.52373,-0.586337,0.425684,2.06405,0
2024-12-11 21:03:34.660,-0.940978,0.541077,9.61227,-0.575953,0.424462,2.07016,0
2024-12-11 21:03:34.662,-0.919442,0.519542,9.67927,-0.567401,0.425684,2.07566,0
2024-12-11 21:03:34.665,-0.905085,0.521934,9.76062,-0.560681,0.426295,2.08116,0
2024-12-11 21:03:34.668,-0.885943,0.54347,9.84467,-0.55274,0.426295,2.08421,0
2024-12-11 21:03:34.670,-0.8668,0.545863,9.89492,-0.547854,0.431793,2.08971,0
2024-12-11 21:03:34.672,-0.828216,0.545863,9.9332,-0.542967,0.43729,2.09276,0
2024-12-11 21:03:34.674,-0.789931,0.553041,10.0026,-0.541134,0.448896,2.09582,0
2024-12-11 21:03:34.676,-0.766002,0.550648,10.072,-0.537469,0.461113,2.10131,0
2024-12-11 21:03:34.679,-0.737288,0.541077,10.127,-0.530139,0.47333,2.10437,0
2024-12-11 21:03:34.682,-0.687039,0.524327,10.2036,-0.527085,0.495321,2.11414,0
2024-12-11 21:03:34.685,-0.641576,0.502792,10.3017,-0.524031,0.503262,2.11903,0
2024-12-11 21:03:34.687,-0.600898,0.490828,10.3929,-0.517922,0.512424,2.12208,0
2024-12-11 21:03:34.689,-0.545863,0.469292,10.4719,-0.513035,0.525252,2.12392,0
2024-12-11 21:03:34.691,-0.490828,0.440578,10.5604,-0.513035,0.525252,2.12392,0
2024-12-11 21:03:34.694,-0.4334,0.404686,10.649,-0.503262,0.54541,2.13247,0
2024-12-11 21:03:34.696,-0.390329,0.364008,10.7255,-0.503262,0.54541,2.13247,0
2024-12-11 21:03:34.698,-0.332901,0.332901,10.8021,-0.497764,0.555184,2.1343,0
2024-12-11 21:03:34.700,-0.253639,0.292223,10.8763,-0.491045,0.567401,2.13491,0
2024-12-11 21:03:34.702,-0.16989,0.236889,10.9361,-0.48005,0.578396,2.13674,0
