timestamp,accel_x,accel_y,accel_z,gyro_x,gyro_y,gyro_z,step_timestamp
2024-12-11 21:04:21.692,0.330509,2.57857,9.58834,-0.0176382,0.0133623,-0.00984991,0
2024-12-11 21:04:21.692,0.330509,2.57857,9.58834,-0.0176382,0.0133623,-0.00984991,0
2024-12-11 21:04:21.692,0.330509,2.57857,9.58834,-0.0176382,0.0133623,-0.00984991,0
2024-12-11 21:04:21.692,0.330509,2.57857,9.58834,-0.0176382,0.0133623,-0.00984991,0
2024-12-11 21:04:21.692,0.330509,2.57857,9.58834,-0.0176382,0.0133623,-0.00984991,0
2024-12-11 21:04:21.692,0.330509,2.57857,9.58834,-0.0176382,0.0133623,-0.00984991,0
2024-12-11 21:04:21.692,0.330509,2.57857,9.58834,-0.0176382,0.0133623,-0.00984991,0
2024-12-11 21:04:21.692,0.330509,2.57857,9.58834,-0.0176382,0.0133623,-0.00984991,0
2024-12-11 21:04:21.692,0.330509,2.57857,9.58834,-0.0176382,0.0133623,-0.00984991,0
2024-12-11 21:04:21.692,0.330509,2.57857,9.58834,-0.0176382,0.0133623,-0.00984991,0
2024-12-11 21:04:21.692,0.330509,2.57857,9.58834,-0.0176382,0.0133623,-0.00984991,0
2024-12-11 21:04:21.692,0.330509,2.57857,9.58834,-0.0176382,0.0133623,-0.00984991,0
2024-12-11 21:04:21.692,0.330509,2.57857,9.58834,-0.0176382,0.0133623,-0.00984991,0
2024-12-11 21:04:21.692,0.330509,2.57857,9.58834,-0.0176382,0.0133623,-0.00984991,0
2024-12-11 21:04:21.692,0.330509,2.57857,9.58834,-0.0176382,0.0133623,-0.00984991,0
2024-12-11 21:04:21.692,0.330509,2.57857,9.58834,-0.0176382,0.0133623,-0.00984991,0
2024-12-11 21:04:21.692,0.330509,2.57857,9.58834,-0.0176382,0.0133623,-0.00984991,0
2024-12-11 21:04:21.692,0.330509,2.57857,9.58834,-0.0176382,0.0133623,-0.00984991,0
2024-12-11 21:04:21.692,0.330509,2.57857,9.58834,-0.0176382,0.0133623,-0.00984991,0
2024-12-11 21:04:21.692,0.330509,2.57857,9.58834,-0.0176382,0.0133623,-0.00984991,0
2024-12-11 21:04:21.692,0.330509,2.57857,9.58834,-0.0176382,0.0133623,-0.00984991,0
2024-12-11 21:04:21.692,0.330509,2.57857,9.58834,-0.0176382,0.0133623,-0.00984991,0
2024-12-11 21:04:21.692,0.330509,2.57857,9.58834,-0.0176382,0.0133623,-0.00984991,0
2024-12-11 21:04:21.692,0.330509,2.57857,9.58834,-0.0176382,0.0133623,-0.00984991,0
2024-12-11 21:04:21.692,0.330509,2.57857,9.58834,-0.0176382,0.0133623,-0.00984991,0
2024-12-11 21:04:21.692,0.330509,2.57857,9.58834,-0.0176382,0.0133623,-0.00984991,0
2024-12-11 21:04:21.692,0.330509,2.57857,9.58834,-0.0176382,0.0133623,-0.00984991,0
2024-12-11 21:04:21.692,0.330509,2.57857,9.58834,-0.0176382,0.0133623,-0.00984991,0
2024-12-11 21:04:21.692,0.330509,2.57857,9.58834,-0.0176382,0.0133623,-0.00984991,0
2024-12-11 21:04:21.692,0.330509,2.57857,9.58834,-0.0176382,0.0133623,-0.00984991,0
2024-12-11 21:04:21.692,0.330509,2.57857,9.58834,-0.0176382,0.0133623,-0.00984991,0
2024-12-11 21:04:21.692,0.330509,2.57857,9.58834,-0.0176382,0.0133623,-0.00984991,0
2024-12-11 21:04:21.692,0.330509,2.57857,9.58834,-0.0176382,0.0133623,-0.00984991,0
2024-12-11 21:04:21.692,0.330509,2.57857,9.58834,-0.0176382,0.0133623,-0.00984991,0
2024-12-11 21:04:21.693,0.330509,2.57857,9.58834,-0.0176382,0.0133623,-0.00984991,0
2024-12-11 21:04:21.693,0.330509,2.57857,9.58834,-0.0176382,0.0133623,-0.00984991,0
2024-12-11 21:04:21.693,0.330509,2.57857,9.58834,-0.0176382,0.0133623,-0.00984991,0
2024-12-11 21:04:21.693,0.330509,2.57857,9.58834,-0.0176382,0.0133623,-0.00984991,0
2024-12-11 21:04:21.693,0.330509,2.57857,9.58834,-0.0176382,0.0133623,-0.00984991,0
2024-12-11 21:04:21.693,0.330509,2.57857,9.58834,-0.0176382,0.0133623,-0.00984991,0
2024-12-11 21:04:21.693,0.330509,2.57857,9.58834,-0.0176382,0.0133623,-0.00984991,0
2024-12-11 21:04:21.693,0.330509,2.57857,9.58834,-0.0176382,0.0133623,-0.00984991,0
2024-12-11 21:04:21.693,0.330509,2.57857,9.58834,-0.0176382,0.0133623,-0.00984991,0
2024-12-11 21:04:21.693,0.330509,2.57857,9.58834,-0.0176382,0.0133623,-0.00984991,0
2024-12-11 21:04:21.693,0.330509,2.57857,9.58834,-0.0176382,0.0133623,-0.00984991,0
2024-12-11 21:04:21.693,0.330509,2.57857,9.58834,-0.0176382,0.0133623,-0.00984991,0
2024-12-11 21:04:21.693,0.330509,2.57857,9.58834,-0.0176382,0.0133623,-0.00984991,0
2024-12-11 21:04:21.693,0.330509,2.57857,9.58834,-0.0176382,0.0133623,-0.00984991,0
2024-12-11 21:04:21.693,0.330509,2.57857,9.58834,-0.0176382,0.0133623,-0.00984991,0
2024-12-11 21:04:21.693,0.330509,2.57857,9.58834,-0.0176382,0.0133623,-0.00984991,0
2024-12-11 21:04:21.693,0.330509,2.57857,9.58834,-0.0176382,0.0133623,-0.00984991,0
2024-12-11 21:04:21.693,0.330509,2.57857,9.58834,-0.0176382,0.0133623,-0.00984991,0
2024-12-11 21:04:21.693,0.330509,2.57857,9.58834,-0.0176382,0.0133623,-0.00984991,0
2024-12-11 21:04:21.695,0.330509,2.56899,9.59073,-0.0176382,0.0133623,-0.00984991,0
2024-12-11 21:04:21.711,0.22014,2.59053,9.64337,-0.0274118,-0.00618483,-0.0165692,0
2024-12-11 21:04:21.715,0.177069,2.58574,9.69841,-0.0353528,-0.0275645,-0.0122933,0
2024-12-11 21:04:21.715,0.177069,2.58574,9.69841,-0.0353528,-0.0275645,-0.0122933,0
2024-12-11 21:04:21.715,0.177069,2.58574,9.69841,-0.0353528,-0.0275645,-0.0122933,0
2024-12-11 21:04:21.716,0.177069,2.58574,9.69841,-0.0353528,-0.0275645,-0.0122933,0
2024-12-11 21:04:21.716,0.177069,2.58574,9.69841,-0.0353528,-0.0275645,-0.0122933,0
2024-12-11 21:04:21.716,0.177069,2.58574,9.69841,-0.0353528,-0.0275645,-0.0122933,0
2024-12-11 21:04:21.716,0.177069,2.58574,9.69841,-0.0353528,-0.0275645,-0.0122933,0
2024-12-11 21:04:21.716,0.177069,2.58574,9.69841,-0.0353528,-0.0275645,-0.0122933,0
2024-12-11 21:04:21.718,0.184247,2.58335,9.72473,-0.0347419,-0.0269536,-0.0104608,0
2024-12-11 21:04:21.718,0.184247,2.58335,9.72473,-0.0347419,-0.0269536,-0.0104608,0
2024-12-11 21:04:21.719,0.184247,2.58335,9.72473,-0.0335202,-0.0251211,-0.00862822,0
2024-12-11 21:04:21.720,0.184247,2.56182,9.73191,-0.0335202,-0.0251211,-0.00862822,0
2024-12-11 21:04:21.720,0.184247,2.56182,9.73191,-0.0335202,-0.0251211,-0.00862822,0
2024-12-11 21:04:21.720,0.184247,2.56182,9.73191,-0.0335202,-0.0251211,-0.00862822,0
2024-12-11 21:04:21.720,0.184247,2.56182,9.73191,-0.0335202,-0.0251211,-0.00862822,0
2024-12-11 21:04:21.720,0.184247,2.56182,9.73191,-0.0335202,-0.0251211,-0.00862822,0
2024-12-11 21:04:21.722,0.18664,2.54267,9.74148,-0.0310769,-0.0257319,-0.00618483,0
2024-12-11 21:04:21.722,0.18664,2.54267,9.74148,-0.0310769,-0.0257319,-0.00618483,0
2024-12-11 21:04:21.722,0.18664,2.54267,9.74148,-0.0310769,-0.0257319,-0.00618483,0
2024-12-11 21:04:21.723,0.18664,2.54267,9.74148,-0.0310769,-0.0257319,-0.00618483,0
2024-12-11 21:04:21.723,0.18664,2.54267,9.74148,-0.0310769,-0.0257319,-0.00618483,0
2024-12-11 21:04:21.723,0.18664,2.54267,9.74148,-0.0310769,-0.0257319,-0.00618483,0
2024-12-11 21:04:21.725,0.196211,2.53549,9.77259,-0.0286335,-0.0238994,-0.00251974,0
2024-12-11 21:04:21.725,0.196211,2.53549,9.77259,-0.0286335,-0.0238994,-0.00251974,0
2024-12-11 21:04:21.725,0.196211,2.53549,9.77259,-0.0286335,-0.0238994,-0.00251974,0
2024-12-11 21:04:21.726,0.196211,2.53549,9.77259,-0.0286335,-0.0238994,-0.00251974,0
2024-12-11 21:04:21.727,0.200997,2.51845,9.77498,-0.0286335,-0.0238994,-0.00251974,0
2024-12-11 21:04:21.728,0.200997,2.51845,9.77498,-0.0219141,-0.0190126,0.00175619,0
2024-12-11 21:04:21.729,0.205783,2.49452,9.75823,-0.0219141,-0.0190126,0.00175619,0
2024-12-11 21:04:21.729,0.205783,2.49452,9.75823,-0.0219141,-0.0190126,0.00175619,0
2024-12-11 21:04:21.729,0.205783,2.49452,9.75823,-0.0219141,-0.0190126,0.00175619,0
2024-12-11 21:04:21.730,0.205783,2.49452,9.75823,-0.0219141,-0.0190126,0.00175619,0
2024-12-11 21:04:21.732,0.236889,2.49212,9.76062,-0.0194708,-0.0153475,0.00175619,0
2024-12-11 21:04:21.732,0.236889,2.49212,9.76062,-0.0194708,-0.0153475,0.00175619,0
2024-12-11 21:04:21.733,0.236889,2.49212,9.76062,-0.0170274,-0.0129041,0.00419957,0
2024-12-11 21:04:21.733,0.236889,2.49212,9.76062,-0.0170274,-0.0129041,0.00419957,0
2024-12-11 21:04:21.734,0.267996,2.50409,9.77498,-0.0170274,-0.0129041,0.00419957,0
2024-12-11 21:04:21.734,0.267996,2.50409,9.77498,-0.0170274,-0.0129041,0.00419957,0
2024-12-11 21:04:21.734,0.267996,2.50409,9.77498,-0.0170274,-0.0129041,0.00419957,0
2024-12-11 21:04:21.734,0.267996,2.50409,9.77498,-0.0170274,-0.0129041,0.00419957,0
2024-12-11 21:04:21.734,0.267996,2.50409,9.77498,-0.0170274,-0.0129041,0.00419957,0
2024-12-11 21:04:21.734,0.267996,2.50409,9.77498,-0.0170274,-0.0129041,0.00419957,0
2024-12-11 21:04:21.734,0.267996,2.50409,9.77498,-0.0170274,-0.0129041,0.00419957,0
2024-12-11 21:04:21.734,0.267996,2.50409,9.77498,-0.0170274,-0.0129041,0.00419957,0
2024-12-11 21:04:21.735,0.267996,2.50409,9.77498,-0.0170274,-0.0129041,0.00419957,0
2024-12-11 21:04:21.735,0.267996,2.50409,9.77498,-0.0170274,-0.0129041,0.00419957,0
2024-12-11 21:04:21.735,0.267996,2.50409,9.77498,-0.0170274,-0.0129041,0.00419957,0
2024-12-11 21:04:21.735,0.267996,2.50409,9.77498,-0.0170274,-0.0129041,0.00419957,0
2024-12-11 21:04:21.741,0.294616,2.51845,9.74387,-0.00908635,0.00175619,0.00481042,0
2024-12-11 21:04:21.742,0.289831,2.51845,9.74387,-0.00481042,0.00542127,0.00664296,0
2024-12-11 21:04:21.744,0.297009,2.53071,9.7343,-0.00481042,0.00542127,0.00664296,0
2024-12-11 21:04:21.744,0.297009,2.53071,9.7343,-0.00481042,0.00542127,0.00664296,0
2024-12-11 21:04:21.745,0.297009,2.53071,9.7343,-0.00542127,0.00786466,0.00664296,0
2024-12-11 21:04:21.745,0.297009,2.53071,9.7343,-0.00542127,0.00786466,0.00664296,0
2024-12-11 21:04:21.748,0.299402,2.54985,9.73191,-0.00358873,0.00908635,0.00786466,0
2024-12-11 21:04:21.748,0.299402,2.54985,9.73191,-0.00358873,0.00908635,0.00786466,0
2024-12-11 21:04:21.748,0.299402,2.54985,9.73191,-0.00358873,0.00908635,0.00786466,0
2024-12-11 21:04:21.748,0.299402,2.54985,9.73191,-0.00358873,0.00908635,0.00786466,0
2024-12-11 21:04:21.749,0.299402,2.54985,9.73191,-0.00358873,0.00908635,0.00786466,0
2024-12-11 21:04:21.752,0.304188,2.56182,9.71277,-0.00542127,0.00603212,0.00786466,0
2024-12-11 21:04:21.754,0.304188,2.58814,9.69362,-0.00481042,0.00419957,0.00603212,0
2024-12-11 21:04:21.756,0.292223,2.59292,9.67448,-0.00481042,0.00419957,0.00603212,0
2024-12-11 21:04:21.758,0.313759,2.59053,9.67448,-0.00603212,0.00114534,0.00358873,0
2024-12-11 21:04:21.760,0.337687,2.60489,9.67448,-0.00847551,-0.00740652,0.00175619,0
2024-12-11 21:04:21.763,0.354437,2.60967,9.68166,-0.0121406,-0.0159584,0.000534491,0
2024-12-11 21:04:21.765,0.366401,2.6001,9.68405,-0.014584,-0.0226777,-0.00435229,0
2024-12-11 21:04:21.767,0.373579,2.6001,9.68405,-0.0194708,-0.0300079,-0.00740652,0
2024-12-11 21:04:21.771,0.387936,2.60967,9.69362,-0.0231358,-0.037338,-0.00923906,0
2024-12-11 21:04:21.772,0.397508,2.60489,9.70559,-0.0261901,-0.0434465,-0.013515,0
2024-12-11 21:04:21.775,0.395115,2.60728,9.71755,-0.0274118,-0.0501658,-0.0177909,0
2024-12-11 21:04:21.777,0.385544,2.62403,9.73909,-0.0329094,-0.0556635,-0.0226777,0
2024-12-11 21:04:21.779,0.385544,2.6336,9.77259,-0.0359636,-0.0581068,-0.0269536,0
2024-12-11 21:04:21.781,0.3999,2.63599,9.79652,-0.0359636,-0.0581068,-0.0300079,0
2024-12-11 21:04:21.784,0.414257,2.64078,9.81566,-0.0353528,-0.057496,-0.0318404,0
2024-12-11 21:04:21.787,0.404686,2.64317,9.8351,-0.0371853,-0.0526092,-0.0403923,0
2024-12-11 21:04:21.788,0.397508,2.63839,9.84706,-0.0371853,-0.0526092,-0.0403923,0
2024-12-11 21:04:21.792,0.3999,2.61924,9.86381,-0.0408504,-0.0428357,-0.0434465,0
2024-12-11 21:04:21.793,0.397508,2.61207,9.88056,-0.0408504,-0.0428357,-0.0434465,0
2024-12-11 21:04:21.795,0.392722,2.60967,9.89253,-0.0371853,-0.033673,-0.0489441,0
2024-12-11 21:04:21.798,0.380758,2.60249,9.91167,-0.0390179,-0.0220669,-0.0489441,0
2024-12-11 21:04:21.800,0.375972,2.59053,9.92363,-0.0408504,-0.0165692,-0.0507767,0
2024-12-11 21:04:21.803,0.366401,2.58574,9.91167,-0.0365745,-0.00740652,-0.0519984,0
2024-12-11 21:04:21.805,0.34008,2.57139,9.9021,-0.0371853,-0.00129805,-0.0532201,0
2024-12-11 21:04:21.810,0.301795,2.54028,9.89253,-0.0341311,0.0133623,-0.0532201,0
2024-12-11 21:04:21.811,0.301795,2.54028,9.89253,-0.0335202,0.0206925,-0.0532201,0
2024-12-11 21:04:21.813,0.275175,2.52832,9.89013,-0.0341311,0.0298552,-0.0507767,0
2024-12-11 21:04:21.814,0.244068,2.54028,9.89253,-0.0341311,0.0298552,-0.0507767,0
2024-12-11 21:04:21.819,0.22014,2.52592,9.85664,-0.038407,0.0371853,-0.0452791,0
2024-12-11 21:04:21.820,0.22014,2.52592,9.85664,-0.0353528,0.0371853,-0.0403923,0
2024-12-11 21:04:21.822,0.20339,2.53071,9.86142,-0.0353528,0.0371853,-0.0403923,0
2024-12-11 21:04:21.824,0.189033,2.53071,9.86142,-0.0390179,0.0396287,-0.0367272,0
2024-12-11 21:04:21.828,0.167498,2.50887,9.84706,-0.0377962,0.0365745,-0.0281753,0
2024-12-11 21:04:21.829,0.167498,2.50887,9.84706,-0.0377962,0.0365745,-0.0281753,0
2024-12-11 21:04:21.831,0.179462,2.51605,9.84706,-0.0402396,0.0365745,-0.0220669,0
2024-12-11 21:04:21.833,0.179462,2.52832,9.84228,-0.042683,0.0316877,-0.0165692,0
2024-12-11 21:04:21.835,0.179462,2.52592,9.84706,-0.0414613,0.0280226,-0.0116825,0
2024-12-11 21:04:21.838,0.177069,2.51605,9.86142,-0.0414613,0.0255792,-0.00923906,0
2024-12-11 21:04:21.841,0.172283,2.52323,9.88056,-0.0414613,0.022525,-0.00313059,0
2024-12-11 21:04:21.843,0.179462,2.53789,9.88056,-0.0365745,0.0213033,0.00114534,0
2024-12-11 21:04:21.847,0.184247,2.54028,9.88056,-0.0341311,0.0127514,0.00908635,0
2024-12-11 21:04:21.848,0.184247,2.54985,9.88535,-0.0341311,0.0115297,0.0133623,0
2024-12-11 21:04:21.850,0.191426,2.54507,9.88535,-0.0341311,0.0115297,0.0133623,0
2024-12-11 21:04:21.852,0.193819,2.54985,9.89253,-0.030466,0.0109189,0.0170274,0
2024-12-11 21:04:21.857,0.205783,2.54746,9.89492,-0.022525,0.0115297,0.0231358,0
2024-12-11 21:04:21.857,0.205783,2.54746,9.89492,-0.022525,0.0115297,0.0231358,0
2024-12-11 21:04:21.861,0.234497,2.55464,9.8686,-0.0121406,0.0121406,0.0261901,0
2024-12-11 21:04:21.861,0.253639,2.55464,9.8686,-0.0121406,0.0121406,0.0261901,0
2024-12-11 21:04:21.865,0.270389,2.54746,9.87338,-0.00908635,0.0115297,0.0243575,0
2024-12-11 21:04:21.866,0.285045,2.55224,9.8686,-0.000534491,0.0139731,0.0243575,0
2024-12-11 21:04:21.868,0.282652,2.56421,9.84946,0.00251974,0.0176382,0.022525,0
2024-12-11 21:04:21.871,0.289831,2.55942,9.82792,0.00923906,0.0158057,0.0213033,0
2024-12-11 21:04:21.873,0.299402,2.5666,9.8013,0.013515,0.0151948,0.0200816,0
2024-12-11 21:04:21.875,0.316152,2.58574,9.77977,0.0153475,0.0133623,0.0164165,0
2024-12-11 21:04:21.879,0.330509,2.59053,9.76541,0.0226777,0.0133623,0.0096972,0
2024-12-11 21:04:21.880,0.332901,2.58814,9.7343,0.0226777,0.0133623,0.0096972,0
2024-12-11 21:04:21.886,0.349651,2.57378,9.68645,0.0245102,0.00664296,0.00481042,0
2024-12-11 21:04:21.886,0.349651,2.57378,9.68645,0.0245102,0.00664296,0.00481042,0
2024-12-11 21:04:21.890,0.344866,2.60249,9.64816,0.0245102,0.00114534,-0.00496313,0
2024-12-11 21:04:21.890,0.344866,2.60249,9.64816,0.0245102,0.00114534,-0.00496313,0
2024-12-11 21:04:21.892,0.34008,2.60489,9.62184,0.0245102,0.00114534,-0.00496313,0
2024-12-11 21:04:21.895,0.335294,2.60249,9.60509,0.029397,-0.0147367,-0.0104608,0
2024-12-11 21:04:21.897,0.344866,2.6001,9.59791,0.0251211,-0.021456,-0.013515,0
2024-12-11 21:04:21.899,0.332901,2.6001,9.57638,0.021456,-0.029397,-0.0147367,0
2024-12-11 21:04:21.904,0.35683,2.60489,9.55484,0.0171801,-0.0434465,-0.021456,0
2024-12-11 21:04:21.904,0.35683,2.60489,9.55484,0.0171801,-0.0434465,-0.021456,0
2024-12-11 21:04:21.908,0.359223,2.59053,9.56441,0.0110716,-0.0587177,-0.0287862,0
2024-12-11 21:04:21.908,0.359223,2.59053,9.56441,0.0110716,-0.0587177,-0.0287862,0
2024-12-11 21:04:21.911,0.359223,2.57857,9.5692,0.00862822,-0.0587177,-0.0287862,0
2024-12-11 21:04:21.913,0.359223,2.58335,9.57638,0.00618483,-0.0611611,-0.0318404,0
2024-12-11 21:04:21.917,0.337687,2.58814,9.57398,-0.00236703,-0.0629936,-0.0367272,0
2024-12-11 21:04:21.918,0.32333,2.56899,9.57877,-0.00236703,-0.0629936,-0.0367272,0
2024-12-11 21:04:21.921,0.330509,2.56899,9.58355,-0.00603212,-0.0611611,-0.0385597,0
2024-12-11 21:04:21.923,0.313759,2.58574,9.6003,-0.00664296,-0.0611611,-0.0385597,0
2024-12-11 21:04:21.925,0.297009,2.58335,9.6003,-0.00908635,-0.0587177,-0.0403923,0
2024-12-11 21:04:21.927,0.292223,2.58814,9.59791,-0.0096972,-0.0550526,-0.0410031,0
2024-12-11 21:04:21.931,0.27996,2.58335,9.6003,-0.014584,-0.0440574,-0.0422248,0
2024-12-11 21:04:21.933,0.272782,2.57617,9.60987,-0.0164165,-0.0397814,-0.041614,0
2024-12-11 21:04:21.934,0.263211,2.58574,9.61945,-0.0164165,-0.0397814,-0.041614,0
2024-12-11 21:04:21.938,0.239282,2.58814,9.60987,-0.0182491,-0.0300079,-0.0422248,0
2024-12-11 21:04:21.940,0.210568,2.58096,9.59313,-0.0213033,-0.00984991,-0.0403923,0
2024-12-11 21:04:21.941,0.189033,2.59292,9.56441,-0.0213033,-0.00984991,-0.0403923,0
2024-12-11 21:04:21.944,0.167498,2.61207,9.55005,-0.0213033,-0.00984991,-0.0403923,0
2024-12-11 21:04:21.946,0.153141,2.61207,9.52134,-0.0316877,0.00725381,-0.0361163,0
2024-12-11 21:04:21.950,0.141177,2.62164,9.48306,-0.0329094,0.0237467,-0.0348946,0
2024-12-11 21:04:21.951,0.129212,2.63599,9.47109,-0.0329094,0.0237467,-0.0348946,0
2024-12-11 21:04:21.953,0.117248,2.63599,9.45434,-0.0322986,0.0322986,-0.0348946,0
2024-12-11 21:04:21.956,0.0909273,2.6336,9.43041,-0.0365745,0.0377962,-0.0342838,0
2024-12-11 21:04:21.960,0.0574277,2.65992,9.37059,-0.0439046,0.0432938,-0.0330621,0
2024-12-11 21:04:21.963,0.0526421,2.66231,9.34427,-0.0439046,0.0432938,-0.0330621,0
2024-12-11 21:04:21.963,0.0526421,2.66231,9.34427,-0.0439046,0.0432938,-0.0330621,0
2024-12-11 21:04:21.968,0.0382852,2.68864,9.32274,-0.0720036,0.0475697,-0.0361163,0
2024-12-11 21:04:21.970,0.0382852,2.68385,9.30838,-0.0793338,0.042683,-0.0367272,0
2024-12-11 21:04:21.970,0.0382852,2.68385,9.30838,-0.0793338,0.042683,-0.0367272,0
2024-12-11 21:04:21.973,0.0215354,2.68624,9.30359,-0.0952158,0.0347419,-0.0397814,0
2024-12-11 21:04:21.974,-0.00239282,2.7006,9.30599,-0.0952158,0.0347419,-0.0397814,0
2024-12-11 21:04:21.978,-0.0311067,2.72453,9.30838,-0.11232,0.0249684,-0.0410031,0
2024-12-11 21:04:21.980,-0.0478565,2.75324,9.32274,-0.11965,0.0176382,-0.0428357,0
2024-12-11 21:04:21.981,-0.0765703,2.77238,9.33231,-0.11965,0.0176382,-0.0428357,0
2024-12-11 21:04:21.984,-0.11007,2.78913,9.34666,-0.127591,0.0127514,-0.0440574,0
2024-12-11 21:04:21.990,-0.145962,2.81545,9.41366,-0.139197,0.00358873,-0.0428357,0
2024-12-11 21:04:21.991,-0.160319,2.8322,9.42084,-0.149581,-0.0019089,-0.0422248,0
2024-12-11 21:04:21.993,-0.172283,2.82742,9.44477,-0.152635,-0.00496313,-0.0434465,0
2024-12-11 21:04:21.994,-0.172283,2.82742,9.44477,-0.158744,-0.00740652,-0.0446682,0
2024-12-11 21:04:21.996,-0.181855,2.80828,9.49023,-0.158744,-0.00740652,-0.0446682,0
2024-12-11 21:04:21.999,-0.184247,2.79631,9.5333,-0.162409,-0.0153475,-0.0446682,0
2024-12-11 21:04:22.000,-0.177069,2.79631,9.5668,-0.162409,-0.0153475,-0.0446682,0
2024-12-11 21:04:22.003,-0.174676,2.79631,9.59791,-0.162409,-0.0184018,-0.0458899,0
2024-12-11 21:04:22.005,-0.174676,2.78435,9.6362,-0.162409,-0.0184018,-0.0458899,0
2024-12-11 21:04:22.007,-0.179462,2.7676,9.6673,-0.162409,-0.0165692,-0.049555,0
2024-12-11 21:04:22.010,-0.193819,2.75563,9.68645,-0.161187,-0.0165692,-0.049555,0
2024-12-11 21:04:22.012,-0.20339,2.75803,9.70798,-0.156301,-0.0147367,-0.0519984,0
2024-12-11 21:04:22.014,-0.208176,2.75563,9.73191,-0.156301,-0.0147367,-0.0519984,0
2024-12-11 21:04:22.018,-0.229711,2.75324,9.74148,-0.14836,-0.00374144,-0.0556635,0
2024-12-11 21:04:22.020,-0.244068,2.76042,9.74627,-0.14836,-0.00374144,-0.0556635,0
2024-12-11 21:04:22.022,-0.258425,2.76281,9.76302,-0.143473,-0.0019089,-0.0532201,0
2024-12-11 21:04:22.024,-0.304188,2.75803,9.77259,-0.138586,0.00236703,-0.0532201,0
2024-12-11 21:04:22.026,-0.337687,2.74846,9.78216,-0.133699,0.00297788,-0.0507767,0
2024-12-11 21:04:22.031,-0.371187,2.75563,9.77737,-0.126369,0.000534491,-0.0458899,0
2024-12-11 21:04:22.031,-0.371187,2.75563,9.77737,-0.126369,0.000534491,-0.0458899,0
2024-12-11 21:04:22.036,-0.407079,2.75324,9.78455,-0.119039,0.00236703,-0.0379489,0
2024-12-11 21:04:22.036,-0.407079,2.75324,9.78455,-0.119039,0.00236703,-0.0379489,0
2024-12-11 21:04:22.039,-0.431007,2.76281,9.77737,-0.109876,-7.63559e-05,-0.0263428,0
2024-12-11 21:04:22.041,-0.45015,2.77956,9.77977,-0.109876,-7.63559e-05,-0.0263428,0
2024-12-11 21:04:22.045,-0.452543,2.78196,9.76302,-0.106211,-0.0019089,-0.013515,0
2024-12-11 21:04:22.047,-0.435793,2.78913,9.75344,-0.106211,-0.0019089,-0.013515,0
2024-12-11 21:04:22.047,-0.431007,2.81067,9.75344,-0.106211,-0.0019089,-0.013515,0
2024-12-11 21:04:22.050,-0.447757,2.8011,9.75823,-0.103157,-0.000687203,-7.63559e-05,0
2024-12-11 21:04:22.052,-0.431007,2.8011,9.75344,-0.0988809,0.00236703,0.00908635,0
2024-12-11 21:04:22.055,-0.41665,2.81067,9.73669,-0.0970484,0.00236703,0.0158057,0
2024-12-11 21:04:22.057,-0.411865,2.81306,9.73191,-0.0964375,0.00297788,0.0219141,0
2024-12-11 21:04:22.060,-0.380758,2.82263,9.72952,-0.0909399,0.00603212,0.0329094,0
2024-12-11 21:04:22.062,-0.35683,2.82503,9.71755,-0.0909399,0.00603212,0.0329094,0
2024-12-11 21:04:22.064,-0.337687,2.81306,9.70798,-0.0915507,0.00419957,0.0359636,0
2024-12-11 21:04:22.067,-0.311366,2.81545,9.71037,-0.0897182,0.00786466,0.0432938,0
2024-12-11 21:04:22.069,-0.287438,2.82742,9.71277,-0.0897182,0.00786466,0.0432938,0
2024-12-11 21:04:22.071,-0.260818,2.83699,9.70798,-0.0878856,0.00603212,0.046348,0
2024-12-11 21:04:22.073,-0.256032,2.85853,9.71994,-0.0909399,0.00297788,0.0494023,0
2024-12-11 21:04:22.076,-0.253639,2.87767,9.72712,-0.0909399,0.00297788,0.0500131,0
2024-12-11 21:04:22.078,-0.239282,2.8992,9.71994,-0.0915507,0.00297788,0.0500131,0
2024-12-11 21:04:22.080,-0.241675,2.91117,9.72473,-0.0909399,0.00175619,0.0536782,0
2024-12-11 21:04:22.083,-0.236889,2.93988,9.73191,-0.0921616,0.00542127,0.0530674,0
2024-12-11 21:04:22.086,-0.224925,2.97099,9.72473,-0.0958267,0.00114534,0.0548999,0
2024-12-11 21:04:22.087,-0.208176,2.98535,9.72712,-0.094605,0.00725381,0.0548999,0
2024-12-11 21:04:22.090,-0.20339,3.00449,9.74148,-0.0952158,0.0127514,0.0567324,0
2024-12-11 21:04:22.093,-0.20339,3.01167,9.7343,-0.0939941,0.0261901,0.0597867,0
2024-12-11 21:04:22.095,-0.191426,3.02124,9.71994,-0.0939941,0.0261901,0.0597867,0
2024-12-11 21:04:22.098,-0.191426,3.04995,9.70798,-0.0921616,0.0439046,0.0616192,0
2024-12-11 21:04:22.102,-0.20339,3.0667,9.66012,-0.090329,0.0518457,0.0640626,0
2024-12-11 21:04:22.103,-0.20339,3.0667,9.66012,-0.090329,0.0518457,0.0640626,0
2024-12-11 21:04:22.104,-0.200997,3.05474,9.63141,-0.0897182,0.0591758,0.0646735,0
2024-12-11 21:04:22.106,-0.196211,3.05474,9.60509,-0.0891073,0.0658951,0.0658951,0
2024-12-11 21:04:22.111,-0.234497,3.07867,9.57877,-0.0860531,0.066506,0.0707819,0
2024-12-11 21:04:22.112,-0.234497,3.07867,9.57877,-0.0860531,0.066506,0.0707819,0
2024-12-11 21:04:22.113,-0.263211,3.11007,9.55723,-0.0854423,0.0671168,0.074447,0
2024-12-11 21:04:22.116,-0.285045,3.13879,9.53091,-0.0829989,0.0658951,0.0775012,0
2024-12-11 21:04:22.120,-0.299402,3.16511,9.51177,-0.0762796,0.0695602,0.0836097,0
2024-12-11 21:04:22.120,-0.299402,3.17946,9.5022,-0.0762796,0.0695602,0.0836097,0
2024-12-11 21:04:22.124,-0.292223,3.18903,9.48545,-0.0701711,0.0683385,0.0891073,0
2024-12-11 21:04:22.126,-0.285045,3.22253,9.47348,-0.0671168,0.0677277,0.0927724,0
2024-12-11 21:04:22.128,-0.27996,3.24407,9.47109,-0.0671168,0.0677277,0.0927724,0
2024-12-11 21:04:22.130,-0.265603,3.24168,9.48066,-0.0640626,0.0628409,0.0939941,0
2024-12-11 21:04:22.135,-0.222533,3.29432,9.47827,-0.0555107,0.0439046,0.102546,0
2024-12-11 21:04:22.135,-0.222533,3.29432,9.47827,-0.0555107,0.0439046,0.102546,0
2024-12-11 21:04:22.139,-0.150748,3.36371,9.5022,-0.0457372,0.0249684,0.108044,0
2024-12-11 21:04:22.140,-0.150748,3.36371,9.5022,-0.0457372,0.0249684,0.108044,0
2024-12-11 21:04:22.144,-0.0693919,3.43789,9.55005,-0.0322986,0.00664296,0.114763,0
2024-12-11 21:04:22.145,-0.0693919,3.43789,9.55005,-0.0322986,0.00664296,0.114763,0
2024-12-11 21:04:22.149,0.0454636,3.49053,9.58355,-0.0274118,0.000534491,0.118428,0
2024-12-11 21:04:22.149,0.0454636,3.49053,9.58355,-0.0274118,0.000534491,0.118428,0
2024-12-11 21:04:22.151,0.107677,3.52403,9.61945,-0.010308,-0.00740652,0.117817,0
2024-12-11 21:04:22.154,0.16989,3.54078,9.6338,0.0019089,-0.00923906,0.120871,0
2024-12-11 21:04:22.156,0.232104,3.56231,9.64816,0.00923906,-0.0141258,0.122093,0
2024-12-11 21:04:22.159,0.287438,3.59821,9.66252,0.0196235,-0.0171801,0.120871,0
2024-12-11 21:04:22.161,0.335294,3.62453,9.67448,0.0324513,-0.0196235,0.118428,0
2024-12-11 21:04:22.163,0.380758,3.64606,9.69123,0.0428357,-0.0238994,0.114763,0
2024-12-11 21:04:22.165,0.435793,3.66072,9.7008,0.0526092,-0.0281753,0.11232,0
2024-12-11 21:04:22.168,0.493221,3.67029,9.7008,0.0642153,-0.0342838,0.108044,0
2024-12-11 21:04:22.171,0.54347,3.67268,9.7008,0.0868167,-0.0434465,0.0958267,0
2024-12-11 21:04:22.172,0.598505,3.67029,9.68884,0.0868167,-0.0434465,0.0958267,0
2024-12-11 21:04:22.175,0.660718,3.67029,9.68166,0.0953685,-0.0526092,0.0884965,0
2024-12-11 21:04:22.177,0.710967,3.66072,9.67448,0.106364,-0.0623828,0.0799446,0
2024-12-11 21:04:22.179,0.749253,3.67747,9.66252,0.106364,-0.0623828,0.0799446,0
2024-12-11 21:04:22.182,0.789931,3.68465,9.6673,0.127133,-0.0831516,0.0616192,0
2024-12-11 21:04:22.185,0.835394,3.66551,9.66012,0.146069,-0.10331,0.0390179,0
2024-12-11 21:04:22.186,0.885943,3.67029,9.64816,0.146069,-0.10331,0.0390179,0
2024-12-11 21:04:22.193,1.06062,3.63171,9.65295,0.168059,-0.144236,0.00236703,0
2024-12-11 21:04:22.196,1.11326,3.61496,9.66012,0.17539,-0.156453,-0.0116825,0
2024-12-11 21:04:22.198,1.11326,3.58624,9.66252,0.181498,-0.167449,-0.0281753,0
2024-12-11 21:04:22.199,1.17069,3.58624,9.66252,0.190661,-0.179665,-0.0440574,0
2024-12-11 21:04:22.202,1.24247,3.55514,9.65773,0.197991,-0.191272,-0.057496,0
2024-12-11 21:04:22.202,1.24247,3.55514,9.65773,0.197991,-0.191272,-0.057496,0
2024-12-11 21:04:22.203,1.29751,3.52642,9.64577,0.197991,-0.191272,-0.057496,0
2024-12-11 21:04:22.205,1.35015,3.5001,9.66252,0.204099,-0.200434,-0.0764323,0
2024-12-11 21:04:22.208,1.40279,3.45224,9.67927,0.214484,-0.20471,-0.0959794,0
2024-12-11 21:04:22.211,1.44855,3.3996,9.6697,0.224257,-0.210819,-0.113083,0
2024-12-11 21:04:22.215,1.48923,3.34935,9.6673,0.241361,-0.213873,-0.152177,0
2024-12-11 21:04:22.215,1.48923,3.34935,9.6673,0.241361,-0.213873,-0.152177,0
2024-12-11 21:04:22.219,1.48923,3.25364,9.6338,0.258465,-0.213873,-0.186385,0
2024-12-11 21:04:22.219,1.48923,3.25364,9.6338,0.258465,-0.213873,-0.186385,0
2024-12-11 21:04:22.224,1.4677,3.134,9.58116,0.281677,-0.210819,-0.215095,0
2024-12-11 21:04:22.225,1.4677,3.134,9.58116,0.29084,-0.207154,-0.229144,0
2024-12-11 21:04:22.229,1.35015,3.04517,9.55484,0.303667,-0.207764,-0.239528,0
2024-12-11 21:04:22.229,1.35015,3.04517,9.55484,0.303667,-0.207764,-0.239528,0
2024-12-11 21:04:22.231,1.28554,3.01167,9.50698,0.317717,-0.202267,-0.247469,0
2024-12-11 21:04:22.235,1.22333,2.97338,9.45195,0.323215,-0.194937,-0.254189,0
2024-12-11 21:04:22.236,1.16351,2.94706,9.40409,0.332377,-0.19005,-0.255411,0
2024-12-11 21:04:22.238,1.11565,2.90399,9.36581,0.343983,-0.178444,-0.257243,0
2024-12-11 21:04:22.243,0.967299,2.83938,9.25783,0.375137,-0.152788,-0.24808,0
2024-12-11 21:04:22.243,0.967299,2.83938,9.25783,0.375137,-0.152788,-0.24808,0
2024-12-11 21:04:22.245,0.909871,2.82981,9.19801,0.386743,-0.138128,-0.241361,0
2024-12-11 21:04:22.248,0.833001,2.8346,9.14058,0.39224,-0.121024,-0.232198,0
2024-12-11 21:04:22.251,0.768395,2.82981,9.07358,0.422783,-0.0941468,-0.206543,0
2024-12-11 21:04:22.252,0.715753,2.82024,9.0018,0.422783,-0.0941468,-0.206543,0
2024-12-11 21:04:22.256,0.679861,2.8322,8.93719,0.42828,-0.0788757,-0.188828,0
2024-12-11 21:04:22.257,0.65354,2.8322,8.86302,0.438054,-0.0599394,-0.169281,0
2024-12-11 21:04:22.260,0.612862,2.82981,8.78884,0.444773,-0.0434465,-0.148512,0
2024-12-11 21:04:22.262,0.550648,2.84895,8.71705,0.455158,-0.0238994,-0.123468,0
2024-12-11 21:04:22.264,0.50997,2.8681,8.64497,0.455158,-0.0238994,-0.123468,0
2024-12-11 21:04:22.268,0.500399,2.87767,8.55883,0.474094,0.00908635,-0.0782648,0
2024-12-11 21:04:22.270,0.483649,2.9016,8.44876,0.472261,0.0261901,-0.0281753,0
2024-12-11 21:04:22.271,0.486042,2.92552,8.35783,0.477148,0.0469589,-0.0281753,0
2024-12-11 21:04:22.275,0.519542,2.9327,8.28126,0.477759,0.0603975,-0.00557398,0
2024-12-11 21:04:22.276,0.562612,2.93749,8.2023,0.477148,0.0707819,0.0176382,0
2024-12-11 21:04:22.279,0.617647,2.95663,8.12064,0.481424,0.0811663,0.0365745,0
2024-12-11 21:04:22.281,0.699003,2.96381,8.06561,0.47104,0.0878856,0.0542891,0
2024-12-11 21:04:22.285,0.888335,2.9662,7.96272,0.452714,0.0878856,0.0829989,0
2024-12-11 21:04:22.288,0.888335,3.0021,7.93879,0.437443,0.0817772,0.0915507,0
2024-12-11 21:04:22.288,0.99362,3.0021,7.93879,0.437443,0.0817772,0.0915507,0
2024-12-11 21:04:22.290,1.12762,3.03799,7.90289,0.423394,0.0781121,0.0976592,0
2024-12-11 21:04:22.295,1.38844,3.06431,7.83111,0.381856,0.0597867,0.0988809,0
2024-12-11 21:04:22.295,1.38844,3.06431,7.83111,0.381856,0.0597867,0.0988809,0
2024-12-11 21:04:22.299,1.67348,3.10289,7.82632,0.333599,0.0445155,0.0860531,0
2024-12-11 21:04:22.299,1.67348,3.10289,7.82632,0.333599,0.0445155,0.0860531,0
2024-12-11 21:04:22.303,1.81944,3.11486,7.84307,0.307943,0.0316877,0.0720036,0
2024-12-11 21:04:22.304,1.9681,3.12443,7.85025,0.275568,0.0182491,0.0579541,0
2024-12-11 21:04:22.309,2.2672,3.17707,7.92443,0.206543,-0.0220669,0.0158057,0
2024-12-11 21:04:22.309,2.2672,3.17707,7.92443,0.206543,-0.0220669,0.0158057,0
2024-12-11 21:04:22.311,2.38923,3.19861,7.97707,0.169281,-0.0458899,-0.0110716,0
2024-12-11 21:04:22.314,2.49691,3.22014,8.00579,0.13263,-0.0703238,-0.0379489,0
2024-12-11 21:04:22.317,2.57857,3.24407,8.03929,0.0465007,-0.117359,-0.104531,0
2024-12-11 21:04:22.319,2.62403,3.27518,8.09193,0.0465007,-0.117359,-0.104531,0
2024-12-11 21:04:22.321,2.55942,3.33739,8.14248,0.0465007,-0.117359,-0.104531,0
2024-12-11 21:04:22.324,2.47777,3.39003,8.15444,-0.0414613,-0.166838,-0.174168,0
2024-12-11 21:04:22.325,2.57139,3.40917,8.1688,-0.094605,-0.188828,-0.208375,0
2024-12-11 21:04:22.328,2.71735,3.41396,8.25015,-0.147749,-0.21143,-0.245637,0
2024-12-11 21:04:22.332,2.76281,3.42353,8.43919,-0.247928,-0.24808,-0.330545,0
2024-12-11 21:04:22.333,2.76281,3.42353,8.43919,-0.247928,-0.24808,-0.330545,0
2024-12-11 21:04:22.335,2.72692,3.42114,8.57558,-0.295574,-0.267017,-0.373304,0
2024-12-11 21:04:22.338,2.69821,3.3996,8.70987,-0.394531,-0.301835,-0.460655,0
2024-12-11 21:04:22.340,2.67428,3.38046,8.82712,-0.394531,-0.301835,-0.460655,0
2024-12-11 21:04:22.343,2.6336,3.35653,8.94198,-0.445842,-0.315274,-0.504636,0
2024-12-11 21:04:22.347,2.50409,3.29671,9.20758,-0.529528,-0.337875,-0.589544,0
2024-12-11 21:04:22.347,2.50409,3.29671,9.20758,-0.529528,-0.337875,-0.589544,0
2024-12-11 21:04:22.350,2.43709,3.27518,9.33709,-0.606495,-0.340318,-0.663456,0
2024-12-11 21:04:22.351,2.35334,3.24168,9.46152,-0.606495,-0.340318,-0.663456,0
2024-12-11 21:04:22.356,2.11645,3.24885,9.65773,-0.671245,-0.320771,-0.720876,0
2024-12-11 21:04:22.357,2.11645,3.24885,9.65773,-0.693846,-0.297559,-0.743477,0
2024-12-11 21:04:22.358,1.94148,3.25364,9.72952,-0.693846,-0.297559,-0.743477,0
2024-12-11 21:04:22.362,1.75723,3.27278,9.81087,-0.722556,-0.273736,-0.759359,0
2024-12-11 21:04:22.364,1.57537,3.31585,9.89492,-0.722556,-0.273736,-0.759359,0
2024-12-11 21:04:22.366,1.41027,3.33739,9.98345,-0.767148,-0.229755,-0.775242,0
2024-12-11 21:04:22.370,1.10848,3.37328,10.1222,-0.809907,-0.193715,-0.769133,0
2024-12-11 21:04:22.370,1.10848,3.37328,10.1222,-0.809907,-0.193715,-0.769133,0
2024-12-11 21:04:22.374,0.996012,3.37807,10.1892,-0.809907,-0.193715,-0.769133,0
2024-12-11 21:04:22.375,0.876371,3.37807,10.2467,-0.844115,-0.166838,-0.747753,0
2024-12-11 21:04:22.380,0.749253,3.38046,10.3472,-0.877711,-0.151566,-0.715989,0
2024-12-11 21:04:22.381,0.749253,3.38046,10.3472,-0.894204,-0.147291,-0.700107,0
2024-12-11 21:04:22.384,0.651147,3.34696,10.4958,-0.906421,-0.141182,-0.68056,0
2024-12-11 21:04:22.385,0.651147,3.34696,10.4958,-0.906421,-0.141182,-0.68056,0
2024-12-11 21:04:22.389,0.574577,3.38046,10.6131,-0.924746,-0.133852,-0.639633,0
2024-12-11 21:04:22.390,0.574577,3.38046,10.6131,-0.924746,-0.133852,-0.639633,0
2024-12-11 21:04:22.391,0.550648,3.38764,10.6825,-0.935742,-0.130798,-0.619475,0
2024-12-11 21:04:22.395,0.52672,3.39721,10.7518,-0.943072,-0.122857,-0.577327,0
2024-12-11 21:04:22.398,0.454935,3.44746,10.8858,-0.940628,-0.114305,-0.55778,0
2024-12-11 21:04:22.398,0.454935,3.44746,10.8858,-0.940628,-0.114305,-0.55778,0
2024-12-11 21:04:22.403,0.392722,3.50489,11.0465,-0.935742,-0.0990336,-0.513799,0
2024-12-11 21:04:22.403,0.392722,3.50489,11.0465,-0.935742,-0.0990336,-0.513799,0
2024-12-11 21:04:22.406,0.354437,3.54317,11.1135,-0.927801,-0.0880384,-0.49303,0
2024-12-11 21:04:22.408,0.318545,3.5671,11.1565,-0.916805,-0.0782648,-0.47104,0
2024-12-11 21:04:22.410,0.275175,3.59821,11.1996,-0.904588,-0.0642153,-0.451492,0
2024-12-11 21:04:22.415,0.208176,3.66072,11.2666,-0.872214,-0.0367272,-0.411177,0
2024-12-11 21:04:22.415,0.208176,3.66072,11.2666,-0.872214,-0.0367272,-0.411177,0
2024-12-11 21:04:22.418,0.177069,3.67268,11.2738,-0.823957,-0.00251974,-0.37025,0
2024-12-11 21:04:22.421,0.153141,3.68226,11.2738,-0.797079,0.0182491,-0.351314,0
2024-12-11 21:04:22.422,0.141177,3.69183,11.2594,-0.797079,0.0182491,-0.351314,0
2024-12-11 21:04:22.424,0.131605,3.71575,11.2116,-0.770813,0.0408504,-0.331766,0
2024-12-11 21:04:22.427,0.129212,3.72293,11.1589,-0.73966,0.066506,-0.315274,0
2024-12-11 21:04:22.431,0.136391,3.72293,11.0249,-0.709117,0.0927724,-0.297559,0
2024-12-11 21:04:22.436,0.124427,3.70618,10.8643,-0.613214,0.178291,-0.250524,0
2024-12-11 21:04:22.436,0.124427,3.70618,10.8643,-0.613214,0.178291,-0.250524,0
2024-12-11 21:04:22.437,0.124427,3.70618,10.8643,-0.580839,0.207001,-0.235863,0
2024-12-11 21:04:22.438,0.112463,3.71575,10.7447,-0.580839,0.207001,-0.235863,0
2024-12-11 21:04:22.441,0.102891,3.72772,10.6298,-0.550908,0.238154,-0.219371,0
2024-12-11 21:04:22.446,0.0765703,3.75883,10.3977,-0.481271,0.293741,-0.191882,0
2024-12-11 21:04:22.447,0.0765703,3.75883,10.3977,-0.448896,0.321229,-0.177222,0
2024-12-11 21:04:22.449,0.0598206,3.77797,10.261,-0.420797,0.34322,-0.163173,0
2024-12-11 21:04:22.450,0.040678,3.80429,10.1294,-0.420797,0.34322,-0.163173,0
2024-12-11 21:04:22.454,0.0191426,3.83779,10.0098,-0.37193,0.382925,-0.137517,0
2024-12-11 21:04:22.455,-0.00717847,3.84975,9.87578,-0.37193,0.382925,-0.137517,0
2024-12-11 21:04:22.458,-0.0119641,3.8665,9.72234,-0.348107,0.40125,-0.123468,0
2024-12-11 21:04:22.460,-0.0191426,3.88564,9.57159,-0.322451,0.416521,-0.112472,0
2024-12-11 21:04:22.463,-0.0287139,3.88564,9.42563,-0.283968,0.446453,-0.0923143,0
2024-12-11 21:04:22.464,-0.040678,3.90239,9.29881,-0.283968,0.446453,-0.0923143,0
2024-12-11 21:04:22.467,-0.0526421,3.91675,9.18365,-0.265031,0.460502,-0.0819299,0
2024-12-11 21:04:22.469,-0.0454636,3.90957,9.05923,-0.248538,0.47333,-0.0721563,0
2024-12-11 21:04:22.471,-0.0358923,3.90479,8.93719,-0.233878,0.484936,-0.0660479,0
2024-12-11 21:04:22.475,-0.0215354,3.90239,8.84148,-0.207612,0.503262,-0.0581068,0
2024-12-11 21:04:22.479,0.0239282,3.86411,8.68565,-0.192951,0.508149,-0.0562743,0
2024-12-11 21:04:22.479,0.0239282,3.86411,8.68565,-0.192951,0.508149,-0.0562743,0
2024-12-11 21:04:22.481,0.026321,3.8665,8.60668,-0.180124,0.511814,-0.0568851,0
2024-12-11 21:04:22.483,0.00478565,3.88564,8.53251,-0.164852,0.5167,-0.0599394,0
2024-12-11 21:04:22.491,-0.16989,3.96222,8.3339,-0.11965,0.528917,-0.073378,0
2024-12-11 21:04:22.491,-0.16989,3.96222,8.3339,-0.11965,0.528917,-0.073378,0
2024-12-11 21:04:22.493,-0.244068,4.00768,8.3028,-0.11965,0.528917,-0.073378,0
2024-12-11 21:04:22.493,-0.244068,4.00768,8.3028,-0.11965,0.528917,-0.073378,0
2024-12-11 21:04:22.495,-0.325723,4.05554,8.24298,-0.108654,0.525863,-0.0794865,0
2024-12-11 21:04:22.497,-0.392722,4.07707,8.1999,-0.0964375,0.524031,-0.0807082,0
2024-12-11 21:04:22.500,-0.464507,4.10339,8.14965,-0.0842206,0.517311,-0.0849841,0
2024-12-11 21:04:22.502,-0.533899,4.13211,8.08714,-0.0695602,0.513646,-0.0886492,0
2024-12-11 21:04:22.504,-0.586541,4.14646,8.06082,-0.0616192,0.503873,-0.0929251,0
2024-12-11 21:04:22.507,-0.634397,4.16321,8.03211,-0.0500131,0.49471,-0.0972011,0
2024-12-11 21:04:22.509,-0.670289,4.16321,7.99861,-0.0365745,0.485547,-0.105142,0
2024-12-11 21:04:22.512,-0.706182,4.15603,7.95554,-0.0268009,0.470887,-0.111861,0
2024-12-11 21:04:22.515,-0.725324,4.12732,7.90768,-0.00419957,0.447675,-0.128354,0
2024-12-11 21:04:22.516,-0.744467,4.09621,7.88136,-0.00419957,0.447675,-0.128354,0
2024-12-11 21:04:22.519,-0.785145,4.10339,7.84786,0.00923906,0.434847,-0.13935,0
2024-12-11 21:04:22.523,-0.835394,4.09143,7.76172,0.0251211,0.407359,-0.157675,0
2024-12-11 21:04:22.523,-0.869193,4.05554,7.76172,0.0251211,0.407359,-0.157675,0
2024-12-11 21:04:22.526,-0.885943,4.03639,7.69233,0.0367272,0.395142,-0.170503,0
2024-12-11 21:04:22.528,-0.929013,4.04118,7.64208,0.0434465,0.378038,-0.183331,0
2024-12-11 21:04:22.530,-1.01994,4.04357,7.62054,0.049555,0.360934,-0.195547,0
2024-12-11 21:04:22.533,-1.11087,4.03879,7.59183,0.0526092,0.338944,-0.210208,0
2024-12-11 21:04:22.536,-1.17069,4.04118,7.54846,0.0593285,0.316343,-0.219371,0
2024-12-11 21:04:22.537,-1.23529,4.04118,7.5006,0.0593285,0.316343,-0.219371,0
2024-12-11 21:04:22.540,-1.30947,4.03879,7.44796,0.0691021,0.276027,-0.241361,0
2024-12-11 21:04:22.544,-1.48205,4.06511,7.37378,0.0684913,0.238154,-0.259076,0
2024-12-11 21:04:22.545,-1.48205,4.06511,7.37378,0.0684913,0.238154,-0.259076,0
2024-12-11 21:04:22.547,-1.55384,4.08425,7.35225,0.0660479,0.21372,-0.265184,0
2024-12-11 21:04:22.549,-1.63998,4.07468,7.33071,0.0648262,0.195395,-0.271903,0
2024-12-11 21:04:22.554,-1.87208,4.06032,7.28286,0.0562743,0.159966,-0.27679,0
2024-12-11 21:04:22.555,-1.87208,4.06032,7.28286,0.0562743,0.159966,-0.27679,0
2024-12-11 21:04:22.556,-1.97049,4.05793,7.26611,0.0526092,0.145916,-0.277401,0
2024-12-11 21:04:22.559,-1.98006,4.04596,7.24936,0.0477224,0.132477,-0.278623,0
2024-12-11 21:04:22.561,-1.9343,4.02204,7.25653,0.0477224,0.132477,-0.278623,0
2024-12-11 21:04:22.563,-1.92233,4.00289,7.27328,0.0342838,0.0939941,-0.275568,0
2024-12-11 21:04:22.566,-1.96062,3.97897,7.302,0.0342838,0.0939941,-0.275568,0
2024-12-11 21:04:22.568,-1.98485,3.92872,7.33789,0.0202343,0.0469589,-0.274958,0
2024-12-11 21:04:22.573,-2.01595,3.85693,7.37378,0.00618483,0.00297788,-0.276179,0
2024-12-11 21:04:22.573,-2.01595,3.85693,7.37378,0.00618483,0.00297788,-0.276179,0
2024-12-11 21:04:22.577,-2.03988,3.78515,7.45514,-0.00114534,-0.0159584,-0.27679,0
2024-12-11 21:04:22.580,-2.07577,3.78515,7.51496,-0.0109189,-0.0318404,-0.274958,0
2024-12-11 21:04:22.581,-2.07577,3.78515,7.51496,-0.0109189,-0.0318404,-0.274958,0
2024-12-11 21:04:22.582,-2.11645,3.78036,7.56282,-0.0280226,-0.0660479,-0.274347,0
2024-12-11 21:04:22.585,-2.14756,3.7995,7.61576,-0.0280226,-0.0660479,-0.274347,0
2024-12-11 21:04:22.587,-2.16909,3.81865,7.68276,-0.0408504,-0.0953685,-0.263962,0
2024-12-11 21:04:22.589,-2.19302,3.8354,7.74736,-0.050624,-0.106975,-0.258465,0
2024-12-11 21:04:22.593,-2.21695,3.84497,7.81436,-0.066506,-0.11797,-0.242583,0
2024-12-11 21:04:22.595,-2.24566,3.83061,7.91725,-0.074447,-0.121024,-0.230977,0
2024-12-11 21:04:22.597,-2.26241,3.81147,8.00579,-0.0829989,-0.121024,-0.219371,0
2024-12-11 21:04:22.599,-2.25045,3.78754,8.09911,-0.0829989,-0.121024,-0.219371,0
2024-12-11 21:04:22.601,-2.22891,3.7684,8.20948,-0.086664,-0.123468,-0.208375,0
2024-12-11 21:04:22.603,-2.20977,3.74208,8.32194,-0.0939941,-0.122246,-0.19738,0
2024-12-11 21:04:22.606,-2.19541,3.7014,8.45115,-0.0952158,-0.1253,-0.186385,0
2024-12-11 21:04:22.608,-2.17866,3.67986,8.57797,-0.0994917,-0.128965,-0.173557,0
2024-12-11 21:04:22.610,-2.15234,3.64128,8.7003,-0.100103,-0.129576,-0.163783,0
2024-12-11 21:04:22.613,-2.11406,3.61017,8.82712,-0.0994917,-0.135074,-0.15401,0
2024-12-11 21:04:22.616,-2.07099,3.59342,8.96112,-0.0964375,-0.144236,-0.13263,0
2024-12-11 21:04:22.620,-2.01356,3.52164,9.1693,-0.0921616,-0.149734,-0.127133,0
2024-12-11 21:04:22.621,-2.01356,3.52164,9.1693,-0.0884965,-0.152788,-0.116137,0
2024-12-11 21:04:22.625,-1.99202,3.46421,9.41606,-0.0860531,-0.160118,-0.106975,0
2024-12-11 21:04:22.625,-1.99202,3.46421,9.41606,-0.0860531,-0.160118,-0.106975,0
2024-12-11 21:04:22.629,-2.00399,3.4331,9.67209,-0.0726145,-0.174168,-0.0868167,0
2024-12-11 21:04:22.630,-2.00399,3.4331,9.67209,-0.0726145,-0.174168,-0.0868167,0
2024-12-11 21:04:22.632,-2.01117,3.4331,9.78455,-0.0640626,-0.180276,-0.073378,0
2024-12-11 21:04:22.635,-2.01356,3.4355,9.88296,-0.0481806,-0.184552,-0.0648262,0
2024-12-11 21:04:22.639,-2.0016,3.4331,10.1055,-0.0292443,-0.189439,-0.0355055,0
2024-12-11 21:04:22.640,-2.0016,3.4331,10.1055,-0.0158057,-0.189439,-0.0208452,0
2024-12-11 21:04:22.641,-1.98245,3.44507,10.2084,-0.0158057,-0.189439,-0.0208452,0
2024-12-11 21:04:22.643,-1.95583,3.41875,10.2969,-0.00236703,-0.188217,-0.00496313,0
2024-12-11 21:04:22.646,-1.92233,3.3996,10.3783,0.0122933,-0.186385,0.010308,0
2024-12-11 21:04:22.649,-1.88405,3.38764,10.4623,0.0251211,-0.182109,0.0274118,0
2024-12-11 21:04:22.653,-1.76201,3.36132,10.5939,0.0519984,-0.171724,0.0555107,0
2024-12-11 21:04:22.654,-1.76201,3.36132,10.5939,0.0660479,-0.165005,0.0695602,0
2024-12-11 21:04:22.655,-1.69502,3.34696,10.6633,0.0660479,-0.165005,0.0695602,0
2024-12-11 21:04:22.659,-1.62802,3.33978,10.7399,0.0794865,-0.157675,0.0842206,0
2024-12-11 21:04:22.661,-1.57298,3.3326,10.7853,0.102088,-0.134463,0.108044,0
2024-12-11 21:04:22.662,-1.5323,3.33021,10.8045,0.102088,-0.134463,0.108044,0
2024-12-11 21:04:22.665,-1.48923,3.34457,10.8356,0.114916,-0.120413,0.11965,0
2024-12-11 21:04:22.668,-1.45334,3.36132,10.8763,0.135684,-0.0825407,0.143473,0
2024-12-11 21:04:22.672,-1.39083,3.39482,10.9193,0.144847,-0.0623828,0.155079,0
2024-12-11 21:04:22.672,-1.39083,3.39482,10.9193,0.144847,-0.0623828,0.155079,0
2024-12-11 21:04:22.675,-1.36451,3.41875,10.9193,0.158286,-0.0220669,0.179513,0
2024-12-11 21:04:22.676,-1.32383,3.42114,10.9146,0.158286,-0.0220669,0.179513,0
2024-12-11 21:04:22.681,-1.25204,3.42832,10.8978,0.162562,0.0176382,0.202725,0
2024-12-11 21:04:22.682,-1.25204,3.42832,10.8978,0.162562,0.0176382,0.202725,0
2024-12-11 21:04:22.686,-1.17069,3.46182,10.8858,0.168059,0.0579541,0.224105,0
2024-12-11 21:04:22.686,-1.17069,3.46182,10.8858,0.168059,0.0579541,0.224105,0
2024-12-11 21:04:22.688,-1.14676,3.45224,10.8787,0.167449,0.0793338,0.233878,0
2024-12-11 21:04:22.691,-1.11805,3.44267,10.8643,0.166227,0.0982701,0.241208,0
2024-12-11 21:04:22.694,-1.07737,3.44267,10.8356,0.160729,0.142251,0.259534,0
2024-12-11 21:04:22.695,-1.03669,3.44507,10.826,0.160729,0.142251,0.259534,0
2024-12-11 21:04:22.700,-1.01755,3.45224,10.7973,0.153399,0.1844,0.273583,0
2024-12-11 21:04:22.701,-0.984048,3.45224,10.7973,0.153399,0.1844,0.273583,0
2024-12-11 21:04:22.702,-0.931406,3.45464,10.783,0.14668,0.202114,0.281524,0
2024-12-11 21:04:22.705,-0.917049,3.45942,10.7638,0.141793,0.219218,0.286411,0
2024-12-11 21:04:22.710,-0.885943,3.45703,10.7351,0.1253,0.251593,0.301682,0
2024-12-11 21:04:22.710,-0.885943,3.45703,10.7351,0.1253,0.251593,0.301682,0
2024-12-11 21:04:22.713,-0.871586,3.4666,10.7231,0.11064,0.282746,0.315121,0
2024-12-11 21:04:22.714,-0.862014,3.47857,10.7064,0.11064,0.282746,0.315121,0
2024-12-11 21:04:22.719,-0.869193,3.50967,10.7399,0.0959794,0.315732,0.334057,0
2024-12-11 21:04:22.720,-0.871586,3.49771,10.7231,0.0886492,0.329781,0.343831,0
2024-12-11 21:04:22.721,-0.878764,3.52882,10.7375,0.0886492,0.329781,0.343831,0
2024-12-11 21:04:22.723,-0.902692,3.55753,10.7351,0.0831516,0.344442,0.354826,0
2024-12-11 21:04:22.727,-0.919442,3.57906,10.7327,0.0727672,0.378038,0.376206,0
2024-12-11 21:04:22.728,-0.931406,3.59581,10.7136,0.0727672,0.378038,0.376206,0
2024-12-11 21:04:22.732,-0.933799,3.62214,10.6992,0.0587177,0.404915,0.396364,0
2024-12-11 21:04:22.733,-0.931406,3.64876,10.6896,0.0587177,0.404915,0.396364,0
2024-12-11 21:04:22.738,-0.909871,3.6679,10.6585,0.0587177,0.404915,0.396364,0
2024-12-11 21:04:22.741,-0.897907,3.67986,10.6418,0.0245102,0.450118,0.435458,0
2024-12-11 21:04:22.742,-0.895514,3.7014,10.6131,0.0245102,0.450118,0.435458,0
2024-12-11 21:04:22.742,-0.895514,3.7014,10.6131,0.0245102,0.450118,0.435458,0
2024-12-11 21:04:22.745,-0.895514,3.73011,10.5844,0.013515,0.455616,0.441566,0
2024-12-11 21:04:22.747,-0.9003,3.75404,10.5724,0.00313059,0.460502,0.450118,0
2024-12-11 21:04:22.749,-0.9003,3.78036,10.5772,-0.00908635,0.466,0.457448,0
2024-12-11 21:04:22.752,-0.885943,3.8019,10.5867,-0.0249684,0.470276,0.464778,0
2024-12-11 21:04:22.756,-0.897907,3.84736,10.625,-0.0555107,0.470887,0.477606,0
2024-12-11 21:04:22.757,-0.897907,3.84736,10.625,-0.0555107,0.470887,0.477606,0
2024-12-11 21:04:22.759,-0.881157,3.86172,10.6585,-0.0555107,0.470887,0.477606,0
2024-12-11 21:04:22.762,-0.871586,3.88564,10.6944,-0.0842206,0.463557,0.492877,0
2024-12-11 21:04:22.764,-0.859622,3.91197,10.7447,-0.100103,0.461724,0.499597,0
2024-12-11 21:04:22.767,-0.828216,3.9335,10.7925,-0.113541,0.459892,0.505094,0
2024-12-11 21:04:22.768,-0.775574,3.95743,10.838,-0.129423,0.456837,0.512424,0
2024-12-11 21:04:22.771,-0.720539,3.97418,10.905,-0.144084,0.451951,0.520366,0
2024-12-11 21:04:22.775,-0.677468,4.00289,11.056,-0.157522,0.445842,0.524031,0
2024-12-11 21:04:22.778,-0.641576,4.01007,11.1326,-0.174626,0.430571,0.533193,0
2024-12-11 21:04:22.780,-0.598505,4.01246,11.2259,-0.186843,0.423852,0.537469,0
2024-12-11 21:04:22.782,-0.555434,4.01725,11.3097,-0.194173,0.413467,0.538691,0
2024-12-11 21:04:22.785,-0.555434,4.01725,11.3982,-0.205779,0.40125,0.539913,0
2024-12-11 21:04:22.785,-0.50997,4.01964,11.3982,-0.205779,0.40125,0.539913,0
2024-12-11 21:04:22.788,-0.469292,4.02682,11.4891,-0.222272,0.391477,0.539913,0
2024-12-11 21:04:22.789,-0.438186,4.04596,11.578,-0.222272,0.391477,0.539913,0
2024-12-11 21:04:22.792,-0.426222,4.07229,11.6833,-0.228381,0.390866,0.542967,0
2024-12-11 21:04:22.795,-0.435793,4.09861,11.7646,-0.233267,0.392088,0.542967,0
2024-12-11 21:04:22.797,-0.445364,4.12014,11.834,-0.236322,0.398196,0.547243,0
2024-12-11 21:04:22.799,-0.4669,4.16321,11.9297,-0.241819,0.404305,0.550297,0
2024-12-11 21:04:22.802,-0.507577,4.21615,11.9967,-0.250982,0.40858,0.564346,0
2024-12-11 21:04:22.804,-0.548256,4.24726,12.0398,-0.250982,0.40858,0.564346,0
2024-12-11 21:04:22.809,-0.555434,4.30947,12.1765,-0.276637,0.384757,0.58817,0
2024-12-11 21:04:22.809,-0.555434,4.30947,12.1765,-0.276637,0.384757,0.58817,0
2024-12-11 21:04:22.812,-0.486042,4.29512,12.2698,-0.290076,0.363989,0.591835,0
2024-12-11 21:04:22.815,-0.304188,4.25205,12.4229,-0.301682,0.342609,0.5955,0
2024-12-11 21:04:22.815,-0.304188,4.25205,12.4229,-0.301682,0.342609,0.5955,0
2024-12-11 21:04:22.818,-0.198604,4.21615,12.5521,-0.318175,0.313899,0.5955,0
2024-12-11 21:04:22.820,-0.0957129,4.21137,12.6936,-0.335279,0.281524,0.591224,0
2024-12-11 21:04:22.822,0.0143569,4.2015,12.8563,-0.349328,0.244263,0.584504,0
2024-12-11 21:04:22.825,0.150748,4.17518,13.0238,-0.349328,0.244263,0.584504,0
2024-12-11 21:04:22.827,0.313759,4.14407,13.2036,-0.378038,0.157522,0.558238,0
2024-12-11 21:04:22.829,0.481256,4.11536,13.3854,-0.378038,0.157522,0.558238,0
2024-12-11 21:04:22.832,0.646361,4.09143,13.5673,-0.398807,0.0738362,0.512424,0
2024-12-11 21:04:22.834,0.813859,4.04118,13.7854,-0.413467,0.0298552,0.483104,0
2024-12-11 21:04:22.837,0.950549,3.99811,14.0055,-0.423852,-0.00923906,0.450729,0
2024-12-11 21:04:22.840,1.05344,3.967,14.2328,-0.425684,-0.0471116,0.412856,0
2024-12-11 21:04:22.841,1.14676,3.91914,14.47,-0.428128,-0.0843733,0.371319,0
2024-12-11 21:04:22.846,1.24487,3.81625,14.8771,-0.419576,-0.146069,0.288854,0
2024-12-11 21:04:22.847,1.24487,3.81625,14.8771,-0.410413,-0.169892,0.244263,0
2024-12-11 21:04:22.848,1.27358,3.77079,15.0805,-0.410413,-0.169892,0.244263,0
2024-12-11 21:04:22.852,1.27119,3.71575,15.2839,-0.383536,-0.198602,0.160576,0
2024-12-11 21:04:22.854,1.24487,3.64367,15.4517,-0.383536,-0.198602,0.160576,0
2024-12-11 21:04:22.855,1.20658,3.57906,15.5904,-0.365821,-0.204099,0.11965,0
2024-12-11 21:04:22.859,1.16112,3.51446,15.722,-0.323062,-0.20471,0.0445155,0
2024-12-11 21:04:22.860,1.11565,3.42353,15.8465,-0.323062,-0.20471,0.0445155,0
2024-12-11 21:04:22.865,0.967299,3.17228,15.9829,-0.274805,-0.188217,-0.0184018,0
2024-12-11 21:04:22.866,0.967299,3.17228,15.9829,-0.274805,-0.188217,-0.0184018,0
2024-12-11 21:04:22.867,0.878764,3.0332,16.0143,-0.274805,-0.188217,-0.0184018,0
2024-12-11 21:04:22.870,0.792323,2.89681,16.0167,-0.22044,-0.164394,-0.0709346,0
2024-12-11 21:04:22.874,0.593719,2.60728,15.9757,-0.172183,-0.128965,-0.106975,0
2024-12-11 21:04:22.875,0.593719,2.60728,15.9757,-0.172183,-0.128965,-0.106975,1
2024-12-11 21:04:22.879,0.3999,2.31745,15.8536,-0.122093,-0.0874275,-0.130187,0
2024-12-11 21:04:22.879,0.3999,2.31745,15.8536,-0.122093,-0.0874275,-0.130187,0
2024-12-11 21:04:22.881,0.311366,2.18106,15.7603,-0.0909399,-0.0599394,-0.134463,0
2024-12-11 21:04:22.884,0.22014,2.04227,15.6479,-0.0695602,-0.0330621,-0.135074,0
2024-12-11 21:04:22.888,0.0454636,1.79312,15.4226,-0.0164165,0.022525,-0.119802,0
2024-12-11 21:04:22.888,0.0454636,1.79312,15.4226,-0.0164165,0.022525,-0.119802,0
2024-12-11 21:04:22.892,-0.0287139,1.67109,15.3126,0.0342838,0.0799446,-0.0880384,0
2024-12-11 21:04:22.894,-0.0789631,1.54905,15.1929,0.0605502,0.106211,-0.0660479,0
2024-12-11 21:04:22.895,-0.136391,1.44377,15.0853,0.0605502,0.106211,-0.0660479,0
2024-12-11 21:04:22.898,-0.167498,1.34536,14.9943,0.0898709,0.131256,-0.0410031,0
2024-12-11 21:04:22.903,-0.193819,1.15155,14.8002,0.142404,0.178902,0.0182491,0
2024-12-11 21:04:22.903,-0.193819,1.15155,14.8002,0.142404,0.178902,0.0182491,0
2024-12-11 21:04:22.907,-0.22014,0.986441,14.5992,0.197991,0.233267,0.0829989,0
2024-12-11 21:04:22.908,-0.22014,0.986441,14.5992,0.197991,0.233267,0.0829989,0
2024-12-11 21:04:22.910,-0.224925,0.909871,14.5011,0.23342,0.262588,0.115985,0
2024-12-11 21:04:22.913,-0.227318,0.857229,14.4006,0.267017,0.290076,0.153857,0
2024-12-11 21:04:22.915,-0.241675,0.809073,14.3046,0.340318,0.351772,0.224105,0
2024-12-11 21:04:22.917,-0.260818,0.770788,14.1993,0.340318,0.351772,0.224105,0
2024-12-11 21:04:22.921,-0.299402,0.715753,13.9433,0.422783,0.4153,0.296795,0
2024-12-11 21:04:22.921,-0.299402,0.715753,13.9433,0.422783,0.4153,0.296795,0
2024-12-11 21:04:22.924,-0.32333,0.706182,13.7901,0.47165,0.45134,0.330392,0
2024-12-11 21:04:22.926,-0.352044,0.691825,13.6295,0.51441,0.48738,0.36521,0
2024-12-11 21:04:22.929,-0.390329,0.703789,13.4548,0.51441,0.48738,0.36521,0
2024-12-11 21:04:22.931,-0.426222,0.722932,13.2562,0.618254,0.561292,0.42996,0
2024-12-11 21:04:22.934,-0.464507,0.742074,13.0286,0.721487,0.635205,0.486769,0
2024-12-11 21:04:22.936,-0.505185,0.761217,12.7846,0.721487,0.635205,0.486769,0
2024-12-11 21:04:22.938,-0.536291,0.782752,12.5378,0.772798,0.670634,0.513646,0
2024-12-11 21:04:22.941,-0.565005,0.809073,12.2698,0.876642,0.742714,0.561292,0
2024-12-11 21:04:22.943,-0.576969,0.821037,11.9704,0.876642,0.742714,0.561292,0
2024-12-11 21:04:22.945,-0.586541,0.825823,11.6617,0.922456,0.776311,0.579007,0
2024-12-11 21:04:22.947,-0.581755,0.84018,11.3336,0.969491,0.810594,0.5955,0
2024-12-11 21:04:22.951,-0.562612,0.85005,10.9843,1.04829,0.87229,0.619934,0
2024-12-11 21:04:22.954,-0.50997,0.859622,10.2802,1.08433,0.896113,0.628486,0
2024-12-11 21:04:22.955,-0.50997,0.859622,10.2802,1.10876,0.918103,0.633372,0
2024-12-11 21:04:22.957,-0.474078,0.859622,9.91646,1.10876,0.918103,0.633372,0
2024-12-11 21:04:22.959,-0.438186,0.854836,9.54048,1.13137,0.933375,0.635205,0
2024-12-11 21:04:22.961,-0.3999,0.852443,9.18844,1.14725,0.944981,0.633372,0
2024-12-11 21:04:22.965,-0.364008,0.859622,8.81277,1.15885,0.959641,0.62421,0
2024-12-11 21:04:22.968,-0.308973,0.871586,8.08475,1.15458,0.963917,0.615047,0
2024-12-11 21:04:22.969,-0.308973,0.871586,8.08475,1.15458,0.963917,0.615047,0
2024-12-11 21:04:22.971,-0.294616,0.876371,7.76411,1.14664,0.962695,0.605273,0
2024-12-11 21:04:22.974,-0.308973,0.881157,7.45275,1.1106,0.948646,0.580229,0
2024-12-11 21:04:22.977,-0.34008,0.888335,7.16561,1.08311,0.932764,0.568012,0
2024-12-11 21:04:22.978,-0.368794,0.909871,6.89492,1.08311,0.932764,0.568012,0
2024-12-11 21:04:22.980,-0.41665,0.933799,6.64606,1.05562,0.913217,0.555795,0
2024-12-11 21:04:22.984,-0.4669,0.972084,6.4352,0.988427,0.868625,0.529528,0
2024-12-11 21:04:22.985,-0.507577,0.996012,6.25574,0.988427,0.868625,0.529528,0
2024-12-11 21:04:22.987,-0.545863,1.01037,6.10738,0.988427,0.868625,0.529528,0
2024-12-11 21:04:22.990,-0.584148,1.0343,6.0021,0.91146,0.803264,0.506927,0
2024-12-11 21:04:22.993,-0.612862,1.04865,5.93031,0.836937,0.724999,0.481271,0
2024-12-11 21:04:22.995,-0.627219,1.06062,5.87019,0.836937,0.724999,0.481271,0
2024-12-11 21:04:22.997,-0.648754,1.07019,5.81755,0.797232,0.681018,0.468443,0
2024-12-11 21:04:23.001,-0.703789,1.09173,5.75534,0.72332,0.599776,0.44462,0
2024-12-11 21:04:23.001,-0.703789,1.09173,5.75534,0.72332,0.599776,0.44462,0
2024-12-11 21:04:23.004,-0.744467,1.11565,5.74337,0.690334,0.558849,0.434236,0
2024-12-11 21:04:23.007,-0.780359,1.12044,5.73619,0.623751,0.474552,0.412246,0
2024-12-11 21:04:23.008,-0.813859,1.12762,5.74816,0.623751,0.474552,0.412246,0
2024-12-11 21:04:23.011,-0.835394,1.14437,5.7673,0.596263,0.425073,0.403083,0
2024-12-11 21:04:23.013,-0.837787,1.14676,5.78884,0.565721,0.377427,0.390866,0
2024-12-11 21:04:23.016,-0.85005,1.14676,5.82473,0.533346,0.325505,0.381092,0
2024-12-11 21:04:23.018,-0.842872,1.13958,5.86541,0.505858,0.272362,0.369486,0
2024-12-11 21:04:23.020,-0.828216,1.1348,5.91356,0.479591,0.219218,0.357269,0
2024-12-11 21:04:23.023,-0.816252,1.14437,5.97338,0.452714,0.163631,0.34322,0
2024-12-11 21:04:23.025,-0.789931,1.14676,6.04277,0.427669,0.108654,0.32917,0
2024-12-11 21:04:23.030,-0.780359,1.14915,6.21267,0.380634,0.000534491,0.302293,0
2024-12-11 21:04:23.030,-0.780359,1.14915,6.21267,0.380634,0.000534491,0.302293,0
2024-12-11 21:04:23.033,-0.773181,1.17308,6.30598,0.338486,-0.0923143,0.273583,0
2024-12-11 21:04:23.035,-0.780359,1.22333,6.42084,0.338486,-0.0923143,0.273583,0
2024-12-11 21:04:23.039,-0.780359,1.29751,6.71306,0.306722,-0.170503,0.248538,0
2024-12-11 21:04:23.040,-0.780359,1.29751,6.71306,0.306722,-0.170503,0.248538,0
2024-12-11 21:04:23.041,-0.785145,1.33101,6.84467,0.295726,-0.202267,0.2351,0
2024-12-11 21:04:23.044,-0.780359,1.34536,6.97627,0.287175,-0.231587,0.224105,0
2024-12-11 21:04:23.049,-0.770788,1.34297,7.17278,0.273736,-0.281066,0.201503,0
2024-12-11 21:04:23.050,-0.770788,1.34297,7.17278,0.26946,-0.298781,0.189286,0
2024-12-11 21:04:23.052,-0.754038,1.34058,7.25653,0.26946,-0.298781,0.189286,0
2024-12-11 21:04:23.053,-0.732503,1.35733,7.32832,0.264573,-0.315884,0.17768,0
2024-12-11 21:04:23.058,-0.722932,1.35494,7.45753,0.26213,-0.345816,0.151414,0
2024-12-11 21:04:23.058,-0.722932,1.35494,7.45753,0.26213,-0.345816,0.151414,0
2024-12-11 21:04:23.061,-0.71336,1.35494,7.52932,0.260297,-0.369028,0.126369,0
2024-12-11 21:04:23.063,-0.696611,1.35972,7.58944,0.260297,-0.369028,0.126369,0
2024-12-11 21:04:23.065,-0.679861,1.35972,7.63729,0.256021,-0.374526,0.111709,0
2024-12-11 21:04:23.068,-0.660718,1.35015,7.67558,0.256021,-0.378802,0.100713,0
2024-12-11 21:04:23.071,-0.634397,1.34058,7.71865,0.252356,-0.385521,0.0775012,0
2024-12-11 21:04:23.072,-0.622433,1.33579,7.75693,0.252356,-0.385521,0.0775012,0
2024-12-11 21:04:23.077,-0.615255,1.30708,7.79522,0.243194,-0.383688,0.0548999,0
2024-12-11 21:04:23.078,-0.615255,1.30708,7.79522,0.238307,-0.380023,0.0439046,0
2024-12-11 21:04:23.082,-0.641576,1.2999,7.82393,0.231587,-0.376969,0.0353528,0
2024-12-11 21:04:23.082,-0.641576,1.2999,7.82393,0.231587,-0.376969,0.0353528,0
2024-12-11 21:04:23.085,-0.648754,1.32622,7.85025,0.219371,-0.365974,0.0182491,0
2024-12-11 21:04:23.086,-0.658325,1.32861,7.87897,0.219371,-0.365974,0.0182491,0
2024-12-11 21:04:23.089,-0.665504,1.33819,7.89332,0.214484,-0.358644,0.0127514,0
2024-12-11 21:04:23.091,-0.687039,1.35972,7.91247,0.207764,-0.351924,0.00542127,0
2024-12-11 21:04:23.093,-0.715753,1.36929,7.94118,0.201045,-0.343983,0.00114534,0
2024-12-11 21:04:23.096,-0.722932,1.38126,7.96511,0.194326,-0.330545,0.000534491,0
2024-12-11 21:04:23.098,-0.727717,1.39801,7.96989,0.187606,-0.319549,-0.00251974,0
2024-12-11 21:04:23.100,-0.734896,1.40279,8.001,0.18272,-0.302446,-0.00313059,0
2024-12-11 21:04:23.106,-0.718146,1.41027,8.04407,0.17539,-0.273736,-0.00251974,0
2024-12-11 21:04:23.106,-0.718146,1.41027,8.04407,0.17539,-0.273736,-0.00251974,0
2024-12-11 21:04:23.107,-0.691825,1.42463,8.05125,0.17539,-0.273736,-0.00251974,0
2024-12-11 21:04:23.110,-0.665504,1.42463,8.06082,0.169281,-0.237696,-7.63559e-05,0
2024-12-11 21:04:23.112,-0.658325,1.42941,8.06321,0.165616,-0.220592,-7.63559e-05,0
2024-12-11 21:04:23.114,-0.63679,1.44138,8.07039,0.161951,-0.202267,0.000534491,0
2024-12-11 21:04:23.117,-0.610469,1.44616,8.05604,0.163173,-0.183331,0.00175619,0
2024-12-11 21:04:23.119,-0.586541,1.44855,8.02014,0.163783,-0.163173,0.00419957,0
2024-12-11 21:04:23.122,-0.562612,1.46052,7.97707,0.158286,-0.141182,0.00603212,0
2024-12-11 21:04:23.124,-0.533899,1.4653,7.95793,0.157064,-0.119192,0.00603212,0
2024-12-11 21:04:23.126,-0.50997,1.48205,7.92922,0.155842,-0.0984228,0.00725381,0
2024-12-11 21:04:23.129,-0.486042,1.52034,7.87418,0.152788,-0.0764323,0.00664296,0
2024-12-11 21:04:23.132,-0.4669,1.55384,7.83111,0.152177,-0.0538309,0.00664296,0
2024-12-11 21:04:23.133,-0.4334,1.57537,7.79283,0.145458,-0.0318404,0.00664296,0
2024-12-11 21:04:23.136,-0.409472,1.59212,7.75693,0.145458,-0.0318404,0.00664296,0
2024-12-11 21:04:23.139,-0.387936,1.63041,7.71865,0.13935,0.0109189,0.00419957,0
2024-12-11 21:04:23.140,-0.364008,1.67109,7.68036,0.138128,0.0341311,0.00419957,0
2024-12-11 21:04:23.143,-0.354437,1.70698,7.63968,0.133241,0.058565,0.00175619,0
2024-12-11 21:04:23.147,-0.347258,1.76441,7.5341,0.126522,0.108044,-0.00313059,0
2024-12-11 21:04:23.151,-0.347258,1.8003,7.50539,0.121024,0.154468,-0.00801737,0
2024-12-11 21:04:23.152,-0.359223,1.8338,7.45992,0.121024,0.154468,-0.00801737,0
2024-12-11 21:04:23.153,-0.359223,1.8338,7.45992,0.121024,0.177069,-0.00923906,0
2024-12-11 21:04:23.157,-0.364008,1.87687,7.36421,0.123468,0.203947,-0.013515,0
2024-12-11 21:04:23.157,-0.375972,1.89123,7.36421,0.123468,0.203947,-0.013515,0
2024-12-11 21:04:23.163,-0.383151,1.92712,7.23261,0.122246,0.268696,-0.0208452,0
2024-12-11 21:04:23.164,-0.390329,1.95823,7.15843,0.122246,0.268696,-0.0208452,0
2024-12-11 21:04:23.166,-0.419043,1.98963,7.0675,0.122246,0.289465,-0.0257319,0
2024-12-11 21:04:23.169,-0.440578,1.99681,6.96192,0.122246,0.305958,-0.0269536,0
2024-12-11 21:04:23.171,-0.457328,2.00399,6.85663,0.121635,0.320618,-0.0312296,0
2024-12-11 21:04:23.173,-0.493221,2.0327,6.76571,0.119802,0.331003,-0.033673,0
2024-12-11 21:04:23.177,-0.54347,2.0662,6.66281,0.108196,0.34322,-0.0348946,0
2024-12-11 21:04:23.179,-0.600898,2.09731,6.54317,0.0996445,0.344442,-0.0348946,0
2024-12-11 21:04:23.180,-0.665504,2.13081,6.44716,0.0996445,0.344442,-0.0348946,0
2024-12-11 21:04:23.183,-0.744467,2.16909,6.36341,0.0923143,0.341387,-0.0324513,0
2024-12-11 21:04:23.184,-0.665504,2.13081,6.44716,0.0923143,0.341387,-0.0324513,0
2024-12-11 21:04:23.191,-0.996012,2.28873,6.15763,0.0477224,0.291298,-0.0116825,0
2024-12-11 21:04:23.191,-0.996012,2.28873,6.15763,0.0477224,0.291298,-0.0116825,0
2024-12-11 21:04:23.192,-0.996012,2.28873,6.11456,0.0477224,0.291298,-0.0116825,0
2024-12-11 21:04:23.193,-1.08215,2.33659,6.11456,0.037338,0.268086,-0.0019089,0
2024-12-11 21:04:23.196,-1.16112,2.37966,6.09302,0.037338,0.268086,-0.0019089,0
2024-12-11 21:04:23.199,-1.30708,2.48016,6.11217,0.0122933,0.216164,0.022525,0
2024-12-11 21:04:23.199,-1.30708,2.48016,6.11217,0.0122933,0.216164,0.022525,0
2024-12-11 21:04:23.202,-1.38365,2.5331,6.15763,0.00435229,0.183789,0.0365745,0
2024-12-11 21:04:23.204,-1.43898,2.58335,6.21267,-0.00542127,0.149581,0.0536782,0
2024-12-11 21:04:23.207,-1.47966,2.65274,6.27009,-0.00542127,0.149581,0.0536782,0
2024-12-11 21:04:23.210,-1.4988,2.72692,6.34188,-0.0158057,0.0377962,0.1056,0
2024-12-11 21:04:23.211,-1.4988,2.78196,6.42802,-0.0158057,0.0377962,0.1056,0
2024-12-11 21:04:23.213,-1.48205,2.82024,6.51446,-0.0164165,-0.00313059,0.125147,0
2024-12-11 21:04:23.217,-1.44377,2.85135,6.6006,-0.0115297,-0.0819299,0.161798,0
2024-12-11 21:04:23.218,-1.38604,2.89203,6.67478,-0.0115297,-0.0819299,0.161798,0
2024-12-11 21:04:23.223,-1.24247,2.93749,6.82553,-0.00725381,-0.170503,0.19173,0
2024-12-11 21:04:23.223,-1.24247,2.93749,6.82553,-0.00725381,-0.170503,0.19173,0
2024-12-11 21:04:23.228,-1.10848,2.98774,7.01964,-0.00358873,-0.257854,0.217385,0
2024-12-11 21:04:23.229,-1.10848,2.98774,7.01964,-0.00358873,-0.257854,0.217385,0
2024-12-11 21:04:23.231,-1.03669,3.0332,7.09861,-0.00358873,-0.257854,0.217385,0
2024-12-11 21:04:23.232,-0.948156,3.07388,7.19193,0.00496313,-0.337264,0.2351,0
2024-12-11 21:04:23.235,-0.862014,3.11964,7.30678,0.00984991,-0.373304,0.240597,0
2024-12-11 21:04:23.237,-0.787538,3.15553,7.41925,0.00984991,-0.373304,0.240597,0
2024-12-11 21:04:23.240,-0.720539,3.18903,7.54128,0.0232886,-0.445995,0.249149,0
2024-12-11 21:04:23.242,-0.643968,3.22971,7.67318,0.029397,-0.480202,0.250982,0
2024-12-11 21:04:23.246,-0.507577,3.29432,7.91964,0.0355055,-0.51441,0.251593,0
2024-12-11 21:04:23.249,-0.411865,3.31825,8.06321,0.0532201,-0.569386,0.250982,0
2024-12-11 21:04:23.250,-0.411865,3.31825,8.06321,0.0672696,-0.595652,0.246706,0
2024-12-11 21:04:23.252,-0.304188,3.35414,8.2023,0.0782648,-0.6152,0.243041,0
2024-12-11 21:04:23.253,-0.208176,3.40439,8.34587,0.0782648,-0.6152,0.243041,0
2024-12-11 21:04:23.257,-0.117248,3.44746,8.48226,0.108196,-0.648185,0.225937,0
2024-12-11 21:04:23.258,-0.0167498,3.49532,8.62343,0.108196,-0.648185,0.225937,0
2024-12-11 21:04:23.261,0.0933201,3.55514,8.76491,0.1253,-0.65857,0.214331,0
2024-12-11 21:04:23.263,0.184247,3.60539,8.88934,0.141793,-0.664067,0.200282,0
2024-12-11 21:04:23.265,0.258425,3.65354,8.98266,0.163173,-0.664678,0.183789,0
2024-12-11 21:04:23.271,0.368794,3.74686,9.13819,0.212651,-0.642688,0.12698,0
2024-12-11 21:04:23.271,0.368794,3.74686,9.13819,0.212651,-0.642688,0.12698,0
2024-12-11 21:04:23.272,0.421436,3.79232,9.18126,0.212651,-0.642688,0.12698,0
2024-12-11 21:04:23.275,0.474078,3.8354,9.19322,0.228533,-0.62986,0.1056,0
2024-12-11 21:04:23.277,0.490828,3.87847,9.20519,0.238918,-0.617032,0.082388,0
2024-12-11 21:04:23.280,0.490828,3.93589,9.21237,0.251135,-0.603593,0.0555107,0
2024-12-11 21:04:23.282,0.474078,3.97657,9.18844,0.259686,-0.589544,0.030466,0
2024-12-11 21:04:23.285,0.438186,4.0005,9.15255,0.259686,-0.57916,0.00358873,0
2024-12-11 21:04:23.289,0.371187,4.05075,9.07358,0.256632,-0.559612,-0.0532201,0
2024-12-11 21:04:23.289,0.371187,4.05075,9.07358,0.256632,-0.559612,-0.0532201,0
2024-12-11 21:04:23.291,0.32333,4.07468,9.0353,0.247469,-0.55045,-0.081319,0
2024-12-11 21:04:23.294,0.258425,4.09621,9.01376,0.235253,-0.541287,-0.11064,0
2024-12-11 21:04:23.298,0.131605,4.12014,8.99701,0.207764,-0.513188,-0.162562,0
2024-12-11 21:04:23.299,0.131605,4.12014,8.99701,0.187606,-0.495473,-0.184552,0
2024-12-11 21:04:23.302,0.0334995,4.13211,9.01137,0.167449,-0.478981,-0.207154,0
2024-12-11 21:04:23.304,-0.0478565,4.11775,9.03291,0.167449,-0.478981,-0.207154,0
2024-12-11 21:04:23.306,-0.133998,4.10818,9.04726,0.121635,-0.439276,-0.247469,0
2024-12-11 21:04:23.309,-0.236889,4.10818,9.05683,0.0984228,-0.414842,-0.265184,0
2024-12-11 21:04:23.311,-0.34008,4.11775,9.07358,0.0715455,-0.390408,-0.280455,0
2024-12-11 21:04:23.312,-0.442971,4.12732,9.09033,0.0715455,-0.390408,-0.280455,0
2024-12-11 21:04:23.315,-0.553041,4.13928,9.11187,0.0715455,-0.390408,-0.280455,0
2024-12-11 21:04:23.317,-0.677468,4.15603,9.15015,0.0184018,-0.332377,-0.300613,0
2024-12-11 21:04:23.319,-0.80668,4.168,9.19562,-0.0109189,-0.301835,-0.303057,0
2024-12-11 21:04:23.322,-0.914656,4.17278,9.21955,-0.0402396,-0.268849,-0.304889,0
2024-12-11 21:04:23.324,-1.01994,4.18714,9.22433,-0.0402396,-0.268849,-0.304889,0
2024-12-11 21:04:23.326,-1.11326,4.1991,9.25065,-0.100713,-0.199823,-0.303057,0
2024-12-11 21:04:23.329,-1.17308,4.18475,9.28924,-0.100713,-0.167449,-0.299392,0
2024-12-11 21:04:23.332,-1.22572,4.16321,9.32992,-0.167296,-0.135074,-0.292672,0
2024-12-11 21:04:23.334,-1.27119,4.14646,9.39452,-0.167296,-0.135074,-0.292672,0
2024-12-11 21:04:23.336,-1.30229,4.12732,9.46152,-0.235711,-0.0758214,-0.281066,0
2024-12-11 21:04:23.341,-1.3669,4.11775,9.61227,-0.302293,-0.0251211,-0.264573,0
2024-12-11 21:04:23.342,-1.33579,4.11057,9.61227,-0.3365,-0.00251974,-0.254189,0
2024-12-11 21:04:23.343,-1.40279,4.11536,9.69123,-0.3365,-0.00251974,-0.254189,0
2024-12-11 21:04:23.345,-1.41506,4.11296,9.78694,-0.37254,0.0170274,-0.242583,0
2024-12-11 21:04:23.348,-1.42702,4.12493,9.89971,-0.398807,0.0329094,-0.23342,0
2024-12-11 21:04:23.350,-1.4342,4.12253,10.0146,-0.428738,0.042683,-0.224257,0
2024-12-11 21:04:23.352,-1.42223,4.11775,10.1486,-0.428738,0.042683,-0.224257,0
2024-12-11 21:04:23.356,-1.41027,4.12253,10.2897,-0.484326,0.0597867,-0.201045,0
2024-12-11 21:04:23.357,-1.38604,4.14407,10.4432,-0.507538,0.0634518,-0.193104,0
2024-12-11 21:04:23.359,-1.36211,4.14646,10.5939,-0.531361,0.0622301,-0.183331,0
2024-12-11 21:04:23.362,-1.34536,4.13928,10.7351,-0.55213,0.0561216,-0.174168,0
2024-12-11 21:04:23.364,-1.31426,4.13211,10.8787,-0.569233,0.0475697,-0.165005,0
2024-12-11 21:04:23.368,-1.26879,4.11536,11.0249,-0.586948,0.0371853,-0.158897,0
2024-12-11 21:04:23.369,-1.22812,4.11775,11.1829,-0.600997,0.0219141,-0.154621,0
2024-12-11 21:04:23.371,-1.19222,4.11775,11.3504,-0.615047,0.00481042,-0.147901,0
2024-12-11 21:04:23.374,-1.18265,4.11057,11.5035,-0.628486,-0.0159584,-0.144236,0
2024-12-11 21:04:23.376,-1.20897,4.11775,11.645,-0.638259,-0.0361163,-0.13996,0
2024-12-11 21:04:23.379,-1.24965,4.13689,11.8029,-0.649865,-0.0862058,-0.127133,0
2024-12-11 21:04:23.381,-1.28315,4.17278,11.9848,-0.649865,-0.0862058,-0.127133,0
2024-12-11 21:04:23.383,-1.32383,4.21615,12.1525,-0.654141,-0.111861,-0.121024,0
2024-12-11 21:04:23.385,-1.38604,4.24965,12.3033,-0.654752,-0.13996,-0.113694,0
2024-12-11 21:04:23.389,-1.45573,4.28555,12.4636,-0.647422,-0.191882,-0.0886492,0
2024-12-11 21:04:23.390,-1.5347,4.31665,12.6215,-0.647422,-0.191882,-0.0886492,0
2024-12-11 21:04:23.393,-1.62802,4.35972,12.7798,-0.641924,-0.21204,-0.0727672,0
2024-12-11 21:04:23.395,-1.71655,4.43151,12.9377,-0.627875,-0.23342,-0.0544418,0
2024-12-11 21:04:23.397,-1.80748,4.50568,13.0884,-0.61749,-0.246859,-0.0330621,0
2024-12-11 21:04:23.402,-1.9681,4.68993,13.3543,-0.58878,-0.261519,0.0188599,0
2024-12-11 21:04:23.402,-1.9681,4.68993,13.3543,-0.58878,-0.261519,0.0188599,0
2024-12-11 21:04:23.404,-2.0351,4.77637,13.4644,-0.566179,-0.265184,0.0494023,0
2024-12-11 21:04:23.408,-2.0686,4.84098,13.5362,-0.531972,-0.276179,0.109265,0
2024-12-11 21:04:23.410,-2.0686,4.90319,13.5912,-0.515479,-0.286564,0.139808,0
2024-12-11 21:04:23.411,-2.02313,4.95344,13.6439,-0.515479,-0.286564,0.139808,0
2024-12-11 21:04:23.415,-1.93669,4.9678,13.675,-0.492267,-0.317717,0.188065,0
2024-12-11 21:04:23.417,-1.82184,4.96301,13.6965,-0.492267,-0.317717,0.188065,0
2024-12-11 21:04:23.418,-1.67587,4.95344,13.7013,-0.485547,-0.342762,0.204557,0
2024-12-11 21:04:23.422,-1.50838,4.91755,13.7085,-0.48066,-0.409344,0.219218,0
2024-12-11 21:04:23.424,-1.33101,4.87687,13.7276,-0.488601,-0.453325,0.217385,0
2024-12-11 21:04:23.425,-1.16112,4.85055,13.7468,-0.488601,-0.453325,0.217385,0
2024-12-11 21:04:23.429,-0.998405,4.80987,13.7686,-0.490434,-0.497917,0.210055,0
2024-12-11 21:04:23.430,-0.842872,4.77877,13.8045,-0.497153,-0.548006,0.198449,0
2024-12-11 21:04:23.435,-0.710967,4.76411,13.96,-0.51609,-0.643909,0.163631,0
2024-12-11 21:04:23.435,-0.600898,4.76411,13.96,-0.51609,-0.643909,0.163631,0
2024-12-11 21:04:23.440,-0.45015,4.72822,14.1682,-0.531972,-0.733704,0.11293,0
2024-12-11 21:04:23.441,-0.45015,4.72822,14.1682,-0.536858,-0.770355,0.0860531,0
2024-12-11 21:04:23.442,-0.387936,4.70907,14.2998,-0.536858,-0.770355,0.0860531,0
2024-12-11 21:04:23.444,-0.335294,4.68993,14.4413,-0.53808,-0.801508,0.0597867,0
2024-12-11 21:04:23.447,-0.308973,4.67318,14.5825,-0.539913,-0.820444,0.0322986,0
2024-12-11 21:04:23.449,-0.299402,4.62772,14.7452,-0.536858,-0.836326,0.00664296,0
2024-12-11 21:04:23.451,-0.27996,4.55354,14.9106,-0.528917,-0.844267,-0.0184018,0
2024-12-11 21:04:23.454,-0.270389,4.47936,15.047,-0.512424,-0.843656,-0.0410031,0
2024-12-11 21:04:23.458,-0.263211,4.3023,15.2839,-0.478217,-0.824109,-0.0862058,0
2024-12-11 21:04:23.459,-0.263211,4.3023,15.2839,-0.478217,-0.824109,-0.0862058,1
2024-12-11 21:04:23.462,-0.246461,4.17518,15.3652,-0.426906,-0.789291,-0.127133,0
2024-12-11 21:04:23.463,-0.234497,4.05075,15.4298,-0.426906,-0.789291,-0.127133,0
2024-12-11 21:04:23.468,-0.227318,3.79711,15.5187,-0.362767,-0.745921,-0.159507,0
2024-12-11 21:04:23.468,-0.232104,3.79711,15.5187,-0.362767,-0.745921,-0.159507,0
2024-12-11 21:04:23.470,-0.236889,3.67508,15.5234,-0.331003,-0.721487,-0.174168,0
2024-12-11 21:04:23.473,-0.239282,3.54796,15.521,-0.294963,-0.691555,-0.186996,0
2024-12-11 21:04:23.475,-0.246461,3.41396,15.4971,-0.255258,-0.661624,-0.196158,0
2024-12-11 21:04:23.477,-0.253639,3.27996,15.4445,-0.211277,-0.631692,-0.20471,0
2024-12-11 21:04:23.481,-0.265603,3.14596,15.3652,-0.132477,-0.576105,-0.216927,0
2024-12-11 21:04:23.482,-0.275175,3.01645,15.2767,-0.132477,-0.576105,-0.216927,0
2024-12-11 21:04:23.484,-0.297009,2.89681,15.1762,-0.0884965,-0.547396,-0.218149,0
2024-12-11 21:04:23.487,-0.316152,2.7676,15.0637,-0.0884965,-0.547396,-0.218149,0
2024-12-11 21:04:23.489,-0.342473,2.65514,14.9584,0.00251974,-0.491198,-0.219371,0
2024-12-11 21:04:23.492,-0.387936,2.56899,14.8457,0.0489441,-0.460655,-0.214484,0
2024-12-11 21:04:23.494,-0.419043,2.47777,14.7308,0.0929251,-0.430724,-0.208375,0
2024-12-11 21:04:23.497,-0.440578,2.39163,14.6064,0.183331,-0.353146,-0.188828,0
2024-12-11 21:04:23.499,-0.493221,2.31984,14.4652,0.183331,-0.353146,-0.188828,0
2024-12-11 21:04:23.501,-0.550648,2.26481,14.3097,0.229755,-0.306111,-0.174779,0
2024-12-11 21:04:23.506,-0.632004,2.1332,13.972,0.322604,-0.203488,-0.13935,0
2024-12-11 21:04:23.507,-0.632004,2.1332,13.972,0.322604,-0.203488,-0.13935,0
2024-12-11 21:04:23.509,-0.667897,2.07817,13.7925,0.373304,-0.141793,-0.118581,0
2024-12-11 21:04:23.510,-0.706182,2.01595,13.6056,0.422172,-0.077654,-0.093536,0
2024-12-11 21:04:23.513,-0.742074,1.98006,13.395,0.466764,-0.0110716,-0.0697129,0
2024-12-11 21:04:23.516,-0.789931,1.96062,13.1698,0.558391,0.129423,-0.0116825,0
2024-12-11 21:04:23.518,-0.833001,1.92951,12.9257,0.599928,0.200282,0.0182491,0
2024-12-11 21:04:23.520,-0.85005,1.88644,12.6625,0.599928,0.200282,0.0182491,0
2024-12-11 21:04:23.522,-0.847657,1.84816,12.4038,0.640855,0.271751,0.0500131,0
2024-12-11 21:04:23.524,-0.825823,1.82184,12.1406,0.674452,0.339555,0.0811663,0
2024-12-11 21:04:23.529,-0.749253,1.75723,11.5947,0.740423,0.464778,0.139808,0
2024-12-11 21:04:23.530,-0.749253,1.75723,11.5947,0.740423,0.464778,0.139808,0
2024-12-11 21:04:23.531,-0.706182,1.74287,11.3073,0.7673,0.521587,0.166685,0
2024-12-11 21:04:23.534,-0.646361,1.71416,11.0225,0.790513,0.57412,0.19173,0
2024-12-11 21:04:23.537,-0.586541,1.66869,10.7447,0.823498,0.657806,0.233267,0
2024-12-11 21:04:23.539,-0.507577,1.6328,10.4599,0.823498,0.657806,0.233267,0
2024-12-11 21:04:23.541,-0.409472,1.60409,10.194,0.834494,0.688959,0.249149,0
2024-12-11 21:04:23.543,-0.337687,1.59452,9.9356,0.844267,0.715226,0.263199,0
2024-12-11 21:04:23.546,-0.285045,1.59691,9.6697,0.844267,0.715226,0.263199,0
2024-12-11 21:04:23.548,-0.217747,1.58495,9.41845,0.846711,0.73966,0.283968,0
2024-12-11 21:04:23.553,-0.0646062,1.59452,9.00898,0.828996,0.74027,0.291298,0
2024-12-11 21:04:23.554,-0.0646062,1.59452,9.00898,0.822277,0.73294,0.291909,0
2024-12-11 21:04:23.556,-0.00717847,1.58495,8.80319,0.811282,0.720723,0.290687,0
2024-12-11 21:04:23.557,0.0454636,1.58734,8.62822,0.811282,0.720723,0.290687,0
2024-12-11 21:04:23.561,0.102891,1.59452,8.49183,0.79601,0.698122,0.288854,0
2024-12-11 21:04:23.562,0.191426,1.60648,8.36979,0.780128,0.671856,0.287022,0
2024-12-11 21:04:23.565,0.270389,1.62562,8.2669,0.762414,0.644978,0.279081,0
2024-12-11 21:04:23.568,0.325723,1.63041,8.18076,0.728817,0.576563,0.268086,0
2024-12-11 21:04:23.569,0.387936,1.62802,8.12064,0.728817,0.576563,0.268086,0
2024-12-11 21:04:23.571,0.45015,1.62323,8.06321,0.708659,0.537469,0.259534,0
2024-12-11 21:04:23.574,0.502792,1.62562,8.01536,0.693388,0.496542,0.249149,0
2024-12-11 21:04:23.576,0.557827,1.63041,7.99621,0.678728,0.453172,0.239987,0
2024-12-11 21:04:23.579,0.622433,1.62084,7.98186,0.661013,0.409191,0.229602,0
2024-12-11 21:04:23.582,0.679861,1.62562,7.97229,0.635968,0.315121,0.205168,0
2024-12-11 21:04:23.587,0.773181,1.60887,7.98664,0.612756,0.219218,0.181956,0
2024-12-11 21:04:23.587,0.773181,1.60887,7.98664,0.612756,0.219218,0.181956,0
2024-12-11 21:04:23.589,0.825823,1.58495,8.00579,0.60115,0.169739,0.168517,0
2024-12-11 21:04:23.591,0.885943,1.54666,8.01775,0.594431,0.123315,0.156911,0
2024-12-11 21:04:23.593,0.96012,1.52752,8.03929,0.594431,0.123315,0.156911,0
2024-12-11 21:04:23.595,1.01994,1.51555,8.06321,0.588933,0.0750579,0.145916,0
2024-12-11 21:04:23.597,1.0654,1.49402,8.09193,0.585268,0.0261901,0.133699,0
2024-12-11 21:04:23.600,1.12522,1.46052,8.12303,0.57977,-0.0208452,0.118428,0
2024-12-11 21:04:23.603,1.1683,1.43659,8.14487,0.573051,-0.11064,0.0958267,0
2024-12-11 21:04:23.604,1.18265,1.43659,8.15205,0.573051,-0.11064,0.0958267,0
2024-12-11 21:04:23.609,1.32861,1.39561,8.14726,0.570608,-0.191272,0.0689494,0
2024-12-11 21:04:23.612,1.39561,1.37408,8.15444,0.569997,-0.229144,0.0597867,0
2024-12-11 21:04:23.613,1.39561,1.37408,8.15444,0.570608,-0.256021,0.0445155,0
2024-12-11 21:04:23.615,1.43898,1.35494,8.1664,0.57244,-0.281677,0.0310769,0
2024-12-11 21:04:23.619,1.48923,1.3334,8.14248,0.573662,-0.299392,0.0170274,0
2024-12-11 21:04:23.620,1.48923,1.3334,8.14248,0.573662,-0.299392,0.0170274,0
2024-12-11 21:04:23.623,1.5012,1.36211,8.08475,0.575494,-0.32688,-0.0104608,0
2024-12-11 21:04:23.623,1.5012,1.36211,8.08475,0.575494,-0.32688,-0.0104608,0
2024-12-11 21:04:23.628,1.48684,1.37169,8.01536,0.580381,-0.334821,-0.0355055,0
2024-12-11 21:04:23.629,1.48684,1.37169,8.01536,0.57916,-0.332377,-0.0477224,0
2024-12-11 21:04:23.630,1.47248,1.39083,7.95554,0.57916,-0.332377,-0.0477224,0
2024-12-11 21:04:23.634,1.44616,1.40279,7.88375,0.577938,-0.312219,-0.0678804,0
2024-12-11 21:04:23.635,1.40788,1.40548,7.8024,0.577938,-0.312219,-0.0678804,0
2024-12-11 21:04:23.637,1.37647,1.41984,7.70908,0.580381,-0.294505,-0.0758214,0
2024-12-11 21:04:23.641,1.33579,1.4342,7.60379,0.575494,-0.252356,-0.0904818,0
2024-12-11 21:04:23.642,1.29512,1.43181,7.5006,0.575494,-0.252356,-0.0904818,0
2024-12-11 21:04:23.645,1.26401,1.42702,7.39771,0.570608,-0.227312,-0.0947577,0
2024-12-11 21:04:23.647,1.23769,1.44138,7.29003,0.56511,-0.201656,-0.0996445,0
2024-12-11 21:04:23.649,1.20897,1.47966,7.17757,0.557169,-0.172946,-0.106364,0
2024-12-11 21:04:23.653,1.1659,1.51077,7.05314,0.549839,-0.143015,-0.111251,0
2024-12-11 21:04:23.654,1.12044,1.5323,6.93081,0.549839,-0.143015,-0.111251,0
2024-12-11 21:04:23.656,1.07498,1.5658,6.80638,0.524794,-0.0794865,-0.116748,0
2024-12-11 21:04:23.660,1.01755,1.59691,6.68914,0.49303,-0.0141258,-0.118581,0
2024-12-11 21:04:23.661,0.955334,1.62323,6.57667,0.49303,-0.0141258,-0.118581,0
2024-12-11 21:04:23.663,0.912264,1.64477,6.44716,0.472872,0.0151948,-0.117359,0
2024-12-11 21:04:23.667,0.852443,1.67348,6.34906,0.430113,0.0768904,-0.114916,0
2024-12-11 21:04:23.669,0.801895,1.72373,6.25574,0.409955,0.106822,-0.111861,0
2024-12-11 21:04:23.671,0.773181,1.76919,6.16959,0.409955,0.106822,-0.111861,0
2024-12-11 21:04:23.675,0.715753,1.82662,6.01406,0.36353,0.166074,-0.108807,0
2024-12-11 21:04:23.675,0.715753,1.82662,6.01406,0.36353,0.166074,-0.108807,0
2024-12-11 21:04:23.677,0.696611,1.8673,5.94706,0.339707,0.193562,-0.105753,0
2024-12-11 21:04:23.680,0.682254,1.9008,5.88933,0.316495,0.217996,-0.10392,0
2024-12-11 21:04:23.682,0.689432,1.92951,5.85823,0.291451,0.243652,-0.102699,0
2024-12-11 21:04:23.685,0.696611,1.95344,5.84626,0.268238,0.265031,-0.102088,0
2024-12-11 21:04:23.688,0.696611,1.98006,5.84148,0.229755,0.305347,-0.10392,0
2024-12-11 21:04:23.690,0.708575,2.01356,5.82951,0.229755,0.305347,-0.10392,0
2024-12-11 21:04:23.692,0.710967,2.04467,5.81755,0.21204,0.323062,-0.105753,0
2024-12-11 21:04:23.694,0.727717,2.06381,5.82473,0.196158,0.340166,-0.107585,0
2024-12-11 21:04:23.699,0.74686,2.09492,5.83191,0.167449,0.365821,-0.113694,0
2024-12-11 21:04:23.699,0.761217,2.12124,5.85105,0.167449,0.365821,-0.113694,0
2024-12-11 21:04:23.702,0.777966,2.13799,5.87976,0.147901,0.375595,-0.125911,0
2024-12-11 21:04:23.704,0.789931,2.14995,5.90878,0.147901,0.375595,-0.125911,0
2024-12-11 21:04:23.706,0.804287,2.17388,5.9351,0.143015,0.378038,-0.133241,0
2024-12-11 21:04:23.709,0.818644,2.2002,5.96142,0.128965,0.370708,-0.149734,0
2024-12-11 21:04:23.710,0.825823,2.22652,5.9997,0.128965,0.370708,-0.149734,0
2024-12-11 21:04:23.713,0.818644,2.27199,6.02602,0.127743,0.366432,-0.158897,0
2024-12-11 21:04:23.715,0.797109,2.3007,6.05474,0.123468,0.359713,-0.171114,0
2024-12-11 21:04:23.718,0.773181,2.32702,6.08824,0.122246,0.35055,-0.179665,0
2024-12-11 21:04:23.722,0.699003,2.40359,6.1337,0.128354,0.335279,-0.196769,0
2024-12-11 21:04:23.723,0.699003,2.40359,6.1337,0.128354,0.335279,-0.196769,0
2024-12-11 21:04:23.725,0.639183,2.42273,6.15045,0.13263,0.324894,-0.205321,0
2024-12-11 21:04:23.727,0.579362,2.45623,6.17438,0.141182,0.317564,-0.213262,0
2024-12-11 21:04:23.730,0.52672,2.48734,6.21027,0.150345,0.306569,-0.218149,0
2024-12-11 21:04:23.732,0.469292,2.53071,6.21984,0.158286,0.294963,-0.221814,0
2024-12-11 21:04:23.734,0.426222,2.55703,6.24138,0.167449,0.281524,-0.229755,0
2024-12-11 21:04:23.736,0.390329,2.56899,6.25334,0.167449,0.281524,-0.229755,0
2024-12-11 21:04:23.740,0.354437,2.59292,6.24377,0.196158,0.232656,-0.237696,0
2024-12-11 21:04:23.741,0.330509,2.61207,6.25334,0.196158,0.232656,-0.237696,0
2024-12-11 21:04:23.743,0.301795,2.63121,6.24377,0.207764,0.215553,-0.237696,0
2024-12-11 21:04:23.746,0.292223,2.64317,6.21745,0.219371,0.199671,-0.240139,0
2024-12-11 21:04:23.748,0.294616,2.64556,6.19831,0.226701,0.186843,-0.240139,0
2024-12-11 21:04:23.750,0.297009,2.64796,6.16481,0.240139,0.176459,-0.240139,0
2024-12-11 21:04:23.756,0.304188,2.65753,6.09781,0.252967,0.156911,-0.241361,0
2024-12-11 21:04:23.756,0.304188,2.65753,6.09781,0.252967,0.156911,-0.241361,0
2024-12-11 21:04:23.760,0.272782,2.71256,6.01885,0.259076,0.139197,-0.243804,0
2024-12-11 21:04:23.760,0.272782,2.71256,6.01885,0.259076,0.139197,-0.243804,0
2024-12-11 21:04:23.762,0.263211,2.75085,5.95903,0.260297,0.132477,-0.245026,0
2024-12-11 21:04:23.766,0.244068,2.77238,5.91835,0.253578,0.115985,-0.244415,0
2024-12-11 21:04:23.769,0.18664,2.85613,5.84626,0.246859,0.109265,-0.244415,0
2024-12-11 21:04:23.769,0.18664,2.85613,5.84626,0.246859,0.109265,-0.244415,0
2024-12-11 21:04:23.773,0.162712,2.9016,5.81276,0.228533,0.102546,-0.242583,0
2024-12-11 21:04:23.774,0.12682,2.9351,5.77687,0.228533,0.102546,-0.242583,0
2024-12-11 21:04:23.776,0.0957129,2.98774,5.76491,0.217538,0.100713,-0.239528,0
2024-12-11 21:04:23.780,0.0622134,3.04756,5.76012,0.202267,0.0982701,-0.236474,0
2024-12-11 21:04:23.781,0.0239282,3.10289,5.7673,0.187606,0.0939941,-0.236474,0
2024-12-11 21:04:23.783,-0.0215354,3.16032,5.77687,0.172946,0.0897182,-0.23342,0
2024-12-11 21:04:23.787,-0.0478565,3.21536,5.79601,0.143625,0.0805555,-0.229144,0
2024-12-11 21:04:23.789,-0.0741775,3.27039,5.82234,0.120413,0.0756687,-0.226701,0
2024-12-11 21:04:23.792,-0.102891,3.31346,5.86541,0.102088,0.0683385,-0.226701,0
2024-12-11 21:04:23.794,-0.133998,3.34696,5.91117,0.0898709,0.0573433,-0.225479,0
2024-12-11 21:04:23.798,-0.172283,3.44507,6.02124,0.0703238,0.0475697,-0.224257,0
2024-12-11 21:04:23.799,-0.172283,3.44507,6.02124,0.0526092,0.0359636,-0.224868,0
2024-12-11 21:04:23.801,-0.189033,3.49292,6.09302,0.0330621,0.0194708,-0.226701,0
2024-12-11 21:04:23.803,-0.212961,3.54078,6.16481,0.0159584,0.00481042,-0.225479,0
2024-12-11 21:04:23.806,-0.236889,3.59821,6.23659,-0.00419957,-0.0159584,-0.227922,0
2024-12-11 21:04:23.808,-0.258425,3.66311,6.34427,-0.0200816,-0.0355055,-0.232198,0
2024-12-11 21:04:23.809,-0.267996,3.73011,6.45464,-0.0200816,-0.0355055,-0.232198,0
2024-12-11 21:04:23.813,-0.275175,3.78515,6.57667,-0.0548999,-0.0770431,-0.230977,0
2024-12-11 21:04:23.814,-0.301795,3.84736,6.70589,-0.0548999,-0.0770431,-0.230977,0
2024-12-11 21:04:23.817,-0.330509,3.91675,6.83988,-0.0720036,-0.0984228,-0.23342,0
2024-12-11 21:04:23.820,-0.344866,3.98614,6.98585,-0.0897182,-0.119802,-0.232198,0
2024-12-11 21:04:23.821,-0.354437,4.06271,7.13689,-0.103157,-0.137517,-0.227312,0
2024-12-11 21:04:23.824,-0.375972,4.13928,7.28046,-0.103157,-0.137517,-0.227312,0
2024-12-11 21:04:23.826,-0.380758,4.21615,7.42642,-0.12698,-0.162562,-0.219371,0
2024-12-11 21:04:23.829,-0.395115,4.29512,7.58944,-0.141029,-0.171724,-0.213873,0
2024-12-11 21:04:23.831,-0.431007,4.36212,7.73061,-0.145305,-0.179665,-0.206543,0
2024-12-11 21:04:23.834,-0.438186,4.40519,7.85743,-0.150192,-0.188828,-0.201045,0
2024-12-11 21:04:23.839,-0.428614,4.51047,8.16401,-0.166685,-0.199823,-0.181498,0
2024-12-11 21:04:23.840,-0.419043,4.56072,8.3028,-0.163631,-0.197991,-0.181498,0
2024-12-11 21:04:23.841,-0.419043,4.56072,8.3028,-0.163631,-0.197991,-0.181498,0
2024-12-11 21:04:23.843,-0.392722,4.60618,8.42004,-0.170961,-0.204099,-0.177222,0
2024-12-11 21:04:23.845,-0.373579,4.6325,8.53011,-0.17035,-0.20471,-0.17539,0
2024-12-11 21:04:23.848,-0.342473,4.65165,8.64497,-0.179513,-0.195547,-0.169281,0
2024-12-11 21:04:23.850,-0.328116,4.68275,8.73141,-0.179513,-0.195547,-0.169281,0
2024-12-11 21:04:23.852,-0.318545,4.7019,8.78166,-0.183789,-0.186996,-0.169892,0
2024-12-11 21:04:23.855,-0.294616,4.72343,8.84626,-0.189286,-0.17539,-0.171724,0
2024-12-11 21:04:23.859,-0.318545,4.7689,8.97069,-0.208833,-0.147901,-0.172335,0
2024-12-11 21:04:23.859,-0.318545,4.7689,8.97069,-0.208833,-0.147901,-0.172335,0
2024-12-11 21:04:23.861,-0.35683,4.80509,9.00898,-0.218607,-0.135684,-0.174168,0
2024-12-11 21:04:23.864,-0.385544,4.82662,9.03291,-0.233267,-0.128354,-0.173557,0
2024-12-11 21:04:23.867,-0.407079,4.84577,9.07598,-0.266253,-0.108807,-0.172335,0
2024-12-11 21:04:23.868,-0.440578,4.86491,9.14058,-0.266253,-0.108807,-0.172335,0
2024-12-11 21:04:23.871,-0.476471,4.87209,9.21476,-0.288244,-0.102699,-0.170503,0
2024-12-11 21:04:23.873,-0.490828,4.88166,9.31795,-0.310234,-0.10331,-0.170503,0
2024-12-11 21:04:23.875,-0.495613,4.92473,9.43281,-0.332835,-0.101477,-0.169892,0
2024-12-11 21:04:23.878,-0.495613,4.96541,9.53809,-0.356658,-0.100255,-0.167449,0
2024-12-11 21:04:23.881,-0.476471,4.9678,9.65534,-0.399418,-0.0965902,-0.166838,0
2024-12-11 21:04:23.882,-0.442971,4.97498,9.79891,-0.399418,-0.0965902,-0.166838,0
2024-12-11 21:04:23.887,-0.409472,4.96062,10.1246,-0.436679,-0.0929251,-0.168059,0
2024-12-11 21:04:23.888,-0.364008,4.96062,10.1246,-0.436679,-0.0929251,-0.168059,0
2024-12-11 21:04:23.890,-0.294616,4.93909,10.2873,-0.436679,-0.0929251,-0.168059,0
2024-12-11 21:04:23.892,-0.227318,4.92234,10.4527,-0.472719,-0.0990336,-0.174779,0
2024-12-11 21:04:23.894,-0.160319,4.89601,10.6107,-0.48738,-0.10331,-0.185163,0
2024-12-11 21:04:23.897,-0.0885344,4.86969,10.783,-0.501429,-0.111861,-0.193104,0
2024-12-11 21:04:23.901,0.0239282,4.81466,11.1087,-0.534415,-0.138128,-0.216927,0
2024-12-11 21:04:23.902,0.0239282,4.81466,11.1087,-0.546021,-0.15401,-0.230366,0
2024-12-11 21:04:23.904,0.066999,4.80509,11.2714,-0.546021,-0.15401,-0.230366,0
2024-12-11 21:04:23.906,0.0861416,4.80269,11.4485,-0.560071,-0.16867,-0.242583,0
2024-12-11 21:04:23.908,0.0933201,4.81466,11.6067,-0.56679,-0.183941,-0.257243,0
2024-12-11 21:04:23.911,0.0861416,4.8338,11.779,-0.580839,-0.200434,-0.270071,0
2024-12-11 21:04:23.914,0.0622134,4.85773,11.9728,-0.593056,-0.215705,-0.284731,0
2024-12-11 21:04:23.915,0.0287139,4.87926,12.1573,-0.600997,-0.231587,-0.295726,0
2024-12-11 21:04:23.918,0.0,4.88405,12.3416,-0.607717,-0.245026,-0.306111,0
2024-12-11 21:04:23.920,-0.0239282,4.90319,12.5402,-0.612603,-0.256632,-0.315274,0
2024-12-11 21:04:23.922,-0.0454636,4.92951,12.7606,-0.615047,-0.265184,-0.323215,0
2024-12-11 21:04:23.926,-0.0765703,4.92951,12.9927,-0.613214,-0.273736,-0.329323,0
2024-12-11 21:04:23.927,-0.107677,4.91994,13.2084,-0.616269,-0.277401,-0.336653,0
2024-12-11 21:04:23.929,-0.136391,4.91755,13.4166,-0.608938,-0.274347,-0.342762,0
2024-12-11 21:04:23.932,-0.172283,4.90798,13.6319,-0.598554,-0.265795,-0.347038,0
2024-12-11 21:04:23.934,-0.232104,4.89841,13.8308,-0.586948,-0.248691,-0.347038,0
2024-12-11 21:04:23.939,-0.402293,4.89601,14.1634,-0.549686,-0.191272,-0.343373,0
2024-12-11 21:04:23.941,-0.519542,4.92234,14.2831,-0.527696,-0.151566,-0.336042,0
2024-12-11 21:04:23.941,-0.519542,4.92234,14.2831,-0.527696,-0.151566,-0.336042,0
2024-12-11 21:04:23.945,-0.629611,4.97498,14.3623,-0.470887,-0.0471116,-0.309776,0
2024-12-11 21:04:23.946,-0.761217,5.02762,14.3934,-0.470887,-0.0471116,-0.309776,0
2024-12-11 21:04:23.949,-0.897907,5.09223,14.3886,-0.445231,0.0133623,-0.291451,0
2024-12-11 21:04:23.951,-1.01755,5.1664,14.3336,-0.4153,0.0768904,-0.268849,0
2024-12-11 21:04:23.954,-1.11805,5.23819,14.24,-0.37254,0.190508,-0.215705,0
2024-12-11 21:04:23.955,-1.15872,5.29322,14.1036,-0.37254,0.190508,-0.215705,0
2024-12-11 21:04:23.958,-1.17308,5.31476,13.9193,-0.362156,0.233878,-0.185163,0
2024-12-11 21:04:23.961,-1.14197,5.30997,13.7372,-0.353604,0.291909,-0.135074,0
2024-12-11 21:04:23.963,-1.05583,5.28365,13.5769,-0.353604,0.291909,-0.135074,0
2024-12-11 21:04:23.965,-0.948156,5.24297,13.4237,-0.363378,0.301071,-0.114305,0
2024-12-11 21:04:23.968,-0.809073,5.17837,13.3017,-0.37926,0.297406,-0.0953685,0
2024-12-11 21:04:23.970,-0.624826,5.08983,13.2347,-0.40125,0.277248,-0.0862058,0
2024-12-11 21:04:23.972,-0.41665,5.01326,13.2084,-0.430571,0.245484,-0.0807082,0
2024-12-11 21:04:23.977,-0.210568,4.87926,13.2778,-0.486158,0.144084,-0.0843733,0
2024-12-11 21:04:23.977,0.00717847,4.87926,13.2778,-0.486158,0.144084,-0.0843733,0
2024-12-11 21:04:23.979,0.244068,4.78594,13.3854,-0.514257,0.0842206,-0.0984228,0
2024-12-11 21:04:23.982,0.464507,4.68275,13.5338,-0.571066,-0.0605502,-0.143015,0
2024-12-11 21:04:23.984,0.687039,4.57268,13.7324,-0.571066,-0.0605502,-0.143015,0
2024-12-11 21:04:23.989,1.12283,4.29751,14.2352,-0.611382,-0.224868,-0.21204,0
2024-12-11 21:04:23.991,1.27597,4.15603,14.5322,-0.622377,-0.303667,-0.249913,0
2024-12-11 21:04:23.991,1.27597,4.15603,14.5322,-0.622377,-0.303667,-0.249913,0
2024-12-11 21:04:23.993,1.38365,4.00768,14.8505,-0.630318,-0.378191,-0.293283,0
2024-12-11 21:04:23.996,1.45813,3.86172,15.169,-0.623599,-0.444773,-0.337264,0
2024-12-11 21:04:23.998,1.47009,3.74208,15.5067,-0.611993,-0.501582,-0.381856,0
2024-12-11 21:04:24.001,1.44377,3.63649,15.8178,-0.584504,-0.544341,-0.426448,0
2024-12-11 21:04:24.005,1.27597,3.4355,16.3421,-0.513646,-0.611534,-0.50769,0
2024-12-11 21:04:24.005,1.27597,3.4355,16.3421,-0.513646,-0.611534,-0.50769,0
2024-12-11 21:04:24.010,0.914656,3.22014,16.7348,-0.406137,-0.640244,-0.568775,0
2024-12-11 21:04:24.011,0.914656,3.22014,16.7348,-0.339555,-0.643299,-0.591376,0
2024-12-11 21:04:24.012,0.703789,3.10768,16.8401,-0.339555,-0.643299,-0.591376,0
2024-12-11 21:04:24.014,0.486042,2.98535,16.8856,-0.271751,-0.642688,-0.60848,0
2024-12-11 21:04:24.019,0.081356,2.73171,16.8329,-0.12698,-0.631692,-0.621308,1
2024-12-11 21:04:24.020,0.081356,2.73171,16.8329,-0.12698,-0.631692,-0.621308,0
2024-12-11 21:04:24.024,-0.297009,2.45145,16.5431,0.0306187,-0.599317,-0.609091,0
2024-12-11 21:04:24.024,-0.297009,2.45145,16.5431,0.0306187,-0.599317,-0.609091,0
2024-12-11 21:04:24.028,-0.632004,2.20738,16.1172,0.180276,-0.557169,-0.573662,0
2024-12-11 21:04:24.028,-0.632004,2.20738,16.1172,0.180276,-0.557169,-0.573662,0
2024-12-11 21:04:24.034,-0.919442,1.97767,15.5402,0.391629,-0.459433,-0.477148,0
2024-12-11 21:04:24.034,-0.919442,1.97767,15.5402,0.391629,-0.459433,-0.477148,0
2024-12-11 21:04:24.038,-1.16112,1.75484,14.9106,0.453325,-0.417896,-0.43561,0
2024-12-11 21:04:24.039,-1.16112,1.75484,14.9106,0.512577,-0.370861,-0.390408,0
2024-12-11 21:04:24.043,-1.35733,1.62802,14.2615,0.56511,-0.320771,-0.340929,0
2024-12-11 21:04:24.044,-1.35733,1.62802,14.2615,0.56511,-0.320771,-0.340929,0
2024-12-11 21:04:24.045,-1.4342,1.57537,13.893,0.56511,-0.320771,-0.340929,0
2024-12-11 21:04:24.047,-1.4988,1.51795,13.5147,0.662235,-0.209597,-0.238307,0
2024-12-11 21:04:24.050,-1.54905,1.47966,13.1435,0.700107,-0.147291,-0.18272,0
2024-12-11 21:04:24.052,-1.58016,1.45813,12.7726,0.731871,-0.085595,-0.127133,0
2024-12-11 21:04:24.054,-1.58016,1.44855,12.387,0.764857,-0.0171801,-0.073378,0
2024-12-11 21:04:24.057,-1.55862,1.4342,12.0135,0.786848,0.0481806,-0.0202343,0
2024-12-11 21:04:24.060,-1.5347,1.41027,11.645,0.804562,0.111709,0.030466,0
2024-12-11 21:04:24.061,-1.48923,1.40279,11.2546,0.812503,0.175237,0.0768904,0
2024-12-11 21:04:24.066,-1.36211,1.44855,10.4719,0.816779,0.29985,0.156911,0
2024-12-11 21:04:24.067,-1.4342,1.44855,10.4719,0.803951,0.354215,0.191119,0
2024-12-11 21:04:24.069,-1.2664,1.45095,10.1103,0.803951,0.354215,0.191119,0
2024-12-11 21:04:24.071,-1.17069,1.48205,9.75105,0.785015,0.407359,0.219218,0
2024-12-11 21:04:24.076,-0.938585,1.51555,9.06641,0.734926,0.483104,0.255258,0
2024-12-11 21:04:24.076,-0.938585,1.51555,9.06641,0.734926,0.483104,0.255258,0
2024-12-11 21:04:24.079,-0.845265,1.54427,8.74577,0.655515,0.531972,0.268696,0
2024-12-11 21:04:24.081,-0.749253,1.55145,8.45594,0.655515,0.531972,0.268696,0
2024-12-11 21:04:24.085,-0.56022,1.61127,7.95554,0.55778,0.544799,0.259534,0
2024-12-11 21:04:24.085,-0.56022,1.61127,7.95554,0.55778,0.544799,0.259534,0
2024-12-11 21:04:24.090,-0.426222,1.65912,7.59661,0.448438,0.533804,0.231435,0
2024-12-11 21:04:24.090,-0.426222,1.65912,7.59661,0.448438,0.533804,0.231435,0
2024-12-11 21:04:24.092,-0.354437,1.69023,7.4671,0.385521,0.517311,0.214331,0
2024-12-11 21:04:24.094,-0.304188,1.72612,7.39053,0.329323,0.495321,0.190508,0
2024-12-11 21:04:24.098,-0.260818,1.79073,7.34507,0.268849,0.470276,0.166074,0
2024-12-11 21:04:24.099,-0.210568,1.81944,7.3331,0.21204,0.445231,0.138586,0
2024-12-11 21:04:24.104,-0.136391,1.83859,7.38096,0.113694,0.370708,0.0756687,0
2024-12-11 21:04:24.105,-0.136391,1.83859,7.38096,0.113694,0.370708,0.0756687,0
2024-12-11 21:04:24.109,-0.0717847,1.8338,7.51257,0.0202343,0.2858,0.00664296,0
2024-12-11 21:04:24.109,-0.0717847,1.8338,7.51257,0.0202343,0.2858,0.00664296,0
2024-12-11 21:04:24.111,-0.0358923,1.80748,7.59183,-0.0243575,0.2351,-0.0300079,0
2024-12-11 21:04:24.114,-0.026321,1.76919,7.69711,-0.0591758,0.19173,-0.0691021,0
2024-12-11 21:04:24.116,-0.026321,1.73091,7.81197,-0.0872748,0.145305,-0.11064,0
2024-12-11 21:04:24.118,-0.0287139,1.68305,7.93879,-0.11232,0.0939941,-0.150345,0
2024-12-11 21:04:24.121,-0.0454636,1.62562,8.07518,-0.134921,0.0445155,-0.187606,0
2024-12-11 21:04:24.123,-0.081356,1.57059,8.21187,-0.153857,-0.00129805,-0.226701,0
2024-12-11 21:04:24.125,-0.136391,1.51555,8.35544,-0.153857,-0.00129805,-0.226701,0
2024-12-11 21:04:24.127,-0.196211,1.45573,8.48226,-0.172183,-0.0886492,-0.297559,0
2024-12-11 21:04:24.131,-0.272782,1.39083,8.59472,-0.183178,-0.169281,-0.358033,0
2024-12-11 21:04:24.132,-0.368794,1.32383,8.7003,-0.183178,-0.169281,-0.358033,0
2024-12-11 21:04:24.134,-0.4669,1.2664,8.79123,-0.17768,-0.205932,-0.381245,0
2024-12-11 21:04:24.137,-0.562612,1.20419,8.87976,-0.172183,-0.239528,-0.401403,0
2024-12-11 21:04:24.140,-0.658325,1.14437,8.94676,-0.14836,-0.296948,-0.434389,0
2024-12-11 21:04:24.141,-0.76361,1.1013,8.98983,-0.14836,-0.296948,-0.434389,0
2024-12-11 21:04:24.144,-0.871586,1.05583,9.02573,-0.139197,-0.317717,-0.444773,0
2024-12-11 21:04:24.146,-0.981655,1.01276,9.04965,-0.123926,-0.340929,-0.452714,0
2024-12-11 21:04:24.149,-1.09173,0.964906,9.04965,-0.107433,-0.355589,-0.457601,0
2024-12-11 21:04:24.151,-1.18505,0.924228,9.04248,-0.0909399,-0.365974,-0.457601,0
2024-12-11 21:04:24.154,-1.28794,0.912264,9.02812,-0.0616192,-0.382467,-0.447827,0
2024-12-11 21:04:24.156,-1.38365,0.888335,9.00658,-0.0616192,-0.382467,-0.447827,0
2024-12-11 21:04:24.158,-1.4677,0.852443,8.95155,-0.0432938,-0.382467,-0.440497,0
2024-12-11 21:04:24.160,-1.54427,0.825823,8.88216,-0.0268009,-0.376358,-0.42828,0
2024-12-11 21:04:24.163,-1.61127,0.828216,8.81516,-0.0133623,-0.372082,-0.417285,0
2024-12-11 21:04:24.166,-1.68066,0.833001,8.7338,-0.00297788,-0.361698,-0.400792,0
2024-12-11 21:04:24.167,-1.75244,0.830609,8.64018,-0.00297788,-0.361698,-0.400792,0
2024-12-11 21:04:24.171,-1.82901,0.830609,8.53969,0.0232886,-0.321382,-0.336042,0
2024-12-11 21:04:24.174,-1.94865,0.837787,8.31954,0.0306187,-0.301224,-0.312219,0
2024-12-11 21:04:24.175,-1.94865,0.837787,8.31954,0.0306187,-0.301224,-0.312219,0
2024-12-11 21:04:24.179,-2.01117,0.85005,8.10389,0.0312296,-0.262741,-0.257854,0
2024-12-11 21:04:24.179,-2.01117,0.85005,8.10389,0.0312296,-0.262741,-0.257854,0
2024-12-11 21:04:24.183,-2.04706,0.8668,8.00339,0.0306187,-0.214484,-0.19738,0
2024-12-11 21:04:24.184,-2.0662,0.885943,7.91007,0.0306187,-0.214484,-0.19738,0
2024-12-11 21:04:24.187,-2.07338,0.9003,7.81915,0.0208452,-0.158286,-0.138128,0
2024-12-11 21:04:24.190,-2.09013,0.933799,7.71625,0.0208452,-0.158286,-0.138128,0
2024-12-11 21:04:24.193,-2.12602,1.01037,7.52692,0.0104608,-0.093536,-0.0721563,0
2024-12-11 21:04:24.194,-2.12602,1.01037,7.52692,0.00313059,-0.0599394,-0.0403923,0
2024-12-11 21:04:24.197,-2.1332,1.04387,7.45275,0.00313059,-0.0599394,-0.0403923,0
2024-12-11 21:04:24.198,-2.12602,1.0654,7.3666,-0.00481042,-0.0269536,-0.00801737,0
2024-12-11 21:04:24.201,-2.10209,1.08933,7.27568,-0.0127514,0.00542127,0.0255792,0
2024-12-11 21:04:24.203,-2.07577,1.12522,7.17518,-0.0237467,0.0353528,0.0561216,0
2024-12-11 21:04:24.206,-2.03988,1.14915,7.09143,-0.0445155,0.0933833,0.115985,0
2024-12-11 21:04:24.208,-2.00877,1.1683,7.01217,-0.0445155,0.0933833,0.115985,0
2024-12-11 21:04:24.210,-1.9657,1.18983,6.94038,-0.0445155,0.0933833,0.115985,0
2024-12-11 21:04:24.212,-1.92233,1.21137,6.86381,-0.0683385,0.144694,0.171572,0
2024-12-11 21:04:24.215,-1.86969,1.2329,6.78963,-0.0836097,0.169739,0.197227,0
2024-12-11 21:04:24.218,-1.79791,1.26401,6.72981,-0.111098,0.210055,0.239376,0
2024-12-11 21:04:24.219,-1.73809,1.30469,6.68196,-0.111098,0.210055,0.239376,0
2024-12-11 21:04:24.222,-1.70219,1.35015,6.64606,-0.125758,0.230213,0.259534,0
2024-12-11 21:04:24.226,-1.64477,1.46291,6.58385,-0.15569,0.265642,0.291909,0
2024-12-11 21:04:24.226,-1.64477,1.46291,6.58385,-0.15569,0.265642,0.291909,0
2024-12-11 21:04:24.230,-1.61366,1.51077,6.58864,-0.180734,0.297406,0.323062,0
2024-12-11 21:04:24.232,-1.5658,1.54905,6.57907,-0.19173,0.310234,0.33589,0
2024-12-11 21:04:24.233,-1.4988,1.58495,6.58624,-0.19173,0.310234,0.33589,0
2024-12-11 21:04:24.238,-1.35494,1.62323,6.64846,-0.210055,0.331614,0.35055,0
2024-12-11 21:04:24.240,-1.28315,1.63759,6.68196,-0.219829,0.339555,0.356048,0
2024-12-11 21:04:24.240,-1.28315,1.63759,6.68196,-0.219829,0.339555,0.356048,0
2024-12-11 21:04:24.245,-1.1348,1.67827,6.75853,-0.225937,0.348717,0.363378,0
2024-12-11 21:04:24.245,-1.1348,1.67827,6.75853,-0.225937,0.348717,0.363378,0
2024-12-11 21:04:24.247,-1.08455,1.69023,6.8016,-0.230824,0.347496,0.36521,0
2024-12-11 21:04:24.250,-1.03669,1.70459,6.85185,-0.233878,0.347496,0.363989,0
2024-12-11 21:04:24.252,-0.991227,1.72612,6.89013,-0.233878,0.345052,0.364599,0
2024-12-11 21:04:24.255,-0.96012,1.75005,6.94038,-0.229602,0.34322,0.362156,0
2024-12-11 21:04:24.259,-0.931406,1.83859,7.06032,-0.219218,0.338944,0.360324,0
2024-12-11 21:04:24.259,-0.931406,1.83859,7.06032,-0.219218,0.338944,0.360324,0
2024-12-11 21:04:24.264,-0.94337,1.92233,7.12971,-0.211277,0.337722,0.359102,0
2024-12-11 21:04:24.264,-0.94337,1.92233,7.12971,-0.211277,0.337722,0.359102,0
2024-12-11 21:04:24.267,-0.936192,1.95823,7.17996,-0.189286,0.332835,0.361545,0
2024-12-11 21:04:24.269,-0.936192,1.97767,7.22782,-0.174626,0.329781,0.36521,0
2024-12-11 21:04:24.272,-0.933799,1.9992,7.26611,-0.140419,0.317564,0.369486,0
2024-12-11 21:04:24.274,-0.926621,2.0351,7.29003,-0.140419,0.317564,0.369486,0
2024-12-11 21:04:24.276,-0.921835,2.06381,7.32114,-0.125147,0.310234,0.37193,0
2024-12-11 21:04:24.278,-0.919442,2.0686,7.35703,-0.108654,0.299239,0.375595,0
2024-12-11 21:04:24.280,-0.933799,2.08295,7.37857,-0.0897182,0.288854,0.378038,0
2024-12-11 21:04:24.283,-0.938585,2.10688,7.40728,-0.066506,0.276637,0.378038,0
2024-12-11 21:04:24.286,-0.952942,2.12124,7.4336,-0.046348,0.263199,0.384147,0
2024-12-11 21:04:24.288,-0.967299,2.14277,7.44317,-0.0219141,0.24976,0.385979,0
2024-12-11 21:04:24.292,-0.981655,2.21216,7.44317,0.0263428,0.219829,0.39392,0
2024-12-11 21:04:24.293,-0.981655,2.21216,7.44317,0.0501658,0.204557,0.399418,0
2024-12-11 21:04:24.295,-0.996012,2.23609,7.41685,0.0501658,0.204557,0.399418,0
2024-12-11 21:04:24.298,-0.996012,2.25045,7.38575,0.093536,0.161798,0.406748,0
2024-12-11 21:04:24.299,-1.00558,2.26959,7.37139,0.093536,0.161798,0.406748,0
2024-12-11 21:04:24.303,-1.02233,2.29113,7.34985,0.133852,0.114152,0.42263,0
2024-12-11 21:04:24.306,-1.02473,2.36052,7.30678,0.149123,0.0848314,0.428738,0
2024-12-11 21:04:24.306,-1.02473,2.36052,7.30678,0.149123,0.0848314,0.428738,0
2024-12-11 21:04:24.309,-1.00558,2.40838,7.29003,0.166838,0.058565,0.435458,0
2024-12-11 21:04:24.311,-1.0008,2.45863,7.26611,0.180276,0.030466,0.441566,0
2024-12-11 21:04:24.316,-0.950549,2.5666,7.24696,0.206543,-0.0238994,0.456837,0
2024-12-11 21:04:24.316,-0.950549,2.5666,7.24696,0.206543,-0.0238994,0.456837,0
2024-12-11 21:04:24.319,-0.919442,2.64078,7.25175,0.230366,-0.0666587,0.469054,0
2024-12-11 21:04:24.322,-0.873978,2.71735,7.28046,0.24075,-0.0837624,0.472719,0
2024-12-11 21:04:24.325,-0.74686,2.8657,7.30918,0.249913,-0.101477,0.476385,0
2024-12-11 21:04:24.326,-0.74686,2.8657,7.30918,0.259076,-0.116748,0.478828,0
2024-12-11 21:04:24.328,-0.667897,2.92313,7.32832,0.259076,-0.116748,0.478828,0
2024-12-11 21:04:24.330,-0.605683,2.9686,7.34746,0.267017,-0.127743,0.478828,0
2024-12-11 21:04:24.332,-0.54347,3.02602,7.36182,0.273736,-0.138128,0.477606,0
2024-12-11 21:04:24.336,-0.478864,3.09093,7.37139,0.280455,-0.155232,0.466,0
2024-12-11 21:04:24.338,-0.419043,3.12204,7.369,0.280455,-0.155232,0.466,0
2024-12-11 21:04:24.339,-0.361615,3.15793,7.36421,0.28412,-0.162562,0.45867,0
2024-12-11 21:04:24.342,-0.304188,3.22732,7.36421,0.28412,-0.162562,0.45867,0
2024-12-11 21:04:24.344,-0.253639,3.28475,7.35703,0.281066,-0.174168,0.436069,0
2024-12-11 21:04:24.347,-0.236889,3.3326,7.34507,0.276179,-0.180887,0.423241,0
2024-12-11 21:04:24.349,-0.229711,3.39482,7.34746,0.267627,-0.184552,0.407359,0
2024-12-11 21:04:24.352,-0.229711,3.46421,7.36421,0.252967,-0.188217,0.374984,0
2024-12-11 21:04:24.353,-0.234497,3.51924,7.39532,0.252967,-0.188217,0.374984,0
2024-12-11 21:04:24.358,-0.217747,3.68226,7.49342,0.229144,-0.194326,0.342609,0
2024-12-11 21:04:24.359,-0.232104,3.59342,7.44078,0.229144,-0.194326,0.342609,0
2024-12-11 21:04:24.361,-0.200997,3.7349,7.55324,0.229144,-0.194326,0.342609,0
2024-12-11 21:04:24.364,-0.193819,3.79232,7.61097,0.202267,-0.193104,0.30718,0
2024-12-11 21:04:24.365,-0.184247,3.85454,7.65643,0.186385,-0.19005,0.287633,0
2024-12-11 21:04:24.368,-0.157926,3.88564,7.6995,0.171724,-0.180887,0.268696,0
2024-12-11 21:04:24.372,-0.114855,3.92872,7.82872,0.136906,-0.165616,0.22777,0
2024-12-11 21:04:24.373,-0.114855,3.92872,7.82872,0.136906,-0.165616,0.22777,0
2024-12-11 21:04:24.376,-0.114855,3.94547,7.89332,0.11797,-0.158897,0.207612,0
2024-12-11 21:04:24.377,-0.12682,3.95504,7.98186,0.0978119,-0.154621,0.187454,0
2024-12-11 21:04:24.379,-0.143569,3.95504,8.06082,0.0794865,-0.151566,0.167296,0
2024-12-11 21:04:24.382,-0.160319,3.97179,8.13769,0.0599394,-0.150345,0.14836,0
2024-12-11 21:04:24.385,-0.179462,3.98614,8.21905,0.0153475,-0.15401,0.113541,0
2024-12-11 21:04:24.387,-0.191426,3.99332,8.3028,0.0153475,-0.15401,0.113541,0
2024-12-11 21:04:24.389,-0.215354,3.99332,8.38894,-0.00358873,-0.15401,0.0988809,0
2024-12-11 21:04:24.391,-0.236889,3.97418,8.47508,-0.0231358,-0.157675,0.0854423,0
2024-12-11 21:04:24.396,-0.267996,3.97418,8.71466,-0.0622301,-0.163783,0.0610084,0
2024-12-11 21:04:24.397,-0.267996,3.97418,8.71466,-0.0811663,-0.165005,0.0512348,0
2024-12-11 21:04:24.399,-0.282652,3.96939,8.83669,-0.0958267,-0.170503,0.0451263,0
2024-12-11 21:04:24.401,-0.27996,3.93111,8.97308,-0.0958267,-0.170503,0.0451263,0
2024-12-11 21:04:24.403,-0.275175,3.90718,9.11426,-0.11232,-0.171724,0.0365745,0
2024-12-11 21:04:24.405,-0.277567,3.89761,9.23869,-0.12698,-0.174168,0.030466,0
2024-12-11 21:04:24.408,-0.27996,3.87607,9.37538,-0.138586,-0.174168,0.0292443,0
2024-12-11 21:04:24.410,-0.294616,3.84736,9.53091,-0.151414,-0.167449,0.0286335,0
2024-12-11 21:04:24.415,-0.299402,3.8019,9.78934,-0.168517,-0.155842,0.0329094,0
2024-12-11 21:04:24.415,-0.299402,3.8019,9.78934,-0.168517,-0.155842,0.0329094,0
2024-12-11 21:04:24.417,-0.27996,3.7995,9.91167,-0.17768,-0.149123,0.0390179,0
2024-12-11 21:04:24.420,-0.285045,3.79472,10.0385,-0.186232,-0.140571,0.0445155,0
2024-12-11 21:04:24.424,-0.253639,3.8019,10.2299,-0.19906,-0.126522,0.0634518,0
2024-12-11 21:04:24.424,-0.253639,3.8019,10.2299,-0.19906,-0.126522,0.0634518,0
2024-12-11 21:04:24.428,-0.246461,3.77797,10.2873,-0.20639,-0.118581,0.0732253,0
2024-12-11 21:04:24.429,-0.244068,3.78275,10.3543,-0.214331,-0.111861,0.0829989,0
2024-12-11 21:04:24.432,-0.246461,3.78754,10.4073,-0.222272,-0.105142,0.0927724,0
2024-12-11 21:04:24.434,-0.241675,3.78515,10.4551,-0.233267,-0.106364,0.103157,0
2024-12-11 21:04:24.436,-0.229711,3.81625,10.515,-0.241208,-0.105753,0.11232,0
2024-12-11 21:04:24.438,-0.212961,3.85215,10.5796,-0.255258,-0.109418,0.122093,0
2024-12-11 21:04:24.441,-0.191426,3.89282,10.6585,-0.267475,-0.11064,0.131256,0
2024-12-11 21:04:24.443,-0.174676,3.94547,10.7447,-0.282135,-0.119802,0.142251,0
2024-12-11 21:04:24.445,-0.160319,3.99093,10.838,-0.295574,-0.125911,0.150192,0
2024-12-11 21:04:24.449,-0.141177,4.04596,10.9508,-0.323673,-0.13996,0.16302,0
2024-12-11 21:04:24.450,-0.12682,4.11775,11.0704,-0.323673,-0.13996,0.16302,0
2024-12-11 21:04:24.452,-0.143569,4.18235,11.1876,-0.334057,-0.144236,0.17035,0
2024-12-11 21:04:24.457,-0.16989,4.25922,11.4652,-0.356658,-0.158286,0.186232,0
2024-12-11 21:04:24.457,-0.16989,4.25922,11.4652,-0.356658,-0.158286,0.186232,0
2024-12-11 21:04:24.463,-0.205783,4.32622,11.7718,-0.37193,-0.182109,0.208223,0
2024-12-11 21:04:24.463,-0.205783,4.32622,11.7718,-0.37193,-0.182109,0.208223,0
2024-12-11 21:04:24.464,-0.222533,4.36929,11.9393,-0.37193,-0.182109,0.208223,0
2024-12-11 21:04:24.467,-0.232104,4.41715,12.0975,-0.373151,-0.190661,0.214942,0
2024-12-11 21:04:24.470,-0.229711,4.46261,12.2339,-0.373151,-0.205321,0.231435,0
2024-12-11 21:04:24.471,-0.241675,4.51047,12.3727,-0.373151,-0.205321,0.231435,0
2024-12-11 21:04:24.474,-0.260818,4.56551,12.5187,-0.364599,-0.21143,0.241208,0
2024-12-11 21:04:24.476,-0.267996,4.6014,12.6673,-0.359102,-0.215095,0.250982,0
2024-12-11 21:04:24.481,-0.34008,4.68515,12.8898,-0.339555,-0.21876,0.276027,0
2024-12-11 21:04:24.482,-0.34008,4.68515,12.8898,-0.329781,-0.208375,0.288244,0
2024-12-11 21:04:24.483,-0.404686,4.74018,12.976,-0.329781,-0.208375,0.288244,0
2024-12-11 21:04:24.489,-0.54347,4.88166,13.098,-0.2858,-0.141793,0.351161,0
2024-12-11 21:04:24.490,-0.612862,4.9678,13.1387,-0.2858,-0.141793,0.351161,0
2024-12-11 21:04:24.491,-0.612862,4.9678,13.1387,-0.27114,-0.113083,0.373151,0
2024-12-11 21:04:24.492,-0.658325,5.05394,13.1674,-0.27114,-0.113083,0.373151,0
2024-12-11 21:04:24.495,-0.646361,5.12333,13.1554,-0.25709,-0.0837624,0.399418,0
2024-12-11 21:04:24.497,-0.615255,5.17119,13.1124,-0.25709,-0.0837624,0.399418,0
2024-12-11 21:04:24.500,-0.576969,5.18076,13.0502,-0.238765,-0.0312296,0.450729,0
2024-12-11 21:04:24.503,-0.488435,5.17119,12.9784,-0.2351,-0.0165692,0.469665,0
2024-12-11 21:04:24.504,-0.335294,5.15683,12.8898,-0.236932,-0.00984991,0.488601,0
2024-12-11 21:04:24.508,-0.143569,5.12812,12.8109,-0.243652,-0.0190126,0.498986,0
2024-12-11 21:04:24.511,0.308973,5.01805,12.7271,-0.276027,-0.0691021,0.499597,0
2024-12-11 21:04:24.512,0.308973,5.01805,12.7271,-0.296795,-0.111861,0.489823,0
2024-12-11 21:04:24.515,0.572184,4.97258,12.7439,-0.296795,-0.111861,0.489823,0
2024-12-11 21:04:24.518,0.84018,4.93191,12.775,-0.346274,-0.210208,0.44401,0
2024-12-11 21:04:24.518,1.12283,4.88884,12.8252,-0.346274,-0.210208,0.44401,0
2024-12-11 21:04:24.523,1.61366,4.80987,13.0119,-0.404915,-0.318939,0.37254,0
2024-12-11 21:04:24.524,1.61366,4.80987,13.0119,-0.432404,-0.367806,0.329781,0
2024-12-11 21:04:24.525,1.77876,4.78834,13.1219,-0.432404,-0.367806,0.329781,0
2024-12-11 21:04:24.528,1.91516,4.78594,13.2658,-0.457448,-0.410566,0.282135,0
2024-12-11 21:04:24.533,2.11884,4.79791,13.6582,-0.500818,-0.4857,0.183789,0
2024-12-11 21:04:24.534,2.11884,4.79791,13.6582,-0.5167,-0.51441,0.132477,0
2024-12-11 21:04:24.540,2.29591,4.67079,14.3216,-0.5167,-0.51441,0.132477,0
2024-12-11 21:04:24.542,2.34138,4.57029,14.5585,-0.536248,-0.555947,-0.021456,0
2024-12-11 21:04:24.543,2.34138,4.57029,14.5585,-0.531972,-0.555947,-0.073378,0
2024-12-11 21:04:24.544,2.37488,4.43629,14.7523,-0.531972,-0.555947,-0.073378,0
2024-12-11 21:04:24.544,2.37488,4.43629,14.7523,-0.531972,-0.555947,-0.073378,0
2024-12-11 21:04:24.548,2.38923,4.3023,14.9154,-0.511203,-0.538233,-0.174168,0
2024-12-11 21:04:24.551,2.34377,4.00529,15.1858,-0.488601,-0.521129,-0.224868,0
2024-12-11 21:04:24.551,2.34377,4.00529,15.1858,-0.488601,-0.521129,-0.224868,0
2024-12-11 21:04:24.555,2.27916,3.86411,15.2791,-0.442788,-0.477759,-0.321382,1
2024-12-11 21:04:24.556,2.18824,3.72054,15.3341,-0.442788,-0.477759,-0.321382,0
2024-12-11 21:04:24.558,2.05902,3.55992,15.3532,-0.413467,-0.452103,-0.364141,0
2024-12-11 21:04:24.561,1.91037,3.38285,15.3724,-0.38659,-0.427669,-0.403846,0
2024-12-11 21:04:24.563,1.73569,3.21296,15.3532,-0.357269,-0.40629,-0.439886,0
2024-12-11 21:04:24.565,1.55623,3.04517,15.2982,-0.325505,-0.383688,-0.469207,0
2024-12-11 21:04:24.569,1.37169,2.88245,15.236,-0.291298,-0.359865,-0.494252,0
2024-12-11 21:04:24.570,1.17547,2.71256,15.1642,-0.258923,-0.336042,-0.516242,0
2024-12-11 21:04:24.573,0.986441,2.55464,15.0853,-0.222883,-0.314663,-0.532735,0
2024-12-11 21:04:24.576,0.797109,2.42034,14.9848,-0.185621,-0.286564,-0.541898,0
2024-12-11 21:04:24.578,0.627219,2.3007,14.901,-0.106211,-0.223646,-0.548617,0
2024-12-11 21:04:24.580,0.469292,2.17388,14.8074,-0.106211,-0.223646,-0.548617,0
2024-12-11 21:04:24.582,0.301795,2.0351,14.6973,-0.0646735,-0.185163,-0.54373,0
2024-12-11 21:04:24.584,0.138784,1.90558,14.5657,-0.0231358,-0.142404,-0.533957,0
2024-12-11 21:04:24.589,-0.145962,1.68784,14.228,0.0636045,-0.0397814,-0.503415,0
2024-12-11 21:04:24.590,-0.145962,1.68784,14.228,0.0636045,-0.0397814,-0.503415,0
2024-12-11 21:04:24.591,-0.289831,1.58495,14.0486,0.11064,0.0121406,-0.480202,0
2024-12-11 21:04:24.594,-0.41665,1.47488,13.8547,0.158286,0.0689494,-0.453936,0
2024-12-11 21:04:24.596,-0.54347,1.38844,13.6391,0.199823,0.133088,-0.424004,0
2024-12-11 21:04:24.599,-0.682254,1.33101,13.4213,0.245026,0.194784,-0.389186,0
2024-12-11 21:04:24.601,-0.792323,1.26879,13.1964,0.285342,0.259534,-0.34887,0
2024-12-11 21:04:24.603,-0.917049,1.21376,12.9377,0.326269,0.324284,-0.310998,0
2024-12-11 21:04:24.608,-1.13719,1.10608,12.4038,0.396516,0.452561,-0.21876,0
2024-12-11 21:04:24.609,-1.13719,1.10608,12.4038,0.433778,0.508149,-0.16867,0
2024-12-11 21:04:24.611,-1.2329,1.09173,12.119,0.462488,0.563125,-0.119192,0
2024-12-11 21:04:24.613,-1.30469,1.07258,11.8268,0.462488,0.563125,-0.119192,0
2024-12-11 21:04:24.615,-1.36929,1.05344,11.5469,0.491198,0.611993,-0.0709346,0
2024-12-11 21:04:24.618,-1.40788,1.04865,11.2642,0.515021,0.651698,-0.0196235,0
2024-12-11 21:04:24.622,-1.36211,1.01276,10.6849,0.553504,0.701176,0.0756687,0
2024-12-11 21:04:24.622,-1.36211,1.01276,10.6849,0.553504,0.701176,0.0756687,0
2024-12-11 21:04:24.628,-1.19222,0.952942,10.1414,0.567553,0.721945,0.197227,0
2024-12-11 21:04:24.628,-1.19222,0.952942,10.1414,0.567553,0.721945,0.197227,0
2024-12-11 21:04:24.629,-1.15872,0.964906,9.88774,0.567553,0.721945,0.197227,0
2024-12-11 21:04:24.631,-1.09412,0.998405,9.6362,0.566943,0.708506,0.231435,0
2024-12-11 21:04:24.634,-1.00319,1.01276,9.4352,0.562667,0.682851,0.260755,0
2024-12-11 21:04:24.637,-0.897907,1.02473,9.24347,0.540065,0.60283,0.312677,0
2024-12-11 21:04:24.639,-0.777966,1.05823,9.07119,0.540065,0.60283,0.312677,0
2024-12-11 21:04:24.642,-0.651147,1.0989,8.94198,0.50708,0.499597,0.35055,0
2024-12-11 21:04:24.646,-0.349651,1.16351,8.74816,0.489976,0.447064,0.364599,0
2024-12-11 21:04:24.647,-0.349651,1.16351,8.74816,0.472261,0.387201,0.373762,0
2024-12-11 21:04:24.648,-0.18664,1.1994,8.70509,0.472261,0.387201,0.373762,0
2024-12-11 21:04:24.651,-0.0239282,1.24487,8.68086,0.436832,0.27114,0.381703,0
2024-12-11 21:04:24.653,0.136391,1.30469,8.7027,0.436832,0.27114,0.381703,0
2024-12-11 21:04:24.656,0.299402,1.34536,8.74816,0.422172,0.212498,0.37926,0
2024-12-11 21:04:24.660,0.598505,1.44138,8.82712,0.397127,0.102546,0.36521,0
2024-12-11 21:04:24.660,0.598505,1.44138,8.82712,0.397127,0.102546,0.36521,0
2024-12-11 21:04:24.663,0.756431,1.47966,8.90609,0.387354,0.0500131,0.354826,0
2024-12-11 21:04:24.664,0.914656,1.50598,8.97308,0.381856,0.00481042,0.338333,0
2024-12-11 21:04:24.667,1.0654,1.52513,9.02812,0.378191,-0.037338,0.319397,0
2024-12-11 21:04:24.669,1.1994,1.5323,9.06641,0.378802,-0.073378,0.29985,0
2024-12-11 21:04:24.672,1.32622,1.55623,9.08794,0.380634,-0.105142,0.277248,0
2024-12-11 21:04:24.674,1.42463,1.58255,9.08555,0.378802,-0.135684,0.251593,0
2024-12-11 21:04:24.676,1.50838,1.58255,9.05923,0.378191,-0.161951,0.223494,0
2024-12-11 21:04:24.679,1.59212,1.58973,9.03291,0.381245,-0.185163,0.192951,0
2024-12-11 21:04:24.681,1.67109,1.59691,8.99941,0.380634,-0.205321,0.161798,0
2024-12-11 21:04:24.683,1.7333,1.57298,8.95634,0.376358,-0.227312,0.131867,0
2024-12-11 21:04:24.687,1.76919,1.55384,8.87498,0.366585,-0.263352,0.0652843,0
2024-12-11 21:04:24.689,1.76919,1.54905,8.77927,0.3562,-0.274958,0.0322986,0
2024-12-11 21:04:24.691,1.74766,1.54427,8.71466,0.3562,-0.274958,0.0322986,0
2024-12-11 21:04:24.693,1.72134,1.55384,8.64975,0.346427,-0.28412,0.00358873,0
2024-12-11 21:04:24.696,1.68784,1.5682,8.57079,0.321993,-0.296337,-0.0489441,0
2024-12-11 21:04:24.698,1.63998,1.58016,8.48704,0.321993,-0.296337,-0.0489441,0
2024-12-11 21:04:24.700,1.57059,1.59452,8.41047,0.306111,-0.295116,-0.073378,0
2024-12-11 21:04:24.703,1.4988,1.61366,8.34347,0.271293,-0.283509,-0.111861,0
2024-12-11 21:04:24.704,1.43659,1.62323,8.25972,0.271293,-0.283509,-0.111861,0
2024-12-11 21:04:24.708,1.36451,1.65434,8.18794,0.234031,-0.247469,-0.141182,0
2024-12-11 21:04:24.710,1.27358,1.68784,8.13021,0.234031,-0.247469,-0.141182,0
2024-12-11 21:04:24.712,1.18983,1.70937,8.06561,0.213262,-0.227312,-0.150956,0
2024-12-11 21:04:24.714,1.09412,1.73809,8.09671,0.191882,-0.203488,-0.158286,0
2024-12-11 21:04:24.716,1.01276,1.76201,8.09911,0.173557,-0.191882,-0.164394,0
2024-12-11 21:04:24.719,0.948156,1.78834,7.92443,0.158286,-0.164394,-0.168059,0
2024-12-11 21:04:24.721,0.917049,1.80987,7.81915,0.138128,-0.123468,-0.167449,0
2024-12-11 21:04:24.726,0.84018,1.82662,7.84307,0.102699,-0.0446682,-0.170503,0
2024-12-11 21:04:24.726,0.84018,1.82662,7.84307,0.102699,-0.0446682,-0.170503,0
2024-12-11 21:04:24.728,0.751645,1.85294,7.78086,0.0868167,-0.00862822,-0.166227,0
2024-12-11 21:04:24.730,0.699003,1.88883,7.7354,0.0709346,0.030466,-0.162562,0
2024-12-11 21:04:24.733,0.675075,1.90798,7.70429,0.0526092,0.0652843,-0.159507,0
2024-12-11 21:04:24.737,0.591326,1.91994,7.64208,0.0245102,0.136753,-0.155232,0
2024-12-11 21:04:24.741,0.569791,1.93191,7.62054,0.00129805,0.205779,-0.147901,0
2024-12-11 21:04:24.741,0.569791,1.93191,7.62054,0.00129805,0.205779,-0.147901,0
2024-12-11 21:04:24.745,0.50997,1.94865,7.56282,-0.0109189,0.238154,-0.147291,0
2024-12-11 21:04:24.746,0.50997,1.94865,7.56282,-0.0194708,0.27114,-0.143625,0
2024-12-11 21:04:24.749,0.404686,2.02313,7.5006,-0.0194708,0.27114,-0.143625,0
2024-12-11 21:04:24.749,0.404686,2.02313,7.5006,-0.0194708,0.27114,-0.143625,0
2024-12-11 21:04:24.752,0.354437,2.03749,7.47907,-0.0316877,0.332225,-0.136906,0
2024-12-11 21:04:24.755,0.318545,2.06142,7.46232,-0.0347419,0.35788,-0.13263,0
2024-12-11 21:04:24.759,0.236889,2.12602,7.41925,-0.0359636,0.403083,-0.122857,0
2024-12-11 21:04:24.759,0.236889,2.12602,7.41925,-0.0359636,0.403083,-0.122857,0
2024-12-11 21:04:24.761,0.198604,2.13799,7.4001,-0.0341311,0.42263,-0.116748,0
2024-12-11 21:04:24.763,0.179462,2.1667,7.38096,-0.0322986,0.43729,-0.111861,0
2024-12-11 21:04:24.767,0.167498,2.19302,7.35943,-0.0176382,0.462946,-0.102088,0
2024-12-11 21:04:24.768,0.153141,2.20259,7.34028,-0.0176382,0.462946,-0.102088,0
2024-12-11 21:04:24.770,0.157926,2.20977,7.32114,-0.010308,0.470887,-0.0965902,0
2024-12-11 21:04:24.773,0.167498,2.20977,7.28764,-0.00114534,0.474552,-0.0917034,0
2024-12-11 21:04:24.777,0.150748,2.22174,7.22782,0.0202343,0.477606,-0.0880384,0
2024-12-11 21:04:24.777,0.150748,2.22174,7.22782,0.0202343,0.477606,-0.0880384,0
2024-12-11 21:04:24.780,0.133998,2.22413,7.18714,0.0342838,0.478217,-0.085595,0
2024-12-11 21:04:24.783,0.12682,2.22652,7.14168,0.0568851,0.471498,-0.0800973,0
2024-12-11 21:04:24.785,0.100499,2.24327,7.09861,0.0568851,0.471498,-0.0800973,0
2024-12-11 21:04:24.788,0.0622134,2.26241,7.05793,0.0849841,0.456227,-0.0721563,0
2024-12-11 21:04:24.793,0.0334995,2.3007,6.98345,0.111861,0.439734,-0.0660479,0
2024-12-11 21:04:24.793,0.00239282,2.3007,6.98345,0.111861,0.439734,-0.0660479,0
2024-12-11 21:04:24.797,-0.0622134,2.34856,6.91885,0.123468,0.428738,-0.0587177,0
2024-12-11 21:04:24.797,-0.0622134,2.34856,6.91885,0.123468,0.428738,-0.0587177,0
2024-12-11 21:04:24.800,-0.0837488,2.37009,6.8662,0.152788,0.404915,-0.0489441,0
2024-12-11 21:04:24.802,-0.11007,2.38206,6.80638,0.165616,0.393309,-0.0422248,0
2024-12-11 21:04:24.803,-0.143569,2.40838,6.75135,0.165616,0.393309,-0.0422248,0
2024-12-11 21:04:24.807,-0.162712,2.41795,6.70589,0.19005,0.373151,-0.0300079,0
2024-12-11 21:04:24.809,-0.18664,2.42991,6.6676,0.201045,0.36521,-0.0251211,0
2024-12-11 21:04:24.811,-0.217747,2.44666,6.61496,0.201045,0.36521,-0.0251211,0
2024-12-11 21:04:24.814,-0.248854,2.4682,6.53839,0.210208,0.35788,-0.0196235,0
2024-12-11 21:04:24.815,-0.27996,2.48495,6.45195,0.221203,0.349328,-0.013515,0
2024-12-11 21:04:24.820,-0.344866,2.4993,6.33948,0.23342,0.33589,-0.00129805,0
2024-12-11 21:04:24.822,-0.366401,2.50648,6.2677,0.239528,0.327338,0.00542127,0
2024-12-11 21:04:24.826,-0.366401,2.50648,6.19113,0.240139,0.305958,0.0170274,0
2024-12-11 21:04:24.826,-0.380758,2.51366,6.19113,0.240139,0.305958,0.0170274,0
2024-12-11 21:04:24.828,-0.397508,2.54507,6.11695,0.237085,0.296185,0.0219141,0
2024-12-11 21:04:24.829,-0.423829,2.56182,6.04517,0.237085,0.296185,0.0219141,0
2024-12-11 21:04:24.832,-0.447757,2.56899,5.99253,0.235253,0.281524,0.0274118,0
2024-12-11 21:04:24.834,-0.4669,2.58335,5.9351,0.229755,0.265642,0.0335202,0
2024-12-11 21:04:24.839,-0.524327,2.60967,5.85105,0.223646,0.233878,0.0402396,0
2024-12-11 21:04:24.839,-0.524327,2.60967,5.85105,0.223646,0.233878,0.0402396,0
2024-12-11 21:04:24.841,-0.557827,2.63121,5.83909,0.198602,0.218607,0.0445155,0
2024-12-11 21:04:24.843,-0.608076,2.64556,5.80798,0.188828,0.203947,0.050624,0
2024-12-11 21:04:24.846,-0.667897,2.67906,5.79362,0.178444,0.19173,0.0555107,0
2024-12-11 21:04:24.848,-0.720539,2.71974,5.81994,0.163783,0.181956,0.0616192,0
2024-12-11 21:04:24.853,-0.789931,2.76999,5.87498,0.151566,0.158133,0.0750579,0
2024-12-11 21:04:24.853,-0.789931,2.76999,5.87498,0.151566,0.158133,0.0750579,0
2024-12-11 21:04:24.855,-0.82343,2.79871,5.89442,0.125911,0.147138,0.0842206,0
2024-12-11 21:04:24.858,-0.845265,2.82742,5.94228,0.115526,0.137975,0.0909399,0
2024-12-11 21:04:24.860,-0.871586,2.82981,5.99492,0.100255,0.129423,0.0994917,0
2024-12-11 21:04:24.863,-0.888335,2.82742,6.01645,0.0880384,0.118428,0.106822,0
2024-12-11 21:04:24.865,-0.912264,2.82503,6.05713,0.0727672,0.111709,0.114763,0
2024-12-11 21:04:24.867,-0.94337,2.82263,6.1002,0.0581068,0.108044,0.122093,0
2024-12-11 21:04:24.870,-0.96012,2.82742,6.15524,0.0581068,0.108044,0.122093,0
2024-12-11 21:04:24.872,-0.969691,2.83938,6.22224,0.0324513,0.101935,0.137364,0
2024-12-11 21:04:24.875,-0.991227,2.85613,6.28684,0.00679568,0.100103,0.155079,0
2024-12-11 21:04:24.877,-1.01994,2.88245,6.35384,0.00679568,0.100103,0.155079,0
2024-12-11 21:04:24.880,-1.05583,2.91117,6.42802,-0.00481042,0.100713,0.161187,0
2024-12-11 21:04:24.881,-1.07258,2.92074,6.5025,-0.0194708,0.0988809,0.173404,0
2024-12-11 21:04:24.886,-1.07498,2.93749,6.65324,-0.046348,0.0909399,0.192341,0
2024-12-11 21:04:24.886,-1.07498,2.93749,6.65324,-0.046348,0.0909399,0.192341,0
2024-12-11 21:04:24.891,-1.07019,2.95663,6.82074,-0.0713928,0.0836097,0.212498,0
2024-12-11 21:04:24.891,-1.07019,2.95663,6.82074,-0.0713928,0.0836097,0.212498,0
2024-12-11 21:04:24.894,-1.0678,2.95902,6.91645,-0.104989,0.0750579,0.232046,0
2024-12-11 21:04:24.895,-1.06062,2.9686,7.00499,-0.104989,0.0750579,0.232046,0
2024-12-11 21:04:24.899,-1.06062,2.99492,7.10818,-0.123926,0.0683385,0.253425,0
2024-12-11 21:04:24.900,-1.05823,3.02363,7.21825,-0.123926,0.0683385,0.253425,0
2024-12-11 21:04:24.903,-1.03908,3.05234,7.3331,-0.134921,0.0646735,0.262588,0
2024-12-11 21:04:24.905,-1.02473,3.08106,7.43839,-0.142251,0.0616192,0.273583,0
2024-12-11 21:04:24.909,-0.967299,3.11725,7.65165,-0.156301,0.0603975,0.297406,0
2024-12-11 21:04:24.910,-0.967299,3.11725,7.65165,-0.156301,0.0603975,0.297406,0
2024-12-11 21:04:24.914,-0.888335,3.16271,7.89093,-0.163631,0.0591758,0.313899,0
2024-12-11 21:04:24.915,-0.888335,3.16271,7.89093,-0.163631,0.0591758,0.313899,0
2024-12-11 21:04:24.919,-0.82343,3.18664,8.09671,-0.172183,0.058565,0.32917,0
2024-12-11 21:04:24.920,-0.82343,3.18664,8.09671,-0.174626,0.058565,0.33589,0
2024-12-11 21:04:24.922,-0.809073,3.20578,8.19273,-0.175848,0.0579541,0.34322,0
2024-12-11 21:04:24.925,-0.797109,3.21536,8.28844,-0.175848,0.0567324,0.348107,0
2024-12-11 21:04:24.928,-0.82343,3.28714,8.46551,-0.178902,0.0536782,0.356048,0
2024-12-11 21:04:24.929,-0.82343,3.28714,8.46551,-0.178902,0.0536782,0.356048,0
2024-12-11 21:04:24.931,-0.825823,3.31346,8.55883,-0.178291,0.0536782,0.363989,0
2024-12-11 21:04:24.933,-0.828216,3.35175,8.64258,-0.179513,0.0518457,0.37193,0
2024-12-11 21:04:24.938,-0.818644,3.41635,8.82952,-0.181956,0.0469589,0.390866,0
2024-12-11 21:04:24.938,-0.818644,3.41635,8.82952,-0.181956,0.0469589,0.390866,0
2024-12-11 21:04:24.940,-0.80668,3.44028,8.89891,-0.190508,0.042683,0.401861,0
2024-12-11 21:04:24.943,-0.80668,3.47857,8.98026,-0.19173,0.042683,0.412856,0
2024-12-11 21:04:24.946,-0.813859,3.51207,9.05923,-0.196616,0.0402396,0.439123,0
2024-12-11 21:04:24.948,-0.818644,3.5336,9.14537,-0.200282,0.0445155,0.452561,0
2024-12-11 21:04:24.952,-0.842872,3.60778,9.29642,-0.20639,0.0487914,0.467833,0
2024-12-11 21:04:24.952,-0.842872,3.60778,9.29642,-0.20639,0.0487914,0.467833,0
2024-12-11 21:04:24.954,-0.852443,3.6341,9.37299,-0.207001,0.0542891,0.481271,0
2024-12-11 21:04:24.956,-0.873978,3.67508,9.44238,-0.212498,0.0597867,0.495932,0
2024-12-11 21:04:24.959,-0.893121,3.7014,9.51655,-0.216164,0.0707819,0.511203,0
2024-12-11 21:04:24.962,-0.897907,3.72293,9.58834,-0.22105,0.0933833,0.543578,0
2024-12-11 21:04:24.964,-0.912264,3.74447,9.66252,-0.22105,0.0933833,0.543578,0
2024-12-11 21:04:24.966,-0.929013,3.75404,9.72712,-0.224105,0.104379,0.55946,0
2024-12-11 21:04:24.971,-0.984048,3.80907,9.83749,-0.228991,0.128812,0.58878,0
2024-12-11 21:04:24.972,-0.984048,3.80907,9.83749,-0.233267,0.140419,0.604052,0
2024-12-11 21:04:24.975,-1.05823,3.8354,9.93081,-0.238765,0.150192,0.619934,0
2024-12-11 21:04:24.975,-1.05823,3.8354,9.93081,-0.238765,0.150192,0.619934,0
2024-12-11 21:04:24.978,-1.11805,3.8689,9.97149,-0.243041,0.161187,0.634594,0
2024-12-11 21:04:24.980,-1.18983,3.9,9.99781,-0.246095,0.177069,0.651698,0
