timestamp,accel_x,accel_y,accel_z,gyro_x,gyro_y,gyro_z,step_timestamp
2024-12-11 21:01:05.613,0.419043,2.3342,9.89492,-0.0341311,0.0469589,-0.000687203,0
2024-12-11 21:01:05.613,0.419043,2.3342,9.89492,-0.0341311,0.0469589,-0.000687203,0
2024-12-11 21:01:05.613,0.419043,2.3342,9.89492,-0.0341311,0.0469589,-0.000687203,0
2024-12-11 21:01:05.613,0.419043,2.3342,9.89492,-0.0341311,0.0469589,-0.000687203,0
2024-12-11 21:01:05.613,0.419043,2.3342,9.89492,-0.0341311,0.0469589,-0.000687203,0
2024-12-11 21:01:05.613,0.419043,2.3342,9.89492,-0.0341311,0.0469589,-0.000687203,0
2024-12-11 21:01:05.614,0.419043,2.3342,9.89492,-0.0341311,0.0469589,-0.000687203,0
2024-12-11 21:01:05.614,0.419043,2.3342,9.89492,-0.0341311,0.0469589,-0.000687203,0
2024-12-11 21:01:05.614,0.419043,2.3342,9.89492,-0.0341311,0.0469589,-0.000687203,0
2024-12-11 21:01:05.619,0.447757,2.34616,9.82553,-0.0322986,0.0536782,0.00419957,0
2024-12-11 21:01:05.619,0.447757,2.34616,9.82553,-0.0322986,0.0536782,0.00419957,0
2024-12-11 21:01:05.621,0.440578,2.37488,9.8013,-0.0322986,0.0536782,0.00419957,0
2024-12-11 21:01:05.623,0.447757,2.38445,9.75823,-0.030466,0.0524565,0.00664296,0
2024-12-11 21:01:05.625,0.4669,2.39163,9.72952,-0.0268009,0.0494023,0.00481042,0
2024-12-11 21:01:05.626,0.4669,2.39163,9.72952,-0.0261901,0.0445155,0.00297788,0
2024-12-11 21:01:05.628,0.471685,2.41316,9.71037,-0.0261901,0.0445155,0.00297788,0
2024-12-11 21:01:05.628,0.471685,2.41316,9.71037,-0.0261901,0.0445155,0.00297788,0
2024-12-11 21:01:05.628,0.471685,2.41316,9.71037,-0.0261901,0.0445155,0.00297788,0
2024-12-11 21:01:05.629,0.471685,2.41316,9.71037,-0.0274118,0.0402396,-7.63559e-05,0
2024-12-11 21:01:05.629,0.471685,2.41316,9.71037,-0.0274118,0.0402396,-7.63559e-05,0
2024-12-11 21:01:05.630,0.469292,2.43709,9.68645,-0.0274118,0.0402396,-7.63559e-05,0
2024-12-11 21:01:05.631,0.469292,2.43709,9.68645,-0.0274118,0.0402396,-7.63559e-05,0
2024-12-11 21:01:05.631,0.469292,2.43709,9.68645,-0.0274118,0.0402396,-7.63559e-05,0
2024-12-11 21:01:05.632,0.476471,2.45384,9.6697,-0.0261901,0.0371853,-0.00313059,0
2024-12-11 21:01:05.632,0.476471,2.45384,9.6697,-0.0261901,0.0371853,-0.00313059,0
2024-12-11 21:01:05.632,0.476471,2.45384,9.6697,-0.0261901,0.0371853,-0.00313059,0
2024-12-11 21:01:05.633,0.476471,2.45384,9.6697,-0.0255792,0.0298552,-0.00557398,0
2024-12-11 21:01:05.633,0.476471,2.45384,9.6697,-0.0255792,0.0298552,-0.00557398,0
2024-12-11 21:01:05.635,0.493221,2.4682,9.65055,-0.0255792,0.0298552,-0.00557398,0
2024-12-11 21:01:05.635,0.493221,2.4682,9.65055,-0.0255792,0.0298552,-0.00557398,0
2024-12-11 21:01:05.637,0.524327,2.4658,9.64337,-0.0274118,0.022525,-0.0110716,0
2024-12-11 21:01:05.637,0.524327,2.4658,9.64337,-0.0274118,0.022525,-0.0110716,0
2024-12-11 21:01:05.637,0.524327,2.4658,9.64337,-0.0274118,0.022525,-0.0110716,0
2024-12-11 21:01:05.637,0.524327,2.4658,9.64337,-0.0274118,0.022525,-0.0110716,0
2024-12-11 21:01:05.638,0.524327,2.4658,9.64337,-0.0280226,0.0158057,-0.0165692,0
2024-12-11 21:01:05.639,0.553041,2.45623,9.61945,-0.0280226,0.0158057,-0.0165692,0
2024-12-11 21:01:05.639,0.553041,2.45623,9.61945,-0.0280226,0.0158057,-0.0165692,0
2024-12-11 21:01:05.640,0.553041,2.45623,9.61945,-0.0280226,0.0158057,-0.0165692,0
2024-12-11 21:01:05.642,0.562612,2.47059,9.6003,-0.0286335,0.00908635,-0.0226777,0
2024-12-11 21:01:05.642,0.562612,2.47059,9.6003,-0.0286335,0.00908635,-0.0226777,0
2024-12-11 21:01:05.642,0.562612,2.47059,9.6003,-0.0286335,0.00908635,-0.0226777,0
2024-12-11 21:01:05.642,0.562612,2.47059,9.6003,-0.0286335,0.00908635,-0.0226777,0
2024-12-11 21:01:05.644,0.562612,2.48734,9.60509,-0.0268009,0.00175619,-0.029397,0
2024-12-11 21:01:05.644,0.562612,2.48734,9.60509,-0.0268009,0.00175619,-0.029397,0
2024-12-11 21:01:05.645,0.562612,2.48734,9.60509,-0.0249684,-0.00557398,-0.0361163,0
2024-12-11 21:01:05.646,0.569791,2.48734,9.60987,-0.0249684,-0.00557398,-0.0361163,0
2024-12-11 21:01:05.646,0.569791,2.48734,9.60987,-0.0249684,-0.00557398,-0.0361163,0
2024-12-11 21:01:05.647,0.569791,2.48734,9.60987,-0.0249684,-0.00557398,-0.0361163,0
2024-12-11 21:01:05.649,0.584148,2.48495,9.61945,-0.022525,-0.0153475,-0.0452791,0
2024-12-11 21:01:05.649,0.584148,2.48495,9.61945,-0.022525,-0.0153475,-0.0452791,0
2024-12-11 21:01:05.649,0.584148,2.48495,9.61945,-0.022525,-0.0153475,-0.0452791,0
2024-12-11 21:01:05.651,0.584148,2.48255,9.62184,-0.0219141,-0.0232886,-0.0550526,0
2024-12-11 21:01:05.651,0.584148,2.48255,9.62184,-0.0219141,-0.0232886,-0.0550526,0
2024-12-11 21:01:05.652,0.584148,2.48255,9.62184,-0.0219141,-0.0232886,-0.0550526,0
2024-12-11 21:01:05.653,0.576969,2.48016,9.62902,-0.0182491,-0.0324513,-0.0642153,0
2024-12-11 21:01:05.653,0.576969,2.48016,9.62902,-0.0182491,-0.0324513,-0.0642153,0
2024-12-11 21:01:05.653,0.576969,2.48016,9.62902,-0.0182491,-0.0324513,-0.0642153,0
2024-12-11 21:01:05.656,0.572184,2.47777,9.64337,-0.0188599,-0.041614,-0.0739889,0
2024-12-11 21:01:05.657,0.572184,2.47777,9.64337,-0.0170274,-0.049555,-0.0831516,0
2024-12-11 21:01:05.657,0.572184,2.47777,9.64337,-0.0170274,-0.049555,-0.0831516,0
2024-12-11 21:01:05.658,0.562612,2.47059,9.64816,-0.0170274,-0.049555,-0.0831516,0
2024-12-11 21:01:05.658,0.562612,2.47059,9.64816,-0.0170274,-0.049555,-0.0831516,0
2024-12-11 21:01:05.658,0.562612,2.47059,9.64816,-0.0170274,-0.049555,-0.0831516,0
2024-12-11 21:01:05.661,0.550648,2.46341,9.64816,-0.0139731,-0.0556635,-0.0910926,0
2024-12-11 21:01:05.661,0.550648,2.46341,9.64816,-0.0139731,-0.0556635,-0.0910926,0
2024-12-11 21:01:05.662,0.550648,2.46341,9.64816,-0.0139731,-0.0642153,-0.100866,0
2024-12-11 21:01:05.663,0.541077,2.44905,9.65534,-0.0139731,-0.0642153,-0.100866,0
2024-12-11 21:01:05.664,0.541077,2.44905,9.65534,-0.0096972,-0.0745997,-0.108807,0
2024-12-11 21:01:05.664,0.541077,2.44905,9.65534,-0.0096972,-0.0745997,-0.108807,0
2024-12-11 21:01:05.664,0.541077,2.44905,9.65534,-0.0096972,-0.0745997,-0.108807,0
2024-12-11 21:01:05.665,0.52672,2.44188,9.66491,-0.0096972,-0.0745997,-0.108807,0
2024-12-11 21:01:05.665,0.52672,2.44188,9.66491,-0.0096972,-0.0745997,-0.108807,0
2024-12-11 21:01:05.669,0.517149,2.41795,9.6673,-0.00786466,-0.100255,-0.127743,0
2024-12-11 21:01:05.670,0.52672,2.39163,9.68166,-0.00786466,-0.100255,-0.127743,0
2024-12-11 21:01:05.672,0.519542,2.39163,9.70319,-0.00419957,-0.109418,-0.136295,0
2024-12-11 21:01:05.675,0.514756,2.37488,9.71994,-0.00236703,-0.121024,-0.143015,0
2024-12-11 21:01:05.677,0.512363,2.35095,9.72952,-0.00114534,-0.132019,-0.150345,0
2024-12-11 21:01:05.679,0.502792,2.32463,9.75105,0.00251974,-0.140571,-0.159507,0
2024-12-11 21:01:05.682,0.493221,2.3007,9.77737,0.00374144,-0.150345,-0.166227,0
2024-12-11 21:01:05.684,0.4669,2.29831,9.80848,0.00618483,-0.158286,-0.172946,0
2024-12-11 21:01:05.686,0.438186,2.27916,9.82314,0.00923906,-0.164394,-0.177833,0
2024-12-11 21:01:05.690,0.414257,2.26002,9.83271,0.0129041,-0.172335,-0.184552,0
2024-12-11 21:01:05.691,0.407079,2.24566,9.85424,0.0129041,-0.172335,-0.184552,0
2024-12-11 21:01:05.695,0.411865,2.23131,9.88056,0.0165692,-0.176,-0.184552,0
2024-12-11 21:01:05.699,0.373579,2.20738,9.90928,0.0275645,-0.163783,-0.182109,0
2024-12-11 21:01:05.701,0.361615,2.18106,9.91406,0.0275645,-0.163783,-0.182109,0
2024-12-11 21:01:05.702,0.361615,2.18106,9.91406,0.0324513,-0.152177,-0.179665,0
2024-12-11 21:01:05.704,0.361615,2.17388,9.90449,0.0312296,-0.143625,-0.17539,0
2024-12-11 21:01:05.706,0.352044,2.16909,9.9021,0.0312296,-0.143625,-0.17539,0
2024-12-11 21:01:05.708,0.342473,2.13799,9.90688,0.0355055,-0.133241,-0.172335,0
2024-12-11 21:01:05.710,0.332901,2.11645,9.89492,0.0367272,-0.120413,-0.168059,0
2024-12-11 21:01:05.712,0.311366,2.10927,9.86381,0.0391706,-0.107585,-0.163173,0
2024-12-11 21:01:05.716,0.301795,2.09731,9.83988,0.0410031,-0.0923143,-0.158286,0
2024-12-11 21:01:05.717,0.297009,2.09013,9.81805,0.0410031,-0.0794865,-0.154621,0
2024-12-11 21:01:05.720,0.289831,2.07577,9.79173,0.0410031,-0.0794865,-0.154621,0
2024-12-11 21:01:05.724,0.287438,2.02552,9.70559,0.0379489,-0.0410031,-0.138128,0
2024-12-11 21:01:05.724,0.287438,2.02552,9.70559,0.0379489,-0.0410031,-0.138128,0
2024-12-11 21:01:05.727,0.272782,2.02313,9.66252,0.0385597,-0.0281753,-0.134463,0
2024-12-11 21:01:05.730,0.270389,2.02074,9.61705,0.0355055,-0.0202343,-0.131409,0
2024-12-11 21:01:05.731,0.272782,2.01835,9.59073,0.0306187,-0.0129041,-0.126522,0
2024-12-11 21:01:05.735,0.267996,2.01356,9.56441,0.0238994,-0.00618483,-0.123468,0
2024-12-11 21:01:05.736,0.267996,1.9992,9.5357,0.013515,-0.00313059,-0.119192,0
2024-12-11 21:01:05.739,0.267996,1.99681,9.49981,0.00374144,0.00542127,-0.116137,0
2024-12-11 21:01:05.742,0.270389,2.0016,9.46391,-0.00114534,0.00419957,-0.116748,0
2024-12-11 21:01:05.743,0.277567,1.98963,9.45195,-0.00114534,0.00419957,-0.116748,0
2024-12-11 21:01:05.745,0.277567,1.97528,9.44716,-0.00847551,0.00481042,-0.114916,0
2024-12-11 21:01:05.749,0.27996,1.9681,9.43281,-0.0219141,0.00297788,-0.114916,0
2024-12-11 21:01:05.750,0.299402,1.97049,9.41606,-0.0219141,0.00297788,-0.114916,0
2024-12-11 21:01:05.752,0.304188,1.97049,9.41366,-0.0219141,0.00297788,-0.114916,0
2024-12-11 21:01:05.756,0.299402,1.9681,9.43759,-0.0347419,-0.00374144,-0.116137,0
2024-12-11 21:01:05.757,0.313759,1.98006,9.4352,-0.0377962,-0.00251974,-0.119192,0
2024-12-11 21:01:05.759,0.332901,1.97767,9.41366,-0.0414613,-0.00557398,-0.118581,0
2024-12-11 21:01:05.762,0.335294,1.97528,9.42084,-0.0457372,-0.00740652,-0.118581,0
2024-12-11 21:01:05.764,0.349651,1.98245,9.42802,-0.0518457,-0.00679568,-0.119802,0
2024-12-11 21:01:05.770,0.395115,1.96062,9.45195,-0.0579541,-0.00923906,-0.120413,0
2024-12-11 21:01:05.770,0.395115,1.96062,9.45195,-0.0579541,-0.00923906,-0.120413,0
2024-12-11 21:01:05.771,0.397508,1.96301,9.46391,-0.0579541,-0.00923906,-0.120413,0
2024-12-11 21:01:05.774,0.402293,1.95823,9.49023,-0.0610084,-0.00740652,-0.121024,0
2024-12-11 21:01:05.778,0.440578,1.93908,9.48066,-0.0622301,-0.0165692,-0.123468,0
2024-12-11 21:01:05.779,0.440578,1.93908,9.48066,-0.0622301,-0.0165692,-0.123468,0
2024-12-11 21:01:05.781,0.459721,1.9343,9.50698,-0.0622301,-0.0159584,-0.125911,0
2024-12-11 21:01:05.784,0.469292,1.92951,9.52134,-0.0628409,-0.0165692,-0.127133,0
2024-12-11 21:01:05.788,0.474078,1.92473,9.51177,-0.0634518,-0.0202343,-0.130187,0
2024-12-11 21:01:05.790,0.486042,1.9343,9.5022,-0.0652843,-0.0208452,-0.131409,0
2024-12-11 21:01:05.790,0.486042,1.9343,9.5022,-0.0652843,-0.0208452,-0.131409,0
2024-12-11 21:01:05.793,0.507577,1.94626,9.49741,-0.0622301,-0.0220669,-0.134463,0
2024-12-11 21:01:05.795,0.517149,1.94148,9.49981,-0.0616192,-0.0251211,-0.137517,0
2024-12-11 21:01:05.798,0.521934,1.92951,9.49263,-0.0640626,-0.0324513,-0.142404,0
2024-12-11 21:01:05.801,0.529113,1.91755,9.49023,-0.0658951,-0.037338,-0.145458,0
2024-12-11 21:01:05.802,0.562612,1.91037,9.48306,-0.0658951,-0.037338,-0.145458,0
2024-12-11 21:01:05.805,0.593719,1.90798,9.47348,-0.0658951,-0.041614,-0.147901,0
2024-12-11 21:01:05.807,0.62004,1.90558,9.47109,-0.0671168,-0.0471116,-0.150345,0
2024-12-11 21:01:05.810,0.641576,1.89841,9.47588,-0.0756687,-0.0556635,-0.160118,0
2024-12-11 21:01:05.812,0.651147,1.89123,9.47827,-0.0787229,-0.0568851,-0.164394,0
2024-12-11 21:01:05.814,0.655932,1.88166,9.47588,-0.0787229,-0.0568851,-0.164394,0
2024-12-11 21:01:05.816,0.658325,1.85773,9.46391,-0.0842206,-0.0593285,-0.16867,0
2024-12-11 21:01:05.818,0.660718,1.85294,9.45434,-0.0909399,-0.0581068,-0.172335,0
2024-12-11 21:01:05.822,0.660718,1.86251,9.44716,-0.0933833,-0.0519984,-0.17539,0
2024-12-11 21:01:05.825,0.634397,1.86012,9.39691,-0.0958267,-0.0471116,-0.178444,0
2024-12-11 21:01:05.829,0.612862,1.87448,9.37777,-0.11293,-0.0318404,-0.181498,0
2024-12-11 21:01:05.830,0.60329,1.86969,9.35624,-0.11293,-0.0318404,-0.181498,0
2024-12-11 21:01:05.831,0.60329,1.86969,9.35624,-0.11293,-0.0318404,-0.181498,0
2024-12-11 21:01:05.832,0.581755,1.87448,9.33231,-0.116595,-0.0208452,-0.180887,0
2024-12-11 21:01:05.835,0.557827,1.87926,9.28206,-0.125758,-0.0104608,-0.179665,0
2024-12-11 21:01:05.837,0.545863,1.87926,9.25305,-0.132477,-0.00313059,-0.176,0
2024-12-11 21:01:05.840,0.52672,1.87926,9.2339,-0.137975,0.00908635,-0.173557,0
2024-12-11 21:01:05.842,0.514756,1.87208,9.19801,-0.143473,0.0206925,-0.171114,0
2024-12-11 21:01:05.844,0.507577,1.87926,9.17408,-0.14897,0.0335202,-0.166227,0
2024-12-11 21:01:05.849,0.481256,1.89362,9.09273,-0.165463,0.0548999,-0.155232,0
2024-12-11 21:01:05.849,0.445364,1.89362,9.09273,-0.165463,0.0548999,-0.155232,0
2024-12-11 21:01:05.851,0.423829,1.92233,9.04008,-0.174626,0.0646735,-0.147291,0
2024-12-11 21:01:05.854,0.426222,1.94148,8.98744,-0.186232,0.0738362,-0.140571,0
2024-12-11 21:01:05.858,0.428614,1.9681,8.93001,-0.196616,0.0817772,-0.13263,0
2024-12-11 21:01:05.858,0.428614,1.9681,8.93001,-0.196616,0.0817772,-0.13263,0
2024-12-11 21:01:05.861,0.438186,1.98006,8.89891,-0.214942,0.0909399,-0.119192,0
2024-12-11 21:01:05.863,0.464507,1.9992,8.88216,-0.225326,0.0921616,-0.111251,0
2024-12-11 21:01:05.865,0.481256,2.02313,8.86062,-0.236932,0.0933833,-0.104531,0
2024-12-11 21:01:05.869,0.495613,2.04706,8.84148,-0.260145,0.0939941,-0.0910926,0
2024-12-11 21:01:05.870,0.52672,2.06142,8.82473,-0.260145,0.0939941,-0.0910926,0
2024-12-11 21:01:05.874,0.56022,2.07817,8.81037,-0.282135,0.0976592,-0.0837624,0
2024-12-11 21:01:05.877,0.605683,2.13799,8.79841,-0.291298,0.0964375,-0.0800973,0
2024-12-11 21:01:05.878,0.605683,2.13799,8.79841,-0.302904,0.0939941,-0.077654,0
2024-12-11 21:01:05.880,0.624826,2.17149,8.79123,-0.302904,0.0939941,-0.077654,0
2024-12-11 21:01:05.882,0.655932,2.20259,8.80798,-0.310234,0.0970484,-0.0782648,0
2024-12-11 21:01:05.885,0.696611,2.22652,8.82712,-0.320008,0.0933833,-0.0758214,0
2024-12-11 21:01:05.887,0.718146,2.25284,8.83191,-0.32917,0.0939941,-0.0739889,0
2024-12-11 21:01:05.891,0.773181,2.32223,8.84387,-0.341998,0.0970484,-0.0752106,0
2024-12-11 21:01:05.892,0.773181,2.32223,8.84387,-0.341998,0.0970484,-0.0752106,0
2024-12-11 21:01:05.897,0.775574,2.35573,8.85344,-0.362156,0.108044,-0.0758214,0
2024-12-11 21:01:05.897,0.777966,2.38206,8.86302,-0.362156,0.108044,-0.0758214,0
2024-12-11 21:01:05.898,0.785145,2.42034,8.85823,-0.362156,0.108044,-0.0758214,0
2024-12-11 21:01:05.902,0.780359,2.45384,8.84626,-0.36521,0.11293,-0.0770431,0
2024-12-11 21:01:05.903,0.770788,2.47537,8.84626,-0.373762,0.120871,-0.0764323,0
2024-12-11 21:01:05.906,0.754038,2.51845,8.81755,-0.377427,0.129423,-0.0758214,0
2024-12-11 21:01:05.908,0.71336,2.57139,8.79123,-0.377427,0.129423,-0.0758214,0
2024-12-11 21:01:05.910,0.670289,2.61924,8.76491,-0.389033,0.145305,-0.0715455,0
2024-12-11 21:01:05.913,0.629611,2.66471,8.73859,-0.389033,0.145305,-0.0715455,0
2024-12-11 21:01:05.915,0.584148,2.71017,8.70509,-0.40125,0.156301,-0.0599394,0
2024-12-11 21:01:05.917,0.555434,2.75803,8.67608,-0.40797,0.158133,-0.0507767,0
2024-12-11 21:01:05.920,0.531506,2.80349,8.6689,-0.416521,0.159355,-0.0422248,0
2024-12-11 21:01:05.924,0.505185,2.9016,8.62583,-0.433625,0.152635,-0.021456,0
2024-12-11 21:01:05.925,0.505185,2.9016,8.62583,-0.433625,0.152635,-0.021456,0
2024-12-11 21:01:05.928,0.505185,2.94467,8.61386,-0.452561,0.142251,0.00419957,0
2024-12-11 21:01:05.929,0.519542,2.99252,8.61865,-0.452561,0.142251,0.00419957,0
2024-12-11 21:01:05.932,0.550648,3.03799,8.61865,-0.464778,0.131256,0.0176382,0
2024-12-11 21:01:05.934,0.574577,3.07867,8.61625,-0.473941,0.121482,0.0286335,0
2024-12-11 21:01:05.937,0.596112,3.11246,8.62583,-0.497153,0.0872748,0.0536782,0
2024-12-11 21:01:05.939,0.648754,3.15314,8.63779,-0.497153,0.0872748,0.0536782,0
2024-12-11 21:01:05.941,0.732503,3.19382,8.6689,-0.510592,0.0683385,0.0616192,0
2024-12-11 21:01:05.944,0.821037,3.22493,8.7362,-0.534415,0.0286335,0.0738362,0
2024-12-11 21:01:05.947,0.905085,3.23928,8.80319,-0.546632,-7.63559e-05,0.0762796,0
2024-12-11 21:01:05.948,0.99362,3.24407,8.87498,-0.546632,-7.63559e-05,0.0762796,0
2024-12-11 21:01:05.950,1.07737,3.27757,8.97069,-0.556405,-0.029397,0.0762796,0
2024-12-11 21:01:05.953,1.17069,3.31107,9.0688,-0.566179,-0.0617719,0.0726145,0
2024-12-11 21:01:05.958,1.39801,3.3685,9.27009,-0.591224,-0.153399,0.0445155,0
2024-12-11 21:01:05.958,1.39801,3.3685,9.27009,-0.591224,-0.153399,0.0445155,0
2024-12-11 21:01:05.960,1.51555,3.39721,9.38734,-0.591224,-0.153399,0.0445155,0
2024-12-11 21:01:05.963,1.61366,3.42114,9.51655,-0.600387,-0.208375,0.00847551,0
2024-12-11 21:01:05.965,1.70698,3.44985,9.65295,-0.600387,-0.208375,0.00847551,0
2024-12-11 21:01:05.967,1.78594,3.49053,9.79652,-0.603441,-0.23342,-0.0129041,0
2024-12-11 21:01:05.969,1.86012,3.50967,9.92124,-0.602219,-0.253578,-0.0379489,0
2024-12-11 21:01:05.971,1.92951,3.52164,10.0409,-0.599165,-0.275568,-0.0642153,0
2024-12-11 21:01:05.974,1.98245,3.5336,10.1629,-0.596111,-0.292061,-0.0953685,0
2024-12-11 21:01:05.977,2.02313,3.54796,10.285,-0.582672,-0.317717,-0.157064,0
2024-12-11 21:01:05.980,2.04706,3.55274,10.4145,-0.572287,-0.328712,-0.193104,0
2024-12-11 21:01:05.982,2.05424,3.55514,10.5221,-0.572287,-0.328712,-0.193104,0
2024-12-11 21:01:05.986,2.04706,3.51207,10.716,-0.546021,-0.335431,-0.262741,0
2024-12-11 21:01:05.987,2.04706,3.51207,10.716,-0.546021,-0.335431,-0.262741,0
2024-12-11 21:01:05.988,1.98963,3.49771,10.7853,-0.531361,-0.337264,-0.297559,0
2024-12-11 21:01:05.990,1.92951,3.47378,10.838,-0.51609,-0.332988,-0.332988,0
2024-12-11 21:01:05.993,1.84816,3.44267,10.8811,-0.497153,-0.321993,-0.365974,0
2024-12-11 21:01:05.996,1.74287,3.40678,10.9098,-0.457448,-0.293894,-0.427669,0
2024-12-11 21:01:05.998,1.61605,3.36132,10.9241,-0.457448,-0.293894,-0.427669,0
2024-12-11 21:01:06.000,1.48923,3.31346,10.917,-0.436679,-0.276179,-0.453936,0
2024-12-11 21:01:06.003,1.34776,3.268,10.8763,-0.414689,-0.256632,-0.477759,0
2024-12-11 21:01:06.004,1.19462,3.21057,10.8212,-0.391477,-0.235253,-0.497306,0
2024-12-11 21:01:06.007,1.03669,3.134,10.771,-0.371319,-0.216316,-0.512577,0
2024-12-11 21:01:06.010,0.878764,3.05234,10.7231,-0.330392,-0.176,-0.535179,0
2024-12-11 21:01:06.011,0.732503,2.98295,10.6681,-0.330392,-0.176,-0.535179,0
2024-12-11 21:01:06.015,0.586541,2.93031,10.5796,-0.294352,-0.138128,-0.542509,0
2024-12-11 21:01:06.017,0.426222,2.86092,10.4862,-0.294352,-0.138128,-0.542509,0
2024-12-11 21:01:06.019,0.267996,2.78674,10.4073,-0.281524,-0.122857,-0.540065,0
2024-12-11 21:01:06.024,-0.00239282,2.68385,10.2156,-0.246095,-0.0910926,-0.523572,0
2024-12-11 21:01:06.024,-0.00239282,2.68385,10.2156,-0.246095,-0.0910926,-0.523572,0
2024-12-11 21:01:06.029,-0.251246,2.55942,10.0146,-0.209444,-0.0526092,-0.474094,0
2024-12-11 21:01:06.029,-0.251246,2.55942,10.0146,-0.209444,-0.0526092,-0.474094,0
2024-12-11 21:01:06.031,-0.364008,2.52592,9.92124,-0.209444,-0.0526092,-0.474094,0
2024-12-11 21:01:06.033,-0.474078,2.50887,9.84228,-0.19906,-0.041614,-0.452103,0
2024-12-11 21:01:06.036,-0.562612,2.48016,9.77019,-0.180734,-0.0275645,-0.400792,0
2024-12-11 21:01:06.038,-0.627219,2.45623,9.71277,-0.180734,-0.0275645,-0.400792,0
2024-12-11 21:01:06.040,-0.682254,2.45145,9.65773,-0.173404,-0.0177909,-0.372082,0
2024-12-11 21:01:06.042,-0.718146,2.43948,9.6003,-0.166074,-0.00801737,-0.343983,0
2024-12-11 21:01:06.044,-0.754038,2.42752,9.55963,-0.159355,-0.0019089,-0.315274,0
2024-12-11 21:01:06.048,-0.777966,2.42752,9.52373,-0.150192,0.00419957,-0.286564,0
2024-12-11 21:01:06.052,-0.789931,2.4347,9.45195,-0.136143,0.0243575,-0.228533,0
2024-12-11 21:01:06.052,-0.782752,2.4347,9.45195,-0.136143,0.0243575,-0.228533,0
2024-12-11 21:01:06.054,-0.766002,2.45623,9.43041,-0.128812,0.0365745,-0.201045,0
2024-12-11 21:01:06.056,-0.754038,2.45863,9.41845,-0.123926,0.0500131,-0.17539,0
2024-12-11 21:01:06.059,-0.737288,2.4658,9.39691,-0.111709,0.0646735,-0.151566,0
2024-12-11 21:01:06.062,-0.710967,2.48255,9.3682,-0.0952158,0.0958267,-0.10331,0
2024-12-11 21:01:06.064,-0.675075,2.50409,9.33709,-0.0842206,0.115374,-0.0819299,0
2024-12-11 21:01:06.067,-0.65354,2.52323,9.31077,-0.0842206,0.115374,-0.0819299,0
2024-12-11 21:01:06.068,-0.639183,2.54746,9.29163,-0.0756687,0.133088,-0.0617719,0
2024-12-11 21:01:06.071,-0.624826,2.57139,9.24108,-0.0658951,0.151414,-0.0477224,0
2024-12-11 21:01:06.074,-0.600898,2.60728,9.19083,-0.0475697,0.185621,-0.0171801,0
2024-12-11 21:01:06.075,-0.567398,2.64078,9.14776,-0.0475697,0.185621,-0.0171801,0
2024-12-11 21:01:06.077,-0.553041,2.6671,9.09273,-0.0402396,0.202725,-0.00313059,0
2024-12-11 21:01:06.081,-0.536291,2.68624,9.04248,-0.0243575,0.236932,0.0200816,0
2024-12-11 21:01:06.083,-0.521934,2.71017,8.98505,-0.0182491,0.252204,0.0310769,0
2024-12-11 21:01:06.085,-0.514756,2.7341,8.93001,-0.0182491,0.252204,0.0310769,0
2024-12-11 21:01:06.087,-0.493221,2.74606,8.85823,-0.0115297,0.266864,0.0390179,0
2024-12-11 21:01:06.090,-0.4669,2.75563,8.7697,-0.0109189,0.277248,0.046348,0
2024-12-11 21:01:06.092,-0.462114,2.76042,8.7003,-0.00725381,0.287022,0.0530674,0
2024-12-11 21:01:06.094,-0.457328,2.79392,8.64975,-0.00419957,0.29313,0.0603975,0
2024-12-11 21:01:06.096,-0.452543,2.82981,8.59233,-0.00175619,0.297406,0.0652843,0
2024-12-11 21:01:06.099,-0.457328,2.83938,8.52533,-0.00358873,0.297406,0.0701711,0
2024-12-11 21:01:06.102,-0.442971,2.8346,8.4679,-0.010308,0.293741,0.0799446,0
2024-12-11 21:01:06.103,-0.428614,2.84895,8.42483,-0.010308,0.293741,0.0799446,0
2024-12-11 21:01:06.107,-0.440578,2.88245,8.38894,-0.022525,0.281524,0.0884965,0
2024-12-11 21:01:06.109,-0.442971,2.92552,8.34587,-0.0286335,0.27114,0.0933833,0
2024-12-11 21:01:06.111,-0.435793,2.96142,8.31476,-0.0286335,0.27114,0.0933833,0
2024-12-11 21:01:06.114,-0.438186,2.97817,8.30758,-0.0439046,0.247928,0.0988809,0
2024-12-11 21:01:06.117,-0.3999,3.02842,8.32433,-0.0439046,0.247928,0.0988809,0
2024-12-11 21:01:06.120,-0.387936,3.01884,8.34108,-0.0616192,0.214942,0.104379,0
2024-12-11 21:01:06.121,-0.387936,3.01884,8.34108,-0.0707819,0.194173,0.1056,0
2024-12-11 21:01:06.123,-0.354437,3.03081,8.35783,-0.0707819,0.194173,0.1056,0
2024-12-11 21:01:06.127,-0.27996,3.09571,8.46072,-0.090329,0.151414,0.103768,0
2024-12-11 21:01:06.128,-0.27996,3.09571,8.46072,-0.100103,0.133088,0.102546,0
2024-12-11 21:01:06.130,-0.253639,3.12443,8.52293,-0.109876,0.114763,0.100713,0
2024-12-11 21:01:06.133,-0.217747,3.14118,8.58754,-0.109876,0.114763,0.100713,0
2024-12-11 21:01:06.134,-0.174676,3.14357,8.68325,-0.117206,0.0933833,0.0958267,0
2024-12-11 21:01:06.137,-0.136391,3.16032,8.78166,-0.123926,0.0732253,0.094605,0
2024-12-11 21:01:06.140,-0.102891,3.19382,8.87019,-0.13431,0.0390179,0.0817772,0
2024-12-11 21:01:06.142,-0.0933201,3.22971,8.95873,-0.13431,0.0390179,0.0817772,0
2024-12-11 21:01:06.146,-0.0909273,3.29671,9.16451,-0.142862,0.0151948,0.0720036,0
2024-12-11 21:01:06.148,-0.0789631,3.31585,9.26052,-0.142251,0.00725381,0.0671168,0
2024-12-11 21:01:06.148,-0.0789631,3.31585,9.26052,-0.142251,0.00725381,0.0671168,0
2024-12-11 21:01:06.150,-0.0693919,3.34457,9.35863,-0.142862,-0.00129805,0.0634518,0
2024-12-11 21:01:06.153,-0.0741775,3.37089,9.45913,-0.142862,-0.00129805,0.0634518,0
2024-12-11 21:01:06.156,-0.0717847,3.38525,9.55005,-0.140419,-0.0153475,0.0518457,0
2024-12-11 21:01:06.158,-0.0693919,3.39721,9.64816,-0.139808,-0.0190126,0.0475697,0
2024-12-11 21:01:06.160,-0.0957129,3.42114,9.73909,-0.136753,-0.0226777,0.0457372,0
2024-12-11 21:01:06.162,-0.119641,3.44507,9.82074,-0.136143,-0.0275645,0.0414613,0
2024-12-11 21:01:06.165,-0.131605,3.46182,9.90688,-0.131256,-0.0300079,0.038407,0
2024-12-11 21:01:06.167,-0.129212,3.47617,9.99303,-0.128202,-0.0306187,0.0396287,0
2024-12-11 21:01:06.169,-0.117248,3.47139,10.0887,-0.124536,-0.0330621,0.0396287,0
2024-12-11 21:01:06.172,-0.117248,3.47617,10.1677,-0.124536,-0.0330621,0.0396287,0
2024-12-11 21:01:06.174,-0.133998,3.5001,10.2491,-0.113541,-0.0379489,0.0432938,0
2024-12-11 21:01:06.176,-0.133998,3.52642,10.3448,-0.111098,-0.0379489,0.0469589,0
2024-12-11 21:01:06.179,-0.117248,3.54317,10.4169,-0.106211,-0.0367272,0.050624,0
2024-12-11 21:01:06.181,-0.102891,3.55035,10.4815,-0.103768,-0.0342838,0.0542891,0
2024-12-11 21:01:06.183,-0.102891,3.55753,10.5485,-0.0964375,-0.0324513,0.0597867,0
2024-12-11 21:01:06.188,-0.0646062,3.57906,10.6777,-0.0878856,-0.0251211,0.0713928,0
2024-12-11 21:01:06.189,-0.0646062,3.57906,10.6777,-0.0878856,-0.0251211,0.0713928,0
2024-12-11 21:01:06.191,-0.0646062,3.58385,10.7327,-0.0805555,-0.0220669,0.074447,0
2024-12-11 21:01:06.194,-0.0646062,3.58624,10.7949,-0.0793338,-0.0202343,0.0799446,0
2024-12-11 21:01:06.195,-0.0526421,3.58385,10.8595,-0.0756687,-0.0159584,0.0842206,0
2024-12-11 21:01:06.198,-0.0334995,3.59342,10.9074,-0.074447,-0.0129041,0.0891073,0
2024-12-11 21:01:06.200,-0.0191426,3.60539,10.9508,-0.0671168,-0.00801737,0.094605,0
2024-12-11 21:01:06.202,-0.00239282,3.59581,10.9986,-0.0652843,-0.00313059,0.0988809,0
2024-12-11 21:01:06.205,0.040678,3.58146,11.0441,-0.0616192,-0.00129805,0.102546,0
2024-12-11 21:01:06.209,0.114855,3.55035,11.1613,-0.0542891,0.00419957,0.106822,0
2024-12-11 21:01:06.209,0.114855,3.55035,11.1613,-0.0542891,0.00419957,0.106822,0
2024-12-11 21:01:06.212,0.12682,3.51446,11.2164,-0.0524565,0.00725381,0.107433,0
2024-12-11 21:01:06.214,0.148355,3.47617,11.2594,-0.0475697,0.00847551,0.1056,0
2024-12-11 21:01:06.217,0.16989,3.4666,11.3001,-0.046348,0.00786466,0.102546,0
2024-12-11 21:01:06.219,0.172283,3.46182,11.3504,-0.0469589,0.00725381,0.0994917,0
2024-12-11 21:01:06.222,0.162712,3.44985,11.4126,-0.038407,0.00297788,0.0933833,0
2024-12-11 21:01:06.223,0.145962,3.44985,11.4724,-0.038407,0.00297788,0.0933833,0
2024-12-11 21:01:06.226,0.129212,3.44746,11.5325,-0.0347419,0.00175619,0.0921616,0
2024-12-11 21:01:06.229,0.0957129,3.4331,11.5899,-0.0243575,-7.63559e-05,0.0878856,0
2024-12-11 21:01:06.231,0.0574277,3.43071,11.633,-0.0243575,-7.63559e-05,0.0878856,0
2024-12-11 21:01:06.233,0.0191426,3.4355,11.688,-0.0194708,-0.0019089,0.0872748,0
2024-12-11 21:01:06.235,-0.0239282,3.45224,11.7622,-0.0127514,0.000534491,0.0860531,0
2024-12-11 21:01:06.238,-0.066999,3.45703,11.834,-0.00481042,0.00481042,0.086664,0
2024-12-11 21:01:06.240,-0.117248,3.44028,11.889,0.00496313,0.010308,0.0878856,0
2024-12-11 21:01:06.243,-0.16989,3.42832,11.9273,0.0147367,0.0158057,0.0891073,0
2024-12-11 21:01:06.245,-0.22014,3.4331,11.9584,0.0226777,0.0243575,0.0927724,0
2024-12-11 21:01:06.248,-0.272782,3.43789,11.9871,0.0422248,0.0402396,0.100103,0
2024-12-11 21:01:06.250,-0.311366,3.43071,12.0254,0.0422248,0.0402396,0.100103,0
2024-12-11 21:01:06.253,-0.35683,3.42353,12.0422,0.0599394,0.0555107,0.1056,0
2024-12-11 21:01:06.254,-0.419043,3.42592,12.0565,0.0599394,0.0555107,0.1056,0
2024-12-11 21:01:06.256,-0.4669,3.4331,12.0637,0.0684913,0.0640626,0.111709,0
2024-12-11 21:01:06.259,-0.500399,3.42114,12.0589,0.0721563,0.0701711,0.114763,0
2024-12-11 21:01:06.262,-0.52672,3.39482,12.0565,0.0862058,0.0970484,0.120871,0
2024-12-11 21:01:06.265,-0.536291,3.38764,12.0446,0.0862058,0.0970484,0.120871,0
2024-12-11 21:01:06.269,-0.584148,3.39482,12.023,0.085595,0.126369,0.132477,0
2024-12-11 21:01:06.271,-0.605683,3.38764,11.9991,0.085595,0.126369,0.132477,0
2024-12-11 21:01:06.272,-0.605683,3.38764,11.9991,0.0807082,0.141029,0.136753,0
2024-12-11 21:01:06.273,-0.617647,3.37089,11.9848,0.0807082,0.141029,0.136753,0
2024-12-11 21:01:06.276,-0.624826,3.36132,11.98,0.0764323,0.14897,0.139808,0
2024-12-11 21:01:06.278,-0.632004,3.35175,11.9632,0.0666587,0.156301,0.14164,0
2024-12-11 21:01:06.280,-0.63679,3.34457,11.9441,0.0581068,0.167296,0.145305,0
2024-12-11 21:01:06.282,-0.65354,3.34935,11.9393,0.0446682,0.175237,0.151414,0
2024-12-11 21:01:06.285,-0.660718,3.35175,11.9441,0.0312296,0.18501,0.153246,0
2024-12-11 21:01:06.287,-0.660718,3.34218,11.9345,0.0122933,0.194173,0.159355,0
2024-12-11 21:01:06.290,-0.667897,3.33739,11.9297,-0.00847551,0.207612,0.165463,0
2024-12-11 21:01:06.292,-0.660718,3.34935,11.9393,-0.030466,0.217385,0.173404,0
2024-12-11 21:01:06.294,-0.646361,3.3661,11.9632,-0.0536782,0.229602,0.182567,0
2024-12-11 21:01:06.297,-0.643968,3.37328,11.9871,-0.0781121,0.245484,0.194784,0
2024-12-11 21:01:06.299,-0.634397,3.38764,12.0278,-0.1056,0.260145,0.205779,0
2024-12-11 21:01:06.301,-0.605683,3.41396,12.076,-0.133699,0.275416,0.218607,0
2024-12-11 21:01:06.304,-0.567398,3.42353,12.1119,-0.161187,0.292519,0.232656,0
2024-12-11 21:01:06.307,-0.514756,3.41875,12.1669,-0.22105,0.325505,0.263199,0
2024-12-11 21:01:06.308,-0.4669,3.43071,12.2459,-0.22105,0.325505,0.263199,0
2024-12-11 21:01:06.312,-0.41665,3.4355,12.3272,-0.277248,0.360324,0.292519,0
2024-12-11 21:01:06.314,-0.349651,3.43071,12.4253,-0.304126,0.379871,0.305347,0
2024-12-11 21:01:06.315,-0.272782,3.42353,12.5187,-0.304126,0.379871,0.305347,0
2024-12-11 21:01:06.318,-0.196211,3.40917,12.6239,-0.327338,0.396974,0.320008,0
2024-12-11 21:01:06.320,-0.124427,3.39242,12.7367,-0.348717,0.412246,0.330392,0
2024-12-11 21:01:06.322,-0.0526421,3.39003,12.8468,-0.368265,0.429349,0.339555,0
2024-12-11 21:01:06.326,0.00717847,3.39482,12.9664,-0.399418,0.455616,0.359102,0
2024-12-11 21:01:06.327,0.0574277,3.38764,13.0813,-0.399418,0.455616,0.359102,0
2024-12-11 21:01:06.330,0.117248,3.3661,13.2156,-0.409802,0.466611,0.362767,0
2024-12-11 21:01:06.335,0.236889,3.35653,13.474,-0.419576,0.48738,0.371319,0
2024-12-11 21:01:06.337,0.272782,3.35414,13.5864,-0.419576,0.494099,0.37254,0
2024-12-11 21:01:06.338,0.272782,3.35414,13.5864,-0.419576,0.494099,0.37254,0
2024-12-11 21:01:06.339,0.308973,3.33978,13.6941,-0.418354,0.500818,0.374984,0
2024-12-11 21:01:06.341,0.342473,3.33739,13.8069,-0.40858,0.510592,0.376206,0
2024-12-11 21:01:06.344,0.364008,3.335,13.9098,-0.398196,0.517922,0.376206,0
2024-12-11 21:01:06.347,0.380758,3.3326,14.0079,-0.364599,0.539913,0.377427,0
2024-12-11 21:01:06.349,0.395115,3.31346,14.094,-0.364599,0.539913,0.377427,0
2024-12-11 21:01:06.351,0.390329,3.28953,14.1562,-0.346274,0.55213,0.378038,0
2024-12-11 21:01:06.354,0.373579,3.26321,14.1826,-0.29313,0.583283,0.380481,1
2024-12-11 21:01:06.358,0.371187,3.22971,14.2185,-0.269918,0.603441,0.384757,0
2024-12-11 21:01:06.358,0.371187,3.22971,14.2185,-0.269918,0.603441,0.384757,0
2024-12-11 21:01:06.360,0.354437,3.23689,14.2017,-0.238154,0.621155,0.389033,0
2024-12-11 21:01:06.362,0.320937,3.22014,14.1538,-0.210055,0.637037,0.39392,0
2024-12-11 21:01:06.367,0.337687,3.17228,14.0055,-0.180734,0.649254,0.400639,0
2024-12-11 21:01:06.370,0.373579,3.11486,13.917,-0.120261,0.66025,0.414078,0
2024-12-11 21:01:06.371,0.373579,3.11486,13.917,-0.120261,0.66025,0.414078,0
2024-12-11 21:01:06.372,0.421436,3.05713,13.8212,-0.120261,0.66025,0.414078,0
2024-12-11 21:01:06.375,0.486042,2.97338,13.7133,-0.0695602,0.638259,0.420187,0
2024-12-11 21:01:06.377,0.574577,2.88245,13.6176,-0.0457372,0.616269,0.420187,0
2024-12-11 21:01:06.381,0.789931,2.69581,13.4309,-0.0109189,0.541745,0.404915,0
2024-12-11 21:01:06.382,0.682254,2.79871,13.4309,-0.0109189,0.541745,0.404915,0
2024-12-11 21:01:06.384,0.890728,2.60728,13.3424,0.00435229,0.497153,0.390255,0
2024-12-11 21:01:06.387,0.996012,2.54028,13.2682,0.0275645,0.390866,0.35055,0
2024-12-11 21:01:06.388,1.10848,2.45863,13.206,0.0275645,0.390866,0.35055,0
2024-12-11 21:01:06.391,1.1994,2.37727,13.153,0.0397814,0.334668,0.323673,0
2024-12-11 21:01:06.395,1.36211,2.26481,13.0932,0.0593285,0.210666,0.264421,0
2024-12-11 21:01:06.395,1.36211,2.26481,13.0932,0.0593285,0.210666,0.264421,0
2024-12-11 21:01:06.401,1.57298,2.04945,13.0669,0.077654,0.0842206,0.196006,0
2024-12-11 21:01:06.401,1.57298,2.04945,13.0669,0.077654,0.0842206,0.196006,0
2024-12-11 21:01:06.403,1.66869,1.93669,13.0717,0.077654,0.0842206,0.196006,0
2024-12-11 21:01:06.406,1.74766,1.82184,13.0884,0.113083,-0.10392,0.0726145,0
2024-12-11 21:01:06.407,1.82901,1.71177,13.1028,0.113083,-0.10392,0.0726145,0
2024-12-11 21:01:06.410,1.90558,1.59452,13.0932,0.127743,-0.160118,0.0286335,0
2024-12-11 21:01:06.412,1.98485,1.44616,13.1004,0.127743,-0.160118,0.0286335,0
2024-12-11 21:01:06.415,2.07099,1.29033,13.1195,0.174779,-0.298781,-0.10331,0
2024-12-11 21:01:06.418,2.14277,1.1324,13.1195,0.174779,-0.298781,-0.10331,0
2024-12-11 21:01:06.419,2.19063,0.955334,13.11,0.191272,-0.335431,-0.14668,0
2024-12-11 21:01:06.424,2.28873,0.627219,13.1148,0.227922,-0.397738,-0.228533,0
2024-12-11 21:01:06.424,2.28873,0.627219,13.1148,0.227922,-0.397738,-0.228533,0
2024-12-11 21:01:06.426,2.31984,0.447757,13.1291,0.246248,-0.427669,-0.271293,0
2024-12-11 21:01:06.428,2.34616,0.275175,13.1435,0.267017,-0.452103,-0.309165,0
2024-12-11 21:01:06.433,2.32702,-0.0191426,13.1339,0.306722,-0.483867,-0.380634,0
2024-12-11 21:01:06.434,2.32702,-0.0191426,13.1339,0.328712,-0.495473,-0.410566,0
2024-12-11 21:01:06.436,2.25763,-0.141177,13.1387,0.328712,-0.495473,-0.410566,0
2024-12-11 21:01:06.438,2.16431,-0.239282,13.1195,0.353757,-0.496695,-0.436221,0
2024-12-11 21:01:06.441,2.04467,-0.325723,13.086,0.403846,-0.485089,-0.47165,0
2024-12-11 21:01:06.443,1.9008,-0.397508,13.0621,0.403846,-0.485089,-0.47165,0
2024-12-11 21:01:06.446,1.75244,-0.474078,13.0143,0.466153,-0.444773,-0.482646,0
2024-12-11 21:01:06.447,1.58973,-0.536291,12.9353,0.466153,-0.444773,-0.482646,0
2024-12-11 21:01:06.450,1.43898,-0.576969,12.8755,0.493641,-0.414842,-0.477148,0
2024-12-11 21:01:06.453,1.29751,-0.627219,12.8037,0.560223,-0.330545,-0.44966,0
2024-12-11 21:01:06.457,1.05105,-0.727717,12.5498,0.560223,-0.330545,-0.44966,0
2024-12-11 21:01:06.459,0.929013,-0.789931,12.4182,0.631692,-0.219981,-0.400792,0
2024-12-11 21:01:06.460,0.929013,-0.789931,12.4182,0.668954,-0.155232,-0.370861,0
2024-12-11 21:01:06.461,0.809073,-0.85005,12.2722,0.668954,-0.155232,-0.370861,0
2024-12-11 21:01:06.464,0.691825,-0.897907,12.0951,0.705605,-0.0874275,-0.339707,0
2024-12-11 21:01:06.466,0.584148,-0.938585,11.8843,0.741034,-0.0147367,-0.301224,0
2024-12-11 21:01:06.468,0.4669,-0.962513,11.6593,0.777074,0.0610084,-0.262741,0
2024-12-11 21:01:06.472,0.34008,-0.967299,11.4269,0.844878,0.216164,-0.180276,0
2024-12-11 21:01:06.473,0.224925,-0.950549,11.1685,0.844878,0.216164,-0.180276,0
2024-12-11 21:01:06.476,0.129212,-0.94337,10.8954,0.878475,0.294352,-0.134463,0
2024-12-11 21:01:06.478,0.0526421,-0.938585,10.6202,0.907795,0.367043,-0.0904818,0
2024-12-11 21:01:06.480,-0.0143569,-0.917049,10.3496,0.936505,0.436069,-0.0471116,0
2024-12-11 21:01:06.485,-0.129212,-0.907478,9.74148,0.991481,0.560071,0.0402396,0
2024-12-11 21:01:06.486,-0.129212,-0.907478,9.74148,1.01408,0.611382,0.0842206,0
2024-12-11 21:01:06.488,-0.138784,-0.924228,9.40888,1.01408,0.611382,0.0842206,0
2024-12-11 21:01:06.490,-0.119641,-0.938585,9.10469,1.03363,0.656584,0.120871,0
2024-12-11 21:01:06.492,-0.0981057,-0.948156,8.81277,1.03363,0.656584,0.120871,0
2024-12-11 21:01:06.497,-0.026321,-0.969691,8.28365,1.07211,0.744546,0.218607,0
2024-12-11 21:01:06.498,-0.026321,-0.969691,8.28365,1.08128,0.756763,0.24243,0
2024-12-11 21:01:06.499,0.0143569,-0.969691,8.00339,1.08128,0.756763,0.24243,0
2024-12-11 21:01:06.502,0.0382852,-0.979263,7.72104,1.08128,0.756763,0.24243,0
2024-12-11 21:01:06.504,0.0622134,-0.99362,7.45275,1.09105,0.763483,0.284578,0
2024-12-11 21:01:06.507,0.0885344,-1.00319,7.19671,1.08616,0.744546,0.312677,0
2024-12-11 21:01:06.509,0.119641,-0.998405,6.95952,1.08616,0.744546,0.312677,0
2024-12-11 21:01:06.513,0.165105,-0.962513,6.57428,1.07272,0.701787,0.329781,0
2024-12-11 21:01:06.514,0.165105,-0.962513,6.57428,1.07272,0.701787,0.329781,0
2024-12-11 21:01:06.518,0.20339,-0.885943,6.20788,1.05012,0.641924,0.33589,0
2024-12-11 21:01:06.519,0.20339,-0.885943,6.20788,1.03913,0.608328,0.334668,0
2024-12-11 21:01:06.520,0.224925,-0.818644,6.06192,1.03913,0.608328,0.334668,0
2024-12-11 21:01:06.523,0.239282,-0.775574,5.93749,1.02386,0.572287,0.332225,0
2024-12-11 21:01:06.527,0.256032,-0.701396,5.7338,0.992092,0.487991,0.318786,0
2024-12-11 21:01:06.527,0.256032,-0.701396,5.7338,0.992092,0.487991,0.318786,0
2024-12-11 21:01:06.531,0.251246,-0.651147,5.66441,0.973156,0.44401,0.308401,0
2024-12-11 21:01:06.532,0.227318,-0.588933,5.6022,0.949944,0.393309,0.298628,0
2024-12-11 21:01:06.534,0.193819,-0.524327,5.54477,0.928564,0.346274,0.283968,0
2024-12-11 21:01:06.537,0.189033,-0.483649,5.48255,0.908406,0.295574,0.270529,0
2024-12-11 21:01:06.541,0.191426,-0.431007,5.35574,0.860149,0.197838,0.237543,0
2024-12-11 21:01:06.541,0.191426,-0.431007,5.35574,0.860149,0.197838,0.237543,0
2024-12-11 21:01:06.544,0.18664,-0.361615,5.30997,0.83205,0.150192,0.221661,0
2024-12-11 21:01:06.546,0.179462,-0.30658,5.27408,0.807616,0.1056,0.202725,0
2024-12-11 21:01:06.549,0.155533,-0.260818,5.2334,0.807616,0.1056,0.202725,0
2024-12-11 21:01:06.551,0.12682,-0.222533,5.19272,0.745921,0.0176382,0.162409,0
2024-12-11 21:01:06.553,0.107677,-0.196211,5.1664,0.714157,-0.0251211,0.14164,0
2024-12-11 21:01:06.557,0.0933201,-0.162712,5.14726,0.637801,-0.105142,0.103157,0
2024-12-11 21:01:06.558,0.0765703,-0.124427,5.14726,0.637801,-0.105142,0.103157,0
2024-12-11 21:01:06.561,0.0430708,-0.0765703,5.14487,0.563888,-0.179665,0.0603975,0
2024-12-11 21:01:06.566,-0.00239282,0.0119641,5.08983,0.484478,-0.240139,0.0243575,0
2024-12-11 21:01:06.566,-0.0287139,0.0119641,5.08983,0.484478,-0.240139,0.0243575,0
2024-12-11 21:01:06.567,-0.0334995,0.0478565,5.14008,0.484478,-0.240139,0.0243575,0
2024-12-11 21:01:06.570,-0.040678,0.0765703,5.17837,0.443551,-0.268238,0.00664296,0
2024-12-11 21:01:06.572,-0.0622134,0.105284,5.21426,0.394684,-0.301835,-0.0122933,0
2024-12-11 21:01:06.574,-0.066999,0.124427,5.26451,0.350703,-0.33421,-0.0318404,0
2024-12-11 21:01:06.580,-0.0382852,0.150748,5.37727,0.259076,-0.391629,-0.0678804,0
2024-12-11 21:01:06.580,-0.0382852,0.150748,5.37727,0.259076,-0.391629,-0.0678804,0
2024-12-11 21:01:06.583,-0.0167498,0.148355,5.4682,0.171114,-0.442941,-0.106364,0
2024-12-11 21:01:06.584,0.0215354,0.155533,5.5663,0.171114,-0.442941,-0.106364,0
2024-12-11 21:01:06.589,0.0861416,0.174676,5.76252,0.0788757,-0.484478,-0.144236,0
2024-12-11 21:01:06.589,0.0861416,0.174676,5.76252,0.0788757,-0.484478,-0.144236,0
2024-12-11 21:01:06.591,0.124427,0.174676,5.87258,0.0318404,-0.499139,-0.164394,0
2024-12-11 21:01:06.594,0.157926,0.148355,6.0021,-0.0096972,-0.50769,-0.186385,0
2024-12-11 21:01:06.598,0.167498,0.150748,6.23659,-0.0939941,-0.520518,-0.224868,0
2024-12-11 21:01:06.600,0.131605,0.16989,6.36341,-0.135532,-0.519907,-0.241972,0
2024-12-11 21:01:06.600,0.131605,0.16989,6.36341,-0.135532,-0.519907,-0.241972,0
2024-12-11 21:01:06.604,0.0981057,0.181855,6.48335,-0.216164,-0.512577,-0.273125,0
2024-12-11 21:01:06.607,0.0311067,0.224925,6.74656,-0.252814,-0.503415,-0.287785,0
2024-12-11 21:01:06.607,0.0311067,0.224925,6.74656,-0.252814,-0.503415,-0.287785,0
2024-12-11 21:01:06.613,-0.0981057,0.297009,7.02682,-0.320618,-0.480202,-0.307333,0
2024-12-11 21:01:06.613,-0.0981057,0.297009,7.02682,-0.320618,-0.480202,-0.307333,0
2024-12-11 21:01:06.614,-0.167498,0.332901,7.17039,-0.320618,-0.480202,-0.307333,0
2024-12-11 21:01:06.617,-0.212961,0.359223,7.32114,-0.385368,-0.444162,-0.318328,0
2024-12-11 21:01:06.622,-0.294616,0.378365,7.57239,-0.442177,-0.39896,-0.324436,0
2024-12-11 21:01:06.624,-0.335294,0.392722,7.71865,-0.462335,-0.371471,-0.32688,0
2024-12-11 21:01:06.625,-0.335294,0.392722,7.71865,-0.489823,-0.344594,-0.326269,0
2024-12-11 21:01:06.627,-0.371187,0.414257,7.85743,-0.489823,-0.344594,-0.326269,0
2024-12-11 21:01:06.629,-0.402293,0.423829,8.001,-0.506927,-0.314052,-0.325658,0
2024-12-11 21:01:06.631,-0.45015,0.435793,8.15683,-0.520366,-0.282899,-0.323825,0
2024-12-11 21:01:06.636,-0.52672,0.469292,8.38415,-0.539302,-0.222425,-0.318328,0
2024-12-11 21:01:06.638,-0.553041,0.471685,8.50619,-0.560071,-0.195547,-0.315884,0
2024-12-11 21:01:06.640,-0.593719,0.486042,8.63061,-0.569233,-0.166227,-0.313441,0
2024-12-11 21:01:06.640,-0.593719,0.486042,8.63061,-0.569233,-0.166227,-0.313441,0
2024-12-11 21:01:06.644,-0.660718,0.495613,8.72184,-0.583283,-0.112472,-0.301835,0
2024-12-11 21:01:06.645,-0.715753,0.498006,8.8008,-0.583283,-0.112472,-0.301835,0
2024-12-11 21:01:06.648,-0.76361,0.524327,8.88694,-0.585115,-0.0904818,-0.29817,0
2024-12-11 21:01:06.651,-0.816252,0.550648,8.95873,-0.58878,-0.0458899,-0.284731,0
2024-12-11 21:01:06.653,-0.869193,0.567398,9.01137,-0.585115,-0.0245102,-0.275568,0
2024-12-11 21:01:06.655,-0.917049,0.598505,9.08076,-0.585115,-0.0245102,-0.275568,0
2024-12-11 21:01:06.658,-0.957727,0.617647,9.14297,-0.578396,0.0115297,-0.256632,0
2024-12-11 21:01:06.659,-1.01276,0.632004,9.18126,-0.578396,0.0115297,-0.256632,0
2024-12-11 21:01:06.662,-1.08455,0.660718,9.20997,-0.57412,0.0261901,-0.24808,0
2024-12-11 21:01:06.664,-1.13719,0.696611,9.24347,-0.569844,0.0420721,-0.235863,0
2024-12-11 21:01:06.666,-1.1683,0.715753,9.28206,-0.562514,0.0555107,-0.224868,0
2024-12-11 21:01:06.669,-1.1994,0.722932,9.3012,-0.554573,0.0701711,-0.212651,0
2024-12-11 21:01:06.671,-1.21854,0.742074,9.31556,-0.547854,0.0817772,-0.200434,0
2024-12-11 21:01:06.674,-1.23769,0.756431,9.32992,-0.540523,0.0927724,-0.186385,0
2024-12-11 21:01:06.677,-1.25204,0.761217,9.33949,-0.524031,0.111098,-0.158286,0
2024-12-11 21:01:06.679,-1.25683,0.76361,9.34188,-0.512424,0.120261,-0.145458,0
2024-12-11 21:01:06.680,-1.2664,0.773181,9.34427,-0.512424,0.120261,-0.145458,0
2024-12-11 21:01:06.684,-1.28554,0.794716,9.33709,-0.50204,0.123315,-0.132019,0
2024-12-11 21:01:06.686,-1.30947,0.830609,9.31795,-0.482493,0.128202,-0.10392,0
2024-12-11 21:01:06.689,-1.32622,0.869193,9.30838,-0.471498,0.12698,-0.0862058,0
2024-12-11 21:01:06.690,-1.34297,0.885943,9.29163,-0.471498,0.12698,-0.0862058,0
2024-12-11 21:01:06.692,-1.34297,0.919442,9.27009,-0.459281,0.124536,-0.0691021,0
2024-12-11 21:01:06.695,-1.34776,0.96012,9.25783,-0.447675,0.122704,-0.0526092,0
2024-12-11 21:01:06.698,-1.35972,0.991227,9.23869,-0.422019,0.109265,-0.0165692,0
2024-12-11 21:01:06.700,-1.35972,1.01994,9.21237,-0.422019,0.109265,-0.0165692,0
2024-12-11 21:01:06.702,-1.34058,1.04387,9.21237,-0.410413,0.101935,0.00236703,0
2024-12-11 21:01:06.705,-1.31665,1.08933,9.20758,-0.384147,0.0781121,0.0396287,0
2024-12-11 21:01:06.706,-1.29033,1.13958,9.2004,-0.384147,0.0781121,0.0396287,0
2024-12-11 21:01:06.710,-1.24726,1.1659,9.20997,-0.353604,0.050624,0.0750579,0
2024-12-11 21:01:06.712,-1.18744,1.2018,9.20997,-0.33589,0.0365745,0.090329,0
2024-12-11 21:01:06.714,-1.13001,1.24487,9.19801,-0.33589,0.0365745,0.090329,0
2024-12-11 21:01:06.716,-1.07019,1.28554,9.18844,-0.318175,0.0255792,0.104989,0
2024-12-11 21:01:06.719,-0.996012,1.34776,9.17887,-0.283968,0.00419957,0.131867,0
2024-12-11 21:01:06.720,-0.929013,1.38604,9.1669,-0.283968,0.00419957,0.131867,0
2024-12-11 21:01:06.723,-0.876371,1.42223,9.15494,-0.26381,-0.00129805,0.144694,0
2024-12-11 21:01:06.725,-0.821037,1.47966,9.12862,-0.248538,-0.0104608,0.152025,0
2024-12-11 21:01:06.728,-0.756431,1.53948,9.09751,-0.231435,-0.0190126,0.161187,0
2024-12-11 21:01:06.730,-0.696611,1.59452,9.07598,-0.210666,-0.0251211,0.168517,0
2024-12-11 21:01:06.732,-0.651147,1.63759,9.04008,-0.210666,-0.0251211,0.168517,0
2024-12-11 21:01:06.736,-0.608076,1.69262,9.00419,-0.177069,-0.033673,0.181956,0
2024-12-11 21:01:06.737,-0.562612,1.74766,8.9683,-0.161187,-0.0367272,0.186843,0
2024-12-11 21:01:06.740,-0.521934,1.78834,8.89891,-0.145916,-0.0379489,0.188065,0
2024-12-11 21:01:06.742,-0.483649,1.84816,8.82234,-0.133699,-0.0361163,0.188675,0
2024-12-11 21:01:06.744,-0.4334,1.91276,8.74098,-0.120871,-0.0324513,0.189897,0
2024-12-11 21:01:06.746,-0.378365,1.94148,8.6689,-0.11232,-0.0312296,0.190508,0
2024-12-11 21:01:06.749,-0.335294,1.95823,8.60429,-0.102546,-0.0275645,0.188065,0
2024-12-11 21:01:06.751,-0.282652,1.98963,8.52054,-0.0976592,-0.0245102,0.181956,0
2024-12-11 21:01:06.754,-0.234497,2.03031,8.43201,-0.0958267,-0.0202343,0.176459,0
2024-12-11 21:01:06.758,-0.167498,2.10688,8.3028,-0.0939941,-0.013515,0.164852,0
2024-12-11 21:01:06.759,-0.167498,2.10688,8.3028,-0.0939941,-0.013515,0.164852,0
2024-12-11 21:01:06.761,-0.138784,2.15952,8.25255,-0.0952158,-0.00801737,0.154468,0
2024-12-11 21:01:06.763,-0.11007,2.2002,8.19751,-0.101324,-0.00313059,0.145305,0
2024-12-11 21:01:06.768,-0.0837488,2.26959,8.13769,-0.111098,0.00419957,0.123926,0
2024-12-11 21:01:06.770,-0.0693919,2.3007,8.14487,-0.120261,0.00847551,0.114763,0
2024-12-11 21:01:06.771,-0.0837488,2.26959,8.14487,-0.127591,0.0151948,0.104379,0
2024-12-11 21:01:06.773,-0.0693919,2.35334,8.15205,-0.127591,0.0151948,0.104379,0
2024-12-11 21:01:06.778,-0.0693919,2.42273,8.18315,-0.144084,0.0347419,0.0732253,0
2024-12-11 21:01:06.780,-0.0550349,2.45863,8.21665,-0.144084,0.0347419,0.0732253,0
2024-12-11 21:01:06.780,-0.0550349,2.45863,8.21665,-0.144084,0.0347419,0.0732253,0
2024-12-11 21:01:06.782,-0.0550349,2.48255,8.24537,-0.14897,0.0377962,0.0622301,0
2024-12-11 21:01:06.785,-0.0502493,2.49212,8.29322,-0.155079,0.0500131,0.0396287,0
2024-12-11 21:01:06.786,-0.0454636,2.52592,8.34347,-0.155079,0.0500131,0.0396287,0
2024-12-11 21:01:06.791,-0.0526421,2.5666,8.43679,-0.159966,0.0628409,0.0151948,0
2024-12-11 21:01:06.791,-0.0526421,2.5666,8.43679,-0.159966,0.0628409,0.0151948,0
2024-12-11 21:01:06.794,-0.0646062,2.59532,8.49661,-0.159966,0.0689494,0.00419957,0
2024-12-11 21:01:06.797,-0.112463,2.61924,8.54208,-0.157522,0.074447,-0.0165692,0
2024-12-11 21:01:06.798,-0.174676,2.64078,8.6019,-0.157522,0.074447,-0.0165692,0
2024-12-11 21:01:06.801,-0.212961,2.66231,8.6665,-0.152635,0.0756687,-0.0263428,0
2024-12-11 21:01:06.804,-0.260818,2.67667,8.7362,-0.14836,0.074447,-0.0342838,0
2024-12-11 21:01:06.805,-0.301795,2.69581,8.8008,-0.143473,0.0701711,-0.0434465,0
2024-12-11 21:01:06.809,-0.316152,2.71256,8.85823,-0.131867,0.0530674,-0.0611611,0
2024-12-11 21:01:06.811,-0.342473,2.71496,8.92762,-0.123926,0.0445155,-0.0703238,0
2024-12-11 21:01:06.812,-0.366401,2.71974,8.99701,-0.123926,0.0445155,-0.0703238,0
2024-12-11 21:01:06.815,-0.359223,2.71735,9.03769,-0.115374,0.0329094,-0.0794865,0
2024-12-11 21:01:06.818,-0.349651,2.69342,9.07598,-0.100713,0.0109189,-0.0990336,0
2024-12-11 21:01:06.820,-0.352044,2.6671,9.14776,-0.100713,0.0109189,-0.0990336,0
2024-12-11 21:01:06.823,-0.349651,2.64317,9.20758,-0.0884965,-0.0129041,-0.122246,0
2024-12-11 21:01:06.825,-0.344866,2.63599,9.27009,-0.0884965,-0.0129041,-0.122246,0
2024-12-11 21:01:06.829,-0.361615,2.63839,9.42563,-0.0707819,-0.0440574,-0.145458,0
2024-12-11 21:01:06.830,-0.361615,2.63839,9.42563,-0.0628409,-0.0636045,-0.157064,0
2024-12-11 21:01:06.831,-0.352044,2.64317,9.53091,-0.0628409,-0.0636045,-0.157064,0
2024-12-11 21:01:06.834,-0.325723,2.63121,9.61227,-0.0555107,-0.0831516,-0.169281,0
2024-12-11 21:01:06.836,-0.308973,2.61446,9.69841,-0.0487914,-0.10392,-0.180887,0
2024-12-11 21:01:06.838,-0.292223,2.61207,9.79891,-0.0390179,-0.125911,-0.193715,0
2024-12-11 21:01:06.841,-0.263211,2.6001,9.89253,-0.0310769,-0.145458,-0.208986,0
2024-12-11 21:01:06.843,-0.241675,2.57139,9.9667,-0.0237467,-0.165005,-0.226701,0
2024-12-11 21:01:06.846,-0.232104,2.56182,10.0409,-0.0170274,-0.183331,-0.240139,0
2024-12-11 21:01:06.848,-0.234497,2.5666,10.1366,-0.010308,-0.203488,-0.256632,0
2024-12-11 21:01:06.853,-0.241675,2.57378,10.3161,7.63559e-05,-0.236474,-0.286564,0
2024-12-11 21:01:06.853,-0.236889,2.58096,10.3161,7.63559e-05,-0.236474,-0.286564,0
2024-12-11 21:01:06.858,-0.232104,2.58335,10.4767,0.00313059,-0.274347,-0.330545,0
2024-12-11 21:01:06.858,-0.232104,2.58335,10.4767,0.00313059,-0.274347,-0.330545,0
2024-12-11 21:01:06.859,-0.232104,2.5666,10.5724,0.00313059,-0.274347,-0.330545,0
2024-12-11 21:01:06.863,-0.236889,2.55464,10.6681,-0.00175619,-0.290229,-0.359255,0
2024-12-11 21:01:06.864,-0.253639,2.5666,10.7806,-0.00175619,-0.290229,-0.359255,0
2024-12-11 21:01:06.869,-0.287438,2.54507,10.9866,-0.00114534,-0.294505,-0.376358,0
2024-12-11 21:01:06.870,-0.287438,2.54507,10.9866,-0.0109189,-0.290229,-0.401403,0
2024-12-11 21:01:06.871,-0.347258,2.53071,11.0848,-0.0109189,-0.290229,-0.401403,0
2024-12-11 21:01:06.875,-0.411865,2.51366,11.1733,-0.0158057,-0.283509,-0.411787,0
2024-12-11 21:01:06.876,-0.483649,2.51127,11.2762,-0.0213033,-0.271903,-0.422783,0
2024-12-11 21:01:06.878,-0.557827,2.49691,11.4006,-0.0274118,-0.262741,-0.428891,0
2024-12-11 21:01:06.881,-0.622433,2.49212,11.5062,-0.0347419,-0.252356,-0.433778,0
2024-12-11 21:01:06.884,-0.696611,2.50887,11.6091,-0.0445155,-0.242583,-0.437443,0
2024-12-11 21:01:06.888,-0.85005,2.48016,11.8005,-0.0542891,-0.223036,-0.438054,0
2024-12-11 21:01:06.890,-0.876371,2.48734,11.8795,-0.0542891,-0.223036,-0.438054,0
2024-12-11 21:01:06.891,-0.85005,2.48734,11.8795,-0.0775012,-0.209597,-0.434389,0
2024-12-11 21:01:06.892,-0.881157,2.45623,11.9632,-0.0775012,-0.209597,-0.434389,0
2024-12-11 21:01:06.895,-0.881157,2.3988,12.035,-0.090329,-0.200434,-0.430113,0
2024-12-11 21:01:06.897,-0.869193,2.34616,12.0927,-0.104379,-0.199823,-0.424615,0
2024-12-11 21:01:06.900,-0.837787,2.29352,12.1358,-0.119039,-0.196769,-0.421561,0
2024-12-11 21:01:06.902,-0.799502,2.22891,12.1621,-0.137975,-0.193104,-0.420339,0
2024-12-11 21:01:06.905,-0.756431,2.16192,12.2052,-0.161798,-0.193715,-0.416674,0
2024-12-11 21:01:06.907,-0.706182,2.09252,12.2674,-0.188065,-0.193715,-0.411787,0
2024-12-11 21:01:06.909,-0.665504,2.0351,12.3272,-0.223494,-0.194326,-0.409955,0
2024-12-11 21:01:06.911,-0.627219,1.99202,12.4086,-0.251593,-0.194326,-0.404457,0
2024-12-11 21:01:06.914,-0.586541,1.94387,12.4899,-0.288244,-0.193715,-0.402014,0
2024-12-11 21:01:06.917,-0.541077,1.90319,12.5833,-0.288244,-0.193715,-0.402014,0
2024-12-11 21:01:06.918,-0.459721,1.8673,12.7032,-0.35788,-0.194937,-0.394073,0
2024-12-11 21:01:06.921,-0.368794,1.85055,12.83,-0.396974,-0.191272,-0.391629,0
2024-12-11 21:01:06.923,-0.27996,1.84337,12.9855,-0.433625,-0.188217,-0.389797,0
2024-12-11 21:01:06.926,-0.196211,1.82184,13.1554,-0.469665,-0.180276,-0.387964,0
2024-12-11 21:01:06.929,-0.102891,1.80748,13.328,-0.530139,-0.154621,-0.393462,0
2024-12-11 21:01:06.930,-0.0167498,1.80509,13.5147,-0.530139,-0.154621,-0.393462,0
2024-12-11 21:01:06.933,0.0382852,1.80509,13.7133,-0.558849,-0.135074,-0.395295,0
2024-12-11 21:01:06.935,0.0861416,1.80987,13.9193,-0.58145,-0.112472,-0.400181,0
2024-12-11 21:01:06.937,0.100499,1.83619,14.1275,-0.600997,-0.0825407,-0.404457,0
2024-12-11 21:01:06.942,0.0215354,1.93908,14.5011,-0.622377,-0.00862822,-0.411177,0
2024-12-11 21:01:06.942,0.0215354,1.93908,14.5011,-0.622377,-0.00862822,-0.411177,0
2024-12-11 21:01:06.947,-0.100499,2.0662,14.7763,-0.629707,0.0964375,-0.408733,0
2024-12-11 21:01:06.947,-0.100499,2.0662,14.7763,-0.629707,0.0964375,-0.408733,0
2024-12-11 21:01:06.949,-0.150748,2.12363,14.8624,-0.627875,0.153857,-0.404457,0
2024-12-11 21:01:06.954,-0.232104,2.19302,14.9273,-0.613825,0.272972,-0.395295,0
2024-12-11 21:01:06.955,-0.232104,2.19302,14.9273,-0.605884,0.323673,-0.387964,0
2024-12-11 21:01:06.956,-0.234497,2.17866,14.9393,-0.605884,0.323673,-0.387964,0
2024-12-11 21:01:06.959,-0.191426,2.14277,14.9393,-0.599776,0.36521,-0.384299,0
2024-12-11 21:01:06.962,-0.165105,2.0997,14.8819,-0.594278,0.395753,-0.384299,0
2024-12-11 21:01:06.970,-0.114855,2.02074,14.4748,-0.590002,0.429349,-0.400181,0
2024-12-11 21:01:06.973,-0.107677,2.03031,14.3982,-0.596111,0.411024,-0.409344,0
2024-12-11 21:01:06.973,-0.107677,2.03031,14.3982,-0.596111,0.411024,-0.409344,0
2024-12-11 21:01:06.973,-0.107677,2.03031,14.3982,-0.596111,0.411024,-0.409344,0
2024-12-11 21:01:06.974,-0.107677,2.03031,14.3982,-0.599776,0.389033,-0.419728,0
2024-12-11 21:01:06.976,-0.0957129,2.05902,14.3384,-0.599776,0.389033,-0.419728,0
2024-12-11 21:01:06.977,-0.0574277,2.0686,14.3022,-0.604052,0.356048,-0.430724,0
2024-12-11 21:01:06.980,-0.0119641,2.07577,14.2831,-0.611382,0.318786,-0.445384,0
2024-12-11 21:01:06.983,0.0382852,2.08535,14.3046,-0.621155,0.236932,-0.478981,0
2024-12-11 21:01:06.984,0.0933201,2.07577,14.3623,-0.621155,0.236932,-0.478981,0
2024-12-11 21:01:06.987,0.153141,2.0686,14.4365,-0.620544,0.194784,-0.500971,0
2024-12-11 21:01:06.990,0.22014,2.06142,14.5274,-0.616879,0.156911,-0.527238,0
2024-12-11 21:01:06.991,0.277567,2.03988,14.6375,-0.616879,0.156911,-0.527238,0
2024-12-11 21:01:06.994,0.325723,2.00638,14.7595,-0.594278,0.0915507,-0.584657,0
2024-12-11 21:01:06.996,0.361615,1.96301,14.8843,-0.571677,0.0658951,-0.616421,0
2024-12-11 21:01:06.999,0.354437,1.93669,15.0015,-0.543578,0.042683,-0.646353,0
2024-12-11 21:01:07.003,0.265603,1.84816,15.2025,-0.472109,0.0158057,-0.707437,0
2024-12-11 21:01:07.004,0.265603,1.84816,15.2025,-0.426906,0.00664296,-0.736147,0
2024-12-11 21:01:07.008,0.145962,1.70937,15.3461,-0.376206,0.00236703,-0.761803,1
2024-12-11 21:01:07.008,0.145962,1.70937,15.3461,-0.376206,0.00236703,-0.761803,1
2024-12-11 21:01:07.010,0.081356,1.61845,15.3724,-0.320008,0.00419957,-0.784404,0
2024-12-11 21:01:07.013,0.026321,1.51555,15.3461,-0.261366,0.00847551,-0.80334,0
2024-12-11 21:01:07.017,-0.0933201,1.2999,15.169,-0.138586,0.0286335,-0.830218,0
2024-12-11 21:01:07.017,-0.0933201,1.2999,15.169,-0.138586,0.0286335,-0.830218,0
2024-12-11 21:01:07.021,-0.193819,1.18265,15.0398,-0.074447,0.042683,-0.834494,0
2024-12-11 21:01:07.022,-0.297009,1.07019,14.8962,-0.00725381,0.058565,-0.839991,0
2024-12-11 21:01:07.024,-0.387936,0.964906,14.7332,0.0568851,0.0793338,-0.841213,0
2024-12-11 21:01:07.028,-0.490828,0.857229,14.5466,0.184552,0.125758,-0.824109,0
2024-12-11 21:01:07.029,-0.596112,0.744467,14.3336,0.184552,0.125758,-0.824109,0
2024-12-11 21:01:07.034,-0.782752,0.579362,13.8739,0.313441,0.178902,-0.793567,0
2024-12-11 21:01:07.035,-0.782752,0.579362,13.8739,0.374526,0.20639,-0.772798,0
2024-12-11 21:01:07.036,-0.878764,0.507577,13.6223,0.374526,0.20639,-0.772798,0
2024-12-11 21:01:07.041,-1.05344,0.3999,13.1172,0.491198,0.263199,-0.711713,0
2024-12-11 21:01:07.041,-1.05344,0.3999,13.1172,0.491198,0.263199,-0.711713,0
2024-12-11 21:01:07.046,-1.19222,0.289831,12.5402,0.596874,0.315121,-0.640855,0
2024-12-11 21:01:07.047,-1.19222,0.289831,12.5402,0.596874,0.315121,-0.640855,0
2024-12-11 21:01:07.050,-1.25444,0.184247,11.9489,0.689112,0.361545,-0.560834,0
2024-12-11 21:01:07.050,-1.25444,0.184247,11.9489,0.689112,0.361545,-0.560834,0
2024-12-11 21:01:07.054,-1.27119,0.112463,11.6498,0.724541,0.382314,-0.518686,0
2024-12-11 21:01:07.055,-1.26879,0.0717847,11.3527,0.75997,0.400029,-0.475316,0
2024-12-11 21:01:07.057,-1.24487,0.040678,11.0632,0.789291,0.414078,-0.435,0
2024-12-11 21:01:07.060,-1.19701,-0.00957129,10.7686,0.813725,0.425684,-0.395905,0
2024-12-11 21:01:07.062,-1.1683,-0.0502493,10.4815,0.833883,0.434847,-0.357422,0
2024-12-11 21:01:07.065,-1.1324,-0.0574277,10.2108,0.844267,0.439123,-0.318939,0
2024-12-11 21:01:07.068,-1.07019,-0.0598206,9.9691,0.857706,0.437901,-0.248691,0
2024-12-11 21:01:07.070,-1.00798,-0.081356,9.76302,0.857706,0.437901,-0.248691,0
2024-12-11 21:01:07.072,-0.938585,-0.102891,9.5692,0.860149,0.428738,-0.21876,0
2024-12-11 21:01:07.074,-0.873978,-0.0981057,9.39691,0.854041,0.417132,-0.189439,0
2024-12-11 21:01:07.076,-0.797109,-0.0789631,9.23869,0.848543,0.405526,-0.165616,0
2024-12-11 21:01:07.079,-0.706182,-0.0717847,9.09512,0.840602,0.391477,-0.141182,0
2024-12-11 21:01:07.081,-0.617647,-0.0622134,8.97787,0.840602,0.391477,-0.141182,0
2024-12-11 21:01:07.084,-0.529113,-0.0454636,8.89412,0.818001,0.357269,-0.102699,0
2024-12-11 21:01:07.086,-0.440578,-0.0454636,8.81516,0.818001,0.357269,-0.102699,0
2024-12-11 21:01:07.089,-0.335294,-0.0550349,8.74337,0.777074,0.295574,-0.0666587,0
2024-12-11 21:01:07.090,-0.239282,-0.0454636,8.68804,0.777074,0.295574,-0.0666587,0
2024-12-11 21:01:07.094,-0.165105,-0.0430708,8.65215,0.760581,0.269918,-0.0599394,0
2024-12-11 21:01:07.095,-0.0861416,-0.0502493,8.61865,0.760581,0.269918,-0.0599394,0
2024-12-11 21:01:07.098,-0.00239282,-0.0526421,8.58515,0.745921,0.221661,-0.0532201,0
2024-12-11 21:01:07.101,0.0837488,-0.0598206,8.57318,0.711713,0.192951,-0.0519984,0
2024-12-11 21:01:07.102,0.148355,-0.0622134,8.57318,0.697053,0.161187,-0.0526092,0
2024-12-11 21:01:07.107,0.304188,-0.0837488,8.61386,0.664067,0.0964375,-0.0568851,0
2024-12-11 21:01:07.109,0.371187,-0.107677,8.65454,0.650018,0.0610084,-0.0629936,0
2024-12-11 21:01:07.109,0.371187,-0.107677,8.65454,0.650018,0.0610084,-0.0629936,0
2024-12-11 21:01:07.112,0.426222,-0.131605,8.69283,0.635968,0.0255792,-0.0678804,0
2024-12-11 21:01:07.114,0.476471,-0.162712,8.76252,0.623751,-0.0110716,-0.0697129,0
2024-12-11 21:01:07.121,0.622433,-0.217747,8.93959,0.599928,-0.119192,-0.0825407,0
2024-12-11 21:01:07.121,0.672682,-0.256032,9.03291,0.599928,-0.119192,-0.0825407,0
2024-12-11 21:01:07.123,0.71336,-0.265603,9.11426,0.597485,-0.149123,-0.0868167,0
2024-12-11 21:01:07.126,0.768395,-0.297009,9.17408,0.595652,-0.180276,-0.0910926,0
2024-12-11 21:01:07.126,0.768395,-0.297009,9.17408,0.595652,-0.180276,-0.0910926,0
2024-12-11 21:01:07.129,0.835394,-0.344866,9.23151,0.595042,-0.236474,-0.10392,0
2024-12-11 21:01:07.130,0.893121,-0.368794,9.3012,0.595042,-0.236474,-0.10392,0
2024-12-11 21:01:07.135,0.99362,-0.426222,9.37059,0.596874,-0.283509,-0.116137,0
2024-12-11 21:01:07.135,0.99362,-0.426222,9.37059,0.596874,-0.283509,-0.116137,0
2024-12-11 21:01:07.138,1.05823,-0.452543,9.39452,0.595652,-0.306111,-0.123468,0
2024-12-11 21:01:07.140,1.10848,-0.464507,9.41366,0.597485,-0.324436,-0.128354,0
2024-12-11 21:01:07.142,1.14437,-0.469292,9.42563,0.597485,-0.324436,-0.128354,0
2024-12-11 21:01:07.145,1.15394,-0.476471,9.44716,0.596874,-0.347648,-0.14668,0
2024-12-11 21:01:07.147,1.14676,-0.469292,9.46152,0.598707,-0.351924,-0.15401,0
2024-12-11 21:01:07.149,1.13958,-0.438186,9.45673,0.597485,-0.347648,-0.159507,0
2024-12-11 21:01:07.154,1.0319,-0.383151,9.44716,0.597485,-0.328101,-0.171114,0
2024-12-11 21:01:07.154,1.0319,-0.383151,9.44716,0.597485,-0.328101,-0.171114,0
2024-12-11 21:01:07.156,0.967299,-0.371187,9.41366,0.595042,-0.31283,-0.174779,0
2024-12-11 21:01:07.159,0.888335,-0.352044,9.38495,0.593209,-0.295726,-0.176,0
2024-12-11 21:01:07.163,0.687039,-0.267996,9.34427,0.591987,-0.245637,-0.172335,0
2024-12-11 21:01:07.164,0.687039,-0.267996,9.34427,0.591987,-0.245637,-0.172335,0
2024-12-11 21:01:07.166,0.562612,-0.232104,9.32752,0.591987,-0.245637,-0.172335,0
2024-12-11 21:01:07.169,0.447757,-0.191426,9.28445,0.590766,-0.158286,-0.152177,0
2024-12-11 21:01:07.170,0.347258,-0.148355,9.22433,0.590766,-0.158286,-0.152177,0
2024-12-11 21:01:07.173,0.234497,-0.124427,9.15733,0.594431,-0.124689,-0.138739,0
2024-12-11 21:01:07.178,0.040678,-0.117248,8.98983,0.597485,-0.0562743,-0.111251,0
2024-12-11 21:01:07.178,0.040678,-0.117248,8.98983,0.597485,-0.0562743,-0.111251,0
2024-12-11 21:01:07.182,-0.136391,-0.0502493,8.79602,0.60115,0.0109189,-0.0678804,0
2024-12-11 21:01:07.183,-0.136391,-0.0502493,8.79602,0.60115,0.0109189,-0.0678804,0
2024-12-11 21:01:07.185,-0.210568,-0.00957129,8.67368,0.603593,0.042683,-0.0458899,0
2024-12-11 21:01:07.187,-0.277567,0.026321,8.55643,0.604204,0.0750579,-0.0232886,0
2024-12-11 21:01:07.189,-0.335294,0.0526421,8.42962,0.604204,0.104989,0.00114534,0
2024-12-11 21:01:07.193,-0.380758,0.081356,8.29562,0.603593,0.130034,0.0261901,0
2024-12-11 21:01:07.194,-0.419043,0.124427,8.1664,0.604815,0.156301,0.0518457,0
2024-12-11 21:01:07.197,-0.4334,0.181855,8.03929,0.602983,0.197838,0.102546,0
2024-12-11 21:01:07.199,-0.438186,0.244068,7.93879,0.602983,0.197838,0.102546,0
2024-12-11 21:01:07.201,-0.445364,0.294616,7.84547,0.596874,0.212498,0.12698,0
2024-12-11 21:01:07.206,-0.431007,0.34008,7.63968,0.59382,0.243041,0.173404,0
2024-12-11 21:01:07.207,-0.404686,0.392722,7.63968,0.59382,0.243041,0.173404,0
2024-12-11 21:01:07.209,-0.380758,0.445364,7.55085,0.585879,0.265031,0.210666,0
2024-12-11 21:01:07.211,-0.344866,0.486042,7.45753,0.585879,0.265031,0.210666,0
2024-12-11 21:01:07.213,-0.294616,0.531506,7.36182,0.582214,0.274805,0.229602,0
2024-12-11 21:01:07.215,-0.227318,0.584148,7.27807,0.580381,0.283357,0.243041,0
2024-12-11 21:01:07.221,-0.117248,0.694218,7.13689,0.573662,0.298628,0.265642,0
2024-12-11 21:01:07.221,-0.117248,0.694218,7.13689,0.573662,0.298628,0.265642,0
2024-12-11 21:01:07.225,0.00478565,0.804287,6.99781,0.566332,0.303515,0.279692,0
2024-12-11 21:01:07.226,0.00478565,0.804287,6.99781,0.566332,0.303515,0.279692,0
2024-12-11 21:01:07.227,0.0550349,0.84018,6.92602,0.566332,0.303515,0.279692,0
2024-12-11 21:01:07.229,0.100499,0.873978,6.84945,0.557169,0.305347,0.284578,0
2024-12-11 21:01:07.232,0.150748,0.926621,6.78246,0.552282,0.303515,0.282746,0
2024-12-11 21:01:07.234,0.20339,0.97687,6.72264,0.547396,0.304126,0.277248,0
2024-12-11 21:01:07.236,0.239282,1.01994,6.65803,0.54312,0.29985,0.274194,0
2024-12-11 21:01:07.240,0.275175,1.07498,6.61017,0.538844,0.30046,0.268696,0
2024-12-11 21:01:07.241,0.299402,1.12522,6.57667,0.534568,0.299239,0.261366,0
2024-12-11 21:01:07.243,0.311366,1.1659,6.53121,0.530292,0.296185,0.252204,0
2024-12-11 21:01:07.246,0.332901,1.21376,6.48335,0.526016,0.290687,0.243041,0
2024-12-11 21:01:07.249,0.349651,1.26401,6.44955,0.523572,0.2858,0.22105,0
2024-12-11 21:01:07.250,0.344866,1.31186,6.41605,0.523572,0.2858,0.22105,0
2024-12-11 21:01:07.253,0.347258,1.34776,6.3993,0.518686,0.280303,0.210666,0
2024-12-11 21:01:07.255,0.354437,1.37647,6.37059,0.518075,0.274805,0.197227,0
2024-12-11 21:01:07.258,0.361615,1.40279,6.32991,0.519297,0.266864,0.18501,0
2024-12-11 21:01:07.260,0.35683,1.42223,6.29163,0.517464,0.259534,0.170961,0
2024-12-11 21:01:07.263,0.344866,1.43659,6.24377,0.518075,0.250371,0.156301,0
2024-12-11 21:01:07.265,0.342473,1.44138,6.19831,0.519297,0.240597,0.141029,0
2024-12-11 21:01:07.267,0.344866,1.45573,6.15284,0.515021,0.229602,0.126369,0
2024-12-11 21:01:07.269,0.342473,1.47488,6.10977,0.511966,0.216774,0.111709,0
2024-12-11 21:01:07.272,0.316152,1.48205,6.0667,0.510134,0.201503,0.0976592,0
2024-12-11 21:01:07.276,0.246461,1.5012,5.9686,0.50036,0.169739,0.0701711,0
2024-12-11 21:01:07.277,0.246461,1.5012,5.9686,0.50036,0.169739,0.0701711,0
2024-12-11 21:01:07.280,0.212961,1.52991,5.94706,0.494863,0.153246,0.0561216,0
2024-12-11 21:01:07.281,0.189033,1.5682,5.92074,0.488754,0.136143,0.0439046,0
2024-12-11 21:01:07.284,0.155533,1.57777,5.89203,0.481424,0.121482,0.0316877,0
2024-12-11 21:01:07.287,0.131605,1.60887,5.9016,0.464931,0.0939941,0.00786466,0
2024-12-11 21:01:07.289,0.102891,1.64716,5.92074,0.464931,0.0939941,0.00786466,0
2024-12-11 21:01:07.291,0.0646062,1.67348,5.91835,0.464931,0.0939941,0.00786466,0
2024-12-11 21:01:07.295,-0.0598206,1.80748,5.87498,0.44233,0.0799446,-0.0190126,0
2024-12-11 21:01:07.296,-0.0598206,1.80748,5.87498,0.44233,0.0799446,-0.0190126,0
2024-12-11 21:01:07.298,-0.136391,1.86251,5.87258,0.433778,0.0817772,-0.0245102,0
2024-12-11 21:01:07.303,-0.258425,1.97049,5.81276,0.415452,0.0836097,-0.0397814,0
2024-12-11 21:01:07.305,-0.311366,2.00877,5.77687,0.415452,0.0836097,-0.0397814,0
2024-12-11 21:01:07.307,-0.344866,2.04467,5.75773,0.387354,0.0817772,-0.0446682,0
2024-12-11 21:01:07.308,-0.344866,2.04467,5.75773,0.387354,0.0817772,-0.0446682,0
2024-12-11 21:01:07.309,-0.383151,2.0662,5.73141,0.371471,0.0805555,-0.0501658,0
2024-12-11 21:01:07.312,-0.423829,2.08535,5.70748,0.355589,0.0768904,-0.0550526,0
2024-12-11 21:01:07.315,-0.447757,2.11167,5.68834,0.332988,0.0750579,-0.0593285,0
2024-12-11 21:01:07.316,-0.462114,2.14038,5.67637,0.311608,0.0689494,-0.065437,0
2024-12-11 21:01:07.319,-0.471685,2.16909,5.68116,0.289618,0.0652843,-0.0709346,0
2024-12-11 21:01:07.321,-0.481256,2.21216,5.7003,0.263352,0.0622301,-0.0764323,0
2024-12-11 21:01:07.324,-0.478864,2.25045,5.72184,0.237696,0.0542891,-0.081319,0
2024-12-11 21:01:07.326,-0.464507,2.29113,5.74577,0.210208,0.0475697,-0.0892601,0
2024-12-11 21:01:07.328,-0.464507,2.3342,5.79841,0.210208,0.0475697,-0.0892601,0
2024-12-11 21:01:07.331,-0.462114,2.37009,5.85344,0.144847,0.0268009,-0.104531,0
2024-12-11 21:01:07.335,-0.464507,2.45145,5.98535,0.144847,0.0268009,-0.104531,0
2024-12-11 21:01:07.338,-0.488435,2.49691,6.07867,0.0452791,-0.00496313,-0.133852,0
2024-12-11 21:01:07.338,-0.488435,2.49691,6.07867,0.0452791,-0.00496313,-0.133852,0
2024-12-11 21:01:07.340,-0.498006,2.54507,6.18634,0.00923906,-0.0177909,-0.146069,0
2024-12-11 21:01:07.342,-0.493221,2.61207,6.29163,-0.0274118,-0.029397,-0.158286,0
2024-12-11 21:01:07.345,-0.502792,2.67667,6.42563,-0.0652843,-0.041614,-0.170503,0
2024-12-11 21:01:07.347,-0.541077,2.73888,6.57907,-0.103157,-0.0556635,-0.180276,0
2024-12-11 21:01:07.349,-0.550648,2.80588,6.74896,-0.136753,-0.0636045,-0.194937,0
2024-12-11 21:01:07.352,-0.553041,2.86092,6.92124,-0.167907,-0.073378,-0.207764,0
2024-12-11 21:01:07.355,-0.572184,2.92074,7.09382,-0.236322,-0.0837624,-0.227922,0
2024-12-11 21:01:07.357,-0.581755,2.98295,7.29243,-0.236322,-0.0837624,-0.227922,0
2024-12-11 21:01:07.360,-0.586541,3.04038,7.48864,-0.291909,-0.0843733,-0.250524,0
2024-12-11 21:01:07.362,-0.596112,3.1005,7.69233,-0.31451,-0.081319,-0.260297,0
2024-12-11 21:01:07.364,-0.605683,3.16511,7.88615,-0.31451,-0.081319,-0.260297,0
2024-12-11 21:01:07.368,-0.612862,3.268,8.27408,-0.35788,-0.0678804,-0.281677,0
2024-12-11 21:01:07.369,-0.612862,3.268,8.27408,-0.35788,-0.0678804,-0.281677,0
2024-12-11 21:01:07.371,-0.660718,3.31585,8.43919,-0.377427,-0.0587177,-0.290229,0
2024-12-11 21:01:07.374,-0.708575,3.34218,8.60908,-0.411635,-0.037338,-0.308554,0
2024-12-11 21:01:07.376,-0.758824,3.37328,8.7673,-0.429349,-0.0275645,-0.317717,0
2024-12-11 21:01:07.379,-0.804287,3.40678,8.89412,-0.441566,-0.0159584,-0.321993,0
2024-12-11 21:01:07.380,-0.852443,3.42832,9.01855,-0.441566,-0.0159584,-0.321993,0
2024-12-11 21:01:07.382,-0.909871,3.44985,9.14776,-0.454394,-0.00862822,-0.329323,0
2024-12-11 21:01:07.385,-0.957727,3.46421,9.2677,-0.469665,-0.00740652,-0.333599,0
2024-12-11 21:01:07.387,-0.998405,3.47857,9.3682,-0.483104,-0.00679568,-0.337264,0
2024-12-11 21:01:07.390,-1.05823,3.49532,9.47588,-0.497764,-0.00740652,-0.337875,0
2024-12-11 21:01:07.392,-1.10369,3.49532,9.59073,-0.513035,-0.0159584,-0.339097,0
2024-12-11 21:01:07.394,-1.13719,3.50249,9.70559,-0.532582,-0.0263428,-0.339707,0
2024-12-11 21:01:07.397,-1.18744,3.51924,9.8351,-0.54541,-0.0410031,-0.339097,0
2024-12-11 21:01:07.399,-1.22333,3.52642,9.97388,-0.563736,-0.0568851,-0.336042,0
2024-12-11 21:01:07.401,-1.23529,3.51924,10.1222,-0.582061,-0.0697129,-0.335431,0
2024-12-11 21:01:07.404,-1.24487,3.49532,10.2586,-0.5955,-0.0868167,-0.332377,0
2024-12-11 21:01:07.406,-1.25444,3.4666,10.3881,-0.615658,-0.100866,-0.328712,0
2024-12-11 21:01:07.408,-1.24008,3.42353,10.5174,-0.632761,-0.116748,-0.324436,0
2024-12-11 21:01:07.411,-1.19222,3.35653,10.6514,-0.651087,-0.131409,-0.320771,0
2024-12-11 21:01:07.413,-1.13719,3.29671,10.7949,-0.671856,-0.148512,-0.317106,0
2024-12-11 21:01:07.415,-1.08933,3.23928,10.9313,-0.691403,-0.166838,-0.31283,0
2024-12-11 21:01:07.419,-1.0343,3.13879,11.0704,-0.738438,-0.207764,-0.304889,0
2024-12-11 21:01:07.421,-0.967299,3.06909,11.2283,-0.765315,-0.227312,-0.303667,0
2024-12-11 21:01:07.423,-0.905085,3.01167,11.3767,-0.765315,-0.227312,-0.303667,0
2024-12-11 21:01:07.425,-0.830609,2.92313,11.5277,-0.791582,-0.24808,-0.302446,0
2024-12-11 21:01:07.428,-0.739681,2.8322,11.7024,-0.821513,-0.271293,-0.300613,0
2024-12-11 21:01:07.429,-0.660718,2.76999,11.8866,-0.852056,-0.292061,-0.301835,0
2024-12-11 21:01:07.432,-0.581755,2.71974,12.0688,-0.881376,-0.310387,-0.302446,0
2024-12-11 21:01:07.434,-0.498006,2.65514,12.2746,-0.909475,-0.325047,-0.3055,0
2024-12-11 21:01:07.438,-0.442971,2.60728,12.5091,-0.971171,-0.351924,-0.309776,0
2024-12-11 21:01:07.440,-0.407079,2.55464,12.7582,-0.995605,-0.355589,-0.311608,0
2024-12-11 21:01:07.441,-0.373579,2.50409,13.0119,-0.995605,-0.355589,-0.311608,0
2024-12-11 21:01:07.444,-0.375972,2.47537,13.2945,-1.02126,-0.3562,-0.310998,0
2024-12-11 21:01:07.446,-0.392722,2.44905,13.6152,-1.04394,-0.350092,-0.311608,0
2024-12-11 21:01:07.449,-0.428614,2.44666,13.9361,-1.06165,-0.335431,-0.307943,0
2024-12-11 21:01:07.451,-0.486042,2.45623,14.2639,-1.07265,-0.317106,-0.304278,0
2024-12-11 21:01:07.453,-0.548256,2.45384,14.6016,-1.07815,-0.289007,-0.295116,0
2024-12-11 21:01:07.456,-0.612862,2.45384,14.9154,-1.07631,-0.251135,-0.282899,0
2024-12-11 21:01:07.458,-0.667897,2.45384,15.2025,-1.06471,-0.20471,-0.268238,0
2024-12-11 21:01:07.460,-0.73011,2.44905,15.4828,-1.04821,-0.154621,-0.250524,0
2024-12-11 21:01:07.462,-0.787538,2.43709,15.7436,-1.02126,-0.0941468,-0.228533,0
2024-12-11 21:01:07.465,-0.857229,2.42034,15.9661,-0.990107,-0.0251211,-0.205932,0
2024-12-11 21:01:07.467,-0.933799,2.40838,16.1387,-0.951624,0.0487914,-0.177222,0
2024-12-11 21:01:07.470,-1.0319,2.4012,16.2535,-0.908253,0.128812,-0.144236,0
2024-12-11 21:01:07.472,-1.13719,2.38923,16.311,-0.859386,0.216774,-0.111251,0
2024-12-11 21:01:07.475,-1.22812,2.39641,16.2966,-0.756153,0.406137,-0.029397,0
2024-12-11 21:01:07.477,-1.31426,2.41316,16.1937,-0.756153,0.406137,-0.029397,0
2024-12-11 21:01:07.479,-1.39561,2.42752,15.9999,-0.701787,0.503873,0.0151948,0
2024-12-11 21:01:07.482,-1.48205,2.45384,15.7412,-0.605273,0.675521,0.111709,0
2024-12-11 21:01:07.484,-1.53709,2.47537,15.4155,-0.605273,0.675521,0.111709,0
2024-12-11 21:01:07.486,-1.57059,2.48495,15.047,-0.56679,0.73966,0.164852,0
2024-12-11 21:01:07.489,-1.58734,2.49452,14.6782,-0.535637,0.785473,0.213109,0
2024-12-11 21:01:07.491,-1.55623,2.49691,14.2854,-0.5167,0.806929,0.259534,0
2024-12-11 21:01:07.493,-1.47966,2.46341,13.8619,-0.50937,0.811816,0.302904,0
2024-12-11 21:01:07.496,-1.34536,2.42034,13.4572,-0.513035,0.80021,0.338333,0
2024-12-11 21:01:07.498,-1.17069,2.39402,13.1052,-0.528307,0.767148,0.366432,0
2024-12-11 21:01:07.500,-0.988834,2.37488,12.8324,-0.547243,0.716447,0.391477,0
2024-12-11 21:01:07.503,-0.797109,2.34856,12.6314,-0.576563,0.645589,0.403083,0
2024-12-11 21:01:07.505,-0.572184,2.32941,12.5187,-0.610771,0.55946,0.407359,0
2024-12-11 21:01:07.507,-0.332901,2.35095,12.5091,-0.646811,0.457448,0.402472,0
2024-12-11 21:01:07.511,-0.0909273,2.37966,12.5952,-0.715837,0.227159,0.363378,0
2024-12-11 21:01:07.512,0.157926,2.38445,12.7917,-0.715837,0.227159,0.363378,0
2024-12-11 21:01:07.515,0.407079,2.39402,13.0573,-0.767148,-0.0141258,0.291298,0
2024-12-11 21:01:07.518,0.641576,2.41077,13.3831,-0.777532,-0.126522,0.241208,0
2024-12-11 21:01:07.520,0.847657,2.42273,13.771,-0.777532,-0.126522,0.241208,0
2024-12-11 21:01:07.524,1.18026,2.39402,14.6016,-0.770202,-0.318939,0.125758,0
2024-12-11 21:01:07.524,1.18026,2.39402,14.6016,-0.770202,-0.318939,0.125758,0
2024-12-11 21:01:07.527,1.30708,2.34856,15.0183,-0.748822,-0.395295,0.0622301,0
2024-12-11 21:01:07.528,1.38365,2.27916,15.3939,-0.717058,-0.458823,-0.00374144,0
2024-12-11 21:01:07.531,1.39561,2.19781,15.722,-0.674299,-0.510134,-0.0691021,0
2024-12-11 21:01:07.533,1.39322,2.09492,16.0023,-0.623599,-0.546785,-0.13263,0
2024-12-11 21:01:07.536,1.36929,1.9657,16.2607,-0.569844,-0.576105,-0.196158,0
2024-12-11 21:01:07.538,1.31186,1.83619,16.4737,-0.508149,-0.596263,-0.251745,0
2024-12-11 21:01:07.540,1.23051,1.69262,16.6008,-0.44401,-0.60848,-0.306111,0
2024-12-11 21:01:07.543,1.12522,1.53709,16.6606,-0.371319,-0.611534,-0.354979,0
2024-12-11 21:01:07.545,1.00319,1.37408,16.6965,-0.302904,-0.606037,-0.394684,1
2024-12-11 21:01:07.548,0.859622,1.18505,16.6654,-0.231435,-0.591376,-0.428891,0
2024-12-11 21:01:07.550,0.691825,0.998405,16.5601,-0.157522,-0.568164,-0.456379,0
2024-12-11 21:01:07.553,0.50997,0.818644,16.4163,-0.0872748,-0.538233,-0.474705,0
2024-12-11 21:01:07.554,0.332901,0.641576,16.2416,-0.010308,-0.503415,-0.487532,0
2024-12-11 21:01:07.557,0.145962,0.459721,16.0286,0.0617719,-0.462488,-0.486922,0
2024-12-11 21:01:07.559,-0.0454636,0.265603,15.7747,0.131409,-0.420339,-0.480202,0
2024-12-11 21:01:07.561,-0.227318,0.0933201,15.4971,0.200434,-0.374526,-0.466764,0
2024-12-11 21:01:07.565,-0.409472,-0.0502493,15.2049,0.321382,-0.288396,-0.416063,0
2024-12-11 21:01:07.567,-0.586541,-0.181855,14.8986,0.321382,-0.288396,-0.416063,0
2024-12-11 21:01:07.568,-0.756431,-0.289831,14.592,0.375137,-0.241361,-0.378802,0
2024-12-11 21:01:07.571,-0.931406,-0.383151,14.2687,0.425837,-0.194326,-0.335431,0
2024-12-11 21:01:07.573,-1.09651,-0.469292,13.9217,0.475316,-0.147901,-0.284731,0
2024-12-11 21:01:07.577,-1.23769,-0.541077,13.5912,0.560834,-0.0562743,-0.16867,0
2024-12-11 21:01:07.578,-1.37886,-0.593719,13.273,0.560834,-0.0562743,-0.16867,0
2024-12-11 21:01:07.580,-1.49163,-0.622433,12.9497,0.594431,-0.013515,-0.106975,0
2024-12-11 21:01:07.583,-1.5682,-0.641576,12.6239,0.625584,0.0274118,-0.0410031,0
2024-12-11 21:01:07.586,-1.63998,-0.658325,12.3177,0.679339,0.0976592,0.0921616,0
2024-12-11 21:01:07.588,-1.68305,-0.672682,12.023,0.702551,0.124536,0.158133,0
2024-12-11 21:01:07.590,-1.67827,-0.675075,11.7168,0.702551,0.124536,0.158133,0
2024-12-11 21:01:07.593,-1.66391,-0.660718,11.4365,0.722098,0.147138,0.223494,0
2024-12-11 21:01:07.594,-1.61366,-0.643968,11.1709,0.73798,0.16302,0.282746,0
2024-12-11 21:01:07.598,-1.52752,-0.622433,10.8787,0.759359,0.187454,0.390255,0
2024-12-11 21:01:07.600,-1.43898,-0.60329,10.6035,0.764246,0.193562,0.43729,0
2024-12-11 21:01:07.602,-1.32383,-0.572184,10.3376,0.764246,0.193562,0.43729,0
2024-12-11 21:01:07.604,-1.19701,-0.54347,10.0696,0.764246,0.197838,0.476385,0
2024-12-11 21:01:07.606,-1.07258,-0.505185,9.82792,0.763025,0.196006,0.508149,0
2024-12-11 21:01:07.609,-0.929013,-0.445364,9.6027,0.754473,0.19173,0.532582,0
2024-12-11 21:01:07.611,-0.773181,-0.378365,9.37538,0.742867,0.185621,0.553351,0
2024-12-11 21:01:07.614,-0.639183,-0.316152,9.17408,0.728817,0.174626,0.56679,0
2024-12-11 21:01:07.616,-0.517149,-0.251246,9.0018,0.708659,0.161798,0.574731,0
2024-12-11 21:01:07.618,-0.395115,-0.181855,8.84626,0.691555,0.145305,0.575953,0
2024-12-11 21:01:07.620,-0.285045,-0.112463,8.68804,0.669565,0.130034,0.571677,0
2024-12-11 21:01:07.623,-0.162712,-0.0478565,8.54686,0.645742,0.111098,0.563736,0
2024-12-11 21:01:07.625,-0.0502493,0.0191426,8.44158,0.619475,0.0952158,0.549075,0
2024-12-11 21:01:07.628,0.0454636,0.0765703,8.34347,0.591376,0.0756687,0.532582,0
2024-12-11 21:01:07.631,0.124427,0.107677,8.2669,0.537011,0.0420721,0.492877,0
2024-12-11 21:01:07.633,0.20339,0.150748,8.22144,0.513799,0.0249684,0.465389,0
2024-12-11 21:01:07.635,0.27996,0.18664,8.16401,0.513799,0.0249684,0.465389,0
2024-12-11 21:01:07.637,0.342473,0.198604,8.09911,0.4857,0.00725381,0.436069,0
2024-12-11 21:01:07.639,0.404686,0.20339,8.068,0.461266,-0.0116825,0.404915,0
2024-12-11 21:01:07.642,0.457328,0.208176,8.04886,0.437443,-0.0300079,0.37193,0
2024-12-11 21:01:07.645,0.502792,0.210568,8.04646,0.391629,-0.0703238,0.304126,0
2024-12-11 21:01:07.646,0.541077,0.196211,8.03929,0.391629,-0.0703238,0.304126,0
2024-12-11 21:01:07.649,0.555434,0.181855,8.04646,0.374526,-0.0880384,0.269307,0
2024-12-11 21:01:07.651,0.553041,0.155533,8.05125,0.3562,-0.105142,0.233878,0
2024-12-11 21:01:07.653,0.536291,0.117248,8.05125,0.339707,-0.118581,0.201503,0
2024-12-11 21:01:07.657,0.519542,0.081356,8.068,0.312219,-0.141793,0.139197,0
2024-12-11 21:01:07.658,0.493221,0.0430708,8.06082,0.312219,-0.141793,0.139197,0
2024-12-11 21:01:07.660,0.440578,0.00717847,8.04407,0.301224,-0.150956,0.110487,0
2024-12-11 21:01:07.663,0.364008,-0.0382852,8.02493,0.289618,-0.159507,0.0878856,0
2024-12-11 21:01:07.665,0.289831,-0.0837488,8.02493,0.281066,-0.162562,0.0683385,0
2024-12-11 21:01:07.668,0.22014,-0.131605,8.0345,0.271903,-0.16134,0.0518457,0
2024-12-11 21:01:07.671,0.143569,-0.177069,8.01775,0.265184,-0.158897,0.0286335,0
2024-12-11 21:01:07.673,0.0622134,-0.208176,8.00339,0.257243,-0.153399,0.0237467,0
2024-12-11 21:01:07.675,-0.0311067,-0.248854,7.99143,0.257243,-0.153399,0.0237467,0
2024-12-11 21:01:07.684,-0.445364,-0.292223,7.91964,0.249913,-0.118581,0.0347419,0
2024-12-11 21:01:07.684,-0.445364,-0.292223,7.91964,0.249913,-0.118581,0.0347419,0
2024-12-11 21:01:07.684,-0.445364,-0.292223,7.91964,0.249913,-0.118581,0.0347419,0
2024-12-11 21:01:07.685,-0.445364,-0.292223,7.91964,0.249913,-0.118581,0.0347419,0
2024-12-11 21:01:07.687,-0.529113,-0.301795,7.89572,0.250524,-0.106975,0.0439046,0
2024-12-11 21:01:07.689,-0.60329,-0.299402,7.86461,0.2548,-0.0941468,0.0573433,0
2024-12-11 21:01:07.691,-0.684646,-0.311366,7.8359,0.258465,-0.0794865,0.0738362,0
2024-12-11 21:01:07.693,-0.766002,-0.320937,7.80479,0.260908,-0.0629936,0.0909399,0
2024-12-11 21:01:07.697,-0.835394,-0.311366,7.75933,0.265184,-0.049555,0.110487,0
2024-12-11 21:01:07.698,-0.890728,-0.292223,7.72104,0.274347,-0.033673,0.133088,0
2024-12-11 21:01:07.701,-0.945763,-0.27996,7.66122,0.282288,-0.0196235,0.156301,0
2024-12-11 21:01:07.703,-0.984048,-0.272782,7.58704,0.289007,-0.00740652,0.179513,0
2024-12-11 21:01:07.705,-1.00798,-0.267996,7.5341,0.294505,0.00419957,0.204557,0
2024-12-11 21:01:07.708,-1.02473,-0.260818,7.45753,0.301835,0.0133623,0.225937,0
2024-12-11 21:01:07.710,-1.04387,-0.241675,7.37617,0.309776,0.0213033,0.250982,0
2024-12-11 21:01:07.712,-1.06062,-0.212961,7.30678,0.315274,0.0268009,0.275416,0
2024-12-11 21:01:07.714,-1.04865,-0.184247,7.23261,0.319549,0.0322986,0.297406,0
2024-12-11 21:01:07.718,-1.04865,-0.155533,7.15604,0.331156,0.0341311,0.341387,0
2024-12-11 21:01:07.719,-1.05105,-0.124427,7.07946,0.331156,0.0341311,0.341387,0
2024-12-11 21:01:07.722,-1.04148,-0.0933201,6.99302,0.33421,0.0341311,0.362156,0
2024-12-11 21:01:07.724,-1.0343,-0.0502493,6.91406,0.336042,0.0335202,0.381092,0
2024-12-11 21:01:07.726,-1.02951,-0.00239282,6.83749,0.338486,0.0268009,0.397585,0
2024-12-11 21:01:07.730,-1.01994,0.0430708,6.7681,0.338486,0.0158057,0.430571,0
2024-12-11 21:01:07.731,-0.988834,0.0861416,6.70828,0.338486,0.0158057,0.430571,0
2024-12-11 21:01:07.734,-0.964906,0.133998,6.64846,0.340318,0.00419957,0.44401,0
2024-12-11 21:01:07.736,-0.938585,0.18664,6.58864,0.339097,-0.00557398,0.457448,0
2024-12-11 21:01:07.738,-0.909871,0.234497,6.54078,0.339707,-0.0159584,0.469665,0
2024-12-11 21:01:07.740,-0.873978,0.282652,6.5025,0.337875,-0.0257319,0.48066,0
2024-12-11 21:01:07.744,-0.833001,0.335294,6.45942,0.332377,-0.0440574,0.496542,0
2024-12-11 21:01:07.745,-0.811466,0.385544,6.42802,0.332377,-0.0440574,0.496542,0
2024-12-11 21:01:07.747,-0.775574,0.4334,6.41127,0.330545,-0.0507767,0.503262,0
2024-12-11 21:01:07.751,-0.725324,0.471685,6.39691,0.328712,-0.0684913,0.510592,0
2024-12-11 21:01:07.752,-0.660718,0.502792,6.39452,0.328712,-0.0684913,0.510592,0
2024-12-11 21:01:07.755,-0.588933,0.536291,6.38973,0.32749,-0.0745997,0.514257,0
2024-12-11 21:01:07.757,-0.541077,0.579362,6.38734,0.325047,-0.081319,0.513646,0
2024-12-11 21:01:07.759,-0.495613,0.624826,6.39452,0.326269,-0.0843733,0.513035,0
2024-12-11 21:01:07.762,-0.428614,0.655932,6.3993,0.325658,-0.0898709,0.511203,0
2024-12-11 21:01:07.764,-0.364008,0.689432,6.39452,0.326269,-0.0929251,0.508149,0
2024-12-11 21:01:07.766,-0.320937,0.732503,6.38256,0.32749,-0.0898709,0.503873,0
2024-12-11 21:01:07.769,-0.297009,0.76361,6.37777,0.328712,-0.0910926,0.498986,0
2024-12-11 21:01:07.771,-0.267996,0.789931,6.38016,0.328712,-0.0904818,0.492877,0
2024-12-11 21:01:07.773,-0.239282,0.825823,6.37298,0.332988,-0.085595,0.486158,0
2024-12-11 21:01:07.776,-0.205783,0.852443,6.35623,0.328101,-0.0874275,0.482493,0
2024-12-11 21:01:07.778,-0.179462,0.885943,6.31795,0.32749,-0.0837624,0.476995,0
2024-12-11 21:01:07.781,-0.179462,0.933799,6.29641,0.32749,-0.0800973,0.470276,0
2024-12-11 21:01:07.783,-0.165105,0.945763,6.2677,0.325047,-0.0800973,0.462946,0
2024-12-11 21:01:07.785,-0.141177,0.96012,6.22224,0.323215,-0.0764323,0.456837,0
2024-12-11 21:01:07.788,-0.138784,0.991227,6.19592,0.322604,-0.0684913,0.452561,0
2024-12-11 21:01:07.790,-0.129212,1.01276,6.1672,0.317717,-0.0684913,0.447064,0
2024-12-11 21:01:07.793,-0.136391,1.03669,6.1337,0.307333,-0.0648262,0.439123,0
2024-12-11 21:01:07.795,-0.157926,1.05105,6.10977,0.307333,-0.0648262,0.439123,0
2024-12-11 21:01:07.798,-0.162712,1.08215,6.08585,0.292672,-0.0660479,0.434847,0
2024-12-11 21:01:07.799,-0.153141,1.10369,6.0691,0.292672,-0.0660479,0.434847,0
2024-12-11 21:01:07.803,-0.153141,1.13001,6.0691,0.275568,-0.0648262,0.432404,0
2024-12-11 21:01:07.804,-0.150748,1.1659,6.07149,0.275568,-0.0648262,0.432404,0
2024-12-11 21:01:07.806,-0.138784,1.18505,6.09063,0.265795,-0.065437,0.432404,0
2024-12-11 21:01:07.809,-0.133998,1.22094,6.12413,0.256632,-0.0629936,0.434236,0
2024-12-11 21:01:07.812,-0.136391,1.26162,6.15763,0.237085,-0.065437,0.435458,0
2024-12-11 21:01:07.814,-0.133998,1.29751,6.18156,0.237085,-0.065437,0.435458,0
2024-12-11 21:01:07.817,-0.12682,1.3334,6.23181,0.232198,-0.0648262,0.436679,0
2024-12-11 21:01:07.818,-0.105284,1.37886,6.29641,0.224868,-0.0642153,0.43729,0
2024-12-11 21:01:07.820,-0.0765703,1.41984,6.31795,0.21876,-0.0666587,0.438512,0
2024-12-11 21:01:07.824,-0.0478565,1.46052,6.35623,0.206543,-0.0678804,0.438512,0
2024-12-11 21:01:07.825,-0.0143569,1.52273,6.41845,0.206543,-0.0678804,0.438512,0
2024-12-11 21:01:07.828,0.0454636,1.57059,6.44716,0.199823,-0.0678804,0.436069,0
2024-12-11 21:01:07.831,0.107677,1.61845,6.45942,0.192493,-0.0666587,0.431182,0
2024-12-11 21:01:07.832,0.160319,1.64955,6.47617,0.180887,-0.0648262,0.423852,0
2024-12-11 21:01:07.836,0.227318,1.68544,6.49532,0.160729,-0.0672696,0.404915,0
2024-12-11 21:01:07.837,0.294616,1.75244,6.52642,0.160729,-0.0672696,0.404915,0
2024-12-11 21:01:07.839,0.354437,1.80987,6.58146,0.152177,-0.0666587,0.392698,0
2024-12-11 21:01:07.842,0.41665,1.85773,6.6341,0.138739,-0.0727672,0.376816,0
2024-12-11 21:01:07.845,0.476471,1.91516,6.68196,0.111861,-0.0709346,0.344442,0
2024-12-11 21:01:07.846,0.50997,1.98724,6.74178,0.111861,-0.0709346,0.344442,0
2024-12-11 21:01:07.849,0.521934,2.06381,6.80399,0.0941468,-0.073378,0.328559,0
2024-12-11 21:01:07.852,0.52672,2.13799,6.8686,0.0666587,-0.0715455,0.2858,0
2024-12-11 21:01:07.853,0.521934,2.21456,6.9332,0.0666587,-0.0715455,0.2858,0
2024-12-11 21:01:07.857,0.519542,2.29352,7.00738,0.049555,-0.0715455,0.265642,0
2024-12-11 21:01:07.858,0.521934,2.3677,7.08904,0.0361163,-0.0703238,0.246095,0
2024-12-11 21:01:07.862,0.524327,2.44427,7.16082,0.00923906,-0.0721563,0.202114,0
2024-12-11 21:01:07.863,0.521934,2.52084,7.23261,0.00923906,-0.0721563,0.202114,0
2024-12-11 21:01:07.866,0.502792,2.58096,7.29721,-0.00481042,-0.073378,0.179513,0
2024-12-11 21:01:07.868,0.486042,2.62642,7.33789,-0.0200816,-0.077654,0.15569,0
2024-12-11 21:01:07.870,0.452543,2.68146,7.39292,-0.0347419,-0.0831516,0.131867,0
2024-12-11 21:01:07.873,0.414257,2.73649,7.45514,-0.0701711,-0.105142,0.0848314,0
2024-12-11 21:01:07.876,0.373579,2.79153,7.51496,-0.0701711,-0.105142,0.0848314,0
2024-12-11 21:01:07.878,0.308973,2.85135,7.57478,-0.110487,-0.140571,0.0408504,0
2024-12-11 21:01:07.880,0.232104,2.9016,7.65165,-0.110487,-0.140571,0.0408504,0
2024-12-11 21:01:07.882,0.16989,2.94467,7.733,-0.135532,-0.163173,0.0194708,0
2024-12-11 21:01:07.884,0.138784,2.98295,7.81197,-0.159355,-0.186996,-0.000687203,0
2024-12-11 21:01:07.886,0.102891,3.02842,7.91247,-0.1844,-0.218149,-0.0153475,0
2024-12-11 21:01:07.889,0.0526421,3.07388,8.04168,-0.209444,-0.249913,-0.0312296,0
2024-12-11 21:01:07.892,0.0311067,3.1005,8.17837,-0.238154,-0.285342,-0.0446682,0
2024-12-11 21:01:07.895,0.0191426,3.11246,8.35544,-0.294963,-0.361087,-0.0697129,0
2024-12-11 21:01:07.897,0.00239282,3.13161,8.56601,-0.320008,-0.400181,-0.0807082,0
2024-12-11 21:01:07.898,-0.00717847,3.13161,8.79123,-0.320008,-0.400181,-0.0807082,0
2024-12-11 21:01:07.901,0.0119641,3.134,9.0353,-0.344442,-0.438054,-0.0898709,0
2024-12-11 21:01:07.903,0.0574277,3.134,9.29402,-0.370708,-0.478981,-0.0947577,0
2024-12-11 21:01:07.905,0.0957129,3.12682,9.5692,-0.390866,-0.518075,-0.101477,0
2024-12-11 21:01:07.909,0.141177,3.11964,9.86621,-0.422019,-0.589544,-0.114305,0
2024-12-11 21:01:07.910,0.20339,3.10768,10.1557,-0.422019,-0.589544,-0.114305,0
2024-12-11 21:01:07.912,0.27996,3.08854,10.4264,-0.434236,-0.621919,-0.123468,0
2024-12-11 21:01:07.915,0.35683,3.06909,10.7016,-0.443399,-0.650018,-0.130187,0
2024-12-11 21:01:07.917,0.438186,3.05952,10.9651,-0.450118,-0.677506,-0.138128,0
2024-12-11 21:01:07.919,0.52672,3.04277,11.2259,-0.455005,-0.698275,-0.146069,0
2024-12-11 21:01:07.922,0.593719,3.01406,11.4939,-0.461724,-0.714157,-0.156453,0
2024-12-11 21:01:07.925,0.663111,3.00449,11.7359,-0.467833,-0.737369,-0.177222,0
2024-12-11 21:01:07.927,0.732503,3.02124,11.9752,-0.467833,-0.737369,-0.177222,0
2024-12-11 21:01:07.929,0.782752,3.02842,12.2172,-0.472109,-0.736758,-0.188217,0
2024-12-11 21:01:07.931,0.859622,3.03799,12.4421,-0.47333,-0.733093,-0.201656,0
2024-12-11 21:01:07.934,0.940978,3.05713,12.6625,-0.475163,-0.726985,-0.213873,0
2024-12-11 21:01:07.936,0.998405,3.06192,12.8731,-0.476385,-0.712324,-0.228533,0
2024-12-11 21:01:07.938,1.06062,3.05713,13.0789,-0.479439,-0.697053,-0.243804,0
2024-12-11 21:01:07.941,1.12044,3.04277,13.2802,-0.48005,-0.676895,-0.259076,0
2024-12-11 21:01:07.944,1.15633,3.00688,13.4764,-0.481271,-0.653072,-0.27679,0
2024-12-11 21:01:07.945,1.19462,2.97817,13.663,-0.483715,-0.629249,-0.293283,0
2024-12-11 21:01:07.949,1.22094,2.96381,13.8356,-0.491656,-0.57244,-0.325658,0
2024-12-11 21:01:07.950,1.22812,2.94227,13.9959,-0.491656,-0.57244,-0.325658,0
2024-12-11 21:01:07.953,1.22572,2.92074,14.1347,-0.495932,-0.540676,-0.343373,0
2024-12-11 21:01:07.955,1.21376,2.91835,14.2759,-0.499597,-0.50769,-0.358644,0
2024-12-11 21:01:07.957,1.18265,2.92552,14.4126,-0.500208,-0.472261,-0.373304,0
2024-12-11 21:01:07.960,1.12283,2.93031,14.5442,-0.503873,-0.436832,-0.38491,0
2024-12-11 21:01:07.963,1.05105,2.92792,14.6614,-0.511203,-0.364752,-0.401403,0
2024-12-11 21:01:07.964,0.99362,2.92074,14.7619,-0.511203,-0.364752,-0.401403,0
2024-12-11 21:01:07.970,0.890728,2.88724,14.968,-0.51609,-0.253578,-0.414842,0
2024-12-11 21:01:07.970,0.890728,2.88724,14.968,-0.51609,-0.253578,-0.414842,0
2024-12-11 21:01:07.971,0.837787,2.8681,15.0589,-0.51609,-0.253578,-0.414842,0
2024-12-11 21:01:07.974,0.775574,2.84656,15.157,-0.517311,-0.214484,-0.413009,0
2024-12-11 21:01:07.976,0.689432,2.84178,15.2599,-0.513646,-0.179055,-0.407511,0
2024-12-11 21:01:07.978,0.600898,2.85135,15.3485,-0.511203,-0.143625,-0.400181,0
2024-12-11 21:01:07.982,0.533899,2.84895,15.4445,-0.495932,-0.0703238,-0.375137,0
2024-12-11 21:01:07.983,0.4669,2.84895,15.5354,-0.495932,-0.0703238,-0.375137,0
2024-12-11 21:01:07.986,0.404686,2.8681,15.6192,-0.484936,-0.0348946,-0.356811,0
2024-12-11 21:01:07.988,0.35683,2.88006,15.6885,-0.471498,0.00175619,-0.337875,0
2024-12-11 21:01:07.990,0.304188,2.88485,15.7484,-0.450729,0.0371853,-0.315274,0
2024-12-11 21:01:07.993,0.236889,2.89681,15.7914,-0.429349,0.0732253,-0.292061,0
2024-12-11 21:01:07.996,0.155533,2.94227,15.7914,-0.374984,0.151414,-0.232198,0
2024-12-11 21:01:07.997,0.066999,3.01884,15.7508,-0.374984,0.151414,-0.232198,0
2024-12-11 21:01:08.001,-0.0358923,3.11246,15.6814,-0.315121,0.230213,-0.163783,0
2024-12-11 21:01:08.003,-0.133998,3.22253,15.5833,-0.285189,0.262588,-0.127133,0
2024-12-11 21:01:08.005,-0.217747,3.3326,15.4493,-0.259534,0.285189,-0.0868167,0
2024-12-11 21:01:08.008,-0.267996,3.43071,15.2934,-0.259534,0.285189,-0.0868167,0
2024-12-11 21:01:08.011,-0.239282,3.53839,14.8986,-0.219218,0.297406,-0.013515,0
2024-12-11 21:01:08.011,-0.239282,3.53839,14.8986,-0.219218,0.297406,-0.013515,0
2024-12-11 21:01:08.014,-0.133998,3.57428,14.6973,-0.210666,0.287022,0.0164165,0
2024-12-11 21:01:08.016,0.00717847,3.58624,14.4891,-0.20639,0.263199,0.0432938,0
2024-12-11 21:01:08.018,0.177069,3.56949,14.295,-0.208833,0.229602,0.0622301,0
2024-12-11 21:01:08.021,0.397508,3.54796,14.1467,-0.216164,0.189897,0.0768904,0
2024-12-11 21:01:08.023,0.655932,3.52403,14.0581,-0.231435,0.138586,0.0836097,0
2024-12-11 21:01:08.026,0.929013,3.49532,14.0222,-0.247317,0.0799446,0.0805555,0
2024-12-11 21:01:08.029,1.19222,3.48335,14.0318,-0.282135,-0.0507767,0.050624,0
2024-12-11 21:01:08.030,1.46291,3.49053,14.0868,-0.282135,-0.0507767,0.050624,0
2024-12-11 21:01:08.032,1.7668,3.49053,14.2065,-0.298017,-0.114916,0.0243575,0
2024-12-11 21:01:08.035,2.08295,3.47378,14.3599,-0.309623,-0.178444,-0.0104608,0
2024-12-11 21:01:08.038,2.36291,3.44746,14.5226,-0.316953,-0.235863,-0.0526092,0
2024-12-11 21:01:08.040,2.59292,3.42592,14.6925,-0.319397,-0.281066,-0.10331,0
2024-12-11 21:01:08.042,2.79153,3.38764,14.8648,-0.319397,-0.315274,-0.158286,0
2024-12-11 21:01:08.044,2.97817,3.34457,15.023,-0.310845,-0.336042,-0.217538,0
2024-12-11 21:01:08.047,3.13161,3.28714,15.181,-0.30046,-0.343373,-0.281677,0
2024-12-11 21:01:08.049,3.268,3.19382,15.315,-0.285189,-0.342151,-0.348259,0
2024-12-11 21:01:08.052,3.35892,3.08584,15.4179,-0.265642,-0.328101,-0.416674,0
2024-12-11 21:01:08.054,3.40678,2.9686,15.4947,-0.240597,-0.306111,-0.485089,0
2024-12-11 21:01:08.056,3.40678,2.82024,15.5282,-0.21372,-0.273736,-0.560834,0
2024-12-11 21:01:08.059,3.35653,2.63599,15.5282,-0.180124,-0.235253,-0.631082,0
2024-12-11 21:01:08.061,3.27278,2.44427,15.5163,-0.149581,-0.19738,-0.698886,1
2024-12-11 21:01:08.063,3.13161,2.25763,15.4828,-0.117206,-0.158897,-0.763025,0
2024-12-11 21:01:08.065,2.94227,2.05424,15.4179,-0.0817772,-0.116137,-0.824109,0
2024-12-11 21:01:08.068,2.71496,1.85773,15.303,-0.0396287,-0.0703238,-0.879086,0
2024-12-11 21:01:08.070,2.44188,1.67109,15.1475,-0.000534491,-0.021456,-0.926732,0
2024-12-11 21:01:08.073,2.14277,1.48923,14.9728,0.0428357,0.0286335,-0.966437,0
2024-12-11 21:01:08.075,1.83619,1.30229,14.7858,0.0428357,0.0286335,-0.966437,0
2024-12-11 21:01:08.077,1.4988,1.12522,14.5849,0.136295,0.138586,-1.0208,0
2024-12-11 21:01:08.080,1.16112,0.99362,14.3551,0.183331,0.197838,-1.03424,0
2024-12-11 21:01:08.082,0.818644,0.869193,14.118,0.232198,0.25648,-1.03729,0
2024-12-11 21:01:08.084,0.459721,0.744467,13.8811,0.277401,0.316343,-1.03241,0
2024-12-11 21:01:08.087,0.131605,0.622433,13.6534,0.32688,0.373151,-1.01469,0
2024-12-11 21:01:08.089,-0.153141,0.512363,13.3902,0.370861,0.428738,-0.989038,0
2024-12-11 21:01:08.092,-0.41665,0.409472,13.0956,0.416674,0.478828,-0.957885,0
2024-12-11 21:01:08.095,-0.670289,0.297009,12.8085,0.504025,0.572287,-0.866258,0
2024-12-11 21:01:08.097,-0.905085,0.179462,12.5139,0.504025,0.572287,-0.866258,0
2024-12-11 21:01:08.098,-1.1013,0.081356,12.2363,0.544341,0.614436,-0.814947,0
2024-12-11 21:01:08.102,-1.26162,-0.00478565,11.956,0.57916,0.647422,-0.758138,0
2024-12-11 21:01:08.104,-1.41984,-0.102891,11.6713,0.613978,0.673688,-0.695221,0
2024-12-11 21:01:08.106,-1.55862,-0.198604,11.3886,0.646964,0.693846,-0.631692,0
2024-12-11 21:01:08.108,-1.65194,-0.272782,11.1135,0.676284,0.705452,-0.568164,0
2024-12-11 21:01:08.110,-1.70937,-0.337687,10.8691,0.703772,0.704841,-0.502193,0
2024-12-11 21:01:08.114,-1.75723,-0.395115,10.625,0.752029,0.680407,-0.369639,0
2024-12-11 21:01:08.115,-1.79073,-0.445364,10.3953,0.752029,0.680407,-0.369639,0
2024-12-11 21:01:08.117,-1.80748,-0.4669,10.1964,0.773409,0.657806,-0.304889,0
2024-12-11 21:01:08.120,-1.82184,-0.4669,10.0026,0.792956,0.63154,-0.241972,0
2024-12-11 21:01:08.122,-1.80509,-0.454935,9.80848,0.81006,0.596111,-0.181498,0
2024-12-11 21:01:08.125,-1.78116,-0.4334,9.63141,0.822888,0.555795,-0.122857,0
2024-12-11 21:01:08.127,-1.74527,-0.402293,9.47348,0.834494,0.514257,-0.0703238,0
2024-12-11 21:01:08.129,-1.68784,-0.35683,9.32752,0.847322,0.472719,-0.0165692,0
2024-12-11 21:01:08.131,-1.5993,-0.30658,9.18844,0.854041,0.426295,0.030466,0
2024-12-11 21:01:08.135,-1.50359,-0.251246,9.07598,0.86076,0.326116,0.111709,0
2024-12-11 21:01:08.136,-1.40788,-0.20339,8.95873,0.86076,0.326116,0.111709,0
2024-12-11 21:01:08.139,-1.29272,-0.160319,8.83909,0.864425,0.273583,0.146527,0
2024-12-11 21:01:08.141,-1.1683,-0.0909273,8.7362,0.861982,0.224105,0.175237,0
2024-12-11 21:01:08.143,-1.04148,-0.0358923,8.65215,0.857706,0.176459,0.197838,0
2024-12-11 21:01:08.146,-0.893121,0.0191426,8.59951,0.851597,0.130645,0.216774,0
2024-12-11 21:01:08.148,-0.758824,0.0909273,8.55404,0.842435,0.086664,0.228381,0
2024-12-11 21:01:08.150,-0.63679,0.143569,8.51336,0.83205,0.0439046,0.238765,0
2024-12-11 21:01:08.154,-0.490828,0.181855,8.47986,0.805173,-0.0342838,0.24243,0
2024-12-11 21:01:08.155,-0.354437,0.22014,8.45833,0.805173,-0.0342838,0.24243,0
2024-12-11 21:01:08.158,-0.205783,0.248854,8.44397,0.791734,-0.0709346,0.239376,0
2024-12-11 21:01:08.161,-0.0334995,0.275175,8.42962,0.761192,-0.132019,0.218607,0
2024-12-11 21:01:08.162,0.114855,0.294616,8.42722,0.761192,-0.132019,0.218607,0
2024-12-11 21:01:08.164,0.263211,0.287438,8.42722,0.740423,-0.158897,0.201503,0
2024-12-11 21:01:08.167,0.423829,0.270389,8.42244,0.722098,-0.181498,0.183789,0
2024-12-11 21:01:08.170,0.576969,0.239282,8.42722,0.676284,-0.219371,0.13431,0
2024-12-11 21:01:08.172,0.715753,0.200997,8.42483,0.676284,-0.219371,0.13431,0
2024-12-11 21:01:08.174,0.833001,0.172283,8.41287,0.654294,-0.232198,0.108044,0
2024-12-11 21:01:08.176,0.917049,0.138784,8.41765,0.628027,-0.243194,0.0799446,0
2024-12-11 21:01:08.179,0.974477,0.112463,8.43201,0.599928,-0.247469,0.0512348,0
2024-12-11 21:01:08.181,1.0008,0.0909273,8.45833,0.57244,-0.24808,0.0255792,0
2024-12-11 21:01:08.183,0.99362,0.0717847,8.49183,0.548617,-0.243804,-7.63559e-05,0
2024-12-11 21:01:08.186,0.979263,0.0622134,8.5014,0.522962,-0.237696,-0.0232886,0
2024-12-11 21:01:08.188,0.957727,0.0454636,8.53011,0.494252,-0.228533,-0.0397814,0
2024-12-11 21:01:08.191,0.907478,0.0311067,8.57797,0.448438,-0.186385,-0.0715455,0
2024-12-11 21:01:08.193,0.845265,0.0358923,8.60908,0.448438,-0.186385,-0.0715455,0
2024-12-11 21:01:08.196,0.770788,0.0358923,8.63779,0.403236,-0.130187,-0.0886492,0
2024-12-11 21:01:08.197,0.677468,0.0287139,8.65933,0.403236,-0.130187,-0.0886492,0
2024-12-11 21:01:08.201,0.586541,0.0287139,8.68086,0.382467,-0.0972011,-0.0923143,0
2024-12-11 21:01:08.202,0.483649,0.0430708,8.68086,0.364141,-0.0581068,-0.0929251,0
2024-12-11 21:01:08.205,0.352044,0.0574277,8.6665,0.347648,-0.0190126,-0.0904818,0
2024-12-11 21:01:08.207,0.217747,0.0741775,8.64736,0.329323,0.0243575,-0.081319,0
2024-12-11 21:01:08.209,0.100499,0.0909273,8.61865,0.318939,0.0695602,-0.0727672,0
2024-12-11 21:01:08.213,-0.0215354,0.122034,8.6019,0.306722,0.117206,-0.0593285,0
2024-12-11 21:01:08.214,-0.153141,0.155533,8.57318,0.294505,0.163631,-0.0434465,0
2024-12-11 21:01:08.216,-0.285045,0.191426,8.52054,0.282288,0.207001,-0.0251211,0
2024-12-11 21:01:08.219,-0.414257,0.236889,8.45115,0.276179,0.255258,-0.00313059,0
2024-12-11 21:01:08.221,-0.524327,0.270389,8.37458,0.265184,0.294963,0.0231358,0
2024-12-11 21:01:08.223,-0.615255,0.316152,8.30997,0.257854,0.337722,0.0469589,0
2024-12-11 21:01:08.226,-0.689432,0.361615,8.22862,0.252356,0.376206,0.0707819,0
2024-12-11 21:01:08.228,-0.742074,0.390329,8.14726,0.246248,0.411635,0.0982701,0
2024-12-11 21:01:08.230,-0.782752,0.426222,8.07518,0.238918,0.442177,0.123315,0
2024-12-11 21:01:08.233,-0.818644,0.4669,7.99861,0.234642,0.469665,0.14836,0
2024-12-11 21:01:08.235,-0.835394,0.493221,7.94118,0.234642,0.492267,0.172793,0
2024-12-11 21:01:08.238,-0.845265,0.531506,7.87897,0.229755,0.511203,0.193562,0
2024-12-11 21:01:08.240,-0.854836,0.584148,7.81675,0.230977,0.529528,0.21372,0
2024-12-11 21:01:08.243,-0.852443,0.634397,7.7689,0.231587,0.543578,0.235711,0
2024-12-11 21:01:08.244,-0.852443,0.687039,7.72583,0.234031,0.553351,0.251593,0
2024-12-11 21:01:08.247,-0.833001,0.725324,7.67797,0.237085,0.561903,0.268696,0
2024-12-11 21:01:08.249,-0.833001,0.768395,7.62533,0.244415,0.568012,0.282746,0
2024-12-11 21:01:08.253,-0.837787,0.818644,7.56042,0.257854,0.573509,0.309623,0
2024-12-11 21:01:08.255,-0.837787,0.871586,7.48864,0.259076,0.571066,0.320618,0
2024-12-11 21:01:08.257,-0.842872,0.914656,7.42882,0.26946,0.568622,0.329781,0
2024-12-11 21:01:08.260,-0.835394,0.936192,7.369,0.275568,0.558849,0.337722,0
2024-12-11 21:01:08.262,-0.82343,0.969691,7.30678,0.283509,0.546021,0.345052,0
2024-12-11 21:01:08.264,-0.818644,1.00558,7.22543,0.283509,0.546021,0.345052,0
2024-12-11 21:01:08.266,-0.811466,1.04387,7.14646,0.29084,0.534415,0.352383,0
2024-12-11 21:01:08.269,-0.799502,1.08215,7.06989,0.307333,0.502651,0.361545,0
2024-12-11 21:01:08.270,-0.799502,1.11805,7.00738,0.307333,0.502651,0.361545,0
2024-12-11 21:01:08.273,-0.797109,1.14915,6.95713,0.310387,0.482493,0.363989,0
2024-12-11 21:01:08.275,-0.775574,1.18265,6.90449,0.317717,0.461113,0.365821,0
2024-12-11 21:01:08.277,-0.766002,1.20897,6.84706,0.322604,0.439734,0.371319,0
2024-12-11 21:01:08.280,-0.775574,1.23051,6.79921,0.328712,0.418354,0.370097,0
2024-12-11 21:01:08.282,-0.780359,1.25922,6.74656,0.337264,0.394531,0.373762,0
2024-12-11 21:01:08.286,-0.777966,1.28315,6.68674,0.340318,0.374373,0.376206,0
2024-12-11 21:01:08.287,-0.782752,1.30708,6.65085,0.347648,0.352383,0.376816,0
2024-12-11 21:01:08.289,-0.785145,1.3334,6.61257,0.354368,0.334057,0.376816,0
2024-12-11 21:01:08.292,-0.780359,1.34058,6.55753,0.354979,0.313288,0.378038,0
2024-12-11 21:01:08.294,-0.780359,1.35972,6.50967,0.359255,0.29313,0.381092,0
2024-12-11 21:01:08.296,-0.787538,1.38604,6.45464,0.360476,0.276637,0.381703,0
2024-12-11 21:01:08.300,-0.799502,1.41266,6.39691,0.369639,0.246706,0.384147,0
2024-12-11 21:01:08.302,-0.813859,1.44377,6.35623,0.365974,0.230213,0.382925,0
2024-12-11 21:01:08.304,-0.837787,1.48684,6.30598,0.365974,0.230213,0.382925,0
2024-12-11 21:01:08.306,-0.859622,1.52991,6.24616,0.367196,0.216774,0.387201,0
2024-12-11 21:01:08.309,-0.888335,1.54666,6.19592,0.364141,0.202114,0.392088,0
2024-12-11 21:01:08.310,-0.914656,1.58255,6.1337,0.360476,0.192341,0.393309,0
2024-12-11 21:01:08.313,-0.948156,1.62562,6.09063,0.358644,0.181956,0.397585,0
2024-12-11 21:01:08.315,-0.979263,1.65194,6.04995,0.358644,0.181956,0.397585,0
2024-12-11 21:01:08.317,-1.00558,1.67827,5.9997,0.350092,0.165463,0.40858,0
2024-12-11 21:01:08.320,-1.02473,1.69741,5.94945,0.344594,0.159355,0.412856,0
2024-12-11 21:01:08.322,-1.04626,1.71894,5.88933,0.332988,0.153246,0.417743,0
2024-12-11 21:01:08.325,-1.07019,1.74766,5.84148,0.326269,0.14836,0.423852,0
2024-12-11 21:01:08.327,-1.09173,1.76201,5.78644,0.314052,0.144694,0.428738,0
2024-12-11 21:01:08.332,-1.13958,1.82662,5.68116,0.285953,0.138586,0.440345,0
2024-12-11 21:01:08.332,-1.13958,1.82662,5.68116,0.285953,0.138586,0.440345,0
2024-12-11 21:01:08.337,-1.1994,1.88883,5.60459,0.248691,0.132477,0.453172,0
2024-12-11 21:01:08.337,-1.1994,1.88883,5.60459,0.248691,0.132477,0.453172,0
2024-12-11 21:01:08.341,-1.26879,1.95105,5.54716,0.207154,0.13431,0.467833,0
2024-12-11 21:01:08.341,-1.26879,1.95105,5.54716,0.207154,0.13431,0.467833,0
2024-12-11 21:01:08.343,-1.30229,1.97049,5.55195,0.183331,0.131867,0.474552,0
2024-12-11 21:01:08.347,-1.34297,2.02074,5.55913,0.16134,0.131867,0.481882,0
2024-12-11 21:01:08.348,-1.38365,2.0662,5.58784,0.138739,0.131256,0.491045,0
2024-12-11 21:01:08.350,-1.43659,2.11167,5.62612,0.114305,0.13431,0.497764,0
2024-12-11 21:01:08.354,-1.4988,2.1667,5.64527,0.0684913,0.14164,0.515479,0
2024-12-11 21:01:08.356,-1.56341,2.20977,5.67398,0.0489441,0.142862,0.524641,0
2024-12-11 21:01:08.358,-1.61845,2.25045,5.72423,0.0489441,0.142862,0.524641,0
2024-12-11 21:01:08.360,-1.6663,2.29831,5.76252,0.0238994,0.146527,0.532582,0
2024-12-11 21:01:08.363,-1.71655,2.33898,5.79601,-0.0206925,0.14897,0.553351,0
2024-12-11 21:01:08.366,-1.74527,2.36052,5.84387,-0.0206925,0.14897,0.553351,0
2024-12-11 21:01:08.369,-1.79312,2.43948,5.92553,-0.0634518,0.147749,0.569844,0
2024-12-11 21:01:08.370,-1.79312,2.43948,5.92553,-0.0634518,0.147749,0.569844,0
2024-12-11 21:01:08.372,-1.81226,2.44905,5.96142,-0.0884965,0.140419,0.578396,0
2024-12-11 21:01:08.375,-1.83141,2.45384,6.00927,-0.11293,0.131867,0.584504,0
2024-12-11 21:01:08.379,-1.87208,2.48255,6.14088,-0.164852,0.104379,0.594278,0
2024-12-11 21:01:08.380,-1.87208,2.48255,6.14088,-0.164852,0.104379,0.594278,0
2024-12-11 21:01:08.381,-1.88644,2.47537,6.20788,-0.196006,0.0848314,0.597332,0
2024-12-11 21:01:08.383,-1.90798,2.46102,6.29402,-0.219829,0.0658951,0.604052,0
2024-12-11 21:01:08.386,-1.94148,2.46341,6.38734,-0.246095,0.042683,0.604662,0
2024-12-11 21:01:08.388,-1.98245,2.48016,6.49292,-0.272972,0.0182491,0.604662,0
2024-12-11 21:01:08.392,-2.02313,2.4993,6.62931,-0.320618,-0.0312296,0.609549,0
2024-12-11 21:01:08.394,-2.07577,2.50648,6.77528,-0.342609,-0.0550526,0.609549,0
2024-12-11 21:01:08.398,-2.1667,2.52323,7.12493,-0.366432,-0.0825407,0.613214,0
2024-12-11 21:01:08.399,-2.1667,2.52323,7.12493,-0.366432,-0.0825407,0.613214,0
2024-12-11 21:01:08.400,-2.2002,2.52323,7.2996,-0.385368,-0.106975,0.616879,0
2024-12-11 21:01:08.402,-2.23131,2.51127,7.5006,-0.401861,-0.128354,0.621766,0
2024-12-11 21:01:08.407,-2.29591,2.48973,7.91725,-0.417132,-0.149734,0.62482,0
2024-12-11 21:01:08.408,-2.29591,2.48973,7.91725,-0.438512,-0.185774,0.635205,0
2024-12-11 21:01:08.410,-2.32463,2.4682,8.12782,-0.438512,-0.185774,0.635205,0
2024-12-11 21:01:08.412,-2.37009,2.44905,8.36262,-0.445842,-0.201656,0.643146,0
2024-12-11 21:01:08.415,-2.4323,2.42513,8.60429,-0.450118,-0.216316,0.652309,0
2024-12-11 21:01:08.419,-2.49452,2.39163,9.08076,-0.448286,-0.235253,0.669412,0
2024-12-11 21:01:08.419,-2.49452,2.39163,9.08076,-0.448286,-0.235253,0.669412,0
2024-12-11 21:01:08.421,-2.54746,2.36291,9.30359,-0.442788,-0.242583,0.681629,0
2024-12-11 21:01:08.426,-2.67189,2.33898,9.71516,-0.425073,-0.249913,0.710339,0
2024-12-11 21:01:08.427,-2.67189,2.33898,9.71516,-0.425073,-0.249913,0.710339,0
2024-12-11 21:01:08.428,-2.74367,2.33181,9.89731,-0.425073,-0.249913,0.710339,0
2024-12-11 21:01:08.432,-2.82024,2.32702,10.0768,-0.398807,-0.24075,0.744012,0
2024-12-11 21:01:08.433,-2.88485,2.32223,10.2443,-0.398807,-0.24075,0.744012,0
2024-12-11 21:01:08.435,-2.95663,2.31745,10.4025,-0.36521,-0.218149,0.784939,0
2024-12-11 21:01:08.439,-3.02363,2.30548,10.5317,-0.331003,-0.185163,0.828309,0
2024-12-11 21:01:08.440,-3.08584,2.28156,10.6466,-0.331003,-0.185163,0.828309,0
2024-12-11 21:01:08.442,-3.14118,2.2672,10.759,-0.313899,-0.163173,0.854575,0
2024-12-11 21:01:08.445,-3.18664,2.25284,10.8428,-0.297406,-0.13996,0.877788,0
2024-12-11 21:01:08.447,-3.23211,2.21456,10.9074,-0.281524,-0.114916,0.903443,0
2024-12-11 21:01:08.450,-3.27757,2.17388,10.9627,-0.267475,-0.0929251,0.928488,0
2024-12-11 21:01:08.453,-3.35175,2.15713,11.0225,-0.24243,-0.0489441,0.974301,0
2024-12-11 21:01:08.454,-3.4331,2.13081,11.0776,-0.24243,-0.0489441,0.974301,0
2024-12-11 21:01:08.460,-3.58864,2.07577,11.1781,-0.210055,-0.0019089,1.04699,0
2024-12-11 21:01:08.460,-3.58864,2.07577,11.1781,-0.210055,-0.0019089,1.04699,0
2024-12-11 21:01:08.462,-3.63649,2.0351,11.2164,-0.210055,-0.0019089,1.04699,0
2024-12-11 21:01:08.464,-3.66072,1.97528,11.2499,-0.200282,0.00297788,1.07326,0
2024-12-11 21:01:08.467,-3.67986,1.91994,11.2857,-0.191119,0.00847551,1.12213,0
2024-12-11 21:01:08.469,-3.70379,1.86012,11.3288,-0.191119,0.00847551,1.12213,0
2024-12-11 21:01:08.471,-3.71336,1.80269,11.3575,-0.187454,0.00908635,1.14595,0
2024-12-11 21:01:08.473,-3.71097,1.73569,11.3958,-0.178291,0.00786466,1.16733,0
2024-12-11 21:01:08.475,-3.70379,1.66391,11.4485,-0.176459,0.00358873,1.18749,0
2024-12-11 21:01:08.478,-3.68704,1.60409,11.4915,-0.177069,-0.00313059,1.20887,0
2024-12-11 21:01:08.480,-3.69422,1.53948,11.5517,-0.176459,-0.00984991,1.22841,0
2024-12-11 21:01:08.482,-3.71815,1.47248,11.6067,-0.181956,-0.0147367,1.25224,0
2024-12-11 21:01:08.486,-3.72054,1.40548,11.6617,-0.185621,-0.0196235,1.27239,0
2024-12-11 21:01:08.487,-3.70379,1.34297,11.7431,-0.189897,-0.0232886,1.295,0
2024-12-11 21:01:08.492,-3.70858,1.24008,11.9297,-0.198449,-0.0208452,1.34264,0
2024-12-11 21:01:08.493,-3.70858,1.24008,11.9297,-0.205168,-0.0159584,1.3683,0
2024-12-11 21:01:08.494,-3.71815,1.19462,12.0518,-0.205168,-0.0159584,1.3683,0
2024-12-11 21:01:08.498,-3.74208,1.15155,12.1717,-0.208833,-0.00740652,1.39579,0
2024-12-11 21:01:08.502,-3.74447,1.02712,12.4493,-0.20639,0.0396287,1.4868,0
2024-12-11 21:01:08.502,-3.74447,1.02712,12.4493,-0.20639,0.0396287,1.4868,0
2024-12-11 21:01:08.505,-3.73011,0.986441,12.6191,-0.200282,0.0628409,1.51796,0
2024-12-11 21:01:08.506,-3.72293,0.940978,12.7989,-0.200282,0.0628409,1.51796,0
2024-12-11 21:01:08.509,-3.71815,0.909871,12.9592,-0.174626,0.131256,1.58148,0
2024-12-11 21:01:08.511,-3.71575,0.885943,13.086,-0.174626,0.131256,1.58148,0
2024-12-11 21:01:08.513,-3.74925,0.881157,13.1842,-0.151414,0.180124,1.61447,0
2024-12-11 21:01:08.516,-3.80907,0.893121,13.2443,-0.130645,0.230824,1.6499,0
2024-12-11 21:01:08.519,-3.86172,0.907478,13.2778,-0.0811663,0.334668,1.72137,0
2024-12-11 21:01:08.521,-3.92154,0.933799,13.2538,-0.0811663,0.334668,1.72137,0
2024-12-11 21:01:08.523,-3.98375,0.936192,13.1674,-0.0811663,0.334668,1.72137,0
2024-12-11 21:01:08.526,-4.03161,0.919442,13.0382,-0.0194708,0.428128,1.83071,0
2024-12-11 21:01:08.528,-4.05314,0.895514,12.8755,-0.0194708,0.428128,1.83071,0
2024-12-11 21:01:08.529,-4.07229,0.85005,12.7056,-0.0115297,0.430571,1.8637,0
2024-12-11 21:01:08.533,-4.07468,0.799502,12.5258,-0.0127514,0.417132,1.89729,0
2024-12-11 21:01:08.534,-4.04357,0.742074,12.3392,-0.0237467,0.390866,1.92539,0
2024-12-11 21:01:08.539,-3.9,0.62004,12.1119,-0.0561216,0.30718,1.9767,0
2024-12-11 21:01:08.540,-3.9,0.62004,12.1119,-0.0872748,0.247928,1.9993,0
2024-12-11 21:01:08.541,-3.84257,0.567398,12.0541,-0.0872748,0.247928,1.9993,0
2024-12-11 21:01:08.545,-3.80668,0.557827,12.0302,-0.161187,0.116595,2.03718,0
2024-12-11 21:01:08.546,-3.78036,0.555434,12.0518,-0.161187,0.116595,2.03718,0
2024-12-11 21:01:08.548,-3.7325,0.541077,12.1382,-0.200892,0.0445155,2.0555,0
2024-12-11 21:01:08.551,-3.63889,0.490828,12.2961,-0.241208,-0.0330621,2.07505,0
2024-12-11 21:01:08.554,-3.49053,0.402293,12.5234,-0.286411,-0.107585,2.09765,0
2024-12-11 21:01:08.558,-3.02363,0.136391,13.1746,-0.356048,-0.241361,2.12819,0
2024-12-11 21:01:08.559,-3.02363,0.136391,13.1746,-0.356048,-0.241361,2.12819,0
2024-12-11 21:01:08.560,-2.77238,0.00478565,13.5458,-0.381092,-0.291451,2.14224,0
2024-12-11 21:01:08.563,-2.51127,-0.124427,13.9648,-0.400639,-0.330545,2.15446,0
2024-12-11 21:01:08.565,-2.26481,-0.246461,14.3982,-0.400639,-0.330545,2.15446,0
2024-12-11 21:01:08.568,-2.02313,-0.361615,14.8193,-0.40858,-0.367196,2.16668,0
2024-12-11 21:01:08.570,-1.81466,-0.478864,15.2073,-0.397585,-0.361698,2.17217,0
2024-12-11 21:01:08.572,-1.65912,-0.581755,15.5354,-0.381092,-0.345816,2.17828,0
2024-12-11 21:01:08.574,-1.51316,-0.667897,15.8082,-0.381092,-0.345816,2.17828,0
2024-12-11 21:01:08.577,-1.3669,-0.749253,16.0621,-0.325505,-0.26946,2.18378,0
2024-12-11 21:01:08.579,-1.21854,-0.857229,16.2799,-0.291909,-0.216316,2.18744,1
2024-12-11 21:01:08.581,-1.07258,-0.962513,16.4258,-0.255258,-0.158286,2.19294,0
2024-12-11 21:01:08.585,-0.969691,-1.06301,16.4928,-0.214331,-0.0978119,2.196,0
2024-12-11 21:01:08.586,-0.890728,-1.18026,16.5048,-0.175848,-0.0330621,2.20333,0
2024-12-11 21:01:08.588,-0.82343,-1.31426,16.4569,-0.137364,0.0316877,2.20882,0
2024-12-11 21:01:08.592,-0.780359,-1.44377,16.3684,-0.100103,0.0994917,2.21554,0
2024-12-11 21:01:08.593,-0.756431,-1.54905,16.2488,-0.0677277,0.162409,2.22532,0
2024-12-11 21:01:08.595,-0.756431,-1.64716,16.0741,-0.0396287,0.224105,2.23876,0
2024-12-11 21:01:08.598,-0.787538,-1.74287,15.8536,-0.010308,0.285189,2.25342,0
2024-12-11 21:01:08.600,-0.85005,-1.82662,15.6168,0.0147367,0.341998,2.27113,0
2024-12-11 21:01:08.604,-0.938585,-1.89841,15.3748,0.029397,0.394531,2.2919,0
2024-12-11 21:01:08.605,-1.02473,-1.93908,15.1331,0.041614,0.440345,2.32,0
2024-12-11 21:01:08.607,-1.11565,-1.96062,14.9058,0.0519984,0.483715,2.34932,0
2024-12-11 21:01:08.611,-1.22812,-1.96301,14.6854,0.0611611,0.549075,2.41712,0
2024-12-11 21:01:08.613,-1.33579,-1.94626,14.4748,0.0611611,0.549075,2.41712,0
2024-12-11 21:01:08.614,-1.42941,-1.93191,14.295,0.0636045,0.580839,2.45194,0
2024-12-11 21:01:08.620,-1.55384,-1.89123,13.9289,0.0593285,0.666358,2.57594,0
2024-12-11 21:01:08.620,-1.55384,-1.89123,13.9289,0.0593285,0.666358,2.57594,0
2024-12-11 21:01:08.624,-1.64237,-1.84098,13.6367,0.0568851,0.695679,2.61626,0
2024-12-11 21:01:08.625,-1.64237,-1.84098,13.6367,0.0581068,0.726832,2.65596,0
2024-12-11 21:01:08.628,-1.64477,-1.80748,13.4166,0.0562743,0.755542,2.69933,0
2024-12-11 21:01:08.629,-1.64477,-1.80748,13.4166,0.0562743,0.755542,2.69933,0
2024-12-11 21:01:08.633,-1.62323,-1.73091,13.2012,0.065437,0.816092,2.77569,0
2024-12-11 21:01:08.634,-1.62323,-1.73091,13.2012,0.065437,0.816092,2.77569,0
2024-12-11 21:01:08.638,-1.54188,-1.65194,13.0047,0.0807082,0.872901,2.84349,0
2024-12-11 21:01:08.640,-1.48445,-1.61605,12.897,0.093536,0.902221,2.87526,0
2024-12-11 21:01:08.640,-1.48445,-1.61605,12.897,0.093536,0.902221,2.87526,0
2024-12-11 21:01:08.643,-1.45334,-1.58734,12.775,0.105753,0.92971,2.90336,0
2024-12-11 21:01:08.647,-1.34776,-1.54427,12.4923,0.142404,0.981632,2.9565,0
2024-12-11 21:01:08.648,-1.34776,-1.54427,12.4923,0.158897,1.00607,2.97727,0
2024-12-11 21:01:08.650,-1.28554,-1.52752,12.3488,0.158897,1.00607,2.97727,0
2024-12-11 21:01:08.652,-1.24008,-1.50838,12.1717,0.176611,1.025,2.99682,0
2024-12-11 21:01:08.657,-1.1324,-1.50838,11.7814,0.213873,1.05188,3.0298,0
2024-12-11 21:01:08.658,-1.1324,-1.50838,11.7814,0.213873,1.05188,3.0298,0
2024-12-11 21:01:08.659,-1.08215,-1.50359,11.5923,0.213873,1.05188,3.0298,0
2024-12-11 21:01:08.661,-1.02233,-1.49402,11.3982,0.244415,1.05738,3.05485,0
2024-12-11 21:01:08.664,-0.972084,-1.48923,11.1924,0.259686,1.0531,3.06462,0
2024-12-11 21:01:08.666,-0.926621,-1.47966,10.9819,0.272514,1.04455,3.07195,0
2024-12-11 21:01:08.671,-0.82343,-1.47727,10.5796,0.295726,1.00484,3.08356,0
2024-12-11 21:01:08.673,-0.76361,-1.4653,10.3834,0.303667,0.978577,3.08478,0
2024-12-11 21:01:08.676,-0.71336,-1.45813,10.194,0.311608,0.951089,3.08417,0
2024-12-11 21:01:08.676,-0.71336,-1.45813,10.194,0.311608,0.951089,3.08417,0
2024-12-11 21:01:08.684,-0.586541,-1.46291,9.72712,0.332988,0.798301,3.0689,0
2024-12-11 21:01:08.685,-0.531506,-1.45095,9.59313,0.332988,0.798301,3.0689,0
2024-12-11 21:01:08.685,-0.531506,-1.45095,9.59313,0.332988,0.798301,3.0689,0
2024-12-11 21:01:08.687,-0.495613,-1.4677,9.48066,0.336042,0.756763,3.0634,0
2024-12-11 21:01:08.688,-0.495613,-1.4677,9.48066,0.338486,0.717058,3.05363,0
2024-12-11 21:01:08.690,-0.45015,-1.48205,9.36581,0.338486,0.717058,3.05363,0
2024-12-11 21:01:08.693,-0.387936,-1.48923,9.23151,0.346427,0.636427,3.03469,0
2024-12-11 21:01:08.695,-0.34008,-1.49163,9.11905,0.346427,0.636427,3.03469,0
2024-12-11 21:01:08.699,-0.236889,-1.4988,8.95155,0.3562,0.554573,3.00598,0
2024-12-11 21:01:08.700,-0.236889,-1.4988,8.95155,0.353757,0.514257,2.99376,0
2024-12-11 21:01:08.702,-0.210568,-1.50598,8.86062,0.353757,0.514257,2.99376,0
2024-12-11 21:01:08.704,-0.193819,-1.52273,8.78884,0.3562,0.472109,2.97849,0
2024-12-11 21:01:08.706,-0.172283,-1.53948,8.70509,0.360476,0.434236,2.96322,0
2024-12-11 21:01:08.709,-0.155533,-1.52752,8.62104,0.358644,0.399418,2.94917,0
2024-12-11 21:01:08.712,-0.155533,-1.53948,8.56122,0.358644,0.340166,2.91741,0
2024-12-11 21:01:08.714,-0.153141,-1.5658,8.48704,0.358644,0.340166,2.91741,0
2024-12-11 21:01:08.716,-0.148355,-1.57537,8.42722,0.358644,0.315732,2.90458,0
2024-12-11 21:01:08.718,-0.153141,-1.58016,8.36979,0.359865,0.296795,2.89236,0
2024-12-11 21:01:08.720,-0.167498,-1.58016,8.30758,0.359865,0.282746,2.87953,0
2024-12-11 21:01:08.723,-0.184247,-1.59212,8.25015,0.357422,0.268696,2.86548,0
2024-12-11 21:01:08.726,-0.200997,-1.60409,8.19512,0.345205,0.255869,2.84533,0
2024-12-11 21:01:08.727,-0.229711,-1.60648,8.14248,0.345205,0.255869,2.84533,0
2024-12-11 21:01:08.731,-0.267996,-1.61366,8.07757,0.332377,0.241208,2.82761,0
2024-12-11 21:01:08.733,-0.294616,-1.63041,8.01057,0.332377,0.241208,2.82761,0
2024-12-11 21:01:08.737,-0.316152,-1.68305,7.90529,0.321993,0.232046,2.81173,0
2024-12-11 21:01:08.737,-0.316152,-1.68305,7.90529,0.321993,0.232046,2.81173,0
2024-12-11 21:01:08.739,-0.337687,-1.69741,7.82872,0.308554,0.228381,2.80562,0
2024-12-11 21:01:08.741,-0.347258,-1.72134,7.76411,0.299392,0.22105,2.79707,0
2024-12-11 21:01:08.744,-0.352044,-1.7333,7.70429,0.287175,0.214331,2.79279,0
2024-12-11 21:01:08.746,-0.373579,-1.74527,7.65643,0.274347,0.207001,2.78485,0
2024-12-11 21:01:08.751,-0.426222,-1.79312,7.54846,0.237085,0.192341,2.77386,0
2024-12-11 21:01:08.751,-0.426222,-1.79312,7.54846,0.237085,0.192341,2.77386,0
2024-12-11 21:01:08.756,-0.481256,-1.81226,7.49821,0.195547,0.17768,2.76836,0
2024-12-11 21:01:08.757,-0.481256,-1.81226,7.49821,0.195547,0.17768,2.76836,0
2024-12-11 21:01:08.759,-0.507577,-1.80748,7.49821,0.14668,0.159966,2.76286,0
2024-12-11 21:01:08.760,-0.521934,-1.80987,7.50539,0.14668,0.159966,2.76286,0
2024-12-11 21:01:08.764,-0.54347,-1.81705,7.5341,0.101477,0.144694,2.76225,0
2024-12-11 21:01:08.766,-0.569791,-1.81466,7.57747,0.101477,0.144694,2.76225,0
2024-12-11 21:01:08.767,-0.591326,-1.80748,7.64686,0.0788757,0.140419,2.76408,0
2024-12-11 21:01:08.770,-0.596112,-1.79551,7.73779,0.0581068,0.138586,2.76408,0
2024-12-11 21:01:08.772,-0.60329,-1.79073,7.82872,0.0397814,0.136143,2.76531,0
2024-12-11 21:01:08.774,-0.612862,-1.78594,7.94118,0.0238994,0.138586,2.76836,0
2024-12-11 21:01:08.778,-0.605683,-1.79312,8.05843,-0.00419957,0.147138,2.77447,0
2024-12-11 21:01:08.780,-0.581755,-1.80987,8.15683,-0.0127514,0.155079,2.7763,0
2024-12-11 21:01:08.783,-0.553041,-1.81226,8.26212,-0.0206925,0.16302,2.77874,0
2024-12-11 21:01:08.785,-0.521934,-1.81705,8.35544,-0.0274118,0.172183,2.78058,0
2024-12-11 21:01:08.787,-0.486042,-1.82184,8.44158,-0.0274118,0.172183,2.78058,0
2024-12-11 21:01:08.789,-0.454935,-1.82184,8.51815,-0.0347419,0.183789,2.77936,0
2024-12-11 21:01:08.791,-0.435793,-1.83141,8.57079,-0.0390179,0.195395,2.7818,0
2024-12-11 21:01:08.794,-0.41665,-1.82423,8.63061,-0.0457372,0.209444,2.77997,0
2024-12-11 21:01:08.799,-0.387936,-1.78116,8.69522,-0.0610084,0.252204,2.7763,0
2024-12-11 21:01:08.800,-0.373579,-1.77637,8.70509,-0.0610084,0.252204,2.7763,0
2024-12-11 21:01:08.801,-0.373579,-1.77637,8.70509,-0.0610084,0.252204,2.7763,0
2024-12-11 21:01:08.803,-0.364008,-1.76919,8.72662,-0.0671168,0.267475,2.77264,0
2024-12-11 21:01:08.807,-0.359223,-1.72373,8.80559,-0.0817772,0.295574,2.76714,0
2024-12-11 21:01:08.810,-0.361615,-1.68544,8.81994,-0.0891073,0.307791,2.76531,0
2024-12-11 21:01:08.811,-0.361615,-1.68544,8.81994,-0.0964375,0.319397,2.76042,0
2024-12-11 21:01:08.812,-0.354437,-1.65434,8.84626,-0.0964375,0.319397,2.76042,0
2024-12-11 21:01:08.815,-0.349651,-1.65434,8.89412,-0.103768,0.332225,2.75859,0
2024-12-11 21:01:08.817,-0.328116,-1.64477,8.95155,-0.111709,0.341998,2.75248,0
2024-12-11 21:01:08.819,-0.311366,-1.61845,9.01137,-0.111709,0.341998,2.75248,0
2024-12-11 21:01:08.822,-0.287438,-1.60409,9.05683,-0.122093,0.362156,2.74454,0
2024-12-11 21:01:08.825,-0.256032,-1.58255,9.09751,-0.130645,0.384147,2.73232,0
2024-12-11 21:01:08.826,-0.244068,-1.5658,9.14058,-0.130645,0.384147,2.73232,0
2024-12-11 21:01:08.830,-0.239282,-1.56341,9.17647,-0.136143,0.406748,2.71644,0
2024-12-11 21:01:08.832,-0.239282,-1.56102,9.20519,-0.136143,0.406748,2.71644,0
2024-12-11 21:01:08.833,-0.239282,-1.56341,9.23151,-0.139197,0.416521,2.71033,0
2024-12-11 21:01:08.836,-0.267996,-1.56102,9.27009,-0.141029,0.422019,2.703,0
2024-12-11 21:01:08.840,-0.337687,-1.52034,9.36581,-0.142862,0.426295,2.692,0
2024-12-11 21:01:08.841,-0.337687,-1.52034,9.36581,-0.142862,0.426295,2.692,0
2024-12-11 21:01:08.843,-0.383151,-1.51795,9.40888,-0.14164,0.423241,2.68712,0
2024-12-11 21:01:08.845,-0.447757,-1.5012,9.45195,-0.141029,0.417743,2.68528,0
2024-12-11 21:01:08.850,-0.584148,-1.4653,9.56441,-0.13431,0.397585,2.68406,0
2024-12-11 21:01:08.851,-0.584148,-1.4653,9.56441,-0.130645,0.383536,2.68345,0
2024-12-11 21:01:08.852,-0.639183,-1.44377,9.61945,-0.130645,0.383536,2.68345,0
2024-12-11 21:01:08.855,-0.691825,-1.43898,9.67687,-0.125758,0.370097,2.6859,0
2024-12-11 21:01:08.857,-0.732503,-1.4342,9.73191,-0.118428,0.358491,2.69139,0
2024-12-11 21:01:08.860,-0.766002,-1.40788,9.78694,-0.108654,0.346274,2.6975,0
2024-12-11 21:01:08.862,-0.801895,-1.39083,9.85424,-0.101324,0.3365,2.70239,0
2024-12-11 21:01:08.864,-0.82343,-1.38844,9.92124,-0.0897182,0.327949,2.70972,0
2024-12-11 21:01:08.870,-0.854836,-1.37886,10.0241,-0.0536782,0.310234,2.73171,0
2024-12-11 21:01:08.871,-0.876371,-1.36451,10.06,-0.0536782,0.310234,2.73171,0
2024-12-11 21:01:08.872,-0.876371,-1.36451,10.06,-0.0408504,0.312067,2.74148,0
2024-12-11 21:01:08.873,-0.873978,-1.34058,10.0816,-0.0408504,0.312067,2.74148,0
2024-12-11 21:01:08.878,-0.85005,-1.30469,10.1414,-0.0158057,0.318786,2.76286,0
2024-12-11 21:01:08.878,-0.85005,-1.30469,10.1414,-0.0158057,0.318786,2.76286,0
2024-12-11 21:01:08.880,-0.84018,-1.28076,10.1605,-0.00175619,0.326116,2.77325,0
2024-12-11 21:01:08.884,-0.825823,-1.25204,10.1533,0.0202343,0.349939,2.7934,0
2024-12-11 21:01:08.888,-0.787538,-1.20658,10.1007,0.0269536,0.363989,2.80379,0
2024-12-11 21:01:08.888,-0.787538,-1.20658,10.1007,0.0269536,0.363989,2.80379,0
2024-12-11 21:01:08.890,-0.758824,-1.1659,10.0744,0.0342838,0.381703,2.8154,0
2024-12-11 21:01:08.892,-0.742074,-1.1348,10.0457,0.0391706,0.401861,2.8215,0
2024-12-11 21:01:08.898,-0.749253,-1.07019,9.94038,0.0422248,0.467222,2.84533,0
2024-12-11 21:01:08.900,-0.758824,-1.04148,9.9021,0.0367272,0.488601,2.85449,0
2024-12-11 21:01:08.900,-0.758824,-1.04148,9.9021,0.0367272,0.488601,2.85449,0
2024-12-11 21:01:08.902,-0.768395,-1.00558,9.8686,0.0367272,0.488601,2.85449,0
2024-12-11 21:01:08.904,-0.787538,-0.964906,9.84228,0.0367272,0.510592,2.86182,0
2024-12-11 21:01:08.906,-0.801895,-0.945763,9.82553,0.0300079,0.531972,2.86976,0
2024-12-11 21:01:08.909,-0.801895,-0.905085,9.8013,0.0238994,0.550297,2.87892,0
2024-12-11 21:01:08.911,-0.80668,-0.857229,9.77498,0.0147367,0.569844,2.88625,0
2024-12-11 21:01:08.913,-0.809073,-0.82343,9.76541,0.00740652,0.585726,2.89419,0
2024-12-11 21:01:08.917,-0.813859,-0.789931,9.76541,-0.0115297,0.621155,2.91008,0
2024-12-11 21:01:08.918,-0.821037,-0.766002,9.7678,-0.0115297,0.621155,2.91008,0
2024-12-11 21:01:08.921,-0.830609,-0.756431,9.7678,-0.0188599,0.634594,2.91741,0
2024-12-11 21:01:08.923,-0.828216,-0.73011,9.77259,-0.0274118,0.644978,2.92535,0
2024-12-11 21:01:08.926,-0.828216,-0.701396,9.78694,-0.0377962,0.652309,2.93268,0
2024-12-11 21:01:08.928,-0.845265,-0.696611,9.83031,-0.0469589,0.654752,2.94001,0
2024-12-11 21:01:08.931,-0.84018,-0.663111,9.87099,-0.0548999,0.654752,2.94856,0
2024-12-11 21:01:08.932,-0.821037,-0.624826,9.92124,-0.0622301,0.652309,2.95589,0
2024-12-11 21:01:08.935,-0.821037,-0.600898,10.0026,-0.0701711,0.646811,2.96261,0
2024-12-11 21:01:08.938,-0.809073,-0.574577,10.0672,-0.0750579,0.632761,2.9791,0
2024-12-11 21:01:08.940,-0.773181,-0.557827,10.1342,-0.0750579,0.632761,2.9791,0
2024-12-11 21:01:08.942,-0.751645,-0.536291,10.2275,-0.0793338,0.622377,2.98704,0
2024-12-11 21:01:08.944,-0.720539,-0.519542,10.3089,-0.0799446,0.613214,2.99559,0
2024-12-11 21:01:08.946,-0.667897,-0.498006,10.3857,-0.0793338,0.60283,3.00415,0
2024-12-11 21:01:08.950,-0.596112,-0.483649,10.4767,-0.0775012,0.593667,3.01026,0
2024-12-11 21:01:08.954,-0.462114,-0.474078,10.6585,-0.0707819,0.58145,3.02064,0
2024-12-11 21:01:08.954,-0.462114,-0.474078,10.6585,-0.0707819,0.58145,3.02064,0
2024-12-11 21:01:08.958,-0.337687,-0.447757,10.8691,-0.0573433,0.572287,3.02858,0
2024-12-11 21:01:08.958,-0.337687,-0.447757,10.8691,-0.0573433,0.572287,3.02858,0
2024-12-11 21:01:08.963,-0.222533,-0.41665,11.0417,-0.0377962,0.569233,3.03713,0
2024-12-11 21:01:08.964,-0.222533,-0.41665,11.0417,-0.0274118,0.565568,3.04202,0
2024-12-11 21:01:08.968,-0.102891,-0.402293,11.19,-0.0164165,0.567401,3.0463,0
2024-12-11 21:01:08.968,-0.102891,-0.402293,11.19,-0.0164165,0.567401,3.0463,0
2024-12-11 21:01:08.970,-0.0550349,-0.397508,11.2522,-0.00236703,0.565568,3.05363,0
2024-12-11 21:01:08.972,-0.0239282,-0.402293,11.3001,0.00923906,0.566179,3.06034,0
2024-12-11 21:01:08.977,0.0574277,-0.419043,11.3456,0.0348946,0.573509,3.07012,0
2024-12-11 21:01:08.977,0.0574277,-0.419043,11.3456,0.0348946,0.573509,3.07012,0
2024-12-11 21:01:08.982,0.119641,-0.378365,11.3839,0.0568851,0.582672,3.08905,0
2024-12-11 21:01:08.982,0.119641,-0.378365,11.3839,0.0568851,0.582672,3.08905,0
2024-12-11 21:01:08.984,0.162712,-0.364008,11.4245,0.0672696,0.585115,3.097,0
2024-12-11 21:01:08.986,0.222533,-0.34008,11.4652,0.077654,0.58878,3.1086,0
2024-12-11 21:01:08.989,0.297009,-0.297009,11.5011,0.0886492,0.591835,3.12326,0
2024-12-11 21:01:08.991,0.3999,-0.263211,11.5421,0.100866,0.596111,3.13365,0
2024-12-11 21:01:08.996,0.667897,-0.210568,11.5971,0.130798,0.608328,3.15625,0
