timestamp,accel_x,accel_y,accel_z,gyro_x,gyro_y,gyro_z,step_timestamp
2024-11-29 18:02:22.812,0.0143569,2.23849,9.79173,-0.0542891,-0.0531437,-0.0395524,0
2024-11-29 18:02:22.814,0.026321,2.24327,9.81087,-0.0542891,-0.0531437,-0.0395524,0
2024-11-29 18:02:22.814,0.026321,2.24327,9.81087,-0.0542891,-0.0531437,-0.0395524,0
2024-11-29 18:02:22.814,0.026321,2.24327,9.81087,-0.0542891,-0.0531437,-0.0395524,0
2024-11-29 18:02:22.814,0.026321,2.24327,9.81087,-0.0542891,-0.0531437,-0.0395524,0
2024-11-29 18:02:22.814,0.026321,2.24327,9.81087,-0.0542891,-0.0531437,-0.0395524,0
2024-11-29 18:02:22.814,0.026321,2.24327,9.81087,-0.0542891,-0.0531437,-0.0395524,0
2024-11-29 18:02:22.814,0.026321,2.24327,9.81087,-0.0542891,-0.0531437,-0.0395524,0
2024-11-29 18:02:22.814,0.026321,2.24327,9.81087,-0.0542891,-0.0531437,-0.0395524,0
2024-11-29 18:02:22.814,0.026321,2.24327,9.81087,-0.0542891,-0.0531437,-0.0395524,0
2024-11-29 18:02:22.814,0.026321,2.24327,9.81087,-0.0542891,-0.0531437,-0.0395524,0
2024-11-29 18:02:22.814,0.026321,2.24327,9.81087,-0.0542891,-0.0531437,-0.0395524,0
2024-11-29 18:02:22.814,0.026321,2.24327,9.81087,-0.0542891,-0.0531437,-0.0395524,0
2024-11-29 18:02:22.814,0.026321,2.24327,9.81087,-0.0542891,-0.0531437,-0.0395524,0
2024-11-29 18:02:22.814,0.026321,2.24327,9.81087,-0.0542891,-0.0531437,-0.0395524,0
2024-11-29 18:02:22.814,0.026321,2.24327,9.81087,-0.0542891,-0.0531437,-0.0395524,0
2024-11-29 18:02:22.814,0.026321,2.24327,9.81087,-0.0542891,-0.0531437,-0.0395524,0
2024-11-29 18:02:22.814,0.026321,2.24327,9.81087,-0.0542891,-0.0531437,-0.0395524,0
2024-11-29 18:02:22.814,0.026321,2.24327,9.81087,-0.0542891,-0.0531437,-0.0395524,0
2024-11-29 18:02:22.814,0.026321,2.24327,9.81087,-0.0542891,-0.0531437,-0.0395524,0
2024-11-29 18:02:22.814,0.026321,2.24327,9.81087,-0.0542891,-0.0531437,-0.0395524,0
2024-11-29 18:02:22.814,0.026321,2.24327,9.81087,-0.0542891,-0.0531437,-0.0395524,0
2024-11-29 18:02:22.814,0.026321,2.24327,9.81087,-0.0542891,-0.0531437,-0.0395524,0
2024-11-29 18:02:22.814,0.026321,2.24327,9.81087,-0.0542891,-0.0531437,-0.0395524,0
2024-11-29 18:02:22.814,0.026321,2.24327,9.81087,-0.0542891,-0.0531437,-0.0395524,0
2024-11-29 18:02:22.814,0.026321,2.24327,9.81087,-0.0542891,-0.0531437,-0.0395524,0
2024-11-29 18:02:22.814,0.026321,2.24327,9.81087,-0.0542891,-0.0531437,-0.0395524,0
2024-11-29 18:02:22.815,0.026321,2.24327,9.81087,-0.0542891,-0.0531437,-0.0395524,0
2024-11-29 18:02:22.815,0.026321,2.24327,9.81087,-0.0542891,-0.0531437,-0.0395524,0
2024-11-29 18:02:22.815,0.026321,2.24327,9.81087,-0.0542891,-0.0531437,-0.0395524,0
2024-11-29 18:02:22.815,0.026321,2.24327,9.81087,-0.0542891,-0.0531437,-0.0395524,0
2024-11-29 18:02:22.815,0.026321,2.24327,9.81087,-0.0542891,-0.0531437,-0.0395524,0
2024-11-29 18:02:22.815,0.026321,2.24327,9.81087,-0.0542891,-0.0531437,-0.0395524,0
2024-11-29 18:02:22.815,0.026321,2.24327,9.81087,-0.0542891,-0.0531437,-0.0395524,0
2024-11-29 18:02:22.815,0.026321,2.24327,9.81087,-0.0542891,-0.0531437,-0.0395524,0
2024-11-29 18:02:22.815,0.026321,2.24327,9.81087,-0.0542891,-0.0531437,-0.0395524,0
2024-11-29 18:02:22.815,0.026321,2.24327,9.81087,-0.0542891,-0.0531437,-0.0395524,0
2024-11-29 18:02:22.815,0.026321,2.24327,9.81087,-0.0542891,-0.0531437,-0.0395524,0
2024-11-29 18:02:22.815,0.026321,2.24327,9.81087,-0.0542891,-0.0531437,-0.0395524,0
2024-11-29 18:02:22.815,0.026321,2.24327,9.81087,-0.0542891,-0.0531437,-0.0395524,0
2024-11-29 18:02:22.815,0.026321,2.24327,9.81087,-0.0542891,-0.0531437,-0.0395524,0
2024-11-29 18:02:22.815,0.026321,2.24327,9.81087,-0.0542891,-0.0531437,-0.0395524,0
2024-11-29 18:02:22.815,0.026321,2.24327,9.81087,-0.0542891,-0.0531437,-0.0395524,0
2024-11-29 18:02:22.815,0.026321,2.24327,9.81087,-0.0542891,-0.0531437,-0.0395524,0
2024-11-29 18:02:22.815,0.026321,2.24327,9.81087,-0.0542891,-0.0531437,-0.0395524,0
2024-11-29 18:02:22.815,0.026321,2.24327,9.81087,-0.0542891,-0.0531437,-0.0395524,0
2024-11-29 18:02:22.815,0.026321,2.24327,9.81087,-0.0542891,-0.0531437,-0.0395524,0
2024-11-29 18:02:22.815,0.026321,2.24327,9.81087,-0.0542891,-0.0531437,-0.0395524,0
2024-11-29 18:02:22.815,0.026321,2.24327,9.81087,-0.0542891,-0.0531437,-0.0395524,0
2024-11-29 18:02:22.815,0.026321,2.24327,9.81087,-0.0542891,-0.0531437,-0.0395524,0
2024-11-29 18:02:22.815,0.026321,2.24327,9.81087,-0.0542891,-0.0531437,-0.0395524,0
2024-11-29 18:02:22.815,0.026321,2.24327,9.81087,-0.0542891,-0.0531437,-0.0395524,0
2024-11-29 18:02:22.815,0.026321,2.24327,9.81087,-0.0542891,-0.0531437,-0.0395524,0
2024-11-29 18:02:22.815,0.026321,2.24327,9.81087,-0.0542891,-0.0531437,-0.0395524,0
2024-11-29 18:02:22.815,0.026321,2.24327,9.81087,-0.0542891,-0.0531437,-0.0395524,0
2024-11-29 18:02:22.815,0.026321,2.24327,9.81087,-0.0542891,-0.0531437,-0.0395524,0
2024-11-29 18:02:22.815,0.026321,2.24327,9.81087,-0.0542891,-0.0531437,-0.0395524,0
2024-11-29 18:02:22.815,0.026321,2.24327,9.81087,-0.0542891,-0.0531437,-0.0395524,0
2024-11-29 18:02:22.847,0.0574277,2.21695,10.2515,-0.0329094,-0.0525329,-0.0364981,0
2024-11-29 18:02:22.847,0.0574277,2.21695,10.2515,-0.0329094,-0.0525329,-0.0364981,0
2024-11-29 18:02:22.849,0.0478565,2.21216,10.2515,-0.0268009,-0.0488678,-0.0346656,0
2024-11-29 18:02:22.849,0.0478565,2.21216,10.2515,-0.0268009,-0.0488678,-0.0346656,0
2024-11-29 18:02:22.849,0.0478565,2.21216,10.2515,-0.0268009,-0.0488678,-0.0346656,0
2024-11-29 18:02:22.850,0.0478565,2.21216,10.2515,-0.0200816,-0.0476461,-0.0334439,0
2024-11-29 18:02:22.850,0.0478565,2.21216,10.2515,-0.0200816,-0.0476461,-0.0334439,0
2024-11-29 18:02:22.851,0.0287139,2.20977,10.2491,-0.0200816,-0.0476461,-0.0334439,0
2024-11-29 18:02:22.851,0.0287139,2.20977,10.2491,-0.0200816,-0.0476461,-0.0334439,0
2024-11-29 18:02:22.851,0.0287139,2.20977,10.2491,-0.0200816,-0.0476461,-0.0334439,0
2024-11-29 18:02:22.852,0.0287139,2.20977,10.2491,-0.0151948,-0.0433702,-0.0322222,0
2024-11-29 18:02:22.852,0.0287139,2.20977,10.2491,-0.0151948,-0.0433702,-0.0322222,0
2024-11-29 18:02:22.852,0.0287139,2.20977,10.2491,-0.0151948,-0.0433702,-0.0322222,0
2024-11-29 18:02:22.852,0.0287139,2.20977,10.2491,-0.0151948,-0.0433702,-0.0322222,0
2024-11-29 18:02:22.854,0.026321,2.21216,10.2515,-0.0151948,-0.0433702,-0.0322222,0
2024-11-29 18:02:22.854,0.026321,2.21216,10.2515,-0.0151948,-0.0433702,-0.0322222,0
2024-11-29 18:02:22.855,0.026321,2.21216,10.2515,-0.0151948,-0.0433702,-0.0322222,0
2024-11-29 18:02:22.856,0.0239282,2.21216,10.2395,-0.0151948,-0.0433702,-0.0322222,0
2024-11-29 18:02:22.858,0.0191426,2.21216,10.2251,-0.00419957,-0.0384834,-0.0273354,0
2024-11-29 18:02:22.862,0.00478565,2.20259,10.206,-0.00114534,-0.0366508,-0.0267246,0
2024-11-29 18:02:22.864,-0.0119641,2.2002,10.1749,0.00679568,-0.0293207,-0.0212269,0
2024-11-29 18:02:22.866,-0.0143569,2.2002,10.1438,0.00679568,-0.0293207,-0.0212269,0
2024-11-29 18:02:22.868,-0.0239282,2.19541,10.1127,0.00740652,-0.0250447,-0.0200052,0
2024-11-29 18:02:22.871,-0.0287139,2.19302,10.084,0.0116825,-0.0232122,-0.0181727,0
2024-11-29 18:02:22.872,-0.0358923,2.19302,10.06,0.013515,-0.0213797,-0.0151185,0
2024-11-29 18:02:22.877,-0.0454636,2.19781,9.99542,0.0141258,-0.0146603,-0.0102317,0
2024-11-29 18:02:22.880,-0.0191426,2.22174,9.96431,0.0147367,-0.0109953,-0.0102317,0
2024-11-29 18:02:22.882,-0.00478565,2.23609,9.93799,0.0159584,-0.00794101,-0.00717746,0
2024-11-29 18:02:22.883,-0.00478565,2.23609,9.93799,0.0159584,-0.00305424,-0.00717746,0
2024-11-29 18:02:22.884,0.00717847,2.2337,9.89971,0.0159584,-0.00305424,-0.00717746,0
2024-11-29 18:02:22.887,0.00957129,2.23609,9.85903,0.0147367,0.00122169,-0.00656661,0
2024-11-29 18:02:22.891,0.0382852,2.24327,9.79412,0.0141258,0.00733017,-0.00534491,0
2024-11-29 18:02:22.892,0.0382852,2.24327,9.79412,0.0141258,0.00733017,-0.00534491,0
2024-11-29 18:02:22.894,0.040678,2.25763,9.76302,0.0110716,0.00855186,-0.00595576,0
2024-11-29 18:02:22.899,0.0598206,2.26241,9.70798,0.00618483,0.00977356,-0.00901,0
2024-11-29 18:02:22.901,0.0646062,2.26241,9.69362,0.00618483,0.00977356,-0.00901,0
2024-11-29 18:02:22.903,0.0693919,2.26241,9.69362,-0.00114534,0.00610847,-0.0132859,0
2024-11-29 18:02:22.906,0.066999,2.27438,9.69123,-0.00664296,0.00366508,-0.0138968,0
2024-11-29 18:02:22.910,0.0885344,2.27916,9.68166,-0.0115297,0.000610847,-0.0151185,0
2024-11-29 18:02:22.911,0.0885344,2.27916,9.68166,-0.0115297,0.000610847,-0.0151185,0
2024-11-29 18:02:22.916,0.102891,2.25763,9.71755,-0.0188599,-0.0103844,-0.0212269,0
2024-11-29 18:02:22.918,0.112463,2.25524,9.74148,-0.022525,-0.0140495,-0.0218378,0
2024-11-29 18:02:22.923,0.105284,2.24806,9.80848,-0.0261901,-0.0189363,-0.024892,0
2024-11-29 18:02:22.924,0.0981057,2.23849,9.83749,-0.0261901,-0.0189363,-0.024892,0
2024-11-29 18:02:22.927,0.0981057,2.23609,9.86621,-0.0261901,-0.0189363,-0.024892,0
2024-11-29 18:02:22.935,0.0765703,2.22652,9.93799,-0.0096972,-0.0177146,-0.0261137,0
2024-11-29 18:02:22.935,0.0765703,2.22652,9.93799,-0.0096972,-0.0177146,-0.0261137,0
2024-11-29 18:02:22.937,0.0598206,2.22891,9.94995,-0.00358873,-0.0164929,-0.0242812,0
2024-11-29 18:02:22.937,0.0598206,2.22891,9.94995,-0.00358873,-0.0164929,-0.0242812,0
2024-11-29 18:02:22.937,0.0598206,2.22891,9.94995,-0.00358873,-0.0164929,-0.0242812,0
2024-11-29 18:02:22.938,0.0478565,2.23609,9.95235,-0.00358873,-0.0164929,-0.0242812,0
2024-11-29 18:02:22.938,0.0478565,2.23609,9.95235,-0.00358873,-0.0164929,-0.0242812,0
2024-11-29 18:02:22.939,0.0478565,2.23609,9.95235,-0.00358873,-0.0164929,-0.0242812,0
2024-11-29 18:02:22.942,0.0526421,2.23849,9.95474,7.63559e-05,-0.0189363,-0.0218378,0
2024-11-29 18:02:22.944,0.0574277,2.21456,9.94756,0.00740652,-0.0177146,-0.0193944,0
2024-11-29 18:02:22.946,0.0622134,2.20738,9.93081,0.00740652,-0.0177146,-0.0193944,0
2024-11-29 18:02:22.948,0.0622134,2.20499,9.91406,0.0104608,-0.0164929,-0.0181727,0
2024-11-29 18:02:22.951,0.0526421,2.2002,9.89253,0.013515,-0.015882,-0.0181727,0
2024-11-29 18:02:22.954,0.0550349,2.20259,9.86381,0.0171801,-0.0140495,-0.0138968,0
2024-11-29 18:02:22.956,0.0550349,2.20499,9.82074,0.0184018,-0.0116061,-0.0108425,0
2024-11-29 18:02:22.958,0.066999,2.21456,9.78216,0.0184018,-0.0116061,-0.0108425,0
2024-11-29 18:02:22.960,0.0837488,2.23131,9.75584,0.0202343,-0.0103844,-0.00962084,0
2024-11-29 18:02:22.962,0.0909273,2.22891,9.7343,0.0177909,-0.00855186,-0.00717746,0
2024-11-29 18:02:22.965,0.102891,2.24088,9.70559,0.0165692,-0.00549763,-0.00656661,0
2024-11-29 18:02:22.968,0.117248,2.25045,9.66491,0.0153475,-0.00610847,-0.00534491,0
2024-11-29 18:02:22.970,0.136391,2.24088,9.63859,0.00801737,-0.00733017,-0.00595576,0
2024-11-29 18:02:22.972,0.153141,2.24566,9.60987,0.00801737,-0.00733017,-0.00595576,0
2024-11-29 18:02:22.975,0.181855,2.25763,9.58595,0.00496313,-0.0103844,-0.0077883,0
2024-11-29 18:02:22.976,0.210568,2.25763,9.57159,7.63559e-05,-0.0109953,-0.00839915,0
2024-11-29 18:02:22.978,0.224925,2.26241,9.55963,-0.00358873,-0.0140495,-0.0102317,0
2024-11-29 18:02:22.982,0.239282,2.27677,9.5668,-0.0115297,-0.0164929,-0.0138968,0
2024-11-29 18:02:22.984,0.239282,2.28395,9.5668,-0.0158057,-0.0183254,-0.0175619,0
2024-11-29 18:02:22.986,0.248854,2.28156,9.57398,-0.0206925,-0.0232122,-0.0206161,0
2024-11-29 18:02:22.988,0.270389,2.28873,9.6003,-0.0268009,-0.0250447,-0.0255029,0
2024-11-29 18:02:22.991,0.275175,2.29831,9.61227,-0.0310769,-0.0268773,-0.029168,0
2024-11-29 18:02:22.993,0.270389,2.30309,9.63141,-0.0329094,-0.028099,-0.0364981,0
2024-11-29 18:02:22.996,0.258425,2.31266,9.6673,-0.0371853,-0.0305424,-0.0395524,0
2024-11-29 18:02:22.997,0.260818,2.3007,9.69362,-0.0396287,-0.0335966,-0.0456608,0
2024-11-29 18:02:23.000,0.275175,2.29591,9.71994,-0.0414613,-0.0378725,-0.0505476,0
2024-11-29 18:02:23.003,0.267996,2.29591,9.74627,-0.0402396,-0.0384834,-0.0554344,0
2024-11-29 18:02:23.005,0.248854,2.28873,9.7678,-0.0432938,-0.0421485,-0.0603212,0
2024-11-29 18:02:23.008,0.217747,2.28395,9.79412,-0.0445155,-0.0409268,-0.0676513,0
2024-11-29 18:02:23.009,0.179462,2.27438,9.79891,-0.0445155,-0.0409268,-0.0676513,0
2024-11-29 18:02:23.012,0.153141,2.27438,9.80369,-0.0439046,-0.0409268,-0.0725381,0
2024-11-29 18:02:23.014,0.119641,2.26002,9.82792,-0.0469589,-0.0421485,-0.0737598,0
2024-11-29 18:02:23.017,0.0933201,2.2337,9.84228,-0.046348,-0.0403159,-0.0725381,0
2024-11-29 18:02:23.019,0.0693919,2.22891,9.84467,-0.0445155,-0.0397051,-0.0737598,0
2024-11-29 18:02:23.021,0.0334995,2.22174,9.85424,-0.0475697,-0.0403159,-0.0719273,0
2024-11-29 18:02:23.024,0.0,2.19781,9.85664,-0.0451263,-0.0384834,-0.0707056,0
2024-11-29 18:02:23.027,-0.0215354,2.18106,9.87578,-0.042683,-0.0378725,-0.0627646,0
2024-11-29 18:02:23.029,-0.040678,2.15474,9.88774,-0.0432938,-0.0366508,-0.0578778,0
2024-11-29 18:02:23.031,-0.0526421,2.15234,9.87817,-0.0408504,-0.03604,-0.052991,0
2024-11-29 18:02:23.034,-0.066999,2.14756,9.88535,-0.0420721,-0.0354291,-0.0487151,0
2024-11-29 18:02:23.036,-0.0765703,2.12124,9.89253,-0.0420721,-0.0354291,-0.0487151,0
2024-11-29 18:02:23.038,-0.0789631,2.13081,9.89013,-0.0408504,-0.0342074,-0.0346656,0
2024-11-29 18:02:23.041,-0.0693919,2.13081,9.9021,-0.0408504,-0.0342074,-0.0346656,0
2024-11-29 18:02:23.042,-0.0550349,2.13559,9.91406,-0.0402396,-0.0342074,-0.0310005,0
2024-11-29 18:02:23.045,-0.0478565,2.14517,9.91885,-0.0408504,-0.0354291,-0.0273354,0
2024-11-29 18:02:23.048,-0.0287139,2.14517,9.92363,-0.0396287,-0.0427593,-0.0193944,0
2024-11-29 18:02:23.049,0.00478565,2.15952,9.94278,-0.0396287,-0.0427593,-0.0193944,0
2024-11-29 18:02:23.052,0.040678,2.16431,9.96431,-0.0408504,-0.0464244,-0.016951,0
2024-11-29 18:02:23.054,0.0789631,2.1667,9.98106,-0.0414613,-0.0482569,-0.0163402,0
2024-11-29 18:02:23.056,0.100499,2.18584,10.0122,-0.0396287,-0.0525329,-0.0157293,0
2024-11-29 18:02:23.060,0.11007,2.20259,10.0552,-0.0402396,-0.0610847,-0.0163402,0
2024-11-29 18:02:23.062,0.119641,2.22174,10.0816,-0.0402396,-0.0610847,-0.0163402,0
2024-11-29 18:02:23.063,0.131605,2.24806,10.1175,-0.0365745,-0.0616956,-0.0151185,0
2024-11-29 18:02:23.067,0.150748,2.25763,10.1629,-0.0359636,-0.0653607,-0.0132859,0
2024-11-29 18:02:23.068,0.165105,2.25524,10.1892,-0.0335202,-0.0647498,-0.0157293,0
2024-11-29 18:02:23.071,0.162712,2.26241,10.218,-0.0280226,-0.0635281,-0.0163402,0
2024-11-29 18:02:23.073,0.181855,2.28156,10.2538,-0.0255792,-0.064139,-0.0187836,0
2024-11-29 18:02:23.075,0.200997,2.28873,10.2826,-0.0194708,-0.0604739,-0.0212269,0
2024-11-29 18:02:23.077,0.196211,2.30309,10.2945,-0.0151948,-0.0555871,-0.0242812,0
2024-11-29 18:02:23.081,0.191426,2.31027,10.2945,-0.00481042,-0.0415376,-0.0236703,0
2024-11-29 18:02:23.082,0.18664,2.3007,10.285,-0.00481042,-0.0415376,-0.0236703,0
2024-11-29 18:02:23.085,0.179462,2.29831,10.2682,0.00374144,-0.0342074,-0.0255029,0
2024-11-29 18:02:23.087,0.155533,2.31027,10.2443,0.00801737,-0.0274881,-0.0273354,0
2024-11-29 18:02:23.089,0.136391,2.33181,10.2132,0.0129041,-0.0177146,-0.0279463,0
2024-11-29 18:02:23.092,0.119641,2.32223,10.1845,0.0165692,-0.0116061,-0.0273354,0
2024-11-29 18:02:23.094,0.0957129,2.32223,10.1414,0.021456,0.0,-0.0267246,0
2024-11-29 18:02:23.097,0.0622134,2.34138,10.0816,0.0238994,0.00549763,-0.024892,0
2024-11-29 18:02:23.100,0.0334995,2.34856,10.0337,0.0263428,0.0146603,-0.0230595,0
2024-11-29 18:02:23.102,0.0191426,2.35813,9.98106,0.0287862,0.0268773,-0.0218378,0
2024-11-29 18:02:23.103,0.0119641,2.36052,9.90449,0.0287862,0.0268773,-0.0218378,0
2024-11-29 18:02:23.107,0.00957129,2.35095,9.84228,0.0300079,0.0323749,-0.0175619,0
2024-11-29 18:02:23.108,0.00239282,2.35813,9.79652,0.0300079,0.0323749,-0.0175619,0
2024-11-29 18:02:23.110,0.00478565,2.35813,9.75344,0.0281753,0.0329858,-0.0151185,0
2024-11-29 18:02:23.114,0.00957129,2.35573,9.71277,0.0257319,0.0311532,-0.0132859,0
2024-11-29 18:02:23.116,0.0239282,2.3677,9.67687,0.0245102,0.0305424,-0.0120642,0
2024-11-29 18:02:23.118,0.040678,2.37248,9.6338,0.0196235,0.0274881,-0.0126751,0
2024-11-29 18:02:23.120,0.0430708,2.37966,9.59313,0.0171801,0.0256556,-0.0126751,0
2024-11-29 18:02:23.122,0.0622134,2.38684,9.57398,0.0153475,0.0189363,-0.0114534,0
2024-11-29 18:02:23.124,0.0789631,2.3988,9.5692,0.0116825,0.0140495,-0.0132859,0
2024-11-29 18:02:23.127,0.100499,2.41795,9.57638,0.00679568,0.00916271,-0.0126751,0
2024-11-29 18:02:23.129,0.12682,2.4323,9.59552,0.00557398,0.00244339,-0.0138968,0
2024-11-29 18:02:23.133,0.160319,2.4347,9.61227,0.00496313,-0.00244339,-0.016951,0
2024-11-29 18:02:23.135,0.191426,2.44427,9.62663,0.0019089,-0.00916271,-0.0206161,0
2024-11-29 18:02:23.136,0.222533,2.44905,9.64337,0.00129805,-0.0164929,-0.0224486,0
2024-11-29 18:02:23.140,0.251246,2.44905,9.65534,0.00129805,-0.0219905,-0.0273354,0
2024-11-29 18:02:23.141,0.275175,2.45384,9.6697,0.00129805,-0.0268773,-0.0316113,0
2024-11-29 18:02:23.144,0.297009,2.4658,9.69602,0.00251974,-0.0384834,-0.0432174,0
2024-11-29 18:02:23.146,0.316152,2.45863,9.70798,0.00251974,-0.0384834,-0.0432174,0
2024-11-29 18:02:23.149,0.332901,2.45384,9.71277,0.00374144,-0.0433702,-0.0474934,0
2024-11-29 18:02:23.151,0.347258,2.44427,9.72712,0.00496313,-0.0482569,-0.0548235,0
2024-11-29 18:02:23.154,0.347258,2.43709,9.73669,0.00862822,-0.059863,-0.0652079,0
2024-11-29 18:02:23.156,0.342473,2.44188,9.74627,0.00862822,-0.059863,-0.0652079,0
2024-11-29 18:02:23.157,0.359223,2.41316,9.76302,0.0110716,-0.0647498,-0.0713164,0
2024-11-29 18:02:23.160,0.378365,2.38445,9.77019,0.0104608,-0.07208,-0.0749815,0
2024-11-29 18:02:23.162,0.383151,2.37488,9.77019,0.0116825,-0.0757451,-0.0804791,0
2024-11-29 18:02:23.166,0.383151,2.35334,9.78934,0.0141258,-0.0818535,-0.0835334,0
2024-11-29 18:02:23.167,0.392722,2.31745,9.79412,0.0159584,-0.087962,-0.0878093,0
2024-11-29 18:02:23.170,0.397508,2.29113,9.78934,0.0196235,-0.0952922,-0.0914744,0
2024-11-29 18:02:23.173,0.385544,2.27438,9.80848,0.0226777,-0.110563,-0.0963612,0
2024-11-29 18:02:23.174,0.387936,2.24806,9.83271,0.0226777,-0.110563,-0.0963612,0
2024-11-29 18:02:23.177,0.411865,2.21216,9.83988,0.0245102,-0.116672,-0.100026,0
2024-11-29 18:02:23.179,0.426222,2.18584,9.8351,0.0257319,-0.12278,-0.100026,0
2024-11-29 18:02:23.186,0.440578,2.11884,9.85424,0.0342838,-0.130721,-0.104302,0
2024-11-29 18:02:23.186,0.440578,2.11884,9.85424,0.0342838,-0.130721,-0.104302,0
2024-11-29 18:02:23.187,0.440578,2.11884,9.85424,0.0367272,-0.131332,-0.10308,0
2024-11-29 18:02:23.189,0.462114,2.0997,9.85903,0.0385597,-0.1295,-0.103691,0
2024-11-29 18:02:23.191,0.502792,2.07099,9.86621,0.0385597,-0.1295,-0.103691,0
2024-11-29 18:02:23.193,0.541077,2.03988,9.85903,0.0422248,-0.127667,-0.106135,0
2024-11-29 18:02:23.196,0.576969,2.0351,9.83988,0.0440574,-0.126445,-0.107356,0
2024-11-29 18:02:23.198,0.593719,2.01117,9.82074,0.0434465,-0.12278,-0.107967,0
2024-11-29 18:02:23.201,0.629611,1.95105,9.81087,0.0452791,-0.116061,-0.1098,0
2024-11-29 18:02:23.203,0.667897,1.92233,9.77977,0.0452791,-0.103233,-0.114076,0
2024-11-29 18:02:23.206,0.689432,1.93191,9.75823,0.0477224,-0.0952922,-0.117741,0
2024-11-29 18:02:23.207,0.71336,1.91516,9.73669,0.0477224,-0.0952922,-0.117741,0
2024-11-29 18:02:23.210,0.732503,1.9008,9.70319,0.0452791,-0.0781884,-0.122628,0
2024-11-29 18:02:23.213,0.751645,1.89601,9.67687,0.0465007,-0.0702474,-0.12446,0
2024-11-29 18:02:23.215,0.777966,1.87687,9.65534,0.0465007,-0.0702474,-0.12446,0
2024-11-29 18:02:23.217,0.785145,1.86012,9.62902,0.0452791,-0.0616956,-0.127514,0
2024-11-29 18:02:23.220,0.801895,1.84576,9.59073,0.0465007,-0.0537546,-0.13179,0
2024-11-29 18:02:23.221,0.84018,1.84816,9.56441,0.0471116,-0.0452027,-0.133623,0
2024-11-29 18:02:23.223,0.862014,1.84337,9.54288,0.0465007,-0.0378725,-0.137288,0
2024-11-29 18:02:23.226,0.881157,1.82184,9.51177,0.0458899,-0.0287098,-0.142786,0
2024-11-29 18:02:23.229,0.895514,1.82184,9.47348,0.0458899,-0.0232122,-0.14584,0
2024-11-29 18:02:23.231,0.905085,1.83141,9.42084,0.0465007,-0.0146603,-0.150727,0
2024-11-29 18:02:23.234,0.914656,1.81705,9.36581,0.0458899,0.0,-0.1605,0
2024-11-29 18:02:23.236,0.931406,1.8003,9.32513,0.0452791,0.00855186,-0.164165,0
2024-11-29 18:02:23.239,0.936192,1.81226,9.28206,0.0452791,0.00855186,-0.164165,0
2024-11-29 18:02:23.240,0.936192,1.80748,9.22672,0.0458899,0.0128278,-0.169052,0
2024-11-29 18:02:23.242,0.950549,1.81466,9.18365,0.0434465,0.0171037,-0.172106,0
2024-11-29 18:02:23.246,0.962513,1.84576,9.13819,0.0391706,0.0262664,-0.180047,0
2024-11-29 18:02:23.248,0.972084,1.87448,9.08794,0.0397814,0.0293207,-0.183712,0
2024-11-29 18:02:23.249,0.979263,1.89601,9.04008,0.0397814,0.0293207,-0.183712,0
2024-11-29 18:02:23.252,0.981655,1.91276,8.98744,0.0355055,0.0323749,-0.188599,0
2024-11-29 18:02:23.255,0.988834,1.94626,8.94916,0.0330621,0.0305424,-0.188599,0
2024-11-29 18:02:23.257,1.00319,1.97288,8.92523,0.0300079,0.0305424,-0.189821,0
2024-11-29 18:02:23.259,1.01755,1.98724,8.88216,0.0257319,0.028099,-0.195318,0
2024-11-29 18:02:23.262,1.05823,2.01117,8.8343,0.0208452,0.0244339,-0.198373,0
2024-11-29 18:02:23.264,1.11565,2.01835,8.81516,0.0184018,0.0171037,-0.203259,0
2024-11-29 18:02:23.266,1.1683,2.01595,8.80798,0.0122933,0.00855186,-0.208757,0
2024-11-29 18:02:23.269,1.22094,2.0327,8.81277,0.00251974,-0.0164929,-0.222807,0
2024-11-29 18:02:23.271,1.24965,2.05424,8.82952,0.00251974,-0.0164929,-0.222807,0
2024-11-29 18:02:23.273,1.2664,2.07338,8.84626,-0.00236703,-0.0293207,-0.229526,0
2024-11-29 18:02:23.276,1.29272,2.12124,8.84626,-0.00725381,-0.0397051,-0.238689,0
2024-11-29 18:02:23.278,1.30229,2.17627,8.84626,-0.0115297,-0.043981,-0.247851,0
2024-11-29 18:02:23.281,1.32144,2.20738,8.87019,-0.0121406,-0.043981,-0.25396,0
2024-11-29 18:02:23.283,1.35494,2.24088,8.89891,-0.014584,-0.0458135,-0.270453,0
2024-11-29 18:02:23.285,1.39322,2.25284,8.89412,-0.014584,-0.0458135,-0.270453,0
2024-11-29 18:02:23.288,1.43181,2.24088,8.87976,-0.0164165,-0.0488678,-0.287556,0
2024-11-29 18:02:23.289,1.47727,2.23609,8.86062,-0.0164165,-0.0488678,-0.287556,0
2024-11-29 18:02:23.292,1.52034,2.22891,8.81037,-0.0200816,-0.0537546,-0.298552,0
2024-11-29 18:02:23.294,1.55384,2.21934,8.75294,-0.0274118,-0.0531437,-0.310769,0
2024-11-29 18:02:23.297,1.57298,2.22891,8.69761,-0.0329094,-0.0537546,-0.324207,0
2024-11-29 18:02:23.299,1.54666,2.26002,8.63779,-0.0414613,-0.0488678,-0.337646,0
2024-11-29 18:02:23.302,1.50359,2.3007,8.57318,-0.050624,-0.0415376,-0.348641,0
2024-11-29 18:02:23.304,1.45095,2.34377,8.51815,-0.0628409,-0.0311532,-0.359636,0
2024-11-29 18:02:23.306,1.38365,2.38445,8.47747,-0.0726145,-0.0219905,-0.372464,0
2024-11-29 18:02:23.309,1.31904,2.41316,8.43919,-0.0836097,-0.0122169,-0.379794,0
2024-11-29 18:02:23.311,1.27358,2.44427,8.40808,-0.0982701,-0.00610847,-0.388957,0
2024-11-29 18:02:23.314,1.21615,2.49212,8.38176,-0.11232,0.00183254,-0.396898,0
2024-11-29 18:02:23.316,1.1683,2.54028,8.34108,-0.139808,0.0213797,-0.41278,0
2024-11-29 18:02:23.318,1.1324,2.56899,8.29562,-0.139808,0.0213797,-0.41278,0
2024-11-29 18:02:23.321,1.08455,2.57857,8.25494,-0.155079,0.0299315,-0.420721,0
2024-11-29 18:02:23.322,1.03669,2.60967,8.22622,-0.169739,0.0397051,-0.425608,0
2024-11-29 18:02:23.325,0.969691,2.64556,8.21426,-0.183789,0.0507003,-0.432938,0
2024-11-29 18:02:23.328,0.881157,2.67189,8.19751,-0.21372,0.067804,-0.447598,0
2024-11-29 18:02:23.329,0.80668,2.70778,8.18315,-0.21372,0.067804,-0.447598,0
2024-11-29 18:02:23.332,0.718146,2.74367,8.1688,-0.227159,0.0769668,-0.450042,0
2024-11-29 18:02:23.335,0.610469,2.78435,8.14965,-0.252814,0.0873512,-0.454928,0
2024-11-29 18:02:23.336,0.517149,2.84417,8.11825,-0.252814,0.0873512,-0.454928,0
2024-11-29 18:02:23.339,0.41665,2.88245,8.07518,-0.266253,0.0861295,-0.453096,0
2024-11-29 18:02:23.341,0.304188,2.90638,8.04168,-0.279692,0.0830752,-0.451874,0
2024-11-29 18:02:23.344,0.210568,2.95185,8.01775,-0.294352,0.0794101,-0.44882,0
2024-11-29 18:02:23.347,0.122034,2.99252,7.98186,-0.324894,0.0586413,-0.435992,0
2024-11-29 18:02:23.349,0.0430708,3.02842,7.95075,-0.34322,0.0421485,-0.429273,0
2024-11-29 18:02:23.351,-0.0167498,3.05713,7.92682,-0.34322,0.0421485,-0.429273,0
2024-11-29 18:02:23.354,-0.0574277,3.08584,7.91247,-0.363378,0.0207688,-0.418889,0
2024-11-29 18:02:23.355,-0.0861416,3.12921,7.90768,-0.384147,-0.00183254,-0.410337,0
2024-11-29 18:02:23.358,-0.105284,3.17228,7.94357,-0.406137,-0.0268773,-0.399341,0
2024-11-29 18:02:23.360,-0.100499,3.22014,8.00818,-0.426295,-0.0555871,-0.39079,0
2024-11-29 18:02:23.363,-0.0861416,3.27278,8.08236,-0.446453,-0.087962,-0.385292,0
2024-11-29 18:02:23.366,-0.0646062,3.32303,8.18794,-0.488601,-0.156988,-0.376129,0
2024-11-29 18:02:23.367,-0.0502493,3.37328,8.30758,-0.488601,-0.156988,-0.376129,0
2024-11-29 18:02:23.370,-0.0239282,3.41157,8.45354,-0.507538,-0.193639,-0.371853,0
2024-11-29 18:02:23.372,0.0119641,3.44267,8.61625,-0.522198,-0.227846,-0.370021,0
2024-11-29 18:02:23.374,0.0550349,3.47617,8.77687,-0.536248,-0.260832,-0.367577,0
2024-11-29 18:02:23.378,0.102891,3.50967,8.9348,-0.55946,-0.334133,-0.373075,0
2024-11-29 18:02:23.379,0.150748,3.53599,9.12144,-0.55946,-0.334133,-0.373075,0
2024-11-29 18:02:23.382,0.205783,3.55514,9.33231,-0.574731,-0.402548,-0.382849,0
2024-11-29 18:02:23.384,0.256032,3.59103,9.52613,-0.574731,-0.402548,-0.382849,0
2024-11-29 18:02:23.387,0.287438,3.58624,9.71277,-0.579618,-0.434312,-0.388957,0
2024-11-29 18:02:23.388,0.30658,3.57189,9.88774,-0.583283,-0.466687,-0.394455,0
2024-11-29 18:02:23.391,0.32333,3.56471,10.0624,-0.582672,-0.496008,-0.401174,0
2024-11-29 18:02:23.394,0.332901,3.55514,10.2347,-0.580839,-0.522885,-0.404839,0
2024-11-29 18:02:23.396,0.330509,3.56231,10.3905,-0.58145,-0.547319,-0.407282,0
2024-11-29 18:02:23.398,0.330509,3.55753,10.558,-0.575342,-0.566255,-0.409115,0
2024-11-29 18:02:23.401,0.332901,3.54317,10.7495,-0.570455,-0.584581,-0.411558,0
2024-11-29 18:02:23.402,0.313759,3.52164,10.9484,-0.563125,-0.599241,-0.414002,0
2024-11-29 18:02:23.405,0.289831,3.50249,11.1446,-0.55274,-0.610847,-0.411558,0
2024-11-29 18:02:23.408,0.27996,3.48574,11.3432,-0.517922,-0.620621,-0.404839,0
2024-11-29 18:02:23.410,0.289831,3.45224,11.5469,-0.517922,-0.620621,-0.404839,0
2024-11-29 18:02:23.413,0.289831,3.40678,11.7335,-0.474552,-0.607793,-0.399341,0
2024-11-29 18:02:23.415,0.275175,3.37089,11.889,-0.448896,-0.599241,-0.396898,0
2024-11-29 18:02:23.417,0.267996,3.3326,12.0326,-0.448896,-0.599241,-0.396898,0
2024-11-29 18:02:23.420,0.244068,3.2991,12.1597,-0.423241,-0.590078,-0.3914,0
2024-11-29 18:02:23.421,0.189033,3.2656,12.253,-0.393309,-0.579083,-0.385903,0
2024-11-29 18:02:23.425,0.143569,3.22971,12.3464,-0.328559,-0.544265,-0.370021,0
2024-11-29 18:02:23.427,0.0933201,3.19861,12.4158,-0.328559,-0.544265,-0.370021,0
2024-11-29 18:02:23.429,0.0215354,3.18425,12.4325,-0.299239,-0.523496,-0.359025,0
2024-11-29 18:02:23.432,-0.040678,3.16271,12.4517,-0.2351,-0.474628,-0.335813,0
2024-11-29 18:02:23.434,-0.122034,3.13161,12.466,-0.203336,-0.447751,-0.318099,0
2024-11-29 18:02:23.435,-0.212961,3.09332,12.454,-0.203336,-0.447751,-0.318099,0
2024-11-29 18:02:23.438,-0.282652,3.06909,12.4421,-0.174015,-0.419041,-0.299773,0
2024-11-29 18:02:23.441,-0.364008,3.05952,12.4205,-0.142862,-0.384223,-0.280837,0
2024-11-29 18:02:23.443,-0.442971,3.0332,12.3655,-0.113541,-0.35307,-0.257625,0
2024-11-29 18:02:23.445,-0.50997,3.02363,12.3009,-0.0872748,-0.318862,-0.234413,0
2024-11-29 18:02:23.448,-0.576969,3.02363,12.2243,-0.058565,-0.281601,-0.2112,0
2024-11-29 18:02:23.450,-0.634397,3.00449,12.1454,-0.0329094,-0.24495,-0.187377,0
2024-11-29 18:02:23.453,-0.694218,2.9997,12.0494,-0.00542127,-0.206466,-0.159278,0
2024-11-29 18:02:23.455,-0.73011,2.98295,11.9321,0.0190126,-0.171648,-0.133012,0
2024-11-29 18:02:23.458,-0.737288,2.95424,11.8029,0.0648262,-0.10812,-0.0817008,0
2024-11-29 18:02:23.460,-0.73011,2.94467,11.6617,0.0648262,-0.10812,-0.0817008,0
2024-11-29 18:02:23.462,-0.722932,2.93031,11.5301,0.100866,-0.0580305,-0.037109,0
2024-11-29 18:02:23.464,-0.71336,2.91356,11.3815,0.100866,-0.0580305,-0.037109,0
2024-11-29 18:02:23.467,-0.689432,2.91835,11.2355,0.114916,-0.0354291,-0.0132859,0
2024-11-29 18:02:23.468,-0.658325,2.92074,11.1183,0.128354,-0.0146603,0.00809373,0
2024-11-29 18:02:23.472,-0.608076,2.9327,10.9962,0.152788,0.0232122,0.0484096,0
2024-11-29 18:02:23.474,-0.56022,2.94945,10.8835,0.152788,0.0232122,0.0484096,0
2024-11-29 18:02:23.476,-0.505185,2.95424,10.7901,0.165005,0.0403159,0.0661242,0
2024-11-29 18:02:23.478,-0.435793,2.9662,10.704,0.179665,0.0574196,0.0838388,0
2024-11-29 18:02:23.481,-0.373579,2.97577,10.6107,0.204099,0.0934596,0.112549,0
2024-11-29 18:02:23.483,-0.294616,2.99731,10.5126,0.204099,0.0934596,0.112549,0
2024-11-29 18:02:23.485,-0.208176,3.0021,10.436,0.21876,0.108731,0.124155,0
2024-11-29 18:02:23.488,-0.119641,2.9997,10.3591,0.249913,0.142938,0.141869,0
2024-11-29 18:02:23.490,-0.0287139,3.0021,10.2754,0.249913,0.142938,0.141869,0
2024-11-29 18:02:23.492,0.0550349,3.00449,10.2036,0.267017,0.160653,0.147367,0
2024-11-29 18:02:23.495,0.138784,3.01645,10.1151,0.303667,0.195471,0.14981,0
2024-11-29 18:02:23.497,0.20339,3.03559,10.005,0.303667,0.195471,0.14981,0
2024-11-29 18:02:23.499,0.244068,3.05234,9.87578,0.318328,0.213797,0.14981,0
2024-11-29 18:02:23.501,0.270389,3.04756,9.74866,0.335431,0.230289,0.146145,0
2024-11-29 18:02:23.504,0.294616,3.04517,9.61945,0.353757,0.249837,0.143091,0
2024-11-29 18:02:23.507,0.311366,3.04517,9.48066,0.37025,0.267551,0.139426,0
2024-11-29 18:02:23.509,0.318545,3.02602,9.31795,0.385521,0.28099,0.138204,0
2024-11-29 18:02:23.512,0.313759,3.01645,9.15973,0.397127,0.297483,0.135761,0
2024-11-29 18:02:23.514,0.30658,3.01167,9.01376,0.423394,0.328025,0.129652,0
2024-11-29 18:02:23.515,0.308973,2.98535,8.85584,0.423394,0.328025,0.129652,0
2024-11-29 18:02:23.518,0.308973,2.95185,8.69522,0.431945,0.340242,0.125987,0
2024-11-29 18:02:23.521,0.299402,2.92792,8.51576,0.44966,0.361011,0.118657,0
2024-11-29 18:02:23.524,0.287438,2.91117,8.3363,0.44966,0.361011,0.118657,0
2024-11-29 18:02:23.526,0.285045,2.88006,8.1664,0.45699,0.37506,0.114992,0
2024-11-29 18:02:23.528,0.27996,2.83938,7.99382,0.462488,0.379947,0.114381,0
2024-11-29 18:02:23.531,0.282652,2.82024,7.84307,0.462488,0.379947,0.114381,0
2024-11-29 18:02:23.532,0.277567,2.80349,7.69233,0.460044,0.383001,0.111327,0
2024-11-29 18:02:23.534,0.267996,2.7676,7.54367,0.458212,0.38239,0.107662,0
2024-11-29 18:02:23.537,0.277567,2.74606,7.40728,0.45699,0.383612,0.105829,0
2024-11-29 18:02:23.539,0.289831,2.7341,7.26611,0.450882,0.38239,0.105218,0
2024-11-29 18:02:23.542,0.292223,2.70539,7.1345,0.445384,0.378114,0.103386,0
2024-11-29 18:02:23.544,0.294616,2.68385,7.01217,0.435,0.373839,0.100943,0
2024-11-29 18:02:23.547,0.299402,2.66949,6.91885,0.411177,0.361622,0.0984991,0
2024-11-29 18:02:23.549,0.311366,2.66471,6.83988,0.411177,0.361622,0.0984991,0
2024-11-29 18:02:23.551,0.297009,2.66471,6.74178,0.400181,0.355513,0.0978883,0
2024-11-29 18:02:23.554,0.27996,2.6671,6.65085,0.372693,0.344518,0.0936123,0
2024-11-29 18:02:23.557,0.297009,2.69342,6.59103,0.372693,0.344518,0.0936123,0
2024-11-29 18:02:23.558,0.313759,2.71256,6.536,0.359865,0.340242,0.0899473,0
2024-11-29 18:02:23.560,0.320937,2.71496,6.50489,0.344594,0.337188,0.0862822,0
2024-11-29 18:02:23.563,0.318545,2.71496,6.48096,0.331766,0.330468,0.0832279,0
2024-11-29 18:02:23.565,0.320937,2.72692,6.44238,0.314663,0.326803,0.0795629,0
2024-11-29 18:02:23.567,0.337687,2.74128,6.40888,0.29817,0.32436,0.0752869,0
2024-11-29 18:02:23.570,0.354437,2.74367,6.39691,0.28412,0.324971,0.0685676,0
2024-11-29 18:02:23.572,0.364008,2.74128,6.39452,0.270071,0.326803,0.06307,0
2024-11-29 18:02:23.575,0.371187,2.75324,6.38973,0.255411,0.331079,0.058794,0
2024-11-29 18:02:23.577,0.378365,2.78913,6.38973,0.242583,0.338409,0.0520747,0
2024-11-29 18:02:23.579,0.390329,2.80349,6.39691,0.231587,0.346961,0.0447446,0
2024-11-29 18:02:23.581,0.385544,2.77956,6.41366,0.221203,0.355513,0.0392469,0
2024-11-29 18:02:23.584,0.373579,2.77478,6.41127,0.209597,0.364676,0.0319168,0
2024-11-29 18:02:23.587,0.371187,2.77238,6.40409,0.202267,0.370173,0.0251975,0
2024-11-29 18:02:23.590,0.342473,2.76042,6.40648,0.189439,0.376893,0.0172564,0
2024-11-29 18:02:23.591,0.316152,2.75324,6.38973,0.185163,0.384834,0.00992627,0
2024-11-29 18:02:23.594,0.282652,2.74606,6.38016,0.167449,0.400105,-0.00290152,0
2024-11-29 18:02:23.596,0.239282,2.7341,6.37777,0.167449,0.400105,-0.00290152,0
2024-11-29 18:02:23.598,0.210568,2.71974,6.36341,0.160729,0.406824,-0.00839915,0
2024-11-29 18:02:23.601,0.165105,2.71735,6.33231,0.145458,0.419041,-0.0151185,0
2024-11-29 18:02:23.604,0.117248,2.70778,6.30359,0.145458,0.419041,-0.0151185,0
2024-11-29 18:02:23.606,0.0765703,2.68624,6.29402,0.133852,0.422706,-0.0187836,0
2024-11-29 18:02:23.607,0.026321,2.68146,6.29163,0.133852,0.422706,-0.0187836,0
2024-11-29 18:02:23.611,-0.0311067,2.6671,6.27488,0.121635,0.419041,-0.0206161,0
2024-11-29 18:02:23.612,-0.066999,2.65274,6.24616,0.121635,0.419041,-0.0206161,0
2024-11-29 18:02:23.615,-0.0789631,2.62881,6.23899,0.114916,0.412322,-0.0193944,0
2024-11-29 18:02:23.618,-0.112463,2.6001,6.23899,0.108807,0.404992,-0.0181727,0
2024-11-29 18:02:23.620,-0.157926,2.6001,6.22941,0.10331,0.393386,-0.0163402,0
2024-11-29 18:02:23.622,-0.208176,2.57617,6.23659,0.0965902,0.378114,-0.0132859,0
2024-11-29 18:02:23.624,-0.248854,2.55942,6.26291,0.0929251,0.361622,-0.0102317,0
2024-11-29 18:02:23.627,-0.275175,2.56182,6.28445,0.0831516,0.320695,-0.00106898,0
2024-11-29 18:02:23.629,-0.318545,2.55703,6.31316,0.0831516,0.320695,-0.00106898,0
2024-11-29 18:02:23.631,-0.349651,2.54028,6.34188,0.0819299,0.293818,0.00503949,0
2024-11-29 18:02:23.633,-0.361615,2.51366,6.37538,0.0782648,0.266329,0.0105371,0
2024-11-29 18:02:23.637,-0.383151,2.48495,6.42084,0.0739889,0.199136,0.0227541,0
2024-11-29 18:02:23.638,-0.395115,2.48016,6.47857,0.0739889,0.199136,0.0227541,0
2024-11-29 18:02:23.641,-0.390329,2.47537,6.55992,0.0752106,0.163707,0.0288625,0
2024-11-29 18:02:23.644,-0.385544,2.45863,6.64367,0.0770431,0.123391,0.0325276,0
2024-11-29 18:02:23.645,-0.392722,2.45145,6.71785,0.0794865,0.0842969,0.0361927,0
2024-11-29 18:02:23.647,-0.397508,2.44905,6.8016,0.0794865,0.0464244,0.0392469,0
2024-11-29 18:02:23.651,-0.402293,2.45384,6.90449,0.0819299,0.00794101,0.0435229,0
2024-11-29 18:02:23.653,-0.3999,2.45145,6.99063,0.0862058,-0.0287098,0.0465771,0
2024-11-29 18:02:23.654,-0.390329,2.43948,7.06511,0.0904818,-0.0647498,0.0484096,0
2024-11-29 18:02:23.658,-0.385544,2.42513,7.15125,0.0959794,-0.0971247,0.0496313,0
2024-11-29 18:02:23.660,-0.371187,2.40838,7.23261,0.102088,-0.155155,0.0520747,0
2024-11-29 18:02:23.662,-0.35683,2.37966,7.31635,0.102088,-0.155155,0.0520747,0
2024-11-29 18:02:23.664,-0.347258,2.35573,7.4001,0.10392,-0.177757,0.055129,0
2024-11-29 18:02:23.666,-0.335294,2.31984,7.4671,0.106975,-0.197304,0.0575724,0
2024-11-29 18:02:23.670,-0.308973,2.27677,7.5341,0.113083,-0.225403,0.0667351,0
2024-11-29 18:02:23.672,-0.27996,2.24327,7.59901,0.113083,-0.225403,0.0667351,0
2024-11-29 18:02:23.673,-0.260818,2.19302,7.65404,0.110029,-0.235176,0.0722327,0
2024-11-29 18:02:23.677,-0.239282,2.14277,7.71625,0.109418,-0.238841,0.0826171,0
2024-11-29 18:02:23.679,-0.222533,2.10209,7.77368,0.105753,-0.236398,0.0893364,0
2024-11-29 18:02:23.681,-0.212961,2.07577,7.82872,0.105753,-0.236398,0.0893364,0
2024-11-29 18:02:23.683,-0.189033,2.04945,7.90529,0.102088,-0.232122,0.0936123,0
2024-11-29 18:02:23.685,-0.162712,2.01356,7.96989,0.0978119,-0.227846,0.0997208,0
2024-11-29 18:02:23.688,-0.145962,2.0016,8.02014,0.093536,-0.224181,0.107662,0
2024-11-29 18:02:23.690,-0.136391,2.0016,8.09432,0.0868167,-0.218683,0.111327,0
2024-11-29 18:02:23.693,-0.124427,1.98724,8.18794,0.0782648,-0.200969,0.124155,0
2024-11-29 18:02:23.696,-0.11007,1.9657,8.26212,0.0782648,-0.200969,0.124155,0
2024-11-29 18:02:23.697,-0.0933201,1.94387,8.34347,0.0721563,-0.191195,0.129041,0
2024-11-29 18:02:23.700,-0.0861416,1.93908,8.43679,0.0648262,-0.157599,0.141258,0
2024-11-29 18:02:23.703,-0.0885344,1.92712,8.52054,0.0648262,-0.157599,0.141258,0
2024-11-29 18:02:23.705,-0.0837488,1.90798,8.58993,0.0636045,-0.114228,0.154697,0
2024-11-29 18:02:23.707,-0.0789631,1.89362,8.66411,0.0623828,-0.0916271,0.163249,0
2024-11-29 18:02:23.710,-0.081356,1.87926,8.7362,0.0599394,-0.0702474,0.170579,0
2024-11-29 18:02:23.712,-0.0717847,1.86491,8.78884,0.0568851,-0.0488678,0.177298,0
2024-11-29 18:02:23.714,-0.066999,1.84816,8.83191,0.0568851,-0.0488678,0.177298,0
2024-11-29 18:02:23.716,-0.0717847,1.83619,8.86541,0.0544418,-0.0293207,0.183407,0
2024-11-29 18:02:23.719,-0.081356,1.82184,8.89891,0.0489441,0.00122169,0.196235,0
2024-11-29 18:02:23.720,-0.0741775,1.81226,8.94676,0.0489441,0.00122169,0.196235,0
2024-11-29 18:02:23.724,-0.0622134,1.81466,8.98744,0.041614,0.020158,0.205397,0
2024-11-29 18:02:23.726,-0.0717847,1.81466,9.04008,0.0330621,0.0507003,0.218836,0
2024-11-29 18:02:23.728,-0.066999,1.82662,9.0999,0.0330621,0.0507003,0.218836,0
2024-11-29 18:02:23.731,-0.0598206,1.82662,9.16451,0.0275645,0.0806318,0.231664,0
2024-11-29 18:02:23.733,-0.066999,1.84098,9.22912,0.0275645,0.0806318,0.231664,0
2024-11-29 18:02:23.735,-0.066999,1.86969,9.28445,0.0251211,0.0940705,0.239605,0
2024-11-29 18:02:23.737,-0.0885344,1.89841,9.34666,0.0238994,0.106898,0.245713,0
2024-11-29 18:02:23.739,-0.11007,1.91037,9.42323,0.0220669,0.120948,0.253043,0
2024-11-29 18:02:23.742,-0.102891,1.90319,9.49502,0.0232886,0.13683,0.25793,0
2024-11-29 18:02:23.744,-0.112463,1.92473,9.54288,0.0251211,0.149658,0.26465,0
2024-11-29 18:02:23.746,-0.124427,1.95105,9.58355,0.0245102,0.161264,0.268315,0
2024-11-29 18:02:23.750,-0.114855,1.97049,9.62184,0.0245102,0.169205,0.273812,0
2024-11-29 18:02:23.752,-0.131605,2.00399,9.65055,0.0263428,0.183254,0.282975,0
2024-11-29 18:02:23.754,-0.16989,2.03031,9.69123,0.0263428,0.183254,0.282975,0
2024-11-29 18:02:23.756,-0.212961,2.04706,9.71755,0.0257319,0.189974,0.28664,0
2024-11-29 18:02:23.759,-0.253639,2.08295,9.71994,0.0269536,0.19486,0.292749,0
2024-11-29 18:02:23.760,-0.30658,2.11884,9.72712,0.0257319,0.198525,0.296414,0
2024-11-29 18:02:23.764,-0.368794,2.16192,9.71277,0.0232886,0.195471,0.304355,0
2024-11-29 18:02:23.766,-0.428614,2.20499,9.68405,0.0141258,0.18753,0.311074,0
2024-11-29 18:02:23.769,-0.476471,2.22652,9.67927,0.00618483,0.172259,0.317182,0
2024-11-29 18:02:23.771,-0.500399,2.2672,9.68645,-0.0243575,0.116672,0.33001,0
2024-11-29 18:02:23.773,-0.512363,2.30309,9.69123,-0.0451263,0.0763559,0.33734,0
2024-11-29 18:02:23.776,-0.538684,2.33659,9.71994,-0.0689494,0.0317641,0.345281,0
2024-11-29 18:02:23.777,-0.562612,2.37248,9.77737,-0.0689494,0.0317641,0.345281,0
2024-11-29 18:02:23.783,-0.572184,2.41077,10.0074,-0.122704,-0.07208,0.361163,0
2024-11-29 18:02:23.783,-0.572184,2.41077,10.0074,-0.122704,-0.07208,0.361163,0
2024-11-29 18:02:23.785,-0.548256,2.45384,10.1629,-0.14836,-0.128278,0.369715,0
2024-11-29 18:02:23.786,-0.4669,2.46341,10.34,-0.177069,-0.18753,0.374602,0
2024-11-29 18:02:23.790,-0.352044,2.44427,10.5604,-0.237543,-0.313975,0.382543,0
2024-11-29 18:02:23.791,-0.20339,2.41795,10.8188,-0.237543,-0.313975,0.382543,0
2024-11-29 18:02:23.793,-0.00717847,2.36291,11.1039,-0.266864,-0.38178,0.381321,0
2024-11-29 18:02:23.796,0.208176,2.30788,11.4078,-0.297406,-0.450194,0.375824,0
2024-11-29 18:02:23.798,0.4334,2.26481,11.712,-0.324894,-0.514333,0.367272,0
2024-11-29 18:02:23.802,0.632004,2.22413,12.0135,-0.384757,-0.63467,0.342227,0
2024-11-29 18:02:23.803,0.84018,2.18106,12.2961,-0.384757,-0.63467,0.342227,0
2024-11-29 18:02:23.805,1.05105,2.15952,12.5785,-0.413467,-0.68476,0.324513,0
2024-11-29 18:02:23.809,1.23529,2.15952,12.8874,-0.470276,-0.760505,0.280532,0
2024-11-29 18:02:23.810,1.40279,2.15474,13.2323,-0.470276,-0.760505,0.280532,0
2024-11-29 18:02:23.813,1.56341,2.13799,13.6008,-0.518533,-0.787993,0.22922,0
2024-11-29 18:02:23.816,1.72612,2.10927,13.9576,-0.535026,-0.78555,0.205397,0
2024-11-29 18:02:23.818,1.88883,2.0662,14.3145,-0.535026,-0.78555,0.205397,0
2024-11-29 18:02:23.820,2.00638,2.03749,14.6854,-0.549075,-0.762948,0.176688,0
2024-11-29 18:02:23.822,2.08056,2.03988,15.0446,-0.558238,-0.729352,0.151032,0
2024-11-29 18:02:23.825,2.11645,2.06381,15.3867,-0.55946,-0.684149,0.124766,0
2024-11-29 18:02:23.826,1.77398,2.28634,15.4373,-0.558849,-0.62001,0.105829,0
2024-11-29 18:02:23.830,1.46052,2.46341,15.382,-0.564346,-0.443475,0.105218,0
2024-11-29 18:02:23.832,1.63759,2.38923,15.6909,-0.563736,-0.383001,0.0997208,0
2024-11-29 18:02:23.833,1.91755,2.23609,16.0789,-0.563736,-0.383001,0.0997208,0
2024-11-29 18:02:23.837,2.13799,2.03988,16.3325,-0.557016,-0.326803,0.0893364,0
2024-11-29 18:02:23.839,2.30548,1.82662,16.5407,-0.544799,-0.268162,0.0752869,0
2024-11-29 18:02:23.841,2.40359,1.61127,16.7061,-0.52342,-0.197304,0.0545181,0
2024-11-29 18:02:23.843,2.4323,1.4342,16.8281,-0.492877,-0.109953,0.0325276,0
2024-11-29 18:02:23.845,2.41316,1.30469,16.9478,-0.451951,-0.0134386,0.00687203,0
2024-11-29 18:02:23.848,2.31027,1.20658,17.0243,-0.404305,0.0916271,-0.0157293,0
2024-11-29 18:02:23.850,2.12602,1.12762,17.0459,-0.349939,0.193639,-0.0358873,2
2024-11-29 18:02:23.853,1.90558,1.0654,17.01,-0.291298,0.28832,-0.0487151,0
2024-11-29 18:02:23.858,1.39083,0.974477,16.73,-0.166685,0.451416,-0.0652079,0
2024-11-29 18:02:23.858,1.39083,0.974477,16.73,-0.166685,0.451416,-0.0652079,0
2024-11-29 18:02:23.859,1.13001,0.974477,16.4689,-0.103768,0.528994,-0.0633754,0
2024-11-29 18:02:23.862,0.85005,1.03669,16.1363,-0.0408504,0.607182,-0.0566561,0
2024-11-29 18:02:23.865,0.567398,1.12283,15.7579,0.0171801,0.682316,-0.0432174,0
2024-11-29 18:02:23.867,0.308973,1.22333,15.3556,0.0745997,0.753785,-0.0267246,0
2024-11-29 18:02:23.870,0.0550349,1.3334,14.9489,0.127133,0.819757,-0.00167983,0
2024-11-29 18:02:23.872,-0.193819,1.40548,14.5585,0.173557,0.873512,0.0239758,0
2024-11-29 18:02:23.874,-0.409472,1.4342,14.1515,0.218149,0.918714,0.0514639,0
2024-11-29 18:02:23.876,-0.557827,1.46052,13.6893,0.253578,0.955976,0.0844496,0
2024-11-29 18:02:23.878,-0.641576,1.47966,13.2275,0.283509,0.979799,0.116214,0
2024-11-29 18:02:23.882,-0.691825,1.47727,12.8157,0.306722,0.996903,0.149199,0
2024-11-29 18:02:23.884,-0.715753,1.48445,12.4325,0.323825,1.00118,0.177298,0
2024-11-29 18:02:23.885,-0.725324,1.50598,12.076,0.340318,0.999957,0.204787,0
2024-11-29 18:02:23.889,-0.727717,1.52513,11.755,0.36353,0.967582,0.249378,0
2024-11-29 18:02:23.891,-0.710967,1.54905,11.4604,0.36353,0.967582,0.249378,0
2024-11-29 18:02:23.892,-0.679861,1.59691,11.1733,0.370861,0.945592,0.267704,0
2024-11-29 18:02:23.895,-0.65354,1.65673,10.905,0.375137,0.916882,0.282975,0
2024-11-29 18:02:23.898,-0.622433,1.70698,10.6609,0.378802,0.854575,0.3013,0
2024-11-29 18:02:23.900,-0.588933,1.77637,10.4216,0.378802,0.854575,0.3013,0
2024-11-29 18:02:23.902,-0.364008,1.68544,10.3256,0.378191,0.815481,0.305576,0
2024-11-29 18:02:23.905,0.136391,1.42223,10.6801,0.39896,0.650552,0.26465,0
2024-11-29 18:02:23.908,0.332901,1.41745,10.8619,0.417896,0.596798,0.240827,0
2024-11-29 18:02:23.909,-0.00478565,1.70937,10.3496,0.417896,0.596798,0.240827,0
2024-11-29 18:02:23.912,-0.344866,1.97288,9.83988,0.437443,0.577251,0.218836,0
2024-11-29 18:02:23.914,-0.364008,2.10449,9.75584,0.437443,0.577251,0.218836,0
2024-11-29 18:02:23.916,-0.301795,2.20977,9.72712,0.444162,0.532048,0.20723,0
2024-11-29 18:02:23.918,-0.378365,2.36531,9.47588,0.441108,0.467909,0.197456,0
2024-11-29 18:02:23.922,-0.440578,2.51127,9.23869,0.402625,0.298704,0.176077,0
2024-11-29 18:02:23.923,-0.478864,2.64317,8.98505,0.402625,0.298704,0.176077,0
2024-11-29 18:02:23.925,-0.52672,2.78196,8.63061,0.372693,0.21624,0.167525,0
2024-11-29 18:02:23.929,-0.507577,2.88245,8.36262,0.285342,0.059863,0.144313,0
2024-11-29 18:02:23.931,-0.366401,2.93988,8.26451,0.236474,-0.0287098,0.126598,0
2024-11-29 18:02:23.932,-0.191426,2.97577,8.20708,0.236474,-0.0287098,0.126598,0
2024-11-29 18:02:23.936,-0.0334995,3.01406,8.11586,0.125911,-0.216851,0.078952,0
2024-11-29 18:02:23.938,0.148355,3.04995,8.08714,0.0648262,-0.313975,0.0435229,0
2024-11-29 18:02:23.940,0.328116,3.06431,8.13261,0.0648262,-0.313975,0.0435229,0
2024-11-29 18:02:23.942,0.512363,3.0667,8.20469,7.63559e-05,-0.410489,0.00748288,0
2024-11-29 18:02:23.945,0.699003,3.05713,8.32194,-0.0646735,-0.501506,-0.0352764,0
2024-11-29 18:02:23.948,0.893121,3.04038,8.48944,-0.12698,-0.5913,-0.0853659,0
2024-11-29 18:02:23.949,1.09651,2.99013,8.68804,-0.189286,-0.675597,-0.137288,0
2024-11-29 18:02:23.951,1.30229,2.91117,8.92284,-0.247317,-0.751953,-0.192264,0
2024-11-29 18:02:23.955,1.50359,2.82742,9.20758,-0.301071,-0.817314,-0.249073,0
2024-11-29 18:02:23.956,1.66869,2.71974,9.52134,-0.352383,-0.877788,-0.310769,0
2024-11-29 18:02:23.959,1.77876,2.62403,9.79412,-0.395753,-0.926044,-0.374907,0
2024-11-29 18:02:23.961,1.85294,2.53071,10.0337,-0.439123,-0.962695,-0.438436,0
2024-11-29 18:02:23.964,1.90319,2.4323,10.3161,-0.472719,-0.985297,-0.503185,0
2024-11-29 18:02:23.965,1.89362,2.36052,10.6298,-0.502651,-0.994459,-0.563659,0
2024-11-29 18:02:23.969,1.81466,2.32463,10.9265,-0.525863,-0.992627,-0.625966,0
2024-11-29 18:02:23.970,1.56102,2.39163,11.0082,-0.541745,-0.968804,-0.680942,0
2024-11-29 18:02:23.972,1.31904,2.4658,11.0034,-0.564346,-0.920547,-0.724923,0
2024-11-29 18:02:23.976,1.26879,2.42273,11.1805,-0.600387,-0.820979,-0.798225,0
2024-11-29 18:02:23.978,1.23769,2.33181,11.3671,-0.600387,-0.820979,-0.798225,0
2024-11-29 18:02:23.980,1.14437,2.23609,11.458,-0.616269,-0.767835,-0.832432,0
2024-11-29 18:02:23.982,1.00319,2.11406,11.5349,-0.630318,-0.703696,-0.862364,0
2024-11-29 18:02:23.985,0.852443,1.97049,11.6186,-0.642,-0.629784,-0.891684,0
2024-11-29 18:02:23.988,0.677468,1.82901,11.6904,-0.647498,-0.543654,-0.915507,0
2024-11-29 18:02:23.990,0.517149,1.69262,11.7838,-0.644444,-0.349405,-0.949715,0
2024-11-29 18:02:23.992,0.387936,1.57537,11.8436,-0.644444,-0.349405,-0.949715,0
2024-11-29 18:02:23.994,0.244068,1.47248,11.846,-0.635281,-0.246782,-0.960099,0
2024-11-29 18:02:23.997,0.0885344,1.39322,11.846,-0.622988,-0.14416,-0.963764,0
2024-11-29 18:02:23.999,-0.124427,1.33819,11.8101,-0.608938,-0.0421485,-0.961321,0
2024-11-29 18:02:24.002,-0.366401,1.29751,11.7455,-0.591224,0.0568088,-0.952769,0
2024-11-29 18:02:24.004,-0.591326,1.27119,11.6569,-0.550908,0.240063,-0.922837,0
2024-11-29 18:02:24.005,-0.821037,1.21854,11.5612,-0.550908,0.240063,-0.922837,0
2024-11-29 18:02:24.009,-1.05583,1.1683,11.4891,-0.528307,0.321306,-0.900236,0
2024-11-29 18:02:24.011,-1.29272,1.15633,11.4078,-0.503873,0.38911,-0.871526,0
2024-11-29 18:02:24.013,-1.49641,1.13958,11.3216,-0.474552,0.450194,-0.839762,0
2024-11-29 18:02:24.016,-1.66152,1.11565,11.2307,-0.410413,0.549763,-0.774402,0
2024-11-29 18:02:24.018,-1.80748,1.12283,11.1278,-0.410413,0.549763,-0.774402,0
2024-11-29 18:02:24.020,-1.9008,1.14915,11.0201,-0.37254,0.5913,-0.738972,0
2024-11-29 18:02:24.023,-1.9681,1.1683,10.8523,-0.335279,0.629784,-0.704154,0
2024-11-29 18:02:24.024,-2.05663,1.19701,10.6394,-0.293741,0.662158,-0.668114,0
2024-11-29 18:02:24.027,-2.15474,1.23769,10.4312,-0.251593,0.692701,-0.631463,0
2024-11-29 18:02:24.032,-2.32941,1.33819,9.99303,-0.177069,0.730573,-0.552664,0
2024-11-29 18:02:24.032,-2.32941,1.33819,9.99303,-0.177069,0.730573,-0.552664,0
2024-11-29 18:02:24.034,-2.39163,1.39801,9.8013,-0.143473,0.736682,-0.512348,0
2024-11-29 18:02:24.037,-2.4347,1.43659,9.58116,-0.11232,0.734238,-0.468978,0
2024-11-29 18:02:24.038,-2.44905,1.47248,9.34666,-0.0799446,0.72813,-0.42744,0
2024-11-29 18:02:24.041,-2.41316,1.51316,9.13819,-0.050624,0.715302,-0.388346,0
2024-11-29 18:02:24.045,-2.28395,1.61366,8.7362,0.00313059,0.685981,-0.313823,0
2024-11-29 18:02:24.046,-2.28395,1.61366,8.7362,0.00313059,0.685981,-0.313823,0
2024-11-29 18:02:24.049,-2.20738,1.65434,8.56122,0.0251211,0.665213,-0.278394,0
2024-11-29 18:02:24.051,-2.12842,1.68784,8.40329,0.0709346,0.621232,-0.216087,0
2024-11-29 18:02:24.053,-2.0327,1.71894,8.2358,0.0709346,0.621232,-0.216087,0
2024-11-29 18:02:24.055,-1.92233,1.75484,8.07518,0.0929251,0.595576,-0.189821,0
2024-11-29 18:02:24.058,-1.82662,1.79791,7.94357,0.113083,0.56992,-0.165998,0
2024-11-29 18:02:24.060,-1.72134,1.83619,7.81915,0.132019,0.54793,-0.144618,0
2024-11-29 18:02:24.062,-1.61127,1.87926,7.68754,0.152177,0.523496,-0.126904,0
2024-11-29 18:02:24.065,-1.5012,1.92712,7.56282,0.169892,0.502116,-0.110411,0
2024-11-29 18:02:24.068,-1.41266,1.9681,7.45514,0.19005,0.474017,-0.0957503,0
2024-11-29 18:02:24.069,-1.34536,2.00399,7.3666,0.205932,0.449584,-0.0841442,0
2024-11-29 18:02:24.071,-1.28315,2.05663,7.26611,0.224257,0.425761,-0.0737598,0
2024-11-29 18:02:24.075,-1.24726,2.11167,7.15125,0.256632,0.380558,-0.0572669,0
2024-11-29 18:02:24.077,-1.2018,2.15713,7.02922,0.256632,0.380558,-0.0572669,0
2024-11-29 18:02:24.078,-1.14676,2.18584,6.91167,0.274347,0.356124,-0.0517693,0
2024-11-29 18:02:24.082,-1.09173,2.18345,6.80638,0.287785,0.328636,-0.0462717,0
2024-11-29 18:02:24.084,-1.01037,2.18345,6.70828,0.29817,0.299926,-0.0432174,0
2024-11-29 18:02:24.087,-0.929013,2.18584,6.61974,0.318328,0.23762,-0.0383307,0
2024-11-29 18:02:24.089,-0.864407,2.18824,6.54557,0.32688,0.208299,-0.0395524,0
2024-11-29 18:02:24.090,-0.794716,2.20738,6.4666,0.32688,0.208299,-0.0395524,0
2024-11-29 18:02:24.093,-0.742074,2.21934,6.38734,0.335431,0.179589,-0.0419957,0
2024-11-29 18:02:24.095,-0.65354,2.18345,6.3347,0.342762,0.149658,-0.04505,0
2024-11-29 18:02:24.098,-0.347258,1.96062,6.63889,0.369639,0.0329858,-0.0755923,0
2024-11-29 18:02:24.101,-0.0622134,1.76201,7.04836,0.369639,0.0329858,-0.0755923,0
2024-11-29 18:02:24.103,-0.162712,1.81226,6.92363,0.416674,-0.0445919,-0.111632,0
2024-11-29 18:02:24.105,-0.442971,1.94865,6.5671,0.416674,-0.0445919,-0.111632,0
2024-11-29 18:02:24.107,-0.598505,2.06381,6.41605,0.438054,-0.0415376,-0.118352,0
2024-11-29 18:02:24.109,-0.617647,2.15234,6.38256,0.458212,-0.0421485,-0.120795,0
2024-11-29 18:02:24.112,-0.639183,2.22174,6.26531,0.469818,-0.0561979,-0.118963,0
2024-11-29 18:02:24.115,-0.694218,2.26002,6.08824,0.477148,-0.0775776,-0.115297,0
2024-11-29 18:02:24.116,-0.73011,2.2672,5.91356,0.476537,-0.109953,-0.110411,0
2024-11-29 18:02:24.119,-0.744467,2.26241,5.72902,0.466764,-0.142938,-0.105524,0
2024-11-29 18:02:24.121,-0.758824,2.24088,5.53998,0.450882,-0.177757,-0.0975828,0
2024-11-29 18:02:24.124,-0.737288,2.21216,5.41316,0.408122,-0.233344,-0.089031,0
2024-11-29 18:02:24.127,-0.663111,2.18584,5.38445,0.385521,-0.260221,-0.0902527,0
2024-11-29 18:02:24.129,-0.569791,2.15234,5.40598,0.361087,-0.285877,-0.0939178,0
2024-11-29 18:02:24.131,-0.493221,2.13081,5.43231,0.336653,-0.306645,-0.0988045,0
2024-11-29 18:02:24.134,-0.4334,2.13559,5.47538,0.315884,-0.322527,-0.105524,0
2024-11-29 18:02:24.135,-0.368794,2.13559,5.55195,0.315884,-0.322527,-0.105524,0
2024-11-29 18:02:24.137,-0.335294,2.14517,5.61895,0.296337,-0.337799,-0.111021,0
2024-11-29 18:02:24.140,-0.313759,2.14756,5.70748,0.277401,-0.346961,-0.11713,0
2024-11-29 18:02:24.143,-0.311366,2.15474,5.82473,0.243804,-0.358567,-0.135455,0
2024-11-29 18:02:24.145,-0.318545,2.1667,5.94467,0.243804,-0.358567,-0.135455,0
2024-11-29 18:02:24.148,-0.308973,2.16192,6.04995,0.230366,-0.362232,-0.140953,0
2024-11-29 18:02:24.149,-0.299402,2.17149,6.16481,0.218149,-0.363454,-0.148283,0
2024-11-29 18:02:24.151,-0.301795,2.18345,6.30598,0.208375,-0.357346,-0.156224,0
2024-11-29 18:02:24.154,-0.313759,2.15713,6.42802,0.199823,-0.347572,-0.1605,0
2024-11-29 18:02:24.157,-0.332901,2.14995,6.53121,0.196769,-0.329858,-0.165387,0
2024-11-29 18:02:24.160,-0.35683,2.16909,6.63889,0.194326,-0.311532,-0.171495,0
2024-11-29 18:02:24.161,-0.3999,2.17866,6.72742,0.191272,-0.291374,-0.173328,0
2024-11-29 18:02:24.163,-0.457328,2.18106,6.78006,0.19005,-0.265719,-0.172717,0
2024-11-29 18:02:24.167,-0.512363,2.19541,6.82313,0.188828,-0.216851,-0.169052,0
2024-11-29 18:02:24.169,-0.557827,2.22174,6.84945,0.188828,-0.216851,-0.169052,0
2024-11-29 18:02:24.170,-0.591326,2.2337,6.8662,0.185163,-0.193639,-0.165387,0
2024-11-29 18:02:24.174,-0.641576,2.24566,6.88295,0.182109,-0.148436,-0.151948,0
2024-11-29 18:02:24.175,-0.694218,2.27916,6.88295,0.182109,-0.148436,-0.151948,0
2024-11-29 18:02:24.177,-0.737288,2.31984,6.88056,0.179055,-0.128278,-0.144618,0
2024-11-29 18:02:24.182,-0.816252,2.39641,6.84706,0.16867,-0.0897945,-0.128125,0
2024-11-29 18:02:24.183,-0.816252,2.39641,6.84706,0.16867,-0.0897945,-0.128125,0
2024-11-29 18:02:24.184,-0.825823,2.44666,6.82792,0.159507,-0.0781884,-0.118963,0
2024-11-29 18:02:24.188,-0.833001,2.48495,6.8351,0.152177,-0.0684149,-0.1098,0
2024-11-29 18:02:24.193,-0.818644,2.54985,6.82553,0.133852,-0.0635281,-0.0957503,0
2024-11-29 18:02:24.193,-0.818644,2.54985,6.82553,0.133852,-0.0635281,-0.0957503,0
2024-11-29 18:02:24.196,-0.809073,2.64078,6.82553,0.11064,-0.0757451,-0.0847551,0
2024-11-29 18:02:24.197,-0.809073,2.64078,6.82553,0.11064,-0.0757451,-0.0847551,0
2024-11-29 18:02:24.199,-0.801895,2.68146,6.8351,0.0965902,-0.0873512,-0.0817008,0
2024-11-29 18:02:24.202,-0.80668,2.7341,6.85424,0.0642153,-0.121559,-0.0786466,0
2024-11-29 18:02:24.204,-0.809073,2.78435,6.89253,0.0642153,-0.121559,-0.0786466,0
2024-11-29 18:02:24.207,-0.801895,2.8322,6.94995,0.0330621,-0.170426,-0.0774249,0
2024-11-29 18:02:24.209,-0.782752,2.87767,7.00977,0.0184018,-0.204634,-0.0798683,0
2024-11-29 18:02:24.211,-0.749253,2.92552,7.06989,0.0184018,-0.204634,-0.0798683,0
2024-11-29 18:02:24.213,-0.71336,2.95424,7.14886,-0.00175619,-0.240674,-0.0798683,0
2024-11-29 18:02:24.215,-0.679861,2.95424,7.22064,-0.0188599,-0.277325,-0.0835334,0
2024-11-29 18:02:24.217,-0.634397,2.9662,7.30678,-0.0365745,-0.318862,-0.0871984,0
2024-11-29 18:02:24.221,-0.584148,2.98295,7.4336,-0.0781121,-0.404381,-0.0981937,0
2024-11-29 18:02:24.223,-0.52672,2.99731,7.55564,-0.0781121,-0.404381,-0.0981937,0
2024-11-29 18:02:24.225,-0.454935,3.01167,7.68754,-0.0939941,-0.45386,-0.106135,0
2024-11-29 18:02:24.227,-0.407079,3.02842,7.85982,-0.115985,-0.497841,-0.113465,0
2024-11-29 18:02:24.229,-0.375972,3.05474,8.04646,-0.137975,-0.539378,-0.123238,0
2024-11-29 18:02:24.233,-0.330509,3.06192,8.24776,-0.177069,-0.615734,-0.143396,0
2024-11-29 18:02:24.235,-0.282652,3.07149,8.44876,-0.194173,-0.646887,-0.155613,0
2024-11-29 18:02:24.236,-0.239282,3.1005,8.65693,-0.194173,-0.646887,-0.155613,0
2024-11-29 18:02:24.240,-0.205783,3.14118,8.87976,-0.228381,-0.695144,-0.175771,0
2024-11-29 18:02:24.241,-0.193819,3.18425,9.10469,-0.228381,-0.695144,-0.175771,0
2024-11-29 18:02:24.243,-0.208176,3.23211,9.34666,-0.24243,-0.712248,-0.184323,0
2024-11-29 18:02:24.249,-0.224925,3.3326,9.87338,-0.26381,-0.737293,-0.200205,0
2024-11-29 18:02:24.249,-0.224925,3.3326,9.87338,-0.26381,-0.737293,-0.200205,0
2024-11-29 18:02:24.254,-0.217747,3.38764,10.4384,-0.274805,-0.744623,-0.229526,0
2024-11-29 18:02:24.254,-0.217747,3.38764,10.4384,-0.274805,-0.744623,-0.229526,0
2024-11-29 18:02:24.256,-0.184247,3.38285,10.7064,-0.272972,-0.733628,-0.23991,0
2024-11-29 18:02:24.257,-0.143569,3.39003,10.9603,-0.272972,-0.733628,-0.23991,0
2024-11-29 18:02:24.261,-0.12682,3.39482,11.2092,-0.268086,-0.716524,-0.250295,0
2024-11-29 18:02:24.263,-0.138784,3.38525,11.4556,-0.258312,-0.690868,-0.258236,0
2024-11-29 18:02:24.266,-0.179462,3.37807,11.688,-0.227159,-0.623064,-0.274118,0
2024-11-29 18:02:24.268,-0.22014,3.37328,11.913,-0.210055,-0.58397,-0.279004,0
2024-11-29 18:02:24.270,-0.267996,3.36371,12.1167,-0.210055,-0.58397,-0.279004,0
2024-11-29 18:02:24.273,-0.344866,3.37328,12.3057,-0.188065,-0.544265,-0.283891,0
2024-11-29 18:02:24.275,-0.421436,3.3661,12.4612,-0.163631,-0.500895,-0.283891,0
2024-11-29 18:02:24.277,-0.474078,3.335,12.6072,-0.139197,-0.45386,-0.283891,0
2024-11-29 18:02:24.282,-0.531506,3.31346,12.8013,-0.0836097,-0.352459,-0.278394,0
2024-11-29 18:02:24.282,-0.622433,3.31346,12.8013,-0.0836097,-0.352459,-0.278394,0
2024-11-29 18:02:24.283,-0.706182,3.27518,12.8707,-0.0536782,-0.300537,-0.269842,0
2024-11-29 18:02:24.286,-0.792323,3.24646,12.9018,-0.0237467,-0.243728,-0.262512,0
2024-11-29 18:02:24.289,-0.897907,3.21775,12.909,0.0361163,-0.136219,-0.241132,0
2024-11-29 18:02:24.290,-0.996012,3.20578,12.9042,0.0361163,-0.136219,-0.241132,0
2024-11-29 18:02:24.293,-1.09412,3.18425,12.8731,0.0636045,-0.0855186,-0.225861,0
2024-11-29 18:02:24.295,-1.18744,3.15793,12.8181,0.0917034,-0.0366508,-0.208757,0
2024-11-29 18:02:24.299,-1.27358,3.14118,12.7415,0.117359,0.00671932,-0.190432,0
2024-11-29 18:02:24.301,-1.36451,3.12682,12.6434,0.164394,0.0830752,-0.147672,0
2024-11-29 18:02:24.303,-1.45334,3.12443,12.5402,0.164394,0.0830752,-0.147672,0
2024-11-29 18:02:24.306,-1.52513,3.13879,12.4421,0.185774,0.116672,-0.125682,0
2024-11-29 18:02:24.307,-1.59452,3.1675,12.3368,0.203488,0.147214,-0.103691,0
2024-11-29 18:02:24.310,-1.66869,3.19621,12.2315,0.238307,0.206466,-0.0505476,0
2024-11-29 18:02:24.313,-1.72612,3.22493,12.1143,0.252967,0.230289,-0.0267246,0
2024-11-29 18:02:24.315,-1.7668,3.25364,12.0135,0.252967,0.230289,-0.0267246,0
2024-11-29 18:02:24.317,-1.79073,3.28475,11.9201,0.26213,0.248004,-0.00106898,0
2024-11-29 18:02:24.320,-1.81466,3.32064,11.8053,0.270682,0.265108,0.0264191,0
2024-11-29 18:02:24.322,-1.84098,3.36132,11.6785,0.279234,0.276714,0.0728435,0
2024-11-29 18:02:24.323,-1.84098,3.40439,11.5588,0.279234,0.276714,0.0728435,0
2024-11-29 18:02:24.328,-1.80987,3.49053,11.3719,0.279234,0.268162,0.116214,0
2024-11-29 18:02:24.329,-1.80987,3.49053,11.3719,0.279234,0.268162,0.116214,0
2024-11-29 18:02:24.331,-1.77398,3.52642,11.3169,0.274347,0.251669,0.133928,0
2024-11-29 18:02:24.333,-1.71416,3.55035,11.2642,0.267017,0.230289,0.14981,0
2024-11-29 18:02:24.336,-1.63998,3.58385,11.2307,0.260908,0.199747,0.160195,0
2024-11-29 18:02:24.338,-1.54188,3.61256,11.2044,0.250524,0.166761,0.169968,0
2024-11-29 18:02:24.341,-1.41266,3.63649,11.19,0.227312,0.0965139,0.179742,0
2024-11-29 18:02:24.342,-1.29033,3.65354,11.1829,0.227312,0.0965139,0.179742,0
2024-11-29 18:02:24.345,-1.1659,3.6679,11.1685,0.213873,0.0623064,0.179742,0
2024-11-29 18:02:24.347,-1.01755,3.67268,11.1829,0.197991,0.028099,0.175466,0
2024-11-29 18:02:24.350,-0.85005,3.66551,11.2235,0.182109,-0.00549763,0.168136,0
2024-11-29 18:02:24.353,-0.672682,3.66072,11.2714,0.161951,-0.0409268,0.15653,0
2024-11-29 18:02:24.356,-0.380758,3.66311,11.4317,0.124078,-0.109953,0.124766,0
2024-11-29 18:02:24.356,-0.380758,3.66311,11.4317,0.124078,-0.109953,0.124766,0
2024-11-29 18:02:24.360,-0.267996,3.63889,11.4987,0.106364,-0.144771,0.109494,0
2024-11-29 18:02:24.362,-0.193819,3.60778,11.5851,0.0843733,-0.173481,0.0936123,0
2024-11-29 18:02:24.363,-0.12682,3.56471,11.6952,0.065437,-0.197304,0.0752869,0
2024-11-29 18:02:24.367,-0.0311067,3.49053,11.8005,0.0471116,-0.222348,0.0600157,0
2024-11-29 18:02:24.368,0.0837488,3.40917,11.9106,0.0257319,-0.24495,0.0404686,0
2024-11-29 18:02:24.371,0.191426,3.30868,12.0302,0.00618483,-0.266329,0.0245866,0
2024-11-29 18:02:24.374,0.289831,3.201,12.1573,-0.0286335,-0.299926,-0.00901,0
2024-11-29 18:02:24.376,0.375972,3.1005,12.2865,-0.0286335,-0.299926,-0.00901,0
2024-11-29 18:02:24.378,0.440578,2.9997,12.3942,-0.046348,-0.314586,-0.0261137,0
2024-11-29 18:02:24.380,0.476471,2.90399,12.4899,-0.0616192,-0.323138,-0.0438283,0
2024-11-29 18:02:24.385,0.567398,2.71974,12.6553,-0.0909399,-0.341464,-0.0762032,0
2024-11-29 18:02:24.385,0.567398,2.71974,12.6553,-0.0909399,-0.341464,-0.0762032,0
2024-11-29 18:02:24.388,0.615255,2.61207,12.7343,-0.107433,-0.352459,-0.0920852,0
2024-11-29 18:02:24.389,0.663111,2.51127,12.8611,-0.122704,-0.366508,-0.109189,0
2024-11-29 18:02:24.394,0.694218,2.34377,13.1674,-0.150192,-0.392164,-0.140342,0
2024-11-29 18:02:24.395,0.694218,2.34377,13.1674,-0.160576,-0.40377,-0.152559,0
2024-11-29 18:02:24.399,0.643968,2.15713,13.4524,-0.166685,-0.406213,-0.166609,0
2024-11-29 18:02:24.400,0.643968,2.15713,13.4524,-0.170961,-0.402548,-0.17516,0
2024-11-29 18:02:24.405,0.627219,1.99202,13.6989,-0.169739,-0.380558,-0.184323,0
2024-11-29 18:02:24.405,0.60329,1.99202,13.6989,-0.169739,-0.380558,-0.184323,0
2024-11-29 18:02:24.407,0.555434,1.89601,13.838,-0.165463,-0.359178,-0.187988,0
2024-11-29 18:02:24.408,0.514756,1.83619,13.96,-0.165463,-0.359178,-0.187988,0
2024-11-29 18:02:24.412,0.474078,1.76919,14.051,-0.14836,-0.300537,-0.183712,2
2024-11-29 18:02:24.414,0.414257,1.68066,14.1443,-0.14836,-0.300537,-0.183712,0
2024-11-29 18:02:24.416,0.34008,1.61845,14.1993,-0.117817,-0.217462,-0.171495,0
2024-11-29 18:02:24.418,0.260818,1.53709,14.1969,-0.117817,-0.217462,-0.171495,0
2024-11-29 18:02:24.422,0.0646062,1.36451,14.1299,-0.0848314,-0.120337,-0.147672,0
2024-11-29 18:02:24.423,0.0646062,1.36451,14.1299,-0.0848314,-0.120337,-0.147672,0
2024-11-29 18:02:24.426,-0.0311067,1.29272,14.0151,-0.0713928,-0.0684149,-0.134234,0
2024-11-29 18:02:24.428,-0.124427,1.23769,13.8882,-0.0579541,-0.0164929,-0.116519,0
2024-11-29 18:02:24.429,-0.236889,1.18265,13.7468,-0.0475697,0.0305424,-0.0945286,0
2024-11-29 18:02:24.432,-0.354437,1.1324,13.5912,-0.0390179,0.0763559,-0.0719273,0
2024-11-29 18:02:24.435,-0.454935,1.08215,13.4189,-0.0316877,0.153323,-0.0193944,0
2024-11-29 18:02:24.438,-0.548256,1.02951,13.2323,-0.0316877,0.153323,-0.0193944,0
2024-11-29 18:02:24.440,-0.646361,0.988834,13.0549,-0.0341311,0.212575,0.0410795,0
2024-11-29 18:02:24.441,-0.722932,0.957727,12.8851,-0.0341311,0.212575,0.0410795,0
2024-11-29 18:02:24.444,-0.777966,0.936192,12.7199,-0.0420721,0.232733,0.0728435,0
2024-11-29 18:02:24.446,-0.821037,0.897907,12.5689,-0.0481806,0.251669,0.10644,0
2024-11-29 18:02:24.448,-0.842872,0.878764,12.4421,-0.0579541,0.266329,0.136372,0
2024-11-29 18:02:24.452,-0.854836,0.890728,12.332,-0.0775012,0.285877,0.200511,0
2024-11-29 18:02:24.454,-0.869193,0.890728,12.2315,-0.0872748,0.290763,0.232275,0
2024-11-29 18:02:24.456,-0.869193,0.88355,12.1549,-0.0872748,0.290763,0.232275,0
2024-11-29 18:02:24.458,-0.857229,0.876371,12.0879,-0.0952158,0.293818,0.262206,0
2024-11-29 18:02:24.460,-0.825823,0.881157,12.0206,-0.106211,0.298093,0.290305,0
2024-11-29 18:02:24.462,-0.789931,0.895514,11.9608,-0.114763,0.297483,0.318404,0
2024-11-29 18:02:24.466,-0.758824,0.917049,11.9082,-0.133699,0.290763,0.375213,0
2024-11-29 18:02:24.468,-0.715753,0.945763,11.8651,-0.142862,0.284044,0.400258,0
2024-11-29 18:02:24.470,-0.667897,0.967299,11.822,-0.142862,0.284044,0.400258,0
2024-11-29 18:02:24.472,-0.600898,0.979263,11.7718,-0.153246,0.274881,0.424692,0
2024-11-29 18:02:24.475,-0.545863,0.991227,11.7479,-0.168517,0.242506,0.468062,0
2024-11-29 18:02:24.478,-0.486042,1.02233,11.7431,-0.168517,0.242506,0.468062,0
2024-11-29 18:02:24.479,-0.402293,1.02233,11.7168,-0.176459,0.225403,0.489441,0
2024-11-29 18:02:24.481,-0.325723,1.02473,11.7048,-0.18501,0.200969,0.506545,0
2024-11-29 18:02:24.485,-0.265603,1.05583,11.7215,-0.190508,0.177757,0.52426,0
2024-11-29 18:02:24.487,-0.200997,1.08455,11.7455,-0.196616,0.1295,0.550526,0
2024-11-29 18:02:24.488,-0.119641,1.11087,11.7814,-0.196616,0.1295,0.550526,0
2024-11-29 18:02:24.492,-0.0334995,1.1324,11.8149,-0.199671,0.110563,0.565186,0
2024-11-29 18:02:24.493,0.0646062,1.14197,11.834,-0.196616,0.0904054,0.577403,0
2024-11-29 18:02:24.496,0.189033,1.11805,11.8244,-0.194784,0.067804,0.582901,0
2024-11-29 18:02:24.499,0.332901,1.07498,11.8125,-0.194784,0.0507003,0.590842,0
2024-11-29 18:02:24.501,0.481256,1.03669,11.8364,-0.195395,0.0134386,0.595118,0
2024-11-29 18:02:24.503,0.598505,1.01276,11.8412,-0.195395,0.0134386,0.595118,0
2024-11-29 18:02:24.506,0.670289,1.01276,11.8388,-0.193562,-0.00488678,0.600616,0
2024-11-29 18:02:24.507,0.744467,1.02233,11.8508,-0.193562,-0.00488678,0.600616,0
2024-11-29 18:02:24.511,0.794716,1.04148,11.8555,-0.191119,-0.00733017,0.599394,0
2024-11-29 18:02:24.513,0.825823,1.06301,11.8747,-0.188065,-0.00794101,0.598783,0
2024-11-29 18:02:24.515,0.857229,1.07737,11.8938,-0.183789,-0.00366508,0.601226,0
2024-11-29 18:02:24.518,0.881157,1.08694,11.8986,-0.169128,0.015882,0.598783,0
2024-11-29 18:02:24.520,0.897907,1.11087,11.8962,-0.169128,0.015882,0.598783,0
2024-11-29 18:02:24.521,0.905085,1.14676,11.8962,-0.158133,0.0287098,0.597561,0
2024-11-29 18:02:24.524,0.902692,1.17069,11.8914,-0.144694,0.0458135,0.595118,0
2024-11-29 18:02:24.527,0.878764,1.18026,11.8627,-0.131867,0.0653607,0.595729,0
2024-11-29 18:02:24.528,0.859622,1.18983,11.7933,-0.117206,0.0922379,0.595729,0
2024-11-29 18:02:24.532,0.82343,1.1994,11.7144,-0.0799446,0.145992,0.597561,0
2024-11-29 18:02:24.534,0.787538,1.19701,11.6282,-0.0799446,0.145992,0.597561,0
2024-11-29 18:02:24.536,0.754038,1.19222,11.5182,-0.0622301,0.175924,0.600005,0
2024-11-29 18:02:24.538,0.701396,1.20419,11.4006,-0.046348,0.205245,0.600616,0
2024-11-29 18:02:24.541,0.65354,1.22333,11.281,-0.0255792,0.23762,0.604281,0
2024-11-29 18:02:24.544,0.60329,1.23529,11.1661,0.0141258,0.30298,0.610389,0
2024-11-29 18:02:24.545,0.545863,1.25922,11.0441,0.0141258,0.30298,0.610389,0
2024-11-29 18:02:24.548,0.505185,1.29751,10.917,0.0355055,0.33902,0.616498,0
2024-11-29 18:02:24.550,0.447757,1.31665,10.759,0.0562743,0.372006,0.621384,0
2024-11-29 18:02:24.553,0.397508,1.32622,10.5604,0.0923143,0.43981,0.631769,0
2024-11-29 18:02:24.555,0.366401,1.33819,10.3615,0.113083,0.471574,0.637266,0
2024-11-29 18:02:24.558,0.337687,1.34297,10.151,0.113083,0.471574,0.637266,0
2024-11-29 18:02:24.560,0.32333,1.34536,9.94517,0.13263,0.503949,0.642764,0
2024-11-29 18:02:24.562,0.292223,1.35733,9.75584,0.147291,0.533881,0.648872,0
2024-11-29 18:02:24.564,0.248854,1.37886,9.58355,0.163173,0.558314,0.654981,0
2024-11-29 18:02:24.566,0.217747,1.39083,9.41845,0.179665,0.577861,0.663533,0
2024-11-29 18:02:24.569,0.191426,1.39801,9.25305,0.194937,0.595576,0.672085,0
2024-11-29 18:02:24.572,0.181855,1.40279,9.08315,0.210208,0.610236,0.678804,0
2024-11-29 18:02:24.574,0.179462,1.39561,8.90609,0.241361,0.636503,0.694686,0
2024-11-29 18:02:24.576,0.179462,1.37886,8.72184,0.241361,0.636503,0.694686,0
2024-11-29 18:02:24.578,0.193819,1.3669,8.52772,0.256632,0.646276,0.700184,0
2024-11-29 18:02:24.580,0.210568,1.35254,8.32433,0.270682,0.652996,0.708736,0
2024-11-29 18:02:24.583,0.205783,1.35494,8.13261,0.28412,0.655439,0.717898,0
2024-11-29 18:02:24.586,0.191426,1.37886,7.97229,0.3055,0.643222,0.732559,0
2024-11-29 18:02:24.587,0.18664,1.39083,7.82154,0.3055,0.643222,0.732559,0
2024-11-29 18:02:24.591,0.181855,1.41266,7.67318,0.315884,0.631005,0.7405,0
2024-11-29 18:02:24.593,0.153141,1.45334,7.53889,0.324436,0.615123,0.746608,0
2024-11-29 18:02:24.594,0.131605,1.5012,7.40967,0.333599,0.594354,0.755771,0
2024-11-29 18:02:24.598,0.133998,1.54427,7.28525,0.350703,0.558314,0.772264,0
2024-11-29 18:02:24.600,0.160319,1.56341,7.16321,0.350703,0.558314,0.772264,0
2024-11-29 18:02:24.602,0.189033,1.58973,7.04118,0.359865,0.534491,0.779594,0
2024-11-29 18:02:24.605,0.22014,1.61366,6.92602,0.367806,0.510057,0.784481,0
2024-11-29 18:02:24.606,0.272782,1.62323,6.81835,0.378191,0.486234,0.791811,0
2024-11-29 18:02:24.608,0.320937,1.63998,6.71306,0.383078,0.459968,0.796698,0
2024-11-29 18:02:24.611,0.371187,1.65912,6.61735,0.390408,0.434312,0.795476,0
2024-11-29 18:02:24.613,0.411865,1.68544,6.53839,0.395905,0.408657,0.796698,0
2024-11-29 18:02:24.616,0.454935,1.70698,6.46421,0.400181,0.381169,0.794865,0
2024-11-29 18:02:24.619,0.495613,1.73091,6.39452,0.40629,0.354902,0.793032,0
2024-11-29 18:02:24.621,0.579362,1.71416,6.3993,0.409344,0.327414,0.788146,0
2024-11-29 18:02:24.623,0.945763,1.47966,6.80878,0.417285,0.277936,0.777761,0
2024-11-29 18:02:24.625,1.1994,1.33819,7.17039,0.43561,0.20219,0.753938,0
2024-11-29 18:02:24.627,0.948156,1.49641,6.88056,0.459433,0.154544,0.730726,0
2024-11-29 18:02:24.631,0.632004,1.69023,6.44716,0.479591,0.157599,0.720342,0
2024-11-29 18:02:24.632,0.562612,1.84098,6.34188,0.494863,0.174702,0.716677,0
2024-11-29 18:02:24.635,0.660718,1.92951,6.44477,0.512577,0.178978,0.713011,0
2024-11-29 18:02:24.638,0.694218,1.98963,6.44477,0.512577,0.178978,0.713011,0
2024-11-29 18:02:24.639,0.634397,2.05185,6.27009,0.528459,0.144771,0.71179,0
2024-11-29 18:02:24.642,0.598505,2.10927,6.0356,0.527848,0.127056,0.713622,0
2024-11-29 18:02:24.644,0.632004,2.1332,5.85823,0.521129,0.116061,0.714233,0
2024-11-29 18:02:24.647,0.737288,2.1332,5.71944,0.508301,0.105066,0.713622,0
2024-11-29 18:02:24.650,0.873978,2.13081,5.59741,0.488754,0.0977356,0.708736,0
2024-11-29 18:02:24.652,1.01515,2.1332,5.54716,0.469207,0.0916271,0.703849,0
2024-11-29 18:02:24.654,1.14676,2.14277,5.52084,0.449049,0.0861295,0.691021,0
2024-11-29 18:02:24.656,1.25922,2.18106,5.44666,0.425837,0.087962,0.675139,0
2024-11-29 18:02:24.658,1.35015,2.22652,5.39163,0.400792,0.0928488,0.6617,0
2024-11-29 18:02:24.660,1.42702,2.25524,5.39163,0.375747,0.0995681,0.642764,0
2024-11-29 18:02:24.663,1.47727,2.27677,5.42273,0.351314,0.106287,0.621384,0
2024-11-29 18:02:24.665,1.52991,2.28873,5.46341,0.326269,0.10812,0.599394,0
2024-11-29 18:02:24.668,1.60648,2.30548,5.4993,0.299392,0.108731,0.57496,0
2024-11-29 18:02:24.673,1.71416,2.33181,5.48734,0.248691,0.128278,0.522427,0
2024-11-29 18:02:24.673,1.71416,2.33181,5.48734,0.248691,0.128278,0.522427,0
2024-11-29 18:02:24.677,1.81944,2.35573,5.55195,0.194937,0.163096,0.462564,0
2024-11-29 18:02:24.678,1.81944,2.35573,5.55195,0.194937,0.163096,0.462564,0
2024-11-29 18:02:24.681,1.8673,2.37966,5.65245,0.143625,0.202801,0.405755,0
2024-11-29 18:02:24.682,1.8673,2.37966,5.65245,0.143625,0.202801,0.405755,0
2024-11-29 18:02:24.685,1.86251,2.38206,5.67877,0.0996445,0.248615,0.342227,0
2024-11-29 18:02:24.687,1.84816,2.39163,5.73859,0.0739889,0.267551,0.313517,0
2024-11-29 18:02:24.690,1.85294,2.40359,5.80319,0.0739889,0.267551,0.313517,0
2024-11-29 18:02:24.692,1.83619,2.37966,5.8678,0.0526092,0.290763,0.283586,0
2024-11-29 18:02:24.696,1.79791,2.37009,6.02124,0.0116825,0.33169,0.224945,0
2024-11-29 18:02:24.696,1.75484,2.3677,6.02124,0.0116825,0.33169,0.224945,0
2024-11-29 18:02:24.698,1.68784,2.36052,6.09063,-0.00236703,0.354902,0.196846,0
2024-11-29 18:02:24.701,1.61845,2.35334,6.15763,-0.0170274,0.374449,0.169357,0
2024-11-29 18:02:24.703,1.54427,2.34856,6.21984,-0.0286335,0.397051,0.143091,0
2024-11-29 18:02:24.706,1.43659,2.36291,6.29881,-0.0469589,0.429426,0.0966666,0
2024-11-29 18:02:24.708,1.32144,2.36052,6.36102,-0.0469589,0.429426,0.0966666,0
2024-11-29 18:02:24.711,1.21854,2.32702,6.39691,-0.050624,0.441032,0.0758978,0
2024-11-29 18:02:24.712,1.0989,2.31027,6.42084,-0.0567324,0.449584,0.0557398,0
2024-11-29 18:02:24.715,0.957727,2.30788,6.45703,-0.0567324,0.452027,0.0368035,0
2024-11-29 18:02:24.718,0.828216,2.30788,6.49292,-0.0658951,0.44714,0.0135914,0
2024-11-29 18:02:24.719,0.694218,2.30788,6.51685,-0.0658951,0.44714,0.0135914,0
2024-11-29 18:02:24.723,0.536291,2.29831,6.52403,-0.0683385,0.43981,0.00320695,0
2024-11-29 18:02:24.725,0.390329,2.29831,6.53121,-0.0720036,0.43248,-0.00412322,0
2024-11-29 18:02:24.726,0.263211,2.29591,6.56471,-0.0762796,0.422095,-0.00839915,0
2024-11-29 18:02:24.729,0.153141,2.28634,6.61017,-0.0793338,0.409268,-0.00901,0
2024-11-29 18:02:24.732,0.0430708,2.28156,6.63649,-0.0829989,0.395218,-0.00595576,0
2024-11-29 18:02:24.733,-0.0526421,2.26241,6.67956,-0.0854423,0.376282,-0.00229068,0
2024-11-29 18:02:24.737,-0.131605,2.2337,6.75135,-0.0933833,0.330468,0.0105371,0
2024-11-29 18:02:24.738,-0.177069,2.21216,6.82313,-0.0933833,0.330468,0.0105371,0
2024-11-29 18:02:24.740,-0.208176,2.18584,6.89731,-0.0988809,0.30298,0.0209215,0
2024-11-29 18:02:24.744,-0.236889,2.14517,6.98345,-0.1056,0.240674,0.0423012,0
2024-11-29 18:02:24.746,-0.239282,2.10209,7.07707,-0.1056,0.240674,0.0423012,0
2024-11-29 18:02:24.748,-0.224925,2.07817,7.17757,-0.111709,0.207077,0.0532964,0
2024-11-29 18:02:24.751,-0.210568,2.07099,7.28764,-0.117206,0.141717,0.0746761,0
2024-11-29 18:02:24.753,-0.18664,2.04945,7.41925,-0.117206,0.141717,0.0746761,0
2024-11-29 18:02:24.755,-0.12682,2.03031,7.56042,-0.11965,0.110563,0.0875039,0
2024-11-29 18:02:24.757,-0.0454636,2.01595,7.70429,-0.119039,0.0787993,0.0984991,0
2024-11-29 18:02:24.763,0.0933201,1.98006,8.02014,-0.116595,0.0146603,0.111938,0
2024-11-29 18:02:24.763,0.0933201,1.98006,8.02014,-0.116595,0.0146603,0.111938,0
2024-11-29 18:02:24.765,0.153141,1.97049,8.19273,-0.115374,-0.0134386,0.119879,0
2024-11-29 18:02:24.766,0.215354,1.97049,8.34108,-0.109876,-0.0415376,0.124766,0
2024-11-29 18:02:24.770,0.258425,1.97528,8.50858,-0.1056,-0.0702474,0.127209,0
2024-11-29 18:02:24.772,0.289831,1.98963,8.68565,-0.0964375,-0.0928488,0.128431,0
2024-11-29 18:02:24.776,0.361615,1.99202,9.04248,-0.0768904,-0.137441,0.133928,0
2024-11-29 18:02:24.777,0.361615,1.99202,9.04248,-0.0768904,-0.137441,0.133928,0
2024-11-29 18:02:24.780,0.409472,2.02792,9.33231,-0.046348,-0.163707,0.133928,0
2024-11-29 18:02:24.780,0.409472,2.02792,9.33231,-0.046348,-0.163707,0.133928,0
2024-11-29 18:02:24.784,0.41665,2.04467,9.47109,-0.0322986,-0.173481,0.132707,0
2024-11-29 18:02:24.786,0.428614,2.04945,9.58595,-0.0158057,-0.179589,0.134539,0
2024-11-29 18:02:24.787,0.4334,2.04945,9.67687,0.00251974,-0.186308,0.132707,0
2024-11-29 18:02:24.791,0.428614,2.04945,9.77259,0.0147367,-0.188141,0.130263,0
2024-11-29 18:02:24.792,0.4334,2.05663,9.87338,0.0330621,-0.190584,0.130263,0
2024-11-29 18:02:24.796,0.428614,2.0686,9.9667,0.0452791,-0.193639,0.128431,0
2024-11-29 18:02:24.797,0.397508,2.08295,10.0481,0.0611611,-0.19486,0.125376,0
2024-11-29 18:02:24.800,0.359223,2.08774,10.1318,0.0849841,-0.189363,0.125987,0
2024-11-29 18:02:24.804,0.287438,2.09731,10.2945,0.0972011,-0.185698,0.129041,0
2024-11-29 18:02:24.805,0.287438,2.09731,10.2945,0.0972011,-0.185698,0.129041,0
2024-11-29 18:02:24.809,0.22014,2.08774,10.4169,0.114305,-0.174091,0.134539,0
2024-11-29 18:02:24.810,0.22014,2.08774,10.4169,0.121635,-0.16554,0.138815,0
2024-11-29 18:02:24.811,0.222533,2.09492,10.4743,0.121635,-0.16554,0.138815,0
2024-11-29 18:02:24.813,0.239282,2.10209,10.5245,0.127133,-0.156377,0.141258,0
2024-11-29 18:02:24.816,0.263211,2.09492,10.5987,0.130798,-0.147825,0.143702,0
2024-11-29 18:02:24.818,0.292223,2.0997,10.6753,0.135074,-0.141717,0.147978,0
2024-11-29 18:02:24.820,0.328116,2.09731,10.7327,0.13263,-0.131943,0.149199,0
2024-11-29 18:02:24.824,0.354437,2.11406,10.8117,0.134463,-0.120948,0.14981,0
2024-11-29 18:02:24.826,0.35683,2.14517,10.9074,0.133241,-0.0836861,0.157751,0
2024-11-29 18:02:24.829,0.35683,2.1667,11.001,0.133241,-0.0836861,0.157751,0
2024-11-29 18:02:24.832,0.352044,2.25524,11.1685,0.137517,-0.023823,0.161416,0
2024-11-29 18:02:24.832,0.352044,2.25524,11.1685,0.137517,-0.023823,0.161416,0
2024-11-29 18:02:24.835,0.35683,2.29591,11.2451,0.143625,0.0109953,0.162638,0
2024-11-29 18:02:24.838,0.375972,2.32702,11.324,0.152177,0.0952922,0.17119,0
2024-11-29 18:02:24.839,0.380758,2.3677,11.403,0.152177,0.0952922,0.17119,0
2024-11-29 18:02:24.842,0.385544,2.42034,11.4676,0.157675,0.142938,0.176688,0
2024-11-29 18:02:24.844,0.383151,2.47537,11.5158,0.166227,0.194249,0.181574,0
2024-11-29 18:02:24.847,0.361615,2.52832,11.554,0.17539,0.245561,0.18585,0
2024-11-29 18:02:24.849,0.344866,2.58814,11.5636,0.189439,0.302369,0.191348,0
2024-11-29 18:02:24.851,0.335294,2.65992,11.5349,0.199213,0.356124,0.195624,0
2024-11-29 18:02:24.853,0.313759,2.73649,11.4748,0.210819,0.4111,0.200511,0
2024-11-29 18:02:24.857,0.277567,2.79631,11.3767,0.230366,0.511279,0.208452,0
2024-11-29 18:02:24.859,0.239282,2.84895,11.2546,0.230366,0.511279,0.208452,0
2024-11-29 18:02:24.861,0.189033,2.90638,11.1039,0.232809,0.549152,0.210284,0
2024-11-29 18:02:24.863,0.138784,2.95902,10.946,0.232809,0.549152,0.210284,0
2024-11-29 18:02:24.865,0.0861416,3.00688,10.8021,0.232809,0.604128,0.209673,0
2024-11-29 18:02:24.869,0.040678,3.05952,10.6729,0.22609,0.613291,0.208452,0
2024-11-29 18:02:24.870,0.0,3.12443,10.5485,0.213262,0.612069,0.208452,0
2024-11-29 18:02:24.873,-0.0550349,3.18664,10.4192,0.196158,0.602906,0.206619,0
2024-11-29 18:02:24.876,-0.100499,3.25125,10.2826,0.174168,0.577251,0.201732,0
2024-11-29 18:02:24.878,-0.129212,3.31107,10.1414,0.146069,0.545487,0.193791,0
2024-11-29 18:02:24.879,-0.133998,3.34935,10.0385,0.113694,0.502727,0.18585,0
2024-11-29 18:02:24.883,-0.105284,3.3685,9.97388,0.0745997,0.445308,0.172412,0
2024-11-29 18:02:24.884,-0.0550349,3.38285,9.95474,0.0342838,0.378725,0.159584,0
2024-11-29 18:02:24.887,0.0143569,3.39721,9.99303,-0.010308,0.299315,0.140648,0
2024-11-29 18:02:24.890,0.081356,3.40439,10.0576,-0.104989,0.113007,0.0923906,0
2024-11-29 18:02:24.892,0.133998,3.40917,10.1581,-0.104989,0.113007,0.0923906,0
2024-11-29 18:02:24.895,0.208176,3.42353,10.3208,-0.154468,0.0146603,0.0636808,0
2024-11-29 18:02:24.898,0.445364,3.34457,10.8117,-0.252814,-0.205245,-0.00656661,0
2024-11-29 18:02:24.899,0.445364,3.34457,10.8117,-0.252814,-0.205245,-0.00656661,0
2024-11-29 18:02:24.902,0.56022,3.29193,11.1374,-0.341998,-0.437977,-0.0841442,0
2024-11-29 18:02:24.904,0.682254,3.21775,11.5011,-0.341998,-0.437977,-0.0841442,0
2024-11-29 18:02:24.905,0.780359,3.12443,11.8819,-0.382314,-0.550373,-0.12446,0
2024-11-29 18:02:24.908,0.852443,3.04038,12.2459,-0.420797,-0.659104,-0.164165,0
2024-11-29 18:02:24.912,1.02712,2.86092,12.9568,-0.483104,-0.845413,-0.23991,0
2024-11-29 18:02:24.913,1.02712,2.86092,12.9568,-0.483104,-0.845413,-0.23991,0
2024-11-29 18:02:24.916,1.11805,2.78674,13.3639,-0.531972,-0.992016,-0.31932,0
2024-11-29 18:02:24.917,1.18505,2.71735,13.8117,-0.531972,-0.992016,-0.31932,0
2024-11-29 18:02:24.922,1.22572,2.65035,14.6495,-0.549686,-1.0867,-0.388957,0
2024-11-29 18:02:24.923,1.18026,2.65035,14.6495,-0.549686,-1.0867,-0.388957,0
2024-11-29 18:02:24.925,0.914656,2.78196,14.7547,-0.553962,-1.1038,-0.414002,0
2024-11-29 18:02:24.927,0.770788,2.84656,14.8771,-0.563125,-1.09464,-0.426219,0
2024-11-29 18:02:24.932,1.17787,2.57857,15.6981,-0.563736,-1.09158,-0.457983,0
2024-11-29 18:02:24.932,1.17787,2.57857,15.6981,-0.563736,-1.09158,-0.457983,0
2024-11-29 18:02:24.934,1.42463,2.36291,16.0573,-0.563736,-1.09158,-0.457983,0
2024-11-29 18:02:24.937,1.62802,2.14756,16.3493,-0.551519,-1.08303,-0.473865,0
2024-11-29 18:02:24.938,1.78116,1.91755,16.6056,-0.53075,-1.05127,-0.490968,0
2024-11-29 18:02:24.941,1.90558,1.71416,16.8305,-0.501429,-0.99507,-0.509294,0
2024-11-29 18:02:24.943,2.01835,1.51316,17.0172,-0.464168,-0.919325,-0.526398,0
2024-11-29 18:02:24.945,2.08535,1.33579,17.1826,-0.418354,-0.826476,-0.544723,0
2024-11-29 18:02:24.949,2.07338,1.18744,17.2807,-0.365821,-0.721411,-0.560605,0
2024-11-29 18:02:24.950,2.01356,1.04626,17.3022,-0.308401,-0.607793,-0.572822,0
2024-11-29 18:02:24.953,1.92473,0.907478,17.2472,-0.247928,-0.484402,-0.583206,0
2024-11-29 18:02:24.956,1.74287,0.785145,17.1129,-0.121482,-0.226624,-0.591147,2
2024-11-29 18:02:24.958,1.42702,0.703789,16.8999,-0.121482,-0.226624,-0.591147,0
2024-11-29 18:02:24.959,1.0989,0.643968,16.6343,-0.0591758,-0.0910162,-0.582596,0
2024-11-29 18:02:24.963,0.816252,0.608076,16.3445,0.0703238,0.181422,-0.548999,0
2024-11-29 18:02:24.965,0.524327,0.610469,16.0238,0.0703238,0.181422,-0.548999,0
2024-11-29 18:02:24.967,0.244068,0.655932,15.6311,0.133241,0.312754,-0.522122,0
2024-11-29 18:02:24.970,-0.0167498,0.749253,15.157,0.193715,0.443475,-0.489747,0
2024-11-29 18:02:24.972,-0.30658,0.88355,14.6112,0.247469,0.575418,-0.450042,0
2024-11-29 18:02:24.974,-0.596112,1.03669,14.039,0.294505,0.698198,-0.410337,0
2024-11-29 18:02:24.977,-0.873978,1.18505,13.462,0.367196,0.890615,-0.319931,0
2024-11-29 18:02:24.978,-1.14676,1.32861,12.8731,0.367196,0.890615,-0.319931,0
2024-11-29 18:02:24.981,-1.36929,1.45573,12.277,0.389186,0.95903,-0.272896,0
2024-11-29 18:02:24.983,-1.41745,1.49402,11.7455,0.39957,1.0024,-0.226472,0
2024-11-29 18:02:24.985,-1.16112,1.38365,11.5301,0.403846,1.01217,-0.191042,0
2024-11-29 18:02:24.988,-1.01276,1.33819,11.2929,0.413009,0.984075,-0.170885,0
2024-11-29 18:02:24.992,-1.4988,1.67827,10.0193,0.405068,0.962084,-0.130569,0
2024-11-29 18:02:24.992,-1.4988,1.67827,10.0193,0.405068,0.962084,-0.130569,0
2024-11-29 18:02:24.996,-1.54188,1.85773,9.6338,0.392851,0.948646,-0.108578,0
2024-11-29 18:02:24.997,-1.57059,2.01356,9.32034,0.374526,0.912606,-0.0908635,0
2024-11-29 18:02:25.001,-1.61127,2.14517,9.02333,0.345816,0.855186,-0.076814,0
2024-11-29 18:02:25.002,-1.62323,2.29352,8.72423,0.310998,0.773333,-0.0627646,0
2024-11-29 18:02:25.005,-1.6017,2.46102,8.41287,0.219371,0.560147,-0.04505,0
2024-11-29 18:02:25.007,-1.55623,2.62403,8.09911,0.219371,0.560147,-0.04505,0
2024-11-29 18:02:25.010,-1.4653,2.77717,7.89093,0.165616,0.437977,-0.0426066,0
2024-11-29 18:02:25.014,-1.05105,3.02842,7.84068,0.0440574,0.161264,-0.0566561,0
2024-11-29 18:02:25.015,-1.28315,3.02842,7.84068,0.0440574,0.161264,-0.0566561,0
2024-11-29 18:02:25.016,-0.859622,3.15314,7.89093,-0.0200816,0.0134386,-0.0749815,0
2024-11-29 18:02:25.021,-0.658325,3.30389,7.89093,-0.139808,-0.256556,-0.125682,0
2024-11-29 18:02:25.021,-0.452543,3.4355,7.85025,-0.139808,-0.256556,-0.125682,0
2024-11-29 18:02:25.024,-0.200997,3.50728,7.88375,-0.201503,-0.376893,-0.1605,0
2024-11-29 18:02:25.026,0.102891,3.53121,8.01297,-0.261366,-0.49723,-0.202649,0
2024-11-29 18:02:25.029,0.366401,3.50728,8.21905,-0.390866,-0.755618,-0.304049,0
2024-11-29 18:02:25.031,0.584148,3.41875,8.51336,-0.390866,-0.755618,-0.304049,0
2024-11-29 18:02:25.032,0.770788,3.26321,8.85344,-0.45134,-0.896724,-0.361469,0
2024-11-29 18:02:25.036,0.940978,3.08345,9.18605,-0.508759,-1.02867,-0.421943,0
2024-11-29 18:02:25.038,1.11087,2.90878,9.51416,-0.605273,-1.26201,-0.547777,0
2024-11-29 18:02:25.041,1.28315,2.75803,9.89013,-0.605273,-1.26201,-0.547777,0
2024-11-29 18:02:25.043,1.43659,2.63121,10.3352,-0.640779,-1.35188,-0.61436,0
2024-11-29 18:02:25.045,1.41506,2.6001,10.7136,-0.664602,-1.42274,-0.682775,0
2024-11-29 18:02:25.047,1.18026,2.67428,10.8787,-0.682927,-1.46122,-0.73714,0
2024-11-29 18:02:25.050,1.06301,2.67667,11.1087,-0.704918,-1.47344,-0.783564,0
2024-11-29 18:02:25.051,1.12762,2.60489,11.4604,-0.717135,-1.48321,-0.825102,0
2024-11-29 18:02:25.054,1.14676,2.51366,11.688,-0.723854,-1.48321,-0.865418,0
2024-11-29 18:02:25.056,1.14676,2.3677,11.8603,-0.733017,-1.47222,-0.900847,0
2024-11-29 18:02:25.059,1.17308,2.18106,12.0422,-0.736682,-1.44778,-0.937498,0
2024-11-29 18:02:25.061,1.18744,1.99681,12.1837,-0.740347,-1.40991,-0.972316,0
2024-11-29 18:02:25.063,1.14197,1.81944,12.2698,-0.737903,-1.3531,-1.00652,0
2024-11-29 18:02:25.065,1.05105,1.65194,12.3272,-0.729962,-1.27972,-1.03707,0
2024-11-29 18:02:25.069,0.924228,1.49402,12.3631,-0.704918,-1.09219,-1.0841,0
2024-11-29 18:02:25.071,0.773181,1.36211,12.3488,-0.704918,-1.09219,-1.0841,0
2024-11-29 18:02:25.073,0.62004,1.24965,12.2985,-0.685981,-0.988962,-1.09937,0
2024-11-29 18:02:25.077,0.122034,1.07976,12.1693,-0.643222,-0.791658,-1.1122,0
2024-11-29 18:02:25.077,0.122034,1.07976,12.1693,-0.643222,-0.791658,-1.1122,0
2024-11-29 18:02:25.081,-0.193819,1.01515,12.0688,-0.590613,-0.61268,-1.09021,0
2024-11-29 18:02:25.082,-0.440578,0.950549,11.98,-0.590613,-0.61268,-1.09021,0
2024-11-29 18:02:25.084,-0.646361,0.885943,11.8747,-0.560071,-0.532048,-1.0725,0
2024-11-29 18:02:25.088,-0.828216,0.833001,11.7144,-0.497153,-0.37506,-1.01385,0
2024-11-29 18:02:25.090,-1.01515,0.816252,11.5373,-0.463557,-0.295039,-0.981479,0
2024-11-29 18:02:25.092,-1.18744,0.792323,11.3623,-0.463557,-0.295039,-0.981479,0
2024-11-29 18:02:25.094,-1.35015,0.768395,11.1948,-0.426295,-0.219905,-0.942995,0
2024-11-29 18:02:25.096,-1.50838,0.768395,11.0106,-0.391477,-0.145992,-0.90329,0
2024-11-29 18:02:25.099,-1.65194,0.766002,10.8045,-0.356048,-0.0714691,-0.860531,0
2024-11-29 18:02:25.101,-1.78834,0.761217,10.6107,-0.318786,-0.00855186,-0.814718,0
2024-11-29 18:02:25.104,-1.92473,0.758824,10.4169,-0.282135,0.0488678,-0.767071,0
2024-11-29 18:02:25.106,-2.06142,0.773181,10.2299,-0.247317,0.0946813,-0.720036,0
2024-11-29 18:02:25.108,-2.16909,0.813859,10.0122,-0.212498,0.133776,-0.671779,0
2024-11-29 18:02:25.110,-2.25045,0.871586,9.7678,-0.179513,0.164318,-0.62169,0
2024-11-29 18:02:25.115,-2.37248,1.02473,9.27009,-0.117817,0.210131,-0.522733,0
2024-11-29 18:02:25.115,-2.37248,1.02473,9.27009,-0.117817,0.210131,-0.522733,0
2024-11-29 18:02:25.118,-2.41795,1.09173,9.00898,-0.0933833,0.219294,-0.474476,0
2024-11-29 18:02:25.121,-2.45863,1.14915,8.77448,-0.0732253,0.22357,-0.426219,0
2024-11-29 18:02:25.123,-2.47059,1.19462,8.55404,-0.0512348,0.219905,-0.383459,0
2024-11-29 18:02:25.124,-2.44188,1.23769,8.35544,-0.0322986,0.209521,-0.341311,0
2024-11-29 18:02:25.127,-2.3988,1.26401,8.19273,-0.0194708,0.192417,-0.301606,0
2024-11-29 18:02:25.129,-2.31745,1.2999,8.03929,-0.00603212,0.17287,-0.266177,0
2024-11-29 18:02:25.132,-2.22174,1.34058,7.88375,0.00923906,0.150879,-0.235023,0
2024-11-29 18:02:25.135,-2.1332,1.37408,7.74497,0.0324513,0.104455,-0.181269,0
2024-11-29 18:02:25.139,-1.91516,1.47248,7.56042,0.0422248,0.0812427,-0.1605,0
2024-11-29 18:02:25.139,-1.91516,1.47248,7.56042,0.0422248,0.0812427,-0.1605,0
2024-11-29 18:02:25.142,-1.79551,1.51555,7.49103,0.0513875,0.0586413,-0.142175,0
2024-11-29 18:02:25.144,-1.67348,1.53709,7.41925,0.0739889,0.0152712,-0.115297,0
2024-11-29 18:02:25.146,-1.53709,1.55623,7.35464,0.0739889,0.0152712,-0.115297,0
2024-11-29 18:02:25.149,-1.41266,1.57777,7.2996,0.0886492,-0.0250447,-0.101248,0
2024-11-29 18:02:25.153,-1.14915,1.59452,7.17996,0.0953685,-0.0415376,-0.0957503,0
2024-11-29 18:02:25.154,-1.14915,1.59452,7.17996,0.100866,-0.0574196,-0.0939178,0
2024-11-29 18:02:25.155,-1.0319,1.59691,7.11296,0.100866,-0.0574196,-0.0939178,0
2024-11-29 18:02:25.157,-0.919442,1.58734,7.06272,0.105142,-0.0733017,-0.0933069,0
2024-11-29 18:02:25.160,-0.80668,1.58495,7.03639,0.109418,-0.0855186,-0.0914744,0
2024-11-29 18:02:25.163,-0.727717,1.58734,7.0026,0.113694,-0.105066,-0.0945286,0
2024-11-29 18:02:25.165,-0.677468,1.57777,6.94756,0.113694,-0.105066,-0.0945286,0
2024-11-29 18:02:25.168,-0.622433,1.58016,6.91645,0.116748,-0.110563,-0.096972,0
2024-11-29 18:02:25.169,-0.579362,1.58734,6.9021,0.119802,-0.116061,-0.0957503,0
2024-11-29 18:02:25.172,-0.52672,1.57777,6.89013,0.121635,-0.116061,-0.096972,0
2024-11-29 18:02:25.175,-0.368794,1.49641,6.94277,0.124078,-0.124002,-0.0981937,0
2024-11-29 18:02:25.177,-0.119641,1.35733,7.12014,0.127743,-0.136219,-0.105524,0
2024-11-29 18:02:25.179,0.00957129,1.31186,7.28525,0.136906,-0.156377,-0.116519,0
2024-11-29 18:02:25.182,-0.0717847,1.36451,7.25893,0.16134,-0.16554,-0.135455,0
2024-11-29 18:02:25.184,-0.22014,1.44138,7.15364,0.16134,-0.16554,-0.135455,0
2024-11-29 18:02:25.187,-0.301795,1.48923,7.08186,0.172335,-0.157599,-0.137288,0
2024-11-29 18:02:25.188,-0.330509,1.52034,7.07946,0.186385,-0.150879,-0.136066,0
2024-11-29 18:02:25.191,-0.359223,1.54427,7.10579,0.208986,-0.14416,-0.128736,0
2024-11-29 18:02:25.194,-0.402293,1.55384,7.07468,0.219371,-0.14416,-0.120795,0
2024-11-29 18:02:25.196,-0.438186,1.55623,7.02443,0.225479,-0.147825,-0.113465,0
2024-11-29 18:02:25.198,-0.454935,1.56102,6.97388,0.225479,-0.147825,-0.113465,0
2024-11-29 18:02:25.202,-0.447757,1.51316,6.87099,0.231587,-0.162485,-0.0963612,0
2024-11-29 18:02:25.202,-0.447757,1.51316,6.87099,0.231587,-0.162485,-0.0963612,0
2024-11-29 18:02:25.204,-0.431007,1.49402,6.83271,0.237085,-0.16615,-0.0878093,0
2024-11-29 18:02:25.208,-0.411865,1.46291,6.81356,0.237696,-0.178367,-0.0719273,0
2024-11-29 18:02:25.210,-0.373579,1.42463,6.79681,0.241972,-0.179589,-0.0633754,0
2024-11-29 18:02:25.213,-0.335294,1.41984,6.78485,0.241972,-0.179589,-0.0633754,0
2024-11-29 18:02:25.214,-0.318545,1.42702,6.78485,0.243804,-0.182032,-0.0554344,0
2024-11-29 18:02:25.216,-0.32333,1.41266,6.78006,0.243804,-0.182032,-0.0554344,0
2024-11-29 18:02:25.220,-0.32333,1.42223,6.78006,0.249302,-0.18753,-0.0401632,0
2024-11-29 18:02:25.221,-0.301795,1.44138,6.79442,0.250524,-0.189363,-0.032833,0
2024-11-29 18:02:25.223,-0.304188,1.43898,6.81596,0.253578,-0.19486,-0.024892,0
2024-11-29 18:02:25.226,-0.299402,1.43659,6.83988,0.258465,-0.196693,-0.0145076,0
2024-11-29 18:02:25.228,-0.263211,1.44616,6.84467,0.259686,-0.20219,-0.00717746,0
2024-11-29 18:02:25.230,-0.205783,1.45813,6.84467,0.260297,-0.207077,-0.000458135,0
2024-11-29 18:02:25.234,-0.136391,1.4677,6.85424,0.26213,-0.208299,0.00687203,0
2024-11-29 18:02:25.236,-0.066999,1.47488,6.87338,0.265795,-0.208299,0.0129805,0
2024-11-29 18:02:25.237,-0.00478565,1.48205,6.87817,0.264573,-0.210131,0.0166456,0
2024-11-29 18:02:25.240,0.0478565,1.49402,6.85903,0.266406,-0.204634,0.0215324,0
2024-11-29 18:02:25.243,0.0933201,1.51555,6.85424,0.26946,-0.198525,0.0233649,0
2024-11-29 18:02:25.245,0.12682,1.54905,6.8662,0.267627,-0.191806,0.0258083,0
2024-11-29 18:02:25.247,0.150748,1.57777,6.87578,0.265795,-0.181422,0.0276408,0
2024-11-29 18:02:25.252,0.174676,1.65673,6.95474,0.266406,-0.166761,0.0282517,0
2024-11-29 18:02:25.253,0.174676,1.65673,6.95474,0.266406,-0.166761,0.0282517,0
2024-11-29 18:02:25.254,0.179462,1.69262,6.98345,0.266406,-0.158209,0.0313059,0
2024-11-29 18:02:25.256,0.200997,1.73569,7.01964,0.265184,-0.153323,0.0337493,0
2024-11-29 18:02:25.260,0.217747,1.77637,7.06511,0.265795,-0.147825,0.0331385,0
2024-11-29 18:02:25.261,0.241675,1.81705,7.11057,0.267627,-0.14416,0.0325276,0
2024-11-29 18:02:25.264,0.251246,1.83859,7.15843,0.267627,-0.141717,0.0343602,0
2024-11-29 18:02:25.267,0.251246,1.87926,7.18236,0.272514,-0.134386,0.0319168,0
2024-11-29 18:02:25.269,0.248854,1.94148,7.2015,0.273736,-0.130721,0.0306951,0
2024-11-29 18:02:25.270,0.248854,1.98485,7.23261,0.273736,-0.130721,0.0306951,0
2024-11-29 18:02:25.274,0.246461,2.02074,7.26132,0.277401,-0.127056,0.0282517,0
2024-11-29 18:02:25.275,0.241675,2.06142,7.32114,0.279234,-0.124613,0.0264191,0
2024-11-29 18:02:25.278,0.246461,2.10927,7.38335,0.278012,-0.123391,0.0264191,0
2024-11-29 18:02:25.281,0.258425,2.15952,7.436,0.27679,-0.124002,0.0233649,0
2024-11-29 18:02:25.282,0.272782,2.19541,7.48864,0.278623,-0.125835,0.0203107,0
2024-11-29 18:02:25.286,0.289831,2.23609,7.53171,0.274958,-0.128889,0.0160347,0
2024-11-29 18:02:25.287,0.328116,2.29352,7.59422,0.271903,-0.134997,0.0129805,0
2024-11-29 18:02:25.290,0.366401,2.33181,7.67558,0.265795,-0.152101,-0.00290152,0
2024-11-29 18:02:25.292,0.397508,2.36052,7.74975,0.265795,-0.152101,-0.00290152,0
2024-11-29 18:02:25.294,0.426222,2.40359,7.81197,0.260297,-0.161875,-0.00962084,0
2024-11-29 18:02:25.299,0.493221,2.44905,7.92922,0.249302,-0.184476,-0.0236703,0
2024-11-29 18:02:25.300,0.493221,2.44905,7.92922,0.249302,-0.184476,-0.0236703,0
2024-11-29 18:02:25.301,0.529113,2.48734,7.99143,0.24075,-0.197304,-0.0316113,0
2024-11-29 18:02:25.303,0.56022,2.4993,8.05364,0.232198,-0.208299,-0.0407741,0
2024-11-29 18:02:25.306,0.598505,2.50887,8.13261,0.222425,-0.221127,-0.0511585,0
2024-11-29 18:02:25.309,0.627219,2.52323,8.22144,0.209597,-0.235176,-0.0597103,0
2024-11-29 18:02:25.311,0.675075,2.54985,8.30519,0.196158,-0.25228,-0.0713164,0
2024-11-29 18:02:25.313,0.74686,2.56421,8.39372,0.18272,-0.270605,-0.0829225,0
2024-11-29 18:02:25.318,0.828216,2.62403,8.60908,0.153399,-0.314586,-0.105524,0
2024-11-29 18:02:25.319,0.780359,2.58574,8.60908,0.153399,-0.314586,-0.105524,0
2024-11-29 18:02:25.321,0.895514,2.62403,8.71705,0.115526,-0.364676,-0.134234,0
2024-11-29 18:02:25.322,0.957727,2.61446,8.82234,0.115526,-0.364676,-0.134234,0
2024-11-29 18:02:25.325,1.01276,2.62403,8.94676,0.093536,-0.392164,-0.149505,0
2024-11-29 18:02:25.328,1.07258,2.64796,9.10469,0.0507767,-0.436145,-0.18188,0
2024-11-29 18:02:25.332,1.2018,2.67906,9.42802,0.0300079,-0.448973,-0.197762,0
2024-11-29 18:02:25.333,1.2018,2.67906,9.42802,0.0300079,-0.448973,-0.197762,0
2024-11-29 18:02:25.334,1.24247,2.69581,9.59552,0.00740652,-0.458746,-0.213644,0
2024-11-29 18:02:25.337,1.28794,2.71735,9.77737,-0.0109189,-0.460579,-0.230748,0
2024-11-29 18:02:25.339,1.33101,2.73649,9.95953,-0.0274118,-0.45447,-0.244186,0
2024-11-29 18:02:25.341,1.34536,2.75085,10.1486,-0.0432938,-0.442253,-0.259457,0
2024-11-29 18:02:25.343,1.35733,2.76042,10.3519,-0.0542891,-0.422706,-0.272285,0
2024-11-29 18:02:25.347,1.36451,2.79392,10.5556,-0.0713928,-0.362232,-0.296108,0
2024-11-29 18:02:25.349,1.36451,2.84417,10.7614,-0.0713928,-0.362232,-0.296108,0
2024-11-29 18:02:25.350,1.34776,2.88963,10.9531,-0.074447,-0.320695,-0.308936,0
2024-11-29 18:02:25.354,1.3334,2.91835,11.1302,-0.0720036,-0.269994,-0.321153,0
2024-11-29 18:02:25.355,1.32383,2.95902,11.2857,-0.0658951,-0.216851,-0.330316,0
2024-11-29 18:02:25.358,1.29512,3.0021,11.4317,-0.0591758,-0.156988,-0.343143,0
2024-11-29 18:02:25.361,1.25444,2.99252,11.5947,-0.0316877,-0.0348183,-0.360858,0
2024-11-29 18:02:25.363,1.23051,2.97338,11.7168,-0.0316877,-0.0348183,-0.360858,0
2024-11-29 18:02:25.365,1.1994,2.96142,11.8077,-0.0127514,0.0268773,-0.371853,0
2024-11-29 18:02:25.368,1.14915,2.93988,11.8603,0.0306187,0.150879,-0.389568,0
2024-11-29 18:02:25.370,1.09651,2.91595,11.8795,0.0306187,0.150879,-0.389568,0
2024-11-29 18:02:25.372,1.01755,2.8992,11.8866,0.0513875,0.209521,-0.39812,0
2024-11-29 18:02:25.374,0.909871,2.87288,11.8579,0.0752106,0.269384,-0.40545,0
2024-11-29 18:02:25.377,0.801895,2.83938,11.8196,0.0984228,0.326803,-0.409726,0
2024-11-29 18:02:25.380,0.670289,2.84178,11.7622,0.119802,0.38239,-0.414613,0
2024-11-29 18:02:25.383,0.505185,2.85374,11.5995,0.163173,0.485013,-0.413391,0
2024-11-29 18:02:25.384,0.320937,2.88006,11.5995,0.163173,0.485013,-0.413391,0
2024-11-29 18:02:25.387,0.11007,2.94227,11.5564,0.205932,0.566866,-0.401785,0
2024-11-29 18:02:25.388,-0.100499,3.0021,11.5134,0.205932,0.566866,-0.401785,0
2024-11-29 18:02:25.392,-0.294616,3.04756,11.4413,0.244415,0.622453,-0.370021,0
2024-11-29 18:02:25.394,-0.469292,3.10768,11.3623,0.260908,0.635281,-0.352306,0
2024-11-29 18:02:25.396,-0.615255,3.15793,11.281,0.274958,0.635892,-0.332148,0
2024-11-29 18:02:25.399,-0.744467,3.20339,11.2044,0.283509,0.625508,-0.308936,0
2024-11-29 18:02:25.400,-0.84018,3.25603,11.123,0.283509,0.625508,-0.308936,0
2024-11-29 18:02:25.403,-0.897907,3.30628,11.0441,0.296337,0.561979,-0.269842,0
2024-11-29 18:02:25.408,-0.907478,3.402,10.9265,0.296337,0.514333,-0.248462,0
2024-11-29 18:02:25.408,-0.907478,3.402,10.9265,0.296337,0.514333,-0.248462,0
2024-11-29 18:02:25.412,-0.782752,3.45703,10.8404,0.283509,0.390942,-0.223417,0
2024-11-29 18:02:25.412,-0.782752,3.45703,10.8404,0.283509,0.390942,-0.223417,0
2024-11-29 18:02:25.414,-0.675075,3.46182,10.7782,0.270071,0.32436,-0.216087,0
2024-11-29 18:02:25.416,-0.557827,3.47617,10.7375,0.254189,0.251058,-0.2112,0
2024-11-29 18:02:25.420,-0.435793,3.49771,10.7279,0.254189,0.251058,-0.2112,0
2024-11-29 18:02:25.422,-0.285045,3.51207,10.7686,0.19005,0.0268773,-0.222807,0
2024-11-29 18:02:25.424,-0.157926,3.52882,10.8356,0.19005,0.0268773,-0.222807,0
2024-11-29 18:02:25.427,-0.0334995,3.52164,10.9337,0.163783,-0.0507003,-0.231969,0
2024-11-29 18:02:25.429,0.129212,3.51685,11.0513,0.137517,-0.124002,-0.242354,0
2024-11-29 18:02:25.432,0.30658,3.50967,11.1733,0.115526,-0.197915,-0.254571,0
2024-11-29 18:02:25.434,0.488435,3.46182,11.3001,0.0917034,-0.26694,-0.26862,0
2024-11-29 18:02:25.435,0.675075,3.37807,11.4221,0.0691021,-0.334744,-0.285113,0
2024-11-29 18:02:25.439,0.888335,3.28475,11.5564,0.0434465,-0.397051,-0.307103,0
2024-11-29 18:02:25.441,1.09651,3.16271,11.7072,0.0232886,-0.452638,-0.328483,0
2024-11-29 18:02:25.443,1.27597,3.00688,11.8747,0.00374144,-0.506392,-0.351084,0
2024-11-29 18:02:25.446,1.44138,2.85853,12.0541,-0.0176382,-0.556482,-0.374907,0
2024-11-29 18:02:25.448,1.58016,2.70299,12.2052,-0.0377962,-0.599852,-0.396898,0
2024-11-29 18:02:25.449,1.70937,2.55224,12.3224,-0.0555107,-0.642,-0.42011,0
2024-11-29 18:02:25.452,1.81705,2.41077,12.4086,-0.0787229,-0.674986,-0.44149,0
2024-11-29 18:02:25.455,1.9008,2.29352,12.5019,-0.0970484,-0.702474,-0.464091,0
2024-11-29 18:02:25.457,1.98485,2.17627,12.6434,-0.120261,-0.726908,-0.486693,0
2024-11-29 18:02:25.459,2.05902,2.04467,12.8061,-0.142862,-0.747066,-0.506851,0
2024-11-29 18:02:25.461,2.12602,1.91516,12.9616,-0.161187,-0.762337,-0.527619,0
2024-11-29 18:02:25.465,2.19541,1.78355,13.1243,-0.178902,-0.7715,-0.547777,0
2024-11-29 18:02:25.466,2.26002,1.66152,13.2682,-0.196006,-0.775165,-0.567935,0
2024-11-29 18:02:25.469,2.30309,1.55862,13.3998,-0.230213,-0.756229,-0.603975,0
2024-11-29 18:02:25.471,2.30788,1.47727,13.5314,-0.230213,-0.756229,-0.603975,0
2024-11-29 18:02:25.474,2.27916,1.40279,13.6534,-0.243652,-0.730573,-0.621079,0
2024-11-29 18:02:25.476,2.21934,1.32861,13.7542,-0.254647,-0.696366,-0.637572,0
2024-11-29 18:02:25.478,2.11884,1.24726,13.8547,-0.264421,-0.652385,-0.648567,0
2024-11-29 18:02:25.482,1.87926,1.13719,14.027,-0.277248,-0.541211,-0.663838,0
2024-11-29 18:02:25.483,1.87926,1.13719,14.027,-0.277248,-0.541211,-0.663838,2
2024-11-29 18:02:25.486,1.72373,1.06301,14.0701,-0.280303,-0.47585,-0.666282,0
2024-11-29 18:02:25.488,1.5658,0.996012,14.0892,-0.282746,-0.409268,-0.667503,0
2024-11-29 18:02:25.489,1.40548,0.929013,14.0916,-0.282135,-0.337799,-0.662617,0
2024-11-29 18:02:25.493,1.25922,0.8668,14.0701,-0.279081,-0.182643,-0.643069,0
2024-11-29 18:02:25.495,1.12283,0.821037,14.039,-0.274805,-0.104455,-0.630242,0
2024-11-29 18:02:25.498,0.991227,0.770788,14.0031,-0.271751,-0.0274881,-0.609473,0
2024-11-29 18:02:25.501,0.701396,0.706182,13.8332,-0.266864,0.0452027,-0.589926,0
2024-11-29 18:02:25.502,0.701396,0.706182,13.8332,-0.266864,0.0452027,-0.589926,0
2024-11-29 18:02:25.505,0.521934,0.665504,13.7157,-0.260755,0.114839,-0.567935,0
2024-11-29 18:02:25.506,0.344866,0.648754,13.5841,-0.25648,0.179589,-0.54289,0
2024-11-29 18:02:25.509,0.189033,0.660718,13.4357,-0.250982,0.276714,-0.49219,0
2024-11-29 18:02:25.512,0.0358923,0.670289,13.2897,-0.24976,0.309089,-0.464091,0
2024-11-29 18:02:25.514,-0.117248,0.682254,13.1363,-0.249149,0.329247,-0.435381,0
2024-11-29 18:02:25.516,-0.258425,0.703789,12.9927,-0.249149,0.329247,-0.435381,0
2024-11-29 18:02:25.518,-0.392722,0.742074,12.8779,-0.250982,0.337188,-0.404228,0
2024-11-29 18:02:25.521,-0.507577,0.780359,12.7726,-0.254647,0.332912,-0.371242,0
2024-11-29 18:02:25.523,-0.608076,0.813859,12.6577,-0.259534,0.31703,-0.336424,0
2024-11-29 18:02:25.526,-0.701396,0.837787,12.545,-0.268086,0.269384,-0.269231,0
2024-11-29 18:02:25.528,-0.775574,0.869193,12.4612,-0.272972,0.240063,-0.233802,0
2024-11-29 18:02:25.530,-0.825823,0.914656,12.3918,-0.272972,0.240063,-0.233802,0
2024-11-29 18:02:25.533,-0.878764,0.950549,12.3368,-0.27847,0.167983,-0.162333,0
2024-11-29 18:02:25.535,-0.902692,0.979263,12.3057,-0.27847,0.167983,-0.162333,0
2024-11-29 18:02:25.537,-0.909871,1.02473,12.3009,-0.282746,0.126445,-0.127514,0
2024-11-29 18:02:25.540,-0.909871,1.07737,12.3153,-0.283357,0.0824644,-0.0920852,0
2024-11-29 18:02:25.541,-0.881157,1.12762,12.332,-0.281524,0.0390942,-0.0560452,0
2024-11-29 18:02:25.545,-0.857229,1.17069,12.3655,-0.272362,-0.0464244,0.0129805,0
2024-11-29 18:02:25.546,-0.799502,1.21137,12.4062,-0.272362,-0.0464244,0.0129805,0
2024-11-29 18:02:25.548,-0.718146,1.25204,12.4493,-0.261366,-0.0836861,0.0447446,0
2024-11-29 18:02:25.551,-0.634397,1.28554,12.5067,-0.251593,-0.117283,0.0777303,0
2024-11-29 18:02:25.555,-0.387936,1.30947,12.5761,-0.222883,-0.174091,0.136983,0
2024-11-29 18:02:25.555,-0.387936,1.30947,12.5761,-0.222883,-0.174091,0.136983,0
2024-11-29 18:02:25.558,-0.246461,1.30708,12.6096,-0.202725,-0.195471,0.164471,0
2024-11-29 18:02:25.560,-0.0981057,1.33101,12.6024,-0.185621,-0.209521,0.189515,0
2024-11-29 18:02:25.563,0.0622134,1.33819,12.5689,-0.165463,-0.221127,0.210284,0
2024-11-29 18:02:25.565,0.217747,1.34536,12.533,-0.147138,-0.227846,0.22922,0
2024-11-29 18:02:25.567,0.371187,1.37647,12.4828,-0.12698,-0.227846,0.244492,0
2024-11-29 18:02:25.570,0.521934,1.39801,12.3966,-0.1056,-0.2309,0.255487,0
2024-11-29 18:02:25.573,0.648754,1.44138,12.3081,-0.0732253,-0.226624,0.273812,0
2024-11-29 18:02:25.575,0.74686,1.49641,12.2148,-0.0732253,-0.226624,0.273812,0
2024-11-29 18:02:25.578,0.830609,1.52991,12.0999,-0.0414613,-0.20891,0.27931,0
2024-11-29 18:02:25.580,0.907478,1.55145,11.9943,-0.0414613,-0.20891,0.27931,0
2024-11-29 18:02:25.582,0.955334,1.59452,11.8771,-0.0261901,-0.195471,0.282364,0
2024-11-29 18:02:25.584,0.998405,1.62802,11.7335,-0.0139731,-0.180811,0.282364,0
2024-11-29 18:02:25.586,1.02233,1.67348,11.5923,-0.000534491,-0.163707,0.282975,0
2024-11-29 18:02:25.589,1.01994,1.73091,11.4485,0.00862822,-0.142938,0.283586,0
2024-11-29 18:02:25.591,1.01276,1.76201,11.2881,0.0171801,-0.12278,0.284197,0
2024-11-29 18:02:25.595,0.967299,1.82662,10.9579,0.0263428,-0.0726908,0.281753,0
2024-11-29 18:02:25.596,0.967299,1.82662,10.9579,0.0263428,-0.0726908,0.281753,0
2024-11-29 18:02:25.599,0.950549,1.84337,10.783,0.0355055,-0.0152712,0.282975,0
2024-11-29 18:02:25.601,0.921835,1.86969,10.6155,0.0355055,-0.0152712,0.282975,0
2024-11-29 18:02:25.603,0.895514,1.89362,10.4719,0.0361163,0.0122169,0.281753,0
2024-11-29 18:02:25.607,0.871586,1.91037,10.1868,0.0403923,0.0757451,0.282364,0
2024-11-29 18:02:25.608,0.845265,1.93669,10.1868,0.0403923,0.0757451,0.282364,0
2024-11-29 18:02:25.610,0.813859,1.9657,10.0552,0.0391706,0.105677,0.284197,0
2024-11-29 18:02:25.613,0.780359,1.99681,9.92363,0.0391706,0.163707,0.284197,0
2024-11-29 18:02:25.614,0.742074,2.01117,9.77498,0.0391706,0.163707,0.284197,0
2024-11-29 18:02:25.618,0.701396,2.02313,9.65055,0.0403923,0.188752,0.286029,0
2024-11-29 18:02:25.620,0.658325,2.04467,9.54527,0.0428357,0.213186,0.286029,0
2024-11-29 18:02:25.621,0.622433,2.05185,9.44477,0.0458899,0.232122,0.286029,0
2024-11-29 18:02:25.624,0.598505,2.0662,9.31795,0.0483333,0.251669,0.287251,0
2024-11-29 18:02:25.627,0.569791,2.05902,9.18605,0.0489441,0.26694,0.287862,0
2024-11-29 18:02:25.628,0.521934,2.0327,9.06641,0.0538309,0.277936,0.290305,0
2024-11-29 18:02:25.631,0.464507,2.03031,8.94198,0.0605502,0.289542,0.290305,0
2024-11-29 18:02:25.634,0.428614,2.04467,8.80559,0.0703238,0.299926,0.293359,0
2024-11-29 18:02:25.637,0.385544,2.04467,8.65933,0.0703238,0.299926,0.293359,0
2024-11-29 18:02:25.638,0.337687,2.05185,8.51815,0.0739889,0.300537,0.296414,0
2024-11-29 18:02:25.643,0.270389,2.07577,8.26451,0.0831516,0.29565,0.301911,0
2024-11-29 18:02:25.643,0.270389,2.07577,8.26451,0.0831516,0.29565,0.301911,0
2024-11-29 18:02:25.645,0.215354,2.08774,8.13261,0.0831516,0.286487,0.30802,0
2024-11-29 18:02:25.647,0.155533,2.13081,8.02254,0.0886492,0.27366,0.311074,0
2024-11-29 18:02:25.651,0.122034,2.17627,7.91486,0.0941468,0.231511,0.323291,0
2024-11-29 18:02:25.652,0.0885344,2.2002,7.80718,0.0941468,0.231511,0.323291,0
2024-11-29 18:02:25.655,0.0598206,2.22652,7.6995,0.0917034,0.207688,0.327567,0
2024-11-29 18:02:25.657,0.0526421,2.25045,7.59183,0.0910926,0.179589,0.333675,0
2024-11-29 18:02:25.659,0.0430708,2.2672,7.51017,0.093536,0.150879,0.341005,0
2024-11-29 18:02:25.662,0.0334995,2.28873,7.44078,0.0917034,0.124002,0.348336,0
2024-11-29 18:02:25.664,0.0478565,2.31745,7.37378,0.0892601,0.0965139,0.355666,0
2024-11-29 18:02:25.666,0.0717847,2.33181,7.32114,0.0874275,0.0684149,0.361163,0
2024-11-29 18:02:25.669,0.0957129,2.34856,7.27807,0.0898709,0.0421485,0.366661,0
2024-11-29 18:02:25.672,0.141177,2.37488,7.25414,0.0874275,-0.00855186,0.370937,0
2024-11-29 18:02:25.674,0.200997,2.39641,7.25175,0.0874275,-0.00855186,0.370937,0
2024-11-29 18:02:25.677,0.248854,2.42273,7.25414,0.0892601,-0.0287098,0.372159,0
2024-11-29 18:02:25.678,0.297009,2.44188,7.2685,0.0910926,-0.0476461,0.369715,0
2024-11-29 18:02:25.680,0.349651,2.44427,7.27568,0.0929251,-0.064139,0.36605,0
2024-11-29 18:02:25.684,0.404686,2.44427,7.29003,0.101477,-0.0922379,0.358109,0
2024-11-29 18:02:25.685,0.464507,2.44905,7.31635,0.101477,-0.0922379,0.358109,0
2024-11-29 18:02:25.687,0.529113,2.45145,7.34746,0.106975,-0.103844,0.353222,0
2024-11-29 18:02:25.690,0.596112,2.45863,7.37857,0.106975,-0.114228,0.344671,0
2024-11-29 18:02:25.692,0.655932,2.45863,7.40967,0.116748,-0.118504,0.333675,0
2024-11-29 18:02:25.694,0.706182,2.45384,7.4336,0.122246,-0.124613,0.324513,0
2024-11-29 18:02:25.697,0.722932,2.45623,7.436,0.130798,-0.124002,0.315961,0
2024-11-29 18:02:25.700,0.722932,2.47298,7.42403,0.143625,-0.111174,0.295192,0
2024-11-29 18:02:25.701,0.725324,2.47777,7.42164,0.143625,-0.111174,0.295192,0
2024-11-29 18:02:25.705,0.718146,2.48255,7.41925,0.155842,-0.0794101,0.277477,0
2024-11-29 18:02:25.707,0.699003,2.48255,7.41446,0.155842,-0.0794101,0.277477,0
2024-11-29 18:02:25.710,0.679861,2.47298,7.41207,0.169281,-0.0335966,0.26465,0
2024-11-29 18:02:25.713,0.687039,2.47298,7.4025,0.17539,-0.0103844,0.259152,0
2024-11-29 18:02:25.714,0.691825,2.4658,7.4025,0.17539,-0.0103844,0.259152,0
2024-11-29 18:02:25.718,0.687039,2.39641,7.38096,0.185774,0.0378725,0.251822,0
2024-11-29 18:02:25.719,0.687039,2.39641,7.38096,0.185774,0.0378725,0.251822,0
2024-11-29 18:02:25.720,0.696611,2.3677,7.35943,0.191272,0.064139,0.249989,0
2024-11-29 18:02:25.724,0.682254,2.3342,7.33071,0.19738,0.0922379,0.248768,0
2024-11-29 18:02:25.726,0.660718,2.30548,7.31157,0.196769,0.117283,0.246324,0
2024-11-29 18:02:25.727,0.65354,2.28156,7.302,0.202267,0.144771,0.245102,0
2024-11-29 18:02:25.733,0.612862,2.23609,7.29721,0.210208,0.227846,0.247546,0
2024-11-29 18:02:25.733,0.612862,2.23609,7.29721,0.210208,0.227846,0.247546,0
2024-11-29 18:02:25.735,0.586541,2.21695,7.29721,0.210208,0.227846,0.247546,0
2024-11-29 18:02:25.738,0.548256,2.20499,7.28525,0.21143,0.251058,0.249989,0
2024-11-29 18:02:25.740,0.507577,2.18584,7.28046,0.216927,0.296261,0.253043,0
2024-11-29 18:02:25.742,0.474078,2.17149,7.29243,0.216927,0.296261,0.253043,0
2024-11-29 18:02:25.745,0.445364,2.1667,7.29482,0.224868,0.339631,0.256709,0
2024-11-29 18:02:25.747,0.414257,2.14995,7.302,0.224868,0.339631,0.256709,0
2024-11-29 18:02:25.749,0.364008,2.11884,7.30439,0.228533,0.359789,0.256098,0
2024-11-29 18:02:25.752,0.313759,2.10688,7.30678,0.232809,0.378114,0.255487,0
2024-11-29 18:02:25.756,0.20339,2.10209,7.34985,0.249913,0.413544,0.259763,0
2024-11-29 18:02:25.757,0.20339,2.10209,7.34985,0.249913,0.413544,0.259763,0
2024-11-29 18:02:25.759,0.136391,2.11406,7.37139,0.268849,0.443475,0.26465,0
2024-11-29 18:02:25.761,0.0574277,2.12842,7.39053,0.268849,0.443475,0.26465,0
2024-11-29 18:02:25.763,-0.0191426,2.12842,7.39532,0.281677,0.458135,0.270758,0
2024-11-29 18:02:25.765,-0.0837488,2.10927,7.38575,0.293283,0.469131,0.276256,0
2024-11-29 18:02:25.767,-0.129212,2.09013,7.3666,0.3055,0.478904,0.282975,0
2024-11-29 18:02:25.771,-0.162712,2.0686,7.3355,0.318328,0.487456,0.290305,0
2024-11-29 18:02:25.773,-0.177069,2.02074,7.29721,0.331766,0.492954,0.298246,0
2024-11-29 18:02:25.774,-0.191426,1.98245,7.24457,0.338486,0.499062,0.30802,0
2024-11-29 18:02:25.777,-0.205783,1.96062,7.17518,0.347038,0.505171,0.316572,0
2024-11-29 18:02:25.779,-0.227318,1.9343,7.11536,0.354979,0.505782,0.325123,0
2024-11-29 18:02:25.783,-0.258425,1.93191,7.06989,0.361087,0.502727,0.342838,0
2024-11-29 18:02:25.785,-0.301795,1.94387,7.04357,0.364141,0.499673,0.353833,0
2024-11-29 18:02:25.786,-0.349651,1.96062,6.99302,0.364141,0.499673,0.353833,0
2024-11-29 18:02:25.789,-0.395115,1.98006,6.93081,0.36292,0.492954,0.36605,0
2024-11-29 18:02:25.791,-0.431007,1.9992,6.87578,0.359865,0.486845,0.376435,0
2024-11-29 18:02:25.794,-0.457328,2.01835,6.81117,0.353757,0.477072,0.385597,0
2024-11-29 18:02:25.796,-0.493221,2.05185,6.78724,0.345205,0.463633,0.397203,0
2024-11-29 18:02:25.799,-0.519542,2.09731,6.77049,0.322604,0.441643,0.417972,0
2024-11-29 18:02:25.800,-0.531506,2.12842,6.75135,0.322604,0.441643,0.417972,0
2024-11-29 18:02:25.804,-0.524327,2.14756,6.7681,0.309776,0.426982,0.425913,0
2024-11-29 18:02:25.805,-0.493221,2.1667,6.78963,0.295116,0.412322,0.435687,0
2024-11-29 18:02:25.807,-0.454935,2.17627,6.81835,0.282288,0.39644,0.441184,0
2024-11-29 18:02:25.812,-0.313759,2.19063,6.9332,0.245637,0.350626,0.450958,0
2024-11-29 18:02:25.812,-0.313759,2.19063,6.9332,0.245637,0.350626,0.450958,0
2024-11-29 18:02:25.815,-0.236889,2.19781,7.01725,0.227312,0.328025,0.453401,0
2024-11-29 18:02:25.818,-0.153141,2.20977,7.11536,0.21143,0.304202,0.450958,0
2024-11-29 18:02:25.822,0.00717847,2.19541,7.2996,0.172335,0.25228,0.444239,0
2024-11-29 18:02:25.823,0.00717847,2.19541,7.2996,0.172335,0.25228,0.444239,0
2024-11-29 18:02:25.824,0.0909273,2.19541,7.41207,0.15401,0.231511,0.437519,0
2024-11-29 18:02:25.826,0.181855,2.17627,7.55324,0.134463,0.208299,0.428357,0
2024-11-29 18:02:25.830,0.265603,2.14277,7.7019,0.11797,0.186919,0.418583,0
2024-11-29 18:02:25.832,0.34008,2.11406,7.86461,0.0843733,0.155155,0.399647,0
2024-11-29 18:02:25.834,0.397508,2.09492,8.02971,0.0843733,0.155155,0.399647,0
2024-11-29 18:02:25.837,0.452543,2.07817,8.18794,0.073378,0.144771,0.389873,0
2024-11-29 18:02:25.839,0.502792,2.05185,8.35783,0.0513875,0.139273,0.374602,0
2024-11-29 18:02:25.840,0.524327,2.02313,8.55404,0.0513875,0.139273,0.374602,0
2024-11-29 18:02:25.843,0.541077,2.01356,8.75294,0.0446682,0.144771,0.366661,0
2024-11-29 18:02:25.845,0.576969,2.0016,8.96591,0.037338,0.154544,0.362385,0
2024-11-29 18:02:25.848,0.608076,1.98006,9.18126,0.0342838,0.167983,0.355055,0
2024-11-29 18:02:25.851,0.615255,1.9657,9.37059,0.0330621,0.183865,0.349557,0
2024-11-29 18:02:25.853,0.605683,1.93908,9.5692,0.0342838,0.205245,0.345281,0
2024-11-29 18:02:25.856,0.591326,1.9008,9.76062,0.0483333,0.251669,0.341005,0
2024-11-29 18:02:25.858,0.569791,1.87208,9.9356,0.057496,0.28099,0.339784,0
2024-11-29 18:02:25.860,0.519542,1.82901,10.1103,0.057496,0.28099,0.339784,0
2024-11-29 18:02:25.862,0.459721,1.75723,10.2658,0.0697129,0.315197,0.342227,0
2024-11-29 18:02:25.864,0.409472,1.69741,10.4049,0.0831516,0.351848,0.341616,0
2024-11-29 18:02:25.866,0.371187,1.65194,10.5197,0.0984228,0.387888,0.347114,0
2024-11-29 18:02:25.869,0.332901,1.58734,10.6274,0.115526,0.426371,0.352001,0
2024-11-29 18:02:25.871,0.272782,1.52513,10.7255,0.133241,0.462411,0.356277,0
2024-11-29 18:02:25.873,0.232104,1.47966,10.8021,0.150956,0.497841,0.363607,0
2024-11-29 18:02:25.877,0.189033,1.43181,10.8835,0.170503,0.533881,0.37338,0
2024-11-29 18:02:25.879,0.129212,1.38604,10.9436,0.20471,0.601074,0.396593,0
2024-11-29 18:02:25.881,0.066999,1.35015,10.9771,0.20471,0.601074,0.396593,0
2024-11-29 18:02:25.884,-0.0191426,1.34536,10.9962,0.243194,0.67071,0.425302,0
2024-11-29 18:02:25.886,-0.107677,1.36451,11.0297,0.26213,0.706139,0.444239,0
2024-11-29 18:02:25.888,-0.184247,1.38844,11.0752,0.26213,0.706139,0.444239,0
2024-11-29 18:02:25.891,-0.251246,1.40548,11.0967,0.301835,0.772111,0.482111,0
2024-11-29 18:02:25.892,-0.325723,1.43181,11.1039,0.301835,0.772111,0.482111,0
2024-11-29 18:02:25.895,-0.3999,1.47009,11.1087,0.318328,0.803264,0.502269,0
2024-11-29 18:02:25.897,-0.459721,1.51077,11.1015,0.333599,0.831974,0.52426,0
2024-11-29 18:02:25.900,-0.512363,1.5658,11.0848,0.350703,0.860684,0.546861,0
2024-11-29 18:02:25.903,-0.557827,1.61605,11.0513,0.365974,0.887561,0.567019,0
2024-11-29 18:02:25.905,-0.593719,1.67587,11.0369,0.39224,0.93032,0.612222,0
2024-11-29 18:02:25.907,-0.627219,1.75723,11.0393,0.39224,0.93032,0.612222,0
2024-11-29 18:02:25.909,-0.643968,1.82423,11.0393,0.403846,0.946813,0.631769,0
2024-11-29 18:02:25.911,-0.641576,1.9008,11.0489,0.414842,0.963306,0.654981,0
2024-11-29 18:02:25.913,-0.627219,1.99442,11.0273,0.425837,0.973691,0.673306,0
2024-11-29 18:02:25.917,-0.615255,2.07817,10.989,0.434389,0.982853,0.692243,0
2024-11-29 18:02:25.918,-0.596112,2.15952,10.9579,0.444162,0.992627,0.706292,0
2024-11-29 18:02:25.922,-0.565005,2.24327,10.9241,0.450271,0.99507,0.720952,0
2024-11-29 18:02:25.923,-0.545863,2.3342,10.8882,0.460655,1.00179,0.734391,0
2024-11-29 18:02:25.925,-0.533899,2.42034,10.826,0.465542,1.00179,0.744776,0
2024-11-29 18:02:25.929,-0.536291,2.51845,10.7638,0.466153,0.996292,0.752106,0
2024-11-29 18:02:25.930,-0.533899,2.61207,10.7112,0.46432,0.986518,0.761268,0
2024-11-29 18:02:25.932,-0.541077,2.69821,10.6442,0.463099,0.971247,0.767377,0
2024-11-29 18:02:25.935,-0.545863,2.78674,10.5796,0.455768,0.940705,0.773485,0
2024-11-29 18:02:25.938,-0.538684,2.8681,10.5437,0.430113,0.855186,0.780815,0
2024-11-29 18:02:25.940,-0.521934,2.95185,10.5006,0.430113,0.855186,0.780815,0
2024-11-29 18:02:25.943,-0.493221,3.00927,10.4432,0.384299,0.725687,0.778983,0
2024-11-29 18:02:25.944,-0.428614,3.05234,10.3759,0.384299,0.725687,0.778983,0
2024-11-29 18:02:25.946,-0.347258,3.10529,10.3256,0.3562,0.646276,0.772874,0
2024-11-29 18:02:25.950,-0.27996,3.16511,10.328,0.319549,0.560758,0.761268,0
2024-11-29 18:02:25.952,-0.196211,3.22253,10.3711,0.241972,0.374449,0.730115,0
2024-11-29 18:02:25.954,-0.0885344,3.27518,10.448,0.241972,0.374449,0.730115,0
2024-11-29 18:02:25.958,0.160319,3.35653,10.716,0.156453,0.170426,0.677582,0
2024-11-29 18:02:25.959,0.160319,3.35653,10.716,0.11064,0.0653607,0.64704,0
2024-11-29 18:02:25.962,0.318545,3.3685,10.8882,0.11064,0.0653607,0.64704,0
2024-11-29 18:02:25.963,0.457328,3.36132,11.1206,0.0648262,-0.0415376,0.612832,0
2024-11-29 18:02:25.965,0.610469,3.34935,11.3982,0.0202343,-0.149047,0.57496,0
2024-11-29 18:02:25.969,0.777966,3.3326,11.7144,-0.0616192,-0.351848,0.490052,0
2024-11-29 18:02:25.971,0.912264,3.30628,12.0589,-0.0994917,-0.442864,0.447293,0
2024-11-29 18:02:25.973,1.05344,3.25364,12.4277,-0.0994917,-0.442864,0.447293,0
2024-11-29 18:02:25.978,1.29512,3.09571,13.1435,-0.189897,-0.624897,0.317182,0
2024-11-29 18:02:25.978,1.29512,3.09571,13.1435,-0.189897,-0.624897,0.317182,0
2024-11-29 18:02:25.979,1.37886,2.99492,13.4883,-0.189897,-0.624897,0.317182,0
2024-11-29 18:02:25.982,1.46291,2.90878,13.8571,-0.21372,-0.657272,0.275034,0
2024-11-29 18:02:25.985,1.5323,2.78435,14.2352,-0.233878,-0.671321,0.237161,0
2024-11-29 18:02:25.987,1.58973,2.63599,14.5944,-0.247317,-0.67071,0.201121,0
2024-11-29 18:02:25.992,1.63998,2.33898,15.291,-0.25709,-0.629784,0.131485,0
2024-11-29 18:02:25.992,1.63998,2.33898,15.291,-0.25709,-0.629784,0.131485,0
2024-11-29 18:02:25.994,1.64477,2.20977,15.612,-0.253425,-0.588246,0.0997208,0
2024-11-29 18:02:25.996,1.62323,2.07577,15.9039,-0.244873,-0.537546,0.0722327,0
2024-11-29 18:02:26.001,1.47488,1.81466,16.3732,-0.211277,-0.397662,0.02703,0
2024-11-29 18:02:26.001,1.47488,1.81466,16.3732,-0.211277,-0.397662,0.02703,0
2024-11-29 18:02:26.004,1.35733,1.70219,16.5577,-0.154468,-0.218072,0.000152712,0
2024-11-29 18:02:26.005,1.20658,1.59691,16.6989,-0.154468,-0.218072,0.000152712,2
2024-11-29 18:02:26.009,1.0343,1.48445,16.7683,-0.123315,-0.117283,-0.00595576,0
2024-11-29 18:02:26.011,0.857229,1.36929,16.8018,-0.0860531,-0.00733017,-0.00412322,0
2024-11-29 18:02:26.013,0.677468,1.27837,16.7898,-0.046348,0.103233,0.000152712,0
2024-11-29 18:02:26.015,0.486042,1.21137,16.7133,-0.00542127,0.219905,0.00931542,0
2024-11-29 18:02:26.017,0.282652,1.15155,16.5864,0.0342838,0.336577,0.0258083,0
2024-11-29 18:02:26.019,0.0622134,1.11087,16.4043,0.0764323,0.451416,0.0453554,0
2024-11-29 18:02:26.023,-0.172283,1.12283,16.165,0.118581,0.559536,0.0661242,0
2024-11-29 18:02:26.025,-0.411865,1.1683,15.8919,0.158286,0.654828,0.0930015,0
2024-11-29 18:02:26.028,-0.651147,1.22094,15.6168,0.191272,0.738514,0.122933,0
2024-11-29 18:02:26.030,-0.871586,1.2999,15.3293,0.223646,0.806929,0.157751,0
2024-11-29 18:02:26.034,-1.26162,1.47727,14.7332,0.278012,0.891837,0.22922,0
2024-11-29 18:02:26.035,-1.26162,1.47727,14.7332,0.297559,0.90833,0.268926,0
2024-11-29 18:02:26.037,-1.43659,1.56102,14.3934,0.297559,0.90833,0.268926,0
2024-11-29 18:02:26.039,-1.57059,1.6663,14.0486,0.309776,0.910162,0.30802,0
2024-11-29 18:02:26.041,-1.65673,1.77637,13.7324,0.32016,0.896724,0.345892,0
2024-11-29 18:02:26.043,-1.70937,1.86012,13.4333,0.326269,0.862516,0.385597,0
2024-11-29 18:02:26.045,-1.70937,1.94148,13.1674,0.324436,0.812427,0.421026,0
2024-11-29 18:02:26.048,-1.66869,2.02552,12.9521,0.318328,0.743401,0.451569,0
2024-11-29 18:02:26.052,-1.45095,2.20499,12.6314,0.307333,0.567477,0.502269,0
2024-11-29 18:02:26.053,-1.45095,2.20499,12.6314,0.307333,0.567477,0.502269,0
2024-11-29 18:02:26.056,-1.2664,2.27677,12.4995,0.263352,0.361622,0.526703,0
2024-11-29 18:02:26.058,-1.02233,2.32223,12.3823,0.240139,0.25228,0.528536,0
2024-11-29 18:02:26.061,-0.74686,2.36291,12.2818,0.240139,0.25228,0.528536,0
2024-11-29 18:02:26.062,-0.4669,2.38684,12.2243,0.216927,0.139273,0.520595,0
2024-11-29 18:02:26.064,-0.191426,2.42752,12.2387,0.188828,0.0219905,0.507156,0
2024-11-29 18:02:26.068,0.0693919,2.48255,12.277,0.166838,-0.0885729,0.487609,0
2024-11-29 18:02:26.069,0.347258,2.52832,12.332,0.138128,-0.190584,0.463175,0
2024-11-29 18:02:26.071,0.612862,2.57617,12.4493,0.114916,-0.281601,0.433243,0
2024-11-29 18:02:26.075,0.857229,2.60489,12.5904,0.0941468,-0.357346,0.400258,0
2024-11-29 18:02:26.076,1.1013,2.60489,12.7343,0.0727672,-0.416598,0.364829,0
2024-11-29 18:02:26.079,1.30708,2.57857,12.8874,0.0581068,-0.463022,0.324513,0
2024-11-29 18:02:26.081,1.5012,2.52323,13.0454,0.0446682,-0.492954,0.284197,0
2024-11-29 18:02:26.084,1.68305,2.45384,13.2084,0.0367272,-0.508836,0.242048,0
2024-11-29 18:02:26.085,1.82662,2.38206,13.3376,0.0318404,-0.510668,0.196235,0
2024-11-29 18:02:26.089,1.95344,2.30309,13.4333,0.0287862,-0.500284,0.151032,0
2024-11-29 18:02:26.091,2.0686,2.22413,13.5314,0.0281753,-0.479515,0.102164,0
2024-11-29 18:02:26.092,2.14277,2.14277,13.6319,0.0312296,-0.443475,0.0520747,0
2024-11-29 18:02:26.096,2.17627,2.05663,13.7085,0.0513875,-0.342074,-0.0474934,0
2024-11-29 18:02:26.098,2.19063,1.9657,13.742,0.0703238,-0.269994,-0.0951395,0
2024-11-29 18:02:26.101,2.15474,1.86012,13.7372,0.0703238,-0.269994,-0.0951395,0
2024-11-29 18:02:26.102,2.07338,1.75962,13.6822,0.0880384,-0.191806,-0.137288,0
2024-11-29 18:02:26.107,1.77398,1.58255,13.4955,0.135074,-0.0128278,-0.212422,0
2024-11-29 18:02:26.108,1.94626,1.66869,13.5912,0.135074,-0.0128278,-0.212422,0
2024-11-29 18:02:26.109,1.57777,1.52752,13.3926,0.16134,0.0818535,-0.241132,0
2024-11-29 18:02:26.112,1.36451,1.4988,13.2491,0.191882,0.174091,-0.264955,0
2024-11-29 18:02:26.115,1.1348,1.46291,13.0502,0.221203,0.264497,-0.28328,0
2024-11-29 18:02:26.116,0.885943,1.44616,12.8037,0.249913,0.353681,-0.300384,0
2024-11-29 18:02:26.119,0.646361,1.44855,12.5402,0.279844,0.437977,-0.309547,0
2024-11-29 18:02:26.122,0.419043,1.45334,12.2865,0.309165,0.516777,-0.315044,0
2024-11-29 18:02:26.124,0.189033,1.48445,12.0422,0.367806,0.657883,-0.314434,0
2024-11-29 18:02:26.126,-0.0191426,1.51077,11.7814,0.367806,0.657883,-0.314434,0
2024-11-29 18:02:26.128,-0.198604,1.52273,11.4844,0.394073,0.718356,-0.310769,0
2024-11-29 18:02:26.133,-0.483649,1.52991,10.7638,0.439886,0.822811,-0.296719,0
2024-11-29 18:02:26.133,-0.483649,1.52991,10.7638,0.439886,0.822811,-0.296719,0
2024-11-29 18:02:26.136,-0.615255,1.52991,10.3735,0.459433,0.866181,-0.285113,0
2024-11-29 18:02:26.137,-0.734896,1.5323,10.0098,0.47104,0.897945,-0.27595,0
2024-11-29 18:02:26.140,-0.852443,1.54188,9.64098,0.477148,0.921768,-0.266788,0
2024-11-29 18:02:26.142,-0.962513,1.56102,9.27727,0.479591,0.937651,-0.255181,0
2024-11-29 18:02:26.144,-1.04626,1.60409,8.91566,0.47837,0.944981,-0.242354,0
2024-11-29 18:02:26.148,-1.1348,1.65194,8.55165,0.44966,0.934596,-0.212422,0
2024-11-29 18:02:26.150,-1.20897,1.6998,8.22144,0.44966,0.934596,-0.212422,0
2024-11-29 18:02:26.152,-1.25922,1.76441,7.92204,0.430113,0.922379,-0.197151,0
2024-11-29 18:02:26.155,-1.30229,1.84337,7.6349,0.404457,0.904054,-0.182491,0
2024-11-29 18:02:26.157,-1.33579,1.94148,7.34268,0.370861,0.883285,-0.167219,0
2024-11-29 18:02:26.158,-1.36211,2.04227,7.07468,0.334821,0.861295,-0.151337,0
2024-11-29 18:02:26.162,-1.36451,2.14038,6.82553,0.248691,0.80754,-0.129347,0
2024-11-29 18:02:26.164,-1.35733,2.24566,6.60539,0.248691,0.80754,-0.129347,0
2024-11-29 18:02:26.166,-1.34058,2.34616,6.43041,0.197991,0.773943,-0.118963,0
2024-11-29 18:02:26.168,-1.28794,2.44427,6.29881,0.145458,0.737903,-0.112243,0
2024-11-29 18:02:26.171,-1.20897,2.54267,6.19831,0.0880384,0.69209,-0.1098,0
2024-11-29 18:02:26.173,-1.13719,2.64796,6.13609,0.0306187,0.645055,-0.109189,0
2024-11-29 18:02:26.175,-1.0654,2.75324,6.12652,-0.0255792,0.596798,-0.114076,0
2024-11-29 18:02:26.177,-0.998405,2.8681,6.16481,-0.086664,0.546097,-0.120795,0
2024-11-29 18:02:26.181,-0.931406,2.96381,6.23899,-0.142862,0.501506,-0.132401,0
2024-11-29 18:02:26.182,-0.864407,3.05474,6.35384,-0.196006,0.456914,-0.14584,0
2024-11-29 18:02:26.185,-0.794716,3.14836,6.5025,-0.246095,0.417209,-0.162333,0
2024-11-29 18:02:26.187,-0.701396,3.21775,6.68674,-0.289465,0.380558,-0.181269,0
2024-11-29 18:02:26.190,-0.610469,3.27278,6.89492,-0.332225,0.34574,-0.203259,0
2024-11-29 18:02:26.192,-0.524327,3.31825,7.101,-0.364599,0.313365,-0.228304,0
