timestamp,accel_x,accel_y,accel_z,gyro_x,gyro_y,gyro_z,step_timestamp
2024-11-29 18:04:06.267,-0.267996,2.53549,7.49103,0.177222,0.320695,0.0972774,0
2024-11-29 18:04:06.267,-0.267996,2.53549,7.49103,0.177222,0.320695,0.0972774,0
2024-11-29 18:04:06.267,-0.267996,2.53549,7.49103,0.177222,0.320695,0.0972774,0
2024-11-29 18:04:06.267,-0.267996,2.53549,7.49103,0.177222,0.320695,0.0972774,0
2024-11-29 18:04:06.267,-0.267996,2.53549,7.49103,0.177222,0.320695,0.0972774,0
2024-11-29 18:04:06.268,-0.267996,2.53549,7.49103,0.186996,0.31703,0.0966666,0
2024-11-29 18:04:06.268,-0.267996,2.53549,7.49103,0.186996,0.31703,0.0966666,0
2024-11-29 18:04:06.268,-0.267996,2.53549,7.49103,0.186996,0.31703,0.0966666,0
2024-11-29 18:04:06.268,-0.267996,2.53549,7.49103,0.186996,0.31703,0.0966666,0
2024-11-29 18:04:06.268,-0.267996,2.53549,7.49103,0.186996,0.31703,0.0966666,0
2024-11-29 18:04:06.268,-0.267996,2.53549,7.49103,0.186996,0.31703,0.0966666,0
2024-11-29 18:04:06.269,-0.301795,2.49452,7.51017,0.186996,0.31703,0.0966666,0
2024-11-29 18:04:06.270,-0.301795,2.49452,7.51017,0.191882,0.312754,0.09911,0
2024-11-29 18:04:06.271,-0.349651,2.45863,7.5341,0.191882,0.312754,0.09911,0
2024-11-29 18:04:06.271,-0.349651,2.45863,7.5341,0.191882,0.312754,0.09911,0
2024-11-29 18:04:06.272,-0.349651,2.45863,7.5341,0.191882,0.312754,0.09911,0
2024-11-29 18:04:06.274,-0.41665,2.43709,7.55803,0.19738,0.307867,0.102164,0
2024-11-29 18:04:06.274,-0.41665,2.43709,7.55803,0.19738,0.307867,0.102164,0
2024-11-29 18:04:06.274,-0.41665,2.43709,7.55803,0.19738,0.307867,0.102164,0
2024-11-29 18:04:06.275,-0.41665,2.43709,7.55803,0.205932,0.301759,0.10644,0
2024-11-29 18:04:06.275,-0.41665,2.43709,7.55803,0.205932,0.301759,0.10644,0
2024-11-29 18:04:06.275,-0.41665,2.43709,7.55803,0.205932,0.301759,0.10644,0
2024-11-29 18:04:06.276,-0.481256,2.41795,7.56999,0.205932,0.301759,0.10644,0
2024-11-29 18:04:06.276,-0.481256,2.41795,7.56999,0.205932,0.301759,0.10644,0
2024-11-29 18:04:06.276,-0.481256,2.41795,7.56999,0.205932,0.301759,0.10644,0
2024-11-29 18:04:06.277,-0.481256,2.41795,7.56999,0.215705,0.298093,0.111938,0
2024-11-29 18:04:06.277,-0.481256,2.41795,7.56999,0.215705,0.298093,0.111938,0
2024-11-29 18:04:06.280,-0.531506,2.40838,7.56282,0.224868,0.293818,0.119879,0
2024-11-29 18:04:06.280,-0.531506,2.40838,7.56282,0.224868,0.293818,0.119879,0
2024-11-29 18:04:06.280,-0.531506,2.40838,7.56282,0.224868,0.293818,0.119879,0
2024-11-29 18:04:06.280,-0.481256,2.41795,7.56282,0.224868,0.293818,0.119879,0
2024-11-29 18:04:06.280,-0.531506,2.40838,7.56282,0.224868,0.293818,0.119879,0
2024-11-29 18:04:06.281,-0.591326,2.38923,7.57239,0.224868,0.293818,0.119879,0
2024-11-29 18:04:06.281,-0.591326,2.38923,7.57239,0.224868,0.293818,0.119879,0
2024-11-29 18:04:06.281,-0.591326,2.38923,7.57239,0.224868,0.293818,0.119879,0
2024-11-29 18:04:06.282,-0.591326,2.38923,7.57239,0.230366,0.285877,0.129652,0
2024-11-29 18:04:06.282,-0.591326,2.38923,7.57239,0.230366,0.285877,0.129652,0
2024-11-29 18:04:06.282,-0.591326,2.38923,7.57239,0.230366,0.285877,0.129652,0
2024-11-29 18:04:06.282,-0.591326,2.38923,7.57239,0.230366,0.285877,0.129652,0
2024-11-29 18:04:06.283,-0.646361,2.35095,7.57478,0.230366,0.285877,0.129652,0
2024-11-29 18:04:06.283,-0.646361,2.35095,7.57478,0.230366,0.285877,0.129652,0
2024-11-29 18:04:06.284,-0.646361,2.35095,7.57478,0.241361,0.278546,0.135761,0
2024-11-29 18:04:06.284,-0.646361,2.35095,7.57478,0.241361,0.278546,0.135761,0
2024-11-29 18:04:06.284,-0.646361,2.35095,7.57478,0.241361,0.278546,0.135761,0
2024-11-29 18:04:06.286,-0.670289,2.31984,7.54367,0.241361,0.278546,0.135761,0
2024-11-29 18:04:06.287,-0.670289,2.31984,7.54367,0.249302,0.271827,0.146145,0
2024-11-29 18:04:06.287,-0.670289,2.31984,7.54367,0.249302,0.271827,0.146145,0
2024-11-29 18:04:06.287,-0.670289,2.31984,7.54367,0.249302,0.271827,0.146145,0
2024-11-29 18:04:06.287,-0.670289,2.31984,7.54367,0.249302,0.271827,0.146145,0
2024-11-29 18:04:06.288,-0.691825,2.29352,7.51735,0.249302,0.271827,0.146145,0
2024-11-29 18:04:06.289,-0.691825,2.29352,7.51735,0.254189,0.266329,0.15653,0
2024-11-29 18:04:06.289,-0.691825,2.29352,7.51735,0.254189,0.266329,0.15653,0
2024-11-29 18:04:06.289,-0.691825,2.29352,7.51735,0.254189,0.266329,0.15653,0
2024-11-29 18:04:06.289,-0.691825,2.29352,7.51735,0.254189,0.266329,0.15653,0
2024-11-29 18:04:06.289,-0.691825,2.29352,7.51735,0.254189,0.266329,0.15653,0
2024-11-29 18:04:06.290,-0.73011,2.27199,7.50778,0.254189,0.266329,0.15653,0
2024-11-29 18:04:06.290,-0.73011,2.27199,7.50778,0.254189,0.266329,0.15653,0
2024-11-29 18:04:06.290,-0.73011,2.27199,7.50778,0.254189,0.266329,0.15653,0
2024-11-29 18:04:06.290,-0.73011,2.27199,7.50778,0.254189,0.266329,0.15653,0
2024-11-29 18:04:06.290,-0.73011,2.27199,7.50778,0.254189,0.266329,0.15653,0
2024-11-29 18:04:06.291,-0.73011,2.27199,7.50778,0.254189,0.266329,0.15653,0
2024-11-29 18:04:06.293,-0.756431,2.25284,7.46471,0.260297,0.260221,0.165081,0
2024-11-29 18:04:06.293,-0.756431,2.25284,7.46471,0.260297,0.260221,0.165081,0
2024-11-29 18:04:06.294,-0.756431,2.25284,7.46471,0.265795,0.253502,0.174244,0
2024-11-29 18:04:06.294,-0.756431,2.25284,7.46471,0.265795,0.253502,0.174244,0
2024-11-29 18:04:06.294,-0.756431,2.25284,7.46471,0.265795,0.253502,0.174244,0
2024-11-29 18:04:06.294,-0.756431,2.25284,7.46471,0.265795,0.253502,0.174244,0
2024-11-29 18:04:06.295,-0.770788,2.21695,7.41685,0.265795,0.253502,0.174244,0
2024-11-29 18:04:06.295,-0.770788,2.21695,7.41685,0.265795,0.253502,0.174244,0
2024-11-29 18:04:06.295,-0.770788,2.21695,7.41685,0.265795,0.253502,0.174244,0
2024-11-29 18:04:06.295,-0.770788,2.21695,7.41685,0.265795,0.253502,0.174244,0
2024-11-29 18:04:06.296,-0.770788,2.21695,7.41685,0.265184,0.248615,0.184018,0
2024-11-29 18:04:06.296,-0.770788,2.21695,7.41685,0.265184,0.248615,0.184018,0
2024-11-29 18:04:06.297,-0.782752,2.19063,7.37857,0.265184,0.248615,0.184018,0
2024-11-29 18:04:06.297,-0.782752,2.19063,7.37857,0.265184,0.248615,0.184018,0
2024-11-29 18:04:06.297,-0.782752,2.19063,7.37857,0.265184,0.248615,0.184018,0
2024-11-29 18:04:06.298,-0.782752,2.19063,7.37857,0.265184,0.248615,0.184018,0
2024-11-29 18:04:06.298,-0.782752,2.19063,7.37857,0.265184,0.248615,0.184018,0
2024-11-29 18:04:06.298,-0.782752,2.19063,7.37857,0.265184,0.248615,0.184018,0
2024-11-29 18:04:06.300,-0.789931,2.20259,7.3355,0.265795,0.239452,0.197456,0
2024-11-29 18:04:06.301,-0.789931,2.20259,7.3355,0.263352,0.2309,0.208452,0
2024-11-29 18:04:06.301,-0.789931,2.20259,7.3355,0.263352,0.2309,0.208452,0
2024-11-29 18:04:06.301,-0.789931,2.20259,7.3355,0.263352,0.2309,0.208452,0
2024-11-29 18:04:06.301,-0.789931,2.20259,7.3355,0.263352,0.2309,0.208452,0
2024-11-29 18:04:06.302,-0.789931,2.20499,7.30918,0.263352,0.2309,0.208452,0
2024-11-29 18:04:06.302,-0.789931,2.20499,7.30918,0.263352,0.2309,0.208452,0
2024-11-29 18:04:06.302,-0.789931,2.20499,7.30918,0.263352,0.2309,0.208452,0
2024-11-29 18:04:06.302,-0.789931,2.20499,7.30918,0.263352,0.2309,0.208452,0
2024-11-29 18:04:06.303,-0.789931,2.20499,7.30918,0.257854,0.219294,0.220058,0
2024-11-29 18:04:06.303,-0.789931,2.20259,7.3355,0.257854,0.219294,0.220058,0
2024-11-29 18:04:06.303,-0.789931,2.20499,7.30918,0.257854,0.219294,0.220058,0
2024-11-29 18:04:06.304,-0.785145,2.2002,7.28525,0.257854,0.219294,0.220058,0
2024-11-29 18:04:06.304,-0.785145,2.2002,7.28525,0.257854,0.219294,0.220058,0
2024-11-29 18:04:06.304,-0.785145,2.2002,7.28525,0.257854,0.219294,0.220058,0
2024-11-29 18:04:06.304,-0.785145,2.2002,7.28525,0.257854,0.219294,0.220058,0
2024-11-29 18:04:06.304,-0.785145,2.2002,7.28525,0.257854,0.219294,0.220058,0
2024-11-29 18:04:06.305,-0.785145,2.2002,7.28525,0.257854,0.219294,0.220058,0
2024-11-29 18:04:06.305,-0.785145,2.2002,7.28525,0.257854,0.219294,0.220058,0
2024-11-29 18:04:06.305,-0.785145,2.2002,7.28525,0.257854,0.219294,0.220058,0
2024-11-29 18:04:06.307,-0.761217,2.20499,7.25414,0.253578,0.206466,0.232275,0
2024-11-29 18:04:06.307,-0.761217,2.20499,7.25414,0.253578,0.206466,0.232275,0
2024-11-29 18:04:06.307,-0.761217,2.20499,7.25414,0.253578,0.206466,0.232275,0
2024-11-29 18:04:06.308,-0.761217,2.20499,7.25414,0.244415,0.193639,0.245713,0
2024-11-29 18:04:06.308,-0.761217,2.20499,7.25414,0.244415,0.193639,0.245713,0
2024-11-29 18:04:06.308,-0.761217,2.20499,7.25414,0.244415,0.193639,0.245713,0
2024-11-29 18:04:06.308,-0.761217,2.20499,7.25414,0.244415,0.193639,0.245713,0
2024-11-29 18:04:06.309,-0.720539,2.21216,7.235,0.244415,0.193639,0.245713,0
2024-11-29 18:04:06.309,-0.720539,2.21216,7.235,0.244415,0.193639,0.245713,0
2024-11-29 18:04:06.309,-0.720539,2.21216,7.235,0.244415,0.193639,0.245713,0
2024-11-29 18:04:06.310,-0.720539,2.21216,7.235,0.232809,0.177757,0.256709,0
2024-11-29 18:04:06.310,-0.720539,2.21216,7.235,0.232809,0.177757,0.256709,0
2024-11-29 18:04:06.312,-0.672682,2.21695,7.24936,0.244415,0.177757,0.256709,0
2024-11-29 18:04:06.312,-0.672682,2.21695,7.24936,0.244415,0.177757,0.256709,0
2024-11-29 18:04:06.312,-0.672682,2.21695,7.24936,0.244415,0.177757,0.256709,0
2024-11-29 18:04:06.312,-0.672682,2.21695,7.24936,0.244415,0.177757,0.256709,0
2024-11-29 18:04:06.313,-0.672682,2.21695,7.24936,0.222425,0.163707,0.267704,0
2024-11-29 18:04:06.313,-0.672682,2.21695,7.24936,0.222425,0.163707,0.267704,0
2024-11-29 18:04:06.313,-0.672682,2.21695,7.24936,0.222425,0.163707,0.267704,0
2024-11-29 18:04:06.313,-0.672682,2.21695,7.24936,0.222425,0.163707,0.267704,0
2024-11-29 18:04:06.313,-0.672682,2.21695,7.24936,0.222425,0.163707,0.267704,0
2024-11-29 18:04:06.313,-0.672682,2.21695,7.24936,0.222425,0.163707,0.267704,0
2024-11-29 18:04:06.314,-0.600898,2.22174,7.28046,0.222425,0.163707,0.267704,0
2024-11-29 18:04:06.314,-0.600898,2.22174,7.28046,0.222425,0.163707,0.267704,0
2024-11-29 18:04:06.315,-0.600898,2.22174,7.28046,0.208375,0.145382,0.278088,0
2024-11-29 18:04:06.315,-0.600898,2.22174,7.28046,0.208375,0.145382,0.278088,0
2024-11-29 18:04:06.315,-0.600898,2.22174,7.28046,0.208375,0.145382,0.278088,0
2024-11-29 18:04:06.315,-0.600898,2.22174,7.28046,0.208375,0.145382,0.278088,0
2024-11-29 18:04:06.316,-0.524327,2.22413,7.31396,0.208375,0.145382,0.278088,0
2024-11-29 18:04:06.316,-0.524327,2.22413,7.31396,0.208375,0.145382,0.278088,0
2024-11-29 18:04:06.316,-0.524327,2.22413,7.31396,0.208375,0.145382,0.278088,0
2024-11-29 18:04:06.317,-0.524327,2.22413,7.31396,0.194937,0.1295,0.287251,0
2024-11-29 18:04:06.317,-0.524327,2.22413,7.31396,0.194937,0.1295,0.287251,0
2024-11-29 18:04:06.317,-0.524327,2.22413,7.31396,0.194937,0.1295,0.287251,0
2024-11-29 18:04:06.317,-0.524327,2.22413,7.31396,0.194937,0.1295,0.287251,0
2024-11-29 18:04:06.317,-0.524327,2.22413,7.31396,0.194937,0.1295,0.287251,0
2024-11-29 18:04:06.319,-0.438186,2.24088,7.3666,0.194937,0.1295,0.287251,0
2024-11-29 18:04:06.319,-0.438186,2.24088,7.3666,0.194937,0.1295,0.287251,0
2024-11-29 18:04:06.320,-0.438186,2.24088,7.3666,0.182109,0.112396,0.293359,0
2024-11-29 18:04:06.320,-0.438186,2.24088,7.3666,0.182109,0.112396,0.293359,0
2024-11-29 18:04:06.320,-0.438186,2.24088,7.3666,0.182109,0.112396,0.293359,0
2024-11-29 18:04:06.320,-0.438186,2.24088,7.3666,0.182109,0.112396,0.293359,0
2024-11-29 18:04:06.321,-0.330509,2.25045,7.44078,0.182109,0.112396,0.293359,0
2024-11-29 18:04:06.321,-0.330509,2.25045,7.44078,0.182109,0.112396,0.293359,0
2024-11-29 18:04:06.321,-0.330509,2.25045,7.44078,0.182109,0.112396,0.293359,0
2024-11-29 18:04:06.322,-0.330509,2.25045,7.44078,0.169892,0.0952922,0.297635,0
2024-11-29 18:04:06.322,-0.330509,2.25045,7.44078,0.169892,0.0952922,0.297635,0
2024-11-29 18:04:06.322,-0.330509,2.25045,7.44078,0.169892,0.0952922,0.297635,0
2024-11-29 18:04:06.322,-0.330509,2.25045,7.44078,0.169892,0.0952922,0.297635,0
2024-11-29 18:04:06.322,-0.330509,2.25045,7.44078,0.169892,0.0952922,0.297635,0
2024-11-29 18:04:06.323,-0.236889,2.24327,7.53171,0.169892,0.0952922,0.297635,0
2024-11-29 18:04:06.323,-0.236889,2.24327,7.53171,0.169892,0.0952922,0.297635,0
2024-11-29 18:04:06.323,-0.236889,2.24327,7.53171,0.169892,0.0952922,0.297635,0
2024-11-29 18:04:06.324,-0.236889,2.24327,7.53171,0.158286,0.0824644,0.302522,0
2024-11-29 18:04:06.324,-0.236889,2.24327,7.53171,0.158286,0.0824644,0.302522,0
2024-11-29 18:04:06.324,-0.236889,2.24327,7.53171,0.158286,0.0824644,0.302522,0
2024-11-29 18:04:06.324,-0.236889,2.24327,7.53171,0.158286,0.0824644,0.302522,0
2024-11-29 18:04:06.326,-0.141177,2.25524,7.61815,0.158286,0.0824644,0.302522,0
2024-11-29 18:04:06.327,-0.141177,2.25524,7.61815,0.143015,0.0690257,0.304355,0
2024-11-29 18:04:06.327,-0.141177,2.25524,7.61815,0.143015,0.0690257,0.304355,0
2024-11-29 18:04:06.328,-0.0239282,2.25524,7.71865,0.143015,0.0690257,0.304355,0
2024-11-29 18:04:06.328,-0.0239282,2.25524,7.71865,0.143015,0.0690257,0.304355,0
2024-11-29 18:04:06.328,-0.0239282,2.25524,7.71865,0.143015,0.0690257,0.304355,0
2024-11-29 18:04:06.328,-0.0239282,2.25524,7.71865,0.143015,0.0690257,0.304355,0
2024-11-29 18:04:06.329,-0.0239282,2.25524,7.71865,0.131409,0.0549763,0.305576,0
2024-11-29 18:04:06.329,-0.0239282,2.25524,7.71865,0.131409,0.0549763,0.305576,0
2024-11-29 18:04:06.329,-0.0239282,2.25524,7.71865,0.131409,0.0549763,0.305576,0
2024-11-29 18:04:06.330,0.0909273,2.25763,7.82632,0.131409,0.0549763,0.305576,0
2024-11-29 18:04:06.330,0.0909273,2.25763,7.82632,0.131409,0.0549763,0.305576,0
2024-11-29 18:04:06.331,0.0909273,2.25763,7.82632,0.131409,0.0549763,0.305576,0
2024-11-29 18:04:06.331,0.0909273,2.25763,7.82632,0.131409,0.0549763,0.305576,0
2024-11-29 18:04:06.331,0.0909273,2.25763,7.82632,0.131409,0.0549763,0.305576,0
2024-11-29 18:04:06.331,0.0909273,2.25763,7.82632,0.131409,0.0549763,0.305576,0
2024-11-29 18:04:06.331,0.0909273,2.25763,7.82632,0.131409,0.0549763,0.305576,0
2024-11-29 18:04:06.333,0.181855,2.25284,7.91486,0.122246,0.043981,0.303744,0
2024-11-29 18:04:06.333,0.181855,2.25284,7.91486,0.122246,0.043981,0.303744,0
2024-11-29 18:04:06.333,0.181855,2.25284,7.91486,0.122246,0.043981,0.303744,0
2024-11-29 18:04:06.334,0.181855,2.25284,7.91486,0.111861,0.0335966,0.30069,0
2024-11-29 18:04:06.334,0.181855,2.25284,7.91486,0.111861,0.0335966,0.30069,0
2024-11-29 18:04:06.334,0.181855,2.25284,7.91486,0.111861,0.0335966,0.30069,0
2024-11-29 18:04:06.334,0.181855,2.25284,7.91486,0.111861,0.0335966,0.30069,0
2024-11-29 18:04:06.335,0.270389,2.24088,8.02493,0.111861,0.0335966,0.30069,0
2024-11-29 18:04:06.335,0.270389,2.24088,8.02493,0.111861,0.0335966,0.30069,0
2024-11-29 18:04:06.335,0.270389,2.24088,8.02493,0.111861,0.0335966,0.30069,0
2024-11-29 18:04:06.336,0.270389,2.24088,8.02493,0.102699,0.0262664,0.294581,0
2024-11-29 18:04:06.336,0.270389,2.24088,8.02493,0.102699,0.0262664,0.294581,0
2024-11-29 18:04:06.336,0.270389,2.24088,8.02493,0.102699,0.0262664,0.294581,0
2024-11-29 18:04:06.336,0.270389,2.24088,8.02493,0.102699,0.0262664,0.294581,0
2024-11-29 18:04:06.336,0.270389,2.24088,8.02493,0.102699,0.0262664,0.294581,0
2024-11-29 18:04:06.337,0.364008,2.25524,8.14487,0.111861,0.0335966,0.30069,0
2024-11-29 18:04:06.338,0.364008,2.25524,8.14487,0.111861,0.0335966,0.30069,0
2024-11-29 18:04:06.338,0.364008,2.25524,8.14487,0.111861,0.0335966,0.30069,0
2024-11-29 18:04:06.338,0.364008,2.25524,8.14487,0.111861,0.0335966,0.30069,0
2024-11-29 18:04:06.338,0.364008,2.25524,8.14487,0.111861,0.0335966,0.30069,0
2024-11-29 18:04:06.340,0.442971,2.2672,8.24058,0.0978119,0.0195471,0.288473,0
2024-11-29 18:04:06.340,0.442971,2.2672,8.24058,0.0978119,0.0195471,0.288473,0
2024-11-29 18:04:06.340,0.442971,2.2672,8.24058,0.0978119,0.0195471,0.288473,0
2024-11-29 18:04:06.341,0.442971,2.2672,8.24058,0.0929251,0.015882,0.280532,0
2024-11-29 18:04:06.341,0.364008,2.25524,8.14487,0.0929251,0.015882,0.280532,0
2024-11-29 18:04:06.341,0.442971,2.2672,8.24058,0.0929251,0.015882,0.280532,0
2024-11-29 18:04:06.342,0.514756,2.26481,8.34826,0.0929251,0.015882,0.280532,0
2024-11-29 18:04:06.342,0.514756,2.26481,8.34826,0.0929251,0.015882,0.280532,0
2024-11-29 18:04:06.342,0.514756,2.26481,8.34826,0.0929251,0.015882,0.280532,0
2024-11-29 18:04:06.342,0.514756,2.26481,8.34826,0.0929251,0.015882,0.280532,0
2024-11-29 18:04:06.342,0.514756,2.26481,8.34826,0.0929251,0.015882,0.280532,0
2024-11-29 18:04:06.343,0.514756,2.26481,8.34826,0.0874275,0.0146603,0.273812,0
2024-11-29 18:04:06.343,0.514756,2.26481,8.34826,0.0874275,0.0146603,0.273812,0
2024-11-29 18:04:06.343,0.514756,2.26481,8.34826,0.0874275,0.0146603,0.273812,0
2024-11-29 18:04:06.343,0.514756,2.26481,8.34826,0.0874275,0.0146603,0.273812,0
2024-11-29 18:04:06.343,0.514756,2.26481,8.34826,0.0874275,0.0146603,0.273812,0
2024-11-29 18:04:06.343,0.514756,2.26481,8.34826,0.0874275,0.0146603,0.273812,0
2024-11-29 18:04:06.345,0.576969,2.25763,8.4344,0.0874275,0.0146603,0.273812,0
2024-11-29 18:04:06.345,0.576969,2.25763,8.4344,0.0874275,0.0146603,0.273812,0
2024-11-29 18:04:06.345,0.576969,2.25763,8.4344,0.0874275,0.0146603,0.273812,0
2024-11-29 18:04:06.345,0.576969,2.25763,8.4344,0.0874275,0.0146603,0.273812,0
2024-11-29 18:04:06.345,0.576969,2.25763,8.4344,0.0874275,0.0146603,0.273812,0
2024-11-29 18:04:06.346,0.576969,2.25763,8.4344,0.085595,0.0146603,0.26526,0
2024-11-29 18:04:06.346,0.576969,2.25763,8.4344,0.085595,0.0146603,0.26526,0
2024-11-29 18:04:06.346,0.576969,2.25763,8.4344,0.085595,0.0146603,0.26526,0
2024-11-29 18:04:06.346,0.576969,2.25763,8.4344,0.085595,0.0146603,0.26526,0
2024-11-29 18:04:06.347,0.641576,2.25045,8.51336,0.085595,0.0146603,0.26526,0
2024-11-29 18:04:06.347,0.641576,2.25045,8.51336,0.085595,0.0146603,0.26526,0
2024-11-29 18:04:06.347,0.641576,2.25045,8.51336,0.085595,0.0146603,0.26526,0
2024-11-29 18:04:06.348,0.641576,2.25045,8.51336,0.0831516,0.0189363,0.255487,0
2024-11-29 18:04:06.348,0.641576,2.25045,8.51336,0.0831516,0.0189363,0.255487,0
2024-11-29 18:04:06.348,0.641576,2.25045,8.51336,0.0831516,0.0189363,0.255487,0
2024-11-29 18:04:06.349,0.696611,2.26002,8.59233,0.0831516,0.0189363,0.255487,0
2024-11-29 18:04:06.349,0.696611,2.26002,8.59233,0.0831516,0.0189363,0.255487,0
2024-11-29 18:04:06.349,0.696611,2.26002,8.59233,0.0831516,0.0189363,0.255487,0
2024-11-29 18:04:06.349,0.696611,2.26002,8.59233,0.0831516,0.0189363,0.255487,0
2024-11-29 18:04:06.349,0.696611,2.26002,8.59233,0.0831516,0.0189363,0.255487,0
2024-11-29 18:04:06.349,0.696611,2.26002,8.59233,0.0831516,0.0189363,0.255487,0
2024-11-29 18:04:06.349,0.696611,2.26002,8.59233,0.0831516,0.0189363,0.255487,0
2024-11-29 18:04:06.350,0.696611,2.26002,8.59233,0.081319,0.0250447,0.245713,0
2024-11-29 18:04:06.350,0.696611,2.26002,8.59233,0.081319,0.0250447,0.245713,0
2024-11-29 18:04:06.350,0.696611,2.26002,8.59233,0.081319,0.0250447,0.245713,0
2024-11-29 18:04:06.350,0.696611,2.26002,8.59233,0.081319,0.0250447,0.245713,0
2024-11-29 18:04:06.350,0.696611,2.26002,8.59233,0.081319,0.0250447,0.245713,0
2024-11-29 18:04:06.350,0.696611,2.26002,8.59233,0.081319,0.0250447,0.245713,0
2024-11-29 18:04:06.352,0.725324,2.2672,8.64975,0.081319,0.0250447,0.245713,0
2024-11-29 18:04:06.352,0.725324,2.2672,8.64975,0.081319,0.0250447,0.245713,0
2024-11-29 18:04:06.353,0.725324,2.2672,8.64975,0.0794865,0.0323749,0.235329,0
2024-11-29 18:04:06.353,0.725324,2.2672,8.64975,0.0794865,0.0323749,0.235329,0
2024-11-29 18:04:06.353,0.725324,2.2672,8.64975,0.0794865,0.0323749,0.235329,0
2024-11-29 18:04:06.353,0.725324,2.2672,8.64975,0.0794865,0.0323749,0.235329,0
2024-11-29 18:04:06.353,0.725324,2.2672,8.64975,0.0794865,0.0323749,0.235329,0
2024-11-29 18:04:06.354,0.749253,2.25284,8.70987,0.0794865,0.0323749,0.235329,0
2024-11-29 18:04:06.354,0.749253,2.25284,8.70987,0.0794865,0.0323749,0.235329,0
2024-11-29 18:04:06.355,0.749253,2.25284,8.70987,0.0782648,0.0427593,0.226166,0
2024-11-29 18:04:06.355,0.749253,2.25284,8.70987,0.0782648,0.0427593,0.226166,0
2024-11-29 18:04:06.355,0.749253,2.25284,8.70987,0.0782648,0.0427593,0.226166,0
2024-11-29 18:04:06.355,0.749253,2.25284,8.70987,0.0782648,0.0427593,0.226166,0
2024-11-29 18:04:06.355,0.749253,2.25284,8.70987,0.0782648,0.0427593,0.226166,0
2024-11-29 18:04:06.355,0.749253,2.25284,8.70987,0.0782648,0.0427593,0.226166,0
2024-11-29 18:04:06.355,0.749253,2.25284,8.70987,0.0782648,0.0427593,0.226166,0
2024-11-29 18:04:06.355,0.749253,2.25284,8.70987,0.0782648,0.0427593,0.226166,0
2024-11-29 18:04:06.356,0.754038,2.24566,8.76491,0.0782648,0.0427593,0.226166,0
2024-11-29 18:04:06.356,0.754038,2.24566,8.76491,0.0782648,0.0427593,0.226166,0
2024-11-29 18:04:06.356,0.754038,2.24566,8.76491,0.0782648,0.0427593,0.226166,0
2024-11-29 18:04:06.356,0.754038,2.24566,8.76491,0.0782648,0.0427593,0.226166,0
2024-11-29 18:04:06.357,0.754038,2.24566,8.76491,0.0764323,0.0513112,0.216393,0
2024-11-29 18:04:06.357,0.754038,2.24566,8.76491,0.0764323,0.0513112,0.216393,0
2024-11-29 18:04:06.357,0.754038,2.24566,8.76491,0.0764323,0.0513112,0.216393,0
2024-11-29 18:04:06.357,0.754038,2.24566,8.76491,0.0764323,0.0513112,0.216393,0
2024-11-29 18:04:06.357,0.754038,2.24566,8.76491,0.0764323,0.0513112,0.216393,0
2024-11-29 18:04:06.359,0.749253,2.26481,8.81516,0.0764323,0.0513112,0.216393,0
2024-11-29 18:04:06.359,0.749253,2.26481,8.81516,0.0764323,0.0513112,0.216393,0
2024-11-29 18:04:06.359,0.749253,2.26481,8.81516,0.0764323,0.0513112,0.216393,0
2024-11-29 18:04:06.359,0.749253,2.26481,8.81516,0.0764323,0.0513112,0.216393,0
2024-11-29 18:04:06.360,0.749253,2.26481,8.81516,0.0770431,0.064139,0.20723,0
2024-11-29 18:04:06.360,0.749253,2.26481,8.81516,0.0770431,0.064139,0.20723,0
2024-11-29 18:04:06.360,0.749253,2.26481,8.81516,0.0770431,0.064139,0.20723,0
2024-11-29 18:04:06.360,0.749253,2.26481,8.81516,0.0770431,0.064139,0.20723,0
2024-11-29 18:04:06.361,0.725324,2.27677,8.85823,0.0770431,0.064139,0.20723,0
2024-11-29 18:04:06.361,0.725324,2.27677,8.85823,0.0770431,0.064139,0.20723,0
2024-11-29 18:04:06.361,0.725324,2.27677,8.85823,0.0770431,0.064139,0.20723,0
2024-11-29 18:04:06.361,0.725324,2.27677,8.85823,0.0770431,0.064139,0.20723,0
2024-11-29 18:04:06.361,0.725324,2.27677,8.85823,0.0770431,0.064139,0.20723,0
2024-11-29 18:04:06.362,0.725324,2.27677,8.85823,0.0752106,0.0787993,0.199289,0
2024-11-29 18:04:06.362,0.725324,2.27677,8.85823,0.0752106,0.0787993,0.199289,0
2024-11-29 18:04:06.362,0.725324,2.27677,8.85823,0.0752106,0.0787993,0.199289,0
2024-11-29 18:04:06.362,0.725324,2.27677,8.85823,0.0752106,0.0787993,0.199289,0
2024-11-29 18:04:06.362,0.725324,2.27677,8.85823,0.0752106,0.0787993,0.199289,0
2024-11-29 18:04:06.362,0.725324,2.27677,8.85823,0.0752106,0.0787993,0.199289,0
2024-11-29 18:04:06.363,0.667897,2.29591,8.88934,0.0752106,0.0787993,0.199289,0
2024-11-29 18:04:06.363,0.667897,2.29591,8.88934,0.0752106,0.0787993,0.199289,0
2024-11-29 18:04:06.364,0.667897,2.29591,8.88934,0.0752106,0.0787993,0.199289,0
2024-11-29 18:04:06.364,0.667897,2.29591,8.88934,0.0752106,0.0787993,0.199289,0
2024-11-29 18:04:06.364,0.667897,2.29591,8.88934,0.0752106,0.0787993,0.199289,0
2024-11-29 18:04:06.364,0.667897,2.29591,8.88934,0.0752106,0.0787993,0.199289,0
2024-11-29 18:04:06.364,0.667897,2.29591,8.88934,0.0752106,0.0787993,0.199289,0
2024-11-29 18:04:06.366,0.605683,2.31745,8.92762,0.0745997,0.0940705,0.195624,0
2024-11-29 18:04:06.366,0.605683,2.31745,8.92762,0.0745997,0.0940705,0.195624,0
2024-11-29 18:04:06.366,0.605683,2.31745,8.92762,0.0745997,0.0940705,0.195624,0
2024-11-29 18:04:06.366,0.605683,2.31745,8.92762,0.0745997,0.0940705,0.195624,0
2024-11-29 18:04:06.366,0.605683,2.31745,8.92762,0.0745997,0.0940705,0.195624,0
2024-11-29 18:04:06.367,0.605683,2.31745,8.92762,0.0764323,0.113618,0.190126,0
2024-11-29 18:04:06.367,0.605683,2.31745,8.92762,0.0764323,0.113618,0.190126,0
2024-11-29 18:04:06.367,0.605683,2.31745,8.92762,0.0764323,0.113618,0.190126,0
2024-11-29 18:04:06.367,0.605683,2.31745,8.92762,0.0764323,0.113618,0.190126,0
2024-11-29 18:04:06.367,0.605683,2.31745,8.92762,0.0764323,0.113618,0.190126,0
2024-11-29 18:04:06.367,0.605683,2.31745,8.92762,0.0764323,0.113618,0.190126,0
2024-11-29 18:04:06.368,0.531506,2.3342,8.96112,0.0764323,0.113618,0.190126,0
2024-11-29 18:04:06.368,0.531506,2.3342,8.96112,0.0764323,0.113618,0.190126,0
2024-11-29 18:04:06.368,0.531506,2.3342,8.96112,0.0764323,0.113618,0.190126,0
2024-11-29 18:04:06.368,0.531506,2.3342,8.96112,0.0764323,0.113618,0.190126,0
2024-11-29 18:04:06.369,0.531506,2.3342,8.96112,0.0807082,0.134997,0.190126,0
2024-11-29 18:04:06.369,0.531506,2.3342,8.96112,0.0807082,0.134997,0.190126,0
2024-11-29 18:04:06.369,0.531506,2.3342,8.96112,0.0807082,0.134997,0.190126,0
2024-11-29 18:04:06.369,0.531506,2.3342,8.96112,0.0807082,0.134997,0.190126,0
2024-11-29 18:04:06.369,0.531506,2.3342,8.96112,0.0807082,0.134997,0.190126,0
2024-11-29 18:04:06.370,0.452543,2.35334,8.98744,0.0807082,0.134997,0.190126,0
2024-11-29 18:04:06.370,0.452543,2.35334,8.98744,0.0807082,0.134997,0.190126,0
2024-11-29 18:04:06.370,0.452543,2.35334,8.98744,0.0807082,0.134997,0.190126,0
2024-11-29 18:04:06.370,0.452543,2.35334,8.98744,0.0807082,0.134997,0.190126,0
2024-11-29 18:04:06.370,0.452543,2.35334,8.98744,0.0807082,0.134997,0.190126,0
2024-11-29 18:04:06.370,0.452543,2.35334,8.98744,0.0807082,0.134997,0.190126,0
2024-11-29 18:04:06.371,0.452543,2.35334,8.98744,0.0807082,0.134997,0.190126,0
2024-11-29 18:04:06.371,0.452543,2.35334,8.98744,0.0807082,0.134997,0.190126,0
2024-11-29 18:04:06.371,0.452543,2.35334,8.98744,0.0807082,0.134997,0.190126,0
2024-11-29 18:04:06.371,0.452543,2.35334,8.98744,0.0807082,0.134997,0.190126,0
2024-11-29 18:04:06.373,0.375972,2.37727,9.00419,0.0837624,0.160042,0.190126,0
2024-11-29 18:04:06.373,0.375972,2.37727,9.00419,0.0837624,0.160042,0.190126,0
2024-11-29 18:04:06.373,0.375972,2.37727,9.00419,0.0837624,0.160042,0.190126,0
2024-11-29 18:04:06.373,0.375972,2.37727,9.00419,0.0837624,0.160042,0.190126,0
2024-11-29 18:04:06.373,0.375972,2.37727,9.00419,0.0837624,0.160042,0.190126,0
2024-11-29 18:04:06.374,0.375972,2.37727,9.00419,0.0868167,0.183865,0.188294,0
2024-11-29 18:04:06.374,0.375972,2.37727,9.00419,0.0868167,0.183865,0.188294,0
2024-11-29 18:04:06.375,0.299402,2.39163,8.99223,0.0868167,0.183865,0.188294,0
2024-11-29 18:04:06.375,0.299402,2.39163,8.99223,0.0868167,0.183865,0.188294,0
2024-11-29 18:04:06.375,0.299402,2.39163,8.99223,0.0868167,0.183865,0.188294,0
2024-11-29 18:04:06.376,0.299402,2.39163,8.99223,0.0886492,0.20891,0.19257,0
2024-11-29 18:04:06.376,0.299402,2.39163,8.99223,0.0886492,0.20891,0.19257,0
2024-11-29 18:04:06.376,0.299402,2.39163,8.99223,0.0886492,0.20891,0.19257,0
2024-11-29 18:04:06.376,0.299402,2.39163,8.99223,0.0886492,0.20891,0.19257,0
2024-11-29 18:04:06.376,0.299402,2.39163,8.99223,0.0886492,0.20891,0.19257,0
2024-11-29 18:04:06.376,0.299402,2.39163,8.99223,0.0886492,0.20891,0.19257,0
2024-11-29 18:04:06.376,0.299402,2.39163,8.99223,0.0886492,0.20891,0.19257,0
2024-11-29 18:04:06.377,0.229711,2.40359,8.99462,0.0886492,0.20891,0.19257,0
2024-11-29 18:04:06.377,0.229711,2.40359,8.99462,0.0886492,0.20891,0.19257,0
2024-11-29 18:04:06.377,0.229711,2.40359,8.99462,0.0886492,0.20891,0.19257,0
2024-11-29 18:04:06.377,0.229711,2.40359,8.99462,0.0886492,0.20891,0.19257,0
2024-11-29 18:04:06.377,0.229711,2.40359,8.99462,0.0886492,0.20891,0.19257,0
2024-11-29 18:04:06.377,0.229711,2.40359,8.99462,0.0886492,0.20891,0.19257,0
2024-11-29 18:04:06.378,0.229711,2.40359,8.99462,0.0886492,0.20891,0.19257,0
2024-11-29 18:04:06.378,0.229711,2.40359,8.99462,0.0886492,0.20891,0.19257,0
2024-11-29 18:04:06.378,0.229711,2.40359,8.99462,0.0886492,0.20891,0.19257,0
2024-11-29 18:04:06.378,0.229711,2.40359,8.99462,0.0886492,0.20891,0.19257,0
2024-11-29 18:04:06.378,0.229711,2.40359,8.99462,0.0886492,0.20891,0.19257,0
2024-11-29 18:04:06.380,0.150748,2.42273,8.98505,0.0917034,0.233344,0.195013,0
2024-11-29 18:04:06.380,0.150748,2.42273,8.98505,0.0917034,0.233344,0.195013,0
2024-11-29 18:04:06.380,0.150748,2.42273,8.98505,0.0917034,0.233344,0.195013,0
2024-11-29 18:04:06.380,0.150748,2.42273,8.98505,0.0917034,0.233344,0.195013,0
2024-11-29 18:04:06.381,0.150748,2.42273,8.98505,0.0965902,0.256556,0.200511,0
2024-11-29 18:04:06.381,0.150748,2.42273,8.98505,0.0965902,0.256556,0.200511,0
2024-11-29 18:04:06.381,0.150748,2.42273,8.98505,0.0965902,0.256556,0.200511,0
2024-11-29 18:04:06.381,0.150748,2.42273,8.98505,0.0965902,0.256556,0.200511,0
2024-11-29 18:04:06.381,0.150748,2.42273,8.98505,0.0965902,0.256556,0.200511,0
2024-11-29 18:04:06.382,0.0741775,2.41555,8.95394,0.0965902,0.256556,0.200511,0
2024-11-29 18:04:06.382,0.0741775,2.41555,8.95394,0.0965902,0.256556,0.200511,0
2024-11-29 18:04:06.382,0.0741775,2.41555,8.95394,0.0965902,0.256556,0.200511,0
2024-11-29 18:04:06.382,0.0741775,2.41555,8.95394,0.0965902,0.256556,0.200511,0
2024-11-29 18:04:06.383,0.0741775,2.41555,8.95394,0.0959794,0.27427,0.204176,0
2024-11-29 18:04:06.383,0.0741775,2.41555,8.95394,0.0959794,0.27427,0.204176,0
2024-11-29 18:04:06.383,0.0741775,2.41555,8.95394,0.0959794,0.27427,0.204176,0
2024-11-29 18:04:06.383,0.0741775,2.41555,8.95394,0.0959794,0.27427,0.204176,0
2024-11-29 18:04:06.385,-0.00478565,2.40598,8.92762,0.0959794,0.27427,0.204176,0
2024-11-29 18:04:06.385,-0.00478565,2.40598,8.92762,0.0959794,0.27427,0.204176,0
2024-11-29 18:04:06.385,-0.00478565,2.40598,8.92762,0.0959794,0.27427,0.204176,0
2024-11-29 18:04:06.385,-0.00478565,2.40598,8.92762,0.0959794,0.27427,0.204176,0
2024-11-29 18:04:06.386,-0.00478565,2.40598,8.92762,0.0953685,0.287098,0.208452,0
2024-11-29 18:04:06.386,-0.00478565,2.40598,8.92762,0.0953685,0.287098,0.208452,0
2024-11-29 18:04:06.386,-0.00478565,2.40598,8.92762,0.0953685,0.287098,0.208452,0
2024-11-29 18:04:06.386,-0.00478565,2.40598,8.92762,0.0953685,0.287098,0.208452,0
2024-11-29 18:04:06.386,-0.00478565,2.40598,8.92762,0.0953685,0.287098,0.208452,0
2024-11-29 18:04:06.387,-0.0693919,2.40838,8.89173,0.0953685,0.287098,0.208452,0
2024-11-29 18:04:06.387,-0.0693919,2.40838,8.89173,0.0953685,0.287098,0.208452,0
2024-11-29 18:04:06.388,-0.0693919,2.40838,8.89173,0.0953685,0.287098,0.208452,0
2024-11-29 18:04:06.388,-0.0693919,2.40838,8.89173,0.0953685,0.287098,0.208452,0
2024-11-29 18:04:06.388,-0.0693919,2.40838,8.89173,0.0953685,0.287098,0.208452,0
2024-11-29 18:04:06.393,-0.18664,2.40359,8.8343,0.0917034,0.299315,0.218836,0
2024-11-29 18:04:06.393,-0.18664,2.40359,8.8343,0.0917034,0.299315,0.218836,0
2024-11-29 18:04:06.394,-0.241675,2.41316,8.80319,0.0880384,0.299315,0.224945,0
2024-11-29 18:04:06.397,-0.297009,2.4323,8.77209,0.0849841,0.296872,0.22922,0
2024-11-29 18:04:06.400,-0.34008,2.44427,8.75534,0.0794865,0.293207,0.237161,0
2024-11-29 18:04:06.401,-0.375972,2.4658,8.74337,0.0752106,0.285266,0.242048,0
2024-11-29 18:04:06.403,-0.407079,2.49452,8.73859,0.0672696,0.276103,0.248768,0
2024-11-29 18:04:06.407,-0.435793,2.50409,8.75534,0.0513875,0.254723,0.262206,0
2024-11-29 18:04:06.408,-0.442971,2.52323,8.79602,0.0513875,0.254723,0.262206,0
2024-11-29 18:04:06.410,-0.447757,2.55942,8.85584,0.0434465,0.240674,0.269536,0
2024-11-29 18:04:06.414,-0.442971,2.58335,8.92523,0.0367272,0.226013,0.276867,0
2024-11-29 18:04:06.415,-0.431007,2.60249,8.99701,0.0263428,0.211353,0.282975,0
2024-11-29 18:04:06.419,-0.404686,2.61685,9.06641,0.0177909,0.193639,0.289694,0
2024-11-29 18:04:06.421,-0.375972,2.61924,9.15255,0.00862822,0.175313,0.29397,0
2024-11-29 18:04:06.423,-0.375972,2.6336,9.23151,-0.0096972,0.131943,0.304355,0
2024-11-29 18:04:06.426,-0.364008,2.66471,9.32752,-0.0176382,0.111174,0.308631,0
2024-11-29 18:04:06.428,-0.342473,2.68864,9.45195,-0.0243575,0.0910162,0.311685,0
2024-11-29 18:04:06.430,-0.344866,2.70539,9.5668,-0.0243575,0.0910162,0.311685,0
2024-11-29 18:04:06.432,-0.337687,2.74846,9.68884,-0.0310769,0.0708583,0.316572,0
2024-11-29 18:04:06.434,-0.313759,2.79153,9.81326,-0.0377962,0.0488678,0.318404,0
2024-11-29 18:04:06.437,-0.318545,2.82981,9.94756,-0.046348,0.0250447,0.320237,0
2024-11-29 18:04:06.440,-0.335294,2.88485,10.0983,-0.0500131,0.00122169,0.323902,0
2024-11-29 18:04:06.442,-0.349651,2.9351,10.2586,-0.058565,-0.0476461,0.33001,0
2024-11-29 18:04:06.444,-0.347258,2.97817,10.4121,-0.058565,-0.0476461,0.33001,0
2024-11-29 18:04:06.447,-0.347258,3.00927,10.5509,-0.0579541,-0.0977356,0.335508,0
2024-11-29 18:04:06.449,-0.347258,3.0332,10.6944,-0.0579541,-0.0977356,0.335508,0
2024-11-29 18:04:06.452,-0.320937,3.04277,10.8404,-0.0597867,-0.160042,0.33673,0
2024-11-29 18:04:06.454,-0.277567,3.03799,10.9723,-0.0597867,-0.160042,0.33673,0
2024-11-29 18:04:06.456,-0.212961,3.02124,11.1039,-0.0603975,-0.197915,0.334897,0
2024-11-29 18:04:06.459,-0.148355,2.99013,11.2235,-0.0616192,-0.240063,0.334286,0
2024-11-29 18:04:06.460,-0.0765703,2.9662,11.3312,-0.0677277,-0.284044,0.329399,0
2024-11-29 18:04:06.463,0.00478565,2.94227,11.4748,-0.0713928,-0.329858,0.325123,0
2024-11-29 18:04:06.465,0.0693919,2.90878,11.6306,-0.0768904,-0.378114,0.319015,0
2024-11-29 18:04:06.468,0.129212,2.88006,11.7742,-0.0836097,-0.425761,0.311074,0
2024-11-29 18:04:06.470,0.196211,2.85853,11.9225,-0.0915507,-0.469742,0.303744,0
2024-11-29 18:04:06.473,0.270389,2.82981,12.076,-0.100103,-0.510668,0.295803,0
2024-11-29 18:04:06.475,0.361615,2.78913,12.2411,-0.108044,-0.545487,0.286029,0
2024-11-29 18:04:06.476,0.454935,2.75085,12.3918,-0.117817,-0.572975,0.276867,0
2024-11-29 18:04:06.479,0.54347,2.72692,12.5521,-0.128812,-0.594965,0.267093,0
2024-11-29 18:04:06.481,0.610469,2.70778,12.7367,-0.139197,-0.612069,0.258541,0
2024-11-29 18:04:06.484,0.663111,2.68385,12.909,-0.14836,-0.621843,0.248768,0
2024-11-29 18:04:06.487,0.694218,2.6671,13.0549,-0.158744,-0.624897,0.239605,0
2024-11-29 18:04:06.488,0.742074,2.63599,13.206,-0.169739,-0.618788,0.231664,0
2024-11-29 18:04:06.492,0.797109,2.60249,13.3783,-0.182567,-0.610847,0.223723,0
2024-11-29 18:04:06.494,0.842872,2.57617,13.5458,-0.194173,-0.596798,0.216393,0
2024-11-29 18:04:06.496,0.9003,2.54507,13.7157,-0.202725,-0.579083,0.208452,0
2024-11-29 18:04:06.498,0.924228,2.51605,13.8835,-0.211888,-0.553428,0.201732,0
2024-11-29 18:04:06.500,0.96012,2.47537,14.0557,-0.219218,-0.527161,0.194402,0
2024-11-29 18:04:06.502,1.01037,2.42273,14.2232,-0.224715,-0.499062,0.188294,0
2024-11-29 18:04:06.505,1.04626,2.3677,14.3647,-0.227159,-0.467298,0.179742,0
2024-11-29 18:04:06.508,1.08933,2.31745,14.4939,-0.228381,-0.392775,0.164471,0
2024-11-29 18:04:06.509,1.12522,2.26241,14.6231,-0.228381,-0.392775,0.164471,0
2024-11-29 18:04:06.513,1.14437,2.19541,14.7308,-0.225937,-0.35307,0.157751,0
2024-11-29 18:04:06.514,1.15633,2.13081,14.805,-0.22044,-0.307256,0.152865,0
2024-11-29 18:04:06.517,1.17308,2.05663,14.8696,-0.214942,-0.25961,0.147367,0
2024-11-29 18:04:06.520,1.17787,1.97767,14.9369,-0.204557,-0.209521,0.141869,0
2024-11-29 18:04:06.522,1.16351,1.91037,14.9919,-0.173404,-0.102622,0.13515,2
2024-11-29 18:04:06.525,1.12762,1.85055,15.023,-0.173404,-0.102622,0.13515,0
2024-11-29 18:04:06.526,1.0678,1.79312,15.023,-0.154468,-0.0458135,0.131485,0
2024-11-29 18:04:06.529,0.99362,1.73809,14.9848,-0.133088,0.0128278,0.132096,0
2024-11-29 18:04:06.532,0.907478,1.68305,14.9178,-0.133088,0.0128278,0.132096,0
2024-11-29 18:04:06.534,0.804287,1.65673,14.8385,-0.0573433,0.213797,0.144924,0
2024-11-29 18:04:06.535,0.677468,1.64477,14.7212,-0.0573433,0.213797,0.144924,0
2024-11-29 18:04:06.538,0.541077,1.62323,14.5657,-0.0274118,0.28832,0.153475,0
2024-11-29 18:04:06.541,0.395115,1.61366,14.3815,0.00496313,0.362843,0.164471,0
2024-11-29 18:04:06.543,0.246461,1.63998,14.1682,0.033673,0.436756,0.176688,0
2024-11-29 18:04:06.546,0.100499,1.67348,13.9313,0.0972011,0.574196,0.207841,0
2024-11-29 18:04:06.547,-0.0550349,1.70937,13.6869,0.0972011,0.574196,0.207841,0
2024-11-29 18:04:06.549,-0.189033,1.75005,13.4453,0.128354,0.636503,0.224334,0
2024-11-29 18:04:06.553,-0.318545,1.78594,13.1818,0.157675,0.692701,0.24327,0
2024-11-29 18:04:06.555,-0.447757,1.81705,12.9138,0.218149,0.799599,0.282364,0
2024-11-29 18:04:06.557,-0.548256,1.86012,12.641,0.218149,0.799599,0.282364,0
2024-11-29 18:04:06.560,-0.624826,1.90319,12.3464,0.270071,0.890615,0.323291,0
2024-11-29 18:04:06.562,-0.691825,1.93191,12.035,0.270071,0.890615,0.323291,0
2024-11-29 18:04:06.565,-0.751645,1.9343,11.712,0.293894,0.926044,0.342227,0
2024-11-29 18:04:06.566,-0.811466,1.91994,11.391,0.293894,0.926044,0.342227,0
2024-11-29 18:04:06.568,-0.864407,1.92712,11.0704,0.33421,0.974912,0.381321,0
2024-11-29 18:04:06.572,-0.909871,1.92951,10.7686,0.349481,0.992016,0.39476,0
2024-11-29 18:04:06.574,-0.948156,1.92473,10.4791,0.361698,0.999957,0.411253,0
2024-11-29 18:04:06.576,-0.984048,1.95823,10.1677,0.37025,0.999957,0.427135,0
2024-11-29 18:04:06.579,-1.02712,2.01117,9.87099,0.379413,0.984075,0.450958,0
2024-11-29 18:04:06.581,-1.07737,2.05663,9.58834,0.380023,0.963917,0.463786,0
2024-11-29 18:04:06.583,-1.11087,2.12363,9.28924,0.380023,0.963917,0.463786,0
2024-11-29 18:04:06.585,-1.15394,2.20499,9.0018,0.372693,0.937651,0.472948,0
2024-11-29 18:04:06.588,-1.2018,2.29591,8.71227,0.36353,0.902832,0.482722,0
2024-11-29 18:04:06.592,-1.22572,2.47298,8.15444,0.326269,0.804486,0.496772,0
2024-11-29 18:04:06.592,-1.23529,2.47298,8.15444,0.326269,0.804486,0.496772,0
2024-11-29 18:04:06.595,-1.21615,2.54746,7.92204,0.300613,0.741569,0.499826,0
2024-11-29 18:04:06.597,-1.17308,2.61924,7.71147,0.268238,0.664602,0.498604,0
2024-11-29 18:04:06.600,-1.09412,2.7006,7.52692,0.227312,0.571753,0.494328,0
2024-11-29 18:04:06.602,-0.998405,2.77238,7.37378,0.183331,0.467298,0.486998,0
2024-11-29 18:04:06.606,-0.809073,2.91117,7.22543,0.0745997,0.227846,0.456456,0
2024-11-29 18:04:06.606,-0.809073,2.91117,7.22543,0.0745997,0.227846,0.456456,0
2024-11-29 18:04:06.609,-0.682254,2.99731,7.25175,0.0147367,0.0946813,0.432022,0
2024-11-29 18:04:06.611,-0.545863,3.07627,7.34268,-0.0451263,-0.0458135,0.405755,0
2024-11-29 18:04:06.613,-0.402293,3.14357,7.51257,-0.106822,-0.188141,0.373991,0
2024-11-29 18:04:06.616,-0.265603,3.21296,7.73061,-0.165463,-0.333523,0.336119,0
2024-11-29 18:04:06.619,-0.11007,3.27518,7.98186,-0.22105,-0.475239,0.292138,0
2024-11-29 18:04:06.620,0.081356,3.31346,8.29083,-0.272972,-0.609015,0.243881,0
2024-11-29 18:04:06.623,0.292223,3.31107,8.66172,-0.320618,-0.737903,0.190737,0
2024-11-29 18:04:06.625,0.507577,3.27518,9.04965,-0.362767,-0.852743,0.132096,0
2024-11-29 18:04:06.628,0.720539,3.19861,9.39452,-0.425684,-1.04944,0.00931542,0
2024-11-29 18:04:06.630,0.924228,3.09571,9.71994,-0.425684,-1.04944,0.00931542,0
2024-11-29 18:04:06.633,1.08694,2.9686,10.0576,-0.465389,-1.19054,-0.114687,0
2024-11-29 18:04:06.635,1.21615,2.84656,10.3857,-0.465389,-1.19054,-0.114687,0
2024-11-29 18:04:06.637,1.31904,2.73888,10.716,-0.482493,-1.24613,-0.180658,0
2024-11-29 18:04:06.641,1.43898,2.53071,11.3504,-0.495932,-1.31821,-0.303438,0
2024-11-29 18:04:06.642,1.43898,2.53071,11.3504,-0.495932,-1.33287,-0.36208,0
2024-11-29 18:04:06.645,1.4677,2.44427,11.6282,-0.495932,-1.33287,-0.36208,0
2024-11-29 18:04:06.646,1.48684,2.33898,11.8866,-0.489823,-1.33348,-0.417056,0
2024-11-29 18:04:06.648,1.48205,2.23131,12.131,-0.481882,-1.31638,-0.467756,0
2024-11-29 18:04:06.651,1.44377,2.11406,12.32,-0.470276,-1.28278,-0.516013,0
2024-11-29 18:04:06.653,1.36929,1.99681,12.4852,-0.453783,-1.2333,-0.559383,0
2024-11-29 18:04:06.656,1.25444,1.88883,12.6215,-0.434847,-1.17038,-0.593591,0
2024-11-29 18:04:06.658,1.11565,1.7668,12.7415,-0.4153,-1.09403,-0.625355,0
2024-11-29 18:04:06.661,0.952942,1.6352,12.8157,-0.392088,-1.00545,-0.649178,0
2024-11-29 18:04:06.663,0.756431,1.52273,12.8324,-0.365821,-0.904054,-0.667503,0
2024-11-29 18:04:06.665,0.531506,1.40548,12.8085,-0.340776,-0.795323,-0.678499,0
2024-11-29 18:04:06.668,0.277567,1.29751,12.7415,-0.313288,-0.680484,-0.677888,0
2024-11-29 18:04:06.670,0.026321,1.20419,12.6338,-0.287633,-0.557093,-0.668725,0
2024-11-29 18:04:06.672,-0.196211,1.11326,12.5091,-0.258923,-0.429426,-0.653454,0
2024-11-29 18:04:06.674,-0.414257,1.04865,12.3775,-0.231435,-0.301759,-0.62902,0
2024-11-29 18:04:06.677,-0.65354,1.01994,12.1286,-0.204557,-0.17287,-0.598478,0
2024-11-29 18:04:06.680,-0.97687,1.09173,11.6043,-0.181345,-0.0287098,-0.556329,0
2024-11-29 18:04:06.681,-1.21376,1.15872,11.19,-0.171572,0.125224,-0.500742,0
2024-11-29 18:04:06.684,-1.28794,1.1324,11.0895,-0.158744,0.257778,-0.443933,0
2024-11-29 18:04:06.687,-1.38844,1.07019,10.9385,-0.150192,0.43981,-0.32604,0
2024-11-29 18:04:06.689,-1.54427,0.996012,10.6896,-0.150192,0.43981,-0.32604,0
2024-11-29 18:04:06.692,-1.68066,0.936192,10.448,-0.145916,0.571753,-0.211811,0
2024-11-29 18:04:06.694,-1.74287,0.893121,10.2562,-0.140419,0.627951,-0.161722,0
2024-11-29 18:04:06.696,-1.72852,0.869193,10.1294,-0.140419,0.627951,-0.161722,0
2024-11-29 18:04:06.699,-1.66869,0.873978,10.0385,-0.130034,0.676819,-0.114076,0
2024-11-29 18:04:06.701,-1.58016,0.893121,9.96192,-0.0952158,0.765392,-0.0395524,0
2024-11-29 18:04:06.704,-1.47248,0.933799,9.87578,-0.0713928,0.806929,-0.00656661,0
2024-11-29 18:04:06.706,-1.38604,0.996012,9.76062,-0.0713928,0.806929,-0.00656661,0
2024-11-29 18:04:06.708,-1.31426,1.05583,9.61705,-0.0170274,0.893059,0.0502422,0
2024-11-29 18:04:06.711,-1.28794,1.11565,9.44716,0.0153475,0.932764,0.078952,0
2024-11-29 18:04:06.713,-1.28076,1.17308,9.24826,0.0153475,0.932764,0.078952,0
2024-11-29 18:04:06.715,-1.24487,1.23529,9.0353,0.0434465,0.968193,0.101553,0
2024-11-29 18:04:06.717,-1.22094,1.30229,8.8008,0.0684913,0.993238,0.125376,0
2024-11-29 18:04:06.720,-1.17069,1.35494,8.5684,0.093536,1.00912,0.146756,0
2024-11-29 18:04:06.721,-1.10848,1.41984,8.36979,0.116137,1.01828,0.165081,0
2024-11-29 18:04:06.724,-1.0343,1.46291,8.1688,0.134463,1.02134,0.184018,0
2024-11-29 18:04:06.727,-0.933799,1.48923,7.96511,0.174779,1.01095,0.208452,0
2024-11-29 18:04:06.729,-0.801895,1.50359,7.80958,0.174779,1.01095,0.208452,0
2024-11-29 18:04:06.731,-0.572184,1.44616,7.81675,0.188828,0.990794,0.218225,0
2024-11-29 18:04:06.733,-0.330509,1.36451,7.89332,0.21204,0.955365,0.218836,0
2024-11-29 18:04:06.737,-0.292223,1.4004,7.72104,0.265184,0.916271,0.213338,0
2024-11-29 18:04:06.739,-0.390329,1.54188,7.37617,0.290229,0.918714,0.215171,0
2024-11-29 18:04:06.741,-0.409472,1.63759,7.2015,0.319549,0.909552,0.220669,0
2024-11-29 18:04:06.743,-0.328116,1.6663,7.20628,0.319549,0.909552,0.220669,0
2024-11-29 18:04:06.746,-0.217747,1.69262,7.22543,0.345205,0.883896,0.221279,0
2024-11-29 18:04:06.747,-0.184247,1.74287,7.1345,0.372082,0.845413,0.219447,0
2024-11-29 18:04:06.752,-0.162712,1.78834,6.83031,0.427669,0.776998,0.217614,0
2024-11-29 18:04:06.753,-0.162712,1.78834,6.83031,0.427669,0.776998,0.217614,0
2024-11-29 18:04:06.755,-0.117248,1.79073,6.74417,0.454547,0.73546,0.218225,0
2024-11-29 18:04:06.758,-0.0287139,1.78355,6.71067,0.477759,0.692701,0.213949,0
2024-11-29 18:04:06.759,0.0717847,1.75962,6.7011,0.50708,0.64139,0.207841,0
2024-11-29 18:04:06.761,0.00239282,1.80509,6.43998,0.537622,0.601074,0.200511,0
2024-11-29 18:04:06.765,-0.114855,1.88166,6.09542,0.559612,0.577251,0.197456,0
2024-11-29 18:04:06.767,-0.0741775,1.90558,5.99253,0.57916,0.551595,0.197456,0
2024-11-29 18:04:06.770,-0.00957129,1.92233,5.91356,0.613367,0.474628,0.191959,0
2024-11-29 18:04:06.771,0.0,1.95823,5.74098,0.613367,0.474628,0.191959,0
2024-11-29 18:04:06.773,0.0167498,1.9657,5.60937,0.621308,0.428204,0.187683,0
2024-11-29 18:04:06.776,0.0693919,1.95583,5.51127,0.628027,0.376893,0.180964,0
2024-11-29 18:04:06.778,0.0933201,1.95823,5.35095,0.634136,0.322527,0.173022,0
2024-11-29 18:04:06.780,0.0957129,1.97288,5.15205,0.634136,0.273049,0.165081,0
2024-11-29 18:04:06.784,0.133998,1.98724,5.02762,0.62986,0.227235,0.154697,0
2024-11-29 18:04:06.786,0.160319,2.00638,4.93669,0.623751,0.181422,0.143702,0
2024-11-29 18:04:06.787,0.181855,2.02792,4.83141,0.617643,0.135608,0.132707,0
2024-11-29 18:04:06.790,0.212961,2.04467,4.7689,0.609091,0.0897945,0.118046,0
2024-11-29 18:04:06.793,0.212961,2.07577,4.69472,0.580992,0.0,0.0887256,0
2024-11-29 18:04:06.795,0.193819,2.11884,4.60379,0.580992,0.0,0.0887256,0
2024-11-29 18:04:06.801,0.143569,2.22413,4.36929,0.517464,-0.123391,0.0380252,0
2024-11-29 18:04:06.802,0.143569,2.22413,4.36929,0.517464,-0.123391,0.0380252,0
2024-11-29 18:04:06.802,0.143569,2.22413,4.36929,0.517464,-0.123391,0.0380252,0
2024-11-29 18:04:06.805,0.124427,2.26241,4.33101,0.49303,-0.166761,0.0196998,0
2024-11-29 18:04:06.807,0.102891,2.31027,4.33101,0.432556,-0.255334,-0.0175619,0
2024-11-29 18:04:06.810,0.066999,2.33659,4.32383,0.432556,-0.255334,-0.0175619,0
2024-11-29 18:04:06.813,0.0334995,2.40838,4.32144,0.36292,-0.343296,-0.0560452,0
2024-11-29 18:04:06.814,0.0334995,2.40838,4.32144,0.323825,-0.379947,-0.0749815,0
2024-11-29 18:04:06.820,-0.0119641,2.53789,4.46261,0.241361,-0.444697,-0.118963,0
2024-11-29 18:04:06.821,-0.0119641,2.53789,4.46261,0.241361,-0.444697,-0.118963,0
2024-11-29 18:04:06.821,-0.0119641,2.53789,4.46261,0.241361,-0.444697,-0.118963,0
2024-11-29 18:04:06.824,-0.0215354,2.56421,4.5679,0.199823,-0.477072,-0.140342,0
2024-11-29 18:04:06.825,-0.0311067,2.60249,4.68275,0.157064,-0.505171,-0.1605,0
2024-11-29 18:04:06.827,-0.0574277,2.63121,4.81466,0.115526,-0.530826,-0.178826,0
2024-11-29 18:04:06.830,-0.0693919,2.64317,4.95105,0.0758214,-0.552817,-0.19654,0
2024-11-29 18:04:06.832,-0.0957129,2.66471,5.09223,0.0361163,-0.56992,-0.213644,0
2024-11-29 18:04:06.834,-0.133998,2.66231,5.24537,-0.00297788,-0.584581,-0.227082,0
2024-11-29 18:04:06.837,-0.143569,2.63599,5.41556,-0.0365745,-0.597409,-0.240521,0
2024-11-29 18:04:06.839,-0.136391,2.62164,5.5687,-0.0732253,-0.609626,-0.250906,0
2024-11-29 18:04:06.843,-0.119641,2.60728,5.72902,-0.109265,-0.625508,-0.260679,0
2024-11-29 18:04:06.844,-0.0933201,2.58814,5.88216,-0.139197,-0.639557,-0.269231,0
2024-11-29 18:04:06.846,-0.0598206,2.54746,6.02124,-0.172793,-0.656661,-0.27595,0
2024-11-29 18:04:06.850,-0.0311067,2.51605,6.17917,-0.238154,-0.703696,-0.291221,0
2024-11-29 18:04:06.852,0.00239282,2.52084,6.37538,-0.238154,-0.703696,-0.291221,0
2024-11-29 18:04:06.853,0.0550349,2.51127,6.61496,-0.265642,-0.726297,-0.299162,0
2024-11-29 18:04:06.856,0.11007,2.48495,6.85185,-0.290687,-0.754396,-0.30466,0
2024-11-29 18:04:06.859,0.167498,2.48495,7.09382,-0.316953,-0.77883,-0.310769,0
2024-11-29 18:04:06.860,0.224925,2.49691,7.34985,-0.337722,-0.800821,-0.31871,0
2024-11-29 18:04:06.864,0.285045,2.50887,7.58465,-0.35788,-0.819146,-0.324207,0
2024-11-29 18:04:06.866,0.352044,2.52323,7.81675,-0.376206,-0.83625,-0.331537,0
2024-11-29 18:04:06.868,0.421436,2.54028,8.08475,-0.389033,-0.848467,-0.338257,0
2024-11-29 18:04:06.871,0.486042,2.57378,8.35544,-0.399418,-0.858851,-0.344976,0
2024-11-29 18:04:06.872,0.529113,2.59292,8.59472,-0.405526,-0.864349,-0.351084,0
2024-11-29 18:04:06.876,0.584148,2.59053,8.84626,-0.412856,-0.866181,-0.358415,0
2024-11-29 18:04:06.877,0.627219,2.60489,9.11665,-0.4153,-0.864349,-0.362691,0
2024-11-29 18:04:06.880,0.646361,2.62403,9.36102,-0.413467,-0.858851,-0.371853,0
2024-11-29 18:04:06.883,0.667897,2.64796,9.58355,-0.399418,-0.826476,-0.39079,0
2024-11-29 18:04:06.885,0.672682,2.67906,9.82314,-0.389644,-0.804486,-0.39812,0
2024-11-29 18:04:06.887,0.588933,2.74606,9.98585,-0.378649,-0.76417,-0.400563,0
2024-11-29 18:04:06.890,0.404686,2.87528,9.99781,-0.378649,-0.76417,-0.400563,0
2024-11-29 18:04:06.892,0.34008,2.97817,10.1055,-0.37193,-0.717746,-0.396898,0
2024-11-29 18:04:06.894,0.387936,2.99013,10.328,-0.359713,-0.683538,-0.396898,0
2024-11-29 18:04:06.897,0.387936,2.9686,10.4839,-0.349939,-0.654217,-0.399341,0
2024-11-29 18:04:06.899,0.402293,2.94467,10.6083,-0.341387,-0.624897,-0.400563,0
2024-11-29 18:04:06.900,0.428614,2.89681,10.7231,-0.330392,-0.598019,-0.403617,0
2024-11-29 18:04:06.904,0.447757,2.83938,10.838,-0.317564,-0.566255,-0.411558,0
2024-11-29 18:04:06.906,0.445364,2.79871,10.9361,-0.285189,-0.485624,-0.43416,0
2024-11-29 18:04:06.907,0.411865,2.78435,11.001,-0.285189,-0.485624,-0.43416,0
2024-11-29 18:04:06.911,0.347258,2.8011,11.0513,-0.268086,-0.437977,-0.443322,0
2024-11-29 18:04:06.913,0.267996,2.82503,11.1087,-0.226548,-0.354902,-0.46287,0
2024-11-29 18:04:06.916,0.153141,2.84656,11.1637,-0.226548,-0.354902,-0.46287,0
2024-11-29 18:04:06.918,0.0119641,2.87528,11.1781,-0.210666,-0.321306,-0.466535,0
2024-11-29 18:04:06.920,-0.131605,2.91356,11.1494,-0.193562,-0.291985,-0.4702,0
2024-11-29 18:04:06.922,-0.27996,2.95663,11.1111,-0.181345,-0.267551,-0.470811,0
2024-11-29 18:04:06.925,-0.421436,3.00449,11.068,-0.161187,-0.232733,-0.461037,0
2024-11-29 18:04:06.926,-0.548256,3.04517,11.0249,-0.161187,-0.232733,-0.461037,0
2024-11-29 18:04:06.930,-0.660718,3.06909,10.9795,-0.155079,-0.216851,-0.451263,0
2024-11-29 18:04:06.932,-0.770788,3.09332,10.9484,-0.149581,-0.205856,-0.439046,0
2024-11-29 18:04:06.933,-0.862014,3.11964,10.9217,-0.147749,-0.197304,-0.425608,0
2024-11-29 18:04:06.936,-0.924228,3.14118,10.9122,-0.14164,-0.188752,-0.409726,0
2024-11-29 18:04:06.938,-1.00558,3.15075,10.9436,-0.142251,-0.182032,-0.394455,0
2024-11-29 18:04:06.941,-1.09173,3.16271,10.9843,-0.139808,-0.178978,-0.377351,0
2024-11-29 18:04:06.943,-1.15155,3.18186,11.0273,-0.138586,-0.183254,-0.359636,0
2024-11-29 18:04:06.945,-1.19701,3.201,11.0871,-0.13431,-0.188141,-0.338868,0
2024-11-29 18:04:06.949,-1.2329,3.24407,11.1637,-0.129423,-0.205245,-0.300384,0
2024-11-29 18:04:06.951,-1.2664,3.27278,11.2307,-0.129423,-0.205245,-0.300384,0
2024-11-29 18:04:06.952,-1.29033,3.30389,11.3025,-0.123315,-0.218072,-0.282059,0
2024-11-29 18:04:06.955,-1.29033,3.34935,11.3934,-0.11965,-0.232122,-0.264344,0
2024-11-29 18:04:06.958,-1.28076,3.39242,11.4891,-0.110487,-0.268773,-0.233191,0
2024-11-29 18:04:06.959,-1.27358,3.45464,11.5804,-0.110487,-0.268773,-0.233191,0
2024-11-29 18:04:06.962,-1.27119,3.52882,11.6689,-0.106822,-0.290763,-0.221585,0
2024-11-29 18:04:06.964,-1.24487,3.59342,11.7646,-0.101935,-0.311532,-0.209368,0
2024-11-29 18:04:06.966,-1.20897,3.64128,11.846,-0.0982701,-0.330468,-0.200205,0
2024-11-29 18:04:06.969,-1.17547,3.68704,11.9154,-0.0964375,-0.346961,-0.192875,0
2024-11-29 18:04:06.972,-1.09412,3.7349,11.9895,-0.0964375,-0.385445,-0.183101,0
2024-11-29 18:04:06.974,-0.988834,3.74925,12.0688,-0.0964375,-0.385445,-0.183101,0
2024-11-29 18:04:06.976,-0.873978,3.74208,12.1741,-0.0964375,-0.412933,-0.184323,0
2024-11-29 18:04:06.978,-0.739681,3.73968,12.277,-0.0988809,-0.441032,-0.188599,0
2024-11-29 18:04:06.981,-0.610469,3.72293,12.387,-0.102546,-0.472185,-0.192875,0
2024-11-29 18:04:06.983,-0.478864,3.68465,12.5163,-0.106822,-0.503949,-0.201427,0
2024-11-29 18:04:06.986,-0.325723,3.65354,12.6338,-0.11232,-0.536935,-0.209979,0
2024-11-29 18:04:06.988,-0.18664,3.63171,12.7774,-0.118428,-0.568088,-0.222196,0
2024-11-29 18:04:06.991,-0.066999,3.59581,12.9353,-0.123315,-0.597409,-0.236856,0
2024-11-29 18:04:06.993,0.0430708,3.55035,13.086,-0.130645,-0.618788,-0.250906,0
2024-11-29 18:04:06.996,0.162712,3.51446,13.2467,-0.137975,-0.652996,-0.28328,0
2024-11-29 18:04:06.998,0.301795,3.47857,13.4046,-0.144694,-0.659715,-0.29733,0
2024-11-29 18:04:06.999,0.41665,3.44507,13.5553,-0.144694,-0.659715,-0.29733,0
2024-11-29 18:04:07.003,0.495613,3.43071,13.6989,-0.14836,-0.661548,-0.315044,0
2024-11-29 18:04:07.005,0.565005,3.41635,13.8404,-0.155079,-0.651774,-0.349863,0
2024-11-29 18:04:07.006,0.629611,3.3996,13.9672,-0.155079,-0.651774,-0.349863,0
2024-11-29 18:04:07.009,0.684646,3.38046,14.0964,-0.159355,-0.643222,-0.366966,0
2024-11-29 18:04:07.012,0.720539,3.33978,14.2424,-0.162409,-0.631616,-0.387735,0
2024-11-29 18:04:07.014,0.754038,3.28475,14.3815,-0.164242,-0.616956,-0.406672,0
2024-11-29 18:04:07.016,0.785145,3.2345,14.5107,-0.163631,-0.59863,-0.423164,0
2024-11-29 18:04:07.019,0.80668,3.18664,14.6279,-0.16302,-0.577251,-0.439657,0
2024-11-29 18:04:07.022,0.801895,3.13879,14.7212,-0.157522,-0.517388,-0.474476,0
2024-11-29 18:04:07.024,0.787538,3.07627,14.793,-0.157522,-0.517388,-0.474476,0
2024-11-29 18:04:07.026,0.787538,2.99492,14.8576,-0.14836,-0.450194,-0.50624,2
2024-11-29 18:04:07.029,0.751645,2.91117,14.9369,-0.142862,-0.412933,-0.517235,0
2024-11-29 18:04:07.030,0.701396,2.81545,14.9776,-0.142862,-0.412933,-0.517235,0
2024-11-29 18:04:07.032,0.665504,2.70778,14.98,-0.137364,-0.374449,-0.529452,0
2024-11-29 18:04:07.035,0.581755,2.64317,14.9393,-0.129423,-0.332912,-0.541058,0
2024-11-29 18:04:07.038,0.325723,2.67189,14.6997,-0.128202,-0.217462,-0.540447,0
2024-11-29 18:04:07.040,0.174676,2.66231,14.5011,-0.128202,-0.217462,-0.540447,0
2024-11-29 18:04:07.042,0.265603,2.53549,14.5537,-0.129423,-0.170426,-0.534949,0
2024-11-29 18:04:07.045,0.316152,2.37009,14.5657,-0.139197,-0.095903,-0.526398,0
2024-11-29 18:04:07.047,0.325723,2.19781,14.482,-0.139197,-0.095903,-0.526398,0
2024-11-29 18:04:07.049,0.337687,2.02313,14.3839,-0.142251,-0.0507003,-0.522122,0
2024-11-29 18:04:07.052,0.352044,1.83619,14.3046,-0.138586,0.0763559,-0.514181,0
2024-11-29 18:04:07.054,0.347258,1.66869,14.2448,-0.138586,0.0763559,-0.514181,0
2024-11-29 18:04:07.056,0.328116,1.53948,14.2065,-0.128812,0.152712,-0.509294,0
2024-11-29 18:04:07.058,0.265603,1.43659,14.173,-0.116595,0.233955,-0.503796,0
2024-11-29 18:04:07.063,-0.0143569,1.3334,13.9816,-0.0799446,0.404992,-0.480584,0
2024-11-29 18:04:07.064,-0.0143569,1.3334,13.9816,-0.0597867,0.491121,-0.461037,0
2024-11-29 18:04:07.066,-0.22014,1.33101,13.838,-0.0597867,0.491121,-0.461037,0
2024-11-29 18:04:07.068,-0.447757,1.36211,13.6463,-0.0371853,0.574807,-0.435992,0
2024-11-29 18:04:07.070,-0.701396,1.39801,13.4453,-0.0127514,0.651163,-0.404228,0
2024-11-29 18:04:07.072,-0.933799,1.4342,13.2515,0.00923906,0.722632,-0.368188,0
2024-11-29 18:04:07.075,-1.12762,1.47488,13.031,0.0306187,0.790436,-0.328483,0
2024-11-29 18:04:07.077,-1.29512,1.5012,12.775,0.0465007,0.849078,-0.287556,0
2024-11-29 18:04:07.080,-1.43898,1.50359,12.4995,0.065437,0.901611,-0.242354,0
2024-11-29 18:04:07.082,-1.54905,1.48923,12.2267,0.081319,0.946202,-0.195318,0
2024-11-29 18:04:07.084,-1.62802,1.47488,11.9584,0.0953685,0.981632,-0.149505,0
2024-11-29 18:04:07.088,-1.67827,1.4677,11.6928,0.10331,1.01034,-0.103691,0
2024-11-29 18:04:07.089,-1.70698,1.46052,11.4245,0.11064,1.02867,-0.0584886,0
2024-11-29 18:04:07.092,-1.72612,1.45334,11.1613,0.115526,1.03478,0.0313059,0
2024-11-29 18:04:07.094,-1.75244,1.45334,10.9122,0.115526,1.03478,0.0313059,0
2024-11-29 18:04:07.097,-1.75723,1.45813,10.6968,0.108807,0.992627,0.114992,0
2024-11-29 18:04:07.099,-1.74766,1.47488,10.4862,0.108807,0.992627,0.114992,0
2024-11-29 18:04:07.102,-1.73091,1.49402,10.285,0.10331,0.953533,0.153475,0
2024-11-29 18:04:07.103,-1.66869,1.52273,10.1127,0.0917034,0.905886,0.189515,0
2024-11-29 18:04:07.106,-1.59452,1.55384,9.95474,0.0782648,0.848467,0.223723,0
2024-11-29 18:04:07.109,-1.52991,1.6017,9.81805,0.0477224,0.707361,0.285418,0
2024-11-29 18:04:07.111,-1.44616,1.65673,9.71277,0.0477224,0.707361,0.285418,0
2024-11-29 18:04:07.113,-1.32622,1.69023,9.62423,0.0300079,0.629784,0.311074,0
2024-11-29 18:04:07.116,-1.19701,1.73569,9.5668,0.00862822,0.544265,0.332454,0
2024-11-29 18:04:07.118,-1.0654,1.77876,9.54048,-0.0115297,0.452638,0.352612,0
2024-11-29 18:04:07.120,-0.9003,1.83859,9.55484,-0.0341311,0.357956,0.368494,0
2024-11-29 18:04:07.122,-0.725324,1.91037,9.61466,-0.0530674,0.263275,0.379489,0
2024-11-29 18:04:07.124,-0.529113,1.97528,9.69362,-0.0750579,0.169816,0.38743,0
2024-11-29 18:04:07.128,-0.320937,2.03749,9.78934,-0.0915507,0.0781884,0.390484,0
2024-11-29 18:04:07.129,-0.107677,2.08774,9.9356,-0.109265,-0.00794101,0.390484,0
2024-11-29 18:04:07.132,0.112463,2.13559,10.1007,-0.123315,-0.0891837,0.384376,0
2024-11-29 18:04:07.134,0.316152,2.15474,10.2395,-0.130645,-0.160653,0.374602,0
2024-11-29 18:04:07.136,0.512363,2.14517,10.3663,-0.140419,-0.222348,0.359331,0
2024-11-29 18:04:07.139,0.699003,2.11167,10.5126,-0.147138,-0.277936,0.345281,0
2024-11-29 18:04:07.141,0.873978,2.05663,10.6298,-0.151414,-0.32436,0.326345,0
2024-11-29 18:04:07.144,1.04626,2.00399,10.7279,-0.154468,-0.362843,0.306798,0
2024-11-29 18:04:07.145,1.21615,1.95823,10.8069,-0.153857,-0.394607,0.285418,0
2024-11-29 18:04:07.149,1.34776,1.90798,10.8715,-0.156301,-0.420874,0.261595,0
2024-11-29 18:04:07.151,1.45813,1.86491,10.9627,-0.156911,-0.438588,0.233496,0
2024-11-29 18:04:07.153,1.55145,1.83141,11.0345,-0.153857,-0.445919,0.207841,0
2024-11-29 18:04:07.157,1.62562,1.80269,11.1757,-0.14897,-0.43248,0.15714,0
2024-11-29 18:04:07.157,1.62562,1.80269,11.1757,-0.14897,-0.43248,0.15714,0
2024-11-29 18:04:07.161,1.62323,1.78355,11.2235,-0.139197,-0.411711,0.133928,0
2024-11-29 18:04:07.162,1.6017,1.77876,11.2522,-0.129423,-0.378114,0.111938,0
2024-11-29 18:04:07.164,1.55623,1.77159,11.2427,-0.119039,-0.334744,0.0966666,0
2024-11-29 18:04:07.168,1.47966,1.74766,11.214,-0.0884965,-0.221127,0.0728435,0
2024-11-29 18:04:07.170,1.38126,1.71177,11.1757,-0.0884965,-0.221127,0.0728435,0
2024-11-29 18:04:07.172,1.26162,1.69502,11.1111,-0.0738362,-0.153934,0.0667351,0
2024-11-29 18:04:07.175,1.12522,1.6663,11.0106,-0.0390179,-0.00610847,0.0673459,0
2024-11-29 18:04:07.177,0.984048,1.61845,10.8643,-0.0194708,0.0739125,0.0722327,0
2024-11-29 18:04:07.179,0.837787,1.56102,10.704,-0.0194708,0.0739125,0.0722327,0
2024-11-29 18:04:07.182,0.677468,1.50838,10.5293,-0.000534491,0.15149,0.0826171,0
2024-11-29 18:04:07.183,0.517149,1.48684,10.3208,0.0165692,0.231511,0.094834,0
2024-11-29 18:04:07.186,0.361615,1.4677,10.1055,0.0318404,0.308478,0.112549,0
2024-11-29 18:04:07.188,0.22014,1.45095,9.89013,0.0452791,0.383001,0.132096,0
2024-11-29 18:04:07.191,0.0741775,1.46291,9.67209,0.0599394,0.452027,0.154086,0
2024-11-29 18:04:07.194,-0.0741775,1.4988,9.48545,0.0849841,0.566255,0.204787,0
2024-11-29 18:04:07.195,-0.217747,1.55623,9.29881,0.0849841,0.566255,0.204787,0
2024-11-29 18:04:07.198,-0.344866,1.60409,9.11665,0.0984228,0.611458,0.232886,0
2024-11-29 18:04:07.201,-0.442971,1.63041,8.94198,0.124078,0.679873,0.287251,0
2024-11-29 18:04:07.203,-0.502792,1.67109,8.72662,0.124078,0.679873,0.287251,0
2024-11-29 18:04:07.205,-0.533899,1.68784,8.52772,0.133852,0.703085,0.313517,0
2024-11-29 18:04:07.207,-0.545863,1.67587,8.36022,0.14668,0.7208,0.341005,0
2024-11-29 18:04:07.210,-0.541077,1.6663,8.19033,0.172335,0.74279,0.386819,0
2024-11-29 18:04:07.211,-0.529113,1.67587,8.001,0.172335,0.74279,0.386819,0
2024-11-29 18:04:07.214,-0.498006,1.67109,7.80718,0.183331,0.744623,0.40881,0
2024-11-29 18:04:07.217,-0.459721,1.66391,7.61336,0.202878,0.730573,0.443017,0
2024-11-29 18:04:07.221,-0.361615,1.67587,7.27089,0.21143,0.71347,0.45951,0
2024-11-29 18:04:07.222,-0.361615,1.67587,7.27089,0.216927,0.689647,0.475392,0
2024-11-29 18:04:07.227,-0.34008,1.70698,6.98345,0.216927,0.689647,0.475392,0
2024-11-29 18:04:07.227,-0.30658,1.75005,6.98345,0.216927,0.689647,0.475392,0
2024-11-29 18:04:07.228,-0.263211,1.78594,6.85663,0.224257,0.62001,0.500437,0
2024-11-29 18:04:07.230,-0.22014,1.82184,6.74417,0.22609,0.57664,0.511432,0
2024-11-29 18:04:07.233,-0.165105,1.87208,6.66042,0.230366,0.534491,0.522427,0
2024-11-29 18:04:07.236,-0.0933201,1.92233,6.58864,0.23342,0.4899,0.530979,0
2024-11-29 18:04:07.238,-0.0287139,1.97049,6.51925,0.236474,0.442253,0.540753,0
2024-11-29 18:04:07.241,0.0502493,2.02074,6.46421,0.242583,0.356124,0.551748,0
2024-11-29 18:04:07.242,0.153141,2.06142,6.4328,0.242583,0.356124,0.551748,0
2024-11-29 18:04:07.245,0.253639,2.08774,6.40648,0.249302,0.31031,0.554191,0
2024-11-29 18:04:07.248,0.344866,2.0997,6.38016,0.260908,0.224792,0.554802,0
2024-11-29 18:04:07.250,0.419043,2.11645,6.36102,0.267627,0.185087,0.546861,0
2024-11-29 18:04:07.251,0.505185,2.14756,6.35384,0.267627,0.185087,0.546861,0
2024-11-29 18:04:07.255,0.584148,2.17866,6.34666,0.273736,0.149658,0.541974,0
2024-11-29 18:04:07.256,0.648754,2.19781,6.33948,0.282288,0.11545,0.534644,0
2024-11-29 18:04:07.259,0.722932,2.2337,6.33948,0.289007,0.0873512,0.526703,0
2024-11-29 18:04:07.261,0.777966,2.26002,6.32513,0.300002,0.064139,0.515708,0
2024-11-29 18:04:07.264,0.84018,2.26959,6.32991,0.307333,0.0427593,0.506545,0
2024-11-29 18:04:07.266,0.914656,2.29591,6.31795,0.315884,0.0256556,0.493106,0
2024-11-29 18:04:07.268,0.972084,2.32463,6.28924,0.321993,0.0134386,0.4815,0
2024-11-29 18:04:07.271,1.01037,2.35334,6.26291,0.332377,0.00488678,0.468673,0
2024-11-29 18:04:07.273,1.05344,2.38206,6.22941,0.337264,-0.000610847,0.454012,0
2024-11-29 18:04:07.275,1.1013,2.3988,6.18874,0.339707,0.0,0.436909,0
2024-11-29 18:04:07.277,1.14915,2.41077,6.1337,0.343983,0.00366508,0.422859,0
2024-11-29 18:04:07.280,1.19222,2.42513,6.07149,0.344594,0.00855186,0.405144,0
2024-11-29 18:04:07.283,1.21376,2.44188,6.02363,0.340929,0.0244339,0.367883,0
2024-11-29 18:04:07.285,1.23769,2.45863,5.97578,0.340929,0.0244339,0.367883,0
2024-11-29 18:04:07.287,1.24965,2.46102,5.90399,0.339097,0.0335966,0.348946,0
2024-11-29 18:04:07.289,1.24247,2.4682,5.84866,0.332377,0.0452027,0.330621,0
2024-11-29 18:04:07.292,1.24008,2.47059,5.79123,0.323215,0.0555871,0.311685,0
2024-11-29 18:04:07.295,1.22333,2.4682,5.71944,0.303667,0.0733017,0.270758,0
2024-11-29 18:04:07.297,1.22333,2.45145,5.65484,0.289618,0.0812427,0.2506,0
2024-11-29 18:04:07.300,1.22333,2.41795,5.59023,0.272514,0.0849078,0.231053,0
2024-11-29 18:04:07.302,1.20897,2.39641,5.54238,0.250524,0.0849078,0.211506,0
2024-11-29 18:04:07.303,1.18505,2.38206,5.51845,0.250524,0.0849078,0.211506,0
2024-11-29 18:04:07.307,1.12283,2.37248,5.50648,0.210819,0.0818535,0.174244,0
2024-11-29 18:04:07.309,1.0343,2.3677,5.50648,0.210819,0.0818535,0.174244,0
2024-11-29 18:04:07.311,0.94337,2.37009,5.53041,0.166838,0.0769668,0.141258,0
2024-11-29 18:04:07.314,0.852443,2.37966,5.56152,0.146069,0.0763559,0.127209,0
2024-11-29 18:04:07.316,0.773181,2.38684,5.61655,0.146069,0.0763559,0.127209,0
2024-11-29 18:04:07.317,0.703789,2.38923,5.67877,0.124078,0.0769668,0.111938,0
2024-11-29 18:04:07.320,0.627219,2.38684,5.74816,0.105753,0.0812427,0.101553,0
2024-11-29 18:04:07.322,0.553041,2.39402,5.83669,0.0898709,0.0824644,0.0862822,0
2024-11-29 18:04:07.325,0.476471,2.38445,5.92313,0.0752106,0.0873512,0.0777303,0
2024-11-29 18:04:07.328,0.41665,2.35573,6.02363,0.0617719,0.0910162,0.0704001,0
2024-11-29 18:04:07.329,0.366401,2.32223,6.13609,0.0513875,0.0952922,0.0612374,0
2024-11-29 18:04:07.332,0.308973,2.29113,6.24377,0.0403923,0.0995681,0.0520747,0
2024-11-29 18:04:07.335,0.248854,2.27677,6.34188,0.0312296,0.104455,0.0435229,0
2024-11-29 18:04:07.336,0.162712,2.26241,6.42802,0.0238994,0.113618,0.0386361,0
2024-11-29 18:04:07.339,0.0885344,2.25763,6.50967,0.0177909,0.123391,0.0343602,0
2024-11-29 18:04:07.342,0.00239282,2.25284,6.59582,0.0110716,0.152101,0.0306951,0
2024-11-29 18:04:07.344,-0.0957129,2.25045,6.66999,0.0110716,0.152101,0.0306951,0
2024-11-29 18:04:07.347,-0.193819,2.25524,6.74896,0.00679568,0.182643,0.0380252,0
2024-11-29 18:04:07.349,-0.294616,2.26241,6.83271,0.00923906,0.196693,0.0453554,0
2024-11-29 18:04:07.350,-0.383151,2.27438,6.89013,0.00923906,0.196693,0.0453554,0
2024-11-29 18:04:07.354,-0.471685,2.28395,6.95474,0.0110716,0.206466,0.0532964,0
2024-11-29 18:04:07.356,-0.56022,2.27438,7.03639,0.0104608,0.215018,0.0618483,0
2024-11-29 18:04:07.357,-0.646361,2.27916,7.10339,0.0116825,0.217462,0.0734544,0
2024-11-29 18:04:07.360,-0.701396,2.28634,7.16082,0.0184018,0.216851,0.0881147,0
2024-11-29 18:04:07.363,-0.737288,2.28634,7.21107,0.021456,0.210742,0.100332,0
2024-11-29 18:04:07.364,-0.766002,2.28873,7.27568,0.0251211,0.20158,0.114381,0
2024-11-29 18:04:07.367,-0.799502,2.28395,7.34028,0.0300079,0.189974,0.129652,0
2024-11-29 18:04:07.370,-0.813859,2.27438,7.40967,0.0330621,0.170426,0.146756,0
2024-11-29 18:04:07.373,-0.811466,2.27677,7.48864,0.0391706,0.113007,0.171801,0
2024-11-29 18:04:07.375,-0.804287,2.29113,7.56282,0.0391706,0.113007,0.171801,0
2024-11-29 18:04:07.376,-0.775574,2.31266,7.64686,0.0410031,0.0769668,0.183407,0
2024-11-29 18:04:07.380,-0.744467,2.31745,7.74975,0.0410031,-0.0152712,0.204176,0
2024-11-29 18:04:07.382,-0.71336,2.30548,7.87897,0.0410031,-0.0152712,0.204176,0
2024-11-29 18:04:07.384,-0.658325,2.31745,8.01775,0.0410031,-0.0647498,0.210895,0
2024-11-29 18:04:07.386,-0.593719,2.32463,8.15923,0.0410031,-0.118504,0.218836,0
2024-11-29 18:04:07.389,-0.524327,2.31984,8.29562,0.0385597,-0.171648,0.22189,0
2024-11-29 18:04:07.394,-0.385544,2.3007,8.61386,0.0312296,-0.276103,0.223112,0
2024-11-29 18:04:07.394,-0.385544,2.3007,8.61386,0.0312296,-0.276103,0.223112,0
2024-11-29 18:04:07.395,-0.301795,2.30788,8.81516,0.0275645,-0.32436,0.220058,0
2024-11-29 18:04:07.398,-0.227318,2.31506,9.04248,0.0263428,-0.372006,0.218225,0
2024-11-29 18:04:07.400,-0.174676,2.31266,9.2677,0.0220669,-0.419041,0.213338,0
2024-11-29 18:04:07.403,-0.102891,2.29831,9.48784,0.0208452,-0.494786,0.1999,0
2024-11-29 18:04:07.406,-0.0191426,2.28634,9.69602,0.0190126,-0.525329,0.190737,0
2024-11-29 18:04:07.407,0.0478565,2.27677,9.89013,0.0190126,-0.525329,0.190737,0
2024-11-29 18:04:07.409,0.0837488,2.26002,10.0935,0.0165692,-0.54793,0.180964,0
2024-11-29 18:04:07.413,0.11007,2.24566,10.3065,0.0171801,-0.563201,0.154697,0
2024-11-29 18:04:07.415,0.12682,2.24806,10.5389,0.0171801,-0.563201,0.154697,0
2024-11-29 18:04:07.417,0.100499,2.25045,10.7806,0.0190126,-0.541822,0.136983,0
2024-11-29 18:04:07.420,0.066999,2.24566,11.013,0.0190126,-0.541822,0.136983,0
2024-11-29 18:04:07.421,0.0167498,2.26002,11.2522,0.021456,-0.51922,0.131485,0
2024-11-29 18:04:07.423,-0.0622134,2.26959,11.482,0.0238994,-0.488067,0.12782,0
2024-11-29 18:04:07.427,-0.148355,2.27438,11.688,0.0397814,-0.391553,0.130874,0
2024-11-29 18:04:07.429,-0.236889,2.28156,11.8675,0.0483333,-0.332912,0.138204,0
2024-11-29 18:04:07.431,-0.330509,2.27199,12.0326,0.0483333,-0.332912,0.138204,0
2024-11-29 18:04:07.434,-0.402293,2.26241,12.186,0.0672696,-0.200358,0.157751,0
2024-11-29 18:04:07.436,-0.464507,2.23609,12.3057,0.0672696,-0.200358,0.157751,0
2024-11-29 18:04:07.439,-0.536291,2.20499,12.4014,0.0758214,-0.133776,0.172412,0
2024-11-29 18:04:07.440,-0.610469,2.17627,12.4756,0.0843733,-0.0702474,0.187683,0
2024-11-29 18:04:07.442,-0.675075,2.15474,12.5115,0.0892601,-0.0140495,0.206008,0
2024-11-29 18:04:07.446,-0.734896,2.12363,12.5258,0.0953685,0.0714691,0.241437,0
2024-11-29 18:04:07.448,-0.797109,2.09492,12.5402,0.093536,0.101401,0.262817,0
2024-11-29 18:04:07.450,-0.859622,2.06381,12.5545,0.093536,0.101401,0.262817,0
2024-11-29 18:04:07.452,-0.9003,2.02074,12.5761,0.0886492,0.117894,0.284197,0
2024-11-29 18:04:07.454,-0.9003,1.9992,12.588,0.0819299,0.124613,0.306798,0
2024-11-29 18:04:07.456,-0.862014,1.98245,12.5976,0.0691021,0.121559,0.326345,0
2024-11-29 18:04:07.459,-0.80668,1.95823,12.641,0.0544418,0.104455,0.346503,0
2024-11-29 18:04:07.462,-0.722932,1.9343,12.6864,0.0361163,0.0812427,0.364218,0
2024-11-29 18:04:07.464,-0.608076,1.90798,12.7367,0.0190126,0.0476461,0.381321,0
2024-11-29 18:04:07.466,-0.486042,1.86969,12.8133,-0.00603212,0.00610847,0.393538,0
2024-11-29 18:04:07.469,-0.352044,1.82662,12.9138,-0.0341311,-0.0415376,0.403923,0
2024-11-29 18:04:07.471,-0.193819,1.79073,13.0597,-0.0628409,-0.0934596,0.414307,0
2024-11-29 18:04:07.474,-0.040678,1.78355,13.2515,-0.0897182,-0.150268,0.422248,0
2024-11-29 18:04:07.476,0.100499,1.79073,13.4812,-0.147138,-0.260221,0.425913,0
2024-11-29 18:04:07.479,0.251246,1.80748,13.7566,-0.147138,-0.260221,0.425913,0
2024-11-29 18:04:07.480,0.402293,1.83141,14.0653,-0.170961,-0.306034,0.425302,0
2024-11-29 18:04:07.483,0.569791,1.85055,14.3575,-0.191119,-0.34574,0.422859,0
2024-11-29 18:04:07.486,0.754038,1.86491,14.6399,-0.223494,-0.397662,0.40881,0
2024-11-29 18:04:07.488,0.929013,1.8673,14.9273,-0.233267,-0.411711,0.397203,0
2024-11-29 18:04:07.493,1.22333,1.92951,15.5354,-0.2351,-0.420874,0.364218,0
2024-11-29 18:04:07.493,1.22333,1.92951,15.5354,-0.2351,-0.420874,0.364218,0
2024-11-29 18:04:07.495,1.31665,1.95344,15.8513,-0.22777,-0.417209,0.342838,0
2024-11-29 18:04:07.497,1.37408,1.97528,16.1674,-0.22777,-0.417209,0.342838,0
2024-11-29 18:04:07.500,1.41027,1.98245,16.4593,-0.197838,-0.393386,0.303744,0
2024-11-29 18:04:07.502,1.46291,1.96301,16.6941,-0.197838,-0.393386,0.303744,0
2024-11-29 18:04:07.504,1.51795,1.93908,16.9095,-0.174015,-0.372006,0.282364,0
2024-11-29 18:04:07.506,1.53709,1.90798,17.1057,-0.144084,-0.342074,0.260984,2
2024-11-29 18:04:07.509,1.51077,1.88883,17.2208,-0.110487,-0.306034,0.241437,0
2024-11-29 18:04:07.511,1.30469,1.97528,17.0148,-0.0726145,-0.254723,0.226166,0
2024-11-29 18:04:07.513,1.12044,2.05663,16.8114,-0.0408504,-0.182032,0.217003,0
2024-11-29 18:04:07.515,1.13958,2.02552,16.8664,-0.0096972,-0.12278,0.208452,0
2024-11-29 18:04:07.518,1.15872,1.93191,16.8401,0.0226777,-0.0818535,0.202343,0
2024-11-29 18:04:07.521,1.12522,1.79073,16.7348,0.0800973,-0.0226013,0.187072,0
2024-11-29 18:04:07.523,1.07976,1.60409,16.596,0.0800973,-0.0226013,0.187072,0
2024-11-29 18:04:07.525,1.03669,1.43898,16.4163,0.110029,0.0134386,0.181574,0
2024-11-29 18:04:07.528,0.996012,1.29512,16.2081,0.178444,0.116061,0.164471,0
2024-11-29 18:04:07.530,0.957727,1.17547,16.0095,0.178444,0.116061,0.164471,0
2024-11-29 18:04:07.533,0.897907,1.10608,15.8154,0.254189,0.246782,0.149199,0
2024-11-29 18:04:07.535,0.789931,1.0678,15.6024,0.292672,0.316419,0.144313,0
2024-11-29 18:04:07.536,0.608076,1.09412,15.3365,0.292672,0.316419,0.144313,0
2024-11-29 18:04:07.539,0.373579,1.19462,15.0087,0.330545,0.386055,0.146145,0
2024-11-29 18:04:07.542,0.107677,1.31186,14.6662,0.364752,0.455081,0.151643,0
2024-11-29 18:04:07.545,-0.172283,1.43659,14.3312,0.420339,0.583359,0.17852,0
2024-11-29 18:04:07.546,-0.435793,1.57777,13.9672,0.420339,0.583359,0.17852,0
2024-11-29 18:04:07.549,-0.675075,1.72373,13.5912,0.442941,0.635281,0.196235,0
2024-11-29 18:04:07.552,-0.873978,1.84098,13.2084,0.474094,0.717135,0.246935,0
2024-11-29 18:04:07.554,-1.02233,1.92473,12.8133,0.474094,0.717135,0.246935,0
2024-11-29 18:04:07.559,-1.18983,2.03031,11.9608,0.480202,0.757451,0.295803,0
2024-11-29 18:04:07.559,-1.18983,2.03031,11.9608,0.480202,0.757451,0.295803,0
2024-11-29 18:04:07.562,-1.2018,2.09013,11.1685,0.453325,0.737903,0.331843,0
2024-11-29 18:04:07.563,-1.2018,2.09013,11.1685,0.453325,0.737903,0.331843,0
2024-11-29 18:04:07.565,-1.18026,2.12124,10.85,0.428891,0.703696,0.345892,0
2024-11-29 18:04:07.567,-1.13958,2.16431,10.5509,0.402625,0.651163,0.356277,0
2024-11-29 18:04:07.573,-1.01515,2.25045,10.0744,0.28412,0.404992,0.356277,0
2024-11-29 18:04:07.573,-1.01515,2.25045,10.0744,0.28412,0.404992,0.356277,0
2024-11-29 18:04:07.574,-0.919442,2.31506,9.90449,0.28412,0.404992,0.356277,0
2024-11-29 18:04:07.576,-0.801895,2.38206,9.79173,0.240139,0.301148,0.346503,0
2024-11-29 18:04:07.580,-0.672682,2.46102,9.75105,0.190661,0.188141,0.334286,0
2024-11-29 18:04:07.582,-0.438186,2.45623,9.94517,0.13996,0.0616956,0.316572,0
2024-11-29 18:04:07.585,0.0239282,2.32223,10.6011,0.0758214,-0.279768,0.237772,0
2024-11-29 18:04:07.587,0.397508,2.22174,11.1183,0.0636045,-0.405603,0.188294,0
2024-11-29 18:04:07.588,0.373579,2.33181,10.9603,0.0636045,-0.405603,0.188294,0
2024-11-29 18:04:07.592,0.349651,2.56182,10.7638,0.0422248,-0.485013,0.100943,0
2024-11-29 18:04:07.594,0.550648,2.73888,10.9795,0.0422248,-0.485013,0.100943,0
2024-11-29 18:04:07.595,0.739681,2.82742,11.3025,0.0355055,-0.51922,0.0600157,0
2024-11-29 18:04:07.599,0.785145,2.85613,11.5517,0.0226777,-0.623675,-0.016951,0
2024-11-29 18:04:07.600,0.751645,2.8322,11.6904,0.0226777,-0.623675,-0.016951,0
2024-11-29 18:04:07.602,0.775574,2.75803,11.7096,0.0141258,-0.679262,-0.0548235,0
2024-11-29 18:04:07.605,0.854836,2.65274,11.6545,0.00313059,-0.72813,-0.0920852,0
2024-11-29 18:04:07.607,0.988834,2.52323,11.6521,-0.00786466,-0.761116,-0.132401,0
2024-11-29 18:04:07.610,1.15394,2.40359,11.7526,-0.0200816,-0.776998,-0.173939,0
2024-11-29 18:04:07.613,1.31904,2.30788,11.8723,-0.0274118,-0.759283,-0.265566,0
2024-11-29 18:04:07.614,1.44616,2.22413,11.956,-0.0274118,-0.759283,-0.265566,0
2024-11-29 18:04:07.618,1.51555,2.12602,11.9895,-0.0194708,-0.678651,-0.355971,0
2024-11-29 18:04:07.620,1.54427,2.02074,11.9776,-0.0194708,-0.678651,-0.355971,0
2024-11-29 18:04:07.621,1.52752,1.94148,11.9154,-0.0139731,-0.61268,-0.39812,0
2024-11-29 18:04:07.625,1.44855,1.86251,11.822,0.00435229,-0.451416,-0.4702,0
2024-11-29 18:04:07.627,1.32144,1.78355,11.7359,0.0165692,-0.365287,-0.496466,0
2024-11-29 18:04:07.628,1.15633,1.71416,11.6354,0.0165692,-0.365287,-0.496466,0
2024-11-29 18:04:07.632,0.969691,1.65912,11.511,0.0281753,-0.279157,-0.518457,0
2024-11-29 18:04:07.635,0.54347,1.59691,11.1206,0.0513875,-0.0977356,-0.541058,0
2024-11-29 18:04:07.636,0.54347,1.59691,11.1206,0.0513875,-0.0977356,-0.541058,0
2024-11-29 18:04:07.639,0.32333,1.59212,10.8763,0.0739889,0.0922379,-0.536782,0
2024-11-29 18:04:07.641,0.105284,1.58495,10.625,0.0739889,0.0922379,-0.536782,0
2024-11-29 18:04:07.643,-0.131605,1.57777,10.3881,0.081319,0.186308,-0.527008,0
2024-11-29 18:04:07.645,-0.375972,1.5993,10.1533,0.0892601,0.279768,-0.514181,0
2024-11-29 18:04:07.648,-0.586541,1.62323,9.89971,0.0929251,0.369563,-0.495244,0
2024-11-29 18:04:07.650,-0.770788,1.6328,9.61466,0.0972011,0.453249,-0.473865,0
2024-11-29 18:04:07.652,-0.938585,1.63759,9.31795,0.0972011,0.532659,-0.453707,0
2024-11-29 18:04:07.655,-1.07498,1.65673,9.03291,0.0953685,0.601685,-0.429273,0
2024-11-29 18:04:07.658,-1.18744,1.69262,8.75294,0.0898709,0.71408,-0.38407,0
2024-11-29 18:04:07.659,-1.27358,1.72852,8.50858,0.0898709,0.71408,-0.38407,0
2024-11-29 18:04:07.662,-1.35254,1.7668,8.29083,0.0837624,0.756229,-0.363301,0
2024-11-29 18:04:07.664,-1.42941,1.78594,8.05843,0.077654,0.789825,-0.341922,0
2024-11-29 18:04:07.667,-1.48445,1.80509,7.81197,0.0697129,0.817314,-0.321153,0
2024-11-29 18:04:07.671,-1.5323,1.88644,7.2996,0.0501658,0.85824,-0.284502,0
2024-11-29 18:04:07.672,-1.5323,1.88644,7.2996,0.0348946,0.866792,-0.269231,0
2024-11-29 18:04:07.674,-1.55384,1.92951,7.05554,0.0348946,0.866792,-0.269231,0
2024-11-29 18:04:07.676,-1.57059,1.97528,6.81835,0.0190126,0.87229,-0.252738,0
2024-11-29 18:04:07.678,-1.58255,2.01117,6.62453,0.000687203,0.866181,-0.236245,0
2024-11-29 18:04:07.680,-1.58016,2.03031,6.45464,-0.0200816,0.853354,-0.225861,0
2024-11-29 18:04:07.683,-1.56341,2.06381,6.28445,-0.0408504,0.833196,-0.213644,0
2024-11-29 18:04:07.686,-1.5323,2.0997,6.11934,-0.0921616,0.772111,-0.195929,0
2024-11-29 18:04:07.688,-1.49641,2.15713,5.97099,-0.0921616,0.772111,-0.195929,0
2024-11-29 18:04:07.691,-1.4677,2.21216,5.85584,-0.11965,0.734238,-0.187988,0
2024-11-29 18:04:07.692,-1.42223,2.24327,5.78884,-0.147749,0.693312,-0.181269,0
2024-11-29 18:04:07.694,-1.37169,2.29352,5.74816,-0.175848,0.650552,-0.175771,0
2024-11-29 18:04:07.698,-1.32144,2.33898,5.7338,-0.226548,0.557093,-0.169663,0
2024-11-29 18:04:07.699,-1.2664,2.38445,5.76012,-0.226548,0.557093,-0.169663,0
2024-11-29 18:04:07.702,-1.20658,2.41795,5.81516,-0.248538,0.507614,-0.16783,0
2024-11-29 18:04:07.704,-1.1324,2.44188,5.89681,-0.263199,0.456914,-0.167219,0
2024-11-29 18:04:07.706,-1.05344,2.48016,6.00688,-0.279692,0.404381,-0.168441,0
2024-11-29 18:04:07.709,-0.962513,2.50648,6.12892,-0.289465,0.356735,-0.172717,0
2024-11-29 18:04:07.712,-0.862014,2.51845,6.26291,-0.301071,0.262053,-0.183101,0
2024-11-29 18:04:07.714,-0.770788,2.52592,6.39452,-0.296795,0.224181,-0.189821,0
2024-11-29 18:04:07.716,-0.696611,2.51605,6.53121,-0.296795,0.224181,-0.189821,0
2024-11-29 18:04:07.718,-0.624826,2.4993,6.68196,-0.290076,0.189363,-0.199594,0
2024-11-29 18:04:07.720,-0.56022,2.5017,6.81356,-0.281524,0.156988,-0.206925,0
2024-11-29 18:04:07.723,-0.500399,2.49212,6.92842,-0.266253,0.130721,-0.215476,0
2024-11-29 18:04:07.726,-0.471685,2.47298,7.03161,-0.24976,0.107509,-0.22525,0
2024-11-29 18:04:07.727,-0.469292,2.46341,7.11057,-0.228381,0.0885729,-0.23258,0
2024-11-29 18:04:07.730,-0.45015,2.44666,7.17518,-0.207001,0.0739125,-0.240521,0
2024-11-29 18:04:07.733,-0.438186,2.41555,7.22543,-0.1844,0.059863,-0.246019,0
2024-11-29 18:04:07.735,-0.447757,2.39402,7.27807,-0.162409,0.0470352,-0.248462,0
2024-11-29 18:04:07.737,-0.45015,2.38923,7.33789,-0.13431,0.03604,-0.252127,0
2024-11-29 18:04:07.739,-0.442971,2.37248,7.37617,-0.110487,0.0262664,-0.253349,0
2024-11-29 18:04:07.742,-0.442971,2.34138,7.38814,-0.0848314,0.0189363,-0.252738,0
2024-11-29 18:04:07.745,-0.452543,2.3007,7.39292,-0.0280226,0.0109953,-0.24724,0
2024-11-29 18:04:07.746,-0.45015,2.25763,7.39053,-0.0280226,0.0109953,-0.24724,0
2024-11-29 18:04:07.749,-0.438186,2.22174,7.36421,-0.000534491,0.00733017,-0.246019,0
2024-11-29 18:04:07.752,-0.435793,2.19063,7.34268,0.0489441,0.00549763,-0.237467,0
2024-11-29 18:04:07.754,-0.442971,2.14995,7.32593,0.0489441,0.00549763,-0.237467,0
2024-11-29 18:04:07.757,-0.45015,2.11406,7.28525,0.100255,0.00671932,-0.224028,0
2024-11-29 18:04:07.758,-0.464507,2.09252,7.25653,0.100255,0.00671932,-0.224028,0
2024-11-29 18:04:07.761,-0.483649,2.06381,7.22064,0.119192,0.00916271,-0.215476,0
2024-11-29 18:04:07.763,-0.502792,2.0327,7.16561,0.141182,0.0122169,-0.20387,0
2024-11-29 18:04:07.767,-0.512363,1.98245,7.07946,0.182109,0.0183254,-0.183101,0
2024-11-29 18:04:07.767,-0.512363,1.98245,7.07946,0.182109,0.0183254,-0.183101,0
2024-11-29 18:04:07.770,-0.502792,1.97767,7.02922,0.199823,0.0262664,-0.168441,0
2024-11-29 18:04:07.772,-0.495613,1.96301,6.99063,0.218149,0.0348183,-0.154392,0
2024-11-29 18:04:07.775,-0.476471,1.9343,6.93799,0.234642,0.0415376,-0.140342,0
2024-11-29 18:04:07.777,-0.445364,1.90319,6.89013,0.248691,0.0482569,-0.125682,0
2024-11-29 18:04:07.779,-0.407079,1.87208,6.86381,0.264573,0.0531437,-0.112243,0
2024-11-29 18:04:07.782,-0.364008,1.87208,6.81356,0.278012,0.0574196,-0.100026,0
2024-11-29 18:04:07.784,-0.32333,1.88166,6.7681,0.290229,0.0635281,-0.0871984,0
2024-11-29 18:04:07.787,-0.289831,1.87926,6.73221,0.302446,0.0696366,-0.076814,0
2024-11-29 18:04:07.789,-0.267996,1.87448,6.68196,0.316495,0.0745234,-0.0676513,0
2024-11-29 18:04:07.791,-0.239282,1.87448,6.63889,0.326269,0.0757451,-0.0584886,0
2024-11-29 18:04:07.794,-0.212961,1.89601,6.60778,0.33421,0.0757451,-0.052991,0
2024-11-29 18:04:07.796,-0.191426,1.92233,6.57428,0.346427,0.0745234,-0.0499368,0
2024-11-29 18:04:07.798,-0.165105,1.95344,6.5336,0.354979,0.0690257,-0.0432174,0
2024-11-29 18:04:07.800,-0.141177,1.98245,6.49292,0.36353,0.0635281,-0.0395524,0
2024-11-29 18:04:07.803,-0.112463,1.99202,6.44477,0.371471,0.0537546,-0.0407741,0
2024-11-29 18:04:07.806,-0.0789631,2.01835,6.3993,0.382467,0.0268773,-0.0419957,0
2024-11-29 18:04:07.808,-0.0478565,2.05902,6.35863,0.382467,0.0268773,-0.0419957,0
2024-11-29 18:04:07.810,-0.0143569,2.08295,6.32513,0.387354,0.0122169,-0.0462717,0
2024-11-29 18:04:07.812,0.0215354,2.09731,6.28684,0.388575,-0.00427593,-0.0517693,0
2024-11-29 18:04:07.815,0.0622134,2.11645,6.23659,0.389186,-0.0189363,-0.0584886,0
2024-11-29 18:04:07.817,0.119641,2.13799,6.20309,0.389186,-0.0317641,-0.0652079,0
2024-11-29 18:04:07.820,0.16989,2.1667,6.16481,0.381856,-0.0482569,-0.076814,0
2024-11-29 18:04:07.822,0.198604,2.2002,6.12892,0.375137,-0.0684149,-0.0896418,0
2024-11-29 18:04:07.824,0.20339,2.25763,6.12892,0.364141,-0.087962,-0.100637,0
2024-11-29 18:04:07.827,0.18664,2.32463,6.15284,0.353146,-0.10812,-0.112854,0
2024-11-29 18:04:07.830,0.165105,2.38206,6.18874,0.342762,-0.1295,-0.12446,0
2024-11-29 18:04:07.831,0.148355,2.43948,6.24856,0.328712,-0.153323,-0.136677,0
2024-11-29 18:04:07.834,0.119641,2.48734,6.33709,0.316495,-0.177757,-0.147672,0
2024-11-29 18:04:07.836,0.0885344,2.55464,6.44955,0.306111,-0.204023,-0.1605,0
2024-11-29 18:04:07.839,0.0622134,2.61924,6.59342,0.296337,-0.227846,-0.169663,0
2024-11-29 18:04:07.841,0.0502493,2.67428,6.72264,0.282899,-0.277325,-0.189821,0
2024-11-29 18:04:07.843,0.0430708,2.71735,6.83749,0.282899,-0.277325,-0.189821,0
2024-11-29 18:04:07.845,0.0430708,2.73888,6.97867,0.279844,-0.302369,-0.201427,0
2024-11-29 18:04:07.848,0.0430708,2.76042,7.11296,0.27679,-0.324971,-0.211811,0
2024-11-29 18:04:07.850,0.0454636,2.78435,7.23739,0.272514,-0.351237,-0.22525,0
2024-11-29 18:04:07.853,0.0382852,2.79392,7.36182,0.273125,-0.377504,-0.239299,0
2024-11-29 18:04:07.855,0.0311067,2.8011,7.46471,0.272514,-0.402548,-0.25396,0
2024-11-29 18:04:07.857,0.0311067,2.79871,7.53889,0.268238,-0.427593,-0.269231,0
2024-11-29 18:04:07.860,0.0167498,2.79392,7.60858,0.264573,-0.45386,-0.282059,0
2024-11-29 18:04:07.862,-0.00717847,2.80349,7.69711,0.260908,-0.477683,-0.295497,0
2024-11-29 18:04:07.864,-0.0334995,2.81785,7.78325,0.2548,-0.507003,-0.307103,0
2024-11-29 18:04:07.867,-0.0550349,2.83699,7.87418,0.243194,-0.536935,-0.318099,0
2024-11-29 18:04:07.870,-0.0861416,2.85613,7.98904,0.217538,-0.593133,-0.337035,0
2024-11-29 18:04:07.872,-0.12682,2.89203,8.11586,0.217538,-0.593133,-0.337035,0
2024-11-29 18:04:07.874,-0.155533,2.92792,8.24537,0.204099,-0.623064,-0.344365,0
2024-11-29 18:04:07.876,-0.172283,2.96381,8.38654,0.185774,-0.650552,-0.351695,0
2024-11-29 18:04:07.878,-0.16989,2.98774,8.51576,0.166838,-0.674375,-0.357193,0
2024-11-29 18:04:07.881,-0.131605,3.00449,8.65454,0.143015,-0.695144,-0.364523,0
2024-11-29 18:04:07.883,-0.0765703,3.01406,8.81277,0.122246,-0.717746,-0.371853,0
2024-11-29 18:04:07.886,-0.00717847,3.01167,8.96591,0.0996445,-0.734238,-0.379794,0
2024-11-29 18:04:07.888,0.0717847,3.00688,9.12623,0.0727672,-0.751342,-0.387735,0
2024-11-29 18:04:07.890,0.138784,3.02842,9.29881,0.0452791,-0.764781,-0.39812,0
2024-11-29 18:04:07.892,0.200997,3.05952,9.49741,0.0196235,-0.776998,-0.408504,0
2024-11-29 18:04:07.894,0.253639,3.08345,9.71516,-0.00847551,-0.78616,-0.420721,0
2024-11-29 18:04:07.898,0.308973,3.11725,9.95713,-0.0597867,-0.783106,-0.446377,0
2024-11-29 18:04:07.900,0.366401,3.14836,10.1868,-0.0597867,-0.783106,-0.446377,0
2024-11-29 18:04:07.902,0.4334,3.18664,10.4145,-0.0811663,-0.772722,-0.460426,0
2024-11-29 18:04:07.905,0.50997,3.22014,10.6537,-0.126369,-0.728741,-0.489136,0
2024-11-29 18:04:07.907,0.565005,3.25603,10.8811,-0.126369,-0.728741,-0.489136,0
2024-11-29 18:04:07.909,0.60329,3.29671,11.1254,-0.143473,-0.695755,-0.50624,0
2024-11-29 18:04:07.912,0.624826,3.34457,11.3671,-0.172793,-0.618177,-0.534339,0
2024-11-29 18:04:07.914,0.605683,3.3996,11.5995,-0.172793,-0.618177,-0.534339,0
2024-11-29 18:04:07.916,0.572184,3.45464,11.8412,-0.1844,-0.577861,-0.547166,0
2024-11-29 18:04:07.918,0.54347,3.50728,12.0637,-0.190508,-0.535102,-0.563659,0
2024-11-29 18:04:07.921,0.505185,3.5671,12.2746,-0.195395,-0.493565,-0.577098,0
2024-11-29 18:04:07.923,0.459721,3.61974,12.4756,-0.198449,-0.450805,-0.590537,0
2024-11-29 18:04:07.925,0.421436,3.65115,12.6553,-0.200892,-0.411711,-0.603975,0
2024-11-29 18:04:07.928,0.378365,3.66311,12.8228,-0.198449,-0.374449,-0.621079,0
2024-11-29 18:04:07.931,0.325723,3.67508,12.9592,-0.196616,-0.341464,-0.638794,0
2024-11-29 18:04:07.933,0.275175,3.67268,13.0645,-0.188065,-0.284655,-0.670558,0
2024-11-29 18:04:07.936,0.208176,3.64876,13.1722,-0.182567,-0.263275,-0.685218,0
2024-11-29 18:04:07.938,0.124427,3.61735,13.2826,-0.174626,-0.243728,-0.7011,0
2024-11-29 18:04:07.940,0.0334995,3.57428,13.3567,-0.174626,-0.243728,-0.7011,0
2024-11-29 18:04:07.943,-0.0693919,3.53599,13.4118,-0.165463,-0.218072,-0.724923,0
2024-11-29 18:04:07.944,-0.177069,3.50489,13.4692,-0.165463,-0.218072,-0.724923,0
2024-11-29 18:04:07.947,-0.297009,3.47139,13.5123,-0.159355,-0.206466,-0.733475,0
2024-11-29 18:04:07.949,-0.419043,3.43789,13.541,-0.153857,-0.197915,-0.740805,0
2024-11-29 18:04:07.951,-0.538684,3.39482,13.5625,-0.151414,-0.189974,-0.741416,0
2024-11-29 18:04:07.954,-0.65354,3.33739,13.596,-0.143473,-0.178367,-0.739583,0
2024-11-29 18:04:07.956,-0.761217,3.28475,13.6271,-0.14164,-0.167372,-0.737751,0
2024-11-29 18:04:07.958,-0.869193,3.2345,13.6534,-0.137975,-0.161875,-0.728588,0
2024-11-29 18:04:07.960,-0.964906,3.16271,13.6822,-0.133699,-0.156988,-0.716982,0
2024-11-29 18:04:07.963,-1.02951,3.08106,13.6989,-0.133699,-0.152712,-0.705376,0
2024-11-29 18:04:07.965,-1.07019,3.0021,13.6965,-0.131256,-0.149658,-0.691326,0
2024-11-29 18:04:07.969,-1.1013,2.92552,13.6822,-0.134921,-0.145992,-0.657119,0
2024-11-29 18:04:07.971,-1.11326,2.84417,13.6702,-0.134921,-0.145992,-0.657119,0
2024-11-29 18:04:07.972,-1.10608,2.7676,13.6822,-0.139808,-0.145992,-0.641237,0
2024-11-29 18:04:07.976,-1.11087,2.71017,13.7013,-0.145916,-0.144771,-0.60031,0
2024-11-29 18:04:07.977,-1.11087,2.64317,13.7252,-0.145916,-0.144771,-0.60031,0
2024-11-29 18:04:07.980,-1.08694,2.57378,13.7566,-0.14897,-0.142327,-0.581985,0
2024-11-29 18:04:07.983,-1.0678,2.51127,13.7854,-0.153857,-0.138662,-0.561216,0
2024-11-29 18:04:07.984,-1.04387,2.45384,13.8093,-0.156911,-0.134997,-0.539836,0
2024-11-29 18:04:07.987,-1.01515,2.40838,13.8595,-0.159355,-0.127667,-0.519067,0
2024-11-29 18:04:07.990,-0.97687,2.35095,13.9146,-0.153857,-0.102011,-0.478141,0
2024-11-29 18:04:07.991,-0.948156,2.3007,13.9528,-0.153857,-0.102011,-0.478141,0
2024-11-29 18:04:07.994,-0.945763,2.28634,13.9792,-0.14897,-0.0818535,-0.457983,2
2024-11-29 18:04:07.997,-0.986441,2.32463,13.6247,-0.142251,-0.0384834,-0.435381,0
2024-11-29 18:04:07.998,-0.974477,2.3677,13.2897,-0.144084,0.0342074,-0.411558,0
2024-11-29 18:04:08.000,-0.912264,2.34138,13.3328,-0.145305,0.0989573,-0.389568,0
2024-11-29 18:04:08.003,-0.948156,2.30548,13.3376,-0.149581,0.142327,-0.367577,0
2024-11-29 18:04:08.006,-1.07019,2.28156,13.2945,-0.155079,0.167983,-0.344976,0
2024-11-29 18:04:08.009,-1.21615,2.25763,13.2156,-0.158744,0.178978,-0.324207,0
2024-11-29 18:04:08.010,-1.33819,2.24327,13.1243,-0.161798,0.186919,-0.302217,0
2024-11-29 18:04:08.013,-1.42702,2.23131,13.0813,-0.166074,0.19486,-0.279615,0
2024-11-29 18:04:08.016,-1.4677,2.23849,13.0669,-0.162409,0.205856,-0.255792,0
2024-11-29 18:04:08.017,-1.46291,2.25284,13.0693,-0.158133,0.214407,-0.236245,0
2024-11-29 18:04:08.020,-1.42702,2.24806,13.0478,-0.145916,0.219294,-0.215476,0
2024-11-29 18:04:08.022,-1.39801,2.22652,12.9712,-0.135532,0.221127,-0.198373,0
2024-11-29 18:04:08.024,-1.38844,2.19302,12.8731,-0.123926,0.219905,-0.180658,0
2024-11-29 18:04:08.027,-1.39322,2.16909,12.7223,-0.118428,0.209521,-0.161111,0
2024-11-29 18:04:08.030,-1.41266,2.13559,12.5545,-0.114152,0.191806,-0.142175,0
2024-11-29 18:04:08.031,-1.42702,2.09013,12.4229,-0.115374,0.164318,-0.123238,0
2024-11-29 18:04:08.034,-1.42941,2.07338,12.3129,-0.121482,0.12278,-0.104913,0
2024-11-29 18:04:08.036,-1.41984,2.05424,12.2267,-0.131867,0.0714691,-0.0835334,0
2024-11-29 18:04:08.038,-1.38844,2.04227,12.1765,-0.143473,0.0103844,-0.0615429,0
2024-11-29 18:04:08.041,-1.35733,2.04706,12.1549,-0.157522,-0.0507003,-0.0419957,0
2024-11-29 18:04:08.043,-1.31904,2.06142,12.1789,-0.172183,-0.114228,-0.0151185,0
2024-11-29 18:04:08.046,-1.24726,2.09013,12.2148,-0.187454,-0.172259,0.0105371,0
2024-11-29 18:04:08.049,-1.1683,2.12124,12.2578,-0.198449,-0.224792,0.0380252,0
2024-11-29 18:04:08.051,-1.07258,2.15952,12.3368,-0.217996,-0.319473,0.0875039,0
2024-11-29 18:04:08.053,-0.955334,2.19781,12.3799,-0.217996,-0.319473,0.0875039,0
2024-11-29 18:04:08.055,-0.837787,2.22891,12.399,-0.227159,-0.363454,0.108884,0
2024-11-29 18:04:08.057,-0.722932,2.24566,12.4804,-0.237543,-0.409268,0.12782,0
2024-11-29 18:04:08.060,-0.591326,2.24566,12.5952,-0.246095,-0.456303,0.143091,0
2024-11-29 18:04:08.062,-0.447757,2.25524,12.708,-0.253425,-0.499062,0.15653,0
2024-11-29 18:04:08.064,-0.308973,2.26959,12.8037,-0.25709,-0.535102,0.165081,0
2024-11-29 18:04:08.067,-0.165105,2.26959,12.897,-0.258923,-0.563201,0.173022,0
2024-11-29 18:04:08.069,-0.026321,2.27199,12.964,-0.259534,-0.585192,0.177298,0
2024-11-29 18:04:08.071,0.0765703,2.28634,12.9975,-0.255869,-0.597409,0.176077,0
2024-11-29 18:04:08.075,0.143569,2.29113,13.0095,-0.245484,-0.594354,0.168747,0
2024-11-29 18:04:08.076,0.191426,2.27677,13.0023,-0.245484,-0.594354,0.168747,0
2024-11-29 18:04:08.078,0.222533,2.25763,12.9999,-0.238765,-0.585802,0.162638,0
2024-11-29 18:04:08.081,0.260818,2.24806,12.9855,-0.231435,-0.577251,0.15653,0
2024-11-29 18:04:08.084,0.275175,2.23609,12.9521,-0.223494,-0.56992,0.150421,0
2024-11-29 18:04:08.086,0.263211,2.21695,12.9018,-0.215553,-0.566866,0.148589,0
2024-11-29 18:04:08.088,0.256032,2.20738,12.8563,-0.210666,-0.561979,0.144924,0
2024-11-29 18:04:08.091,0.248854,2.21695,12.7989,-0.194784,-0.549763,0.149199,0
2024-11-29 18:04:08.093,0.234497,2.22891,12.7176,-0.194784,-0.549763,0.149199,0
2024-11-29 18:04:08.095,0.232104,2.22174,12.629,-0.189897,-0.538767,0.151643,0
2024-11-29 18:04:08.098,0.229711,2.21216,12.5234,-0.183789,-0.525329,0.157751,0
2024-11-29 18:04:08.100,0.227318,2.20738,12.4205,-0.178902,-0.503949,0.164471,0
2024-11-29 18:04:08.102,0.232104,2.19781,12.3248,-0.172793,-0.480737,0.173633,0
2024-11-29 18:04:08.105,0.227318,2.2002,12.2243,-0.164852,-0.455081,0.182796,0
2024-11-29 18:04:08.107,0.227318,2.22174,12.1382,-0.159355,-0.426982,0.19318,0
2024-11-29 18:04:08.109,0.20339,2.23131,12.0613,-0.157522,-0.398883,0.206008,0
2024-11-29 18:04:08.112,0.157926,2.23131,11.98,-0.151414,-0.370173,0.220058,0
2024-11-29 18:04:08.115,0.131605,2.25045,11.9106,-0.13431,-0.3097,0.251822,0
2024-11-29 18:04:08.116,0.114855,2.27916,11.8412,-0.13431,-0.3097,0.251822,0
2024-11-29 18:04:08.118,0.100499,2.29591,11.7742,-0.125758,-0.277936,0.268315,0
2024-11-29 18:04:08.122,0.11007,2.30548,11.7024,-0.103157,-0.210131,0.299468,0
2024-11-29 18:04:08.123,0.12682,2.30309,11.6043,-0.103157,-0.210131,0.299468,0
2024-11-29 18:04:08.126,0.141177,2.30309,11.4963,-0.0884965,-0.174702,0.31535,0
2024-11-29 18:04:08.129,0.162712,2.28395,11.3982,-0.0548999,-0.102622,0.34406,0
2024-11-29 18:04:08.130,0.184247,2.23849,11.2881,-0.0548999,-0.102622,0.34406,0
2024-11-29 18:04:08.133,0.208176,2.20259,11.1565,-0.0365745,-0.0684149,0.357498,0
2024-11-29 18:04:08.135,0.232104,2.19781,11.0369,-0.0176382,-0.0354291,0.370937,0
2024-11-29 18:04:08.137,0.239282,2.19541,10.9002,7.63559e-05,-0.00366508,0.384376,0
2024-11-29 18:04:08.140,0.248854,2.18345,10.7495,0.0196235,0.0268773,0.395982,0
2024-11-29 18:04:08.142,0.246461,2.17149,10.6107,0.0385597,0.0555871,0.408199,0
2024-11-29 18:04:08.145,0.234497,2.14995,10.4599,0.0593285,0.080021,0.417361,0
2024-11-29 18:04:08.148,0.222533,2.14038,10.3065,0.077654,0.100179,0.428967,0
2024-11-29 18:04:08.149,0.205783,2.15234,10.1533,0.0959794,0.120337,0.440574,0
2024-11-29 18:04:08.151,0.177069,2.17149,9.99542,0.113694,0.138662,0.453401,0
2024-11-29 18:04:08.154,0.136391,2.18584,9.83031,0.132019,0.155155,0.465618,0
2024-11-29 18:04:08.156,0.112463,2.19781,9.67209,0.149123,0.170426,0.478446,0
2024-11-29 18:04:08.159,0.081356,2.22652,9.5357,0.183331,0.196693,0.507767,0
2024-11-29 18:04:08.161,0.0358923,2.26241,9.40648,0.183331,0.196693,0.507767,0
2024-11-29 18:04:08.164,0.00717847,2.29591,9.27488,0.202878,0.207077,0.521205,0
2024-11-29 18:04:08.166,0.00239282,2.32702,9.12144,0.217538,0.215629,0.537087,0
2024-11-29 18:04:08.168,0.0,2.35573,8.99701,0.234031,0.224792,0.550526,0
2024-11-29 18:04:08.171,-0.00478565,2.37966,8.88216,0.251745,0.232122,0.565186,0
2024-11-29 18:04:08.173,-0.00239282,2.40838,8.75773,0.268849,0.239452,0.578625,0
2024-11-29 18:04:08.175,0.0215354,2.42273,8.66411,0.290229,0.247393,0.593285,0
2024-11-29 18:04:08.178,0.0526421,2.4347,8.55404,0.307333,0.254723,0.604891,0
2024-11-29 18:04:08.181,0.0885344,2.45384,8.44158,0.348259,0.267551,0.622606,0
2024-11-29 18:04:08.183,0.129212,2.46341,8.33151,0.348259,0.267551,0.622606,0
2024-11-29 18:04:08.184,0.16989,2.45863,8.21187,0.368417,0.274881,0.629325,0
2024-11-29 18:04:08.188,0.212961,2.45623,8.09911,0.409955,0.293818,0.637877,0
2024-11-29 18:04:08.189,0.272782,2.45863,7.96989,0.409955,0.293818,0.637877,0
2024-11-29 18:04:08.192,0.330509,2.45863,7.85982,0.428891,0.301148,0.640321,0
2024-11-29 18:04:08.194,0.375972,2.45384,7.75693,0.450882,0.308478,0.638488,0
2024-11-29 18:04:08.196,0.426222,2.45863,7.62772,0.47165,0.318862,0.634823,0
2024-11-29 18:04:08.199,0.483649,2.47777,7.49582,0.491808,0.328636,0.631158,0
2024-11-29 18:04:08.201,0.536291,2.48495,7.38335,0.510134,0.338409,0.62566,0
2024-11-29 18:04:08.204,0.581755,2.48255,7.26611,0.529681,0.347572,0.617108,0
2024-11-29 18:04:08.206,0.63679,2.47537,7.13929,0.549228,0.358567,0.607335,0
2024-11-29 18:04:08.209,0.677468,2.4658,7.01217,0.566332,0.371395,0.59634,0
2024-11-29 18:04:08.211,0.710967,2.48734,6.87338,0.582214,0.381169,0.584123,0
2024-11-29 18:04:08.214,0.749253,2.49452,6.72024,0.609091,0.400105,0.559078,0
2024-11-29 18:04:08.215,0.777966,2.48734,6.56949,0.609091,0.400105,0.559078,0
2024-11-29 18:04:08.217,0.813859,2.5017,6.42084,0.620086,0.413544,0.543196,0
2024-11-29 18:04:08.221,0.835394,2.51127,6.26052,0.637801,0.437977,0.511432,0
2024-11-29 18:04:08.222,0.852443,2.52084,6.09542,0.637801,0.437977,0.511432,0
2024-11-29 18:04:08.225,0.859622,2.53549,5.95663,0.645742,0.450194,0.494328,0
2024-11-29 18:04:08.228,0.854836,2.53789,5.81755,0.652461,0.469131,0.463175,0
2024-11-29 18:04:08.229,0.859622,2.53071,5.67637,0.652461,0.469131,0.463175,0
2024-11-29 18:04:08.232,0.859622,2.51605,5.55913,0.654905,0.480126,0.446071,0
2024-11-29 18:04:08.234,0.857229,2.50887,5.43948,0.65185,0.486234,0.4308,0
2024-11-29 18:04:08.236,0.854836,2.51127,5.30519,0.648185,0.49051,0.415529,0
2024-11-29 18:04:08.239,0.85005,2.5017,5.18076,0.643909,0.496619,0.397814,0
2024-11-29 18:04:08.242,0.835394,2.49691,5.07069,0.623141,0.501506,0.36605,0
2024-11-29 18:04:08.244,0.80668,2.50409,4.95823,0.623141,0.501506,0.36605,0
2024-11-29 18:04:08.246,0.797109,2.50409,4.84577,0.611534,0.505171,0.352001,0
2024-11-29 18:04:08.248,0.770788,2.50887,4.74018,0.598707,0.506392,0.336119,0
2024-11-29 18:04:08.251,0.722932,2.51605,4.64686,0.582825,0.507614,0.319626,0
2024-11-29 18:04:08.254,0.679861,2.51605,4.57268,0.549228,0.510668,0.295192,0
2024-11-29 18:04:08.255,0.627219,2.51845,4.50329,0.549228,0.510668,0.295192,0
2024-11-29 18:04:08.258,0.567398,2.51605,4.42672,0.510134,0.508225,0.270147,0
2024-11-29 18:04:08.261,0.507577,2.51127,4.36929,0.510134,0.508225,0.270147,0
2024-11-29 18:04:08.262,0.445364,2.51366,4.33579,0.490587,0.507003,0.260984,0
2024-11-29 18:04:08.265,0.385544,2.51366,4.30469,0.469818,0.503338,0.2506,0
2024-11-29 18:04:08.268,0.32333,2.51127,4.28076,0.424004,0.488067,0.229831,0
2024-11-29 18:04:08.269,0.246461,2.51366,4.28076,0.424004,0.488067,0.229831,0
2024-11-29 18:04:08.272,0.172283,2.51605,4.29751,0.402014,0.481958,0.223723,0
2024-11-29 18:04:08.275,0.114855,2.51845,4.31187,0.355589,0.458135,0.206008,0
2024-11-29 18:04:08.277,0.0478565,2.50887,4.34058,0.355589,0.458135,0.206008,0
2024-11-29 18:04:08.279,-0.0191426,2.51605,4.39562,0.332377,0.44714,0.201732,0
2024-11-29 18:04:08.282,-0.0693919,2.51605,4.44586,0.309776,0.433702,0.196235,0
2024-11-29 18:04:08.283,-0.112463,2.5017,4.50568,0.282899,0.420263,0.191959,0
2024-11-29 18:04:08.287,-0.165105,2.49212,4.57508,0.238918,0.388499,0.181574,0
2024-11-29 18:04:08.288,-0.215354,2.48495,4.6325,0.238918,0.388499,0.181574,0
2024-11-29 18:04:08.291,-0.244068,2.48495,4.72582,0.19738,0.356735,0.176688,0
2024-11-29 18:04:08.294,-0.282652,2.47298,4.85294,0.19738,0.356735,0.176688,0
2024-11-29 18:04:08.295,-0.335294,2.45623,4.97258,0.176,0.343296,0.176688,0
2024-11-29 18:04:08.298,-0.385544,2.45384,5.09701,0.159507,0.329858,0.179131,0
2024-11-29 18:04:08.301,-0.419043,2.44905,5.2358,0.128354,0.308478,0.183407,0
2024-11-29 18:04:08.302,-0.45015,2.43709,5.38684,0.128354,0.308478,0.183407,0
2024-11-29 18:04:08.305,-0.483649,2.43948,5.53998,0.111861,0.300537,0.189515,0
2024-11-29 18:04:08.308,-0.505185,2.43709,5.69073,0.102088,0.293207,0.195013,0
2024-11-29 18:04:08.309,-0.521934,2.42991,5.84626,0.0953685,0.285266,0.202343,0
2024-11-29 18:04:08.312,-0.536291,2.43709,6.01167,0.0868167,0.277936,0.210895,0
2024-11-29 18:04:08.314,-0.550648,2.42513,6.18156,0.077654,0.27366,0.219447,0
2024-11-29 18:04:08.316,-0.555434,2.39641,6.3347,0.0745997,0.269994,0.227388,0
2024-11-29 18:04:08.320,-0.550648,2.37966,6.48335,0.0697129,0.262664,0.237772,0
2024-11-29 18:04:08.321,-0.536291,2.37727,6.63171,0.0636045,0.255945,0.247546,0
2024-11-29 18:04:08.323,-0.519542,2.3677,6.7681,0.0605502,0.248004,0.256709,0
2024-11-29 18:04:08.327,-0.514756,2.34616,6.9332,0.0587177,0.23823,0.265871,0
2024-11-29 18:04:08.329,-0.514756,2.34377,7.11775,0.0587177,0.229068,0.273201,0
2024-11-29 18:04:08.330,-0.500399,2.34616,7.30678,0.057496,0.222348,0.282975,0
2024-11-29 18:04:08.334,-0.469292,2.34138,7.48146,0.0581068,0.212575,0.292138,0
2024-11-29 18:04:08.335,-0.428614,2.3342,7.65883,0.0599394,0.207077,0.299468,0
2024-11-29 18:04:08.338,-0.378365,2.32223,7.84068,0.0642153,0.20219,0.306798,0
2024-11-29 18:04:08.341,-0.316152,2.31266,7.99861,0.0684913,0.200358,0.312296,0
2024-11-29 18:04:08.342,-0.241675,2.30788,8.16401,0.0788757,0.197304,0.314739,0
2024-11-29 18:04:08.345,-0.160319,2.29831,8.34108,0.081319,0.19486,0.317793,0
2024-11-29 18:04:08.347,-0.0933201,2.28156,8.51336,0.0874275,0.193028,0.320237,0
2024-11-29 18:04:08.349,-0.0502493,2.27677,8.6689,0.0929251,0.191806,0.320237,0
2024-11-29 18:04:08.352,-0.0143569,2.27916,8.82952,0.0978119,0.191806,0.318404,0
2024-11-29 18:04:08.354,0.0215354,2.28156,8.99223,0.10392,0.188141,0.317182,0
2024-11-29 18:04:08.356,0.0382852,2.28156,9.15015,0.109418,0.183254,0.317182,0
2024-11-29 18:04:08.360,0.0454636,2.29113,9.30359,0.113694,0.179589,0.316572,0
2024-11-29 18:04:08.361,0.0550349,2.3007,9.44716,0.11797,0.174091,0.314739,0
2024-11-29 18:04:08.364,0.0526421,2.30309,9.59313,0.121635,0.164929,0.313517,0
2024-11-29 18:04:08.367,0.040678,2.30309,9.72712,0.124078,0.14416,0.314739,0
2024-11-29 18:04:08.368,0.0215354,2.31506,9.86621,0.124078,0.14416,0.314739,0
2024-11-29 18:04:08.371,0.00239282,2.31984,10.0002,0.1253,0.130721,0.314739,0
2024-11-29 18:04:08.374,-0.00957129,2.31027,10.1318,0.124078,0.10079,0.318404,0
2024-11-29 18:04:08.375,-0.00957129,2.30548,10.2778,0.124078,0.10079,0.318404,0
2024-11-29 18:04:08.378,-0.0143569,2.31027,10.4121,0.119802,0.0861295,0.321458,0
2024-11-29 18:04:08.381,-0.0382852,2.32223,10.5532,0.113694,0.0531437,0.328789,0
2024-11-29 18:04:08.383,-0.0478565,2.31745,10.7112,0.113694,0.0531437,0.328789,0
2024-11-29 18:04:08.385,-0.0478565,2.32223,10.8763,0.110029,0.0378725,0.332454,0
2024-11-29 18:04:08.388,-0.0358923,2.33181,11.0369,0.102699,0.0164929,0.340395,0
2024-11-29 18:04:08.390,-0.026321,2.32941,11.1996,0.10331,0.00855186,0.344671,0
2024-11-29 18:04:08.392,-0.00957129,2.32941,11.3934,0.10331,0.00855186,0.344671,0
2024-11-29 18:04:08.395,0.0287139,2.33181,11.6067,0.104531,0.00671932,0.348336,0
2024-11-29 18:04:08.397,0.0765703,2.34856,11.7957,0.106975,0.0109953,0.349557,0
2024-11-29 18:04:08.400,0.138784,2.35813,11.9704,0.114916,0.0226013,0.352612,0
2024-11-29 18:04:08.402,0.189033,2.37009,12.1334,0.129576,0.0751342,0.356277,0
2024-11-29 18:04:08.404,0.236889,2.38684,12.2889,0.129576,0.0751342,0.356277,0
2024-11-29 18:04:08.407,0.27996,2.39163,12.4301,0.140571,0.109953,0.357498,0
2024-11-29 18:04:08.408,0.304188,2.4012,12.545,0.155842,0.152712,0.361163,0
2024-11-29 18:04:08.411,0.308973,2.40598,12.6458,0.169892,0.199747,0.364829,0
2024-11-29 18:04:08.413,0.313759,2.3988,12.7199,0.186996,0.246782,0.369104,0
2024-11-29 18:04:08.415,0.30658,2.39402,12.7941,0.20471,0.293207,0.377045,0
2024-11-29 18:04:08.418,0.285045,2.39641,12.8563,0.219981,0.336577,0.384986,0
2024-11-29 18:04:08.420,0.256032,2.3988,12.8898,0.235253,0.376282,0.395371,0
2024-11-29 18:04:08.423,0.196211,2.40598,12.9066,0.250524,0.412322,0.40942,0
2024-11-29 18:04:08.426,0.157926,2.4323,12.9186,0.279234,0.464855,0.436298,0
2024-11-29 18:04:08.427,0.148355,2.46102,12.9162,0.279234,0.464855,0.436298,0
2024-11-29 18:04:08.430,0.131605,2.48734,12.9186,0.289007,0.477683,0.452791,0
2024-11-29 18:04:08.432,0.11007,2.52084,12.9425,0.296948,0.482569,0.468673,0
2024-11-29 18:04:08.434,0.0981057,2.56182,12.964,0.304278,0.479515,0.484555,0
2024-11-29 18:04:08.437,0.0861416,2.60489,12.9832,0.308554,0.467909,0.499215,0
2024-11-29 18:04:08.440,0.0765703,2.65035,13.0167,0.314052,0.45386,0.515708,0
2024-11-29 18:04:08.441,0.0789631,2.72213,13.0645,0.316495,0.439199,0.532201,0
2024-11-29 18:04:08.444,0.100499,2.81306,13.1291,0.321382,0.420263,0.545639,0
2024-11-29 18:04:08.447,0.145962,2.88485,13.2036,0.328712,0.373839,0.565797,0
2024-11-29 18:04:08.448,0.205783,2.95663,13.273,0.328712,0.373839,0.565797,0
2024-11-29 18:04:08.451,0.272782,3.03081,13.3352,0.328712,0.350015,0.571906,0
2024-11-29 18:04:08.454,0.354437,3.08345,13.3711,0.333599,0.294428,0.569462,0
2024-11-29 18:04:08.456,0.469292,3.14357,13.4118,0.331766,0.266329,0.562132,0
2024-11-29 18:04:08.458,0.572184,3.19861,13.4692,0.331766,0.266329,0.562132,0
2024-11-29 18:04:08.460,0.658325,3.23689,13.5218,0.330545,0.233344,0.552969,0
2024-11-29 18:04:08.463,0.742074,3.28475,13.5769,0.325658,0.199136,0.536477,0
2024-11-29 18:04:08.466,0.818644,3.32303,13.6463,0.323215,0.164318,0.518762,0
2024-11-29 18:04:08.467,0.893121,3.35653,13.7181,0.315884,0.13011,0.501047,0
2024-11-29 18:04:08.470,0.940978,3.39721,13.7854,0.311608,0.0934596,0.479668,0
2024-11-29 18:04:08.473,0.996012,3.42353,13.8476,0.301835,0.0262664,0.432022,0
2024-11-29 18:04:08.475,1.05105,3.4355,13.9002,0.301835,0.0262664,0.432022,0
2024-11-29 18:04:08.477,1.11326,3.4331,13.9289,0.296337,-0.00427593,0.405755,0
2024-11-29 18:04:08.480,1.19462,3.41396,13.9648,0.283509,-0.0543654,0.350779,0
2024-11-29 18:04:08.482,1.28076,3.37807,14.0127,0.283509,-0.0543654,0.350779,0
2024-11-29 18:04:08.484,1.36451,3.32064,14.0462,0.277401,-0.0775776,0.323902,0
2024-11-29 18:04:08.486,1.43659,3.2656,14.0725,0.270071,-0.0989573,0.295803,0
2024-11-29 18:04:08.488,1.51316,3.19382,14.1203,0.265184,-0.117894,0.269536,0
2024-11-29 18:04:08.491,1.57777,3.11007,14.1682,0.256021,-0.132554,0.242659,0
2024-11-29 18:04:08.494,1.62084,3.04517,14.185,0.243804,-0.14416,0.19257,0
2024-11-29 18:04:08.496,1.65434,2.97099,14.2065,0.243804,-0.14416,0.19257,0
2024-11-29 18:04:08.499,1.67109,2.88485,14.2376,0.235863,-0.128889,0.149199,0
2024-11-29 18:04:08.500,1.68066,2.80349,14.2448,0.235863,-0.128889,0.149199,2
2024-11-29 18:04:08.503,1.68066,2.71974,14.2448,0.232198,-0.112396,0.130263,0
2024-11-29 18:04:08.506,1.66869,2.64796,14.2256,0.230977,-0.0696366,0.0997208,0
2024-11-29 18:04:08.507,1.63759,2.58574,14.2017,0.230977,-0.0696366,0.0997208,0
2024-11-29 18:04:08.509,1.58734,2.52592,14.173,0.231587,-0.0397051,0.0862822,0
2024-11-29 18:04:08.513,1.52273,2.47777,14.118,0.237085,-0.00733017,0.0758978,0
2024-11-29 18:04:08.515,1.45095,2.43709,14.0414,0.239528,0.0311532,0.0649025,0
2024-11-29 18:04:08.517,1.34536,2.40838,13.9433,0.24075,0.0684149,0.0569615,0
2024-11-29 18:04:08.520,1.21615,2.38206,13.826,0.246248,0.110563,0.0490205,0
2024-11-29 18:04:08.521,1.1013,2.37966,13.7061,0.250524,0.154544,0.0404686,0
2024-11-29 18:04:08.524,0.99362,2.39163,13.5673,0.256021,0.192417,0.0355819,0
2024-11-29 18:04:08.526,0.88355,2.39641,13.4237,0.259686,0.224792,0.0306951,0
2024-11-29 18:04:08.528,0.768395,2.41077,13.3017,0.265795,0.251058,0.0288625,0
2024-11-29 18:04:08.531,0.658325,2.42991,13.1698,0.267017,0.271216,0.0239758,0
2024-11-29 18:04:08.533,0.555434,2.4323,13.0382,0.270071,0.285266,0.0239758,0
2024-11-29 18:04:08.536,0.464507,2.40359,12.8946,0.276179,0.3097,0.0233649,0
2024-11-29 18:04:08.538,0.3999,2.3677,12.7223,0.276179,0.3097,0.0233649,0
2024-11-29 18:04:08.540,0.332901,2.34616,12.5402,0.274347,0.320695,0.0258083,0
2024-11-29 18:04:08.542,0.275175,2.3342,12.3464,0.275568,0.333523,0.0264191,0
2024-11-29 18:04:08.546,0.234497,2.31984,12.1573,0.268849,0.348794,0.0282517,0
2024-11-29 18:04:08.547,0.212961,2.31027,11.9943,0.268849,0.348794,0.0282517,0
2024-11-29 18:04:08.550,0.20339,2.3007,11.8388,0.26213,0.353681,0.02703,0
2024-11-29 18:04:08.553,0.18664,2.29352,11.6809,0.244415,0.359789,0.0221432,0
2024-11-29 18:04:08.554,0.177069,2.29591,11.5301,0.244415,0.359789,0.0221432,0
2024-11-29 18:04:08.557,0.172283,2.30548,11.3839,0.23342,0.364065,0.0166456,0
2024-11-29 18:04:08.560,0.145962,2.3342,11.2283,0.223036,0.368952,0.011148,0
2024-11-29 18:04:08.561,0.0933201,2.36052,11.0824,0.21204,0.375671,0.00626118,0
2024-11-29 18:04:08.564,0.0430708,2.38684,10.9484,0.199823,0.383001,0.00198525,0
2024-11-29 18:04:08.566,0.0,2.4347,10.8093,0.187606,0.390942,-0.00229068,0
2024-11-29 18:04:08.568,-0.0598206,2.48495,10.6753,0.176,0.398272,-0.0077883,0
2024-11-29 18:04:08.571,-0.133998,2.51127,10.5461,0.161951,0.40377,-0.0120642,0
2024-11-29 18:04:08.573,-0.210568,2.54746,10.4169,0.150956,0.406824,-0.016951,0
2024-11-29 18:04:08.576,-0.275175,2.58096,10.2826,0.123468,0.406213,-0.0267246,0
2024-11-29 18:04:08.578,-0.344866,2.59771,10.1533,0.123468,0.406213,-0.0267246,0
2024-11-29 18:04:08.581,-0.421436,2.63121,10.0289,0.0953685,0.392164,-0.037109,0
2024-11-29 18:04:08.583,-0.478864,2.67428,9.9021,0.0953685,0.392164,-0.037109,0
2024-11-29 18:04:08.587,-0.598505,2.7006,9.65534,0.0648262,0.3604,-0.0511585,0
2024-11-29 18:04:08.588,-0.533899,2.7006,9.65534,0.0648262,0.3604,-0.0511585,0
2024-11-29 18:04:08.590,-0.651147,2.70299,9.53809,0.0465007,0.337799,-0.0572669,0
2024-11-29 18:04:08.592,-0.708575,2.70539,9.42323,0.0275645,0.310921,-0.0664296,0
2024-11-29 18:04:08.594,-0.782752,2.72213,9.29881,0.00862822,0.277325,-0.0707056,0
2024-11-29 18:04:08.596,-0.837787,2.72931,9.18605,-0.0139731,0.236398,-0.076814,0
2024-11-29 18:04:08.600,-0.876371,2.74128,9.09273,-0.0640626,0.147825,-0.0926961,0
2024-11-29 18:04:08.602,-0.919442,2.76281,9.0018,-0.0640626,0.147825,-0.0926961,0
2024-11-29 18:04:08.604,-0.974477,2.78913,8.90369,-0.0927724,0.0971247,-0.0975828,0
2024-11-29 18:04:08.607,-1.01515,2.82263,8.81994,-0.153857,-0.00733017,-0.110411,0
2024-11-29 18:04:08.609,-1.04865,2.8681,8.75055,-0.153857,-0.00733017,-0.110411,0
2024-11-29 18:04:08.611,-1.0654,2.92313,8.70987,-0.188065,-0.0610847,-0.11713,0
2024-11-29 18:04:08.614,-1.08694,2.98535,8.7027,-0.261366,-0.162485,-0.130569,0
2024-11-29 18:04:08.616,-1.11087,3.05952,8.69043,-0.261366,-0.162485,-0.130569,0
2024-11-29 18:04:08.619,-1.11087,3.11964,8.72184,-0.29985,-0.208299,-0.137899,0
2024-11-29 18:04:08.621,-1.12044,3.19143,8.78166,-0.37926,-0.298704,-0.152559,0
2024-11-29 18:04:08.622,-1.12283,3.25843,8.84387,-0.37926,-0.298704,-0.152559,0
2024-11-29 18:04:08.626,-1.12762,3.29193,8.93001,-0.418354,-0.340242,-0.159889,0
2024-11-29 18:04:08.628,-1.10848,3.32064,9.01376,-0.460502,-0.376282,-0.168441,0
2024-11-29 18:04:08.629,-1.0654,3.33978,9.12383,-0.498986,-0.408657,-0.180047,0
2024-11-29 18:04:08.632,-1.02951,3.33739,9.23869,-0.536858,-0.436756,-0.190432,0
2024-11-29 18:04:08.635,-0.981655,3.31585,9.36102,-0.575953,-0.45447,-0.201427,0
2024-11-29 18:04:08.637,-0.931406,3.29193,9.50459,-0.61016,-0.467909,-0.213033,0
2024-11-29 18:04:08.640,-0.881157,3.25843,9.63859,-0.674986,-0.471574,-0.235634,0
2024-11-29 18:04:08.641,-0.842872,3.20818,9.77259,-0.674986,-0.471574,-0.235634,0
2024-11-29 18:04:08.645,-0.818644,3.15075,9.89731,-0.731795,-0.44714,-0.258236,0
2024-11-29 18:04:08.647,-0.797109,3.09811,10.0313,-0.755007,-0.427593,-0.270453,0
2024-11-29 18:04:08.648,-0.761217,3.02602,10.151,-0.755007,-0.427593,-0.270453,0
2024-11-29 18:04:08.651,-0.751645,2.9686,10.2562,-0.776387,-0.404992,-0.282059,0
2024-11-29 18:04:08.653,-0.785145,2.92074,10.3977,-0.797767,-0.378114,-0.290611,0
2024-11-29 18:04:08.656,-0.825823,2.85135,10.5269,-0.816703,-0.347572,-0.298552,0
2024-11-29 18:04:08.658,-0.869193,2.79153,10.6514,-0.826476,-0.314586,-0.30466,0
2024-11-29 18:04:08.660,-0.94337,2.74367,10.783,-0.835639,-0.277936,-0.306493,0
2024-11-29 18:04:08.662,-1.02712,2.68864,10.8811,-0.841748,-0.23823,-0.307103,0
2024-11-29 18:04:08.666,-1.11805,2.62642,10.9675,-0.844802,-0.19486,-0.305271,0
2024-11-29 18:04:08.667,-1.22094,2.57139,11.0393,-0.842969,-0.149658,-0.296719,0
2024-11-29 18:04:08.670,-1.31186,2.51845,11.0824,-0.842969,-0.101401,-0.286335,0
2024-11-29 18:04:08.672,-1.4004,2.46341,11.1254,-0.83625,-0.0525329,-0.273507,0
2024-11-29 18:04:08.674,-1.49163,2.40838,11.1661,-0.828309,-0.00244339,-0.258847,0
2024-11-29 18:04:08.677,-1.58255,2.35334,11.1972,-0.817314,0.0452027,-0.237467,0
2024-11-29 18:04:08.679,-1.67827,2.29831,11.202,-0.801432,0.0940705,-0.214255,0
2024-11-29 18:04:08.681,-1.78116,2.25524,11.2044,-0.78555,0.139884,-0.191042,0
2024-11-29 18:04:08.684,-1.86012,2.21216,11.2068,-0.772111,0.183254,-0.165998,0
2024-11-29 18:04:08.686,-1.92712,2.18584,11.2044,-0.753785,0.225403,-0.135455,0
2024-11-29 18:04:08.688,-1.9992,2.17866,11.1972,-0.733628,0.264497,-0.103691,0
2024-11-29 18:04:08.692,-2.05902,2.18106,11.1781,-0.682927,0.334133,-0.0383307,0
2024-11-29 18:04:08.693,-2.10688,2.18584,11.1565,-0.682927,0.334133,-0.0383307,0
2024-11-29 18:04:08.696,-2.15474,2.19302,11.1254,-0.657883,0.363454,-0.00473407,0
2024-11-29 18:04:08.698,-2.20499,2.21456,11.0871,-0.627264,0.389721,0.0282517,0
2024-11-29 18:04:08.700,-2.2337,2.23609,11.0489,-0.597943,0.412322,0.06307,0
2024-11-29 18:04:08.703,-2.24806,2.28156,10.9866,-0.56679,0.431258,0.0960557,0
2024-11-29 18:04:08.706,-2.24806,2.31745,10.9241,-0.537469,0.44714,0.132707,0
2024-11-29 18:04:08.707,-2.24327,2.32223,10.8643,-0.500818,0.46119,0.168136,0
2024-11-29 18:04:08.710,-2.23609,2.32702,10.7973,-0.469054,0.469742,0.203565,0
2024-11-29 18:04:08.713,-2.19781,2.32702,10.7231,-0.434847,0.475239,0.23594,0
2024-11-29 18:04:08.714,-2.15952,2.3342,10.6561,-0.40125,0.47585,0.268926,0
2024-11-29 18:04:08.718,-2.11645,2.36291,10.6107,-0.366432,0.473407,0.298246,0
2024-11-29 18:04:08.720,-2.04706,2.37488,10.5796,-0.331614,0.465466,0.328178,0
2024-11-29 18:04:08.722,-1.97528,2.38923,10.5365,-0.294352,0.455692,0.355055,0
2024-11-29 18:04:08.725,-1.89362,2.42752,10.4791,-0.255869,0.448973,0.378878,0
2024-11-29 18:04:08.727,-1.78116,2.47059,10.4384,-0.180734,0.434312,0.421637,0
2024-11-29 18:04:08.728,-1.65434,2.51845,10.4169,-0.180734,0.434312,0.421637,0
2024-11-29 18:04:08.732,-1.53948,2.55224,10.3881,-0.139808,0.430647,0.439352,0
2024-11-29 18:04:08.734,-1.42463,2.57378,10.3639,-0.0988809,0.424539,0.45218,0
2024-11-29 18:04:08.735,-1.29751,2.59532,10.3448,-0.0561216,0.417209,0.463175,0
2024-11-29 18:04:08.738,-1.18983,2.62642,10.3065,-0.0115297,0.411711,0.470505,0
2024-11-29 18:04:08.741,-1.08215,2.62642,10.2706,0.0709346,0.401937,0.477224,0
2024-11-29 18:04:08.743,-0.955334,2.61924,10.2275,0.0709346,0.401937,0.477224,0
2024-11-29 18:04:08.746,-0.811466,2.63599,10.1581,0.151566,0.395829,0.47417,0
2024-11-29 18:04:08.748,-0.660718,2.6336,10.084,0.191272,0.39644,0.469283,0
2024-11-29 18:04:08.751,-0.519542,2.6336,10.0122,0.191272,0.39644,0.469283,0
2024-11-29 18:04:08.753,-0.390329,2.64796,9.92842,0.229755,0.395829,0.458288,0
2024-11-29 18:04:08.754,-0.301795,2.64078,9.82314,0.262741,0.398272,0.446071,0
2024-11-29 18:04:08.758,-0.236889,2.64556,9.68645,0.294505,0.401327,0.433854,0
2024-11-29 18:04:08.760,-0.191426,2.64796,9.53809,0.322604,0.400105,0.421637,0
2024-11-29 18:04:08.761,-0.172283,2.65035,9.4017,0.348259,0.398883,0.40881,0
2024-11-29 18:04:08.765,-0.162712,2.6671,9.25783,0.38491,0.393996,0.380711,0
2024-11-29 18:04:08.767,-0.167498,2.67428,9.11905,0.38491,0.393996,0.380711,0
2024-11-29 18:04:08.768,-0.184247,2.68146,8.98505,0.39957,0.388499,0.369715,0
2024-11-29 18:04:08.771,-0.210568,2.69342,8.85344,0.408122,0.379336,0.357498,0
2024-11-29 18:04:08.774,-0.227318,2.71735,8.71705,0.417285,0.368341,0.344671,0
2024-11-29 18:04:08.775,-0.232104,2.74367,8.56601,0.420339,0.353681,0.332454,0
2024-11-29 18:04:08.779,-0.232104,2.73649,8.43201,0.420339,0.340853,0.321458,0
2024-11-29 18:04:08.781,-0.236889,2.73649,8.3004,0.417896,0.32436,0.310463,0
2024-11-29 18:04:08.784,-0.256032,2.75563,8.17837,0.402014,0.292596,0.283586,0
2024-11-29 18:04:08.785,-0.258425,2.74606,8.07039,0.402014,0.292596,0.283586,0
2024-11-29 18:04:08.787,-0.241675,2.74128,7.95554,0.389186,0.27427,0.269536,0
2024-11-29 18:04:08.790,-0.241675,2.76999,7.85025,0.374526,0.254723,0.254876,0
2024-11-29 18:04:08.793,-0.229711,2.79153,7.78086,0.358033,0.23823,0.238994,0
2024-11-29 18:04:08.794,-0.224925,2.8011,7.72343,0.339707,0.219294,0.224334,0
2024-11-29 18:04:08.798,-0.258425,2.81545,7.63968,0.293283,0.182032,0.19318,0
2024-11-29 18:04:08.800,-0.30658,2.83699,7.57986,0.293283,0.182032,0.19318,0
2024-11-29 18:04:08.801,-0.347258,2.8346,7.54128,0.268238,0.163707,0.180353,0
2024-11-29 18:04:08.805,-0.387936,2.85613,7.5006,0.245637,0.143549,0.166914,0
2024-11-29 18:04:08.806,-0.435793,2.89681,7.48146,0.215095,0.120337,0.152865,0
2024-11-29 18:04:08.809,-0.488435,2.91835,7.48624,0.186385,0.0977356,0.141258,0
2024-11-29 18:04:08.811,-0.533899,2.9351,7.49103,0.160118,0.0739125,0.129041,0
2024-11-29 18:04:08.813,-0.562612,2.93988,7.52214,0.130798,0.0500895,0.12049,0
2024-11-29 18:04:08.817,-0.584148,2.94945,7.57986,0.100866,0.0256556,0.110105,0
2024-11-29 18:04:08.818,-0.596112,2.96142,7.64208,0.0752106,0.00244339,0.0997208,0
2024-11-29 18:04:08.820,-0.622433,2.94706,7.7019,0.0483333,-0.020158,0.0905581,0
2024-11-29 18:04:08.823,-0.670289,2.93749,7.79522,0.0202343,-0.0372617,0.0826171,0
2024-11-29 18:04:08.826,-0.71336,2.92792,7.92443,-0.0261901,-0.0708583,0.0649025,0
2024-11-29 18:04:08.827,-0.725324,2.92074,8.07518,-0.0261901,-0.0708583,0.0649025,0
2024-11-29 18:04:08.830,-0.708575,2.92074,8.23101,-0.0481806,-0.0830752,0.0600157,0
2024-11-29 18:04:08.832,-0.677468,2.9016,8.38894,-0.066506,-0.0916271,0.0545181,0
2024-11-29 18:04:08.835,-0.629611,2.87049,8.54926,-0.0842206,-0.0940705,0.0459663,0
2024-11-29 18:04:08.838,-0.576969,2.82981,8.70509,-0.106822,-0.0787993,0.0392469,0
2024-11-29 18:04:08.840,-0.519542,2.77238,8.83669,-0.114763,-0.0592522,0.0343602,0
2024-11-29 18:04:08.842,-0.476471,2.72453,8.96112,-0.114763,-0.0592522,0.0343602,0
2024-11-29 18:04:08.844,-0.442971,2.65992,9.10708,-0.120261,-0.0384834,0.0306951,0
2024-11-29 18:04:08.846,-0.431007,2.57857,9.29402,-0.123315,-0.0140495,0.0282517,0
2024-11-29 18:04:08.850,-0.442971,2.52323,9.49981,-0.127591,0.00671932,0.0251975,0
2024-11-29 18:04:08.851,-0.440578,2.48734,9.70559,-0.129423,0.0219905,0.0233649,0
2024-11-29 18:04:08.853,-0.431007,2.44427,9.91646,-0.130034,0.0335966,0.0209215,0
2024-11-29 18:04:08.856,-0.375972,2.4012,10.1079,-0.130034,0.0452027,0.0209215,0
2024-11-29 18:04:08.858,-0.267996,2.37966,10.2706,-0.128202,0.0610847,0.0178673,0
2024-11-29 18:04:08.860,-0.153141,2.34856,10.3711,-0.120261,0.087962,0.0160347,0
2024-11-29 18:04:08.864,-0.0574277,2.30548,10.4456,-0.111709,0.124002,0.0142022,0
2024-11-29 18:04:08.866,0.00478565,2.26481,10.5221,-0.0994917,0.170426,0.0135914,0
2024-11-29 18:04:08.868,0.0574277,2.22891,10.5915,-0.0860531,0.222959,0.0123697,0
2024-11-29 18:04:08.871,0.100499,2.18584,10.6274,-0.074447,0.272438,0.00870457,0
2024-11-29 18:04:08.872,0.133998,2.14277,10.6657,-0.0622301,0.314586,0.00809373,0
2024-11-29 18:04:08.874,0.162712,2.11645,10.692,-0.0512348,0.35307,0.00198525,0
2024-11-29 18:04:08.878,0.184247,2.10449,10.692,-0.0377962,0.401937,-0.0114534,0
2024-11-29 18:04:08.880,0.22014,2.10209,10.5652,-0.0341311,0.41843,-0.0218378,0
2024-11-29 18:04:08.881,0.212961,2.09731,10.0744,-0.0341311,0.41843,-0.0218378,0
2024-11-29 18:04:08.885,0.0933201,2.16909,9.42084,-0.0561216,0.416598,-0.0438283,0
2024-11-29 18:04:08.887,-0.11007,2.35573,9.05923,-0.0561216,0.416598,-0.0438283,0
2024-11-29 18:04:08.889,-0.368794,2.6001,8.98266,-0.0726145,0.390942,-0.0566561,0
2024-11-29 18:04:08.894,-0.96012,3.10289,8.95394,-0.123315,0.257778,-0.0804791,0
2024-11-29 18:04:08.894,-0.96012,3.10289,8.95394,-0.123315,0.257778,-0.0804791,0
2024-11-29 18:04:08.904,-1.21615,3.79232,8.64497,-0.304126,-0.235176,-0.148283,0
2024-11-29 18:04:08.905,-1.1683,3.85215,8.72423,-0.304126,-0.235176,-0.148283,0
2024-11-29 18:04:08.905,-1.1683,3.85215,8.72423,-0.304126,-0.235176,-0.148283,0
2024-11-29 18:04:08.905,-1.1683,3.85215,8.72423,-0.304126,-0.235176,-0.148283,0
2024-11-29 18:04:08.906,-1.1683,3.85215,8.72423,-0.304126,-0.235176,-0.148283,0
2024-11-29 18:04:08.919,-0.179462,3.13879,9.98106,-0.361545,-0.459968,-0.263733,0
2024-11-29 18:04:08.919,-0.179462,3.13879,9.98106,-0.361545,-0.459968,-0.263733,0
2024-11-29 18:04:08.920,-0.179462,3.13879,9.98106,-0.357269,-0.463633,-0.291221,0
2024-11-29 18:04:08.920,-0.426222,3.31825,9.98106,-0.357269,-0.463633,-0.291221,0
2024-11-29 18:04:08.920,-0.179462,3.13879,9.98106,-0.357269,-0.463633,-0.291221,0
2024-11-29 18:04:08.920,-0.179462,3.13879,9.98106,-0.357269,-0.463633,-0.291221,0
2024-11-29 18:04:08.923,0.0191426,2.98535,10.0696,-0.348107,-0.452027,-0.319931,0
2024-11-29 18:04:08.924,0.136391,2.8322,10.151,-0.348107,-0.452027,-0.319931,0
2024-11-29 18:04:08.927,0.177069,2.69821,10.2347,-0.340166,-0.433702,-0.349252,0
2024-11-29 18:04:08.930,0.153141,2.60728,10.3161,-0.320618,-0.398272,-0.40545,0
2024-11-29 18:04:08.932,0.0765703,2.55703,10.3783,-0.320618,-0.398272,-0.40545,0
2024-11-29 18:04:08.933,-0.0598206,2.53549,10.4312,-0.310234,-0.383612,-0.42744,0
2024-11-29 18:04:08.936,-0.256032,2.51366,10.4623,-0.302293,-0.37506,-0.444544,0
2024-11-29 18:04:08.939,-0.505185,2.50887,10.4743,-0.294963,-0.367119,-0.457983,0
2024-11-29 18:04:08.941,-0.773181,2.52323,10.5006,-0.288244,-0.359789,-0.464702,0
2024-11-29 18:04:08.943,-1.03669,2.54746,10.5365,-0.27847,-0.353681,-0.462259,0
2024-11-29 18:04:08.946,-1.32144,2.54985,10.5748,-0.270529,-0.34635,-0.453707,0
2024-11-29 18:04:08.947,-1.58495,2.54267,10.6131,-0.262588,-0.33902,-0.439046,0
2024-11-29 18:04:08.950,-1.78116,2.55464,10.6657,-0.252814,-0.330468,-0.417667,0
2024-11-29 18:04:08.953,-1.94865,2.55942,10.7303,-0.234489,-0.310921,-0.360247,0
2024-11-29 18:04:08.956,-2.07577,2.54746,10.783,-0.234489,-0.310921,-0.360247,0
2024-11-29 18:04:08.958,-2.15713,2.52592,10.838,-0.209444,-0.285877,-0.291221,0
2024-11-29 18:04:08.960,-2.20738,2.49212,10.8715,-0.197227,-0.269994,-0.254571,0
2024-11-29 18:04:08.962,-2.23131,2.45384,10.8739,-0.197227,-0.269994,-0.254571,0
2024-11-29 18:04:08.965,-2.24327,2.42752,10.838,-0.172183,-0.23762,-0.18188,0
2024-11-29 18:04:08.967,-2.25045,2.38923,10.7806,-0.16302,-0.225403,-0.14584,0
2024-11-29 18:04:08.970,-2.2337,2.3342,10.704,-0.16302,-0.225403,-0.14584,0
2024-11-29 18:04:08.972,-2.19781,2.28156,10.6011,-0.14836,-0.217462,-0.0798683,0
2024-11-29 18:04:08.974,-2.19063,2.25284,10.4934,-0.14836,-0.217462,-0.0798683,0
2024-11-29 18:04:08.977,-2.20259,2.2337,10.3448,-0.144694,-0.220516,-0.0462717,0
2024-11-29 18:04:08.978,-2.22174,2.24327,10.1892,-0.144084,-0.230289,-0.0126751,0
2024-11-29 18:04:08.980,-2.25284,2.27677,10.0481,-0.145916,-0.24495,0.0172564,0
2024-11-29 18:04:08.984,-2.29591,2.32463,9.92603,-0.152635,-0.269384,0.0490205,0
2024-11-29 18:04:08.986,-2.32702,2.38923,9.83271,-0.166685,-0.329858,0.111327,0
2024-11-29 18:04:08.988,-2.32223,2.43948,9.75105,-0.166685,-0.329858,0.111327,0
2024-11-29 18:04:08.991,-2.28634,2.47777,9.67209,-0.178291,-0.368341,0.140037,0
2024-11-29 18:04:08.992,-2.21934,2.5017,9.6027,-0.189286,-0.409268,0.170579,0
