timestamp,accel_x,accel_y,accel_z,gyro_x,gyro_y,gyro_z,step_timestamp
2024-12-13 15:35:07.572,0.318545,3.52164,8.3674,-0.11797,0.0793338,0.0711637,0
2024-12-13 15:35:07.572,0.318545,3.52164,8.3674,-0.11797,0.0793338,0.0711637,0
2024-12-13 15:35:07.572,0.318545,3.52164,8.3674,-0.11797,0.0793338,0.0711637,0
2024-12-13 15:35:07.572,0.318545,3.52164,8.3674,-0.11797,0.0793338,0.0711637,0
2024-12-13 15:35:07.572,0.318545,3.52164,8.3674,-0.11797,0.0793338,0.0711637,0
2024-12-13 15:35:07.572,0.318545,3.52164,8.3674,-0.11797,0.0793338,0.0711637,0
2024-12-13 15:35:07.572,0.318545,3.52164,8.3674,-0.11797,0.0793338,0.0711637,0
2024-12-13 15:35:07.572,0.318545,3.52164,8.3674,-0.11797,0.0793338,0.0711637,0
2024-12-13 15:35:07.572,0.318545,3.52164,8.3674,-0.11797,0.0793338,0.0711637,0
2024-12-13 15:35:07.572,0.318545,3.52164,8.3674,-0.11797,0.0793338,0.0711637,0
2024-12-13 15:35:07.572,0.318545,3.52164,8.3674,-0.11797,0.0793338,0.0711637,0
2024-12-13 15:35:07.572,0.318545,3.52164,8.3674,-0.11797,0.0793338,0.0711637,0
2024-12-13 15:35:07.574,0.301795,3.5001,8.5014,-0.124078,0.086664,0.0650552,0
2024-12-13 15:35:07.574,0.301795,3.5001,8.5014,-0.124078,0.086664,0.0650552,0
2024-12-13 15:35:07.574,0.301795,3.5001,8.5014,-0.124078,0.086664,0.0650552,0
2024-12-13 15:35:07.574,0.301795,3.5001,8.5014,-0.124078,0.086664,0.0650552,0
2024-12-13 15:35:07.574,0.301795,3.5001,8.5014,-0.124078,0.086664,0.0650552,0
2024-12-13 15:35:07.574,0.301795,3.5001,8.5014,-0.124078,0.086664,0.0650552,0
2024-12-13 15:35:07.574,0.301795,3.5001,8.5014,-0.124078,0.086664,0.0650552,0
2024-12-13 15:35:07.574,0.301795,3.5001,8.5014,-0.124078,0.086664,0.0650552,0
2024-12-13 15:35:07.575,0.301795,3.5001,8.5014,-0.124078,0.086664,0.0650552,0
2024-12-13 15:35:07.577,0.277567,3.48814,8.62104,-0.128965,0.0927724,0.0577251,0
2024-12-13 15:35:07.577,0.277567,3.48814,8.62104,-0.128965,0.0927724,0.0577251,0
2024-12-13 15:35:07.577,0.277567,3.48814,8.62104,-0.128965,0.0927724,0.0577251,0
2024-12-13 15:35:07.577,0.277567,3.48814,8.62104,-0.128965,0.0927724,0.0577251,0
2024-12-13 15:35:07.577,0.277567,3.48814,8.62104,-0.128965,0.0927724,0.0577251,0
2024-12-13 15:35:07.577,0.277567,3.48814,8.62104,-0.128965,0.0927724,0.0577251,0
2024-12-13 15:35:07.577,0.277567,3.48814,8.62104,-0.128965,0.0927724,0.0577251,0
2024-12-13 15:35:07.577,0.277567,3.48814,8.62104,-0.128965,0.0927724,0.0577251,0
2024-12-13 15:35:07.579,0.260818,3.47139,8.72662,-0.131409,0.0970484,0.0516166,0
2024-12-13 15:35:07.579,0.260818,3.47139,8.72662,-0.131409,0.0970484,0.0516166,0
2024-12-13 15:35:07.579,0.260818,3.47139,8.72662,-0.131409,0.0970484,0.0516166,0
2024-12-13 15:35:07.579,0.260818,3.47139,8.72662,-0.131409,0.0970484,0.0516166,0
2024-12-13 15:35:07.579,0.260818,3.47139,8.72662,-0.131409,0.0970484,0.0516166,0
2024-12-13 15:35:07.579,0.260818,3.47139,8.72662,-0.131409,0.0970484,0.0516166,0
2024-12-13 15:35:07.582,0.251246,3.44746,8.85344,-0.131409,0.100103,0.0436756,0
2024-12-13 15:35:07.582,0.251246,3.44746,8.85344,-0.131409,0.100103,0.0436756,0
2024-12-13 15:35:07.582,0.251246,3.44746,8.85344,-0.131409,0.100103,0.0436756,0
2024-12-13 15:35:07.584,0.212961,3.42114,8.97548,-0.129576,0.100713,0.0369563,0
2024-12-13 15:35:07.584,0.212961,3.42114,8.97548,-0.129576,0.100713,0.0369563,0
2024-12-13 15:35:07.584,0.212961,3.42114,8.97548,-0.129576,0.100713,0.0369563,0
2024-12-13 15:35:07.584,0.212961,3.42114,8.97548,-0.129576,0.100713,0.0369563,0
2024-12-13 15:35:07.584,0.212961,3.42114,8.97548,-0.129576,0.100713,0.0369563,0
2024-12-13 15:35:07.585,0.212961,3.42114,8.97548,-0.126522,0.100713,0.0320695,0
2024-12-13 15:35:07.586,0.189033,3.40678,9.08076,-0.126522,0.100713,0.0320695,0
2024-12-13 15:35:07.586,0.189033,3.40678,9.08076,-0.126522,0.100713,0.0320695,0
2024-12-13 15:35:07.586,0.189033,3.40678,9.08076,-0.126522,0.100713,0.0320695,0
2024-12-13 15:35:07.586,0.189033,3.40678,9.08076,-0.126522,0.100713,0.0320695,0
2024-12-13 15:35:07.586,0.189033,3.40678,9.08076,-0.126522,0.100713,0.0320695,0
2024-12-13 15:35:07.586,0.189033,3.40678,9.08076,-0.126522,0.100713,0.0320695,0
2024-12-13 15:35:07.586,0.189033,3.40678,9.08076,-0.126522,0.100713,0.0320695,0
2024-12-13 15:35:07.589,0.177069,3.40439,9.17647,-0.121024,0.101324,0.0271827,0
2024-12-13 15:35:07.589,0.177069,3.40439,9.17647,-0.121024,0.101324,0.0271827,0
2024-12-13 15:35:07.589,0.177069,3.40439,9.17647,-0.121024,0.101324,0.0271827,0
2024-12-13 15:35:07.589,0.177069,3.40439,9.17647,-0.121024,0.101324,0.0271827,0
2024-12-13 15:35:07.589,0.177069,3.40439,9.17647,-0.121024,0.101324,0.0271827,0
2024-12-13 15:35:07.589,0.177069,3.40439,9.17647,-0.121024,0.101324,0.0271827,0
2024-12-13 15:35:07.591,0.148355,3.3996,9.25305,-0.114916,0.100103,0.0235176,0
2024-12-13 15:35:07.591,0.148355,3.3996,9.25305,-0.114916,0.100103,0.0235176,0
2024-12-13 15:35:07.591,0.148355,3.3996,9.25305,-0.114916,0.100103,0.0235176,0
2024-12-13 15:35:07.591,0.148355,3.3996,9.25305,-0.114916,0.100103,0.0235176,0
2024-12-13 15:35:07.591,0.148355,3.3996,9.25305,-0.114916,0.100103,0.0235176,0
2024-12-13 15:35:07.591,0.148355,3.3996,9.25305,-0.114916,0.100103,0.0235176,0
2024-12-13 15:35:07.593,0.129212,3.37089,9.31316,-0.106364,0.0982701,0.0210742,0
2024-12-13 15:35:07.593,0.129212,3.37089,9.31316,-0.106364,0.0982701,0.0210742,0
2024-12-13 15:35:07.593,0.129212,3.37089,9.31316,-0.106364,0.0982701,0.0210742,0
2024-12-13 15:35:07.593,0.129212,3.37089,9.31316,-0.106364,0.0982701,0.0210742,0
2024-12-13 15:35:07.593,0.129212,3.37089,9.31316,-0.106364,0.0982701,0.0210742,0
2024-12-13 15:35:07.593,0.129212,3.37089,9.31316,-0.106364,0.0982701,0.0210742,0
2024-12-13 15:35:07.593,0.129212,3.37089,9.31316,-0.106364,0.0982701,0.0210742,0
2024-12-13 15:35:07.594,0.129212,3.37089,9.31316,-0.0972011,0.0994917,0.01802,0
2024-12-13 15:35:07.596,0.12682,3.34457,9.38974,-0.0972011,0.0994917,0.01802,0
2024-12-13 15:35:07.596,0.12682,3.34457,9.38974,-0.0972011,0.0994917,0.01802,0
2024-12-13 15:35:07.596,0.12682,3.34457,9.38974,-0.0972011,0.0994917,0.01802,0
2024-12-13 15:35:07.596,0.12682,3.34457,9.38974,-0.0972011,0.0994917,0.01802,0
2024-12-13 15:35:07.597,0.12682,3.34457,9.38974,-0.0892601,0.0988809,0.0143549,0
2024-12-13 15:35:07.598,0.12682,3.32543,9.44477,-0.0892601,0.0988809,0.0143549,0
2024-12-13 15:35:07.598,0.12682,3.32543,9.44477,-0.0892601,0.0988809,0.0143549,0
2024-12-13 15:35:07.598,0.12682,3.32543,9.44477,-0.0892601,0.0988809,0.0143549,0
2024-12-13 15:35:07.598,0.12682,3.32543,9.44477,-0.0892601,0.0988809,0.0143549,0
2024-12-13 15:35:07.598,0.12682,3.32543,9.44477,-0.0892601,0.0988809,0.0143549,0
2024-12-13 15:35:07.598,0.12682,3.32543,9.44477,-0.0892601,0.0988809,0.0143549,0
2024-12-13 15:35:07.600,0.122034,3.3015,9.46631,-0.077654,0.100713,0.0119115,0
2024-12-13 15:35:07.600,0.12682,3.32543,9.44477,-0.077654,0.100713,0.0119115,0
2024-12-13 15:35:07.600,0.122034,3.3015,9.46631,-0.077654,0.100713,0.0119115,0
2024-12-13 15:35:07.600,0.122034,3.3015,9.46631,-0.077654,0.100713,0.0119115,0
2024-12-13 15:35:07.600,0.122034,3.3015,9.46631,-0.077654,0.100713,0.0119115,0
2024-12-13 15:35:07.600,0.122034,3.3015,9.46631,-0.077654,0.100713,0.0119115,0
2024-12-13 15:35:07.603,0.124427,3.28714,9.50698,-0.0691021,0.0982701,0.0106898,0
2024-12-13 15:35:07.603,0.124427,3.28714,9.50698,-0.0691021,0.0982701,0.0106898,0
2024-12-13 15:35:07.603,0.124427,3.28714,9.50698,-0.0691021,0.0982701,0.0106898,0
2024-12-13 15:35:07.603,0.124427,3.28714,9.50698,-0.0691021,0.0982701,0.0106898,0
2024-12-13 15:35:07.603,0.124427,3.28714,9.50698,-0.0691021,0.0982701,0.0106898,0
2024-12-13 15:35:07.603,0.124427,3.28714,9.50698,-0.0691021,0.0982701,0.0106898,0
2024-12-13 15:35:07.603,0.124427,3.28714,9.50698,-0.0691021,0.0982701,0.0106898,0
2024-12-13 15:35:07.603,0.124427,3.28714,9.50698,-0.0691021,0.0982701,0.0106898,0
2024-12-13 15:35:07.605,0.112463,3.268,9.55245,-0.0593285,0.100103,0.010079,0
2024-12-13 15:35:07.605,0.112463,3.268,9.55245,-0.0593285,0.100103,0.010079,0
2024-12-13 15:35:07.605,0.112463,3.268,9.55245,-0.0593285,0.100103,0.010079,0
2024-12-13 15:35:07.605,0.112463,3.268,9.55245,-0.0593285,0.100103,0.010079,0
2024-12-13 15:35:07.605,0.112463,3.268,9.55245,-0.0593285,0.100103,0.010079,0
2024-12-13 15:35:07.607,0.0909273,3.22971,9.58595,-0.0501658,0.101324,0.00824644,0
2024-12-13 15:35:07.607,0.0909273,3.22971,9.58595,-0.0501658,0.101324,0.00824644,0
2024-12-13 15:35:07.607,0.0909273,3.22971,9.58595,-0.0501658,0.101324,0.00824644,0
2024-12-13 15:35:07.607,0.0909273,3.22971,9.58595,-0.0501658,0.101324,0.00824644,0
2024-12-13 15:35:07.607,0.0909273,3.22971,9.58595,-0.0501658,0.101324,0.00824644,0
2024-12-13 15:35:07.607,0.0909273,3.22971,9.58595,-0.0501658,0.101324,0.00824644,0
2024-12-13 15:35:07.607,0.0909273,3.22971,9.58595,-0.0501658,0.101324,0.00824644,0
2024-12-13 15:35:07.607,0.0909273,3.22971,9.58595,-0.0501658,0.101324,0.00824644,0
2024-12-13 15:35:07.607,0.0909273,3.22971,9.58595,-0.0501658,0.101324,0.00824644,0
2024-12-13 15:35:07.607,0.0909273,3.22971,9.58595,-0.0501658,0.101324,0.00824644,0
2024-12-13 15:35:07.607,0.0909273,3.22971,9.58595,-0.0501658,0.101324,0.00824644,0
2024-12-13 15:35:07.607,0.0909273,3.22971,9.58595,-0.0501658,0.101324,0.00824644,0
2024-12-13 15:35:07.607,0.0909273,3.22971,9.58595,-0.0501658,0.101324,0.00824644,0
2024-12-13 15:35:07.607,0.0909273,3.22971,9.58595,-0.0501658,0.101324,0.00824644,0
2024-12-13 15:35:07.607,0.0909273,3.22971,9.58595,-0.0501658,0.101324,0.00824644,0
2024-12-13 15:35:07.607,0.0909273,3.22971,9.58595,-0.0501658,0.101324,0.00824644,0
2024-12-13 15:35:07.607,0.0909273,3.22971,9.58595,-0.0501658,0.101324,0.00824644,0
2024-12-13 15:35:07.607,0.0909273,3.22971,9.58595,-0.0501658,0.101324,0.00824644,0
2024-12-13 15:35:07.607,0.0909273,3.22971,9.58595,-0.0501658,0.101324,0.00824644,0
2024-12-13 15:35:07.607,0.0909273,3.22971,9.58595,-0.0501658,0.101324,0.00824644,0
2024-12-13 15:35:07.607,0.0909273,3.22971,9.58595,-0.0501658,0.101324,0.00824644,0
2024-12-13 15:35:07.614,0.0215354,3.17946,9.73191,-0.0251211,0.111098,0.0119115,0
2024-12-13 15:35:07.614,0.0215354,3.17946,9.73191,-0.0251211,0.111098,0.0119115,0
2024-12-13 15:35:07.614,0.0215354,3.17946,9.73191,-0.0251211,0.111098,0.0119115,0
2024-12-13 15:35:07.614,0.0215354,3.17946,9.73191,-0.0251211,0.111098,0.0119115,0
2024-12-13 15:35:07.614,0.0215354,3.17946,9.73191,-0.0251211,0.111098,0.0119115,0
2024-12-13 15:35:07.617,-0.00717847,3.15075,9.77737,-0.0171801,0.11293,0.0149658,0
2024-12-13 15:35:07.617,-0.00717847,3.15075,9.77737,-0.0171801,0.11293,0.0149658,0
2024-12-13 15:35:07.617,-0.00717847,3.15075,9.77737,-0.0171801,0.11293,0.0149658,0
2024-12-13 15:35:07.617,-0.00717847,3.15075,9.77737,-0.0171801,0.11293,0.0149658,0
2024-12-13 15:35:07.617,-0.00717847,3.15075,9.77737,-0.0171801,0.11293,0.0149658,0
2024-12-13 15:35:07.617,-0.00717847,3.15075,9.77737,-0.0171801,0.11293,0.0149658,0
2024-12-13 15:35:07.618,-0.00717847,3.15075,9.77737,-0.00801737,0.117817,0.0210742,0
2024-12-13 15:35:07.619,-0.0287139,3.11725,9.82792,-0.00801737,0.117817,0.0210742,0
2024-12-13 15:35:07.619,-0.0287139,3.11725,9.82792,-0.00801737,0.117817,0.0210742,0
2024-12-13 15:35:07.619,-0.0287139,3.11725,9.82792,-0.00801737,0.117817,0.0210742,0
2024-12-13 15:35:07.619,-0.0287139,3.11725,9.82792,-0.00801737,0.117817,0.0210742,0
2024-12-13 15:35:07.619,-0.0287139,3.11725,9.82792,-0.00801737,0.117817,0.0210742,0
2024-12-13 15:35:07.622,-0.0382852,3.1005,9.88535,0.000534491,0.125147,0.0284044,0
2024-12-13 15:35:07.622,-0.0382852,3.1005,9.88535,0.000534491,0.125147,0.0284044,0
2024-12-13 15:35:07.622,-0.0382852,3.1005,9.88535,0.000534491,0.125147,0.0284044,0
2024-12-13 15:35:07.622,-0.0382852,3.1005,9.88535,0.000534491,0.125147,0.0284044,0
2024-12-13 15:35:07.622,-0.0382852,3.1005,9.88535,0.000534491,0.125147,0.0284044,0
2024-12-13 15:35:07.624,-0.0382852,3.09093,9.91646,0.00725381,0.13431,0.0314586,0
2024-12-13 15:35:07.624,-0.0382852,3.09093,9.91646,0.00725381,0.13431,0.0314586,0
2024-12-13 15:35:07.624,-0.0382852,3.09093,9.91646,0.00725381,0.13431,0.0314586,0
2024-12-13 15:35:07.624,-0.0382852,3.09093,9.91646,0.00725381,0.13431,0.0314586,0
2024-12-13 15:35:07.624,-0.0382852,3.09093,9.91646,0.00725381,0.13431,0.0314586,0
2024-12-13 15:35:07.624,-0.0382852,3.09093,9.91646,0.00725381,0.13431,0.0314586,0
2024-12-13 15:35:07.624,-0.0382852,3.09093,9.91646,0.00725381,0.13431,0.0314586,0
2024-12-13 15:35:07.626,-0.040678,3.0667,9.9356,0.0151948,0.142862,0.0387888,0
2024-12-13 15:35:07.626,-0.040678,3.0667,9.9356,0.0151948,0.142862,0.0387888,0
2024-12-13 15:35:07.626,-0.040678,3.0667,9.9356,0.0151948,0.142862,0.0387888,0
2024-12-13 15:35:07.626,-0.040678,3.0667,9.9356,0.0151948,0.142862,0.0387888,0
2024-12-13 15:35:07.626,-0.040678,3.0667,9.9356,0.0151948,0.142862,0.0387888,0
2024-12-13 15:35:07.627,-0.040678,3.0667,9.9356,0.0237467,0.153857,0.0455081,0
2024-12-13 15:35:07.629,-0.0454636,3.05234,9.96192,0.0237467,0.153857,0.0455081,0
2024-12-13 15:35:07.629,-0.0454636,3.05234,9.96192,0.0237467,0.153857,0.0455081,0
2024-12-13 15:35:07.629,-0.0454636,3.05234,9.96192,0.0237467,0.153857,0.0455081,0
2024-12-13 15:35:07.629,-0.0454636,3.05234,9.96192,0.0237467,0.153857,0.0455081,0
2024-12-13 15:35:07.629,-0.0454636,3.05234,9.96192,0.0237467,0.153857,0.0455081,0
2024-12-13 15:35:07.629,-0.0454636,3.05234,9.96192,0.0237467,0.153857,0.0455081,0
2024-12-13 15:35:07.629,-0.0454636,3.05234,9.96192,0.0237467,0.153857,0.0455081,0
2024-12-13 15:35:07.629,-0.0454636,3.05234,9.96192,0.0237467,0.153857,0.0455081,0
2024-12-13 15:35:07.631,-0.0454636,3.03799,9.99063,0.0329094,0.163631,0.0497841,0
2024-12-13 15:35:07.631,-0.0454636,3.03799,9.99063,0.0329094,0.163631,0.0497841,0
2024-12-13 15:35:07.631,-0.0454636,3.03799,9.99063,0.0329094,0.163631,0.0497841,0
2024-12-13 15:35:07.631,-0.0454636,3.03799,9.99063,0.0329094,0.163631,0.0497841,0
2024-12-13 15:35:07.631,-0.0454636,3.03799,9.99063,0.0329094,0.163631,0.0497841,0
2024-12-13 15:35:07.631,-0.0454636,3.03799,9.99063,0.0329094,0.163631,0.0497841,0
2024-12-13 15:35:07.633,-0.0358923,3.02124,10.005,0.0408504,0.176459,0.0571142,0
2024-12-13 15:35:07.633,-0.0358923,3.02124,10.005,0.0408504,0.176459,0.0571142,0
2024-12-13 15:35:07.633,-0.0358923,3.02124,10.005,0.0408504,0.176459,0.0571142,0
2024-12-13 15:35:07.633,-0.0358923,3.02124,10.005,0.0408504,0.176459,0.0571142,0
2024-12-13 15:35:07.633,-0.0358923,3.02124,10.005,0.0408504,0.176459,0.0571142,0
2024-12-13 15:35:07.633,-0.0358923,3.02124,10.005,0.0408504,0.176459,0.0571142,0
2024-12-13 15:35:07.633,-0.0358923,3.02124,10.005,0.0408504,0.176459,0.0571142,0
2024-12-13 15:35:07.633,-0.0358923,3.02124,10.005,0.0408504,0.176459,0.0571142,0
2024-12-13 15:35:07.636,-0.026321,3.01167,10.0026,0.0500131,0.186232,0.0632227,0
2024-12-13 15:35:07.636,-0.026321,3.01167,10.0026,0.0500131,0.186232,0.0632227,0
2024-12-13 15:35:07.636,-0.026321,3.01167,10.0026,0.0500131,0.186232,0.0632227,0
2024-12-13 15:35:07.636,-0.026321,3.01167,10.0026,0.0500131,0.186232,0.0632227,0
2024-12-13 15:35:07.636,-0.026321,3.01167,10.0026,0.0500131,0.186232,0.0632227,0
2024-12-13 15:35:07.638,-0.026321,2.99492,10.005,0.0603975,0.201503,0.0711637,0
2024-12-13 15:35:07.638,-0.026321,2.99492,10.005,0.0603975,0.201503,0.0711637,0
2024-12-13 15:35:07.638,-0.026321,2.99492,10.005,0.0603975,0.201503,0.0711637,0
2024-12-13 15:35:07.638,-0.026321,2.99492,10.005,0.0603975,0.201503,0.0711637,0
2024-12-13 15:35:07.638,-0.026321,2.99492,10.005,0.0603975,0.201503,0.0711637,0
2024-12-13 15:35:07.638,-0.026321,2.99492,10.005,0.0603975,0.201503,0.0711637,0
2024-12-13 15:35:07.638,-0.026321,2.99492,10.005,0.0603975,0.201503,0.0711637,0
2024-12-13 15:35:07.640,-0.0191426,2.98535,10.0002,0.0689494,0.215553,0.0791047,0
2024-12-13 15:35:07.640,-0.0191426,2.98535,10.0002,0.0689494,0.215553,0.0791047,0
2024-12-13 15:35:07.640,-0.0191426,2.98535,10.0002,0.0689494,0.215553,0.0791047,0
2024-12-13 15:35:07.640,-0.0191426,2.98535,10.0002,0.0689494,0.215553,0.0791047,0
2024-12-13 15:35:07.640,-0.0191426,2.98535,10.0002,0.0689494,0.215553,0.0791047,0
2024-12-13 15:35:07.640,-0.0191426,2.98535,10.0002,0.0689494,0.215553,0.0791047,0
2024-12-13 15:35:07.643,0.00478565,2.98774,9.99063,0.0787229,0.228381,0.0839915,0
2024-12-13 15:35:07.643,0.00478565,2.98774,9.99063,0.0787229,0.228381,0.0839915,0
2024-12-13 15:35:07.643,0.00478565,2.98774,9.99063,0.0787229,0.228381,0.0839915,0
2024-12-13 15:35:07.643,0.00478565,2.98774,9.99063,0.0787229,0.228381,0.0839915,0
2024-12-13 15:35:07.643,0.00478565,2.98774,9.99063,0.0787229,0.228381,0.0839915,0
2024-12-13 15:35:07.643,0.00478565,2.98774,9.99063,0.0787229,0.228381,0.0839915,0
2024-12-13 15:35:07.643,0.00478565,2.98774,9.99063,0.0787229,0.228381,0.0839915,0
2024-12-13 15:35:07.645,0.00717847,2.99013,9.97149,0.0891073,0.243041,0.0907108,0
2024-12-13 15:35:07.645,0.00717847,2.99013,9.97149,0.0891073,0.243041,0.0907108,0
2024-12-13 15:35:07.645,0.00717847,2.99013,9.97149,0.0891073,0.243041,0.0907108,0
2024-12-13 15:35:07.645,0.00717847,2.99013,9.97149,0.0891073,0.243041,0.0907108,0
2024-12-13 15:35:07.645,0.00717847,2.99013,9.97149,0.0891073,0.243041,0.0907108,0
2024-12-13 15:35:07.645,0.00717847,2.99013,9.97149,0.0891073,0.243041,0.0907108,0
2024-12-13 15:35:07.645,0.00717847,2.99013,9.97149,0.0891073,0.243041,0.0907108,0
2024-12-13 15:35:07.647,-0.00717847,2.97577,9.95235,0.0982701,0.257701,0.0992627,0
2024-12-13 15:35:07.647,-0.00717847,2.97577,9.95235,0.0982701,0.257701,0.0992627,0
2024-12-13 15:35:07.647,-0.00717847,2.97577,9.95235,0.0982701,0.257701,0.0992627,0
2024-12-13 15:35:07.647,-0.00717847,2.97577,9.95235,0.0982701,0.257701,0.0992627,0
2024-12-13 15:35:07.647,-0.00717847,2.97577,9.95235,0.0982701,0.257701,0.0992627,0
2024-12-13 15:35:07.647,-0.00717847,2.97577,9.95235,0.0982701,0.257701,0.0992627,0
2024-12-13 15:35:07.650,-0.00239282,2.9686,9.92124,0.106822,0.267475,0.10476,0
2024-12-13 15:35:07.650,-0.00239282,2.9686,9.92124,0.106822,0.267475,0.10476,0
2024-12-13 15:35:07.650,-0.00239282,2.9686,9.92124,0.106822,0.267475,0.10476,0
2024-12-13 15:35:07.650,-0.00239282,2.9686,9.92124,0.106822,0.267475,0.10476,0
2024-12-13 15:35:07.650,-0.00239282,2.9686,9.92124,0.106822,0.267475,0.10476,0
2024-12-13 15:35:07.650,-0.00239282,2.9686,9.92124,0.106822,0.267475,0.10476,0
2024-12-13 15:35:07.652,-0.00239282,2.9686,9.87338,0.11965,0.280303,0.112701,0
2024-12-13 15:35:07.652,-0.00239282,2.9686,9.87338,0.11965,0.280303,0.112701,0
2024-12-13 15:35:07.652,-0.00239282,2.9686,9.87338,0.11965,0.280303,0.112701,0
2024-12-13 15:35:07.652,-0.00239282,2.9686,9.87338,0.11965,0.280303,0.112701,0
2024-12-13 15:35:07.652,-0.00239282,2.9686,9.87338,0.11965,0.280303,0.112701,0
2024-12-13 15:35:07.652,-0.00239282,2.9686,9.87338,0.11965,0.280303,0.112701,0
2024-12-13 15:35:07.652,-0.00239282,2.9686,9.87338,0.11965,0.280303,0.112701,0
2024-12-13 15:35:07.652,-0.00239282,2.9686,9.87338,0.11965,0.280303,0.112701,0
2024-12-13 15:35:07.655,-0.0287139,2.96142,9.80848,0.127591,0.289465,0.119421,0
2024-12-13 15:35:07.655,-0.0287139,2.96142,9.80848,0.127591,0.289465,0.119421,0
2024-12-13 15:35:07.655,-0.0287139,2.96142,9.80848,0.127591,0.289465,0.119421,0
2024-12-13 15:35:07.655,-0.0287139,2.96142,9.80848,0.127591,0.289465,0.119421,0
2024-12-13 15:35:07.655,-0.0287139,2.96142,9.80848,0.127591,0.289465,0.119421,0
2024-12-13 15:35:07.655,-0.0287139,2.96142,9.80848,0.127591,0.289465,0.119421,0
2024-12-13 15:35:07.657,-0.0478565,2.95424,9.73909,0.137975,0.298017,0.127972,0
2024-12-13 15:35:07.657,-0.0478565,2.95424,9.73909,0.137975,0.298017,0.127972,0
2024-12-13 15:35:07.657,-0.0478565,2.95424,9.73909,0.137975,0.298017,0.127972,0
2024-12-13 15:35:07.657,-0.0478565,2.95424,9.73909,0.137975,0.298017,0.127972,0
2024-12-13 15:35:07.657,-0.0478565,2.95424,9.73909,0.137975,0.298017,0.127972,0
2024-12-13 15:35:07.657,-0.0478565,2.95424,9.73909,0.137975,0.298017,0.127972,0
2024-12-13 15:35:07.659,-0.0550349,2.93988,9.67209,0.145305,0.302293,0.134768,0
2024-12-13 15:35:07.659,-0.0478565,2.93988,9.67209,0.145305,0.302293,0.134768,0
2024-12-13 15:35:07.659,-0.0550349,2.93988,9.67209,0.145305,0.302293,0.134768,0
2024-12-13 15:35:07.659,-0.0550349,2.93988,9.67209,0.145305,0.302293,0.134768,0
2024-12-13 15:35:07.659,-0.0550349,2.93988,9.67209,0.145305,0.302293,0.134768,0
2024-12-13 15:35:07.660,-0.0550349,2.93988,9.67209,0.153857,0.304126,0.14332,0
2024-12-13 15:35:07.662,-0.0717847,2.92552,9.60987,0.153857,0.304126,0.14332,0
2024-12-13 15:35:07.662,-0.0717847,2.92552,9.60987,0.153857,0.304126,0.14332,0
2024-12-13 15:35:07.662,-0.0717847,2.92552,9.60987,0.153857,0.304126,0.14332,0
2024-12-13 15:35:07.662,-0.0717847,2.92552,9.60987,0.153857,0.304126,0.14332,0
2024-12-13 15:35:07.662,-0.0717847,2.92552,9.60987,0.153857,0.304126,0.14332,0
2024-12-13 15:35:07.662,-0.0717847,2.92552,9.60987,0.153857,0.304126,0.14332,0
2024-12-13 15:35:07.664,-0.0885344,2.91117,9.55484,0.160576,0.304126,0.150039,0
2024-12-13 15:35:07.664,-0.0885344,2.91117,9.55484,0.160576,0.304126,0.150039,0
2024-12-13 15:35:07.664,-0.0885344,2.91117,9.55484,0.160576,0.304126,0.150039,0
2024-12-13 15:35:07.664,-0.0885344,2.91117,9.55484,0.160576,0.304126,0.150039,0
2024-12-13 15:35:07.664,-0.0885344,2.91117,9.55484,0.160576,0.304126,0.150039,0
2024-12-13 15:35:07.666,-0.0885344,2.90638,9.49263,0.167296,0.302293,0.15737,0
2024-12-13 15:35:07.666,-0.0885344,2.90638,9.49263,0.167296,0.302293,0.15737,0
2024-12-13 15:35:07.666,-0.0885344,2.90638,9.49263,0.167296,0.302293,0.15737,0
2024-12-13 15:35:07.666,-0.0885344,2.90638,9.49263,0.167296,0.302293,0.15737,0
2024-12-13 15:35:07.666,-0.0885344,2.90638,9.49263,0.167296,0.302293,0.15737,0
2024-12-13 15:35:07.667,-0.0885344,2.90638,9.49263,0.172793,0.301682,0.166532,0
2024-12-13 15:35:07.669,-0.0885344,2.8992,9.42323,0.172793,0.301682,0.166532,0
2024-12-13 15:35:07.669,-0.0885344,2.8992,9.42323,0.172793,0.301682,0.166532,0
2024-12-13 15:35:07.669,-0.0885344,2.8992,9.42323,0.172793,0.301682,0.166532,0
2024-12-13 15:35:07.669,-0.0885344,2.8992,9.42323,0.172793,0.301682,0.166532,0
2024-12-13 15:35:07.669,-0.0885344,2.8992,9.42323,0.172793,0.301682,0.166532,0
2024-12-13 15:35:07.669,-0.0885344,2.8992,9.42323,0.172793,0.301682,0.166532,0
2024-12-13 15:35:07.669,-0.0885344,2.8992,9.42323,0.172793,0.301682,0.166532,0
2024-12-13 15:35:07.671,-0.0837488,2.89203,9.36341,0.180124,0.296185,0.173862,0
2024-12-13 15:35:07.671,-0.0837488,2.89203,9.36341,0.180124,0.296185,0.173862,0
2024-12-13 15:35:07.671,-0.0837488,2.89203,9.36341,0.180124,0.296185,0.173862,0
2024-12-13 15:35:07.671,-0.0837488,2.89203,9.36341,0.180124,0.296185,0.173862,0
2024-12-13 15:35:07.671,-0.0837488,2.89203,9.36341,0.180124,0.296185,0.173862,0
2024-12-13 15:35:07.671,-0.0837488,2.89203,9.36341,0.180124,0.296185,0.173862,0
2024-12-13 15:35:07.673,-0.0789631,2.89681,9.29163,0.1844,0.291909,0.181803,0
2024-12-13 15:35:07.673,-0.0789631,2.89681,9.29163,0.1844,0.291909,0.181803,0
2024-12-13 15:35:07.673,-0.0789631,2.89681,9.29163,0.1844,0.291909,0.181803,0
2024-12-13 15:35:07.673,-0.0789631,2.89681,9.29163,0.1844,0.291909,0.181803,0
2024-12-13 15:35:07.673,-0.0789631,2.89681,9.29163,0.1844,0.291909,0.181803,0
2024-12-13 15:35:07.673,-0.0789631,2.89681,9.29163,0.1844,0.291909,0.181803,0
2024-12-13 15:35:07.673,-0.0789631,2.89681,9.29163,0.1844,0.291909,0.181803,0
2024-12-13 15:35:07.673,-0.0789631,2.89681,9.29163,0.1844,0.291909,0.181803,0
2024-12-13 15:35:07.676,-0.0957129,2.89681,9.19322,0.188675,0.285189,0.187301,0
2024-12-13 15:35:07.676,-0.0957129,2.89681,9.19322,0.188675,0.285189,0.187301,0
2024-12-13 15:35:07.676,-0.0957129,2.89681,9.19322,0.188675,0.285189,0.187301,0
2024-12-13 15:35:07.677,-0.0957129,2.89681,9.19322,0.191119,0.276027,0.195853,0
2024-12-13 15:35:07.678,-0.0981057,2.88485,9.1023,0.191119,0.276027,0.195853,0
2024-12-13 15:35:07.678,-0.0981057,2.88485,9.1023,0.191119,0.276027,0.195853,0
2024-12-13 15:35:07.678,-0.0981057,2.88485,9.1023,0.191119,0.276027,0.195853,0
2024-12-13 15:35:07.678,-0.0981057,2.88485,9.1023,0.191119,0.276027,0.195853,0
2024-12-13 15:35:07.678,-0.0981057,2.88485,9.1023,0.191119,0.276027,0.195853,0
2024-12-13 15:35:07.678,-0.0981057,2.88485,9.1023,0.191119,0.276027,0.195853,0
2024-12-13 15:35:07.678,-0.0981057,2.88485,9.1023,0.191119,0.276027,0.195853,0
2024-12-13 15:35:07.678,-0.0981057,2.88485,9.1023,0.191119,0.276027,0.195853,0
2024-12-13 15:35:07.680,-0.102891,2.88245,9.03051,0.196006,0.266864,0.198907,0
2024-12-13 15:35:07.680,-0.102891,2.88245,9.03051,0.196006,0.266864,0.198907,0
2024-12-13 15:35:07.680,-0.102891,2.88245,9.03051,0.196006,0.266864,0.198907,0
2024-12-13 15:35:07.680,-0.102891,2.88245,9.03051,0.196006,0.266864,0.198907,0
2024-12-13 15:35:07.680,-0.102891,2.88245,9.03051,0.196006,0.266864,0.198907,0
2024-12-13 15:35:07.681,-0.102891,2.88245,9.03051,0.196006,0.266864,0.198907,0
2024-12-13 15:35:07.683,-0.107677,2.88245,8.94198,0.199671,0.258923,0.202572,0
2024-12-13 15:35:07.683,-0.107677,2.88245,8.94198,0.199671,0.258923,0.202572,0
2024-12-13 15:35:07.683,-0.107677,2.88245,8.94198,0.199671,0.258923,0.202572,0
2024-12-13 15:35:07.683,-0.107677,2.88245,8.94198,0.199671,0.258923,0.202572,0
2024-12-13 15:35:07.683,-0.107677,2.88245,8.94198,0.199671,0.258923,0.202572,0
2024-12-13 15:35:07.683,-0.107677,2.88245,8.94198,0.199671,0.258923,0.202572,0
2024-12-13 15:35:07.683,-0.107677,2.88245,8.94198,0.199671,0.258923,0.202572,0
2024-12-13 15:35:07.683,-0.107677,2.88245,8.94198,0.199671,0.258923,0.202572,0
2024-12-13 15:35:07.683,-0.107677,2.88245,8.94198,0.199671,0.258923,0.202572,0
2024-12-13 15:35:07.685,-0.0933201,2.88724,8.83909,0.202725,0.251593,0.20807,0
2024-12-13 15:35:07.685,-0.0933201,2.88724,8.83909,0.202725,0.251593,0.20807,0
2024-12-13 15:35:07.685,-0.0933201,2.88724,8.83909,0.202725,0.251593,0.20807,0
2024-12-13 15:35:07.685,-0.0933201,2.88724,8.83909,0.202725,0.251593,0.20807,0
2024-12-13 15:35:07.687,-0.0765703,2.88006,8.75055,0.204557,0.24243,0.213567,0
2024-12-13 15:35:07.687,-0.0765703,2.88006,8.75055,0.204557,0.24243,0.213567,0
2024-12-13 15:35:07.687,-0.0765703,2.88006,8.75055,0.204557,0.24243,0.213567,0
2024-12-13 15:35:07.687,-0.0765703,2.88006,8.75055,0.204557,0.24243,0.213567,0
2024-12-13 15:35:07.687,-0.0765703,2.88006,8.75055,0.204557,0.24243,0.213567,0
2024-12-13 15:35:07.687,-0.0765703,2.88006,8.75055,0.204557,0.24243,0.213567,0
2024-12-13 15:35:07.690,-0.0550349,2.8657,8.6689,0.20639,0.233878,0.213567,0
2024-12-13 15:35:07.690,-0.0550349,2.8657,8.6689,0.20639,0.233878,0.213567,0
2024-12-13 15:35:07.690,-0.0550349,2.8657,8.6689,0.20639,0.233878,0.213567,0
2024-12-13 15:35:07.690,-0.0550349,2.8657,8.6689,0.20639,0.233878,0.213567,0
2024-12-13 15:35:07.690,-0.0550349,2.8657,8.6689,0.20639,0.233878,0.213567,0
2024-12-13 15:35:07.690,-0.0550349,2.8657,8.6689,0.20639,0.233878,0.213567,0
2024-12-13 15:35:07.690,-0.0550349,2.8657,8.6689,0.20639,0.233878,0.213567,0
2024-12-13 15:35:07.692,-0.0502493,2.87288,8.59233,0.20639,0.225937,0.216622,0
2024-12-13 15:35:07.692,-0.0502493,2.87288,8.59233,0.20639,0.225937,0.216622,0
2024-12-13 15:35:07.692,-0.0502493,2.87288,8.59233,0.20639,0.225937,0.216622,0
2024-12-13 15:35:07.692,-0.0502493,2.87288,8.59233,0.20639,0.225937,0.216622,0
2024-12-13 15:35:07.692,-0.0502493,2.87288,8.59233,0.20639,0.225937,0.216622,0
2024-12-13 15:35:07.692,-0.0502493,2.87288,8.59233,0.20639,0.225937,0.216622,0
2024-12-13 15:35:07.692,-0.0502493,2.87288,8.59233,0.20639,0.225937,0.216622,0
2024-12-13 15:35:07.695,-0.0382852,2.86331,8.50619,0.207612,0.216774,0.219676,0
2024-12-13 15:35:07.695,-0.0382852,2.86331,8.50619,0.207612,0.216774,0.219676,0
2024-12-13 15:35:07.695,-0.0382852,2.86331,8.50619,0.207612,0.216774,0.219676,0
2024-12-13 15:35:07.695,-0.0382852,2.86331,8.50619,0.207612,0.216774,0.219676,0
2024-12-13 15:35:07.695,-0.0382852,2.86331,8.50619,0.207612,0.216774,0.219676,0
2024-12-13 15:35:07.695,-0.0382852,2.86331,8.50619,0.207612,0.216774,0.219676,0
2024-12-13 15:35:07.697,-0.0382852,2.83699,8.42483,0.209444,0.207612,0.219676,0
2024-12-13 15:35:07.697,-0.00957129,2.83699,8.42483,0.209444,0.207612,0.219676,0
2024-12-13 15:35:07.697,-0.00957129,2.83699,8.42483,0.209444,0.207612,0.219676,0
2024-12-13 15:35:07.697,-0.00957129,2.83699,8.42483,0.209444,0.207612,0.219676,0
2024-12-13 15:35:07.697,-0.00957129,2.83699,8.42483,0.209444,0.207612,0.219676,0
2024-12-13 15:35:07.697,-0.00957129,2.83699,8.42483,0.209444,0.207612,0.219676,0
2024-12-13 15:35:07.699,0.00957129,2.83938,8.36501,0.207001,0.199671,0.220898,0
2024-12-13 15:35:07.699,0.00957129,2.83938,8.36501,0.207001,0.199671,0.220898,0
2024-12-13 15:35:07.699,0.00957129,2.83938,8.36501,0.207001,0.199671,0.220898,0
2024-12-13 15:35:07.699,0.00957129,2.83938,8.36501,0.207001,0.199671,0.220898,0
2024-12-13 15:35:07.699,0.00957129,2.83938,8.36501,0.207001,0.199671,0.220898,0
2024-12-13 15:35:07.699,0.00957129,2.83938,8.36501,0.207001,0.199671,0.220898,0
2024-12-13 15:35:07.699,0.00957129,2.83938,8.36501,0.207001,0.199671,0.220898,0
2024-12-13 15:35:07.702,0.0143569,2.8322,8.29801,0.204557,0.192951,0.221508,0
2024-12-13 15:35:07.702,0.0143569,2.8322,8.29801,0.204557,0.192951,0.221508,0
2024-12-13 15:35:07.702,0.0143569,2.8322,8.29801,0.204557,0.192951,0.221508,0
2024-12-13 15:35:07.702,0.0143569,2.8322,8.29801,0.204557,0.192951,0.221508,0
2024-12-13 15:35:07.702,0.0143569,2.8322,8.29801,0.204557,0.192951,0.221508,0
2024-12-13 15:35:07.702,0.0143569,2.8322,8.29801,0.204557,0.192951,0.221508,0
2024-12-13 15:35:07.702,0.0143569,2.8322,8.29801,0.204557,0.192951,0.221508,0
2024-12-13 15:35:07.704,0.0239282,2.81306,8.2358,0.205168,0.183178,0.221508,0
2024-12-13 15:35:07.704,0.0239282,2.81306,8.2358,0.205168,0.183178,0.221508,0
2024-12-13 15:35:07.704,0.0239282,2.81306,8.2358,0.205168,0.183178,0.221508,0
2024-12-13 15:35:07.704,0.0239282,2.81306,8.2358,0.205168,0.183178,0.221508,0
2024-12-13 15:35:07.706,0.0382852,2.78913,8.1664,0.205779,0.175237,0.222119,0
2024-12-13 15:35:07.706,0.0382852,2.78913,8.1664,0.205779,0.175237,0.222119,0
2024-12-13 15:35:07.706,0.0382852,2.78913,8.1664,0.205779,0.175237,0.222119,0
2024-12-13 15:35:07.706,0.0382852,2.78913,8.1664,0.205779,0.175237,0.222119,0
2024-12-13 15:35:07.706,0.0382852,2.78913,8.1664,0.205779,0.175237,0.222119,0
2024-12-13 15:35:07.706,0.0382852,2.78913,8.1664,0.205779,0.175237,0.222119,0
2024-12-13 15:35:07.706,0.0382852,2.78913,8.1664,0.205779,0.175237,0.222119,0
2024-12-13 15:35:07.709,0.0382852,2.78913,8.1664,0.202114,0.167907,0.225174,0
2024-12-13 15:35:07.709,0.0382852,2.77238,8.10629,0.202114,0.167907,0.225174,0
2024-12-13 15:35:07.709,0.0382852,2.77238,8.10629,0.202114,0.167907,0.225174,0
2024-12-13 15:35:07.709,0.0382852,2.77238,8.10629,0.202114,0.167907,0.225174,0
2024-12-13 15:35:07.709,0.0382852,2.77238,8.10629,0.202114,0.167907,0.225174,0
2024-12-13 15:35:07.709,0.0382852,2.77238,8.10629,0.202114,0.167907,0.225174,0
2024-12-13 15:35:07.709,0.0382852,2.77238,8.10629,0.202114,0.167907,0.225174,0
2024-12-13 15:35:07.709,0.0382852,2.77238,8.10629,0.202114,0.167907,0.225174,0
2024-12-13 15:35:07.711,0.0430708,2.75563,8.07039,0.201503,0.16302,0.224563,0
2024-12-13 15:35:07.711,0.0430708,2.75563,8.07039,0.201503,0.16302,0.224563,0
2024-12-13 15:35:07.711,0.0430708,2.75563,8.07039,0.201503,0.16302,0.224563,0
2024-12-13 15:35:07.711,0.0430708,2.75563,8.07039,0.201503,0.16302,0.224563,0
2024-12-13 15:35:07.711,0.0430708,2.75563,8.07039,0.201503,0.16302,0.224563,0
2024-12-13 15:35:07.711,0.0430708,2.75563,8.07039,0.201503,0.16302,0.224563,0
2024-12-13 15:35:07.711,0.0430708,2.75563,8.07039,0.201503,0.16302,0.224563,0
2024-12-13 15:35:07.711,0.0430708,2.75563,8.07039,0.201503,0.16302,0.224563,0
2024-12-13 15:35:07.713,0.0502493,2.73171,8.02254,0.201503,0.160576,0.227617,0
2024-12-13 15:35:07.713,0.0502493,2.73171,8.02254,0.201503,0.160576,0.227617,0
2024-12-13 15:35:07.713,0.0502493,2.73171,8.02254,0.201503,0.160576,0.227617,0
2024-12-13 15:35:07.713,0.0502493,2.73171,8.02254,0.201503,0.160576,0.227617,0
2024-12-13 15:35:07.713,0.0502493,2.73171,8.02254,0.201503,0.160576,0.227617,0
2024-12-13 15:35:07.714,0.0502493,2.73171,8.02254,0.201503,0.160576,0.227617,0
2024-12-13 15:35:07.716,0.066999,2.70299,7.9675,0.202725,0.15569,0.23006,0
2024-12-13 15:35:07.716,0.066999,2.70299,7.9675,0.202725,0.15569,0.23006,0
2024-12-13 15:35:07.716,0.066999,2.70299,7.9675,0.202725,0.15569,0.23006,0
2024-12-13 15:35:07.716,0.066999,2.70299,7.9675,0.202725,0.15569,0.23006,0
2024-12-13 15:35:07.716,0.066999,2.70299,7.9675,0.202725,0.15569,0.23006,0
2024-12-13 15:35:07.716,0.066999,2.70299,7.9675,0.202725,0.15569,0.23006,0
2024-12-13 15:35:07.718,0.0789631,2.66471,7.92204,0.200892,0.151414,0.230671,0
2024-12-13 15:35:07.718,0.0789631,2.66471,7.92204,0.200892,0.151414,0.230671,0
2024-12-13 15:35:07.718,0.0789631,2.66471,7.92204,0.200892,0.151414,0.230671,0
2024-12-13 15:35:07.718,0.0789631,2.66471,7.92204,0.200892,0.151414,0.230671,0
2024-12-13 15:35:07.718,0.0789631,2.66471,7.92204,0.200892,0.151414,0.230671,0
2024-12-13 15:35:07.718,0.0789631,2.66471,7.92204,0.200892,0.151414,0.230671,0
2024-12-13 15:35:07.720,0.0789631,2.64078,7.88854,0.204557,0.150803,0.235558,0
2024-12-13 15:35:07.720,0.0789631,2.64078,7.88854,0.204557,0.150803,0.235558,0
2024-12-13 15:35:07.720,0.0789631,2.64078,7.88854,0.204557,0.150803,0.235558,0
2024-12-13 15:35:07.723,0.0861416,2.61207,7.84786,0.205779,0.147138,0.239223,0
2024-12-13 15:35:07.725,0.0981057,2.57857,7.8,0.211277,0.147138,0.242277,0
2024-12-13 15:35:07.728,0.119641,2.55703,7.75454,0.217996,0.145305,0.247164,0
2024-12-13 15:35:07.730,0.153141,2.54267,7.71625,0.219218,0.142251,0.250829,0
2024-12-13 15:35:07.732,0.191426,2.53071,7.69472,0.226548,0.139808,0.254494,0
2024-12-13 15:35:07.735,0.234497,2.49452,7.66601,0.230824,0.137364,0.259381,0
2024-12-13 15:35:07.737,0.282652,2.45863,7.60858,0.239987,0.137364,0.261824,0
2024-12-13 15:35:07.742,0.328116,2.4323,7.48864,0.257701,0.133699,0.2661,0
2024-12-13 15:35:07.742,0.354437,2.41555,7.48864,0.257701,0.133699,0.2661,0
2024-12-13 15:35:07.744,0.387936,2.3988,7.40967,0.266253,0.133088,0.269765,0
2024-12-13 15:35:07.746,0.41665,2.3677,7.32114,0.275416,0.131256,0.274041,0
2024-12-13 15:35:07.749,0.45015,2.35813,7.21825,0.285189,0.12698,0.275874,0
2024-12-13 15:35:07.751,0.490828,2.3342,7.12493,0.29313,0.124536,0.277096,0
2024-12-13 15:35:07.753,0.512363,2.3007,7.02922,0.29985,0.123315,0.275874,0
2024-12-13 15:35:07.756,0.521934,2.28873,6.92842,0.306569,0.118428,0.278317,0
2024-12-13 15:35:07.758,0.533899,2.27199,6.82553,0.313288,0.115985,0.278928,0
2024-12-13 15:35:07.760,0.538684,2.26481,6.70349,0.320008,0.11293,0.28015,0
2024-12-13 15:35:07.763,0.555434,2.27199,6.59821,0.325505,0.106822,0.283815,0
2024-12-13 15:35:07.765,0.576969,2.27916,6.5025,0.330392,0.101324,0.283204,0
2024-12-13 15:35:07.768,0.588933,2.27199,6.38256,0.33589,0.094605,0.282593,0
2024-12-13 15:35:07.770,0.596112,2.26241,6.26052,0.340166,0.0884965,0.283204,0
2024-12-13 15:35:07.772,0.598505,2.25763,6.13609,0.34322,0.0793338,0.285647,0
2024-12-13 15:35:07.775,0.617647,2.26481,6.01885,0.348107,0.0726145,0.282593,0
2024-12-13 15:35:07.777,0.646361,2.28156,5.90638,0.349328,0.0634518,0.282593,0
2024-12-13 15:35:07.779,0.667897,2.27916,5.77687,0.348107,0.0548999,0.277706,0
2024-12-13 15:35:07.782,0.672682,2.28156,5.65484,0.349328,0.0481806,0.274041,0
2024-12-13 15:35:07.784,0.689432,2.29831,5.52563,0.346885,0.0414613,0.270987,0
2024-12-13 15:35:07.786,0.71336,2.32463,5.39163,0.345663,0.0359636,0.263046,0
2024-12-13 15:35:07.789,0.725324,2.3342,5.26212,0.34322,0.0292443,0.257548,0
2024-12-13 15:35:07.791,0.727717,2.33181,5.1353,0.337722,0.0213033,0.250829,0
2024-12-13 15:35:07.793,0.708575,2.34856,5.02283,0.333446,0.0139731,0.245942,0
2024-12-13 15:35:07.796,0.699003,2.38923,4.90559,0.327338,0.00603212,0.235558,0
2024-12-13 15:35:07.798,0.691825,2.42991,4.8003,0.317564,-7.63559e-05,0.227006,0
2024-12-13 15:35:07.801,0.675075,2.43948,4.69711,0.309012,-0.00679568,0.217843,0
2024-12-13 15:35:07.803,0.655932,2.45145,4.59422,0.295574,-0.0141258,0.210513,0
2024-12-13 15:35:07.805,0.632004,2.48734,4.50808,0.280913,-0.0202343,0.201961,0
2024-12-13 15:35:07.808,0.608076,2.54267,4.42672,0.263199,-0.0232886,0.194631,0
2024-12-13 15:35:07.810,0.591326,2.58574,4.37169,0.245484,-0.0281753,0.187301,0
2024-12-13 15:35:07.812,0.584148,2.61446,4.33819,0.222883,-0.0306187,0.179971,0
2024-12-13 15:35:07.815,0.565005,2.65992,4.30947,0.195395,-0.0300079,0.171419,0
2024-12-13 15:35:07.817,0.531506,2.70778,4.30947,0.169128,-0.0287862,0.1647,0
2024-12-13 15:35:07.819,0.500399,2.75324,4.32862,0.138586,-0.0275645,0.160424,0
2024-12-13 15:35:07.822,0.476471,2.78913,4.37169,0.109876,-0.0226777,0.156148,0
2024-12-13 15:35:07.824,0.471685,2.82503,4.47458,0.0781121,-0.0190126,0.151261,0
2024-12-13 15:35:07.826,0.464507,2.85374,4.58943,0.0457372,-0.00435229,0.15065,0
2024-12-13 15:35:07.829,0.464507,2.88245,4.73061,0.0139731,0.0109189,0.146374,0
2024-12-13 15:35:07.831,0.490828,2.92552,4.88405,-0.0171801,0.0298552,0.145763,0
2024-12-13 15:35:07.834,0.529113,2.96381,5.0324,-0.0477224,0.0524565,0.143931,0
2024-12-13 15:35:07.838,0.648754,3.03081,5.40838,-0.10331,0.0994917,0.140877,0
2024-12-13 15:35:07.838,0.648754,3.03081,5.40838,-0.10331,0.0994917,0.140877,0
2024-12-13 15:35:07.841,0.706182,3.07627,5.54716,-0.131409,0.118428,0.137212,0
2024-12-13 15:35:07.843,0.737288,3.11246,5.68355,-0.155232,0.137364,0.13599,0
2024-12-13 15:35:07.845,0.734896,3.14357,5.86062,-0.179055,0.152635,0.136601,0
2024-12-13 15:35:07.848,0.725324,3.17946,6.05952,-0.203488,0.168517,0.137212,0
2024-12-13 15:35:07.850,0.727717,3.22014,6.24856,-0.224257,0.183178,0.139655,0
2024-12-13 15:35:07.852,0.710967,3.23689,6.41127,-0.245637,0.194173,0.140877,0
2024-12-13 15:35:07.856,0.682254,3.23928,6.57189,-0.277401,0.216774,0.153094,0
2024-12-13 15:35:07.857,0.65354,3.25364,6.74178,-0.277401,0.216774,0.153094,0
2024-12-13 15:35:07.859,0.62004,3.27996,6.91885,-0.287785,0.228991,0.162256,0
2024-12-13 15:35:07.862,0.60329,3.28714,7.11536,-0.303667,0.245484,0.170808,0
2024-12-13 15:35:07.866,0.605683,3.25843,7.53649,-0.321382,0.279692,0.191577,0
2024-12-13 15:35:07.866,0.605683,3.25843,7.53649,-0.321382,0.279692,0.191577,0
2024-12-13 15:35:07.869,0.612862,3.22253,7.74975,-0.328712,0.299239,0.203183,0
2024-12-13 15:35:07.871,0.593719,3.201,7.96032,-0.336042,0.321229,0.2154,0
2024-12-13 15:35:07.874,0.567398,3.19143,8.17119,-0.337875,0.341387,0.229449,0
2024-12-13 15:35:07.876,0.548256,3.18425,8.38415,-0.338486,0.358491,0.244721,0
2024-12-13 15:35:07.878,0.514756,3.16989,8.6019,-0.336653,0.373762,0.259992,0
2024-12-13 15:35:07.881,0.471685,3.15793,8.81516,-0.331766,0.388422,0.275263,0
2024-12-13 15:35:07.883,0.426222,3.14596,9.04726,-0.326269,0.401861,0.289923,0
2024-12-13 15:35:07.885,0.380758,3.13161,9.28206,-0.320771,0.417132,0.307027,0
2024-12-13 15:35:07.888,0.352044,3.13639,9.50459,-0.307333,0.430571,0.322298,0
2024-12-13 15:35:07.890,0.330509,3.14118,9.72952,-0.292061,0.44462,0.33818,0
2024-12-13 15:35:07.892,0.30658,3.14118,9.9332,-0.275568,0.456227,0.353451,0
2024-12-13 15:35:07.895,0.301795,3.16989,10.1031,-0.256021,0.469054,0.36689,0
2024-12-13 15:35:07.897,0.289831,3.21057,10.2754,-0.235863,0.479439,0.378496,0
2024-12-13 15:35:07.899,0.272782,3.23689,10.448,-0.21143,0.492267,0.389491,0
2024-12-13 15:35:07.902,0.263211,3.27757,10.5796,-0.187606,0.503262,0.397433,0
2024-12-13 15:35:07.904,0.265603,3.34218,10.6777,-0.160729,0.51609,0.404152,0
2024-12-13 15:35:07.907,0.272782,3.40439,10.7542,-0.136295,0.528307,0.408428,0
2024-12-13 15:35:07.909,0.287438,3.48335,10.7973,-0.111251,0.539302,0.409649,0
2024-12-13 15:35:07.911,0.299402,3.57189,10.8117,-0.0862058,0.55274,0.412704,0
2024-12-13 15:35:07.914,0.30658,3.65593,10.7806,-0.0862058,0.55274,0.412704,0
2024-12-13 15:35:07.916,0.30658,3.74686,10.7255,-0.0471116,0.572898,0.405374,0
2024-12-13 15:35:07.918,0.292223,3.82822,10.6657,-0.0300079,0.582061,0.400487,0
2024-12-13 15:35:07.921,0.282652,3.89043,10.5772,-0.013515,0.590613,0.394989,0
2024-12-13 15:35:07.923,0.272782,3.93589,10.4551,-0.00251974,0.592445,0.383994,0
2024-12-13 15:35:07.925,0.267996,3.98375,10.3448,-0.00251974,0.592445,0.383994,0
2024-12-13 15:35:07.928,0.244068,4.02204,10.2491,0.000534491,0.590002,0.357727,0
2024-12-13 15:35:07.930,0.20339,4.03639,10.1653,-0.00496313,0.577785,0.343067,0
2024-12-13 15:35:07.932,0.157926,4.034,10.1222,-0.013515,0.560071,0.325963,0
2024-12-13 15:35:07.935,0.0885344,4.02204,10.1151,-0.0263428,0.535637,0.307027,0
2024-12-13 15:35:07.937,-0.00957129,4.01007,10.1486,-0.0477224,0.501429,0.288702,0
2024-12-13 15:35:07.939,-0.12682,3.99093,10.2347,-0.0709346,0.462335,0.27282,0
2024-12-13 15:35:07.942,-0.27996,3.96939,10.3687,-0.102699,0.418354,0.259381,0
2024-12-13 15:35:07.944,-0.438186,3.967,10.5341,-0.132019,0.368875,0.24411,0
2024-12-13 15:35:07.947,-0.565005,3.96461,10.7279,-0.165005,0.315732,0.233115,0
2024-12-13 15:35:07.949,-0.689432,3.96461,10.9819,-0.196769,0.258923,0.223341,0
2024-12-13 15:35:07.951,-0.804287,3.96222,11.2834,-0.235863,0.19906,0.2154,0
2024-12-13 15:35:07.954,-0.890728,3.95025,11.621,-0.272514,0.136143,0.208681,0
2024-12-13 15:35:07.956,-0.967299,3.9335,12.0063,-0.309165,0.0707819,0.201351,0
2024-12-13 15:35:07.958,-1.0319,3.90718,12.4158,-0.345816,0.00297788,0.195242,0
2024-12-13 15:35:07.961,-1.05823,3.87607,12.8324,-0.37758,-0.0636045,0.189134,0
2024-12-13 15:35:07.963,-1.0678,3.85215,13.2802,-0.404457,-0.132019,0.181803,0
2024-12-13 15:35:07.965,-1.0678,3.80907,13.7686,-0.427669,-0.19738,0.174473,0
2024-12-13 15:35:07.970,-1.07019,3.67029,14.7212,-0.467985,-0.318939,0.158591,0
2024-12-13 15:35:07.970,-1.07019,3.67029,14.7212,-0.467985,-0.318939,0.158591,0
2024-12-13 15:35:07.972,-1.04148,3.58864,15.1834,-0.474705,-0.376358,0.150039,0
2024-12-13 15:35:07.975,-0.998405,3.50489,15.6431,-0.480813,-0.430113,0.141487,0
2024-12-13 15:35:07.977,-0.94337,3.41635,16.0789,-0.477759,-0.477759,0.132248,0
2024-12-13 15:35:07.980,-0.871586,3.3326,16.4809,-0.469207,-0.519297,0.122475,0
2024-12-13 15:35:07.982,-0.768395,3.23689,16.8544,-0.456379,-0.557169,0.11209,0
2024-12-13 15:35:07.984,-0.41665,3.15314,17.1323,-0.438665,-0.590766,0.101095,0
2024-12-13 15:35:07.987,0.734896,3.19861,17.0746,-0.422172,-0.650018,0.0748288,0
2024-12-13 15:35:07.989,1.03908,3.25843,17.4697,-0.411787,-0.714157,0.0235176,0
2024-12-13 15:35:07.991,0.205783,3.22971,17.9749,-0.379413,-0.733704,-0.00824644,0
2024-12-13 15:35:07.994,-0.337687,3.14357,18.1161,-0.346427,-0.749586,-0.025961,0
2024-12-13 15:35:07.996,-0.837787,2.98535,18.5207,-0.303667,-0.753251,-0.0302369,0
2024-12-13 15:35:07.999,-1.28076,2.85135,18.8201,-0.249913,-0.742867,-0.0222959,0
2024-12-13 15:35:08.001,-1.74048,2.7676,18.8154,-0.193715,-0.711713,-0.000305424,0
2024-12-13 15:35:08.003,-2.20977,2.56182,18.9254,-0.136295,-0.668954,0.0351237,0
2024-12-13 15:35:08.005,-2.34377,2.19541,19.1528,-0.0752106,-0.632303,0.0839915,2
2024-12-13 15:35:08.008,-2.03749,1.81944,19.2054,-0.00801737,-0.604204,0.130416,0
2024-12-13 15:35:08.010,-1.6328,1.48205,19.1839,0.0555107,-0.57916,0.170808,0
2024-12-13 15:35:08.013,-1.23769,1.19701,19.0355,0.122704,-0.55045,0.202572,0
2024-12-13 15:35:08.017,-0.440578,0.835394,18.5375,0.253425,-0.485089,0.240445,0
2024-12-13 15:35:08.020,-0.172283,0.859622,18.1663,0.315732,-0.444773,0.249607,0
2024-12-13 15:35:08.020,-0.172283,0.859622,18.1663,0.315732,-0.444773,0.249607,0
2024-12-13 15:35:08.022,-0.0526421,1.02473,17.5965,0.374449,-0.389186,0.256938,0
2024-12-13 15:35:08.024,-0.0239282,1.28076,16.9932,0.427593,-0.325658,0.263657,0
2024-12-13 15:35:08.027,-0.0789631,1.58734,16.5,0.472796,-0.259686,0.271598,0
2024-12-13 15:35:08.029,-0.184247,1.84576,16.0789,0.522274,-0.196158,0.280761,0
2024-12-13 15:35:08.031,-0.320937,2.09731,15.7292,0.566255,-0.13996,0.296032,0
2024-12-13 15:35:08.034,-0.435793,2.33181,15.4083,0.610847,-0.0923143,0.312525,0
2024-12-13 15:35:08.036,-0.488435,2.49691,15.0374,0.649331,-0.0623828,0.328407,0
2024-12-13 15:35:08.038,-0.500399,2.60249,14.6806,0.68476,-0.0434465,0.341235,0
2024-12-13 15:35:08.041,-0.478864,2.64317,14.3408,0.717135,-0.0342838,0.351619,0
2024-12-13 15:35:08.045,-0.342473,2.63839,13.6128,0.769057,-0.0391706,0.366279,0
2024-12-13 15:35:08.045,-0.342473,2.63839,13.6128,0.769057,-0.0391706,0.366279,0
2024-12-13 15:35:08.048,-0.265603,2.68624,13.2395,0.791047,-0.0465007,0.369944,0
2024-12-13 15:35:08.050,-0.22014,2.70778,12.8707,0.803875,-0.0544418,0.368723,0
2024-12-13 15:35:08.053,-0.217747,2.74128,12.521,0.817314,-0.0617719,0.365668,0
2024-12-13 15:35:08.055,-0.263211,2.79631,12.186,0.824644,-0.0697129,0.360782,0
2024-12-13 15:35:08.057,-0.335294,2.85135,11.8555,0.827698,-0.0788757,0.355895,0
2024-12-13 15:35:08.060,-0.41665,2.89681,11.5564,0.827087,-0.0917034,0.35223,0
2024-12-13 15:35:08.062,-0.481256,2.94467,11.281,0.8222,-0.107585,0.348565,0
2024-12-13 15:35:08.064,-0.50997,2.9997,11.0225,0.8222,-0.107585,0.348565,0
2024-12-13 15:35:08.067,-0.531506,3.04277,10.783,0.798988,-0.144847,0.344289,0
2024-12-13 15:35:08.069,-0.548256,3.08106,10.5532,0.780663,-0.168059,0.33818,0
2024-12-13 15:35:08.071,-0.555434,3.13639,10.3184,0.755618,-0.191272,0.332683,0
2024-12-13 15:35:08.074,-0.533899,3.18425,10.1175,0.725687,-0.213873,0.327796,0
2024-12-13 15:35:08.076,-0.462114,3.19143,9.9356,0.69209,-0.235863,0.318022,0
2024-12-13 15:35:08.078,-0.431007,3.22493,9.76302,0.651774,-0.2548,0.310081,0
2024-12-13 15:35:08.081,-0.428614,3.28714,9.64098,0.607793,-0.270682,0.300308,0
2024-12-13 15:35:08.083,-0.404686,3.33978,9.55484,0.561979,-0.282288,0.286869,0
2024-12-13 15:35:08.086,-0.387936,3.37567,9.48545,0.509447,-0.289618,0.271598,0
2024-12-13 15:35:08.088,-0.354437,3.39242,9.42563,0.456303,-0.294505,0.255105,0
2024-12-13 15:35:08.090,-0.285045,3.41635,9.39452,0.403159,-0.292672,0.239223,0
2024-12-13 15:35:08.093,-0.160319,3.45703,9.40409,0.345663,-0.286564,0.219065,0
2024-12-13 15:35:08.095,-0.0167498,3.43789,9.42802,0.287633,-0.273736,0.196464,0
2024-12-13 15:35:08.097,0.0909273,3.36371,9.42323,0.232046,-0.256632,0.173252,0
2024-12-13 15:35:08.100,0.129212,3.31346,9.4352,0.173404,-0.238307,0.146985,0
2024-12-13 15:35:08.102,0.177069,3.28475,9.51416,0.114152,-0.212651,0.123697,0
2024-12-13 15:35:08.104,0.272782,3.27039,9.54766,0.0573433,-0.180276,0.0949868,0
2024-12-13 15:35:08.107,0.330509,3.24168,9.55963,-0.00129805,-0.149734,0.0644444,0
2024-12-13 15:35:08.109,0.387936,3.19143,9.6027,-0.0556635,-0.117359,0.0351237,0
2024-12-13 15:35:08.111,0.464507,3.13879,9.64337,-0.107585,-0.0843733,0.00458135,0
2024-12-13 15:35:08.114,0.524327,3.09332,9.7008,-0.163783,-0.0550526,-0.025961,0
2024-12-13 15:35:08.116,0.579362,3.03559,9.77498,-0.213262,-0.0287862,-0.0565034,0
2024-12-13 15:35:08.118,0.610469,2.97577,9.85185,-0.259076,-0.00251974,-0.0901,0
2024-12-13 15:35:08.123,0.624826,2.88245,10.0289,-0.343983,0.0457372,-0.146909,0
2024-12-13 15:35:08.123,0.624826,2.88245,10.0289,-0.343983,0.0457372,-0.146909,0
2024-12-13 15:35:08.126,0.615255,2.83938,10.1414,-0.380634,0.0646735,-0.174397,0
2024-12-13 15:35:08.128,0.608076,2.79871,10.2634,-0.412398,0.0836097,-0.19822,0
2024-12-13 15:35:08.130,0.610469,2.76281,10.3953,-0.438054,0.0982701,-0.222043,0
2024-12-13 15:35:08.133,0.608076,2.74128,10.5197,-0.459433,0.108654,-0.244644,0
2024-12-13 15:35:08.135,0.615255,2.71735,10.6346,-0.474094,0.119039,-0.267246,0
2024-12-13 15:35:08.137,0.643968,2.68385,10.7375,-0.484478,0.12698,-0.290458,0
2024-12-13 15:35:08.140,0.660718,2.6671,10.8284,-0.489365,0.131256,-0.311227,0
2024-12-13 15:35:08.142,0.672682,2.65035,10.9026,-0.489365,0.132477,-0.331995,0
2024-12-13 15:35:08.144,0.684646,2.62881,10.9436,-0.489365,0.133699,-0.354597,0
2024-12-13 15:35:08.149,0.672682,2.60967,11.0058,-0.47165,0.139197,-0.397356,0
2024-12-13 15:35:08.150,0.672682,2.60967,11.0058,-0.458823,0.139808,-0.416292,0
2024-12-13 15:35:08.151,0.646361,2.60489,11.0273,-0.458823,0.139808,-0.416292,0
2024-12-13 15:35:08.154,0.586541,2.6001,11.0584,-0.443551,0.141029,-0.435229,0
2024-12-13 15:35:08.156,0.52672,2.58814,11.0632,-0.421561,0.142862,-0.452943,0
2024-12-13 15:35:08.159,0.476471,2.58814,11.0536,-0.397127,0.142862,-0.465771,0
2024-12-13 15:35:08.161,0.409472,2.60249,11.0201,-0.372082,0.144084,-0.480431,0
2024-12-13 15:35:08.166,0.277567,2.63599,10.893,-0.31283,0.145305,-0.503033,0
2024-12-13 15:35:08.166,0.277567,2.63599,10.893,-0.31283,0.145305,-0.503033,0
2024-12-13 15:35:08.168,0.229711,2.6336,10.8045,-0.28412,0.146527,-0.514639,0
2024-12-13 15:35:08.171,0.20339,2.63839,10.6992,-0.217538,0.144084,-0.532353,0
2024-12-13 15:35:08.173,0.167498,2.67667,10.5891,-0.217538,0.144084,-0.532353,0
2024-12-13 15:35:08.177,0.0909273,2.71017,10.3113,-0.157064,0.145916,-0.55129,0
2024-12-13 15:35:08.177,0.0909273,2.71017,10.3113,-0.157064,0.145916,-0.55129,0
2024-12-13 15:35:08.180,0.0622134,2.72692,10.1653,-0.128354,0.144694,-0.558009,0
2024-12-13 15:35:08.182,0.0311067,2.75563,10.0122,-0.102088,0.139808,-0.56595,0
2024-12-13 15:35:08.184,0.00478565,2.79631,9.8686,-0.077654,0.138586,-0.572058,0
2024-12-13 15:35:08.188,-0.0191426,2.81545,9.71516,-0.0275645,0.130034,-0.581221,0
2024-12-13 15:35:08.189,-0.0550349,2.84417,9.55484,-0.0275645,0.130034,-0.581221,0
2024-12-13 15:35:08.192,-0.0837488,2.88724,9.38974,-0.00496313,0.123926,-0.585497,0
2024-12-13 15:35:08.194,-0.119641,2.90399,9.22672,0.0139731,0.115985,-0.590384,0
2024-12-13 15:35:08.196,-0.167498,2.91835,9.05683,0.0329094,0.107433,-0.590995,0
2024-12-13 15:35:08.199,-0.210568,2.94227,8.89412,0.0494023,0.0988809,-0.590995,0
2024-12-13 15:35:08.201,-0.248854,2.96381,8.7338,0.0646735,0.090329,-0.592216,0
2024-12-13 15:35:08.203,-0.297009,2.98535,8.56361,0.0781121,0.0793338,-0.590384,0
2024-12-13 15:35:08.206,-0.328116,3.00449,8.41765,0.090329,0.0683385,-0.586719,0
2024-12-13 15:35:08.208,-0.354437,3.01884,8.27647,0.0982701,0.0555107,-0.581832,0
2024-12-13 15:35:08.210,-0.364008,3.03081,8.11346,0.108654,0.0457372,-0.578167,0
2024-12-13 15:35:08.213,-0.361615,3.04756,7.95793,0.11293,0.0353528,-0.575724,0
2024-12-13 15:35:08.215,-0.375972,3.08345,7.8,0.117817,0.0231358,-0.569615,0
2024-12-13 15:35:08.217,-0.390329,3.10768,7.64686,0.123926,0.0115297,-0.56595,0
2024-12-13 15:35:08.220,-0.395115,3.12443,7.50778,0.123926,0.00114534,-0.561674,0
2024-12-13 15:35:08.222,-0.421436,3.15075,7.36182,0.125147,-0.0141258,-0.555566,0
2024-12-13 15:35:08.224,-0.459721,3.15553,7.20868,0.120871,-0.0251211,-0.549457,0
2024-12-13 15:35:08.227,-0.483649,3.16511,7.0675,0.117817,-0.0355055,-0.543959,0
2024-12-13 15:35:08.229,-0.495613,3.19621,6.95474,0.111098,-0.0471116,-0.538462,0
2024-12-13 15:35:08.232,-0.519542,3.21296,6.83271,0.108044,-0.0581068,-0.531743,0
2024-12-13 15:35:08.236,-0.550648,3.22732,6.61496,0.0872748,-0.0794865,-0.520136,0
2024-12-13 15:35:08.236,-0.550648,3.22732,6.61496,0.0872748,-0.0794865,-0.520136,0
2024-12-13 15:35:08.239,-0.562612,3.24646,6.52642,0.0781121,-0.0874275,-0.51586,0
2024-12-13 15:35:08.241,-0.584148,3.25603,6.45703,0.0634518,-0.0959794,-0.50853,0
2024-12-13 15:35:08.243,-0.60329,3.27039,6.38495,0.0481806,-0.104531,-0.504254,0
2024-12-13 15:35:08.246,-0.62004,3.28953,6.28924,0.0341311,-0.11064,-0.498146,0
2024-12-13 15:35:08.248,-0.641576,3.29671,6.21984,0.0158057,-0.118581,-0.493259,0
2024-12-13 15:35:08.250,-0.694218,3.32782,6.23659,-0.00251974,-0.1253,-0.48654,0
2024-12-13 15:35:08.253,-0.74686,3.36132,6.30598,-0.0208452,-0.142404,-0.477988,0
2024-12-13 15:35:08.255,-0.749253,3.35892,6.29163,-0.0379489,-0.161951,-0.473101,0
2024-12-13 15:35:08.257,-0.703789,3.31825,6.19831,-0.0587177,-0.17539,-0.463328,0
2024-12-13 15:35:08.260,-0.658325,3.25125,6.15524,-0.0825407,-0.18272,-0.460273,0
2024-12-13 15:35:08.262,-0.646361,3.21536,6.15045,-0.10331,-0.183941,-0.45783,0
2024-12-13 15:35:08.265,-0.670289,3.22732,6.17917,-0.126522,-0.183331,-0.454776,0
2024-12-13 15:35:08.267,-0.672682,3.18903,6.27249,-0.146069,-0.181498,-0.453554,0
2024-12-13 15:35:08.269,-0.675075,3.17228,6.36102,-0.166227,-0.183331,-0.4505,0
2024-12-13 15:35:08.272,-0.766002,3.22971,6.38973,-0.185774,-0.180276,-0.449278,0
2024-12-13 15:35:08.274,-0.890728,3.2991,6.42084,-0.204099,-0.172946,-0.443781,0
2024-12-13 15:35:08.276,-0.986441,3.35175,6.5001,-0.221814,-0.164394,-0.434007,0
2024-12-13 15:35:08.279,-1.06062,3.38764,6.59821,-0.240139,-0.155842,-0.424844,0
2024-12-13 15:35:08.281,-1.11087,3.41396,6.68196,-0.2548,-0.147291,-0.413238,0
2024-12-13 15:35:08.283,-1.15155,3.41396,6.78485,-0.267627,-0.13935,-0.401632,0
2024-12-13 15:35:08.286,-1.15633,3.39003,6.89731,-0.281677,-0.130187,-0.391248,0
2024-12-13 15:35:08.288,-1.12283,3.35653,7.00499,-0.292672,-0.124689,-0.380863,0
2024-12-13 15:35:08.290,-1.08455,3.31585,7.12971,-0.301224,-0.118581,-0.372922,0
2024-12-13 15:35:08.293,-1.03908,3.25843,7.27089,-0.306722,-0.112472,-0.364981,0
2024-12-13 15:35:08.297,-0.96012,3.15075,7.5006,-0.309776,-0.10331,-0.353986,0
2024-12-13 15:35:08.297,-0.96012,3.15075,7.5006,-0.309776,-0.10331,-0.353986,0
2024-12-13 15:35:08.300,-0.94337,3.12682,7.63251,-0.308554,-0.102088,-0.34971,0
2024-12-13 15:35:08.302,-0.924228,3.12443,7.7665,-0.304889,-0.0965902,-0.347878,0
2024-12-13 15:35:08.305,-0.929013,3.10768,7.87897,-0.298781,-0.0953685,-0.344212,0
2024-12-13 15:35:08.309,-0.912264,3.07627,8.14008,-0.282899,-0.0953685,-0.336271,0
2024-12-13 15:35:08.309,-0.912264,3.07627,8.14008,-0.282899,-0.0953685,-0.336271,0
2024-12-13 15:35:08.312,-0.909871,3.03799,8.2358,-0.274347,-0.0984228,-0.333828,0
2024-12-13 15:35:08.314,-0.921835,3.01645,8.33151,-0.261519,-0.0984228,-0.330163,0
2024-12-13 15:35:08.316,-0.926621,3.00449,8.43679,-0.247469,-0.106364,-0.32772,0
2024-12-13 15:35:08.319,-0.902692,2.98295,8.52054,-0.238307,-0.111861,-0.324665,0
2024-12-13 15:35:08.321,-0.890728,2.97577,8.58754,-0.227922,-0.119192,-0.321,0
2024-12-13 15:35:08.323,-0.895514,2.9686,8.64736,-0.21143,-0.124078,-0.319779,0
2024-12-13 15:35:08.328,-0.8668,2.95185,8.69283,-0.191882,-0.138128,-0.316724,0
2024-12-13 15:35:08.328,-0.8668,2.95185,8.69283,-0.191882,-0.138128,-0.316724,0
2024-12-13 15:35:08.330,-0.859622,2.94467,8.71466,-0.180887,-0.143625,-0.31367,0
2024-12-13 15:35:08.333,-0.862014,2.94227,8.73859,-0.173557,-0.149123,-0.314892,0
2024-12-13 15:35:08.338,-0.921835,2.91356,8.81516,-0.160729,-0.160118,-0.310616,0
2024-12-13 15:35:08.338,-0.921835,2.91356,8.81516,-0.160729,-0.160118,-0.310616,0
2024-12-13 15:35:08.342,-0.957727,2.89681,8.90369,-0.151566,-0.16867,-0.308172,0
2024-12-13 15:35:08.342,-0.957727,2.89681,8.90369,-0.151566,-0.16867,-0.308172,0
2024-12-13 15:35:08.347,-0.962513,2.8992,8.98744,-0.148512,-0.172335,-0.30634,0
2024-12-13 15:35:08.349,-0.957727,2.89203,9.02812,-0.138128,-0.172335,-0.302675,0
2024-12-13 15:35:08.349,-0.957727,2.89203,9.02812,-0.138128,-0.172335,-0.302675,0
2024-12-13 15:35:08.352,-0.936192,2.8992,9.0688,-0.134463,-0.169892,-0.301453,0
2024-12-13 15:35:08.354,-0.902692,2.89442,9.08555,-0.131409,-0.166227,-0.29901,0
2024-12-13 15:35:08.356,-0.881157,2.88724,9.10708,-0.128965,-0.163783,-0.29901,0
2024-12-13 15:35:08.359,-0.869193,2.89442,9.12144,-0.125911,-0.160118,-0.296566,0
2024-12-13 15:35:08.361,-0.85005,2.89203,9.14058,-0.120413,-0.154621,-0.300842,0
2024-12-13 15:35:08.363,-0.837787,2.88485,9.16212,-0.119802,-0.148512,-0.302675,0
2024-12-13 15:35:08.366,-0.830609,2.88006,9.17647,-0.116748,-0.146069,-0.304507,0
2024-12-13 15:35:08.368,-0.82343,2.85853,9.19801,-0.114305,-0.13935,-0.303897,0
2024-12-13 15:35:08.370,-0.835394,2.8346,9.21955,-0.111861,-0.133852,-0.30634,0
2024-12-13 15:35:08.373,-0.859622,2.81785,9.24347,-0.111251,-0.127743,-0.308783,0
2024-12-13 15:35:08.375,-0.876371,2.80349,9.25544,-0.110029,-0.121635,-0.309394,0
2024-12-13 15:35:08.378,-0.8668,2.79392,9.28445,-0.108807,-0.117359,-0.310616,0
2024-12-13 15:35:08.380,-0.873978,2.77717,9.32513,-0.107585,-0.111861,-0.310616,0
2024-12-13 15:35:08.382,-0.907478,2.74367,9.35384,-0.107585,-0.106975,-0.308172,0
2024-12-13 15:35:08.386,-0.926621,2.72213,9.4017,-0.105753,-0.093536,-0.30634,0
2024-12-13 15:35:08.387,-0.924228,2.69821,9.4352,-0.105753,-0.093536,-0.30634,0
2024-12-13 15:35:08.389,-0.912264,2.67189,9.46152,-0.105753,-0.0886492,-0.303897,0
2024-12-13 15:35:08.392,-0.902692,2.64317,9.50698,-0.105753,-0.0849841,-0.302064,0
2024-12-13 15:35:08.394,-0.895514,2.6001,9.5357,-0.10392,-0.0794865,-0.301453,0
2024-12-13 15:35:08.396,-0.897907,2.5666,9.5668,-0.102699,-0.0770431,-0.298399,0
2024-12-13 15:35:08.399,-0.890728,2.53549,9.61705,-0.105753,-0.0739889,-0.298399,0
2024-12-13 15:35:08.401,-0.864407,2.5017,9.66012,-0.106364,-0.0727672,-0.294734,0
2024-12-13 15:35:08.403,-0.842872,2.47059,9.7008,-0.10392,-0.0697129,-0.292901,0
2024-12-13 15:35:08.406,-0.818644,2.42991,9.72952,-0.102088,-0.0660479,-0.289847,0
2024-12-13 15:35:08.408,-0.789931,2.3988,9.75344,-0.101477,-0.0623828,-0.287404,0
2024-12-13 15:35:08.411,-0.761217,2.37727,9.77737,-0.100866,-0.0599394,-0.286182,0
2024-12-13 15:35:08.415,-0.722932,2.31506,9.82074,-0.0965902,-0.049555,-0.284349,0
2024-12-13 15:35:08.418,-0.694218,2.29113,9.86621,-0.0910926,-0.0385597,-0.28496,0
2024-12-13 15:35:08.418,-0.694218,2.29113,9.86621,-0.0910926,-0.0385597,-0.28496,0
2024-12-13 15:35:08.420,-0.682254,2.25524,9.89492,-0.0843733,-0.0281753,-0.283128,0
2024-12-13 15:35:08.422,-0.672682,2.23131,9.89731,-0.0764323,-0.0165692,-0.283739,0
2024-12-13 15:35:08.425,-0.643968,2.22891,9.90449,-0.0666587,-0.00129805,-0.283739,0
2024-12-13 15:35:08.427,-0.629611,2.22413,9.88774,-0.0538309,0.0170274,-0.284349,0
2024-12-13 15:35:08.432,-0.629611,2.18824,9.79173,-0.0202343,0.0536782,-0.285571,0
2024-12-13 15:35:08.432,-0.629611,2.18824,9.79173,-0.0202343,0.0536782,-0.285571,0
2024-12-13 15:35:08.434,-0.641576,2.17627,9.73909,-0.00129805,0.0732253,-0.28496,0
2024-12-13 15:35:08.436,-0.658325,2.15474,9.65534,0.0188599,0.0939941,-0.286793,0
2024-12-13 15:35:08.439,-0.679861,2.13799,9.52613,0.0396287,0.111709,-0.286182,0
2024-12-13 15:35:08.441,-0.708575,2.1332,9.40648,0.0616192,0.129423,-0.287404,0
2024-12-13 15:35:08.444,-0.742074,2.10209,9.27727,0.0848314,0.144694,-0.285571,0
2024-12-13 15:35:08.446,-0.792323,2.08056,9.13101,0.104379,0.156301,-0.28496,0
2024-12-13 15:35:08.448,-0.828216,2.0662,8.98744,0.124536,0.167296,-0.285571,0
2024-12-13 15:35:08.451,-0.852443,2.05185,8.84387,0.146527,0.176459,-0.284349,0
2024-12-13 15:35:08.453,-0.893121,2.04945,8.71227,0.167296,0.182567,-0.283128,0
2024-12-13 15:35:08.458,-0.945763,2.03749,8.49183,0.202725,0.186232,-0.279463,0
2024-12-13 15:35:08.458,-0.945763,2.03749,8.49183,0.202725,0.186232,-0.279463,0
2024-12-13 15:35:08.460,-0.950549,2.04706,8.39372,0.222272,0.1844,-0.278241,0
2024-12-13 15:35:08.462,-0.962513,2.0662,8.29322,0.239987,0.181956,-0.274576,0
2024-12-13 15:35:08.465,-0.957727,2.07577,8.17119,0.239987,0.181956,-0.274576,0
2024-12-13 15:35:08.467,-0.940978,2.07817,8.02254,0.279692,0.167296,-0.272743,0
2024-12-13 15:35:08.469,-0.938585,2.07577,7.87418,0.295574,0.15569,-0.272743,0
2024-12-13 15:35:08.472,-0.936192,2.08774,7.71625,0.312067,0.143473,-0.272743,0
2024-12-13 15:35:08.474,-0.929013,2.10209,7.55564,0.326727,0.125758,-0.274576,0
2024-12-13 15:35:08.476,-0.914656,2.09013,7.4025,0.342609,0.11232,-0.273965,0
2024-12-13 15:35:08.479,-0.929013,2.07817,7.26132,0.356658,0.0970484,-0.274576,0
2024-12-13 15:35:08.481,-0.950549,2.07817,7.10579,0.369563,0.0811663,-0.272743,0
2024-12-13 15:35:08.484,-0.952942,2.09252,6.9356,0.383612,0.0634518,-0.270911,0
2024-12-13 15:35:08.486,-0.945763,2.0997,6.78963,0.392775,0.0445155,-0.269689,0
2024-12-13 15:35:08.488,-0.938585,2.11167,6.64128,0.400716,0.0243575,-0.267246,0
2024-12-13 15:35:08.491,-0.94337,2.11884,6.47857,0.410489,0.00725381,-0.266024,0
2024-12-13 15:35:08.493,-0.957727,2.12602,6.32752,0.41782,-0.013515,-0.263581,0
2024-12-13 15:35:08.495,-0.957727,2.13559,6.18156,0.420874,-0.033673,-0.258694,0
2024-12-13 15:35:08.498,-0.955334,2.13559,6.04038,0.427593,-0.0532201,-0.25625,0
2024-12-13 15:35:08.500,-0.957727,2.14277,5.91835,0.429426,-0.0727672,-0.251974,0
2024-12-13 15:35:08.502,-0.964906,2.16909,5.78884,0.433091,-0.0923143,-0.245255,0
2024-12-13 15:35:08.507,-0.924228,2.22174,5.57827,0.437367,-0.124689,-0.236092,0
2024-12-13 15:35:08.507,-0.924228,2.22174,5.57827,0.437367,-0.124689,-0.236092,0
2024-12-13 15:35:08.509,-0.888335,2.23609,5.47777,0.431869,-0.141793,-0.232427,0
2024-12-13 15:35:08.512,-0.852443,2.25524,5.38206,0.428204,-0.155842,-0.226319,0
2024-12-13 15:35:08.514,-0.789931,2.27677,5.29562,0.426982,-0.169892,-0.224486,0
2024-12-13 15:35:08.517,-0.670289,2.25524,5.23101,0.424539,-0.179665,-0.222043,0
2024-12-13 15:35:08.519,-0.576969,2.25284,5.1999,0.419652,-0.193715,-0.22693,0
2024-12-13 15:35:08.521,-0.593719,2.32463,5.11855,0.414765,-0.205321,-0.228762,0
2024-12-13 15:35:08.524,-0.62004,2.42991,5.01805,0.4111,-0.210208,-0.228762,0
2024-12-13 15:35:08.526,-0.622433,2.52832,4.92951,0.406213,-0.212651,-0.228762,0
2024-12-13 15:35:08.528,-0.632004,2.60967,4.84577,0.399494,-0.212651,-0.22693,0
2024-12-13 15:35:08.531,-0.639183,2.69581,4.77398,0.391553,-0.212651,-0.22693,0
2024-12-13 15:35:08.533,-0.646361,2.77478,4.7019,0.378114,-0.21204,-0.224486,0
2024-12-13 15:35:08.535,-0.639183,2.8322,4.63968,0.370173,-0.212651,-0.220821,0
2024-12-13 15:35:08.538,-0.632004,2.87528,4.60379,0.356658,-0.210819,-0.217767,0
2024-12-13 15:35:08.540,-0.615255,2.92792,4.58226,0.340166,-0.210819,-0.215935,0
2024-12-13 15:35:08.542,-0.586541,2.97817,4.55354,0.326116,-0.212651,-0.21288,0
2024-12-13 15:35:08.547,-0.572184,3.09571,4.57747,0.289465,-0.216316,-0.208604,0
2024-12-13 15:35:08.547,-0.54347,3.09571,4.57747,0.289465,-0.216316,-0.208604,0
2024-12-13 15:35:08.549,-0.505185,3.16511,4.65165,0.271751,-0.221814,-0.20555,0
2024-12-13 15:35:08.552,-0.498006,3.22732,4.66361,0.251593,-0.229144,-0.206161,0
2024-12-13 15:35:08.554,-0.469292,3.28235,4.60379,0.22777,-0.228533,-0.203718,0
2024-12-13 15:35:08.557,-0.404686,3.33739,4.5679,0.204557,-0.221814,-0.204328,0
2024-12-13 15:35:08.559,-0.34008,3.3996,4.57268,0.178902,-0.207154,-0.206161,0
2024-12-13 15:35:08.561,-0.289831,3.48814,4.60618,0.14836,-0.187606,-0.211048,0
2024-12-13 15:35:08.564,-0.267996,3.58864,4.64925,0.114763,-0.172946,-0.213491,0
2024-12-13 15:35:08.566,-0.258425,3.66311,4.71865,0.0805555,-0.155842,-0.2196,0
2024-12-13 15:35:08.568,-0.265603,3.73968,4.81466,0.0445155,-0.143015,-0.223265,0
2024-12-13 15:35:08.571,-0.299402,3.84257,4.93191,0.0445155,-0.143015,-0.223265,0
2024-12-13 15:35:08.573,-0.34008,3.92872,5.08505,-0.0342838,-0.129576,-0.228762,0
2024-12-13 15:35:08.575,-0.375972,4.01007,5.2358,-0.077654,-0.130798,-0.231817,0
2024-12-13 15:35:08.578,-0.4334,4.09382,5.38684,-0.11797,-0.143625,-0.233038,0
2024-12-13 15:35:08.580,-0.502792,4.15603,5.52563,-0.163783,-0.158286,-0.231206,0
2024-12-13 15:35:08.582,-0.557827,4.1991,5.67877,-0.208375,-0.177833,-0.228151,0
2024-12-13 15:35:08.585,-0.579362,4.21615,5.87019,-0.251135,-0.201656,-0.222654,0
2024-12-13 15:35:08.587,-0.581755,4.24487,6.07388,-0.297559,-0.224257,-0.218378,0
2024-12-13 15:35:08.590,-0.588933,4.27837,6.28206,-0.340929,-0.249302,-0.211659,0
2024-12-13 15:35:08.592,-0.617647,4.2999,6.52164,-0.384299,-0.273125,-0.204328,0
2024-12-13 15:35:08.594,-0.651147,4.28794,6.79203,-0.426448,-0.299392,-0.196387,0
2024-12-13 15:35:08.597,-0.675075,4.26162,7.07707,-0.46432,-0.326269,-0.18417,0
2024-12-13 15:35:08.599,-0.670289,4.2688,7.38814,-0.502804,-0.354368,-0.174397,0
2024-12-13 15:35:08.601,-0.63679,4.28555,7.7354,-0.539454,-0.381856,-0.164623,0
2024-12-13 15:35:08.611,-0.500399,4.28555,9.34666,-0.573662,-0.411177,-0.152406,0
2024-12-13 15:35:08.623,0.133998,4.33579,11.3886,-0.704994,-0.555947,-0.0601685,0
2024-12-13 15:35:08.625,0.232104,4.35494,11.7359,-0.705605,-0.547396,-0.0491732,0
2024-12-13 15:35:08.625,0.232104,4.35494,11.7359,-0.705605,-0.547396,-0.0491732,0
2024-12-13 15:35:08.627,0.366401,4.39801,12.0302,-0.70194,-0.533346,-0.0375671,0
2024-12-13 15:35:08.627,0.366401,4.39801,12.0302,-0.70194,-0.533346,-0.0375671,0
2024-12-13 15:35:08.627,0.366401,4.39801,12.0302,-0.70194,-0.533346,-0.0375671,0
2024-12-13 15:35:08.630,0.435793,4.42433,12.3105,-0.697664,-0.516853,-0.0308478,0
2024-12-13 15:35:08.630,0.435793,4.42433,12.3105,-0.697664,-0.516853,-0.0308478,0
2024-12-13 15:35:08.632,0.469292,4.44826,12.5928,-0.690334,-0.496084,-0.0198525,0
2024-12-13 15:35:08.632,0.469292,4.44826,12.5928,-0.690334,-0.496084,-0.0198525,0
2024-12-13 15:35:08.632,0.469292,4.44826,12.5928,-0.690334,-0.496084,-0.0198525,0
2024-12-13 15:35:08.632,0.469292,4.44826,12.5928,-0.690334,-0.496084,-0.0198525,0
2024-12-13 15:35:08.641,0.426222,4.65404,13.4883,-0.636579,-0.376358,0.0229068,0
2024-12-13 15:35:08.641,0.426222,4.65404,13.4883,-0.636579,-0.376358,0.0229068,0
2024-12-13 15:35:08.644,0.392722,4.70429,13.7061,-0.619475,-0.343983,0.0363454,0
2024-12-13 15:35:08.648,0.4669,4.62533,14.2591,-0.57916,-0.296948,0.0577251,0
2024-12-13 15:35:08.648,0.4669,4.62533,14.2591,-0.57916,-0.296948,0.0577251,0
2024-12-13 15:35:08.651,0.727717,4.60379,14.4556,-0.551061,-0.285953,0.0626118,0
2024-12-13 15:35:08.651,0.727717,4.60379,14.4556,-0.551061,-0.285953,0.0626118,0
2024-12-13 15:35:08.653,1.45334,4.65404,14.4389,-0.531513,-0.304889,0.0497841,0
2024-12-13 15:35:08.653,1.45334,4.65404,14.4389,-0.531513,-0.304889,0.0497841,0
2024-12-13 15:35:08.655,1.52273,4.67797,14.6901,-0.508301,-0.316495,0.0229068,0
2024-12-13 15:35:08.658,0.931406,4.62054,15.0589,-0.477148,-0.303057,0.00702474,0
2024-12-13 15:35:08.660,0.617647,4.50568,15.2527,-0.444162,-0.294505,-0.00152712,0
2024-12-13 15:35:08.665,-0.0382852,4.17757,16.0095,-0.367806,-0.266406,0.00397051,0
2024-12-13 15:35:08.665,-0.0382852,4.17757,16.0095,-0.367806,-0.266406,0.00397051,0
2024-12-13 15:35:08.667,-0.258425,3.95743,16.2703,-0.323825,-0.245637,0.0131332,0
2024-12-13 15:35:08.670,-0.502792,3.72293,16.5479,-0.279844,-0.229144,0.0284044,0
2024-12-13 15:35:08.672,-0.924228,3.49771,16.864,-0.232198,-0.20471,0.0534491,0
2024-12-13 15:35:08.674,-1.1683,3.32782,17.1057,-0.183331,-0.177833,0.0846023,0
2024-12-13 15:35:08.677,-1.17069,3.201,17.3022,-0.133852,-0.152788,0.120031,0
2024-12-13 15:35:08.679,-1.1683,3.13161,17.4649,-0.0874275,-0.121635,0.154315,0
2024-12-13 15:35:08.681,-1.15633,3.11486,17.5463,-0.0397814,-0.0874275,0.189744,0
2024-12-13 15:35:08.684,-1.14437,3.12443,17.6109,0.00358873,-0.0507767,0.223341,0
2024-12-13 15:35:08.686,-1.14197,3.16271,17.6854,0.046348,-0.0129041,0.253273,2
2024-12-13 15:35:08.688,-1.12522,3.24168,17.7212,0.0836097,0.0335202,0.283815,0
2024-12-13 15:35:08.691,-1.08933,3.32064,17.726,0.123315,0.0793338,0.310692,0
2024-12-13 15:35:08.693,-1.01276,3.37328,17.7141,0.156911,0.11965,0.332683,0
2024-12-13 15:35:08.696,-0.917049,3.40917,17.6877,0.188675,0.158744,0.351619,0
2024-12-13 15:35:08.698,-0.85005,3.43789,17.6611,0.217385,0.192951,0.364447,0
2024-12-13 15:35:08.700,-0.825823,3.4355,17.6252,0.246095,0.224715,0.37422,0
2024-12-13 15:35:08.703,-0.837787,3.40678,17.5941,0.272362,0.252814,0.379107,0
2024-12-13 15:35:08.705,-0.84018,3.37089,17.5439,0.29985,0.27847,0.382772,0
2024-12-13 15:35:08.707,-0.830609,3.33739,17.4529,0.323673,0.294963,0.38094,0
2024-12-13 15:35:08.710,-0.818644,3.28235,17.362,0.349328,0.308401,0.378496,0
2024-12-13 15:35:08.712,-0.821037,3.20578,17.2807,0.368341,0.317564,0.37422,0
2024-12-13 15:35:08.714,-0.837787,3.12921,17.185,0.386666,0.323673,0.36689,0
2024-12-13 15:35:08.717,-0.847657,3.04995,17.0722,0.404381,0.326727,0.362003,0
2024-12-13 15:35:08.719,-0.857229,2.97817,16.9478,0.422095,0.324284,0.354062,0
2024-12-13 15:35:08.721,-0.857229,2.91117,16.8114,0.433091,0.316953,0.347954,0
2024-12-13 15:35:08.724,-0.854836,2.84178,16.6463,0.442864,0.303515,0.341235,0
2024-12-13 15:35:08.726,-0.862014,2.7676,16.4545,0.450194,0.287633,0.332683,0
2024-12-13 15:35:08.728,-0.847657,2.70539,16.2607,0.455692,0.263199,0.326574,0
2024-12-13 15:35:08.731,-0.818644,2.65035,16.0406,0.452638,0.232656,0.317412,0
2024-12-13 15:35:08.733,-0.804287,2.60249,15.7938,0.453249,0.198449,0.309471,0
2024-12-13 15:35:08.738,-0.742074,2.58335,15.2767,0.43981,0.123315,0.29481,0
2024-12-13 15:35:08.738,-0.742074,2.58335,15.2767,0.43981,0.123315,0.29481,0
2024-12-13 15:35:08.740,-0.696611,2.55224,15.035,0.428204,0.0836097,0.286258,0
2024-12-13 15:35:08.743,-0.667897,2.54028,14.7954,0.416598,0.0439046,0.277706,0
2024-12-13 15:35:08.745,-0.624826,2.54267,14.5753,0.406213,0.00664296,0.267933,0
2024-12-13 15:35:08.750,-0.478864,2.52592,14.2065,0.387888,-0.049555,0.24411,0
2024-12-13 15:35:08.752,-0.378365,2.51366,14.0605,0.387888,-0.049555,0.24411,0
2024-12-13 15:35:08.752,-0.378365,2.51366,14.0605,0.387888,-0.049555,0.24411,0
2024-12-13 15:35:08.754,-0.270389,2.50887,13.8882,0.37506,-0.0880384,0.212957,0
2024-12-13 15:35:08.757,-0.181855,2.50409,13.7061,0.376893,-0.0978119,0.197075,0
2024-12-13 15:35:08.759,-0.117248,2.48495,13.5242,0.377504,-0.10392,0.178138,0
2024-12-13 15:35:08.761,-0.0741775,2.47777,13.3161,0.379947,-0.104531,0.15798,0
2024-12-13 15:35:08.764,-0.040678,2.47537,13.0908,0.383001,-0.100866,0.136601,0
2024-12-13 15:35:08.766,-0.0143569,2.45623,12.8731,0.387277,-0.093536,0.113923,0
2024-12-13 15:35:08.769,-0.00239282,2.44905,12.6434,0.390331,-0.0849841,0.0937651,0
2024-12-13 15:35:08.771,-0.00957129,2.44905,12.4229,0.391553,-0.0758214,0.0736071,0
2024-12-13 15:35:08.773,-0.0239282,2.45863,12.2435,0.393996,-0.0660479,0.0534491,0
2024-12-13 15:35:08.776,-0.0526421,2.47777,12.0565,0.394607,-0.057496,0.0351237,0
2024-12-13 15:35:08.778,-0.0861416,2.49212,11.8436,0.393386,-0.0483333,0.0186308,0
2024-12-13 15:35:08.780,-0.11007,2.50887,11.6521,0.390331,-0.0403923,0.0051922,0
2024-12-13 15:35:08.783,-0.141177,2.53789,11.4748,0.386055,-0.037338,-0.00946813,0
2024-12-13 15:35:08.787,-0.212961,2.60967,11.1589,0.36521,-0.0391706,-0.033902,0
2024-12-13 15:35:08.787,-0.212961,2.60967,11.1589,0.36521,-0.0391706,-0.033902,0
2024-12-13 15:35:08.790,-0.241675,2.64317,11.0393,0.354826,-0.0428357,-0.0424539,0
2024-12-13 15:35:08.792,-0.272782,2.65035,10.9122,0.338333,-0.0513875,-0.0485624,0
2024-12-13 15:35:08.794,-0.30658,2.66231,10.8165,0.321229,-0.0599394,-0.0565034,0
2024-12-13 15:35:08.797,-0.332901,2.68624,10.7279,0.302293,-0.0727672,-0.0613902,0
2024-12-13 15:35:08.799,-0.349651,2.69103,10.6442,0.279081,-0.0880384,-0.0644444,0
2024-12-13 15:35:08.801,-0.359223,2.69103,10.582,0.252204,-0.105753,-0.0662769,0
2024-12-13 15:35:08.804,-0.368794,2.7006,10.5317,0.225326,-0.127743,-0.0674986,0
2024-12-13 15:35:08.806,-0.371187,2.68864,10.491,0.193562,-0.148512,-0.0687203,0
2024-12-13 15:35:08.809,-0.371187,2.66471,10.4743,0.164242,-0.174779,-0.0674986,0
2024-12-13 15:35:08.811,-0.359223,2.66949,10.4719,0.132477,-0.201656,-0.0650552,0
2024-12-13 15:35:08.813,-0.32333,2.66471,10.4791,0.0994917,-0.228533,-0.0626118,0
2024-12-13 15:35:08.818,-0.222533,2.65035,10.5174,0.0329094,-0.281066,-0.0571142,0
2024-12-13 15:35:08.818,-0.222533,2.65035,10.5174,0.0329094,-0.281066,-0.0571142,0
2024-12-13 15:35:08.820,-0.155533,2.63599,10.5317,0.00175619,-0.306722,-0.0534491,0
2024-12-13 15:35:08.823,-0.0765703,2.64317,10.5413,-0.029397,-0.331156,-0.0503949,0
2024-12-13 15:35:08.825,0.00717847,2.64078,10.558,-0.0593285,-0.351924,-0.0448973,0
2024-12-13 15:35:08.827,0.102891,2.62403,10.57,-0.085595,-0.369028,-0.0424539,0
2024-12-13 15:35:08.830,0.22014,2.60728,10.5748,-0.112472,-0.38491,-0.0387888,0
2024-12-13 15:35:08.832,0.330509,2.58335,10.558,-0.134463,-0.39957,-0.0363454,0
2024-12-13 15:35:08.834,0.423829,2.55464,10.5437,-0.134463,-0.39957,-0.0363454,0
2024-12-13 15:35:08.837,0.52672,2.5331,10.5197,-0.177833,-0.42095,-0.0308478,0
2024-12-13 15:35:08.839,0.641576,2.50409,10.4982,-0.196158,-0.430724,-0.0284044,0
2024-12-13 15:35:08.842,0.722932,2.47537,10.4719,-0.213873,-0.436832,-0.025961,0
2024-12-13 15:35:08.844,0.792323,2.47537,10.4384,-0.225479,-0.439886,-0.0222959,0
2024-12-13 15:35:08.846,0.869193,2.4658,10.4216,-0.237085,-0.440497,-0.0192417,0
2024-12-13 15:35:08.849,0.938585,2.44666,10.3953,-0.244415,-0.438665,-0.0143549,0
2024-12-13 15:35:08.851,0.996012,2.4347,10.3519,-0.248691,-0.434389,-0.0113007,0
2024-12-13 15:35:08.853,1.0343,2.41555,10.3041,-0.251135,-0.427059,-0.0051922,0
2024-12-13 15:35:08.856,1.07258,2.39402,10.2467,-0.249302,-0.416063,-0.00213797,0
2024-12-13 15:35:08.858,1.11326,2.38923,10.194,-0.241972,-0.402625,0.00397051,0
2024-12-13 15:35:08.860,1.16112,2.37727,10.1294,-0.237085,-0.387964,0.0106898,0
2024-12-13 15:35:08.863,1.21615,2.35095,10.0457,-0.22609,-0.371471,0.0149658,0
2024-12-13 15:35:08.865,1.2329,2.36291,9.94756,-0.213262,-0.3562,0.0204634,0
2024-12-13 15:35:08.867,1.24726,2.38206,9.83271,-0.197991,-0.339707,0.0277936,0
2024-12-13 15:35:08.870,1.27358,2.37727,9.71516,-0.179665,-0.320771,0.0320695,0
2024-12-13 15:35:08.872,1.27119,2.37248,9.58116,-0.163783,-0.302446,0.038178,0
2024-12-13 15:35:08.875,1.27119,2.37488,9.42802,-0.142404,-0.284731,0.0455081,0
2024-12-13 15:35:08.877,1.28315,2.38684,9.27727,-0.123468,-0.261519,0.0534491,0
2024-12-13 15:35:08.879,1.28076,2.39402,9.1358,-0.10331,-0.242583,0.0589468,0
2024-12-13 15:35:08.882,1.25922,2.41316,8.97787,-0.0819299,-0.221203,0.0656661,0
2024-12-13 15:35:08.884,1.23529,2.42752,8.81037,-0.0599394,-0.19738,0.0754396,0
2024-12-13 15:35:08.886,1.19701,2.4347,8.64975,-0.0385597,-0.17539,0.0833807,0
2024-12-13 15:35:08.889,1.1683,2.4347,8.47986,-0.0165692,-0.148512,0.0913217,0
2024-12-13 15:35:08.891,1.15394,2.42752,8.31237,0.00236703,-0.1253,0.101095,0
2024-12-13 15:35:08.893,1.13719,2.42513,8.16162,0.0231358,-0.100866,0.109036,0
2024-12-13 15:35:08.896,1.11087,2.41555,8.01057,0.0231358,-0.100866,0.109036,0
2024-12-13 15:35:08.898,1.08215,2.38923,7.86222,0.0652843,-0.0581068,0.126751,0
2024-12-13 15:35:08.900,1.05823,2.37488,7.74497,0.0842206,-0.0367272,0.138433,0
2024-12-13 15:35:08.903,1.02712,2.36052,7.61576,0.100103,-0.0171801,0.146985,0
2024-12-13 15:35:08.905,0.979263,2.34616,7.47907,0.116595,0.00297788,0.15737,0
2024-12-13 15:35:08.907,0.931406,2.34377,7.37378,0.135532,0.0231358,0.167754,0
2024-12-13 15:35:08.910,0.897907,2.33898,7.27807,0.150192,0.0445155,0.178749,0
2024-12-13 15:35:08.915,0.828216,2.35573,7.05314,0.177069,0.082388,0.200129,0
2024-12-13 15:35:08.915,0.828216,2.35573,7.05314,0.177069,0.082388,0.200129,0
2024-12-13 15:35:08.917,0.780359,2.37248,6.94756,0.186843,0.102546,0.212346,0
2024-12-13 15:35:08.919,0.73011,2.39163,6.85185,0.194784,0.119039,0.222119,0
2024-12-13 15:35:08.922,0.691825,2.40359,6.74656,0.200892,0.137975,0.233725,0
2024-12-13 15:35:08.924,0.646361,2.41077,6.66042,0.204557,0.153246,0.244721,0
2024-12-13 15:35:08.926,0.593719,2.42273,6.58385,0.207001,0.169739,0.254494,0
2024-12-13 15:35:08.929,0.538684,2.42273,6.52403,0.207612,0.18501,0.265489,0
2024-12-13 15:35:08.931,0.481256,2.42513,6.47378,0.207001,0.205168,0.276485,0
2024-12-13 15:35:08.933,0.447757,2.44188,6.41366,0.20639,0.222883,0.288702,0
2024-12-13 15:35:08.936,0.428614,2.44666,6.35145,0.20639,0.222883,0.288702,0
2024-12-13 15:35:08.938,0.409472,2.44427,6.27009,0.203947,0.265031,0.311914,0
2024-12-13 15:35:08.940,0.380758,2.45623,6.2007,0.200282,0.286411,0.32352,0
2024-12-13 15:35:08.943,0.335294,2.46341,6.16002,0.194173,0.305958,0.332072,0
2024-12-13 15:35:08.945,0.27996,2.47537,6.11695,0.186843,0.324894,0.343067,0
2024-12-13 15:35:08.948,0.236889,2.49452,6.0691,0.17768,0.341387,0.352841,0
2024-12-13 15:35:08.950,0.20339,2.50409,6.02842,0.168517,0.360324,0.360782,0
2024-12-13 15:35:08.952,0.160319,2.51366,6.01167,0.161187,0.376816,0.369944,0
2024-12-13 15:35:08.955,0.117248,2.5331,5.98535,0.161187,0.376816,0.369944,0
2024-12-13 15:35:08.957,0.0933201,2.55464,5.96381,0.138586,0.411024,0.387659,0
2024-12-13 15:35:08.959,0.0693919,2.57139,5.96381,0.138586,0.411024,0.387659,0
2024-12-13 15:35:08.962,0.0287139,2.58096,5.93749,0.114763,0.439734,0.405984,0
2024-12-13 15:35:08.964,-0.0119641,2.6001,5.9016,0.0994917,0.456227,0.412704,0
2024-12-13 15:35:08.966,-0.0430708,2.60728,5.87737,0.0836097,0.467833,0.422477,0
2024-12-13 15:35:08.969,-0.0741775,2.59292,5.85823,0.0658951,0.481882,0.429807,0
2024-12-13 15:35:08.971,-0.107677,2.59771,5.85105,0.0475697,0.492267,0.438359,0
2024-12-13 15:35:08.973,-0.145962,2.60249,5.85584,0.0298552,0.498986,0.445689,0
2024-12-13 15:35:08.976,-0.179462,2.6001,5.85344,0.0121406,0.504483,0.45363,0
2024-12-13 15:35:08.978,-0.217747,2.6001,5.86541,-0.00984991,0.506927,0.459739,0
2024-12-13 15:35:08.980,-0.272782,2.59771,5.88455,-0.0318404,0.50937,0.467069,0
2024-12-13 15:35:08.983,-0.30658,2.59292,5.89921,-0.0513875,0.509981,0.472567,0
2024-12-13 15:35:08.985,-0.337687,2.58814,5.90638,-0.0764323,0.511203,0.479897,0
2024-12-13 15:35:08.988,-0.378365,2.59292,5.93988,-0.0984228,0.511814,0.484784,0
2024-12-13 15:35:08.990,-0.411865,2.58335,5.99013,-0.1253,0.509981,0.492114,0
2024-12-13 15:35:08.992,-0.421436,2.56899,6.04517,-0.145458,0.50937,0.495779,0
2024-12-13 15:35:08.995,-0.428614,2.55464,6.10499,-0.169892,0.505705,0.499444,0
2024-12-13 15:35:08.997,-0.435793,2.53071,6.1672,-0.194937,0.500818,0.501887,0
2024-12-13 15:35:08.999,-0.440578,2.51127,6.25095,-0.219981,0.495321,0.503109,0
2024-12-13 15:35:09.002,-0.459721,2.48255,6.33709,-0.243804,0.486769,0.50372,0
2024-12-13 15:35:09.004,-0.471685,2.43709,6.42084,-0.265795,0.476995,0.505552,0
2024-12-13 15:35:09.006,-0.481256,2.39402,6.52642,-0.290229,0.465389,0.50372,0
2024-12-13 15:35:09.011,-0.505185,2.34616,6.79442,-0.331156,0.438512,0.498833,0
2024-12-13 15:35:09.011,-0.505185,2.34616,6.79442,-0.331156,0.438512,0.498833,0
2024-12-13 15:35:09.013,-0.531506,2.29352,6.94277,-0.34887,0.423852,0.493336,0
2024-12-13 15:35:09.016,-0.569791,2.25284,7.10579,-0.364752,0.412246,0.48906,0
2024-12-13 15:35:09.018,-0.586541,2.2337,7.26611,-0.376969,0.403083,0.486005,0
2024-12-13 15:35:09.021,-0.588933,2.21934,7.42164,-0.389797,0.395753,0.477454,0
2024-12-13 15:35:09.023,-0.588933,2.17149,7.57478,-0.395905,0.390255,0.47501,0
2024-12-13 15:35:09.025,-0.584148,2.13799,7.74258,-0.39896,0.387201,0.470123,0
2024-12-13 15:35:09.028,-0.569791,2.11645,7.90529,-0.401403,0.385368,0.462793,0
2024-12-13 15:35:09.030,-0.557827,2.07338,8.05604,-0.403236,0.384147,0.455463,0
2024-12-13 15:35:09.032,-0.550648,2.02313,8.2023,-0.397738,0.387201,0.4463,0
2024-12-13 15:35:09.035,-0.538684,1.98006,8.34108,-0.39224,0.39392,0.435916,0
2024-12-13 15:35:09.037,-0.524327,1.94387,8.47269,-0.379413,0.400639,0.426142,0
2024-12-13 15:35:09.039,-0.529113,1.90558,8.58036,-0.369028,0.406137,0.41759,0
2024-12-13 15:35:09.042,-0.531506,1.87448,8.69522,-0.355589,0.413467,0.408428,0
2024-12-13 15:35:09.044,-0.533899,1.84098,8.79362,-0.338486,0.418354,0.396211,0
2024-12-13 15:35:09.046,-0.550648,1.81944,8.86541,-0.319549,0.42263,0.385826,0
2024-12-13 15:35:09.049,-0.572184,1.79791,8.92284,-0.300002,0.425684,0.377275,0
2024-12-13 15:35:09.051,-0.591326,1.77876,8.97308,-0.277401,0.427517,0.367501,0
2024-12-13 15:35:09.054,-0.612862,1.75244,9.01616,-0.252967,0.426906,0.360782,0
2024-12-13 15:35:09.056,-0.62004,1.74527,9.03291,-0.225479,0.425684,0.354673,0
2024-12-13 15:35:09.058,-0.617647,1.75244,9.02333,-0.197991,0.42263,0.346121,0
2024-12-13 15:35:09.061,-0.632004,1.72852,9.01376,-0.170503,0.4153,0.342456,0
2024-12-13 15:35:09.063,-0.641576,1.71416,8.98505,-0.140571,0.40797,0.335737,0
2024-12-13 15:35:09.065,-0.624826,1.69741,8.93001,-0.11064,0.397585,0.330239,0
2024-12-13 15:35:09.068,-0.617647,1.68784,8.85584,-0.0819299,0.382925,0.327796,0
2024-12-13 15:35:09.070,-0.62004,1.69262,8.77448,-0.0519984,0.368875,0.326574,0
2024-12-13 15:35:09.072,-0.60329,1.69023,8.67847,-0.0257319,0.351161,0.324131,0
2024-12-13 15:35:09.075,-0.572184,1.69502,8.56122,0.00358873,0.332225,0.322909,0
2024-12-13 15:35:09.077,-0.553041,1.69741,8.45354,0.0316877,0.309012,0.322909,0
2024-12-13 15:35:09.079,-0.52672,1.70698,8.35783,0.0591758,0.287022,0.321687,0
2024-12-13 15:35:09.082,-0.490828,1.73809,8.25015,0.082388,0.261366,0.320466,0
2024-12-13 15:35:09.084,-0.438186,1.76201,8.14008,0.1056,0.237543,0.322298,0
2024-12-13 15:35:09.086,-0.368794,1.76441,8.02732,0.130034,0.21372,0.322298,0
2024-12-13 15:35:09.089,-0.292223,1.7668,7.90768,0.151414,0.190508,0.322298,0
2024-12-13 15:35:09.091,-0.210568,1.77876,7.78804,0.171572,0.168517,0.319855,0
2024-12-13 15:35:09.094,-0.133998,1.78834,7.64686,0.19173,0.152635,0.319244,0
2024-12-13 15:35:09.096,-0.0933201,1.80269,7.50778,0.210055,0.137364,0.315579,0
2024-12-13 15:35:09.098,-0.0765703,1.80987,7.37617,0.224105,0.124536,0.313136,0
2024-12-13 15:35:09.101,-0.0454636,1.80269,7.25893,0.238765,0.114763,0.312525,0
2024-12-13 15:35:09.103,-0.0191426,1.80987,7.16082,0.254647,0.106211,0.310692,0
2024-12-13 15:35:09.105,-0.00957129,1.82662,7.03161,0.270529,0.101324,0.310692,0
2024-12-13 15:35:09.108,-0.0167498,1.84098,6.91406,0.284578,0.094605,0.312525,0
2024-12-13 15:35:09.110,-0.0287139,1.85055,6.81596,0.299239,0.0891073,0.314968,0
2024-12-13 15:35:09.112,-0.0382852,1.86969,6.71546,0.313288,0.0848314,0.318633,0
2024-12-13 15:35:09.115,-0.0574277,1.89601,6.62453,0.324894,0.0817772,0.322298,0
2024-12-13 15:35:09.117,-0.0622134,1.91994,6.52403,0.338333,0.0811663,0.328407,0
2024-12-13 15:35:09.119,-0.0526421,1.93669,6.41366,0.349939,0.0842206,0.334515,0
2024-12-13 15:35:09.122,-0.0646062,1.96062,6.31316,0.361545,0.0884965,0.340624,0
2024-12-13 15:35:09.124,-0.0550349,1.98963,6.21984,0.372617,0.0952158,0.350397,0
2024-12-13 15:35:09.127,-0.0334995,2.00877,6.12413,0.384223,0.102546,0.358338,0
2024-12-13 15:35:09.129,-0.0358923,2.02792,6.04038,0.393996,0.108044,0.369334,0
2024-12-13 15:35:09.131,-0.026321,2.0351,5.97099,0.402548,0.115985,0.378496,0
2024-12-13 15:35:09.134,-0.026321,2.04706,5.88455,0.407435,0.122704,0.387659,0
2024-12-13 15:35:09.136,-0.0215354,2.07338,5.80319,0.414765,0.129423,0.396211,0
2024-12-13 15:35:09.138,0.0143569,2.10449,5.74098,0.419041,0.131256,0.405984,0
2024-12-13 15:35:09.141,0.0358923,2.12842,5.67637,0.419652,0.130034,0.418201,0
2024-12-13 15:35:09.143,0.0430708,2.1667,5.6022,0.420874,0.130034,0.423699,0
2024-12-13 15:35:09.148,0.0382852,2.28395,5.47298,0.412933,0.12698,0.442024,0
2024-12-13 15:35:09.150,0.0502493,2.32941,5.40598,0.403159,0.124536,0.451187,0
2024-12-13 15:35:09.150,0.0502493,2.32941,5.40598,0.403159,0.124536,0.451187,0
2024-12-13 15:35:09.152,0.0478565,2.37009,5.33181,0.393386,0.125147,0.459739,0
2024-12-13 15:35:09.155,0.0526421,2.41795,5.27647,0.38178,0.123315,0.468902,0
2024-12-13 15:35:09.157,0.0741775,2.46341,5.22383,0.368341,0.119039,0.476843,0
2024-12-13 15:35:09.159,0.0885344,2.5017,5.17837,0.352993,0.118428,0.484173,0
2024-12-13 15:35:09.162,0.0885344,2.5331,5.15444,0.334668,0.114763,0.491503,0
2024-12-13 15:35:09.164,0.0981057,2.59053,5.12573,0.312677,0.109265,0.497001,0
2024-12-13 15:35:09.167,0.102891,2.65035,5.08744,0.287633,0.102546,0.502498,0
2024-12-13 15:35:09.169,0.105284,2.69821,5.06351,0.262588,0.0952158,0.506774,0
2024-12-13 15:35:09.171,0.0981057,2.76042,5.0659,0.235711,0.0860531,0.509828,0
2024-12-13 15:35:09.174,0.0789631,2.82742,5.0683,0.202725,0.074447,0.513493,0
2024-12-13 15:35:09.176,0.0502493,2.87528,5.08265,0.167907,0.0622301,0.516548,0
2024-12-13 15:35:09.178,0.0191426,2.91117,5.11855,0.133088,0.0457372,0.522045,0
2024-12-13 15:35:09.181,-0.0143569,2.96142,5.19512,0.0952158,0.0274118,0.522656,0
2024-12-13 15:35:09.183,-0.0478565,3.00927,5.29801,0.0561216,0.00664296,0.528154,0
2024-12-13 15:35:09.185,-0.081356,3.02602,5.41556,0.0158057,-0.0159584,0.531819,0
2024-12-13 15:35:09.188,-0.105284,3.02124,5.56391,0.0158057,-0.0159584,0.531819,0
2024-12-13 15:35:09.190,-0.114855,3.00688,5.73619,-0.0617719,-0.0648262,0.540371,0
2024-12-13 15:35:09.192,-0.119641,2.99731,5.93031,-0.101477,-0.0874275,0.545258,0
2024-12-13 15:35:09.195,-0.112463,2.97099,6.14806,-0.13996,-0.110029,0.549533,0
2024-12-13 15:35:09.197,-0.0933201,2.93749,6.38495,-0.176,-0.132019,0.55442,0
2024-12-13 15:35:09.200,-0.0526421,2.90878,6.64606,-0.212651,-0.149123,0.559918,0
2024-12-13 15:35:09.202,-0.0119641,2.8657,6.92602,-0.246248,-0.163783,0.565416,0
2024-12-13 15:35:09.204,0.0287139,2.82742,7.23261,-0.275568,-0.17539,0.569081,0
2024-12-13 15:35:09.207,0.0741775,2.80588,7.54128,-0.306111,-0.19005,0.571524,0
2024-12-13 15:35:09.210,0.122034,2.77238,7.82632,-0.359865,-0.21204,0.579465,0
2024-12-13 15:35:09.211,0.165105,2.73649,8.13261,-0.359865,-0.21204,0.579465,0
2024-12-13 15:35:09.216,0.294616,2.69342,8.79841,-0.39957,-0.232198,0.584963,0
2024-12-13 15:35:09.216,0.294616,2.69342,8.79841,-0.39957,-0.232198,0.584963,0
2024-12-13 15:35:09.218,0.359223,2.67906,9.14776,-0.415452,-0.237696,0.588628,0
2024-12-13 15:35:09.221,0.409472,2.66471,9.48306,-0.425226,-0.244415,0.591071,0
2024-12-13 15:35:09.223,0.452543,2.63839,9.82792,-0.42828,-0.244415,0.596569,0
2024-12-13 15:35:09.225,0.490828,2.64317,10.1462,-0.42828,-0.243804,0.601456,0
2024-12-13 15:35:09.228,0.541077,2.66231,10.4384,-0.427059,-0.235863,0.607564,0
2024-12-13 15:35:09.230,0.605683,2.6671,10.7255,-0.423394,-0.224257,0.614283,0
2024-12-13 15:35:09.232,0.677468,2.69342,10.989,-0.411177,-0.207764,0.61917,0
2024-12-13 15:35:09.235,0.777966,2.73649,11.2427,-0.395295,-0.181498,0.6265,0
2024-12-13 15:35:09.237,0.88355,2.78435,11.458,-0.376358,-0.148512,0.631998,0
2024-12-13 15:35:09.240,0.988834,2.85613,11.6186,-0.355589,-0.111861,0.636274,0
2024-12-13 15:35:09.242,1.11565,2.95185,11.7526,-0.329934,-0.0715455,0.637495,0
2024-12-13 15:35:09.244,1.24487,3.07149,11.8412,-0.303667,-0.0245102,0.636274,0
2024-12-13 15:35:09.247,1.33819,3.22493,11.8508,-0.277401,0.0243575,0.63383,0
2024-12-13 15:35:09.251,1.47727,3.58385,11.8173,-0.225479,0.122093,0.622224,0
2024-12-13 15:35:09.251,1.47727,3.58385,11.8173,-0.225479,0.122093,0.622224,0
2024-12-13 15:35:09.254,1.5012,3.7684,11.7574,-0.202878,0.164242,0.614894,0
2024-12-13 15:35:09.256,1.49641,3.94786,11.7,-0.181498,0.201503,0.603288,0
2024-12-13 15:35:09.258,1.46291,4.09621,11.6593,-0.163173,0.231435,0.59046,0
2024-12-13 15:35:09.261,1.41745,4.20628,11.645,-0.147901,0.252204,0.575189,0
2024-12-13 15:35:09.263,1.35015,4.27837,11.6689,-0.135074,0.262588,0.558085,0
2024-12-13 15:35:09.265,1.25683,4.31426,11.7407,-0.1253,0.26381,0.53976,0
2024-12-13 15:35:09.268,1.13719,4.31665,11.8316,-0.118581,0.25648,0.520824,0
2024-12-13 15:35:09.270,0.998405,4.28794,11.9704,-0.116137,0.243652,0.501887,0
2024-12-13 15:35:09.273,0.828216,4.25444,12.1645,-0.111861,0.229602,0.485395,0
2024-12-13 15:35:09.277,0.442971,4.20628,12.5856,-0.11064,0.197838,0.464626,0
2024-12-13 15:35:09.277,0.442971,4.20628,12.5856,-0.11064,0.197838,0.464626,0
2024-12-13 15:35:09.280,0.267996,4.17996,12.8133,-0.113083,0.182567,0.456685,0
2024-12-13 15:35:09.283,0.102891,4.16082,12.9999,-0.129576,0.146527,0.448744,0
2024-12-13 15:35:09.284,-0.026321,4.16561,13.1892,-0.129576,0.146527,0.448744,0
2024-12-13 15:35:09.287,-0.136391,4.168,13.3974,-0.144847,0.12698,0.4463,0
2024-12-13 15:35:09.289,-0.227318,4.17518,13.5984,-0.163173,0.103768,0.4463,0
2024-12-13 15:35:09.291,-0.292223,4.16561,13.8117,-0.184552,0.0799446,0.445689,0
2024-12-13 15:35:09.294,-0.335294,4.14407,14.0653,-0.212651,0.0573433,0.446911,0
2024-12-13 15:35:09.296,-0.361615,4.11296,14.348,-0.241972,0.0377962,0.448133,0
2024-12-13 15:35:09.298,-0.371187,4.05793,14.6519,-0.271903,0.0237467,0.449965,0
2024-12-13 15:35:09.301,-0.349651,4.0005,14.9632,-0.301835,0.0121406,0.449965,0
2024-12-13 15:35:09.303,-0.297009,3.94068,15.2791,-0.333599,0.00481042,0.449355,0
2024-12-13 15:35:09.306,-0.239282,3.87368,15.6168,-0.365363,0.00297788,0.448133,0
2024-12-13 15:35:09.308,-0.191426,3.78993,15.9494,-0.396516,0.00786466,0.446911,0
2024-12-13 15:35:09.310,-0.138784,3.7014,16.2966,-0.422783,0.0176382,0.442024,0
2024-12-13 15:35:09.313,-0.0741775,3.60299,16.663,-0.445384,0.0341311,0.439581,0
2024-12-13 15:35:09.317,0.0191426,3.36371,17.307,-0.477148,0.0854423,0.432862,0
2024-12-13 15:35:09.317,0.0191426,3.36371,17.307,-0.477148,0.0854423,0.432862,0
2024-12-13 15:35:09.320,0.0167498,3.24646,17.6372,-0.486311,0.119039,0.428586,0
2024-12-13 15:35:09.322,0.0837488,3.12921,17.9151,-0.484478,0.153246,0.426753,0
2024-12-13 15:35:09.324,0.177069,3.0332,18.1232,-0.480202,0.189286,0.423088,0
2024-12-13 15:35:09.327,0.181855,2.94467,18.3102,-0.467375,0.228381,0.421256,0
2024-12-13 15:35:09.331,0.212961,2.80588,18.559,-0.422783,0.305958,0.418201,0
2024-12-13 15:35:09.331,0.212961,2.80588,18.559,-0.422783,0.305958,0.418201,0
2024-12-13 15:35:09.334,0.236889,2.75803,18.5782,-0.392851,0.341998,0.41759,2
2024-12-13 15:35:09.336,0.253639,2.73171,18.5255,-0.359255,0.373762,0.41698,0
2024-12-13 15:35:09.338,0.248854,2.76281,18.4155,-0.32016,0.402472,0.413925,0
2024-12-13 15:35:09.341,0.234497,2.82742,18.2237,-0.32016,0.402472,0.413925,0
2024-12-13 15:35:09.343,0.193819,2.9327,17.9605,-0.231587,0.439123,0.410871,0
2024-12-13 15:35:09.346,0.150748,3.06909,17.63,-0.182109,0.447064,0.407206,0
2024-12-13 15:35:09.348,0.122034,3.23211,17.2783,-0.136295,0.44462,0.401098,0
2024-12-13 15:35:09.350,0.081356,3.41875,16.9382,-0.0880384,0.435458,0.394378,0
2024-12-13 15:35:09.353,0.0550349,3.59342,16.6008,-0.0391706,0.418965,0.383383,0
2024-12-13 15:35:09.355,0.0358923,3.75643,16.2559,0.00664296,0.399418,0.370555,0
2024-12-13 15:35:09.357,-0.00717847,3.91197,15.9183,0.0487914,0.370097,0.354673,0
2024-12-13 15:35:09.360,-0.0717847,4.04357,15.5952,0.0921616,0.337111,0.336959,0
2024-12-13 15:35:09.362,-0.153141,4.15125,15.2982,0.12698,0.29313,0.317412,0
2024-12-13 15:35:09.364,-0.263211,4.23769,15.047,0.159355,0.243652,0.298475,0
2024-12-13 15:35:09.367,-0.407079,4.30708,14.8265,0.186232,0.187454,0.28015,0
2024-12-13 15:35:09.369,-0.576969,4.35254,14.6542,0.20639,0.125758,0.260603,0
2024-12-13 15:35:09.371,-0.73011,4.34776,14.5274,0.22105,0.0652843,0.241666,0
2024-12-13 15:35:09.374,-0.835394,4.3334,14.4174,0.230213,0.00786466,0.227617,0
2024-12-13 15:35:09.376,-0.909871,4.2999,14.3336,0.232656,-0.0489441,0.212346,0
2024-12-13 15:35:09.379,-0.97687,4.21376,14.2878,0.232656,-0.0489441,0.212346,0
2024-12-13 15:35:09.381,-1.05105,4.09861,14.307,0.219218,-0.149734,0.186079,0
2024-12-13 15:35:09.383,-1.0989,3.97657,14.3862,0.205779,-0.195547,0.175695,0
2024-12-13 15:35:09.386,-1.12044,3.82104,14.525,0.187454,-0.229755,0.165311,0
2024-12-13 15:35:09.390,-1.09412,3.52403,14.793,0.143473,-0.272514,0.15065,0
2024-12-13 15:35:09.390,-1.09412,3.52403,14.793,0.143473,-0.272514,0.15065,0
2024-12-13 15:35:09.393,-1.02233,3.38764,14.9345,0.116595,-0.277401,0.146985,0
2024-12-13 15:35:09.395,-0.921835,3.27039,15.0661,0.0854423,-0.273125,0.141487,0
2024-12-13 15:35:09.400,-0.665504,3.0667,15.2743,0.0188599,-0.237696,0.132248,0
2024-12-13 15:35:09.400,-0.665504,3.0667,15.2743,0.0188599,-0.237696,0.132248,0
2024-12-13 15:35:09.402,-0.517149,3.01406,15.3485,-0.0171801,-0.209597,0.129805,0
2024-12-13 15:35:09.404,-0.359223,2.96142,15.3915,-0.049555,-0.172946,0.125529,0
2024-12-13 15:35:09.407,-0.196211,2.91835,15.4517,-0.081319,-0.13263,0.123086,0
2024-12-13 15:35:09.409,-0.026321,2.87288,15.5234,-0.111251,-0.0837624,0.118199,0
2024-12-13 15:35:09.411,0.155533,2.84656,15.5474,-0.136906,-0.0300079,0.109647,0
2024-12-13 15:35:09.416,0.486042,2.79631,15.5115,-0.169892,0.0793338,0.0919325,0
2024-12-13 15:35:09.416,0.486042,2.79631,15.5115,-0.169892,0.0793338,0.0919325,0
2024-12-13 15:35:09.419,0.632004,2.75803,15.425,-0.179665,0.139808,0.0797156,0
2024-12-13 15:35:09.421,0.744467,2.70539,15.291,-0.185163,0.197838,0.0687203,0
2024-12-13 15:35:09.423,0.80668,2.65274,15.1068,-0.185163,0.255258,0.0546708,0
2024-12-13 15:35:09.426,0.811466,2.57617,14.901,-0.180276,0.309012,0.0442864,0
2024-12-13 15:35:09.428,0.768395,2.5017,14.6973,-0.180276,0.309012,0.0442864,0
2024-12-13 15:35:09.430,0.699003,2.43948,14.4844,-0.154621,0.396974,0.0271827,0
2024-12-13 15:35:09.433,0.612862,2.37248,14.2591,-0.130798,0.433014,0.0210742,0
2024-12-13 15:35:09.435,0.536291,2.3342,14.0605,-0.104531,0.465389,0.0167983,0
2024-12-13 15:35:09.437,0.440578,2.31745,13.8667,-0.0715455,0.489823,0.0125224,0
2024-12-13 15:35:09.440,0.342473,2.31266,13.6439,-0.0342838,0.506927,0.0106898,0
2024-12-13 15:35:09.442,0.282652,2.31745,13.4118,0.00847551,0.520366,0.00885729,0
2024-12-13 15:35:09.444,0.236889,2.32463,13.153,0.0597867,0.525863,0.00946813,0
2024-12-13 15:35:09.447,0.189033,2.34856,12.8468,0.107433,0.527696,0.0106898,0
2024-12-13 15:35:09.449,0.133998,2.38684,12.5115,0.159355,0.522809,0.0119115,0
2024-12-13 15:35:09.452,0.081356,2.42513,12.1645,0.21372,0.51609,0.0131332,0
2024-12-13 15:35:09.454,0.0311067,2.46341,11.7933,0.266864,0.504483,0.0149658,0
2024-12-13 15:35:09.459,-0.0119641,2.48973,11.4078,0.374449,0.470276,0.0210742,0
2024-12-13 15:35:09.459,-0.0550349,2.51127,11.013,0.374449,0.470276,0.0210742,0
2024-12-13 15:35:09.461,-0.0933201,2.5331,10.6394,0.428204,0.448286,0.0222959,0
2024-12-13 15:35:09.463,-0.119641,2.5666,10.2778,0.476461,0.423852,0.0271827,0
2024-12-13 15:35:09.470,-0.222533,2.61207,9.18844,0.604739,0.337722,0.0345129,0
2024-12-13 15:35:09.470,-0.222533,2.61207,9.18844,0.604739,0.337722,0.0345129,0
2024-12-13 15:35:09.470,-0.222533,2.61207,9.18844,0.604739,0.337722,0.0345129,0
2024-12-13 15:35:09.473,-0.241675,2.62164,8.84626,0.638946,0.306569,0.0375671,0
2024-12-13 15:35:09.475,-0.258425,2.64078,8.51097,0.674986,0.276027,0.0406213,0
2024-12-13 15:35:09.477,-0.289831,2.68146,8.18076,0.701253,0.244873,0.0442864,0
2024-12-13 15:35:09.482,-0.318545,2.75563,7.54367,0.738514,0.186232,0.0510057,0
2024-12-13 15:35:09.482,-0.318545,2.75563,7.54367,0.738514,0.186232,0.0510057,0
2024-12-13 15:35:09.485,-0.337687,2.77717,7.24696,0.751342,0.158744,0.05406,0
2024-12-13 15:35:09.487,-0.342473,2.80588,6.95474,0.757451,0.128812,0.0577251,0
2024-12-13 15:35:09.489,-0.361615,2.8346,6.67956,0.758672,0.103768,0.0589468,0
2024-12-13 15:35:09.492,-0.373579,2.85613,6.44238,0.753785,0.0787229,0.0613902,0
2024-12-13 15:35:09.494,-0.371187,2.87528,6.21984,0.745234,0.0561216,0.0613902,0
2024-12-13 15:35:09.496,-0.371187,2.88724,6.00449,0.731184,0.0347419,0.0626118,0
2024-12-13 15:35:09.499,-0.375972,2.9016,5.81755,0.712859,0.0164165,0.0632227,0
2024-12-13 15:35:09.501,-0.383151,2.90638,5.63809,0.691479,0.000534491,0.0638335,0
2024-12-13 15:35:09.503,-0.380758,2.90878,5.47298,0.666434,-0.0129041,0.0613902,0
2024-12-13 15:35:09.506,-0.375972,2.92313,5.3342,0.636503,-0.0232886,0.0601685,0
2024-12-13 15:35:09.508,-0.383151,2.9351,5.19033,0.604128,-0.0312296,0.0601685,0
2024-12-13 15:35:09.510,-0.387936,2.9327,5.0683,0.568088,-0.0410031,0.0601685,0
2024-12-13 15:35:09.513,-0.411865,2.93031,4.97976,0.530215,-0.0458899,0.0583359,0
2024-12-13 15:35:09.515,-0.445364,2.92792,4.89601,0.488678,-0.0507767,0.0552817,0
2024-12-13 15:35:09.517,-0.457328,2.92074,4.82662,0.447751,-0.0507767,0.0565034,0
2024-12-13 15:35:09.520,-0.486042,2.90638,4.8003,0.404381,-0.0501658,0.0571142,0
2024-12-13 15:35:09.522,-0.529113,2.88485,4.77637,0.359713,-0.0501658,0.0565034,0
2024-12-13 15:35:09.525,-0.545863,2.87049,4.74257,0.315121,-0.0471116,0.0595576,0
2024-12-13 15:35:09.527,-0.574577,2.85613,4.733,0.27114,-0.0397814,0.0607793,0
2024-12-13 15:35:09.529,-0.605683,2.83699,4.733,0.224105,-0.0324513,0.0644444,0
2024-12-13 15:35:09.532,-0.634397,2.82024,4.75932,0.181956,-0.0226777,0.0693312,0
2024-12-13 15:35:09.534,-0.658325,2.8011,4.79073,0.139197,-0.0122933,0.0729962,0
2024-12-13 15:35:09.536,-0.675075,2.76999,4.8338,0.0976592,-7.63559e-05,0.0766613,0
2024-12-13 15:35:09.539,-0.696611,2.76521,4.88405,0.0591758,0.0139731,0.082159,0
2024-12-13 15:35:09.541,-0.703789,2.76999,4.93191,0.0219141,0.0286335,0.0870457,0
2024-12-13 15:35:09.543,-0.710967,2.75324,5.00608,-0.013515,0.0445155,0.0931542,0
2024-12-13 15:35:09.546,-0.710967,2.73649,5.08505,-0.0458899,0.0603975,0.0974301,0
2024-12-13 15:35:09.548,-0.703789,2.72213,5.17119,-0.0752106,0.0775012,0.101706,0
2024-12-13 15:35:09.550,-0.701396,2.71017,5.25254,-0.106364,0.0939941,0.107815,0
2024-12-13 15:35:09.553,-0.701396,2.71017,5.3342,-0.130187,0.113541,0.11209,0
2024-12-13 15:35:09.555,-0.71336,2.69821,5.41077,-0.155842,0.130034,0.115756,0
2024-12-13 15:35:09.558,-0.71336,2.67189,5.48016,-0.177222,0.146527,0.117588,0
2024-12-13 15:35:09.560,-0.71336,2.64796,5.54238,-0.198602,0.161798,0.120642,0
2024-12-13 15:35:09.562,-0.715753,2.60728,5.62134,-0.213873,0.174626,0.124918,0
2024-12-13 15:35:09.565,-0.734896,2.57378,5.7338,-0.230366,0.1844,0.126751,0
2024-12-13 15:35:09.567,-0.782752,2.54985,5.84626,-0.243194,0.189286,0.128583,0
2024-12-13 15:35:09.569,-0.833001,2.50648,5.95185,-0.256632,0.191119,0.131027,0
2024-12-13 15:35:09.572,-0.885943,2.47298,6.06431,-0.268238,0.186843,0.13347,0
2024-12-13 15:35:09.574,-0.955334,2.46341,6.21027,-0.276179,0.180124,0.138433,0
2024-12-13 15:35:09.576,-1.02951,2.44427,6.37298,-0.28412,0.169128,0.144542,0
2024-12-13 15:35:09.579,-1.0989,2.42273,6.53839,-0.285953,0.154468,0.15065,0
2024-12-13 15:35:09.581,-1.17308,2.42273,6.71306,-0.29084,0.140419,0.15798,0
2024-12-13 15:35:09.583,-1.23051,2.4347,6.87099,-0.288396,0.122093,0.163478,0
2024-12-13 15:35:09.586,-1.26162,2.4347,7.00977,-0.287175,0.104379,0.170197,0
2024-12-13 15:35:09.588,-1.30229,2.44188,7.13929,-0.285953,0.0848314,0.176917,0
2024-12-13 15:35:09.590,-1.32861,2.44905,7.2685,-0.281066,0.0640626,0.184247,0
2024-12-13 15:35:09.593,-1.35254,2.44188,7.39053,-0.279234,0.0500131,0.187912,0
2024-12-13 15:35:09.595,-1.37886,2.4347,7.48385,-0.273125,0.0310769,0.192799,0
2024-12-13 15:35:09.598,-1.38844,2.42273,7.54607,-0.267017,0.0133623,0.198907,0
2024-12-13 15:35:09.600,-1.41266,2.3988,7.60858,-0.264573,-0.00435229,0.205626,0
2024-12-13 15:35:09.602,-1.43898,2.37009,7.67558,-0.260297,-0.021456,0.211124,0
2024-12-13 15:35:09.605,-1.47727,2.34616,7.76172,-0.255411,-0.0403923,0.218454,0
2024-12-13 15:35:09.607,-1.54188,2.31027,7.87418,-0.250524,-0.0605502,0.228839,0
2024-12-13 15:35:09.609,-1.58495,2.28156,7.96511,-0.241972,-0.0800973,0.23678,0
2024-12-13 15:35:09.612,-1.60409,2.27199,8.04407,-0.237696,-0.0996445,0.248386,0
2024-12-13 15:35:09.614,-1.61366,2.25045,8.13021,-0.229144,-0.117359,0.259381,0
2024-12-13 15:35:09.616,-1.61127,2.23131,8.22383,-0.223036,-0.136295,0.275263,0
2024-12-13 15:35:09.619,-1.61605,2.21456,8.32672,-0.216927,-0.154621,0.285037,0
2024-12-13 15:35:09.621,-1.61127,2.19541,8.42244,-0.210208,-0.169281,0.298475,0
2024-12-13 15:35:09.623,-1.58255,2.15713,8.50619,-0.198602,-0.183941,0.310692,0
2024-12-13 15:35:09.626,-1.56102,2.12124,8.57318,-0.191272,-0.197991,0.325353,0
2024-12-13 15:35:09.628,-1.54666,2.09492,8.63779,-0.179665,-0.208375,0.340624,0
2024-12-13 15:35:09.633,-1.47009,2.05185,8.77687,-0.155842,-0.226701,0.371166,0
2024-12-13 15:35:09.633,-1.47009,2.05185,8.77687,-0.155842,-0.226701,0.371166,0
2024-12-13 15:35:09.635,-1.43659,2.03749,8.84626,-0.142404,-0.232809,0.385826,0
2024-12-13 15:35:09.638,-1.39561,2.00877,8.91326,-0.128354,-0.235863,0.400487,0
2024-12-13 15:35:09.640,-1.35494,1.95823,8.94676,-0.114916,-0.237696,0.414536,0
2024-12-13 15:35:09.642,-1.30708,1.91516,8.9683,-0.0978119,-0.239528,0.427975,0
2024-12-13 15:35:09.647,-1.1994,1.86012,9.00419,-0.0678804,-0.237696,0.456685,0
2024-12-13 15:35:09.647,-1.1994,1.86012,9.00419,-0.0678804,-0.237696,0.456685,0
2024-12-13 15:35:09.649,-1.13001,1.84098,9.00419,-0.0544418,-0.238918,0.469512,0
2024-12-13 15:35:09.652,-1.0654,1.82423,8.99941,-0.0403923,-0.240139,0.481119,0
2024-12-13 15:35:09.654,-0.991227,1.8003,8.97308,-0.0245102,-0.240139,0.48906,0
2024-12-13 15:35:09.656,-0.924228,1.79073,8.94916,-0.00923906,-0.240139,0.500666,0
2024-12-13 15:35:09.659,-0.871586,1.77637,8.91087,0.00297788,-0.241361,0.507385,0
2024-12-13 15:35:09.661,-0.813859,1.75723,8.84626,0.0151948,-0.241361,0.516548,0
2024-12-13 15:35:09.666,-0.703789,1.73809,8.7338,0.042683,-0.242583,0.527543,0
2024-12-13 15:35:09.666,-0.703789,1.73809,8.7338,0.042683,-0.242583,0.527543,0
2024-12-13 15:35:09.668,-0.677468,1.72612,8.65693,0.0555107,-0.241361,0.533651,0
2024-12-13 15:35:09.671,-0.655932,1.71416,8.56601,0.0713928,-0.242583,0.536095,0
2024-12-13 15:35:09.673,-0.632004,1.70459,8.47508,0.0854423,-0.241972,0.540371,0
2024-12-13 15:35:09.675,-0.593719,1.71177,8.37937,0.101324,-0.245026,0.540371,0
2024-12-13 15:35:09.678,-0.553041,1.73809,8.27169,0.114152,-0.243804,0.541592,0
2024-12-13 15:35:09.680,-0.512363,1.75244,8.14726,0.128202,-0.243194,0.540982,0
2024-12-13 15:35:09.682,-0.45015,1.75244,8.01297,0.144694,-0.243194,0.535484,0
2024-12-13 15:35:09.685,-0.368794,1.75244,7.88615,0.161798,-0.242583,0.530597,0
2024-12-13 15:35:09.687,-0.299402,1.76441,7.74497,0.174626,-0.241361,0.521434,0
2024-12-13 15:35:09.689,-0.227318,1.80748,7.60618,0.19173,-0.238307,0.51105,0
2024-12-13 15:35:09.692,-0.179462,1.84098,7.44796,0.19173,-0.238307,0.51105,0
2024-12-13 15:35:09.694,-0.167498,1.85773,7.29721,0.22044,-0.235863,0.486616,0
2024-12-13 15:35:09.696,-0.160319,1.88166,7.17278,0.233267,-0.235253,0.474399,0
2024-12-13 15:35:09.699,-0.155533,1.91516,7.034,0.246706,-0.23342,0.459739,0
2024-12-13 15:35:09.701,-0.153141,1.94865,6.88535,0.259534,-0.234031,0.446911,0
2024-12-13 15:35:09.704,-0.16989,1.97288,6.73699,0.269307,-0.234031,0.432251,0
2024-12-13 15:35:09.708,-0.227318,2.0016,6.45703,0.285189,-0.24075,0.406595,0
2024-12-13 15:35:09.708,-0.227318,2.0016,6.45703,0.285189,-0.24075,0.406595,0
2024-12-13 15:35:09.711,-0.246461,2.01356,6.3347,0.291298,-0.242583,0.3956,0
2024-12-13 15:35:09.713,-0.263211,2.03988,6.21745,0.295574,-0.246859,0.382772,0
2024-12-13 15:35:09.715,-0.265603,2.06142,6.11695,0.296185,-0.252356,0.369944,0
2024-12-13 15:35:09.718,-0.272782,2.09252,6.00927,0.295574,-0.257854,0.35956,0
2024-12-13 15:35:09.720,-0.282652,2.12363,5.89442,0.294963,-0.259076,0.34551,0
2024-12-13 15:35:09.723,-0.272782,2.15713,5.8008,0.292519,-0.26213,0.334515,0
2024-12-13 15:35:09.725,-0.253639,2.19063,5.73141,0.2858,-0.26213,0.32352,0
2024-12-13 15:35:09.727,-0.205783,2.21456,5.64766,0.27847,-0.262741,0.311303,0
2024-12-13 15:35:09.729,-0.162712,2.26241,5.58305,0.268086,-0.260908,0.299697,0
2024-12-13 15:35:09.732,-0.167498,2.32463,5.51845,0.258923,-0.255411,0.28748,0
2024-12-13 15:35:09.734,-0.145962,2.37966,5.46102,0.245484,-0.24808,0.276485,0
2024-12-13 15:35:09.737,-0.11007,2.4323,5.42752,0.230213,-0.237696,0.263046,0
2024-12-13 15:35:09.739,-0.100499,2.48495,5.38445,0.21372,-0.228533,0.248997,0
2024-12-13 15:35:09.741,-0.0598206,2.51845,5.34856,0.196006,-0.21143,0.236169,0
2024-12-13 15:35:09.744,0.0,2.55703,5.3342,0.177069,-0.196158,0.223952,0
2024-12-13 15:35:09.746,0.066999,2.59771,5.33899,0.153857,-0.178444,0.209292,0
2024-12-13 15:35:09.748,0.107677,2.63599,5.34856,0.131256,-0.16134,0.194631,0
2024-12-13 15:35:09.751,0.141177,2.66471,5.38206,0.1056,-0.144236,0.178138,0
2024-12-13 15:35:09.753,0.193819,2.69342,5.40838,0.0811663,-0.128965,0.164089,0
2024-12-13 15:35:09.755,0.191426,2.71735,5.45145,0.0548999,-0.11064,0.149429,0
2024-12-13 15:35:09.758,0.177069,2.73888,5.51845,0.0292443,-0.0923143,0.134768,0
2024-12-13 15:35:09.760,0.162712,2.75803,5.57587,0.000534491,-0.0739889,0.121253,0
2024-12-13 15:35:09.762,0.138784,2.75803,5.66441,-0.0281753,-0.0581068,0.108425,0
2024-12-13 15:35:09.765,0.119641,2.76281,5.7673,-0.0526092,-0.0391706,0.0968193,0
2024-12-13 15:35:09.767,0.0957129,2.77717,5.87498,-0.0770431,-0.0208452,0.085824,0
2024-12-13 15:35:09.769,0.0741775,2.78435,6.00449,-0.101477,-0.00313059,0.0723854,0
2024-12-13 15:35:09.772,0.0574277,2.78196,6.13131,-0.123468,0.0164165,0.0638335,0
2024-12-13 15:35:09.774,0.0454636,2.78435,6.24138,-0.143625,0.0353528,0.05406,0
2024-12-13 15:35:09.777,0.0382852,2.77717,6.35863,-0.161951,0.0542891,0.046119,0
2024-12-13 15:35:09.779,0.0334995,2.76281,6.49053,-0.179055,0.0756687,0.0351237,0
2024-12-13 15:35:09.781,0.0215354,2.76281,6.61017,-0.194937,0.0915507,0.025961,0
2024-12-13 15:35:09.784,0.0239282,2.76999,6.71546,-0.205932,0.109265,0.0174091,0
2024-12-13 15:35:09.786,0.0382852,2.77717,6.83749,-0.218149,0.124536,0.00763559,0
2024-12-13 15:35:09.788,0.0430708,2.77238,6.95474,-0.227312,0.139808,0.00152712,0
2024-12-13 15:35:09.791,0.0502493,2.78674,7.06272,-0.235863,0.15569,-0.0106898,0
2024-12-13 15:35:09.793,0.0478565,2.81067,7.17039,-0.241972,0.167907,-0.01802,0
2024-12-13 15:35:09.795,0.0502493,2.82263,7.26132,-0.245026,0.181956,-0.0290152,0
2024-12-13 15:35:09.798,0.0741775,2.82981,7.34507,-0.250524,0.194784,-0.0406213,0
2024-12-13 15:35:09.800,0.081356,2.84417,7.44078,-0.251135,0.205779,-0.0516166,0
2024-12-13 15:35:09.802,0.0693919,2.85613,7.53649,-0.252967,0.216774,-0.0638335,0
2024-12-13 15:35:09.805,0.0502493,2.86092,7.62533,-0.251745,0.224715,-0.0772722,0
2024-12-13 15:35:09.807,0.0311067,2.8681,7.71386,-0.251745,0.232656,-0.0882674,0
2024-12-13 15:35:09.810,0.00957129,2.88485,7.79522,-0.248691,0.238765,-0.0992627,0
2024-12-13 15:35:09.812,-0.0287139,2.91595,7.85025,-0.24808,0.239987,-0.113312,0
2024-12-13 15:35:09.814,-0.0693919,2.94706,7.92443,-0.241972,0.244263,-0.125529,0
2024-12-13 15:35:09.817,-0.117248,2.98056,8.01297,-0.237085,0.246095,-0.135914,0
2024-12-13 15:35:09.819,-0.174676,3.01167,8.07518,-0.231587,0.249149,-0.146909,0
2024-12-13 15:35:09.821,-0.22014,3.03799,8.12543,-0.225479,0.250982,-0.153628,0
2024-12-13 15:35:09.824,-0.260818,3.06192,8.18794,-0.218149,0.254647,-0.16218,0
2024-12-13 15:35:09.826,-0.299402,3.10289,8.25255,-0.209597,0.255258,-0.170732,0
2024-12-13 15:35:09.828,-0.330509,3.14596,8.29801,-0.20471,0.257701,-0.178062,0
2024-12-13 15:35:09.831,-0.352044,3.17946,8.35304,-0.196158,0.25648,-0.186003,0
2024-12-13 15:35:09.833,-0.371187,3.21296,8.39133,-0.191882,0.254036,-0.193333,0
2024-12-13 15:35:09.835,-0.397508,3.24646,8.41526,-0.189439,0.250982,-0.202496,0
2024-12-13 15:35:09.838,-0.426222,3.27278,8.46551,-0.186385,0.245484,-0.211048,0
2024-12-13 15:35:09.840,-0.440578,3.31585,8.52054,-0.185774,0.241208,-0.221432,0
2024-12-13 15:35:09.842,-0.447757,3.36371,8.58993,-0.185774,0.234489,-0.228151,0
2024-12-13 15:35:09.847,-0.469292,3.45942,8.75055,-0.19005,0.225937,-0.242812,0
2024-12-13 15:35:09.847,-0.495613,3.45942,8.75055,-0.19005,0.225937,-0.242812,0
2024-12-13 15:35:09.850,-0.502792,3.50728,8.82952,-0.192493,0.225326,-0.24892,0
2024-12-13 15:35:09.852,-0.521934,3.54556,8.92762,-0.196158,0.222883,-0.256861,0
2024-12-13 15:35:09.854,-0.541077,3.60778,9.01376,-0.200434,0.22044,-0.263581,0
2024-12-13 15:35:09.857,-0.555434,3.68943,9.08794,-0.207154,0.22105,-0.267857,0
2024-12-13 15:35:09.859,-0.557827,3.77079,9.1669,-0.213873,0.22044,-0.274576,0
2024-12-13 15:35:09.861,-0.548256,3.8689,9.21955,-0.221814,0.219829,-0.280073,0
2024-12-13 15:35:09.864,-0.536291,3.97179,9.26531,-0.230977,0.218607,-0.286793,0
2024-12-13 15:35:09.866,-0.536291,4.08664,9.29163,-0.243194,0.217996,-0.293512,0
2024-12-13 15:35:09.868,-0.567398,4.2015,9.31316,-0.256632,0.213109,-0.300231,0
2024-12-13 15:35:09.871,-0.615255,4.32622,9.34906,-0.272514,0.211888,-0.305729,0
2024-12-13 15:35:09.875,-0.715753,4.57029,9.39691,-0.310998,0.197227,-0.319168,0
2024-12-13 15:35:09.875,-0.715753,4.57029,9.39691,-0.310998,0.197227,-0.319168,0
2024-12-13 15:35:09.878,-0.792323,4.67318,9.44238,-0.33421,0.186232,-0.323444,0
2024-12-13 15:35:09.880,-0.881157,4.77637,9.50459,-0.358033,0.174015,-0.32772,0
2024-12-13 15:35:09.885,-0.996012,4.94866,9.63141,-0.418507,0.144084,-0.333828,0
2024-12-13 15:35:09.885,-0.996012,4.94866,9.63141,-0.418507,0.144084,-0.333828,0
2024-12-13 15:35:09.887,-1.04626,5.00369,9.73191,-0.452103,0.125147,-0.336882,0
2024-12-13 15:35:09.890,-1.11565,5.04437,9.85903,-0.488143,0.1056,-0.337493,0
2024-12-13 15:35:09.892,-1.17787,5.07548,10.0074,-0.526016,0.082388,-0.341158,0
2024-12-13 15:35:09.894,-1.25204,5.08026,10.1821,-0.566332,0.0579541,-0.343602,0
2024-12-13 15:35:09.897,-1.32383,5.05873,10.4169,-0.604815,0.030466,-0.343602,0
2024-12-13 15:35:09.899,-1.42941,5.0324,10.7016,-0.646353,0.00175619,-0.344212,0
2024-12-13 15:35:09.901,-1.55384,4.99891,11.0225,-0.688501,-0.0257319,-0.341769,0
2024-12-13 15:35:09.904,-1.66152,4.93669,11.3839,-0.727595,-0.0501658,-0.336882,0
2024-12-13 15:35:09.906,-1.76441,4.85534,11.7814,-0.764857,-0.073378,-0.327109,0
2024-12-13 15:35:09.908,-1.84576,4.75693,12.2148,-0.80273,-0.0947577,-0.315503,0
2024-12-13 15:35:09.911,-1.90798,4.65165,12.6984,-0.835715,-0.110029,-0.301453,0
2024-12-13 15:35:09.916,-1.96301,4.42194,13.675,-0.900465,-0.128354,-0.258694,0
2024-12-13 15:35:09.916,-1.96301,4.42194,13.675,-0.900465,-0.128354,-0.258694,0
2024-12-13 15:35:09.918,-1.95823,4.29751,14.1897,-0.926732,-0.129576,-0.234871,0
2024-12-13 15:35:09.920,-1.91037,4.17757,14.6973,-0.952387,-0.127133,-0.207993,0
2024-12-13 15:35:09.923,-1.82662,4.06511,15.2025,-0.978043,-0.122246,-0.178673,0
2024-12-13 15:35:09.925,-1.71894,3.92872,15.7149,-1.00003,-0.114305,-0.148741,0
2024-12-13 15:35:09.927,-1.59452,3.75404,16.2464,-1.02141,-0.105142,-0.118199,0
2024-12-13 15:35:09.930,-1.44138,3.59581,16.7851,-1.03974,-0.0978119,-0.0882674,0
2024-12-13 15:35:09.932,-1.25922,3.43789,17.2926,-1.05501,-0.0904818,-0.0571142,0
2024-12-13 15:35:09.934,-1.04865,3.2656,17.7667,-1.06539,-0.0807082,-0.025961,0
2024-12-13 15:35:09.937,-0.811466,3.11007,18.2046,-1.07395,-0.0715455,0.000916271,0
2024-12-13 15:35:09.939,-0.600898,2.95663,18.6165,-1.07578,-0.0556635,0.0284044,0
2024-12-13 15:35:09.941,-0.390329,2.81067,18.9853,-1.07578,-0.0385597,0.0565034,0
2024-12-13 15:35:09.944,-0.265603,2.8346,19.148,-1.06356,-0.0171801,0.0815481,0
2024-12-13 15:35:09.946,-0.344866,2.96142,19.2126,-1.05318,0.0292443,0.119421,0
2024-12-13 15:35:09.948,-0.318545,2.88245,19.6053,-1.03852,0.0738362,0.161645,0
2024-12-13 15:35:09.951,-0.0239282,2.60249,20.065,-1.0092,0.0927724,0.201961,0
2024-12-13 15:35:09.953,0.320937,2.25763,20.3474,-0.974989,0.0988809,0.236169,0
2024-12-13 15:35:09.956,0.586541,1.89601,20.6324,-0.930397,0.0988809,0.2661,2
2024-12-13 15:35:09.958,0.813859,1.50838,20.8238,-0.872366,0.090329,0.291145,0
2024-12-13 15:35:09.960,1.0678,1.13719,20.7616,-0.81006,0.0854423,0.307638,0
2024-12-13 15:35:09.963,1.37886,0.85005,20.5487,-0.742256,0.0958267,0.322909,0
2024-12-13 15:35:09.965,1.71655,0.610469,20.4239,-0.662235,0.117206,0.327796,0
2024-12-13 15:35:09.967,1.91276,0.481256,20.2804,-0.576105,0.133088,0.326574,0
2024-12-13 15:35:09.970,1.95823,0.512363,19.9884,-0.486311,0.152635,0.32352,0
2024-12-13 15:35:09.972,1.91037,0.639183,19.5646,-0.39224,0.176459,0.319855,0
2024-12-13 15:35:09.974,1.82423,0.818644,19.0666,-0.296337,0.19906,0.31619,0
2024-12-13 15:35:09.977,1.70698,1.02473,18.5686,-0.200434,0.22105,0.314968,0
2024-12-13 15:35:09.979,1.53709,1.23529,18.0969,-0.106975,0.239376,0.313136,0
2024-12-13 15:35:09.981,1.35254,1.47009,17.6181,-0.00923906,0.252204,0.31619,0
2024-12-13 15:35:09.984,1.1683,1.70459,17.1057,0.0842206,0.258923,0.318022,0
2024-12-13 15:35:09.986,0.981655,1.9008,16.5479,0.172793,0.25648,0.322298,0
2024-12-13 15:35:09.989,0.813859,2.04945,15.9374,0.252814,0.24976,0.326574,0
2024-12-13 15:35:09.991,0.665504,2.16431,15.303,0.326727,0.234489,0.330239,0
2024-12-13 15:35:09.993,0.565005,2.23131,14.7141,0.388499,0.214942,0.335737,0
2024-12-13 15:35:09.996,0.490828,2.25045,14.1873,0.443475,0.188675,0.33818,0
2024-12-13 15:35:09.998,0.3999,2.2672,13.6941,0.488678,0.152635,0.338791,0
2024-12-13 15:35:10.000,0.325723,2.28156,13.2299,0.522274,0.108044,0.341845,0
2024-12-13 15:35:10.003,0.246461,2.28873,12.7917,0.546097,0.0591758,0.340624,0
2024-12-13 15:35:10.005,0.145962,2.29352,12.3966,0.560147,0.00908635,0.339402,0
2024-12-13 15:35:10.007,0.0550349,2.31745,12.0613,0.565645,-0.0452791,0.341235,0
2024-12-13 15:35:10.010,-0.00957129,2.35573,11.7909,0.563812,-0.0947577,0.343678,0
2024-12-13 15:35:10.012,-0.0550349,2.37966,11.5804,0.552817,-0.142404,0.343067,0
2024-12-13 15:35:10.014,-0.0861416,2.41077,11.391,0.534491,-0.185163,0.343678,0
2024-12-13 15:35:10.017,-0.0933201,2.45384,11.2499,0.505171,-0.216927,0.34551,0
2024-12-13 15:35:10.019,-0.0789631,2.47059,11.1541,0.472796,-0.241972,0.346732,0
2024-12-13 15:35:10.021,-0.0646062,2.47537,11.0824,0.434923,-0.2548,0.351008,0
2024-12-13 15:35:10.024,-0.040678,2.47059,11.056,0.392775,-0.261519,0.35223,0
2024-12-13 15:35:10.026,0.0143569,2.4658,11.0608,0.34322,-0.257854,0.355895,0
2024-12-13 15:35:10.029,0.0909273,2.47059,11.1015,0.288244,-0.243804,0.360171,0
2024-12-13 15:35:10.031,0.18664,2.45623,11.1661,0.235711,-0.215095,0.364447,0
2024-12-13 15:35:10.033,0.292223,2.4323,11.2235,0.180124,-0.183331,0.368723,0
2024-12-13 15:35:10.036,0.380758,2.41316,11.2881,0.122704,-0.143015,0.37422,0
2024-12-13 15:35:10.038,0.452543,2.38684,11.3695,0.0616192,-0.0978119,0.379718,0
2024-12-13 15:35:10.040,0.512363,2.35813,11.4509,0.00847551,-0.0483333,0.385216,0
2024-12-13 15:35:10.043,0.541077,2.31984,11.5612,-0.0471116,0.00175619,0.396211,0
2024-12-13 15:35:10.045,0.54347,2.26481,11.7048,-0.0990336,0.0475697,0.405984,0
2024-12-13 15:35:10.047,0.548256,2.2002,11.8531,-0.149734,0.0921616,0.41698,0
2024-12-13 15:35:10.050,0.557827,2.13559,12.0183,-0.194937,0.132477,0.429807,0
2024-12-13 15:35:10.052,0.548256,2.07577,12.1837,-0.229755,0.172183,0.444468,0
2024-12-13 15:35:10.054,0.541077,2.03031,12.3296,-0.256632,0.214331,0.459739,0
2024-12-13 15:35:10.057,0.54347,1.98963,12.4732,-0.283509,0.24976,0.477454,0
2024-12-13 15:35:10.059,0.52672,1.96062,12.6024,-0.301224,0.287022,0.493946,0
2024-12-13 15:35:10.062,0.502792,1.92712,12.7008,-0.309776,0.320008,0.511661,0
2024-12-13 15:35:10.064,0.488435,1.89601,12.7917,-0.315884,0.346274,0.531208,0
2024-12-13 15:35:10.066,0.478864,1.87926,12.8611,-0.319549,0.37193,0.548923,0
2024-12-13 15:35:10.069,0.476471,1.85773,12.9233,-0.317717,0.392698,0.566637,0
2024-12-13 15:35:10.071,0.4669,1.84337,12.964,-0.31283,0.409802,0.586795,0
2024-12-13 15:35:10.073,0.447757,1.84098,12.9568,-0.303057,0.424462,0.602066,0
2024-12-13 15:35:10.080,0.414257,1.85055,12.775,-0.255411,0.434847,0.644826,0
2024-12-13 15:35:10.080,0.414257,1.85055,12.775,-0.255411,0.434847,0.644826,0
2024-12-13 15:35:10.083,0.387936,1.8673,12.6625,-0.234642,0.423852,0.655821,0
2024-12-13 15:35:10.083,0.387936,1.8673,12.6625,-0.234642,0.423852,0.655821,0
2024-12-13 15:35:10.085,0.320937,1.88166,12.5498,-0.216316,0.411024,0.667427,0
2024-12-13 15:35:10.087,0.222533,1.90798,12.4804,-0.193104,0.392698,0.677811,0
2024-12-13 15:35:10.090,0.136391,1.93669,12.4277,-0.167449,0.374373,0.688196,0
2024-12-13 15:35:10.092,0.107677,1.95344,12.3296,-0.136295,0.35055,0.697969,0
2024-12-13 15:35:10.095,0.100499,1.94865,12.186,-0.106364,0.332835,0.705299,0
2024-12-13 15:35:10.097,0.0789631,1.95583,12.0206,-0.0684913,0.322451,0.714462,0
2024-12-13 15:35:10.099,0.0693919,1.97049,11.8843,-0.0287862,0.312677,0.723014,0
2024-12-13 15:35:10.102,0.0717847,1.97049,11.7694,0.00908635,0.305958,0.730344,0
2024-12-13 15:35:10.104,0.0598206,1.97288,11.6474,0.0524565,0.301682,0.737064,0
2024-12-13 15:35:10.106,0.0430708,1.98245,11.5086,0.0970484,0.296185,0.74195,0
2024-12-13 15:35:10.109,0.0358923,2.00638,11.3288,0.142862,0.290687,0.746837,0
2024-12-13 15:35:10.111,0.0239282,2.04945,11.1206,0.189286,0.285189,0.749891,0
2024-12-13 15:35:10.113,0.0167498,2.07817,10.8858,0.232046,0.276637,0.753556,0
2024-12-13 15:35:10.116,0.00717847,2.11167,10.6179,0.271751,0.266253,0.758443,0
2024-12-13 15:35:10.118,0.0,2.15713,10.3448,0.310845,0.25648,0.759665,0
2024-12-13 15:35:10.120,0.00478565,2.18824,10.0983,0.348717,0.246095,0.762108,0
2024-12-13 15:35:10.123,0.0191426,2.21695,9.84946,0.38239,0.2351,0.764552,0
2024-12-13 15:35:10.125,0.0334995,2.22174,9.59791,0.415987,0.222883,0.763941,0
2024-12-13 15:35:10.128,0.0358923,2.21695,9.36341,0.442864,0.207612,0.766384,0
2024-12-13 15:35:10.130,0.0382852,2.22174,9.14058,0.474017,0.193562,0.766995,0
2024-12-13 15:35:10.132,0.0526421,2.24566,8.92762,0.499673,0.178902,0.768217,0
2024-12-13 15:35:10.135,0.0622134,2.24327,8.71705,0.524718,0.16302,0.766995,0
2024-12-13 15:35:10.137,0.0502493,2.23849,8.50619,0.544265,0.147138,0.766384,0
2024-12-13 15:35:10.139,0.040678,2.24806,8.30997,0.565034,0.128202,0.766384,0
2024-12-13 15:35:10.142,0.0430708,2.25284,8.12064,0.585802,0.114763,0.765773,0
2024-12-13 15:35:10.144,0.0574277,2.25045,7.92443,0.603517,0.0982701,0.766384,0
2024-12-13 15:35:10.146,0.0789631,2.25284,7.73779,0.623064,0.0811663,0.766995,0
2024-12-13 15:35:10.149,0.0957129,2.26002,7.56999,0.637725,0.0671168,0.766995,0
2024-12-13 15:35:10.151,0.11007,2.26959,7.40728,0.651774,0.050624,0.765163,0
2024-12-13 15:35:10.153,0.122034,2.28395,7.25414,0.666434,0.038407,0.765163,0
2024-12-13 15:35:10.156,0.114855,2.29352,7.09143,0.676819,0.0261901,0.765163,0
2024-12-13 15:35:10.158,0.102891,2.31027,6.9332,0.687814,0.0164165,0.76333,0
2024-12-13 15:35:10.160,0.0981057,2.32463,6.78963,0.695755,0.00481042,0.762108,0
2024-12-13 15:35:10.165,0.0861416,2.36531,6.48575,0.709194,-0.0129041,0.763941,0
2024-12-13 15:35:10.165,0.0861416,2.36531,6.48575,0.709194,-0.0129041,0.763941,0
2024-12-13 15:35:10.168,0.0933201,2.38684,6.32752,0.711637,-0.0202343,0.76333,0
2024-12-13 15:35:10.170,0.081356,2.41077,6.19352,0.714691,-0.0238994,0.763941,0
2024-12-13 15:35:10.172,0.0957129,2.42752,6.0667,0.71408,-0.0257319,0.767606,0
2024-12-13 15:35:10.175,0.122034,2.43709,5.93749,0.709805,-0.0287862,0.767606,0
2024-12-13 15:35:10.177,0.119641,2.45145,5.79601,0.708583,-0.0281753,0.768217,0
2024-12-13 15:35:10.179,0.119641,2.46102,5.68116,0.703696,-0.0226777,0.768217,0
2024-12-13 15:35:10.182,0.129212,2.4658,5.60459,0.698809,-0.0171801,0.768828,0
2024-12-13 15:35:10.184,0.119641,2.48495,5.49452,0.69209,-0.00923906,0.768828,0
2024-12-13 15:35:10.186,0.0933201,2.52323,5.36531,0.685371,0.00297788,0.768828,0
2024-12-13 15:35:10.189,0.0909273,2.53789,5.25015,0.67743,0.0170274,0.770049,0
2024-12-13 15:35:10.191,0.0981057,2.54267,5.15922,0.665824,0.0322986,0.772493,0
2024-12-13 15:35:10.193,0.380758,2.34856,5.24776,0.652996,0.0439046,0.771271,0
2024-12-13 15:35:10.196,0.622433,2.12842,5.4012,0.646276,0.0274118,0.756611,0
2024-12-13 15:35:10.198,0.265603,2.31984,4.98694,0.640168,0.0445155,0.74134,0
2024-12-13 15:35:10.200,-0.0382852,2.62642,4.52722,0.623064,0.0988809,0.74134,0
2024-12-13 15:35:10.203,-0.0191426,2.76521,4.57268,0.60596,0.137975,0.744394,0
2024-12-13 15:35:10.205,0.313759,2.59532,4.8673,0.587635,0.15569,0.747448,0
2024-12-13 15:35:10.208,0.514756,2.38684,5.01326,0.57664,0.137364,0.732177,0
2024-12-13 15:35:10.210,0.0478565,2.61924,4.44108,0.559536,0.160576,0.723014,0
2024-12-13 15:35:10.212,-0.253639,2.9351,3.95982,0.532048,0.227159,0.727901,0
2024-12-13 15:35:10.215,-0.179462,3.03559,4.09621,0.503338,0.26381,0.735842,0
2024-12-13 15:35:10.217,0.251246,2.76999,4.56072,0.470963,0.267475,0.739507,0
2024-12-13 15:35:10.219,0.378365,2.56421,4.6684,0.452027,0.234489,0.724236,0
2024-12-13 15:35:10.222,-0.141177,2.82263,4.03879,0.420874,0.251593,0.717516,0
2024-12-13 15:35:10.224,-0.34008,3.06431,3.69183,0.383612,0.29985,0.724236,0
2024-12-13 15:35:10.226,-0.277567,3.13879,3.89522,0.345663,0.323673,0.731566,0
2024-12-13 15:35:10.229,-0.282652,3.134,4.06032,0.31451,0.330392,0.735842,0
2024-12-13 15:35:10.231,0.00478565,2.89681,4.3023,0.274194,0.327949,0.74195,0
2024-12-13 15:35:10.233,0.145962,2.69581,4.40519,0.247317,0.304126,0.729123,0
2024-12-13 15:35:10.236,-0.0430708,2.87288,3.99811,0.21372,0.320008,0.71996,0
2024-12-13 15:35:10.238,-0.00957129,3.0667,3.95504,0.177069,0.358491,0.716295,0
2024-12-13 15:35:10.242,-0.0550349,3.13879,4.23769,0.11232,0.398196,0.715684,0
2024-12-13 15:35:10.243,-0.282652,3.18664,4.24008,0.11232,0.398196,0.715684,0
2024-12-13 15:35:10.245,-0.524327,3.23928,4.168,0.0799446,0.417743,0.719349,0
2024-12-13 15:35:10.248,-0.696611,3.2345,4.14168,0.0451263,0.441566,0.726679,0
2024-12-13 15:35:10.250,-0.782752,3.1675,4.20628,0.010308,0.462335,0.736453,0
2024-12-13 15:35:10.252,-0.8668,3.08584,4.35494,-0.0226777,0.474552,0.743783,0
2024-12-13 15:35:10.255,-0.931406,2.9686,4.51286,-0.0532201,0.479439,0.751113,0
2024-12-13 15:35:10.257,-0.830609,2.81306,4.67558,-0.0825407,0.482493,0.756611,0
2024-12-13 15:35:10.259,-0.677468,2.69821,4.83859,-0.107585,0.486769,0.759054,0
2024-12-13 15:35:10.262,-0.646361,2.6671,4.95583,-0.127743,0.49471,0.754778,0
2024-12-13 15:35:10.264,-0.648754,2.67189,5.02044,-0.14668,0.507538,0.751724,0
2024-12-13 15:35:10.266,-0.639183,2.68385,5.11376,-0.165005,0.526474,0.750502,0
2024-12-13 15:35:10.269,-0.617647,2.68385,5.25494,-0.180887,0.547854,0.746226,0
2024-12-13 15:35:10.271,-0.598505,2.68624,5.39402,-0.194326,0.571066,0.74195,0
2024-12-13 15:35:10.273,-0.605683,2.69581,5.52802,-0.204099,0.594889,0.736453,0
2024-12-13 15:35:10.276,-0.629611,2.71017,5.67877,-0.212651,0.613825,0.73462,0
2024-12-13 15:35:10.278,-0.677468,2.71256,5.84387,-0.220592,0.630929,0.731566,0
2024-12-13 15:35:10.281,-0.732503,2.69821,5.99492,-0.224868,0.643146,0.728512,0
2024-12-13 15:35:10.283,-0.794716,2.68624,6.12892,-0.227312,0.650476,0.72729,0
