timestamp,accel_x,accel_y,accel_z,gyro_x,gyro_y,gyro_z,step_timestamp
2024-12-13 15:42:24.764,-0.490828,3.28475,9.6003,-0.0306187,-0.0355055,-0.00213797,0
2024-12-13 15:42:24.764,-0.462114,3.28475,9.6003,-0.0306187,-0.0355055,-0.00213797,0
2024-12-13 15:42:24.764,-0.462114,3.28475,9.6003,-0.0306187,-0.0355055,-0.00213797,0
2024-12-13 15:42:24.764,-0.462114,3.28475,9.6003,-0.0306187,-0.0355055,-0.00213797,0
2024-12-13 15:42:24.764,-0.462114,3.28475,9.6003,-0.0306187,-0.0355055,-0.00213797,0
2024-12-13 15:42:24.766,-0.45015,3.268,9.58355,-0.0312296,-0.0348946,-0.00274881,0
2024-12-13 15:42:24.766,-0.45015,3.268,9.58355,-0.0312296,-0.0348946,-0.00274881,0
2024-12-13 15:42:24.766,-0.45015,3.268,9.58355,-0.0312296,-0.0348946,-0.00274881,0
2024-12-13 15:42:24.766,-0.45015,3.268,9.58355,-0.0312296,-0.0348946,-0.00274881,0
2024-12-13 15:42:24.766,-0.45015,3.268,9.58355,-0.0312296,-0.0348946,-0.00274881,0
2024-12-13 15:42:24.766,-0.45015,3.268,9.58355,-0.0312296,-0.0348946,-0.00274881,0
2024-12-13 15:42:24.766,-0.45015,3.268,9.58355,-0.0312296,-0.0348946,-0.00274881,0
2024-12-13 15:42:24.766,-0.45015,3.268,9.58355,-0.0312296,-0.0348946,-0.00274881,0
2024-12-13 15:42:24.766,-0.45015,3.268,9.58355,-0.0312296,-0.0348946,-0.00274881,0
2024-12-13 15:42:24.766,-0.45015,3.268,9.58355,-0.0312296,-0.0348946,-0.00274881,0
2024-12-13 15:42:24.766,-0.45015,3.268,9.58355,-0.0312296,-0.0348946,-0.00274881,0
2024-12-13 15:42:24.766,-0.45015,3.268,9.58355,-0.0312296,-0.0348946,-0.00274881,0
2024-12-13 15:42:24.766,-0.45015,3.268,9.58355,-0.0312296,-0.0348946,-0.00274881,0
2024-12-13 15:42:24.766,-0.45015,3.268,9.58355,-0.0312296,-0.0348946,-0.00274881,0
2024-12-13 15:42:24.766,-0.45015,3.268,9.58355,-0.0312296,-0.0348946,-0.00274881,0
2024-12-13 15:42:24.766,-0.45015,3.268,9.58355,-0.0312296,-0.0348946,-0.00274881,0
2024-12-13 15:42:24.766,-0.45015,3.268,9.58355,-0.0312296,-0.0348946,-0.00274881,0
2024-12-13 15:42:24.766,-0.45015,3.268,9.58355,-0.0312296,-0.0348946,-0.00274881,0
2024-12-13 15:42:24.766,-0.45015,3.268,9.58355,-0.0312296,-0.0348946,-0.00274881,0
2024-12-13 15:42:24.766,-0.45015,3.268,9.58355,-0.0312296,-0.0348946,-0.00274881,0
2024-12-13 15:42:24.771,-0.428614,3.25364,9.56441,-0.033673,-0.0385597,-0.000916271,0
2024-12-13 15:42:24.771,-0.428614,3.25364,9.56441,-0.033673,-0.0385597,-0.000916271,0
2024-12-13 15:42:24.771,-0.428614,3.25364,9.56441,-0.033673,-0.0385597,-0.000916271,0
2024-12-13 15:42:24.771,-0.428614,3.25364,9.56441,-0.033673,-0.0385597,-0.000916271,0
2024-12-13 15:42:24.771,-0.428614,3.25364,9.56441,-0.033673,-0.0385597,-0.000916271,0
2024-12-13 15:42:24.773,-0.419043,3.24168,9.53809,-0.0361163,-0.0397814,-0.00152712,0
2024-12-13 15:42:24.773,-0.419043,3.24168,9.53809,-0.0361163,-0.0397814,-0.00152712,0
2024-12-13 15:42:24.773,-0.419043,3.24168,9.53809,-0.0361163,-0.0397814,-0.00152712,0
2024-12-13 15:42:24.773,-0.419043,3.24168,9.53809,-0.0361163,-0.0397814,-0.00152712,0
2024-12-13 15:42:24.773,-0.419043,3.24168,9.53809,-0.0361163,-0.0397814,-0.00152712,0
2024-12-13 15:42:24.773,-0.419043,3.24168,9.53809,-0.0361163,-0.0397814,-0.00152712,0
2024-12-13 15:42:24.773,-0.419043,3.24168,9.53809,-0.0361163,-0.0397814,-0.00152712,0
2024-12-13 15:42:24.775,-0.404686,3.23928,9.5357,-0.0391706,-0.0434465,-0.00335966,0
2024-12-13 15:42:24.775,-0.404686,3.23928,9.5357,-0.0391706,-0.0434465,-0.00335966,0
2024-12-13 15:42:24.775,-0.404686,3.23928,9.5357,-0.0391706,-0.0434465,-0.00335966,0
2024-12-13 15:42:24.775,-0.404686,3.23928,9.5357,-0.0391706,-0.0434465,-0.00335966,0
2024-12-13 15:42:24.775,-0.404686,3.23928,9.5357,-0.0391706,-0.0434465,-0.00335966,0
2024-12-13 15:42:24.775,-0.404686,3.23928,9.5357,-0.0391706,-0.0434465,-0.00335966,0
2024-12-13 15:42:24.778,-0.402293,3.2345,9.53091,-0.0403923,-0.0458899,-0.00580305,0
2024-12-13 15:42:24.778,-0.402293,3.2345,9.53091,-0.0403923,-0.0458899,-0.00580305,0
2024-12-13 15:42:24.778,-0.402293,3.2345,9.53091,-0.0403923,-0.0458899,-0.00580305,0
2024-12-13 15:42:24.778,-0.402293,3.2345,9.53091,-0.0403923,-0.0458899,-0.00580305,0
2024-12-13 15:42:24.778,-0.402293,3.2345,9.53091,-0.0403923,-0.0458899,-0.00580305,0
2024-12-13 15:42:24.778,-0.402293,3.2345,9.53091,-0.0403923,-0.0458899,-0.00580305,0
2024-12-13 15:42:24.778,-0.402293,3.2345,9.53091,-0.0403923,-0.0458899,-0.00580305,0
2024-12-13 15:42:24.778,-0.402293,3.2345,9.53091,-0.0403923,-0.0458899,-0.00580305,0
2024-12-13 15:42:24.780,-0.407079,3.22971,9.51416,-0.0410031,-0.0471116,-0.00702474,0
2024-12-13 15:42:24.780,-0.407079,3.22971,9.51416,-0.0410031,-0.0471116,-0.00702474,0
2024-12-13 15:42:24.783,-0.411865,3.22732,9.51895,-0.0410031,-0.0483333,-0.0113007,0
2024-12-13 15:42:24.785,-0.409472,3.2345,9.50459,-0.0403923,-0.0489441,-0.0125224,0
2024-12-13 15:42:24.787,-0.407079,3.24407,9.49023,-0.0403923,-0.0458899,-0.0155766,0
2024-12-13 15:42:24.790,-0.397508,3.26321,9.48784,-0.0410031,-0.0458899,-0.0186308,0
2024-12-13 15:42:24.792,-0.383151,3.268,9.4687,-0.0385597,-0.0446682,-0.0222959,0
2024-12-13 15:42:24.794,-0.368794,3.2656,9.44477,-0.033673,-0.0446682,-0.0247393,0
2024-12-13 15:42:24.797,-0.352044,3.27518,9.42802,-0.0312296,-0.0379489,-0.0277936,0
2024-12-13 15:42:24.799,-0.332901,3.28953,9.42084,-0.029397,-0.0379489,-0.0314586,0
2024-12-13 15:42:24.801,-0.32333,3.28235,9.41366,-0.0257319,-0.0355055,-0.038178,0
2024-12-13 15:42:24.804,-0.325723,3.28235,9.39931,-0.0220669,-0.0342838,-0.0430647,0
2024-12-13 15:42:24.806,-0.342473,3.29671,9.39452,-0.0196235,-0.0342838,-0.0491732,0
2024-12-13 15:42:24.809,-0.354437,3.3015,9.38016,-0.0147367,-0.0330621,-0.0528383,0
2024-12-13 15:42:24.811,-0.352044,3.31825,9.35863,-0.013515,-0.0348946,-0.0558925,0
2024-12-13 15:42:24.813,-0.35683,3.34457,9.34427,-0.0104608,-0.0361163,-0.0583359,0
2024-12-13 15:42:24.815,-0.378365,3.35892,9.33709,-0.00679568,-0.0348946,-0.0626118,0
2024-12-13 15:42:24.818,-0.3999,3.36371,9.32513,-0.00435229,-0.0379489,-0.0638335,0
2024-12-13 15:42:24.820,-0.404686,3.3661,9.30838,-0.00435229,-0.0367272,-0.0662769,0
2024-12-13 15:42:24.823,-0.407079,3.36371,9.29402,-7.63559e-05,-0.0361163,-0.0681095,0
2024-12-13 15:42:24.825,-0.387936,3.36371,9.28206,-7.63559e-05,-0.0361163,-0.0681095,0
2024-12-13 15:42:24.827,-0.366401,3.3685,9.27009,-0.00251974,-0.0391706,-0.0693312,0
2024-12-13 15:42:24.830,-0.361615,3.3685,9.2677,-0.0019089,-0.0397814,-0.0717745,0
2024-12-13 15:42:24.832,-0.352044,3.3685,9.26531,-0.00374144,-0.0452791,-0.0723854,0
2024-12-13 15:42:24.834,-0.352044,3.37807,9.25783,-0.00374144,-0.0452791,-0.0723854,0
2024-12-13 15:42:24.839,-0.344866,3.38764,9.26292,-0.0129041,-0.0513875,-0.0717745,0
2024-12-13 15:42:24.839,-0.344866,3.38764,9.26292,-0.0129041,-0.0513875,-0.0717745,0
2024-12-13 15:42:24.841,-0.354437,3.39721,9.26052,-0.0196235,-0.0556635,-0.0693312,0
2024-12-13 15:42:24.844,-0.361615,3.40439,9.2677,-0.0232886,-0.0599394,-0.069942,0
2024-12-13 15:42:24.846,-0.373579,3.39242,9.27727,-0.0306187,-0.0581068,-0.0662769,0
2024-12-13 15:42:24.848,-0.371187,3.38285,9.29402,-0.0324513,-0.0611611,-0.0650552,0
2024-12-13 15:42:24.851,-0.380758,3.37807,9.29881,-0.0397814,-0.0617719,-0.0613902,0
2024-12-13 15:42:24.853,-0.387936,3.3661,9.31795,-0.0452791,-0.0593285,-0.0571142,0
2024-12-13 15:42:24.856,-0.383151,3.3661,9.36341,-0.0538309,-0.0587177,-0.0534491,0
2024-12-13 15:42:24.858,-0.385544,3.38525,9.39452,-0.0562743,-0.0556635,-0.0503949,0
2024-12-13 15:42:24.860,-0.397508,3.39721,9.42323,-0.0629936,-0.0513875,-0.0455081,0
2024-12-13 15:42:24.863,-0.409472,3.39003,9.44956,-0.0691021,-0.0483333,-0.0424539,0
2024-12-13 15:42:24.865,-0.4334,3.38764,9.4687,-0.0758214,-0.0458899,-0.038178,0
2024-12-13 15:42:24.867,-0.459721,3.37807,9.5022,-0.0788757,-0.041614,-0.0345129,0
2024-12-13 15:42:24.870,-0.4669,3.37807,9.55245,-0.0837624,-0.0385597,-0.0277936,0
2024-12-13 15:42:24.873,-0.486042,3.37567,9.60748,-0.0837624,-0.0275645,-0.0192417,0
2024-12-13 15:42:24.874,-0.498006,3.37328,9.65773,-0.0837624,-0.0275645,-0.0192417,0
2024-12-13 15:42:24.877,-0.481256,3.37807,9.69602,-0.0843733,-0.0251211,-0.0167983,0
2024-12-13 15:42:24.879,-0.45015,3.3685,9.72473,-0.0837624,-0.021456,-0.0143549,0
2024-12-13 15:42:24.882,-0.4334,3.35175,9.74866,-0.0807082,-0.0171801,-0.0113007,0
2024-12-13 15:42:24.884,-0.428614,3.3685,9.78216,-0.0758214,-0.0141258,-0.00885729,0
2024-12-13 15:42:24.886,-0.423829,3.37089,9.80609,-0.0709346,-0.0129041,-0.00824644,0
2024-12-13 15:42:24.889,-0.411865,3.34696,9.81805,-0.0660479,-0.0104608,-0.00763559,0
2024-12-13 15:42:24.891,-0.407079,3.34457,9.84228,-0.0605502,-0.00801737,-0.00824644,0
2024-12-13 15:42:24.893,-0.41665,3.35653,9.87338,-0.0556635,-0.00801737,-0.00702474,0
2024-12-13 15:42:24.896,-0.419043,3.36371,9.87578,-0.049555,-0.00618483,-0.00885729,0
2024-12-13 15:42:24.898,-0.426222,3.3685,9.8686,-0.041614,-0.00557398,-0.010079,0
2024-12-13 15:42:24.900,-0.438186,3.37328,9.88296,-0.0355055,-0.00679568,-0.00885729,0
2024-12-13 15:42:24.903,-0.457328,3.37089,9.88535,-0.0269536,-0.00679568,-0.00885729,0
2024-12-13 15:42:24.905,-0.459721,3.3661,9.88296,-0.0190126,-0.00740652,-0.0113007,0
2024-12-13 15:42:24.907,-0.454935,3.35892,9.87338,-0.0129041,-0.00801737,-0.0119115,0
2024-12-13 15:42:24.910,-0.457328,3.36132,9.84706,-0.00557398,-0.00862822,-0.0119115,0
2024-12-13 15:42:24.912,-0.4669,3.36371,9.81087,-0.0019089,-0.0104608,-0.0137441,0
2024-12-13 15:42:24.914,-0.474078,3.35653,9.78694,0.00542127,-0.0110716,-0.0155766,0
2024-12-13 15:42:24.917,-0.474078,3.35414,9.76062,0.00908635,-0.0129041,-0.0174091,0
2024-12-13 15:42:24.919,-0.474078,3.36132,9.72473,0.0115297,-0.0159584,-0.0186308,0
2024-12-13 15:42:24.921,-0.474078,3.35653,9.7008,0.014584,-0.0177909,-0.0229068,0
2024-12-13 15:42:24.924,-0.481256,3.35653,9.68645,0.014584,-0.0177909,-0.0229068,0
2024-12-13 15:42:24.926,-0.505185,3.37089,9.66012,0.0182491,-0.021456,-0.025961,0
2024-12-13 15:42:24.929,-0.531506,3.37567,9.65055,0.0176382,-0.0251211,-0.0277936,0
2024-12-13 15:42:24.931,-0.545863,3.35653,9.6673,0.0164165,-0.0269536,-0.0308478,0
2024-12-13 15:42:24.933,-0.54347,3.34218,9.65773,0.0158057,-0.0287862,-0.0314586,0
2024-12-13 15:42:24.936,-0.54347,3.35175,9.63859,0.014584,-0.0281753,-0.0302369,0
2024-12-13 15:42:24.938,-0.555434,3.35653,9.63141,0.0127514,-0.029397,-0.0308478,0
2024-12-13 15:42:24.940,-0.538684,3.34935,9.62423,0.014584,-0.0318404,-0.0326803,0
2024-12-13 15:42:24.944,-0.50997,3.34218,9.61945,0.010308,-0.0312296,-0.0345129,0
2024-12-13 15:42:24.945,-0.495613,3.34457,9.6003,0.010308,-0.0312296,-0.0345129,0
2024-12-13 15:42:24.947,-0.493221,3.34696,9.58834,0.00847551,-0.0300079,-0.0351237,0
2024-12-13 15:42:24.950,-0.490828,3.34696,9.57398,0.00725381,-0.0300079,-0.0369563,0
2024-12-13 15:42:24.952,-0.500399,3.36132,9.56202,0.00847551,-0.0306187,-0.038178,0
2024-12-13 15:42:24.954,-0.505185,3.35892,9.55484,0.00725381,-0.0275645,-0.0375671,0
2024-12-13 15:42:24.957,-0.490828,3.35653,9.54288,0.00603212,-0.0275645,-0.0357346,0
2024-12-13 15:42:24.959,-0.483649,3.36371,9.5333,0.00725381,-0.0251211,-0.0393996,0
2024-12-13 15:42:24.962,-0.500399,3.35653,9.53809,0.0096972,-0.0232886,-0.0363454,0
2024-12-13 15:42:24.964,-0.514756,3.35653,9.52134,0.0127514,-0.0184018,-0.0357346,0
2024-12-13 15:42:24.966,-0.507577,3.35653,9.49981,0.0133623,-0.0202343,-0.0357346,0
2024-12-13 15:42:24.969,-0.495613,3.35892,9.5022,0.0188599,-0.0177909,-0.0357346,0
2024-12-13 15:42:24.971,-0.495613,3.36371,9.48306,0.022525,-0.0153475,-0.0351237,0
2024-12-13 15:42:24.973,-0.500399,3.3685,9.44956,0.0255792,-0.0147367,-0.0345129,0
2024-12-13 15:42:24.976,-0.488435,3.36371,9.42323,0.0286335,-0.013515,-0.0345129,0
2024-12-13 15:42:24.978,-0.4669,3.37089,9.39931,0.0341311,-0.0122933,-0.0308478,0
2024-12-13 15:42:24.980,-0.454935,3.38285,9.38016,0.0347419,-0.0122933,-0.0308478,0
2024-12-13 15:42:24.983,-0.45015,3.38764,9.34906,0.038407,-0.0129041,-0.0320695,0
2024-12-13 15:42:24.987,-0.438186,3.37089,9.28684,0.0445155,-0.013515,-0.0314586,0
2024-12-13 15:42:24.987,-0.438186,3.37089,9.28684,0.0445155,-0.013515,-0.0314586,0
2024-12-13 15:42:24.990,-0.419043,3.37089,9.25305,0.0445155,-0.0141258,-0.0314586,0
2024-12-13 15:42:24.992,-0.407079,3.37567,9.20997,0.046348,-0.0129041,-0.0277936,0
2024-12-13 15:42:24.994,-0.409472,3.37807,9.17169,0.0481806,-0.0129041,-0.0271827,0
2024-12-13 15:42:24.997,-0.414257,3.37807,9.14058,0.0469589,-0.0122933,-0.0277936,0
2024-12-13 15:42:24.999,-0.414257,3.38525,9.09751,0.0457372,-0.00984991,-0.0271827,0
2024-12-13 15:42:25.002,-0.402293,3.39242,9.04965,0.0439046,-0.00801737,-0.0241285,0
2024-12-13 15:42:25.004,-0.402293,3.39003,9.02333,0.0402396,-0.00679568,-0.0222959,0
2024-12-13 15:42:25.006,-0.407079,3.38525,8.99223,0.0353528,-0.00374144,-0.0210742,0
2024-12-13 15:42:25.009,-0.390329,3.39242,8.96351,0.0316877,-0.00313059,-0.0216851,0
2024-12-13 15:42:25.011,-0.371187,3.41635,8.9348,0.0292443,-0.000687203,-0.0204634,0
2024-12-13 15:42:25.016,-0.35683,3.43789,8.87498,0.0243575,0.00297788,-0.0198525,0
2024-12-13 15:42:25.016,-0.35683,3.43789,8.87498,0.0243575,0.00297788,-0.0198525,0
2024-12-13 15:42:25.020,-0.344866,3.46182,8.81755,0.00419957,0.00175619,-0.0204634,0
2024-12-13 15:42:25.020,-0.344866,3.46182,8.81755,0.00419957,0.00175619,-0.0204634,0
2024-12-13 15:42:25.023,-0.325723,3.48814,8.79841,-0.00129805,0.00175619,-0.0216851,0
2024-12-13 15:42:25.025,-0.32333,3.48574,8.77209,-0.00923906,0.00297788,-0.0222959,0
2024-12-13 15:42:25.027,-0.328116,3.48335,8.76491,-0.0177909,0.00175619,-0.0222959,0
2024-12-13 15:42:25.032,-0.347258,3.51207,8.77209,-0.0379489,-0.00129805,-0.0271827,0
2024-12-13 15:42:25.032,-0.347258,3.51207,8.77209,-0.0379489,-0.00129805,-0.0271827,0
2024-12-13 15:42:25.035,-0.347258,3.50728,8.78166,-0.0477224,-0.00496313,-0.0265719,0
2024-12-13 15:42:25.037,-0.364008,3.50728,8.78405,-0.0568851,-0.00801737,-0.0277936,0
2024-12-13 15:42:25.039,-0.385544,3.50249,8.82234,-0.065437,-0.0104608,-0.0277936,0
2024-12-13 15:42:25.044,-0.407079,3.45703,8.89891,-0.0874275,-0.013515,-0.0296261,0
2024-12-13 15:42:25.044,-0.407079,3.45703,8.89891,-0.0874275,-0.013515,-0.0296261,0
2024-12-13 15:42:25.046,-0.411865,3.44267,8.9348,-0.0984228,-0.0184018,-0.0302369,0
2024-12-13 15:42:25.049,-0.426222,3.44028,8.99223,-0.106975,-0.021456,-0.0308478,0
2024-12-13 15:42:25.051,-0.445364,3.42832,9.05923,-0.113694,-0.0245102,-0.0308478,0
2024-12-13 15:42:25.053,-0.45015,3.39482,9.11187,-0.122246,-0.0263428,-0.0296261,0
2024-12-13 15:42:25.058,-0.462114,3.3661,9.19322,-0.138128,-0.0251211,-0.0284044,0
2024-12-13 15:42:25.058,-0.471685,3.33021,9.27009,-0.138128,-0.0251211,-0.0284044,0
2024-12-13 15:42:25.060,-0.474078,3.29671,9.33949,-0.143015,-0.0232886,-0.0271827,0
2024-12-13 15:42:25.063,-0.469292,3.27518,9.41366,-0.146069,-0.0208452,-0.025961,0
2024-12-13 15:42:25.068,-0.445364,3.201,9.60748,-0.150345,-0.0122933,-0.0229068,0
2024-12-13 15:42:25.068,-0.445364,3.201,9.60748,-0.150345,-0.0122933,-0.0229068,0
2024-12-13 15:42:25.070,-0.442971,3.17228,9.69362,-0.149123,-0.0104608,-0.0186308,0
2024-12-13 15:42:25.072,-0.423829,3.14596,9.75344,-0.14668,-0.00679568,-0.0174091,0
2024-12-13 15:42:25.075,-0.395115,3.12204,9.81805,-0.144236,-0.00129805,-0.0167983,0
2024-12-13 15:42:25.077,-0.385544,3.10529,9.8686,-0.13935,0.00236703,-0.0137441,0
2024-12-13 15:42:25.079,-0.378365,3.09332,9.9021,-0.13935,0.00236703,-0.0137441,0
2024-12-13 15:42:25.083,-0.383151,3.07388,9.94038,-0.126522,0.0096972,-0.0125224,0
2024-12-13 15:42:25.086,-0.387936,3.02842,9.96431,-0.110029,0.0194708,-0.00763559,0
2024-12-13 15:42:25.086,-0.387936,3.02842,9.96431,-0.110029,0.0194708,-0.00763559,0
2024-12-13 15:42:25.089,-0.390329,3.00449,9.97628,-0.100255,0.022525,-0.00702474,0
2024-12-13 15:42:25.091,-0.395115,2.98295,9.99542,-0.0892601,0.0255792,-0.00335966,0
2024-12-13 15:42:25.093,-0.390329,2.94945,9.99781,-0.0770431,0.0261901,-0.00335966,0
2024-12-13 15:42:25.096,-0.368794,2.92074,9.98824,-0.0642153,0.0298552,-0.000305424,0
2024-12-13 15:42:25.098,-0.359223,2.90399,9.97388,-0.0501658,0.0298552,0.00152712,0
2024-12-13 15:42:25.100,-0.354437,2.8657,9.96192,-0.037338,0.0316877,0.00213797,0
2024-12-13 15:42:25.103,-0.335294,2.83938,9.95474,-0.0238994,0.0341311,0.00458135,0
2024-12-13 15:42:25.105,-0.308973,2.8346,9.92363,-0.00984991,0.0353528,0.00458135,0
2024-12-13 15:42:25.108,-0.277567,2.81545,9.86621,0.00664296,0.038407,0.00458135,0
2024-12-13 15:42:25.110,-0.263211,2.80828,9.79173,0.0213033,0.0420721,0.0051922,0
2024-12-13 15:42:25.112,-0.244068,2.81785,9.71037,0.0377962,0.046348,0.00458135,0
2024-12-13 15:42:25.115,-0.217747,2.81306,9.61945,0.0500131,0.0494023,0.00397051,0
2024-12-13 15:42:25.119,-0.181855,2.8322,9.39452,0.0768904,0.0524565,0.00274881,0
2024-12-13 15:42:25.119,-0.181855,2.8322,9.39452,0.0768904,0.0524565,0.00274881,0
2024-12-13 15:42:25.124,-0.11007,2.88245,9.14537,0.0964375,0.0500131,-0.00274881,0
2024-12-13 15:42:25.124,-0.11007,2.88245,9.14537,0.0964375,0.0500131,-0.00274881,0
2024-12-13 15:42:25.126,-0.081356,2.87767,8.99462,0.103768,0.0457372,-0.00580305,0
2024-12-13 15:42:25.129,-0.0526421,2.88724,8.85105,0.111098,0.042683,-0.00824644,0
2024-12-13 15:42:25.131,-0.026321,2.91117,8.71945,0.114152,0.0359636,-0.0125224,0
2024-12-13 15:42:25.133,-0.00957129,2.92552,8.59233,0.116595,0.0268009,-0.0149658,0
2024-12-13 15:42:25.136,0.0,2.9351,8.47269,0.115374,0.0182491,-0.0216851,0
2024-12-13 15:42:25.138,0.00717847,2.9351,8.36262,0.114152,0.00603212,-0.0302369,0
2024-12-13 15:42:25.141,0.0,2.94467,8.25494,0.111098,-0.00557398,-0.0351237,0
2024-12-13 15:42:25.143,-0.0143569,2.9662,8.1688,0.108654,-0.0177909,-0.0406213,0
2024-12-13 15:42:25.145,-0.0287139,2.96142,8.1015,0.102546,-0.0281753,-0.0430647,0
2024-12-13 15:42:25.148,-0.0502493,2.9662,8.03689,0.0970484,-0.0403923,-0.046119,0
2024-12-13 15:42:25.150,-0.0430708,2.97338,7.99621,0.090329,-0.0513875,-0.0503949,0
2024-12-13 15:42:25.152,-0.0215354,2.97577,7.95554,0.082388,-0.0642153,-0.05406,0
2024-12-13 15:42:25.155,-0.0143569,2.98535,7.91007,0.0750579,-0.0758214,-0.0571142,0
2024-12-13 15:42:25.157,-0.00957129,2.99731,7.86222,0.0658951,-0.0837624,-0.0601685,0
2024-12-13 15:42:25.159,0.00478565,3.01645,7.81915,0.0591758,-0.0953685,-0.0613902,0
2024-12-13 15:42:25.162,0.0167498,3.03559,7.79522,0.0475697,-0.105753,-0.0650552,0
2024-12-13 15:42:25.164,0.00957129,3.06431,7.75215,0.0359636,-0.116137,-0.0674986,0
2024-12-13 15:42:25.166,0.0143569,3.08854,7.71865,0.0243575,-0.125911,-0.0705529,0
2024-12-13 15:42:25.169,0.0287139,3.09571,7.68515,0.0121406,-0.13263,-0.0742179,0
2024-12-13 15:42:25.171,0.0334995,3.11246,7.65165,-7.63559e-05,-0.135074,-0.0760505,0
2024-12-13 15:42:25.173,0.0478565,3.15075,7.63729,-0.0147367,-0.138739,-0.0766613,0
2024-12-13 15:42:25.176,0.0693919,3.18664,7.63011,-0.0287862,-0.140571,-0.0772722,0
2024-12-13 15:42:25.178,0.0861416,3.2345,7.63968,-0.0434465,-0.141182,-0.0815481,0
2024-12-13 15:42:25.181,0.102891,3.28235,7.67079,-0.0593285,-0.143015,-0.0839915,0
2024-12-13 15:42:25.183,0.141177,3.32064,7.6995,-0.0715455,-0.144847,-0.0833807,0
2024-12-13 15:42:25.185,0.177069,3.36371,7.71625,-0.0868167,-0.144847,-0.085824,0
2024-12-13 15:42:25.188,0.200997,3.40917,7.74018,-0.101477,-0.14668,-0.0882674,0
2024-12-13 15:42:25.190,0.222533,3.45703,7.78325,-0.114305,-0.149734,-0.0907108,0
2024-12-13 15:42:25.192,0.244068,3.51685,7.84786,-0.127743,-0.147901,-0.0937651,0
2024-12-13 15:42:25.202,0.512363,3.58385,7.92204,-0.173557,-0.15401,-0.114534,0
2024-12-13 15:42:25.202,0.512363,3.58385,7.92204,-0.173557,-0.15401,-0.114534,0
2024-12-13 15:42:25.203,0.512363,3.58385,7.92204,-0.187606,-0.163783,-0.121253,0
2024-12-13 15:42:25.204,0.529113,3.56949,7.91007,-0.187606,-0.163783,-0.121253,0
2024-12-13 15:42:25.204,0.529113,3.56949,7.91007,-0.187606,-0.163783,-0.121253,0
2024-12-13 15:42:25.206,0.519542,3.56471,7.91247,-0.199823,-0.177222,-0.125529,0
2024-12-13 15:42:25.209,0.481256,3.55992,7.93879,-0.217538,-0.190661,-0.128583,0
2024-12-13 15:42:25.211,0.452543,3.5671,7.96989,-0.234642,-0.202878,-0.131027,0
2024-12-13 15:42:25.214,0.452543,3.57189,8.00818,-0.24808,-0.215095,-0.132248,0
2024-12-13 15:42:25.216,0.481256,3.54796,8.07039,-0.265795,-0.225479,-0.132859,0
2024-12-13 15:42:25.218,0.529113,3.53839,8.14726,-0.285342,-0.235863,-0.134692,0
2024-12-13 15:42:25.221,0.567398,3.52882,8.22622,-0.303057,-0.241361,-0.137135,0
2024-12-13 15:42:25.223,0.615255,3.5001,8.32433,-0.320771,-0.246248,-0.137135,0
2024-12-13 15:42:25.225,0.663111,3.47139,8.42962,-0.34154,-0.246859,-0.140189,0
2024-12-13 15:42:25.228,0.691825,3.4331,8.52533,-0.359865,-0.241361,-0.143855,0
2024-12-13 15:42:25.230,0.71336,3.39003,8.62343,-0.37758,-0.232198,-0.14752,0
2024-12-13 15:42:25.232,0.739681,3.34935,8.7338,-0.395905,-0.221203,-0.152406,0
2024-12-13 15:42:25.235,0.742074,3.31107,8.85344,-0.414842,-0.206543,-0.157293,0
2024-12-13 15:42:25.237,0.737288,3.26082,8.95634,-0.430724,-0.188828,-0.162791,0
2024-12-13 15:42:25.240,0.734896,3.22732,9.06162,-0.445384,-0.172946,-0.168899,0
2024-12-13 15:42:25.242,0.725324,3.20578,9.19083,-0.461266,-0.152788,-0.175619,0
2024-12-13 15:42:25.244,0.701396,3.16989,9.30359,-0.477148,-0.133852,-0.182949,0
2024-12-13 15:42:25.247,0.670289,3.14357,9.41606,-0.49303,-0.113694,-0.19089,0
2024-12-13 15:42:25.249,0.646361,3.12921,9.55005,-0.505858,-0.0941468,-0.195166,0
2024-12-13 15:42:25.251,0.600898,3.11246,9.68166,-0.516853,-0.0764323,-0.198831,0
2024-12-13 15:42:25.254,0.548256,3.10768,9.80609,-0.530292,-0.057496,-0.204328,0
2024-12-13 15:42:25.256,0.498006,3.12921,9.93799,-0.535789,-0.041614,-0.207383,0
2024-12-13 15:42:25.258,0.440578,3.15793,10.0768,-0.54312,-0.0263428,-0.211659,0
2024-12-13 15:42:25.261,0.378365,3.16271,10.1916,-0.546785,-0.0129041,-0.211048,0
2024-12-13 15:42:25.263,0.318545,3.17228,10.2873,-0.546174,0.000534491,-0.21288,0
2024-12-13 15:42:25.265,0.246461,3.20578,10.3834,-0.544952,0.0139731,-0.212269,0
2024-12-13 15:42:25.268,0.174676,3.25364,10.4791,-0.545563,0.0249684,-0.21288,0
2024-12-13 15:42:25.271,0.117248,3.30389,10.5604,-0.533346,0.0475697,-0.211659,0
2024-12-13 15:42:25.272,0.0454636,3.34696,10.625,-0.533346,0.0475697,-0.211659,0
2024-12-13 15:42:25.277,-0.0622134,3.47617,10.7614,-0.515631,0.0689494,-0.208604,0
2024-12-13 15:42:25.277,-0.0622134,3.47617,10.7614,-0.515631,0.0689494,-0.208604,0
2024-12-13 15:42:25.279,-0.102891,3.51685,10.8021,-0.505247,0.0762796,-0.208604,0
2024-12-13 15:42:25.284,-0.215354,3.65354,10.8571,-0.481424,0.090329,-0.204328,0
2024-12-13 15:42:25.284,-0.215354,3.65354,10.8571,-0.481424,0.090329,-0.204328,0
2024-12-13 15:42:25.289,-0.275175,3.79232,10.8667,-0.451492,0.100103,-0.200052,0
2024-12-13 15:42:25.289,-0.275175,3.79232,10.8667,-0.451492,0.100103,-0.200052,0
2024-12-13 15:42:25.291,-0.30658,3.85215,10.8835,-0.436221,0.102546,-0.19822,0
2024-12-13 15:42:25.294,-0.342473,3.89043,10.8858,-0.424004,0.102546,-0.19822,0
2024-12-13 15:42:25.296,-0.387936,3.95264,10.8691,-0.40629,0.100713,-0.196387,0
2024-12-13 15:42:25.298,-0.428614,4.01246,10.85,-0.393462,0.0939941,-0.195166,0
2024-12-13 15:42:25.301,-0.488435,4.06511,10.8404,-0.380023,0.0836097,-0.191501,0
2024-12-13 15:42:25.303,-0.538684,4.11057,10.8141,-0.364752,0.0781121,-0.187225,0
2024-12-13 15:42:25.305,-0.565005,4.1345,10.783,-0.350092,0.0695602,-0.185392,0
2024-12-13 15:42:25.308,-0.588933,4.18475,10.7542,-0.338486,0.0622301,-0.181116,0
2024-12-13 15:42:25.310,-0.629611,4.24008,10.7231,-0.328101,0.0548999,-0.17684,0
2024-12-13 15:42:25.312,-0.677468,4.29033,10.6992,-0.319549,0.0481806,-0.171953,0
2024-12-13 15:42:25.315,-0.71336,4.32622,10.649,-0.314052,0.0432938,-0.167678,0
2024-12-13 15:42:25.317,-0.742074,4.35254,10.6083,-0.308554,0.0365745,-0.160347,0
2024-12-13 15:42:25.320,-0.768395,4.39083,10.5844,-0.304278,0.0347419,-0.153017,0
2024-12-13 15:42:25.322,-0.80668,4.41715,10.5365,-0.301224,0.030466,-0.145076,0
2024-12-13 15:42:25.324,-0.825823,4.43151,10.4982,-0.302446,0.0268009,-0.136524,0
2024-12-13 15:42:25.327,-0.835394,4.4339,10.4695,-0.307333,0.0249684,-0.127972,0
2024-12-13 15:42:25.329,-0.854836,4.4339,10.4623,-0.312219,0.0231358,-0.116977,0
2024-12-13 15:42:25.331,-0.878764,4.42911,10.4575,-0.319549,0.022525,-0.106593,0
2024-12-13 15:42:25.336,-0.957727,4.38365,10.4647,-0.336653,0.0249684,-0.0852132,0
2024-12-13 15:42:25.336,-0.957727,4.38365,10.4647,-0.336653,0.0249684,-0.0852132,0
2024-12-13 15:42:25.338,-0.986441,4.37169,10.4886,-0.345816,0.0280226,-0.0717745,0
2024-12-13 15:42:25.343,-1.04865,4.31187,10.5509,-0.366585,0.0322986,-0.0455081,0
2024-12-13 15:42:25.343,-1.04865,4.31187,10.5509,-0.366585,0.0322986,-0.0455081,0
2024-12-13 15:42:25.348,-1.0989,4.24008,10.6226,-0.386743,0.0365745,-0.0161875,0
2024-12-13 15:42:25.348,-1.0989,4.24008,10.6226,-0.386743,0.0365745,-0.0161875,0
2024-12-13 15:42:25.350,-1.1348,4.1991,10.6729,-0.394073,0.0377962,0.000305424,0
2024-12-13 15:42:25.352,-1.17308,4.16082,10.7207,-0.401403,0.0371853,0.0155766,0
2024-12-13 15:42:25.355,-1.19701,4.13211,10.7495,-0.407511,0.0371853,0.0296261,0
2024-12-13 15:42:25.357,-1.23051,4.11536,10.7758,-0.410566,0.0322986,0.0448973,0
2024-12-13 15:42:25.360,-1.25204,4.08425,10.8069,-0.411177,0.0274118,0.0626118,0
2024-12-13 15:42:25.362,-1.24487,4.06271,10.826,-0.408122,0.0213033,0.0803264,0
2024-12-13 15:42:25.364,-1.23051,4.05793,10.8093,-0.401403,0.0158057,0.0937651,0
2024-12-13 15:42:25.367,-1.21854,4.04357,10.771,-0.392851,0.00542127,0.107815,0
2024-12-13 15:42:25.369,-1.17069,4.02682,10.7303,-0.385521,-0.00801737,0.11881,0
2024-12-13 15:42:25.372,-1.1013,4.01246,10.6777,-0.373915,-0.0226777,0.132859,0
2024-12-13 15:42:25.374,-1.04865,4.0005,10.6179,-0.360476,-0.0385597,0.14332,0
2024-12-13 15:42:25.376,-1.00319,3.99571,10.5197,-0.345205,-0.0587177,0.154315,0
2024-12-13 15:42:25.378,-0.905085,3.98614,10.328,-0.329934,-0.0886492,0.1647,0
2024-12-13 15:42:25.381,-0.929013,3.96461,10.1438,-0.314663,-0.128965,0.171419,0
2024-12-13 15:42:25.383,-1.08933,3.95264,10.0696,-0.296948,-0.15401,0.184247,0
2024-12-13 15:42:25.385,-1.19462,3.95264,10.06,-0.277401,-0.172946,0.199518,0
2024-12-13 15:42:25.388,-1.21854,3.95743,10.0241,-0.256632,-0.188217,0.214789,0
2024-12-13 15:42:25.390,-1.17069,3.96461,9.95235,-0.229144,-0.199213,0.228228,0
2024-12-13 15:42:25.393,-1.01994,3.99093,9.87099,-0.206543,-0.213873,0.241666,0
2024-12-13 15:42:25.395,-0.689432,4.05793,9.94756,-0.180887,-0.234642,0.252051,0
2024-12-13 15:42:25.397,-0.529113,4.06511,9.94038,-0.151566,-0.271903,0.256938,0
2024-12-13 15:42:25.400,-0.622433,4.03639,9.61227,-0.125911,-0.291451,0.263046,0
2024-12-13 15:42:25.402,-0.639183,4.04596,9.29163,-0.102088,-0.292061,0.267933,0
2024-12-13 15:42:25.404,-0.572184,4.02443,9.08076,-0.081319,-0.288396,0.272209,0
2024-12-13 15:42:25.407,-0.493221,3.99093,8.90369,-0.0623828,-0.29084,0.274652,0
2024-12-13 15:42:25.409,-0.438186,3.96222,8.72662,-0.0452791,-0.294505,0.274652,0
2024-12-13 15:42:25.411,-0.402293,3.91436,8.54686,-0.0324513,-0.295726,0.27282,0
2024-12-13 15:42:25.414,-0.354437,3.88325,8.37219,-0.0220669,-0.296337,0.271598,0
2024-12-13 15:42:25.416,-0.294616,3.87129,8.21426,-0.0110716,-0.292672,0.269765,0
2024-12-13 15:42:25.418,-0.239282,3.85932,8.07996,-0.00251974,-0.29084,0.267933,0
2024-12-13 15:42:25.421,-0.191426,3.82822,7.95554,0.00175619,-0.289618,0.266711,0
2024-12-13 15:42:25.423,-0.150748,3.78993,7.85504,0.00419957,-0.282288,0.263046,0
2024-12-13 15:42:25.426,-0.0526421,3.78515,7.77847,0.00786466,-0.275568,0.25877,0
2024-12-13 15:42:25.428,0.145962,3.79232,7.79283,0.010308,-0.267017,0.254494,0
2024-12-13 15:42:25.430,0.210568,3.80668,7.8335,0.0164165,-0.260908,0.248386,0
2024-12-13 15:42:25.433,0.0622134,3.81865,7.70668,0.0164165,-0.243804,0.241666,0
2024-12-13 15:42:25.435,-0.0861416,3.81386,7.59422,0.014584,-0.215095,0.239834,0
2024-12-13 15:42:25.437,-0.18664,3.80429,7.57986,0.0127514,-0.183941,0.242277,0
2024-12-13 15:42:25.440,-0.267996,3.74925,7.56042,0.0096972,-0.148512,0.246553,0
2024-12-13 15:42:25.442,-0.313759,3.68704,7.56521,0.00419957,-0.111861,0.250829,0
2024-12-13 15:42:25.444,-0.253639,3.62692,7.62772,-0.0019089,-0.0739889,0.259381,0
2024-12-13 15:42:25.447,-0.119641,3.57667,7.7689,-0.00679568,-0.0428357,0.262435,0
2024-12-13 15:42:25.449,0.00239282,3.55035,7.91247,-0.00923906,-0.0129041,0.264879,0
2024-12-13 15:42:25.451,0.114855,3.53839,8.01775,-0.0110716,0.0206925,0.267322,0
2024-12-13 15:42:25.454,0.208176,3.56231,8.11107,-0.0153475,0.0548999,0.266711,0
2024-12-13 15:42:25.456,0.267996,3.61017,8.19751,-0.0202343,0.0878856,0.263046,0
2024-12-13 15:42:25.458,0.316152,3.66072,8.27169,-0.0190126,0.123315,0.258159,0
2024-12-13 15:42:25.461,0.342473,3.70858,8.32433,-0.0232886,0.150803,0.255716,0
2024-12-13 15:42:25.463,0.318545,3.75883,8.36501,-0.0257319,0.175848,0.253273,0
2024-12-13 15:42:25.468,0.217747,3.82343,8.45354,-0.0251211,0.214942,0.246553,0
2024-12-13 15:42:25.468,0.217747,3.82343,8.45354,-0.0251211,0.214942,0.246553,0
2024-12-13 15:42:25.470,0.177069,3.83061,8.46072,-0.0238994,0.225937,0.246553,0
2024-12-13 15:42:25.473,0.153141,3.83061,8.44636,-0.0232886,0.233878,0.241666,0
2024-12-13 15:42:25.475,0.138784,3.8354,8.41047,-0.0245102,0.235711,0.237391,0
2024-12-13 15:42:25.477,0.133998,3.82343,8.37937,-0.0232886,0.232656,0.23678,0
2024-12-13 15:42:25.480,0.136391,3.79232,8.34587,-0.0245102,0.221661,0.232504,0
2024-12-13 15:42:25.482,0.138784,3.77079,8.30758,-0.0281753,0.208223,0.226395,0
2024-12-13 15:42:25.484,0.129212,3.76122,8.28126,-0.0287862,0.196616,0.219065,0
2024-12-13 15:42:25.487,0.119641,3.76361,8.25494,-0.0287862,0.180124,0.216011,0
2024-12-13 15:42:25.489,0.112463,3.77557,8.22383,-0.0312296,0.163631,0.210513,0
2024-12-13 15:42:25.491,0.102891,3.77079,8.20948,-0.0342838,0.146527,0.204405,0
2024-12-13 15:42:25.494,0.105284,3.77318,8.2023,-0.0348946,0.127591,0.199518,0
2024-12-13 15:42:25.496,0.105284,3.77079,8.19033,-0.0355055,0.106822,0.191577,0
2024-12-13 15:42:25.499,0.11007,3.77797,8.18794,-0.0355055,0.082388,0.183636,0
2024-12-13 15:42:25.501,0.129212,3.78993,8.20708,-0.0355055,0.082388,0.183636,0
2024-12-13 15:42:25.503,0.12682,3.77557,8.22144,-0.0385597,0.0329094,0.169586,0
2024-12-13 15:42:25.506,0.11007,3.76122,8.22622,-0.0385597,0.00664296,0.161645,0
2024-12-13 15:42:25.508,0.11007,3.74208,8.25494,-0.0397814,-0.021456,0.153704,0
2024-12-13 15:42:25.510,0.102891,3.699,8.29562,-0.0379489,-0.0446682,0.146985,0
2024-12-13 15:42:25.513,0.0957129,3.65115,8.34347,-0.0355055,-0.0660479,0.141487,0
2024-12-13 15:42:25.515,0.0981057,3.60778,8.40329,-0.0318404,-0.0843733,0.13347,0
2024-12-13 15:42:25.520,0.124427,3.50249,8.5349,-0.0263428,-0.115526,0.119421,0
2024-12-13 15:42:25.520,0.124427,3.50249,8.5349,-0.0263428,-0.115526,0.119421,0
2024-12-13 15:42:25.524,0.167498,3.41157,8.64736,-0.0116825,-0.131409,0.107815,0
2024-12-13 15:42:25.524,0.167498,3.41157,8.64736,-0.0116825,-0.131409,0.107815,0
2024-12-13 15:42:25.527,0.165105,3.33978,8.69522,-0.0116825,-0.131409,0.107815,0
2024-12-13 15:42:25.529,0.16989,3.26321,8.7362,0.00297788,-0.141793,0.0968193,0
2024-12-13 15:42:25.531,0.189033,3.19621,8.77448,0.010308,-0.143015,0.0919325,0
2024-12-13 15:42:25.534,0.196211,3.14118,8.81994,0.0194708,-0.143625,0.0901,0
2024-12-13 15:42:25.536,0.18664,3.07149,8.87976,0.030466,-0.142404,0.0907108,0
2024-12-13 15:42:25.539,0.177069,2.99731,8.93001,0.0396287,-0.141793,0.0901,0
2024-12-13 15:42:25.541,0.172283,2.92313,8.98744,0.0494023,-0.138128,0.0907108,0
2024-12-13 15:42:25.543,0.16989,2.83938,9.0353,0.0610084,-0.130798,0.0943759,0
2024-12-13 15:42:25.546,0.172283,2.75563,9.07598,0.074447,-0.122246,0.098041,0
2024-12-13 15:42:25.548,0.181855,2.67428,9.13101,0.0884965,-0.111861,0.102317,0
2024-12-13 15:42:25.550,0.210568,2.61924,9.18844,0.102546,-0.100255,0.108425,0
2024-12-13 15:42:25.553,0.239282,2.55942,9.24587,0.120261,-0.0831516,0.114534,0
2024-12-13 15:42:25.555,0.256032,2.49212,9.28206,0.137975,-0.0648262,0.122475,0
2024-12-13 15:42:25.557,0.260818,2.42273,9.28924,0.159355,-0.0440574,0.129805,0
2024-12-13 15:42:25.561,0.272782,2.36291,9.30359,0.204557,0.00419957,0.150039,0
2024-12-13 15:42:25.562,0.292223,2.31266,9.31077,0.204557,0.00419957,0.150039,0
2024-12-13 15:42:25.564,0.292223,2.25763,9.30838,0.229602,0.0280226,0.15798,0
2024-12-13 15:42:25.567,0.282652,2.21456,9.30359,0.25648,0.0524565,0.168976,0
2024-12-13 15:42:25.572,0.289831,2.10927,9.21955,0.31451,0.0921616,0.191577,0
2024-12-13 15:42:25.572,0.304188,2.10927,9.21955,0.31451,0.0921616,0.191577,0
2024-12-13 15:42:25.574,0.294616,2.09731,9.15973,0.345052,0.11293,0.204405,0
2024-12-13 15:42:25.576,0.275175,2.08774,9.08794,0.375671,0.132477,0.213567,0
2024-12-13 15:42:25.579,0.277567,2.05424,9.00898,0.408657,0.150192,0.223952,0
2024-12-13 15:42:25.581,0.285045,2.03749,8.91805,0.441032,0.167296,0.235558,0
2024-12-13 15:42:25.586,0.304188,2.04706,8.71945,0.507003,0.195395,0.250218,0
2024-12-13 15:42:25.586,0.304188,2.04706,8.71945,0.507003,0.195395,0.250218,0
2024-12-13 15:42:25.588,0.313759,2.04227,8.6019,0.543043,0.207612,0.256327,0
2024-12-13 15:42:25.590,0.32333,2.0351,8.4679,0.577251,0.218607,0.263046,0
2024-12-13 15:42:25.593,0.349651,2.02074,8.32912,0.609015,0.226548,0.267322,0
2024-12-13 15:42:25.596,0.366401,1.99681,8.19751,0.671932,0.2351,0.270987,0
2024-12-13 15:42:25.597,0.375972,1.99681,8.07757,0.671932,0.2351,0.270987,0
2024-12-13 15:42:25.600,0.404686,1.9992,7.94597,0.702474,0.236322,0.270376,0
2024-12-13 15:42:25.602,0.423829,1.99202,7.80718,0.730573,0.229602,0.268544,0
2024-12-13 15:42:25.605,0.411865,1.99202,7.65643,0.756229,0.22105,0.267322,0
2024-12-13 15:42:25.607,0.385544,1.9992,7.49821,0.782495,0.207001,0.263657,0
2024-12-13 15:42:25.614,0.375972,2.05663,7.05554,0.841748,0.156301,0.254494,0
2024-12-13 15:42:25.614,0.375972,2.05663,7.05554,0.841748,0.156301,0.254494,0
2024-12-13 15:42:25.614,0.375972,2.05663,7.05554,0.841748,0.156301,0.254494,0
2024-12-13 15:42:25.616,0.383151,2.08774,6.91645,0.85824,0.135532,0.249607,0
2024-12-13 15:42:25.619,0.368794,2.12363,6.76571,0.871679,0.114763,0.246553,0
2024-12-13 15:42:25.623,0.35683,2.16192,6.5001,0.89367,0.0787229,0.233725,0
2024-12-13 15:42:25.623,0.373579,2.16192,6.5001,0.89367,0.0787229,0.233725,0
2024-12-13 15:42:25.626,0.390329,2.17866,6.39213,0.898556,0.0616192,0.227006,0
2024-12-13 15:42:25.628,0.397508,2.20738,6.28924,0.902221,0.0475697,0.222119,0
2024-12-13 15:42:25.630,0.419043,2.23609,6.19352,0.904665,0.0329094,0.2154,0
2024-12-13 15:42:25.633,0.426222,2.24806,6.09302,0.901,0.0182491,0.209292,0
2024-12-13 15:42:25.635,0.421436,2.27199,5.98295,0.901,0.0182491,0.209292,0
2024-12-13 15:42:25.637,0.4334,2.30309,5.8678,0.888783,-0.00251974,0.197685,0
2024-12-13 15:42:25.640,0.440578,2.33898,5.77926,0.876566,-0.0116825,0.191577,0
2024-12-13 15:42:25.642,0.442971,2.38206,5.72423,0.860684,-0.0177909,0.187912,0
2024-12-13 15:42:25.645,0.440578,2.4012,5.67159,0.84358,-0.0257319,0.184858,0
2024-12-13 15:42:25.647,0.428614,2.42034,5.62134,0.824644,-0.0287862,0.181193,0
2024-12-13 15:42:25.649,0.431007,2.44905,5.59502,0.802653,-0.0300079,0.17936,0
2024-12-13 15:42:25.652,0.4334,2.47777,5.58305,0.780663,-0.0281753,0.179971,0
2024-12-13 15:42:25.654,0.431007,2.49691,5.58784,0.755618,-0.0263428,0.179971,0
2024-12-13 15:42:25.656,0.440578,2.51845,5.61895,0.730573,-0.0190126,0.180582,0
2024-12-13 15:42:25.659,0.447757,2.54507,5.65962,0.70675,-0.00923906,0.183636,0
2024-12-13 15:42:25.661,0.454935,2.55942,5.70509,0.680484,-0.000687203,0.188523,0
2024-12-13 15:42:25.663,0.476471,2.58814,5.76491,0.654217,0.0115297,0.19402,0
2024-12-13 15:42:25.666,0.490828,2.60967,5.84148,0.629784,0.0231358,0.197685,0
2024-12-13 15:42:25.668,0.50997,2.62403,5.9327,0.607182,0.0402396,0.204405,0
2024-12-13 15:42:25.670,0.538684,2.65753,6.03081,0.585802,0.0542891,0.209902,0
2024-12-13 15:42:25.673,0.550648,2.67667,6.12652,0.563201,0.0707819,0.218454,0
2024-12-13 15:42:25.675,0.548256,2.71017,6.2677,0.543043,0.0848314,0.227617,0
2024-12-13 15:42:25.678,0.54347,2.77478,6.49053,0.52655,0.0921616,0.238001,0
2024-12-13 15:42:25.680,0.538684,2.80588,6.69392,0.517998,0.0988809,0.25144,0
2024-12-13 15:42:25.682,0.545863,2.80349,6.84706,0.510057,0.106822,0.265489,0
2024-12-13 15:42:25.685,0.579362,2.79631,7.0026,0.50456,0.117817,0.280761,0
2024-12-13 15:42:25.687,0.629611,2.78196,7.16321,0.500284,0.13431,0.295421,0
2024-12-13 15:42:25.689,0.675075,2.7676,7.33071,0.500895,0.152635,0.309471,0
2024-12-13 15:42:25.692,0.732503,2.75803,7.49821,0.503949,0.174015,0.322909,0
2024-12-13 15:42:25.694,0.794716,2.77238,7.69233,0.507614,0.198449,0.334515,0
2024-12-13 15:42:25.696,0.842872,2.80828,7.89572,0.515555,0.222883,0.34551,0
2024-12-13 15:42:25.701,0.914656,2.8992,8.27887,0.541211,0.273583,0.36689,0
2024-12-13 15:42:25.701,0.914656,2.8992,8.27887,0.541211,0.273583,0.36689,0
2024-12-13 15:42:25.703,0.924228,2.95902,8.47269,0.556482,0.301071,0.376053,0
2024-12-13 15:42:25.706,0.909871,3.04277,8.65933,0.575418,0.327949,0.383383,0
2024-12-13 15:42:25.708,0.902692,3.12682,8.83909,0.593744,0.35788,0.392546,0
2024-12-13 15:42:25.710,0.905085,3.2345,9.01137,0.61268,0.387201,0.399876,0
2024-12-13 15:42:25.713,0.917049,3.3661,9.17647,0.633449,0.4153,0.405374,0
2024-12-13 15:42:25.715,0.94337,3.49532,9.32274,0.654217,0.439734,0.409039,0
2024-12-13 15:42:25.718,0.981655,3.64128,9.43281,0.674986,0.461113,0.411482,0
2024-12-13 15:42:25.720,1.01994,3.82104,9.49263,0.693312,0.478217,0.407206,0
2024-12-13 15:42:25.722,1.07258,4.01246,9.42802,0.705529,0.500208,0.401098,0
2024-12-13 15:42:25.725,1.13719,4.21376,9.32992,0.707972,0.525863,0.390102,0
2024-12-13 15:42:25.727,1.17547,4.39801,9.35384,0.704918,0.53808,0.374831,0
2024-12-13 15:42:25.729,1.18265,4.54876,9.43281,0.696977,0.533193,0.355895,0
2024-12-13 15:42:25.732,1.20658,4.68754,9.49502,0.690257,0.517922,0.333294,0
2024-12-13 15:42:25.734,1.21615,4.84098,9.55484,0.679873,0.494099,0.301529,0
2024-12-13 15:42:25.736,1.15394,5.03001,9.59073,0.665824,0.467833,0.269765,0
2024-12-13 15:42:25.741,0.94337,5.39641,9.6697,0.629173,0.412246,0.198907,0
2024-12-13 15:42:25.741,0.94337,5.39641,9.6697,0.629173,0.412246,0.198907,0
2024-12-13 15:42:25.743,0.801895,5.54477,9.7343,0.60596,0.382925,0.161645,0
2024-12-13 15:42:25.746,0.632004,5.65962,9.81566,0.57664,0.354215,0.125529,0
2024-12-13 15:42:25.748,0.426222,5.77209,9.91406,0.544876,0.322451,0.0888783,0
2024-12-13 15:42:25.751,0.198604,5.86541,10.0122,0.507614,0.29313,0.0577251,0
2024-12-13 15:42:25.753,-0.0119641,5.90638,10.1366,0.464855,0.266253,0.0284044,0
2024-12-13 15:42:25.755,-0.193819,5.92553,10.261,0.415987,0.235711,0.00397051,0
2024-12-13 15:42:25.758,-0.383151,5.93988,10.3663,0.363378,0.205168,-0.0222959,0
2024-12-13 15:42:25.760,-0.579362,5.96381,10.4791,0.29985,0.174626,-0.0424539,0
2024-12-13 15:42:25.762,-0.777966,5.98295,10.5939,0.228991,0.14164,-0.0589468,0
2024-12-13 15:42:25.765,-0.981655,5.99731,10.7399,0.152635,0.113541,-0.069942,0
2024-12-13 15:42:25.767,-1.17069,5.99013,10.9313,0.0707819,0.0878856,-0.0797156,0
2024-12-13 15:42:25.769,-1.34536,5.93749,11.1517,-0.0196235,0.0628409,-0.0864349,0
2024-12-13 15:42:25.772,-1.49163,5.85344,11.3862,-0.114916,0.0445155,-0.0870457,0
2024-12-13 15:42:25.774,-1.5993,5.71944,11.6521,-0.214484,0.0274118,-0.0833807,0
2024-12-13 15:42:25.776,-1.68066,5.53998,11.9704,-0.317717,0.0096972,-0.0760505,0
2024-12-13 15:42:25.779,-1.7333,5.33659,12.3344,-0.419728,-0.00557398,-0.0656661,0
2024-12-13 15:42:25.781,-1.75484,5.08983,12.7367,-0.520518,-0.0196235,-0.0528383,0
2024-12-13 15:42:25.784,-1.75723,4.82662,13.1892,-0.618865,-0.0361163,-0.0351237,0
2024-12-13 15:42:25.786,-1.72373,4.55833,13.6846,-0.708048,-0.0501658,-0.0161875,0
2024-12-13 15:42:25.788,-1.69502,4.29272,14.2113,-0.790513,-0.0581068,0.00397051,0
2024-12-13 15:42:25.791,-1.71655,4.07946,14.75,-0.858928,-0.0605502,0.0284044,0
2024-12-13 15:42:25.793,-1.76919,3.90239,15.2958,-0.923067,-0.0581068,0.0607793,0
2024-12-13 15:42:25.795,-1.77637,3.72054,15.8895,-0.965215,-0.0519984,0.0955976,0
2024-12-13 15:42:25.798,-1.70937,3.51685,16.4785,-0.995147,-0.0483333,0.134157,0
2024-12-13 15:42:25.800,-1.61605,3.32543,17.0076,-1.00614,-0.0446682,0.172641,0
2024-12-13 15:42:25.802,-1.49163,3.13639,17.4769,-1.00309,-0.0379489,0.214178,0
2024-12-13 15:42:25.805,-1.33819,2.94945,17.884,-0.986595,-0.0300079,0.250218,0
2024-12-13 15:42:25.807,-1.1994,2.80588,18.2237,-0.957274,-0.021456,0.288702,0
2024-12-13 15:42:25.809,-1.08215,2.68864,18.4992,-0.913293,-0.00801737,0.325353,0
2024-12-13 15:42:25.812,-0.936192,2.57139,18.7002,-0.850376,0.00786466,0.358949,0
2024-12-13 15:42:25.814,-0.80668,2.48734,18.8201,-0.778907,0.0243575,0.38827,2
2024-12-13 15:42:25.816,-0.720539,2.42273,18.8489,-0.692777,0.0432938,0.415147,0
2024-12-13 15:42:25.819,-0.63679,2.38684,18.7959,-0.597485,0.0646735,0.435916,0
2024-12-13 15:42:25.821,-0.56022,2.39163,18.6691,-0.495473,0.0860531,0.454241,0
2024-12-13 15:42:25.824,-0.483649,2.41555,18.4801,-0.382467,0.108654,0.468291,0
2024-12-13 15:42:25.828,-0.352044,2.55703,17.9629,-0.143625,0.154468,0.484173,0
2024-12-13 15:42:25.828,-0.352044,2.55703,17.9629,-0.143625,0.154468,0.484173,0
2024-12-13 15:42:25.831,-0.30658,2.64078,17.6276,-0.0165692,0.177069,0.484173,0
2024-12-13 15:42:25.833,-0.285045,2.73171,17.2543,0.107433,0.192951,0.478675,0
2024-12-13 15:42:25.835,-0.289831,2.84178,16.8449,0.232656,0.204557,0.470734,0
2024-12-13 15:42:25.838,-0.304188,2.9686,16.4043,0.356048,0.210666,0.454852,0
2024-12-13 15:42:25.840,-0.318545,3.09811,15.9135,0.473407,0.217385,0.437748,0
2024-12-13 15:42:25.842,-0.330509,3.24168,15.3772,0.587024,0.222272,0.41759,0
2024-12-13 15:42:25.845,-0.35683,3.39721,14.8265,0.690868,0.219829,0.393157,0
2024-12-13 15:42:25.847,-0.402293,3.5336,14.2304,0.789825,0.211888,0.366279,0
2024-12-13 15:42:25.849,-0.454935,3.67508,13.6295,0.877788,0.195395,0.338791,0
2024-12-13 15:42:25.852,-0.512363,3.83061,13.0549,0.952311,0.168517,0.310081,0
2024-12-13 15:42:25.854,-0.576969,3.99571,12.4684,1.01889,0.132477,0.277706,0
2024-12-13 15:42:25.857,-0.624826,4.14646,11.8986,1.07326,0.0927724,0.248997,0
2024-12-13 15:42:25.859,-0.615255,4.24487,11.348,1.11602,0.0408504,0.217843,0
2024-12-13 15:42:25.861,-0.550648,4.34776,10.8523,1.14534,-0.0171801,0.180582,0
2024-12-13 15:42:25.864,-0.495613,4.47219,10.4025,1.17038,-0.077654,0.142709,0
2024-12-13 15:42:25.866,-0.483649,4.59901,9.94756,1.18321,-0.137517,0.106593,0
2024-12-13 15:42:25.868,-0.483649,4.733,9.51895,1.1881,-0.19005,0.0674986,0
2024-12-13 15:42:25.871,-0.490828,4.86012,9.1358,1.18077,-0.238307,0.0320695,0
2024-12-13 15:42:25.873,-0.524327,4.98216,8.78644,1.16672,-0.280455,-0.00335966,0
2024-12-13 15:42:25.875,-0.555434,5.08026,8.47029,1.14228,-0.320771,-0.0387888,0
2024-12-13 15:42:25.878,-0.567398,5.16162,8.18555,1.10747,-0.354979,-0.0742179,0
2024-12-13 15:42:25.880,-0.593719,5.22862,7.95314,1.06654,-0.385521,-0.101706,0
2024-12-13 15:42:25.882,-0.641576,5.27169,7.74497,1.01828,-0.414231,-0.129194,0
2024-12-13 15:42:25.885,-0.655932,5.28365,7.55324,0.960252,-0.437443,-0.15485,0
2024-12-13 15:42:25.887,-0.658325,5.27408,7.40728,0.896724,-0.455158,-0.177451,0
2024-12-13 15:42:25.889,-0.675075,5.25972,7.29003,0.827698,-0.468596,-0.197609,0
2024-12-13 15:42:25.892,-0.660718,5.2334,7.20389,0.754396,-0.47837,-0.214102,0
2024-12-13 15:42:25.894,-0.629611,5.19272,7.13929,0.674375,-0.482646,-0.229984,0
2024-12-13 15:42:25.897,-0.610469,5.14248,7.07707,0.590689,-0.485089,-0.243423,0
2024-12-13 15:42:25.899,-0.586541,5.09223,7.034,0.503949,-0.484478,-0.253807,0
2024-12-13 15:42:25.901,-0.56022,5.02523,7.02204,0.412933,-0.481424,-0.260526,0
2024-12-13 15:42:25.904,-0.550648,4.9678,7.04597,0.32184,-0.473483,-0.266635,0
2024-12-13 15:42:25.906,-0.550648,4.90798,7.101,0.22777,-0.463099,-0.269078,0
2024-12-13 15:42:25.908,-0.56022,4.84577,7.18475,0.134921,-0.453325,-0.270911,0
2024-12-13 15:42:25.911,-0.553041,4.79073,7.28046,0.0457372,-0.436221,-0.268467,0
2024-12-13 15:42:25.913,-0.555434,4.73779,7.38335,0.0457372,-0.436221,-0.268467,0
2024-12-13 15:42:25.915,-0.593719,4.68515,7.49582,-0.126522,-0.402014,-0.258694,0
2024-12-13 15:42:25.918,-0.596112,4.61815,7.60618,-0.205321,-0.379413,-0.251364,0
2024-12-13 15:42:25.920,-0.576969,4.55115,7.733,-0.282288,-0.3562,-0.244644,0
2024-12-13 15:42:25.922,-0.565005,4.49133,7.8694,-0.354979,-0.329934,-0.236703,0
2024-12-13 15:42:25.927,-0.54347,4.3669,8.135,-0.486922,-0.273125,-0.220821,0
2024-12-13 15:42:25.927,-0.54347,4.3669,8.135,-0.486922,-0.273125,-0.220821,0
2024-12-13 15:42:25.930,-0.52672,4.29751,8.29801,-0.548617,-0.243194,-0.212269,0
2024-12-13 15:42:25.932,-0.50997,4.2353,8.46072,-0.598707,-0.210208,-0.203718,0
2024-12-13 15:42:25.934,-0.490828,4.18714,8.61386,-0.645131,-0.180276,-0.193333,0
2024-12-13 15:42:25.937,-0.486042,4.14886,8.7673,-0.68728,-0.150956,-0.187225,0
2024-12-13 15:42:25.939,-0.493221,4.11775,8.92044,-0.724541,-0.125911,-0.179895,0
2024-12-13 15:42:25.941,-0.507577,4.08186,9.07119,-0.753862,-0.102088,-0.171953,0
2024-12-13 15:42:25.944,-0.536291,4.06032,9.23151,-0.780128,-0.0825407,-0.162791,0
2024-12-13 15:42:25.946,-0.54347,4.02682,9.40648,-0.796621,-0.0623828,-0.155461,0
2024-12-13 15:42:25.948,-0.538684,3.99093,9.58834,-0.808227,-0.0428357,-0.149352,0
2024-12-13 15:42:25.951,-0.541077,3.97179,9.76062,-0.81739,-0.0263428,-0.1408,0
2024-12-13 15:42:25.953,-0.52672,3.93829,9.91406,-0.816779,-0.00984991,-0.134692,0
2024-12-13 15:42:25.958,-0.474078,3.84736,10.1964,-0.800897,0.0194708,-0.124307,0
2024-12-13 15:42:25.958,-0.474078,3.84736,10.1964,-0.800897,0.0194708,-0.124307,0
2024-12-13 15:42:25.960,-0.438186,3.81625,10.3184,-0.786237,0.0335202,-0.123086,0
2024-12-13 15:42:25.963,-0.380758,3.77557,10.4216,-0.7673,0.0475697,-0.123086,0
2024-12-13 15:42:25.965,-0.342473,3.72772,10.503,-0.741645,0.0579541,-0.123086,0
2024-12-13 15:42:25.967,-0.294616,3.68704,10.5676,-0.715379,0.0671168,-0.124918,0
2024-12-13 15:42:25.970,-0.267996,3.65354,10.6083,-0.683004,0.0756687,-0.129194,0
2024-12-13 15:42:25.972,-0.256032,3.67508,10.6825,-0.65124,0.0781121,-0.132248,0
2024-12-13 15:42:25.974,-0.267996,3.67508,10.7351,-0.613367,0.0762796,-0.138968,0
2024-12-13 15:42:25.977,-0.292223,3.62214,10.7303,-0.574884,0.0750579,-0.145076,0
2024-12-13 15:42:25.979,-0.294616,3.58624,10.7183,-0.535789,0.0756687,-0.146298,0
2024-12-13 15:42:25.981,-0.30658,3.53121,10.6753,-0.496084,0.0756687,-0.151796,0
2024-12-13 15:42:25.984,-0.308973,3.48574,10.6298,-0.460655,0.0756687,-0.154239,0
2024-12-13 15:42:25.986,-0.311366,3.45703,10.5556,-0.424615,0.0720036,-0.158515,0
2024-12-13 15:42:25.988,-0.311366,3.41157,10.4527,-0.390408,0.0689494,-0.161569,0
2024-12-13 15:42:25.991,-0.316152,3.37328,10.3759,-0.353757,0.0658951,-0.165234,0
2024-12-13 15:42:25.993,-0.304188,3.35175,10.2993,-0.320771,0.0597867,-0.167678,0
2024-12-13 15:42:25.998,-0.285045,3.31585,10.1294,-0.257854,0.0475697,-0.173175,0
2024-12-13 15:42:25.998,-0.285045,3.31585,10.1294,-0.257854,0.0475697,-0.173175,0
2024-12-13 15:42:26.000,-0.263211,3.31585,10.0409,-0.221814,0.0365745,-0.17684,0
2024-12-13 15:42:26.003,-0.241675,3.31107,9.91885,-0.195547,0.0274118,-0.179284,0
2024-12-13 15:42:26.005,-0.217747,3.30628,9.8013,-0.163173,0.0176382,-0.181116,0
2024-12-13 15:42:26.007,-0.193819,3.29671,9.65295,-0.134463,0.0109189,-0.184781,0
2024-12-13 15:42:26.010,-0.167498,3.27278,9.48306,-0.107585,0.00908635,-0.189057,0
2024-12-13 15:42:26.014,-0.153141,3.23689,9.1358,-0.0587177,-7.63559e-05,-0.194555,0
2024-12-13 15:42:26.014,-0.153141,3.23689,9.1358,-0.0587177,-7.63559e-05,-0.194555,0
2024-12-13 15:42:26.017,-0.138784,3.22732,8.94437,-0.0379489,-0.00374144,-0.197609,0
2024-12-13 15:42:26.019,-0.136391,3.201,8.76491,-0.0177909,-0.00251974,-0.197609,0
2024-12-13 15:42:26.021,-0.124427,3.17468,8.58993,0.00175619,-0.00251974,-0.201274,0
2024-12-13 15:42:26.026,-0.0909273,3.16511,8.24537,0.0322986,-0.000687203,-0.207383,0
2024-12-13 15:42:26.026,-0.0909273,3.16511,8.24537,0.0322986,-0.000687203,-0.207383,0
2024-12-13 15:42:26.028,-0.0861416,3.16032,8.07279,0.0457372,0.00175619,-0.209826,0
2024-12-13 15:42:26.031,-0.0837488,3.15075,7.91486,0.0603975,0.00603212,-0.212269,0
2024-12-13 15:42:26.033,-0.0717847,3.14118,7.76172,0.0683385,0.00908635,-0.215935,0
2024-12-13 15:42:26.036,-0.0861416,3.14596,7.62772,0.0775012,0.0121406,-0.218378,0
2024-12-13 15:42:26.038,-0.0981057,3.14836,7.49821,0.086664,0.0139731,-0.220821,0
2024-12-13 15:42:26.040,-0.102891,3.15075,7.37617,0.0933833,0.0194708,-0.222654,0
2024-12-13 15:42:26.043,-0.11007,3.1675,7.2685,0.0964375,0.0231358,-0.223876,0
2024-12-13 15:42:26.045,-0.124427,3.17228,7.16082,0.104379,0.0292443,-0.22693,0
2024-12-13 15:42:26.047,-0.153141,3.18425,7.08904,0.107433,0.0322986,-0.228151,0
2024-12-13 15:42:26.052,-0.174676,3.19621,6.94277,0.123315,0.0365745,-0.231206,0
2024-12-13 15:42:26.052,-0.174676,3.19621,6.94277,0.123315,0.0365745,-0.231206,0
2024-12-13 15:42:26.054,-0.189033,3.19143,6.82553,0.127591,0.042683,-0.233038,0
2024-12-13 15:42:26.057,-0.196211,3.18664,6.71306,0.133088,0.0469589,-0.23426,0
2024-12-13 15:42:26.059,-0.200997,3.17228,6.6006,0.135532,0.0512348,-0.236092,0
2024-12-13 15:42:26.061,-0.196211,3.15793,6.48814,0.139197,0.0579541,-0.237925,0
2024-12-13 15:42:26.064,-0.191426,3.14596,6.38734,0.14164,0.0610084,-0.239758,0
2024-12-13 15:42:26.066,-0.212961,3.14836,6.28206,0.142862,0.066506,-0.242812,0
2024-12-13 15:42:26.068,-0.224925,3.14836,6.19113,0.14164,0.0701711,-0.245255,0
2024-12-13 15:42:26.071,-0.227318,3.15553,6.11217,0.142251,0.0701711,-0.245866,0
2024-12-13 15:42:26.073,-0.251246,3.16271,6.03081,0.141029,0.0720036,-0.249531,0
2024-12-13 15:42:26.076,-0.265603,3.1675,5.94945,0.139808,0.0732253,-0.251974,0
2024-12-13 15:42:26.078,-0.277567,3.18425,5.88694,0.133699,0.0720036,-0.253807,0
2024-12-13 15:42:26.083,-0.344866,3.16989,5.79123,0.125758,0.0652843,-0.259916,0
2024-12-13 15:42:26.083,-0.344866,3.16989,5.79123,0.125758,0.0652843,-0.259916,0
2024-12-13 15:42:26.087,-0.385544,3.15553,5.70509,0.108044,0.0536782,-0.260526,0
2024-12-13 15:42:26.090,-0.411865,3.14596,5.67398,0.0970484,0.0469589,-0.261137,0
2024-12-13 15:42:26.090,-0.411865,3.14596,5.67398,0.0970484,0.0469589,-0.261137,0
2024-12-13 15:42:26.092,-0.421436,3.13879,5.6692,0.0836097,0.0371853,-0.261748,0
2024-12-13 15:42:26.097,-0.435793,3.12443,5.67877,0.0603975,0.0151948,-0.261137,0
2024-12-13 15:42:26.097,-0.471685,3.12443,5.67877,0.0603975,0.0151948,-0.261137,0
2024-12-13 15:42:26.099,-0.512363,3.11725,5.70748,0.0469589,0.00542127,-0.258694,0
2024-12-13 15:42:26.101,-0.550648,3.11007,5.74816,0.0329094,-0.00557398,-0.254418,0
2024-12-13 15:42:26.104,-0.569791,3.09811,5.79362,0.0219141,-0.0110716,-0.249531,0
2024-12-13 15:42:26.106,-0.591326,3.07149,5.85584,0.00786466,-0.0171801,-0.247088,0
2024-12-13 15:42:26.109,-0.617647,3.03799,5.93749,-0.00435229,-0.0251211,-0.240368,0
2024-12-13 15:42:26.113,-0.684646,2.94706,6.07867,-0.0251211,-0.0361163,-0.227541,0
2024-12-13 15:42:26.113,-0.684646,2.94706,6.07867,-0.0251211,-0.0361163,-0.227541,0
2024-12-13 15:42:26.116,-0.715753,2.90878,6.16959,-0.0361163,-0.0428357,-0.221432,0
2024-12-13 15:42:26.118,-0.732503,2.8657,6.25813,-0.0452791,-0.0446682,-0.21288,0
2024-12-13 15:42:26.120,-0.756431,2.81545,6.33709,-0.0507767,-0.0501658,-0.206161,0
2024-12-13 15:42:26.123,-0.766002,2.77956,6.40648,-0.057496,-0.0526092,-0.197609,0
2024-12-13 15:42:26.127,-0.756431,2.73888,6.55274,-0.0678804,-0.0550526,-0.181727,0
2024-12-13 15:42:26.127,-0.756431,2.73888,6.55274,-0.0678804,-0.0550526,-0.181727,0
2024-12-13 15:42:26.130,-0.751645,2.72453,6.60299,-0.0709346,-0.0550526,-0.175008,0
2024-12-13 15:42:26.132,-0.749253,2.70539,6.63649,-0.073378,-0.0550526,-0.168288,0
2024-12-13 15:42:26.134,-0.732503,2.68146,6.6676,-0.0721563,-0.0538309,-0.162791,0
2024-12-13 15:42:26.137,-0.725324,2.65035,6.69871,-0.073378,-0.0489441,-0.15485,0
2024-12-13 15:42:26.139,-0.720539,2.61207,6.72981,-0.0758214,-0.041614,-0.149352,0
2024-12-13 15:42:26.142,-0.687039,2.59053,6.76331,-0.0752106,-0.0391706,-0.143855,0
2024-12-13 15:42:26.144,-0.655932,2.57378,6.80399,-0.0721563,-0.0355055,-0.138968,0
2024-12-13 15:42:26.146,-0.627219,2.55703,6.82313,-0.0684913,-0.033673,-0.134081,0
2024-12-13 15:42:26.149,-0.612862,2.54028,6.84467,-0.0672696,-0.0342838,-0.131638,0
2024-12-13 15:42:26.151,-0.610469,2.52323,6.88535,-0.0648262,-0.0355055,-0.126751,0
2024-12-13 15:42:26.153,-0.598505,2.50887,6.90449,-0.0605502,-0.0391706,-0.123697,0
2024-12-13 15:42:26.156,-0.576969,2.51127,6.91406,-0.0544418,-0.0446682,-0.121253,0
2024-12-13 15:42:26.158,-0.572184,2.52832,6.9332,-0.0483333,-0.0483333,-0.121253,0
2024-12-13 15:42:26.160,-0.569791,2.5331,6.94517,-0.0422248,-0.0532201,-0.119421,0
2024-12-13 15:42:26.163,-0.555434,2.54028,6.96431,-0.0361163,-0.0599394,-0.120642,0
2024-12-13 15:42:26.165,-0.52672,2.58335,6.99063,-0.0269536,-0.0629936,-0.120031,0
2024-12-13 15:42:26.167,-0.375972,2.71017,7.12014,-0.0159584,-0.0745997,-0.120642,0
2024-12-13 15:42:26.170,-0.30658,2.77238,7.26371,-7.63559e-05,-0.100255,-0.121253,0
2024-12-13 15:42:26.172,-0.464507,2.70299,7.20389,0.0176382,-0.116137,-0.122475,0
2024-12-13 15:42:26.174,-0.617647,2.64796,7.03879,0.0341311,-0.108196,-0.123697,0
2024-12-13 15:42:26.177,-0.632004,2.61924,6.9332,0.0475697,-0.0978119,-0.123697,0
2024-12-13 15:42:26.179,-0.56022,2.59532,6.94277,0.0640626,-0.0923143,-0.125529,0
2024-12-13 15:42:26.182,-0.502792,2.57857,6.97149,0.082388,-0.0941468,-0.129194,0
2024-12-13 15:42:26.184,-0.478864,2.53789,6.95713,0.101324,-0.093536,-0.135303,0
2024-12-13 15:42:26.186,-0.445364,2.49452,6.93799,0.116595,-0.0904818,-0.139579,0
2024-12-13 15:42:26.189,-0.371187,2.50409,6.93799,0.132477,-0.0849841,-0.146909,0
2024-12-13 15:42:26.191,-0.311366,2.54507,6.95713,0.14836,-0.0825407,-0.15485,0
2024-12-13 15:42:26.193,-0.292223,2.57857,6.95474,0.165463,-0.0849841,-0.16218,0
2024-12-13 15:42:26.196,-0.30658,2.61446,6.92602,0.180734,-0.0868167,-0.173175,0
2024-12-13 15:42:26.198,-0.342473,2.6671,6.8997,0.196006,-0.0825407,-0.181116,0
2024-12-13 15:42:26.200,-0.366401,2.71256,6.85424,0.207001,-0.0794865,-0.189668,0
2024-12-13 15:42:26.203,-0.368794,2.75563,6.80638,0.216164,-0.0807082,-0.198831,0
2024-12-13 15:42:26.205,-0.366401,2.80349,6.77049,0.224715,-0.0794865,-0.206161,0
2024-12-13 15:42:26.207,-0.371187,2.82503,6.72981,0.228381,-0.081319,-0.214102,0
2024-12-13 15:42:26.210,-0.368794,2.8346,6.69153,0.233267,-0.0794865,-0.225097,0
2024-12-13 15:42:26.212,-0.359223,2.83699,6.65564,0.236322,-0.0770431,-0.23426,0
2024-12-13 15:42:26.215,-0.354437,2.85135,6.61974,0.235711,-0.0739889,-0.245255,0
2024-12-13 15:42:26.217,-0.354437,2.87767,6.58385,0.2351,-0.0715455,-0.255029,0
2024-12-13 15:42:26.219,-0.359223,2.91356,6.55514,0.230213,-0.0684913,-0.263581,0
2024-12-13 15:42:26.222,-0.361615,2.93749,6.5336,0.223494,-0.0678804,-0.275187,0
2024-12-13 15:42:26.225,-0.349651,2.94467,6.48814,0.205779,-0.0581068,-0.294734,0
2024-12-13 15:42:26.226,-0.342473,2.97817,6.45464,0.205779,-0.0581068,-0.294734,0
2024-12-13 15:42:26.229,-0.328116,3.01884,6.44238,0.195395,-0.0526092,-0.305118,0
2024-12-13 15:42:26.231,-0.294616,3.06192,6.43998,0.183789,-0.0465007,-0.316113,0
2024-12-13 15:42:26.233,-0.260818,3.11486,6.46182,0.169739,-0.0452791,-0.32772,0
2024-12-13 15:42:26.236,-0.256032,3.16989,6.4666,0.151414,-0.0422248,-0.339936,0
2024-12-13 15:42:26.238,-0.272782,3.21775,6.47617,0.13431,-0.0403923,-0.352764,0
2024-12-13 15:42:26.240,-0.27996,3.27039,6.49292,0.116595,-0.0379489,-0.366203,0
2024-12-13 15:42:26.243,-0.275175,3.33739,6.50967,0.0964375,-0.0367272,-0.377198,0
2024-12-13 15:42:26.245,-0.292223,3.39721,6.54078,0.074447,-0.0391706,-0.390637,0
2024-12-13 15:42:26.248,-0.325723,3.45464,6.57907,0.074447,-0.0391706,-0.390637,0
2024-12-13 15:42:26.250,-0.335294,3.49292,6.62453,0.0280226,-0.0385597,-0.416292,0
2024-12-13 15:42:26.252,-0.32333,3.52403,6.69153,0.00542127,-0.0379489,-0.427288,0
2024-12-13 15:42:26.255,-0.301795,3.56949,6.76092,-0.0208452,-0.0379489,-0.441948,0
2024-12-13 15:42:26.257,-0.294616,3.60539,6.83749,-0.0434465,-0.0385597,-0.452332,0
2024-12-13 15:42:26.259,-0.294616,3.64367,6.94277,-0.0672696,-0.037338,-0.466382,0
2024-12-13 15:42:26.262,-0.311366,3.68465,7.05793,-0.0904818,-0.0318404,-0.478599,0
2024-12-13 15:42:26.264,-0.330509,3.71575,7.19671,-0.113083,-0.0269536,-0.490816,0
2024-12-13 15:42:26.266,-0.330509,3.74925,7.35464,-0.134463,-0.0202343,-0.5012,0
2024-12-13 15:42:26.269,-0.34008,3.77797,7.51974,-0.153399,-0.0129041,-0.512806,0
2024-12-13 15:42:26.271,-0.35683,3.8019,7.72343,-0.170503,-0.00679568,-0.523802,0
2024-12-13 15:42:26.273,-0.371187,3.84257,7.94597,-0.186385,0.00175619,-0.533575,0
2024-12-13 15:42:26.276,-0.3999,3.89043,8.15683,-0.201656,0.0109189,-0.542127,0
2024-12-13 15:42:26.278,-0.442971,3.93111,8.36022,-0.21143,0.0206925,-0.549457,0
2024-12-13 15:42:26.280,-0.481256,3.97179,8.5684,-0.221203,0.0341311,-0.55862,0
2024-12-13 15:42:26.283,-0.50997,4.00768,8.7673,-0.230366,0.0469589,-0.564117,0
2024-12-13 15:42:26.285,-0.541077,4.05075,8.94437,-0.238307,0.0640626,-0.569615,0
2024-12-13 15:42:26.288,-0.569791,4.09621,9.12623,-0.240139,0.0799446,-0.57328,0
2024-12-13 15:42:26.290,-0.622433,4.13211,9.33231,-0.246248,0.0994917,-0.579999,0
2024-12-13 15:42:26.292,-0.703789,4.17039,9.53091,-0.250524,0.118428,-0.583054,0
2024-12-13 15:42:26.295,-0.797109,4.20628,9.72473,-0.253578,0.139808,-0.586108,0
2024-12-13 15:42:26.297,-0.919442,4.2329,9.93081,-0.256021,0.159355,-0.586108,0
2024-12-13 15:42:26.299,-1.04626,4.25205,10.1342,-0.253578,0.179513,-0.586108,0
2024-12-13 15:42:26.302,-1.15872,4.28555,10.3711,-0.251745,0.199671,-0.58061,0
2024-12-13 15:42:26.304,-1.25683,4.32622,10.6059,-0.249913,0.221661,-0.576945,0
2024-12-13 15:42:26.306,-1.33579,4.35015,10.8236,-0.245026,0.244263,-0.570226,0
2024-12-13 15:42:26.309,-1.40788,4.37647,11.0584,-0.241361,0.266253,-0.563507,0
2024-12-13 15:42:26.311,-1.47727,4.42194,11.3001,-0.232809,0.287022,-0.555566,0
2024-12-13 15:42:26.313,-1.5658,4.48654,11.5158,-0.223036,0.309012,-0.546403,0
2024-12-13 15:42:26.316,-1.65912,4.57508,11.7239,-0.212651,0.331003,-0.53724,0
2024-12-13 15:42:26.318,-1.74766,4.67797,11.9106,-0.198602,0.354826,-0.526856,0
2024-12-13 15:42:26.321,-1.8338,4.78355,12.0712,-0.182109,0.374984,-0.514639,0
2024-12-13 15:42:26.323,-1.89841,4.89601,12.2076,-0.165616,0.395142,-0.5012,0
2024-12-13 15:42:26.326,-1.95823,5.01805,12.3081,-0.13263,0.428128,-0.474323,0
2024-12-13 15:42:26.328,-2.00877,5.14965,12.4062,-0.13263,0.428128,-0.474323,0
2024-12-13 15:42:26.330,-2.04706,5.28844,12.4804,-0.112472,0.439734,-0.462717,0
2024-12-13 15:42:26.332,-2.10449,5.4347,12.5163,-0.0953685,0.453172,-0.451722,0
2024-12-13 15:42:26.337,-2.23609,5.7338,12.5761,-0.0623828,0.467222,-0.424844,0
2024-12-13 15:42:26.339,-2.29113,5.86301,12.5952,-0.0489441,0.469665,-0.413849,0
2024-12-13 15:42:26.339,-2.29113,5.86301,12.5952,-0.0489441,0.469665,-0.413849,0
2024-12-13 15:42:26.342,-2.35813,5.98056,12.6072,-0.0391706,0.461724,-0.3998,0
2024-12-13 15:42:26.344,-2.41316,6.09063,12.612,-0.029397,0.453172,-0.38575,0
2024-12-13 15:42:26.346,-2.46341,6.19352,12.6362,-0.0251211,0.438512,-0.371701,0
2024-12-13 15:42:26.349,-2.54028,6.28684,12.6577,-0.0269536,0.416521,-0.353986,0
2024-12-13 15:42:26.351,-2.63121,6.35145,12.6888,-0.0306187,0.385979,-0.336271,0
2024-12-13 15:42:26.353,-2.73649,6.41127,12.7415,-0.0355055,0.352993,-0.314892,0
2024-12-13 15:42:26.358,-2.90399,6.49532,12.9329,-0.0605502,0.279692,-0.267246,0
2024-12-13 15:42:26.358,-2.90399,6.49532,12.9329,-0.0605502,0.279692,-0.267246,0
2024-12-13 15:42:26.361,-2.97577,6.51925,13.0645,-0.0782648,0.238765,-0.238536,0
2024-12-13 15:42:26.363,-3.02124,6.53121,13.206,-0.0990336,0.195395,-0.207993,0
2024-12-13 15:42:26.368,-2.99252,6.50728,13.5147,-0.13935,0.120261,-0.142022,0
2024-12-13 15:42:26.368,-2.99252,6.50728,13.5147,-0.13935,0.120261,-0.142022,0
2024-12-13 15:42:26.370,-2.93749,6.46182,13.6917,-0.163783,0.0909399,-0.109647,0
2024-12-13 15:42:26.372,-2.8657,6.37777,13.8954,-0.183941,0.0683385,-0.0772722,0
2024-12-13 15:42:26.375,-2.77478,6.27009,14.0988,-0.207764,0.0494023,-0.0430647,0
2024-12-13 15:42:26.377,-2.66471,6.1337,14.295,-0.229755,0.0390179,-0.0106898,0
2024-12-13 15:42:26.379,-2.57857,6.00449,14.4867,-0.251745,0.0347419,0.0222959,0
2024-12-13 15:42:26.382,-2.51127,5.86301,14.683,-0.273125,0.0371853,0.0558925,0
2024-12-13 15:42:26.384,-2.44905,5.70748,14.8938,-0.292672,0.0451263,0.0907108,0
2024-12-13 15:42:26.386,-2.40598,5.5663,15.1068,-0.309165,0.0573433,0.12614,0
2024-12-13 15:42:26.389,-2.38206,5.42273,15.3126,-0.32016,0.0713928,0.161645,0
2024-12-13 15:42:26.391,-2.37727,5.29801,15.4875,-0.334821,0.0854423,0.203183,0
2024-12-13 15:42:26.394,-2.38206,5.19272,15.6311,-0.339707,0.104989,0.241666,0
2024-12-13 15:42:26.396,-2.34856,5.08026,15.7795,-0.344594,0.127591,0.282593,0
2024-12-13 15:42:26.398,-2.27677,4.96541,15.9135,-0.34154,0.150803,0.322298,0
2024-12-13 15:42:26.401,-2.17866,4.82662,16.0167,-0.337264,0.175237,0.362003,0
2024-12-13 15:42:26.403,-2.07338,4.67318,16.0956,-0.325047,0.197227,0.398043,2
2024-12-13 15:42:26.408,-1.80509,4.39801,16.2033,-0.292061,0.228991,0.462182,0
2024-12-13 15:42:26.408,-1.80509,4.39801,16.2033,-0.292061,0.228991,0.462182,0
2024-12-13 15:42:26.410,-1.65194,4.24247,16.2392,-0.263962,0.244263,0.485395,0
2024-12-13 15:42:26.412,-1.4988,4.10339,16.2464,-0.234642,0.255258,0.50372,0
2024-12-13 15:42:26.415,-1.35733,3.98136,16.2177,-0.201045,0.262588,0.517769,0
2024-12-13 15:42:26.417,-1.1994,3.87368,16.1172,-0.160118,0.266253,0.5251,0
2024-12-13 15:42:26.419,-0.950549,3.85693,15.9159,-0.116748,0.266253,0.52571,0
2024-12-13 15:42:26.422,-0.591326,3.89522,15.6574,-0.0721563,0.252204,0.511661,0
2024-12-13 15:42:26.424,-0.32333,3.84497,15.4469,-0.0281753,0.244873,0.488449,0
2024-12-13 15:42:26.427,-0.285045,3.7325,15.3102,0.0188599,0.244873,0.461571,0
2024-12-13 15:42:26.429,-0.208176,3.72054,15.2001,0.0701711,0.254647,0.433472,0
2024-12-13 15:42:26.431,0.0191426,3.82822,15.0805,0.12698,0.260145,0.398654,0
2024-12-13 15:42:26.434,0.12682,3.8689,14.9297,0.183178,0.258923,0.354673,0
2024-12-13 15:42:26.436,0.0933201,3.81865,14.7547,0.239376,0.252814,0.311914,0
2024-12-13 15:42:26.438,0.0502493,3.78515,14.5466,0.296795,0.244873,0.266711,0
2024-12-13 15:42:26.441,-0.00717847,3.74925,14.2998,0.354826,0.238154,0.227006,0
2024-12-13 15:42:26.443,-0.0957129,3.72772,14.0127,0.4111,0.225937,0.187912,0
2024-12-13 15:42:26.445,-0.198604,3.72293,13.6822,0.460579,0.214331,0.148818,0
2024-12-13 15:42:26.448,-0.299402,3.7014,13.3831,0.508836,0.202114,0.112701,0
2024-12-13 15:42:26.450,-0.390329,3.68226,13.0837,0.551595,0.186232,0.0809373,0
2024-12-13 15:42:26.452,-0.481256,3.67029,12.7511,0.590078,0.170961,0.0516166,0
2024-12-13 15:42:26.455,-0.596112,3.63889,12.4421,0.623675,0.151414,0.0253502,0
2024-12-13 15:42:26.457,-0.710967,3.58624,12.1334,0.651163,0.128202,0.0064139,0
2024-12-13 15:42:26.459,-0.825823,3.54078,11.8173,0.67743,0.106211,-0.00946813,0
2024-12-13 15:42:26.462,-0.950549,3.51446,11.5229,0.693922,0.0799446,-0.0210742,0
2024-12-13 15:42:26.464,-1.05823,3.47617,11.2499,0.693922,0.0799446,-0.0210742,0
2024-12-13 15:42:26.467,-1.14915,3.41635,10.9795,0.710415,0.0280226,-0.0290152,0
2024-12-13 15:42:26.469,-1.21376,3.32782,10.7303,0.709805,-7.63559e-05,-0.0271827,0
2024-12-13 15:42:26.471,-1.27119,3.23211,10.515,0.707972,-0.0281753,-0.0210742,0
2024-12-13 15:42:26.474,-1.3669,3.16989,10.2945,0.707972,-0.0281753,-0.0210742,0
2024-12-13 15:42:26.476,-1.4342,3.17228,10.0887,0.682927,-0.077654,0.00213797,0
2024-12-13 15:42:26.478,-1.41027,3.25843,9.9332,0.660937,-0.093536,0.0186308,0
2024-12-13 15:42:26.481,-1.30469,3.41635,9.79652,0.638335,-0.104531,0.0302369,0
2024-12-13 15:42:26.483,-1.1348,3.63171,9.68405,0.607182,-0.114916,0.0400105,0
2024-12-13 15:42:26.485,-0.926621,3.86411,9.6027,0.573586,-0.114916,0.0424539,0
2024-12-13 15:42:26.488,-0.708575,4.07468,9.54048,0.537546,-0.114305,0.0412322,0
2024-12-13 15:42:26.490,-0.536291,4.26162,9.51895,0.498451,-0.109418,0.033902,0
2024-12-13 15:42:26.492,-0.419043,4.40279,9.5022,0.456303,-0.101477,0.0216851,0
2024-12-13 15:42:26.497,-0.35683,4.50329,9.47348,0.366432,-0.0721563,-0.0113007,0
2024-12-13 15:42:26.497,-0.35683,4.50329,9.47348,0.366432,-0.0721563,-0.0113007,0
2024-12-13 15:42:26.500,-0.41665,4.4674,9.47348,0.315732,-0.0587177,-0.0253502,0
2024-12-13 15:42:26.502,-0.524327,4.39562,9.48784,0.266253,-0.0391706,-0.0393996,0
2024-12-13 15:42:26.504,-0.658325,4.28555,9.49263,0.211277,-0.0238994,-0.0503949,0
2024-12-13 15:42:26.507,-0.813859,4.15843,9.49981,0.153246,-0.00801737,-0.0565034,0
2024-12-13 15:42:26.510,-0.984048,4.00768,9.51177,0.0347419,0.0182491,-0.0595576,0
2024-12-13 15:42:26.511,-1.15394,3.84975,9.52852,0.0347419,0.0182491,-0.0595576,0
2024-12-13 15:42:26.514,-1.31186,3.69661,9.56202,-0.0257319,0.0280226,-0.0534491,0
2024-12-13 15:42:26.518,-1.55862,3.39482,9.6697,-0.151566,0.0335202,-0.0302369,0
2024-12-13 15:42:26.518,-1.55862,3.39482,9.6697,-0.151566,0.0335202,-0.0302369,0
2024-12-13 15:42:26.521,-1.64716,3.2656,9.76302,-0.213873,0.0310769,-0.0125224,0
2024-12-13 15:42:26.525,-1.72852,3.04995,10.005,-0.328712,0.022525,0.0277936,0
2024-12-13 15:42:26.525,-1.72852,3.04995,10.005,-0.328712,0.022525,0.0277936,0
2024-12-13 15:42:26.528,-1.72612,2.96142,10.1414,-0.383078,0.0194708,0.0516166,0
2024-12-13 15:42:26.530,-1.71177,2.88006,10.2969,-0.431945,0.0170274,0.0717745,0
2024-12-13 15:42:26.532,-1.66152,2.79392,10.4623,-0.474705,0.0133623,0.0974301,0
2024-12-13 15:42:26.535,-1.60409,2.71496,10.6155,-0.513799,0.0121406,0.120642,0
2024-12-13 15:42:26.538,-1.54666,2.65514,10.7542,-0.571219,0.010308,0.166532,0
2024-12-13 15:42:26.540,-1.4653,2.60728,10.8715,-0.571219,0.010308,0.166532,0
2024-12-13 15:42:26.542,-1.38844,2.54746,10.9819,-0.591376,0.00908635,0.186079,0
2024-12-13 15:42:26.544,-1.31665,2.47777,11.0776,-0.602983,0.00725381,0.207459,0
2024-12-13 15:42:26.547,-1.26162,2.42752,11.1422,-0.612145,0.00419957,0.226395,0
2024-12-13 15:42:26.549,-1.21137,2.39402,11.2044,-0.611534,0.00114534,0.243499,0
2024-12-13 15:42:26.551,-1.14676,2.37248,11.2522,-0.606037,-0.00374144,0.259992,0
2024-12-13 15:42:26.554,-1.08455,2.35095,11.2642,-0.594431,-0.00923906,0.274041,0
2024-12-13 15:42:26.556,-1.01515,2.32223,11.2427,-0.577938,-0.0159584,0.286258,0
2024-12-13 15:42:26.558,-0.926621,2.30788,11.1924,-0.555947,-0.0226777,0.300308,0
2024-12-13 15:42:26.561,-0.842872,2.30788,11.1111,-0.529681,-0.0300079,0.311914,0
2024-12-13 15:42:26.563,-0.761217,2.31266,11.0034,-0.499749,-0.0391706,0.317412,0
2024-12-13 15:42:26.565,-0.665504,2.30548,10.905,-0.467375,-0.0483333,0.32352,0
2024-12-13 15:42:26.568,-0.586541,2.29352,10.7973,-0.429502,-0.0587177,0.327796,0
2024-12-13 15:42:26.570,-0.529113,2.29352,10.6705,-0.390408,-0.0703238,0.328407,0
2024-12-13 15:42:26.573,-0.476471,2.29831,10.5413,-0.347038,-0.081319,0.329628,0
2024-12-13 15:42:26.577,-0.368794,2.32463,10.2897,-0.254189,-0.10331,0.329018,0
2024-12-13 15:42:26.577,-0.368794,2.32463,10.2897,-0.254189,-0.10331,0.329018,0
2024-12-13 15:42:26.580,-0.330509,2.3342,10.1222,-0.203488,-0.112472,0.324131,0
2024-12-13 15:42:26.582,-0.294616,2.36052,9.93799,-0.154621,-0.122857,0.321077,0
2024-12-13 15:42:26.587,-0.157926,2.38684,9.53091,-0.154621,-0.122857,0.321077,0
2024-12-13 15:42:26.589,-0.102891,2.40598,9.28924,-0.0159584,-0.13935,0.299697,0
2024-12-13 15:42:26.589,-0.102891,2.40598,9.28924,-0.0159584,-0.13935,0.299697,0
2024-12-13 15:42:26.591,-0.0430708,2.41795,9.05923,0.0298552,-0.14668,0.291145,0
2024-12-13 15:42:26.594,0.00957129,2.45623,8.82712,0.0689494,-0.155232,0.281982,0
2024-12-13 15:42:26.596,0.0430708,2.47777,8.58276,0.104989,-0.158897,0.270376,0
2024-12-13 15:42:26.598,0.0550349,2.48734,8.35544,0.136143,-0.165616,0.259992,0
2024-12-13 15:42:26.601,0.040678,2.51605,8.12303,0.164852,-0.168059,0.250829,0
2024-12-13 15:42:26.603,0.0191426,2.53549,7.9005,0.190508,-0.170503,0.242277,0
2024-12-13 15:42:26.606,0.00239282,2.5331,7.68276,0.211888,-0.170503,0.231893,0
2024-12-13 15:42:26.608,-0.00478565,2.54507,7.47428,0.227159,-0.170503,0.223952,0
2024-12-13 15:42:26.610,-0.0167498,2.58096,7.29482,0.241819,-0.167449,0.219065,0
2024-12-13 15:42:26.613,-0.0358923,2.61685,7.10579,0.247928,-0.163783,0.212957,0
2024-12-13 15:42:26.615,-0.0382852,2.63599,6.92842,0.252814,-0.155842,0.207459,0
2024-12-13 15:42:26.617,-0.0358923,2.64796,6.7681,0.254647,-0.14668,0.206237,0
2024-12-13 15:42:26.620,-0.0215354,2.67189,6.59342,0.254036,-0.136906,0.202572,0
2024-12-13 15:42:26.622,-0.00478565,2.70778,6.42802,0.247317,-0.127133,0.198296,0
2024-12-13 15:42:26.624,-0.00478565,2.73649,6.28684,0.237543,-0.119802,0.194631,0
2024-12-13 15:42:26.627,0.0119641,2.74606,6.16242,0.225937,-0.11064,0.190966,0
2024-12-13 15:42:26.629,0.026321,2.7341,6.05713,0.21372,-0.100255,0.187912,0
2024-12-13 15:42:26.631,0.0430708,2.73888,5.96381,0.199671,-0.0923143,0.184247,0
2024-12-13 15:42:26.634,0.0598206,2.75563,5.87258,0.182567,-0.0819299,0.180582,0
2024-12-13 15:42:26.636,0.0478565,2.74846,5.77926,0.161187,-0.073378,0.178749,0
2024-12-13 15:42:26.638,0.0454636,2.74606,5.69791,0.144694,-0.0599394,0.175084,0
2024-12-13 15:42:26.641,0.0454636,2.75563,5.65723,0.12698,-0.0489441,0.173252,0
2024-12-13 15:42:26.643,0.0454636,2.74846,5.64766,0.107433,-0.037338,0.170808,0
2024-12-13 15:42:26.646,0.0454636,2.73888,5.63091,0.0921616,-0.0269536,0.171419,0
2024-12-13 15:42:26.648,0.0334995,2.74846,5.61177,0.0750579,-0.0153475,0.167754,0
2024-12-13 15:42:26.650,0.0358923,2.76042,5.5998,0.0579541,-0.00557398,0.169586,0
2024-12-13 15:42:26.653,0.0430708,2.77478,5.58066,0.0402396,0.00236703,0.170808,0
2024-12-13 15:42:26.657,0.0526421,2.8346,5.54477,0.00908635,0.0170274,0.167143,0
2024-12-13 15:42:26.660,0.0574277,2.84178,5.55913,-0.00740652,0.0219141,0.166532,0
2024-12-13 15:42:26.660,0.0574277,2.84178,5.55913,-0.00740652,0.0219141,0.166532,0
2024-12-13 15:42:26.662,0.0646062,2.86092,5.56152,-0.0171801,0.0261901,0.165921,0
2024-12-13 15:42:26.664,0.066999,2.87288,5.55913,-0.0306187,0.0286335,0.166532,0
2024-12-13 15:42:26.667,0.0765703,2.88006,5.56152,-0.0440574,0.0329094,0.165921,0
2024-12-13 15:42:26.669,0.0909273,2.89442,5.55913,-0.0538309,0.0347419,0.165921,0
2024-12-13 15:42:26.671,0.0981057,2.90878,5.55673,-0.0629936,0.0316877,0.165921,0
2024-12-13 15:42:26.674,0.100499,2.92792,5.55434,-0.0721563,0.0286335,0.1647,0
2024-12-13 15:42:26.676,0.114855,2.94706,5.55434,-0.0862058,0.0249684,0.164089,0
2024-12-13 15:42:26.679,0.119641,2.98295,5.54238,-0.0959794,0.0176382,0.162256,0
2024-12-13 15:42:26.682,0.122034,3.00449,5.52563,-0.113694,0.00358873,0.158591,0
2024-12-13 15:42:26.683,0.133998,3.02124,5.51127,-0.113694,0.00358873,0.158591,0
2024-12-13 15:42:26.686,0.145962,3.05234,5.50648,-0.113694,0.00358873,0.158591,0
2024-12-13 15:42:26.688,0.157926,3.07867,5.51605,-0.130187,-0.0141258,0.151261,0
2024-12-13 15:42:26.690,0.165105,3.09332,5.50888,-0.140571,-0.0202343,0.146985,0
2024-12-13 15:42:26.693,0.16989,3.11007,5.50409,-0.149734,-0.0306187,0.140877,0
2024-12-13 15:42:26.695,0.160319,3.12204,5.50648,-0.158897,-0.0410031,0.135379,0
2024-12-13 15:42:26.697,0.145962,3.134,5.51845,-0.172335,-0.0501658,0.132248,0
2024-12-13 15:42:26.702,0.150748,3.18186,5.55434,-0.191882,-0.0703238,0.120031,0
2024-12-13 15:42:26.702,0.155533,3.18186,5.55434,-0.191882,-0.0703238,0.120031,0
2024-12-13 15:42:26.704,0.155533,3.19621,5.58066,-0.204099,-0.0837624,0.114534,0
2024-12-13 15:42:26.707,0.165105,3.201,5.61177,-0.217538,-0.093536,0.109036,0
2024-12-13 15:42:26.709,0.191426,3.20339,5.66441,-0.227922,-0.102088,0.101706,0
2024-12-13 15:42:26.711,0.215354,3.19382,5.72184,-0.243194,-0.114305,0.0962084,0
2024-12-13 15:42:26.714,0.210568,3.16271,5.79841,-0.2548,-0.122246,0.0901,0
2024-12-13 15:42:26.716,0.193819,3.12204,5.91117,-0.268849,-0.134463,0.0846023,0
2024-12-13 15:42:26.719,0.179462,3.07388,6.02842,-0.282288,-0.141182,0.0784939,0
2024-12-13 15:42:26.721,0.16989,3.02602,6.14088,-0.293283,-0.14668,0.0736071,0
2024-12-13 15:42:26.723,0.157926,2.9686,6.28445,-0.300613,-0.149123,0.0711637,0
2024-12-13 15:42:26.726,0.133998,2.93031,6.44477,-0.309165,-0.150345,0.0693312,0
2024-12-13 15:42:26.728,0.112463,2.88724,6.59821,-0.315274,-0.147901,0.0693312,0
2024-12-13 15:42:26.730,0.0933201,2.82503,6.74417,-0.318328,-0.142404,0.069942,0
2024-12-13 15:42:26.733,0.0741775,2.78674,6.87578,-0.318939,-0.135684,0.0717745,0
2024-12-13 15:42:26.735,0.0741775,2.75563,6.99781,-0.318328,-0.1253,0.0772722,0
2024-12-13 15:42:26.737,0.081356,2.72453,7.12254,-0.314052,-0.111251,0.082159,0
2024-12-13 15:42:26.740,0.0789631,2.70539,7.22303,-0.310387,-0.100255,0.0870457,0
2024-12-13 15:42:26.742,0.0885344,2.68864,7.30439,-0.303667,-0.0849841,0.0919325,0
2024-12-13 15:42:26.744,0.0885344,2.6671,7.38575,-0.303667,-0.0849841,0.0919325,0
2024-12-13 15:42:26.747,0.0885344,2.64796,7.45275,-0.287175,-0.0440574,0.103539,0
2024-12-13 15:42:26.749,0.0885344,2.6336,7.51257,-0.274958,-0.0238994,0.109647,0
2024-12-13 15:42:26.752,0.0741775,2.63599,7.58944,-0.260297,0.00236703,0.116977,0
2024-12-13 15:42:26.754,0.0526421,2.63599,7.66122,-0.245026,0.0274118,0.123086,0
2024-12-13 15:42:26.756,0.0167498,2.63839,7.72583,-0.229755,0.0524565,0.131027,0
2024-12-13 15:42:26.759,-0.0287139,2.64556,7.79522,-0.208986,0.0781121,0.137212,0
2024-12-13 15:42:26.763,-0.141177,2.68146,7.88136,-0.166227,0.12698,0.156148,0
2024-12-13 15:42:26.763,-0.141177,2.68146,7.88136,-0.166227,0.12698,0.156148,0
2024-12-13 15:42:26.766,-0.193819,2.69821,7.90768,-0.166227,0.12698,0.156148,0
2024-12-13 15:42:26.768,-0.251246,2.73888,7.91725,-0.121635,0.166685,0.173862,0
2024-12-13 15:42:26.770,-0.311366,2.78435,7.92443,-0.0972011,0.181345,0.185468,0
2024-12-13 15:42:26.773,-0.359223,2.81545,7.91247,-0.0770431,0.192341,0.196464,0
2024-12-13 15:42:26.777,-0.452543,2.87767,7.867,-0.0361163,0.203336,0.212957,0
2024-12-13 15:42:26.777,-0.452543,2.87767,7.867,-0.0361163,0.203336,0.212957,0
2024-12-13 15:42:26.780,-0.493221,2.90638,7.83829,-0.0202343,0.200892,0.222119,0
2024-12-13 15:42:26.782,-0.52672,2.95185,7.82393,-0.00862822,0.194784,0.228228,0
2024-12-13 15:42:26.785,-0.56022,2.99492,7.80479,0.00358873,0.187454,0.237391,0
2024-12-13 15:42:26.787,-0.596112,3.02842,7.77129,0.0176382,0.180734,0.244721,0
2024-12-13 15:42:26.789,-0.622433,3.05713,7.74975,0.0322986,0.167907,0.248386,0
2024-12-13 15:42:26.792,-0.634397,3.08106,7.72822,0.0359636,0.150192,0.255716,0
2024-12-13 15:42:26.794,-0.660718,3.09571,7.71147,0.0365745,0.130034,0.262435,0
2024-12-13 15:42:26.796,-0.687039,3.09571,7.7019,0.0353528,0.106211,0.269155,0
2024-12-13 15:42:26.799,-0.706182,3.10768,7.69711,0.0377962,0.0836097,0.274041,0
2024-12-13 15:42:26.801,-0.718146,3.12921,7.69711,0.0359636,0.058565,0.278317,0
2024-12-13 15:42:26.803,-0.715753,3.14357,7.7019,0.0286335,0.0335202,0.283815,0
2024-12-13 15:42:26.806,-0.718146,3.15553,7.72104,0.0249684,0.010308,0.288702,0
2024-12-13 15:42:26.809,-0.722932,3.14836,7.77608,0.00847551,-0.0348946,0.30214,0
2024-12-13 15:42:26.810,-0.71336,3.14118,7.8335,0.00847551,-0.0348946,0.30214,0
2024-12-13 15:42:26.814,-0.694218,3.14118,7.88615,-0.00862822,-0.0672696,0.318022,0
2024-12-13 15:42:26.815,-0.677468,3.13161,7.94118,-0.00862822,-0.0672696,0.318022,0
2024-12-13 15:42:26.817,-0.660718,3.10289,8.01536,-0.0153475,-0.077654,0.330239,0
2024-12-13 15:42:26.820,-0.632004,3.07149,8.09193,-0.0263428,-0.0880384,0.340013,0
2024-12-13 15:42:26.822,-0.593719,3.0332,8.16401,-0.0348946,-0.0941468,0.352841,0
2024-12-13 15:42:26.825,-0.553041,3.0021,8.23819,-0.0446682,-0.0947577,0.36689,0
2024-12-13 15:42:26.827,-0.495613,2.96381,8.32433,-0.0538309,-0.0947577,0.382161,0
2024-12-13 15:42:26.829,-0.435793,2.91595,8.4009,-0.0623828,-0.0917034,0.394378,0
2024-12-13 15:42:26.832,-0.378365,2.89203,8.46311,-0.0691021,-0.0862058,0.408428,0
2024-12-13 15:42:26.836,-0.272782,2.84656,8.60668,-0.0788757,-0.0745997,0.436527,0
2024-12-13 15:42:26.839,-0.217747,2.8322,8.67847,-0.0788757,-0.0745997,0.436527,0
2024-12-13 15:42:26.841,-0.177069,2.82981,8.7338,-0.085595,-0.0623828,0.463404,0
2024-12-13 15:42:26.841,-0.177069,2.82981,8.7338,-0.085595,-0.0623828,0.463404,0
2024-12-13 15:42:26.843,-0.150748,2.81545,8.7697,-0.0868167,-0.0538309,0.476232,0
2024-12-13 15:42:26.846,-0.133998,2.82263,8.82234,-0.0862058,-0.0477224,0.486005,0
2024-12-13 15:42:26.848,-0.117248,2.83699,8.8678,-0.085595,-0.041614,0.497611,0
2024-12-13 15:42:26.850,-0.107677,2.8346,8.89412,-0.0825407,-0.0410031,0.507385,0
2024-12-13 15:42:26.853,-0.0957129,2.84417,8.90609,-0.0764323,-0.0440574,0.517769,0
2024-12-13 15:42:26.855,-0.0909273,2.8657,8.9013,-0.0764323,-0.0440574,0.517769,0
2024-12-13 15:42:26.860,-0.0646062,2.86092,8.88455,-0.0544418,-0.0715455,0.545258,0
2024-12-13 15:42:26.860,-0.0646062,2.86092,8.88455,-0.0544418,-0.0715455,0.545258,0
2024-12-13 15:42:26.862,-0.0430708,2.85135,8.85344,-0.0465007,-0.085595,0.55442,0
2024-12-13 15:42:26.865,-0.0239282,2.84178,8.82712,-0.0348946,-0.100255,0.558085,0
2024-12-13 15:42:26.867,0.00717847,2.8322,8.81037,-0.0202343,-0.113083,0.562972,0
2024-12-13 15:42:26.869,0.0550349,2.81306,8.77448,-0.00557398,-0.122246,0.563583,0
2024-12-13 15:42:26.873,0.0933201,2.79631,8.72662,0.0329094,-0.127743,0.56114,0
2024-12-13 15:42:26.874,0.131605,2.80588,8.69283,0.0329094,-0.127743,0.56114,0
2024-12-13 15:42:26.876,0.179462,2.80828,8.65693,0.0524565,-0.129576,0.555642,0
2024-12-13 15:42:26.879,0.227318,2.80349,8.61386,0.0762796,-0.127133,0.548923,0
2024-12-13 15:42:26.881,0.253639,2.82263,8.5684,0.0970484,-0.126522,0.542814,0
2024-12-13 15:42:26.883,0.299402,2.84178,8.53729,0.120871,-0.124078,0.534262,0
2024-12-13 15:42:26.886,0.328116,2.86331,8.49183,0.146527,-0.121635,0.524489,0
2024-12-13 15:42:26.888,0.335294,2.90638,8.44397,0.170961,-0.118581,0.512272,0
2024-12-13 15:42:26.890,0.35683,2.96381,8.40329,0.196006,-0.118581,0.500666,0
2024-12-13 15:42:26.893,0.371187,3.00688,8.34587,0.217385,-0.121024,0.48967,0
2024-12-13 15:42:26.895,0.385544,3.12921,8.33869,0.243652,-0.124689,0.478064,0
2024-12-13 15:42:26.898,0.407079,3.27039,8.36501,0.269307,-0.134463,0.470734,0
2024-12-13 15:42:26.900,0.3999,3.32543,8.32912,0.298628,-0.14668,0.459128,0
2024-12-13 15:42:26.903,0.392722,3.37807,8.27408,0.353604,-0.171114,0.442635,0
2024-12-13 15:42:26.905,0.414257,3.41635,8.29322,0.353604,-0.171114,0.442635,0
2024-12-13 15:42:26.907,0.447757,3.44985,8.3028,0.384223,-0.188217,0.432862,0
2024-12-13 15:42:26.909,0.493221,3.49771,8.18315,0.408046,-0.201656,0.422477,0
2024-12-13 15:42:26.912,0.548256,3.56231,7.98425,0.426982,-0.197991,0.410871,0
2024-12-13 15:42:26.914,0.610469,3.64876,7.82154,0.439199,-0.18272,0.401708,0
2024-12-13 15:42:26.916,0.670289,3.7349,7.72583,0.441032,-0.167449,0.394989,0
2024-12-13 15:42:26.919,0.706182,3.84975,7.67318,0.438588,-0.150956,0.386437,0
2024-12-13 15:42:26.921,0.722932,3.97897,7.69472,0.431258,-0.136295,0.377275,0
2024-12-13 15:42:26.923,0.76361,4.101,7.74258,0.429426,-0.1253,0.369334,0
2024-12-13 15:42:26.928,0.775574,4.43629,7.82872,0.420874,-0.112472,0.349176,0
2024-12-13 15:42:26.929,0.775574,4.43629,7.82872,0.412933,-0.108196,0.339402,0
2024-12-13 15:42:26.931,0.785145,4.62772,7.86222,0.412933,-0.108196,0.339402,0
2024-12-13 15:42:26.933,0.777966,4.83141,7.87657,0.408657,-0.0972011,0.329628,0
2024-12-13 15:42:26.935,0.766002,5.03001,7.89093,0.400716,-0.085595,0.317412,0
2024-12-13 15:42:26.938,0.744467,5.24297,7.92922,0.391553,-0.0666587,0.305195,0
2024-12-13 15:42:26.940,0.699003,5.43709,7.98186,0.378725,-0.0483333,0.296032,0
2024-12-13 15:42:26.942,0.655932,5.61416,8.04646,0.363378,-0.0300079,0.283815,0
2024-12-13 15:42:26.945,0.641576,5.76491,8.15444,0.346885,-0.0147367,0.267322,0
2024-12-13 15:42:26.947,0.648754,5.85105,8.30758,0.327338,-0.00435229,0.250829,0
2024-12-13 15:42:26.949,0.646361,5.92074,8.47269,0.304736,0.00725381,0.230671,0
2024-12-13 15:42:26.952,0.576969,5.95903,8.6689,0.304736,0.00725381,0.230671,0
2024-12-13 15:42:26.954,0.459721,5.9662,8.9013,0.250982,0.0365745,0.18669,0
2024-12-13 15:42:26.956,0.342473,5.97338,9.1358,0.22044,0.0536782,0.165921,0
2024-12-13 15:42:26.959,0.205783,5.99013,9.35384,0.187454,0.0695602,0.147596,0
2024-12-13 15:42:26.961,0.0334995,6.01885,9.57398,0.153246,0.0878856,0.130416,0
2024-12-13 15:42:26.964,-0.189033,6.04038,9.78455,0.110487,0.107433,0.11881,0
2024-12-13 15:42:26.966,-0.445364,6.0356,9.98824,0.0646735,0.125758,0.110869,0
2024-12-13 15:42:26.968,-0.701396,5.99013,10.2012,0.0127514,0.140419,0.106593,0
2024-12-13 15:42:26.971,-0.955334,5.92074,10.4264,-0.0428357,0.151414,0.10476,0
2024-12-13 15:42:26.973,-1.20658,5.8343,10.6609,-0.10331,0.159966,0.107204,0
2024-12-13 15:42:26.975,-1.46291,5.7003,10.9122,-0.169281,0.166074,0.112701,0
2024-12-13 15:42:26.978,-1.69741,5.53759,11.1996,-0.241361,0.17035,0.121864,0
2024-12-13 15:42:26.980,-1.90558,5.37009,11.5517,-0.317106,0.174626,0.134157,0
2024-12-13 15:42:26.982,-2.08774,5.17358,11.9728,-0.391019,0.178291,0.149429,0
2024-12-13 15:42:26.985,-2.19781,4.91994,12.4134,-0.469818,0.181956,0.166532,0
2024-12-13 15:42:26.987,-2.2672,4.63729,12.8755,-0.546174,0.187454,0.18669,0
2024-12-13 15:42:26.989,-2.32941,4.35015,13.3998,-0.620086,0.193562,0.207459,0
2024-12-13 15:42:26.992,-2.36291,4.0675,13.9433,-0.688501,0.204557,0.229449,0
2024-12-13 15:42:26.994,-2.35095,3.78275,14.4891,-0.753862,0.217996,0.252051,0
2024-12-13 15:42:26.996,-2.32941,3.50967,15.0541,-0.811282,0.230824,0.275263,0
2024-12-13 15:42:26.999,-2.37966,3.27757,15.5904,-0.862593,0.243652,0.300919,0
2024-12-13 15:42:27.001,-2.48734,3.10529,16.11,-0.904741,0.25648,0.326574,0
2024-12-13 15:42:27.004,-2.56182,2.96381,16.6319,-0.933451,0.270529,0.358338,0
2024-12-13 15:42:27.008,-2.54267,2.69581,17.6659,-0.957885,0.293741,0.429807,0
2024-12-13 15:42:27.008,-2.54267,2.69581,17.6659,-0.957885,0.293741,0.429807,0
2024-12-13 15:42:27.011,-2.47777,2.5666,18.1137,-0.949944,0.298017,0.467069,0
2024-12-13 15:42:27.013,-2.37966,2.46102,18.4944,-0.929175,0.296795,0.499444,0
2024-12-13 15:42:27.015,-2.2337,2.37966,18.8154,-0.894357,0.290076,0.528765,0
2024-12-13 15:42:27.018,-2.04706,2.31027,19.0618,-0.8461,0.280913,0.556253,0
2024-12-13 15:42:27.020,-1.81226,2.25284,19.2317,-0.785626,0.267475,0.578243,0
2024-12-13 15:42:27.022,-1.57298,2.21695,19.2796,-0.714157,0.247928,0.594125,2
2024-12-13 15:42:27.027,-1.1324,2.25763,19.0953,-0.540676,0.198449,0.610007,0
2024-12-13 15:42:27.027,-1.1324,2.25763,19.0953,-0.540676,0.198449,0.610007,0
2024-12-13 15:42:27.029,-0.909871,2.3342,18.9087,-0.44233,0.166685,0.610007,0
2024-12-13 15:42:27.032,-0.689432,2.43948,18.7002,-0.337875,0.131256,0.602066,0
2024-12-13 15:42:27.034,-0.493221,2.5666,18.4633,-0.227312,0.0982701,0.584963,0
2024-12-13 15:42:27.037,-0.332901,2.70778,18.1807,-0.116137,0.0634518,0.562361,0
2024-12-13 15:42:27.039,-0.189033,2.87049,17.8313,0.000534491,0.0329094,0.531819,0
2024-12-13 15:42:27.041,-0.0334995,3.05474,17.4673,0.115374,0.00603212,0.497001,0
2024-12-13 15:42:27.044,0.0933201,3.2345,17.0746,0.228991,-0.0171801,0.45302,0
2024-12-13 15:42:27.046,0.184247,3.41396,16.6008,0.338333,-0.037338,0.407817,0
2024-12-13 15:42:27.049,0.227318,3.61974,16.0908,0.538767,-0.0782648,0.308249,0
2024-12-13 15:42:27.051,0.236889,3.82582,15.5617,0.538767,-0.0782648,0.308249,0
2024-12-13 15:42:27.053,0.191426,4.01964,15.035,0.623675,-0.100866,0.255716,0
2024-12-13 15:42:27.055,0.114855,4.22812,14.5322,0.698198,-0.128354,0.205016,0
2024-12-13 15:42:27.058,0.0550349,4.43629,14.0294,0.758061,-0.155232,0.153704,0
2024-12-13 15:42:27.060,0.00478565,4.6325,13.5242,0.808762,-0.18272,0.104149,0
2024-12-13 15:42:27.062,-0.0454636,4.78355,13.0549,0.842358,-0.213873,0.0534491,0
2024-12-13 15:42:27.067,-0.0287139,4.94626,12.3224,0.86496,-0.273125,-0.0400105,0
2024-12-13 15:42:27.067,-0.0287139,4.94626,12.3224,0.86496,-0.273125,-0.0400105,0
2024-12-13 15:42:27.069,-0.0454636,5.02523,12.0159,0.859462,-0.296337,-0.0852132,0
2024-12-13 15:42:27.072,-0.122034,5.10419,11.7191,0.841748,-0.309165,-0.126751,0
2024-12-13 15:42:27.074,-0.200997,5.15922,11.4461,0.813038,-0.310998,-0.164623,0
2024-12-13 15:42:27.077,-0.263211,5.18076,11.202,0.772111,-0.3055,-0.19822,0
2024-12-13 15:42:27.081,-0.328116,5.15444,11.0034,0.662158,-0.273125,-0.251364,0
2024-12-13 15:42:27.081,-0.426222,5.12333,10.838,0.662158,-0.273125,-0.251364,0
2024-12-13 15:42:27.086,-0.646361,5.00369,10.6202,0.516777,-0.224257,-0.278852,0
2024-12-13 15:42:27.088,-0.744467,4.92712,10.5509,0.431869,-0.193715,-0.284349,0
2024-12-13 15:42:27.088,-0.744467,4.92712,10.5509,0.431869,-0.193715,-0.284349,0
2024-12-13 15:42:27.091,-0.821037,4.81705,10.515,0.340166,-0.162562,-0.286182,0
2024-12-13 15:42:27.093,-0.890728,4.68515,10.5054,0.244263,-0.130798,-0.280684,0
2024-12-13 15:42:27.095,-0.945763,4.55354,10.5174,0.145916,-0.0972011,-0.270911,0
2024-12-13 15:42:27.098,-0.955334,4.40519,10.5844,0.0451263,-0.0617719,-0.257472,0
2024-12-13 15:42:27.100,-0.929013,4.24487,10.6609,-0.0587177,-0.029397,-0.242812,0
2024-12-13 15:42:27.102,-0.902692,4.07946,10.7614,-0.157675,0.00786466,-0.224486,0
2024-12-13 15:42:27.105,-0.8668,3.90479,10.9217,-0.253578,0.0457372,-0.206161,0
2024-12-13 15:42:27.107,-0.84018,3.75883,11.1039,-0.345205,0.0842206,-0.189057,0
2024-12-13 15:42:27.110,-0.833001,3.61974,11.2905,-0.426448,0.130034,-0.170121,0
2024-12-13 15:42:27.112,-0.84018,3.47617,11.5182,-0.500971,0.172793,-0.153628,0
2024-12-13 15:42:27.114,-0.854836,3.35414,11.7838,-0.566943,0.216164,-0.135914,0
2024-12-13 15:42:27.117,-0.890728,3.23928,12.0254,-0.617032,0.25709,-0.118199,0
2024-12-13 15:42:27.119,-0.917049,3.16032,12.265,-0.655515,0.294352,-0.101095,0
2024-12-13 15:42:27.121,-0.952942,3.11486,12.4899,-0.681171,0.327338,-0.0846023,0
2024-12-13 15:42:27.124,-1.01515,3.06192,12.6673,-0.699496,0.355437,-0.0674986,0
2024-12-13 15:42:27.126,-1.04865,2.9997,12.8204,-0.70194,0.380481,-0.0546708,0
2024-12-13 15:42:27.128,-1.06301,2.93749,12.9592,-0.697664,0.394531,-0.0412322,0
2024-12-13 15:42:27.131,-1.07976,2.85853,13.0717,-0.679339,0.400639,-0.0302369,0
2024-12-13 15:42:27.133,-1.09412,2.79871,13.1554,-0.65124,0.40125,-0.0204634,0
2024-12-13 15:42:27.135,-1.11805,2.76042,13.1988,-0.613367,0.398196,-0.0131332,0
2024-12-13 15:42:27.138,-1.12762,2.72453,13.2084,-0.566332,0.387201,-0.00885729,0
2024-12-13 15:42:27.140,-1.12762,2.68146,13.1674,-0.511356,0.37193,-0.0051922,0
2024-12-13 15:42:27.143,-1.11326,2.64556,13.0717,-0.452714,0.354215,-0.00458135,0
2024-12-13 15:42:27.145,-1.07258,2.63121,12.9281,-0.38491,0.337722,-0.00885729,0
2024-12-13 15:42:27.147,-1.0319,2.61924,12.7295,-0.314052,0.320618,-0.0137441,0
2024-12-13 15:42:27.150,-0.99362,2.6001,12.4923,-0.24075,0.303515,-0.0198525,0
2024-12-13 15:42:27.152,-0.945763,2.60489,12.2363,-0.165616,0.288244,-0.0277936,0
2024-12-13 15:42:27.154,-0.888335,2.63839,11.9489,-0.0880384,0.272972,-0.0400105,0
2024-12-13 15:42:27.157,-0.830609,2.6671,11.6306,-0.0129041,0.257701,-0.0516166,0
2024-12-13 15:42:27.159,-0.789931,2.71974,11.3001,0.0658951,0.246706,-0.0607793,0
2024-12-13 15:42:27.161,-0.773181,2.78674,10.9603,0.14164,0.229602,-0.0742179,0
2024-12-13 15:42:27.164,-0.761217,2.85374,10.6059,0.216164,0.21372,-0.0852132,0
2024-12-13 15:42:27.166,-0.754038,2.92792,10.2562,0.283357,0.192341,-0.0937651,0
2024-12-13 15:42:27.168,-0.76361,2.99731,9.90928,0.346274,0.171572,-0.10476,0
2024-12-13 15:42:27.171,-0.770788,3.05713,9.55005,0.404381,0.14897,-0.113923,0
2024-12-13 15:42:27.173,-0.749253,3.11007,9.19083,0.459357,0.12698,-0.120642,0
2024-12-13 15:42:27.175,-0.706182,3.16271,8.81037,0.505171,0.103157,-0.128583,0
2024-12-13 15:42:27.178,-0.658325,3.201,8.42722,0.545487,0.0781121,-0.136524,0
2024-12-13 15:42:27.180,-0.610469,3.22732,8.07757,0.578472,0.0555107,-0.143855,0
2024-12-13 15:42:27.183,-0.555434,3.26321,7.71865,0.603517,0.0316877,-0.151796,0
2024-12-13 15:42:27.185,-0.512363,3.28475,7.35703,0.619399,0.0096972,-0.159126,0
2024-12-13 15:42:27.187,-0.481256,3.27996,6.99781,0.626729,-0.0110716,-0.167067,0
2024-12-13 15:42:27.190,-0.45015,3.27757,6.64128,0.624897,-0.0318404,-0.177451,0
2024-12-13 15:42:27.192,-0.380758,3.33739,6.32991,0.616345,-0.0489441,-0.187225,0
2024-12-13 15:42:27.194,-0.313759,3.3661,6.02602,0.599241,-0.0678804,-0.19822,0
2024-12-13 15:42:27.197,-0.30658,3.34935,5.73619,0.574807,-0.0849841,-0.207993,0
2024-12-13 15:42:27.199,-0.328116,3.34696,5.47059,0.544876,-0.0965902,-0.214102,0
2024-12-13 15:42:27.201,-0.364008,3.33739,5.24058,0.510668,-0.106364,-0.22021,0
2024-12-13 15:42:27.204,-0.390329,3.32303,5.10658,0.472796,-0.116137,-0.226319,0
2024-12-13 15:42:27.206,-0.407079,3.30868,4.98694,0.433091,-0.130798,-0.231817,0
2024-12-13 15:42:27.208,-0.426222,3.31825,4.80748,0.390331,-0.140571,-0.235482,0
2024-12-13 15:42:27.211,-0.440578,3.35653,4.63729,0.341998,-0.143015,-0.236092,0
2024-12-13 15:42:27.213,-0.464507,3.38764,4.51286,0.291298,-0.143015,-0.240979,0
2024-12-13 15:42:27.218,-0.529113,3.4331,4.37169,0.18501,-0.144236,-0.237925,0
2024-12-13 15:42:27.218,-0.529113,3.4331,4.37169,0.18501,-0.144236,-0.237925,0
2024-12-13 15:42:27.223,-0.596112,3.4331,4.36451,0.0836097,-0.143625,-0.233649,0
2024-12-13 15:42:27.223,-0.596112,3.4331,4.36451,0.0836097,-0.143625,-0.233649,0
2024-12-13 15:42:27.225,-0.605683,3.39242,4.37408,0.0371853,-0.142404,-0.228762,0
2024-12-13 15:42:27.227,-0.593719,3.3661,4.41954,-0.0104608,-0.136906,-0.221432,0
2024-12-13 15:42:27.230,-0.574577,3.32303,4.49611,-0.0544418,-0.133241,-0.214102,0
2024-12-13 15:42:27.232,-0.52672,3.27039,4.57986,-0.0898709,-0.126522,-0.208604,0
2024-12-13 15:42:27.234,-0.493221,3.22971,4.64208,-0.124689,-0.119802,-0.200663,0
2024-12-13 15:42:27.237,-0.4669,3.19143,4.70429,-0.157675,-0.107585,-0.194555,0
2024-12-13 15:42:27.239,-0.423829,3.15793,4.77398,-0.184552,-0.0953685,-0.186614,0
2024-12-13 15:42:27.241,-0.378365,3.12204,4.83619,-0.209597,-0.0807082,-0.182949,0
2024-12-13 15:42:27.244,-0.347258,3.09571,4.90319,-0.228533,-0.0672696,-0.176229,0
2024-12-13 15:42:27.246,-0.325723,3.0667,4.99651,-0.243804,-0.0562743,-0.171343,0
2024-12-13 15:42:27.248,-0.316152,3.04277,5.1329,-0.251135,-0.0532201,-0.162791,0
2024-12-13 15:42:27.251,-0.304188,3.00927,5.19033,-0.256021,-0.049555,-0.157293,0
2024-12-13 15:42:27.253,-0.285045,2.97577,5.26212,-0.263352,-0.0458899,-0.151796,0
2024-12-13 15:42:27.256,-0.267996,2.96381,5.38206,-0.258465,-0.0452791,-0.143855,0
2024-12-13 15:42:27.258,-0.258425,2.95663,5.40838,-0.254189,-0.0446682,-0.138357,0
2024-12-13 15:42:27.260,-0.248854,2.94467,5.42752,-0.248691,-0.0410031,-0.132248,0
2024-12-13 15:42:27.263,-0.234497,2.92792,5.45863,-0.245637,-0.037338,-0.126751,0
2024-12-13 15:42:27.265,-0.22014,2.90638,5.52323,-0.24075,-0.0391706,-0.119421,0
2024-12-13 15:42:27.267,-0.196211,2.88245,5.57348,-0.229755,-0.0458899,-0.113312,0
2024-12-13 15:42:27.270,-0.162712,2.84895,5.59502,-0.220592,-0.0526092,-0.109036,0
2024-12-13 15:42:27.272,-0.131605,2.8346,5.6333,-0.213262,-0.0629936,-0.101706,0
2024-12-13 15:42:27.277,-0.12682,2.80588,5.67398,-0.19738,-0.0831516,-0.0925434,0
2024-12-13 15:42:27.277,-0.131605,2.80588,5.67398,-0.19738,-0.0831516,-0.0925434,0
2024-12-13 15:42:27.279,-0.141177,2.78435,5.72662,-0.189439,-0.0953685,-0.085824,0
2024-12-13 15:42:27.281,-0.155533,2.77238,5.7673,-0.189439,-0.0953685,-0.085824,0
2024-12-13 15:42:27.284,-0.162712,2.76281,5.75055,-0.171724,-0.114305,-0.0742179,0
2024-12-13 15:42:27.286,-0.157926,2.74128,5.68116,-0.168059,-0.113083,-0.0687203,0
2024-12-13 15:42:27.289,-0.155533,2.7341,5.62373,-0.169281,-0.108807,-0.0607793,0
2024-12-13 15:42:27.291,-0.16989,2.71974,5.60937,-0.174168,-0.100866,-0.0528383,0
2024-12-13 15:42:27.293,-0.167498,2.67189,5.61895,-0.181498,-0.0953685,-0.046119,0
2024-12-13 15:42:27.296,-0.181855,2.64556,5.65723,-0.189439,-0.0874275,-0.0369563,0
2024-12-13 15:42:27.298,-0.217747,2.60249,5.70987,-0.196158,-0.0788757,-0.0253502,0
2024-12-13 15:42:27.300,-0.251246,2.5331,5.77926,-0.209597,-0.0721563,-0.0161875,0
2024-12-13 15:42:27.303,-0.289831,2.4993,5.87737,-0.219371,-0.0648262,-0.0064139,0
2024-12-13 15:42:27.305,-0.316152,2.4682,6.00927,-0.227922,-0.0605502,0.00335966,0
2024-12-13 15:42:27.307,-0.337687,2.43948,6.14567,-0.235863,-0.0538309,0.0137441,0
2024-12-13 15:42:27.312,-0.359223,2.41077,6.26531,-0.241361,-0.0410031,0.0345129,0
2024-12-13 15:42:27.312,-0.380758,2.38206,6.39452,-0.241361,-0.0410031,0.0345129,0
2024-12-13 15:42:27.317,-0.464507,2.36291,6.66281,-0.243804,-0.0324513,0.0552817,0
2024-12-13 15:42:27.317,-0.464507,2.36291,6.66281,-0.243804,-0.0324513,0.0552817,0
2024-12-13 15:42:27.319,-0.502792,2.3677,6.75374,-0.239528,-0.0269536,0.0650552,0
2024-12-13 15:42:27.322,-0.517149,2.3677,6.81356,-0.236474,-0.0159584,0.0760505,0
2024-12-13 15:42:27.324,-0.517149,2.34856,6.89253,-0.236474,-0.00435229,0.0864349,0
2024-12-13 15:42:27.326,-0.545863,2.31266,6.98345,-0.230977,0.00542127,0.0949868,0
2024-12-13 15:42:27.329,-0.574577,2.28395,7.06032,-0.225479,0.0121406,0.102928,0
2024-12-13 15:42:27.331,-0.593719,2.2672,7.11536,-0.220592,0.0188599,0.11209,0
2024-12-13 15:42:27.336,-0.63679,2.24806,7.22782,-0.212651,0.0261901,0.121864,0
2024-12-13 15:42:27.338,-0.658325,2.25524,7.31635,-0.19738,0.0414613,0.13599,0
2024-12-13 15:42:27.338,-0.658325,2.25524,7.31635,-0.19738,0.0414613,0.13599,0
2024-12-13 15:42:27.340,-0.675075,2.27438,7.39771,-0.187606,0.0475697,0.145153,0
2024-12-13 15:42:27.343,-0.682254,2.26959,7.47428,-0.173557,0.0561216,0.151872,0
2024-12-13 15:42:27.345,-0.687039,2.26959,7.55324,-0.156453,0.066506,0.159202,0
2024-12-13 15:42:27.347,-0.689432,2.27199,7.61336,-0.138739,0.0775012,0.167143,0
2024-12-13 15:42:27.350,-0.672682,2.27916,7.68515,-0.119192,0.086664,0.173252,0
2024-12-13 15:42:27.352,-0.660718,2.29113,7.74497,-0.0941468,0.0952158,0.176306,0
2024-12-13 15:42:27.355,-0.677468,2.30309,7.78325,-0.0739889,0.103768,0.179971,0
2024-12-13 15:42:27.357,-0.689432,2.30788,7.82393,-0.0477224,0.11293,0.183025,0
2024-12-13 15:42:27.359,-0.689432,2.29831,7.8694,-0.021456,0.117206,0.18669,0
2024-12-13 15:42:27.362,-0.710967,2.30548,7.9005,0.00175619,0.120871,0.188523,0
2024-12-13 15:42:27.364,-0.73011,2.32941,7.89093,0.0274118,0.125147,0.190355,0
2024-12-13 15:42:27.366,-0.73011,2.35334,7.89093,0.0530674,0.125147,0.191577,0
2024-12-13 15:42:27.369,-0.715753,2.37488,7.89093,0.0793338,0.122704,0.190966,0
2024-12-13 15:42:27.371,-0.715753,2.40598,7.87418,0.104989,0.119039,0.190355,0
2024-12-13 15:42:27.373,-0.737288,2.44666,7.867,0.127591,0.11232,0.18669,0
2024-12-13 15:42:27.376,-0.76361,2.47777,7.84786,0.150803,0.106211,0.183636,0
2024-12-13 15:42:27.378,-0.787538,2.50409,7.82872,0.17035,0.0982701,0.180582,0
2024-12-13 15:42:27.380,-0.804287,2.53549,7.81436,0.188675,0.0933833,0.175084,0
2024-12-13 15:42:27.383,-0.830609,2.58335,7.79043,0.208833,0.0872748,0.168365,0
2024-12-13 15:42:27.385,-0.85005,2.63839,7.77608,0.223494,0.0829989,0.162256,0
2024-12-13 15:42:27.387,-0.869193,2.67428,7.75454,0.236932,0.0793338,0.155537,0
2024-12-13 15:42:27.390,-0.9003,2.72453,7.73779,0.236932,0.0793338,0.155537,0
2024-12-13 15:42:27.392,-0.929013,2.77717,7.72343,0.260145,0.0713928,0.140877,0
2024-12-13 15:42:27.395,-0.962513,2.82263,7.69233,0.266253,0.0677277,0.13347,0
2024-12-13 15:42:27.397,-1.0008,2.88245,7.64926,0.271751,0.0610084,0.124918,0
2024-12-13 15:42:27.399,-1.05105,2.93749,7.62772,0.277248,0.0555107,0.115145,0
2024-12-13 15:42:27.402,-1.08455,2.98295,7.61576,0.276637,0.0542891,0.105982,0
2024-12-13 15:42:27.404,-1.11805,3.02842,7.6014,0.273583,0.0555107,0.098041,0
2024-12-13 15:42:27.406,-1.17787,3.07149,7.58704,0.270529,0.0536782,0.0894891,0
2024-12-13 15:42:27.409,-1.22812,3.10768,7.57986,0.269307,0.0536782,0.0803264,0
2024-12-13 15:42:27.411,-1.25922,3.14596,7.56999,0.263199,0.0555107,0.069942,0
2024-12-13 15:42:27.413,-1.2999,3.17228,7.55564,0.25648,0.0579541,0.0607793,0
2024-12-13 15:42:27.416,-1.28315,3.19861,7.49342,0.247317,0.0500131,0.0503949,0
2024-12-13 15:42:27.418,-1.29751,3.22732,7.43839,0.234489,0.0316877,0.0400105,0
2024-12-13 15:42:27.420,-1.44855,3.23689,7.48624,0.222883,0.0231358,0.0308478,0
2024-12-13 15:42:27.423,-1.61845,3.23689,7.56999,0.209444,0.0249684,0.0235176,0
2024-12-13 15:42:27.425,-1.71416,3.25603,7.65643,0.19906,0.0322986,0.01802,0
2024-12-13 15:42:27.428,-1.73809,3.28475,7.733,0.188065,0.0439046,0.0113007,0
2024-12-13 15:42:27.430,-1.72852,3.31585,7.77368,0.188065,0.0439046,0.0113007,0
2024-12-13 15:42:27.432,-1.70698,3.35175,7.79283,0.164852,0.0628409,-0.00458135,0
2024-12-13 15:42:27.435,-1.68066,3.37328,7.8335,0.152025,0.0671168,-0.0137441,0
2024-12-13 15:42:27.437,-1.58973,3.39482,7.80479,0.140419,0.0567324,-0.0241285,0
2024-12-13 15:42:27.439,-1.6663,3.42114,7.81675,0.124536,0.0329094,-0.0363454,0
2024-12-13 15:42:27.442,-1.97049,3.42114,8.00339,0.11293,0.0274118,-0.0442864,0
2024-12-13 15:42:27.444,-2.18345,3.42832,8.22862,0.104989,0.0347419,-0.0455081,0
2024-12-13 15:42:27.446,-2.22174,3.4666,8.38654,0.0994917,0.046348,-0.0467298,0
2024-12-13 15:42:27.449,-2.14995,3.50249,8.47986,0.0921616,0.0561216,-0.0479515,0
2024-12-13 15:42:27.451,-2.0686,3.53599,8.54926,0.0921616,0.0561216,-0.0479515,0
2024-12-13 15:42:27.453,-1.9992,3.55514,8.61865,0.0848314,0.0646735,-0.0552817,0
2024-12-13 15:42:27.456,-1.93191,3.58864,8.69761,0.0805555,0.0683385,-0.0607793,0
2024-12-13 15:42:27.458,-1.88405,3.62692,8.76252,0.0756687,0.0707819,-0.0681095,0
2024-12-13 15:42:27.460,-1.88166,3.65833,8.8343,0.0756687,0.0695602,-0.0748288,0
2024-12-13 15:42:27.463,-1.89362,3.70618,8.90609,0.0738362,0.0658951,-0.0803264,0
2024-12-13 15:42:27.465,-1.88883,3.75883,8.98026,0.0707819,0.0616192,-0.0876566,0
2024-12-13 15:42:27.468,-1.88644,3.82104,9.05923,0.0689494,0.0573433,-0.0907108,0
2024-12-13 15:42:27.470,-1.87926,3.87847,9.14537,0.0726145,0.050624,-0.0949868,0
2024-12-13 15:42:27.472,-1.86251,3.92393,9.22912,0.0750579,0.0445155,-0.0962084,0
2024-12-13 15:42:27.475,-1.84337,3.96939,9.29163,0.0762796,0.0390179,-0.0962084,0
2024-12-13 15:42:27.477,-1.84337,4.02204,9.34188,0.0817772,0.0310769,-0.098041,0
2024-12-13 15:42:27.479,-1.84576,4.0675,9.4017,0.0848314,0.0194708,-0.0974301,0
2024-12-13 15:42:27.482,-1.84098,4.13211,9.46152,0.0897182,0.00786466,-0.0968193,0
2024-12-13 15:42:27.484,-1.83619,4.22812,9.51895,0.0952158,-0.0019089,-0.0992627,0
2024-12-13 15:42:27.486,-1.8338,4.33101,9.56202,0.0976592,-0.0116825,-0.0968193,0
2024-12-13 15:42:27.489,-1.84576,4.43151,9.59552,0.102546,-0.0220669,-0.0968193,0
2024-12-13 15:42:27.491,-1.83619,4.55593,9.64577,0.106822,-0.033673,-0.0943759,0
2024-12-13 15:42:27.493,-1.80748,4.69233,9.6673,0.11232,-0.0434465,-0.0943759,0
2024-12-13 15:42:27.496,-1.79312,4.8338,9.68405,0.114763,-0.0519984,-0.0943759,0
2024-12-13 15:42:27.498,-1.76441,4.97498,9.70319,0.116595,-0.0611611,-0.0937651,0
2024-12-13 15:42:27.501,-1.74527,5.11615,9.71755,0.118428,-0.0703238,-0.098041,0
2024-12-13 15:42:27.503,-1.76919,5.29801,9.75105,0.117206,-0.0794865,-0.103539,0
2024-12-13 15:42:27.505,-1.8003,5.48495,9.76541,0.115374,-0.0868167,-0.107815,0
2024-12-13 15:42:27.508,-1.82423,5.65484,9.77259,0.113541,-0.0941468,-0.109036,0
2024-12-13 15:42:27.510,-1.85533,5.84626,9.79652,0.107433,-0.10392,-0.112701,0
2024-12-13 15:42:27.515,-1.98963,6.2007,9.79652,0.086664,-0.124689,-0.118199,0
2024-12-13 15:42:27.515,-1.98963,6.2007,9.79652,0.086664,-0.124689,-0.118199,0
2024-12-13 15:42:27.517,-2.08774,6.37059,9.79173,0.074447,-0.136906,-0.118199,0
2024-12-13 15:42:27.519,-2.20259,6.53839,9.81566,0.0536782,-0.14668,-0.114534,0
2024-12-13 15:42:27.522,-2.32941,6.67239,9.86381,0.030466,-0.157064,-0.108425,0
2024-12-13 15:42:27.524,-2.4993,6.78006,9.92363,0.00236703,-0.167449,-0.0986518,0
2024-12-13 15:42:27.526,-2.69103,6.8686,10.0265,-0.0281753,-0.174779,-0.0827698,0
2024-12-13 15:42:27.529,-2.88006,6.93081,10.194,-0.0642153,-0.177222,-0.0607793,0
2024-12-13 15:42:27.531,-3.06192,6.96431,10.424,-0.105142,-0.177833,-0.0351237,0
2024-12-13 15:42:27.533,-3.23211,6.97627,10.6896,-0.145458,-0.174168,-0.00274881,0
2024-12-13 15:42:27.536,-3.37567,6.98345,10.9866,-0.187606,-0.166838,0.0369563,0
2024-12-13 15:42:27.538,-3.47378,6.95952,11.3121,-0.23342,-0.155842,0.0791047,0
2024-12-13 15:42:27.541,-3.52164,6.87817,11.6378,-0.279844,-0.141182,0.125529,0
2024-12-13 15:42:27.543,-3.50728,6.76571,11.968,-0.326269,-0.121635,0.176306,0
2024-12-13 15:42:27.545,-3.44746,6.61974,12.3464,-0.381245,-0.0990336,0.228228,0
2024-12-13 15:42:27.548,-3.33739,6.43998,12.775,-0.433778,-0.0691021,0.282593,0
2024-12-13 15:42:27.550,-3.19621,6.23899,13.2515,-0.483867,-0.0355055,0.333904,0
2024-12-13 15:42:27.552,-3.08345,6.02842,13.7566,-0.532124,0.00297788,0.387048,0
2024-12-13 15:42:27.555,-3.01406,5.85584,14.2687,-0.576716,0.0475697,0.443246,0
2024-12-13 15:42:27.557,-3.0021,5.73859,14.7595,-0.620086,0.0970484,0.499444,0
2024-12-13 15:42:27.559,-2.9997,5.62612,15.2312,-0.656126,0.151414,0.558696,0
2024-12-13 15:42:27.562,-2.91595,5.48255,15.7508,-0.690334,0.203947,0.619781,0
2024-12-13 15:42:27.564,-2.80349,5.29562,16.2631,-0.719654,0.250371,0.680255,0
2024-12-13 15:42:27.566,-2.67189,5.07787,16.7444,-0.740423,0.292519,0.739507,0
2024-12-13 15:42:27.569,-2.51127,4.84577,17.2232,-0.755084,0.326116,0.795705,0
2024-12-13 15:42:27.571,-2.33898,4.58465,17.6539,-0.75997,0.352383,0.849459,0
2024-12-13 15:42:27.574,-2.15234,4.32144,18.0586,-0.755694,0.369486,0.898938,0
2024-12-13 15:42:27.576,-1.94387,4.05554,18.4657,-0.746532,0.378649,0.942919,0
2024-12-13 15:42:27.578,-1.73091,3.78036,18.8345,-0.72332,0.381092,0.983846,0
2024-12-13 15:42:27.581,-1.54188,3.52403,19.148,-0.692777,0.376816,1.01744,0
2024-12-13 15:42:27.583,-1.35015,3.28953,19.4426,-0.648185,0.365821,1.04737,0
2024-12-13 15:42:27.585,-1.18983,3.0667,19.7082,-0.59382,0.348107,1.07181,0
2024-12-13 15:42:27.588,-1.0678,2.84417,19.9382,-0.530292,0.323673,1.0938,0
2024-12-13 15:42:27.590,-0.952942,2.6336,20.1009,-0.455768,0.299239,1.10968,0
2024-12-13 15:42:27.592,-0.82343,2.45863,20.1918,-0.373304,0.265642,1.12006,0
2024-12-13 15:42:27.595,-0.665504,2.30548,20.1942,-0.281066,0.230213,1.12862,2
2024-12-13 15:42:27.597,-0.505185,2.16431,20.0937,-0.183941,0.191119,1.12984,0
2024-12-13 15:42:27.599,-0.368794,2.0686,19.931,-0.085595,0.152025,1.12251,0
2024-12-13 15:42:27.602,-0.236889,2.00877,19.7058,0.0188599,0.11293,1.11457,0
2024-12-13 15:42:27.604,-0.0765703,1.98485,19.4354,0.123926,0.0750579,1.0993,0
2024-12-13 15:42:27.607,0.0646062,2.00399,19.1049,0.229602,0.0390179,1.07975,0
2024-12-13 15:42:27.609,0.16989,2.05185,18.7098,0.337111,0.00664296,1.0547,0
2024-12-13 15:42:27.614,0.378365,2.21456,17.8098,0.546097,-0.0428357,0.990565,0
2024-12-13 15:42:27.614,0.378365,2.21456,17.8098,0.546097,-0.0428357,0.990565,0
2024-12-13 15:42:27.616,0.438186,2.32463,17.3285,0.645666,-0.0623828,0.950249,0
2024-12-13 15:42:27.618,0.498006,2.44427,16.8377,0.74279,-0.0794865,0.908712,0
2024-12-13 15:42:27.621,0.536291,2.56421,16.3205,0.833807,-0.0941468,0.863509,0
2024-12-13 15:42:27.623,0.548256,2.70299,15.7771,0.918103,-0.11064,0.818917,0
2024-12-13 15:42:27.625,0.533899,2.85374,15.2312,0.997514,-0.123468,0.772493,0
2024-12-13 15:42:27.628,0.52672,2.99013,14.6758,1.06532,-0.141793,0.730344,0
2024-12-13 15:42:27.630,0.505185,3.10289,14.1108,1.12579,-0.16134,0.687585,0
2024-12-13 15:42:27.632,0.454935,3.19861,13.5553,1.17588,-0.182109,0.646047,0
2024-12-13 15:42:27.635,0.404686,3.30628,12.9975,1.21314,-0.20471,0.609397,0
2024-12-13 15:42:27.637,0.366401,3.40678,12.4612,1.24124,-0.228533,0.573967,0
2024-12-13 15:42:27.642,0.330509,3.50249,11.4676,1.26506,-0.281066,0.517159,0
2024-12-13 15:42:27.642,0.330509,3.50249,11.4676,1.26506,-0.281066,0.517159,0
2024-12-13 15:42:27.644,0.366401,3.52164,11.0297,1.26506,-0.281066,0.517159,0
2024-12-13 15:42:27.647,0.421436,3.53599,10.6107,1.24552,-0.32688,0.468291,0
2024-12-13 15:42:27.649,0.447757,3.5671,10.1749,1.22169,-0.339707,0.446911,0
2024-12-13 15:42:27.651,0.464507,3.61017,9.79173,1.18504,-0.343373,0.428586,0
2024-12-13 15:42:27.654,0.488435,3.67268,9.45434,1.14228,-0.336653,0.411482,0
2024-12-13 15:42:27.656,0.488435,3.75165,9.1693,1.09097,-0.326269,0.400487,0
2024-12-13 15:42:27.658,0.481256,3.81865,8.93719,1.02867,-0.311608,0.391935,0
2024-12-13 15:42:27.661,0.493221,3.86172,8.70748,0.964528,-0.291451,0.385826,0
2024-12-13 15:42:27.663,0.514756,3.92393,8.51336,0.89367,-0.268849,0.383994,0
2024-12-13 15:42:27.665,0.538684,3.99571,8.37697,0.817924,-0.245637,0.382161,0
2024-12-13 15:42:27.668,0.54347,4.04836,8.27169,0.737293,-0.220592,0.38155,0
2024-12-13 15:42:27.670,0.545863,4.07707,8.18076,0.655439,-0.193715,0.385826,0
2024-12-13 15:42:27.672,0.567398,4.12253,8.12303,0.571142,-0.164394,0.389491,0
2024-12-13 15:42:27.675,0.586541,4.15843,8.07996,0.489289,-0.138739,0.394378,0
2024-12-13 15:42:27.677,0.610469,4.15364,8.05604,0.404992,-0.110029,0.401708,0
2024-12-13 15:42:27.680,0.65354,4.15843,8.08236,0.323673,-0.0831516,0.409039,0
2024-12-13 15:42:27.682,0.687039,4.14168,8.14248,0.244873,-0.0568851,0.41759,0
2024-12-13 15:42:27.684,0.718146,4.09143,8.22622,0.17035,-0.0324513,0.426753,0
2024-12-13 15:42:27.687,0.751645,4.04596,8.35544,0.103157,-0.00984991,0.432862,0
2024-12-13 15:42:27.689,0.794716,3.99332,8.51097,0.038407,0.0133623,0.441413,0
2024-12-13 15:42:27.691,0.84018,3.92154,8.68325,-0.0202343,0.0365745,0.449355,0
2024-12-13 15:42:27.694,0.857229,3.83779,8.85823,-0.0678804,0.0542891,0.454852,0
2024-12-13 15:42:27.696,0.878764,3.76361,9.03291,-0.110029,0.0695602,0.462793,0
2024-12-13 15:42:27.698,0.905085,3.7014,9.20758,-0.147291,0.0848314,0.469512,0
2024-12-13 15:42:27.701,0.919442,3.64876,9.37777,-0.172946,0.0982701,0.477454,0
2024-12-13 15:42:27.703,0.933799,3.61017,9.50459,-0.193104,0.11293,0.488449,0
2024-12-13 15:42:27.705,0.912264,3.59581,9.59552,-0.205321,0.123315,0.497001,0
2024-12-13 15:42:27.708,0.895514,3.58385,9.69362,-0.214484,0.132477,0.505552,0
2024-12-13 15:42:27.710,0.897907,3.57906,9.7678,-0.213262,0.142862,0.514715,0
2024-12-13 15:42:27.712,0.897907,3.57667,9.80369,-0.209597,0.153246,0.526321,0
2024-12-13 15:42:27.715,0.907478,3.58385,9.82074,-0.199213,0.163631,0.536706,0
2024-12-13 15:42:27.717,0.926621,3.58864,9.83271,-0.186385,0.172183,0.545868,0
2024-12-13 15:42:27.720,0.955334,3.59342,9.80848,-0.169892,0.178291,0.555642,0
2024-12-13 15:42:27.722,0.97687,3.59581,9.75584,-0.152788,0.186843,0.564194,0
2024-12-13 15:42:27.724,0.991227,3.58864,9.68405,-0.130187,0.195395,0.571524,0
2024-12-13 15:42:27.727,1.00798,3.57428,9.6027,-0.105142,0.204557,0.578854,0
2024-12-13 15:42:27.729,1.02233,3.57189,9.52852,-0.0825407,0.211888,0.58313,0
2024-12-13 15:42:27.731,1.02473,3.5671,9.44716,-0.0599394,0.217385,0.589849,0
2024-12-13 15:42:27.734,1.02233,3.54796,9.34188,-0.0330621,0.225326,0.592904,0
2024-12-13 15:42:27.736,1.01515,3.53121,9.23869,-0.00740652,0.232046,0.595958,0
2024-12-13 15:42:27.738,1.00798,3.53121,9.12383,0.0182491,0.236932,0.595958,0
2024-12-13 15:42:27.741,1.00798,3.54556,8.99223,0.0420721,0.244263,0.59779,0
2024-12-13 15:42:27.745,0.952942,3.55514,8.71705,0.0829989,0.253425,0.596569,0
2024-12-13 15:42:27.745,0.952942,3.55514,8.71705,0.0829989,0.253425,0.596569,0
2024-12-13 15:42:27.748,0.929013,3.58624,8.56361,0.102546,0.259534,0.596569,0
2024-12-13 15:42:27.750,0.912264,3.61735,8.40329,0.117817,0.26381,0.595347,0
2024-12-13 15:42:27.753,0.890728,3.64606,8.23819,0.131867,0.269307,0.592904,0
2024-12-13 15:42:27.760,0.828216,3.67029,7.76172,0.131867,0.269307,0.592904,0
2024-12-13 15:42:27.760,0.828216,3.67029,7.76172,0.131867,0.269307,0.592904,0
2024-12-13 15:42:27.762,0.804287,3.65115,7.60379,0.161798,0.301682,0.581298,0
2024-12-13 15:42:27.762,0.804287,3.65115,7.60379,0.161798,0.301682,0.581298,0
2024-12-13 15:42:27.764,0.777966,3.65354,7.45753,0.162409,0.312067,0.578243,0
2024-12-13 15:42:27.767,0.758824,3.63889,7.31875,0.160576,0.320618,0.572746,0
2024-12-13 15:42:27.769,0.739681,3.61735,7.17278,0.156301,0.329781,0.567859,0
2024-12-13 15:42:27.771,0.687039,3.59821,7.03639,0.149581,0.3365,0.567248,0
2024-12-13 15:42:27.774,0.643968,3.57189,6.91406,0.142251,0.34322,0.56175,0
2024-12-13 15:42:27.776,0.62004,3.54556,6.83271,0.133699,0.351772,0.556253,0
2024-12-13 15:42:27.779,0.60329,3.52642,6.7681,0.121482,0.357269,0.552588,0
2024-12-13 15:42:27.781,0.550648,3.48335,6.69153,0.11232,0.365821,0.548923,0
2024-12-13 15:42:27.783,0.474078,3.46182,6.62692,0.102546,0.376816,0.544036,0
2024-12-13 15:42:27.786,0.407079,3.46899,6.56471,0.0933833,0.389644,0.540982,0
2024-12-13 15:42:27.788,0.349651,3.45942,6.50967,0.0817772,0.401861,0.540371,0
2024-12-13 15:42:27.790,0.297009,3.44507,6.46421,0.0720036,0.414078,0.538538,0
2024-12-13 15:42:27.793,0.222533,3.44267,6.43041,0.0597867,0.427517,0.537317,0
2024-12-13 15:42:27.795,0.141177,3.44267,6.39452,0.050624,0.44401,0.537927,0
2024-12-13 15:42:27.797,0.0837488,3.44985,6.33948,0.0445155,0.457448,0.537927,0
2024-12-13 15:42:27.800,0.026321,3.45942,6.29163,0.0335202,0.469665,0.538538,0
2024-12-13 15:42:27.802,-0.0167498,3.44985,6.25813,0.0274118,0.485547,0.540982,0
2024-12-13 15:42:27.804,-0.0502493,3.45464,6.21506,0.0194708,0.498986,0.543425,0
2024-12-13 15:42:27.807,-0.0933201,3.45942,6.16481,0.0139731,0.514868,0.543425,0
2024-12-13 15:42:27.809,-0.105284,3.45464,6.11934,0.0096972,0.528307,0.545258,0
2024-12-13 15:42:27.811,-0.129212,3.46421,6.0691,0.00542127,0.542356,0.548923,0
2024-12-13 15:42:27.814,-0.160319,3.4666,6.01406,0.00297788,0.556405,0.550144,0
2024-12-13 15:42:27.816,-0.16989,3.46899,5.98295,-7.63559e-05,0.568622,0.549533,0
2024-12-13 15:42:27.821,-0.224925,3.50249,5.87737,-0.00313059,0.58878,0.551977,0
2024-12-13 15:42:27.821,-0.224925,3.50249,5.87737,-0.00313059,0.58878,0.551977,0
2024-12-13 15:42:27.823,-0.248854,3.52403,5.81994,-0.00129805,0.597332,0.551977,0
2024-12-13 15:42:27.826,-0.294616,3.54078,5.75055,0.00175619,0.604662,0.552588,0
2024-12-13 15:42:27.828,-0.344866,3.55035,5.69552,0.00236703,0.608938,0.553199,0
2024-12-13 15:42:27.830,-0.378365,3.56471,5.63809,0.00664296,0.613214,0.55442,0
2024-12-13 15:42:27.833,-0.392722,3.58146,5.58066,0.00847551,0.616879,0.55442,0
2024-12-13 15:42:27.835,-0.426222,3.59103,5.54238,0.0127514,0.618101,0.556253,0
2024-12-13 15:42:27.837,-0.490828,3.60299,5.49213,0.0164165,0.61749,0.558696,0
2024-12-13 15:42:27.840,-0.536291,3.62214,5.42752,0.0164165,0.615047,0.557474,0
2024-12-13 15:42:27.842,-0.569791,3.64876,5.34616,0.0200816,0.61016,0.559307,0
2024-12-13 15:42:27.844,-0.598505,3.67029,5.27647,0.0231358,0.604662,0.560529,0
2024-12-13 15:42:27.847,-0.627219,3.68704,5.21426,0.0231358,0.593667,0.56114,0
2024-12-13 15:42:27.849,-0.634397,3.71097,5.12333,0.0206925,0.582061,0.56114,0
2024-12-13 15:42:27.851,-0.62004,3.67268,4.94626,0.0188599,0.557016,0.56175,0
2024-12-13 15:42:27.854,-0.744467,3.64367,4.79552,0.010308,0.514257,0.567248,0
2024-12-13 15:42:27.856,-0.986441,3.66551,4.79073,0.000534491,0.48738,0.572746,0
2024-12-13 15:42:27.859,-1.1659,3.69661,4.81705,-0.00740652,0.467222,0.580687,0
2024-12-13 15:42:27.861,-1.21615,3.74686,4.81944,-0.0165692,0.451951,0.591071,0
2024-12-13 15:42:27.863,-1.18744,3.81386,4.82184,-0.0257319,0.435458,0.600845,0
2024-12-13 15:42:27.866,-1.14437,3.85932,4.81705,-0.0355055,0.422019,0.608786,0
2024-12-13 15:42:27.868,-1.09173,3.86172,4.81227,-0.0477224,0.406137,0.614894,0
2024-12-13 15:42:27.870,-1.06062,3.85215,4.82662,-0.0568851,0.393309,0.615505,0
2024-12-13 15:42:27.873,-1.07258,3.84497,4.87209,-0.0697129,0.38659,0.620392,0
2024-12-13 15:42:27.875,-1.1348,3.82582,4.94148,-0.0794865,0.380481,0.623446,0
2024-12-13 15:42:27.877,-1.19701,3.79711,5.0348,-0.0904818,0.379871,0.627722,0
2024-12-13 15:42:27.880,-1.24008,3.77079,5.1353,-0.102088,0.377427,0.630776,0
2024-12-13 15:42:27.882,-1.24247,3.7349,5.22144,-0.112472,0.381092,0.63322,0
2024-12-13 15:42:27.884,-1.22333,3.70858,5.29322,-0.121635,0.382925,0.638717,0
2024-12-13 15:42:27.887,-1.2018,3.68704,5.35095,-0.130187,0.384757,0.642382,0
2024-12-13 15:42:27.889,-1.18983,3.63889,5.38924,-0.140571,0.38659,0.644826,0
2024-12-13 15:42:27.891,-1.20419,3.59103,5.4347,-0.151566,0.39392,0.64788,0
2024-12-13 15:42:27.894,-1.21137,3.54556,5.49691,-0.162562,0.400639,0.653377,0
2024-12-13 15:42:27.896,-1.19462,3.50967,5.53998,-0.172946,0.40797,0.655821,0
2024-12-13 15:42:27.899,-1.19462,3.48335,5.6022,-0.183331,0.411024,0.660708,0
2024-12-13 15:42:27.901,-1.20658,3.4331,5.7003,-0.191272,0.418354,0.665594,0
2024-12-13 15:42:27.903,-1.22572,3.38046,5.81276,-0.197991,0.424462,0.671703,0
2024-12-13 15:42:27.906,-1.24008,3.34457,5.92553,-0.202267,0.431182,0.679033,0
2024-12-13 15:42:27.908,-1.24247,3.30628,6.0332,-0.208375,0.438512,0.687585,0
2024-12-13 15:42:27.910,-1.22812,3.25125,6.13131,-0.21143,0.446453,0.696137,0
2024-12-13 15:42:27.913,-1.2018,3.19143,6.24377,-0.212651,0.455005,0.705299,0
2024-12-13 15:42:27.915,-1.1683,3.16271,6.36102,-0.210819,0.463557,0.716295,0
2024-12-13 15:42:27.917,-1.12044,3.13161,6.4666,-0.207764,0.472719,0.725457,0
2024-12-13 15:42:27.920,-1.07976,3.09571,6.56949,-0.201045,0.483715,0.73462,0
2024-12-13 15:42:27.922,-1.04626,3.07867,6.69631,-0.190661,0.493488,0.743172,0
2024-12-13 15:42:27.924,-1.00319,3.06431,6.81596,-0.18272,0.507538,0.753556,0
2024-12-13 15:42:27.927,-0.96012,3.05474,6.91645,-0.18272,0.507538,0.753556,0
2024-12-13 15:42:27.929,-0.933799,3.06431,7.00499,-0.156453,0.531972,0.768217,0
2024-12-13 15:42:27.932,-0.919442,3.07388,7.07229,-0.142404,0.544189,0.774936,0
2024-12-13 15:42:27.934,-0.893121,3.07627,7.12732,-0.128354,0.555184,0.778601,0
2024-12-13 15:42:27.936,-0.821037,3.04277,7.06272,-0.111861,0.55274,0.782877,0
2024-12-13 15:42:27.939,-0.888335,3.01884,6.97149,-0.0990336,0.533193,0.785931,0
2024-12-13 15:42:27.941,-1.11565,3.06431,7.00738,-0.0874275,0.524031,0.794483,0
2024-12-13 15:42:27.943,-1.27597,3.10529,7.08904,-0.0758214,0.525252,0.801203,0
2024-12-13 15:42:27.946,-1.31665,3.16511,7.16561,-0.0605502,0.525252,0.807922,0
2024-12-13 15:42:27.948,-1.2664,3.25125,7.22064,-0.0483333,0.522809,0.812809,0
2024-12-13 15:42:27.950,-1.1659,3.31346,7.25175,-0.037338,0.51609,0.815252,0
2024-12-13 15:42:27.953,-1.05823,3.35414,7.28286,-0.0251211,0.503873,0.812809,0
2024-12-13 15:42:27.955,-0.991227,3.39482,7.32593,-0.013515,0.48738,0.807311,0
2024-12-13 15:42:27.957,-0.974477,3.44985,7.369,-0.00435229,0.466,0.798759,0
2024-12-13 15:42:27.960,-0.998405,3.48814,7.37857,0.00481042,0.442177,0.787764,0
2024-12-13 15:42:27.962,-1.05344,3.51685,7.38096,0.00603212,0.417132,0.780434,0
2024-12-13 15:42:27.965,-1.11087,3.55274,7.38096,0.00908635,0.387812,0.771271,0
2024-12-13 15:42:27.967,-1.14437,3.59342,7.38575,0.0109189,0.358491,0.765773,0
2024-12-13 15:42:27.969,-1.16112,3.63171,7.39292,0.0096972,0.327338,0.757222,0
2024-12-13 15:42:27.972,-1.15394,3.65833,7.40967,0.00786466,0.292519,0.754778,0
2024-12-13 15:42:27.974,-1.1348,3.67747,7.44796,0.00175619,0.25709,0.751113,0
2024-12-13 15:42:27.976,-1.13001,3.68226,7.47428,-0.00313059,0.224715,0.746837,0
2024-12-13 15:42:27.979,-1.10369,3.67029,7.52932,-0.0110716,0.190508,0.745615,0
2024-12-13 15:42:27.981,-1.04626,3.66072,7.6014,-0.021456,0.159966,0.743172,0
2024-12-13 15:42:27.983,-0.974477,3.6679,7.68276,-0.033673,0.129423,0.738896,0
2024-12-13 15:42:27.986,-0.885943,3.67986,7.78086,-0.0452791,0.0976592,0.732788,0
2024-12-13 15:42:27.988,-0.813859,3.69422,7.87897,-0.0605502,0.0677277,0.729123,0
2024-12-13 15:42:27.990,-0.76361,3.72054,7.97468,-0.0752106,0.0371853,0.723625,0
2024-12-13 15:42:27.993,-0.71336,3.74925,8.07039,-0.0886492,0.00847551,0.718127,0
2024-12-13 15:42:27.995,-0.665504,3.76361,8.17358,-0.105753,-0.0177909,0.711408,0
2024-12-13 15:42:27.997,-0.641576,3.76122,8.29801,-0.122246,-0.0410031,0.706521,0
2024-12-13 15:42:28.000,-0.63679,3.74208,8.43919,-0.136906,-0.0605502,0.703467,0
2024-12-13 15:42:28.002,-0.63679,3.7014,8.56122,-0.152788,-0.0782648,0.701024,0
2024-12-13 15:42:28.006,-0.646361,3.68465,8.68325,-0.181498,-0.107585,0.703467,0
2024-12-13 15:42:28.007,-0.665504,3.65833,8.83669,-0.181498,-0.107585,0.703467,0
2024-12-13 15:42:28.009,-0.667897,3.60299,8.98505,-0.197991,-0.11797,0.707132,0
2024-12-13 15:42:28.012,-0.667897,3.54796,9.12383,-0.208986,-0.126522,0.710797,0
2024-12-13 15:42:28.014,-0.677468,3.50249,9.26531,-0.21876,-0.135074,0.718127,0
2024-12-13 15:42:28.016,-0.667897,3.45224,9.43041,-0.229144,-0.141793,0.726679,0
2024-12-13 15:42:28.019,-0.65354,3.40678,9.61227,-0.235253,-0.145458,0.735231,0
2024-12-13 15:42:28.021,-0.65354,3.3685,9.79652,-0.238918,-0.149734,0.745005,0
2024-12-13 15:42:28.023,-0.65354,3.33739,9.97149,-0.239528,-0.152788,0.758443,0
2024-12-13 15:42:28.026,-0.655932,3.3015,10.1438,-0.237696,-0.15401,0.773714,0
2024-12-13 15:42:28.028,-0.634397,3.28235,10.3304,-0.230977,-0.153399,0.790207,0
2024-12-13 15:42:28.030,-0.62004,3.28235,10.491,-0.221814,-0.153399,0.804868,0
2024-12-13 15:42:28.033,-0.62004,3.26082,10.6226,-0.207764,-0.147291,0.823193,0
2024-12-13 15:42:28.035,-0.60329,3.23689,10.7471,-0.189439,-0.141793,0.843351,0
2024-12-13 15:42:28.038,-0.572184,3.21775,10.8523,-0.167449,-0.130798,0.86412,0
2024-12-13 15:42:28.040,-0.529113,3.24885,11.0154,-0.144236,-0.11797,0.889165,0
2024-12-13 15:42:28.042,-0.500399,3.29193,11.1972,-0.111861,-0.108807,0.917874,0
2024-12-13 15:42:28.045,-0.471685,3.2656,11.2881,-0.0764323,-0.0953685,0.946584,0
2024-12-13 15:42:28.047,-0.411865,3.21536,11.3671,-0.0385597,-0.0752106,0.975294,0
2024-12-13 15:42:28.049,-0.308973,3.15075,11.458,0.00358873,-0.0526092,1.00706,0
2024-12-13 15:42:28.052,-0.189033,3.07149,11.5397,0.0469589,-0.0312296,1.03455,0
2024-12-13 15:42:28.054,-0.0693919,3.01884,11.5947,0.0958267,-0.00618483,1.06081,0
2024-12-13 15:42:28.056,0.0622134,3.0021,11.6258,0.14836,0.0213033,1.08586,0
2024-12-13 15:42:28.059,0.212961,3.01645,11.6378,0.199671,0.0500131,1.10724,0
2024-12-13 15:42:28.061,0.354437,3.05713,11.6115,0.255869,0.0817772,1.12556,0
2024-12-13 15:42:28.063,0.514756,3.13161,11.5636,0.311456,0.116595,1.14206,0
2024-12-13 15:42:28.066,0.696611,3.25364,11.4676,0.369563,0.152025,1.15733,0
2024-12-13 15:42:28.068,0.873978,3.41396,11.3192,0.424539,0.192951,1.16649,0
2024-12-13 15:42:28.070,1.0319,3.61017,11.1206,0.478293,0.235711,1.17138,0
2024-12-13 15:42:28.074,1.14915,3.81386,10.8787,0.582137,0.327949,1.17199,0
2024-12-13 15:42:28.075,1.22094,4.07229,10.6155,0.582137,0.327949,1.17199,0
2024-12-13 15:42:28.078,1.24487,4.38126,10.3089,0.626729,0.374984,1.16893,0
2024-12-13 15:42:28.080,1.24247,4.68515,9.99063,0.667656,0.419576,1.15916,0
2024-12-13 15:42:28.082,1.22812,4.99412,9.66252,0.701253,0.456227,1.14877,0
2024-12-13 15:42:28.085,1.20419,5.29322,9.33231,0.701253,0.456227,1.14877,0
2024-12-13 15:42:28.087,1.19701,5.54477,9.04248,0.743401,0.508759,1.11029,0
2024-12-13 15:42:28.089,1.22333,5.74098,8.82473,0.751953,0.5167,1.08341,0
2024-12-13 15:42:28.092,1.1994,5.92074,8.65454,0.751953,0.512424,1.05043,0
2024-12-13 15:42:28.094,1.10369,6.12652,8.48465,0.747066,0.497764,1.015,0
2024-12-13 15:42:28.096,0.96012,6.3347,8.35783,0.728741,0.473941,0.980792,0
2024-12-13 15:42:28.099,0.751645,6.49771,8.28605,0.704918,0.447064,0.942308,0
2024-12-13 15:42:28.101,0.498006,6.64128,8.24537,0.671932,0.417132,0.90749,0
2024-12-13 15:42:28.103,0.227318,6.77528,8.25494,0.631005,0.384757,0.875115,0
2024-12-13 15:42:28.106,-0.0502493,6.85185,8.34826,0.58397,0.352993,0.845184,0
2024-12-13 15:42:28.108,-0.335294,6.88774,8.49661,0.525329,0.325505,0.819528,0
2024-12-13 15:42:28.111,-0.648754,6.91645,8.66172,0.458135,0.298628,0.794483,0
2024-12-13 15:42:28.113,-0.991227,6.93081,8.82952,0.386055,0.280303,0.779212,0
2024-12-13 15:42:28.118,-1.61127,6.89492,9.25065,0.211888,0.260145,0.759054,0
2024-12-13 15:42:28.118,-1.61127,6.89492,9.25065,0.211888,0.260145,0.759054,0
2024-12-13 15:42:28.120,-1.89362,6.86142,9.52852,0.115374,0.254036,0.759054,0
2024-12-13 15:42:28.122,-2.13081,6.78246,9.83749,0.0139731,0.248538,0.762108,0
2024-12-13 15:42:28.125,-2.34616,6.68196,10.151,-0.0972011,0.245484,0.768217,0
2024-12-13 15:42:28.127,-2.51127,6.55274,10.4862,-0.209597,0.247928,0.779212,0
2024-12-13 15:42:28.129,-2.62642,6.38734,10.8858,-0.32688,0.25709,0.793872,0
2024-12-13 15:42:28.132,-2.73171,6.19831,11.3336,-0.43561,0.271751,0.812809,0
2024-12-13 15:42:28.134,-2.81067,5.95903,11.822,-0.548006,0.296185,0.832967,0
2024-12-13 15:42:28.136,-2.85374,5.7003,12.3392,-0.656126,0.328559,0.858011,0
2024-12-13 15:42:28.139,-2.9016,5.42991,12.8994,-0.758138,0.369486,0.885499,0
2024-12-13 15:42:28.141,-2.93749,5.13769,13.4883,-0.850987,0.412856,0.915431,0
2024-12-13 15:42:28.144,-2.93749,4.87209,14.0988,-0.932229,0.459892,0.947195,0
2024-12-13 15:42:28.146,-2.93031,4.6349,14.7021,-1.00064,0.510592,0.978959,0
2024-12-13 15:42:28.148,-2.94467,4.42672,15.2432,-1.0544,0.564346,1.01561,0
2024-12-13 15:42:28.151,-2.97577,4.25922,15.734,-1.0941,0.621155,1.05287,0
2024-12-13 15:42:28.153,-2.96142,4.08425,16.2153,-1.12159,0.681018,1.09197,0
