timestamp,accel_x,accel_y,accel_z,gyro_x,gyro_y,gyro_z,step_timestamp
2024-12-13 15:33:38.171,0.00957129,3.42353,9.40409,-0.029397,-0.0434465,-0.000305424,0
2024-12-13 15:33:38.171,0.00957129,3.42353,9.40409,-0.029397,-0.0434465,-0.000305424,0
2024-12-13 15:33:38.171,0.00957129,3.42353,9.40409,-0.029397,-0.0434465,-0.000305424,0
2024-12-13 15:33:38.171,0.00957129,3.42353,9.40409,-0.029397,-0.0434465,-0.000305424,0
2024-12-13 15:33:38.171,0.00957129,3.42353,9.40409,-0.029397,-0.0434465,-0.000305424,0
2024-12-13 15:33:38.171,0.00957129,3.42353,9.40409,-0.029397,-0.0434465,-0.000305424,0
2024-12-13 15:33:38.171,0.00957129,3.42353,9.40409,-0.029397,-0.0434465,-0.000305424,0
2024-12-13 15:33:38.171,0.00957129,3.42353,9.40409,-0.029397,-0.0434465,-0.000305424,0
2024-12-13 15:33:38.171,0.00957129,3.42353,9.40409,-0.029397,-0.0434465,-0.000305424,0
2024-12-13 15:33:38.171,0.00957129,3.42353,9.40409,-0.029397,-0.0434465,-0.000305424,0
2024-12-13 15:33:38.171,0.00957129,3.42353,9.40409,-0.029397,-0.0434465,-0.000305424,0
2024-12-13 15:33:38.171,0.00957129,3.42353,9.40409,-0.029397,-0.0434465,-0.000305424,0
2024-12-13 15:33:38.171,0.00957129,3.42353,9.40409,-0.029397,-0.0434465,-0.000305424,0
2024-12-13 15:33:38.171,0.00957129,3.42353,9.40409,-0.029397,-0.0434465,-0.000305424,0
2024-12-13 15:33:38.171,0.00957129,3.42353,9.40409,-0.029397,-0.0434465,-0.000305424,0
2024-12-13 15:33:38.174,0.026321,3.42592,9.40888,-0.0348946,-0.0489441,-0.00335966,0
2024-12-13 15:33:38.176,0.0311067,3.42353,9.42323,-0.0348946,-0.0489441,-0.00335966,0
2024-12-13 15:33:38.179,0.040678,3.42592,9.44956,-0.0348946,-0.0489441,-0.00335966,0
2024-12-13 15:33:38.183,0.0765703,3.38525,9.46391,-0.0446682,-0.0617719,-0.0131332,0
2024-12-13 15:33:38.186,0.0837488,3.3685,9.47588,-0.0446682,-0.0617719,-0.0131332,0
2024-12-13 15:33:38.188,0.100499,3.37089,9.49023,-0.049555,-0.0666587,-0.0174091,0
2024-12-13 15:33:38.193,0.107677,3.36132,9.53809,-0.0501658,-0.0660479,-0.0204634,0
2024-12-13 15:33:38.214,0.138784,3.35175,9.67209,-0.0159584,-0.0312296,-0.033902,0
2024-12-13 15:33:38.214,0.138784,3.35175,9.67209,-0.0159584,-0.0312296,-0.033902,0
2024-12-13 15:33:38.214,0.138784,3.35175,9.67209,-0.0159584,-0.0312296,-0.033902,0
2024-12-13 15:33:38.214,0.138784,3.35175,9.67209,-0.0159584,-0.0312296,-0.033902,0
2024-12-13 15:33:38.214,0.138784,3.35175,9.67209,-0.0159584,-0.0312296,-0.033902,0
2024-12-13 15:33:38.214,0.138784,3.35175,9.67209,-0.0159584,-0.0312296,-0.033902,0
2024-12-13 15:33:38.214,0.138784,3.35175,9.67209,-0.0159584,-0.0312296,-0.033902,0
2024-12-13 15:33:38.214,0.138784,3.35175,9.67209,-0.0159584,-0.0312296,-0.033902,0
2024-12-13 15:33:38.214,0.138784,3.35175,9.67209,-0.0159584,-0.0312296,-0.033902,0
2024-12-13 15:33:38.219,0.138784,3.33021,9.65534,-0.00740652,-0.0184018,-0.0357346,0
2024-12-13 15:33:38.221,0.131605,3.34696,9.65295,-0.00313059,-0.0147367,-0.0363454,0
2024-12-13 15:33:38.221,0.131605,3.34696,9.65295,-0.00313059,-0.0147367,-0.0363454,0
2024-12-13 15:33:38.223,0.117248,3.35175,9.63141,0.00114534,-0.00984991,-0.038178,0
2024-12-13 15:33:38.228,0.0981057,3.33978,9.6003,0.00114534,-0.00618483,-0.0387888,0
2024-12-13 15:33:38.230,0.0861416,3.34935,9.59073,0.0109189,0.00297788,-0.0369563,0
2024-12-13 15:33:38.235,0.0454636,3.34935,9.5692,0.0176382,0.010308,-0.0345129,0
2024-12-13 15:33:38.235,0.0454636,3.34935,9.5692,0.0176382,0.010308,-0.0345129,0
2024-12-13 15:33:38.237,0.0358923,3.35892,9.53809,0.0188599,0.00908635,-0.0320695,0
2024-12-13 15:33:38.237,0.0358923,3.35892,9.53809,0.0188599,0.00908635,-0.0320695,0
2024-12-13 15:33:38.237,0.0358923,3.35892,9.53809,0.0188599,0.00908635,-0.0320695,0
2024-12-13 15:33:38.240,0.0311067,3.3685,9.51895,0.0164165,0.0096972,-0.0314586,0
2024-12-13 15:33:38.240,0.0311067,3.3685,9.51895,0.0164165,0.0096972,-0.0314586,0
2024-12-13 15:33:38.240,0.0311067,3.3685,9.51895,0.0164165,0.0096972,-0.0314586,0
2024-12-13 15:33:38.240,0.0311067,3.3685,9.51895,0.0164165,0.0096972,-0.0314586,0
2024-12-13 15:33:38.240,0.0311067,3.3685,9.51895,0.0164165,0.0096972,-0.0314586,0
2024-12-13 15:33:38.240,0.0311067,3.3685,9.51895,0.0164165,0.0096972,-0.0314586,0
2024-12-13 15:33:38.240,0.0311067,3.3685,9.51895,0.0164165,0.0096972,-0.0314586,0
2024-12-13 15:33:38.240,0.0311067,3.3685,9.51895,0.0164165,0.0096972,-0.0314586,0
2024-12-13 15:33:38.240,0.0311067,3.3685,9.51895,0.0164165,0.0096972,-0.0314586,0
2024-12-13 15:33:38.240,0.0311067,3.3685,9.51895,0.0164165,0.0096972,-0.0314586,0
2024-12-13 15:33:38.240,0.0311067,3.3685,9.51895,0.0164165,0.0096972,-0.0314586,0
2024-12-13 15:33:38.240,0.0311067,3.3685,9.51895,0.0164165,0.0096972,-0.0314586,0
2024-12-13 15:33:38.240,0.0311067,3.3685,9.51895,0.0164165,0.0096972,-0.0314586,0
2024-12-13 15:33:38.240,0.0311067,3.3685,9.51895,0.0164165,0.0096972,-0.0314586,0
2024-12-13 15:33:38.242,0.026321,3.37328,9.51416,0.0188599,0.00786466,-0.0302369,0
2024-12-13 15:33:38.247,0.0143569,3.402,9.48306,0.0194708,0.00358873,-0.0271827,0
2024-12-13 15:33:38.247,0.0143569,3.402,9.48306,0.0194708,0.00358873,-0.0271827,0
2024-12-13 15:33:38.249,0.00478565,3.40917,9.46152,0.0200816,0.00297788,-0.0271827,0
2024-12-13 15:33:38.249,0.00478565,3.40917,9.46152,0.0200816,0.00297788,-0.0271827,0
2024-12-13 15:33:38.249,0.00478565,3.40917,9.46152,0.0200816,0.00297788,-0.0271827,0
2024-12-13 15:33:38.249,0.00478565,3.40917,9.46152,0.0200816,0.00297788,-0.0271827,0
2024-12-13 15:33:38.249,0.00478565,3.40917,9.46152,0.0200816,0.00297788,-0.0271827,0
2024-12-13 15:33:38.249,0.00478565,3.40917,9.46152,0.0200816,0.00297788,-0.0271827,0
2024-12-13 15:33:38.252,-0.0167498,3.41157,9.44238,0.022525,-0.00129805,-0.0247393,0
2024-12-13 15:33:38.253,-0.0167498,3.41157,9.44238,0.0182491,-0.00679568,-0.0229068,0
2024-12-13 15:33:38.254,-0.0167498,3.40917,9.43281,0.0182491,-0.00679568,-0.0229068,0
2024-12-13 15:33:38.254,-0.0167498,3.40917,9.43281,0.0182491,-0.00679568,-0.0229068,0
2024-12-13 15:33:38.254,-0.0167498,3.40917,9.43281,0.0182491,-0.00679568,-0.0229068,0
2024-12-13 15:33:38.254,-0.0167498,3.40917,9.43281,0.0182491,-0.00679568,-0.0229068,0
2024-12-13 15:33:38.254,-0.0167498,3.40917,9.43281,0.0182491,-0.00679568,-0.0229068,0
2024-12-13 15:33:38.256,-0.0119641,3.402,9.42802,0.0170274,-0.00862822,-0.0216851,0
2024-12-13 15:33:38.256,-0.0119641,3.402,9.42802,0.0170274,-0.00862822,-0.0216851,0
2024-12-13 15:33:38.259,-0.0287139,3.41157,9.42563,0.0151948,-0.0104608,-0.0204634,0
2024-12-13 15:33:38.261,-0.0215354,3.42353,9.43041,0.0139731,-0.0129041,-0.0204634,0
2024-12-13 15:33:38.263,-0.0167498,3.42353,9.42084,0.0139731,-0.0141258,-0.01802,0
2024-12-13 15:33:38.266,-0.0287139,3.42832,9.41127,0.0109189,-0.0165692,-0.0155766,0
2024-12-13 15:33:38.268,-0.0311067,3.4331,9.41366,0.00908635,-0.0171801,-0.0131332,0
2024-12-13 15:33:38.270,-0.0287139,3.42592,9.41127,0.00419957,-0.0226777,-0.0131332,0
2024-12-13 15:33:38.273,-0.0191426,3.42114,9.40648,0.00236703,-0.0245102,-0.0131332,0
2024-12-13 15:33:38.275,-0.026321,3.42353,9.41606,-0.00129805,-0.0238994,-0.0113007,0
2024-12-13 15:33:38.277,-0.0191426,3.40678,9.43041,-0.00557398,-0.0263428,-0.00946813,0
2024-12-13 15:33:38.280,-0.00717847,3.38525,9.4352,-0.00923906,-0.0281753,-0.00824644,0
2024-12-13 15:33:38.282,-0.00717847,3.39482,9.45434,-0.0104608,-0.0300079,-0.00946813,0
2024-12-13 15:33:38.287,0.0287139,3.39721,9.49741,-0.0165692,-0.0312296,-0.00885729,0
2024-12-13 15:33:38.287,0.0287139,3.39721,9.49741,-0.0165692,-0.0312296,-0.00885729,0
2024-12-13 15:33:38.289,0.0287139,3.39242,9.52852,-0.0190126,-0.0324513,-0.00946813,0
2024-12-13 15:33:38.292,0.0334995,3.38764,9.5668,-0.0177909,-0.0306187,-0.00702474,0
2024-12-13 15:33:38.294,0.040678,3.39721,9.58116,-0.0226777,-0.0251211,-0.00824644,0
2024-12-13 15:33:38.296,0.0382852,3.39242,9.60748,-0.0220669,-0.0238994,-0.010079,0
2024-12-13 15:33:38.299,0.0358923,3.37328,9.63141,-0.0202343,-0.0196235,-0.0119115,0
2024-12-13 15:33:38.301,0.0454636,3.37807,9.64337,-0.0202343,-0.0159584,-0.0113007,0
2024-12-13 15:33:38.303,0.0454636,3.37807,9.66012,-0.0165692,-0.0110716,-0.0119115,0
2024-12-13 15:33:38.306,0.0502493,3.3685,9.67927,-0.0153475,-0.00862822,-0.0137441,0
2024-12-13 15:33:38.308,0.0574277,3.3685,9.68884,-0.0116825,-0.00435229,-0.0161875,0
2024-12-13 15:33:38.310,0.066999,3.36371,9.69602,-0.00801737,0.000534491,-0.0174091,0
2024-12-13 15:33:38.313,0.0765703,3.35175,9.69123,-0.00679568,0.00236703,-0.0204634,0
2024-12-13 15:33:38.315,0.0765703,3.34935,9.68166,-0.00435229,0.00603212,-0.0241285,0
2024-12-13 15:33:38.317,0.0717847,3.35892,9.68884,0.000534491,0.00847551,-0.0265719,0
2024-12-13 15:33:38.320,0.0550349,3.37567,9.68405,0.00542127,0.010308,-0.0277936,0
2024-12-13 15:33:38.322,0.0334995,3.37567,9.67448,0.00725381,0.00786466,-0.0296261,0
2024-12-13 15:33:38.325,0.0287139,3.37807,9.68166,0.0127514,0.0133623,-0.0308478,0
2024-12-13 15:33:38.327,0.0311067,3.39242,9.6697,0.0158057,0.0139731,-0.0308478,0
2024-12-13 15:33:38.329,0.00957129,3.39482,9.63859,0.0194708,0.0121406,-0.0332912,0
2024-12-13 15:33:38.332,0.00239282,3.39242,9.61705,0.0255792,0.0115297,-0.0332912,0
2024-12-13 15:33:38.334,-0.00239282,3.39482,9.6003,0.0274118,0.010308,-0.0357346,0
2024-12-13 15:33:38.336,-0.0239282,3.402,9.57398,0.0268009,0.00603212,-0.0351237,0
2024-12-13 15:33:38.339,-0.0239282,3.39721,9.5357,0.0280226,0.00603212,-0.0369563,0
2024-12-13 15:33:38.341,-0.0191426,3.38764,9.49741,0.0335202,0.00419957,-0.038178,0
2024-12-13 15:33:38.343,-0.0334995,3.402,9.45913,0.0329094,-0.00129805,-0.0387888,0
2024-12-13 15:33:38.348,-0.0526421,3.42592,9.39213,0.0329094,-0.00923906,-0.0369563,0
2024-12-13 15:33:38.348,-0.0526421,3.42592,9.39213,0.0329094,-0.00923906,-0.0369563,0
2024-12-13 15:33:38.353,-0.081356,3.42832,9.3347,0.0286335,-0.0184018,-0.038178,0
2024-12-13 15:33:38.353,-0.0837488,3.45942,9.3347,0.0286335,-0.0184018,-0.038178,0
2024-12-13 15:33:38.355,-0.0765703,3.47617,9.30359,0.0280226,-0.0184018,-0.0375671,0
2024-12-13 15:33:38.358,-0.0909273,3.47857,9.27488,0.0261901,-0.0220669,-0.0363454,0
2024-12-13 15:33:38.362,-0.0981057,3.47139,9.24108,0.0255792,-0.0238994,-0.0369563,0
2024-12-13 15:33:38.362,-0.0981057,3.47139,9.24108,0.0255792,-0.0238994,-0.0369563,0
2024-12-13 15:33:38.365,-0.0981057,3.47617,9.21715,0.0200816,-0.0251211,-0.0345129,0
2024-12-13 15:33:38.367,-0.0957129,3.48096,9.19322,0.0170274,-0.0275645,-0.0351237,0
2024-12-13 15:33:38.369,-0.0957129,3.47617,9.18605,0.0133623,-0.0251211,-0.0345129,0
2024-12-13 15:33:38.372,-0.100499,3.47617,9.18844,0.010308,-0.0263428,-0.0345129,0
2024-12-13 15:33:38.374,-0.112463,3.46899,9.18365,0.00725381,-0.0263428,-0.0320695,0
2024-12-13 15:33:38.379,-0.12682,3.4355,9.17887,-0.00129805,-0.0245102,-0.0290152,0
2024-12-13 15:33:38.379,-0.133998,3.4355,9.17887,-0.00129805,-0.0245102,-0.0290152,0
2024-12-13 15:33:38.381,-0.124427,3.44507,9.18365,-0.00679568,-0.0238994,-0.0271827,0
2024-12-13 15:33:38.384,-0.11007,3.45942,9.19562,-0.00679568,-0.021456,-0.025961,0
2024-12-13 15:33:38.386,-0.105284,3.46899,9.20519,-0.0122933,-0.0202343,-0.0235176,0
2024-12-13 15:33:38.388,-0.0981057,3.47139,9.21237,-0.0171801,-0.0190126,-0.0198525,0
2024-12-13 15:33:38.390,-0.0909273,3.45464,9.2363,-0.0202343,-0.0177909,-0.0210742,0
2024-12-13 15:33:38.393,-0.0837488,3.45464,9.26292,-0.0232886,-0.0177909,-0.0198525,0
2024-12-13 15:33:38.395,-0.0789631,3.45224,9.27488,-0.0275645,-0.0147367,-0.0192417,0
2024-12-13 15:33:38.398,-0.0789631,3.45224,9.29881,-0.0281753,-0.0165692,-0.0167983,0
2024-12-13 15:33:38.400,-0.0598206,3.45224,9.33231,-0.0300079,-0.0129041,-0.0161875,0
2024-12-13 15:33:38.402,-0.0574277,3.44028,9.35384,-0.0330621,-0.0129041,-0.0155766,0
2024-12-13 15:33:38.405,-0.0598206,3.43789,9.37299,-0.029397,-0.00923906,-0.0143549,0
2024-12-13 15:33:38.407,-0.0550349,3.44028,9.38974,-0.033673,-0.0116825,-0.0149658,0
2024-12-13 15:33:38.409,-0.0430708,3.44267,9.41366,-0.033673,-0.00984991,-0.0143549,0
2024-12-13 15:33:38.412,-0.0287139,3.42353,9.44477,-0.0312296,-0.00862822,-0.0137441,0
2024-12-13 15:33:38.414,-0.0239282,3.40678,9.44956,-0.0318404,-0.0104608,-0.0149658,0
2024-12-13 15:33:38.416,-0.0191426,3.40439,9.45913,-0.0318404,-0.00923906,-0.0149658,0
2024-12-13 15:33:38.419,-0.0215354,3.38525,9.49023,-0.0312296,-0.00984991,-0.0161875,0
2024-12-13 15:33:38.421,0.00239282,3.38046,9.51655,-0.0306187,-0.0110716,-0.0155766,0
2024-12-13 15:33:38.423,0.0191426,3.38525,9.53091,-0.0275645,-0.013515,-0.0155766,0
2024-12-13 15:33:38.426,0.00957129,3.37567,9.54048,-0.0275645,-0.0153475,-0.0155766,0
2024-12-13 15:33:38.428,0.026321,3.37567,9.55723,-0.0251211,-0.0153475,-0.01802,0
2024-12-13 15:33:38.431,0.0358923,3.38525,9.58355,-0.0238994,-0.0159584,-0.01802,0
2024-12-13 15:33:38.433,0.040678,3.39003,9.6003,-0.0245102,-0.0171801,-0.0198525,0
2024-12-13 15:33:38.435,0.0430708,3.37807,9.60509,-0.0220669,-0.0177909,-0.0204634,0
2024-12-13 15:33:38.438,0.0478565,3.35892,9.61466,-0.0208452,-0.0165692,-0.0198525,0
2024-12-13 15:33:38.440,0.0693919,3.35892,9.62423,-0.0171801,-0.0141258,-0.0210742,0
2024-12-13 15:33:38.442,0.0741775,3.35653,9.62423,-0.0177909,-0.013515,-0.0222959,0
2024-12-13 15:33:38.445,0.0789631,3.35414,9.62423,-0.0141258,-0.0129041,-0.0235176,0
2024-12-13 15:33:38.447,0.081356,3.36371,9.6338,-0.0116825,-0.0104608,-0.0241285,0
2024-12-13 15:33:38.449,0.0933201,3.36132,9.6338,-0.0104608,-0.00740652,-0.025961,0
2024-12-13 15:33:38.452,0.11007,3.35414,9.60509,-0.00801737,-0.00496313,-0.0241285,0
2024-12-13 15:33:38.454,0.124427,3.32782,9.5668,-0.00313059,-0.00129805,-0.0247393,0
2024-12-13 15:33:38.456,0.131605,3.32064,9.54766,-0.000687203,0.000534491,-0.0253502,0
2024-12-13 15:33:38.459,0.138784,3.32782,9.53809,-0.000687203,0.00297788,-0.025961,0
2024-12-13 15:33:38.461,0.155533,3.335,9.51895,0.00175619,0.00481042,-0.025961,0
2024-12-13 15:33:38.464,0.174676,3.3326,9.49741,0.00297788,0.00358873,-0.025961,0
2024-12-13 15:33:38.466,0.172283,3.32303,9.47827,0.00542127,0.00419957,-0.0265719,0
2024-12-13 15:33:38.468,0.167498,3.32064,9.45195,0.00847551,0.00542127,-0.0265719,0
2024-12-13 15:33:38.472,0.167498,3.31585,9.42802,0.00847551,0.010308,-0.025961,0
2024-12-13 15:33:38.473,0.179462,3.335,9.41366,0.00847551,0.010308,-0.025961,0
2024-12-13 15:33:38.475,0.208176,3.35175,9.42802,0.0176382,0.0133623,-0.0296261,0
2024-12-13 15:33:38.478,0.217747,3.335,9.4352,0.0268009,0.0121406,-0.033902,0
2024-12-13 15:33:38.480,0.227318,3.32064,9.41606,0.0268009,0.0121406,-0.0363454,0
2024-12-13 15:33:38.482,0.236889,3.335,9.4017,0.0341311,0.00908635,-0.0369563,0
2024-12-13 15:33:38.485,0.246461,3.34935,9.38495,0.0365745,0.00847551,-0.0363454,0
2024-12-13 15:33:38.487,0.267996,3.35653,9.31556,0.0402396,0.00175619,-0.0357346,0
2024-12-13 15:33:38.489,0.267996,3.35892,9.20758,0.0396287,-0.00251974,-0.0326803,0
2024-12-13 15:33:38.494,0.234497,3.34218,9.00658,0.038407,-0.00435229,-0.0326803,0
2024-12-13 15:33:38.494,0.234497,3.34218,9.00658,0.038407,-0.00435229,-0.0326803,0
2024-12-13 15:33:38.496,0.212961,3.33978,8.91326,0.0347419,-0.00557398,-0.0290152,0
2024-12-13 15:33:38.499,0.208176,3.32543,8.87259,0.0298552,-0.00862822,-0.0277936,0
2024-12-13 15:33:38.501,0.229711,3.31825,8.85584,0.0261901,-0.0104608,-0.0247393,0
2024-12-13 15:33:38.504,0.263211,3.30628,8.86062,0.0206925,-0.0141258,-0.0229068,0
2024-12-13 15:33:38.506,0.308973,3.28714,8.85584,0.0133623,-0.0171801,-0.0204634,0
2024-12-13 15:33:38.508,0.368794,3.27278,8.84866,0.00847551,-0.021456,-0.0229068,0
2024-12-13 15:33:38.511,0.426222,3.2656,8.83909,-0.00129805,-0.0251211,-0.0229068,0
2024-12-13 15:33:38.513,0.486042,3.26082,8.80559,-0.0104608,-0.0287862,-0.0241285,0
2024-12-13 15:33:38.515,0.517149,3.25603,8.80559,-0.0202343,-0.0348946,-0.0277936,0
2024-12-13 15:33:38.518,0.553041,3.24885,8.82473,-0.0287862,-0.0379489,-0.0332912,0
2024-12-13 15:33:38.520,0.586541,3.22493,8.84148,-0.0342838,-0.0428357,-0.0436756,0
2024-12-13 15:33:38.522,0.60329,3.18664,8.86302,-0.0440574,-0.049555,-0.0522274,0
2024-12-13 15:33:38.525,0.62004,3.1675,8.89173,-0.049555,-0.0562743,-0.0601685,0
2024-12-13 15:33:38.527,0.658325,3.16511,8.94198,-0.0568851,-0.0623828,-0.0656661,0
2024-12-13 15:33:38.529,0.703789,3.14836,8.95634,-0.0666587,-0.0678804,-0.0723854,0
2024-12-13 15:33:38.532,0.744467,3.10768,8.94676,-0.0752106,-0.0770431,-0.0784939,0
2024-12-13 15:33:38.534,0.773181,3.08345,8.94916,-0.0800973,-0.0831516,-0.0864349,0
2024-12-13 15:33:38.537,0.785145,3.07627,8.95634,-0.0886492,-0.085595,-0.0955976,0
2024-12-13 15:33:38.539,0.787538,3.04756,8.95634,-0.0929251,-0.0874275,-0.102317,0
2024-12-13 15:33:38.541,0.804287,3.01884,8.95394,-0.0978119,-0.0892601,-0.107204,0
2024-12-13 15:33:38.544,0.85005,2.99492,8.98026,-0.102699,-0.0874275,-0.115145,0
2024-12-13 15:33:38.546,0.9003,2.95424,9.03051,-0.106975,-0.0837624,-0.120642,0
2024-12-13 15:33:38.548,0.979263,2.9351,9.08076,-0.108807,-0.081319,-0.129805,0
2024-12-13 15:33:38.551,1.0678,2.94706,9.11426,-0.109418,-0.0745997,-0.138357,0
2024-12-13 15:33:38.553,1.14197,2.95902,9.15255,-0.105753,-0.0715455,-0.146909,0
2024-12-13 15:33:38.555,1.2018,2.95424,9.19322,-0.104531,-0.0672696,-0.158515,0
2024-12-13 15:33:38.558,1.24487,2.93749,9.21715,-0.0972011,-0.0629936,-0.168288,0
2024-12-13 15:33:38.560,1.27119,2.94227,9.22672,-0.093536,-0.0550526,-0.180505,0
2024-12-13 15:33:38.562,1.27358,2.95185,9.21955,-0.0886492,-0.0519984,-0.19089,0
2024-12-13 15:33:38.565,1.28076,2.95902,9.20997,-0.0819299,-0.0465007,-0.201274,0
2024-12-13 15:33:38.567,1.25922,2.96142,9.18844,-0.0739889,-0.041614,-0.211048,0
2024-12-13 15:33:38.569,1.23051,2.96142,9.14297,-0.0617719,-0.0348946,-0.218989,0
2024-12-13 15:33:38.572,1.20658,2.95185,9.09033,-0.0587177,-0.0300079,-0.225708,0
2024-12-13 15:33:38.577,1.13719,2.92552,8.95873,-0.0513875,-0.0281753,-0.233038,0
2024-12-13 15:33:38.577,1.13719,2.92552,8.95873,-0.0513875,-0.0281753,-0.233038,0
2024-12-13 15:33:38.579,1.0989,2.91595,8.89891,-0.0434465,-0.0306187,-0.243423,0
2024-12-13 15:33:38.584,1.04865,2.90399,8.78884,-0.0361163,-0.0403923,-0.252585,0
2024-12-13 15:33:38.584,1.01276,2.90399,8.78884,-0.0361163,-0.0403923,-0.252585,0
2024-12-13 15:33:38.586,1.00558,2.90399,8.72902,-0.0330621,-0.0452791,-0.255029,0
2024-12-13 15:33:38.588,0.988834,2.90638,8.67608,-0.0318404,-0.0532201,-0.256861,0
2024-12-13 15:33:38.591,0.950549,2.92313,8.6354,-0.0342838,-0.0562743,-0.259916,0
2024-12-13 15:33:38.593,0.914656,2.93988,8.58036,-0.0342838,-0.0642153,-0.261748,0
2024-12-13 15:33:38.595,0.885943,2.94706,8.52054,-0.037338,-0.0691021,-0.261748,0
2024-12-13 15:33:38.598,0.857229,2.98295,8.45594,-0.0367272,-0.0752106,-0.262359,0
2024-12-13 15:33:38.600,0.830609,3.00688,8.38415,-0.0410031,-0.081319,-0.262359,0
2024-12-13 15:33:38.602,0.821037,3.01884,8.3339,-0.0452791,-0.0849841,-0.262359,0
2024-12-13 15:33:38.605,0.813859,3.03799,8.28365,-0.0519984,-0.0929251,-0.263581,0
2024-12-13 15:33:38.607,0.80668,3.06192,8.23819,-0.0599394,-0.100866,-0.26297,0
2024-12-13 15:33:38.610,0.804287,3.08584,8.2023,-0.0672696,-0.108807,-0.262359,0
2024-12-13 15:33:38.612,0.794716,3.09811,8.17119,-0.0672696,-0.108807,-0.262359,0
2024-12-13 15:33:38.614,0.801895,3.11725,8.14726,-0.0843733,-0.124689,-0.264191,0
2024-12-13 15:33:38.617,0.825823,3.14596,8.12064,-0.0929251,-0.135684,-0.264802,0
2024-12-13 15:33:38.619,0.837787,3.17228,8.11825,-0.105142,-0.147291,-0.267857,0
2024-12-13 15:33:38.621,0.82343,3.19621,8.14487,-0.116137,-0.158286,-0.267246,0
2024-12-13 15:33:38.624,0.789931,3.22493,8.18555,-0.123468,-0.171724,-0.268467,0
2024-12-13 15:33:38.626,0.804287,3.27278,8.22622,-0.131409,-0.186996,-0.267857,0
2024-12-13 15:33:38.628,0.864407,3.335,8.25733,-0.141793,-0.20471,-0.270911,0
2024-12-13 15:33:38.631,0.789931,3.38285,8.29322,-0.149123,-0.219981,-0.271522,0
2024-12-13 15:33:38.633,0.63679,3.42353,8.30519,-0.155232,-0.230977,-0.267857,0
2024-12-13 15:33:38.635,0.576969,3.47857,8.3004,-0.163783,-0.236474,-0.26297,0
2024-12-13 15:33:38.638,0.579362,3.55035,8.30997,-0.16867,-0.244415,-0.255029,0
2024-12-13 15:33:38.640,0.591326,3.62453,8.29322,-0.179665,-0.243804,-0.250142,0
2024-12-13 15:33:38.642,0.608076,3.67986,8.25494,-0.186996,-0.243804,-0.242812,0
2024-12-13 15:33:38.645,0.600898,3.73729,8.21665,-0.200434,-0.245026,-0.236703,0
2024-12-13 15:33:38.647,0.591326,3.78993,8.2023,-0.216927,-0.243194,-0.230595,0
2024-12-13 15:33:38.650,0.588933,3.84018,8.2023,-0.234031,-0.245637,-0.225708,0
2024-12-13 15:33:38.652,0.574577,3.9,8.2023,-0.252356,-0.247469,-0.221432,0
2024-12-13 15:33:38.654,0.562612,3.95743,8.20708,-0.271293,-0.24808,-0.216545,0
2024-12-13 15:33:38.657,0.536291,4.02443,8.22862,-0.296948,-0.24808,-0.210437,0
2024-12-13 15:33:38.659,0.512363,4.08664,8.25494,-0.320771,-0.245026,-0.204939,0
2024-12-13 15:33:38.662,0.486042,4.12971,8.29083,-0.346427,-0.243804,-0.198831,0
2024-12-13 15:33:38.664,0.459721,4.16082,8.34587,-0.375137,-0.238918,-0.192111,0
2024-12-13 15:33:38.666,0.447757,4.19671,8.42722,-0.402625,-0.230366,-0.189668,0
2024-12-13 15:33:38.668,0.421436,4.23769,8.53251,-0.433778,-0.220592,-0.186003,0
2024-12-13 15:33:38.671,0.402293,4.2664,8.6665,-0.467985,-0.215095,-0.182949,0
2024-12-13 15:33:38.673,0.383151,4.29272,8.82712,-0.499139,-0.206543,-0.179895,0
2024-12-13 15:33:38.675,0.368794,4.32622,8.98744,-0.529681,-0.196769,-0.178062,0
2024-12-13 15:33:38.678,0.347258,4.36929,9.15015,-0.556558,-0.187606,-0.175619,0
2024-12-13 15:33:38.680,0.304188,4.38844,9.32752,-0.591376,-0.174168,-0.175619,0
2024-12-13 15:33:38.683,0.256032,4.38844,9.51655,-0.618254,-0.158897,-0.175619,0
2024-12-13 15:33:38.685,0.20339,4.39562,9.71037,-0.643909,-0.13996,-0.173175,0
2024-12-13 15:33:38.687,0.136391,4.38126,9.89731,-0.670787,-0.121635,-0.170732,0
2024-12-13 15:33:38.690,0.0741775,4.34297,10.072,-0.695831,-0.100255,-0.167067,0
2024-12-13 15:33:38.692,0.227318,4.2015,10.3352,-0.717211,-0.0825407,-0.167067,0
2024-12-13 15:33:38.694,0.244068,4.08186,10.5844,-0.733093,-0.073378,-0.170732,0
2024-12-13 15:33:38.697,-0.0334995,4.12493,10.6585,-0.749586,-0.0532201,-0.171953,0
2024-12-13 15:33:38.699,-0.200997,4.15603,10.771,-0.76669,-0.0275645,-0.167067,0
2024-12-13 15:33:38.701,-0.275175,4.14407,10.9819,-0.780128,-0.00801737,-0.161569,0
2024-12-13 15:33:38.704,-0.368794,4.11057,11.1757,-0.789902,0.010308,-0.153017,0
2024-12-13 15:33:38.706,-0.512363,4.08186,11.3791,-0.796621,0.0243575,-0.141411,0
2024-12-13 15:33:38.708,-0.63679,4.05314,11.6019,-0.80334,0.042683,-0.129194,0
2024-12-13 15:33:38.711,-0.701396,3.99571,11.8627,-0.800286,0.0603975,-0.113923,0
2024-12-13 15:33:38.713,-0.756431,3.91436,12.1382,-0.79601,0.0762796,-0.098041,0
2024-12-13 15:33:38.716,-0.82343,3.82343,12.3823,-0.780128,0.0952158,-0.082159,0
2024-12-13 15:33:38.718,-0.895514,3.74447,12.5737,-0.761803,0.119039,-0.0662769,0
2024-12-13 15:33:38.720,-0.948156,3.66551,12.7534,-0.738591,0.14164,-0.0479515,0
2024-12-13 15:33:38.723,-0.988834,3.60539,12.9257,-0.708659,0.167296,-0.0320695,0
2024-12-13 15:33:38.725,-1.0319,3.53599,13.0765,-0.674452,0.19173,-0.0161875,0
2024-12-13 15:33:38.727,-1.09173,3.48574,13.2036,-0.636579,0.213109,-0.00152712,0
2024-12-13 15:33:38.730,-1.1324,3.48335,13.2778,-0.596263,0.230213,0.0174091,0
2024-12-13 15:33:38.732,-1.15394,3.48814,13.3232,-0.553504,0.246706,0.0314586,0
2024-12-13 15:33:38.734,-1.1994,3.49532,13.3256,-0.505858,0.258923,0.0455081,0
2024-12-13 15:33:38.737,-1.22572,3.49053,13.3065,-0.461266,0.266864,0.0589468,0
2024-12-13 15:33:38.739,-1.19222,3.47617,13.3161,-0.412398,0.267475,0.0711637,0
2024-12-13 15:33:38.741,-1.22094,3.50249,13.2323,-0.362309,0.262588,0.082159,0
2024-12-13 15:33:38.744,-1.31426,3.58864,13.0478,-0.309776,0.260145,0.0919325,0
2024-12-13 15:33:38.746,-1.38126,3.67029,12.8827,-0.262741,0.254647,0.10476,0
2024-12-13 15:33:38.748,-1.35494,3.67268,12.763,-0.215095,0.246095,0.117588,0
2024-12-13 15:33:38.751,-1.1994,3.54317,12.7678,-0.166838,0.221661,0.124307,0
2024-12-13 15:33:38.753,-1.21137,3.49771,12.6048,-0.116137,0.191119,0.127972,0
2024-12-13 15:33:38.756,-1.43898,3.64876,12.1573,-0.0697129,0.176459,0.134157,0
2024-12-13 15:33:38.758,-1.51795,3.76361,11.8196,-0.0269536,0.169739,0.144542,0
2024-12-13 15:33:38.760,-1.30947,3.67268,11.8053,0.0121406,0.14164,0.154315,0
2024-12-13 15:33:38.763,-1.24965,3.61974,11.7024,0.0561216,0.0970484,0.154926,0
2024-12-13 15:33:38.765,-1.45334,3.71575,11.2331,0.094605,0.0689494,0.160424,0
2024-12-13 15:33:38.767,-1.4653,3.77797,10.8835,0.124536,0.0487914,0.167143,0
2024-12-13 15:33:38.770,-1.41266,3.82343,10.6801,0.155079,0.0237467,0.175084,0
2024-12-13 15:33:38.772,-1.45334,3.87607,10.3905,0.183178,-0.000687203,0.182414,0
2024-12-13 15:33:38.774,-1.48205,3.94068,10.1198,0.20639,-0.0220669,0.189744,0
2024-12-13 15:33:38.777,-1.51077,3.99811,9.88296,0.228381,-0.041614,0.201961,0
2024-12-13 15:33:38.779,-1.52273,4.04357,9.63141,0.244873,-0.0568851,0.212957,0
2024-12-13 15:33:38.781,-1.52991,4.07946,9.38974,0.258923,-0.0721563,0.225174,0
2024-12-13 15:33:38.784,-1.55623,4.10578,9.17169,0.269307,-0.0862058,0.239223,0
2024-12-13 15:33:38.786,-1.55145,4.12732,8.97308,0.277248,-0.102088,0.252662,0
2024-12-13 15:33:38.789,-1.51555,4.12971,8.76491,0.282135,-0.116137,0.264268,0
2024-12-13 15:33:38.791,-1.45573,4.13211,8.55404,0.284578,-0.127743,0.276485,0
2024-12-13 15:33:38.793,-1.39083,4.14168,8.36501,0.285189,-0.141182,0.28748,0
2024-12-13 15:33:38.796,-1.30229,4.14168,8.1999,0.282135,-0.148512,0.296643,0
2024-12-13 15:33:38.798,-1.2018,4.13928,8.08714,0.276027,-0.159507,0.301529,0
2024-12-13 15:33:38.800,-1.17069,4.17039,7.92204,0.268086,-0.168059,0.308249,0
2024-12-13 15:33:38.803,-1.15394,4.22572,7.71147,0.25648,-0.170503,0.316801,0
2024-12-13 15:33:38.805,-1.0989,4.24487,7.58226,0.241819,-0.174168,0.321687,0
2024-12-13 15:33:38.807,-1.02233,4.2353,7.48864,0.22777,-0.179055,0.327185,0
2024-12-13 15:33:38.810,-0.945763,4.22333,7.40489,0.208833,-0.19005,0.329018,0
2024-12-13 15:33:38.813,-0.8668,4.18953,7.3331,0.169128,-0.210819,0.332683,0
2024-12-13 15:33:38.814,-0.768395,4.15364,7.26611,0.169128,-0.210819,0.332683,0
2024-12-13 15:33:38.817,-0.667897,4.12971,7.21586,0.142862,-0.220592,0.331461,0
2024-12-13 15:33:38.819,-0.567398,4.11057,7.17757,0.122093,-0.227312,0.328407,0
2024-12-13 15:33:38.821,-0.474078,4.09621,7.16561,0.0976592,-0.234642,0.32352,0
2024-12-13 15:33:38.824,-0.397508,4.101,7.17278,0.074447,-0.23342,0.316801,0
2024-12-13 15:33:38.826,-0.328116,4.10818,7.17039,0.0524565,-0.229144,0.311303,0
2024-12-13 15:33:38.829,-0.258425,4.09621,7.19193,0.0292443,-0.224257,0.304584,0
2024-12-13 15:33:38.831,-0.196211,4.09143,7.22064,0.00664296,-0.210819,0.296032,0
2024-12-13 15:33:38.833,-0.150748,4.07946,7.25414,-0.0141258,-0.194937,0.288702,0
2024-12-13 15:33:38.836,-0.11007,4.06989,7.2996,-0.0348946,-0.179665,0.28015,0
2024-12-13 15:33:38.838,-0.0717847,4.06511,7.34985,-0.0550526,-0.162562,0.27282,0
2024-12-13 15:33:38.841,-0.0287139,4.04357,7.42164,-0.0727672,-0.142404,0.267322,0
2024-12-13 15:33:38.843,0.0119641,4.034,7.5006,-0.0917034,-0.123468,0.259992,0
2024-12-13 15:33:38.845,0.0502493,4.02682,7.56521,-0.107585,-0.101477,0.25144,0
2024-12-13 15:33:38.847,0.0861416,4.00529,7.63729,-0.122857,-0.0764323,0.242888,0
2024-12-13 15:33:38.850,0.124427,3.98375,7.733,-0.137517,-0.0501658,0.234336,0
2024-12-13 15:33:38.852,0.157926,3.95743,7.8359,-0.14668,-0.0208452,0.225784,0
2024-12-13 15:33:38.854,0.196211,3.9335,7.934,-0.157675,0.0096972,0.217843,0
2024-12-13 15:33:38.857,0.232104,3.90957,8.02732,-0.164394,0.042683,0.20807,0
2024-12-13 15:33:38.859,0.251246,3.89282,8.12782,-0.171724,0.074447,0.200129,0
2024-12-13 15:33:38.862,0.258425,3.88564,8.22383,-0.177222,0.106211,0.191577,0
2024-12-13 15:33:38.864,0.239282,3.8689,8.3028,-0.180276,0.134921,0.183025,0
2024-12-13 15:33:38.866,0.198604,3.87368,8.39133,-0.179055,0.165463,0.175695,0
2024-12-13 15:33:38.869,0.165105,3.89282,8.45833,-0.181498,0.19173,0.169586,0
2024-12-13 15:33:38.871,0.138784,3.91914,8.47986,-0.185774,0.22105,0.165311,0
2024-12-13 15:33:38.873,0.0933201,3.94068,8.51336,-0.188217,0.246095,0.160424,0
2024-12-13 15:33:38.876,0.0502493,3.94307,8.54208,-0.188217,0.272362,0.15737,0
2024-12-13 15:33:38.878,0.0311067,3.96222,8.55643,-0.193104,0.299239,0.153704,0
2024-12-13 15:33:38.880,0.0143569,3.97657,8.58515,-0.196158,0.323673,0.149429,0
2024-12-13 15:33:38.883,-0.0239282,3.97179,8.61147,-0.19738,0.345663,0.148818,0
2024-12-13 15:33:38.885,-0.0550349,3.97657,8.62583,-0.205321,0.367043,0.146985,0
2024-12-13 15:33:38.887,-0.0837488,3.96222,8.65933,-0.21204,0.384147,0.144542,0
2024-12-13 15:33:38.890,-0.112463,3.94547,8.71705,-0.216316,0.400639,0.145153,0
2024-12-13 15:33:38.892,-0.129212,3.92872,8.76491,-0.224257,0.414689,0.146374,0
2024-12-13 15:33:38.894,-0.155533,3.91436,8.83909,-0.226701,0.431182,0.146985,0
2024-12-13 15:33:38.897,-0.174676,3.90957,8.91087,-0.23342,0.44462,0.147596,0
2024-12-13 15:33:38.899,-0.181855,3.92154,8.96351,-0.240139,0.457448,0.152483,0
2024-12-13 15:33:38.902,-0.212961,3.91197,9.01855,-0.245637,0.469665,0.154315,0
2024-12-13 15:33:38.904,-0.248854,3.89522,9.07358,-0.248691,0.481271,0.159813,0
2024-12-13 15:33:38.906,-0.253639,3.89522,9.14297,-0.255411,0.491656,0.162867,0
2024-12-13 15:33:38.909,-0.260818,3.88325,9.20519,-0.259076,0.503262,0.167143,0
2024-12-13 15:33:38.911,-0.267996,3.86411,9.25305,-0.259686,0.514868,0.172641,0
2024-12-13 15:33:38.913,-0.265603,3.83779,9.31077,-0.262741,0.52342,0.179971,0
2024-12-13 15:33:38.916,-0.258425,3.81386,9.36581,-0.262741,0.527696,0.182414,0
2024-12-13 15:33:38.918,-0.258425,3.77557,9.41127,-0.265184,0.528307,0.185468,0
2024-12-13 15:33:38.920,-0.248854,3.72772,9.45913,-0.264573,0.528917,0.188523,0
2024-12-13 15:33:38.923,-0.232104,3.68943,9.51177,-0.266406,0.528307,0.188523,0
2024-12-13 15:33:38.925,-0.212961,3.65115,9.57159,-0.265795,0.521587,0.188523,0
2024-12-13 15:33:38.930,-0.208176,3.55992,9.66491,-0.26213,0.514257,0.191577,0
2024-12-13 15:33:38.932,-0.215354,3.51685,9.71037,-0.252356,0.495321,0.192188,0
2024-12-13 15:33:38.932,-0.215354,3.51685,9.71037,-0.252356,0.495321,0.192188,0
2024-12-13 15:33:38.935,-0.22014,3.47617,9.76062,-0.246248,0.483715,0.191577,0
2024-12-13 15:33:38.937,-0.227318,3.45703,9.8013,-0.240139,0.466611,0.192799,0
2024-12-13 15:33:38.939,-0.234497,3.4355,9.83749,-0.229144,0.45134,0.19341,0
2024-12-13 15:33:38.942,-0.251246,3.40678,9.87578,-0.222425,0.430571,0.192188,0
2024-12-13 15:33:38.944,-0.260818,3.38046,9.91167,-0.21204,0.409191,0.191577,0
2024-12-13 15:33:38.946,-0.248854,3.35892,9.94517,-0.202267,0.384757,0.189744,0
2024-12-13 15:33:38.949,-0.229711,3.33978,9.97388,-0.191272,0.359713,0.190355,0
2024-12-13 15:33:38.951,-0.224925,3.30389,10.0146,-0.179665,0.33589,0.187912,0
2024-12-13 15:33:38.953,-0.222533,3.27278,10.0552,-0.165005,0.311456,0.186079,0
2024-12-13 15:33:38.956,-0.215354,3.24407,10.0959,-0.149734,0.284578,0.185468,0
2024-12-13 15:33:38.958,-0.208176,3.20818,10.1366,-0.13263,0.258312,0.185468,0
2024-12-13 15:33:38.960,-0.191426,3.17946,10.1629,-0.115526,0.233878,0.183025,0
2024-12-13 15:33:38.963,-0.181855,3.14357,10.1725,-0.0965902,0.209444,0.185468,0
2024-12-13 15:33:38.965,-0.174676,3.10289,10.194,-0.0764323,0.18501,0.18669,0
2024-12-13 15:33:38.968,-0.150748,3.06431,10.2132,-0.0544418,0.162409,0.188523,0
2024-12-13 15:33:38.970,-0.117248,3.01884,10.2012,-0.033673,0.14164,0.188523,0
2024-12-13 15:33:38.972,-0.0741775,2.9662,10.1797,-0.0116825,0.123315,0.188523,0
2024-12-13 15:33:38.975,-0.0287139,2.92074,10.1749,0.00786466,0.107433,0.189134,0
2024-12-13 15:33:38.977,0.00957129,2.88006,10.1557,0.0335202,0.0958267,0.192799,0
2024-12-13 15:33:38.979,0.0526421,2.83699,10.1175,0.058565,0.0909399,0.194631,0
2024-12-13 15:33:38.982,0.11007,2.79153,10.0768,0.0848314,0.086664,0.19402,0
2024-12-13 15:33:38.984,0.148355,2.74367,10.0193,0.109876,0.0854423,0.195242,0
2024-12-13 15:33:38.986,0.191426,2.71496,9.95713,0.13431,0.0884965,0.195853,0
2024-12-13 15:33:38.989,0.256032,2.67906,9.88056,0.160576,0.0939941,0.198296,0
2024-12-13 15:33:38.991,0.301795,2.62881,9.80848,0.185621,0.102546,0.197685,0
2024-12-13 15:33:38.993,0.332901,2.58814,9.68884,0.213109,0.115985,0.198907,0
2024-12-13 15:33:38.996,0.375972,2.56421,9.51895,0.236932,0.126369,0.201351,0
2024-12-13 15:33:38.998,0.414257,2.55703,9.35624,0.259534,0.137975,0.201351,0
2024-12-13 15:33:39.000,0.457328,2.53789,9.18126,0.283357,0.149581,0.201351,0
2024-12-13 15:33:39.003,0.500399,2.51605,8.99462,0.301071,0.155079,0.203794,0
2024-12-13 15:33:39.005,0.529113,2.49691,8.83191,0.320618,0.161187,0.205016,0
2024-12-13 15:33:39.008,0.557827,2.46341,8.68565,0.337722,0.163631,0.204405,0
2024-12-13 15:33:39.010,0.555434,2.4323,8.52533,0.354215,0.163631,0.206237,0
2024-12-13 15:33:39.012,0.536291,2.41555,8.38654,0.370784,0.161187,0.208681,0
2024-12-13 15:33:39.015,0.50997,2.38684,8.24776,0.384223,0.156911,0.211735,0
2024-12-13 15:33:39.017,0.490828,2.37727,8.09193,0.400105,0.155079,0.211735,0
2024-12-13 15:33:39.019,0.519542,2.38445,7.95793,0.413544,0.154468,0.216622,0
2024-12-13 15:33:39.022,0.574577,2.39402,7.81675,0.42515,0.151414,0.220898,0
2024-12-13 15:33:39.024,0.622433,2.41316,7.67079,0.436145,0.147749,0.220287,0
2024-12-13 15:33:39.026,0.65354,2.42034,7.53649,0.448362,0.142862,0.219065,0
2024-12-13 15:33:39.029,0.667897,2.44666,7.41925,0.456303,0.139197,0.219676,0
2024-12-13 15:33:39.031,0.696611,2.47298,7.29003,0.467298,0.132477,0.218454,0
2024-12-13 15:33:39.033,0.715753,2.4682,7.14407,0.473407,0.123315,0.217233,0
2024-12-13 15:33:39.037,0.720539,2.47777,6.99063,0.481348,0.0982701,0.209292,0
2024-12-13 15:33:39.038,0.718146,2.48255,6.83988,0.481348,0.0982701,0.209292,0
2024-12-13 15:33:39.041,0.718146,2.48255,6.7011,0.48318,0.0836097,0.206848,0
2024-12-13 15:33:39.043,0.725324,2.48495,6.56471,0.481348,0.0652843,0.202572,0
2024-12-13 15:33:39.045,0.722932,2.48734,6.43998,0.477683,0.0457372,0.20074,0
2024-12-13 15:33:39.048,0.727717,2.49691,6.32034,0.474017,0.0255792,0.198907,0
2024-12-13 15:33:39.050,0.73011,2.49691,6.20309,0.467298,0.00481042,0.196464,0
2024-12-13 15:33:39.052,0.737288,2.5017,6.10259,0.460579,-0.0159584,0.195242,0
2024-12-13 15:33:39.055,0.754038,2.50648,6.02124,0.452027,-0.0361163,0.195242,0
2024-12-13 15:33:39.057,0.782752,2.50648,5.94945,0.441032,-0.0556635,0.190966,0
2024-12-13 15:33:39.059,0.799502,2.50887,5.88455,0.433702,-0.0727672,0.190966,0
2024-12-13 15:33:39.062,0.818644,2.50648,5.84148,0.422706,-0.0892601,0.188523,0
2024-12-13 15:33:39.064,0.842872,2.51605,5.81037,0.412322,-0.102699,0.185468,0
2024-12-13 15:33:39.066,0.871586,2.50409,5.77926,0.403159,-0.113694,0.186079,0
2024-12-13 15:33:39.069,0.909871,2.49691,5.75773,0.394607,-0.122857,0.185468,0
2024-12-13 15:33:39.071,0.948156,2.51845,5.77209,0.386666,-0.126522,0.184247,0
2024-12-13 15:33:39.073,0.984048,2.53789,5.77926,0.377504,-0.130187,0.181193,0
2024-12-13 15:33:39.076,1.01037,2.54507,5.77926,0.369563,-0.130798,0.178138,0
2024-12-13 15:33:39.078,1.0343,2.54267,5.78166,0.369563,-0.130798,0.178138,0
2024-12-13 15:33:39.081,1.05344,2.54507,5.77209,0.359102,-0.124078,0.175084,0
2024-12-13 15:33:39.083,1.07976,2.53789,5.76252,0.356048,-0.115526,0.173252,0
2024-12-13 15:33:39.085,1.11565,2.52592,5.76969,0.351161,-0.106364,0.172641,0
2024-12-13 15:33:39.088,1.15155,2.51845,5.78884,0.346885,-0.0965902,0.170197,0
2024-12-13 15:33:39.090,1.17308,2.50409,5.79841,0.341998,-0.0831516,0.169586,0
2024-12-13 15:33:39.092,1.18265,2.49452,5.80559,0.341387,-0.0678804,0.168365,0
2024-12-13 15:33:39.095,1.20658,2.49212,5.81516,0.338944,-0.0568851,0.168976,0
2024-12-13 15:33:39.097,1.23051,2.48973,5.81994,0.338333,-0.0428357,0.167754,0
2024-12-13 15:33:39.099,1.23529,2.48495,5.8343,0.3365,-0.0281753,0.168365,0
2024-12-13 15:33:39.102,1.23051,2.48016,5.85105,0.334668,-0.0159584,0.169586,0
2024-12-13 15:33:39.104,1.22094,2.48255,5.85584,0.33589,-0.000687203,0.170197,0
2024-12-13 15:33:39.106,1.20419,2.47777,5.85823,0.338333,0.0151948,0.172641,0
2024-12-13 15:33:39.109,1.1994,2.45863,5.87976,0.331614,0.0268009,0.174473,0
2024-12-13 15:33:39.114,1.20419,2.4347,5.92792,0.332835,0.0640626,0.17936,0
2024-12-13 15:33:39.114,1.20419,2.4347,5.92792,0.332835,0.0640626,0.17936,0
2024-12-13 15:33:39.116,1.18505,2.42752,5.9662,0.330392,0.0805555,0.182414,0
2024-12-13 15:33:39.118,1.16112,2.44188,6.01645,0.330392,0.0976592,0.185468,0
2024-12-13 15:33:39.121,1.15155,2.45623,6.05474,0.331614,0.115374,0.189744,0
2024-12-13 15:33:39.123,1.16112,2.48495,6.05713,0.328559,0.131867,0.190355,0
2024-12-13 15:33:39.125,1.15633,2.51366,6.0667,0.328559,0.147749,0.190355,0
2024-12-13 15:33:39.128,1.1348,2.53549,6.09063,0.327338,0.160576,0.19402,0
2024-12-13 15:33:39.130,1.11087,2.56899,6.1002,0.326727,0.173404,0.19341,0
2024-12-13 15:33:39.132,1.07019,2.60489,6.12174,0.326116,0.189897,0.192799,0
2024-12-13 15:33:39.135,1.01994,2.64556,6.1672,0.324894,0.199671,0.192188,0
2024-12-13 15:33:39.137,0.96012,2.67906,6.22224,0.320618,0.207612,0.191577,0
2024-12-13 15:33:39.139,0.909871,2.71017,6.2677,0.315732,0.21372,0.189744,0
2024-12-13 15:33:39.142,0.857229,2.75803,6.30838,0.315732,0.217996,0.18669,0
2024-12-13 15:33:39.144,0.782752,2.81306,6.35384,0.310234,0.22044,0.185468,0
2024-12-13 15:33:39.146,0.706182,2.85853,6.39452,0.305958,0.221661,0.184247,0
2024-12-13 15:33:39.149,0.622433,2.89203,6.44477,0.298628,0.22105,0.181803,0
2024-12-13 15:33:39.151,0.529113,2.92552,6.50728,0.294352,0.217385,0.180582,0
2024-12-13 15:33:39.154,0.454935,2.9662,6.5671,0.289465,0.211888,0.179971,0
2024-12-13 15:33:39.156,0.385544,2.98535,6.63171,0.282746,0.207001,0.178749,0
2024-12-13 15:33:39.158,0.30658,3.0021,6.69871,0.280913,0.195395,0.174473,0
2024-12-13 15:33:39.161,0.244068,3.01884,6.78006,0.274194,0.183789,0.173862,0
2024-12-13 15:33:39.163,0.210568,3.04038,6.88295,0.270529,0.168517,0.172641,0
2024-12-13 15:33:39.165,0.193819,3.06431,7.0026,0.26381,0.149581,0.167754,0
2024-12-13 15:33:39.168,0.179462,3.06909,7.14168,0.258312,0.132477,0.165921,0
2024-12-13 15:33:39.170,0.143569,3.08854,7.29003,0.254036,0.111098,0.165311,0
2024-12-13 15:33:39.172,0.100499,3.11964,7.43839,0.24976,0.0897182,0.161645,0
2024-12-13 15:33:39.175,0.0885344,3.13161,7.59422,0.252814,0.0701711,0.158591,0
2024-12-13 15:33:39.177,0.0933201,3.14836,7.7665,0.252814,0.0701711,0.158591,0
2024-12-13 15:33:39.179,0.0933201,3.18186,7.95075,0.248538,0.0322986,0.160424,0
2024-12-13 15:33:39.182,0.081356,3.21775,8.13769,0.250982,0.0164165,0.160424,0
2024-12-13 15:33:39.184,0.0646062,3.24885,8.30519,0.250982,0.0164165,0.160424,0
2024-12-13 15:33:39.187,0.0646062,3.27996,8.47029,0.258312,-0.00557398,0.165921,0
2024-12-13 15:33:39.189,0.0574277,3.30628,8.6354,0.26381,-0.013515,0.169586,0
2024-12-13 15:33:39.194,0.0885344,3.36371,8.90848,0.276027,-0.0190126,0.179971,0
2024-12-13 15:33:39.194,0.0885344,3.36371,8.90848,0.276027,-0.0190126,0.179971,0
2024-12-13 15:33:39.196,0.12682,3.40439,9.05444,0.281524,-0.0177909,0.18669,0
2024-12-13 15:33:39.198,0.198604,3.45942,9.18844,0.291298,-0.0147367,0.190355,0
2024-12-13 15:33:39.201,0.287438,3.51685,9.28924,0.301071,-0.00618483,0.194631,0
2024-12-13 15:33:39.203,0.375972,3.60539,9.37777,0.309623,0.00175619,0.195853,0
2024-12-13 15:33:39.205,0.457328,3.7325,9.43998,0.319397,0.0151948,0.195242,0
2024-12-13 15:33:39.208,0.536291,3.84975,9.48306,0.326727,0.0316877,0.195242,0
2024-12-13 15:33:39.210,0.565005,3.97179,9.52373,0.331614,0.0530674,0.194631,0
2024-12-13 15:33:39.212,0.562612,4.11057,9.55005,0.340166,0.0762796,0.19341,0
2024-12-13 15:33:39.217,0.531506,4.35254,9.55963,0.346885,0.127591,0.187301,0
2024-12-13 15:33:39.217,0.531506,4.35254,9.55963,0.346885,0.127591,0.187301,0
2024-12-13 15:33:39.220,0.500399,4.45783,9.55245,0.345663,0.154468,0.18669,0
2024-12-13 15:33:39.222,0.459721,4.55593,9.5692,0.341387,0.176459,0.181803,0
2024-12-13 15:33:39.224,0.411865,4.62293,9.62184,0.331614,0.196006,0.173862,0
2024-12-13 15:33:39.227,0.328116,4.66122,9.69123,0.320618,0.208223,0.167754,0
2024-12-13 15:33:39.229,0.200997,4.68275,9.79173,0.304126,0.217385,0.162867,0
2024-12-13 15:33:39.231,0.0646062,4.69711,9.93081,0.286411,0.226548,0.15737,0
2024-12-13 15:33:39.234,-0.0550349,4.69472,10.0983,0.263199,0.223494,0.154315,0
2024-12-13 15:33:39.236,-0.12682,4.64686,10.3543,0.236322,0.215553,0.149429,0
2024-12-13 15:33:39.238,-0.234497,4.57747,10.704,0.207001,0.196006,0.145763,0
2024-12-13 15:33:39.241,-0.402293,4.53679,11.0225,0.178291,0.17035,0.140266,0
2024-12-13 15:33:39.245,-0.754038,4.59901,11.6569,0.178291,0.17035,0.140266,0
2024-12-13 15:33:39.248,-0.905085,4.62054,12.0183,0.0787229,0.0915507,0.13599,0
2024-12-13 15:33:39.248,-0.905085,4.62054,12.0183,0.0787229,0.0915507,0.13599,0
2024-12-13 15:33:39.250,-1.07498,4.58943,12.4014,0.0481806,0.0628409,0.139044,0
2024-12-13 15:33:39.252,-1.25204,4.54158,12.8061,0.0182491,0.0316877,0.144542,0
2024-12-13 15:33:39.255,-1.42941,4.49611,13.2395,-0.013515,0.00358873,0.147596,0
2024-12-13 15:33:39.257,-1.60648,4.43151,13.7061,-0.0440574,-0.0232886,0.155537,0
2024-12-13 15:33:39.260,-1.76201,4.34297,14.1993,-0.0691021,-0.0513875,0.165921,0
2024-12-13 15:33:39.262,-1.88405,4.2329,14.7069,-0.0917034,-0.0800973,0.180582,0
2024-12-13 15:33:39.264,-1.98006,4.11057,15.236,-0.109418,-0.102699,0.194631,0
2024-12-13 15:33:39.267,-2.05185,3.95504,15.7795,-0.124689,-0.123468,0.207459,0
2024-12-13 15:33:39.269,-2.07577,3.76122,16.3014,-0.130798,-0.141793,0.222119,0
2024-12-13 15:33:39.271,-1.78116,3.57428,16.7827,-0.135684,-0.158286,0.233725,0
2024-12-13 15:33:39.274,-1.65673,3.51207,17.2113,-0.134463,-0.188217,0.234336,0
2024-12-13 15:33:39.276,-2.20259,3.65115,17.4338,-0.125911,-0.191882,0.243499,0
2024-12-13 15:33:39.278,-2.54028,3.71575,17.7284,-0.119192,-0.169892,0.270376,0
2024-12-13 15:33:39.281,-2.51366,3.58624,18.2815,-0.108196,-0.164394,0.297254,0
2024-12-13 15:33:39.283,-2.4323,3.39482,18.7265,-0.0880384,-0.158897,0.324742,0
2024-12-13 15:33:39.285,-2.10688,3.16511,18.9159,-0.0623828,-0.147291,0.346732,0
2024-12-13 15:33:39.288,-1.69023,2.93988,19.0116,-0.0348946,-0.135684,0.361392,0
2024-12-13 15:33:39.290,-1.34776,2.75803,19.0929,-0.00557398,-0.115526,0.367501,2
2024-12-13 15:33:39.293,-1.05105,2.62642,19.1001,0.0316877,-0.0923143,0.367501,0
2024-12-13 15:33:39.295,-0.785145,2.53789,19.0427,0.0713928,-0.0642153,0.363836,0
2024-12-13 15:33:39.297,-0.512363,2.48734,18.9039,0.115985,-0.0342838,0.355895,0
2024-12-13 15:33:39.300,-0.222533,2.46102,18.6739,0.165463,-0.00618483,0.343067,0
2024-12-13 15:33:39.302,0.0119641,2.47537,18.3628,0.213109,0.0206925,0.320466,0
2024-12-13 15:33:39.307,0.0693919,2.73171,17.5128,0.318175,0.0848314,0.276485,0
2024-12-13 15:33:39.307,0.0693919,2.73171,17.5128,0.318175,0.0848314,0.276485,0
2024-12-13 15:33:39.309,-0.0502493,2.93988,17.0698,0.364599,0.113541,0.256327,0
2024-12-13 15:33:39.311,-0.205783,3.14596,16.6726,0.412322,0.139197,0.24411,0
2024-12-13 15:33:39.314,-0.390329,3.36371,16.2823,0.457525,0.157522,0.234947,0
2024-12-13 15:33:39.316,-0.591326,3.5671,15.868,0.49723,0.167296,0.231893,0
2024-12-13 15:33:39.318,-0.756431,3.73011,15.4131,0.531437,0.166685,0.23006,0
2024-12-13 15:33:39.323,-0.986441,3.99093,14.4652,0.58397,0.14164,0.238612,0
2024-12-13 15:33:39.323,-0.986441,3.99093,14.4652,0.58397,0.14164,0.238612,0
2024-12-13 15:33:39.325,-1.03908,4.08903,13.9911,0.601074,0.117206,0.245942,0
2024-12-13 15:33:39.328,-1.07737,4.16561,13.5123,0.608404,0.0891073,0.25144,0
2024-12-13 15:33:39.330,-1.11087,4.25922,13.0478,0.610236,0.0591758,0.256938,0
2024-12-13 15:33:39.334,-1.12762,4.36451,12.629,0.588857,-0.00740652,0.266711,0
2024-12-13 15:33:39.335,-1.12283,4.4674,12.2483,0.588857,-0.00740652,0.266711,0
2024-12-13 15:33:39.337,-1.08455,4.57268,11.901,0.566866,-0.0434465,0.267933,0
2024-12-13 15:33:39.340,-1.04626,4.6684,11.6043,0.536935,-0.0794865,0.265489,0
2024-12-13 15:33:39.342,-1.02473,4.75215,11.3623,0.536935,-0.0794865,0.265489,0
2024-12-13 15:33:39.344,-0.986441,4.78594,11.2116,0.456914,-0.145458,0.254494,0
2024-12-13 15:33:39.347,-0.950549,4.82902,11.1254,0.406213,-0.174168,0.248386,0
2024-12-13 15:33:39.349,-0.967299,4.91037,11.0297,0.351161,-0.19738,0.239223,0
2024-12-13 15:33:39.351,-0.97687,4.96301,10.9962,0.292519,-0.213873,0.23006,0
2024-12-13 15:33:39.354,-0.972084,4.97498,11.0297,0.227159,-0.219371,0.221508,0
2024-12-13 15:33:39.356,-0.99362,4.99173,11.0967,0.160576,-0.215095,0.212346,0
2024-12-13 15:33:39.358,-1.0319,4.98933,11.2116,0.0897182,-0.20471,0.203794,0
2024-12-13 15:33:39.361,-1.04387,4.94866,11.348,0.0188599,-0.188217,0.197685,0
2024-12-13 15:33:39.363,-0.981655,4.89362,11.5062,-0.0526092,-0.161951,0.191577,0
2024-12-13 15:33:39.366,-0.979263,4.8003,11.6593,-0.119802,-0.134463,0.183025,0
2024-12-13 15:33:39.368,-0.99362,4.68275,11.846,-0.185163,-0.0978119,0.178138,0
2024-12-13 15:33:39.370,-0.885943,4.55115,12.0422,-0.251135,-0.0593285,0.174473,0
2024-12-13 15:33:39.373,-0.737288,4.39083,12.2339,-0.307943,-0.021456,0.1647,0
2024-12-13 15:33:39.375,-0.579362,4.23051,12.4445,-0.307943,-0.021456,0.1647,0
2024-12-13 15:33:39.380,-0.371187,3.96461,12.8659,-0.446606,0.0988809,0.124918,0
2024-12-13 15:33:39.380,-0.371187,3.96461,12.8659,-0.446606,0.0988809,0.124918,0
2024-12-13 15:33:39.382,-0.285045,3.87607,13.0645,-0.476537,0.137975,0.106593,0
2024-12-13 15:33:39.384,-0.198604,3.8019,13.2084,-0.497306,0.175237,0.0907108,0
2024-12-13 15:33:39.387,-0.141177,3.75883,13.3137,-0.511966,0.208223,0.0711637,0
2024-12-13 15:33:39.389,-0.0981057,3.7349,13.3926,-0.520518,0.233878,0.0503949,0
2024-12-13 15:33:39.391,-0.0765703,3.71815,13.4453,-0.525405,0.25648,0.033902,0
2024-12-13 15:33:39.394,-0.0717847,3.68943,13.4548,-0.525405,0.25648,0.033902,0
2024-12-13 15:33:39.396,-0.0646062,3.67508,13.4213,-0.50708,0.283357,0.00213797,0
2024-12-13 15:33:39.398,-0.0909273,3.67747,13.3496,-0.488754,0.288854,-0.0106898,0
2024-12-13 15:33:39.401,-0.129212,3.6679,13.2443,-0.464931,0.288244,-0.0229068,0
2024-12-13 15:33:39.403,-0.138784,3.63171,13.1124,-0.43561,0.282746,-0.0314586,0
2024-12-13 15:33:39.407,-0.133998,3.57667,12.9808,-0.361087,0.254647,-0.0424539,0
2024-12-13 15:33:39.408,-0.114855,3.51446,12.83,-0.361087,0.254647,-0.0424539,0
2024-12-13 15:33:39.410,-0.0837488,3.44985,12.6362,-0.316495,0.236322,-0.0485624,0
2024-12-13 15:33:39.413,-0.0574277,3.39482,12.4182,-0.271903,0.210666,-0.0528383,0
2024-12-13 15:33:39.415,-0.026321,3.34696,12.1765,-0.220592,0.183789,-0.0534491,0
2024-12-13 15:33:39.417,0.0167498,3.31585,11.9249,-0.166227,0.155079,-0.0558925,0
2024-12-13 15:33:39.420,0.0717847,3.29671,11.6737,-0.11064,0.12698,-0.0583359,0
2024-12-13 15:33:39.422,0.114855,3.3015,11.3791,-0.0538309,0.101935,-0.0589468,0
2024-12-13 15:33:39.427,0.160319,3.31825,10.7183,0.058565,0.0524565,-0.0601685,0
2024-12-13 15:33:39.427,0.205783,3.33021,10.7183,0.058565,0.0524565,-0.0601685,0
2024-12-13 15:33:39.429,0.260818,3.335,10.3687,0.111709,0.0335202,-0.0626118,0
2024-12-13 15:33:39.431,0.311366,3.35175,10.0146,0.163631,0.0164165,-0.062001,0
2024-12-13 15:33:39.434,0.347258,3.37807,9.66491,0.21372,0.00847551,-0.0638335,0
2024-12-13 15:33:39.436,0.404686,3.402,9.30838,0.260145,0.000534491,-0.0650552,0
2024-12-13 15:33:39.439,0.464507,3.44028,8.95873,0.30046,-0.00374144,-0.0656661,0
2024-12-13 15:33:39.441,0.512363,3.48574,8.62583,0.337722,-0.00679568,-0.0668878,0
2024-12-13 15:33:39.443,0.663111,3.46899,8.3363,0.368341,-0.00984991,-0.0711637,0
2024-12-13 15:33:39.446,0.809073,3.4331,8.08475,0.398883,-0.021456,-0.0791047,0
2024-12-13 15:33:39.448,0.756431,3.50489,7.69472,0.421485,-0.0238994,-0.085824,0
2024-12-13 15:33:39.450,0.842872,3.51446,7.37378,0.436756,-0.021456,-0.0925434,0
2024-12-13 15:33:39.453,0.931406,3.50728,7.13211,0.44714,-0.0300079,-0.104149,0
2024-12-13 15:33:39.455,0.895514,3.55753,6.78006,0.452027,-0.0281753,-0.110869,0
2024-12-13 15:33:39.457,0.895514,3.60539,6.469,0.452027,-0.0281753,-0.110869,0
2024-12-13 15:33:39.460,0.876371,3.67508,6.18395,0.441643,-0.0147367,-0.127972,0
2024-12-13 15:33:39.462,0.885943,3.71815,5.92313,0.426371,-0.00496313,-0.136524,0
2024-12-13 15:33:39.464,0.878764,3.77797,5.68834,0.406213,0.00297788,-0.144465,0
2024-12-13 15:33:39.467,0.917049,3.85215,5.51845,0.379336,0.010308,-0.152406,0
2024-12-13 15:33:39.469,0.888335,3.90479,5.41077,0.348107,0.0170274,-0.158515,0
2024-12-13 15:33:39.471,0.720539,3.94786,5.21187,0.316953,0.0286335,-0.165845,0
2024-12-13 15:33:39.474,0.488435,3.98854,4.9678,0.27847,0.0439046,-0.165234,0
2024-12-13 15:33:39.476,0.294616,4.00768,4.81705,0.234489,0.0591758,-0.164012,0
2024-12-13 15:33:39.479,0.217747,4.00768,4.74257,0.189286,0.0726145,-0.160347,0
2024-12-13 15:33:39.481,0.131605,4.03639,4.65643,0.143473,0.086664,-0.156682,0
2024-12-13 15:33:39.483,0.107677,4.08186,4.59183,0.094605,0.1056,-0.151185,0
2024-12-13 15:33:39.486,0.196211,4.06032,4.60858,0.0469589,0.120871,-0.146298,0
2024-12-13 15:33:39.488,0.282652,3.98375,4.65404,-0.0019089,0.130645,-0.143855,0
2024-12-13 15:33:39.490,0.34008,3.89522,4.7019,-0.0471116,0.143473,-0.145076,0
2024-12-13 15:33:39.497,0.390329,3.64128,4.91037,-0.167449,0.177069,-0.167678,0
2024-12-13 15:33:39.497,0.390329,3.64128,4.91037,-0.167449,0.177069,-0.167678,0
2024-12-13 15:33:39.500,0.402293,3.51446,5.03001,-0.200434,0.185621,-0.178062,0
2024-12-13 15:33:39.500,0.402293,3.51446,5.03001,-0.200434,0.185621,-0.178062,0
2024-12-13 15:33:39.504,0.349651,3.37567,5.14487,-0.229755,0.194173,-0.188446,0
2024-12-13 15:33:39.504,0.349651,3.37567,5.14487,-0.229755,0.194173,-0.188446,0
2024-12-13 15:33:39.507,0.330509,3.335,5.22622,-0.281066,0.216774,-0.206161,0
2024-12-13 15:33:39.509,0.292223,3.28714,5.30997,-0.301835,0.224715,-0.216545,0
2024-12-13 15:33:39.512,0.229711,3.24646,5.39402,-0.315884,0.229602,-0.228151,0
2024-12-13 15:33:39.514,0.160319,3.20578,5.48016,-0.329934,0.232046,-0.236703,0
2024-12-13 15:33:39.516,0.0885344,3.1675,5.6022,-0.339707,0.230824,-0.244033,0
2024-12-13 15:33:39.519,0.0119641,3.12682,5.75294,-0.345816,0.225326,-0.250753,0
2024-12-13 15:33:39.521,-0.0598206,3.07627,5.89442,-0.34887,0.216774,-0.25564,0
2024-12-13 15:33:39.523,-0.12682,3.02124,6.04038,-0.348259,0.203336,-0.256861,0
2024-12-13 15:33:39.526,-0.184247,2.94706,6.2007,-0.342762,0.188065,-0.258694,0
2024-12-13 15:33:39.528,-0.236889,2.87049,6.33948,-0.337264,0.168517,-0.258694,0
2024-12-13 15:33:39.530,-0.27996,2.79871,6.46182,-0.323825,0.146527,-0.257472,0
2024-12-13 15:33:39.533,-0.32333,2.73888,6.60539,-0.31283,0.124536,-0.256861,0
2024-12-13 15:33:39.535,-0.371187,2.69821,6.73939,-0.296948,0.100713,-0.253807,0
2024-12-13 15:33:39.537,-0.414257,2.65514,6.85424,-0.279234,0.0787229,-0.250753,0
2024-12-13 15:33:39.540,-0.447757,2.6001,6.9667,-0.259076,0.0579541,-0.245866,0
2024-12-13 15:33:39.542,-0.474078,2.54507,7.06511,-0.238307,0.0359636,-0.242812,0
2024-12-13 15:33:39.545,-0.493221,2.49691,7.15125,-0.217538,0.0158057,-0.237314,0
2024-12-13 15:33:39.547,-0.507577,2.47059,7.23261,-0.192493,-0.00435229,-0.233038,0
2024-12-13 15:33:39.549,-0.529113,2.44188,7.29482,-0.171114,-0.0245102,-0.228151,0
2024-12-13 15:33:39.552,-0.553041,2.4012,7.35943,-0.14668,-0.0422248,-0.223876,0
2024-12-13 15:33:39.554,-0.567398,2.36291,7.42642,-0.122246,-0.0587177,-0.215935,0
2024-12-13 15:33:39.559,-0.569791,2.31745,7.47907,-0.0794865,-0.085595,-0.206772,0
2024-12-13 15:33:39.559,-0.569791,2.31745,7.47907,-0.0794865,-0.085595,-0.206772,0
2024-12-13 15:33:39.561,-0.569791,2.29831,7.50299,-0.0556635,-0.0965902,-0.200663,0
2024-12-13 15:33:39.563,-0.588933,2.2672,7.50778,-0.0355055,-0.107585,-0.195166,0
2024-12-13 15:33:39.566,-0.60329,2.2337,7.51017,-0.0190126,-0.118581,-0.187836,0
2024-12-13 15:33:39.568,-0.598505,2.20738,7.49103,-0.00251974,-0.1253,-0.181116,0
2024-12-13 15:33:39.570,-0.610469,2.18824,7.45753,0.010308,-0.13263,-0.172564,0
2024-12-13 15:33:39.573,-0.62004,2.17149,7.45035,0.010308,-0.13263,-0.172564,0
2024-12-13 15:33:39.575,-0.627219,2.13081,7.43121,0.0371853,-0.142404,-0.157293,0
2024-12-13 15:33:39.577,-0.63679,2.11406,7.4025,0.0481806,-0.144236,-0.14813,0
2024-12-13 15:33:39.580,-0.646361,2.11645,7.38575,0.0610084,-0.149123,-0.140189,0
2024-12-13 15:33:39.586,-0.658325,2.11645,7.30439,0.0848314,-0.157675,-0.114534,0
2024-12-13 15:33:39.587,-0.663111,2.12124,7.25414,0.0848314,-0.157675,-0.114534,0
2024-12-13 15:33:39.587,-0.663111,2.12124,7.25414,0.0848314,-0.157675,-0.114534,0
2024-12-13 15:33:39.589,-0.667897,2.13081,7.19911,0.0909399,-0.16134,-0.104149,0
2024-12-13 15:33:39.592,-0.682254,2.12602,7.15364,0.0952158,-0.161951,-0.0949868,0
2024-12-13 15:33:39.596,-0.706182,2.14517,7.05793,0.104379,-0.163173,-0.0797156,0
2024-12-13 15:33:39.596,-0.706182,2.14517,7.05793,0.104379,-0.163173,-0.0797156,0
2024-12-13 15:33:39.599,-0.715753,2.14038,7.01725,0.108044,-0.163783,-0.0681095,0
2024-12-13 15:33:39.601,-0.742074,2.14517,6.9691,0.11232,-0.159507,-0.0565034,0
2024-12-13 15:33:39.606,-0.76361,2.15234,6.9021,0.115374,-0.16134,-0.038178,0
2024-12-13 15:33:39.606,-0.76361,2.15234,6.9021,0.115374,-0.16134,-0.038178,0
2024-12-13 15:33:39.610,-0.794716,2.17866,6.8686,0.11293,-0.159507,-0.01802,0
2024-12-13 15:33:39.610,-0.794716,2.17866,6.8686,0.11293,-0.159507,-0.01802,0
2024-12-13 15:33:39.613,-0.780359,2.21934,6.86381,0.11232,-0.154621,-0.00702474,0
2024-12-13 15:33:39.615,-0.751645,2.25045,6.84467,0.108654,-0.153399,0.000305424,0
2024-12-13 15:33:39.618,-0.749253,2.27199,6.82313,0.107433,-0.148512,0.00763559,0
2024-12-13 15:33:39.620,-0.749253,2.28395,6.80878,0.103157,-0.146069,0.0143549,0
2024-12-13 15:33:39.622,-0.744467,2.3007,6.77767,0.0982701,-0.13935,0.0222959,0
2024-12-13 15:33:39.625,-0.727717,2.31506,6.74656,0.0915507,-0.134463,0.0265719,0
2024-12-13 15:33:39.627,-0.691825,2.33181,6.72981,0.0854423,-0.126522,0.0314586,0
2024-12-13 15:33:39.629,-0.651147,2.35334,6.74417,0.0781121,-0.121635,0.0345129,0
2024-12-13 15:33:39.632,-0.622433,2.37488,6.78485,0.0707819,-0.114916,0.0351237,0
2024-12-13 15:33:39.634,-0.605683,2.39163,6.82553,0.0640626,-0.111251,0.0357346,0
2024-12-13 15:33:39.636,-0.567398,2.4012,6.8686,0.0591758,-0.108807,0.0345129,0
2024-12-13 15:33:39.639,-0.524327,2.40598,6.88535,0.0487914,-0.106975,0.0326803,0
2024-12-13 15:33:39.641,-0.500399,2.41555,6.90449,0.0390179,-0.106364,0.0302369,0
2024-12-13 15:33:39.643,-0.488435,2.42273,6.91406,0.0292443,-0.106975,0.0235176,0
2024-12-13 15:33:39.646,-0.483649,2.40359,6.92602,0.0182491,-0.111251,0.0155766,0
2024-12-13 15:33:39.648,-0.481256,2.37488,6.94995,0.00664296,-0.112472,0.00946813,0
2024-12-13 15:33:39.650,-0.481256,2.35573,6.9667,-0.00557398,-0.116137,0.00397051,0
2024-12-13 15:33:39.653,-0.469292,2.34138,6.99781,-0.0147367,-0.122246,-0.00335966,0
2024-12-13 15:33:39.655,-0.445364,2.33181,7.03639,-0.0306187,-0.129576,-0.0113007,0
2024-12-13 15:33:39.658,-0.409472,2.32463,7.08186,-0.0446682,-0.137517,-0.0229068,0
2024-12-13 15:33:39.660,-0.364008,2.31984,7.14407,-0.057496,-0.144847,-0.033902,0
2024-12-13 15:33:39.665,-0.32333,2.32702,7.2685,-0.065437,-0.155232,-0.0485624,0
2024-12-13 15:33:39.667,-0.256032,2.34377,7.32832,-0.0807082,-0.167449,-0.0791047,0
2024-12-13 15:33:39.667,-0.256032,2.34377,7.32832,-0.0807082,-0.167449,-0.0791047,0
2024-12-13 15:33:39.669,-0.232104,2.35095,7.38814,-0.0880384,-0.171114,-0.0962084,0
2024-12-13 15:33:39.674,-0.172283,2.41077,7.48864,-0.0947577,-0.170503,-0.131638,0
2024-12-13 15:33:39.676,-0.0526421,2.45145,7.57478,-0.0965902,-0.171114,-0.148741,0
2024-12-13 15:33:39.676,-0.0526421,2.45145,7.57478,-0.0965902,-0.171114,-0.148741,0
2024-12-13 15:33:39.679,-0.00717847,2.46102,7.66361,-0.0947577,-0.16867,-0.16951,0
2024-12-13 15:33:39.681,-0.112463,2.47059,7.62533,-0.0892601,-0.160729,-0.189057,0
2024-12-13 15:33:39.683,-0.200997,2.48973,7.53889,-0.0868167,-0.148512,-0.204328,0
2024-12-13 15:33:39.686,-0.267996,2.48495,7.52932,-0.0837624,-0.136295,-0.22021,0
2024-12-13 15:33:39.688,-0.318545,2.49452,7.53171,-0.0788757,-0.123468,-0.233038,0
2024-12-13 15:33:39.691,-0.316152,2.51845,7.51496,-0.0752106,-0.111251,-0.245866,0
2024-12-13 15:33:39.693,-0.272782,2.54267,7.50539,-0.0715455,-0.0984228,-0.258694,0
2024-12-13 15:33:39.695,-0.234497,2.57139,7.48146,-0.065437,-0.0868167,-0.272132,0
2024-12-13 15:33:39.698,-0.215354,2.60967,7.42882,-0.0617719,-0.0745997,-0.283739,0
2024-12-13 15:33:39.700,-0.208176,2.66231,7.36421,-0.0556635,-0.0617719,-0.296566,0
2024-12-13 15:33:39.702,-0.212961,2.70539,7.31635,-0.0532201,-0.0501658,-0.306951,0
2024-12-13 15:33:39.705,-0.234497,2.74846,7.27328,-0.0489441,-0.0385597,-0.321611,0
2024-12-13 15:33:39.707,-0.272782,2.79392,7.19911,-0.0477224,-0.0300079,-0.333217,0
2024-12-13 15:33:39.709,-0.301795,2.82742,7.12014,-0.0489441,-0.0226777,-0.341769,0
2024-12-13 15:33:39.712,-0.318545,2.88963,7.04357,-0.0513875,-0.0171801,-0.351543,0
2024-12-13 15:33:39.714,-0.332901,2.9686,6.96431,-0.0599394,-0.0129041,-0.363149,0
2024-12-13 15:33:39.716,-0.366401,3.02124,6.88535,-0.0660479,-0.00862822,-0.372311,0
2024-12-13 15:33:39.719,-0.421436,3.07867,6.80638,-0.0745997,-0.00313059,-0.381474,0
2024-12-13 15:33:39.721,-0.469292,3.13639,6.72981,-0.0862058,-0.000687203,-0.393691,0
2024-12-13 15:33:39.723,-0.541077,3.19861,6.66521,-0.102088,0.00236703,-0.402243,0
2024-12-13 15:33:39.726,-0.627219,3.2656,6.6341,-0.117359,0.00542127,-0.406519,0
2024-12-13 15:33:39.728,-0.684646,3.32064,6.61735,-0.135074,0.0096972,-0.413238,0
2024-12-13 15:33:39.731,-0.732503,3.37328,6.61974,-0.15401,0.0115297,-0.419957,0
2024-12-13 15:33:39.733,-0.782752,3.42592,6.65324,-0.173557,0.0139731,-0.425455,0
2024-12-13 15:33:39.735,-0.82343,3.48096,6.71546,-0.194326,0.0151948,-0.430342,0
2024-12-13 15:33:39.740,-0.862014,3.56949,6.92363,-0.235253,0.0139731,-0.440726,0
2024-12-13 15:33:39.740,-0.862014,3.56949,6.92363,-0.235253,0.0139731,-0.440726,0
2024-12-13 15:33:39.745,-0.881157,3.60778,7.22782,-0.272514,0.00236703,-0.451111,0
2024-12-13 15:33:39.747,-0.952942,3.67508,7.32353,-0.290229,-0.00435229,-0.455997,0
2024-12-13 15:33:39.747,-0.952942,3.67508,7.32353,-0.290229,-0.00435229,-0.455997,0
2024-12-13 15:33:39.749,-1.02473,3.7325,7.45992,-0.290229,-0.00435229,-0.455997,0
2024-12-13 15:33:39.752,-1.09651,3.76361,7.63729,-0.325658,-0.0202343,-0.464549,0
2024-12-13 15:33:39.754,-1.17787,3.79711,7.80479,-0.342151,-0.0306187,-0.466382,0
2024-12-13 15:33:39.756,-1.28076,3.82343,7.98186,-0.353757,-0.0483333,-0.466382,0
2024-12-13 15:33:39.759,-1.38126,3.82822,8.18794,-0.369028,-0.0672696,-0.464549,0
2024-12-13 15:33:39.761,-1.45573,3.84497,8.41526,-0.378802,-0.0849841,-0.45783,0
2024-12-13 15:33:39.764,-1.49163,3.87129,8.6665,-0.387354,-0.105753,-0.453554,0
2024-12-13 15:33:39.766,-1.47727,3.8689,8.91087,-0.393462,-0.124689,-0.447446,0
2024-12-13 15:33:39.768,-1.42702,3.84257,9.18126,-0.395905,-0.145458,-0.440115,0
2024-12-13 15:33:39.771,-1.37647,3.82822,9.47109,-0.397127,-0.166838,-0.432174,0
2024-12-13 15:33:39.773,-1.30947,3.833,9.75105,-0.390408,-0.187606,-0.427898,0
2024-12-13 15:33:39.775,-1.21615,3.86172,10.0337,-0.380634,-0.21204,-0.423623,0
2024-12-13 15:33:39.778,-1.12044,3.88564,10.3041,-0.367196,-0.235253,-0.421179,0
2024-12-13 15:33:39.780,-1.01994,3.89761,10.5676,-0.348259,-0.256021,-0.419347,0
2024-12-13 15:33:39.785,-0.8668,3.96222,11.0225,-0.295116,-0.296337,-0.419957,0
2024-12-13 15:33:39.785,-0.8668,3.96222,11.0225,-0.295116,-0.296337,-0.419957,0
2024-12-13 15:33:39.787,-0.813859,3.99093,11.1996,-0.261519,-0.31283,-0.419957,0
2024-12-13 15:33:39.789,-0.773181,4.03161,11.3456,-0.223646,-0.330545,-0.416903,0
2024-12-13 15:33:39.792,-0.718146,4.08186,11.415,-0.181498,-0.346427,-0.415682,0
2024-12-13 15:33:39.794,-0.672682,4.13928,11.4197,-0.143015,-0.36292,-0.411406,0
2024-12-13 15:33:39.797,-0.660718,4.21376,11.4006,-0.0990336,-0.378191,-0.404686,0
2024-12-13 15:33:39.799,-0.629611,4.26401,11.3958,-0.0568851,-0.394073,-0.396745,0
2024-12-13 15:33:39.801,-0.545863,4.28794,11.4102,-0.0165692,-0.409344,-0.388193,0
2024-12-13 15:33:39.806,-0.366401,4.3334,11.4485,0.0646735,-0.436832,-0.369868,0
2024-12-13 15:33:39.808,-0.275175,4.34297,11.4293,0.104379,-0.447827,-0.361927,0
2024-12-13 15:33:39.808,-0.275175,4.34297,11.4293,0.104379,-0.447827,-0.361927,0
2024-12-13 15:33:39.811,-0.193819,4.35972,11.403,0.144694,-0.453325,-0.352153,0
2024-12-13 15:33:39.815,-0.0622134,4.40519,11.3527,0.185621,-0.453325,-0.343602,0
2024-12-13 15:33:39.818,-0.0311067,4.46261,11.3432,0.259534,-0.431945,-0.32772,0
2024-12-13 15:33:39.818,-0.0311067,4.46261,11.3432,0.259534,-0.431945,-0.32772,0
2024-12-13 15:33:39.820,0.00717847,4.5679,11.3001,0.294963,-0.409955,-0.315503,0
2024-12-13 15:33:39.822,0.0550349,4.69711,11.2164,0.294963,-0.409955,-0.315503,0
2024-12-13 15:33:39.825,0.0885344,4.84816,11.1087,0.361545,-0.3562,-0.298399,0
2024-12-13 15:33:39.827,0.0957129,5.02044,10.9843,0.388499,-0.32688,-0.290458,0
2024-12-13 15:33:39.829,0.0909273,5.22383,10.8523,0.413544,-0.295116,-0.281906,0
2024-12-13 15:33:39.832,0.0717847,5.42273,10.7136,0.430647,-0.262741,-0.271522,0
2024-12-13 15:33:39.834,0.040678,5.6022,10.5652,0.437367,-0.234642,-0.266024,0
2024-12-13 15:33:39.837,0.0191426,5.79841,10.4432,0.443475,-0.210208,-0.259305,0
2024-12-13 15:33:39.839,-0.00478565,5.98056,10.3735,0.440421,-0.190661,-0.252585,0
2024-12-13 15:33:39.841,-0.0287139,6.12174,10.3567,0.433702,-0.174779,-0.24892,0
2024-12-13 15:33:39.844,-0.0382852,6.22941,10.4097,0.419041,-0.16134,-0.244033,0
2024-12-13 15:33:39.846,-0.0478565,6.32752,10.5197,0.40377,-0.151566,-0.242201,0
2024-12-13 15:33:39.848,-0.0478565,6.38734,10.6418,0.383001,-0.145458,-0.239147,0
2024-12-13 15:33:39.851,-0.0598206,6.41366,10.8021,0.358491,-0.13996,-0.24159,0
2024-12-13 15:33:39.853,-0.11007,6.43041,11.001,0.330392,-0.135074,-0.247088,0
2024-12-13 15:33:39.855,-0.181855,6.43759,11.2235,0.30046,-0.127743,-0.250753,0
2024-12-13 15:33:39.858,-0.260818,6.43759,11.4939,0.272972,-0.116748,-0.256861,0
2024-12-13 15:33:39.860,-0.35683,6.43041,11.8077,0.241208,-0.110029,-0.260526,0
2024-12-13 15:33:39.865,-0.545863,6.44238,12.533,0.17035,-0.102699,-0.264191,0
2024-12-13 15:33:39.865,-0.545863,6.44238,12.533,0.17035,-0.102699,-0.264191,0
2024-12-13 15:33:39.867,-0.629611,6.4328,12.9257,0.136143,-0.0984228,-0.266024,0
2024-12-13 15:33:39.870,-0.694218,6.39452,13.3161,0.103768,-0.0941468,-0.26297,0
2024-12-13 15:33:39.872,-0.725324,6.31795,13.6798,0.0720036,-0.0923143,-0.258083,0
2024-12-13 15:33:39.874,-0.739681,6.24856,14.0198,0.0420721,-0.0898709,-0.251974,0
2024-12-13 15:33:39.877,-0.751645,6.17917,14.3551,0.0164165,-0.0862058,-0.245866,0
2024-12-13 15:33:39.879,-0.766002,6.08824,14.6782,-0.00740652,-0.081319,-0.237925,0
2024-12-13 15:33:39.881,-0.773181,5.9686,14.9871,-0.0251211,-0.0752106,-0.229984,0
2024-12-13 15:33:39.884,-0.751645,5.83909,15.3174,-0.0391706,-0.0697129,-0.2196,0
2024-12-13 15:33:39.886,-0.718146,5.71227,15.6455,-0.049555,-0.0605502,-0.211048,0
2024-12-13 15:33:39.888,-0.689432,5.57109,15.9637,-0.0513875,-0.049555,-0.200663,0
2024-12-13 15:33:39.891,-0.660718,5.4347,16.2847,-0.049555,-0.0397814,-0.19089,0
2024-12-13 15:33:39.893,-0.622433,5.29801,16.5553,-0.0403923,-0.0269536,-0.178673,0
2024-12-13 15:33:39.895,-0.598505,5.14726,16.7851,-0.029397,-0.0153475,-0.168288,0
2024-12-13 15:33:39.898,-0.600898,5.01566,16.9908,-0.0116825,-0.00374144,-0.154239,0
2024-12-13 15:33:39.900,-0.632004,4.90798,17.1754,0.010308,0.0096972,-0.1408,0
2024-12-13 15:33:39.905,-0.667897,4.69233,17.3764,0.0677277,0.0316877,-0.105371,0
2024-12-13 15:33:39.905,-0.679861,4.69233,17.3764,0.0677277,0.0316877,-0.105371,0
2024-12-13 15:33:39.907,-0.655932,4.56072,17.4434,0.0982701,0.0353528,-0.0882674,0
2024-12-13 15:33:39.910,-0.622433,4.42194,17.5104,0.131256,0.0371853,-0.0754396,0
2024-12-13 15:33:39.912,-0.588933,4.28555,17.5367,0.170961,0.0365745,-0.0571142,2
2024-12-13 15:33:39.914,-0.54347,4.15125,17.5343,0.212498,0.0335202,-0.0442864,0
2024-12-13 15:33:39.917,-0.495613,4.02921,17.4841,0.252204,0.0255792,-0.0308478,0
2024-12-13 15:33:39.919,-0.428614,3.91914,17.3692,0.296185,0.0188599,-0.0192417,0
2024-12-13 15:33:39.921,-0.373579,3.81625,17.185,0.337111,0.00908635,-0.00946813,0
2024-12-13 15:33:39.924,-0.32333,3.73968,16.9669,0.379336,-0.0019089,-0.00274881,0
2024-12-13 15:33:39.928,-0.179462,3.62931,16.3756,0.456303,-0.0251211,0.00824644,0
2024-12-13 15:33:39.928,-0.179462,3.62931,16.3756,0.456303,-0.0251211,0.00824644,0
2024-12-13 15:33:39.931,-0.0981057,3.58624,16.0597,0.493565,-0.033673,0.0106898,0
2024-12-13 15:33:39.933,-0.0167498,3.54317,15.7412,0.527161,-0.0452791,0.00946813,0
2024-12-13 15:33:39.935,0.0550349,3.51924,15.425,0.557093,-0.0587177,0.00763559,0
2024-12-13 15:33:39.938,0.0957129,3.49771,15.1188,0.588246,-0.0721563,0.00702474,0
2024-12-13 15:33:39.940,0.119641,3.5001,14.7954,0.617567,-0.0849841,0.00213797,0
2024-12-13 15:33:39.943,0.172283,3.51446,14.4485,0.643222,-0.0953685,-0.000916271,0
2024-12-13 15:33:39.945,0.215354,3.53121,14.0773,0.668267,-0.108196,-0.00397051,0
2024-12-13 15:33:39.947,0.241675,3.5336,13.6941,0.690868,-0.119192,-0.0106898,0
2024-12-13 15:33:39.950,0.265603,3.51446,13.3041,0.707361,-0.129576,-0.0192417,0
2024-12-13 15:33:39.952,0.258425,3.51685,12.9162,0.720189,-0.137517,-0.0241285,0
2024-12-13 15:33:39.954,0.244068,3.53839,12.5402,0.731795,-0.141182,-0.0302369,0
2024-12-13 15:33:39.957,0.224925,3.55514,12.1884,0.737903,-0.145458,-0.0387888,0
2024-12-13 15:33:39.959,0.20339,3.56471,11.8388,0.736682,-0.149123,-0.046119,0
2024-12-13 15:33:39.961,0.198604,3.58624,11.511,0.734849,-0.148512,-0.0522274,0
2024-12-13 15:33:39.964,0.184247,3.62453,11.214,0.728741,-0.14668,-0.0583359,0
2024-12-13 15:33:39.966,0.157926,3.66551,10.9002,0.71347,-0.143015,-0.0626118,0
2024-12-13 15:33:39.971,0.0909273,3.75643,10.34,0.671932,-0.13263,-0.0681095,0
2024-12-13 15:33:39.971,0.0909273,3.75643,10.34,0.671932,-0.13263,-0.0681095,0
2024-12-13 15:33:39.973,0.0550349,3.78754,10.0744,0.645666,-0.122857,-0.0693312,0
2024-12-13 15:33:39.975,0.0382852,3.82582,9.81087,0.61268,-0.114916,-0.0705529,0
2024-12-13 15:33:39.978,0.0215354,3.86172,9.57877,0.575418,-0.105142,-0.0662769,0
2024-12-13 15:33:39.980,0.0191426,3.87847,9.38734,0.53327,-0.0917034,-0.0662769,0
2024-12-13 15:33:39.983,0.040678,3.88804,9.23869,0.488067,-0.0800973,-0.0644444,0
2024-12-13 15:33:39.985,0.0502493,3.9,9.1023,0.441643,-0.0697129,-0.062001,0
2024-12-13 15:33:39.987,0.040678,3.92393,8.95394,0.392164,-0.057496,-0.0607793,0
2024-12-13 15:33:39.990,0.0287139,3.95504,8.81277,0.3365,-0.0403923,-0.0571142,0
2024-12-13 15:33:39.994,-0.00478565,4.01964,8.63779,0.280303,-0.00435229,-0.0497841,0
2024-12-13 15:33:39.997,-0.0574277,4.04118,8.60429,0.280303,-0.00435229,-0.0497841,0
2024-12-13 15:33:39.999,-0.112463,4.05314,8.59711,0.108654,0.0316877,-0.0326803,0
2024-12-13 15:33:39.999,-0.112463,4.05314,8.59711,0.108654,0.0316877,-0.0326803,0
2024-12-13 15:33:40.001,-0.150748,4.06511,8.62104,0.0518457,0.046348,-0.0235176,0
2024-12-13 15:33:40.004,-0.184247,4.05075,8.66172,-0.00251974,0.0597867,-0.0149658,0
2024-12-13 15:33:40.008,-0.318545,4.01725,8.78884,-0.0587177,0.0695602,0.000305424,0
2024-12-13 15:33:40.008,-0.318545,4.01725,8.78884,-0.0587177,0.0695602,0.000305424,0
2024-12-13 15:33:40.011,-0.387936,3.98854,8.88694,-0.159507,0.0829989,0.0326803,0
2024-12-13 15:33:40.013,-0.4334,3.95982,8.99462,-0.207154,0.082388,0.0528383,0
2024-12-13 15:33:40.016,-0.474078,3.91914,9.1358,-0.207154,0.082388,0.0528383,0
2024-12-13 15:33:40.018,-0.490828,3.85454,9.27966,-0.28412,0.074447,0.0937651,0
2024-12-13 15:33:40.020,-0.500399,3.79711,9.41606,-0.313441,0.0646735,0.115756,0
2024-12-13 15:33:40.025,-0.483649,3.68465,9.65534,-0.366585,0.0377962,0.159202,0
2024-12-13 15:33:40.025,-0.483649,3.68465,9.65534,-0.366585,0.0377962,0.159202,0
2024-12-13 15:33:40.027,-0.454935,3.6341,9.77498,-0.384299,0.0249684,0.183025,0
2024-12-13 15:33:40.030,-0.411865,3.58624,9.90688,-0.394684,0.00908635,0.201961,0
2024-12-13 15:33:40.032,-0.359223,3.54078,10.0002,-0.400792,-0.00496313,0.22273,0
2024-12-13 15:33:40.034,-0.313759,3.50489,10.0935,-0.403846,-0.0147367,0.239834,0
2024-12-13 15:33:40.037,-0.267996,3.48574,10.1773,-0.39896,-0.0245102,0.256327,0
2024-12-13 15:33:40.039,-0.236889,3.47857,10.2347,-0.388575,-0.0330621,0.277096,0
2024-12-13 15:33:40.041,-0.224925,3.44028,10.273,-0.374526,-0.0355055,0.296032,0
2024-12-13 15:33:40.044,-0.198604,3.39721,10.2658,-0.354979,-0.0403923,0.313746,0
2024-12-13 15:33:40.046,-0.160319,3.37807,10.2275,-0.334821,-0.041614,0.333294,0
2024-12-13 15:33:40.049,-0.133998,3.3661,10.151,-0.309776,-0.041614,0.349176,0
2024-12-13 15:33:40.051,-0.12682,3.34696,10.0648,-0.282288,-0.0403923,0.363836,0
2024-12-13 15:33:40.053,-0.105284,3.31825,9.95713,-0.253578,-0.041614,0.38155,0
2024-12-13 15:33:40.056,-0.0717847,3.29193,9.81805,-0.223646,-0.037338,0.398043,0
2024-12-13 15:33:40.058,-0.0358923,3.27757,9.67927,-0.195547,-0.0361163,0.411482,0
2024-12-13 15:33:40.060,0.0191426,3.27996,9.52852,-0.166227,-0.0385597,0.42431,0
2024-12-13 15:33:40.063,0.0765703,3.28475,9.34906,-0.135684,-0.0391706,0.437748,0
2024-12-13 15:33:40.065,0.129212,3.29432,9.15015,-0.106975,-0.0440574,0.447522,0
2024-12-13 15:33:40.070,0.232104,3.30389,8.75534,-0.0587177,-0.0587177,0.463404,0
2024-12-13 15:33:40.070,0.232104,3.30389,8.75534,-0.0587177,-0.0587177,0.463404,0
2024-12-13 15:33:40.074,0.299402,3.29432,8.34347,-0.0171801,-0.073378,0.477454,0
2024-12-13 15:33:40.074,0.299402,3.29432,8.34347,-0.0171801,-0.073378,0.477454,0
2024-12-13 15:33:40.079,0.361615,3.27278,7.96272,0.0109189,-0.0837624,0.485395,0
2024-12-13 15:33:40.079,0.361615,3.27278,7.96272,0.0109189,-0.0837624,0.485395,0
2024-12-13 15:33:40.081,0.385544,3.27996,7.7665,0.0206925,-0.0880384,0.48906,0
2024-12-13 15:33:40.084,0.431007,3.27278,7.58226,0.0255792,-0.0941468,0.48967,0
2024-12-13 15:33:40.086,0.471685,3.27039,7.39771,0.0322986,-0.0910926,0.491503,0
2024-12-13 15:33:40.089,0.505185,3.28235,7.22064,0.0322986,-0.0923143,0.492725,0
2024-12-13 15:33:40.091,0.533899,3.29193,7.0675,0.0280226,-0.0910926,0.493336,0
2024-12-13 15:33:40.093,0.555434,3.2991,6.91406,0.0243575,-0.0874275,0.493336,0
2024-12-13 15:33:40.096,0.600898,3.32303,6.76092,0.0170274,-0.0782648,0.490281,0
2024-12-13 15:33:40.098,0.648754,3.35175,6.62453,0.00786466,-0.0703238,0.48967,0
2024-12-13 15:33:40.100,0.689432,3.37328,6.49532,0.00786466,-0.0703238,0.48967,0
2024-12-13 15:33:40.103,0.725324,3.39003,6.37777,-0.0177909,-0.0446682,0.480508,0
2024-12-13 15:33:40.105,0.749253,3.40439,6.3012,-0.0355055,-0.0287862,0.476232,0
2024-12-13 15:33:40.107,0.782752,3.4331,6.23181,-0.0538309,-0.00923906,0.471345,0
2024-12-13 15:33:40.110,0.813859,3.46899,6.18156,-0.0697129,0.0121406,0.464015,0
2024-12-13 15:33:40.114,0.835394,3.5001,6.10738,-0.107585,0.0512348,0.451187,0
2024-12-13 15:33:40.114,0.845265,3.51685,6.02124,-0.107585,0.0512348,0.451187,0
2024-12-13 15:33:40.117,0.852443,3.54317,5.99253,-0.127743,0.074447,0.444468,0
2024-12-13 15:33:40.119,0.854836,3.57428,5.96381,-0.144236,0.0976592,0.435916,0
2024-12-13 15:33:40.122,0.837787,3.59581,5.9351,-0.166838,0.117206,0.429197,0
2024-12-13 15:33:40.124,0.845265,3.63171,5.92313,-0.188828,0.137364,0.42431,0
2024-12-13 15:33:40.126,0.847657,3.65354,5.91117,-0.202878,0.153246,0.414536,0
2024-12-13 15:33:40.129,0.825823,3.67029,5.91356,-0.221203,0.166685,0.409649,0
2024-12-13 15:33:40.131,0.816252,3.68704,5.9327,-0.24075,0.181956,0.405984,0
2024-12-13 15:33:40.133,0.794716,3.69661,5.9662,-0.256021,0.19173,0.400487,0
2024-12-13 15:33:40.136,0.782752,3.71815,6.01406,-0.271293,0.202114,0.394989,0
2024-12-13 15:33:40.140,0.773181,3.71815,6.0667,-0.29817,0.211277,0.383994,0
2024-12-13 15:33:40.140,0.773181,3.71815,6.0667,-0.29817,0.211277,0.383994,0
2024-12-13 15:33:40.145,0.756431,3.74447,6.14806,-0.311608,0.215553,0.379107,0
2024-12-13 15:33:40.147,0.770788,3.75404,6.19831,-0.338486,0.214331,0.369334,0
2024-12-13 15:33:40.147,0.770788,3.75404,6.19831,-0.338486,0.214331,0.369334,0
2024-12-13 15:33:40.150,0.782752,3.77079,6.23899,-0.347648,0.210666,0.363836,0
2024-12-13 15:33:40.152,0.789931,3.78036,6.29163,-0.357422,0.204557,0.35956,0
2024-12-13 15:33:40.154,0.797109,3.77318,6.33948,-0.365363,0.196616,0.353451,0
2024-12-13 15:33:40.157,0.797109,3.77318,6.38734,-0.375137,0.190508,0.347954,0
2024-12-13 15:33:40.159,0.792323,3.80668,6.45195,-0.382467,0.181345,0.340624,0
2024-12-13 15:33:40.164,0.789931,3.82104,6.56232,-0.392851,0.167296,0.324742,0
2024-12-13 15:33:40.164,0.789931,3.82104,6.56232,-0.392851,0.167296,0.324742,0
2024-12-13 15:33:40.169,0.787538,3.833,6.67239,-0.403846,0.156301,0.307638,0
2024-12-13 15:33:40.169,0.787538,3.833,6.67239,-0.403846,0.156301,0.307638,0
2024-12-13 15:33:40.171,0.797109,3.84497,6.72503,-0.411787,0.153857,0.299697,0
2024-12-13 15:33:40.173,0.799502,3.84257,6.78485,-0.417285,0.14897,0.291145,0
2024-12-13 15:33:40.176,0.809073,3.833,6.84706,-0.423394,0.146527,0.28015,0
2024-12-13 15:33:40.178,0.804287,3.81386,6.90449,-0.428891,0.144084,0.267933,0
2024-12-13 15:33:40.183,0.758824,3.78275,7.01964,-0.436832,0.139808,0.247775,0
2024-12-13 15:33:40.183,0.758824,3.78275,7.01964,-0.436832,0.139808,0.247775,0
2024-12-13 15:33:40.185,0.751645,3.7684,7.09143,-0.44233,0.139197,0.236169,0
2024-12-13 15:33:40.187,0.742074,3.74447,7.15604,-0.450271,0.137975,0.224563,0
2024-12-13 15:33:40.190,0.734896,3.73011,7.22543,-0.455158,0.14164,0.214789,0
2024-12-13 15:33:40.192,0.722932,3.71097,7.302,-0.461266,0.145916,0.204405,0
2024-12-13 15:33:40.197,0.720539,3.67508,7.48624,-0.47165,0.158133,0.18669,0
2024-12-13 15:33:40.199,0.722932,3.67508,7.57239,-0.476537,0.168517,0.175695,0
2024-12-13 15:33:40.199,0.722932,3.67508,7.57239,-0.476537,0.168517,0.175695,0
2024-12-13 15:33:40.204,0.734896,3.65833,7.7354,-0.484478,0.18501,0.153704,0
2024-12-13 15:33:40.206,0.737288,3.64876,7.79522,-0.487532,0.196006,0.145153,0
2024-12-13 15:33:40.209,0.725324,3.61496,7.85265,-0.492419,0.207001,0.134157,0
2024-12-13 15:33:40.209,0.725324,3.61496,7.85265,-0.492419,0.207001,0.134157,0
2024-12-13 15:33:40.211,0.694218,3.55992,7.92682,-0.497306,0.219829,0.123086,0
2024-12-13 15:33:40.213,0.665504,3.50967,8.02732,-0.499139,0.230824,0.116977,0
2024-12-13 15:33:40.216,0.641576,3.46182,8.12064,-0.499139,0.230824,0.116977,0
2024-12-13 15:33:40.218,0.610469,3.40678,8.20469,-0.504025,0.255258,0.100484,0
2024-12-13 15:33:40.220,0.581755,3.37089,8.29322,-0.504636,0.266864,0.0955976,0
2024-12-13 15:33:40.223,0.553041,3.32064,8.38176,-0.505247,0.280303,0.0894891,0
2024-12-13 15:33:40.225,0.514756,3.27278,8.45594,-0.502193,0.291298,0.0839915,0
2024-12-13 15:33:40.227,0.495613,3.25364,8.54926,-0.499749,0.306569,0.0797156,0
2024-12-13 15:33:40.230,0.464507,3.21057,8.64975,-0.494252,0.323062,0.0748288,0
2024-12-13 15:33:40.235,0.423829,3.12682,8.79362,-0.480202,0.348717,0.0693312,0
2024-12-13 15:33:40.235,0.423829,3.12682,8.79362,-0.480202,0.348717,0.0693312,0
2024-12-13 15:33:40.237,0.395115,3.09571,8.8678,-0.469818,0.360934,0.0674986,0
2024-12-13 15:33:40.239,0.375972,3.06431,8.93959,-0.458823,0.374984,0.0674986,0
2024-12-13 15:33:40.246,0.318545,2.99492,9.15015,-0.413009,0.411635,0.069942,0
2024-12-13 15:33:40.246,0.318545,2.99492,9.15015,-0.413009,0.411635,0.069942,0
2024-12-13 15:33:40.249,0.299402,2.98774,9.18605,-0.391629,0.425684,0.0717745,0
2024-12-13 15:33:40.251,0.263211,2.9662,9.20997,-0.370861,0.436679,0.0711637,0
2024-12-13 15:33:40.251,0.263211,2.9662,9.20997,-0.370861,0.436679,0.0711637,0
2024-12-13 15:33:40.253,0.224925,2.93749,9.22433,-0.348259,0.445842,0.0705529,0
2024-12-13 15:33:40.256,0.18664,2.93031,9.24587,-0.322604,0.457448,0.0729962,0
2024-12-13 15:33:40.258,0.133998,2.92313,9.25305,-0.298781,0.463557,0.0760505,0
2024-12-13 15:33:40.260,0.0789631,2.90399,9.25065,-0.270682,0.469054,0.0772722,0
2024-12-13 15:33:40.263,0.0430708,2.88245,9.27009,-0.242583,0.472109,0.0809373,0
2024-12-13 15:33:40.265,0.0239282,2.87528,9.27249,-0.21204,0.47333,0.0864349,0
2024-12-13 15:33:40.268,0.00478565,2.85613,9.24826,-0.184552,0.470276,0.0901,0
2024-12-13 15:33:40.270,-0.0287139,2.85135,9.2028,-0.152788,0.466611,0.0949868,0
2024-12-13 15:33:40.272,-0.0574277,2.86092,9.1334,-0.122246,0.459281,0.0998735,0
2024-12-13 15:33:40.275,-0.0789631,2.85374,9.05683,-0.0959794,0.448286,0.10476,0
2024-12-13 15:33:40.277,-0.105284,2.84895,8.98744,-0.065437,0.43729,0.110258,0
2024-12-13 15:33:40.279,-0.133998,2.84178,8.91566,-0.037338,0.423241,0.116366,0
2024-12-13 15:33:40.282,-0.160319,2.82981,8.83669,-0.00923906,0.409191,0.123697,0
2024-12-13 15:33:40.284,-0.172283,2.82742,8.76012,0.0176382,0.396364,0.131027,0
2024-12-13 15:33:40.286,-0.177069,2.83699,8.67847,0.0414613,0.381703,0.137212,0
2024-12-13 15:33:40.289,-0.193819,2.84178,8.59951,0.066506,0.368875,0.145153,0
2024-12-13 15:33:40.291,-0.189033,2.85135,8.52054,0.0915507,0.352993,0.153094,0
2024-12-13 15:33:40.293,-0.179462,2.8657,8.41526,0.117206,0.337722,0.159202,0
2024-12-13 15:33:40.296,-0.167498,2.87049,8.31954,0.138586,0.324284,0.167143,0
2024-12-13 15:33:40.298,-0.143569,2.87049,8.22383,0.159355,0.309012,0.174473,0
2024-12-13 15:33:40.301,-0.136391,2.87528,8.09432,0.180734,0.293741,0.179971,0
2024-12-13 15:33:40.303,-0.119641,2.88724,7.9675,0.198449,0.281524,0.187301,0
2024-12-13 15:33:40.305,-0.0933201,2.88006,7.85025,0.21372,0.268696,0.19402,0
2024-12-13 15:33:40.308,-0.081356,2.88485,7.73061,0.228991,0.25709,0.198296,0
2024-12-13 15:33:40.310,-0.0885344,2.91117,7.60379,0.243041,0.245484,0.203183,0
2024-12-13 15:33:40.312,-0.0933201,2.92792,7.46949,0.253425,0.230213,0.206848,0
2024-12-13 15:33:40.315,-0.0885344,2.92792,7.34268,0.263199,0.217996,0.2154,0
2024-12-13 15:33:40.317,-0.0646062,2.91356,7.23261,0.272362,0.202725,0.218454,0
2024-12-13 15:33:40.319,-0.0430708,2.8992,7.12732,0.279081,0.192341,0.22273,0
2024-12-13 15:33:40.322,-0.0358923,2.90399,7.01217,0.279081,0.192341,0.22273,0
2024-12-13 15:33:40.326,0.00717847,2.90878,6.78485,0.288854,0.158133,0.235558,0
2024-12-13 15:33:40.326,0.00717847,2.90878,6.78485,0.288854,0.158133,0.235558,0
2024-12-13 15:33:40.329,0.0646062,2.8681,6.73221,0.289465,0.142251,0.237391,0
2024-12-13 15:33:40.331,0.122034,2.84417,6.68674,0.289465,0.127591,0.237391,0
2024-12-13 15:33:40.333,0.131605,2.85135,6.61017,0.288244,0.11293,0.239223,0
2024-12-13 15:33:40.336,0.12682,2.88724,6.52882,0.287633,0.100713,0.240445,0
2024-12-13 15:33:40.338,0.11007,2.94706,6.45703,0.284578,0.090329,0.24411,0
2024-12-13 15:33:40.341,0.100499,2.99492,6.39691,0.282135,0.0805555,0.250218,0
2024-12-13 15:33:40.345,0.0957129,3.04995,6.31556,0.272362,0.0597867,0.259992,0
2024-12-13 15:33:40.345,0.0957129,3.04995,6.31556,0.272362,0.0597867,0.259992,0
2024-12-13 15:33:40.348,0.107677,3.05234,6.30598,0.266864,0.0494023,0.265489,0
2024-12-13 15:33:40.350,0.124427,3.04277,6.31316,0.261366,0.0414613,0.27343,0
2024-12-13 15:33:40.352,0.157926,3.03559,6.31316,0.258312,0.0310769,0.278928,0
2024-12-13 15:33:40.355,0.205783,3.01406,6.32273,0.253425,0.0200816,0.284426,0
2024-12-13 15:33:40.357,0.263211,2.99252,6.32991,0.24976,0.0127514,0.290534,0
2024-12-13 15:33:40.359,0.32333,2.98056,6.32991,0.244873,0.00114534,0.293588,0
2024-12-13 15:33:40.364,0.435793,2.97817,6.32513,0.237543,-0.0184018,0.299697,0
2024-12-13 15:33:40.364,0.435793,2.97817,6.32513,0.237543,-0.0184018,0.299697,0
2024-12-13 15:33:40.366,0.488435,2.9686,6.32991,0.232656,-0.0281753,0.300919,0
2024-12-13 15:33:40.369,0.54347,2.99252,6.33709,0.231435,-0.0385597,0.30214,0
2024-12-13 15:33:40.371,0.572184,3.00449,6.36102,0.228381,-0.0471116,0.300308,0
2024-12-13 15:33:40.374,0.617647,3.00927,6.39691,0.226548,-0.0550526,0.300308,0
2024-12-13 15:33:40.376,0.665504,3.00449,6.4328,0.224105,-0.0623828,0.298475,0
2024-12-13 15:33:40.378,0.687039,3.01167,6.48575,0.22044,-0.0697129,0.297254,0
2024-12-13 15:33:40.381,0.715753,3.01884,6.536,0.221661,-0.0764323,0.295421,0
2024-12-13 15:33:40.383,0.754038,3.01884,6.58146,0.219829,-0.0843733,0.293588,0
2024-12-13 15:33:40.385,0.794716,3.02363,6.61496,0.219218,-0.0886492,0.293588,0
2024-12-13 15:33:40.388,0.862014,3.02363,6.65085,0.22105,-0.0996445,0.28748,0
2024-12-13 15:33:40.390,0.924228,3.01884,6.69631,0.219829,-0.108807,0.282593,0
2024-12-13 15:33:40.395,0.962513,3.02363,6.76331,0.214331,-0.13263,0.270376,0
2024-12-13 15:33:40.395,0.962513,3.02363,6.76331,0.214331,-0.13263,0.270376,0
2024-12-13 15:33:40.397,0.955334,2.98774,6.78485,0.211888,-0.145458,0.263657,0
2024-12-13 15:33:40.399,0.929013,2.95424,6.82074,0.208223,-0.158286,0.259381,0
2024-12-13 15:33:40.402,0.919442,2.95902,6.84706,0.204557,-0.172335,0.254494,0
2024-12-13 15:33:40.404,0.933799,2.97817,6.87578,0.19906,-0.19005,0.248386,0
2024-12-13 15:33:40.406,0.957727,2.97577,6.94517,0.196616,-0.204099,0.243499,0
2024-12-13 15:33:40.409,0.984048,2.98295,7.03639,0.188675,-0.218149,0.239223,0
2024-12-13 15:33:40.411,1.01994,2.9997,7.12493,0.186843,-0.232809,0.233725,0
2024-12-13 15:33:40.414,1.06062,3.01645,7.22303,0.179513,-0.246859,0.227617,0
2024-12-13 15:33:40.416,1.10369,3.02363,7.3331,0.17768,-0.260908,0.220898,0
2024-12-13 15:33:40.418,1.14676,3.02842,7.46471,0.17768,-0.268849,0.211735,0
2024-12-13 15:33:40.421,1.18983,3.05713,7.58944,0.175848,-0.276179,0.201961,0
2024-12-13 15:33:40.423,1.24487,3.10529,7.69233,0.176459,-0.279234,0.192188,0
2024-12-13 15:33:40.428,1.35015,3.17707,7.88375,0.180124,-0.273125,0.165921,0
2024-12-13 15:33:40.428,1.35015,3.17707,7.88375,0.180124,-0.273125,0.165921,0
2024-12-13 15:33:40.432,1.4342,3.35892,8.01057,0.183178,-0.245637,0.139655,0
2024-12-13 15:33:40.432,1.4342,3.35892,8.01057,0.183178,-0.245637,0.139655,0
2024-12-13 15:33:40.435,1.48205,3.48096,8.068,0.185621,-0.228533,0.123086,0
2024-12-13 15:33:40.437,1.52513,3.59821,8.09911,0.186843,-0.209597,0.105371,0
2024-12-13 15:33:40.439,1.54666,3.74447,8.09671,0.187454,-0.188217,0.0894891,0
2024-12-13 15:33:40.442,1.54427,3.92872,8.06082,0.183789,-0.16867,0.0687203,0
2024-12-13 15:33:40.444,1.4988,4.1345,8.00579,0.177069,-0.150345,0.0497841,0
2024-12-13 15:33:40.447,1.43181,4.34058,7.95793,0.166074,-0.133852,0.0290152,0
2024-12-13 15:33:40.449,1.35015,4.54158,7.92682,0.152635,-0.121635,0.00946813,0
2024-12-13 15:33:40.451,1.23769,4.72822,7.94836,0.130645,-0.113694,-0.0131332,0
2024-12-13 15:33:40.456,1.05105,5.0013,8.24298,0.0732253,-0.117359,-0.0528383,0
2024-12-13 15:33:40.456,1.05105,5.0013,8.24298,0.0732253,-0.117359,-0.0528383,0
2024-12-13 15:33:40.459,0.929013,5.10658,8.50619,0.00297788,-0.13996,-0.0901,0
2024-12-13 15:33:40.461,0.825823,5.19751,8.79841,0.00297788,-0.13996,-0.0901,0
2024-12-13 15:33:40.463,0.74686,5.25494,9.13101,-0.0330621,-0.15401,-0.110869,0
2024-12-13 15:33:40.466,0.677468,5.28126,9.47348,-0.0727672,-0.172335,-0.128583,0
2024-12-13 15:33:40.468,0.572184,5.28365,9.78934,-0.114916,-0.193715,-0.146298,0
2024-12-13 15:33:40.470,0.423829,5.29562,10.0983,-0.161951,-0.215095,-0.162791,0
2024-12-13 15:33:40.472,0.272782,5.29322,10.4456,-0.212651,-0.235863,-0.178062,0
2024-12-13 15:33:40.475,0.112463,5.26451,10.826,-0.26946,-0.260908,-0.190279,0
2024-12-13 15:33:40.477,-0.0598206,5.21665,11.2499,-0.329323,-0.284731,-0.198831,0
2024-12-13 15:33:40.479,-0.251246,5.12812,11.7239,-0.393462,-0.304889,-0.204328,0
2024-12-13 15:33:40.482,-0.457328,4.98694,12.2339,-0.463709,-0.321382,-0.207383,0
2024-12-13 15:33:40.484,-0.651147,4.84816,12.8587,-0.528459,-0.332377,-0.211659,0
2024-12-13 15:33:40.487,-0.833001,4.72822,13.596,-0.596874,-0.342151,-0.208604,0
2024-12-13 15:33:40.489,-1.01755,4.57508,14.3791,-0.6659,-0.344594,-0.197609,0
2024-12-13 15:33:40.494,-1.27837,4.19193,16.11,-0.733704,-0.343983,-0.179284,0
2024-12-13 15:33:40.496,-1.32622,3.98136,16.9621,-0.850376,-0.317717,-0.129194,0
2024-12-13 15:33:40.498,-1.33579,3.74925,17.7428,-0.899244,-0.281677,-0.0992627,0
2024-12-13 15:33:40.499,-1.32622,3.98136,16.9621,-0.899244,-0.281677,-0.0992627,0
2024-12-13 15:33:40.501,-1.36451,3.44985,18.3915,-0.937727,-0.231587,-0.0693312,0
2024-12-13 15:33:40.503,-1.32622,3.18903,18.8991,-0.977432,-0.153399,-0.0412322,0
2024-12-13 15:33:40.505,-1.24008,3.09811,19.4761,-1.00859,-0.0617719,-0.0174091,0
2024-12-13 15:33:40.508,-1.5682,3.268,19.835,-1.02386,0.030466,0.0131332,0
2024-12-13 15:33:40.510,-1.69502,3.37328,20.2947,-1.03607,0.135532,0.0626118,0
2024-12-13 15:33:40.515,-0.996012,2.91117,21.6619,-1.00309,0.249149,0.148207,0
2024-12-13 15:33:40.515,-0.996012,2.91117,21.6619,-1.00309,0.249149,0.148207,0
2024-12-13 15:33:40.517,-0.629611,2.60489,21.9754,-0.96888,0.290687,0.175084,0
2024-12-13 15:33:40.520,-0.234497,2.22891,22.1022,-0.920623,0.338333,0.194631,0
2024-12-13 15:33:40.522,0.177069,1.78355,22.0974,-0.865036,0.397585,0.200129,0
2024-12-13 15:33:40.524,0.593719,1.38604,22.0113,-0.799675,0.464168,0.190966,2
2024-12-13 15:33:40.527,0.979263,1.07019,21.9156,-0.726374,0.528917,0.168365,0
2024-12-13 15:33:40.529,1.26162,0.818644,21.8031,-0.643299,0.579618,0.137212,0
2024-12-13 15:33:40.531,1.43181,0.687039,21.5827,-0.54373,0.619934,0.0998735,0
2024-12-13 15:33:40.534,1.48205,0.675075,21.2357,-0.438665,0.651698,0.0558925,0
2024-12-13 15:33:40.536,1.39561,0.766002,20.7784,-0.32749,0.678575,0.0125224,0
2024-12-13 15:33:40.539,1.21376,0.9003,20.2684,-0.21204,0.702474,-0.0314586,0
2024-12-13 15:33:40.541,0.962513,1.10369,19.7441,-0.100255,0.709194,-0.0717745,0
2024-12-13 15:33:40.543,0.670289,1.37169,19.2269,0.0127514,0.704918,-0.106593,0
2024-12-13 15:33:40.545,0.330509,1.64955,18.6978,0.130034,0.692624,-0.135914,0
2024-12-13 15:33:40.548,-0.0239282,1.93669,18.0993,0.237543,0.665747,-0.157904,0
2024-12-13 15:33:40.550,-0.366401,2.18824,17.4338,0.345052,0.633983,-0.173175,0
2024-12-13 15:33:40.553,-0.665504,2.39641,16.7252,0.445308,0.596111,-0.178673,0
2024-12-13 15:33:40.555,-0.905085,2.55942,15.9975,0.535713,0.550297,-0.181727,0
2024-12-13 15:33:40.557,-1.07258,2.6671,15.2815,0.616956,0.498986,-0.179284,0
2024-12-13 15:33:40.560,-1.1659,2.70778,14.5705,0.688425,0.44401,-0.176229,0
2024-12-13 15:33:40.562,-1.1994,2.72692,13.893,0.747677,0.380481,-0.171953,0
2024-12-13 15:33:40.564,-1.2018,2.78913,13.285,0.799599,0.312067,-0.170121,0
2024-12-13 15:33:40.567,-1.23051,2.8657,12.6793,0.840526,0.24243,-0.16951,0
2024-12-13 15:33:40.569,-1.23529,2.95902,12.0589,0.87229,0.17768,-0.168288,0
2024-12-13 15:33:40.571,-1.2018,3.09571,11.482,0.890004,0.11293,-0.173175,0
2024-12-13 15:33:40.574,-0.720539,2.92552,11.2618,0.896724,0.0542891,-0.182949,0
2024-12-13 15:33:40.576,-0.352044,2.72453,11.0871,0.901,-0.0397814,-0.215324,0
2024-12-13 15:33:40.578,-0.610469,2.92792,10.4073,0.894891,-0.0862058,-0.244644,0
2024-12-13 15:33:40.582,-0.792323,3.23928,9.80369,0.839915,-0.114305,-0.29229,0
2024-12-13 15:33:40.583,-0.905085,3.53121,9.54766,0.839915,-0.114305,-0.29229,0
2024-12-13 15:33:40.585,-1.13958,3.82582,9.32992,0.796545,-0.130187,-0.308783,0
2024-12-13 15:33:40.588,-1.41027,4.101,9.1334,0.74279,-0.147291,-0.319168,0
2024-12-13 15:33:40.590,-1.64237,4.32622,8.97548,0.67743,-0.166838,-0.320389,0
2024-12-13 15:33:40.593,-1.96062,4.55354,8.75294,0.602295,-0.183941,-0.315503,0
2024-12-13 15:33:40.595,-2.26481,4.75454,8.52533,0.514333,-0.192493,-0.300231,0
2024-12-13 15:33:40.597,-2.34856,4.80987,8.5014,0.416598,-0.202878,-0.280073,0
2024-12-13 15:33:40.600,-2.32463,4.73779,8.58993,0.312677,-0.216316,-0.258083,0
2024-12-13 15:33:40.602,-2.27677,4.59901,8.68086,0.205779,-0.224868,-0.235482,0
2024-12-13 15:33:40.604,-2.13799,4.4004,8.78405,0.100103,-0.222425,-0.216545,0
2024-12-13 15:33:40.607,-1.93191,4.15364,8.90848,-0.0110716,-0.21143,-0.201274,0
2024-12-13 15:33:40.609,-1.71177,3.88086,9.07837,-0.114916,-0.194326,-0.192722,0
2024-12-13 15:33:40.611,-1.47009,3.61256,9.28924,-0.21876,-0.173557,-0.190279,0
2024-12-13 15:33:40.614,-1.23529,3.38046,9.5357,-0.311608,-0.146069,-0.194555,0
2024-12-13 15:33:40.618,-1.05823,3.20578,10.0863,-0.478981,-0.077654,-0.206772,0
2024-12-13 15:33:40.618,-0.940978,3.09811,10.0863,-0.478981,-0.077654,-0.206772,0
2024-12-13 15:33:40.621,-0.869193,3.04995,10.3711,-0.545563,-0.033673,-0.216545,0
2024-12-13 15:33:40.623,-0.825823,3.05474,10.6777,-0.607869,0.00908635,-0.222043,0
2024-12-13 15:33:40.627,-0.794716,3.07388,10.9555,-0.65124,0.0579541,-0.228151,0
2024-12-13 15:33:40.628,-0.780359,3.09811,11.2044,-0.65124,0.0579541,-0.228151,0
2024-12-13 15:33:40.630,-0.787538,3.11964,11.4485,-0.711713,0.142251,-0.234871,0
2024-12-13 15:33:40.633,-0.818644,3.12921,11.6761,-0.725152,0.181956,-0.236092,0
2024-12-13 15:33:40.635,-0.84018,3.12204,11.8938,-0.724541,0.214331,-0.233649,0
2024-12-13 15:33:40.637,-0.847657,3.07388,12.0808,-0.714157,0.24243,-0.227541,0
2024-12-13 15:33:40.640,-0.864407,3.02602,12.2195,-0.69461,0.267475,-0.22021,0
2024-12-13 15:33:40.642,-0.905085,3.00449,12.3081,-0.6659,0.284578,-0.21288,0
2024-12-13 15:33:40.644,-0.945763,2.97577,12.3727,-0.630471,0.294963,-0.201885,0
2024-12-13 15:33:40.649,-0.952942,2.89681,12.3966,-0.535789,0.297406,-0.178673,0
2024-12-13 15:33:40.651,-0.950549,2.87288,12.332,-0.482646,0.284578,-0.168288,0
2024-12-13 15:33:40.651,-0.950549,2.87288,12.332,-0.482646,0.284578,-0.168288,0
2024-12-13 15:33:40.654,-0.952942,2.84895,12.2148,-0.421561,0.265031,-0.157904,0
2024-12-13 15:33:40.656,-0.967299,2.84417,12.0784,-0.362309,0.244263,-0.144465,0
2024-12-13 15:33:40.658,-0.972084,2.84656,11.889,-0.301835,0.222272,-0.132248,0
2024-12-13 15:33:40.662,-0.964906,2.85613,11.6641,-0.181498,0.178902,-0.104149,0
2024-12-13 15:33:40.663,-0.933799,2.88963,11.4389,-0.181498,0.178902,-0.104149,0
2024-12-13 15:33:40.666,-0.88355,2.91595,11.19,-0.119802,0.159355,-0.0925434,0
2024-12-13 15:33:40.668,-0.830609,2.94706,10.9241,-0.0629936,0.141029,-0.0827698,0
2024-12-13 15:33:40.670,-0.789931,2.98774,10.637,-0.00740652,0.124536,-0.0748288,0
2024-12-13 15:33:40.673,-0.782752,3.01167,10.3639,0.0451263,0.106211,-0.0644444,0
2024-12-13 15:33:40.675,-0.792323,3.02842,10.0887,0.0921616,0.0909399,-0.0571142,0
2024-12-13 15:33:40.677,-0.801895,3.07149,9.81566,0.13431,0.074447,-0.0516166,0
2024-12-13 15:33:40.680,-0.821037,3.11007,9.54527,0.172793,0.0579541,-0.0442864,0
2024-12-13 15:33:40.682,-0.833001,3.14118,9.25305,0.205168,0.0432938,-0.0351237,0
2024-12-13 15:33:40.684,-0.830609,3.18186,8.98026,0.230213,0.0243575,-0.0265719,0
2024-12-13 15:33:40.687,-0.821037,3.22732,8.69761,0.247928,0.00603212,-0.01802,0
2024-12-13 15:33:40.689,-0.825823,3.2656,8.42722,0.263199,-0.0110716,-0.0119115,0
2024-12-13 15:33:40.691,-0.84018,3.29193,8.18794,0.270529,-0.0287862,-0.0051922,0
2024-12-13 15:33:40.696,-0.859622,3.33739,7.75933,0.265031,-0.0611611,0.010079,0
2024-12-13 15:33:40.699,-0.859622,3.36132,7.57747,0.257701,-0.0752106,0.0167983,0
2024-12-13 15:33:40.699,-0.859622,3.36132,7.57747,0.257701,-0.0752106,0.0167983,0
2024-12-13 15:33:40.701,-0.845265,3.37328,7.4001,0.243652,-0.0862058,0.0235176,0
2024-12-13 15:33:40.703,-0.809073,3.37328,7.23739,0.230824,-0.093536,0.0308478,0
2024-12-13 15:33:40.706,-0.785145,3.35175,7.101,0.208833,-0.100255,0.0357346,0
2024-12-13 15:33:40.708,-0.754038,3.3326,6.97627,0.187454,-0.104531,0.0387888,0
2024-12-13 15:33:40.710,-0.727717,3.32303,6.87099,0.161187,-0.106975,0.0424539,0
2024-12-13 15:33:40.713,-0.703789,3.30868,6.78006,0.13431,-0.10392,0.0436756,0
2024-12-13 15:33:40.715,-0.665504,3.29193,6.69153,0.1056,-0.10331,0.0442864,0
2024-12-13 15:33:40.717,-0.622433,3.268,6.6006,0.0756687,-0.0965902,0.0455081,0
2024-12-13 15:33:40.720,-0.591326,3.25125,6.53839,0.0451263,-0.0904818,0.0467298,0
2024-12-13 15:33:40.722,-0.562612,3.22253,6.50967,0.014584,-0.0837624,0.0479515,0
2024-12-13 15:33:40.724,-0.533899,3.19143,6.49771,-0.013515,-0.0752106,0.0455081,0
2024-12-13 15:33:40.727,-0.505185,3.18186,6.48335,-0.0410031,-0.065437,0.0430647,0
2024-12-13 15:33:40.729,-0.476471,3.17468,6.48575,-0.0691021,-0.057496,0.0406213,0
2024-12-13 15:33:40.731,-0.45015,3.15793,6.49771,-0.0923143,-0.049555,0.0387888,0
2024-12-13 15:33:40.734,-0.440578,3.11964,6.52164,-0.11797,-0.0403923,0.0351237,0
2024-12-13 15:33:40.736,-0.438186,3.10289,6.55514,-0.135684,-0.0318404,0.0332912,0
2024-12-13 15:33:40.739,-0.445364,3.07627,6.59103,-0.150956,-0.0232886,0.0314586,0
2024-12-13 15:33:40.741,-0.469292,3.0332,6.64367,-0.164394,-0.0165692,0.0314586,0
2024-12-13 15:33:40.746,-0.454935,2.96381,6.75374,-0.179665,-0.00679568,0.0320695,0
2024-12-13 15:33:40.746,-0.454935,2.96381,6.75374,-0.179665,-0.00679568,0.0320695,0
2024-12-13 15:33:40.748,-0.454935,2.92792,6.78963,-0.180887,-0.00374144,0.0326803,0
2024-12-13 15:33:40.750,-0.462114,2.87288,6.82313,-0.182109,-0.00313059,0.0332912,0
2024-12-13 15:33:40.753,-0.459721,2.83699,6.84945,-0.180276,-0.00557398,0.0326803,0
2024-12-13 15:33:40.755,-0.445364,2.81067,6.88774,-0.176611,-0.00984991,0.0345129,0
2024-12-13 15:33:40.757,-0.440578,2.80588,6.92124,-0.170503,-0.0184018,0.0345129,0
2024-12-13 15:33:40.762,-0.45015,2.78674,6.93799,-0.152788,-0.0361163,0.0369563,0
2024-12-13 15:33:40.762,-0.457328,2.76521,6.95235,-0.152788,-0.0361163,0.0369563,0
2024-12-13 15:33:40.764,-0.447757,2.74846,6.95952,-0.142404,-0.0440574,0.0363454,0
2024-12-13 15:33:40.767,-0.445364,2.71496,6.95952,-0.132019,-0.057496,0.0363454,0
2024-12-13 15:33:40.769,-0.445364,2.67906,6.9667,-0.11797,-0.0697129,0.0369563,0
2024-12-13 15:33:40.772,-0.442971,2.65514,6.9667,-0.105142,-0.0800973,0.041843,0
2024-12-13 15:33:40.774,-0.445364,2.64317,6.95952,-0.0910926,-0.0941468,0.0442864,0
2024-12-13 15:33:40.776,-0.442971,2.63599,6.96431,-0.0764323,-0.106364,0.0473407,0
2024-12-13 15:33:40.779,-0.431007,2.61446,6.94756,-0.0623828,-0.117359,0.0510057,0
2024-12-13 15:33:40.781,-0.423829,2.60489,6.92602,-0.0489441,-0.127743,0.0534491,0
2024-12-13 15:33:40.783,-0.411865,2.60249,6.9021,-0.0379489,-0.136906,0.0589468,0
2024-12-13 15:33:40.786,-0.385544,2.5666,6.87099,-0.0257319,-0.14668,0.0613902,0
2024-12-13 15:33:40.790,-0.361615,2.5331,6.78963,-0.0122933,-0.165005,0.0650552,0
2024-12-13 15:33:40.790,-0.361615,2.5331,6.78963,-0.0122933,-0.165005,0.0650552,0
2024-12-13 15:33:40.793,-0.364008,2.53549,6.77288,-0.0104608,-0.174168,0.0644444,0
2024-12-13 15:33:40.795,-0.359223,2.52084,6.76331,-0.00679568,-0.179055,0.0687203,0
2024-12-13 15:33:40.798,-0.366401,2.50887,6.74656,-0.00679568,-0.186996,0.0687203,0
2024-12-13 15:33:40.800,-0.378365,2.51127,6.74178,-0.00801737,-0.190661,0.069942,0
2024-12-13 15:33:40.802,-0.387936,2.51845,6.72742,-0.0110716,-0.193715,0.0717745,0
2024-12-13 15:33:40.805,-0.409472,2.51845,6.71546,-0.0165692,-0.193715,0.0729962,0
2024-12-13 15:33:40.807,-0.41665,2.50887,6.71546,-0.0208452,-0.191272,0.0748288,0
2024-12-13 15:33:40.809,-0.445364,2.50409,6.73221,-0.0287862,-0.183331,0.0772722,0
2024-12-13 15:33:40.812,-0.471685,2.50409,6.74417,-0.0385597,-0.179055,0.0803264,0
2024-12-13 15:33:40.814,-0.493221,2.48973,6.74178,-0.0446682,-0.171114,0.0803264,0
2024-12-13 15:33:40.816,-0.52672,2.4658,6.74656,-0.0550526,-0.164394,0.082159,0
2024-12-13 15:33:40.819,-0.557827,2.44905,6.76331,-0.065437,-0.155842,0.0864349,0
2024-12-13 15:33:40.821,-0.579362,2.44427,6.78724,-0.0764323,-0.147291,0.0882674,0
2024-12-13 15:33:40.823,-0.588933,2.42991,6.81835,-0.0849841,-0.138128,0.0901,0
2024-12-13 15:33:40.828,-0.632004,2.35334,6.85663,-0.0990336,-0.130187,0.0943759,0
2024-12-13 15:33:40.830,-0.63679,2.35813,6.8997,-0.116137,-0.114916,0.0955976,0
2024-12-13 15:33:40.830,-0.63679,2.35813,6.8997,-0.116137,-0.114916,0.0955976,0
2024-12-13 15:33:40.833,-0.598505,2.35813,6.98106,-0.127743,-0.109418,0.0998735,0
2024-12-13 15:33:40.835,-0.593719,2.34616,7.07707,-0.13263,-0.105753,0.0992627,0
2024-12-13 15:33:40.840,-0.63679,2.33659,7.09382,-0.147901,-0.0953685,0.0998735,0
2024-12-13 15:33:40.840,-0.679861,2.33659,7.09382,-0.147901,-0.0953685,0.0998735,0
2024-12-13 15:33:40.842,-0.73011,2.30548,7.14168,-0.147901,-0.0953685,0.0998735,0
2024-12-13 15:33:40.845,-0.76361,2.28156,7.18714,-0.159507,-0.0917034,0.0986518,0
2024-12-13 15:33:40.847,-0.777966,2.25763,7.24696,-0.163173,-0.0898709,0.0974301,0
2024-12-13 15:33:40.849,-0.754038,2.2337,7.30918,-0.166838,-0.0904818,0.0968193,0
2024-12-13 15:33:40.854,-0.646361,2.19302,7.43121,-0.169892,-0.0953685,0.0894891,0
2024-12-13 15:33:40.854,-0.646361,2.19302,7.43121,-0.169892,-0.0953685,0.0894891,0
2024-12-13 15:33:40.859,-0.565005,2.2002,7.52214,-0.16867,-0.100255,0.0760505,0
2024-12-13 15:33:40.861,-0.545863,2.17149,7.55564,-0.165005,-0.100866,0.0687203,0
2024-12-13 15:33:40.861,-0.545863,2.17149,7.55564,-0.165005,-0.100866,0.0687203,0
2024-12-13 15:33:40.863,-0.54347,2.15234,7.59183,-0.160729,-0.102088,0.0589468,0
2024-12-13 15:33:40.866,-0.545863,2.14756,7.64208,-0.152177,-0.107585,0.0503949,0
2024-12-13 15:33:40.868,-0.536291,2.14517,7.6684,-0.146069,-0.109418,0.0412322,0
2024-12-13 15:33:40.870,-0.519542,2.13559,7.70908,-0.136295,-0.114916,0.0320695,0
2024-12-13 15:33:40.873,-0.505185,2.12363,7.75693,-0.124078,-0.122857,0.0229068,0
2024-12-13 15:33:40.875,-0.505185,2.11645,7.79522,-0.112472,-0.133852,0.0161875,0
2024-12-13 15:33:40.878,-0.500399,2.10927,7.81675,-0.100255,-0.140571,0.0064139,0
2024-12-13 15:33:40.880,-0.493221,2.09252,7.84068,-0.0862058,-0.150956,-0.0051922,0
2024-12-13 15:33:40.885,-0.457328,2.09492,7.92922,-0.0532201,-0.167449,-0.0210742,0
2024-12-13 15:33:40.885,-0.457328,2.09492,7.92922,-0.0532201,-0.167449,-0.0210742,0
2024-12-13 15:33:40.887,-0.4334,2.09252,7.96032,-0.0367272,-0.176,-0.0290152,0
2024-12-13 15:33:40.889,-0.404686,2.09731,7.97947,-0.0147367,-0.183941,-0.0363454,0
2024-12-13 15:33:40.892,-0.387936,2.10449,7.99861,0.00664296,-0.191272,-0.0479515,0
2024-12-13 15:33:40.894,-0.368794,2.0997,7.99621,0.0249684,-0.198602,-0.0552817,0
2024-12-13 15:33:40.896,-0.308973,2.10209,7.96989,0.0445155,-0.206543,-0.0650552,0
2024-12-13 15:33:40.899,-0.270389,2.11406,7.94118,0.0634518,-0.215705,-0.0754396,0
2024-12-13 15:33:40.901,-0.251246,2.14277,7.934,0.0842206,-0.22609,-0.0882674,0
2024-12-13 15:33:40.903,-0.222533,2.16909,7.93879,0.106211,-0.234031,-0.0974301,0
2024-12-13 15:33:40.906,-0.205783,2.18824,7.93639,0.12698,-0.241361,-0.107815,0
2024-12-13 15:33:40.908,-0.174676,2.21695,7.90529,0.14836,-0.250524,-0.117588,0
2024-12-13 15:33:40.910,-0.138784,2.25763,7.87179,0.166074,-0.259076,-0.128583,0
2024-12-13 15:33:40.913,-0.136391,2.29831,7.83829,0.166074,-0.259076,-0.128583,0
2024-12-13 15:33:40.915,-0.122034,2.35095,7.79283,0.205779,-0.27679,-0.149963,0
2024-12-13 15:33:40.918,-0.112463,2.39402,7.74258,0.224715,-0.284731,-0.158515,0
2024-12-13 15:33:40.920,-0.119641,2.42273,7.67079,0.241208,-0.287785,-0.167678,0
2024-12-13 15:33:40.923,-0.138784,2.43709,7.59183,0.27114,-0.287175,-0.182338,0
2024-12-13 15:33:40.925,-0.165105,2.45145,7.51735,0.27114,-0.287175,-0.182338,0
2024-12-13 15:33:40.927,-0.167498,2.46341,7.45275,0.283357,-0.282899,-0.186614,0
2024-12-13 15:33:40.929,-0.162712,2.47777,7.39532,0.294352,-0.271293,-0.193333,0
2024-12-13 15:33:40.932,-0.133998,2.51127,7.32114,0.304126,-0.258465,-0.196387,0
2024-12-13 15:33:40.934,-0.0909273,2.54507,7.23261,0.313288,-0.244415,-0.202496,0
2024-12-13 15:33:40.936,-0.0550349,2.59053,7.13211,0.318786,-0.227922,-0.206161,0
2024-12-13 15:33:40.939,-0.026321,2.63599,7.03161,0.323673,-0.210819,-0.209826,0
2024-12-13 15:33:40.941,-0.0143569,2.67906,6.9356,0.323673,-0.210819,-0.209826,0
2024-12-13 15:33:40.943,-0.00717847,2.72453,6.83988,0.323673,-0.172335,-0.223265,0
2024-12-13 15:33:40.946,-0.0119641,2.75803,6.74178,0.316953,-0.153399,-0.227541,0
2024-12-13 15:33:40.948,-0.0215354,2.78674,6.67956,0.315732,-0.133241,-0.233649,0
2024-12-13 15:33:40.951,-0.0287139,2.82024,6.63171,0.30718,-0.114305,-0.242201,0
2024-12-13 15:33:40.953,-0.040678,2.87049,6.59103,0.30046,-0.093536,-0.248309,0
2024-12-13 15:33:40.955,-0.0646062,2.9327,6.54557,0.291298,-0.0770431,-0.251974,0
2024-12-13 15:33:40.958,-0.117248,2.98295,6.48575,0.279692,-0.0623828,-0.258694,0
2024-12-13 15:33:40.960,-0.172283,3.01645,6.44716,0.267475,-0.0471116,-0.263581,0
2024-12-13 15:33:40.962,-0.244068,3.04756,6.42563,0.252204,-0.0367272,-0.267246,0
2024-12-13 15:33:40.965,-0.320937,3.08106,6.40648,0.233878,-0.0251211,-0.270911,0
2024-12-13 15:33:40.967,-0.375972,3.12443,6.39452,0.216774,-0.0171801,-0.273965,0
2024-12-13 15:33:40.969,-0.438186,3.17468,6.40888,0.198449,-0.0104608,-0.273965,0
2024-12-13 15:33:40.974,-0.557827,3.28235,6.45703,0.182567,-0.00313059,-0.276408,0
2024-12-13 15:33:40.976,-0.598505,3.32064,6.49532,0.14836,0.0127514,-0.27763,0
2024-12-13 15:33:40.976,-0.598505,3.32064,6.49532,0.14836,0.0127514,-0.27763,0
2024-12-13 15:33:40.979,-0.629611,3.35892,6.55753,0.133088,0.0176382,-0.278852,0
2024-12-13 15:33:40.981,-0.655932,3.402,6.63889,0.118428,0.0213033,-0.278241,0
2024-12-13 15:33:40.983,-0.670289,3.4355,6.72503,0.118428,0.0213033,-0.278241,0
2024-12-13 15:33:40.986,-0.679861,3.48814,6.80878,0.0939941,0.0261901,-0.281295,0
2024-12-13 15:33:40.988,-0.696611,3.54078,6.89013,0.0829989,0.0255792,-0.28496,0
2024-12-13 15:33:40.991,-0.710967,3.58385,6.99302,0.0707819,0.0213033,-0.289236,0
2024-12-13 15:33:40.995,-0.739681,3.69661,7.23021,0.0524565,0.00419957,-0.29168,0
2024-12-13 15:33:40.995,-0.739681,3.69661,7.23021,0.0524565,0.00419957,-0.29168,0
2024-12-13 15:33:40.998,-0.754038,3.73011,7.35943,0.0445155,-0.00801737,-0.296566,0
2024-12-13 15:33:41.000,-0.787538,3.77318,7.48385,0.0353528,-0.0153475,-0.297788,0
2024-12-13 15:33:41.005,-0.830609,3.81147,7.74975,0.0194708,-0.0361163,-0.300842,0
2024-12-13 15:33:41.007,-0.905085,3.84257,7.88136,0.014584,-0.0422248,-0.301453,0
2024-12-13 15:33:41.009,-0.950549,3.85932,8.04168,0.00786466,-0.0501658,-0.300842,0
2024-12-13 15:33:41.010,-0.950549,3.85932,8.04168,0.00786466,-0.0501658,-0.300842,0
2024-12-13 15:33:41.012,-1.0008,3.86172,8.22383,0.00114534,-0.0538309,-0.299621,0
2024-12-13 15:33:41.014,-1.0678,3.85454,8.41287,-0.00740652,-0.0532201,-0.294123,0
2024-12-13 15:33:41.016,-1.12522,3.85932,8.62104,-0.00923906,-0.0513875,-0.288014,0
2024-12-13 15:33:41.019,-1.17069,3.8689,8.86062,-0.00984991,-0.0477224,-0.280073,0
2024-12-13 15:33:41.021,-1.22572,3.87129,9.12144,-0.0104608,-0.041614,-0.271522,0
2024-12-13 15:33:41.024,-1.26879,3.87607,9.3682,-0.00923906,-0.0324513,-0.261748,0
2024-12-13 15:33:41.026,-1.29751,3.88564,9.59552,-0.00740652,-0.0208452,-0.252585,0
2024-12-13 15:33:41.028,-1.31426,3.89522,9.82553,-0.00374144,-0.00862822,-0.242812,0
2024-12-13 15:33:41.031,-1.31904,3.90957,10.0672,0.00236703,0.00297788,-0.233038,0
2024-12-13 15:33:41.033,-1.30947,3.90239,10.3041,0.0096972,0.0170274,-0.223876,0
2024-12-13 15:33:41.035,-1.28315,3.90957,10.5317,0.0164165,0.0322986,-0.217156,0
2024-12-13 15:33:41.038,-1.24008,3.92393,10.7566,0.0286335,0.0469589,-0.210437,0
2024-12-13 15:33:41.040,-1.21137,3.94068,10.9962,0.0377962,0.0597867,-0.204939,0
2024-12-13 15:33:41.042,-1.20897,3.96461,11.2211,0.0494023,0.0732253,-0.198831,0
2024-12-13 15:33:41.045,-1.21615,3.99332,11.4126,0.0603975,0.090329,-0.194555,0
2024-12-13 15:33:41.047,-1.23769,4.06032,11.5995,0.0707819,0.104379,-0.190279,0
2024-12-13 15:33:41.050,-1.29033,4.15603,11.7694,0.0836097,0.120261,-0.186003,0
2024-12-13 15:33:41.052,-1.3669,4.25205,11.9082,0.094605,0.133699,-0.179284,0
2024-12-13 15:33:41.054,-1.45095,4.35733,12.023,0.107433,0.147749,-0.171953,0
2024-12-13 15:33:41.057,-1.56341,4.48654,12.1286,0.118428,0.159355,-0.164012,0
2024-12-13 15:33:41.059,-1.68544,4.6349,12.1956,0.127591,0.172793,-0.153017,0
2024-12-13 15:33:41.061,-1.78355,4.77637,12.2387,0.138586,0.180734,-0.1408,0
2024-12-13 15:33:41.064,-1.86969,4.89123,12.2746,0.147138,0.183178,-0.124918,0
2024-12-13 15:33:41.066,-1.95823,4.98694,12.2794,0.152025,0.181345,-0.114534,0
2024-12-13 15:33:41.068,-2.04467,5.0683,12.2746,0.155079,0.176459,-0.102317,0
2024-12-13 15:33:41.071,-2.12124,5.1353,12.2842,0.157522,0.168517,-0.0852132,0
2024-12-13 15:33:41.073,-2.16909,5.18076,12.3129,0.158744,0.156301,-0.0711637,0
2024-12-13 15:33:41.075,-2.19302,5.21187,12.3607,0.156911,0.136143,-0.0595576,0
2024-12-13 15:33:41.078,-2.19063,5.24058,12.4158,0.152635,0.109265,-0.0473407,0
2024-12-13 15:33:41.080,-2.18345,5.26451,12.4756,0.146527,0.0799446,-0.0387888,0
2024-12-13 15:33:41.082,-2.19541,5.27647,12.5474,0.139197,0.0469589,-0.0302369,0
2024-12-13 15:33:41.085,-2.20977,5.28604,12.6649,0.128812,0.0133623,-0.0216851,0
2024-12-13 15:33:41.087,-2.22413,5.29322,12.7989,0.119039,-0.0190126,-0.0143549,0
2024-12-13 15:33:41.089,-2.22413,5.3004,12.9473,0.110487,-0.0477224,-0.00763559,0
2024-12-13 15:33:41.092,-2.21695,5.30519,13.0956,0.0982701,-0.0745997,0.000305424,0
2024-12-13 15:33:41.094,-2.20259,5.29322,13.2443,0.0848314,-0.0953685,0.0113007,0
2024-12-13 15:33:41.097,-2.18345,5.25254,13.4237,0.0695602,-0.114305,0.0216851,0
2024-12-13 15:33:41.099,-2.14756,5.21426,13.608,0.0579541,-0.129576,0.0308478,0
2024-12-13 15:33:41.101,-2.07338,5.19033,13.7997,0.042683,-0.141182,0.0436756,0
2024-12-13 15:33:41.104,-1.98006,5.16162,14.0079,0.0292443,-0.149734,0.0565034,0
2024-12-13 15:33:41.106,-1.87208,5.12812,14.2328,0.0170274,-0.157064,0.0687203,0
2024-12-13 15:33:41.108,-1.7668,5.08744,14.4748,0.00419957,-0.158286,0.0784939,0
2024-12-13 15:33:41.111,-1.65194,5.05633,14.7404,-0.00618483,-0.154621,0.0913217,0
2024-12-13 15:33:41.113,-1.51555,5.02762,14.9991,-0.0153475,-0.149123,0.102317,0
2024-12-13 15:33:41.115,-1.37169,4.97019,15.2432,-0.0208452,-0.136906,0.113312,0
2024-12-13 15:33:41.118,-1.22572,4.91755,15.4923,-0.0232886,-0.121024,0.123086,0
2024-12-13 15:33:41.120,-1.09173,4.85534,15.734,-0.0220669,-0.105753,0.135379,0
2024-12-13 15:33:41.125,-0.847657,4.73779,16.2224,-0.0141258,-0.0501658,0.153704,0
2024-12-13 15:33:41.127,-0.737288,4.67318,16.421,-0.0019089,-0.0251211,0.163478,0
2024-12-13 15:33:41.127,-0.737288,4.67318,16.421,-0.0019089,-0.0251211,0.163478,0
2024-12-13 15:33:41.130,-0.617647,4.59422,16.6008,0.00908635,0.00236703,0.173862,0
2024-12-13 15:33:41.132,-0.495613,4.52483,16.7252,0.0268009,0.0268009,0.182414,0
2024-12-13 15:33:41.134,-0.368794,4.46022,16.8257,0.0487914,0.050624,0.190966,0
2024-12-13 15:33:41.137,-0.275175,4.41715,16.8808,0.0671168,0.0689494,0.201351,2
2024-12-13 15:33:41.139,-0.234497,4.40997,16.8544,0.0884965,0.0878856,0.212957,0
2024-12-13 15:33:41.141,-0.153141,4.37647,16.8209,0.111098,0.104379,0.225174,0
2024-12-13 15:33:41.144,-0.040678,4.2999,16.7874,0.133088,0.114152,0.234947,0
2024-12-13 15:33:41.146,0.040678,4.23051,16.6965,0.152635,0.120871,0.24411,0
2024-12-13 15:33:41.148,0.122034,4.17278,16.5721,0.175237,0.117817,0.250218,0
2024-12-13 15:33:41.151,0.193819,4.13211,16.4139,0.197838,0.109265,0.259381,0
2024-12-13 15:33:41.153,0.241675,4.101,16.2105,0.215553,0.100103,0.267933,0
2024-12-13 15:33:41.155,0.265603,4.0675,15.9829,0.233878,0.0872748,0.27343,0
2024-12-13 15:33:41.158,0.277567,4.03161,15.7627,0.24976,0.0726145,0.281372,0
2024-12-13 15:33:41.160,0.292223,3.99332,15.5234,0.263199,0.0573433,0.284426,0
2024-12-13 15:33:41.162,0.289831,3.97418,15.2862,0.277248,0.042683,0.288091,0
2024-12-13 15:33:41.165,0.265603,3.97657,15.0589,0.286411,0.0329094,0.294199,0
2024-12-13 15:33:41.167,0.236889,3.96222,14.8289,0.29313,0.022525,0.298475,0
2024-12-13 15:33:41.170,0.215354,3.95982,14.6112,0.299239,0.0158057,0.30214,0
2024-12-13 15:33:41.172,0.181855,3.96939,14.3862,0.301682,0.0115297,0.305195,0
2024-12-13 15:33:41.174,0.155533,3.95504,14.1538,0.30046,0.00908635,0.308249,0
2024-12-13 15:33:41.177,0.150748,3.9335,13.9457,0.296795,0.00786466,0.311303,0
2024-12-13 15:33:41.179,0.122034,3.91197,13.7542,0.287633,0.00542127,0.314968,0
2024-12-13 15:33:41.181,0.0837488,3.88325,13.5673,0.275416,0.00297788,0.31619,0
2024-12-13 15:33:41.184,0.0478565,3.83779,13.4213,0.261366,-0.000687203,0.321687,0
2024-12-13 15:33:41.186,0.0143569,3.7995,13.2921,0.239376,-0.00313059,0.325963,0
2024-12-13 15:33:41.191,0.00478565,3.73968,13.1172,0.190508,-0.00801737,0.336348,0
2024-12-13 15:33:41.191,0.00478565,3.73968,13.1172,0.190508,-0.00801737,0.336348,0
2024-12-13 15:33:41.193,0.0311067,3.699,13.0502,0.159966,-0.00435229,0.340624,0
2024-12-13 15:33:41.195,0.0741775,3.6679,12.9999,0.128812,0.00358873,0.346121,0
2024-12-13 15:33:41.198,0.129212,3.61256,12.976,0.0976592,0.0133623,0.351008,0
2024-12-13 15:33:41.200,0.189033,3.55035,12.9688,0.0652843,0.0249684,0.355895,0
2024-12-13 15:33:41.203,0.251246,3.49292,12.9616,0.0341311,0.0439046,0.357117,0
2024-12-13 15:33:41.205,0.30658,3.43071,12.9664,0.00542127,0.0616192,0.35956,0
2024-12-13 15:33:41.207,0.366401,3.37567,12.9784,-0.0257319,0.0793338,0.35956,0
2024-12-13 15:33:41.210,0.419043,3.31107,12.9784,-0.0532201,0.100713,0.362614,0
2024-12-13 15:33:41.214,0.481256,3.18664,13.0382,-0.0959794,0.150192,0.364447,0
2024-12-13 15:33:41.214,0.481256,3.18664,13.0382,-0.0959794,0.150192,0.364447,0
2024-12-13 15:33:41.217,0.502792,3.15793,13.0669,-0.110029,0.178902,0.364447,0
2024-12-13 15:33:41.219,0.512363,3.12443,13.0837,-0.122857,0.205779,0.366279,0
2024-12-13 15:33:41.221,0.500399,3.08854,13.1076,-0.128965,0.230824,0.367501,0
2024-12-13 15:33:41.224,0.476471,3.05952,13.098,-0.130187,0.254647,0.369334,0
2024-12-13 15:33:41.226,0.442971,3.04038,13.0358,-0.127743,0.277248,0.372388,0
2024-12-13 15:33:41.228,0.423829,3.03081,12.9497,-0.122246,0.296795,0.377885,0
2024-12-13 15:33:41.231,0.404686,3.01884,12.8731,-0.111861,0.311456,0.38094,0
2024-12-13 15:33:41.233,0.371187,3.00688,12.7654,-0.0996445,0.323673,0.387048,0
2024-12-13 15:33:41.235,0.344866,3.01645,12.6506,-0.0874275,0.331003,0.392546,0
2024-12-13 15:33:41.240,0.313759,3.0332,12.399,-0.0544418,0.337722,0.400487,0
2024-12-13 15:33:41.241,0.313759,3.0332,12.399,-0.0544418,0.337722,0.400487,0
2024-12-13 15:33:41.247,0.181855,3.07867,11.9321,0.00603212,0.323673,0.41759,0
2024-12-13 15:33:41.248,0.181855,3.07867,11.9321,0.0280226,0.315121,0.426753,0
2024-12-13 15:33:41.250,0.143569,3.09332,11.7287,0.0280226,0.315121,0.426753,0
2024-12-13 15:33:41.250,0.143569,3.09332,11.7287,0.0280226,0.315121,0.426753,0
2024-12-13 15:33:41.252,0.114855,3.09811,11.5205,0.0512348,0.304126,0.435305,0
2024-12-13 15:33:41.254,0.0741775,3.09332,11.3097,0.0768904,0.293741,0.443246,0
2024-12-13 15:33:41.257,0.0311067,3.08584,11.0848,0.1056,0.282135,0.457296,0
2024-12-13 15:33:41.259,-0.00957129,3.08106,10.8523,0.130034,0.27114,0.469512,0
2024-12-13 15:33:41.261,-0.0143569,3.08584,10.6107,0.15569,0.25709,0.478675,0
2024-12-13 15:33:41.264,-0.0143569,3.07627,10.3687,0.180124,0.244263,0.490281,0
2024-12-13 15:33:41.266,-0.00239282,3.07627,10.1175,0.203947,0.231435,0.501887,0
2024-12-13 15:33:41.268,0.0239282,3.09811,9.85185,0.228991,0.219829,0.510439,0
2024-12-13 15:33:41.271,0.0334995,3.12682,9.6003,0.24976,0.208223,0.519602,0
2024-12-13 15:33:41.273,0.0311067,3.15793,9.34427,0.269918,0.196006,0.530597,0
2024-12-13 15:33:41.276,0.0334995,3.17468,9.07358,0.290687,0.187454,0.537317,0
2024-12-13 15:33:41.278,0.040678,3.19382,8.81037,0.309012,0.179513,0.545868,0
2024-12-13 15:33:41.280,0.0550349,3.21296,8.57079,0.324894,0.168517,0.553809,0
2024-12-13 15:33:41.283,0.0765703,3.23211,8.32912,0.339555,0.161187,0.562361,0
2024-12-13 15:33:41.285,0.0885344,3.23689,8.10629,0.351161,0.150803,0.570913,0
2024-12-13 15:33:41.287,0.11007,3.2345,7.90768,0.362156,0.138586,0.577022,0
2024-12-13 15:33:41.290,0.112463,3.25364,7.69711,0.370784,0.131867,0.584352,0
2024-12-13 15:33:41.292,0.105284,3.26082,7.50299,0.378114,0.11965,0.59046,0
2024-12-13 15:33:41.294,0.114855,3.26321,7.31396,0.380558,0.111098,0.59718,0
2024-12-13 15:33:41.298,0.129212,3.29671,7.12014,0.384834,0.0982701,0.611229,0
2024-12-13 15:33:41.299,0.131605,3.30868,6.92363,0.384834,0.0982701,0.611229,0
2024-12-13 15:33:41.301,0.117248,3.27039,6.72264,0.383001,0.0964375,0.617948,0
2024-12-13 15:33:41.304,0.112463,3.23928,6.52642,0.379947,0.0927724,0.625279,0
2024-12-13 15:33:41.306,0.119641,3.23211,6.34906,0.373839,0.0921616,0.634441,0
2024-12-13 15:33:41.309,0.119641,3.2345,6.20309,0.370173,0.0952158,0.641161,0
2024-12-13 15:33:41.313,0.114855,3.28475,5.94945,0.352993,0.100713,0.658875,0
2024-12-13 15:33:41.316,0.114855,3.2991,5.84148,0.341387,0.107433,0.671092,0
2024-12-13 15:33:41.316,0.114855,3.2991,5.84148,0.341387,0.107433,0.671092,0
2024-12-13 15:33:41.318,0.0909273,3.29671,5.74816,0.327338,0.113541,0.678422,0
2024-12-13 15:33:41.320,0.066999,3.33021,5.65484,0.327338,0.113541,0.678422,0
2024-12-13 15:33:41.323,0.0526421,3.37089,5.56152,0.297406,0.136143,0.69858,0
2024-12-13 15:33:41.325,0.0358923,3.38046,5.47538,0.280303,0.150192,0.708965,0
2024-12-13 15:33:41.327,0.0382852,3.39721,5.39881,0.264421,0.166685,0.716295,0
2024-12-13 15:33:41.332,0.040678,3.4331,5.28844,0.228991,0.204557,0.737064,0
2024-12-13 15:33:41.332,0.040678,3.4331,5.28844,0.228991,0.204557,0.737064,0
2024-12-13 15:33:41.334,0.0430708,3.45942,5.25972,0.209444,0.225937,0.746837,0
2024-12-13 15:33:41.337,0.0550349,3.48574,5.23101,0.188675,0.245484,0.752946,0
2024-12-13 15:33:41.339,0.066999,3.51446,5.22383,0.17035,0.268086,0.759054,0
2024-12-13 15:33:41.341,0.0717847,3.53839,5.22144,0.147749,0.287633,0.76333,0
2024-12-13 15:33:41.344,0.0885344,3.54078,5.22862,0.128812,0.305347,0.767606,0
2024-12-13 15:33:41.346,0.114855,3.5336,5.26451,0.108044,0.326727,0.77066,0
2024-12-13 15:33:41.351,0.0574277,3.57189,5.36291,0.0720036,0.355437,0.772493,0
2024-12-13 15:33:41.351,0.0574277,3.57189,5.36291,0.0720036,0.355437,0.772493,0
2024-12-13 15:33:41.353,-0.0119641,3.61735,5.38206,0.0548999,0.371319,0.773714,0
2024-12-13 15:33:41.356,-0.0717847,3.67986,5.41556,0.0377962,0.384757,0.776769,0
2024-12-13 15:33:41.358,-0.119641,3.74208,5.46102,0.0213033,0.394531,0.779823,0
2024-12-13 15:33:41.360,-0.18664,3.78993,5.51127,0.00297788,0.40125,0.784099,0
2024-12-13 15:33:41.363,-0.267996,3.83061,5.55673,-0.0129041,0.406137,0.787764,0
2024-12-13 15:33:41.365,-0.328116,3.86172,5.58066,-0.0300079,0.404305,0.79204,0
2024-12-13 15:33:41.367,-0.366401,3.88564,5.62373,-0.0471116,0.397585,0.795094,0
2024-12-13 15:33:41.370,-0.407079,3.89282,5.69073,-0.0611611,0.387201,0.79937,0
2024-12-13 15:33:41.372,-0.440578,3.90718,5.75534,-0.0782648,0.373762,0.806089,0
2024-12-13 15:33:41.374,-0.462114,3.92632,5.81037,-0.0886492,0.359102,0.809144,0
2024-12-13 15:33:41.377,-0.481256,3.94786,5.88216,-0.102088,0.339555,0.812198,0
2024-12-13 15:33:41.379,-0.486042,3.97179,5.95903,-0.114916,0.319397,0.814641,0
2024-12-13 15:33:41.382,-0.471685,4.01007,6.02363,-0.121635,0.295574,0.815863,0
2024-12-13 15:33:41.384,-0.469292,4.04118,6.08106,-0.130187,0.270529,0.815252,0
2024-12-13 15:33:41.386,-0.474078,4.04836,6.14567,-0.13935,0.248538,0.814641,0
2024-12-13 15:33:41.389,-0.459721,4.05314,6.21506,-0.146069,0.223494,0.813419,0
2024-12-13 15:33:41.393,-0.447757,4.05314,6.34188,-0.152177,0.180734,0.806089,0
2024-12-13 15:33:41.393,-0.447757,4.05314,6.34188,-0.152177,0.180734,0.806089,0
2024-12-13 15:33:41.396,-0.431007,4.04596,6.41605,-0.155842,0.164242,0.800592,0
2024-12-13 15:33:41.398,-0.426222,4.01725,6.49053,-0.15401,0.14836,0.796927,0
2024-12-13 15:33:41.400,-0.431007,3.99811,6.55753,-0.153399,0.136753,0.789596,0
2024-12-13 15:33:41.403,-0.440578,4.0005,6.62931,-0.154621,0.126369,0.781045,0
2024-12-13 15:33:41.405,-0.438186,3.98854,6.70828,-0.151566,0.117817,0.772493,0
2024-12-13 15:33:41.410,-0.445364,3.96939,6.77767,-0.149123,0.103157,0.755389,0
2024-12-13 15:33:41.410,-0.459721,3.95743,6.86142,-0.149123,0.103157,0.755389,0
2024-12-13 15:33:41.412,-0.462114,3.95743,6.93799,-0.147901,0.101324,0.746226,0
2024-12-13 15:33:41.414,-0.457328,3.94786,6.98585,-0.148512,0.0982701,0.737064,0
2024-12-13 15:33:41.417,-0.447757,3.92632,7.04597,-0.148512,0.094605,0.729123,0
2024-12-13 15:33:41.422,-0.383151,3.90239,7.18475,-0.16134,0.0860531,0.71263,0
2024-12-13 15:33:41.422,-0.383151,3.90239,7.18475,-0.16134,0.0860531,0.71263,0
2024-12-13 15:33:41.424,-0.330509,3.89522,7.24696,-0.165616,0.0829989,0.703467,0
2024-12-13 15:33:41.426,-0.27996,3.87129,7.30439,-0.176,0.0793338,0.696748,0
2024-12-13 15:33:41.429,-0.229711,3.84018,7.38335,-0.185774,0.0768904,0.688196,0
2024-12-13 15:33:41.431,-0.193819,3.80907,7.46949,-0.193715,0.0732253,0.677811,0
2024-12-13 15:33:41.433,-0.136391,3.766,7.54846,-0.20471,0.074447,0.671092,0
2024-12-13 15:33:41.436,-0.0717847,3.73729,7.64686,-0.216316,0.0768904,0.66254,0
2024-12-13 15:33:41.438,-0.0239282,3.7014,7.74736,-0.227312,0.0829989,0.655821,0
2024-12-13 15:33:41.440,0.0311067,3.63171,7.85025,-0.236474,0.090329,0.646047,0
2024-12-13 15:33:41.445,0.0957129,3.50249,8.08714,-0.252356,0.11293,0.632609,0
2024-12-13 15:33:41.445,0.0957129,3.50249,8.08714,-0.252356,0.11293,0.632609,0
2024-12-13 15:33:41.447,0.114855,3.44028,8.21426,-0.257243,0.130645,0.625279,0
2024-12-13 15:33:41.450,0.131605,3.37807,8.34108,-0.263352,0.145305,0.618559,0
2024-12-13 15:33:41.455,0.155533,3.25603,8.5684,-0.267017,0.16302,0.612451,0
2024-12-13 15:33:41.457,0.155533,3.18664,8.66411,-0.270071,0.200282,0.600234,0
2024-12-13 15:33:41.459,0.141177,3.12921,8.7697,-0.26946,0.221661,0.596569,0
2024-12-13 15:33:41.459,0.141177,3.12921,8.7697,-0.26946,0.221661,0.596569,0
2024-12-13 15:33:41.462,0.12682,3.07627,8.87737,-0.268849,0.244873,0.591071,0
2024-12-13 15:33:41.464,0.112463,3.00927,8.98744,-0.265184,0.266864,0.585573,0
2024-12-13 15:33:41.466,0.0909273,2.96142,9.11187,-0.259686,0.291909,0.584352,0
2024-12-13 15:33:41.469,0.0646062,2.9351,9.22433,-0.255411,0.313899,0.581908,0
2024-12-13 15:33:41.471,0.0287139,2.90399,9.32992,-0.248691,0.333446,0.578854,0
2024-12-13 15:33:41.473,-0.0215354,2.89681,9.40888,-0.241361,0.354826,0.5758,0
2024-12-13 15:33:41.476,-0.0550349,2.88485,9.47827,-0.232198,0.377427,0.576411,0
2024-12-13 15:33:41.478,-0.0598206,2.84656,9.59552,-0.217538,0.395753,0.576411,0
2024-12-13 15:33:41.480,-0.0693919,2.8011,9.71277,-0.204099,0.415911,0.576411,0
2024-12-13 15:33:41.483,-0.0717847,2.74367,9.78694,-0.183941,0.432404,0.574578,0
2024-12-13 15:33:41.485,-0.0598206,2.71496,9.83271,-0.16134,0.452561,0.573967,0
2024-12-13 15:33:41.487,-0.0646062,2.69103,9.8686,-0.136295,0.472109,0.572135,0
2024-12-13 15:33:41.490,-0.0981057,2.66949,9.88296,-0.111251,0.490434,0.570302,0
2024-12-13 15:33:41.495,-0.165105,2.68624,9.81087,-0.049555,0.526474,0.569691,0
2024-12-13 15:33:41.497,-0.198604,2.66949,9.74627,-0.0153475,0.543578,0.570302,0
2024-12-13 15:33:41.497,-0.198604,2.66949,9.74627,-0.0153475,0.543578,0.570302,0
2024-12-13 15:33:41.499,-0.234497,2.66231,9.65534,0.0182491,0.557627,0.572135,0
2024-12-13 15:33:41.502,-0.267996,2.67428,9.53809,0.0530674,0.568012,0.573967,0
2024-12-13 15:33:41.504,-0.294616,2.69821,9.43041,0.0884965,0.579618,0.578854,0
2024-12-13 15:33:41.506,-0.316152,2.71017,9.29881,0.120871,0.583283,0.58313,0
2024-12-13 15:33:41.509,-0.34008,2.71974,9.15973,0.153857,0.587559,0.59046,0
2024-12-13 15:33:41.511,-0.364008,2.71735,9.00898,0.182567,0.586948,0.599012,0
2024-12-13 15:33:41.513,-0.371187,2.71496,8.83909,0.214331,0.585726,0.607564,0
2024-12-13 15:33:41.516,-0.378365,2.71974,8.66411,0.241208,0.582672,0.617948,0
2024-12-13 15:33:41.520,-0.380758,2.71256,8.28365,0.291298,0.571677,0.635052,0
2024-12-13 15:33:41.523,-0.344866,2.72213,8.09671,0.315121,0.564957,0.645436,0
2024-12-13 15:33:41.523,-0.344866,2.72213,8.09671,0.315121,0.564957,0.645436,0
2024-12-13 15:33:41.525,-0.297009,2.77238,7.90289,0.335279,0.553351,0.653988,0
2024-12-13 15:33:41.528,-0.229711,2.81785,7.69472,0.349939,0.546021,0.656432,0
2024-12-13 15:33:41.530,-0.196211,2.80828,7.50539,0.363378,0.53808,0.657653,0
2024-12-13 15:33:41.532,-0.232104,2.78913,7.36182,0.379336,0.529528,0.658875,0
2024-12-13 15:33:41.535,-0.301795,2.76281,7.19193,0.392775,0.517922,0.665594,0
2024-12-13 15:33:41.537,-0.35683,2.71496,6.96431,0.406213,0.501429,0.677201,0
2024-12-13 15:33:41.539,-0.371187,2.68385,6.69153,0.4111,0.476995,0.688196,0
2024-12-13 15:33:41.542,-0.366401,2.69581,6.3993,0.412322,0.450729,0.699191,0
2024-12-13 15:33:41.544,-0.342473,2.71256,6.14806,0.408046,0.42263,0.707743,0
2024-12-13 15:33:41.546,-0.294616,2.72931,5.94467,0.401937,0.393309,0.715684,0
2024-12-13 15:33:41.549,-0.265603,2.76281,5.75055,0.390331,0.366432,0.723014,0
2024-12-13 15:33:41.551,-0.244068,2.78196,5.5687,0.378725,0.341387,0.730344,0
2024-12-13 15:33:41.553,-0.229711,2.77478,5.4012,0.359102,0.318175,0.73462,0
2024-12-13 15:33:41.556,-0.234497,2.77478,5.24776,0.338333,0.297406,0.740118,0
2024-12-13 15:33:41.558,-0.256032,2.77956,5.12094,0.318175,0.277859,0.746837,0
2024-12-13 15:33:41.560,-0.265603,2.79631,5.04437,0.298017,0.263199,0.753556,0
2024-12-13 15:33:41.563,-0.260818,2.78435,4.97019,0.276027,0.24976,0.761497,0
2024-12-13 15:33:41.565,-0.256032,2.75085,4.86491,0.250982,0.238154,0.770049,0
2024-12-13 15:33:41.568,-0.241675,2.71735,4.77877,0.228381,0.22777,0.776769,0
2024-12-13 15:33:41.570,-0.198604,2.7006,4.72582,0.204557,0.215553,0.780434,0
2024-12-13 15:33:41.572,-0.143569,2.71017,4.68275,0.180124,0.202725,0.782266,0
2024-12-13 15:33:41.575,-0.136391,2.72453,4.66122,0.153857,0.186232,0.787153,0
2024-12-13 15:33:41.577,-0.138784,2.72453,4.65643,0.129423,0.169739,0.792651,0
2024-12-13 15:33:41.580,-0.136391,2.72453,4.65643,0.106822,0.152635,0.797537,0
