timestamp,accel_x,accel_y,accel_z,gyro_x,gyro_y,gyro_z,step_timestamp
2024-12-13 15:41:56.097,-0.476471,3.91436,10.3759,0.261366,0.0310769,0.129805,0
2024-12-13 15:41:56.099,-0.464507,3.95025,10.1557,0.261366,0.0310769,0.129805,0
2024-12-13 15:41:56.099,-0.464507,3.95025,10.1557,0.261366,0.0310769,0.129805,0
2024-12-13 15:41:56.099,-0.464507,3.95025,10.1557,0.261366,0.0310769,0.129805,0
2024-12-13 15:41:56.099,-0.464507,3.95025,10.1557,0.261366,0.0310769,0.129805,0
2024-12-13 15:41:56.099,-0.464507,3.95025,10.1557,0.261366,0.0310769,0.129805,0
2024-12-13 15:41:56.099,-0.464507,3.95025,10.1557,0.261366,0.0310769,0.129805,0
2024-12-13 15:41:56.099,-0.464507,3.95025,10.1557,0.261366,0.0310769,0.129805,0
2024-12-13 15:41:56.099,-0.464507,3.95025,10.1557,0.261366,0.0310769,0.129805,0
2024-12-13 15:41:56.099,-0.464507,3.95025,10.1557,0.261366,0.0310769,0.129805,0
2024-12-13 15:41:56.101,-0.464507,3.97179,9.94995,0.280303,0.0213033,0.125529,0
2024-12-13 15:41:56.101,-0.464507,3.97179,9.94995,0.280303,0.0213033,0.125529,0
2024-12-13 15:41:56.101,-0.464507,3.97179,9.94995,0.280303,0.0213033,0.125529,0
2024-12-13 15:41:56.101,-0.464507,3.97179,9.94995,0.280303,0.0213033,0.125529,0
2024-12-13 15:41:56.101,-0.464507,3.97179,9.94995,0.280303,0.0213033,0.125529,0
2024-12-13 15:41:56.101,-0.464507,3.97179,9.94995,0.280303,0.0213033,0.125529,0
2024-12-13 15:41:56.101,-0.464507,3.97179,9.94995,0.280303,0.0213033,0.125529,0
2024-12-13 15:41:56.103,-0.445364,3.99093,9.75105,0.295574,0.0127514,0.120642,0
2024-12-13 15:41:56.103,-0.445364,3.99093,9.75105,0.295574,0.0127514,0.120642,0
2024-12-13 15:41:56.103,-0.445364,3.99093,9.75105,0.295574,0.0127514,0.120642,0
2024-12-13 15:41:56.103,-0.445364,3.99093,9.75105,0.295574,0.0127514,0.120642,0
2024-12-13 15:41:56.103,-0.445364,3.99093,9.75105,0.295574,0.0127514,0.120642,0
2024-12-13 15:41:56.103,-0.445364,3.99093,9.75105,0.295574,0.0127514,0.120642,0
2024-12-13 15:41:56.106,-0.411865,4.01007,9.55963,0.309012,0.0115297,0.115756,0
2024-12-13 15:41:56.106,-0.411865,4.01007,9.55963,0.309012,0.0115297,0.115756,0
2024-12-13 15:41:56.106,-0.411865,4.01007,9.55963,0.309012,0.0115297,0.115756,0
2024-12-13 15:41:56.106,-0.411865,4.01007,9.55963,0.309012,0.0115297,0.115756,0
2024-12-13 15:41:56.106,-0.411865,4.01007,9.55963,0.309012,0.0115297,0.115756,0
2024-12-13 15:41:56.108,-0.385544,4.02682,9.38256,0.318175,0.00542127,0.113923,0
2024-12-13 15:41:56.108,-0.385544,4.02682,9.38256,0.318175,0.00542127,0.113923,0
2024-12-13 15:41:56.108,-0.385544,4.02682,9.38256,0.318175,0.00542127,0.113923,0
2024-12-13 15:41:56.108,-0.385544,4.02682,9.38256,0.318175,0.00542127,0.113923,0
2024-12-13 15:41:56.110,-0.361615,4.05075,9.2339,0.329781,-7.63559e-05,0.11209,0
2024-12-13 15:41:56.110,-0.361615,4.05075,9.2339,0.329781,-7.63559e-05,0.11209,0
2024-12-13 15:41:56.110,-0.361615,4.05075,9.2339,0.329781,-7.63559e-05,0.11209,0
2024-12-13 15:41:56.110,-0.361615,4.05075,9.2339,0.329781,-7.63559e-05,0.11209,0
2024-12-13 15:41:56.113,-0.330509,4.06032,9.09033,0.33589,-0.00862822,0.107204,0
2024-12-13 15:41:56.113,-0.330509,4.06032,9.09033,0.33589,-0.00862822,0.107204,0
2024-12-13 15:41:56.113,-0.330509,4.06032,9.09033,0.33589,-0.00862822,0.107204,0
2024-12-13 15:41:56.113,-0.330509,4.06032,9.09033,0.33589,-0.00862822,0.107204,0
2024-12-13 15:41:56.113,-0.330509,4.06032,9.09033,0.33589,-0.00862822,0.107204,0
2024-12-13 15:41:56.113,-0.330509,4.06032,9.09033,0.33589,-0.00862822,0.107204,0
2024-12-13 15:41:56.115,-0.294616,4.07707,8.93241,0.34322,-0.0110716,0.105371,0
2024-12-13 15:41:56.115,-0.294616,4.07707,8.93241,0.34322,-0.0110716,0.105371,0
2024-12-13 15:41:56.115,-0.294616,4.07707,8.93241,0.34322,-0.0110716,0.105371,0
2024-12-13 15:41:56.115,-0.294616,4.07707,8.93241,0.34322,-0.0110716,0.105371,0
2024-12-13 15:41:56.115,-0.294616,4.07707,8.93241,0.34322,-0.0110716,0.105371,0
2024-12-13 15:41:56.118,-0.251246,4.08903,8.78166,0.349328,-0.013515,0.10476,0
2024-12-13 15:41:56.118,-0.251246,4.08903,8.78166,0.349328,-0.013515,0.10476,0
2024-12-13 15:41:56.118,-0.251246,4.08903,8.78166,0.349328,-0.013515,0.10476,0
2024-12-13 15:41:56.118,-0.251246,4.08903,8.78166,0.349328,-0.013515,0.10476,0
2024-12-13 15:41:56.118,-0.251246,4.08903,8.78166,0.349328,-0.013515,0.10476,0
2024-12-13 15:41:56.118,-0.251246,4.08903,8.78166,0.349328,-0.013515,0.10476,0
2024-12-13 15:41:56.118,-0.251246,4.08903,8.78166,0.349328,-0.013515,0.10476,0
2024-12-13 15:41:56.118,-0.251246,4.08903,8.78166,0.349328,-0.013515,0.10476,0
2024-12-13 15:41:56.120,-0.196211,4.101,8.64018,0.352383,-0.0141258,0.102317,0
2024-12-13 15:41:56.120,-0.196211,4.101,8.64018,0.352383,-0.0141258,0.102317,0
2024-12-13 15:41:56.120,-0.196211,4.101,8.64018,0.352383,-0.0141258,0.102317,0
2024-12-13 15:41:56.120,-0.196211,4.101,8.64018,0.352383,-0.0141258,0.102317,0
2024-12-13 15:41:56.120,-0.196211,4.101,8.64018,0.352383,-0.0141258,0.102317,0
2024-12-13 15:41:56.120,-0.196211,4.101,8.64018,0.352383,-0.0141258,0.102317,0
2024-12-13 15:41:56.122,-0.196211,4.101,8.64018,0.356048,-0.0122933,0.101706,0
2024-12-13 15:41:56.122,-0.148355,4.14168,8.49661,0.356048,-0.0122933,0.101706,0
2024-12-13 15:41:56.122,-0.148355,4.14168,8.49661,0.356048,-0.0122933,0.101706,0
2024-12-13 15:41:56.122,-0.148355,4.14168,8.49661,0.356048,-0.0122933,0.101706,0
2024-12-13 15:41:56.122,-0.148355,4.14168,8.49661,0.356048,-0.0122933,0.101706,0
2024-12-13 15:41:56.122,-0.148355,4.14168,8.49661,0.356048,-0.0122933,0.101706,0
2024-12-13 15:41:56.122,-0.148355,4.14168,8.49661,0.356048,-0.0122933,0.101706,0
2024-12-13 15:41:56.125,-0.148355,4.17039,8.35544,0.353604,-0.00801737,0.101095,0
2024-12-13 15:41:56.125,-0.11007,4.17039,8.35544,0.353604,-0.00801737,0.101095,0
2024-12-13 15:41:56.125,-0.11007,4.17039,8.35544,0.353604,-0.00801737,0.101095,0
2024-12-13 15:41:56.125,-0.11007,4.17039,8.35544,0.353604,-0.00801737,0.101095,0
2024-12-13 15:41:56.125,-0.11007,4.17039,8.35544,0.353604,-0.00801737,0.101095,0
2024-12-13 15:41:56.125,-0.11007,4.17039,8.35544,0.353604,-0.00801737,0.101095,0
2024-12-13 15:41:56.127,-0.0789631,4.17996,8.22383,0.347496,-0.00618483,0.100484,0
2024-12-13 15:41:56.127,-0.0789631,4.17996,8.22383,0.347496,-0.00618483,0.100484,0
2024-12-13 15:41:56.127,-0.0789631,4.17996,8.22383,0.347496,-0.00618483,0.100484,0
2024-12-13 15:41:56.127,-0.0789631,4.17996,8.22383,0.347496,-0.00618483,0.100484,0
2024-12-13 15:41:56.127,-0.0789631,4.17996,8.22383,0.347496,-0.00618483,0.100484,0
2024-12-13 15:41:56.127,-0.0789631,4.17996,8.22383,0.347496,-0.00618483,0.100484,0
2024-12-13 15:41:56.127,-0.0789631,4.17996,8.22383,0.347496,-0.00618483,0.100484,0
2024-12-13 15:41:56.127,-0.0789631,4.17996,8.22383,0.347496,-0.00618483,0.100484,0
2024-12-13 15:41:56.127,-0.0789631,4.17996,8.22383,0.347496,-0.00618483,0.100484,0
2024-12-13 15:41:56.129,-0.0430708,4.19671,8.09432,0.344442,0.00114534,0.101095,0
2024-12-13 15:41:56.129,-0.0430708,4.19671,8.09432,0.344442,0.00114534,0.101095,0
2024-12-13 15:41:56.129,-0.0430708,4.19671,8.09432,0.344442,0.00114534,0.101095,0
2024-12-13 15:41:56.129,-0.0430708,4.19671,8.09432,0.344442,0.00114534,0.101095,0
2024-12-13 15:41:56.129,-0.0430708,4.19671,8.09432,0.344442,0.00114534,0.101095,0
2024-12-13 15:41:56.132,-0.00957129,4.20628,7.96989,0.335279,0.00603212,0.104149,0
2024-12-13 15:41:56.132,-0.00957129,4.20628,7.96989,0.335279,0.00603212,0.104149,0
2024-12-13 15:41:56.132,-0.00957129,4.20628,7.96989,0.335279,0.00603212,0.104149,0
2024-12-13 15:41:56.132,-0.00957129,4.20628,7.96989,0.335279,0.00603212,0.104149,0
2024-12-13 15:41:56.132,-0.00957129,4.20628,7.96989,0.335279,0.00603212,0.104149,0
2024-12-13 15:41:56.132,-0.00957129,4.20628,7.96989,0.335279,0.00603212,0.104149,0
2024-12-13 15:41:56.132,-0.00957129,4.20628,7.96989,0.335279,0.00603212,0.104149,0
2024-12-13 15:41:56.132,-0.00957129,4.20628,7.96989,0.335279,0.00603212,0.104149,0
2024-12-13 15:41:56.134,0.0191426,4.22333,7.85504,0.327338,0.0151948,0.105371,0
2024-12-13 15:41:56.134,0.0191426,4.22333,7.85504,0.327338,0.0151948,0.105371,0
2024-12-13 15:41:56.134,0.0191426,4.22333,7.85504,0.327338,0.0151948,0.105371,0
2024-12-13 15:41:56.134,0.0191426,4.22333,7.85504,0.327338,0.0151948,0.105371,0
2024-12-13 15:41:56.134,0.0191426,4.22333,7.85504,0.327338,0.0151948,0.105371,0
2024-12-13 15:41:56.134,0.0191426,4.22333,7.85504,0.327338,0.0151948,0.105371,0
2024-12-13 15:41:56.134,0.0191426,4.22333,7.85504,0.327338,0.0151948,0.105371,0
2024-12-13 15:41:56.134,0.0191426,4.22333,7.85504,0.327338,0.0151948,0.105371,0
2024-12-13 15:41:56.134,0.0191426,4.22333,7.85504,0.327338,0.0151948,0.105371,0
2024-12-13 15:41:56.136,0.0430708,4.24247,7.73779,0.316343,0.0231358,0.107815,0
2024-12-13 15:41:56.136,0.0430708,4.24247,7.73779,0.316343,0.0231358,0.107815,0
2024-12-13 15:41:56.136,0.0430708,4.24247,7.73779,0.316343,0.0231358,0.107815,0
2024-12-13 15:41:56.136,0.0430708,4.24247,7.73779,0.316343,0.0231358,0.107815,0
2024-12-13 15:41:56.136,0.0430708,4.24247,7.73779,0.316343,0.0231358,0.107815,0
2024-12-13 15:41:56.136,0.0430708,4.24247,7.73779,0.316343,0.0231358,0.107815,0
2024-12-13 15:41:56.136,0.0430708,4.24247,7.73779,0.316343,0.0231358,0.107815,0
2024-12-13 15:41:56.139,0.0526421,4.25922,7.62772,0.301682,0.0329094,0.109647,0
2024-12-13 15:41:56.139,0.0526421,4.25922,7.62772,0.301682,0.0329094,0.109647,0
2024-12-13 15:41:56.139,0.0526421,4.25922,7.62772,0.301682,0.0329094,0.109647,0
2024-12-13 15:41:56.139,0.0526421,4.25922,7.62772,0.301682,0.0329094,0.109647,0
2024-12-13 15:41:56.139,0.0526421,4.25922,7.62772,0.301682,0.0329094,0.109647,0
2024-12-13 15:41:56.139,0.0526421,4.25922,7.62772,0.301682,0.0329094,0.109647,0
2024-12-13 15:41:56.139,0.0526421,4.25922,7.62772,0.301682,0.0329094,0.109647,0
2024-12-13 15:41:56.141,0.0526421,4.2664,7.53649,0.283968,0.0420721,0.11148,0
2024-12-13 15:41:56.141,0.0526421,4.2664,7.53649,0.283968,0.0420721,0.11148,0
2024-12-13 15:41:56.141,0.0526421,4.2664,7.53649,0.283968,0.0420721,0.11148,0
2024-12-13 15:41:56.141,0.0526421,4.2664,7.53649,0.283968,0.0420721,0.11148,0
2024-12-13 15:41:56.141,0.0526421,4.2664,7.53649,0.283968,0.0420721,0.11148,0
2024-12-13 15:41:56.141,0.0526421,4.2664,7.53649,0.283968,0.0420721,0.11148,0
2024-12-13 15:41:56.141,0.0526421,4.2664,7.53649,0.283968,0.0420721,0.11148,0
2024-12-13 15:41:56.141,0.0526421,4.2664,7.53649,0.283968,0.0420721,0.11148,0
2024-12-13 15:41:56.141,0.0526421,4.2664,7.53649,0.283968,0.0420721,0.11148,0
2024-12-13 15:41:56.141,0.0526421,4.2664,7.53649,0.283968,0.0420721,0.11148,0
2024-12-13 15:41:56.143,0.0646062,4.25922,7.45275,0.267475,0.0524565,0.116366,0
2024-12-13 15:41:56.143,0.0646062,4.25922,7.45275,0.267475,0.0524565,0.116366,0
2024-12-13 15:41:56.143,0.0646062,4.25922,7.45275,0.267475,0.0524565,0.116366,0
2024-12-13 15:41:56.143,0.0646062,4.25922,7.45275,0.267475,0.0524565,0.116366,0
2024-12-13 15:41:56.143,0.0646062,4.25922,7.45275,0.267475,0.0524565,0.116366,0
2024-12-13 15:41:56.143,0.0646062,4.25922,7.45275,0.267475,0.0524565,0.116366,0
2024-12-13 15:41:56.143,0.0646062,4.25922,7.45275,0.267475,0.0524565,0.116366,0
2024-12-13 15:41:56.143,0.0646062,4.25922,7.45275,0.267475,0.0524565,0.116366,0
2024-12-13 15:41:56.143,0.0646062,4.25922,7.45275,0.267475,0.0524565,0.116366,0
2024-12-13 15:41:56.146,0.0861416,4.24965,7.41446,0.245484,0.0634518,0.120031,0
2024-12-13 15:41:56.146,0.0861416,4.24965,7.41446,0.245484,0.0634518,0.120031,0
2024-12-13 15:41:56.146,0.0861416,4.24965,7.41446,0.245484,0.0634518,0.120031,0
2024-12-13 15:41:56.146,0.0861416,4.24965,7.41446,0.245484,0.0634518,0.120031,0
2024-12-13 15:41:56.146,0.0861416,4.24965,7.41446,0.245484,0.0634518,0.120031,0
2024-12-13 15:41:56.146,0.0861416,4.24965,7.41446,0.245484,0.0634518,0.120031,0
2024-12-13 15:41:56.148,0.0933201,4.24487,7.39292,0.226548,0.0695602,0.122475,0
2024-12-13 15:41:56.148,0.0933201,4.24487,7.39292,0.226548,0.0695602,0.122475,0
2024-12-13 15:41:56.148,0.0933201,4.24487,7.39292,0.226548,0.0695602,0.122475,0
2024-12-13 15:41:56.148,0.0933201,4.24487,7.39292,0.226548,0.0695602,0.122475,0
2024-12-13 15:41:56.148,0.0933201,4.24487,7.39292,0.226548,0.0695602,0.122475,0
2024-12-13 15:41:56.148,0.0933201,4.24487,7.39292,0.226548,0.0695602,0.122475,0
2024-12-13 15:41:56.148,0.0933201,4.24487,7.39292,0.226548,0.0695602,0.122475,0
2024-12-13 15:41:56.148,0.0933201,4.24487,7.39292,0.226548,0.0695602,0.122475,0
2024-12-13 15:41:56.150,0.0837488,4.26401,7.2996,0.207612,0.0793338,0.124918,0
2024-12-13 15:41:56.150,0.0837488,4.26401,7.2996,0.207612,0.0793338,0.124918,0
2024-12-13 15:41:56.150,0.0837488,4.26401,7.2996,0.207612,0.0793338,0.124918,0
2024-12-13 15:41:56.150,0.0837488,4.26401,7.2996,0.207612,0.0793338,0.124918,0
2024-12-13 15:41:56.150,0.0837488,4.26401,7.2996,0.207612,0.0793338,0.124918,0
2024-12-13 15:41:56.150,0.0837488,4.26401,7.2996,0.207612,0.0793338,0.124918,0
2024-12-13 15:41:56.150,0.0837488,4.26401,7.2996,0.207612,0.0793338,0.124918,0
2024-12-13 15:41:56.150,0.0837488,4.26401,7.2996,0.207612,0.0793338,0.124918,0
2024-12-13 15:41:56.150,0.0837488,4.26401,7.2996,0.207612,0.0793338,0.124918,0
2024-12-13 15:41:56.153,0.0598206,4.28315,7.23261,0.183789,0.0909399,0.131027,0
2024-12-13 15:41:56.153,0.0598206,4.28315,7.23261,0.183789,0.0909399,0.131027,0
2024-12-13 15:41:56.153,0.0598206,4.28315,7.23261,0.183789,0.0909399,0.131027,0
2024-12-13 15:41:56.153,0.0598206,4.28315,7.23261,0.183789,0.0909399,0.131027,0
2024-12-13 15:41:56.153,0.0598206,4.28315,7.23261,0.183789,0.0909399,0.131027,0
2024-12-13 15:41:56.155,0.0598206,4.28315,7.28046,0.164242,0.0982701,0.137212,0
2024-12-13 15:41:56.155,0.0239282,4.29751,7.28046,0.164242,0.0982701,0.137212,0
2024-12-13 15:41:56.155,0.0239282,4.29751,7.28046,0.164242,0.0982701,0.137212,0
2024-12-13 15:41:56.155,0.0239282,4.29751,7.28046,0.164242,0.0982701,0.137212,0
2024-12-13 15:41:56.155,0.0239282,4.29751,7.28046,0.164242,0.0982701,0.137212,0
2024-12-13 15:41:56.155,0.0239282,4.29751,7.28046,0.164242,0.0982701,0.137212,0
2024-12-13 15:41:56.155,0.0239282,4.29751,7.28046,0.164242,0.0982701,0.137212,0
2024-12-13 15:41:56.158,0.0239282,4.3023,7.31875,0.144084,0.102546,0.144542,0
2024-12-13 15:41:56.158,-0.00239282,4.3023,7.31875,0.144084,0.102546,0.144542,0
2024-12-13 15:41:56.158,-0.00239282,4.3023,7.31875,0.144084,0.102546,0.144542,0
2024-12-13 15:41:56.158,-0.00239282,4.3023,7.31875,0.144084,0.102546,0.144542,0
2024-12-13 15:41:56.158,-0.00239282,4.3023,7.31875,0.144084,0.102546,0.144542,0
2024-12-13 15:41:56.158,-0.00239282,4.3023,7.31875,0.144084,0.102546,0.144542,0
2024-12-13 15:41:56.160,-0.0191426,4.29751,7.29482,0.124536,0.104379,0.152483,0
2024-12-13 15:41:56.160,-0.0191426,4.29751,7.29482,0.124536,0.104379,0.152483,0
2024-12-13 15:41:56.160,-0.0191426,4.29751,7.29482,0.124536,0.104379,0.152483,0
2024-12-13 15:41:56.160,-0.0191426,4.29751,7.29482,0.124536,0.104379,0.152483,0
2024-12-13 15:41:56.160,-0.0191426,4.29751,7.29482,0.124536,0.104379,0.152483,0
2024-12-13 15:41:56.160,-0.0191426,4.29751,7.29482,0.124536,0.104379,0.152483,0
2024-12-13 15:41:56.160,-0.0191426,4.29751,7.29482,0.124536,0.104379,0.152483,0
2024-12-13 15:41:56.160,-0.0191426,4.29751,7.29482,0.124536,0.104379,0.152483,0
2024-12-13 15:41:56.162,-0.0215354,4.28076,7.27568,0.103768,0.106822,0.160424,0
2024-12-13 15:41:56.162,-0.0215354,4.28076,7.27568,0.103768,0.106822,0.160424,0
2024-12-13 15:41:56.162,-0.0215354,4.28076,7.27568,0.103768,0.106822,0.160424,0
2024-12-13 15:41:56.162,-0.0215354,4.28076,7.27568,0.103768,0.106822,0.160424,0
2024-12-13 15:41:56.162,-0.0215354,4.28076,7.27568,0.103768,0.106822,0.160424,0
2024-12-13 15:41:56.162,-0.0215354,4.28076,7.27568,0.103768,0.106822,0.160424,0
2024-12-13 15:41:56.162,-0.0215354,4.28076,7.27568,0.103768,0.106822,0.160424,0
2024-12-13 15:41:56.165,-0.0119641,4.27597,7.2996,0.082388,0.109876,0.165921,0
2024-12-13 15:41:56.165,-0.0119641,4.27597,7.2996,0.082388,0.109876,0.165921,0
2024-12-13 15:41:56.165,-0.0119641,4.27597,7.2996,0.082388,0.109876,0.165921,0
2024-12-13 15:41:56.165,-0.0119641,4.27597,7.2996,0.082388,0.109876,0.165921,0
2024-12-13 15:41:56.165,-0.0119641,4.27597,7.2996,0.082388,0.109876,0.165921,0
2024-12-13 15:41:56.165,-0.0119641,4.27597,7.2996,0.082388,0.109876,0.165921,0
2024-12-13 15:41:56.165,-0.0119641,4.27597,7.2996,0.082388,0.109876,0.165921,0
2024-12-13 15:41:56.165,-0.0119641,4.27597,7.2996,0.082388,0.109876,0.165921,0
2024-12-13 15:41:56.167,0.00957129,4.2688,7.32832,0.0634518,0.110487,0.174473,0
2024-12-13 15:41:56.167,0.00957129,4.2688,7.32832,0.0634518,0.110487,0.174473,0
2024-12-13 15:41:56.167,0.00957129,4.2688,7.32832,0.0634518,0.110487,0.174473,0
2024-12-13 15:41:56.167,0.00957129,4.2688,7.32832,0.0634518,0.110487,0.174473,0
2024-12-13 15:41:56.167,0.00957129,4.2688,7.32832,0.0634518,0.110487,0.174473,0
2024-12-13 15:41:56.167,0.00957129,4.2688,7.32832,0.0634518,0.110487,0.174473,0
2024-12-13 15:41:56.169,0.00957129,4.2688,7.32832,0.0432938,0.11293,0.180582,0
2024-12-13 15:41:56.169,0.0358923,4.24965,7.34985,0.0432938,0.11293,0.180582,0
2024-12-13 15:41:56.169,0.0358923,4.24965,7.34985,0.0432938,0.11293,0.180582,0
2024-12-13 15:41:56.169,0.0358923,4.24965,7.34985,0.0432938,0.11293,0.180582,0
2024-12-13 15:41:56.169,0.0358923,4.24965,7.34985,0.0432938,0.11293,0.180582,0
2024-12-13 15:41:56.169,0.0358923,4.24965,7.34985,0.0432938,0.11293,0.180582,0
2024-12-13 15:41:56.172,0.0598206,4.2329,7.4001,0.0237467,0.111098,0.189134,0
2024-12-13 15:41:56.172,0.0598206,4.2329,7.4001,0.0237467,0.111098,0.189134,0
2024-12-13 15:41:56.172,0.0598206,4.2329,7.4001,0.0237467,0.111098,0.189134,0
2024-12-13 15:41:56.172,0.0598206,4.2329,7.4001,0.0237467,0.111098,0.189134,0
2024-12-13 15:41:56.172,0.0598206,4.2329,7.4001,0.0237467,0.111098,0.189134,0
2024-12-13 15:41:56.172,0.0598206,4.2329,7.4001,0.0237467,0.111098,0.189134,0
2024-12-13 15:41:56.174,0.081356,4.1991,7.45753,-0.000687203,0.108654,0.196464,0
2024-12-13 15:41:56.174,0.081356,4.1991,7.45753,-0.000687203,0.108654,0.196464,0
2024-12-13 15:41:56.174,0.081356,4.1991,7.45753,-0.000687203,0.108654,0.196464,0
2024-12-13 15:41:56.174,0.081356,4.1991,7.45753,-0.000687203,0.108654,0.196464,0
2024-12-13 15:41:56.176,0.0861416,4.17278,7.51257,-0.0165692,0.106211,0.200129,0
2024-12-13 15:41:56.176,0.0861416,4.17278,7.51257,-0.0165692,0.106211,0.200129,0
2024-12-13 15:41:56.176,0.0861416,4.17278,7.51257,-0.0165692,0.106211,0.200129,0
2024-12-13 15:41:56.176,0.0861416,4.17278,7.51257,-0.0165692,0.106211,0.200129,0
2024-12-13 15:41:56.176,0.0861416,4.17278,7.51257,-0.0165692,0.106211,0.200129,0
2024-12-13 15:41:56.176,0.0861416,4.17278,7.51257,-0.0165692,0.106211,0.200129,0
2024-12-13 15:41:56.179,0.100499,4.15603,7.57478,-0.0348946,0.102546,0.205016,0
2024-12-13 15:41:56.179,0.100499,4.15603,7.57478,-0.0348946,0.102546,0.205016,0
2024-12-13 15:41:56.179,0.100499,4.15603,7.57478,-0.0348946,0.102546,0.205016,0
2024-12-13 15:41:56.179,0.100499,4.15603,7.57478,-0.0348946,0.102546,0.205016,0
2024-12-13 15:41:56.179,0.100499,4.15603,7.57478,-0.0348946,0.102546,0.205016,0
2024-12-13 15:41:56.179,0.100499,4.15603,7.57478,-0.0348946,0.102546,0.205016,0
2024-12-13 15:41:56.179,0.100499,4.15603,7.57478,-0.0348946,0.102546,0.205016,0
2024-12-13 15:41:56.181,0.119641,4.12253,7.62772,-0.0538309,0.100713,0.211735,0
2024-12-13 15:41:56.181,0.119641,4.12253,7.62772,-0.0538309,0.100713,0.211735,0
2024-12-13 15:41:56.181,0.119641,4.12253,7.62772,-0.0538309,0.100713,0.211735,0
2024-12-13 15:41:56.181,0.119641,4.12253,7.62772,-0.0538309,0.100713,0.211735,0
2024-12-13 15:41:56.181,0.119641,4.12253,7.62772,-0.0538309,0.100713,0.211735,0
2024-12-13 15:41:56.181,0.119641,4.12253,7.62772,-0.0538309,0.100713,0.211735,0
2024-12-13 15:41:56.181,0.119641,4.12253,7.62772,-0.0538309,0.100713,0.211735,0
2024-12-13 15:41:56.181,0.119641,4.12253,7.62772,-0.0538309,0.100713,0.211735,0
2024-12-13 15:41:56.181,0.119641,4.12253,7.62772,-0.0538309,0.100713,0.211735,0
2024-12-13 15:41:56.183,0.114855,4.07946,7.7019,-0.0684913,0.0988809,0.2154,0
2024-12-13 15:41:56.183,0.114855,4.07946,7.7019,-0.0684913,0.0988809,0.2154,0
2024-12-13 15:41:56.183,0.114855,4.07946,7.7019,-0.0684913,0.0988809,0.2154,0
2024-12-13 15:41:56.183,0.114855,4.07946,7.7019,-0.0684913,0.0988809,0.2154,0
2024-12-13 15:41:56.183,0.114855,4.07946,7.7019,-0.0684913,0.0988809,0.2154,0
2024-12-13 15:41:56.183,0.114855,4.07946,7.7019,-0.0684913,0.0988809,0.2154,0
2024-12-13 15:41:56.183,0.114855,4.07946,7.7019,-0.0684913,0.0988809,0.2154,0
2024-12-13 15:41:56.183,0.114855,4.07946,7.7019,-0.0684913,0.0988809,0.2154,0
2024-12-13 15:41:56.183,0.114855,4.07946,7.7019,-0.0684913,0.0988809,0.2154,0
2024-12-13 15:41:56.183,0.114855,4.07946,7.7019,-0.0684913,0.0988809,0.2154,0
2024-12-13 15:41:56.183,0.114855,4.07946,7.7019,-0.0684913,0.0988809,0.2154,0
2024-12-13 15:41:56.186,0.100499,4.05314,7.79522,-0.0837624,0.0976592,0.220287,0
2024-12-13 15:41:56.186,0.100499,4.05314,7.79522,-0.0837624,0.0976592,0.220287,0
2024-12-13 15:41:56.186,0.100499,4.05314,7.79522,-0.0837624,0.0976592,0.220287,0
2024-12-13 15:41:56.187,0.100499,4.05314,7.79522,-0.0984228,0.0958267,0.225174,0
2024-12-13 15:41:56.188,0.100499,4.02443,7.87657,-0.0984228,0.0958267,0.225174,0
2024-12-13 15:41:56.188,0.100499,4.05314,7.79522,-0.0984228,0.0958267,0.225174,0
2024-12-13 15:41:56.188,0.100499,4.02443,7.87657,-0.0984228,0.0958267,0.225174,0
2024-12-13 15:41:56.188,0.100499,4.02443,7.87657,-0.0984228,0.0958267,0.225174,0
2024-12-13 15:41:56.188,0.100499,4.02443,7.87657,-0.0984228,0.0958267,0.225174,0
2024-12-13 15:41:56.188,0.100499,4.02443,7.87657,-0.0984228,0.0958267,0.225174,0
2024-12-13 15:41:56.188,0.100499,4.02443,7.87657,-0.0984228,0.0958267,0.225174,0
2024-12-13 15:41:56.188,0.100499,4.02443,7.87657,-0.0984228,0.0958267,0.225174,0
2024-12-13 15:41:56.188,0.100499,4.02443,7.87657,-0.0984228,0.0958267,0.225174,0
2024-12-13 15:41:56.188,0.100499,4.02443,7.87657,-0.0984228,0.0958267,0.225174,0
2024-12-13 15:41:56.188,0.100499,4.02443,7.87657,-0.0984228,0.0958267,0.225174,0
2024-12-13 15:41:56.191,0.102891,3.99332,7.97947,-0.111861,0.094605,0.23006,0
2024-12-13 15:41:56.191,0.102891,3.99332,7.97947,-0.111861,0.094605,0.23006,0
2024-12-13 15:41:56.191,0.102891,3.99332,7.97947,-0.111861,0.094605,0.23006,0
2024-12-13 15:41:56.191,0.102891,3.99332,7.97947,-0.111861,0.094605,0.23006,0
2024-12-13 15:41:56.191,0.102891,3.99332,7.97947,-0.111861,0.094605,0.23006,0
2024-12-13 15:41:56.191,0.102891,3.99332,7.97947,-0.111861,0.094605,0.23006,0
2024-12-13 15:41:56.191,0.102891,3.99332,7.97947,-0.111861,0.094605,0.23006,0
2024-12-13 15:41:56.191,0.102891,3.99332,7.97947,-0.111861,0.094605,0.23006,0
2024-12-13 15:41:56.193,0.0957129,3.96222,8.08953,-0.119802,0.0915507,0.234336,0
2024-12-13 15:41:56.193,0.0957129,3.96222,8.08953,-0.119802,0.0915507,0.234336,0
2024-12-13 15:41:56.193,0.0957129,3.96222,8.08953,-0.119802,0.0915507,0.234336,0
2024-12-13 15:41:56.193,0.0957129,3.96222,8.08953,-0.119802,0.0915507,0.234336,0
2024-12-13 15:41:56.193,0.0957129,3.96222,8.08953,-0.119802,0.0915507,0.234336,0
2024-12-13 15:41:56.193,0.0957129,3.96222,8.08953,-0.119802,0.0915507,0.234336,0
2024-12-13 15:41:56.193,0.0957129,3.96222,8.08953,-0.119802,0.0915507,0.234336,0
2024-12-13 15:41:56.193,0.0957129,3.96222,8.08953,-0.119802,0.0915507,0.234336,0
2024-12-13 15:41:56.193,0.0957129,3.96222,8.08953,-0.119802,0.0915507,0.234336,0
2024-12-13 15:41:56.193,0.0957129,3.96222,8.08953,-0.119802,0.0915507,0.234336,0
2024-12-13 15:41:56.195,0.0861416,3.90718,8.18794,-0.129576,0.0860531,0.238612,0
2024-12-13 15:41:56.195,0.0861416,3.90718,8.18794,-0.129576,0.0860531,0.238612,0
2024-12-13 15:41:56.195,0.0861416,3.90718,8.18794,-0.129576,0.0860531,0.238612,0
2024-12-13 15:41:56.195,0.0861416,3.90718,8.18794,-0.129576,0.0860531,0.238612,0
2024-12-13 15:41:56.195,0.0861416,3.90718,8.18794,-0.129576,0.0860531,0.238612,0
2024-12-13 15:41:56.195,0.0861416,3.90718,8.18794,-0.129576,0.0860531,0.238612,0
2024-12-13 15:41:56.198,0.0789631,3.85454,8.28605,-0.134463,0.0829989,0.24411,0
2024-12-13 15:41:56.198,0.0789631,3.85454,8.28605,-0.134463,0.0829989,0.24411,0
2024-12-13 15:41:56.198,0.0789631,3.85454,8.28605,-0.134463,0.0829989,0.24411,0
2024-12-13 15:41:56.198,0.0789631,3.85454,8.28605,-0.134463,0.0829989,0.24411,0
2024-12-13 15:41:56.198,0.0789631,3.85454,8.28605,-0.134463,0.0829989,0.24411,0
2024-12-13 15:41:56.198,0.0789631,3.85454,8.28605,-0.134463,0.0829989,0.24411,0
2024-12-13 15:41:56.198,0.0789631,3.85454,8.28605,-0.134463,0.0829989,0.24411,0
2024-12-13 15:41:56.198,0.0789631,3.85454,8.28605,-0.134463,0.0829989,0.24411,0
2024-12-13 15:41:56.198,0.0789631,3.85454,8.28605,-0.134463,0.0829989,0.24411,0
2024-12-13 15:41:56.198,0.0789631,3.85454,8.28605,-0.134463,0.0829989,0.24411,0
2024-12-13 15:41:56.200,0.0741775,3.82343,8.39133,-0.13996,0.0805555,0.250218,0
2024-12-13 15:41:56.200,0.0741775,3.82343,8.39133,-0.13996,0.0805555,0.250218,0
2024-12-13 15:41:56.200,0.0741775,3.82343,8.39133,-0.13996,0.0805555,0.250218,0
2024-12-13 15:41:56.200,0.0741775,3.82343,8.39133,-0.13996,0.0805555,0.250218,0
2024-12-13 15:41:56.200,0.0741775,3.82343,8.39133,-0.13996,0.0805555,0.250218,0
2024-12-13 15:41:56.200,0.0741775,3.82343,8.39133,-0.13996,0.0805555,0.250218,0
2024-12-13 15:41:56.200,0.0741775,3.82343,8.39133,-0.13996,0.0805555,0.250218,0
2024-12-13 15:41:56.200,0.0741775,3.82343,8.39133,-0.13996,0.0805555,0.250218,0
2024-12-13 15:41:56.200,0.0741775,3.82343,8.39133,-0.13996,0.0805555,0.250218,0
2024-12-13 15:41:56.200,0.0741775,3.82343,8.39133,-0.13996,0.0805555,0.250218,0
2024-12-13 15:41:56.202,0.0550349,3.78754,8.48465,-0.141793,0.0768904,0.253883,0
2024-12-13 15:41:56.202,0.0550349,3.78754,8.48465,-0.141793,0.0768904,0.253883,0
2024-12-13 15:41:56.202,0.0550349,3.78754,8.48465,-0.141793,0.0768904,0.253883,0
2024-12-13 15:41:56.202,0.0550349,3.78754,8.48465,-0.141793,0.0768904,0.253883,0
2024-12-13 15:41:56.202,0.0550349,3.78754,8.48465,-0.141793,0.0768904,0.253883,0
2024-12-13 15:41:56.202,0.0550349,3.78754,8.48465,-0.141793,0.0768904,0.253883,0
2024-12-13 15:41:56.202,0.0550349,3.78754,8.48465,-0.141793,0.0768904,0.253883,0
2024-12-13 15:41:56.202,0.0550349,3.78754,8.48465,-0.141793,0.0768904,0.253883,0
2024-12-13 15:41:56.205,0.040678,3.75404,8.54447,-0.145458,0.0762796,0.25877,0
2024-12-13 15:41:56.205,0.040678,3.75404,8.54447,-0.145458,0.0762796,0.25877,0
2024-12-13 15:41:56.205,0.040678,3.75404,8.54447,-0.145458,0.0762796,0.25877,0
2024-12-13 15:41:56.205,0.040678,3.75404,8.54447,-0.145458,0.0762796,0.25877,0
2024-12-13 15:41:56.205,0.040678,3.75404,8.54447,-0.145458,0.0762796,0.25877,0
2024-12-13 15:41:56.207,0.0550349,3.71815,8.60429,-0.142404,0.0750579,0.263657,0
2024-12-13 15:41:56.209,0.0622134,3.67268,8.6689,-0.143625,0.0707819,0.267933,0
2024-12-13 15:41:56.212,0.0693919,3.62453,8.7338,-0.143625,0.0671168,0.271598,0
2024-12-13 15:41:56.214,0.081356,3.57667,8.80319,-0.13935,0.066506,0.275263,0
2024-12-13 15:41:56.216,0.0837488,3.53599,8.84866,-0.136906,0.0646735,0.279539,0
2024-12-13 15:41:56.219,0.081356,3.50249,8.87498,-0.132019,0.0652843,0.281982,0
2024-12-13 15:41:56.221,0.0909273,3.46421,8.9013,-0.125911,0.0671168,0.286258,0
2024-12-13 15:41:56.223,0.0957129,3.42832,8.92284,-0.120413,0.0683385,0.289313,0
2024-12-13 15:41:56.226,0.0837488,3.3996,8.94437,-0.117359,0.0695602,0.295421,0
2024-12-13 15:41:56.228,0.0789631,3.3661,8.95394,-0.111861,0.0732253,0.299086,0
2024-12-13 15:41:56.231,0.0693919,3.35892,8.95873,-0.106975,0.0768904,0.301529,0
2024-12-13 15:41:56.233,0.0574277,3.34457,8.97787,-0.0996445,0.0817772,0.307027,0
2024-12-13 15:41:56.235,0.040678,3.32064,8.99462,-0.0947577,0.0854423,0.311914,0
2024-12-13 15:41:56.238,0.0215354,3.30389,9.00658,-0.0874275,0.0909399,0.315579,0
2024-12-13 15:41:56.240,0.0119641,3.27039,9.02573,-0.081319,0.0970484,0.321687,0
2024-12-13 15:41:56.242,0.00717847,3.24885,9.05205,-0.0745997,0.1056,0.325963,0
2024-12-13 15:41:56.245,-0.00478565,3.23689,9.0688,-0.065437,0.113541,0.333294,0
2024-12-13 15:41:56.247,-0.00717847,3.21296,9.08555,-0.0581068,0.122093,0.336959,0
2024-12-13 15:41:56.249,0.0,3.20339,9.1023,-0.0477224,0.132477,0.342456,0
2024-12-13 15:41:56.252,0.0167498,3.18425,9.10948,-0.0361163,0.142862,0.348565,0
2024-12-13 15:41:56.254,0.0167498,3.15314,9.11187,-0.0257319,0.152635,0.352841,0
2024-12-13 15:41:56.256,0.0143569,3.14836,9.10469,-0.013515,0.164852,0.35956,0
2024-12-13 15:41:56.259,0.0215354,3.14118,9.09033,-0.0019089,0.17768,0.360782,0
2024-12-13 15:41:56.261,0.0215354,3.12921,9.07837,0.0139731,0.188065,0.364447,0
2024-12-13 15:41:56.264,0.0334995,3.11007,9.04965,0.0274118,0.199671,0.368723,0
2024-12-13 15:41:56.266,0.0334995,3.08106,9.01616,0.0414613,0.208833,0.371166,0
2024-12-13 15:41:56.268,0.0215354,3.0667,8.98505,0.0567324,0.22105,0.372999,0
2024-12-13 15:41:56.271,0.0191426,3.06909,8.93959,0.0701711,0.229602,0.375442,0
2024-12-13 15:41:56.273,0.0143569,3.07149,8.89173,0.0872748,0.238765,0.376053,0
2024-12-13 15:41:56.275,0.00239282,3.05952,8.82712,0.101324,0.247317,0.38155,0
2024-12-13 15:41:56.278,-0.0143569,3.04038,8.7697,0.116595,0.25648,0.382161,0
2024-12-13 15:41:56.280,-0.0239282,3.02602,8.71945,0.131256,0.265031,0.383383,0
2024-12-13 15:41:56.282,-0.0334995,3.01406,8.65215,0.145916,0.268696,0.384605,0
2024-12-13 15:41:56.285,-0.0430708,2.9997,8.57797,0.160576,0.273583,0.387659,0
2024-12-13 15:41:56.287,-0.040678,2.98535,8.51336,0.174015,0.276637,0.390102,0
2024-12-13 15:41:56.289,-0.0382852,2.97338,8.4344,0.189286,0.279692,0.391324,0
2024-12-13 15:41:56.292,-0.0430708,2.97099,8.3363,0.203947,0.279692,0.390713,0
2024-12-13 15:41:56.294,-0.0502493,2.95902,8.25494,0.215553,0.279692,0.3956,0
2024-12-13 15:41:56.297,-0.0454636,2.9327,8.17837,0.225937,0.277248,0.394989,0
2024-12-13 15:41:56.299,-0.0478565,2.91356,8.08714,0.236932,0.272972,0.394989,0
2024-12-13 15:41:56.301,-0.0311067,2.88963,8.00339,0.248538,0.269307,0.396211,0
2024-12-13 15:41:56.304,-0.00957129,2.86331,7.93639,0.25709,0.262588,0.397433,0
2024-12-13 15:41:56.306,-0.00957129,2.85135,7.87179,0.268086,0.253425,0.401098,0
2024-12-13 15:41:56.308,0.00957129,2.82742,7.82154,0.281524,0.243652,0.399876,0
2024-12-13 15:41:56.311,0.0287139,2.79153,7.77368,0.293741,0.231435,0.399265,0
2024-12-13 15:41:56.313,0.0526421,2.76042,7.71625,0.305347,0.219218,0.398043,0
2024-12-13 15:41:56.315,0.0646062,2.73171,7.63251,0.320618,0.207612,0.398654,0
2024-12-13 15:41:56.318,0.0765703,2.68624,7.44317,0.32917,0.200282,0.3956,0
2024-12-13 15:41:56.320,0.11007,2.65514,7.28525,0.335279,0.197227,0.3956,0
2024-12-13 15:41:56.322,0.133998,2.62642,7.22064,0.341387,0.19173,0.394378,0
2024-12-13 15:41:56.325,0.148355,2.59053,7.11536,0.351161,0.188065,0.391935,0
2024-12-13 15:41:56.327,0.165105,2.55942,7.01486,0.356658,0.181956,0.391324,0
2024-12-13 15:41:56.329,0.191426,2.54746,6.93081,0.35788,0.172793,0.392546,0
2024-12-13 15:41:56.332,0.212961,2.54028,6.84228,0.363989,0.162409,0.391324,0
2024-12-13 15:41:56.334,0.222533,2.52323,6.75135,0.368952,0.153246,0.390713,0
2024-12-13 15:41:56.337,0.241675,2.50887,6.66281,0.371395,0.138586,0.390713,0
2024-12-13 15:41:56.339,0.270389,2.48255,6.59103,0.375671,0.126369,0.38827,0
2024-12-13 15:41:56.341,0.308973,2.45863,6.52164,0.381169,0.115985,0.387659,0
2024-12-13 15:41:56.344,0.361615,2.44666,6.42563,0.384834,0.106822,0.385216,0
2024-12-13 15:41:56.346,0.426222,2.42034,6.33231,0.393386,0.0988809,0.382161,0
2024-12-13 15:41:56.348,0.486042,2.39641,6.27488,0.397662,0.0872748,0.377275,0
2024-12-13 15:41:56.351,0.533899,2.38684,6.24138,0.406824,0.0768904,0.372388,0
2024-12-13 15:41:56.353,0.567398,2.39402,6.17917,0.41843,0.0640626,0.363225,0
2024-12-13 15:41:56.355,0.60329,2.4012,6.08824,0.430036,0.0524565,0.355284,0
2024-12-13 15:41:56.358,0.643968,2.38445,5.99492,0.440421,0.0402396,0.349176,0
2024-12-13 15:41:56.360,0.682254,2.38923,5.89921,0.453249,0.0322986,0.338791,0
2024-12-13 15:41:56.362,0.718146,2.40598,5.79601,0.466687,0.0231358,0.327796,0
2024-12-13 15:41:56.365,0.751645,2.4323,5.7003,0.478293,0.0133623,0.314968,0
2024-12-13 15:41:56.367,0.792323,2.44427,5.59741,0.488067,0.00358873,0.303973,0
2024-12-13 15:41:56.370,0.811466,2.44188,5.45863,0.496619,-0.00557398,0.291145,0
2024-12-13 15:41:56.372,0.82343,2.4347,5.31715,0.503949,-0.0122933,0.277096,0
2024-12-13 15:41:56.374,0.828216,2.4323,5.21665,0.505171,-0.0190126,0.263046,0
2024-12-13 15:41:56.378,0.811466,2.46102,5.12812,0.508836,-0.037338,0.23678,0
2024-12-13 15:41:56.379,0.80668,2.50887,5.02762,0.508836,-0.037338,0.23678,0
2024-12-13 15:41:56.381,0.811466,2.56421,4.9343,0.50456,-0.0471116,0.225174,0
2024-12-13 15:41:56.384,0.799502,2.61207,4.87448,0.498451,-0.0593285,0.214178,0
2024-12-13 15:41:56.386,0.789931,2.65274,4.81705,0.491732,-0.0684913,0.201351,0
2024-12-13 15:41:56.388,0.785145,2.69821,4.733,0.480126,-0.0800973,0.190966,0
2024-12-13 15:41:56.391,0.789931,2.7341,4.68275,0.463633,-0.0929251,0.181193,0
2024-12-13 15:41:56.394,0.787538,2.78674,4.67797,0.42515,-0.11064,0.161645,0
2024-12-13 15:41:56.395,0.766002,2.85853,4.68754,0.42515,-0.11064,0.161645,0
2024-12-13 15:41:56.398,0.761217,2.9327,4.68754,0.402548,-0.121024,0.156759,0
2024-12-13 15:41:56.400,0.749253,2.98774,4.70668,0.376893,-0.130187,0.150039,0
2024-12-13 15:41:56.402,0.727717,3.04517,4.77398,0.351161,-0.136906,0.146985,0
2024-12-13 15:41:56.405,0.734896,3.12921,4.83859,0.323673,-0.14668,0.14332,0
2024-12-13 15:41:56.407,0.754038,3.19382,4.91994,0.296185,-0.152788,0.142098,0
2024-12-13 15:41:56.410,0.770788,3.24885,5.0324,0.269918,-0.157064,0.142098,0
2024-12-13 15:41:56.412,0.787538,3.30868,5.14726,0.24243,-0.16134,0.142098,0
2024-12-13 15:41:56.414,0.799502,3.35892,5.28365,0.214942,-0.166227,0.145763,0
2024-12-13 15:41:56.417,0.813859,3.40917,5.4347,0.189897,-0.169281,0.149429,0
2024-12-13 15:41:56.419,0.833001,3.46421,5.58784,0.16302,-0.171724,0.152483,0
2024-12-13 15:41:56.421,0.869193,3.51924,5.71705,0.137364,-0.17539,0.161035,0
2024-12-13 15:41:56.424,0.914656,3.55753,5.85823,0.108654,-0.174779,0.168976,0
2024-12-13 15:41:56.426,0.950549,3.5671,5.9997,0.0811663,-0.172335,0.176917,0
2024-12-13 15:41:56.428,0.979263,3.58624,6.15045,0.0530674,-0.171724,0.187912,0
2024-12-13 15:41:56.431,1.01037,3.61017,6.32034,0.0249684,-0.171114,0.197075,0
2024-12-13 15:41:56.433,1.05344,3.61974,6.49292,-7.63559e-05,-0.16867,0.209292,0
2024-12-13 15:41:56.435,1.07976,3.63171,6.70828,-0.0263428,-0.16867,0.223952,0
2024-12-13 15:41:56.438,1.08215,3.63889,6.92842,-0.0465007,-0.171724,0.239834,0
2024-12-13 15:41:56.440,1.08455,3.6341,7.13929,-0.0648262,-0.173557,0.256327,0
2024-12-13 15:41:56.443,1.1013,3.59821,7.37139,-0.0843733,-0.172335,0.275874,0
2024-12-13 15:41:56.445,1.11326,3.53839,7.64926,-0.102699,-0.170503,0.294199,0
2024-12-13 15:41:56.447,1.11326,3.48574,7.94597,-0.115526,-0.166838,0.31619,0
2024-12-13 15:41:56.450,1.10608,3.4355,8.24776,-0.128965,-0.155232,0.33818,0
2024-12-13 15:41:56.452,1.09412,3.39242,8.55643,-0.138128,-0.138128,0.363836,0
2024-12-13 15:41:56.454,1.11087,3.34218,8.85584,-0.145458,-0.111251,0.387659,0
2024-12-13 15:41:56.457,1.13719,3.27278,9.15973,-0.150345,-0.0782648,0.413315,0
2024-12-13 15:41:56.459,1.17547,3.24646,9.48545,-0.155232,-0.033673,0.437748,0
2024-12-13 15:41:56.461,1.23769,3.26082,9.85185,-0.150345,0.0115297,0.461571,0
2024-12-13 15:41:56.464,1.29512,3.28235,10.2156,-0.13996,0.058565,0.48234,0
2024-12-13 15:41:56.466,1.36929,3.32303,10.5939,-0.127133,0.106822,0.501277,0
2024-12-13 15:41:56.468,1.44377,3.42832,11.1015,-0.10331,0.152025,0.517769,0
2024-12-13 15:41:56.471,1.50838,3.54796,11.5158,-0.0660479,0.186843,0.531208,0
2024-12-13 15:41:56.473,1.5993,3.64606,11.7287,-0.0232886,0.228381,0.538538,0
2024-12-13 15:41:56.476,1.72612,3.77557,11.9465,0.0219141,0.276637,0.542203,0
2024-12-13 15:41:56.478,1.86251,3.90957,12.0613,0.0720036,0.328559,0.538538,0
2024-12-13 15:41:56.480,1.9681,4.06989,12.0951,0.120261,0.387812,0.528154,0
2024-12-13 15:41:56.483,2.0351,4.28555,12.1741,0.172183,0.447675,0.513493,0
2024-12-13 15:41:56.485,2.03988,4.5344,12.2483,0.230213,0.499597,0.49639,0
2024-12-13 15:41:56.488,1.99442,4.77877,12.2842,0.345052,0.58817,0.450576,0
2024-12-13 15:41:56.490,1.92712,5.01805,12.2865,0.345052,0.58817,0.450576,0
2024-12-13 15:41:56.492,1.81226,5.25015,12.2435,0.401937,0.615658,0.422477,0
2024-12-13 15:41:56.494,1.66869,5.43948,12.1478,0.457525,0.632761,0.398043,0
2024-12-13 15:41:56.497,1.53948,5.58066,12.0063,0.507003,0.639481,0.372388,0
2024-12-13 15:41:56.499,1.43659,5.69073,11.7957,0.543654,0.640092,0.344289,0
2024-12-13 15:41:56.501,1.27837,5.76491,11.6186,0.571142,0.63154,0.31619,0
2024-12-13 15:41:56.504,1.04865,5.82234,11.4987,0.588246,0.613214,0.290534,0
2024-12-13 15:41:56.507,0.828216,5.85823,11.3886,0.588857,0.563125,0.243499,0
2024-12-13 15:41:56.508,0.598505,5.87737,11.2905,0.588857,0.563125,0.243499,0
2024-12-13 15:41:56.511,0.335294,5.88933,11.1996,0.568088,0.534415,0.223341,0
2024-12-13 15:41:56.513,0.0741775,5.88933,11.08,0.53327,0.505094,0.205016,0
2024-12-13 15:41:56.516,-0.20339,5.86301,10.9579,0.480737,0.479439,0.190355,0
2024-12-13 15:41:56.518,-0.495613,5.81755,10.9074,0.41782,0.45134,0.180582,0
2024-12-13 15:41:56.520,-0.758824,5.75055,10.8547,0.340166,0.423241,0.174473,0
2024-12-13 15:41:56.523,-1.00798,5.65484,10.8117,0.246706,0.395753,0.168976,0
2024-12-13 15:41:56.527,-1.45095,5.40838,10.838,0.0243575,0.335279,0.170808,0
2024-12-13 15:41:56.527,-1.45095,5.40838,10.838,0.0243575,0.335279,0.170808,0
2024-12-13 15:41:56.530,-1.64716,5.24776,10.9122,-0.102088,0.304736,0.175084,0
2024-12-13 15:41:56.532,-1.85055,5.07308,11.0776,-0.235253,0.272362,0.185468,0
2024-12-13 15:41:56.534,-2.0351,4.88166,11.3192,-0.372693,0.2351,0.199518,0
2024-12-13 15:41:56.537,-2.18824,4.66361,11.6282,-0.513799,0.201503,0.218454,0
2024-12-13 15:41:56.539,-2.31984,4.41476,11.9895,-0.652461,0.169739,0.241056,0
2024-12-13 15:41:56.541,-2.40838,4.16561,12.4038,-0.784404,0.145305,0.265489,0
2024-12-13 15:41:56.544,-2.45863,3.92393,12.909,-0.905352,0.123926,0.296643,0
2024-12-13 15:41:56.546,-2.48495,3.67268,13.4716,-1.01103,0.109265,0.326574,0
2024-12-13 15:41:56.549,-2.48973,3.42353,14.0318,-1.10204,0.0994917,0.363225,0
2024-12-13 15:41:56.551,-2.44666,3.19143,14.616,-1.17412,0.0872748,0.397433,0
2024-12-13 15:41:56.553,-2.37248,2.9662,15.2001,-1.22727,0.0720036,0.432862,0
2024-12-13 15:41:56.556,-2.29591,2.7676,15.7292,-1.26025,0.0518457,0.46768,0
2024-12-13 15:41:56.558,-2.21216,2.60249,16.2224,-1.27369,0.0322986,0.500666,0
2024-12-13 15:41:56.560,-2.09731,2.43948,16.6726,-1.26453,0.0127514,0.530597,0
2024-12-13 15:41:56.563,-1.91755,2.29113,17.1105,-1.23521,-0.00801737,0.555031,0
2024-12-13 15:41:56.565,-1.72373,2.18106,17.4841,-1.18512,-0.0300079,0.578243,0
2024-12-13 15:41:56.567,-1.52034,2.11167,17.7787,-1.11548,-0.0452791,0.594125,0
2024-12-13 15:41:56.570,-1.30947,2.0686,18.0275,-1.02447,-0.057496,0.605121,0
2024-12-13 15:41:56.572,-1.12762,2.03031,18.1711,-0.916958,-0.0678804,0.608786,0
2024-12-13 15:41:56.574,-0.926621,2.02313,18.248,-0.796621,-0.0745997,0.605121,2
2024-12-13 15:41:56.577,-0.722932,2.0662,18.2647,-0.662846,-0.0745997,0.595347,0
2024-12-13 15:41:56.580,-0.548256,2.14995,18.195,-0.365363,-0.0648262,0.553199,0
2024-12-13 15:41:56.581,-0.387936,2.24088,18.0371,-0.365363,-0.0648262,0.553199,0
2024-12-13 15:41:56.584,-0.236889,2.34138,17.7906,-0.207154,-0.0568851,0.523878,0
2024-12-13 15:41:56.586,0.0215354,2.37248,17.4625,-0.0465007,-0.0452791,0.48906,0
2024-12-13 15:41:56.590,0.335294,2.39402,17.0554,0.258923,-0.0391706,0.379718,0
2024-12-13 15:41:56.591,0.392722,2.54985,16.6582,0.258923,-0.0391706,0.379718,0
2024-12-13 15:41:56.593,0.272782,2.77238,16.2607,0.415376,-0.0232886,0.327185,0
2024-12-13 15:41:56.596,0.308973,2.97817,15.8848,0.568088,0.00175619,0.274652,0
2024-12-13 15:41:56.598,0.438186,3.17228,15.454,0.717135,0.0127514,0.216011,0
2024-12-13 15:41:56.600,0.414257,3.38525,14.8672,0.846023,0.0298552,0.15737,0
2024-12-13 15:41:56.603,0.27996,3.63889,14.2878,0.95903,0.0500131,0.0968193,0
2024-12-13 15:41:56.605,0.0909273,3.90957,13.7037,1.05615,0.0671168,0.041843,0
2024-12-13 15:41:56.607,-0.129212,4.15125,13.1148,1.13251,0.0836097,-0.00763559,0
2024-12-13 15:41:56.610,-0.349651,4.35254,12.5115,1.18749,0.0970484,-0.046119,0
2024-12-13 15:41:56.612,-0.600898,4.51526,11.8986,1.21864,0.108654,-0.0827698,0
2024-12-13 15:41:56.614,-0.864407,4.64447,11.3169,1.22658,0.122704,-0.110869,0
2024-12-13 15:41:56.617,-1.15633,4.74497,10.7207,1.21314,0.136753,-0.132859,0
2024-12-13 15:41:56.619,-1.41506,4.78834,10.194,1.17283,0.150192,-0.144465,0
2024-12-13 15:41:56.622,-1.70937,4.79312,9.69362,1.1093,0.163631,-0.148741,0
2024-12-13 15:41:56.624,-2.04227,4.79791,9.20519,1.02317,0.183178,-0.146298,0
2024-12-13 15:41:56.626,-2.2672,4.77159,8.82473,0.919325,0.202725,-0.134081,0
2024-12-13 15:41:56.629,-2.48495,4.74497,8.47747,0.792269,0.218607,-0.115756,0
2024-12-13 15:41:56.631,-2.76042,4.74018,8.1688,0.651163,0.238765,-0.0907108,0
2024-12-13 15:41:56.633,-2.96381,4.74018,7.95554,0.496619,0.260145,-0.0595576,0
2024-12-13 15:41:56.636,-3.05952,4.71147,7.84068,0.334057,0.276027,-0.0241285,0
2024-12-13 15:41:56.638,-3.10289,4.63729,7.8,0.161187,0.2858,0.0143549,0
2024-12-13 15:41:56.640,-3.11486,4.54397,7.80958,-0.013515,0.294963,0.0522274,0
2024-12-13 15:41:56.643,-3.05713,4.44586,7.9005,-0.188828,0.302904,0.0907108,0
2024-12-13 15:41:56.645,-2.93031,4.31426,8.10629,-0.359255,0.302904,0.12614,0
2024-12-13 15:41:56.647,-2.75563,4.15125,8.38176,-0.519907,0.294352,0.158591,0
2024-12-13 15:41:56.650,-2.54507,3.98614,8.72902,-0.668343,0.279692,0.186079,0
2024-12-13 15:41:56.652,-2.32223,3.82582,9.15015,-0.797843,0.260145,0.211735,0
2024-12-13 15:41:56.655,-2.09013,3.67747,9.59791,-0.91085,0.235711,0.231893,0
2024-12-13 15:41:56.657,-1.85533,3.54796,10.0265,-1.00431,0.20639,0.24411,0
2024-12-13 15:41:56.659,-1.67109,3.45224,10.4504,-1.07944,0.17768,0.249607,0
2024-12-13 15:41:56.662,-1.56102,3.38525,10.8619,-1.13381,0.144084,0.253883,0
2024-12-13 15:41:56.664,-1.46291,3.31825,11.2762,-1.16863,0.108044,0.257548,0
2024-12-13 15:41:56.666,-1.37647,3.25843,11.6928,-1.18023,0.0726145,0.258159,0
2024-12-13 15:41:56.669,-1.30229,3.22493,12.0613,-1.17718,0.038407,0.255716,0
2024-12-13 15:41:56.671,-1.22812,3.19143,12.399,-1.15275,0.00358873,0.256327,0
2024-12-13 15:41:56.673,-1.13958,3.16511,12.6817,-1.11426,-0.0300079,0.253883,0
2024-12-13 15:41:56.676,-1.05344,3.14357,12.8874,-1.06173,-0.0642153,0.247164,0
2024-12-13 15:41:56.678,-0.940978,3.14836,13.0502,-0.999422,-0.0953685,0.239834,0
2024-12-13 15:41:56.680,-0.813859,3.16271,13.1722,-0.923677,-0.127133,0.228839,0
2024-12-13 15:41:56.683,-0.722932,3.12682,13.2156,-0.835105,-0.158897,0.213567,0
2024-12-13 15:41:56.685,-0.634397,3.07627,13.165,-0.746532,-0.185774,0.198296,0
2024-12-13 15:41:56.687,-0.52672,3.04038,13.0884,-0.652461,-0.208375,0.181803,0
2024-12-13 15:41:56.690,-0.423829,3.01884,12.9832,-0.553504,-0.228533,0.1647,0
2024-12-13 15:41:56.692,-0.325723,3.02602,12.8252,-0.453936,-0.241972,0.142709,0
2024-12-13 15:41:56.695,-0.234497,3.04517,12.6362,-0.355589,-0.251745,0.123086,0
2024-12-13 15:41:56.697,-0.141177,3.06909,12.4134,-0.259076,-0.257854,0.104149,0
2024-12-13 15:41:56.699,-0.0334995,3.10768,12.1717,-0.163783,-0.257854,0.0839915,0
2024-12-13 15:41:56.702,0.0693919,3.14118,11.8986,-0.0752106,-0.255411,0.0626118,0
2024-12-13 15:41:56.704,0.177069,3.17468,11.5971,0.0127514,-0.252356,0.0406213,0
2024-12-13 15:41:56.706,0.289831,3.22493,11.2834,0.0915507,-0.24808,0.0167983,0
2024-12-13 15:41:56.709,0.375972,3.27757,10.9819,0.164242,-0.249302,-0.00458135,0
2024-12-13 15:41:56.711,0.435793,3.33739,10.6609,0.230213,-0.249913,-0.0265719,0
2024-12-13 15:41:56.713,0.478864,3.3996,10.3137,0.286411,-0.250524,-0.0516166,0
2024-12-13 15:41:56.716,0.512363,3.47139,9.98106,0.337111,-0.253578,-0.0748288,0
2024-12-13 15:41:56.718,0.541077,3.55514,9.65055,0.380558,-0.253578,-0.0943759,0
2024-12-13 15:41:56.720,0.550648,3.62214,9.32274,0.412322,-0.253578,-0.115756,0
2024-12-13 15:41:56.723,0.555434,3.66551,9.00419,0.436756,-0.251135,-0.137135,0
2024-12-13 15:41:56.728,0.565005,3.75404,8.40569,0.466076,-0.241361,-0.171953,0
2024-12-13 15:41:56.728,0.565005,3.75404,8.40569,0.466076,-0.241361,-0.171953,0
2024-12-13 15:41:56.730,0.576969,3.82343,8.12782,0.471574,-0.232198,-0.184781,0
2024-12-13 15:41:56.732,0.572184,3.92154,7.96272,0.469742,-0.223646,-0.19822,0
2024-12-13 15:41:56.735,0.56022,4.0005,7.80718,0.471574,-0.224868,-0.20555,0
2024-12-13 15:41:56.737,0.545863,4.03639,7.57478,0.466076,-0.221203,-0.214102,0
2024-12-13 15:41:56.739,0.536291,4.06989,7.369,0.456914,-0.213873,-0.220821,0
2024-12-13 15:41:56.742,0.524327,4.07468,7.19193,0.442864,-0.206543,-0.226319,0
2024-12-13 15:41:56.744,0.512363,4.06032,7.02204,0.424539,-0.197991,-0.229373,0
2024-12-13 15:41:56.746,0.529113,4.04118,6.87578,0.406213,-0.183941,-0.229984,0
2024-12-13 15:41:56.749,0.545863,4.04118,6.76571,0.383612,-0.170503,-0.231206,0
2024-12-13 15:41:56.751,0.567398,4.04596,6.66999,0.359713,-0.155232,-0.232427,0
2024-12-13 15:41:56.753,0.591326,4.05314,6.58864,0.337111,-0.135684,-0.231206,0
2024-12-13 15:41:56.756,0.596112,4.06032,6.54078,0.310845,-0.114916,-0.230595,0
2024-12-13 15:41:56.758,0.60329,4.07707,6.49771,0.285189,-0.0941468,-0.22693,0
2024-12-13 15:41:56.760,0.608076,4.08186,6.46182,0.260755,-0.0739889,-0.225708,0
2024-12-13 15:41:56.763,0.591326,4.09382,6.45464,0.237543,-0.0507767,-0.220821,0
2024-12-13 15:41:56.765,0.569791,4.12493,6.44716,0.215553,-0.0300079,-0.217767,0
2024-12-13 15:41:56.768,0.557827,4.13211,6.45195,0.194173,-0.00679568,-0.215324,0
2024-12-13 15:41:56.770,0.548256,4.13211,6.46421,0.177069,0.0151948,-0.211048,0
2024-12-13 15:41:56.772,0.54347,4.12971,6.469,0.158133,0.0377962,-0.208604,0
2024-12-13 15:41:56.775,0.52672,4.13928,6.49053,0.142862,0.0610084,-0.206161,0
2024-12-13 15:41:56.777,0.486042,4.15125,6.51207,0.129423,0.0811663,-0.203107,0
2024-12-13 15:41:56.779,0.4334,4.13211,6.52164,0.11965,0.101324,-0.200052,0
2024-12-13 15:41:56.782,0.375972,4.09621,6.50967,0.108654,0.120261,-0.196387,0
2024-12-13 15:41:56.784,0.32333,4.06511,6.48335,0.0988809,0.138586,-0.192111,0
2024-12-13 15:41:56.786,0.265603,4.01964,6.43998,0.0878856,0.158744,-0.186614,0
2024-12-13 15:41:56.789,0.200997,3.98136,6.38734,0.0775012,0.180734,-0.182338,0
2024-12-13 15:41:56.791,0.145962,3.94307,6.3347,0.0628409,0.203947,-0.177451,0
2024-12-13 15:41:56.793,0.0837488,3.92154,6.3012,0.0494023,0.224715,-0.170732,0
2024-12-13 15:41:56.796,0.00478565,3.9,6.32513,0.0347419,0.244263,-0.165845,0
2024-12-13 15:41:56.798,-0.0741775,3.87129,6.31795,0.0206925,0.26381,-0.157904,0
2024-12-13 15:41:56.801,-0.138784,3.84975,6.27727,0.00847551,0.283357,-0.14752,0
2024-12-13 15:41:56.803,-0.198604,3.81147,6.24377,-0.00618483,0.301682,-0.136524,0
2024-12-13 15:41:56.805,-0.246461,3.77797,6.21506,-0.0238994,0.320618,-0.128583,0
2024-12-13 15:41:56.808,-0.277567,3.74925,6.3012,-0.0428357,0.338944,-0.118199,0
2024-12-13 15:41:56.810,-0.287438,3.70858,6.67956,-0.0422248,0.334668,-0.110869,0
2024-12-13 15:41:56.812,-0.285045,3.65354,6.8997,-0.0263428,0.320008,-0.105982,0
2024-12-13 15:41:56.815,-0.275175,3.60299,6.83031,-0.0141258,0.31451,-0.105982,0
2024-12-13 15:41:56.817,-0.263211,3.55753,6.84706,-0.00313059,0.310845,-0.106593,0
2024-12-13 15:41:56.819,-0.275175,3.51924,6.91406,0.010308,0.305347,-0.105982,0
2024-12-13 15:41:56.822,-0.304188,3.48574,6.95235,0.0219141,0.297406,-0.109647,0
2024-12-13 15:41:56.824,-0.32333,3.44028,6.94277,0.0365745,0.291909,-0.115145,0
2024-12-13 15:41:56.826,-0.344866,3.40439,6.92363,0.0481806,0.2858,-0.116366,0
2024-12-13 15:41:56.829,-0.364008,3.36132,6.89731,0.0573433,0.275416,-0.120031,0
2024-12-13 15:41:56.831,-0.387936,3.33021,6.88056,0.0652843,0.266253,-0.122475,0
2024-12-13 15:41:56.834,-0.409472,3.29193,6.83988,0.0732253,0.252204,-0.126751,0
2024-12-13 15:41:56.836,-0.41665,3.25364,6.76571,0.0762796,0.235711,-0.130416,0
2024-12-13 15:41:56.838,-0.452543,3.21775,6.71306,0.0799446,0.222272,-0.134081,0
2024-12-13 15:41:56.841,-0.50997,3.17946,6.67478,0.0817772,0.203336,-0.137135,0
2024-12-13 15:41:56.843,-0.536291,3.14836,6.63889,0.0805555,0.186843,-0.138968,0
2024-12-13 15:41:56.848,-0.610469,3.06431,6.57667,0.0738362,0.154468,-0.142022,0
2024-12-13 15:41:56.848,-0.610469,3.06431,6.57667,0.0738362,0.154468,-0.142022,0
2024-12-13 15:41:56.850,-0.658325,3.01884,6.56232,0.0683385,0.137975,-0.1408,0
2024-12-13 15:41:56.852,-0.715753,2.95663,6.53121,0.0628409,0.123315,-0.137135,0
2024-12-13 15:41:56.855,-0.768395,2.89681,6.47857,0.050624,0.115985,-0.135914,0
2024-12-13 15:41:56.857,-0.82343,2.8346,6.4666,0.0408504,0.106211,-0.128583,0
2024-12-13 15:41:56.859,-0.897907,2.7676,6.49771,0.0286335,0.0976592,-0.122475,0
2024-12-13 15:41:56.862,-0.964906,2.72213,6.55035,0.0176382,0.0878856,-0.113312,0
2024-12-13 15:41:56.864,-0.996012,2.68864,6.58146,0.010308,0.0762796,-0.102928,0
2024-12-13 15:41:56.866,-1.0008,2.63839,6.63889,0.00236703,0.066506,-0.0907108,0
2024-12-13 15:41:56.869,-0.974477,2.57139,6.74417,-0.00129805,0.0548999,-0.0760505,0
2024-12-13 15:41:56.871,-0.933799,2.52323,6.82553,0.000534491,0.038407,-0.0638335,0
2024-12-13 15:41:56.874,-0.85005,2.48016,6.88056,0.00358873,0.0249684,-0.0510057,0
2024-12-13 15:41:56.876,-0.756431,2.41555,6.89492,0.0127514,0.0139731,-0.0412322,0
2024-12-13 15:41:56.878,-0.677468,2.36291,6.92602,0.0182491,0.00419957,-0.0326803,0
2024-12-13 15:41:56.881,-0.591326,2.32941,6.97867,0.0280226,-0.00740652,-0.0271827,0
2024-12-13 15:41:56.883,-0.52672,2.29831,6.99063,0.0432938,-0.0171801,-0.0222959,0
2024-12-13 15:41:56.885,-0.495613,2.25045,6.98824,0.0567324,-0.0281753,-0.0186308,0
2024-12-13 15:41:56.888,-0.486042,2.22891,7.00738,0.0726145,-0.0379489,-0.0131332,0
2024-12-13 15:41:56.890,-0.476471,2.23609,7.02443,0.0897182,-0.0477224,-0.0125224,0
2024-12-13 15:41:56.892,-0.454935,2.23609,7.02682,0.1056,-0.0587177,-0.00702474,0
2024-12-13 15:41:56.895,-0.407079,2.24806,7.02922,0.12698,-0.0648262,-0.00458135,0
2024-12-13 15:41:56.897,-0.35683,2.25524,7.01964,0.146527,-0.0727672,-0.00702474,0
2024-12-13 15:41:56.899,-0.318545,2.2672,7.00499,0.167296,-0.0807082,-0.00885729,0
2024-12-13 15:41:56.902,-0.270389,2.29352,6.97627,0.189286,-0.0880384,-0.0106898,0
2024-12-13 15:41:56.904,-0.212961,2.31506,6.94038,0.210666,-0.0941468,-0.0125224,0
2024-12-13 15:41:56.907,-0.162712,2.33898,6.91885,0.232046,-0.0996445,-0.0174091,0
2024-12-13 15:41:56.909,-0.124427,2.36531,6.89013,0.253425,-0.106364,-0.0229068,0
2024-12-13 15:41:56.911,-0.0933201,2.42273,6.84228,0.275416,-0.110029,-0.0296261,0
2024-12-13 15:41:56.914,-0.0430708,2.47537,6.78724,0.293741,-0.113694,-0.0369563,0
2024-12-13 15:41:56.916,0.0167498,2.5017,6.73221,0.312067,-0.118581,-0.0455081,0
2024-12-13 15:41:56.921,0.141177,2.58814,6.53121,0.347496,-0.128354,-0.0693312,0
2024-12-13 15:41:56.921,0.141177,2.58814,6.53121,0.347496,-0.128354,-0.0693312,0
2024-12-13 15:41:56.923,0.217747,2.6336,6.39452,0.356658,-0.130187,-0.0839915,0
2024-12-13 15:41:56.925,0.258425,2.68624,6.31795,0.356658,-0.130187,-0.0839915,0
2024-12-13 15:41:56.928,0.270389,2.74128,6.25813,0.376893,-0.140571,-0.116366,0
2024-12-13 15:41:56.930,0.27996,2.81067,6.18634,0.38178,-0.147291,-0.132859,0
2024-12-13 15:41:56.932,0.292223,2.87288,6.1002,0.384223,-0.152788,-0.148741,0
2024-12-13 15:41:56.935,0.292223,2.91356,6.01406,0.386055,-0.157675,-0.164623,0
2024-12-13 15:41:56.937,0.287438,2.9686,5.94467,0.383001,-0.160118,-0.179284,0
2024-12-13 15:41:56.939,0.282652,3.03559,5.8678,0.380558,-0.162562,-0.194555,0
2024-12-13 15:41:56.942,0.289831,3.08584,5.80559,0.372617,-0.160729,-0.209215,0
2024-12-13 15:41:56.944,0.311366,3.14118,5.76252,0.360934,-0.160118,-0.224486,0
2024-12-13 15:41:56.948,0.328116,3.19861,5.70987,0.332835,-0.15401,-0.258083,0
2024-12-13 15:41:56.949,0.332901,3.25125,5.65484,0.332835,-0.15401,-0.258083,0
2024-12-13 15:41:56.951,0.342473,3.3015,5.61655,0.313288,-0.14668,-0.273965,0
2024-12-13 15:41:56.954,0.347258,3.34935,5.60459,0.291909,-0.138128,-0.291069,0
2024-12-13 15:41:56.956,0.330509,3.39003,5.59023,0.269918,-0.130187,-0.308172,0
2024-12-13 15:41:56.958,0.311366,3.41875,5.58545,0.243041,-0.123468,-0.325887,0
2024-12-13 15:41:56.961,0.272782,3.44746,5.59502,0.214331,-0.114916,-0.343602,0
2024-12-13 15:41:56.963,0.227318,3.46899,5.63091,0.1844,-0.106364,-0.359484,0
2024-12-13 15:41:56.965,0.20339,3.49292,5.67637,0.153246,-0.0996445,-0.372311,0
2024-12-13 15:41:56.968,0.16989,3.52642,5.71944,0.120261,-0.0898709,-0.384528,0
2024-12-13 15:41:56.970,0.141177,3.55753,5.79123,0.0842206,-0.0819299,-0.401632,0
2024-12-13 15:41:56.972,0.119641,3.55992,5.87976,0.0469589,-0.0758214,-0.413238,0
2024-12-13 15:41:56.975,0.0909273,3.55035,5.99731,0.010308,-0.0678804,-0.424233,0
2024-12-13 15:41:56.977,0.0598206,3.55514,6.10499,-0.0251211,-0.0605502,-0.434618,0
2024-12-13 15:41:56.980,0.0239282,3.52882,6.2007,-0.0648262,-0.0501658,-0.442559,0
2024-12-13 15:41:56.982,-0.00478565,3.5001,6.32991,-0.10331,-0.0397814,-0.4505,0
2024-12-13 15:41:56.984,-0.026321,3.49532,6.45942,-0.141182,-0.0318404,-0.45783,0
2024-12-13 15:41:56.987,-0.0430708,3.47378,6.59342,-0.180887,-0.0257319,-0.464549,0
2024-12-13 15:41:56.989,-0.0622134,3.4331,6.75135,-0.216927,-0.0190126,-0.467604,0
2024-12-13 15:41:56.991,-0.0957129,3.402,6.94277,-0.256021,-0.0141258,-0.47188,0
2024-12-13 15:41:56.994,-0.119641,3.38046,7.14646,-0.292061,-0.00923906,-0.473712,0
2024-12-13 15:41:56.996,-0.141177,3.34457,7.34507,-0.323825,-0.00618483,-0.476766,0
2024-12-13 15:41:56.998,-0.162712,3.28953,7.55803,-0.356811,-0.00618483,-0.477988,0
2024-12-13 15:41:57.001,-0.184247,3.24885,7.79522,-0.386743,-0.00801737,-0.476766,0
2024-12-13 15:41:57.003,-0.210568,3.20339,8.05125,-0.41362,-0.0110716,-0.476766,0
2024-12-13 15:41:57.005,-0.217747,3.16511,8.30519,-0.438054,-0.0129041,-0.476155,0
2024-12-13 15:41:57.008,-0.198604,3.134,8.58036,-0.456379,-0.0190126,-0.473101,0
2024-12-13 15:41:57.010,-0.189033,3.10529,8.87019,-0.47165,-0.0220669,-0.474323,0
2024-12-13 15:41:57.013,-0.172283,3.08584,9.16451,-0.485089,-0.0245102,-0.474934,0
2024-12-13 15:41:57.015,-0.148355,3.05234,9.45195,-0.493641,-0.0281753,-0.477377,0
2024-12-13 15:41:57.017,-0.148355,3.01645,9.69841,-0.497306,-0.0318404,-0.47921,0
2024-12-13 15:41:57.020,-0.155533,2.99252,9.9691,-0.498528,-0.0348946,-0.485318,0
2024-12-13 15:41:57.022,-0.179462,2.98056,10.2491,-0.49303,-0.041614,-0.489594,0
2024-12-13 15:41:57.024,-0.20339,2.95663,10.515,-0.477148,-0.0465007,-0.495703,0
2024-12-13 15:41:57.027,-0.208176,2.93749,10.7782,-0.461266,-0.0532201,-0.502422,0
2024-12-13 15:41:57.029,-0.224925,2.94227,11.0345,-0.439276,-0.0593285,-0.50853,0
2024-12-13 15:41:57.031,-0.251246,2.94706,11.3001,-0.408733,-0.0642153,-0.518304,0
2024-12-13 15:41:57.034,-0.270389,2.95663,11.5493,-0.375137,-0.0703238,-0.527467,0
2024-12-13 15:41:57.036,-0.285045,2.97338,11.7909,-0.332988,-0.0739889,-0.537851,0
2024-12-13 15:41:57.038,-0.316152,2.99013,12.023,-0.287785,-0.077654,-0.549457,0
2024-12-13 15:41:57.041,-0.335294,3.01645,12.2148,-0.237696,-0.0770431,-0.560452,0
2024-12-13 15:41:57.043,-0.344866,3.0667,12.3799,-0.182109,-0.0721563,-0.572058,0
2024-12-13 15:41:57.045,-0.35683,3.14357,12.5187,-0.124689,-0.065437,-0.584275,0
2024-12-13 15:41:57.048,-0.375972,3.21775,12.6072,-0.0648262,-0.0550526,-0.598936,0
2024-12-13 15:41:57.050,-0.407079,3.29193,12.5809,-0.00984991,-0.0397814,-0.612374,0
2024-12-13 15:41:57.053,-0.419043,3.35892,12.5856,0.0457372,-0.0202343,-0.627035,0
2024-12-13 15:41:57.055,-0.426222,3.44985,12.6215,0.102546,-0.00496313,-0.639252,0
2024-12-13 15:41:57.057,-0.45015,3.57428,12.612,0.158133,0.0109189,-0.65269,0
2024-12-13 15:41:57.060,-0.476471,3.71336,12.6266,0.211277,0.0249684,-0.668572,0
2024-12-13 15:41:57.062,-0.493221,3.86172,12.629,0.264421,0.0365745,-0.6814,0
2024-12-13 15:41:57.064,-0.498006,4.01964,12.588,0.315732,0.0451263,-0.697893,0
2024-12-13 15:41:57.067,-0.507577,4.19671,12.5498,0.363378,0.0561216,-0.716218,0
2024-12-13 15:41:57.069,-0.519542,4.39801,12.5234,0.411711,0.0677277,-0.729046,0
2024-12-13 15:41:57.071,-0.54347,4.61815,12.4828,0.453249,0.0787229,-0.742485,0
2024-12-13 15:41:57.074,-0.62004,4.81944,12.4517,0.492343,0.0891073,-0.757145,0
2024-12-13 15:41:57.076,-0.725324,5.02044,12.4134,0.527772,0.0982701,-0.765697,0
2024-12-13 15:41:57.078,-0.859622,5.24058,12.3655,0.557093,0.103768,-0.77486,0
2024-12-13 15:41:57.081,-1.01276,5.47298,12.277,0.582748,0.108654,-0.780357,0
2024-12-13 15:41:57.083,-1.15394,5.69791,12.1956,0.596187,0.109876,-0.780357,0
2024-12-13 15:41:57.086,-1.29033,5.90638,12.131,0.60535,0.103157,-0.779747,0
2024-12-13 15:41:57.088,-1.41506,6.10738,12.0518,0.606571,0.0897182,-0.776692,0
2024-12-13 15:41:57.090,-1.53709,6.27727,11.9848,0.596798,0.0701711,-0.768751,0
2024-12-13 15:41:57.095,-1.79791,6.52882,11.7957,0.547319,0.0237467,-0.744317,0
2024-12-13 15:41:57.095,-1.79791,6.52882,11.7957,0.547319,0.0237467,-0.744317,0
2024-12-13 15:41:57.097,-1.93908,6.64367,11.712,0.507003,-0.00435229,-0.727825,0
2024-12-13 15:41:57.100,-2.09013,6.71546,11.6833,0.455692,-0.0318404,-0.705223,0
2024-12-13 15:41:57.102,-2.22891,6.75853,11.6904,0.393386,-0.0587177,-0.678346,0
2024-12-13 15:41:57.105,-2.36052,6.75853,11.6952,0.327338,-0.081319,-0.649025,0
2024-12-13 15:41:57.107,-2.45145,6.76092,11.6785,0.250982,-0.10392,-0.613596,0
2024-12-13 15:41:57.109,-2.51366,6.74417,11.712,0.164852,-0.118581,-0.576334,0
2024-12-13 15:41:57.111,-2.58335,6.67478,11.8053,0.0720036,-0.132019,-0.533575,0
2024-12-13 15:41:57.114,-2.64078,6.59342,11.9249,-0.0257319,-0.144847,-0.487762,0
2024-12-13 15:41:57.116,-2.68385,6.48814,12.0808,-0.128965,-0.150345,-0.437672,0
2024-12-13 15:41:57.118,-2.71017,6.35863,12.2818,-0.231587,-0.157675,-0.385139,0
2024-12-13 15:41:57.121,-2.72692,6.20549,12.5043,-0.333599,-0.164394,-0.333828,0
2024-12-13 15:41:57.123,-2.72931,6.04277,12.7534,-0.43561,-0.167449,-0.277019,0
2024-12-13 15:41:57.128,-2.72213,5.67637,13.4381,-0.619475,-0.169281,-0.166456,0
2024-12-13 15:41:57.128,-2.72213,5.67637,13.4381,-0.619475,-0.169281,-0.166456,0
2024-12-13 15:41:57.130,-2.71735,5.46102,13.8069,-0.701329,-0.171724,-0.11148,0
2024-12-13 15:41:57.133,-2.70299,5.28126,14.1443,-0.770966,-0.171724,-0.0589468,0
2024-12-13 15:41:57.135,-2.7006,5.0994,14.5083,-0.833883,-0.169892,-0.00580305,0
2024-12-13 15:41:57.137,-2.71256,4.88644,14.8819,-0.883362,-0.166838,0.0455081,0
2024-12-13 15:41:57.140,-2.70299,4.67797,15.2791,-0.919401,-0.165616,0.0955976,0
2024-12-13 15:41:57.142,-2.67189,4.46261,15.6885,-0.942614,-0.166838,0.142709,0
2024-12-13 15:41:57.144,-2.61446,4.24008,16.0837,-0.951166,-0.166838,0.189744,0
2024-12-13 15:41:57.147,-2.51127,4.01486,16.4713,-0.945668,-0.171724,0.232504,0
2024-12-13 15:41:57.149,-2.37966,3.79232,16.8042,-0.920012,-0.173557,0.270987,0
2024-12-13 15:41:57.151,-2.19781,3.58146,17.0842,-0.879696,-0.171114,0.305195,0
2024-12-13 15:41:57.154,-1.96062,3.38525,17.3453,-0.825331,-0.166838,0.327185,0
2024-12-13 15:41:57.156,-1.70219,3.22253,17.5726,-0.753862,-0.155232,0.346732,0
2024-12-13 15:41:57.159,-1.44138,3.06431,17.7476,-0.668954,-0.143625,0.357727,0
2024-12-13 15:41:57.161,-1.19462,2.91117,17.8361,-0.571219,-0.127133,0.360782,2
2024-12-13 15:41:57.163,-0.94337,2.79153,17.872,-0.458823,-0.106364,0.356506,0
2024-12-13 15:41:57.166,-0.677468,2.71017,17.8648,-0.33421,-0.0868167,0.3449,0
2024-12-13 15:41:57.168,-0.409472,2.65753,17.805,-0.33421,-0.0868167,0.3449,0
2024-12-13 15:41:57.170,-0.157926,2.61685,17.6782,-0.0599394,-0.0513875,0.295421,0
2024-12-13 15:41:57.173,0.066999,2.60967,17.4721,0.0860531,-0.029397,0.259992,0
2024-12-13 15:41:57.175,0.251246,2.64556,17.2232,0.236932,-0.00801737,0.219676,0
2024-12-13 15:41:57.177,0.368794,2.69581,16.9143,0.391553,0.00847551,0.172641,0
2024-12-13 15:41:57.180,0.423829,2.79631,16.5841,0.543654,0.0219141,0.124918,0
2024-12-13 15:41:57.182,0.442971,2.94467,16.1889,0.698809,0.0310769,0.0742179,0
2024-12-13 15:41:57.184,0.426222,3.10289,15.6933,0.849689,0.0353528,0.0241285,0
2024-12-13 15:41:57.187,0.368794,3.26321,15.1834,0.988962,0.0359636,-0.0241285,0
2024-12-13 15:41:57.189,0.289831,3.45224,14.6375,1.11724,0.0329094,-0.0760505,0
2024-12-13 15:41:57.192,0.217747,3.67268,14.0462,1.23452,0.0237467,-0.124918,0
2024-12-13 15:41:57.194,0.191426,3.88564,13.4405,1.33531,0.00908635,-0.171953,0
2024-12-13 15:41:57.196,0.179462,4.08186,12.8324,1.41961,-0.00862822,-0.218989,0
2024-12-13 15:41:57.199,0.136391,4.24726,12.2315,1.48802,-0.0251211,-0.262359,0
2024-12-13 15:41:57.201,0.0981057,4.39083,11.6474,1.5375,-0.0501658,-0.303286,0
2024-12-13 15:41:57.203,0.0382852,4.55593,11.0704,1.5711,-0.0758214,-0.339936,0
2024-12-13 15:41:57.206,-0.0502493,4.70429,10.5054,1.58515,-0.100866,-0.374755,0
2024-12-13 15:41:57.208,-0.145962,4.82184,9.95235,1.57538,-0.127743,-0.406519,0
2024-12-13 15:41:57.210,-0.251246,4.91994,9.40888,1.5485,-0.154621,-0.432174,0
2024-12-13 15:41:57.213,-0.181855,4.86012,9.1023,1.49902,-0.19005,-0.459052,0
2024-12-13 15:41:57.215,-0.0789631,4.72343,8.82712,1.43427,-0.259686,-0.488372,0
2024-12-13 15:41:57.217,-0.282652,4.74257,8.2693,1.35058,-0.307333,-0.512806,0
2024-12-13 15:41:57.220,-0.536291,4.89841,7.78325,1.25407,-0.309165,-0.529299,0
2024-12-13 15:41:57.222,-0.663111,5.08505,7.52692,1.14351,-0.308554,-0.536018,0
2024-12-13 15:41:57.224,-0.842872,5.25494,7.29003,1.0195,-0.307943,-0.534797,0
2024-12-13 15:41:57.227,-1.04865,5.4012,6.99781,0.884507,-0.290229,-0.523802,0
2024-12-13 15:41:57.229,-1.18265,5.51127,6.80638,0.741569,-0.268849,-0.504865,0
2024-12-13 15:41:57.232,-1.28794,5.56391,6.71785,0.588857,-0.256021,-0.481653,0
2024-12-13 15:41:57.235,-1.37408,5.57348,6.63889,0.269307,-0.252967,-0.418125,0
2024-12-13 15:41:57.236,-1.42702,5.52084,6.62931,0.269307,-0.252967,-0.418125,0
2024-12-13 15:41:57.239,-1.44616,5.40598,6.70349,0.104989,-0.264573,-0.383307,0
2024-12-13 15:41:57.241,-1.44138,5.27169,6.83988,-0.0562743,-0.285342,-0.345434,0
2024-12-13 15:41:57.243,-1.40788,5.10658,7.02443,-0.215705,-0.314052,-0.30634,0
2024-12-13 15:41:57.246,-1.33101,4.94626,7.2685,-0.369028,-0.343373,-0.266024,0
2024-12-13 15:41:57.248,-1.24008,4.75693,7.57478,-0.513799,-0.37025,-0.225097,0
2024-12-13 15:41:57.253,-1.05583,4.35972,8.29322,-0.772798,-0.411177,-0.146909,0
2024-12-13 15:41:57.253,-1.05583,4.35972,8.29322,-0.772798,-0.411177,-0.146909,0
2024-12-13 15:41:57.255,-0.962513,4.18714,8.7003,-0.885805,-0.422172,-0.110258,0
2024-12-13 15:41:57.257,-0.890728,4.02204,9.15255,-0.98354,-0.430113,-0.0766613,0
2024-12-13 15:41:57.260,-0.811466,3.85932,9.6027,-1.06906,-0.433778,-0.0479515,0
2024-12-13 15:41:57.262,-0.725324,3.67747,10.0385,-1.14114,-0.432556,-0.0192417,0
2024-12-13 15:41:57.265,-0.646361,3.48574,10.4886,-1.19978,-0.430113,0.00763559,0
2024-12-13 15:41:57.267,-0.533899,3.2991,10.9146,-1.24376,-0.425226,0.033902,0
2024-12-13 15:41:57.269,-0.426222,3.134,11.3312,-1.26881,-0.419118,0.0577251,0
2024-12-13 15:41:57.272,-0.352044,2.98535,11.7383,-1.2798,-0.411787,0.0803264,0
2024-12-13 15:41:57.274,-0.260818,2.85135,12.1478,-1.27553,-0.403846,0.102317,0
2024-12-13 15:41:57.276,-0.184247,2.73888,12.4588,-1.25659,-0.398349,0.123086,0
2024-12-13 15:41:57.279,-0.112463,2.60728,12.6673,-1.22055,-0.385521,0.139044,0
2024-12-13 15:41:57.281,-0.00478565,2.49212,12.8779,-1.17596,-0.372082,0.153704,0
2024-12-13 15:41:57.283,0.0502493,2.46102,13.0119,-1.11609,-0.361087,0.167754,0
2024-12-13 15:41:57.286,-0.0789631,2.56182,12.9425,-1.04707,-0.323825,0.184858,0
2024-12-13 15:41:57.288,-0.117248,2.68146,13.0334,-0.965215,-0.278623,0.20807,0
2024-12-13 15:41:57.290,0.0550349,2.66949,13.2036,-0.872366,-0.263352,0.227006,0
2024-12-13 15:41:57.293,0.232104,2.54985,13.1195,-0.779517,-0.252356,0.242888,0
2024-12-13 15:41:57.295,0.438186,2.4012,13.0167,-0.68056,-0.250524,0.254494,0
2024-12-13 15:41:57.297,0.655932,2.24566,12.9209,-0.574273,-0.252967,0.257548,0
2024-12-13 15:41:57.300,0.862014,2.12363,12.8157,-0.468596,-0.259076,0.255105,0
2024-12-13 15:41:57.302,1.05583,2.0662,12.7534,-0.359255,-0.273125,0.244721,0
2024-12-13 15:41:57.305,1.22333,2.00877,12.6048,-0.245637,-0.290229,0.228839,0
2024-12-13 15:41:57.307,1.37647,1.95105,12.3368,-0.129576,-0.29817,0.207459,0
2024-12-13 15:41:57.309,1.48923,1.91994,12.0903,-0.0177909,-0.304278,0.182414,0
2024-12-13 15:41:57.312,1.55862,1.91994,11.8149,0.0933833,-0.301835,0.156759,0
2024-12-13 15:41:57.314,1.59212,1.9681,11.482,0.201503,-0.29084,0.127362,0
2024-12-13 15:41:57.316,1.59691,2.0327,11.1278,0.306569,-0.270071,0.0992627,0
2024-12-13 15:41:57.319,1.60409,2.12602,10.7853,0.408657,-0.243194,0.0705529,0
2024-12-13 15:41:57.321,1.57537,2.22652,10.4336,0.502727,-0.212651,0.0448973,0
2024-12-13 15:41:57.323,1.4988,2.34377,10.072,0.5913,-0.179055,0.01802,0
2024-12-13 15:41:57.326,1.41027,2.47777,9.79652,0.674375,-0.150345,-0.00702474,0
2024-12-13 15:41:57.328,1.31186,2.58574,9.42563,0.753785,-0.127743,-0.0253502,0
2024-12-13 15:41:57.330,1.25683,2.64317,8.93241,0.819146,-0.10331,-0.0430647,0
2024-12-13 15:41:57.333,1.24247,2.66949,8.52054,0.877788,-0.0831516,-0.0589468,0
2024-12-13 15:41:57.335,1.21615,2.68146,8.11107,0.924823,-0.0666587,-0.0736071,0
2024-12-13 15:41:57.338,1.17787,2.67428,7.72822,0.962695,-0.0556635,-0.0876566,0
2024-12-13 15:41:57.340,1.10848,2.68864,7.38335,0.993849,-0.0465007,-0.100484,0
2024-12-13 15:41:57.342,1.05105,2.71256,7.04118,1.01645,-0.0434465,-0.11209,0
2024-12-13 15:41:57.345,1.0008,2.73171,6.71067,1.03355,-0.0379489,-0.121864,0
2024-12-13 15:41:57.347,0.94337,2.75085,6.40409,1.04149,-0.0330621,-0.129194,0
2024-12-13 15:41:57.349,0.919442,2.77478,6.09302,1.04394,-0.0245102,-0.136524,0
2024-12-13 15:41:57.352,0.893121,2.81545,5.78644,1.03539,-0.013515,-0.146298,0
2024-12-13 15:41:57.354,0.859622,2.84178,5.48016,1.02378,0.00114534,-0.15485,0
2024-12-13 15:41:57.356,0.821037,2.86331,5.2023,1.0024,0.0164165,-0.160958,0
2024-12-13 15:41:57.359,0.749253,2.88963,5.0013,0.976745,0.0329094,-0.167067,0
2024-12-13 15:41:57.361,0.679861,2.92313,4.83859,0.946202,0.0536782,-0.170121,0
2024-12-13 15:41:57.363,0.610469,2.97817,4.68275,0.913217,0.0720036,-0.171343,0
2024-12-13 15:41:57.368,0.419043,3.06192,4.44108,0.841137,0.11293,-0.168899,0
2024-12-13 15:41:57.368,0.419043,3.06192,4.44108,0.841137,0.11293,-0.168899,0
2024-12-13 15:41:57.371,0.320937,3.08854,4.34537,0.803875,0.135532,-0.165234,0
2024-12-13 15:41:57.373,0.239282,3.11246,4.25444,0.765392,0.157522,-0.160347,0
2024-12-13 15:41:57.375,0.165105,3.14357,4.18953,0.729962,0.180734,-0.153017,0
2024-12-13 15:41:57.378,0.0885344,3.15793,4.14168,0.692701,0.203336,-0.145076,0
2024-12-13 15:41:57.380,-0.00957129,3.17228,4.07468,0.654828,0.22777,-0.135914,0
2024-12-13 15:41:57.382,-0.0693919,3.20578,4.03639,0.620621,0.249149,-0.125529,0
2024-12-13 15:41:57.385,-0.114855,3.23211,4.01725,0.585192,0.271751,-0.115145,0
2024-12-13 15:41:57.387,-0.16989,3.25364,3.97418,0.550984,0.291909,-0.101706,0
2024-12-13 15:41:57.389,-0.224925,3.27996,3.94786,0.51922,0.315121,-0.0888783,0
2024-12-13 15:41:57.392,-0.285045,3.2991,3.94547,0.485624,0.335279,-0.0766613,0
2024-12-13 15:41:57.394,-0.354437,3.32543,3.93111,0.452638,0.357269,-0.0632227,0
2024-12-13 15:41:57.396,-0.426222,3.34935,3.91914,0.422706,0.376206,-0.0497841,0
2024-12-13 15:41:57.399,-0.493221,3.35414,3.91197,0.390942,0.391477,-0.0345129,0
2024-12-13 15:41:57.401,-0.548256,3.34457,3.90718,0.360324,0.411024,-0.0210742,0
2024-12-13 15:41:57.403,-0.608076,3.35175,3.90957,0.328559,0.425073,-0.00763559,0
2024-12-13 15:41:57.406,-0.663111,3.34935,3.91436,0.299239,0.440345,0.00763559,0
2024-12-13 15:41:57.408,-0.710967,3.36132,3.91914,0.266864,0.453783,0.0210742,0
2024-12-13 15:41:57.411,-0.777966,3.37089,3.92872,0.234489,0.466,0.033902,0
2024-12-13 15:41:57.413,-0.837787,3.3685,3.94786,0.203947,0.475163,0.0497841,0
2024-12-13 15:41:57.415,-0.864407,3.33978,3.99093,0.171572,0.482493,0.0632227,0
2024-12-13 15:41:57.418,-0.76361,3.21536,4.22812,0.136143,0.469665,0.0754396,0
2024-12-13 15:41:57.420,-0.701396,3.08584,4.34058,0.102546,0.434847,0.0809373,0
2024-12-13 15:41:57.422,-0.789931,3.04038,4.22572,0.0701711,0.425684,0.085824,0
2024-12-13 15:41:57.425,-0.852443,3.06909,4.25205,0.0371853,0.433625,0.0919325,0
2024-12-13 15:41:57.427,-0.9003,3.14596,4.34058,0.00664296,0.440345,0.098041,0
2024-12-13 15:41:57.429,-0.984048,3.21536,4.38604,-0.0190126,0.455005,0.110869,0
2024-12-13 15:41:57.432,-1.08694,3.28235,4.43629,-0.0513875,0.47333,0.123086,0
2024-12-13 15:41:57.434,-1.1659,3.34218,4.52004,-0.081319,0.491656,0.138433,0
2024-12-13 15:41:57.436,-1.22094,3.33978,4.61815,-0.081319,0.491656,0.138433,0
2024-12-13 15:41:57.439,-1.29033,3.31585,4.69472,-0.136906,0.522198,0.167143,0
2024-12-13 15:41:57.441,-1.37647,3.30628,4.77398,-0.167449,0.532582,0.185468,0
2024-12-13 15:41:57.444,-1.42702,3.2991,4.9008,-0.194326,0.541134,0.201961,0
2024-12-13 15:41:57.446,-1.45573,3.29193,5.0324,-0.222425,0.541745,0.217843,0
2024-12-13 15:41:57.448,-1.51316,3.27996,5.1329,-0.249913,0.535026,0.237391,0
2024-12-13 15:41:57.451,-1.56102,3.23211,5.22862,-0.276179,0.527085,0.256327,0
2024-12-13 15:41:57.453,-1.58016,3.17228,5.3342,-0.304889,0.519755,0.274652,0
2024-12-13 15:41:57.455,-1.59212,3.11007,5.43948,-0.332988,0.504483,0.289923,0
2024-12-13 15:41:57.458,-1.58255,3.02124,5.53998,-0.353757,0.490434,0.305195,0
2024-12-13 15:41:57.460,-1.5347,2.90638,5.64527,-0.375137,0.476995,0.319244,0
2024-12-13 15:41:57.465,-1.44855,2.6671,5.91596,-0.416063,0.453172,0.343678,0
2024-12-13 15:41:57.467,-1.39322,2.56421,6.03799,-0.416063,0.453172,0.350397,0
2024-12-13 15:41:57.469,-1.34297,2.4658,6.15763,-0.439276,0.431182,0.355895,0
2024-12-13 15:41:57.469,-1.34297,2.4658,6.15763,-0.439276,0.431182,0.355895,0
2024-12-13 15:41:57.472,-1.29751,2.40598,6.32752,-0.447217,0.424462,0.35956,0
2024-12-13 15:41:57.474,-1.24008,2.37488,6.52642,-0.450882,0.426906,0.35956,0
2024-12-13 15:41:57.476,-1.18265,2.37009,6.73221,-0.450882,0.426295,0.357727,0
2024-12-13 15:41:57.479,-1.14437,2.36052,6.91167,-0.443551,0.431793,0.353451,0
2024-12-13 15:41:57.481,-1.1324,2.34616,7.09621,-0.432556,0.438512,0.349786,0
2024-12-13 15:41:57.484,-1.15155,2.35095,7.26132,-0.416063,0.445842,0.343678,0
2024-12-13 15:41:57.486,-1.18744,2.35095,7.38575,-0.395905,0.456227,0.336959,0
2024-12-13 15:41:57.488,-1.22812,2.33181,7.5341,-0.37025,0.464778,0.33085,0
2024-12-13 15:41:57.491,-1.27597,2.30548,7.6684,-0.339097,0.472109,0.32352,0
2024-12-13 15:41:57.493,-1.31904,2.27438,7.78565,-0.3055,0.481271,0.31619,0
2024-12-13 15:41:57.495,-1.34297,2.24806,7.89332,-0.270682,0.489212,0.308249,0
2024-12-13 15:41:57.498,-1.35015,2.24088,7.97947,-0.231587,0.496542,0.302751,0
2024-12-13 15:41:57.500,-1.35733,2.23131,8.04886,-0.186996,0.500208,0.296032,0
2024-12-13 15:41:57.502,-1.3669,2.22891,8.09193,-0.143015,0.499597,0.289313,0
2024-12-13 15:41:57.505,-1.35972,2.23609,8.135,-0.0984228,0.497153,0.280761,0
2024-12-13 15:41:57.507,-1.35494,2.24327,8.1688,-0.057496,0.492267,0.274041,0
2024-12-13 15:41:57.509,-1.37408,2.25284,8.18794,-0.00984991,0.481882,0.2661,0
2024-12-13 15:41:57.512,-1.40279,2.27438,8.19273,0.0341311,0.469665,0.258159,0
2024-12-13 15:41:57.514,-1.41745,2.29591,8.2023,0.0762796,0.456837,0.250829,0
2024-12-13 15:41:57.517,-1.42941,2.32941,8.21187,0.121482,0.442788,0.244721,0
2024-12-13 15:41:57.519,-1.44377,2.40838,8.1015,0.16302,0.42996,0.240445,0
2024-12-13 15:41:57.521,-1.45095,2.48495,7.98664,0.196616,0.429349,0.236169,0
2024-12-13 15:41:57.524,-1.4653,2.51845,7.97707,0.229602,0.423241,0.231893,0
2024-12-13 15:41:57.526,-1.47248,2.53789,7.92682,0.259534,0.414078,0.23006,0
2024-12-13 15:41:57.528,-1.47248,2.5666,7.85743,0.287633,0.401861,0.227617,0
2024-12-13 15:41:57.531,-1.47727,2.58096,7.78804,0.312067,0.387812,0.228839,0
2024-12-13 15:41:57.533,-1.47966,2.61446,7.72822,0.33589,0.373151,0.228839,0
2024-12-13 15:41:57.535,-1.47248,2.65274,7.67797,0.33589,0.373151,0.228839,0
2024-12-13 15:41:57.538,-1.4677,2.69103,7.60858,0.368952,0.342609,0.235558,0
2024-12-13 15:41:57.540,-1.47727,2.75085,7.54846,0.381169,0.325505,0.23678,0
2024-12-13 15:41:57.542,-1.48684,2.81067,7.49103,0.390331,0.309623,0.241056,0
2024-12-13 15:41:57.545,-1.48923,2.8681,7.42642,0.393386,0.292519,0.247164,0
2024-12-13 15:41:57.547,-1.4988,2.92313,7.38575,0.391553,0.276637,0.250829,0
2024-12-13 15:41:57.550,-1.4988,2.98295,7.30918,0.387888,0.266253,0.259381,0
2024-12-13 15:41:57.552,-1.5012,3.04038,7.21586,0.378725,0.262588,0.267322,0
2024-12-13 15:41:57.554,-1.52034,3.07627,7.19671,0.363989,0.259534,0.277706,0
2024-12-13 15:41:57.557,-1.53709,3.1005,7.2015,0.346885,0.25648,0.288702,0
2024-12-13 15:41:57.559,-1.53948,3.12204,7.19911,0.327949,0.252204,0.300308,0
2024-12-13 15:41:57.561,-1.55623,3.16271,7.19432,0.304736,0.250982,0.313136,0
2024-12-13 15:41:57.564,-1.58973,3.21057,7.19671,0.280913,0.248538,0.329018,0
2024-12-13 15:41:57.566,-1.61845,3.24646,7.22303,0.252814,0.244873,0.346732,0
2024-12-13 15:41:57.568,-1.64716,3.27518,7.26371,0.222272,0.238154,0.363225,0
2024-12-13 15:41:57.571,-1.68544,3.30628,7.2996,0.189286,0.230824,0.382772,0
2024-12-13 15:41:57.573,-1.73091,3.31346,7.35464,0.156301,0.222272,0.405374,0
2024-12-13 15:41:57.575,-1.73809,3.34218,7.43121,0.11965,0.211277,0.432251,0
2024-12-13 15:41:57.578,-1.74287,3.36371,7.49582,0.0860531,0.199671,0.458517,0
2024-12-13 15:41:57.580,-1.7333,3.36371,7.61576,0.046348,0.185621,0.487227,0
2024-12-13 15:41:57.582,-1.70937,3.37089,7.75933,0.0115297,0.170961,0.516548,0
2024-12-13 15:41:57.585,-1.70698,3.35892,7.89572,-0.0220669,0.158133,0.545868,0
2024-12-13 15:41:57.587,-1.67827,3.35175,8.04646,-0.049555,0.143473,0.578854,0
2024-12-13 15:41:57.590,-1.63998,3.34457,8.20469,-0.0794865,0.131256,0.610007,0
2024-12-13 15:41:57.592,-1.60887,3.32782,8.40808,-0.102699,0.11965,0.643604,0
2024-12-13 15:41:57.594,-1.58255,3.3015,8.63301,-0.121635,0.109265,0.675979,0
2024-12-13 15:41:57.597,-1.55145,3.28714,8.86541,-0.134463,0.0970484,0.710797,0
2024-12-13 15:41:57.599,-1.49163,3.27278,9.10469,-0.144236,0.0891073,0.745005,0
2024-12-13 15:41:57.601,-1.39801,3.24885,9.32992,-0.144847,0.0787229,0.77738,0
2024-12-13 15:41:57.604,-1.27119,3.22971,9.52613,-0.143625,0.0707819,0.809144,0
2024-12-13 15:41:57.606,-1.11326,3.21296,9.72712,-0.135684,0.0610084,0.840908,0
2024-12-13 15:41:57.608,-0.950549,3.20339,9.92842,-0.121635,0.0500131,0.867174,0
2024-12-13 15:41:57.611,-0.787538,3.23689,10.139,-0.10392,0.042683,0.889775,0
2024-12-13 15:41:57.613,-0.608076,3.27757,10.4121,-0.077654,0.0274118,0.911766,0
2024-12-13 15:41:57.618,-0.236889,3.34696,10.7351,0.00175619,0.00114534,0.94353,0
2024-12-13 15:41:57.620,-0.00478565,3.41157,10.771,0.046348,-0.00923906,0.953914,0
2024-12-13 15:41:57.620,-0.00478565,3.41157,10.771,0.046348,-0.00923906,0.953914,0
2024-12-13 15:41:57.623,0.18664,3.47139,10.7734,0.090329,-0.0141258,0.958801,0
2024-12-13 15:41:57.625,0.366401,3.57189,10.7351,0.136753,-0.0171801,0.961245,0
2024-12-13 15:41:57.627,0.574577,3.71097,10.6849,0.178902,-0.0177909,0.960023,0
2024-12-13 15:41:57.630,0.742074,3.8665,10.6107,0.219829,-0.0141258,0.956358,0
2024-12-13 15:41:57.632,0.890728,4.06511,10.515,0.262588,-0.00496313,0.95086,0
2024-12-13 15:41:57.634,1.03908,4.28315,10.4145,0.29985,0.010308,0.944752,0
2024-12-13 15:41:57.637,1.1659,4.4674,10.3639,0.338333,0.0206925,0.9362,0
2024-12-13 15:41:57.639,1.28554,4.63011,10.3759,0.38239,0.0255792,0.924594,0
2024-12-13 15:41:57.641,1.39561,4.78116,10.3615,0.426982,0.0231358,0.909933,0
2024-12-13 15:41:57.645,1.4677,4.91516,10.2826,0.515555,0.0115297,0.861066,0
2024-12-13 15:41:57.646,1.52034,5.06351,10.1964,0.515555,0.0115297,0.861066,0
2024-12-13 15:41:57.648,1.57059,5.22383,10.06,0.54793,0.000534491,0.831745,0
2024-12-13 15:41:57.651,1.57298,5.39641,9.87338,0.575418,-0.0116825,0.798759,0
2024-12-13 15:41:57.653,1.5323,5.65484,9.45673,0.588857,-0.0238994,0.764552,0
2024-12-13 15:41:57.655,1.46291,5.83191,9.2363,0.571753,-0.0177909,0.732788,0
2024-12-13 15:41:57.658,1.34536,5.83669,9.3682,0.560147,-0.0257319,0.704689,0
2024-12-13 15:41:57.660,1.21615,5.85584,9.27727,0.5406,-0.0434465,0.675979,0
2024-12-13 15:41:57.663,1.10848,5.88933,9.09751,0.509447,-0.0556635,0.645436,0
2024-12-13 15:41:57.665,1.01755,6.03799,8.82952,0.463022,-0.0697129,0.61917,0
2024-12-13 15:41:57.670,0.792323,6.15045,8.66172,0.305958,-0.0794865,0.578243,0
2024-12-13 15:41:57.670,0.792323,6.15045,8.66172,0.305958,-0.0794865,0.578243,0
2024-12-13 15:41:57.672,0.665504,6.13609,8.6665,0.22105,-0.0953685,0.556253,0
2024-12-13 15:41:57.674,0.533899,6.16481,8.62104,0.122704,-0.102088,0.536095,0
2024-12-13 15:41:57.677,0.435793,6.26052,8.54686,0.0109189,-0.104531,0.51838,0
2024-12-13 15:41:57.679,0.342473,6.34666,8.49422,-0.120413,-0.0904818,0.507385,0
2024-12-13 15:41:57.681,0.239282,6.32513,8.69522,-0.260908,-0.0788757,0.497611,0
2024-12-13 15:41:57.684,0.155533,6.25813,8.98266,-0.394684,-0.0739889,0.48967,0
2024-12-13 15:41:57.686,0.0717847,6.20549,9.21955,-0.530903,-0.0703238,0.480508,0
2024-12-13 15:41:57.688,0.00239282,6.16002,9.51177,-0.666511,-0.0593285,0.476232,0
2024-12-13 15:41:57.691,-0.0693919,6.10977,9.88535,-0.800286,-0.0587177,0.468902,0
2024-12-13 15:41:57.693,-0.153141,6.0332,10.3208,-0.933451,-0.0568851,0.46768,0
2024-12-13 15:41:57.696,-0.196211,5.95663,10.7614,-1.05318,-0.0507767,0.464626,0
2024-12-13 15:41:57.698,-0.208176,5.88694,11.1063,-1.17046,-0.0410031,0.464015,0
2024-12-13 15:41:57.700,-0.234497,5.7338,11.5301,-1.28224,-0.0269536,0.459739,0
2024-12-13 15:41:57.703,-0.282652,5.4993,12.1095,-1.37937,-0.0208452,0.454241,0
2024-12-13 15:41:57.705,-0.34008,5.25254,12.6434,-1.46244,-0.0147367,0.451187,0
2024-12-13 15:41:57.707,-0.423829,5.02523,13.1746,-1.53086,-0.00557398,0.449355,0
2024-12-13 15:41:57.710,-0.483649,4.81705,13.7228,-1.58767,0.00114534,0.447522,0
2024-12-13 15:41:57.712,-0.514756,4.61336,14.252,-1.63043,0.00175619,0.445689,0
2024-12-13 15:41:57.714,-0.545863,4.41715,14.7547,-1.65975,0.00114534,0.444468,0
2024-12-13 15:41:57.717,-0.553041,4.23769,15.2408,-1.67685,0.00419957,0.439581,0
2024-12-13 15:41:57.719,-0.569791,4.07229,15.7125,-1.67991,0.0121406,0.435305,0
2024-12-13 15:41:57.721,-0.596112,3.91914,16.1722,-1.67135,0.0194708,0.432251,0
2024-12-13 15:41:57.724,-0.608076,3.78275,16.6056,-1.64692,0.0341311,0.426142,0
2024-12-13 15:41:57.726,-0.622433,3.67747,17.0219,-1.61149,0.0542891,0.420034,0
2024-12-13 15:41:57.729,-0.634397,3.61017,17.4051,-1.56262,0.0793338,0.413315,0
2024-12-13 15:41:57.731,-0.65354,3.59103,17.6228,-1.50215,0.119039,0.405374,0
2024-12-13 15:41:57.733,-0.627219,3.61256,17.8792,-1.43251,0.17768,0.397433,0
2024-12-13 15:41:57.736,-0.576969,3.64128,18.1998,-1.34883,0.225326,0.386437,0
2024-12-13 15:41:57.738,-0.557827,3.66311,18.4059,-1.25842,0.267475,0.374831,0
2024-12-13 15:41:57.740,-0.541077,3.69661,18.6332,-1.15763,0.296185,0.358338,0
2024-12-13 15:41:57.743,-0.541077,3.73968,18.8441,-1.05379,0.30046,0.340013,0
2024-12-13 15:41:57.745,-0.536291,3.80907,19.0164,-0.943225,0.284578,0.31619,0
2024-12-13 15:41:57.747,-0.52672,3.90479,19.136,-0.827774,0.259534,0.290534,2
2024-12-13 15:41:57.752,-0.529113,4.17518,19.1121,-0.589544,0.203947,0.237391,0
2024-12-13 15:41:57.752,-0.529113,4.17518,19.1121,-0.589544,0.203947,0.237391,0
2024-12-13 15:41:57.754,-0.529113,4.29751,18.9613,-0.469207,0.188675,0.211124,0
2024-12-13 15:41:57.757,-0.565005,4.41476,18.7337,-0.351924,0.181345,0.184858,0
2024-12-13 15:41:57.760,-0.63679,4.51526,18.4561,-0.136906,0.195395,0.134157,0
2024-12-13 15:41:57.761,-0.694218,4.59422,18.0897,-0.136906,0.195395,0.134157,0
2024-12-13 15:41:57.766,-0.938585,4.57986,17.4003,0.0298552,0.236932,0.0870457,0
2024-12-13 15:41:57.766,-0.938585,4.57986,17.4003,0.0298552,0.236932,0.0870457,0
2024-12-13 15:41:57.769,-1.04865,4.51526,17.0339,0.0982701,0.253425,0.0662769,0
2024-12-13 15:41:57.771,-1.13001,4.49851,16.6654,0.14836,0.268086,0.0485624,0
2024-12-13 15:41:57.774,-1.20897,4.48176,16.2942,0.211888,0.291298,0.01802,0
2024-12-13 15:41:57.776,-1.29033,4.47219,15.9159,0.211888,0.291298,0.01802,0
2024-12-13 15:41:57.778,-1.41027,4.49851,15.5545,0.222272,0.305958,0.00397051,0
2024-12-13 15:41:57.780,-1.53709,4.50808,15.1834,0.223494,0.320008,-0.00702474,0
2024-12-13 15:41:57.783,-1.61605,4.51047,14.8217,0.209444,0.3365,-0.0167983,0
2024-12-13 15:41:57.785,-1.6663,4.56072,14.4772,0.183789,0.351772,-0.0271827,0
2024-12-13 15:41:57.787,-1.54666,4.44586,14.173,0.147749,0.370097,-0.0393996,0
2024-12-13 15:41:57.790,-1.27597,4.18475,14.0151,0.107433,0.37926,-0.0595576,0
2024-12-13 15:41:57.792,-1.31904,4.12014,13.7854,0.0677277,0.378038,-0.0839915,0
2024-12-13 15:41:57.794,-1.64955,4.24726,13.462,0.0213033,0.395753,-0.104149,0
2024-12-13 15:41:57.797,-1.87926,4.42911,13.2897,-0.0238994,0.413467,-0.118199,0
2024-12-13 15:41:57.800,-1.95344,4.50808,13.177,-0.109418,0.418965,-0.135303,0
2024-12-13 15:41:57.802,-1.93669,4.48894,13.1315,-0.109418,0.418965,-0.135303,0
2024-12-13 15:41:57.804,-2.01595,4.50329,13.0525,-0.147901,0.40858,-0.143855,0
2024-12-13 15:41:57.806,-2.16909,4.52483,12.9305,-0.179665,0.403694,-0.151796,0
2024-12-13 15:41:57.809,-2.15713,4.4674,12.9544,-0.205321,0.392088,-0.156682,0
2024-12-13 15:41:57.811,-2.14517,4.38604,12.9975,-0.223036,0.360934,-0.161569,0
2024-12-13 15:41:57.813,-2.29591,4.38365,12.8803,-0.235863,0.335279,-0.164623,0
2024-12-13 15:41:57.816,-2.40598,4.37647,12.7654,-0.241361,0.323673,-0.165234,0
2024-12-13 15:41:57.818,-2.35573,4.29751,12.775,-0.236474,0.301682,-0.166456,0
2024-12-13 15:41:57.820,-2.3007,4.20389,12.7128,-0.229144,0.271751,-0.166456,0
2024-12-13 15:41:57.823,-2.32941,4.15603,12.5593,-0.213873,0.255258,-0.167678,0
2024-12-13 15:41:57.825,-2.32702,4.12971,12.4445,-0.194326,0.241208,-0.167678,0
2024-12-13 15:41:57.827,-2.27677,4.08186,12.3392,-0.16867,0.228381,-0.167067,0
2024-12-13 15:41:57.830,-2.23609,4.03879,12.2076,-0.141793,0.212498,-0.167067,0
2024-12-13 15:41:57.832,-2.17388,3.98854,12.0832,-0.110029,0.197838,-0.167067,0
2024-12-13 15:41:57.834,-2.12124,3.95264,11.9489,-0.0727672,0.181345,-0.171343,0
2024-12-13 15:41:57.837,-2.10927,3.96222,11.7981,-0.0348946,0.167907,-0.171953,0
2024-12-13 15:41:57.839,-2.07817,3.99811,11.755,0.00847551,0.145916,-0.170732,0
2024-12-13 15:41:57.842,-2.03031,3.98854,11.6378,0.0603975,0.127591,-0.171953,0
2024-12-13 15:41:57.844,-1.93191,3.93589,11.3623,0.111098,0.11232,-0.171343,0
2024-12-13 15:41:57.846,-1.78116,3.85932,11.147,0.157522,0.0952158,-0.173175,0
2024-12-13 15:41:57.849,-1.65912,3.766,10.905,0.205779,0.0775012,-0.178673,0
2024-12-13 15:41:57.851,-1.58734,3.71575,10.5748,0.250982,0.0597867,-0.182949,0
2024-12-13 15:41:57.853,-1.51555,3.68465,10.2706,0.297406,0.0500131,-0.186614,0
2024-12-13 15:41:57.856,-1.45573,3.68704,9.98345,0.340166,0.0347419,-0.191501,0
2024-12-13 15:41:57.858,-1.43659,3.73968,9.64577,0.374449,0.0249684,-0.196387,0
2024-12-13 15:41:57.860,-1.42941,3.78993,9.33709,0.411711,0.0213033,-0.19822,0
2024-12-13 15:41:57.863,-1.39083,3.83779,9.06641,0.443475,0.0115297,-0.200052,0
2024-12-13 15:41:57.867,-1.33819,3.93111,8.45115,0.489289,-0.0129041,-0.203718,0
2024-12-13 15:41:57.867,-1.33819,3.93111,8.45115,0.489289,-0.0129041,-0.203718,0
2024-12-13 15:41:57.870,-1.32622,3.97418,8.15444,0.506392,-0.0269536,-0.202496,0
2024-12-13 15:41:57.872,-1.30947,3.967,7.88136,0.516777,-0.041614,-0.199442,0
2024-12-13 15:41:57.875,-1.30229,3.967,7.61097,0.523496,-0.0581068,-0.195166,0
2024-12-13 15:41:57.877,-1.30947,4.0005,7.35225,0.525939,-0.0745997,-0.189057,0
2024-12-13 15:41:57.879,-1.33579,4.01725,7.11775,0.527161,-0.0917034,-0.180505,0
2024-12-13 15:41:57.882,-1.3334,4.02921,6.88295,0.525939,-0.107585,-0.171953,0
2024-12-13 15:41:57.884,-1.31665,4.04118,6.67478,0.521053,-0.121024,-0.159126,0
2024-12-13 15:41:57.886,-1.30708,4.06989,6.48335,0.515555,-0.136295,-0.146909,0
2024-12-13 15:41:57.889,-1.27837,4.09621,6.28445,0.507003,-0.147901,-0.134692,0
2024-12-13 15:41:57.891,-1.22812,4.101,6.13849,0.499062,-0.157675,-0.121864,0
2024-12-13 15:41:57.893,-1.17069,4.11296,6.0021,0.488678,-0.174779,-0.107204,0
2024-12-13 15:41:57.896,-1.16351,4.16082,5.84866,0.477683,-0.186385,-0.0955976,0
2024-12-13 15:41:57.898,-1.17069,4.2015,5.71466,0.464855,-0.191882,-0.0791047,0
2024-12-13 15:41:57.900,-1.12522,4.20628,5.60937,0.453249,-0.19738,-0.0626118,0
2024-12-13 15:41:57.903,-1.0678,4.22094,5.52084,0.43981,-0.205932,-0.0455081,0
2024-12-13 15:41:57.905,-1.00319,4.21376,5.40598,0.42515,-0.213262,-0.0314586,0
2024-12-13 15:41:57.908,-0.929013,4.16561,5.29083,0.410489,-0.21876,-0.0167983,0
2024-12-13 15:41:57.910,-0.854836,4.10818,5.21187,0.393996,-0.227922,-0.00213797,0
2024-12-13 15:41:57.912,-0.777966,4.034,5.0994,0.377504,-0.232198,0.0131332,0
2024-12-13 15:41:57.915,-0.699003,3.95982,5.00369,0.358491,-0.234031,0.0235176,0
2024-12-13 15:41:57.917,-0.62004,3.9,4.97019,0.341998,-0.236474,0.0332912,0
2024-12-13 15:41:57.919,-0.550648,3.8354,4.90798,0.324284,-0.240139,0.0442864,0
2024-12-13 15:41:57.922,-0.476471,3.77797,4.83141,0.305347,-0.241361,0.0528383,0
2024-12-13 15:41:57.924,-0.395115,3.73011,4.78355,0.288244,-0.238918,0.0595576,0
2024-12-13 15:41:57.926,-0.316152,3.68704,4.76172,0.268696,-0.237085,0.0674986,0
2024-12-13 15:41:57.929,-0.232104,3.63649,4.79073,0.253425,-0.232809,0.0723854,0
2024-12-13 15:41:57.931,-0.148355,3.57428,4.82423,0.241208,-0.234031,0.0760505,0
2024-12-13 15:41:57.933,-0.0622134,3.50728,4.80748,0.233878,-0.230366,0.0772722,0
2024-12-13 15:41:57.936,0.0287139,3.44267,4.78355,0.221661,-0.224868,0.0760505,0
2024-12-13 15:41:57.938,0.0981057,3.37089,4.79552,0.211888,-0.216927,0.0760505,0
2024-12-13 15:41:57.940,0.160319,3.3015,4.80509,0.200282,-0.208986,0.0729962,0
2024-12-13 15:41:57.943,0.224925,3.23928,4.82423,0.190508,-0.201656,0.0687203,0
2024-12-13 15:41:57.945,0.265603,3.17946,4.84577,0.183178,-0.190661,0.0632227,0
2024-12-13 15:41:57.948,0.289831,3.11725,4.84816,0.172183,-0.182109,0.0595576,0
2024-12-13 15:41:57.950,0.328116,3.04277,4.84816,0.161187,-0.169892,0.0534491,0
2024-12-13 15:41:57.952,0.366401,2.98535,4.85294,0.152025,-0.157675,0.046119,0
2024-12-13 15:41:57.955,0.395115,2.9351,4.86251,0.139197,-0.148512,0.0387888,0
2024-12-13 15:41:57.957,0.411865,2.88724,4.87687,0.128202,-0.135684,0.0284044,0
2024-12-13 15:41:57.959,0.402293,2.8346,4.87926,0.115985,-0.127743,0.0161875,0
2024-12-13 15:41:57.962,0.373579,2.8011,4.87209,0.101935,-0.115526,0.00824644,0
2024-12-13 15:41:57.964,0.34008,2.79631,4.89123,0.0884965,-0.10392,-0.000305424,0
2024-12-13 15:41:57.966,0.292223,2.7676,4.89601,0.0726145,-0.0959794,-0.010079,0
2024-12-13 15:41:57.969,0.229711,2.75085,4.89841,0.0567324,-0.0874275,-0.0174091,0
2024-12-13 15:41:57.971,0.157926,2.75324,4.94626,0.038407,-0.0770431,-0.0241285,0
2024-12-13 15:41:57.973,0.0646062,2.76042,5.00369,0.0206925,-0.0703238,-0.0296261,0
2024-12-13 15:41:57.976,-0.026321,2.76042,5.05394,0.00419957,-0.0623828,-0.0326803,0
2024-12-13 15:41:57.978,-0.0957129,2.75563,5.11615,-0.0116825,-0.057496,-0.0332912,0
2024-12-13 15:41:57.981,-0.165105,2.74846,5.1688,-0.0281753,-0.0538309,-0.033902,0
2024-12-13 15:41:57.983,-0.251246,2.71256,5.22144,-0.0428357,-0.0544418,-0.0369563,0
2024-12-13 15:41:57.985,-0.32333,2.67428,5.28126,-0.0544418,-0.0605502,-0.0369563,0
2024-12-13 15:41:57.988,-0.364008,2.67906,5.36052,-0.0660479,-0.0684913,-0.0345129,0
2024-12-13 15:41:57.990,-0.397508,2.67667,5.43709,-0.0758214,-0.0752106,-0.0345129,0
2024-12-13 15:41:57.992,-0.423829,2.64078,5.51366,-0.0825407,-0.0807082,-0.0357346,0
2024-12-13 15:41:57.995,-0.4669,2.60967,5.61895,-0.0874275,-0.0849841,-0.0369563,0
2024-12-13 15:41:57.997,-0.514756,2.6001,5.71705,-0.0917034,-0.0874275,-0.0387888,0
2024-12-13 15:41:57.999,-0.555434,2.59292,5.80798,-0.0910926,-0.0923143,-0.038178,0
2024-12-13 15:41:58.004,-0.634397,2.55942,5.90399,-0.093536,-0.0978119,-0.0387888,0
2024-12-13 15:41:58.004,-0.634397,2.55942,5.90399,-0.093536,-0.0978119,-0.0387888,0
2024-12-13 15:41:58.006,-0.665504,2.55464,5.92553,-0.0984228,-0.0978119,-0.0393996,0
2024-12-13 15:41:58.009,-0.715753,2.53071,5.95424,-0.0996445,-0.0996445,-0.0375671,0
2024-12-13 15:41:58.011,-0.756431,2.50648,5.97817,-0.10331,-0.102088,-0.0387888,0
2024-12-13 15:41:58.013,-0.797109,2.48973,5.97578,-0.107585,-0.105142,-0.0363454,0
2024-12-13 15:41:58.016,-0.835394,2.45623,5.9997,-0.111861,-0.107585,-0.0363454,0
2024-12-13 15:41:58.018,-0.857229,2.42034,6.02842,-0.117359,-0.113083,-0.0363454,0
2024-12-13 15:41:58.021,-0.873978,2.39163,6.23181,-0.117359,-0.123468,-0.0357346,0
2024-12-13 15:41:58.023,-0.9003,2.35573,6.41127,-0.105753,-0.146069,-0.0332912,0
2024-12-13 15:41:58.025,-0.96012,2.3342,6.39691,-0.0959794,-0.162562,-0.0363454,0
2024-12-13 15:41:58.028,-1.00558,2.31745,6.41127,-0.0849841,-0.177222,-0.0351237,0
2024-12-13 15:41:58.030,-1.04148,2.30788,6.44955,-0.0752106,-0.190661,-0.033902,0
2024-12-13 15:41:58.032,-1.10848,2.3007,6.47139,-0.0605502,-0.202878,-0.0308478,0
2024-12-13 15:41:58.035,-1.18505,2.28873,6.48096,-0.0507767,-0.210819,-0.0284044,0
2024-12-13 15:41:58.037,-1.25204,2.27916,6.50489,-0.0422248,-0.215705,-0.0204634,0
2024-12-13 15:41:58.039,-1.29272,2.26959,6.52882,-0.0275645,-0.21876,-0.0106898,0
2024-12-13 15:41:58.042,-1.31186,2.25763,6.56232,-0.0184018,-0.221814,-0.00274881,0
2024-12-13 15:41:58.044,-1.33101,2.24806,6.58864,-0.00984991,-0.223646,0.00824644,0
2024-12-13 15:41:58.046,-1.33819,2.25763,6.60299,0.00236703,-0.223646,0.0174091,0
2024-12-13 15:41:58.049,-1.33579,2.26241,6.60539,0.010308,-0.223646,0.0290152,0
2024-12-13 15:41:58.051,-1.28554,2.24327,6.59342,0.0182491,-0.221814,0.0393996,0
2024-12-13 15:41:58.054,-1.11565,2.16431,6.52403,0.0255792,-0.199823,0.0467298,0
2024-12-13 15:41:58.056,-0.893121,2.06381,6.54317,0.0255792,-0.199823,0.0467298,0
2024-12-13 15:41:58.058,-0.825823,2.02792,6.62453,0.0371853,-0.149734,0.0534491,0
2024-12-13 15:41:58.061,-0.917049,2.06381,6.65085,0.0524565,-0.135684,0.0528383,0
2024-12-13 15:41:58.063,-1.01515,2.11645,6.71067,0.0616192,-0.129576,0.0534491,0
2024-12-13 15:41:58.065,-1.0678,2.16192,6.80638,0.0695602,-0.130798,0.0577251,0
2024-12-13 15:41:58.068,-1.07737,2.21216,6.85424,0.0781121,-0.136906,0.0601685,0
2024-12-13 15:41:58.070,-1.08933,2.2672,6.87578,0.086664,-0.143625,0.0632227,0
2024-12-13 15:41:58.072,-1.11805,2.31745,6.93799,0.0933833,-0.156453,0.0687203,0
2024-12-13 15:41:58.075,-1.1659,2.37966,6.98345,0.101324,-0.169892,0.0736071,0
2024-12-13 15:41:58.077,-1.22572,2.45863,7.01725,0.108654,-0.185774,0.0803264,0
2024-12-13 15:41:58.079,-1.27597,2.52084,7.02682,0.116595,-0.202267,0.0894891,0
2024-12-13 15:41:58.082,-1.2999,2.55942,7.00499,0.126369,-0.213262,0.0949868,0
2024-12-13 15:41:58.084,-1.30947,2.60249,7.00499,0.128812,-0.223646,0.0986518,0
2024-12-13 15:41:58.087,-1.29272,2.65992,7.01486,0.136753,-0.230366,0.106593,0
2024-12-13 15:41:58.089,-1.23529,2.69581,7.0026,0.140419,-0.234642,0.11148,0
2024-12-13 15:41:58.091,-1.17069,2.7341,6.9667,0.143473,-0.237696,0.113923,0
2024-12-13 15:41:58.094,-1.12283,2.76999,6.94038,0.144694,-0.235863,0.112701,0
2024-12-13 15:41:58.098,-1.07019,2.82024,6.96192,0.147138,-0.232809,0.105371,0
2024-12-13 15:41:58.098,-1.00319,2.82024,6.96192,0.147138,-0.232809,0.105371,0
2024-12-13 15:41:58.101,-0.94337,2.82024,6.9667,0.144084,-0.230977,0.100484,0
2024-12-13 15:41:58.103,-0.869193,2.83699,6.98824,0.14164,-0.225479,0.0919325,0
2024-12-13 15:41:58.105,-0.813859,2.8681,7.02922,0.142862,-0.221814,0.082159,0
2024-12-13 15:41:58.108,-0.799502,2.89203,7.05554,0.139808,-0.219981,0.0729962,0
2024-12-13 15:41:58.110,-0.780359,2.90638,7.07229,0.137975,-0.214484,0.0632227,0
2024-12-13 15:41:58.112,-0.766002,2.93031,7.08904,0.13431,-0.209597,0.0497841,0
2024-12-13 15:41:58.115,-0.758824,2.9686,7.10339,0.126369,-0.202878,0.038178,0
2024-12-13 15:41:58.117,-0.754038,3.02363,7.12971,0.122093,-0.191272,0.0247393,0
2024-12-13 15:41:58.119,-0.76361,3.07867,7.18475,0.114763,-0.178444,0.0113007,0
2024-12-13 15:41:58.122,-0.775574,3.14118,7.25414,0.1056,-0.171114,-0.00335966,0
2024-12-13 15:41:58.124,-0.780359,3.201,7.30439,0.0988809,-0.163783,-0.0167983,0
2024-12-13 15:41:58.127,-0.801895,3.25125,7.34985,0.0915507,-0.160729,-0.0320695,0
2024-12-13 15:41:58.129,-0.818644,3.32303,7.42642,0.0799446,-0.156453,-0.0448973,0
2024-12-13 15:41:58.131,-0.852443,3.402,7.50778,0.0695602,-0.154621,-0.0595576,0
2024-12-13 15:41:58.134,-0.917049,3.47617,7.61097,0.0542891,-0.153399,-0.0717745,0
2024-12-13 15:41:58.136,-0.99362,3.57189,7.74018,0.0457372,-0.150345,-0.0839915,0
2024-12-13 15:41:58.138,-1.07019,3.67268,7.83829,0.0341311,-0.151566,-0.0937651,0
2024-12-13 15:41:58.141,-1.12762,3.76361,7.934,0.0194708,-0.146069,-0.100484,0
2024-12-13 15:41:58.143,-1.15633,3.833,8.05125,0.0115297,-0.136295,-0.108425,0
2024-12-13 15:41:58.145,-1.1683,3.8665,8.17119,-0.000687203,-0.122857,-0.113312,0
2024-12-13 15:41:58.148,-1.18505,3.88325,8.29801,-0.0122933,-0.102088,-0.11881,0
2024-12-13 15:41:58.150,-1.2018,3.8689,8.40569,-0.0269536,-0.0843733,-0.125529,0
2024-12-13 15:41:58.152,-1.21615,3.81147,8.5014,-0.0379489,-0.0648262,-0.132248,0
2024-12-13 15:41:58.155,-1.24247,3.75883,8.64497,-0.0519984,-0.041614,-0.138968,0
2024-12-13 15:41:58.157,-1.27119,3.70618,8.80319,-0.0617719,-0.0171801,-0.143855,0
2024-12-13 15:41:58.160,-1.29033,3.63649,8.98266,-0.0721563,0.010308,-0.149963,0
2024-12-13 15:41:58.162,-1.30469,3.57667,9.19801,-0.0782648,0.0371853,-0.151796,0
2024-12-13 15:41:58.164,-1.32383,3.54556,9.41606,-0.0819299,0.0646735,-0.154239,0
2024-12-13 15:41:58.167,-1.35733,3.52882,9.62663,-0.085595,0.0909399,-0.156682,0
2024-12-13 15:41:58.169,-1.37886,3.50967,9.8351,-0.0837624,0.114763,-0.160958,0
2024-12-13 15:41:58.171,-1.41266,3.51446,10.0576,-0.0788757,0.137364,-0.161569,0
2024-12-13 15:41:58.174,-1.46052,3.54078,10.2897,-0.0684913,0.159355,-0.16218,0
2024-12-13 15:41:58.176,-1.47966,3.55992,10.4934,-0.0568851,0.17768,-0.16218,0
2024-12-13 15:41:58.178,-1.50838,3.57667,10.6825,-0.0403923,0.195395,-0.163402,0
2024-12-13 15:41:58.181,-1.53948,3.62692,10.8835,-0.0208452,0.215553,-0.165234,0
2024-12-13 15:41:58.183,-1.61127,3.67268,11.0513,0.00175619,0.233878,-0.166456,0
2024-12-13 15:41:58.185,-1.68784,3.68226,11.1996,0.0298552,0.244263,-0.167067,0
2024-12-13 15:41:58.188,-1.70459,3.72293,11.3384,0.0610084,0.252204,-0.168288,0
2024-12-13 15:41:58.190,-1.71655,3.78754,11.4437,0.0939941,0.258923,-0.166456,0
2024-12-13 15:41:58.192,-1.73091,3.85693,11.5373,0.12698,0.265642,-0.168899,0
2024-12-13 15:41:58.195,-1.75962,3.95982,11.6067,0.163631,0.273583,-0.168899,0
2024-12-13 15:41:58.200,-1.85294,4.1991,11.6928,0.239376,0.29313,-0.176229,0
2024-12-13 15:41:58.200,-1.85294,4.1991,11.6928,0.239376,0.29313,-0.176229,0
2024-12-13 15:41:58.202,-1.91037,4.33819,11.6785,0.27847,0.301071,-0.178673,0
2024-12-13 15:41:58.204,-1.96301,4.48415,11.6306,0.316953,0.305958,-0.179284,0
2024-12-13 15:41:58.207,-2.00638,4.63968,11.5493,0.356048,0.311456,-0.182338,0
2024-12-13 15:41:58.209,-2.04945,4.79552,11.4652,0.389721,0.313899,-0.18417,0
2024-12-13 15:41:58.211,-2.09492,4.94387,11.3886,0.420263,0.313288,-0.187225,0
2024-12-13 15:41:58.214,-2.15234,5.0994,11.324,0.450194,0.30718,-0.189668,0
2024-12-13 15:41:58.216,-2.20259,5.26929,11.2475,0.480126,0.294963,-0.192111,0
2024-12-13 15:41:58.218,-2.23609,5.45623,11.123,0.505171,0.279081,-0.193333,0
2024-12-13 15:41:58.221,-2.27916,5.65723,10.989,0.525329,0.254036,-0.195166,0
2024-12-13 15:41:58.223,-2.35573,5.8678,10.8595,0.538156,0.227159,-0.195166,0
2024-12-13 15:41:58.225,-2.39641,6.02363,10.7423,0.545487,0.196006,-0.191501,0
2024-12-13 15:41:58.228,-1.8673,5.77687,10.771,0.54793,0.158744,-0.196387,0
2024-12-13 15:41:58.230,-1.30229,5.5328,10.917,0.54793,0.0909399,-0.215935,0
2024-12-13 15:41:58.233,-1.64477,5.78405,10.6944,0.543043,0.0316877,-0.233649,0
2024-12-13 15:41:58.235,-2.24566,6.24856,10.4192,0.525939,0.0237467,-0.24159,0
2024-12-13 15:41:58.237,-2.48016,6.69631,10.5221,0.510057,0.00847551,-0.232427,0
2024-12-13 15:41:58.240,-2.38923,6.89013,10.692,0.487456,-0.0238994,-0.217156,0
2024-12-13 15:41:58.242,-2.35573,7.03161,10.7686,0.463633,-0.0623828,-0.202496,0
2024-12-13 15:41:58.244,-2.63839,7.30678,10.6561,0.427593,-0.077654,-0.180505,0
2024-12-13 15:41:58.249,-3.02842,7.74018,10.7112,0.341387,-0.0886492,-0.105982,0
2024-12-13 15:41:58.249,-3.02842,7.74018,10.7112,0.341387,-0.0886492,-0.105982,0
2024-12-13 15:41:58.254,-3.32064,7.99861,10.5963,0.228991,-0.106364,-0.00397051,0
2024-12-13 15:41:58.254,-3.32064,7.99861,10.5963,0.228991,-0.106364,-0.00397051,0
2024-12-13 15:41:58.258,-3.35653,8.11825,10.6896,0.0970484,-0.109418,0.120031,0
2024-12-13 15:41:58.258,-3.35653,8.11825,10.6896,0.0970484,-0.109418,0.120031,0
2024-12-13 15:41:58.261,-3.37567,8.10868,10.7112,0.0219141,-0.111251,0.189134,0
2024-12-13 15:41:58.263,-3.38764,8.06321,10.7638,0.0219141,-0.111251,0.189134,0
2024-12-13 15:41:58.266,-3.35892,7.96511,10.8356,-0.137517,-0.113083,0.334515,0
2024-12-13 15:41:58.268,-3.25843,7.80479,10.9289,-0.223036,-0.116748,0.406595,0
2024-12-13 15:41:58.270,-3.10529,7.6014,11.1087,-0.307333,-0.119802,0.478064,0
2024-12-13 15:41:58.273,-2.91595,7.35225,11.3432,-0.39224,-0.1253,0.545868,0
2024-12-13 15:41:58.275,-2.69103,7.06272,11.5851,-0.472872,-0.128965,0.610007,0
2024-12-13 15:41:58.277,-2.44666,6.75853,11.8914,-0.549839,-0.130798,0.668649,0
2024-12-13 15:41:58.280,-2.21695,6.43759,12.3081,-0.620697,-0.130187,0.721182,0
2024-12-13 15:41:58.282,-1.99442,6.11934,12.7822,-0.675063,-0.136295,0.769439,0
2024-12-13 15:41:58.284,-1.76919,5.82473,13.1892,-0.720265,-0.13996,0.810365,0
2024-12-13 15:41:58.287,-1.54427,5.55195,13.5242,-0.756916,-0.133852,0.847016,0
2024-12-13 15:41:58.289,-1.34776,5.31476,13.8715,-0.785626,-0.1253,0.878169,0
2024-12-13 15:41:58.291,-1.16351,5.12812,14.1491,-0.805173,-0.105753,0.905047,0
2024-12-13 15:41:58.294,-0.969691,4.97258,14.3982,-0.818612,-0.073378,0.930702,0
2024-12-13 15:41:58.298,-0.768395,4.80987,14.9297,-0.813114,-0.0153475,0.970407,0
2024-12-13 15:41:58.298,-0.565005,4.6684,14.9297,-0.813114,-0.0153475,0.970407,0
2024-12-13 15:41:58.301,-0.375972,4.53201,15.1953,-0.803951,0.00664296,0.983235,0
2024-12-13 15:41:58.303,-0.224925,4.37169,15.4179,-0.785626,0.0151948,0.988733,0
2024-12-13 15:41:58.306,-0.0861416,4.20897,15.5904,-0.785626,0.0151948,0.988733,0
2024-12-13 15:41:58.308,0.0574277,4.03879,15.7819,-0.728817,0.0109189,0.988733,0
2024-12-13 15:41:58.310,0.22014,3.89522,15.9927,-0.691555,-0.00129805,0.980792,0
2024-12-13 15:41:58.313,0.407079,3.8019,16.1985,-0.646353,-0.0202343,0.963688,0
2024-12-13 15:41:58.315,0.584148,3.72054,16.3349,-0.595042,-0.0379489,0.944141,0
2024-12-13 15:41:58.317,0.742074,3.66072,16.4115,-0.538844,-0.0501658,0.919096,0
2024-12-13 15:41:58.320,0.885943,3.61735,16.4641,-0.477148,-0.0568851,0.889775,0
2024-12-13 15:41:58.322,1.00798,3.59581,16.4665,-0.412398,-0.057496,0.853735,0
2024-12-13 15:41:58.324,1.10848,3.57906,16.433,-0.343373,-0.0532201,0.81403,0
2024-12-13 15:41:58.327,1.19222,3.54317,16.3564,-0.273125,-0.0446682,0.768828,2
2024-12-13 15:41:58.329,1.24726,3.51924,16.2488,-0.201045,-0.0287862,0.726679,0
2024-12-13 15:41:58.331,1.26879,3.50728,16.1291,-0.128965,-0.0153475,0.677811,0
2024-12-13 15:41:58.334,1.25922,3.50249,15.9951,-0.0587177,-0.00313059,0.630776,0
2024-12-13 15:41:58.336,1.22812,3.50249,15.8201,0.0115297,0.010308,0.581298,0
2024-12-13 15:41:58.339,1.15633,3.53599,15.5426,0.0756687,0.0213033,0.536706,0
2024-12-13 15:41:58.341,1.04387,3.61735,15.2504,0.131867,0.038407,0.493946,0
2024-12-13 15:41:58.343,0.895514,3.72293,15.0111,0.183178,0.0542891,0.457906,0
2024-12-13 15:41:58.346,0.737288,3.82822,14.7595,0.22777,0.0689494,0.426142,0
2024-12-13 15:41:58.348,0.596112,3.90479,14.482,0.263199,0.0872748,0.401708,0
2024-12-13 15:41:58.350,0.488435,3.99571,14.1969,0.291298,0.102546,0.38155,0
2024-12-13 15:41:58.353,0.41665,4.07468,13.9289,0.311456,0.113541,0.363836,0
2024-12-13 15:41:58.355,0.361615,4.11296,13.6726,0.321229,0.122704,0.351619,0
2024-12-13 15:41:58.357,0.304188,4.14168,13.4309,0.323673,0.129423,0.340624,0
2024-12-13 15:41:58.360,0.232104,4.168,13.1746,0.319397,0.135532,0.33085,0
2024-12-13 15:41:58.362,0.145962,4.18475,12.9138,0.307791,0.140419,0.327796,0
2024-12-13 15:41:58.364,0.0765703,4.1991,12.7056,0.288244,0.145916,0.326574,0
2024-12-13 15:41:58.367,0.0119641,4.1991,12.5139,0.263199,0.151414,0.329628,0
2024-12-13 15:41:58.369,-0.040678,4.17518,12.3248,0.236932,0.15569,0.329628,0
2024-12-13 15:41:58.371,-0.066999,4.14886,12.1741,0.203947,0.159355,0.333294,0
2024-12-13 15:41:58.374,-0.0957129,4.11536,12.0494,0.169128,0.160576,0.33818,0
2024-12-13 15:41:58.376,-0.153141,4.08186,11.9321,0.136143,0.167296,0.343067,0
2024-12-13 15:41:58.379,-0.208176,4.04118,11.8149,0.100713,0.173404,0.351008,0
2024-12-13 15:41:58.381,-0.253639,3.98136,11.6952,0.0652843,0.175237,0.357117,0
2024-12-13 15:41:58.383,-0.316152,3.91675,11.6067,0.0335202,0.181345,0.364447,0
2024-12-13 15:41:58.386,-0.371187,3.87368,11.5612,0.000534491,0.18501,0.374831,0
2024-12-13 15:41:58.388,-0.409472,3.83061,11.5182,-0.0257319,0.189897,0.382772,0
2024-12-13 15:41:58.390,-0.457328,3.7684,11.5086,-0.0507767,0.192341,0.391324,0
2024-12-13 15:41:58.393,-0.519542,3.70618,11.5086,-0.0697129,0.197838,0.402319,0
2024-12-13 15:41:58.395,-0.596112,3.62931,11.5035,-0.0849841,0.204557,0.414536,0
2024-12-13 15:41:58.397,-0.634397,3.56231,11.511,-0.0923143,0.210666,0.42431,0
2024-12-13 15:41:58.400,-0.581755,3.48574,11.4772,-0.0959794,0.218607,0.434694,0
2024-12-13 15:41:58.402,-0.498006,3.41875,11.4509,-0.0947577,0.228381,0.444468,0
2024-12-13 15:41:58.404,-0.457328,3.36371,11.4963,-0.0819299,0.232656,0.450576,0
2024-12-13 15:41:58.407,-0.452543,3.28235,11.47,-0.0611611,0.239376,0.457296,0
2024-12-13 15:41:58.410,-0.428614,3.19621,11.3432,-0.0122933,0.26381,0.468902,0
2024-12-13 15:41:58.412,-0.385544,3.11964,11.2283,-0.0122933,0.26381,0.468902,0
2024-12-13 15:41:58.414,-0.361615,3.06192,11.1111,0.0206925,0.274805,0.473178,0
2024-12-13 15:41:58.416,-0.335294,3.01406,10.9914,0.0542891,0.289465,0.476843,0
2024-12-13 15:41:58.419,-0.297009,3.00927,11.0058,0.0970484,0.302293,0.479286,0
2024-12-13 15:41:58.421,-0.27996,2.99731,10.989,0.152025,0.309623,0.481729,0
2024-12-13 15:41:58.423,-0.253639,2.94945,10.8045,0.204557,0.326727,0.481119,0
2024-12-13 15:41:58.426,-0.177069,2.91595,10.6107,0.25709,0.341998,0.479897,0
2024-12-13 15:41:58.430,-0.0119641,2.8992,10.1916,0.372006,0.371319,0.471956,0
2024-12-13 15:41:58.430,-0.0119641,2.8992,10.1916,0.372006,0.371319,0.471956,0
2024-12-13 15:41:58.433,0.00239282,2.93031,10.1175,0.433091,0.378038,0.467069,0
2024-12-13 15:41:58.435,-0.00239282,2.92792,9.9691,0.500284,0.378038,0.462793,0
2024-12-13 15:41:58.437,0.0311067,2.91595,9.61705,0.565034,0.384757,0.458517,0
2024-12-13 15:41:58.440,0.066999,2.90878,9.26292,0.623064,0.395753,0.452409,0
2024-12-13 15:41:58.442,0.100499,2.87767,8.90848,0.676819,0.409191,0.445079,0
2024-12-13 15:41:58.445,0.133998,2.86092,8.59472,0.725687,0.42263,0.438359,0
2024-12-13 15:41:58.447,0.153141,2.87528,8.3028,0.775776,0.435458,0.43164,0
2024-12-13 15:41:58.449,0.150748,2.92552,8.07996,0.818535,0.445842,0.425531,0
2024-12-13 15:41:58.452,0.119641,2.98056,7.92443,0.869236,0.443399,0.420645,0
2024-12-13 15:41:58.455,0.0909273,2.9997,7.65165,0.961474,0.439734,0.409649,0
2024-12-13 15:41:58.456,0.081356,3.03081,7.30918,0.961474,0.439734,0.409649,0
2024-12-13 15:41:58.459,0.0957129,3.06192,6.99781,0.997514,0.441566,0.403541,0
2024-12-13 15:41:58.461,0.102891,3.06192,6.67478,1.02622,0.440955,0.399265,0
2024-12-13 15:41:58.463,0.100499,3.07388,6.35384,1.04944,0.442177,0.394989,0
2024-12-13 15:41:58.466,0.102891,3.09093,6.04517,1.0702,0.443399,0.390102,0
2024-12-13 15:41:58.468,0.0981057,3.10768,5.74337,1.08242,0.44401,0.386437,0
2024-12-13 15:41:58.470,0.0885344,3.14118,5.44188,1.08792,0.443399,0.382772,0
2024-12-13 15:41:58.473,0.0765703,3.16511,5.13769,1.08425,0.442177,0.379718,0
2024-12-13 15:41:58.475,0.066999,3.19143,4.82662,1.07937,0.445231,0.379107,0
2024-12-13 15:41:58.478,0.0478565,3.22971,4.52722,1.06043,0.447064,0.378496,0
2024-12-13 15:41:58.480,0.0287139,3.25603,4.2688,1.03844,0.450729,0.376664,0
2024-12-13 15:41:58.482,-0.00478565,3.28714,4.034,1.01034,0.45134,0.376664,0
2024-12-13 15:41:58.485,-0.026321,3.32064,3.82822,0.977356,0.456227,0.376664,0
2024-12-13 15:41:58.487,-0.0430708,3.335,3.63649,0.943759,0.457448,0.377275,0
2024-12-13 15:41:58.489,-0.0717847,3.36371,3.46899,0.905276,0.45867,0.378496,0
2024-12-13 15:41:58.492,-0.0909273,3.40439,3.31825,0.864349,0.461113,0.377275,0
2024-12-13 15:41:58.494,-0.112463,3.44746,3.17228,0.819757,0.462946,0.379107,0
2024-12-13 15:41:58.496,-0.148355,3.47857,3.03559,0.776387,0.463557,0.379718,0
2024-12-13 15:41:58.499,-0.172283,3.50489,2.92074,0.730573,0.466611,0.382772,0
2024-12-13 15:41:58.503,-0.212961,3.54078,2.7676,0.640168,0.469665,0.384605,0
2024-12-13 15:41:58.503,-0.212961,3.54078,2.7676,0.640168,0.469665,0.384605,0
2024-12-13 15:41:58.506,-0.244068,3.58385,2.67667,0.593744,0.470887,0.387048,0
2024-12-13 15:41:58.508,-0.294616,3.65833,2.5666,0.544265,0.475163,0.390102,0
2024-12-13 15:41:58.510,-0.352044,3.70858,2.48016,0.493565,0.481271,0.394989,0
2024-12-13 15:41:58.513,-0.421436,3.7325,2.45145,0.440421,0.486158,0.401708,0
2024-12-13 15:41:58.515,-0.495613,3.74925,2.42752,0.389721,0.484326,0.409039,0
2024-12-13 15:41:58.518,-0.555434,3.766,2.3988,0.340776,0.485547,0.420034,0
2024-12-13 15:41:58.520,-0.610469,3.78993,2.4012,0.289465,0.486769,0.429807,0
2024-12-13 15:41:58.522,-0.641576,3.82104,2.40598,0.241819,0.485547,0.441413,0
2024-12-13 15:41:58.525,-0.663111,3.84018,2.39163,0.194173,0.481882,0.452409,0
2024-12-13 15:41:58.527,-0.679861,3.85454,2.39163,0.147138,0.476995,0.465237,0
2024-12-13 15:41:58.529,-0.670289,3.85693,2.4323,0.103768,0.475163,0.476843,0
2024-12-13 15:41:58.532,-0.684646,3.86411,2.45384,0.0579541,0.469665,0.48967,0
2024-12-13 15:41:58.534,-0.708575,3.88564,2.47537,0.0133623,0.467222,0.501887,0
2024-12-13 15:41:58.536,-0.71336,3.88804,2.53549,-0.0318404,0.464168,0.513493,0
2024-12-13 15:41:58.539,-0.720539,3.89043,2.60967,-0.0703238,0.459281,0.524489,0
2024-12-13 15:41:58.541,-0.734896,3.89043,2.68864,-0.108196,0.456837,0.534262,0
2024-12-13 15:41:58.543,-0.737288,3.88564,2.77478,-0.147291,0.451951,0.546479,0
2024-12-13 15:41:58.546,-0.737288,3.88804,2.86092,-0.182109,0.448896,0.557474,0
2024-12-13 15:41:58.548,-0.727717,3.88564,2.9351,-0.215705,0.446453,0.567859,0
2024-12-13 15:41:58.550,-0.710967,3.87607,3.04995,-0.24808,0.44401,0.580687,0
2024-12-13 15:41:58.553,-0.706182,3.87847,3.15075,-0.271903,0.440955,0.59046,0
2024-12-13 15:41:58.555,-0.703789,3.90718,3.19861,-0.29817,0.438512,0.600234,0
2024-12-13 15:41:58.558,-0.708575,3.92393,3.27757,-0.321382,0.438512,0.608786,0
2024-12-13 15:41:58.560,-0.706182,3.94068,3.38046,-0.342151,0.43729,0.617338,0
2024-12-13 15:41:58.562,-0.699003,3.96939,3.47378,-0.36292,0.43729,0.625889,0
2024-12-13 15:41:58.565,-0.718146,3.98614,3.54078,-0.380634,0.434847,0.634441,0
2024-12-13 15:41:58.567,-0.742074,4.01246,3.61017,-0.395905,0.431182,0.641771,0
2024-12-13 15:41:58.569,-0.749253,4.04357,3.66551,-0.411177,0.425073,0.649102,0
2024-12-13 15:41:58.572,-0.754038,4.06989,3.70618,-0.426448,0.420797,0.655821,0
2024-12-13 15:41:58.574,-0.758824,4.09382,3.73968,-0.440497,0.414689,0.663151,0
2024-12-13 15:41:58.576,-0.758824,4.12014,3.78515,-0.45699,0.407359,0.671092,0
2024-12-13 15:41:58.579,-0.756431,4.1345,3.82343,-0.474705,0.403083,0.677201,0
2024-12-13 15:41:58.581,-0.754038,4.14407,3.87129,-0.493641,0.395142,0.681476,0
2024-12-13 15:41:58.583,-0.76361,4.15125,3.93829,-0.51441,0.382925,0.686363,0
2024-12-13 15:41:58.586,-0.76361,4.14407,4.0005,-0.532124,0.371319,0.69125,0
2024-12-13 15:41:58.588,-0.756431,4.14407,4.08664,-0.555947,0.35788,0.696137,0
2024-12-13 15:41:58.591,-0.761217,4.14886,4.19671,-0.574273,0.348107,0.703467,0
2024-12-13 15:41:58.593,-0.792323,4.16561,4.3023,-0.595652,0.333446,0.709575,0
2024-12-13 15:41:58.595,-0.813859,4.18235,4.42194,-0.618254,0.319397,0.716906,0
2024-12-13 15:41:58.598,-0.818644,4.18235,4.55354,-0.63719,0.305958,0.72729,0
2024-12-13 15:41:58.600,-0.845265,4.17996,4.64686,-0.65857,0.290687,0.735842,0
2024-12-13 15:41:58.602,-0.869193,4.18953,4.74018,-0.683004,0.283968,0.743172,0
2024-12-13 15:41:58.605,-0.873978,4.18475,4.86969,-0.708048,0.275416,0.754778,0
2024-12-13 15:41:58.607,-0.888335,4.17039,5.01566,-0.731261,0.269918,0.766995,0
2024-12-13 15:41:58.612,-0.88355,4.101,5.38684,-0.77402,0.261977,0.788986,0
2024-12-13 15:41:58.612,-0.88355,4.101,5.38684,-0.77402,0.261977,0.788986,0
2024-12-13 15:41:58.614,-0.893121,4.05554,5.58066,-0.792345,0.255869,0.801813,0
2024-12-13 15:41:58.616,-0.893121,4.02682,5.78166,-0.808227,0.251593,0.813419,0
2024-12-13 15:41:58.619,-0.876371,3.99093,6.01645,-0.822888,0.250371,0.825026,0
2024-12-13 15:41:58.621,-0.869193,3.93829,6.23899,-0.830218,0.251593,0.839075,0
2024-12-13 15:41:58.624,-0.88355,3.87607,6.45195,-0.841213,0.25709,0.851903,0
2024-12-13 15:41:58.626,-0.926621,3.81865,6.72264,-0.844878,0.265642,0.864731,0
2024-12-13 15:41:58.628,-0.99362,3.73011,6.98345,-0.845489,0.269918,0.880613,0
2024-12-13 15:41:58.631,-1.01755,3.63649,7.20389,-0.844878,0.269918,0.896495,0
2024-12-13 15:41:58.633,-1.01276,3.58146,7.42403,-0.836326,0.276027,0.912988,0
2024-12-13 15:41:58.635,-0.981655,3.54796,7.64447,-0.836326,0.276027,0.912988,0
2024-12-13 15:41:58.638,-0.94337,3.52164,7.85025,-0.815557,0.309623,0.947195,0
2024-12-13 15:41:58.641,-0.950549,3.51446,8.11586,-0.784404,0.368875,0.983235,0
2024-12-13 15:41:58.642,-0.97687,3.49771,8.40808,-0.784404,0.368875,0.983235,0
2024-12-13 15:41:58.645,-0.988834,3.46421,8.63061,-0.763025,0.404305,0.999728,0
2024-12-13 15:41:58.647,-1.0008,3.4355,8.84148,-0.739812,0.438512,1.01439,0
2024-12-13 15:41:58.649,-1.02233,3.38764,9.06401,-0.715989,0.472719,1.02966,0
2024-12-13 15:41:58.652,-1.0343,3.34218,9.24826,-0.68789,0.508149,1.04676,0
2024-12-13 15:41:58.654,-1.02951,3.31346,9.44956,-0.656126,0.544189,1.06081,0
2024-12-13 15:41:58.656,-1.01037,3.29671,9.65295,-0.626806,0.573509,1.07608,0
2024-12-13 15:41:58.659,-1.00558,3.27757,9.82792,-0.590155,0.602219,1.08952,0
2024-12-13 15:41:58.661,-1.00798,3.25603,9.98106,-0.553504,0.630318,1.10052,0
2024-12-13 15:41:58.664,-1.00798,3.26082,10.1007,-0.513188,0.655974,1.1109,0
2024-12-13 15:41:58.668,-0.986441,3.25125,10.2275,-0.439276,0.699344,1.12617,0
2024-12-13 15:41:58.668,-0.955334,3.22253,10.2275,-0.439276,0.699344,1.12617,0
2024-12-13 15:41:58.671,-0.948156,3.22493,10.2778,-0.395905,0.715913,1.12984,0
2024-12-13 15:41:58.673,-0.940978,3.24646,10.3041,-0.359255,0.727519,1.12739,0
2024-12-13 15:41:58.675,-0.914656,3.27996,10.3304,-0.319549,0.736682,1.12984,0
2024-12-13 15:41:58.678,-0.917049,3.32064,10.3496,-0.285342,0.738514,1.12739,0
2024-12-13 15:41:58.680,-0.950549,3.33739,10.3735,-0.24808,0.733628,1.1219,0
2024-12-13 15:41:58.682,-0.972084,3.35892,10.424,-0.212651,0.718356,1.11701,0
2024-12-13 15:41:58.685,-0.99362,3.38046,10.4599,-0.179665,0.693846,1.10785,0
2024-12-13 15:41:58.687,-1.01515,3.39242,10.4791,-0.147901,0.66086,1.09869,0
2024-12-13 15:41:58.689,-1.03669,3.41875,10.4934,-0.117359,0.620544,1.08769,0
2024-12-13 15:41:58.692,-1.07019,3.44746,10.4982,-0.0886492,0.571066,1.07486,0
2024-12-13 15:41:58.694,-1.09173,3.46421,10.4886,-0.0623828,0.51609,1.06387,0
2024-12-13 15:41:58.697,-1.11087,3.45464,10.4934,-0.0385597,0.458059,1.05226,0
2024-12-13 15:41:58.699,-1.13001,3.45464,10.5221,-0.0184018,0.395142,1.04065,0
2024-12-13 15:41:58.701,-1.13719,3.47378,10.5628,0.00236703,0.327338,1.03027,0
2024-12-13 15:41:58.704,-1.15394,3.47378,10.6131,0.0213033,0.259534,1.0205,0
2024-12-13 15:41:58.706,-1.15872,3.47617,10.6346,0.0377962,0.191119,1.01072,0
2024-12-13 15:41:58.708,-1.1659,3.49292,10.6561,0.0500131,0.125758,1.00339,0
2024-12-13 15:41:58.711,-1.18744,3.50489,10.6944,0.0646735,0.0616192,0.996674,0
2024-12-13 15:41:58.713,-1.21376,3.50967,10.7327,0.074447,0.00542127,0.991787,0
2024-12-13 15:41:58.715,-1.25204,3.52403,10.8212,0.074447,0.00542127,0.991787,0
2024-12-13 15:41:58.718,-1.26879,3.53839,10.905,0.104989,-0.104531,0.993009,0
2024-12-13 15:41:58.720,-1.22812,3.5336,10.9098,0.122704,-0.143015,0.997895,0
2024-12-13 15:41:58.722,-1.14197,3.52164,10.8763,0.137364,-0.170503,1.00523,0
2024-12-13 15:41:58.725,-1.01994,3.51446,10.8523,0.147749,-0.187606,1.01072,0
2024-12-13 15:41:58.727,-0.902692,3.57428,10.9484,0.159966,-0.199213,1.01622,0
2024-12-13 15:41:58.729,-0.821037,3.69661,11.269,0.183789,-0.215705,1.02783,0
2024-12-13 15:41:58.732,-0.675075,3.80668,11.4509,0.221661,-0.232198,1.04004,0
2024-12-13 15:41:58.734,-0.445364,3.90239,11.3982,0.255869,-0.229755,1.04982,0
2024-12-13 15:41:58.737,-0.208176,4.04118,11.391,0.290687,-0.219981,1.05776,0
2024-12-13 15:41:58.739,0.0119641,4.20628,11.3767,0.326116,-0.197991,1.06081,0
2024-12-13 15:41:58.741,0.232104,4.38126,11.3575,0.364599,-0.162562,1.06448,0
2024-12-13 15:41:58.744,0.45015,4.60379,11.2977,0.40377,-0.121024,1.0657,0
2024-12-13 15:41:58.746,0.665504,4.84577,11.2235,0.445919,-0.0703238,1.0602,0
2024-12-13 15:41:58.748,0.881157,5.09462,11.1517,0.485013,-0.0196235,1.05226,0
2024-12-13 15:41:58.753,1.17308,5.82712,10.2945,0.549152,0.0878856,1.01683,0
2024-12-13 15:41:58.753,1.17308,5.82712,10.2945,0.549152,0.0878856,1.01683,0
2024-12-13 15:41:58.758,1.28554,6.17677,10.1892,0.529605,0.188675,0.969186,0
2024-12-13 15:41:58.758,1.36929,6.36102,10.1892,0.529605,0.188675,0.969186,0
2024-12-13 15:41:58.760,1.40548,6.52882,10.3089,0.541822,0.183789,0.936811,0
2024-12-13 15:41:58.762,1.40548,6.70349,10.1486,0.543654,0.167907,0.895273,0
2024-12-13 15:41:58.765,1.33819,6.90928,10.017,0.535713,0.147138,0.851903,0
2024-12-13 15:41:58.767,1.14676,7.27807,9.46391,0.511279,0.118428,0.810976,0
2024-12-13 15:41:58.770,0.837787,7.5341,9.29402,0.444697,0.1056,0.779212,0
2024-12-13 15:41:58.772,0.421436,7.55324,9.74866,0.395218,0.0555107,0.754167,0
2024-12-13 15:41:58.774,-0.081356,7.61576,9.7678,0.339555,-0.00496313,0.73462,0
2024-12-13 15:41:58.777,-0.622433,7.77129,9.48066,0.273583,-0.0544418,0.723625,0
2024-12-13 15:41:58.779,-1.18026,7.91486,9.15255,0.157522,-0.0819299,0.724847,0
2024-12-13 15:41:58.782,-1.70937,7.83829,9.29163,-0.0849841,-0.158286,0.757832,0
2024-12-13 15:41:58.784,-2.19541,7.65165,9.59313,-0.0849841,-0.158286,0.757832,0
2024-12-13 15:41:58.786,-2.61446,7.49582,9.72712,-0.219981,-0.193104,0.787153,0
2024-12-13 15:41:58.788,-2.92552,7.39771,9.85903,-0.370861,-0.218149,0.820139,0
2024-12-13 15:41:58.791,-3.17946,7.29003,9.89492,-0.541898,-0.223036,0.862898,0
2024-12-13 15:41:58.793,-3.39242,7.03879,10.1916,-0.72393,-0.221203,0.910544,0
2024-12-13 15:41:58.798,-3.7325,6.44477,11.3121,-1.06662,-0.214484,1.01927,0
2024-12-13 15:41:58.798,-3.7325,6.44477,11.3121,-1.06662,-0.214484,1.01927,0
2024-12-13 15:41:58.800,-3.80907,6.1672,11.9154,-1.22849,-0.194326,1.07853,0
2024-12-13 15:41:58.803,-3.81386,5.89681,12.6168,-1.38242,-0.170503,1.13534,0
2024-12-13 15:41:58.805,-3.79232,5.61177,13.3424,-1.52048,-0.143015,1.19459,0
2024-12-13 15:41:58.807,-3.7325,5.30758,14.0773,-1.64142,-0.110029,1.25079,0
2024-12-13 15:41:58.810,-3.62214,5.00369,14.7954,-1.74832,-0.0770431,1.31004,0
2024-12-13 15:41:58.812,-3.52403,4.73061,15.4564,-1.83079,-0.041614,1.3583,0
2024-12-13 15:41:58.814,-3.43071,4.47936,16.0669,-1.89798,-0.0019089,1.40594,0
2024-12-13 15:41:58.817,-3.30868,4.20897,16.6678,-1.94929,0.0359636,1.44931,0
2024-12-13 15:41:58.819,-3.17707,3.95264,17.2663,-1.97678,0.0713928,1.48841,0
2024-12-13 15:41:58.821,-3.01406,3.75404,17.9151,-1.97983,0.0988809,1.5165,0
2024-12-13 15:41:58.824,-2.87528,3.55274,18.4896,-1.9554,0.120261,1.54033,0
2024-12-13 15:41:58.826,-2.77238,3.335,18.9206,-1.91692,0.139197,1.55804,0
2024-12-13 15:41:58.828,-2.65753,3.11486,19.349,-1.91692,0.139197,1.55804,0
2024-12-13 15:41:58.831,-2.56899,2.90399,19.7417,-1.78192,0.181956,1.57454,0
2024-12-13 15:41:58.833,-2.50409,2.72213,20.0602,-1.68785,0.204557,1.57637,0
2024-12-13 15:41:58.835,-2.40598,2.57139,20.3067,-1.57728,0.232656,1.57209,0
2024-12-13 15:41:58.838,-2.26481,2.4347,20.333,-1.45634,0.263199,1.5611,0
2024-12-13 15:41:58.843,-2.14277,2.25763,20.7066,-1.1894,0.332225,1.52139,2
2024-12-13 15:41:58.843,-2.14277,2.25763,20.7066,-1.1894,0.332225,1.52139,2
2024-12-13 15:41:58.845,-2.05424,2.18824,20.7377,-1.03668,0.356658,1.49451,0
2024-12-13 15:41:58.847,-2.04227,2.15474,20.5582,-0.883972,0.392088,1.46275,0
2024-12-13 15:41:58.850,-2.00877,2.15474,20.4024,-0.729428,0.434236,1.42976,0
2024-12-13 15:41:58.852,-2.00638,2.18584,20.2588,-0.571219,0.477606,1.39311,0
2024-12-13 15:41:58.854,-2.04467,2.22891,20.0124,-0.418507,0.517311,1.35463,0
2024-12-13 15:41:58.857,-2.13559,2.26002,19.713,-0.266406,0.555184,1.31493,0
2024-12-13 15:41:58.859,-2.24566,2.30788,19.421,-0.120413,0.58878,1.27583,0
2024-12-13 15:41:58.861,-2.34616,2.37727,19.0618,0.0151948,0.618712,1.23918,0
2024-12-13 15:41:58.864,-2.43948,2.43948,18.6212,0.140419,0.645589,1.20375,0
2024-12-13 15:41:58.866,-2.50409,2.50887,18.1352,0.253425,0.668801,1.1671,0
2024-12-13 15:41:58.868,-2.57857,2.59053,17.6252,0.351772,0.691403,1.13595,0
2024-12-13 15:41:58.871,-2.65514,2.66471,17.1057,0.436145,0.707361,1.10357,0
2024-12-13 15:41:58.873,-2.72931,2.71256,16.5888,0.501506,0.721411,1.07669,0
2024-12-13 15:41:58.878,-2.88485,2.84895,15.5641,0.590689,0.738514,1.0321,0
2024-12-13 15:41:58.878,-2.88485,2.84895,15.5641,0.590689,0.738514,1.0321,0
2024-12-13 15:41:58.880,-2.93749,2.91595,15.0637,0.614512,0.738514,1.01256,0
2024-12-13 15:41:58.883,-2.96381,2.95424,14.5705,0.624286,0.736071,0.997285,0
2024-12-13 15:41:58.886,-2.97817,2.98056,14.0964,0.602295,0.712859,0.967964,0
2024-12-13 15:41:58.887,-2.98535,3.01884,13.6606,0.602295,0.712859,0.967964,0
2024-12-13 15:41:58.892,-2.98056,3.05234,12.83,0.542432,0.671245,0.95086,0
2024-12-13 15:41:58.892,-2.99013,3.08584,12.83,0.542432,0.671245,0.95086,0
2024-12-13 15:41:58.894,-2.97817,3.12204,12.4636,0.500284,0.647422,0.942308,0
2024-12-13 15:41:58.897,-2.93988,3.15314,12.1406,0.452027,0.621766,0.938032,0
2024-12-13 15:41:58.899,-2.88963,3.17468,11.8484,0.398883,0.596111,0.935589,0
2024-12-13 15:41:58.901,-2.82981,3.19382,11.5756,0.34322,0.568622,0.931313,0
2024-12-13 15:41:58.904,-2.78913,3.22732,11.3408,0.280303,0.541745,0.927648,0
2024-12-13 15:41:58.906,-2.75085,3.23689,11.1613,0.224105,0.510592,0.926426,0
2024-12-13 15:41:58.908,-2.69103,3.23928,11.0417,0.166685,0.481271,0.92887,0
2024-12-13 15:41:58.911,-2.65274,3.26321,11.001,0.11293,0.451951,0.92887,0
2024-12-13 15:41:58.913,-2.58814,3.27996,10.9603,0.0640626,0.420187,0.930091,0
2024-12-13 15:41:58.916,-2.48016,3.26321,10.8763,0.0213033,0.389644,0.934978,0
2024-12-13 15:41:58.919,-2.39402,3.22971,10.8332,-0.0483333,0.337722,0.942308,0
2024-12-13 15:41:58.920,-2.30788,3.19382,10.8356,-0.0483333,0.337722,0.942308,0
2024-12-13 15:41:58.923,-2.24327,3.14836,10.8356,-0.0483333,0.337722,0.942308,0
2024-12-13 15:41:58.925,-2.19541,3.11007,10.8284,-0.0892601,0.283968,0.956969,0
2024-12-13 15:41:58.927,-2.14277,3.08345,10.8428,-0.0984228,0.259534,0.963077,0
2024-12-13 15:41:58.930,-2.08535,3.04277,10.8715,-0.100866,0.235711,0.97224,0
2024-12-13 15:41:58.932,-1.98963,3.01645,10.8523,-0.0941468,0.214331,0.980181,0
2024-12-13 15:41:58.934,-1.87687,2.98774,10.8165,-0.0800973,0.194173,0.986289,0
2024-12-13 15:41:58.937,-1.76201,2.93988,10.8021,-0.0636045,0.175237,0.993009,0
2024-12-13 15:41:58.939,-1.65194,2.89442,10.7758,-0.0636045,0.175237,0.993009,0
2024-12-13 15:41:58.941,-1.52991,2.85853,10.6944,-0.0147367,0.14897,1.00339,0
2024-12-13 15:41:58.944,-1.39561,2.82263,10.5867,0.0194708,0.142251,1.00645,0
2024-12-13 15:41:58.946,-1.25922,2.78435,10.4743,0.0530674,0.137364,1.00706,0
2024-12-13 15:41:58.949,-1.11805,2.75324,10.3448,0.0927724,0.135532,1.004,0
2024-12-13 15:41:58.951,-1.0008,2.71735,10.2012,0.132477,0.136143,0.999728,0
2024-12-13 15:41:58.953,-0.888335,2.70539,10.0217,0.17035,0.137364,0.991787,0
2024-12-13 15:41:58.956,-0.782752,2.68146,9.8351,0.214331,0.139197,0.985068,0
2024-12-13 15:41:58.958,-0.672682,2.74367,9.67927,0.253425,0.144694,0.978959,0
2024-12-13 15:41:58.960,-0.591326,2.80588,9.50459,0.295574,0.151414,0.971629,0
2024-12-13 15:41:58.963,-0.54347,2.76281,9.28924,0.338333,0.158133,0.961855,0
2024-12-13 15:41:58.965,-0.490828,2.72213,9.04726,0.376282,0.165463,0.956358,0
2024-12-13 15:41:58.967,-0.431007,2.68624,8.78644,0.410489,0.173404,0.945363,0
2024-12-13 15:41:58.970,-0.383151,2.6671,8.53969,0.442253,0.179513,0.935589,0
2024-12-13 15:41:58.972,-0.344866,2.66231,8.29083,0.472185,0.18501,0.925815,0
2024-12-13 15:41:58.974,-0.292223,2.64317,8.0345,0.500284,0.186843,0.918485,0
2024-12-13 15:41:58.978,-0.248854,2.62403,7.78086,0.544265,0.196006,0.905657,0
