timestamp,accel_x,accel_y,accel_z,gyro_x,gyro_y,gyro_z,step_timestamp
2024-12-13 15:41:41.740,0.107677,3.85932,9.18126,0.00236703,-0.0257319,-0.0717745,0
2024-12-13 15:41:41.740,0.107677,3.85932,9.18126,0.00236703,-0.0257319,-0.0717745,0
2024-12-13 15:41:41.740,0.107677,3.85932,9.18126,0.00236703,-0.0257319,-0.0717745,0
2024-12-13 15:41:41.740,0.107677,3.85932,9.18126,0.00236703,-0.0257319,-0.0717745,0
2024-12-13 15:41:41.740,0.107677,3.85932,9.18126,0.00236703,-0.0257319,-0.0717745,0
2024-12-13 15:41:41.740,0.107677,3.85932,9.18126,0.00236703,-0.0257319,-0.0717745,0
2024-12-13 15:41:41.740,0.107677,3.85932,9.18126,0.00236703,-0.0257319,-0.0717745,0
2024-12-13 15:41:41.740,0.107677,3.85932,9.18126,0.00236703,-0.0257319,-0.0717745,0
2024-12-13 15:41:41.740,0.107677,3.85932,9.18126,0.00236703,-0.0257319,-0.0717745,0
2024-12-13 15:41:41.740,0.107677,3.85932,9.18126,0.00236703,-0.0257319,-0.0717745,0
2024-12-13 15:41:41.740,0.107677,3.85932,9.18126,0.00236703,-0.0257319,-0.0717745,0
2024-12-13 15:41:41.740,0.107677,3.85932,9.18126,0.00236703,-0.0257319,-0.0717745,0
2024-12-13 15:41:41.740,0.107677,3.85932,9.18126,0.00236703,-0.0257319,-0.0717745,0
2024-12-13 15:41:41.740,0.107677,3.85932,9.18126,0.00236703,-0.0257319,-0.0717745,0
2024-12-13 15:41:41.740,0.107677,3.85932,9.18126,0.00236703,-0.0257319,-0.0717745,0
2024-12-13 15:41:41.740,0.107677,3.85932,9.18126,0.00236703,-0.0257319,-0.0717745,0
2024-12-13 15:41:41.740,0.107677,3.85932,9.18126,0.00236703,-0.0257319,-0.0717745,0
2024-12-13 15:41:41.740,0.107677,3.85932,9.18126,0.00236703,-0.0257319,-0.0717745,0
2024-12-13 15:41:41.740,0.107677,3.85932,9.18126,0.00236703,-0.0257319,-0.0717745,0
2024-12-13 15:41:41.740,0.107677,3.85932,9.18126,0.00236703,-0.0257319,-0.0717745,0
2024-12-13 15:41:41.740,0.107677,3.85932,9.18126,0.00236703,-0.0257319,-0.0717745,0
2024-12-13 15:41:41.740,0.107677,3.85932,9.18126,0.00236703,-0.0257319,-0.0717745,0
2024-12-13 15:41:41.740,0.107677,3.85932,9.18126,0.00236703,-0.0257319,-0.0717745,0
2024-12-13 15:41:41.740,0.107677,3.85932,9.18126,0.00236703,-0.0257319,-0.0717745,0
2024-12-13 15:41:41.740,0.107677,3.85932,9.18126,0.00236703,-0.0257319,-0.0717745,0
2024-12-13 15:41:41.740,0.107677,3.85932,9.18126,0.00236703,-0.0257319,-0.0717745,0
2024-12-13 15:41:41.740,0.107677,3.85932,9.18126,0.00236703,-0.0257319,-0.0717745,0
2024-12-13 15:41:41.740,0.107677,3.85932,9.18126,0.00236703,-0.0257319,-0.0717745,0
2024-12-13 15:41:41.740,0.107677,3.85932,9.18126,0.00236703,-0.0257319,-0.0717745,0
2024-12-13 15:41:41.740,0.107677,3.85932,9.18126,0.00236703,-0.0257319,-0.0717745,0
2024-12-13 15:41:41.740,0.107677,3.85932,9.18126,0.00236703,-0.0257319,-0.0717745,0
2024-12-13 15:41:41.740,0.107677,3.85932,9.18126,0.00236703,-0.0257319,-0.0717745,0
2024-12-13 15:41:41.740,0.107677,3.85932,9.18126,0.00236703,-0.0257319,-0.0717745,0
2024-12-13 15:41:41.740,0.107677,3.85932,9.18126,0.00236703,-0.0257319,-0.0717745,0
2024-12-13 15:41:41.740,0.107677,3.85932,9.18126,0.00236703,-0.0257319,-0.0717745,0
2024-12-13 15:41:41.740,0.107677,3.85932,9.18126,0.00236703,-0.0257319,-0.0717745,0
2024-12-13 15:41:41.740,0.107677,3.85932,9.18126,0.00236703,-0.0257319,-0.0717745,0
2024-12-13 15:41:41.740,0.107677,3.85932,9.18126,0.00236703,-0.0257319,-0.0717745,0
2024-12-13 15:41:41.740,0.107677,3.85932,9.18126,0.00236703,-0.0257319,-0.0717745,0
2024-12-13 15:41:41.740,0.107677,3.85932,9.18126,0.00236703,-0.0257319,-0.0717745,0
2024-12-13 15:41:41.740,0.107677,3.85932,9.18126,0.00236703,-0.0257319,-0.0717745,0
2024-12-13 15:41:41.740,0.107677,3.85932,9.18126,0.00236703,-0.0257319,-0.0717745,0
2024-12-13 15:41:41.740,0.107677,3.85932,9.18126,0.00236703,-0.0257319,-0.0717745,0
2024-12-13 15:41:41.740,0.107677,3.85932,9.18126,0.00236703,-0.0257319,-0.0717745,0
2024-12-13 15:41:41.740,0.107677,3.85932,9.18126,0.00236703,-0.0257319,-0.0717745,0
2024-12-13 15:41:41.740,0.107677,3.85932,9.18126,0.00236703,-0.0257319,-0.0717745,0
2024-12-13 15:41:41.740,0.107677,3.85932,9.18126,0.00236703,-0.0257319,-0.0717745,0
2024-12-13 15:41:41.740,0.107677,3.85932,9.18126,0.00236703,-0.0257319,-0.0717745,0
2024-12-13 15:41:41.740,0.107677,3.85932,9.18126,0.00236703,-0.0257319,-0.0717745,0
2024-12-13 15:41:41.740,0.107677,3.85932,9.18126,0.00236703,-0.0257319,-0.0717745,0
2024-12-13 15:41:41.740,0.107677,3.85932,9.18126,0.00236703,-0.0257319,-0.0717745,0
2024-12-13 15:41:41.740,0.107677,3.85932,9.18126,0.00236703,-0.0257319,-0.0717745,0
2024-12-13 15:41:41.740,0.107677,3.85932,9.18126,0.00236703,-0.0257319,-0.0717745,0
2024-12-13 15:41:41.740,0.107677,3.85932,9.18126,0.00236703,-0.0257319,-0.0717745,0
2024-12-13 15:41:41.740,0.107677,3.85932,9.18126,0.00236703,-0.0257319,-0.0717745,0
2024-12-13 15:41:41.740,0.107677,3.85932,9.18126,0.00236703,-0.0257319,-0.0717745,0
2024-12-13 15:41:41.740,0.107677,3.85932,9.18126,0.00236703,-0.0257319,-0.0717745,0
2024-12-13 15:41:41.740,0.107677,3.85932,9.18126,0.00236703,-0.0257319,-0.0717745,0
2024-12-13 15:41:41.740,0.107677,3.85932,9.18126,0.00236703,-0.0257319,-0.0717745,0
2024-12-13 15:41:41.740,0.107677,3.85932,9.18126,0.00236703,-0.0257319,-0.0717745,0
2024-12-13 15:41:41.740,0.107677,3.85932,9.18126,0.00236703,-0.0257319,-0.0717745,0
2024-12-13 15:41:41.740,0.107677,3.85932,9.18126,0.00236703,-0.0257319,-0.0717745,0
2024-12-13 15:41:41.740,0.107677,3.85932,9.18126,0.00236703,-0.0257319,-0.0717745,0
2024-12-13 15:41:41.740,0.107677,3.85932,9.18126,0.00236703,-0.0257319,-0.0717745,0
2024-12-13 15:41:41.740,0.107677,3.85932,9.18126,0.00236703,-0.0257319,-0.0717745,0
2024-12-13 15:41:41.740,0.107677,3.85932,9.18126,0.00236703,-0.0257319,-0.0717745,0
2024-12-13 15:41:41.740,0.107677,3.85932,9.18126,0.00236703,-0.0257319,-0.0717745,0
2024-12-13 15:41:41.740,0.107677,3.85932,9.18126,0.00236703,-0.0257319,-0.0717745,0
2024-12-13 15:41:41.740,0.107677,3.85932,9.18126,0.00236703,-0.0257319,-0.0717745,0
2024-12-13 15:41:41.740,0.107677,3.85932,9.18126,0.00236703,-0.0257319,-0.0717745,0
2024-12-13 15:41:41.740,0.107677,3.85932,9.18126,0.00236703,-0.0257319,-0.0717745,0
2024-12-13 15:41:41.740,0.107677,3.85932,9.18126,0.00236703,-0.0257319,-0.0717745,0
2024-12-13 15:41:41.751,0.0741775,3.84975,9.02812,-0.00740652,-0.0171801,-0.0687203,0
2024-12-13 15:41:41.751,0.0741775,3.84975,9.02812,-0.00740652,-0.0171801,-0.0687203,0
2024-12-13 15:41:41.756,0.0741775,3.84975,9.02812,-0.0129041,-0.0238994,-0.0626118,0
2024-12-13 15:41:41.756,0.0526421,3.87129,8.95394,-0.0129041,-0.0238994,-0.0626118,0
2024-12-13 15:41:41.756,0.0526421,3.87129,8.95394,-0.0129041,-0.0238994,-0.0626118,0
2024-12-13 15:41:41.756,0.0526421,3.87129,8.95394,-0.0129041,-0.0238994,-0.0626118,0
2024-12-13 15:41:41.756,0.0526421,3.87129,8.95394,-0.0129041,-0.0238994,-0.0626118,0
2024-12-13 15:41:41.758,0.0717847,3.88564,8.95155,-0.0190126,-0.0232886,-0.0595576,0
2024-12-13 15:41:41.758,0.0717847,3.88564,8.95155,-0.0190126,-0.0232886,-0.0595576,0
2024-12-13 15:41:41.758,0.0717847,3.88564,8.95155,-0.0190126,-0.0232886,-0.0595576,0
2024-12-13 15:41:41.758,0.0717847,3.88564,8.95155,-0.0190126,-0.0232886,-0.0595576,0
2024-12-13 15:41:41.758,0.0717847,3.88564,8.95155,-0.0190126,-0.0232886,-0.0595576,0
2024-12-13 15:41:41.761,0.112463,3.91675,8.95155,-0.0263428,-0.0208452,-0.0601685,0
2024-12-13 15:41:41.763,0.133998,3.93589,8.95394,-0.0306187,-0.0177909,-0.0601685,0
2024-12-13 15:41:41.766,0.138784,3.92632,8.94437,-0.0367272,-0.0159584,-0.0589468,0
2024-12-13 15:41:41.768,0.138784,3.91675,8.97787,-0.0397814,-0.0141258,-0.0613902,0
2024-12-13 15:41:41.770,0.122034,3.88564,9.04965,-0.0428357,-0.0147367,-0.0644444,0
2024-12-13 15:41:41.773,0.107677,3.8689,9.08076,-0.0452791,-0.0147367,-0.0674986,0
2024-12-13 15:41:41.775,0.102891,3.88086,9.07837,-0.0483333,-0.0171801,-0.0687203,0
2024-12-13 15:41:41.777,0.0933201,3.88804,9.1023,-0.0483333,-0.0184018,-0.0705529,0
2024-12-13 15:41:41.780,0.0622134,3.87847,9.13819,-0.0501658,-0.0196235,-0.0723854,0
2024-12-13 15:41:41.782,0.0119641,3.85932,9.15015,-0.0526092,-0.0153475,-0.069942,0
2024-12-13 15:41:41.784,-0.0191426,3.84975,9.1693,-0.0532201,-0.013515,-0.0668878,0
2024-12-13 15:41:41.787,-0.026321,3.84736,9.19083,-0.0532201,-0.0122933,-0.0662769,0
2024-12-13 15:41:41.789,-0.0334995,3.85215,9.19801,-0.0550526,-0.0110716,-0.0638335,0
2024-12-13 15:41:41.791,-0.0311067,3.85693,9.22194,-0.0544418,-0.00923906,-0.0601685,0
2024-12-13 15:41:41.794,-0.00717847,3.85454,9.23869,-0.0532201,-0.0104608,-0.0589468,0
2024-12-13 15:41:41.796,0.0215354,3.85454,9.25065,-0.0544418,-0.0141258,-0.0571142,0
2024-12-13 15:41:41.798,0.040678,3.85932,9.2677,-0.0538309,-0.0177909,-0.0565034,0
2024-12-13 15:41:41.801,0.0598206,3.85215,9.27727,-0.0519984,-0.0184018,-0.0552817,0
2024-12-13 15:41:41.806,0.0550349,3.85454,9.31556,-0.0483333,-0.0263428,-0.0601685,0
2024-12-13 15:41:41.806,0.0550349,3.85454,9.31556,-0.0483333,-0.0263428,-0.0601685,0
2024-12-13 15:41:41.808,0.0382852,3.84497,9.32752,-0.0483333,-0.0287862,-0.062001,0
2024-12-13 15:41:41.810,0.0167498,3.84736,9.34427,-0.0477224,-0.029397,-0.0638335,0
2024-12-13 15:41:41.813,0.00239282,3.86172,9.35145,-0.0465007,-0.0312296,-0.0650552,0
2024-12-13 15:41:41.815,-0.0311067,3.87129,9.35863,-0.0440574,-0.0330621,-0.0656661,0
2024-12-13 15:41:41.817,-0.0598206,3.8665,9.38016,-0.041614,-0.0348946,-0.0668878,0
2024-12-13 15:41:41.820,-0.0765703,3.8665,9.41606,-0.041614,-0.0355055,-0.069942,0
2024-12-13 15:41:41.822,-0.0933201,3.8665,9.43759,-0.0391706,-0.0367272,-0.0687203,0
2024-12-13 15:41:41.824,-0.100499,3.8689,9.44477,-0.0361163,-0.0397814,-0.0687203,0
2024-12-13 15:41:41.827,-0.102891,3.88804,9.45434,-0.0367272,-0.0410031,-0.0705529,0
2024-12-13 15:41:41.829,-0.105284,3.89761,9.47109,-0.0324513,-0.0434465,-0.069942,0
2024-12-13 15:41:41.831,-0.11007,3.89043,9.47588,-0.0300079,-0.0452791,-0.0711637,0
2024-12-13 15:41:41.834,-0.100499,3.87847,9.46631,-0.0287862,-0.049555,-0.0705529,0
2024-12-13 15:41:41.837,-0.0933201,3.88564,9.47588,-0.0251211,-0.0538309,-0.0723854,0
2024-12-13 15:41:41.839,-0.0909273,3.89282,9.45913,-0.0251211,-0.0538309,-0.0723854,0
2024-12-13 15:41:41.841,-0.0861416,3.88804,9.43998,-0.0238994,-0.0562743,-0.0723854,0
2024-12-13 15:41:41.843,-0.0957129,3.89282,9.44238,-0.0238994,-0.0593285,-0.0748288,0
2024-12-13 15:41:41.846,-0.0837488,3.9,9.43041,-0.0238994,-0.0599394,-0.0748288,0
2024-12-13 15:41:41.848,-0.0646062,3.89761,9.42802,-0.0257319,-0.0623828,-0.0748288,0
2024-12-13 15:41:41.850,-0.0646062,3.9,9.42323,-0.0263428,-0.0623828,-0.0754396,0
2024-12-13 15:41:41.853,-0.066999,3.9,9.41845,-0.0312296,-0.0623828,-0.0760505,0
2024-12-13 15:41:41.855,-0.0789631,3.90718,9.42563,-0.0324513,-0.0623828,-0.0760505,0
2024-12-13 15:41:41.857,-0.0741775,3.91675,9.41127,-0.0330621,-0.0611611,-0.0784939,0
2024-12-13 15:41:41.860,-0.0622134,3.93111,9.40409,-0.0385597,-0.0593285,-0.077883,0
2024-12-13 15:41:41.862,-0.066999,3.93589,9.40648,-0.0391706,-0.0556635,-0.077883,0
2024-12-13 15:41:41.864,-0.0933201,3.92632,9.40648,-0.0410031,-0.0538309,-0.077883,0
2024-12-13 15:41:41.867,-0.117248,3.91675,9.42802,-0.0422248,-0.0513875,-0.0784939,0
2024-12-13 15:41:41.869,-0.133998,3.91197,9.46391,-0.041614,-0.0471116,-0.0784939,0
2024-12-13 15:41:41.871,-0.157926,3.91436,9.50459,-0.0403923,-0.0446682,-0.0791047,0
2024-12-13 15:41:41.874,-0.167498,3.89761,9.54766,-0.037338,-0.0446682,-0.0766613,0
2024-12-13 15:41:41.876,-0.16989,3.89522,9.57877,-0.0330621,-0.0428357,-0.0754396,0
2024-12-13 15:41:41.879,-0.181855,3.89043,9.60987,-0.0281753,-0.0434465,-0.0766613,0
2024-12-13 15:41:41.881,-0.205783,3.88325,9.65773,-0.0275645,-0.041614,-0.0717745,0
2024-12-13 15:41:41.883,-0.222533,3.89043,9.68645,-0.0171801,-0.0403923,-0.0723854,0
2024-12-13 15:41:41.886,-0.224925,3.88564,9.69362,-0.0110716,-0.0410031,-0.069942,0
2024-12-13 15:41:41.888,-0.244068,3.89282,9.70559,-0.00557398,-0.041614,-0.0668878,0
2024-12-13 15:41:41.890,-0.272782,3.89282,9.71277,0.00481042,-0.0403923,-0.0644444,0
2024-12-13 15:41:41.893,-0.292223,3.88804,9.71037,0.0096972,-0.0385597,-0.0626118,0
2024-12-13 15:41:41.895,-0.294616,3.88804,9.70559,0.0164165,-0.0385597,-0.0571142,0
2024-12-13 15:41:41.897,-0.304188,3.87607,9.71755,0.0231358,-0.0385597,-0.0528383,0
2024-12-13 15:41:41.900,-0.308973,3.87129,9.71994,0.0298552,-0.037338,-0.0497841,0
2024-12-13 15:41:41.902,-0.297009,3.88804,9.69841,0.0371853,-0.0367272,-0.0448973,0
2024-12-13 15:41:41.904,-0.267996,3.89761,9.65773,0.0420721,-0.0342838,-0.0436756,0
2024-12-13 15:41:41.907,-0.239282,3.91197,9.6003,0.0451263,-0.0324513,-0.0400105,0
2024-12-13 15:41:41.909,-0.210568,3.91675,9.55005,0.0487914,-0.0300079,-0.038178,0
2024-12-13 15:41:41.912,-0.198604,3.91197,9.49502,0.050624,-0.0257319,-0.0363454,0
2024-12-13 15:41:41.914,-0.196211,3.91675,9.44477,0.0518457,-0.0251211,-0.0345129,0
2024-12-13 15:41:41.916,-0.189033,3.92393,9.38734,0.0524565,-0.0251211,-0.0326803,0
2024-12-13 15:41:41.919,-0.196211,3.93111,9.32274,0.0512348,-0.0238994,-0.0326803,0
2024-12-13 15:41:41.921,-0.189033,3.9335,9.27009,0.0548999,-0.0238994,-0.0308478,0
2024-12-13 15:41:41.923,-0.174676,3.92632,9.22194,0.0518457,-0.021456,-0.0332912,0
2024-12-13 15:41:41.926,-0.16989,3.91436,9.19322,0.0530674,-0.0220669,-0.0320695,0
2024-12-13 15:41:41.928,-0.155533,3.9335,9.1669,0.0530674,-0.021456,-0.0332912,0
2024-12-13 15:41:41.931,-0.157926,3.93829,9.14297,0.0518457,-0.0208452,-0.033902,0
2024-12-13 15:41:41.933,-0.153141,3.9335,9.12862,0.0518457,-0.0196235,-0.0332912,0
2024-12-13 15:41:41.935,-0.131605,3.94307,9.0999,0.050624,-0.0196235,-0.0357346,0
2024-12-13 15:41:41.937,-0.112463,3.94307,9.06641,0.0500131,-0.0190126,-0.0363454,0
2024-12-13 15:41:41.940,-0.11007,3.95025,9.04726,0.050624,-0.0171801,-0.0387888,0
2024-12-13 15:41:41.942,-0.112463,3.95264,9.01855,0.0475697,-0.0147367,-0.0393996,0
2024-12-13 15:41:41.944,-0.100499,3.94547,8.97787,0.0451263,-0.0129041,-0.0406213,0
2024-12-13 15:41:41.947,-0.0957129,3.95264,8.94437,0.0408504,-0.0104608,-0.0436756,0
2024-12-13 15:41:41.949,-0.0981057,3.97897,8.92762,0.0359636,-0.00679568,-0.046119,0
2024-12-13 15:41:41.952,-0.107677,3.99332,8.90848,0.0298552,-0.00435229,-0.0485624,0
2024-12-13 15:41:41.954,-0.112463,3.98136,8.88694,0.0249684,-0.00129805,-0.0479515,0
2024-12-13 15:41:41.957,-0.112463,3.967,8.88455,0.0121406,0.00114534,-0.0497841,0
2024-12-13 15:41:41.959,-0.138784,3.96939,8.89412,0.0121406,0.00114534,-0.0497841,0
2024-12-13 15:41:41.961,-0.157926,3.967,8.90609,0.00542127,0.00419957,-0.0503949,0
2024-12-13 15:41:41.963,-0.160319,3.96222,8.92762,-0.000687203,0.00419957,-0.0510057,0
2024-12-13 15:41:41.966,-0.165105,3.95743,8.95155,-0.00618483,0.00481042,-0.0491732,0
2024-12-13 15:41:41.968,-0.167498,3.94307,8.9683,-0.0147367,0.00358873,-0.0497841,0
2024-12-13 15:41:41.970,-0.172283,3.93589,8.99941,-0.0177909,0.00236703,-0.0497841,0
2024-12-13 15:41:41.973,-0.162712,3.93111,9.02812,-0.021456,-0.00129805,-0.0510057,0
2024-12-13 15:41:41.975,-0.162712,3.92393,9.04487,-0.0238994,-0.00313059,-0.0503949,0
2024-12-13 15:41:41.977,-0.177069,3.91675,9.09512,-0.0300079,-0.00251974,-0.0485624,0
2024-12-13 15:41:41.980,-0.181855,3.9,9.14297,-0.029397,-0.00496313,-0.0497841,0
2024-12-13 15:41:41.982,-0.200997,3.88086,9.1693,-0.0324513,-0.00618483,-0.0497841,0
2024-12-13 15:41:41.985,-0.22014,3.87129,9.19083,-0.0324513,-0.00862822,-0.0479515,0
2024-12-13 15:41:41.987,-0.232104,3.87368,9.20519,-0.0342838,-0.00801737,-0.046119,0
2024-12-13 15:41:41.989,-0.234497,3.8689,9.21476,-0.0330621,-0.00923906,-0.0473407,0
2024-12-13 15:41:41.992,-0.248854,3.84975,9.2363,-0.0312296,-0.00740652,-0.0448973,0
2024-12-13 15:41:41.994,-0.260818,3.85215,9.25783,-0.0306187,-0.00984991,-0.0412322,0
2024-12-13 15:41:41.996,-0.270389,3.84736,9.27727,-0.0287862,-0.00923906,-0.0430647,0
2024-12-13 15:41:41.999,-0.282652,3.82582,9.27249,-0.0257319,-0.00862822,-0.0412322,0
2024-12-13 15:41:42.001,-0.285045,3.81147,9.27727,-0.0232886,-0.00801737,-0.0375671,0
2024-12-13 15:41:42.003,-0.289831,3.78275,9.29881,-0.0190126,-0.00618483,-0.0375671,0
2024-12-13 15:41:42.006,-0.299402,3.76361,9.30838,-0.0153475,-0.00618483,-0.033902,0
2024-12-13 15:41:42.008,-0.313759,3.74686,9.34188,-0.00984991,-0.00740652,-0.0332912,0
2024-12-13 15:41:42.010,-0.325723,3.75404,9.37059,-0.00435229,-0.00679568,-0.0296261,0
2024-12-13 15:41:42.013,-0.337687,3.77557,9.35145,-0.000687203,-0.00557398,-0.0247393,0
2024-12-13 15:41:42.015,-0.342473,3.74447,9.35145,0.00603212,-0.0019089,-0.0198525,0
2024-12-13 15:41:42.018,-0.325723,3.71815,9.36341,0.0115297,-7.63559e-05,-0.0155766,0
2024-12-13 15:41:42.020,-0.318545,3.70379,9.32274,0.0170274,0.00481042,-0.0119115,0
2024-12-13 15:41:42.022,-0.301795,3.68943,9.25544,0.0213033,0.00664296,-0.00885729,0
2024-12-13 15:41:42.025,-0.270389,3.68704,9.22912,0.0237467,0.0115297,-0.00763559,0
2024-12-13 15:41:42.027,-0.241675,3.69183,9.22912,0.030466,0.0170274,-0.0051922,0
2024-12-13 15:41:42.029,-0.232104,3.69661,9.19562,0.0341311,0.0194708,-0.00335966,0
2024-12-13 15:41:42.032,-0.234497,3.70858,9.14776,0.038407,0.0243575,-0.00335966,0
2024-12-13 15:41:42.036,-0.265603,3.699,9.07358,0.042683,0.0298552,-0.00213797,0
2024-12-13 15:41:42.039,-0.27996,3.70858,9.04248,0.0439046,0.0335202,-0.00274881,0
2024-12-13 15:41:42.039,-0.27996,3.70858,9.04248,0.0439046,0.0335202,-0.00274881,0
2024-12-13 15:41:42.041,-0.297009,3.72054,9.00419,0.0445155,0.0377962,-0.000305424,0
2024-12-13 15:41:42.043,-0.330509,3.73011,8.97069,0.0439046,0.0396287,-0.00152712,0
2024-12-13 15:41:42.046,-0.335294,3.74925,8.95873,0.0445155,0.0371853,0.000916271,0
2024-12-13 15:41:42.048,-0.320937,3.76361,8.92044,0.0432938,0.0359636,-0.000305424,0
2024-12-13 15:41:42.055,-0.285045,3.77557,8.79123,0.0432938,0.0359636,-0.000305424,0
2024-12-13 15:41:42.058,-0.277567,3.79472,8.74816,0.0329094,0.0243575,0.000916271,0
2024-12-13 15:41:42.058,-0.277567,3.79472,8.74816,0.0329094,0.0243575,0.000916271,0
2024-12-13 15:41:42.060,-0.251246,3.83061,8.71227,0.0280226,0.0164165,-0.000305424,0
2024-12-13 15:41:42.060,-0.251246,3.83061,8.71227,0.0280226,0.0164165,-0.000305424,0
2024-12-13 15:41:42.062,-0.222533,3.84736,8.67847,0.0237467,0.0115297,-0.000916271,0
2024-12-13 15:41:42.065,-0.210568,3.85454,8.64975,0.0182491,0.00725381,-0.00397051,0
2024-12-13 15:41:42.067,-0.208176,3.88086,8.61386,0.0133623,0.000534491,-0.00580305,0
2024-12-13 15:41:42.069,-0.224925,3.89761,8.58036,0.00908635,-0.00740652,-0.00946813,0
2024-12-13 15:41:42.072,-0.239282,3.91675,8.5349,0.00419957,-0.0110716,-0.0113007,0
2024-12-13 15:41:42.074,-0.241675,3.94068,8.49183,-0.00435229,-0.0184018,-0.0149658,0
2024-12-13 15:41:42.076,-0.263211,3.94068,8.49183,-0.0147367,-0.0263428,-0.0161875,0
2024-12-13 15:41:42.081,-0.292223,3.94307,8.49183,-0.0355055,-0.0403923,-0.0186308,0
2024-12-13 15:41:42.081,-0.292223,3.94307,8.49183,-0.0355055,-0.0403923,-0.0186308,0
2024-12-13 15:41:42.083,-0.292223,3.91197,8.51815,-0.0458899,-0.0440574,-0.0167983,0
2024-12-13 15:41:42.086,-0.313759,3.88564,8.55404,-0.0587177,-0.0489441,-0.0174091,0
2024-12-13 15:41:42.088,-0.330509,3.85454,8.61147,-0.0739889,-0.0544418,-0.0167983,0
2024-12-13 15:41:42.091,-0.337687,3.82582,8.65215,-0.0886492,-0.0556635,-0.0155766,0
2024-12-13 15:41:42.093,-0.344866,3.80429,8.7027,-0.100866,-0.0568851,-0.0149658,0
2024-12-13 15:41:42.095,-0.354437,3.766,8.7673,-0.115526,-0.0605502,-0.0125224,0
2024-12-13 15:41:42.098,-0.375972,3.71336,8.82712,-0.130798,-0.0562743,-0.0106898,0
2024-12-13 15:41:42.100,-0.373579,3.66551,8.91087,-0.144847,-0.0562743,-0.00580305,0
2024-12-13 15:41:42.102,-0.352044,3.60778,9.01137,-0.157675,-0.0544418,-0.00397051,0
2024-12-13 15:41:42.105,-0.347258,3.54556,9.12144,-0.171114,-0.0513875,0.000305424,0
2024-12-13 15:41:42.107,-0.361615,3.48096,9.21476,-0.178444,-0.0544418,0.00335966,0
2024-12-13 15:41:42.109,-0.354437,3.4355,9.3012,-0.185774,-0.0629936,0.00824644,0
2024-12-13 15:41:42.112,-0.32333,3.41157,9.41606,-0.188828,-0.0684913,0.0106898,0
2024-12-13 15:41:42.114,-0.285045,3.39003,9.53809,-0.19005,-0.0721563,0.0137441,0
2024-12-13 15:41:42.116,-0.239282,3.36371,9.65295,-0.186385,-0.0770431,0.0167983,0
2024-12-13 15:41:42.119,-0.20339,3.33978,9.75105,-0.18272,-0.0788757,0.0174091,0
2024-12-13 15:41:42.121,-0.165105,3.335,9.82074,-0.17539,-0.0782648,0.0174091,0
2024-12-13 15:41:42.123,-0.145962,3.33021,9.87099,-0.168059,-0.0800973,0.0155766,0
2024-12-13 15:41:42.126,-0.124427,3.32064,9.9021,-0.153399,-0.0764323,0.0119115,0
2024-12-13 15:41:42.128,-0.0909273,3.32543,9.93081,-0.136906,-0.073378,0.00824644,0
2024-12-13 15:41:42.131,-0.0789631,3.335,9.94278,-0.122857,-0.073378,0.00458135,0
2024-12-13 15:41:42.133,-0.0741775,3.34218,9.90449,-0.102088,-0.0758214,0.00274881,0
2024-12-13 15:41:42.135,-0.0717847,3.33978,9.84706,-0.0837624,-0.0819299,-0.00213797,0
2024-12-13 15:41:42.138,-0.0502493,3.33978,9.77019,-0.0629936,-0.0880384,-0.00397051,0
2024-12-13 15:41:42.140,-0.00957129,3.34696,9.66012,-0.0434465,-0.0953685,-0.00946813,0
2024-12-13 15:41:42.142,0.0430708,3.35414,9.55005,-0.0269536,-0.10392,-0.0155766,0
2024-12-13 15:41:42.145,0.0933201,3.38046,9.44716,-0.0116825,-0.115526,-0.0204634,0
2024-12-13 15:41:42.147,0.129212,3.42832,9.35624,0.00542127,-0.1253,-0.0265719,0
2024-12-13 15:41:42.149,0.167498,3.46899,9.26292,0.0188599,-0.135684,-0.0320695,0
2024-12-13 15:41:42.152,0.210568,3.49532,9.15733,0.0316877,-0.143625,-0.0387888,0
2024-12-13 15:41:42.155,0.224925,3.54078,9.05923,0.0530674,-0.157064,-0.0528383,0
2024-12-13 15:41:42.156,0.248854,3.59342,8.95873,0.0530674,-0.157064,-0.0528383,0
2024-12-13 15:41:42.159,0.275175,3.6341,8.86541,0.0579541,-0.163783,-0.0583359,0
2024-12-13 15:41:42.161,0.304188,3.67029,8.7673,0.0616192,-0.168059,-0.0656661,0
2024-12-13 15:41:42.164,0.320937,3.71815,8.6665,0.0616192,-0.169892,-0.0723854,0
2024-12-13 15:41:42.166,0.308973,3.77079,8.5684,0.0603975,-0.169281,-0.0760505,0
2024-12-13 15:41:42.168,0.30658,3.80907,8.48944,0.0536782,-0.171724,-0.0803264,0
2024-12-13 15:41:42.171,0.34008,3.84736,8.42722,0.0457372,-0.17539,-0.0864349,0
2024-12-13 15:41:42.173,0.402293,3.87607,8.34587,0.0335202,-0.178444,-0.0894891,0
2024-12-13 15:41:42.175,0.457328,3.89522,8.25972,0.0188599,-0.184552,-0.0919325,0
2024-12-13 15:41:42.178,0.488435,3.91914,8.19751,-0.0019089,-0.191882,-0.0992627,0
2024-12-13 15:41:42.180,0.50997,3.96222,8.14248,-0.0190126,-0.199213,-0.106593,0
2024-12-13 15:41:42.182,0.517149,4.01007,8.09671,-0.0385597,-0.207154,-0.110258,0
2024-12-13 15:41:42.185,0.512363,4.034,8.09911,-0.0605502,-0.217538,-0.115756,0
2024-12-13 15:41:42.189,0.524327,4.03161,8.09911,-0.108196,-0.234031,-0.123086,0
2024-12-13 15:41:42.189,0.538684,4.02921,8.09911,-0.108196,-0.234031,-0.123086,0
2024-12-13 15:41:42.192,0.531506,4.02204,8.12303,-0.130798,-0.242583,-0.123697,0
2024-12-13 15:41:42.197,0.555434,3.99093,8.18794,-0.176611,-0.262741,-0.131027,0
2024-12-13 15:41:42.197,0.555434,3.99093,8.18794,-0.176611,-0.262741,-0.131027,0
2024-12-13 15:41:42.199,0.591326,3.96461,8.2358,-0.196769,-0.270682,-0.130416,0
2024-12-13 15:41:42.201,0.617647,3.91197,8.29562,-0.218149,-0.279234,-0.132859,0
2024-12-13 15:41:42.204,0.629611,3.8665,8.36022,-0.237696,-0.285953,-0.134692,0
2024-12-13 15:41:42.206,0.646361,3.81625,8.42962,-0.256021,-0.293283,-0.137135,0
2024-12-13 15:41:42.208,0.689432,3.77318,8.49661,-0.268849,-0.296337,-0.137746,0
2024-12-13 15:41:42.211,0.703789,3.74925,8.54447,-0.282899,-0.295726,-0.1408,0
2024-12-13 15:41:42.213,0.699003,3.73968,8.6019,-0.296337,-0.293894,-0.141411,0
2024-12-13 15:41:42.215,0.715753,3.71575,8.7027,-0.308554,-0.293894,-0.142022,0
2024-12-13 15:41:42.218,0.725324,3.65833,8.79362,-0.318328,-0.295116,-0.1408,0
2024-12-13 15:41:42.220,0.715753,3.60539,8.88455,-0.328101,-0.293894,-0.1408,0
2024-12-13 15:41:42.222,0.710967,3.57428,8.98026,-0.332377,-0.289007,-0.140189,0
2024-12-13 15:41:42.225,0.684646,3.52164,9.0353,-0.335431,-0.280455,-0.137746,0
2024-12-13 15:41:42.227,0.663111,3.49771,9.15015,-0.336653,-0.26213,-0.132248,0
2024-12-13 15:41:42.229,0.691825,3.46421,9.37538,-0.333599,-0.250524,-0.12614,0
2024-12-13 15:41:42.232,0.718146,3.39721,9.69362,-0.321993,-0.248691,-0.120642,0
2024-12-13 15:41:42.234,0.722932,3.32543,9.90928,-0.301835,-0.249302,-0.114534,0
2024-12-13 15:41:42.237,0.739681,3.24646,9.97628,-0.284731,-0.241361,-0.105982,0
2024-12-13 15:41:42.239,0.768395,3.17946,10.072,-0.262741,-0.221814,-0.0998735,0
2024-12-13 15:41:42.241,0.821037,3.13161,10.1916,-0.236474,-0.199213,-0.0968193,0
2024-12-13 15:41:42.244,0.890728,3.10529,10.3065,-0.21204,-0.171724,-0.0882674,0
2024-12-13 15:41:42.246,0.952942,3.10529,10.4073,-0.185163,-0.137517,-0.0846023,0
2024-12-13 15:41:42.248,0.991227,3.10289,10.4934,-0.155232,-0.101477,-0.0833807,0
2024-12-13 15:41:42.251,1.00558,3.12682,10.5389,-0.127743,-0.0642153,-0.082159,0
2024-12-13 15:41:42.253,0.991227,3.18186,10.5724,-0.0990336,-0.021456,-0.082159,0
2024-12-13 15:41:42.255,0.96012,3.23928,10.5867,-0.0678804,0.0164165,-0.082159,0
2024-12-13 15:41:42.258,0.933799,3.33021,10.5365,-0.037338,0.0530674,-0.0833807,0
2024-12-13 15:41:42.260,0.902692,3.42832,10.4647,-0.0110716,0.086664,-0.0870457,0
2024-12-13 15:41:42.262,0.873978,3.51207,10.3953,0.0151948,0.117817,-0.0943759,0
2024-12-13 15:41:42.265,0.857229,3.61017,10.2969,0.0390179,0.143473,-0.101706,0
2024-12-13 15:41:42.267,0.84018,3.69661,10.1653,0.0646735,0.165463,-0.11209,0
2024-12-13 15:41:42.270,0.816252,3.78993,10.0146,0.0860531,0.1844,-0.123697,0
2024-12-13 15:41:42.272,0.792323,3.9,9.86621,0.101935,0.199671,-0.136524,0
2024-12-13 15:41:42.274,0.766002,3.99093,9.7008,0.115985,0.214942,-0.149963,0
2024-12-13 15:41:42.277,0.73011,4.09143,9.57159,0.128812,0.225326,-0.164012,0
2024-12-13 15:41:42.279,0.670289,4.21137,9.47109,0.140419,0.235711,-0.17684,0
2024-12-13 15:41:42.288,0.471685,4.59661,8.92762,0.152635,0.243041,-0.229984,0
2024-12-13 15:41:42.288,0.471685,4.59661,8.92762,0.152635,0.243041,-0.229984,0
2024-12-13 15:41:42.288,0.471685,4.59661,8.92762,0.152635,0.243041,-0.229984,0
2024-12-13 15:41:42.291,0.41665,4.69233,8.83191,0.14897,0.234489,-0.237925,0
2024-12-13 15:41:42.291,0.41665,4.69233,8.83191,0.14897,0.234489,-0.237925,0
2024-12-13 15:41:42.293,0.364008,4.77398,8.76491,0.142862,0.222272,-0.247088,0
2024-12-13 15:41:42.295,0.301795,4.86491,8.7003,0.132477,0.211277,-0.25564,0
2024-12-13 15:41:42.298,0.236889,4.95583,8.64497,0.118428,0.195395,-0.26297,0
2024-12-13 15:41:42.300,0.181855,5.03958,8.57797,0.104379,0.181345,-0.264802,0
2024-12-13 15:41:42.305,0.378365,5.05394,8.52772,0.0701711,0.152025,-0.278852,0
2024-12-13 15:41:42.305,0.378365,5.05394,8.52772,0.0701711,0.152025,-0.278852,0
2024-12-13 15:41:42.307,0.715753,4.89123,8.64258,0.0701711,0.152025,-0.278852,0
2024-12-13 15:41:42.310,0.687039,4.9008,8.6689,0.038407,0.106211,-0.314281,0
2024-12-13 15:41:42.312,0.325723,5.13051,8.51336,0.0200816,0.0994917,-0.325887,0
2024-12-13 15:41:42.314,0.189033,5.29801,8.44636,-0.000687203,0.106822,-0.330774,0
2024-12-13 15:41:42.317,0.392722,5.29322,8.58036,-0.0208452,0.109265,-0.336882,0
2024-12-13 15:41:42.319,0.474078,5.34377,8.69283,-0.0410031,0.100713,-0.347267,0
2024-12-13 15:41:42.321,0.325723,5.49452,8.66172,-0.0617719,0.104379,-0.355819,0
2024-12-13 15:41:42.324,0.253639,5.59023,8.67608,-0.0831516,0.117206,-0.35704,0
2024-12-13 15:41:42.326,0.258425,5.65005,8.76491,-0.105142,0.124536,-0.361927,0
2024-12-13 15:41:42.328,0.165105,5.72423,8.81755,-0.127743,0.131867,-0.36437,0
2024-12-13 15:41:42.331,0.00957129,5.81276,8.82234,-0.152177,0.141029,-0.359484,0
2024-12-13 15:41:42.333,-0.0909273,5.87258,8.87976,-0.179665,0.154468,-0.350321,0
2024-12-13 15:41:42.335,-0.157926,5.89203,8.98026,-0.204099,0.166074,-0.338104,0
2024-12-13 15:41:42.338,-0.289831,5.91596,9.05444,-0.230366,0.177069,-0.323444,0
2024-12-13 15:41:42.340,-0.476471,5.9686,9.0999,-0.258465,0.190508,-0.300842,0
2024-12-13 15:41:42.345,-0.651147,5.90878,9.2363,-0.317106,0.226548,-0.244644,0
2024-12-13 15:41:42.345,-0.651147,5.90878,9.2363,-0.317106,0.226548,-0.244644,0
2024-12-13 15:41:42.347,-0.679861,5.81037,9.39691,-0.343983,0.241208,-0.215935,0
2024-12-13 15:41:42.350,-0.691825,5.67637,9.55245,-0.37025,0.254647,-0.18356,0
2024-12-13 15:41:42.354,-0.646361,5.34616,9.88774,-0.411787,0.280913,-0.12614,0
2024-12-13 15:41:42.354,-0.646361,5.34616,9.88774,-0.411787,0.280913,-0.12614,0
2024-12-13 15:41:42.357,-0.699003,5.22144,10.0433,-0.427059,0.296795,-0.0968193,0
2024-12-13 15:41:42.359,-0.703789,5.13051,10.2203,-0.441108,0.313899,-0.0681095,0
2024-12-13 15:41:42.361,-0.665504,5.04676,10.424,-0.452103,0.332835,-0.0436756,0
2024-12-13 15:41:42.364,-0.694218,4.97976,10.6011,-0.460044,0.353604,-0.0149658,0
2024-12-13 15:41:42.366,-0.777966,4.94626,10.716,-0.463099,0.376816,0.0149658,0
2024-12-13 15:41:42.368,-0.821037,4.91516,10.8332,-0.462488,0.403694,0.0442864,0
2024-12-13 15:41:42.371,-0.847657,4.88166,11.013,-0.459433,0.429349,0.0705529,0
2024-12-13 15:41:42.373,-0.862014,4.84337,11.1948,-0.452103,0.447064,0.0986518,0
2024-12-13 15:41:42.378,-0.909871,4.71147,11.4485,-0.423394,0.475163,0.149429,0
2024-12-13 15:41:42.378,-0.902692,4.71147,11.4485,-0.423394,0.475163,0.149429,0
2024-12-13 15:41:42.383,-0.885943,4.59422,11.5875,-0.379413,0.49471,0.189134,0
2024-12-13 15:41:42.383,-0.885943,4.59422,11.5875,-0.379413,0.49471,0.189134,0
2024-12-13 15:41:42.385,-0.936192,4.60379,11.688,-0.350092,0.503873,0.206237,0
2024-12-13 15:41:42.390,-1.04387,4.67558,11.7694,-0.270682,0.50204,0.243499,0
2024-12-13 15:41:42.390,-1.04387,4.67558,11.7694,-0.270682,0.50204,0.243499,0
2024-12-13 15:41:42.392,-1.08215,4.70429,11.7024,-0.226701,0.499597,0.260603,0
2024-12-13 15:41:42.394,-1.09651,4.71625,11.6521,-0.183331,0.497764,0.28015,0
2024-12-13 15:41:42.397,-1.12522,4.733,11.5612,-0.136906,0.492877,0.29481,0
2024-12-13 15:41:42.399,-1.1348,4.74497,11.4556,-0.0947577,0.48066,0.311303,0
2024-12-13 15:41:42.401,-1.11087,4.75932,11.3432,-0.0465007,0.466,0.325353,0
2024-12-13 15:41:42.404,-1.05344,4.7689,11.1924,-0.00129805,0.446453,0.335126,0
2024-12-13 15:41:42.406,-0.981655,4.7665,11.068,0.0420721,0.418965,0.34551,0
2024-12-13 15:41:42.408,-0.907478,4.76172,10.9193,0.0872748,0.387201,0.350397,0
2024-12-13 15:41:42.411,-0.833001,4.75693,10.6968,0.130645,0.354215,0.353451,0
2024-12-13 15:41:42.413,-0.768395,4.7689,10.436,0.172183,0.323062,0.35223,0
2024-12-13 15:41:42.416,-0.715753,4.77398,10.2275,0.210055,0.293741,0.350397,0
2024-12-13 15:41:42.418,-0.675075,4.75454,10.0528,0.250371,0.257701,0.347343,0
2024-12-13 15:41:42.420,-0.643968,4.73061,9.85903,0.292519,0.221661,0.342456,0
2024-12-13 15:41:42.423,-0.598505,4.70668,9.64098,0.32917,0.180124,0.334515,0
2024-12-13 15:41:42.425,-0.550648,4.69711,9.35863,0.360324,0.144694,0.326574,0
2024-12-13 15:41:42.427,-0.488435,4.68515,9.0999,0.392164,0.11232,0.317412,0
2024-12-13 15:41:42.430,-0.414257,4.65404,8.86541,0.419652,0.0817772,0.305195,0
2024-12-13 15:41:42.432,-0.335294,4.63011,8.57797,0.441032,0.0518457,0.292367,0
2024-12-13 15:41:42.434,-0.256032,4.59661,8.33869,0.460579,0.0255792,0.278317,0
2024-12-13 15:41:42.437,-0.184247,4.57747,8.17358,0.476461,-0.00496313,0.263657,0
2024-12-13 15:41:42.439,-0.124427,4.60379,7.93879,0.492954,-0.0367272,0.247164,0
2024-12-13 15:41:42.441,-0.0789631,4.62533,7.66601,0.505782,-0.0672696,0.228839,0
2024-12-13 15:41:42.444,-0.0430708,4.64208,7.40967,0.513112,-0.0917034,0.2154,0
2024-12-13 15:41:42.446,-0.0167498,4.6684,7.17518,0.514333,-0.117359,0.201961,0
2024-12-13 15:41:42.449,0.102891,4.68275,6.98824,0.510668,-0.141793,0.184247,0
2024-12-13 15:41:42.451,0.605683,4.71625,7.16561,0.505171,-0.181498,0.162867,0
2024-12-13 15:41:42.453,0.780359,4.74497,7.06272,0.508225,-0.246248,0.13599,0
2024-12-13 15:41:42.456,0.517149,4.78355,6.51207,0.491732,-0.274958,0.114534,0
2024-12-13 15:41:42.458,0.272782,4.8338,6.19831,0.47585,-0.287785,0.098041,0
2024-12-13 15:41:42.460,-0.0526421,4.86251,5.92792,0.455081,-0.285342,0.0937651,0
2024-12-13 15:41:42.463,-0.282652,4.85773,5.71705,0.431869,-0.281677,0.0943759,0
2024-12-13 15:41:42.465,-0.512363,4.8003,5.54238,0.406213,-0.273736,0.0986518,0
2024-12-13 15:41:42.467,-0.632004,4.71147,5.3342,0.373228,-0.259686,0.107815,0
2024-12-13 15:41:42.470,-0.488435,4.58465,5.35334,0.338333,-0.248691,0.115145,0
2024-12-13 15:41:42.472,-0.205783,4.43869,5.5352,0.303515,-0.259686,0.11881,0
2024-12-13 15:41:42.474,0.0143569,4.34776,5.60937,0.270529,-0.273736,0.117588,0
2024-12-13 15:41:42.481,0.270389,4.31187,5.54716,0.162409,-0.230366,0.107815,0
2024-12-13 15:41:42.481,0.270389,4.31187,5.54716,0.162409,-0.230366,0.107815,0
2024-12-13 15:41:42.481,0.270389,4.31187,5.54716,0.162409,-0.230366,0.107815,0
2024-12-13 15:41:42.484,0.270389,4.35972,5.64287,0.124536,-0.20471,0.105982,0
2024-12-13 15:41:42.486,0.241675,4.41715,5.73619,0.0872748,-0.171114,0.102317,0
2024-12-13 15:41:42.489,0.215354,4.47219,5.82951,0.0500131,-0.138128,0.101706,0
2024-12-13 15:41:42.491,0.193819,4.54636,5.92553,0.0170274,-0.108196,0.101095,0
2024-12-13 15:41:42.496,0.114855,4.6684,6.10738,-0.0465007,-0.0581068,0.098041,0
2024-12-13 15:41:42.496,0.114855,4.6684,6.10738,-0.0465007,-0.0581068,0.098041,0
2024-12-13 15:41:42.498,0.0598206,4.70668,6.19352,-0.0782648,-0.0348946,0.098041,0
2024-12-13 15:41:42.500,0.0119641,4.72822,6.28924,-0.107585,-0.0165692,0.0998735,0
2024-12-13 15:41:42.503,-0.0430708,4.72343,6.40888,-0.133852,-0.00129805,0.102317,0
2024-12-13 15:41:42.505,-0.102891,4.69472,6.50489,-0.165005,0.0121406,0.104149,0
2024-12-13 15:41:42.507,-0.122034,4.64208,6.59821,-0.19005,0.0286335,0.11148,0
2024-12-13 15:41:42.510,-0.12682,4.59183,6.72503,-0.216316,0.0432938,0.117588,0
2024-12-13 15:41:42.512,-0.143569,4.54397,6.86142,-0.237085,0.0567324,0.124307,0
2024-12-13 15:41:42.514,-0.138784,4.49611,6.99781,-0.2548,0.0720036,0.129805,0
2024-12-13 15:41:42.517,-0.124427,4.46261,7.12732,-0.2548,0.0720036,0.129805,0
2024-12-13 15:41:42.519,-0.11007,4.44826,7.25653,-0.290229,0.0964375,0.143931,0
2024-12-13 15:41:42.522,-0.0933201,4.44586,7.40967,-0.304278,0.101324,0.15065,0
2024-12-13 15:41:42.524,-0.0837488,4.42911,7.58465,-0.313441,0.101935,0.155537,0
2024-12-13 15:41:42.526,-0.0717847,4.42911,7.74975,-0.321382,0.0970484,0.161035,0
2024-12-13 15:41:42.529,-0.0717847,4.43869,7.89332,-0.32688,0.0915507,0.165311,0
2024-12-13 15:41:42.531,-0.0693919,4.43629,8.04886,-0.329323,0.0860531,0.167754,0
2024-12-13 15:41:42.533,-0.0622134,4.41236,8.2023,-0.330545,0.0762796,0.167754,0
2024-12-13 15:41:42.536,-0.0622134,4.38604,8.3363,-0.329934,0.0671168,0.170808,0
2024-12-13 15:41:42.538,-0.0526421,4.3669,8.44876,-0.32749,0.0579541,0.17203,0
2024-12-13 15:41:42.540,-0.0478565,4.36212,8.54208,-0.321993,0.0500131,0.173252,0
2024-12-13 15:41:42.543,-0.0311067,4.34058,8.64258,-0.318328,0.0445155,0.173862,0
2024-12-13 15:41:42.545,-0.0119641,4.29751,8.74337,-0.31283,0.0377962,0.172641,0
2024-12-13 15:41:42.547,-0.00957129,4.2664,8.8008,-0.31283,0.0377962,0.172641,0
2024-12-13 15:41:42.550,-0.0143569,4.22094,8.86541,-0.299392,0.0231358,0.173252,0
2024-12-13 15:41:42.555,-0.0358923,4.15364,8.98505,-0.284731,0.0139731,0.170808,0
2024-12-13 15:41:42.555,-0.0358923,4.15364,8.98505,-0.284731,0.0139731,0.170808,0
2024-12-13 15:41:42.557,-0.0454636,4.11536,9.04726,-0.277401,0.0121406,0.170197,0
2024-12-13 15:41:42.559,-0.066999,4.0675,9.08076,-0.270682,0.0115297,0.170197,0
2024-12-13 15:41:42.562,-0.081356,4.03879,9.07358,-0.264573,0.0170274,0.172641,0
2024-12-13 15:41:42.564,-0.100499,4.00768,9.09033,-0.259686,0.0237467,0.171419,0
2024-12-13 15:41:42.566,-0.131605,3.97179,9.13101,-0.254189,0.0261901,0.174473,0
2024-12-13 15:41:42.569,-0.155533,3.93829,9.17887,-0.246248,0.0347419,0.175084,0
2024-12-13 15:41:42.571,-0.172283,3.9,9.22194,-0.241361,0.0390179,0.177527,0
2024-12-13 15:41:42.573,-0.181855,3.86172,9.26292,-0.235253,0.0451263,0.179971,0
2024-12-13 15:41:42.576,-0.189033,3.81386,9.3012,-0.228533,0.0518457,0.181803,0
2024-12-13 15:41:42.578,-0.191426,3.76361,9.33949,-0.221814,0.0536782,0.184247,0
2024-12-13 15:41:42.580,-0.177069,3.72533,9.4017,-0.21204,0.0567324,0.184247,0
2024-12-13 15:41:42.583,-0.167498,3.68226,9.4687,-0.202878,0.0622301,0.189744,0
2024-12-13 15:41:42.585,-0.174676,3.62692,9.52134,-0.193715,0.0707819,0.192188,0
2024-12-13 15:41:42.587,-0.184247,3.5671,9.58355,-0.179665,0.0787229,0.19402,0
2024-12-13 15:41:42.590,-0.200997,3.51446,9.65534,-0.163783,0.0891073,0.197685,0
2024-12-13 15:41:42.592,-0.200997,3.46899,9.71277,-0.147291,0.0994917,0.20074,0
2024-12-13 15:41:42.595,-0.181855,3.42592,9.76302,-0.127133,0.111098,0.20807,0
2024-12-13 15:41:42.597,-0.160319,3.37567,9.83749,-0.108196,0.123926,0.211124,0
2024-12-13 15:41:42.599,-0.155533,3.31585,9.94038,-0.0819299,0.134921,0.218454,0
2024-12-13 15:41:42.602,-0.145962,3.26082,10.0481,-0.0544418,0.142251,0.223952,0
2024-12-13 15:41:42.604,-0.100499,3.22493,10.1438,-0.0208452,0.146527,0.228839,0
2024-12-13 15:41:42.606,-0.0502493,3.15793,10.0863,0.014584,0.156301,0.231282,0
2024-12-13 15:41:42.609,-0.0119641,3.09332,10.0217,0.0445155,0.171572,0.233725,0
2024-12-13 15:41:42.616,0.0382852,3.06909,10.0624,0.156301,0.200892,0.238612,0
2024-12-13 15:41:42.616,0.0382852,3.06909,10.0624,0.156301,0.200892,0.238612,0
2024-12-13 15:41:42.616,0.0382852,3.06909,10.0624,0.156301,0.200892,0.238612,0
2024-12-13 15:41:42.618,0.0382852,3.05474,9.98824,0.193562,0.213109,0.239223,0
2024-12-13 15:41:42.620,0.066999,3.03559,9.89253,0.2351,0.219218,0.239223,0
2024-12-13 15:41:42.623,0.0885344,3.04038,9.78934,0.272972,0.225937,0.239223,0
2024-12-13 15:41:42.625,0.0957129,3.04756,9.64337,0.312677,0.229602,0.23678,0
2024-12-13 15:41:42.628,0.105284,3.04038,9.45195,0.348107,0.234489,0.235558,0
2024-12-13 15:41:42.630,0.114855,3.02602,9.26531,0.380558,0.24243,0.234947,0
2024-12-13 15:41:42.632,0.12682,3.05234,9.12623,0.414765,0.246706,0.231282,0
2024-12-13 15:41:42.635,0.145962,3.07388,8.94676,0.44714,0.247317,0.23006,0
2024-12-13 15:41:42.637,0.189033,3.04517,8.69761,0.477072,0.254036,0.228839,0
2024-12-13 15:41:42.639,0.234497,3.04038,8.52772,0.503338,0.257701,0.226395,0
2024-12-13 15:41:42.642,0.267996,3.04995,8.38894,0.530826,0.250982,0.219676,0
2024-12-13 15:41:42.644,0.297009,3.05952,8.2023,0.557093,0.24243,0.216011,0
2024-12-13 15:41:42.646,0.335294,3.07149,7.96989,0.581527,0.233267,0.211124,0
2024-12-13 15:41:42.649,0.373579,3.07867,7.72343,0.602906,0.227159,0.200129,0
2024-12-13 15:41:42.651,0.41665,3.05234,7.49582,0.62001,0.219218,0.191577,0
2024-12-13 15:41:42.653,0.45015,3.03799,7.30678,0.632838,0.211888,0.182414,0
2024-12-13 15:41:42.656,0.462114,3.0667,7.14886,0.648109,0.202725,0.175084,0
2024-12-13 15:41:42.658,0.469292,3.09811,6.97867,0.657272,0.19173,0.1647,0
2024-12-13 15:41:42.660,0.483649,3.11964,6.79681,0.666434,0.180124,0.15798,0
2024-12-13 15:41:42.663,0.502792,3.14357,6.63889,0.672543,0.166685,0.148207,0
2024-12-13 15:41:42.665,0.524327,3.17946,6.50489,0.679262,0.155079,0.139044,0
2024-12-13 15:41:42.668,0.538684,3.19861,6.35863,0.682316,0.139197,0.131638,0
2024-12-13 15:41:42.670,0.553041,3.20818,6.21984,0.681706,0.12698,0.123697,0
2024-12-13 15:41:42.672,0.569791,3.25125,6.10499,0.681095,0.115374,0.115756,0
2024-12-13 15:41:42.675,0.586541,3.29671,5.9997,0.681706,0.102546,0.106593,0
2024-12-13 15:41:42.677,0.596112,3.31107,5.90638,0.680484,0.0891073,0.0998735,0
2024-12-13 15:41:42.679,0.612862,3.32064,5.81276,0.67743,0.0799446,0.0949868,0
2024-12-13 15:41:42.682,0.65354,3.33978,5.71227,0.671932,0.0695602,0.0901,0
2024-12-13 15:41:42.684,0.677468,3.35892,5.61655,0.667656,0.0628409,0.0833807,0
2024-12-13 15:41:42.686,0.699003,3.3685,5.54955,0.66338,0.0536782,0.0766613,0
2024-12-13 15:41:42.689,0.718146,3.37807,5.4993,0.654217,0.0432938,0.0723854,0
2024-12-13 15:41:42.691,0.727717,3.39003,5.45384,0.647498,0.0347419,0.069942,0
2024-12-13 15:41:42.693,0.74686,3.40439,5.41316,0.640168,0.0237467,0.0662769,0
2024-12-13 15:41:42.696,0.758824,3.42832,5.37727,0.632227,0.0151948,0.0632227,0
2024-12-13 15:41:42.698,0.756431,3.46421,5.34377,0.623064,0.00419957,0.0650552,0
2024-12-13 15:41:42.701,0.734896,3.49053,5.32911,0.615734,-0.00496313,0.062001,0
2024-12-13 15:41:42.703,0.701396,3.50489,5.36052,0.607182,-0.0147367,0.0656661,0
2024-12-13 15:41:42.705,0.672682,3.51685,5.42034,0.599852,-0.0263428,0.0681095,0
2024-12-13 15:41:42.708,0.667897,3.54078,5.45863,0.590689,-0.0355055,0.0723854,0
2024-12-13 15:41:42.710,0.660718,3.59342,5.51127,0.587635,-0.0446682,0.0791047,0
2024-12-13 15:41:42.712,0.646361,3.62692,5.58545,0.585802,-0.0526092,0.0882674,0
2024-12-13 15:41:42.715,0.646361,3.62931,5.62373,0.58397,-0.057496,0.0943759,0
2024-12-13 15:41:42.717,0.665504,3.63889,5.66202,0.581527,-0.0617719,0.10476,0
2024-12-13 15:41:42.719,0.684646,3.64367,5.70269,0.577251,-0.0623828,0.114534,0
2024-12-13 15:41:42.722,0.687039,3.63889,5.74816,0.574807,-0.0629936,0.124307,0
2024-12-13 15:41:42.724,0.696611,3.64128,5.8008,0.573586,-0.0599394,0.13599,0
2024-12-13 15:41:42.726,0.710967,3.65593,5.84866,0.571753,-0.0544418,0.148818,0
2024-12-13 15:41:42.729,0.722932,3.66311,5.89921,0.571142,-0.0477224,0.160424,0
2024-12-13 15:41:42.731,0.739681,3.66311,5.93031,0.571753,-0.0379489,0.172641,0
2024-12-13 15:41:42.734,0.756431,3.67029,5.95903,0.56992,-0.0300079,0.186079,0
2024-12-13 15:41:42.736,0.768395,3.67268,5.9662,0.56931,-0.0171801,0.197075,0
2024-12-13 15:41:42.738,0.794716,3.65833,5.96381,0.568088,-0.000687203,0.210513,0
2024-12-13 15:41:42.741,0.825823,3.64606,5.98295,0.568088,0.014584,0.224563,0
2024-12-13 15:41:42.743,0.852443,3.65833,5.99731,0.56259,0.0341311,0.234947,0
2024-12-13 15:41:42.745,0.888335,3.66311,5.97817,0.560758,0.0548999,0.245332,0
2024-12-13 15:41:42.748,0.926621,3.67268,5.94706,0.556482,0.0775012,0.256327,0
2024-12-13 15:41:42.750,0.940978,3.69183,5.91596,0.549763,0.102546,0.267322,0
2024-12-13 15:41:42.752,0.929013,3.70379,5.92313,0.541211,0.125758,0.274041,0
2024-12-13 15:41:42.755,0.876371,3.74208,6.08106,0.535102,0.14836,0.283204,0
2024-12-13 15:41:42.759,0.768395,3.78036,6.36102,0.555871,0.159966,0.305805,0
2024-12-13 15:41:42.759,0.768395,3.78036,6.36102,0.555871,0.159966,0.305805,0
2024-12-13 15:41:42.762,0.749253,3.78515,6.34666,0.565034,0.17035,0.317412,0
2024-12-13 15:41:42.764,0.761217,3.78036,6.41366,0.574196,0.182567,0.324742,0
2024-12-13 15:41:42.766,0.804287,3.78036,6.45703,0.586413,0.190508,0.332072,0
2024-12-13 15:41:42.769,0.857229,3.78275,6.469,0.596187,0.200892,0.338791,0
2024-12-13 15:41:42.771,0.912264,3.78993,6.48335,0.606571,0.211888,0.342456,0
2024-12-13 15:41:42.774,0.967299,3.81386,6.5001,0.613901,0.224105,0.343067,0
2024-12-13 15:41:42.776,1.00558,3.85215,6.54557,0.623064,0.234489,0.340624,0
2024-12-13 15:41:42.778,1.05344,3.91436,6.5671,0.629784,0.244263,0.33818,0
2024-12-13 15:41:42.781,1.11326,4.02204,6.44238,0.633449,0.260145,0.332683,0
2024-12-13 15:41:42.783,1.18026,4.16082,6.36341,0.625508,0.282135,0.324742,0
2024-12-13 15:41:42.785,1.24726,4.31665,6.46421,0.617567,0.296185,0.31619,0
2024-12-13 15:41:42.788,1.31186,4.49133,6.50728,0.614512,0.305958,0.303973,0
2024-12-13 15:41:42.790,1.39322,4.67558,6.46182,0.608404,0.313288,0.290534,0
2024-12-13 15:41:42.792,1.52513,4.86012,6.17438,0.597409,0.327949,0.272209,0
2024-12-13 15:41:42.795,1.64237,5.05155,5.97578,0.566255,0.355437,0.248997,0
2024-12-13 15:41:42.797,1.72134,5.25015,6.10499,0.538767,0.366432,0.223952,0
2024-12-13 15:41:42.799,1.74287,5.44906,6.20549,0.516777,0.362767,0.20074,0
2024-12-13 15:41:42.804,1.71416,5.85344,6.41127,0.472185,0.324284,0.153704,0
2024-12-13 15:41:42.804,1.71416,5.85344,6.41127,0.472185,0.324284,0.153704,0
2024-12-13 15:41:42.807,1.71894,6.0667,6.42563,0.447751,0.296795,0.131638,0
2024-12-13 15:41:42.809,1.74048,6.31077,6.34427,0.412322,0.274805,0.0992627,0
2024-12-13 15:41:42.811,1.68066,6.536,6.43041,0.364599,0.250371,0.0681095,0
2024-12-13 15:41:42.814,1.53948,6.71546,6.73221,0.32184,0.208833,0.0400105,0
2024-12-13 15:41:42.816,1.39801,6.8351,6.97388,0.277248,0.159355,0.0125224,0
2024-12-13 15:41:42.818,1.30229,6.91885,7.07707,0.230213,0.109876,-0.0143549,0
2024-12-13 15:41:42.821,1.2329,6.96431,7.24218,0.168517,0.0695602,-0.0448973,0
2024-12-13 15:41:42.823,1.14197,6.97627,7.50299,0.100713,0.0286335,-0.0748288,0
2024-12-13 15:41:42.825,1.00558,6.97149,7.75933,0.0298552,-0.0202343,-0.102317,0
2024-12-13 15:41:42.828,0.84018,6.97388,7.99621,-0.0458899,-0.0660479,-0.134081,0
2024-12-13 15:41:42.830,0.665504,7.01486,8.17837,-0.134463,-0.100866,-0.160958,0
2024-12-13 15:41:42.832,0.447757,7.03879,8.45354,-0.237085,-0.130187,-0.18417,0
2024-12-13 15:41:42.835,0.236889,7.03161,8.82473,-0.340929,-0.157675,-0.206772,0
2024-12-13 15:41:42.837,0.0550349,7.02682,9.18126,-0.453936,-0.184552,-0.225097,0
2024-12-13 15:41:42.839,-0.133998,7.034,9.5022,-0.575494,-0.20471,-0.240979,0
2024-12-13 15:41:42.842,-0.361615,7.034,9.8686,-0.70927,-0.210208,-0.25564,0
2024-12-13 15:41:42.844,-0.646361,6.95713,10.3065,-0.849765,-0.21143,-0.264191,0
2024-12-13 15:41:42.847,-0.94337,6.83031,10.8332,-0.990871,-0.209597,-0.265413,0
2024-12-13 15:41:42.849,-1.22094,6.70589,11.3767,-1.1332,-0.197991,-0.26297,0
2024-12-13 15:41:42.851,-1.47248,6.5671,11.9489,-1.27491,-0.17539,-0.251974,0
2024-12-13 15:41:42.854,-1.67827,6.38016,12.5545,-1.41113,-0.151566,-0.235482,0
2024-12-13 15:41:42.856,-1.9008,6.20309,13.165,-1.54674,-0.11797,-0.213491,0
2024-12-13 15:41:42.858,-2.29591,6.14806,13.7037,-1.67502,-0.0666587,-0.180505,0
2024-12-13 15:41:42.861,-2.70299,6.07149,14.3145,-1.79169,0.00175619,-0.135303,0
2024-12-13 15:41:42.863,-2.91117,5.84866,15.1403,-1.89431,0.0579541,-0.0833807,0
2024-12-13 15:41:42.865,-2.98535,5.58545,15.9374,-1.98105,0.0982701,-0.0265719,0
2024-12-13 15:41:42.868,-2.99013,5.29083,16.6941,-2.04947,0.133699,0.0314586,0
2024-12-13 15:41:42.870,-2.91356,4.97737,17.4051,-2.10017,0.164242,0.0894891,0
2024-12-13 15:41:42.872,-2.76042,4.66361,18.0634,-2.13315,0.194173,0.142709,0
2024-12-13 15:41:42.875,-2.63121,4.35254,18.6739,-2.14537,0.218607,0.197075,0
2024-12-13 15:41:42.877,-2.49212,4.03639,19.2293,-2.14537,0.218607,0.197075,0
2024-12-13 15:41:42.880,-2.27438,3.72054,19.7991,-2.11055,0.264421,0.291756,0
2024-12-13 15:41:42.882,-2.0351,3.42114,20.3593,-2.0623,0.282135,0.330239,0
2024-12-13 15:41:42.884,-1.79312,3.14357,20.8526,-1.99144,0.291298,0.362003,0
2024-12-13 15:41:42.887,-1.52034,2.87288,21.2644,-1.89798,0.295574,0.384605,0
2024-12-13 15:41:42.889,-1.17787,2.64078,21.5994,-1.78619,0.293741,0.398654,0
2024-12-13 15:41:42.891,-0.835394,2.5017,21.7457,-1.65914,0.294352,0.401098,0
2024-12-13 15:41:42.894,-0.687039,2.42991,21.9491,-1.51498,0.297406,0.396822,0
2024-12-13 15:41:42.896,-0.541077,2.39163,22.3083,-1.3586,0.290076,0.38827,2
2024-12-13 15:41:42.898,-0.375972,2.37248,22.471,-1.18756,0.279081,0.369334,0
2024-12-13 15:41:42.901,-0.354437,2.35813,22.4471,-1.0037,0.279081,0.342456,0
2024-12-13 15:41:42.903,-0.325723,2.35813,22.404,-0.811892,0.287022,0.31619,0
2024-12-13 15:41:42.905,-0.318545,2.34856,22.3083,-0.60848,0.294963,0.283815,0
2024-12-13 15:41:42.908,-0.337687,2.32223,22.0759,-0.397738,0.30718,0.245942,0
2024-12-13 15:41:42.910,-0.3999,2.33659,21.7481,-0.189439,0.322451,0.206848,0
2024-12-13 15:41:42.913,-0.548256,2.42034,21.3218,0.0206925,0.337111,0.169586,0
2024-12-13 15:41:42.915,-0.732503,2.57139,20.8071,0.229602,0.353604,0.13347,0
2024-12-13 15:41:42.917,-0.905085,2.75803,20.2205,0.229602,0.353604,0.13347,0
2024-12-13 15:41:42.921,-1.04626,2.93031,19.5862,0.798377,0.385979,0.0406213,0
2024-12-13 15:41:42.922,-1.1659,3.09811,18.9278,0.798377,0.385979,0.0406213,0
2024-12-13 15:41:42.924,-1.26401,3.25364,18.2094,0.96575,0.382314,0.0137441,0
2024-12-13 15:41:42.927,-1.31426,3.37328,17.4434,1.11602,0.370708,-0.0113007,0
2024-12-13 15:41:42.929,-1.33819,3.48574,16.6032,1.24796,0.354826,-0.0363454,0
2024-12-13 15:41:42.931,-1.3669,3.61496,15.7627,1.35852,0.341998,-0.0589468,0
2024-12-13 15:41:42.934,-1.38126,3.75165,15.0015,1.45076,0.324284,-0.0784939,0
2024-12-13 15:41:42.936,-1.37169,3.89522,14.252,1.5259,0.303515,-0.0986518,0
2024-12-13 15:41:42.938,-1.34776,4.03639,13.529,1.58698,0.284578,-0.115756,0
2024-12-13 15:41:42.941,-1.2999,4.20628,12.7917,1.63279,0.270529,-0.135914,0
2024-12-13 15:41:42.943,-1.23529,4.41236,12.0664,1.65784,0.258312,-0.15485,0
2024-12-13 15:41:42.945,-1.17308,4.59183,11.4054,1.66883,0.249149,-0.17684,0
2024-12-13 15:41:42.948,-1.05823,4.74257,10.7997,1.67006,0.235711,-0.19822,0
2024-12-13 15:41:42.950,-0.929013,4.86251,10.2227,1.6554,0.223494,-0.220821,0
2024-12-13 15:41:42.953,-0.837787,4.96301,9.65773,1.63218,0.20639,-0.24892,0
2024-12-13 15:41:42.955,-0.785145,5.11615,9.14058,1.59675,0.189897,-0.273965,0
2024-12-13 15:41:42.957,-0.751645,5.30519,8.6689,1.554,0.176459,-0.299621,0
2024-12-13 15:41:42.960,-0.696611,5.45384,8.1999,1.50024,0.159355,-0.32772,0
2024-12-13 15:41:42.962,-0.655932,5.62852,7.6995,1.4416,0.142862,-0.355208,0
2024-12-13 15:41:42.964,-0.593719,5.76491,7.24936,1.36891,0.12698,-0.379642,0
2024-12-13 15:41:42.967,-0.498006,5.83191,6.85903,1.28889,0.106211,-0.408962,0
2024-12-13 15:41:42.969,-0.524327,5.91356,6.45464,1.20093,0.0848314,-0.43645,0
2024-12-13 15:41:42.971,-0.682254,6.0021,6.04995,1.10502,0.0658951,-0.45783,0
2024-12-13 15:41:42.974,-0.835394,6.04756,5.69791,1.00118,0.0542891,-0.476766,0
2024-12-13 15:41:42.976,-0.99362,6.10259,5.39402,0.892448,0.042683,-0.488983,0
2024-12-13 15:41:42.979,-1.11326,6.19592,5.12333,0.774554,0.030466,-0.495092,0
2024-12-13 15:41:42.981,-1.12522,6.20549,4.91755,0.649942,0.0188599,-0.496313,0
2024-12-13 15:41:42.983,-1.18983,6.18874,4.733,0.517388,0.000534491,-0.496313,0
2024-12-13 15:41:42.986,-1.39322,6.2342,4.51526,0.380558,-0.0165692,-0.490816,0
2024-12-13 15:41:42.988,-1.53709,6.25574,4.37887,0.236932,-0.029397,-0.477988,0
2024-12-13 15:41:42.990,-1.5347,6.17438,4.40279,0.0909399,-0.0483333,-0.462717,0
2024-12-13 15:41:42.995,-1.48205,5.9997,4.66122,-0.193715,-0.110029,-0.434007,0
2024-12-13 15:41:42.995,-1.39801,5.77687,4.66122,-0.193715,-0.110029,-0.434007,0
2024-12-13 15:41:42.997,-1.30229,5.5328,4.84816,-0.333599,-0.138739,-0.42179,0
2024-12-13 15:41:43.000,-1.21376,5.27647,5.08265,-0.464931,-0.165616,-0.411406,0
2024-12-13 15:41:43.002,-1.13001,5.01805,5.35574,-0.588933,-0.188828,-0.402243,0
2024-12-13 15:41:43.004,-1.05823,4.78834,5.6692,-0.701329,-0.205321,-0.396134,0
2024-12-13 15:41:43.007,-1.01037,4.57986,6.0021,-0.802119,-0.214484,-0.391248,0
2024-12-13 15:41:43.009,-0.969691,4.38604,6.33948,-0.892524,-0.217538,-0.386972,0
2024-12-13 15:41:43.011,-0.938585,4.2353,6.66999,-0.96888,-0.213873,-0.383918,0
2024-12-13 15:41:43.014,-0.931406,4.11296,7.00738,-1.03241,-0.205321,-0.382696,0
2024-12-13 15:41:43.016,-0.94337,4.00768,7.34985,-1.08311,-0.189439,-0.377809,0
2024-12-13 15:41:43.018,-0.969691,3.92154,7.67797,-1.12342,-0.170503,-0.37109,0
2024-12-13 15:41:43.021,-1.02951,3.85693,8.01297,-1.14358,-0.144847,-0.368035,0
2024-12-13 15:41:43.023,-1.0989,3.79472,8.34347,-1.15641,-0.119192,-0.358262,0
2024-12-13 15:41:43.026,-1.16112,3.71575,8.6354,-1.15702,-0.0929251,-0.346656,0
2024-12-13 15:41:43.028,-1.21854,3.61974,8.91566,-1.14603,-0.0691021,-0.334439,0
2024-12-13 15:41:43.030,-1.25444,3.53599,9.19562,-1.12342,-0.0483333,-0.320389,0
2024-12-13 15:41:43.033,-1.27597,3.45942,9.43281,-1.0941,-0.0312296,-0.307562,0
2024-12-13 15:41:43.035,-1.27358,3.3685,9.65055,-1.05501,-0.0190126,-0.29168,0
2024-12-13 15:41:43.037,-1.24008,3.27996,9.84706,-1.00736,-0.0129041,-0.27763,0
2024-12-13 15:41:43.040,-1.20419,3.20339,9.98345,-0.951776,-0.0122933,-0.26297,0
2024-12-13 15:41:43.042,-1.15394,3.12921,10.0983,-0.888859,-0.0110716,-0.249531,0
2024-12-13 15:41:43.044,-1.1013,3.04995,10.1868,-0.822277,-0.0165692,-0.24159,0
2024-12-13 15:41:43.047,-1.05344,2.97099,10.2251,-0.753251,-0.0220669,-0.230595,0
2024-12-13 15:41:43.049,-0.984048,2.88963,10.218,-0.678117,-0.0269536,-0.224486,0
2024-12-13 15:41:43.051,-0.905085,2.81545,10.1892,-0.604815,-0.0324513,-0.218989,0
2024-12-13 15:41:43.054,-0.833001,2.76281,10.1533,-0.525405,-0.0355055,-0.216545,0
2024-12-13 15:41:43.056,-0.768395,2.71256,10.0959,-0.447217,-0.0403923,-0.215935,0
2024-12-13 15:41:43.059,-0.718146,2.64556,10.0074,-0.370861,-0.0483333,-0.217767,0
2024-12-13 15:41:43.061,-0.689432,2.59053,9.88056,-0.294505,-0.0562743,-0.221432,0
2024-12-13 15:41:43.063,-0.667897,2.56182,9.70798,-0.220592,-0.0623828,-0.224486,0
2024-12-13 15:41:43.066,-0.639183,2.54028,9.51895,-0.152177,-0.0697129,-0.22693,0
2024-12-13 15:41:43.070,-0.608076,2.50409,9.07119,-0.0238994,-0.0843733,-0.238536,0
2024-12-13 15:41:43.070,-0.608076,2.50409,9.07119,-0.0238994,-0.0843733,-0.238536,0
2024-12-13 15:41:43.073,-0.615255,2.48973,8.82473,0.0329094,-0.0923143,-0.245255,0
2024-12-13 15:41:43.075,-0.62004,2.4682,8.5684,0.0836097,-0.0996445,-0.250142,0
2024-12-13 15:41:43.077,-0.605683,2.45145,8.29322,0.129423,-0.108196,-0.253807,0
2024-12-13 15:41:43.080,-0.612862,2.4323,8.00579,0.167907,-0.114305,-0.260526,0
2024-12-13 15:41:43.082,-0.624826,2.39641,7.7354,0.198449,-0.122246,-0.267246,0
2024-12-13 15:41:43.084,-0.617647,2.3677,7.49342,0.224715,-0.13263,-0.270911,0
2024-12-13 15:41:43.089,-0.63679,2.31745,7.05314,0.267475,-0.156453,-0.282517,0
2024-12-13 15:41:43.089,-0.63679,2.31745,7.05314,0.267475,-0.156453,-0.282517,0
2024-12-13 15:41:43.092,-0.639183,2.30309,6.87578,0.279692,-0.172335,-0.285571,0
2024-12-13 15:41:43.094,-0.629611,2.27199,6.69631,0.29313,-0.185163,-0.291069,0
2024-12-13 15:41:43.096,-0.605683,2.24566,6.51446,0.301682,-0.199823,-0.295345,0
2024-12-13 15:41:43.099,-0.576969,2.21216,6.34188,0.307791,-0.215705,-0.299621,0
2024-12-13 15:41:43.101,-0.548256,2.18584,6.24138,0.31451,-0.23342,-0.303897,0
2024-12-13 15:41:43.103,-0.517149,2.15474,6.1337,0.322451,-0.251745,-0.310005,0
2024-12-13 15:41:43.106,-0.4669,2.11884,5.99013,0.332225,-0.271293,-0.316113,0
2024-12-13 15:41:43.108,-0.407079,2.08535,5.85105,0.338333,-0.287175,-0.322833,0
2024-12-13 15:41:43.110,-0.368794,2.04706,5.69552,0.342609,-0.300613,-0.330774,0
2024-12-13 15:41:43.113,-0.35683,2.03749,5.56391,0.349939,-0.309776,-0.339326,0
2024-12-13 15:41:43.115,-0.332901,2.03988,5.48016,0.354215,-0.321993,-0.344823,0
2024-12-13 15:41:43.117,-0.308973,2.03749,5.39163,0.36521,-0.333599,-0.351543,0
2024-12-13 15:41:43.120,-0.275175,2.02313,5.26451,0.37506,-0.343983,-0.358873,0
2024-12-13 15:41:43.122,-0.234497,2.00877,5.12573,0.379947,-0.353146,-0.368035,0
2024-12-13 15:41:43.124,-0.200997,1.9992,5.04437,0.384223,-0.361087,-0.376587,0
2024-12-13 15:41:43.127,-0.160319,1.98245,5.03958,0.397662,-0.373304,-0.385139,0
2024-12-13 15:41:43.129,-0.124427,1.95105,4.98694,0.409879,-0.389186,-0.393691,0
2024-12-13 15:41:43.132,-0.0957129,1.92712,4.86969,0.423317,-0.400792,-0.403465,0
2024-12-13 15:41:43.134,-0.0622134,1.93669,4.75454,0.434312,-0.406901,-0.41446,0
2024-12-13 15:41:43.136,-0.0167498,1.94387,4.67318,0.44714,-0.410566,-0.422401,0
2024-12-13 15:41:43.139,0.040678,1.93191,4.61576,0.458746,-0.416063,-0.432785,0
2024-12-13 15:41:43.141,0.0765703,1.92473,4.52483,0.472796,-0.418507,-0.443781,0
2024-12-13 15:41:43.143,0.102891,1.91037,4.36929,0.48318,-0.417285,-0.455997,0
2024-12-13 15:41:43.146,0.119641,1.91994,4.38126,0.489289,-0.416063,-0.465771,0
2024-12-13 15:41:43.148,0.114855,1.94387,4.42672,0.507614,-0.427669,-0.474934,0
2024-12-13 15:41:43.150,0.0933201,1.94626,4.2999,0.524718,-0.434389,-0.483486,0
2024-12-13 15:41:43.153,0.100499,1.95344,4.20389,0.538156,-0.437443,-0.491427,0
2024-12-13 15:41:43.155,0.136391,1.94626,4.13211,0.547319,-0.440497,-0.498757,0
2024-12-13 15:41:43.157,0.160319,1.94865,4.04836,0.556482,-0.443551,-0.504865,0
2024-12-13 15:41:43.160,0.18664,1.95105,3.96939,0.563812,-0.447217,-0.507919,0
2024-12-13 15:41:43.162,0.227318,1.94387,3.88086,0.572975,-0.450271,-0.512806,0
2024-12-13 15:41:43.165,0.287438,1.95105,3.78036,0.57664,-0.450271,-0.520136,0
2024-12-13 15:41:43.167,0.332901,1.97288,3.70618,0.576029,-0.445995,-0.525634,0
2024-12-13 15:41:43.169,0.342473,2.00399,3.67508,0.572364,-0.441108,-0.529299,0
2024-12-13 15:41:43.172,0.308973,2.07099,3.84736,0.572364,-0.44233,-0.532353,0
2024-12-13 15:41:43.174,0.277567,2.13081,3.97179,0.584581,-0.444773,-0.531132,0
2024-12-13 15:41:43.179,0.311366,2.24806,3.92393,0.589468,-0.422783,-0.52991,0
2024-12-13 15:41:43.179,0.311366,2.24806,3.92393,0.589468,-0.422783,-0.52991,0
2024-12-13 15:41:43.181,0.311366,2.28395,3.97179,0.589468,-0.40629,-0.530521,0
2024-12-13 15:41:43.183,0.316152,2.30548,4.01246,0.587024,-0.390408,-0.526856,0
2024-12-13 15:41:43.186,0.349651,2.35813,4.01964,0.578472,-0.367806,-0.525023,0
2024-12-13 15:41:43.188,0.390329,2.41795,4.02443,0.56992,-0.345205,-0.525023,0
2024-12-13 15:41:43.190,0.409472,2.48016,4.03161,0.558314,-0.315884,-0.521358,0
2024-12-13 15:41:43.193,0.414257,2.56421,4.02682,0.539989,-0.287785,-0.518304,0
2024-12-13 15:41:43.195,0.390329,2.66231,4.01007,0.517998,-0.255411,-0.517082,0
2024-12-13 15:41:43.197,0.361615,2.76521,4.00768,0.492954,-0.223036,-0.514639,0
2024-12-13 15:41:43.200,0.354437,2.87049,4.02921,0.465466,-0.195547,-0.511585,0
2024-12-13 15:41:43.202,0.344866,2.97099,4.01486,0.433702,-0.174168,-0.513417,0
2024-12-13 15:41:43.205,0.301795,3.09093,3.97418,0.397051,-0.152788,-0.513417,0
2024-12-13 15:41:43.207,0.246461,3.24885,3.92632,0.357269,-0.128965,-0.512806,0
2024-12-13 15:41:43.212,0.205783,3.50249,3.91436,0.269307,-0.0892601,-0.517082,0
2024-12-13 15:41:43.213,0.205783,3.50249,3.91436,0.22044,-0.0739889,-0.521358,0
2024-12-13 15:41:43.214,0.205783,3.59342,3.94307,0.22044,-0.0739889,-0.521358,0
2024-12-13 15:41:43.216,0.210568,3.69661,3.98614,0.171572,-0.0611611,-0.525023,0
2024-12-13 15:41:43.219,0.215354,3.82104,4.04836,0.11965,-0.0519984,-0.531743,0
2024-12-13 15:41:43.221,0.205783,3.95264,4.10578,0.0646735,-0.0446682,-0.540294,0
2024-12-13 15:41:43.223,0.189033,4.07946,4.15364,0.010308,-0.037338,-0.548846,0
2024-12-13 15:41:43.226,0.136391,4.21855,4.22094,-0.0440574,-0.0330621,-0.556787,0
2024-12-13 15:41:43.228,0.0598206,4.35015,4.29512,-0.102088,-0.0318404,-0.568393,0
2024-12-13 15:41:43.230,-0.0334995,4.46501,4.35254,-0.163173,-0.0342838,-0.579389,0
2024-12-13 15:41:43.233,-0.165105,4.59183,4.42433,-0.226701,-0.0379489,-0.589162,0
2024-12-13 15:41:43.235,-0.316152,4.70429,4.54158,-0.289618,-0.0477224,-0.602601,0
2024-12-13 15:41:43.238,-0.469292,4.78594,4.68993,-0.352535,-0.0636045,-0.614207,0
2024-12-13 15:41:43.240,-0.627219,4.84577,4.85055,-0.412398,-0.0794865,-0.62398,0
2024-12-13 15:41:43.242,-0.794716,4.87209,5.02283,-0.47837,-0.105142,-0.631921,0
2024-12-13 15:41:43.245,-0.962513,4.86491,5.21187,-0.538844,-0.137517,-0.640473,0
2024-12-13 15:41:43.247,-1.10848,4.84816,5.45145,-0.599928,-0.17539,-0.646582,0
2024-12-13 15:41:43.249,-1.24008,4.80987,5.72902,-0.659791,-0.220592,-0.652079,0
2024-12-13 15:41:43.252,-1.34776,4.74736,6.04277,-0.715989,-0.272514,-0.653912,0
2024-12-13 15:41:43.254,-1.45334,4.68754,6.38973,-0.769744,-0.323825,-0.654523,0
2024-12-13 15:41:43.256,-1.55384,4.59183,6.75374,-0.820444,-0.376969,-0.653912,0
2024-12-13 15:41:43.259,-1.62562,4.46501,7.14407,-0.869312,-0.426448,-0.651469,0
2024-12-13 15:41:43.261,-1.6998,4.33101,7.5676,-0.912682,-0.472261,-0.645971,0
2024-12-13 15:41:43.263,-1.79551,4.20628,8.01775,-0.951776,-0.513188,-0.636197,0
2024-12-13 15:41:43.266,-1.88166,4.07946,8.44158,-0.986595,-0.547396,-0.624591,0
2024-12-13 15:41:43.268,-1.94626,3.967,8.87976,-1.01775,-0.571829,-0.610542,0
2024-12-13 15:41:43.271,-1.99681,3.87368,9.37299,-1.04401,-0.588933,-0.593438,0
2024-12-13 15:41:43.273,-2.04467,3.78036,9.85903,-1.06295,-0.60115,-0.572058,0
2024-12-13 15:41:43.275,-2.08295,3.71575,10.328,-1.077,-0.606037,-0.548846,0
2024-12-13 15:41:43.278,-2.10688,3.67268,10.7782,-1.08372,-0.602372,-0.523191,0
2024-12-13 15:41:43.280,-2.14517,3.62214,11.1924,-1.0825,-0.587101,-0.494481,0
2024-12-13 15:41:43.282,-2.17388,3.56231,11.5899,-1.07883,-0.569386,-0.463939,0
2024-12-13 15:41:43.285,-2.14038,3.51207,12.0039,-1.06784,-0.54373,-0.433396,0
2024-12-13 15:41:43.287,-2.04706,3.44985,12.4014,-1.04951,-0.516242,-0.402854,0
2024-12-13 15:41:43.289,-1.92473,3.39242,12.7558,-1.02447,-0.484478,-0.375976,0
2024-12-13 15:41:43.292,-1.79791,3.33978,13.086,-0.989038,-0.44966,-0.34971,0
2024-12-13 15:41:43.294,-1.66391,3.25364,13.3831,-0.949333,-0.412398,-0.32833,0
2024-12-13 15:41:43.296,-1.54427,3.15793,13.6176,-0.901687,-0.373304,-0.310616,0
2024-12-13 15:41:43.299,-1.44138,3.05474,13.8141,-0.846711,-0.33421,-0.294734,0
2024-12-13 15:41:43.301,-1.33579,2.9686,13.9983,-0.786848,-0.293894,-0.281906,0
2024-12-13 15:41:43.303,-1.28315,2.8992,14.1203,-0.786848,-0.293894,-0.281906,0
2024-12-13 15:41:43.306,-1.29751,2.91117,14.1419,-0.639633,-0.20471,-0.267246,0
2024-12-13 15:41:43.308,-1.22333,2.91356,14.1586,-0.561445,-0.155232,-0.261137,0
2024-12-13 15:41:43.311,-1.02233,2.8346,14.1993,-0.474705,-0.107585,-0.258694,0
2024-12-13 15:41:43.313,-0.818644,2.75563,14.2232,-0.387964,-0.0648262,-0.263581,0
2024-12-13 15:41:43.315,-0.634397,2.71496,14.1945,-0.294505,-0.0251211,-0.275187,0
2024-12-13 15:41:43.318,-0.490828,2.72692,14.0749,-0.200434,0.0139731,-0.29229,0
2024-12-13 15:41:43.320,-0.392722,2.77956,13.9026,-0.105753,0.0555107,-0.316724,0
2024-12-13 15:41:43.322,-0.337687,2.88963,13.7133,-0.0116825,0.0982701,-0.346656,0
2024-12-13 15:41:43.325,-0.335294,3.04756,13.5027,0.0799446,0.136753,-0.377198,0
2024-12-13 15:41:43.327,-0.385544,3.26321,13.2706,0.169128,0.175237,-0.408962,0
2024-12-13 15:41:43.329,-0.483649,3.52642,13.0286,0.255869,0.210055,-0.441948,0
2024-12-13 15:41:43.332,-0.65354,3.833,12.7726,0.338944,0.238765,-0.476155,0
2024-12-13 15:41:43.334,-0.878764,4.15843,12.4756,0.415987,0.259534,-0.504254,0
2024-12-13 15:41:43.336,-1.12762,4.5009,12.186,0.488067,0.276637,-0.526245,0
2024-12-13 15:41:43.339,-1.38604,4.86491,11.9058,0.552206,0.2858,-0.546403,0
2024-12-13 15:41:43.341,-1.63998,5.21905,11.6091,0.60535,0.291298,-0.562896,0
2024-12-13 15:41:43.344,-1.87208,5.54477,11.336,0.653607,0.286411,-0.573891,0
2024-12-13 15:41:43.346,-2.05424,5.85344,11.068,0.687814,0.276027,-0.581832,0
2024-12-13 15:41:43.348,-2.20499,6.12652,10.8763,0.714691,0.247928,-0.590995,0
2024-12-13 15:41:43.351,-2.36052,6.35145,10.7279,0.733628,0.203336,-0.594049,0
2024-12-13 15:41:43.354,-2.51605,6.57428,10.5054,0.732406,0.110487,-0.592827,0
2024-12-13 15:41:43.355,-2.67906,6.8016,10.2802,0.732406,0.110487,-0.592827,0
2024-12-13 15:41:43.358,-2.8657,7.02204,10.084,0.716524,0.0652843,-0.589773,0
2024-12-13 15:41:43.360,-3.05474,7.24457,9.90688,0.685981,0.0237467,-0.579389,0
2024-12-13 15:41:43.362,-3.24168,7.4671,9.74866,0.64139,-0.0147367,-0.565339,0
2024-12-13 15:41:43.365,-3.44985,7.65404,9.61705,0.583359,-0.0483333,-0.547625,0
2024-12-13 15:41:43.367,-3.67508,7.8024,9.55484,0.515555,-0.0862058,-0.525634,0
2024-12-13 15:41:43.369,-3.90239,7.934,9.54288,0.433702,-0.122857,-0.493259,0
2024-12-13 15:41:43.372,-4.06511,8.07039,9.61705,0.34322,-0.16134,-0.455387,0
2024-12-13 15:41:43.374,-4.1345,8.19751,9.71755,0.246706,-0.196158,-0.416903,0
2024-12-13 15:41:43.376,-4.16321,8.31476,9.81326,0.138586,-0.224868,-0.373533,0
2024-12-13 15:41:43.379,-4.17996,8.38415,9.99781,0.0231358,-0.248691,-0.323444,0
2024-12-13 15:41:43.381,-4.17039,8.38415,10.2682,-0.0965902,-0.270071,-0.268467,0
2024-12-13 15:41:43.384,-4.10339,8.3339,10.5796,-0.216927,-0.288396,-0.21288,0
2024-12-13 15:41:43.386,-3.97418,8.21665,10.9409,-0.335431,-0.301224,-0.153628,0
2024-12-13 15:41:43.388,-3.82104,8.04646,11.3456,-0.44966,-0.303667,-0.098041,0
2024-12-13 15:41:43.391,-3.65115,7.86461,11.7909,-0.560223,-0.298781,-0.0424539,0
2024-12-13 15:41:43.393,-3.47617,7.67558,12.2674,-0.665289,-0.289007,0.0131332,0
2024-12-13 15:41:43.395,-3.32543,7.50778,12.7558,-0.75997,-0.270682,0.0662769,0
2024-12-13 15:41:43.398,-3.2345,7.38575,13.3711,-0.843046,-0.256021,0.120642,0
2024-12-13 15:41:43.400,-3.15553,7.28046,13.9385,-0.909017,-0.245026,0.175695,0
2024-12-13 15:41:43.402,-3.04517,7.17757,14.3839,-0.967048,-0.229755,0.228228,0
2024-12-13 15:41:43.407,-2.90399,7.03879,14.889,-1.0489,-0.204099,0.331461,0
2024-12-13 15:41:43.409,-2.53789,6.69153,15.8776,-1.07089,-0.199823,0.377275,0
2024-12-13 15:41:43.409,-2.53789,6.69153,15.8776,-1.07089,-0.199823,0.377275,0
2024-12-13 15:41:43.412,-2.33898,6.49292,16.3253,-1.08372,-0.198602,0.418812,0
2024-12-13 15:41:43.414,-2.0997,6.2677,16.8209,-1.08494,-0.201045,0.457296,0
2024-12-13 15:41:43.417,-1.83619,5.9997,17.2878,-1.06906,-0.216927,0.487838,0
2024-12-13 15:41:43.419,-1.6017,5.72662,17.6659,-1.04646,-0.234031,0.511661,0
2024-12-13 15:41:43.421,-1.36451,5.46102,18.0156,-1.01408,-0.251135,0.529986,0
2024-12-13 15:41:43.424,-1.1994,5.26451,18.3509,-0.968269,-0.267017,0.545258,0
2024-12-13 15:41:43.426,-1.18744,5.18315,18.5375,-0.910239,-0.275568,0.555031,0
2024-12-13 15:41:43.428,-1.0654,5.01087,18.6906,-0.848543,-0.272514,0.564194,0
2024-12-13 15:41:43.431,-0.780359,4.73061,18.9254,-0.778907,-0.279844,0.567248,0
2024-12-13 15:41:43.433,-0.536291,4.4674,19.0834,-0.702551,-0.290229,0.562972,0
2024-12-13 15:41:43.435,-0.287438,4.19432,19.2006,-0.618254,-0.299392,0.550144,0
2024-12-13 15:41:43.438,-0.00957129,3.91914,19.27,-0.530292,-0.306722,0.528154,0
2024-12-13 15:41:43.440,0.253639,3.699,19.3202,-0.434389,-0.312219,0.49639,0
2024-12-13 15:41:43.442,0.469292,3.50249,19.3083,-0.329934,-0.316495,0.459739,0
2024-12-13 15:41:43.445,0.658325,3.31346,19.215,-0.22609,-0.310387,0.41698,2
2024-12-13 15:41:43.447,0.833001,3.1675,19.1264,-0.116748,-0.29817,0.369334,0
2024-12-13 15:41:43.450,0.962513,3.06431,19.0235,-0.0019089,-0.281066,0.31619,0
2024-12-13 15:41:43.453,1.02233,3.01406,18.8991,0.236932,-0.232809,0.206237,0
2024-12-13 15:41:43.454,1.04387,3.0021,18.76,0.236932,-0.232809,0.206237,0
2024-12-13 15:41:43.459,0.984048,3.10529,18.4633,0.481348,-0.177222,0.103539,0
2024-12-13 15:41:43.459,0.984048,3.10529,18.4633,0.481348,-0.177222,0.103539,0
2024-12-13 15:41:43.461,0.847657,3.23689,18.2575,0.60535,-0.150345,0.0552817,0
2024-12-13 15:41:43.464,0.677468,3.3996,17.9462,0.726297,-0.116748,0.0174091,0
2024-12-13 15:41:43.466,0.488435,3.58146,17.63,0.842358,-0.0752106,-0.0155766,0
2024-12-13 15:41:43.468,0.304188,3.76122,17.3022,0.952922,-0.0330621,-0.0400105,0
2024-12-13 15:41:43.471,0.122034,3.91914,16.9143,1.0586,0.0096972,-0.0583359,0
2024-12-13 15:41:43.473,-0.0119641,4.01964,16.4976,1.1545,0.0524565,-0.0705529,0
2024-12-13 15:41:43.475,-0.0765703,4.03879,16.0549,1.23697,0.090329,-0.077883,0
2024-12-13 15:41:43.478,-0.129212,4.02921,15.5617,1.31027,0.120261,-0.082159,0
2024-12-13 15:41:43.480,-0.198604,4.04118,14.9991,1.3683,0.149581,-0.0839915,0
2024-12-13 15:41:43.482,-0.272782,4.04596,14.5083,1.41228,0.17768,-0.0803264,0
2024-12-13 15:41:43.485,-0.344866,4.01007,14.0605,1.44893,0.196006,-0.0717745,0
2024-12-13 15:41:43.487,-0.41665,4.0005,13.5338,1.47397,0.217996,-0.0632227,0
2024-12-13 15:41:43.490,-0.488435,4.01964,12.9999,1.48802,0.24243,-0.0516166,0
2024-12-13 15:41:43.492,-0.548256,4.02443,12.5282,1.49474,0.266864,-0.038178,0
2024-12-13 15:41:43.494,-0.591326,4.04596,12.0903,1.4868,0.291298,-0.0247393,0
2024-12-13 15:41:43.497,-0.639183,4.08664,11.6641,1.47642,0.313288,-0.00702474,0
2024-12-13 15:41:43.499,-0.701396,4.13928,11.2834,1.45504,0.33589,0.010079,0
2024-12-13 15:41:43.501,-0.761217,4.1991,10.9313,1.42816,0.358491,0.0308478,0
2024-12-13 15:41:43.504,-0.811466,4.24726,10.6131,1.39701,0.377427,0.0522274,0
2024-12-13 15:41:43.506,-0.862014,4.30469,10.3137,1.35669,0.392698,0.0736071,0
2024-12-13 15:41:43.508,-0.912264,4.35494,10.0361,1.31332,0.404305,0.0955976,0
2024-12-13 15:41:43.513,-0.996012,4.42672,9.51416,1.2162,0.415911,0.141487,0
2024-12-13 15:41:43.513,-0.996012,4.42672,9.51416,1.2162,0.415911,0.141487,0
2024-12-13 15:41:43.515,-1.03908,4.47219,9.28445,1.16244,0.419576,0.167143,0
2024-12-13 15:41:43.518,-1.07498,4.4674,9.04487,1.10686,0.425073,0.191577,0
2024-12-13 15:41:43.520,-1.10369,4.47219,8.88455,1.05066,0.425684,0.216011,0
2024-12-13 15:41:43.523,-1.1348,4.47458,8.71466,0.996903,0.421408,0.239834,0
2024-12-13 15:41:43.525,-1.15394,4.43869,8.47269,0.940094,0.418965,0.264879,0
2024-12-13 15:41:43.527,-1.15155,4.41236,8.29562,0.883285,0.419576,0.290534,0
2024-12-13 15:41:43.530,-1.13719,4.39801,8.19033,0.827698,0.417743,0.313136,0
2024-12-13 15:41:43.532,-1.1324,4.37647,8.06321,0.776387,0.411635,0.33818,0
2024-12-13 15:41:43.534,-1.12762,4.34537,7.91964,0.725076,0.40797,0.360171,0
2024-12-13 15:41:43.537,-1.10369,4.32144,7.82872,0.675597,0.400639,0.379107,0
2024-12-13 15:41:43.539,-1.06301,4.3023,7.73779,0.630394,0.394531,0.399265,0
2024-12-13 15:41:43.541,-1.01515,4.27597,7.62533,0.585192,0.389033,0.41698,0
2024-12-13 15:41:43.544,-0.950549,4.23769,7.56282,0.544876,0.37926,0.434083,0
2024-12-13 15:41:43.546,-0.885943,4.19671,7.49582,0.544876,0.37926,0.434083,0
2024-12-13 15:41:43.548,-0.845265,4.15125,7.38575,0.472185,0.362767,0.462182,0
2024-12-13 15:41:43.551,-0.787538,4.11057,7.3355,0.472185,0.362767,0.462182,0
2024-12-13 15:41:43.555,-0.658325,3.99332,7.26132,0.386666,0.333446,0.490281,0
2024-12-13 15:41:43.555,-0.658325,3.99332,7.26132,0.386666,0.333446,0.490281,0
2024-12-13 15:41:43.558,-0.598505,3.9335,7.20389,0.362156,0.324284,0.49639,0
2024-12-13 15:41:43.560,-0.533899,3.85693,7.13211,0.342609,0.312067,0.500666,0
2024-12-13 15:41:43.563,-0.478864,3.79711,7.07707,0.322451,0.301682,0.506163,0
2024-12-13 15:41:43.565,-0.423829,3.76122,7.03639,0.305347,0.291909,0.508607,0
2024-12-13 15:41:43.567,-0.35683,3.71815,7.00738,0.29313,0.282135,0.509218,0
2024-12-13 15:41:43.570,-0.299402,3.66311,6.95235,0.284578,0.270529,0.512272,0
2024-12-13 15:41:43.572,-0.244068,3.61256,6.89731,0.276637,0.265031,0.509828,0
2024-12-13 15:41:43.574,-0.193819,3.58385,6.88295,0.27114,0.25648,0.507385,0
2024-12-13 15:41:43.577,-0.155533,3.55514,6.85424,0.272972,0.245484,0.506163,0
2024-12-13 15:41:43.579,-0.105284,3.50489,6.77288,0.274805,0.234489,0.50372,0
2024-12-13 15:41:43.581,-0.0646062,3.46421,6.6676,0.279081,0.230213,0.498833,0
2024-12-13 15:41:43.584,-0.0526421,3.43071,6.59582,0.283968,0.226548,0.494557,0
2024-12-13 15:41:43.586,-0.0430708,3.402,6.52164,0.290076,0.221661,0.493336,0
2024-12-13 15:41:43.588,-0.0334995,3.38525,6.40409,0.296185,0.217385,0.490281,0
2024-12-13 15:41:43.591,-0.0119641,3.35653,6.28924,0.305347,0.214942,0.485395,0
2024-12-13 15:41:43.593,0.0191426,3.34457,6.16959,0.313288,0.21372,0.48234,0
2024-12-13 15:41:43.596,0.0550349,3.33739,6.05474,0.319397,0.213109,0.478675,0
2024-12-13 15:41:43.598,0.0717847,3.33739,5.93749,0.327338,0.211277,0.471956,0
2024-12-13 15:41:43.600,0.0789631,3.34457,5.79601,0.332225,0.207001,0.468291,0
2024-12-13 15:41:43.603,0.0933201,3.35414,5.65245,0.338333,0.205168,0.462793,0
2024-12-13 15:41:43.605,0.105284,3.35892,5.52084,0.340776,0.199671,0.460961,0
2024-12-13 15:41:43.610,0.136391,3.37807,5.31715,0.342609,0.181956,0.448133,0
2024-12-13 15:41:43.611,0.136391,3.37807,5.31715,0.340166,0.170961,0.442635,0
2024-12-13 15:41:43.612,0.155533,3.38764,5.17837,0.340166,0.170961,0.442635,0
2024-12-13 15:41:43.614,0.162712,3.39003,5.04676,0.334668,0.160576,0.435305,0
2024-12-13 15:41:43.617,0.162712,3.39482,4.92712,0.331003,0.150803,0.428586,0
2024-12-13 15:41:43.619,0.165105,3.40678,4.82902,0.321229,0.141029,0.423088,0
2024-12-13 15:41:43.621,0.16989,3.40678,4.74257,0.311456,0.131256,0.41759,0
2024-12-13 15:41:43.624,0.167498,3.40439,4.65165,0.29985,0.120261,0.410871,0
2024-12-13 15:41:43.626,0.160319,3.3996,4.57029,0.283968,0.111098,0.407206,0
2024-12-13 15:41:43.629,0.165105,3.39242,4.50808,0.265642,0.100103,0.402319,0
2024-12-13 15:41:43.631,0.16989,3.39003,4.43869,0.246706,0.0927724,0.396822,0
2024-12-13 15:41:43.633,0.184247,3.39482,4.38844,0.225326,0.0909399,0.392546,0
2024-12-13 15:41:43.637,0.215354,3.40678,4.35254,0.180124,0.0872748,0.380329,0
2024-12-13 15:41:43.638,0.239282,3.41635,4.32383,0.180124,0.0872748,0.380329,0
2024-12-13 15:41:43.640,0.258425,3.40917,4.2999,0.152635,0.0878856,0.37422,0
2024-12-13 15:41:43.643,0.285045,3.41157,4.27597,0.125758,0.090329,0.368112,0
2024-12-13 15:41:43.645,0.304188,3.44028,4.25205,0.0921616,0.0927724,0.35956,0
2024-12-13 15:41:43.647,0.297009,3.46182,4.2353,0.0652843,0.0933833,0.352841,0
2024-12-13 15:41:43.650,0.27996,3.46899,4.22572,0.0316877,0.0976592,0.347954,0
2024-12-13 15:41:43.652,0.256032,3.46421,4.22572,-0.00435229,0.0964375,0.338791,0
2024-12-13 15:41:43.654,0.229711,3.45464,4.22812,-0.0367272,0.0976592,0.333294,0
2024-12-13 15:41:43.657,0.184247,3.45224,4.23769,-0.0678804,0.0982701,0.328407,0
2024-12-13 15:41:43.659,0.141177,3.45464,4.2664,-0.101477,0.0994917,0.324131,0
2024-12-13 15:41:43.661,0.129212,3.44507,4.3023,-0.134463,0.100103,0.319855,0
2024-12-13 15:41:43.664,0.124427,3.44267,4.34776,-0.166838,0.0982701,0.318633,0
2024-12-13 15:41:43.666,0.114855,3.46421,4.4004,-0.198602,0.0994917,0.31619,0
2024-12-13 15:41:43.669,0.0981057,3.46899,4.44347,-0.229144,0.0988809,0.313136,0
2024-12-13 15:41:43.671,0.0837488,3.45464,4.48654,-0.257854,0.0988809,0.313136,0
2024-12-13 15:41:43.673,0.0765703,3.44746,4.5679,-0.282899,0.0982701,0.311914,0
2024-12-13 15:41:43.676,0.0789631,3.45464,4.6325,-0.309776,0.094605,0.311303,0
2024-12-13 15:41:43.678,0.100499,3.46899,4.69711,-0.329323,0.0933833,0.307638,0
2024-12-13 15:41:43.680,0.119641,3.47617,4.77159,-0.351314,0.0915507,0.307638,0
2024-12-13 15:41:43.683,0.122034,3.47378,4.83619,-0.371471,0.0854423,0.304584,0
2024-12-13 15:41:43.685,0.136391,3.4666,4.89841,-0.388575,0.0805555,0.302751,0
2024-12-13 15:41:43.687,0.162712,3.4666,4.94626,-0.404457,0.0768904,0.299697,0
2024-12-13 15:41:43.690,0.16989,3.47617,5.00369,-0.419728,0.0726145,0.297864,0
2024-12-13 15:41:43.692,0.16989,3.46182,5.04198,-0.432556,0.0658951,0.296032,0
2024-12-13 15:41:43.694,0.179462,3.44028,5.06351,-0.450271,0.0603975,0.294199,0
2024-12-13 15:41:43.697,0.193819,3.44267,5.11615,-0.461266,0.0536782,0.292978,0
2024-12-13 15:41:43.699,0.210568,3.42592,5.16162,-0.474094,0.046348,0.291756,0
2024-12-13 15:41:43.702,0.222533,3.402,5.19033,-0.489365,0.0396287,0.291145,0
2024-12-13 15:41:43.704,0.227318,3.37567,5.22383,-0.501582,0.0292443,0.292367,0
2024-12-13 15:41:43.706,0.22014,3.35414,5.2334,-0.517464,0.022525,0.293588,0
2024-12-13 15:41:43.709,0.22014,3.3326,5.27169,-0.533346,0.0164165,0.294199,0
2024-12-13 15:41:43.711,0.227318,3.3015,5.34616,-0.551671,0.0096972,0.297254,0
2024-12-13 15:41:43.713,0.22014,3.2656,5.41556,-0.569386,0.00114534,0.300919,0
2024-12-13 15:41:43.716,0.212961,3.22253,5.49213,-0.584046,-0.00557398,0.307638,0
2024-12-13 15:41:43.718,0.200997,3.15793,5.62852,-0.599928,-0.0141258,0.313746,0
2024-12-13 15:41:43.720,0.179462,3.08584,5.79841,-0.612145,-0.0238994,0.322909,0
2024-12-13 15:41:43.723,0.155533,3.03559,5.88933,-0.620697,-0.0300079,0.333294,0
2024-12-13 15:41:43.725,0.131605,2.98535,5.95424,-0.630471,-0.0330621,0.343678,0
2024-12-13 15:41:43.727,0.0957129,2.94227,6.04517,-0.641466,-0.0312296,0.355895,0
2024-12-13 15:41:43.731,0.0454636,2.8992,6.14567,-0.657959,-0.0196235,0.388881,0
2024-12-13 15:41:43.732,0.00478565,2.84895,6.28445,-0.657959,-0.0196235,0.388881,0
2024-12-13 15:41:43.734,-0.0239282,2.78913,6.42563,-0.665289,-0.00862822,0.407817,0
2024-12-13 15:41:43.737,-0.0358923,2.70539,6.59103,-0.670787,0.00297788,0.427975,0
2024-12-13 15:41:43.739,-0.0287139,2.62642,6.75613,-0.670176,0.0158057,0.448744,0
2024-12-13 15:41:43.746,0.00478565,2.40598,7.21825,-0.648796,0.0713928,0.51105,0
2024-12-13 15:41:43.746,0.00478565,2.40598,7.21825,-0.648796,0.0713928,0.51105,0
2024-12-13 15:41:43.746,0.00478565,2.40598,7.21825,-0.648796,0.0713928,0.51105,0
2024-12-13 15:41:43.749,0.0478565,2.32941,7.369,-0.635357,0.0970484,0.531819,0
2024-12-13 15:41:43.751,0.0861416,2.25284,7.5006,-0.613978,0.128812,0.550144,0
2024-12-13 15:41:43.753,0.133998,2.18584,7.64926,-0.590766,0.16302,0.570913,0
2024-12-13 15:41:43.756,0.179462,2.14756,7.78325,-0.560223,0.199671,0.591071,0
2024-12-13 15:41:43.758,0.227318,2.11406,7.8694,-0.526016,0.241208,0.607564,0
2024-12-13 15:41:43.760,0.263211,2.06381,7.94597,-0.491198,0.283357,0.622224,0
2024-12-13 15:41:43.763,0.313759,2.02552,8.02493,-0.448438,0.327338,0.638717,0
2024-12-13 15:41:43.765,0.368794,2.01117,8.06082,-0.403236,0.371319,0.650934,0
2024-12-13 15:41:43.767,0.402293,2.00638,8.06561,-0.356811,0.413467,0.66254,0
2024-12-13 15:41:43.770,0.445364,1.99202,8.068,-0.304889,0.453172,0.672314,0
2024-12-13 15:41:43.772,0.476471,2.00399,8.04646,-0.24808,0.492267,0.682087,0
2024-12-13 15:41:43.775,0.481256,2.01595,8.06321,-0.189439,0.529528,0.693083,0
2024-12-13 15:41:43.777,0.478864,2.01595,8.04407,-0.128354,0.554573,0.699802,0
2024-12-13 15:41:43.779,0.500399,2.0351,7.93161,-0.0648262,0.582061,0.70591,0
2024-12-13 15:41:43.782,0.50997,2.0662,7.8024,-0.00435229,0.605884,0.71263,0
2024-12-13 15:41:43.784,0.505185,2.11406,7.65883,0.0567324,0.626042,0.713851,0
2024-12-13 15:41:43.786,0.514756,2.16431,7.49582,0.11293,0.640092,0.715684,0
2024-12-13 15:41:43.789,0.512363,2.20738,7.27807,0.168517,0.648643,0.718738,0
2024-12-13 15:41:43.791,0.490828,2.26959,7.05554,0.214942,0.652919,0.717516,0
2024-12-13 15:41:43.793,0.462114,2.34138,6.83031,0.259534,0.654141,0.716906,0
2024-12-13 15:41:43.796,0.4334,2.42752,6.60299,0.297406,0.651698,0.71263,0
2024-12-13 15:41:43.798,0.397508,2.53071,6.38256,0.330392,0.640702,0.710186,0
2024-12-13 15:41:43.800,0.344866,2.61924,6.1672,0.354215,0.627875,0.707743,0
2024-12-13 15:41:43.803,0.299402,2.69342,5.99013,0.373228,0.611382,0.704689,0
2024-12-13 15:41:43.805,0.263211,2.76999,5.83191,0.386055,0.586337,0.702856,0
2024-12-13 15:41:43.808,0.239282,2.85613,5.62612,0.395829,0.555184,0.699802,0
2024-12-13 15:41:43.810,0.210568,2.93031,5.37727,0.398883,0.524641,0.696137,0
2024-12-13 15:41:43.812,0.184247,3.01406,5.18794,0.390942,0.49471,0.692472,0
2024-12-13 15:41:43.815,0.181855,3.12682,5.08026,0.38239,0.466,0.687585,0
2024-12-13 15:41:43.817,0.184247,3.23211,5.01566,0.364599,0.428128,0.680255,0
2024-12-13 15:41:43.819,0.174676,3.3015,4.96062,0.346274,0.383536,0.671092,0
2024-12-13 15:41:43.822,0.143569,3.35892,4.9008,0.324284,0.338944,0.66254,0
2024-12-13 15:41:43.824,0.107677,3.402,4.86251,0.297406,0.291298,0.654599,0
2024-12-13 15:41:43.826,0.105284,3.4331,4.87448,0.27114,0.251593,0.645436,0
2024-12-13 15:41:43.829,0.105284,3.45942,4.91276,0.243652,0.203947,0.638106,0
2024-12-13 15:41:43.831,0.081356,3.49053,4.95823,0.211277,0.157522,0.631387,0
2024-12-13 15:41:43.833,0.066999,3.53121,4.99891,0.178902,0.115985,0.621613,0
2024-12-13 15:41:43.836,0.0622134,3.5671,5.01087,0.143473,0.0799446,0.614283,0
2024-12-13 15:41:43.838,0.0502493,3.59342,5.04676,0.104989,0.0524565,0.609397,0
2024-12-13 15:41:43.840,0.0215354,3.62214,5.1329,0.0658951,0.030466,0.60451,0
2024-12-13 15:41:43.843,0.0,3.63889,5.24297,0.0298552,0.00786466,0.602066,0
2024-12-13 15:41:43.845,-0.0287139,3.63649,5.37727,-0.00923906,-0.00801737,0.599623,0
2024-12-13 15:41:43.848,-0.0574277,3.65354,5.54477,-0.0477224,-0.0226777,0.599623,0
2024-12-13 15:41:43.850,-0.0789631,3.66072,5.72662,-0.0819299,-0.0324513,0.600845,0
2024-12-13 15:41:43.852,-0.102891,3.6679,5.91117,-0.119802,-0.0410031,0.603899,0
2024-12-13 15:41:43.855,-0.114855,3.67268,6.09063,-0.151566,-0.0422248,0.610007,0
2024-12-13 15:41:43.857,-0.133998,3.67747,6.28445,-0.18272,-0.041614,0.615505,0
2024-12-13 15:41:43.859,-0.153141,3.68943,6.5025,-0.21143,-0.0385597,0.621613,0
2024-12-13 15:41:43.862,-0.16989,3.68226,6.71546,-0.240139,-0.0300079,0.632609,0
2024-12-13 15:41:43.864,-0.191426,3.69183,6.88535,-0.267627,-0.0190126,0.644826,0
2024-12-13 15:41:43.866,-0.198604,3.69183,7.03879,-0.295116,-0.00435229,0.659486,0
2024-12-13 15:41:43.869,-0.198604,3.66072,7.23021,-0.323825,0.0182491,0.672925,0
2024-12-13 15:41:43.871,-0.181855,3.62931,7.42403,-0.350092,0.0353528,0.688196,0
2024-12-13 15:41:43.873,-0.16989,3.60539,7.63251,-0.375137,0.0542891,0.705299,0
2024-12-13 15:41:43.876,-0.153141,3.58864,7.84547,-0.395905,0.0756687,0.720571,0
2024-12-13 15:41:43.878,-0.102891,3.61017,8.02971,-0.418507,0.0970484,0.732788,0
2024-12-13 15:41:43.881,-0.0287139,3.64606,8.24776,-0.434389,0.119039,0.746226,0
2024-12-13 15:41:43.883,0.0741775,3.67029,8.48465,-0.452103,0.143473,0.755389,0
2024-12-13 15:41:43.885,0.198604,3.74447,8.70748,-0.464931,0.167296,0.762108,0
2024-12-13 15:41:43.888,0.318545,3.85215,8.94437,-0.474094,0.194173,0.766995,0
2024-12-13 15:41:43.890,0.411865,3.99093,9.14537,-0.481424,0.219829,0.765773,0
2024-12-13 15:41:43.892,0.488435,4.13928,9.33709,-0.485089,0.24243,0.766384,0
2024-12-13 15:41:43.895,0.569791,4.25922,9.53809,-0.482646,0.255869,0.760276,0
2024-12-13 15:41:43.897,0.670289,4.39801,9.68884,-0.475926,0.264421,0.750502,0
2024-12-13 15:41:43.899,0.761217,4.5679,9.84946,-0.469207,0.261366,0.738285,0
2024-12-13 15:41:43.902,0.830609,4.74736,10.0433,-0.455768,0.247317,0.723625,0
2024-12-13 15:41:43.904,0.912264,4.92712,10.127,-0.443551,0.224715,0.703467,0
2024-12-13 15:41:43.906,0.972084,5.10898,10.2203,-0.434389,0.200892,0.679033,0
2024-12-13 15:41:43.909,0.962513,5.30758,10.4025,-0.421561,0.164242,0.654599,0
2024-12-13 15:41:43.911,0.912264,5.53041,10.5413,-0.408733,0.118428,0.629554,0
2024-12-13 15:41:43.913,0.835394,5.7338,10.7255,-0.392851,0.0658951,0.605121,0
2024-12-13 15:41:43.916,0.74686,5.89681,10.946,-0.375137,-0.00435229,0.581298,0
2024-12-13 15:41:43.918,0.677468,6.03081,11.0943,-0.358644,-0.0807082,0.559307,0
2024-12-13 15:41:43.921,0.65354,6.14327,11.0919,-0.349481,-0.161951,0.534873,0
2024-12-13 15:41:43.923,0.579362,6.24856,11.1015,-0.354368,-0.236474,0.510439,0
2024-12-13 15:41:43.925,0.342473,6.31795,11.3623,-0.367196,-0.317717,0.48906,0
2024-12-13 15:41:43.928,0.0526421,6.32991,11.7455,-0.374526,-0.409955,0.476843,0
2024-12-13 15:41:43.930,-0.157926,6.32273,12.0015,-0.389186,-0.504025,0.46768,0
2024-12-13 15:41:43.932,-0.282652,6.31795,12.0688,-0.417285,-0.575494,0.464626,0
2024-12-13 15:41:43.935,-0.402293,6.31316,12.3033,-0.463709,-0.62986,0.457906,0
2024-12-13 15:41:43.937,-0.567398,6.3012,12.7056,-0.504636,-0.672619,0.46035,0
2024-12-13 15:41:43.939,-0.703789,6.25334,13.0693,-0.555947,-0.692166,0.468291,0
2024-12-13 15:41:43.942,-0.718146,6.22702,13.3137,-0.6152,-0.692777,0.481119,0
2024-12-13 15:41:43.944,-0.727717,6.23181,13.6008,-0.685447,-0.667122,0.493946,0
2024-12-13 15:41:43.946,-0.825823,6.18634,14.1203,-0.762414,-0.630471,0.512272,0
2024-12-13 15:41:43.949,-0.9003,6.11217,14.6064,-0.836326,-0.587711,0.539149,0
2024-12-13 15:41:43.951,-0.933799,6.02602,15.0063,-0.91146,-0.529681,0.566637,0
2024-12-13 15:41:43.954,-1.06301,6.0691,15.2623,-0.99026,-0.450271,0.599623,0
2024-12-13 15:41:43.956,-1.1683,6.16481,15.5593,-1.07211,-0.344594,0.642993,0
2024-12-13 15:41:43.958,-1.1013,6.10977,16.11,-1.15458,-0.253578,0.684531,0
2024-12-13 15:41:43.961,-0.981655,5.98535,16.6534,-1.22666,-0.179665,0.727901,0
2024-12-13 15:41:43.963,-0.854836,5.80559,17.0818,-1.29141,-0.105142,0.770049,0
2024-12-13 15:41:43.965,-0.694218,5.6022,17.5008,-1.34761,-0.0361163,0.808533,0
2024-12-13 15:41:43.968,-0.500399,5.41795,17.8983,-1.3922,0.0255792,0.839686,0
2024-12-13 15:41:43.970,-0.364008,5.21426,18.2647,-1.42518,0.0793338,0.868396,0
2024-12-13 15:41:43.972,-0.244068,4.99891,18.6284,-1.44473,0.121482,0.894662,0
2024-12-13 15:41:43.976,-0.117248,4.79791,19.0044,-1.44412,0.173404,0.931924,0
2024-12-13 15:41:43.977,-0.00478565,4.6349,19.3732,-1.44412,0.173404,0.931924,0
2024-12-13 15:41:43.979,0.122034,4.50329,19.7369,-1.41907,0.190508,0.945973,0
2024-12-13 15:41:43.982,0.248854,4.40997,20.1081,-1.38242,0.200892,0.951471,0
2024-12-13 15:41:43.984,0.361615,4.33819,20.4598,-1.32928,0.20639,0.957579,0
2024-12-13 15:41:43.987,0.464507,4.2688,20.7568,-1.2572,0.210055,0.954525,0
2024-12-13 15:41:43.989,0.579362,4.18714,21.0033,-1.17718,0.21372,0.946584,0
2024-12-13 15:41:43.991,0.684646,4.12493,21.2022,-1.08311,0.215553,0.934367,0
2024-12-13 15:41:43.994,0.794716,4.09861,21.353,-0.975599,0.221661,0.916653,0
2024-12-13 15:41:43.996,0.933799,4.04596,21.4798,-0.858317,0.233267,0.890997,0
2024-12-13 15:41:43.998,1.08694,4.00529,21.5468,-0.731871,0.244873,0.859233,0
2024-12-13 15:41:44.001,1.18026,4.00768,21.5252,-0.599928,0.263199,0.82136,2
2024-12-13 15:41:44.003,1.19222,4.05793,21.4271,-0.460655,0.292519,0.778601,0
2024-12-13 15:41:44.005,1.14915,4.17757,21.2453,-0.318328,0.326727,0.732177,0
2024-12-13 15:41:44.008,1.05105,4.31665,21.0057,-0.176,0.363989,0.68392,0
2024-12-13 15:41:44.010,0.945763,4.45065,20.7257,-0.0330621,0.400029,0.635052,0
2024-12-13 15:41:44.012,0.835394,4.59422,20.4,0.107433,0.430571,0.585573,0
2024-12-13 15:41:44.015,0.71336,4.70429,20.0315,0.239987,0.456837,0.531208,0
2024-12-13 15:41:44.017,0.591326,4.78116,19.5981,0.362767,0.472109,0.478064,0
2024-12-13 15:41:44.019,0.476471,4.84816,19.0953,0.480126,0.483104,0.424921,0
2024-12-13 15:41:44.022,0.368794,4.88644,18.5686,0.584581,0.484326,0.371166,0
2024-12-13 15:41:44.024,0.301795,4.89841,18.0778,0.67804,0.48005,0.317412,0
2024-12-13 15:41:44.027,0.234497,4.88405,17.5893,0.755618,0.466611,0.264879,0
2024-12-13 15:41:44.029,0.117248,4.85294,17.0387,0.825866,0.457448,0.212346,0
2024-12-13 15:41:44.031,-0.0191426,4.84337,16.4785,0.87962,0.450118,0.162867,0
2024-12-13 15:41:44.034,-0.179462,4.85055,15.9541,0.920547,0.448286,0.119421,0
2024-12-13 15:41:44.036,-0.347258,4.84098,15.4804,0.949257,0.445231,0.0791047,0
2024-12-13 15:41:44.038,-0.500399,4.82184,15.0565,0.966971,0.440955,0.0424539,0
2024-12-13 15:41:44.041,-0.612862,4.80509,14.6566,0.97308,0.436069,0.0106898,0
2024-12-13 15:41:44.043,-0.720539,4.7665,14.2687,0.970025,0.431182,-0.0161875,0
2024-12-13 15:41:44.045,-0.804287,4.72822,13.9098,0.962695,0.427517,-0.0393996,0
2024-12-13 15:41:44.048,-0.830609,4.71147,13.5745,0.942537,0.42263,-0.0601685,0
2024-12-13 15:41:44.050,-0.864407,4.71386,13.2203,0.918714,0.419576,-0.0784939,0
2024-12-13 15:41:44.052,-0.919442,4.75215,12.8468,0.889394,0.422019,-0.0907108,0
2024-12-13 15:41:44.055,-0.929013,4.76411,12.5545,0.855186,0.418965,-0.0998735,0
2024-12-13 15:41:44.057,-0.881157,4.74257,12.3392,0.818535,0.404305,-0.110869,0
2024-12-13 15:41:44.060,-0.852443,4.72582,12.1143,0.780052,0.384757,-0.120642,0
2024-12-13 15:41:44.062,-0.852443,4.6995,11.8819,0.74279,0.360324,-0.127972,0
2024-12-13 15:41:44.064,-0.857229,4.68275,11.6521,0.708583,0.337722,-0.131027,0
2024-12-13 15:41:44.067,-0.862014,4.69472,11.4341,0.673154,0.316953,-0.134692,0
2024-12-13 15:41:44.069,-0.873978,4.70907,11.2499,0.643222,0.293741,-0.137135,0
2024-12-13 15:41:44.071,-0.888335,4.69711,11.0704,0.61268,0.267475,-0.138968,0
2024-12-13 15:41:44.074,-0.890728,4.69233,10.8835,0.587635,0.24243,-0.135914,0
2024-12-13 15:41:44.076,-0.885943,4.71386,10.692,0.565034,0.216164,-0.135303,0
2024-12-13 15:41:44.078,-0.888335,4.73061,10.5389,0.545487,0.188675,-0.134692,0
2024-12-13 15:41:44.081,-0.905085,4.72343,10.4145,0.52655,0.156301,-0.132248,0
2024-12-13 15:41:44.083,-0.895514,4.70907,10.2443,0.511279,0.124536,-0.132859,0
2024-12-13 15:41:44.085,-0.864407,4.70907,10.0863,0.497841,0.0921616,-0.131027,0
2024-12-13 15:41:44.088,-0.847657,4.6995,9.93081,0.493565,0.0555107,-0.131027,0
2024-12-13 15:41:44.090,-0.830609,4.666,9.72952,0.487456,0.0206925,-0.129805,0
2024-12-13 15:41:44.092,-0.813859,4.6325,9.54048,0.482569,-0.0141258,-0.129805,0
2024-12-13 15:41:44.095,-0.80668,4.58943,9.34188,0.477072,-0.0446682,-0.131027,0
2024-12-13 15:41:44.097,-0.804287,4.52722,9.09512,0.474628,-0.0715455,-0.129805,0
2024-12-13 15:41:44.100,-0.780359,4.52243,8.96112,0.467909,-0.0978119,-0.131638,0
2024-12-13 15:41:44.102,-0.756431,4.57029,8.86541,0.469742,-0.135074,-0.129194,0
2024-12-13 15:41:44.104,-0.754038,4.56072,8.65215,0.470352,-0.168059,-0.129194,0
2024-12-13 15:41:44.107,-0.739681,4.52961,8.44876,0.469742,-0.195547,-0.129194,0
2024-12-13 15:41:44.109,-0.703789,4.50568,8.25733,0.465466,-0.223036,-0.129805,0
2024-12-13 15:41:44.111,-0.648754,4.48415,8.03211,0.458746,-0.241361,-0.130416,0
2024-12-13 15:41:44.114,-0.581755,4.46261,7.83829,0.450805,-0.258465,-0.131638,0
2024-12-13 15:41:44.116,-0.50997,4.45065,7.66361,0.437367,-0.271293,-0.13347,0
2024-12-13 15:41:44.118,-0.447757,4.48415,7.67797,0.429426,-0.286564,-0.135303,0
2024-12-13 15:41:44.121,-0.397508,4.47458,7.67079,0.430036,-0.310387,-0.137746,0
2024-12-13 15:41:44.123,-0.330509,4.42672,7.44317,0.424539,-0.321993,-0.140189,0
2024-12-13 15:41:44.125,-0.263211,4.39322,7.29003,0.415376,-0.337264,-0.146298,0
2024-12-13 15:41:44.128,-0.215354,4.32144,7.12254,0.406213,-0.347648,-0.151185,0
2024-12-13 15:41:44.130,-0.165105,4.24008,6.93799,0.392164,-0.353757,-0.152406,0
2024-12-13 15:41:44.133,-0.102891,4.17757,6.80878,0.380558,-0.358033,-0.157904,0
2024-12-13 15:41:44.135,-0.0478565,4.09861,6.62931,0.364599,-0.360476,-0.16218,0
2024-12-13 15:41:44.137,0.00957129,4.02921,6.42802,0.341387,-0.3562,-0.165845,0
2024-12-13 15:41:44.140,0.0717847,3.97418,6.33948,0.319397,-0.351314,-0.167067,0
2024-12-13 15:41:44.142,0.122034,3.92632,6.27966,0.297406,-0.345205,-0.168288,0
2024-12-13 15:41:44.144,0.18664,3.88325,6.17677,0.274805,-0.336042,-0.16951,0
2024-12-13 15:41:44.147,0.270389,3.85454,6.21267,0.251593,-0.321382,-0.16951,0
2024-12-13 15:41:44.149,0.337687,3.82822,6.2677,0.237543,-0.316495,-0.168899,0
2024-12-13 15:41:44.151,0.392722,3.78754,6.21745,0.22777,-0.307943,-0.171953,0
2024-12-13 15:41:44.154,0.435793,3.75643,6.2007,0.216774,-0.294505,-0.175008,0
2024-12-13 15:41:44.156,0.454935,3.72533,6.2342,0.212498,-0.278012,-0.175619,0
2024-12-13 15:41:44.158,0.464507,3.67029,6.21506,0.207001,-0.262741,-0.176229,0
2024-12-13 15:41:44.161,0.464507,3.61496,6.14327,0.199671,-0.243194,-0.175008,0
2024-12-13 15:41:44.163,0.452543,3.56231,6.11695,0.196616,-0.216316,-0.172564,0
2024-12-13 15:41:44.166,0.421436,3.51446,6.08345,0.193562,-0.191882,-0.165234,0
2024-12-13 15:41:44.168,0.390329,3.49532,5.99492,0.188675,-0.163783,-0.158515,0
2024-12-13 15:41:44.170,0.364008,3.48335,5.92313,0.180734,-0.128965,-0.152406,0
2024-12-13 15:41:44.177,0.349651,3.44267,6.09542,0.167907,-0.0355055,-0.124307,0
2024-12-13 15:41:44.177,0.349651,3.44267,6.09542,0.167907,-0.0355055,-0.124307,0
2024-12-13 15:41:44.180,0.347258,3.40439,6.12174,0.174015,-0.0141258,-0.115756,0
2024-12-13 15:41:44.180,0.347258,3.40439,6.12174,0.174015,-0.0141258,-0.115756,0
2024-12-13 15:41:44.182,0.35683,3.36132,6.08824,0.180124,0.0096972,-0.108425,0
2024-12-13 15:41:44.184,0.371187,3.32782,6.07627,0.182567,0.0310769,-0.104149,0
2024-12-13 15:41:44.187,0.342473,3.2991,6.06192,0.18501,0.0518457,-0.0998735,0
2024-12-13 15:41:44.189,0.294616,3.27278,6.04038,0.192341,0.0707819,-0.0925434,0
2024-12-13 15:41:44.191,0.246461,3.25603,6.02363,0.193562,0.090329,-0.085824,0
2024-12-13 15:41:44.194,0.198604,3.27518,5.99253,0.194173,0.11232,-0.077883,0
2024-12-13 15:41:44.196,0.136391,3.27757,5.92792,0.189286,0.133088,-0.0711637,0
2024-12-13 15:41:44.198,0.0909273,3.26321,5.87019,0.183178,0.156911,-0.0626118,0
2024-12-13 15:41:44.201,0.0693919,3.27518,5.81755,0.17035,0.176459,-0.0552817,0
2024-12-13 15:41:44.203,0.0430708,3.27996,5.73859,0.158744,0.194784,-0.0503949,0
2024-12-13 15:41:44.206,0.00957129,3.28235,5.78405,0.144694,0.213109,-0.0448973,0
2024-12-13 15:41:44.208,-0.0239282,3.28953,5.9016,0.137975,0.217385,-0.0424539,0
2024-12-13 15:41:44.210,-0.0717847,3.28475,5.86541,0.133088,0.217996,-0.0430647,0
2024-12-13 15:41:44.213,-0.124427,3.27039,5.81037,0.127591,0.223494,-0.041843,0
2024-12-13 15:41:44.215,-0.184247,3.24885,5.80559,0.116595,0.225937,-0.0400105,0
2024-12-13 15:41:44.217,-0.248854,3.22971,5.79362,0.104379,0.224715,-0.0406213,0
2024-12-13 15:41:44.220,-0.311366,3.201,5.77926,0.0927724,0.222272,-0.0412322,0
2024-12-13 15:41:44.222,-0.378365,3.16511,5.76012,0.082388,0.219218,-0.0387888,0
2024-12-13 15:41:44.224,-0.426222,3.15793,5.77687,0.0671168,0.212498,-0.0351237,0
2024-12-13 15:41:44.227,-0.452543,3.14596,5.8008,0.0500131,0.207612,-0.0314586,0
2024-12-13 15:41:44.229,-0.490828,3.13639,5.81276,0.0353528,0.198449,-0.0284044,0
2024-12-13 15:41:44.231,-0.538684,3.13639,5.84148,0.0213033,0.190508,-0.0265719,0
2024-12-13 15:41:44.234,-0.581755,3.15553,5.90399,0.00603212,0.182567,-0.0222959,0
2024-12-13 15:41:44.236,-0.612862,3.17707,5.9662,-0.00557398,0.173404,-0.0155766,0
2024-12-13 15:41:44.239,-0.622433,3.19382,6.01645,-0.0208452,0.166074,-0.0119115,0
2024-12-13 15:41:44.241,-0.643968,3.21775,6.05235,-0.0318404,0.159966,-0.00763559,0
2024-12-13 15:41:44.243,-0.679861,3.22971,6.08106,-0.0434465,0.154468,-0.00274881,0
2024-12-13 15:41:44.246,-0.722932,3.23211,6.12892,-0.0526092,0.14897,0.00213797,0
2024-12-13 15:41:44.248,-0.773181,3.2345,6.18634,-0.0605502,0.145305,0.00763559,0
2024-12-13 15:41:44.250,-0.797109,3.2345,6.24138,-0.0715455,0.14164,0.0131332,0
2024-12-13 15:41:44.253,-0.80668,3.2345,6.26531,-0.0788757,0.137364,0.0167983,0
2024-12-13 15:41:44.255,-0.847657,3.24885,6.30838,-0.0849841,0.138586,0.0222959,0
2024-12-13 15:41:44.257,-0.905085,3.25603,6.37777,-0.093536,0.13431,0.0290152,0
2024-12-13 15:41:44.260,-0.962513,3.24407,6.43998,-0.0972011,0.131256,0.0363454,0
2024-12-13 15:41:44.262,-1.01276,3.24168,6.49292,-0.100255,0.12698,0.0448973,0
2024-12-13 15:41:44.264,-1.04865,3.22732,6.52642,-0.10331,0.122704,0.0522274,0
2024-12-13 15:41:44.267,-1.08694,3.21536,6.56949,-0.105142,0.11965,0.0601685,0
2024-12-13 15:41:44.269,-1.13001,3.20818,6.62692,-0.106975,0.114763,0.0711637,0
2024-12-13 15:41:44.271,-1.17069,3.19143,6.6676,-0.108196,0.109265,0.0815481,0
2024-12-13 15:41:44.274,-1.2018,3.1675,6.7011,-0.109418,0.103157,0.0919325,0
2024-12-13 15:41:44.276,-1.22333,3.14357,6.72503,-0.11064,0.0982701,0.102317,0
2024-12-13 15:41:44.279,-1.24487,3.12682,6.73939,-0.113694,0.0927724,0.113923,0
2024-12-13 15:41:44.281,-1.26401,3.11246,6.7681,-0.112472,0.0909399,0.123086,0
2024-12-13 15:41:44.283,-1.28794,3.09811,6.78963,-0.112472,0.0891073,0.13347,0
2024-12-13 15:41:44.286,-1.30947,3.09093,6.79203,-0.115526,0.0872748,0.143931,0
2024-12-13 15:41:44.288,-1.31904,3.09093,6.80638,-0.114916,0.0878856,0.153704,0
2024-12-13 15:41:44.290,-1.32383,3.08584,6.79921,-0.114305,0.0884965,0.165921,0
2024-12-13 15:41:44.293,-1.31186,3.06909,6.78963,-0.11797,0.0891073,0.175695,0
2024-12-13 15:41:44.295,-1.30469,3.04277,6.80638,-0.119802,0.0915507,0.183636,0
2024-12-13 15:41:44.297,-1.29033,3.02363,6.81596,-0.122857,0.0897182,0.192799,0
2024-12-13 15:41:44.301,-1.27358,3.00449,6.81117,-0.130798,0.0872748,0.205626,0
2024-12-13 15:41:44.302,-1.25683,2.98774,6.8016,-0.130798,0.0872748,0.205626,0
2024-12-13 15:41:44.304,-1.24726,2.99492,6.81596,-0.135684,0.086664,0.211124,0
2024-12-13 15:41:44.307,-1.25204,2.98774,6.81835,-0.137517,0.0817772,0.214789,0
2024-12-13 15:41:44.309,-1.24726,2.95185,6.82313,-0.141793,0.0756687,0.216622,0
2024-12-13 15:41:44.312,-1.23529,2.92074,6.83988,-0.145458,0.0683385,0.219676,0
2024-12-13 15:41:44.314,-1.22094,2.90638,6.84228,-0.149123,0.0628409,0.22273,0
2024-12-13 15:41:44.316,-1.19462,2.88245,6.8351,-0.152177,0.0573433,0.223952,0
2024-12-13 15:41:44.319,-1.17547,2.85853,6.81117,-0.156453,0.0536782,0.221508,0
2024-12-13 15:41:44.321,-1.1683,2.85853,6.81356,-0.160118,0.0524565,0.221508,0
2024-12-13 15:41:44.323,-1.1324,2.81545,6.87099,-0.163783,0.0457372,0.221508,0
2024-12-13 15:41:44.326,-1.05583,2.75563,6.9356,-0.165616,0.0280226,0.217843,0
2024-12-13 15:41:44.328,-1.01037,2.73888,6.89731,-0.166838,0.0176382,0.210513,0
2024-12-13 15:41:44.330,-1.0008,2.75803,6.80878,-0.166227,0.0176382,0.206848,0
2024-12-13 15:41:44.333,-0.97687,2.79153,6.78963,-0.168059,0.0176382,0.20074,0
2024-12-13 15:41:44.335,-0.936192,2.79871,6.81356,-0.16867,0.0151948,0.194631,0
2024-12-13 15:41:44.337,-0.890728,2.79871,6.82313,-0.169892,0.00603212,0.189134,0
2024-12-13 15:41:44.340,-0.869193,2.81067,6.83271,-0.169281,-0.00435229,0.185468,0
2024-12-13 15:41:44.342,-0.842872,2.81545,6.85424,-0.168059,-0.0141258,0.178138,0
2024-12-13 15:41:44.345,-0.813859,2.81306,6.89013,-0.163173,-0.0263428,0.17203,0
2024-12-13 15:41:44.347,-0.766002,2.79631,6.9356,-0.158286,-0.0397814,0.167143,0
2024-12-13 15:41:44.349,-0.703789,2.77717,6.91167,-0.149123,-0.0507767,0.162867,0
2024-12-13 15:41:44.352,-0.663111,2.78674,6.8662,-0.138739,-0.0568851,0.154926,0
2024-12-13 15:41:44.354,-0.600898,2.79631,6.85185,-0.128965,-0.0611611,0.145763,0
2024-12-13 15:41:44.356,-0.54347,2.79392,6.82313,-0.118581,-0.0697129,0.139655,0
2024-12-13 15:41:44.359,-0.514756,2.81306,6.78006,-0.107585,-0.0764323,0.130416,0
2024-12-13 15:41:44.361,-0.478864,2.85135,6.73939,-0.0947577,-0.0843733,0.119421,0
2024-12-13 15:41:44.363,-0.442971,2.88006,6.70589,-0.0807082,-0.0929251,0.109036,0
2024-12-13 15:41:44.366,-0.431007,2.90399,6.67956,-0.0697129,-0.102699,0.0992627,0
2024-12-13 15:41:44.368,-0.423829,2.92792,6.65085,-0.0562743,-0.114305,0.0913217,0
2024-12-13 15:41:44.371,-0.411865,2.95663,6.61257,-0.0410031,-0.126522,0.0827698,0
2024-12-13 15:41:44.373,-0.404686,2.99492,6.58385,-0.029397,-0.137517,0.0729962,0
2024-12-13 15:41:44.375,-0.3999,3.04038,6.55514,-0.0177909,-0.148512,0.0650552,0
2024-12-13 15:41:44.377,-0.395115,3.09571,6.5025,-0.00679568,-0.160118,0.0565034,0
2024-12-13 15:41:44.380,-0.387936,3.15793,6.43998,0.00236703,-0.171114,0.0473407,0
2024-12-13 15:41:44.382,-0.383151,3.20818,6.37298,0.0121406,-0.177833,0.0375671,0
2024-12-13 15:41:44.385,-0.373579,3.24168,6.29402,0.0182491,-0.185774,0.0290152,0
2024-12-13 15:41:44.387,-0.368794,3.27278,6.22224,0.0194708,-0.192493,0.0216851,0
2024-12-13 15:41:44.389,-0.342473,3.30628,6.17677,0.0243575,-0.197991,0.0119115,0
2024-12-13 15:41:44.392,-0.30658,3.35175,6.10259,0.0231358,-0.201656,0.00213797,0
2024-12-13 15:41:44.394,-0.30658,3.3996,6.02124,0.0200816,-0.205932,-0.00580305,0
2024-12-13 15:41:44.396,-0.313759,3.43789,5.96142,0.0158057,-0.207154,-0.0137441,0
2024-12-13 15:41:44.399,-0.30658,3.48335,5.87019,0.00542127,-0.20471,-0.0229068,0
2024-12-13 15:41:44.401,-0.292223,3.53121,5.80798,-0.00679568,-0.196158,-0.0290152,0
2024-12-13 15:41:44.403,-0.27996,3.56231,5.76969,-0.0190126,-0.186385,-0.0357346,0
2024-12-13 15:41:44.406,-0.292223,3.59581,5.72662,-0.0342838,-0.17539,-0.0430647,0
2024-12-13 15:41:44.408,-0.299402,3.63171,5.70509,-0.0507767,-0.16134,-0.0497841,0
2024-12-13 15:41:44.410,-0.297009,3.66072,5.7003,-0.0684913,-0.146069,-0.0552817,0
2024-12-13 15:41:44.413,-0.30658,3.699,5.69073,-0.0874275,-0.127743,-0.062001,0
2024-12-13 15:41:44.415,-0.325723,3.73968,5.70269,-0.108807,-0.107585,-0.0668878,0
2024-12-13 15:41:44.418,-0.344866,3.77797,5.72662,-0.129576,-0.0904818,-0.0729962,0
2024-12-13 15:41:44.420,-0.364008,3.7995,5.75773,-0.150345,-0.0709346,-0.0760505,0
2024-12-13 15:41:44.422,-0.378365,3.83779,5.80319,-0.170503,-0.0513875,-0.0815481,0
2024-12-13 15:41:44.425,-0.390329,3.86411,5.85823,-0.190661,-0.0330621,-0.0870457,0
2024-12-13 15:41:44.427,-0.426222,3.87368,5.92313,-0.209597,-0.0147367,-0.0913217,0
2024-12-13 15:41:44.429,-0.469292,3.90479,5.99731,-0.228533,0.00664296,-0.0968193,0
2024-12-13 15:41:44.432,-0.459721,3.8689,6.12652,-0.246859,0.0268009,-0.101095,0
2024-12-13 15:41:44.434,-0.387936,3.77557,6.31556,-0.261519,0.0414613,-0.106593,0
2024-12-13 15:41:44.436,-0.380758,3.73968,6.49292,-0.276179,0.0494023,-0.114534,0
2024-12-13 15:41:44.439,-0.478864,3.78036,6.56949,-0.283509,0.0634518,-0.120031,0
2024-12-13 15:41:44.441,-0.591326,3.85215,6.59103,-0.29084,0.0891073,-0.124918,0
2024-12-13 15:41:44.443,-0.689432,3.9335,6.66521,-0.29817,0.121482,-0.124918,0
2024-12-13 15:41:44.446,-0.768395,4.01007,6.79921,-0.303667,0.147749,-0.123697,0
2024-12-13 15:41:44.448,-0.82343,4.08425,6.90688,-0.307943,0.174015,-0.120031,0
2024-12-13 15:41:44.450,-0.864407,4.13928,6.99542,-0.310387,0.200892,-0.118199,0
2024-12-13 15:41:44.453,-0.885943,4.168,7.101,-0.310387,0.200892,-0.118199,0
2024-12-13 15:41:44.455,-0.907478,4.20628,7.22303,-0.317717,0.241208,-0.11209,0
2024-12-13 15:41:44.460,-0.893121,4.27837,7.436,-0.320771,0.265642,-0.110258,0
2024-12-13 15:41:44.460,-0.893121,4.27837,7.436,-0.320771,0.265642,-0.110258,0
2024-12-13 15:41:44.462,-0.787538,4.24487,7.52214,-0.325047,0.272972,-0.113312,0
2024-12-13 15:41:44.465,-0.732503,4.20628,7.60858,-0.325047,0.27847,-0.121253,0
2024-12-13 15:41:44.467,-0.82343,4.25444,7.62054,-0.32749,0.289465,-0.127972,0
2024-12-13 15:41:44.469,-0.96012,4.34776,7.58944,-0.328712,0.311456,-0.13347,0
2024-12-13 15:41:44.472,-1.05823,4.44586,7.62293,-0.329934,0.334668,-0.132248,0
2024-12-13 15:41:44.474,-1.12762,4.52004,7.72583,-0.329934,0.351161,-0.135303,0
2024-12-13 15:41:44.476,-1.19222,4.58226,7.82393,-0.332377,0.35788,-0.135303,0
2024-12-13 15:41:44.479,-1.24008,4.64686,7.88375,-0.332988,0.359713,-0.135303,0
2024-12-13 15:41:44.481,-1.26879,4.7019,7.97229,-0.337875,0.356048,-0.135914,0
2024-12-13 15:41:44.483,-1.28076,4.74018,8.11346,-0.339707,0.341998,-0.135303,0
2024-12-13 15:41:44.486,-1.28315,4.77877,8.25015,-0.340929,0.324284,-0.139579,0
2024-12-13 15:41:44.488,-1.29033,4.80987,8.39133,-0.346427,0.303515,-0.142022,0
2024-12-13 15:41:44.491,-1.29512,4.82184,8.57318,-0.350092,0.277859,-0.143855,0
2024-12-13 15:41:44.493,-1.30469,4.84577,8.76491,-0.357422,0.252204,-0.150574,0
2024-12-13 15:41:44.495,-1.34058,4.89841,8.94916,-0.36353,0.228991,-0.154239,0
2024-12-13 15:41:44.498,-1.41506,4.96301,9.08076,-0.367806,0.210055,-0.156682,0
2024-12-13 15:41:44.500,-1.52273,5.03719,9.22672,-0.378802,0.202114,-0.157904,0
2024-12-13 15:41:44.502,-1.66152,5.11376,9.46152,-0.389797,0.198449,-0.156682,0
2024-12-13 15:41:44.505,-1.80748,5.17837,9.72473,-0.401403,0.198449,-0.150574,0
2024-12-13 15:41:44.507,-1.94865,5.24776,10.0026,-0.409344,0.203336,-0.143244,0
2024-12-13 15:41:44.509,-2.08056,5.33659,10.2993,-0.413009,0.211277,-0.131638,0
2024-12-13 15:41:44.512,-2.17627,5.43948,10.6011,-0.419728,0.223494,-0.117588,0
2024-12-13 15:41:44.514,-2.24327,5.55913,10.9361,-0.424004,0.243041,-0.102317,0
2024-12-13 15:41:44.516,-2.31984,5.68355,11.3025,-0.422783,0.263199,-0.0846023,0
2024-12-13 15:41:44.519,-2.38206,5.81276,11.6569,-0.418507,0.287633,-0.0644444,0
2024-12-13 15:41:44.522,-2.42034,5.97338,11.9704,-0.403236,0.348107,-0.0167983,0
2024-12-13 15:41:44.524,-2.45863,6.15524,12.1693,-0.403236,0.348107,-0.0167983,0
2024-12-13 15:41:44.528,-2.54267,6.49292,12.7104,-0.389186,0.425073,0.0387888,0
2024-12-13 15:41:44.528,-2.54267,6.49292,12.7104,-0.389186,0.425073,0.0387888,0
2024-12-13 15:41:44.531,-2.59292,6.67717,12.9616,-0.378191,0.459281,0.0687203,0
2024-12-13 15:41:44.533,-2.63839,6.84706,13.1988,-0.364752,0.489823,0.0998735,0
2024-12-13 15:41:44.535,-2.67189,7.00499,13.4142,-0.347648,0.515479,0.131638,0
2024-12-13 15:41:44.538,-2.7341,7.14407,13.6247,-0.328101,0.536248,0.167143,0
2024-12-13 15:41:44.540,-2.80349,7.27328,13.783,-0.310387,0.555184,0.202572,0
2024-12-13 15:41:44.543,-2.84417,7.40967,13.8763,-0.297559,0.579007,0.239834,0
2024-12-13 15:41:44.545,-2.8681,7.50778,14.0462,-0.287175,0.594889,0.276485,0
2024-12-13 15:41:44.547,-2.8346,7.51735,14.3192,-0.274958,0.602219,0.314968,0
2024-12-13 15:41:44.549,-2.7676,7.48864,14.5753,-0.260908,0.600387,0.351619,0
2024-12-13 15:41:44.552,-2.7676,7.49582,14.7547,-0.246248,0.594889,0.387048,0
2024-12-13 15:41:44.554,-2.67906,7.44557,14.9728,-0.237085,0.591224,0.421866,0
2024-12-13 15:41:44.556,-2.64796,7.42882,15.1451,-0.226701,0.586337,0.456074,0
2024-12-13 15:41:44.559,-2.89681,7.56042,15.1379,-0.218149,0.599165,0.491503,0
2024-12-13 15:41:44.561,-3.14357,7.71386,15.2312,-0.217538,0.629096,0.535484,0
2024-12-13 15:41:44.564,-3.19382,7.7665,15.5163,-0.216927,0.655363,0.585573,0
2024-12-13 15:41:44.566,-3.15075,7.72104,15.8273,-0.220592,0.666969,0.632609,0
2024-12-13 15:41:44.568,-3.23928,7.70908,16.0167,-0.223036,0.673688,0.682087,0
2024-12-13 15:41:44.571,-3.40439,7.77129,16.1554,-0.229755,0.693235,0.735231,0
2024-12-13 15:41:44.573,-3.42832,7.79043,16.3493,-0.238918,0.715913,0.792651,0
2024-12-13 15:41:44.575,-3.35653,7.7689,16.5191,-0.249913,0.731184,0.847627,0
2024-12-13 15:41:44.578,-3.3661,7.72583,16.6606,-0.249913,0.731184,0.847627,0
2024-12-13 15:41:44.580,-3.41396,7.64926,16.8329,-0.286564,0.748288,0.953914,0
2024-12-13 15:41:44.582,-3.402,7.56999,17.0219,-0.304889,0.753175,1.00828,0
2024-12-13 15:41:44.585,-3.33021,7.45275,17.1945,-0.321382,0.751953,1.05898,0
2024-12-13 15:41:44.587,-3.24168,7.26371,17.3764,-0.34154,0.744012,1.10418,0
2024-12-13 15:41:44.589,-3.15793,7.03161,17.5582,-0.3562,0.732406,1.14511,0
2024-12-13 15:41:44.592,-3.04277,6.79681,17.7189,-0.372082,0.719578,1.17443,0
2024-12-13 15:41:44.594,-2.93749,6.59582,17.8911,-0.384299,0.70675,1.19886,0
2024-12-13 15:41:44.597,-2.88485,6.42084,18.0897,-0.387964,0.687127,1.22635,0
2024-12-13 15:41:44.599,-2.87288,6.21506,18.2839,-0.386132,0.663915,1.25445,0
2024-12-13 15:41:44.601,-2.85135,5.99731,18.4681,-0.375137,0.637037,1.27889,0
2024-12-13 15:41:44.604,-2.78913,5.79841,18.6284,-0.354368,0.607717,1.30576,0
2024-12-13 15:41:44.606,-2.68146,5.60459,18.7433,-0.329934,0.584504,1.32592,0
2024-12-13 15:41:44.608,-2.54028,5.4012,18.7959,-0.300613,0.563736,1.33753,0
2024-12-13 15:41:44.611,-2.39402,5.19512,18.8489,-0.267017,0.547243,1.34302,2
2024-12-13 15:41:44.613,-2.25284,4.98694,18.9063,-0.226701,0.528307,1.3418,0
2024-12-13 15:41:44.615,-2.09731,4.78594,18.9087,-0.179055,0.515479,1.33447,0
2024-12-13 15:41:44.618,-1.91994,4.6014,18.8895,-0.125911,0.503873,1.32103,0
2024-12-13 15:41:44.620,-1.73809,4.42194,18.8536,-0.0697129,0.494099,1.29965,0
2024-12-13 15:41:44.622,-1.57777,4.24726,18.7481,-0.0104608,0.484936,1.27217,0
2024-12-13 15:41:44.625,-1.46291,4.07707,18.6117,0.0567324,0.478217,1.2404,0
2024-12-13 15:41:44.627,-1.35254,3.90718,18.4801,0.127591,0.464778,1.20375,0
2024-12-13 15:41:44.629,-1.2664,3.78515,18.3796,0.203947,0.445842,1.16405,0
2024-12-13 15:41:44.632,-1.20897,3.72293,18.219,0.290076,0.418965,1.12006,0
2024-12-13 15:41:44.634,-1.17787,3.67986,17.9581,0.379947,0.388422,1.07425,0
2024-12-13 15:41:44.637,-1.1348,3.66072,17.6758,0.469742,0.36521,1.03088,0
2024-12-13 15:41:44.639,-1.08694,3.66551,17.3931,0.560758,0.337111,0.985068,0
2024-12-13 15:41:44.641,-1.0654,3.69422,17.1156,0.652996,0.313899,0.941697,0
2024-12-13 15:41:44.644,-1.06301,3.7349,16.8209,0.741569,0.291298,0.897716,0
2024-12-13 15:41:44.646,-1.07258,3.77079,16.6056,0.831974,0.259534,0.860455,0
2024-12-13 15:41:44.648,-1.09412,3.8019,16.3134,0.92971,0.221661,0.822582,0
2024-12-13 15:41:44.653,-1.10608,3.81625,15.8776,1.10747,0.156301,0.756611,0
2024-12-13 15:41:44.653,-1.08455,3.82343,15.4756,1.10747,0.156301,0.756611,0
2024-12-13 15:41:44.655,-1.02473,3.81625,15.0589,1.19054,0.12698,0.72729,0
2024-12-13 15:41:44.658,-0.952942,3.79711,14.6327,1.26751,0.0976592,0.701024,0
2024-12-13 15:41:44.660,-0.864407,3.78275,14.1969,1.33714,0.0677277,0.671703,0
2024-12-13 15:41:44.662,-0.754038,3.76361,13.7542,1.40312,0.0359636,0.643604,0
2024-12-13 15:41:44.665,-0.641576,3.74208,13.3807,1.46359,0.00236703,0.616116,0
2024-12-13 15:41:44.667,-0.529113,3.72293,12.9616,1.51918,-0.0379489,0.59046,0
2024-12-13 15:41:44.670,-0.428614,3.7325,12.478,1.57049,-0.0745997,0.564194,0
2024-12-13 15:41:44.673,-0.354437,3.74925,12.0278,1.6499,-0.135684,0.515326,0
2024-12-13 15:41:44.674,-0.287438,3.75643,11.554,1.6499,-0.135684,0.515326,0
2024-12-13 15:41:44.677,-0.196211,3.75643,11.0513,1.67983,-0.161951,0.492114,0
2024-12-13 15:41:44.679,-0.114855,3.78993,10.625,1.69877,-0.185774,0.467069,0
2024-12-13 15:41:44.681,-0.0693919,3.83779,10.1845,1.71343,-0.209597,0.447522,0
2024-12-13 15:41:44.684,-0.0334995,3.87847,9.72952,1.7177,-0.230366,0.429807,0
2024-12-13 15:41:44.686,0.0,3.93589,9.31316,1.71892,-0.247469,0.412704,0
2024-12-13 15:41:44.688,0.026321,3.99332,8.9013,1.71098,-0.263962,0.397433,0
2024-12-13 15:41:44.691,0.0574277,4.07468,8.50858,1.69754,-0.281066,0.386437,0
2024-12-13 15:41:44.693,0.0885344,4.14646,8.17119,1.67861,-0.293283,0.379107,0
2024-12-13 15:41:44.695,0.114855,4.2015,7.91007,1.65784,-0.304889,0.368723,0
2024-12-13 15:41:44.698,0.157926,4.2664,7.62293,1.63341,-0.317717,0.363225,0
2024-12-13 15:41:44.700,0.229711,4.31905,7.302,1.60347,-0.325658,0.357117,0
2024-12-13 15:41:44.703,0.297009,4.36451,6.98106,1.5656,-0.330545,0.351008,0
2024-12-13 15:41:44.705,0.332901,4.39562,6.68196,1.52406,-0.331156,0.348565,0
2024-12-13 15:41:44.707,0.332901,4.40519,6.3993,1.47886,-0.329323,0.349176,0
2024-12-13 15:41:44.710,0.320937,4.41236,6.14327,1.42511,-0.326269,0.351008,0
2024-12-13 15:41:44.712,0.299402,4.44108,5.91596,1.37563,-0.319549,0.351008,0
2024-12-13 15:41:44.714,0.289831,4.4674,5.68116,1.32004,-0.31283,0.360171,0
2024-12-13 15:41:44.717,0.289831,4.48894,5.4682,1.26262,-0.301835,0.369334,0
2024-12-13 15:41:44.719,0.297009,4.51286,5.3004,1.20154,-0.287785,0.379718,0
2024-12-13 15:41:44.721,0.330509,4.52243,5.14726,1.13495,-0.275568,0.392546,0
2024-12-13 15:41:44.724,0.364008,4.53918,5.03958,1.06959,-0.263962,0.405984,0
2024-12-13 15:41:44.726,0.387936,4.56072,4.95105,1.0024,-0.251745,0.418201,0
2024-12-13 15:41:44.728,0.397508,4.56311,4.85534,0.933375,-0.235863,0.432251,0
2024-12-13 15:41:44.731,0.395115,4.57268,4.77877,0.867403,-0.217538,0.4463,0
2024-12-13 15:41:44.733,0.3999,4.58465,4.71865,0.79288,-0.197991,0.462182,0
2024-12-13 15:41:44.735,0.41665,4.58704,4.67079,0.726908,-0.17539,0.475621,0
2024-12-13 15:41:44.738,0.435793,4.58943,4.64925,0.657272,-0.152177,0.486005,0
2024-12-13 15:41:44.740,0.426222,4.58943,4.62772,0.589468,-0.131409,0.501277,0
2024-12-13 15:41:44.743,0.404686,4.58704,4.60618,0.51922,-0.11064,0.515326,0
2024-12-13 15:41:44.745,0.380758,4.58465,4.62054,0.450805,-0.0904818,0.529986,0
2024-12-13 15:41:44.747,0.352044,4.57029,4.64208,0.384834,-0.0684913,0.541592,0
2024-12-13 15:41:44.750,0.308973,4.54397,4.64925,0.384834,-0.0684913,0.541592,0
2024-12-13 15:41:44.752,0.244068,4.52722,4.64686,0.251593,-0.0287862,0.571524,0
2024-12-13 15:41:44.754,0.205783,4.51047,4.69233,0.186232,-0.00801737,0.586184,0
2024-12-13 15:41:44.757,0.181855,4.48654,4.73061,0.123315,0.0115297,0.603288,0
2024-12-13 15:41:44.759,0.122034,4.47219,4.77637,0.058565,0.0371853,0.617948,0
2024-12-13 15:41:44.761,0.0502493,4.43151,4.9008,0.00236703,0.0591758,0.638717,0
2024-12-13 15:41:44.764,-0.0119641,4.38126,4.99651,-0.0526092,0.0781121,0.655821,0
2024-12-13 15:41:44.766,-0.0622134,4.3334,5.05633,-0.107585,0.101935,0.674146,0
2024-12-13 15:41:44.768,-0.0861416,4.29033,5.13769,-0.158897,0.127591,0.690639,0
2024-12-13 15:41:44.771,-0.100499,4.24487,5.25015,-0.205932,0.152635,0.709575,0
2024-12-13 15:41:44.773,-0.11007,4.19432,5.36291,-0.2548,0.182567,0.728512,0
2024-12-13 15:41:44.776,-0.129212,4.12971,5.47777,-0.296337,0.207612,0.745615,0
2024-12-13 15:41:44.780,-0.155533,3.98136,5.75294,-0.371471,0.255258,0.774936,0
2024-12-13 15:41:44.780,-0.155533,3.98136,5.75294,-0.371471,0.255258,0.774936,0
2024-12-13 15:41:44.783,-0.167498,3.9,5.9016,-0.403846,0.27847,0.788375,0
2024-12-13 15:41:44.785,-0.179462,3.81625,6.04756,-0.430113,0.301071,0.799981,0
2024-12-13 15:41:44.787,-0.189033,3.74686,6.2007,-0.454547,0.324894,0.810365,0
2024-12-13 15:41:44.790,-0.189033,3.6679,6.37538,-0.473483,0.345052,0.82136,0
2024-12-13 15:41:44.792,-0.184247,3.58864,6.53839,-0.488754,0.360934,0.830523,0
2024-12-13 15:41:44.794,-0.162712,3.52403,6.69631,-0.500971,0.37926,0.838464,0
2024-12-13 15:41:44.797,-0.133998,3.45703,6.82313,-0.510134,0.39392,0.84274,0
2024-12-13 15:41:44.799,-0.117248,3.40917,6.92602,-0.513799,0.409191,0.845184,0
2024-12-13 15:41:44.801,-0.102891,3.37567,7.02443,-0.516853,0.426906,0.849459,0
2024-12-13 15:41:44.804,-0.122034,3.31107,7.15125,-0.518075,0.44462,0.85007,0
2024-12-13 15:41:44.806,-0.141177,3.24885,7.28046,-0.516853,0.456837,0.850681,0
2024-12-13 15:41:44.808,-0.122034,3.16989,7.37617,-0.510134,0.472719,0.849459,0
2024-12-13 15:41:44.811,-0.0885344,3.07627,7.45992,-0.506469,0.483104,0.846405,0
2024-12-13 15:41:44.813,-0.066999,2.99731,7.54607,-0.497306,0.491045,0.845184,0
2024-12-13 15:41:44.818,-0.0191426,2.80588,7.68036,-0.47104,0.509981,0.832967,0
2024-12-13 15:41:44.818,-0.0191426,2.80588,7.68036,-0.47104,0.509981,0.832967,0
2024-12-13 15:41:44.820,0.0334995,2.71974,7.77368,-0.458212,0.517922,0.824415,0
2024-12-13 15:41:44.823,0.0598206,2.64796,7.85025,-0.438665,0.524031,0.815863,0
2024-12-13 15:41:44.825,0.0574277,2.57139,7.89811,-0.417285,0.528917,0.807922,0
2024-12-13 15:41:44.827,0.0622134,2.50887,7.91725,-0.394073,0.539302,0.796316,0
2024-12-13 15:41:44.830,0.0478565,2.45623,7.93161,-0.370861,0.548464,0.78471,0
2024-12-13 15:41:44.832,0.0454636,2.41077,7.96272,-0.345205,0.560681,0.774936,0
2024-12-13 15:41:44.834,0.040678,2.36531,7.98425,-0.317106,0.575953,0.765163,0
2024-12-13 15:41:44.837,0.0287139,2.3342,8.00818,-0.288396,0.591835,0.754167,0
2024-12-13 15:41:44.840,0.00957129,2.33181,8.02732,-0.220592,0.615658,0.735842,0
2024-12-13 15:41:44.841,-0.0143569,2.31266,8.00579,-0.220592,0.615658,0.735842,0
2024-12-13 15:41:44.844,-0.0215354,2.28873,7.95793,-0.188828,0.628486,0.724236,0
2024-12-13 15:41:44.846,-0.0454636,2.29113,7.934,-0.156453,0.63887,0.715073,0
2024-12-13 15:41:44.849,-0.066999,2.27677,7.90768,-0.121024,0.647422,0.707132,0
2024-12-13 15:41:44.851,-0.0789631,2.26241,7.8335,-0.081319,0.651087,0.699191,0
2024-12-13 15:41:44.853,-0.0933201,2.26241,7.7689,-0.0446682,0.655974,0.690639,0
2024-12-13 15:41:44.856,-0.11007,2.26002,7.70908,-0.00557398,0.658417,0.679644,0
2024-12-13 15:41:44.858,-0.129212,2.26959,7.62772,0.0359636,0.664525,0.671092,0
2024-12-13 15:41:44.860,-0.131605,2.26481,7.51974,0.0750579,0.668801,0.660097,0
2024-12-13 15:41:44.865,-0.136391,2.27916,7.24696,0.154468,0.677353,0.639939,0
2024-12-13 15:41:44.865,-0.136391,2.27916,7.24696,0.154468,0.677353,0.639939,0
2024-12-13 15:41:44.870,-0.145962,2.30788,6.92363,0.22777,0.68957,0.619781,0
2024-12-13 15:41:44.870,-0.145962,2.30788,6.92363,0.22777,0.68957,0.619781,0
2024-12-13 15:41:44.872,-0.141177,2.31745,6.78963,0.26381,0.695068,0.611229,0
2024-12-13 15:41:44.874,-0.150748,2.34377,6.61735,0.297406,0.698122,0.598401,0
2024-12-13 15:41:44.877,-0.174676,2.3988,6.43041,0.327949,0.700565,0.588628,0
2024-12-13 15:41:44.879,-0.189033,2.43948,6.2677,0.359102,0.700565,0.576411,0
2024-12-13 15:41:44.882,-0.205783,2.47298,6.09063,0.391553,0.694457,0.566637,0
2024-12-13 15:41:44.884,-0.239282,2.51127,5.89681,0.419041,0.684683,0.559918,0
2024-12-13 15:41:44.886,-0.285045,2.55224,5.71705,0.442253,0.67491,0.550755,0
2024-12-13 15:41:44.889,-0.330509,2.6001,5.5352,0.465466,0.663304,0.544647,0
2024-12-13 15:41:44.891,-0.344866,2.64078,5.37009,0.484402,0.65353,0.538538,0
2024-12-13 15:41:44.893,-0.359223,2.68624,5.19272,0.500895,0.63887,0.533041,0
2024-12-13 15:41:44.896,-0.383151,2.73649,5.01805,0.514944,0.628486,0.528765,0
2024-12-13 15:41:44.898,-0.397508,2.76521,4.86251,0.52655,0.616879,0.52571,0
2024-12-13 15:41:44.900,-0.423829,2.80349,4.70668,0.535102,0.607106,0.522045,0
2024-12-13 15:41:44.903,-0.440578,2.86331,4.5679,0.536935,0.598554,0.519602,0
2024-12-13 15:41:44.905,-0.438186,2.90878,4.43869,0.534491,0.585115,0.517769,0
2024-12-13 15:41:44.907,-0.426222,2.93749,4.35733,0.536324,0.574731,0.517769,0
2024-12-13 15:41:44.910,-0.411865,2.93988,4.2688,0.533881,0.55274,0.517159,0
2024-12-13 15:41:44.912,-0.4334,2.93031,4.101,0.52655,0.536248,0.518991,0
2024-12-13 15:41:44.914,-0.488435,2.96142,3.93111,0.517388,0.528917,0.521434,0
2024-12-13 15:41:44.917,-0.507577,2.98056,3.81625,0.503338,0.527085,0.523267,0
2024-12-13 15:41:44.919,-0.519542,2.97577,3.78036,0.488678,0.522809,0.528765,0
2024-12-13 15:41:44.922,-0.548256,2.96381,3.8019,0.475239,0.513035,0.534873,0
2024-12-13 15:41:44.924,-0.586541,2.94706,3.77557,0.464244,0.50204,0.544036,0
2024-12-13 15:41:44.926,-0.612862,2.94706,3.7014,0.450805,0.495932,0.553199,0
2024-12-13 15:41:44.929,-0.632004,2.93988,3.64128,0.433702,0.494099,0.565416,0
2024-12-13 15:41:44.931,-0.624826,2.93988,3.65115,0.416598,0.492267,0.577632,0
2024-12-13 15:41:44.933,-0.60329,2.92074,3.66072,0.399494,0.491045,0.591682,0
2024-12-13 15:41:44.936,-0.629611,2.90399,3.63649,0.379947,0.497764,0.608175,0
2024-12-13 15:41:44.938,-0.648754,2.93749,3.64128,0.364599,0.511203,0.623446,0
2024-12-13 15:41:44.940,-0.627219,2.98535,3.65833,0.352383,0.525252,0.639939,0
2024-12-13 15:41:44.943,-0.576969,3.0332,3.71336,0.338333,0.539302,0.657653,0
2024-12-13 15:41:44.945,-0.565005,3.04277,3.76361,0.32917,0.557016,0.672925,0
2024-12-13 15:41:44.947,-0.610469,3.02124,3.78036,0.32917,0.557016,0.672925,0
2024-12-13 15:41:44.950,-0.646361,2.99731,3.78754,0.316953,0.597943,0.707743,0
2024-12-13 15:41:44.952,-0.63679,2.97338,3.77797,0.309623,0.621155,0.729123,0
2024-12-13 15:41:44.955,-0.588933,2.96381,3.75643,0.30718,0.6462,0.750502,0
2024-12-13 15:41:44.957,-0.490828,2.9686,3.74925,0.304126,0.665136,0.772493,0
2024-12-13 15:41:44.959,-0.368794,2.95424,3.71097,0.301682,0.681018,0.790207,0
2024-12-13 15:41:44.962,-0.287438,2.97577,3.58624,0.296795,0.69629,0.806089,0
2024-12-13 15:41:44.964,-0.241675,3.06192,3.45942,0.291298,0.720189,0.82075,0
2024-12-13 15:41:44.966,-0.117248,3.08345,3.44267,0.284578,0.741569,0.832967,0
2024-12-13 15:41:44.969,0.172283,3.00449,3.57667,0.277859,0.747677,0.839075,0
2024-12-13 15:41:44.971,0.385544,2.97338,3.60778,0.276027,0.739125,0.837853,0
2024-12-13 15:41:44.973,0.344866,3.05234,3.37567,0.270529,0.744623,0.838464,0
2024-12-13 15:41:44.976,0.229711,3.19382,3.06909,0.258312,0.769057,0.839075,0
2024-12-13 15:41:44.978,0.20339,3.34935,2.83699,0.235711,0.810594,0.843962,0
2024-12-13 15:41:44.980,0.20339,3.47378,2.71735,0.208833,0.849078,0.846405,0
2024-12-13 15:41:44.983,0.145962,3.57428,2.75803,0.181345,0.880842,0.851903,0
2024-12-13 15:41:44.985,0.0454636,3.67747,2.81306,0.156301,0.897335,0.856179,0
2024-12-13 15:41:44.987,-0.00478565,3.7684,2.77956,0.132477,0.911995,0.862898,0
2024-12-13 15:41:44.990,-0.0215354,3.85454,2.74367,0.103157,0.920547,0.864731,0
2024-12-13 15:41:44.992,-0.0717847,3.96939,2.70299,0.0732253,0.925434,0.864731,0
2024-12-13 15:41:44.995,-0.122034,4.08903,2.68146,0.0402396,0.924823,0.867174,0
2024-12-13 15:41:44.997,-0.153141,4.21137,2.68146,0.00419957,0.918103,0.867174,0
2024-12-13 15:41:44.999,-0.145962,4.54876,2.72931,-0.0318404,0.919325,0.861066,0
2024-12-13 15:41:45.002,-0.165105,4.92234,2.84895,-0.0697129,0.935818,0.843351,0
2024-12-13 15:41:45.004,-0.282652,4.94866,3.0021,-0.101477,0.939483,0.822582,0
2024-12-13 15:41:45.006,-0.390329,4.77159,3.134,-0.133852,0.924212,0.814641,0
2024-12-13 15:41:45.009,-0.414257,4.58226,3.29671,-0.165005,0.900389,0.812809,0
2024-12-13 15:41:45.011,-0.41665,4.37169,3.51207,-0.191272,0.871679,0.814641,0
2024-12-13 15:41:45.013,-0.419043,4.17996,3.66311,-0.212651,0.834417,0.823193,0
2024-12-13 15:41:45.016,-0.361615,4.05314,3.79711,-0.234031,0.790436,0.830523,0
2024-12-13 15:41:45.018,-0.224925,3.98854,3.93829,-0.253578,0.728741,0.83541,0
2024-12-13 15:41:45.020,-0.00478565,4.01007,4.01007,-0.270682,0.658417,0.834188,0
2024-12-13 15:41:45.023,0.251246,4.08186,3.95982,-0.293283,0.585726,0.82136,0
2024-12-13 15:41:45.025,0.459721,4.16321,3.88564,-0.325658,0.519755,0.798148,0
2024-12-13 15:41:45.030,0.488435,4.48654,3.90479,-0.407511,0.401861,0.739507,0
2024-12-13 15:41:45.030,0.488435,4.48654,3.90479,-0.407511,0.401861,0.739507,0
2024-12-13 15:41:45.032,0.342473,4.68036,3.97179,-0.458212,0.35055,0.716295,0
2024-12-13 15:41:45.035,0.131605,4.79552,4.19671,-0.510134,0.29985,0.697358,0
2024-12-13 15:41:45.037,-0.0741775,4.8338,4.47219,-0.559612,0.24243,0.687585,0
2024-12-13 15:41:45.039,-0.260818,4.89841,4.68754,-0.607869,0.185621,0.68392,0
2024-12-13 15:41:45.042,-0.414257,4.95583,4.85773,-0.662235,0.134921,0.682698,0
2024-12-13 15:41:45.044,-0.572184,4.95105,5.13051,-0.718433,0.0897182,0.687585,0
2024-12-13 15:41:45.046,-0.703789,4.91994,5.48255,-0.718433,0.0897182,0.687585,0
2024-12-13 15:41:45.049,-0.782752,4.89841,5.80798,-0.827164,0.00725381,0.704689,0
2024-12-13 15:41:45.051,-0.847657,4.88405,6.11456,-0.881529,-0.0202343,0.718738,0
2024-12-13 15:41:45.053,-0.917049,4.86251,6.47378,-0.881529,-0.0202343,0.718738,0
2024-12-13 15:41:45.056,-0.981655,4.83141,6.90928,-1.0037,-0.0422248,0.750502,0
2024-12-13 15:41:45.058,-1.01276,4.79552,7.35225,-1.06112,-0.0477224,0.768828,0
2024-12-13 15:41:45.061,-1.02233,4.76411,7.7665,-1.11854,-0.0452791,0.788986,0
2024-12-13 15:41:45.063,-1.02951,4.74018,8.15444,-1.17596,-0.0318404,0.809754,0
2024-12-13 15:41:45.065,-1.01994,4.74018,8.51336,-1.2346,-0.0110716,0.831134,0
2024-12-13 15:41:45.068,-1.01755,4.7354,8.90369,-1.29568,0.0188599,0.852514,0
2024-12-13 15:41:45.072,-0.991227,4.70668,9.81326,-1.40686,0.0848314,0.899549,0
2024-12-13 15:41:45.072,-0.991227,4.70668,9.81326,-1.40686,0.0848314,0.899549,0
2024-12-13 15:41:45.075,-0.938585,4.72822,10.2873,-1.45695,0.123315,0.923372,0
2024-12-13 15:41:45.077,-0.857229,4.79312,10.7638,-1.50337,0.165463,0.945363,0
