timestamp,accel_x,accel_y,accel_z,gyro_x,gyro_y,gyro_z,step_timestamp
2024-12-13 15:34:39.281,0.471685,2.84178,6.10259,0.0701711,0.114152,0.0882674,0
2024-12-13 15:34:39.281,0.471685,2.84178,6.10259,0.0701711,0.114152,0.0882674,0
2024-12-13 15:34:39.281,0.471685,2.84178,6.10259,0.0701711,0.114152,0.0882674,0
2024-12-13 15:34:39.281,0.471685,2.84178,6.10259,0.0701711,0.114152,0.0882674,0
2024-12-13 15:34:39.281,0.471685,2.84178,6.10259,0.0701711,0.114152,0.0882674,0
2024-12-13 15:34:39.281,0.471685,2.84178,6.10259,0.0701711,0.114152,0.0882674,0
2024-12-13 15:34:39.281,0.471685,2.84178,6.10259,0.0701711,0.114152,0.0882674,0
2024-12-13 15:34:39.281,0.471685,2.84178,6.10259,0.0701711,0.114152,0.0882674,0
2024-12-13 15:34:39.281,0.471685,2.84178,6.10259,0.0701711,0.114152,0.0882674,0
2024-12-13 15:34:39.281,0.471685,2.84178,6.10259,0.0701711,0.114152,0.0882674,0
2024-12-13 15:34:39.283,0.474078,2.83938,6.13131,0.0689494,0.114763,0.0870457,0
2024-12-13 15:34:39.283,0.474078,2.83938,6.13131,0.0689494,0.114763,0.0870457,0
2024-12-13 15:34:39.283,0.474078,2.83938,6.13131,0.0689494,0.114763,0.0870457,0
2024-12-13 15:34:39.283,0.474078,2.83938,6.13131,0.0689494,0.114763,0.0870457,0
2024-12-13 15:34:39.283,0.474078,2.83938,6.13131,0.0689494,0.114763,0.0870457,0
2024-12-13 15:34:39.285,0.471685,2.8322,6.14567,0.066506,0.115985,0.0870457,0
2024-12-13 15:34:39.285,0.471685,2.8322,6.14567,0.066506,0.115985,0.0870457,0
2024-12-13 15:34:39.285,0.471685,2.8322,6.14567,0.066506,0.115985,0.0870457,0
2024-12-13 15:34:39.285,0.471685,2.8322,6.14567,0.066506,0.115985,0.0870457,0
2024-12-13 15:34:39.288,0.471685,2.84656,6.15045,0.0628409,0.11965,0.085824,0
2024-12-13 15:34:39.288,0.471685,2.84656,6.15045,0.0628409,0.11965,0.085824,0
2024-12-13 15:34:39.288,0.471685,2.84656,6.15045,0.0628409,0.11965,0.085824,0
2024-12-13 15:34:39.288,0.471685,2.84656,6.15045,0.0628409,0.11965,0.085824,0
2024-12-13 15:34:39.290,0.476471,2.88485,6.15763,0.0591758,0.126369,0.0852132,0
2024-12-13 15:34:39.290,0.476471,2.88485,6.15763,0.0591758,0.126369,0.0852132,0
2024-12-13 15:34:39.290,0.476471,2.88485,6.15763,0.0591758,0.126369,0.0852132,0
2024-12-13 15:34:39.290,0.476471,2.88485,6.15763,0.0591758,0.126369,0.0852132,0
2024-12-13 15:34:39.290,0.476471,2.88485,6.15763,0.0591758,0.126369,0.0852132,0
2024-12-13 15:34:39.290,0.476471,2.88485,6.15763,0.0591758,0.126369,0.0852132,0
2024-12-13 15:34:39.292,0.469292,2.90399,6.1672,0.0536782,0.130645,0.0846023,0
2024-12-13 15:34:39.292,0.469292,2.90399,6.1672,0.0536782,0.130645,0.0846023,0
2024-12-13 15:34:39.292,0.469292,2.90399,6.1672,0.0536782,0.130645,0.0846023,0
2024-12-13 15:34:39.292,0.469292,2.90399,6.1672,0.0536782,0.130645,0.0846023,0
2024-12-13 15:34:39.295,0.445364,2.91117,6.19352,0.046348,0.135532,0.0833807,0
2024-12-13 15:34:39.295,0.445364,2.91117,6.19352,0.046348,0.135532,0.0833807,0
2024-12-13 15:34:39.295,0.445364,2.91117,6.19352,0.046348,0.135532,0.0833807,0
2024-12-13 15:34:39.295,0.445364,2.91117,6.19352,0.046348,0.135532,0.0833807,0
2024-12-13 15:34:39.295,0.445364,2.91117,6.19352,0.046348,0.135532,0.0833807,0
2024-12-13 15:34:39.295,0.445364,2.91117,6.19352,0.046348,0.135532,0.0833807,0
2024-12-13 15:34:39.297,0.414257,2.93988,6.22702,0.0439046,0.144694,0.0809373,0
2024-12-13 15:34:39.297,0.414257,2.93988,6.22702,0.0439046,0.144694,0.0809373,0
2024-12-13 15:34:39.297,0.414257,2.93988,6.22702,0.0439046,0.144694,0.0809373,0
2024-12-13 15:34:39.297,0.414257,2.93988,6.22702,0.0439046,0.144694,0.0809373,0
2024-12-13 15:34:39.299,0.397508,2.97577,6.26291,0.0396287,0.152025,0.0815481,0
2024-12-13 15:34:39.299,0.397508,2.97577,6.26291,0.0396287,0.152025,0.0815481,0
2024-12-13 15:34:39.299,0.397508,2.97577,6.26291,0.0396287,0.152025,0.0815481,0
2024-12-13 15:34:39.299,0.397508,2.97577,6.26291,0.0396287,0.152025,0.0815481,0
2024-12-13 15:34:39.299,0.397508,2.97577,6.26291,0.0396287,0.152025,0.0815481,0
2024-12-13 15:34:39.302,0.380758,3.01167,6.31316,0.0341311,0.159355,0.0797156,0
2024-12-13 15:34:39.302,0.380758,3.01167,6.31316,0.0341311,0.159355,0.0797156,0
2024-12-13 15:34:39.302,0.380758,3.01167,6.31316,0.0341311,0.159355,0.0797156,0
2024-12-13 15:34:39.302,0.380758,3.01167,6.31316,0.0341311,0.159355,0.0797156,0
2024-12-13 15:34:39.302,0.380758,3.01167,6.31316,0.0341311,0.159355,0.0797156,0
2024-12-13 15:34:39.304,0.347258,3.01884,6.38016,0.0274118,0.166685,0.0791047,0
2024-12-13 15:34:39.304,0.347258,3.01884,6.38016,0.0274118,0.166685,0.0791047,0
2024-12-13 15:34:39.304,0.347258,3.01884,6.38016,0.0274118,0.166685,0.0791047,0
2024-12-13 15:34:39.304,0.347258,3.01884,6.38016,0.0274118,0.166685,0.0791047,0
2024-12-13 15:34:39.307,0.328116,3.0332,6.44238,0.0243575,0.173404,0.0797156,0
2024-12-13 15:34:39.307,0.328116,3.0332,6.44238,0.0243575,0.173404,0.0797156,0
2024-12-13 15:34:39.307,0.328116,3.0332,6.44238,0.0243575,0.173404,0.0797156,0
2024-12-13 15:34:39.307,0.328116,3.0332,6.44238,0.0243575,0.173404,0.0797156,0
2024-12-13 15:34:39.307,0.328116,3.0332,6.44238,0.0243575,0.173404,0.0797156,0
2024-12-13 15:34:39.307,0.328116,3.0332,6.44238,0.0243575,0.173404,0.0797156,0
2024-12-13 15:34:39.309,0.318545,3.06909,6.51446,0.0170274,0.179513,0.0772722,0
2024-12-13 15:34:39.309,0.318545,3.06909,6.51446,0.0170274,0.179513,0.0772722,0
2024-12-13 15:34:39.309,0.318545,3.06909,6.51446,0.0170274,0.179513,0.0772722,0
2024-12-13 15:34:39.309,0.318545,3.06909,6.51446,0.0170274,0.179513,0.0772722,0
2024-12-13 15:34:39.309,0.318545,3.06909,6.51446,0.0170274,0.179513,0.0772722,0
2024-12-13 15:34:39.311,0.313759,3.08106,6.58624,0.010308,0.185621,0.077883,0
2024-12-13 15:34:39.311,0.313759,3.08106,6.58624,0.010308,0.185621,0.077883,0
2024-12-13 15:34:39.311,0.313759,3.08106,6.58624,0.010308,0.185621,0.077883,0
2024-12-13 15:34:39.311,0.313759,3.08106,6.58624,0.010308,0.185621,0.077883,0
2024-12-13 15:34:39.311,0.313759,3.08106,6.58624,0.010308,0.185621,0.077883,0
2024-12-13 15:34:39.314,0.311366,3.09571,6.66042,0.00297788,0.188675,0.0791047,0
2024-12-13 15:34:39.314,0.311366,3.09571,6.66042,0.00297788,0.188675,0.0791047,0
2024-12-13 15:34:39.314,0.311366,3.09571,6.66042,0.00297788,0.188675,0.0791047,0
2024-12-13 15:34:39.316,0.304188,3.11964,6.74178,-0.00313059,0.190508,0.0766613,0
2024-12-13 15:34:39.316,0.304188,3.11964,6.74178,-0.00313059,0.190508,0.0766613,0
2024-12-13 15:34:39.316,0.304188,3.11964,6.74178,-0.00313059,0.190508,0.0766613,0
2024-12-13 15:34:39.316,0.304188,3.11964,6.74178,-0.00313059,0.190508,0.0766613,0
2024-12-13 15:34:39.316,0.304188,3.11964,6.74178,-0.00313059,0.190508,0.0766613,0
2024-12-13 15:34:39.318,0.30658,3.15553,6.81835,-0.00984991,0.193562,0.0766613,0
2024-12-13 15:34:39.318,0.30658,3.15553,6.81835,-0.00984991,0.193562,0.0766613,0
2024-12-13 15:34:39.318,0.30658,3.15553,6.81835,-0.00984991,0.193562,0.0766613,0
2024-12-13 15:34:39.318,0.30658,3.15553,6.81835,-0.00984991,0.193562,0.0766613,0
2024-12-13 15:34:39.318,0.30658,3.15553,6.81835,-0.00984991,0.193562,0.0766613,0
2024-12-13 15:34:39.318,0.30658,3.15553,6.81835,-0.00984991,0.193562,0.0766613,0
2024-12-13 15:34:39.321,0.30658,3.18186,6.91406,-0.0159584,0.191119,0.0766613,0
2024-12-13 15:34:39.321,0.30658,3.18186,6.91406,-0.0159584,0.191119,0.0766613,0
2024-12-13 15:34:39.321,0.30658,3.18186,6.91406,-0.0159584,0.191119,0.0766613,0
2024-12-13 15:34:39.321,0.30658,3.18186,6.91406,-0.0159584,0.191119,0.0766613,0
2024-12-13 15:34:39.323,0.301795,3.19861,7.01217,-0.0238994,0.186232,0.0742179,0
2024-12-13 15:34:39.323,0.301795,3.19861,7.01217,-0.0238994,0.186232,0.0742179,0
2024-12-13 15:34:39.323,0.301795,3.19861,7.01217,-0.0238994,0.186232,0.0742179,0
2024-12-13 15:34:39.325,0.294616,3.21296,7.11057,-0.0300079,0.178291,0.0723854,0
2024-12-13 15:34:39.325,0.294616,3.21296,7.11057,-0.0300079,0.178291,0.0723854,0
2024-12-13 15:34:39.325,0.294616,3.21296,7.11057,-0.0300079,0.178291,0.0723854,0
2024-12-13 15:34:39.325,0.294616,3.21296,7.11057,-0.0300079,0.178291,0.0723854,0
2024-12-13 15:34:39.325,0.294616,3.21296,7.11057,-0.0300079,0.178291,0.0723854,0
2024-12-13 15:34:39.328,0.270389,3.22253,7.19671,-0.037338,0.167907,0.0711637,0
2024-12-13 15:34:39.328,0.270389,3.22253,7.19671,-0.037338,0.167907,0.0711637,0
2024-12-13 15:34:39.328,0.270389,3.22253,7.19671,-0.037338,0.167907,0.0711637,0
2024-12-13 15:34:39.328,0.270389,3.22253,7.19671,-0.037338,0.167907,0.0711637,0
2024-12-13 15:34:39.328,0.270389,3.22253,7.19671,-0.037338,0.167907,0.0711637,0
2024-12-13 15:34:39.328,0.270389,3.22253,7.19671,-0.037338,0.167907,0.0711637,0
2024-12-13 15:34:39.330,0.236889,3.23928,7.30678,-0.0483333,0.155079,0.069942,0
2024-12-13 15:34:39.330,0.236889,3.23928,7.30678,-0.0483333,0.155079,0.069942,0
2024-12-13 15:34:39.330,0.236889,3.23928,7.30678,-0.0483333,0.155079,0.069942,0
2024-12-13 15:34:39.330,0.236889,3.23928,7.30678,-0.0483333,0.155079,0.069942,0
2024-12-13 15:34:39.330,0.236889,3.23928,7.30678,-0.0483333,0.155079,0.069942,0
2024-12-13 15:34:39.332,0.196211,3.24407,7.45035,-0.0513875,0.142862,0.0693312,0
2024-12-13 15:34:39.332,0.196211,3.24407,7.45035,-0.0513875,0.142862,0.0693312,0
2024-12-13 15:34:39.332,0.196211,3.24407,7.45035,-0.0513875,0.142862,0.0693312,0
2024-12-13 15:34:39.332,0.196211,3.24407,7.45035,-0.0513875,0.142862,0.0693312,0
2024-12-13 15:34:39.332,0.196211,3.24407,7.45035,-0.0513875,0.142862,0.0693312,0
2024-12-13 15:34:39.332,0.196211,3.24407,7.45035,-0.0513875,0.142862,0.0693312,0
2024-12-13 15:34:39.332,0.196211,3.24407,7.45035,-0.0513875,0.142862,0.0693312,0
2024-12-13 15:34:39.335,0.150748,3.26321,7.58704,-0.0599394,0.126369,0.0705529,0
2024-12-13 15:34:39.335,0.150748,3.26321,7.58704,-0.0599394,0.126369,0.0705529,0
2024-12-13 15:34:39.335,0.150748,3.26321,7.58704,-0.0599394,0.126369,0.0705529,0
2024-12-13 15:34:39.335,0.150748,3.26321,7.58704,-0.0599394,0.126369,0.0705529,0
2024-12-13 15:34:39.335,0.150748,3.26321,7.58704,-0.0599394,0.126369,0.0705529,0
2024-12-13 15:34:39.335,0.150748,3.26321,7.58704,-0.0599394,0.126369,0.0705529,0
2024-12-13 15:34:39.337,0.131605,3.28235,7.74975,-0.0666587,0.109876,0.0736071,0
2024-12-13 15:34:39.337,0.131605,3.28235,7.74975,-0.0666587,0.109876,0.0736071,0
2024-12-13 15:34:39.337,0.131605,3.28235,7.74975,-0.0666587,0.109876,0.0736071,0
2024-12-13 15:34:39.337,0.131605,3.28235,7.74975,-0.0666587,0.109876,0.0736071,0
2024-12-13 15:34:39.340,0.133998,3.27278,7.93161,-0.0691021,0.0958267,0.0754396,0
2024-12-13 15:34:39.340,0.133998,3.27278,7.93161,-0.0691021,0.0958267,0.0754396,0
2024-12-13 15:34:39.340,0.133998,3.27278,7.93161,-0.0691021,0.0958267,0.0754396,0
2024-12-13 15:34:39.340,0.133998,3.27278,7.93161,-0.0691021,0.0958267,0.0754396,0
2024-12-13 15:34:39.340,0.133998,3.27278,7.93161,-0.0691021,0.0958267,0.0754396,0
2024-12-13 15:34:39.340,0.133998,3.27278,7.93161,-0.0691021,0.0958267,0.0754396,0
2024-12-13 15:34:39.342,0.145962,3.26082,8.10389,-0.0727672,0.0799446,0.0754396,0
2024-12-13 15:34:39.342,0.145962,3.26082,8.10389,-0.0727672,0.0799446,0.0754396,0
2024-12-13 15:34:39.342,0.145962,3.26082,8.10389,-0.0727672,0.0799446,0.0754396,0
2024-12-13 15:34:39.342,0.145962,3.26082,8.10389,-0.0727672,0.0799446,0.0754396,0
2024-12-13 15:34:39.342,0.145962,3.26082,8.10389,-0.0727672,0.0799446,0.0754396,0
2024-12-13 15:34:39.342,0.145962,3.26082,8.10389,-0.0727672,0.0799446,0.0754396,0
2024-12-13 15:34:39.342,0.145962,3.26082,8.10389,-0.0727672,0.0799446,0.0754396,0
2024-12-13 15:34:39.342,0.145962,3.26082,8.10389,-0.0727672,0.0799446,0.0754396,0
2024-12-13 15:34:39.344,0.174676,3.25364,8.31954,-0.0739889,0.0652843,0.0766613,0
2024-12-13 15:34:39.344,0.174676,3.25364,8.31954,-0.0739889,0.0652843,0.0766613,0
2024-12-13 15:34:39.344,0.174676,3.25364,8.31954,-0.0739889,0.0652843,0.0766613,0
2024-12-13 15:34:39.344,0.174676,3.25364,8.31954,-0.0739889,0.0652843,0.0766613,0
2024-12-13 15:34:39.344,0.174676,3.25364,8.31954,-0.0739889,0.0652843,0.0766613,0
2024-12-13 15:34:39.347,0.191426,3.25364,8.53011,-0.0727672,0.0536782,0.0754396,0
2024-12-13 15:34:39.347,0.191426,3.25364,8.53011,-0.0727672,0.0536782,0.0754396,0
2024-12-13 15:34:39.347,0.191426,3.25364,8.53011,-0.0727672,0.0536782,0.0754396,0
2024-12-13 15:34:39.347,0.191426,3.25364,8.53011,-0.0727672,0.0536782,0.0754396,0
2024-12-13 15:34:39.347,0.191426,3.25364,8.53011,-0.0727672,0.0536782,0.0754396,0
2024-12-13 15:34:39.349,0.208176,3.25364,8.72184,-0.0697129,0.0420721,0.0754396,0
2024-12-13 15:34:39.349,0.208176,3.25364,8.72184,-0.0697129,0.0420721,0.0754396,0
2024-12-13 15:34:39.349,0.208176,3.25364,8.72184,-0.0697129,0.0420721,0.0754396,0
2024-12-13 15:34:39.349,0.208176,3.25364,8.72184,-0.0697129,0.0420721,0.0754396,0
2024-12-13 15:34:39.349,0.208176,3.25364,8.72184,-0.0697129,0.0420721,0.0754396,0
2024-12-13 15:34:39.349,0.208176,3.25364,8.72184,-0.0697129,0.0420721,0.0754396,0
2024-12-13 15:34:39.351,0.241675,3.23928,8.91326,-0.0666587,0.0280226,0.0766613,0
2024-12-13 15:34:39.351,0.241675,3.23928,8.91326,-0.0666587,0.0280226,0.0766613,0
2024-12-13 15:34:39.351,0.241675,3.23928,8.91326,-0.0666587,0.0280226,0.0766613,0
2024-12-13 15:34:39.351,0.241675,3.23928,8.91326,-0.0666587,0.0280226,0.0766613,0
2024-12-13 15:34:39.351,0.241675,3.23928,8.91326,-0.0666587,0.0280226,0.0766613,0
2024-12-13 15:34:39.351,0.241675,3.23928,8.91326,-0.0666587,0.0280226,0.0766613,0
2024-12-13 15:34:39.351,0.241675,3.23928,8.91326,-0.0666587,0.0280226,0.0766613,0
2024-12-13 15:34:39.351,0.241675,3.23928,8.91326,-0.0666587,0.0280226,0.0766613,0
2024-12-13 15:34:39.354,0.265603,3.22493,9.09033,-0.0605502,0.014584,0.0766613,0
2024-12-13 15:34:39.354,0.265603,3.22493,9.09033,-0.0605502,0.014584,0.0766613,0
2024-12-13 15:34:39.354,0.265603,3.22493,9.09033,-0.0605502,0.014584,0.0766613,0
2024-12-13 15:34:39.354,0.265603,3.22493,9.09033,-0.0605502,0.014584,0.0766613,0
2024-12-13 15:34:39.354,0.265603,3.22493,9.09033,-0.0605502,0.014584,0.0766613,0
2024-12-13 15:34:39.354,0.265603,3.22493,9.09033,-0.0605502,0.014584,0.0766613,0
2024-12-13 15:34:39.354,0.265603,3.22493,9.09033,-0.0605502,0.014584,0.0766613,0
2024-12-13 15:34:39.355,0.265603,3.22493,9.09033,-0.0568851,0.00419957,0.077883,0
2024-12-13 15:34:39.356,0.265603,3.21775,9.27009,-0.0568851,0.00419957,0.077883,0
2024-12-13 15:34:39.356,0.265603,3.21775,9.27009,-0.0568851,0.00419957,0.077883,0
2024-12-13 15:34:39.358,0.272782,3.201,9.44477,-0.0526092,-0.00618483,0.0766613,0
2024-12-13 15:34:39.358,0.272782,3.201,9.44477,-0.0526092,-0.00618483,0.0766613,0
2024-12-13 15:34:39.358,0.272782,3.201,9.44477,-0.0526092,-0.00618483,0.0766613,0
2024-12-13 15:34:39.358,0.272782,3.201,9.44477,-0.0526092,-0.00618483,0.0766613,0
2024-12-13 15:34:39.358,0.272782,3.201,9.44477,-0.0526092,-0.00618483,0.0766613,0
2024-12-13 15:34:39.358,0.272782,3.201,9.44477,-0.0526092,-0.00618483,0.0766613,0
2024-12-13 15:34:39.359,0.272782,3.201,9.44477,-0.0526092,-0.00618483,0.0766613,0
2024-12-13 15:34:39.361,0.272782,3.1675,9.60987,-0.0422248,-0.0147367,0.0791047,0
2024-12-13 15:34:39.361,0.277567,3.1675,9.60987,-0.0422248,-0.0147367,0.0791047,0
2024-12-13 15:34:39.361,0.277567,3.1675,9.60987,-0.0422248,-0.0147367,0.0791047,0
2024-12-13 15:34:39.361,0.277567,3.1675,9.60987,-0.0422248,-0.0147367,0.0791047,0
2024-12-13 15:34:39.361,0.277567,3.1675,9.60987,-0.0422248,-0.0147367,0.0791047,0
2024-12-13 15:34:39.361,0.277567,3.1675,9.60987,-0.0422248,-0.0147367,0.0791047,0
2024-12-13 15:34:39.361,0.277567,3.1675,9.60987,-0.0422248,-0.0147367,0.0791047,0
2024-12-13 15:34:39.361,0.277567,3.1675,9.60987,-0.0422248,-0.0147367,0.0791047,0
2024-12-13 15:34:39.363,0.292223,3.14596,9.75823,-0.0306187,-0.021456,0.0827698,0
2024-12-13 15:34:39.363,0.292223,3.14596,9.75823,-0.0306187,-0.021456,0.0827698,0
2024-12-13 15:34:39.363,0.292223,3.14596,9.75823,-0.0306187,-0.021456,0.0827698,0
2024-12-13 15:34:39.363,0.292223,3.14596,9.75823,-0.0306187,-0.021456,0.0827698,0
2024-12-13 15:34:39.363,0.292223,3.14596,9.75823,-0.0306187,-0.021456,0.0827698,0
2024-12-13 15:34:39.365,0.311366,3.13161,9.89731,-0.0177909,-0.0257319,0.085824,0
2024-12-13 15:34:39.365,0.311366,3.13161,9.89731,-0.0177909,-0.0257319,0.085824,0
2024-12-13 15:34:39.365,0.311366,3.13161,9.89731,-0.0177909,-0.0257319,0.085824,0
2024-12-13 15:34:39.365,0.311366,3.13161,9.89731,-0.0177909,-0.0257319,0.085824,0
2024-12-13 15:34:39.368,0.330509,3.10529,10.0528,-0.00557398,-0.0318404,0.0919325,0
2024-12-13 15:34:39.368,0.330509,3.10529,10.0528,-0.00557398,-0.0318404,0.0919325,0
2024-12-13 15:34:39.368,0.330509,3.10529,10.0528,-0.00557398,-0.0318404,0.0919325,0
2024-12-13 15:34:39.368,0.330509,3.10529,10.0528,-0.00557398,-0.0318404,0.0919325,0
2024-12-13 15:34:39.368,0.330509,3.10529,10.0528,-0.00557398,-0.0318404,0.0919325,0
2024-12-13 15:34:39.368,0.330509,3.10529,10.0528,-0.00557398,-0.0318404,0.0919325,0
2024-12-13 15:34:39.368,0.330509,3.10529,10.0528,-0.00557398,-0.0318404,0.0919325,0
2024-12-13 15:34:39.370,0.347258,3.07388,10.2275,0.0115297,-0.0348946,0.0968193,0
2024-12-13 15:34:39.370,0.347258,3.07388,10.2275,0.0115297,-0.0348946,0.0968193,0
2024-12-13 15:34:39.370,0.347258,3.07388,10.2275,0.0115297,-0.0348946,0.0968193,0
2024-12-13 15:34:39.370,0.347258,3.07388,10.2275,0.0115297,-0.0348946,0.0968193,0
2024-12-13 15:34:39.370,0.347258,3.07388,10.2275,0.0115297,-0.0348946,0.0968193,0
2024-12-13 15:34:39.370,0.347258,3.07388,10.2275,0.0115297,-0.0348946,0.0968193,0
2024-12-13 15:34:39.370,0.347258,3.07388,10.2275,0.0115297,-0.0348946,0.0968193,0
2024-12-13 15:34:39.372,0.349651,3.05234,10.4025,0.0353528,-0.0361163,0.105371,0
2024-12-13 15:34:39.372,0.349651,3.05234,10.4025,0.0353528,-0.0361163,0.105371,0
2024-12-13 15:34:39.372,0.349651,3.05234,10.4025,0.0353528,-0.0361163,0.105371,0
2024-12-13 15:34:39.372,0.349651,3.05234,10.4025,0.0353528,-0.0361163,0.105371,0
2024-12-13 15:34:39.372,0.349651,3.05234,10.4025,0.0353528,-0.0361163,0.105371,0
2024-12-13 15:34:39.375,0.378365,3.02124,10.5509,0.0603975,-0.0379489,0.113923,0
2024-12-13 15:34:39.375,0.378365,3.02124,10.5509,0.0603975,-0.0379489,0.113923,0
2024-12-13 15:34:39.375,0.378365,3.02124,10.5509,0.0603975,-0.0379489,0.113923,0
2024-12-13 15:34:39.375,0.378365,3.02124,10.5509,0.0603975,-0.0379489,0.113923,0
2024-12-13 15:34:39.376,0.378365,3.02124,10.5509,0.0860531,-0.0397814,0.121253,0
2024-12-13 15:34:39.377,0.426222,2.99492,10.6801,0.0860531,-0.0397814,0.121253,0
2024-12-13 15:34:39.377,0.426222,2.99492,10.6801,0.0860531,-0.0397814,0.121253,0
2024-12-13 15:34:39.377,0.426222,2.99492,10.6801,0.0860531,-0.0397814,0.121253,0
2024-12-13 15:34:39.377,0.426222,2.99492,10.6801,0.0860531,-0.0397814,0.121253,0
2024-12-13 15:34:39.377,0.426222,2.99492,10.6801,0.0860531,-0.0397814,0.121253,0
2024-12-13 15:34:39.377,0.426222,2.99492,10.6801,0.0860531,-0.0397814,0.121253,0
2024-12-13 15:34:39.377,0.426222,2.99492,10.6801,0.0860531,-0.0397814,0.121253,0
2024-12-13 15:34:39.377,0.426222,2.99492,10.6801,0.0860531,-0.0397814,0.121253,0
2024-12-13 15:34:39.378,0.426222,2.99492,10.6801,0.118428,-0.0422248,0.129194,0
2024-12-13 15:34:39.380,0.469292,2.99731,10.7973,0.118428,-0.0422248,0.129194,0
2024-12-13 15:34:39.380,0.469292,2.99731,10.7973,0.118428,-0.0422248,0.129194,0
2024-12-13 15:34:39.380,0.469292,2.99731,10.7973,0.118428,-0.0422248,0.129194,0
2024-12-13 15:34:39.380,0.469292,2.99731,10.7973,0.118428,-0.0422248,0.129194,0
2024-12-13 15:34:39.380,0.469292,2.99731,10.7973,0.118428,-0.0422248,0.129194,0
2024-12-13 15:34:39.382,0.50997,3.01884,10.893,0.154468,-0.0452791,0.137212,0
2024-12-13 15:34:39.382,0.50997,3.01884,10.893,0.154468,-0.0452791,0.137212,0
2024-12-13 15:34:39.382,0.50997,3.01884,10.893,0.154468,-0.0452791,0.137212,0
2024-12-13 15:34:39.382,0.50997,3.01884,10.893,0.154468,-0.0452791,0.137212,0
2024-12-13 15:34:39.382,0.50997,3.01884,10.893,0.154468,-0.0452791,0.137212,0
2024-12-13 15:34:39.382,0.50997,3.01884,10.893,0.154468,-0.0452791,0.137212,0
2024-12-13 15:34:39.384,0.555434,3.05474,10.9436,0.191119,-0.0440574,0.144542,0
2024-12-13 15:34:39.384,0.555434,3.05474,10.9436,0.191119,-0.0440574,0.144542,0
2024-12-13 15:34:39.384,0.555434,3.05474,10.9436,0.191119,-0.0440574,0.144542,0
2024-12-13 15:34:39.384,0.555434,3.05474,10.9436,0.191119,-0.0440574,0.144542,0
2024-12-13 15:34:39.384,0.555434,3.05474,10.9436,0.191119,-0.0440574,0.144542,0
2024-12-13 15:34:39.387,0.608076,3.11246,10.9508,0.231435,-0.0428357,0.151261,0
2024-12-13 15:34:39.387,0.608076,3.11246,10.9508,0.231435,-0.0428357,0.151261,0
2024-12-13 15:34:39.387,0.608076,3.11246,10.9508,0.231435,-0.0428357,0.151261,0
2024-12-13 15:34:39.387,0.608076,3.11246,10.9508,0.231435,-0.0428357,0.151261,0
2024-12-13 15:34:39.387,0.608076,3.11246,10.9508,0.231435,-0.0428357,0.151261,0
2024-12-13 15:34:39.387,0.608076,3.11246,10.9508,0.231435,-0.0428357,0.151261,0
2024-12-13 15:34:39.387,0.608076,3.11246,10.9508,0.231435,-0.0428357,0.151261,0
2024-12-13 15:34:39.389,0.667897,3.19382,10.9217,0.272972,-0.041614,0.156759,0
2024-12-13 15:34:39.389,0.667897,3.19382,10.9217,0.272972,-0.041614,0.156759,0
2024-12-13 15:34:39.389,0.667897,3.19382,10.9217,0.272972,-0.041614,0.156759,0
2024-12-13 15:34:39.389,0.667897,3.19382,10.9217,0.272972,-0.041614,0.156759,0
2024-12-13 15:34:39.389,0.667897,3.19382,10.9217,0.272972,-0.041614,0.156759,0
2024-12-13 15:34:39.389,0.667897,3.19382,10.9217,0.272972,-0.041614,0.156759,0
2024-12-13 15:34:39.391,0.694218,3.28714,10.826,0.315732,-0.0379489,0.159813,0
2024-12-13 15:34:39.391,0.694218,3.28714,10.826,0.315732,-0.0379489,0.159813,0
2024-12-13 15:34:39.391,0.694218,3.28714,10.826,0.315732,-0.0379489,0.159813,0
2024-12-13 15:34:39.391,0.694218,3.28714,10.826,0.315732,-0.0379489,0.159813,0
2024-12-13 15:34:39.391,0.694218,3.28714,10.826,0.315732,-0.0379489,0.159813,0
2024-12-13 15:34:39.391,0.694218,3.28714,10.826,0.315732,-0.0379489,0.159813,0
2024-12-13 15:34:39.392,0.694218,3.28714,10.826,0.315732,-0.0379489,0.159813,0
2024-12-13 15:34:39.394,0.689432,3.39482,10.6992,0.352993,-0.0367272,0.165921,0
2024-12-13 15:34:39.394,0.689432,3.39482,10.6992,0.352993,-0.0367272,0.165921,0
2024-12-13 15:34:39.394,0.689432,3.39482,10.6992,0.352993,-0.0367272,0.165921,0
2024-12-13 15:34:39.394,0.689432,3.39482,10.6992,0.352993,-0.0367272,0.165921,0
2024-12-13 15:34:39.394,0.689432,3.39482,10.6992,0.352993,-0.0367272,0.165921,0
2024-12-13 15:34:39.394,0.689432,3.39482,10.6992,0.352993,-0.0367272,0.165921,0
2024-12-13 15:34:39.396,0.667897,3.49053,10.5652,0.389721,-0.033673,0.168976,0
2024-12-13 15:34:39.396,0.667897,3.49053,10.5652,0.389721,-0.033673,0.168976,0
2024-12-13 15:34:39.396,0.667897,3.49053,10.5652,0.389721,-0.033673,0.168976,0
2024-12-13 15:34:39.396,0.667897,3.49053,10.5652,0.389721,-0.033673,0.168976,0
2024-12-13 15:34:39.396,0.667897,3.49053,10.5652,0.389721,-0.033673,0.168976,0
2024-12-13 15:34:39.398,0.593719,3.59581,10.4097,0.426982,-0.0330621,0.174473,0
2024-12-13 15:34:39.398,0.593719,3.59581,10.4097,0.426982,-0.0330621,0.174473,0
2024-12-13 15:34:39.398,0.593719,3.59581,10.4097,0.426982,-0.0330621,0.174473,0
2024-12-13 15:34:39.398,0.593719,3.59581,10.4097,0.426982,-0.0330621,0.174473,0
2024-12-13 15:34:39.399,0.593719,3.59581,10.4097,0.426982,-0.0330621,0.174473,0
2024-12-13 15:34:39.401,0.495613,3.71815,10.261,0.459357,-0.0348946,0.177527,0
2024-12-13 15:34:39.405,0.325723,3.93111,10.0002,0.514944,-0.0513875,0.184247,0
2024-12-13 15:34:39.405,0.325723,3.93111,10.0002,0.514944,-0.0513875,0.184247,0
2024-12-13 15:34:39.408,0.22014,4.03639,9.89971,0.535713,-0.0684913,0.185468,0
2024-12-13 15:34:39.410,0.107677,4.13689,9.84706,0.550984,-0.0917034,0.187912,0
2024-12-13 15:34:39.413,0.0239282,4.22572,9.81805,0.557093,-0.122246,0.187912,0
2024-12-13 15:34:39.415,-0.0693919,4.33101,9.80848,0.560758,-0.152788,0.186079,0
2024-12-13 15:34:39.417,-0.16989,4.44826,9.83271,0.557093,-0.186996,0.183636,0
2024-12-13 15:34:39.420,-0.27996,4.57029,9.91167,0.554038,-0.223646,0.183025,0
2024-12-13 15:34:39.422,-0.407079,4.67318,10.0385,0.541211,-0.259686,0.184247,0
2024-12-13 15:34:39.424,-0.519542,4.75932,10.206,0.52655,-0.294505,0.185468,0
2024-12-13 15:34:39.427,-0.634397,4.82184,10.4025,0.505782,-0.330545,0.184247,0
2024-12-13 15:34:39.429,-0.742074,4.85055,10.625,0.480126,-0.364752,0.183025,0
2024-12-13 15:34:39.431,-0.833001,4.88405,10.893,0.449584,-0.398349,0.181193,0
2024-12-13 15:34:39.434,-0.936192,4.91276,11.2092,0.415376,-0.432556,0.176917,0
2024-12-13 15:34:39.436,-1.03669,4.89601,11.5708,0.377504,-0.46432,0.175695,0
2024-12-13 15:34:39.438,-1.1324,4.85773,11.9608,0.340776,-0.496695,0.176306,0
2024-12-13 15:34:39.441,-1.21376,4.83141,12.3703,0.302293,-0.530903,0.174473,0
2024-12-13 15:34:39.443,-1.25444,4.81944,12.7774,0.259534,-0.571219,0.175084,0
2024-12-13 15:34:39.446,-1.27119,4.78834,13.177,0.217996,-0.609091,0.17203,0
2024-12-13 15:34:39.448,-1.32622,4.74975,13.596,0.175848,-0.646964,0.165921,0
2024-12-13 15:34:39.450,-1.34536,4.68993,14.027,0.136753,-0.678117,0.159813,0
2024-12-13 15:34:39.453,-1.21854,4.58226,14.4341,0.0939941,-0.708048,0.153704,0
2024-12-13 15:34:39.455,-0.948156,4.46022,14.8361,0.0530674,-0.73798,0.142709,0
2024-12-13 15:34:39.457,-0.893121,4.34297,15.3006,0.0121406,-0.771576,0.12614,0
2024-12-13 15:34:39.460,-0.493221,4.2999,15.5545,-0.0245102,-0.811282,0.110869,0
2024-12-13 15:34:39.462,-0.184247,4.24008,16.0621,-0.0678804,-0.869312,0.0797156,0
2024-12-13 15:34:39.464,-0.490828,4.09382,16.8209,-0.0947577,-0.902909,0.0577251,0
2024-12-13 15:34:39.467,-0.665504,3.91436,17.3166,-0.116748,-0.932229,0.0412322,0
2024-12-13 15:34:39.469,-0.667897,3.7014,17.8265,-0.13263,-0.956052,0.0308478,0
2024-12-13 15:34:39.471,-0.562612,3.48335,18.3915,-0.140571,-0.967658,0.0229068,0
2024-12-13 15:34:39.474,-0.4669,3.24885,18.8871,-0.137517,-0.97621,0.0186308,0
2024-12-13 15:34:39.476,-0.562612,2.99013,19.3059,-0.132019,-0.975599,0.0192417,0
2024-12-13 15:34:39.478,-0.837787,2.74128,19.7082,-0.111251,-0.953609,0.0302369,0
2024-12-13 15:34:39.481,-0.852443,2.51127,19.9741,-0.0849841,-0.920623,0.0516166,2
2024-12-13 15:34:39.483,-0.610469,2.37727,20.0937,-0.0550526,-0.879696,0.0754396,0
2024-12-13 15:34:39.486,-0.576969,2.50409,19.8541,-0.021456,-0.825331,0.101706,0
2024-12-13 15:34:39.488,-0.428614,2.58574,19.6005,0.00603212,-0.755084,0.137822,0
2024-12-13 15:34:39.490,0.0167498,2.4682,19.567,0.0396287,-0.700107,0.166532,0
2024-12-13 15:34:39.493,0.352044,2.34856,19.3636,0.0775012,-0.64452,0.187301,0
2024-12-13 15:34:39.497,1.01037,2.18824,18.6619,0.151414,-0.518075,0.20807,0
2024-12-13 15:34:39.497,1.01037,2.18824,18.6619,0.151414,-0.518075,0.20807,0
2024-12-13 15:34:39.500,1.31665,2.15474,18.248,0.190508,-0.445995,0.205016,0
2024-12-13 15:34:39.502,1.54427,2.15713,17.7954,0.232656,-0.367806,0.191577,0
2024-12-13 15:34:39.504,1.68544,2.20977,17.3166,0.277248,-0.284731,0.173862,0
2024-12-13 15:34:39.507,1.68305,2.32702,16.809,0.322451,-0.191882,0.148818,0
2024-12-13 15:34:39.509,1.55862,2.48495,16.299,0.36773,-0.0929251,0.124307,0
2024-12-13 15:34:39.511,1.38604,2.67189,15.8369,0.411711,0.00725381,0.0968193,0
2024-12-13 15:34:39.516,1.18265,2.85135,15.4202,0.491732,0.166074,0.0455081,0
2024-12-13 15:34:39.516,0.950549,2.99013,15.0541,0.491732,0.166074,0.0455081,0
2024-12-13 15:34:39.519,0.701396,3.09811,14.7165,0.52655,0.221661,0.0192417,0
2024-12-13 15:34:39.526,-0.119641,3.26321,13.8236,0.596187,0.30046,-0.0314586,0
2024-12-13 15:34:39.527,-0.119641,3.26321,13.8236,0.608404,0.304736,-0.0375671,0
2024-12-13 15:34:39.528,-0.392722,3.26321,13.5697,0.608404,0.304736,-0.0375671,0
2024-12-13 15:34:39.528,-0.392722,3.26321,13.5697,0.608404,0.304736,-0.0375671,0
2024-12-13 15:34:39.530,-0.641576,3.24885,13.3496,0.61268,0.302293,-0.0400105,0
2024-12-13 15:34:39.533,-0.84018,3.2345,13.1578,0.61268,0.297406,-0.0375671,0
2024-12-13 15:34:39.535,-0.991227,3.20818,12.9855,0.606571,0.287022,-0.0351237,0
2024-12-13 15:34:39.537,-1.09651,3.18425,12.8468,0.594354,0.276027,-0.0296261,0
2024-12-13 15:34:39.540,-1.14915,3.17707,12.7534,0.579694,0.260755,-0.0229068,0
2024-12-13 15:34:39.542,-1.15155,3.18425,12.6888,0.561979,0.248538,-0.0186308,0
2024-12-13 15:34:39.544,-0.914656,3.04756,12.763,0.543043,0.231435,-0.0137441,0
2024-12-13 15:34:39.547,-0.749253,2.93749,12.7869,0.522885,0.196616,-0.025961,0
2024-12-13 15:34:39.550,-0.926621,3.11964,12.4229,0.477072,0.195395,-0.0375671,0
2024-12-13 15:34:39.551,-0.998405,3.37089,12.1334,0.477072,0.195395,-0.0375671,0
2024-12-13 15:34:39.554,-0.938585,3.51924,12.119,0.448973,0.189286,-0.0430647,0
2024-12-13 15:34:39.556,-0.926621,3.60539,12.0087,0.41782,0.178291,-0.0473407,0
2024-12-13 15:34:39.559,-0.917049,3.65354,11.8292,0.387888,0.17035,-0.0546708,0
2024-12-13 15:34:39.561,-0.828216,3.6679,11.6641,0.355437,0.162409,-0.0632227,0
2024-12-13 15:34:39.563,-0.677468,3.61496,11.5062,0.32184,0.154468,-0.0736071,0
2024-12-13 15:34:39.566,-0.52672,3.51924,11.3791,0.292519,0.144084,-0.0870457,0
2024-12-13 15:34:39.568,-0.402293,3.42832,11.2666,0.260755,0.132477,-0.107815,0
2024-12-13 15:34:39.570,-0.299402,3.34935,11.1206,0.2351,0.124536,-0.130416,0
2024-12-13 15:34:39.573,-0.236889,3.27996,10.9385,0.208833,0.121482,-0.151796,0
2024-12-13 15:34:39.575,-0.22014,3.22493,10.7399,0.185621,0.120261,-0.173786,0
2024-12-13 15:34:39.577,-0.229711,3.201,10.5556,0.162409,0.125147,-0.197609,0
2024-12-13 15:34:39.580,-0.267996,3.18664,10.3759,0.142862,0.128202,-0.214713,0
2024-12-13 15:34:39.582,-0.308973,3.16511,10.2036,0.125758,0.131867,-0.231817,0
2024-12-13 15:34:39.584,-0.335294,3.15553,10.0457,0.107433,0.136143,-0.245866,0
2024-12-13 15:34:39.587,-0.364008,3.15793,9.88056,0.0927724,0.135532,-0.259916,0
2024-12-13 15:34:39.589,-0.366401,3.15075,9.73191,0.0775012,0.133088,-0.267857,0
2024-12-13 15:34:39.592,-0.349651,3.13161,9.61705,0.0652843,0.12698,-0.275798,0
2024-12-13 15:34:39.594,-0.318545,3.12204,9.49023,0.0542891,0.119039,-0.283128,0
2024-12-13 15:34:39.596,-0.263211,3.12204,9.34427,0.0451263,0.114152,-0.291069,0
2024-12-13 15:34:39.599,-0.215354,3.10529,9.21237,0.038407,0.1056,-0.297177,0
2024-12-13 15:34:39.601,-0.160319,3.09332,9.0688,0.0298552,0.0976592,-0.302675,0
2024-12-13 15:34:39.603,-0.105284,3.09093,8.90369,0.0213033,0.0909399,-0.309394,0
2024-12-13 15:34:39.606,-0.0622134,3.1005,8.76012,0.0194708,0.0848314,-0.317335,0
2024-12-13 15:34:39.608,-0.0334995,3.12682,8.61625,0.0127514,0.0781121,-0.324054,0
2024-12-13 15:34:39.615,0.0358923,3.19621,8.15683,0.0127514,0.0781121,-0.324054,0
2024-12-13 15:34:39.617,0.0454636,3.2345,8.00818,-0.0116825,0.0591758,-0.349099,0
2024-12-13 15:34:39.617,0.0454636,3.2345,8.00818,-0.0116825,0.0591758,-0.349099,0
2024-12-13 15:34:39.617,0.0454636,3.2345,8.00818,-0.0116825,0.0591758,-0.349099,0
2024-12-13 15:34:39.620,0.0454636,3.27757,7.84786,-0.0208452,0.0518457,-0.355819,0
2024-12-13 15:34:39.622,0.0478565,3.31825,7.68993,-0.0300079,0.0445155,-0.361927,0
2024-12-13 15:34:39.624,0.0526421,3.34935,7.54367,-0.0410031,0.0408504,-0.368646,0
2024-12-13 15:34:39.627,0.0598206,3.36132,7.40728,-0.0538309,0.0353528,-0.374755,0
2024-12-13 15:34:39.629,0.0622134,3.37089,7.29243,-0.0672696,0.0341311,-0.381474,0
2024-12-13 15:34:39.632,0.0574277,3.37328,7.18475,-0.0788757,0.0298552,-0.383307,0
2024-12-13 15:34:39.634,0.066999,3.38525,7.06511,-0.0959794,0.0249684,-0.388193,0
2024-12-13 15:34:39.636,0.0765703,3.40439,6.9691,-0.111861,0.0292443,-0.392469,0
2024-12-13 15:34:39.639,0.066999,3.41635,6.89253,-0.130187,0.0231358,-0.399189,0
2024-12-13 15:34:39.642,0.0622134,3.42832,6.82792,-0.167449,0.0243575,-0.408351,0
2024-12-13 15:34:39.643,0.0646062,3.4666,6.77767,-0.167449,0.0243575,-0.408351,0
2024-12-13 15:34:39.646,0.040678,3.49292,6.73699,-0.183941,0.022525,-0.412627,0
2024-12-13 15:34:39.648,-0.00478565,3.45942,6.67956,-0.202878,0.0261901,-0.415682,0
2024-12-13 15:34:39.650,-0.0311067,3.44267,6.6006,-0.224257,0.0316877,-0.418736,0
2024-12-13 15:34:39.653,-0.0215354,3.45942,6.53839,-0.243194,0.0353528,-0.424233,0
2024-12-13 15:34:39.655,-0.0143569,3.44985,6.51685,-0.260908,0.0420721,-0.42912,0
2024-12-13 15:34:39.657,-0.0239282,3.42592,6.50967,-0.279234,0.0487914,-0.431564,0
2024-12-13 15:34:39.660,-0.0287139,3.41875,6.50728,-0.295726,0.0542891,-0.433396,0
2024-12-13 15:34:39.662,-0.0454636,3.3996,6.50728,-0.310387,0.0622301,-0.438283,0
2024-12-13 15:34:39.665,-0.0646062,3.37567,6.51207,-0.325658,0.0738362,-0.442559,0
2024-12-13 15:34:39.667,-0.0646062,3.3661,6.51685,-0.339097,0.0811663,-0.444391,0
2024-12-13 15:34:39.669,-0.0574277,3.36132,6.54317,-0.351924,0.0891073,-0.448667,0
2024-12-13 15:34:39.672,-0.0693919,3.36132,6.58864,-0.361087,0.094605,-0.451111,0
2024-12-13 15:34:39.674,-0.100499,3.36132,6.61017,-0.372082,0.101935,-0.454776,0
2024-12-13 15:34:39.676,-0.129212,3.34218,6.59582,-0.381245,0.109876,-0.454776,0
2024-12-13 15:34:39.679,-0.143569,3.32543,6.58146,-0.389797,0.116595,-0.455997,0
2024-12-13 15:34:39.681,-0.155533,3.32543,6.59821,-0.395905,0.123926,-0.456608,0
2024-12-13 15:34:39.683,-0.157926,3.31107,6.62931,-0.403846,0.128202,-0.456608,0
2024-12-13 15:34:39.686,-0.162712,3.3015,6.66042,-0.409955,0.132477,-0.455387,0
2024-12-13 15:34:39.688,-0.189033,3.2991,6.71306,-0.41362,0.136143,-0.455387,0
2024-12-13 15:34:39.690,-0.212961,3.28714,6.77288,-0.418507,0.139197,-0.454165,0
2024-12-13 15:34:39.695,-0.270389,3.27518,6.91645,-0.419728,0.142251,-0.447446,0
2024-12-13 15:34:39.695,-0.270389,3.27518,6.91645,-0.419728,0.142251,-0.447446,0
2024-12-13 15:34:39.700,-0.347258,3.29432,7.03639,-0.419728,0.14164,-0.437672,0
2024-12-13 15:34:39.700,-0.347258,3.29432,7.03639,-0.419728,0.14164,-0.437672,0
2024-12-13 15:34:39.702,-0.366401,3.32303,7.09861,-0.412398,0.139197,-0.432174,0
2024-12-13 15:34:39.705,-0.390329,3.3326,7.14407,-0.408122,0.13431,-0.427898,0
2024-12-13 15:34:39.707,-0.419043,3.33978,7.18475,-0.401403,0.131867,-0.419347,0
2024-12-13 15:34:39.709,-0.438186,3.33739,7.22543,-0.395905,0.128202,-0.413849,0
2024-12-13 15:34:39.712,-0.476471,3.34457,7.25653,-0.387354,0.122093,-0.405297,0
2024-12-13 15:34:39.714,-0.505185,3.35653,7.302,-0.378191,0.115985,-0.399189,0
2024-12-13 15:34:39.716,-0.531506,3.34457,7.3355,-0.372693,0.103157,-0.392469,0
2024-12-13 15:34:39.719,-0.584148,3.33739,7.38096,-0.362309,0.0897182,-0.382085,0
2024-12-13 15:34:39.721,-0.643968,3.335,7.43121,-0.353146,0.0781121,-0.372311,0
2024-12-13 15:34:39.723,-0.715753,3.32782,7.45992,-0.343983,0.0634518,-0.363149,0
2024-12-13 15:34:39.726,-0.780359,3.3326,7.51017,-0.343983,0.0634518,-0.363149,0
2024-12-13 15:34:39.728,-0.84018,3.34457,7.55564,-0.326269,0.0347419,-0.339936,0
2024-12-13 15:34:39.730,-0.897907,3.34935,7.59661,-0.316495,0.0188599,-0.324054,0
2024-12-13 15:34:39.733,-0.950549,3.34218,7.65165,-0.304889,0.00725381,-0.308783,0
2024-12-13 15:34:39.735,-1.00558,3.335,7.68515,-0.293894,-0.00679568,-0.29229,0
2024-12-13 15:34:39.738,-1.05583,3.3326,7.74018,-0.28412,-0.0202343,-0.272743,0
2024-12-13 15:34:39.740,-1.09173,3.31825,7.79522,-0.273736,-0.0312296,-0.255029,0
2024-12-13 15:34:39.742,-1.11087,3.29432,7.82154,-0.262741,-0.0428357,-0.235482,0
2024-12-13 15:34:39.747,-1.11087,3.21775,7.91486,-0.251745,-0.0519984,-0.217156,0
2024-12-13 15:34:39.749,-1.09412,3.18664,7.934,-0.230977,-0.0660479,-0.181116,0
2024-12-13 15:34:39.749,-1.09412,3.18664,7.934,-0.230977,-0.0660479,-0.181116,0
2024-12-13 15:34:39.752,-1.07498,3.1675,7.94118,-0.222425,-0.073378,-0.164012,0
2024-12-13 15:34:39.754,-1.04626,3.13879,7.95793,-0.213262,-0.0758214,-0.150574,0
2024-12-13 15:34:39.756,-1.0343,3.10768,7.9675,-0.209597,-0.0788757,-0.135914,0
2024-12-13 15:34:39.759,-1.02951,3.1005,7.99382,-0.202267,-0.0819299,-0.123697,0
2024-12-13 15:34:39.761,-1.02951,3.09571,8.02732,-0.201045,-0.0849841,-0.109647,0
2024-12-13 15:34:39.763,-1.05583,3.0667,8.04407,-0.198602,-0.0880384,-0.0962084,0
2024-12-13 15:34:39.766,-1.08933,3.02842,8.06082,-0.194937,-0.0923143,-0.0827698,0
2024-12-13 15:34:39.768,-1.12522,3.01406,8.08475,-0.197991,-0.0953685,-0.0705529,0
2024-12-13 15:34:39.771,-1.17069,2.99731,8.12782,-0.196769,-0.0996445,-0.0583359,0
2024-12-13 15:34:39.773,-1.21376,2.96381,8.18794,-0.194937,-0.105753,-0.0442864,0
2024-12-13 15:34:39.775,-1.23529,2.92792,8.24298,-0.194326,-0.108807,-0.0302369,0
2024-12-13 15:34:39.778,-1.23529,2.89203,8.29322,-0.196769,-0.114305,-0.0167983,0
2024-12-13 15:34:39.780,-1.23051,2.86331,8.34587,-0.196158,-0.116748,-0.00580305,0
2024-12-13 15:34:39.782,-1.22094,2.84178,8.40329,-0.196158,-0.119802,0.0051922,0
2024-12-13 15:34:39.785,-1.1994,2.81067,8.45354,-0.195547,-0.121635,0.0161875,0
2024-12-13 15:34:39.787,-1.17787,2.7676,8.49661,-0.195547,-0.123468,0.0265719,0
2024-12-13 15:34:39.789,-1.1659,2.74128,8.54686,-0.196769,-0.122857,0.0351237,0
2024-12-13 15:34:39.794,-1.15872,2.72453,8.61386,-0.194326,-0.120413,0.0510057,0
2024-12-13 15:34:39.794,-1.15394,2.69821,8.69043,-0.194326,-0.120413,0.0510057,0
2024-12-13 15:34:39.799,-1.1324,2.62881,8.80319,-0.188217,-0.114916,0.0607793,0
2024-12-13 15:34:39.799,-1.1324,2.62881,8.80319,-0.188217,-0.114916,0.0607793,0
2024-12-13 15:34:39.801,-1.10848,2.60249,8.84387,-0.185163,-0.111861,0.0687203,0
2024-12-13 15:34:39.803,-1.09412,2.57617,8.91326,-0.180276,-0.108807,0.0729962,0
2024-12-13 15:34:39.806,-1.08933,2.55224,8.9683,-0.174168,-0.106364,0.0760505,0
2024-12-13 15:34:39.809,-1.07258,2.53549,9.03051,-0.157064,-0.100866,0.0833807,0
2024-12-13 15:34:39.811,-1.04387,2.4993,9.0999,-0.157064,-0.100866,0.0833807,0
2024-12-13 15:34:39.813,-1.0319,2.47537,9.15015,-0.149734,-0.0972011,0.0864349,0
2024-12-13 15:34:39.815,-1.02712,2.4658,9.18605,-0.137517,-0.0923143,0.0870457,0
2024-12-13 15:34:39.818,-0.99362,2.46102,9.21715,-0.124689,-0.0874275,0.0901,0
2024-12-13 15:34:39.820,-0.962513,2.44905,9.23869,-0.11064,-0.081319,0.0894891,0
2024-12-13 15:34:39.822,-0.945763,2.42513,9.24347,-0.0953685,-0.0752106,0.0870457,0
2024-12-13 15:34:39.825,-0.931406,2.40359,9.25065,-0.0819299,-0.0703238,0.0864349,0
2024-12-13 15:34:39.827,-0.909871,2.38684,9.24347,-0.065437,-0.065437,0.0852132,0
2024-12-13 15:34:39.829,-0.878764,2.37248,9.22912,-0.049555,-0.0617719,0.0815481,0
2024-12-13 15:34:39.832,-0.854836,2.35095,9.22912,-0.0348946,-0.0587177,0.077883,0
2024-12-13 15:34:39.834,-0.842872,2.33659,9.21476,-0.0147367,-0.0568851,0.0742179,0
2024-12-13 15:34:39.836,-0.825823,2.31984,9.17169,0.00114534,-0.057496,0.069942,0
2024-12-13 15:34:39.839,-0.80668,2.3007,9.11905,0.0182491,-0.0593285,0.0650552,0
2024-12-13 15:34:39.841,-0.789931,2.27199,9.06401,0.0353528,-0.0629936,0.0589468,0
2024-12-13 15:34:39.846,-0.727717,2.24566,8.92044,0.0658951,-0.0709346,0.0467298,0
2024-12-13 15:34:39.846,-0.727717,2.24566,8.92044,0.0658951,-0.0709346,0.0467298,0
2024-12-13 15:34:39.848,-0.701396,2.22174,8.84148,0.0842206,-0.0800973,0.0406213,0
2024-12-13 15:34:39.851,-0.691825,2.21934,8.75055,0.0982701,-0.0892601,0.0332912,0
2024-12-13 15:34:39.853,-0.665504,2.21934,8.6665,0.11232,-0.0990336,0.025961,0
2024-12-13 15:34:39.855,-0.632004,2.21695,8.58993,0.125758,-0.11064,0.0167983,0
2024-12-13 15:34:39.860,-0.581755,2.21216,8.43679,0.15569,-0.135684,-0.00152712,0
2024-12-13 15:34:39.860,-0.581755,2.21216,8.43679,0.15569,-0.135684,-0.00152712,0
2024-12-13 15:34:39.862,-0.562612,2.21456,8.35304,0.169128,-0.147901,-0.00824644,0
2024-12-13 15:34:39.865,-0.545863,2.23131,8.25733,0.182567,-0.16134,-0.0186308,0
2024-12-13 15:34:39.867,-0.524327,2.25524,8.1688,0.197838,-0.173557,-0.0277936,0
2024-12-13 15:34:39.869,-0.50997,2.26959,8.08714,0.211888,-0.185163,-0.0369563,0
2024-12-13 15:34:39.872,-0.495613,2.28395,7.95314,0.22777,-0.195547,-0.0467298,0
2024-12-13 15:34:39.876,-0.447757,2.34377,7.68515,0.249149,-0.214484,-0.0662769,0
2024-12-13 15:34:39.876,-0.447757,2.34377,7.68515,0.249149,-0.214484,-0.0662769,0
2024-12-13 15:34:39.879,-0.447757,2.37009,7.54607,0.261977,-0.222425,-0.0766613,0
2024-12-13 15:34:39.881,-0.440578,2.39163,7.42164,0.270529,-0.227922,-0.085824,0
2024-12-13 15:34:39.886,-0.440578,2.41795,7.15125,0.284578,-0.237085,-0.106593,0
2024-12-13 15:34:39.886,-0.440578,2.41795,7.15125,0.284578,-0.237085,-0.106593,0
2024-12-13 15:34:39.888,-0.440578,2.4347,7.01217,0.290076,-0.239528,-0.116977,0
2024-12-13 15:34:39.891,-0.431007,2.44905,6.87099,0.292519,-0.237696,-0.129805,0
2024-12-13 15:34:39.893,-0.411865,2.4658,6.73939,0.294963,-0.236474,-0.139579,0
2024-12-13 15:34:39.895,-0.404686,2.47537,6.61257,0.295574,-0.232198,-0.150574,0
2024-12-13 15:34:39.900,-0.387936,2.49691,6.38256,0.291298,-0.221203,-0.172564,0
2024-12-13 15:34:39.900,-0.387936,2.49691,6.38256,0.291298,-0.221203,-0.172564,0
2024-12-13 15:34:39.902,-0.392722,2.50648,6.24377,0.290076,-0.212651,-0.181116,0
2024-12-13 15:34:39.907,-0.428614,2.50409,6.00688,0.277248,-0.196158,-0.197609,0
2024-12-13 15:34:39.907,-0.428614,2.50409,6.00688,0.277248,-0.196158,-0.197609,0
2024-12-13 15:34:39.909,-0.435793,2.50887,5.88694,0.268696,-0.188217,-0.204328,0
2024-12-13 15:34:39.912,-0.419043,2.54507,5.77687,0.258312,-0.180887,-0.208604,0
2024-12-13 15:34:39.914,-0.421436,2.55703,5.68834,0.247317,-0.176,-0.214102,0
2024-12-13 15:34:39.917,-0.440578,2.56421,5.62612,0.237543,-0.167449,-0.218378,0
2024-12-13 15:34:39.919,-0.462114,2.59292,5.60698,0.226548,-0.158897,-0.218378,0
2024-12-13 15:34:39.921,-0.495613,2.59053,5.57348,0.216774,-0.150956,-0.218989,0
2024-12-13 15:34:39.924,-0.507577,2.57378,5.52802,0.20639,-0.141182,-0.217767,0
2024-12-13 15:34:39.926,-0.490828,2.59053,5.48734,0.196006,-0.129576,-0.215935,0
2024-12-13 15:34:39.928,-0.4669,2.61924,5.48016,0.185621,-0.115526,-0.214102,0
2024-12-13 15:34:39.931,-0.442971,2.64556,5.48734,0.174626,-0.104531,-0.21288,0
2024-12-13 15:34:39.933,-0.421436,2.67189,5.47538,0.167296,-0.0898709,-0.212269,0
2024-12-13 15:34:39.935,-0.414257,2.69103,5.45623,0.15569,-0.0764323,-0.213491,0
2024-12-13 15:34:39.940,-0.431007,2.7341,5.38206,0.139197,-0.0471116,-0.209215,0
2024-12-13 15:34:39.940,-0.431007,2.7341,5.38206,0.139197,-0.0471116,-0.209215,0
2024-12-13 15:34:39.942,-0.371187,2.77238,5.31954,0.130034,-0.0330621,-0.209215,0
2024-12-13 15:34:39.945,-0.318545,2.81067,5.28604,0.117817,-0.0220669,-0.209826,0
2024-12-13 15:34:39.947,-0.30658,2.8346,5.28604,0.103768,-0.00984991,-0.207993,0
2024-12-13 15:34:39.950,-0.325723,2.85135,5.28604,0.0933833,0.00481042,-0.209826,0
2024-12-13 15:34:39.952,-0.342473,2.88963,5.28844,0.0811663,0.0158057,-0.209826,0
2024-12-13 15:34:39.954,-0.359223,2.94467,5.30279,0.0701711,0.0255792,-0.211048,0
2024-12-13 15:34:39.957,-0.409472,2.96381,5.31476,0.0555107,0.0335202,-0.210437,0
2024-12-13 15:34:39.959,-0.457328,2.97338,5.30997,0.0408504,0.0439046,-0.210437,0
2024-12-13 15:34:39.961,-0.502792,3.02124,5.30519,0.0268009,0.0542891,-0.210437,0
2024-12-13 15:34:39.964,-0.536291,3.06431,5.34856,0.0109189,0.0646735,-0.209826,0
2024-12-13 15:34:39.966,-0.572184,3.09332,5.41077,-0.00313059,0.0732253,-0.208604,0
2024-12-13 15:34:39.968,-0.632004,3.13879,5.45863,-0.0226777,0.0793338,-0.209826,0
2024-12-13 15:34:39.971,-0.701396,3.19382,5.50409,-0.0397814,0.086664,-0.206161,0
2024-12-13 15:34:39.973,-0.775574,3.24168,5.57348,-0.0568851,0.0927724,-0.206161,0
2024-12-13 15:34:39.975,-0.828216,3.28714,5.64766,-0.0739889,0.100713,-0.204328,0
2024-12-13 15:34:39.978,-0.869193,3.32064,5.71466,-0.0904818,0.108044,-0.204328,0
2024-12-13 15:34:39.980,-0.917049,3.34696,5.77687,-0.108807,0.115374,-0.203107,0
2024-12-13 15:34:39.982,-0.952942,3.37567,5.85584,-0.125911,0.122093,-0.201274,0
2024-12-13 15:34:39.985,-0.957727,3.3996,5.94945,-0.144236,0.128812,-0.201885,0
2024-12-13 15:34:39.987,-0.924228,3.42592,6.03799,-0.163173,0.132477,-0.204939,0
2024-12-13 15:34:39.990,-0.933799,3.45464,6.15763,-0.179665,0.13431,-0.206772,0
2024-12-13 15:34:39.993,-0.964906,3.46182,6.30359,-0.216316,0.133699,-0.21288,0
2024-12-13 15:34:39.994,-0.991227,3.46421,6.44238,-0.216316,0.133699,-0.21288,0
2024-12-13 15:34:39.997,-1.02233,3.47617,6.58385,-0.231587,0.129423,-0.214713,0
2024-12-13 15:34:40.000,-1.04865,3.49053,6.74656,-0.268238,0.108044,-0.223265,0
2024-12-13 15:34:40.001,-1.09412,3.5001,6.90449,-0.268238,0.108044,-0.223265,0
2024-12-13 15:34:40.004,-1.14437,3.49292,7.06989,-0.286564,0.094605,-0.225097,0
2024-12-13 15:34:40.006,-1.19222,3.48096,7.26611,-0.304278,0.0793338,-0.226319,0
2024-12-13 15:34:40.008,-1.22333,3.48096,7.46232,-0.321382,0.0640626,-0.228762,0
2024-12-13 15:34:40.011,-1.24247,3.49053,7.66361,-0.336042,0.050624,-0.231817,0
2024-12-13 15:34:40.013,-1.24247,3.49053,7.87418,-0.351314,0.0365745,-0.233649,0
2024-12-13 15:34:40.015,-1.24008,3.4666,8.10629,-0.364752,0.0188599,-0.235482,0
2024-12-13 15:34:40.018,-1.22572,3.4331,8.37697,-0.37758,0.00236703,-0.237925,0
2024-12-13 15:34:40.020,-1.1994,3.39003,8.66172,-0.387964,-0.0147367,-0.24159,0
2024-12-13 15:34:40.025,-1.18744,3.34457,9.24826,-0.402625,-0.0544418,-0.249531,0
2024-12-13 15:34:40.025,-1.19462,3.28714,9.24826,-0.402625,-0.0544418,-0.249531,0
2024-12-13 15:34:40.027,-1.20658,3.22971,9.57638,-0.407511,-0.0764323,-0.252585,0
2024-12-13 15:34:40.030,-1.20897,3.201,9.90928,-0.409344,-0.0990336,-0.253196,0
2024-12-13 15:34:40.032,-1.20897,3.16989,10.2491,-0.405068,-0.116748,-0.253196,0
2024-12-13 15:34:40.034,-1.20658,3.14118,10.5987,-0.397738,-0.134463,-0.251364,0
2024-12-13 15:34:40.037,-1.2018,3.134,10.9436,-0.390408,-0.149123,-0.250142,0
2024-12-13 15:34:40.039,-1.18265,3.14596,11.2714,-0.375137,-0.161951,-0.244644,0
2024-12-13 15:34:40.041,-1.13001,3.16271,11.5804,-0.355589,-0.170503,-0.242812,0
2024-12-13 15:34:40.044,-1.07258,3.18903,11.8771,-0.331156,-0.174168,-0.240979,0
2024-12-13 15:34:40.046,-1.01755,3.2656,12.1334,-0.307333,-0.173557,-0.237925,0
2024-12-13 15:34:40.048,-0.97687,3.37328,12.3392,-0.277401,-0.165005,-0.235482,0
2024-12-13 15:34:40.051,-0.955334,3.46421,12.5306,-0.244415,-0.152788,-0.232427,0
2024-12-13 15:34:40.053,-0.950549,3.57428,12.7008,-0.208375,-0.133852,-0.230595,0
2024-12-13 15:34:40.055,-0.964906,3.70379,12.8181,-0.171114,-0.114305,-0.226319,0
2024-12-13 15:34:40.058,-1.00319,3.81625,12.909,-0.131409,-0.0904818,-0.220821,0
2024-12-13 15:34:40.060,-1.03908,3.90718,12.9903,-0.0929251,-0.065437,-0.217156,0
2024-12-13 15:34:40.063,-1.08694,3.98854,13.0286,-0.0544418,-0.0440574,-0.211048,0
2024-12-13 15:34:40.065,-1.11326,4.08186,13.0167,-0.0165692,-0.0263428,-0.204939,0
2024-12-13 15:34:40.067,-1.11565,4.16082,12.9951,0.0170274,-0.0159584,-0.198831,0
2024-12-13 15:34:40.070,-1.12044,4.24247,12.9568,0.0469589,-0.00740652,-0.195166,0
2024-12-13 15:34:40.072,-1.12044,4.3334,12.9114,0.0750579,-0.00435229,-0.192111,0
2024-12-13 15:34:40.074,-1.12522,4.38844,12.8755,0.0964375,-0.00496313,-0.190279,0
2024-12-13 15:34:40.077,-1.12283,4.40997,12.8659,0.115985,-0.00862822,-0.186614,0
2024-12-13 15:34:40.079,-1.11805,4.43869,12.8755,0.115985,-0.00862822,-0.186614,0
2024-12-13 15:34:40.081,-1.12044,4.46261,12.9138,0.139808,-0.0226777,-0.182338,0
2024-12-13 15:34:40.086,-1.17069,4.47219,13.1004,0.151414,-0.0410031,-0.17684,0
2024-12-13 15:34:40.087,-1.17069,4.47219,13.1004,0.154468,-0.0471116,-0.171343,0
2024-12-13 15:34:40.091,-1.19462,4.49133,13.4429,0.153246,-0.0519984,-0.164012,0
2024-12-13 15:34:40.091,-1.19462,4.49133,13.4429,0.153246,-0.0519984,-0.164012,0
2024-12-13 15:34:40.096,-1.12762,4.55833,13.9026,0.153246,-0.0526092,-0.14813,0
2024-12-13 15:34:40.096,-1.12762,4.55833,13.9026,0.153246,-0.0526092,-0.14813,0
2024-12-13 15:34:40.098,-1.07976,4.60379,14.1634,0.151414,-0.0471116,-0.137135,0
2024-12-13 15:34:40.100,-1.01276,4.64925,14.4269,0.147749,-0.0385597,-0.125529,0
2024-12-13 15:34:40.103,-0.933799,4.67558,14.6734,0.142251,-0.0269536,-0.114534,0
2024-12-13 15:34:40.105,-0.811466,4.70429,14.9297,0.137975,-0.0141258,-0.101095,0
2024-12-13 15:34:40.110,-0.517149,4.79552,15.3437,0.119039,-0.00251974,-0.0846023,0
2024-12-13 15:34:40.110,-0.517149,4.79552,15.3437,0.119039,-0.00251974,-0.0846023,0
2024-12-13 15:34:40.112,-0.864407,4.83141,15.7173,0.113541,0.0188599,-0.0662769,0
2024-12-13 15:34:40.114,-0.804287,4.82902,15.9111,0.100713,0.0390179,-0.0436756,0
2024-12-13 15:34:40.117,-0.641576,4.79312,16.177,0.0915507,0.058565,-0.0241285,0
2024-12-13 15:34:40.119,-0.3999,4.74497,16.4857,0.0829989,0.0799446,-0.00274881,0
2024-12-13 15:34:40.124,0.107677,4.59183,16.8544,0.0628409,0.117206,0.0241285,0
2024-12-13 15:34:40.124,0.107677,4.59183,16.8544,0.0628409,0.117206,0.0241285,0
2024-12-13 15:34:40.126,0.301795,4.51526,17.0483,0.0530674,0.136753,0.0345129,0
2024-12-13 15:34:40.128,0.4334,4.45783,17.1538,0.0439046,0.157522,0.0430647,0
2024-12-13 15:34:40.131,0.442971,4.40758,17.2902,0.0347419,0.178902,0.0534491,0
2024-12-13 15:34:40.133,0.41665,4.37169,17.4506,0.0261901,0.201503,0.0650552,0
2024-12-13 15:34:40.136,0.423829,4.32622,17.5511,0.0206925,0.222883,0.0791047,0
2024-12-13 15:34:40.138,0.41665,4.24008,17.6492,0.0188599,0.246095,0.0943759,0
2024-12-13 15:34:40.140,0.423829,4.15125,17.7141,0.0164165,0.269307,0.109647,0
2024-12-13 15:34:40.143,0.454935,4.06511,17.726,0.0164165,0.290076,0.129194,2
2024-12-13 15:34:40.145,0.462114,3.97179,17.7021,0.0188599,0.310234,0.146985,0
2024-12-13 15:34:40.147,0.459721,3.89522,17.6587,0.0243575,0.330392,0.164089,0
2024-12-13 15:34:40.150,0.4334,3.84975,17.5822,0.0274118,0.35055,0.182414,0
2024-12-13 15:34:40.153,0.3999,3.81625,17.4697,0.0469589,0.382925,0.212957,0
2024-12-13 15:34:40.154,0.354437,3.81147,17.3357,0.0469589,0.382925,0.212957,0
2024-12-13 15:34:40.157,0.277567,3.81625,17.1658,0.0579541,0.393309,0.23006,0
2024-12-13 15:34:40.159,0.200997,3.82343,16.9765,0.0658951,0.400029,0.242888,0
2024-12-13 15:34:40.161,0.081356,3.82582,16.7755,0.0756687,0.400639,0.256327,0
2024-12-13 15:34:40.164,-0.0574277,3.8019,16.5793,0.0829989,0.395753,0.268544,0
2024-12-13 15:34:40.166,-0.155533,3.77797,16.4091,0.0915507,0.384147,0.277706,0
2024-12-13 15:34:40.169,-0.241675,3.74208,16.2583,0.0994917,0.371319,0.288091,0
2024-12-13 15:34:40.171,-0.292223,3.69183,16.1124,0.106822,0.351772,0.297254,0
2024-12-13 15:34:40.173,-0.267996,3.65593,15.9541,0.110487,0.332835,0.304584,0
2024-12-13 15:34:40.176,-0.229711,3.60299,15.8082,0.115985,0.310234,0.306416,0
2024-12-13 15:34:40.178,-0.18664,3.52882,15.6933,0.115985,0.286411,0.303973,0
2024-12-13 15:34:40.180,-0.155533,3.4666,15.5737,0.117206,0.260755,0.299086,0
2024-12-13 15:34:40.183,-0.148355,3.38285,15.4397,0.117817,0.232656,0.292367,0
2024-12-13 15:34:40.185,-0.145962,3.2991,15.2934,0.114763,0.210055,0.283204,0
2024-12-13 15:34:40.187,-0.325723,3.17228,15.0876,0.110487,0.188675,0.276485,0
2024-12-13 15:34:40.190,-0.349651,3.09571,14.8457,0.104989,0.18501,0.270376,0
2024-12-13 15:34:40.192,-0.0765703,3.07867,14.7428,0.0988809,0.180734,0.263046,0
2024-12-13 15:34:40.194,0.066999,3.00927,14.8193,0.0891073,0.157522,0.255716,0
2024-12-13 15:34:40.197,0.0358923,2.92074,14.8819,0.0811663,0.120261,0.246553,0
2024-12-13 15:34:40.199,-0.0837488,2.82981,14.8026,0.0738362,0.0854423,0.239834,0
2024-12-13 15:34:40.202,-0.174676,2.76042,14.6255,0.0658951,0.0573433,0.237391,0
2024-12-13 15:34:40.204,-0.193819,2.70539,14.4317,0.0591758,0.0359636,0.233725,0
2024-12-13 15:34:40.206,-0.157926,2.66471,14.2472,0.0524565,0.0231358,0.233115,0
2024-12-13 15:34:40.210,-0.102891,2.6336,14.051,0.0414613,0.0127514,0.229449,0
2024-12-13 15:34:40.211,-0.0574277,2.59532,13.838,0.0414613,0.0127514,0.229449,0
2024-12-13 15:34:40.213,-0.0191426,2.55703,13.6295,0.0347419,0.0158057,0.226395,0
2024-12-13 15:34:40.216,0.0287139,2.51605,13.4309,0.0298552,0.014584,0.223952,0
2024-12-13 15:34:40.218,0.0837488,2.49212,13.2323,0.0249684,0.0133623,0.219676,0
2024-12-13 15:34:40.220,0.138784,2.47059,13.0573,0.0213033,0.0096972,0.216622,0
2024-12-13 15:34:40.223,0.162712,2.44188,12.8922,0.0219141,0.00297788,0.211735,0
2024-12-13 15:34:40.225,0.181855,2.42991,12.6912,0.0231358,0.000534491,0.209902,0
2024-12-13 15:34:40.227,0.22014,2.4323,12.4852,0.0268009,-0.00374144,0.20807,0
2024-12-13 15:34:40.230,0.244068,2.4323,12.2961,0.030466,-0.00984991,0.206848,0
2024-12-13 15:34:40.232,0.251246,2.44905,12.076,0.0377962,-0.013515,0.206848,0
2024-12-13 15:34:40.234,0.246461,2.44666,11.8292,0.0481806,-0.0184018,0.207459,0
2024-12-13 15:34:40.237,0.234497,2.44188,11.5875,0.0579541,-0.0220669,0.210513,0
2024-12-13 15:34:40.239,0.224925,2.44188,11.3408,0.0732253,-0.0269536,0.212957,0
2024-12-13 15:34:40.242,0.229711,2.4347,11.08,0.086664,-0.0318404,0.216011,0
2024-12-13 15:34:40.244,0.229711,2.44188,10.8069,0.101324,-0.0379489,0.220898,0
2024-12-13 15:34:40.246,0.229711,2.42991,10.5532,0.117817,-0.0428357,0.223341,0
2024-12-13 15:34:40.249,0.22014,2.41077,10.3089,0.13431,-0.0507767,0.23006,0
2024-12-13 15:34:40.251,0.20339,2.40359,10.0552,0.150803,-0.0587177,0.234336,0
2024-12-13 15:34:40.253,0.208176,2.4012,9.80369,0.167907,-0.0672696,0.242277,0
2024-12-13 15:34:40.256,0.215354,2.41555,9.55484,0.186232,-0.0788757,0.247775,0
2024-12-13 15:34:40.258,0.212961,2.42991,9.30838,0.204557,-0.0904818,0.255716,0
2024-12-13 15:34:40.260,0.210568,2.43709,9.06641,0.22105,-0.102088,0.2661,0
2024-12-13 15:34:40.263,0.215354,2.44427,8.8343,0.239376,-0.112472,0.275263,0
2024-12-13 15:34:40.265,0.210568,2.43948,8.63061,0.258312,-0.124689,0.283815,0
2024-12-13 15:34:40.267,0.205783,2.44188,8.43679,0.277248,-0.136295,0.29481,0
2024-12-13 15:34:40.270,0.217747,2.45623,8.22862,0.297406,-0.148512,0.305195,0
2024-12-13 15:34:40.272,0.232104,2.48734,8.01297,0.316343,-0.158897,0.314968,0
2024-12-13 15:34:40.275,0.246461,2.51605,7.80958,0.334668,-0.171114,0.327185,0
2024-12-13 15:34:40.278,0.251246,2.52832,7.6014,0.36773,-0.186996,0.347954,0
2024-12-13 15:34:40.279,0.248854,2.53071,7.4001,0.36773,-0.186996,0.347954,0
2024-12-13 15:34:40.282,0.258425,2.54028,7.21586,0.384223,-0.196769,0.357117,0
2024-12-13 15:34:40.284,0.267996,2.57617,7.04118,0.401327,-0.200434,0.366279,0
2024-12-13 15:34:40.286,0.277567,2.58335,6.87578,0.415987,-0.20471,0.376053,0
2024-12-13 15:34:40.289,0.297009,2.57857,6.70828,0.428204,-0.208375,0.385216,0
2024-12-13 15:34:40.291,0.32333,2.58814,6.54078,0.439199,-0.21143,0.393767,0
2024-12-13 15:34:40.293,0.347258,2.6001,6.35145,0.450194,-0.212651,0.404152,0
2024-12-13 15:34:40.296,0.368794,2.62403,6.16481,0.458746,-0.215095,0.409039,0
2024-12-13 15:34:40.298,0.395115,2.64556,5.99492,0.463633,-0.213873,0.41698,0
2024-12-13 15:34:40.300,0.431007,2.65514,5.83909,0.466687,-0.21143,0.421866,0
2024-12-13 15:34:40.303,0.4669,2.67667,5.70269,0.46852,-0.210819,0.429807,0
2024-12-13 15:34:40.305,0.488435,2.69581,5.55913,0.466687,-0.205932,0.432862,0
2024-12-13 15:34:40.307,0.500399,2.72213,5.42991,0.462411,-0.203488,0.437138,0
2024-12-13 15:34:40.310,0.519542,2.74367,5.30758,0.456303,-0.196769,0.442635,0
2024-12-13 15:34:40.312,0.536291,2.75803,5.17597,0.44714,-0.189439,0.445079,0
2024-12-13 15:34:40.317,0.533899,2.82024,4.97976,0.420874,-0.169892,0.454852,0
2024-12-13 15:34:40.317,0.533899,2.82024,4.97976,0.420874,-0.169892,0.454852,0
2024-12-13 15:34:40.319,0.541077,2.85135,4.88884,0.405603,-0.158897,0.456685,0
2024-12-13 15:34:40.324,0.562612,2.85853,4.81705,0.363989,-0.134463,0.461571,0
2024-12-13 15:34:40.324,0.600898,2.88485,4.72104,0.363989,-0.134463,0.461571,0
2024-12-13 15:34:40.326,0.62004,2.92792,4.62054,0.340166,-0.122857,0.463404,0
2024-12-13 15:34:40.329,0.632004,2.95185,4.54158,0.312677,-0.111251,0.464015,0
2024-12-13 15:34:40.331,0.639183,2.96381,4.49133,0.283968,-0.0984228,0.464015,0
2024-12-13 15:34:40.333,0.63679,2.99013,4.46261,0.254036,-0.085595,0.466458,0
2024-12-13 15:34:40.336,0.632004,3.01406,4.43629,0.222883,-0.0703238,0.468291,0
2024-12-13 15:34:40.338,0.627219,3.0332,4.42672,0.191119,-0.0532201,0.465847,0
2024-12-13 15:34:40.341,0.63679,3.06431,4.41715,0.156301,-0.0342838,0.467069,0
2024-12-13 15:34:40.343,0.648754,3.09332,4.40997,0.123315,-0.0147367,0.46768,0
2024-12-13 15:34:40.345,0.667897,3.10289,4.41954,0.0878856,0.00419957,0.466458,0
2024-12-13 15:34:40.348,0.696611,3.11964,4.44826,0.0530674,0.0268009,0.463404,0
2024-12-13 15:34:40.350,0.703789,3.13639,4.48176,0.0170274,0.0475697,0.460961,0
2024-12-13 15:34:40.352,0.687039,3.14357,4.51286,0.0170274,0.0475697,0.460961,0
2024-12-13 15:34:40.355,0.670289,3.15553,4.54397,-0.0526092,0.0927724,0.457906,0
2024-12-13 15:34:40.359,0.629611,3.18664,4.63968,-0.11797,0.145305,0.450576,0
2024-12-13 15:34:40.359,0.629611,3.18664,4.63968,-0.11797,0.145305,0.450576,0
2024-12-13 15:34:40.362,0.605683,3.19621,4.7019,-0.150345,0.172183,0.448133,0
2024-12-13 15:34:40.364,0.586541,3.19621,4.79073,-0.180276,0.197838,0.445079,0
2024-12-13 15:34:40.366,0.567398,3.18903,4.87209,-0.210208,0.226548,0.443246,0
2024-12-13 15:34:40.369,0.54347,3.18903,4.96301,-0.238918,0.250982,0.441413,0
2024-12-13 15:34:40.371,0.524327,3.19861,5.05633,-0.26213,0.276027,0.436527,0
2024-12-13 15:34:40.373,0.505185,3.19621,5.15683,-0.287175,0.29985,0.434083,0
2024-12-13 15:34:40.376,0.4669,3.20339,5.27647,-0.309776,0.319397,0.429807,0
2024-12-13 15:34:40.378,0.431007,3.22253,5.39402,-0.331766,0.334057,0.424921,0
2024-12-13 15:34:40.380,0.395115,3.22253,5.52563,-0.352535,0.351161,0.421866,0
2024-12-13 15:34:40.383,0.373579,3.22014,5.65723,-0.367806,0.362156,0.418201,0
2024-12-13 15:34:40.385,0.354437,3.23689,5.78405,-0.382467,0.370708,0.411482,0
2024-12-13 15:34:40.388,0.330509,3.25125,5.92074,-0.39957,0.376816,0.405374,0
2024-12-13 15:34:40.390,0.325723,3.25843,6.07149,-0.414842,0.377427,0.398043,0
2024-12-13 15:34:40.392,0.318545,3.25843,6.22224,-0.426448,0.378038,0.393157,0
2024-12-13 15:34:40.395,0.325723,3.25364,6.36581,-0.438054,0.376206,0.385826,0
2024-12-13 15:34:40.397,0.347258,3.25843,6.47857,-0.448438,0.373762,0.375442,0
2024-12-13 15:34:40.399,0.35683,3.26321,6.58864,-0.460655,0.370097,0.365058,0
2024-12-13 15:34:40.402,0.368794,3.27278,6.71546,-0.47104,0.364599,0.354673,0
2024-12-13 15:34:40.404,0.383151,3.27757,6.84706,-0.482035,0.356658,0.343067,0
2024-12-13 15:34:40.406,0.383151,3.25125,6.97627,-0.49303,0.346885,0.333294,0
2024-12-13 15:34:40.409,0.380758,3.22732,7.09621,-0.505247,0.335279,0.318633,0
2024-12-13 15:34:40.411,0.383151,3.22014,7.21825,-0.518075,0.323062,0.309471,0
2024-12-13 15:34:40.416,0.404686,3.18664,7.48864,-0.542509,0.294352,0.286258,0
2024-12-13 15:34:40.416,0.404686,3.18664,7.48864,-0.542509,0.294352,0.286258,0
2024-12-13 15:34:40.418,0.419043,3.15793,7.62054,-0.557169,0.281524,0.27343,0
2024-12-13 15:34:40.421,0.428614,3.11725,7.77368,-0.568775,0.27114,0.25877,0
2024-12-13 15:34:40.423,0.438186,3.05234,7.93639,-0.580992,0.265642,0.247164,0
2024-12-13 15:34:40.425,0.464507,2.98774,8.11586,-0.590766,0.257701,0.233115,0
2024-12-13 15:34:40.428,0.517149,2.90638,8.31476,-0.601761,0.253425,0.221508,0
2024-12-13 15:34:40.430,0.538684,2.82503,8.51097,-0.609702,0.249149,0.205626,0
2024-12-13 15:34:40.432,0.548256,2.74367,8.7027,-0.61581,0.249149,0.195853,0
2024-12-13 15:34:40.435,0.574577,2.65992,8.9013,-0.619475,0.250371,0.181803,0
2024-12-13 15:34:40.437,0.574577,2.58335,9.09273,-0.623141,0.252814,0.170197,0
2024-12-13 15:34:40.439,0.572184,2.5017,9.27727,-0.624973,0.258923,0.158591,0
2024-12-13 15:34:40.442,0.569791,2.44905,9.47109,-0.624973,0.265642,0.148818,0
2024-12-13 15:34:40.444,0.548256,2.42034,9.6338,-0.620697,0.275416,0.141487,0
2024-12-13 15:34:40.446,0.521934,2.37009,9.78934,-0.617643,0.288244,0.13347,0
2024-12-13 15:34:40.449,0.498006,2.30548,9.96431,-0.609091,0.302293,0.127362,0
2024-12-13 15:34:40.451,0.4669,2.25524,10.127,-0.598096,0.316953,0.123697,0
2024-12-13 15:34:40.454,0.426222,2.20499,10.2778,-0.583435,0.332835,0.11881,0
2024-12-13 15:34:40.456,0.387936,2.17149,10.4312,-0.567553,0.347496,0.116977,0
2024-12-13 15:34:40.458,0.364008,2.16192,10.5628,-0.547396,0.362767,0.115145,0
2024-12-13 15:34:40.461,0.330509,2.15952,10.6537,-0.52174,0.378649,0.113312,0
2024-12-13 15:34:40.463,0.30658,2.14517,10.7207,-0.493641,0.394531,0.115756,0
2024-12-13 15:34:40.465,0.292223,2.12363,10.7901,-0.463709,0.410413,0.116977,0
2024-12-13 15:34:40.468,0.275175,2.11167,10.838,-0.430724,0.428128,0.116366,0
2024-12-13 15:34:40.470,0.246461,2.09731,10.8547,-0.39224,0.440345,0.11881,0
2024-12-13 15:34:40.472,0.20339,2.09492,10.8308,-0.350703,0.454394,0.122475,0
2024-12-13 15:34:40.475,0.177069,2.09492,10.7758,-0.307333,0.467222,0.122475,0
2024-12-13 15:34:40.477,0.162712,2.08056,10.6968,-0.26213,0.475163,0.125529,0
2024-12-13 15:34:40.482,0.105284,2.09252,10.491,-0.167449,0.477606,0.132248,0
2024-12-13 15:34:40.482,0.105284,2.09252,10.491,-0.167449,0.477606,0.132248,0
2024-12-13 15:34:40.484,0.0765703,2.09013,10.3376,-0.119802,0.471498,0.137822,0
2024-12-13 15:34:40.486,0.0550349,2.11167,10.2036,-0.0727672,0.461724,0.140266,0
2024-12-13 15:34:40.489,0.0574277,2.14517,10.084,-0.0275645,0.450118,0.145763,0
2024-12-13 15:34:40.491,0.0646062,2.15952,9.95713,0.0231358,0.436679,0.151261,0
2024-12-13 15:34:40.494,0.0885344,2.17866,9.81566,0.0720036,0.42263,0.156148,0
2024-12-13 15:34:40.496,0.117248,2.18824,9.67927,0.117206,0.40797,0.162256,0
2024-12-13 15:34:40.498,0.141177,2.20977,9.54527,0.164852,0.392088,0.165311,0
2024-12-13 15:34:40.501,0.160319,2.25045,9.41127,0.212498,0.376206,0.169586,0
2024-12-13 15:34:40.504,0.162712,2.23609,9.25065,0.298017,0.341998,0.177527,0
2024-12-13 15:34:40.505,0.162712,2.18824,9.03769,0.298017,0.341998,0.177527,0
2024-12-13 15:34:40.508,0.18664,2.18824,8.82234,0.337111,0.323062,0.179971,0
2024-12-13 15:34:40.510,0.200997,2.20738,8.65215,0.37506,0.301682,0.185468,0
2024-12-13 15:34:40.512,0.200997,2.18584,8.5014,0.408657,0.280303,0.188523,0
2024-12-13 15:34:40.515,0.196211,2.16909,8.31476,0.441032,0.257701,0.189744,0
2024-12-13 15:34:40.517,0.20339,2.18345,8.09671,0.46852,0.233267,0.192188,0
2024-12-13 15:34:40.519,0.224925,2.22652,7.88854,0.491121,0.210055,0.195853,0
2024-12-13 15:34:40.522,0.215354,2.27438,7.68754,0.514333,0.188675,0.199518,0
2024-12-13 15:34:40.524,0.189033,2.30309,7.51974,0.535713,0.166074,0.203183,0
2024-12-13 15:34:40.527,0.208176,2.30788,7.35943,0.550373,0.143473,0.209902,0
2024-12-13 15:34:40.529,0.22014,2.29831,7.15125,0.561369,0.122093,0.2154,0
2024-12-13 15:34:40.531,0.22014,2.31984,6.94277,0.56992,0.102546,0.220898,0
2024-12-13 15:34:40.534,0.236889,2.34377,6.76571,0.574196,0.082388,0.226395,0
2024-12-13 15:34:40.536,0.246461,2.36052,6.62214,0.577251,0.0634518,0.232504,0
2024-12-13 15:34:40.538,0.256032,2.37727,6.49532,0.577251,0.0414613,0.239223,0
2024-12-13 15:34:40.541,0.229711,2.40359,6.37059,0.573586,0.0194708,0.245332,0
2024-12-13 15:34:40.543,0.191426,2.42034,6.27249,0.56931,-0.00129805,0.253273,0
2024-12-13 15:34:40.545,0.189033,2.40598,6.18156,0.563201,-0.0220669,0.261824,0
2024-12-13 15:34:40.548,0.193819,2.39402,6.0691,0.556482,-0.0391706,0.270987,0
2024-12-13 15:34:40.550,0.189033,2.39402,5.95185,0.54793,-0.0550526,0.28015,0
2024-12-13 15:34:40.552,0.18664,2.3988,5.86301,0.537546,-0.0672696,0.289313,0
2024-12-13 15:34:40.555,0.193819,2.40359,5.80559,0.525939,-0.0807082,0.300308,0
2024-12-13 15:34:40.557,0.20339,2.42513,5.73141,0.513723,-0.0892601,0.310081,0
2024-12-13 15:34:40.559,0.20339,2.44666,5.64766,0.497841,-0.0947577,0.319855,0
2024-12-13 15:34:40.562,0.205783,2.45384,5.57109,0.481958,-0.100255,0.329018,0
2024-12-13 15:34:40.564,0.198604,2.46341,5.52563,0.466687,-0.102699,0.340013,0
2024-12-13 15:34:40.567,0.193819,2.4682,5.5017,0.448973,-0.106364,0.349786,0
2024-12-13 15:34:40.569,0.215354,2.47059,5.48973,0.430647,-0.106975,0.363225,0
2024-12-13 15:34:40.571,0.22014,2.45863,5.48255,0.415376,-0.106364,0.376053,0
2024-12-13 15:34:40.574,0.222533,2.44188,5.48973,0.399494,-0.104531,0.387659,0
2024-12-13 15:34:40.576,0.234497,2.42991,5.5017,0.383001,-0.101477,0.397433,0
2024-12-13 15:34:40.578,0.258425,2.4347,5.51605,0.36773,-0.0990336,0.409649,0
2024-12-13 15:34:40.581,0.292223,2.45384,5.54716,0.35055,-0.0972011,0.420645,0
2024-12-13 15:34:40.583,0.325723,2.46341,5.57348,0.33589,-0.0965902,0.431029,0
2024-12-13 15:34:40.585,0.34008,2.46102,5.61416,0.320008,-0.0947577,0.441413,0
2024-12-13 15:34:40.588,0.354437,2.46341,5.67398,0.305958,-0.0929251,0.448744,0
2024-12-13 15:34:40.590,0.392722,2.48973,5.7338,0.293741,-0.093536,0.456685,0
2024-12-13 15:34:40.592,0.421436,2.51605,5.79601,0.282135,-0.0941468,0.465237,0
2024-12-13 15:34:40.595,0.4334,2.52832,5.8678,0.27114,-0.0953685,0.471345,0
2024-12-13 15:34:40.597,0.459721,2.54985,5.93749,0.260755,-0.0953685,0.477454,0
2024-12-13 15:34:40.600,0.469292,2.57857,6.01167,0.251593,-0.0984228,0.483562,0
2024-12-13 15:34:40.602,0.474078,2.60489,6.09063,0.245484,-0.0990336,0.490281,0
2024-12-13 15:34:40.604,0.498006,2.62164,6.17917,0.236322,-0.10331,0.494557,0
2024-12-13 15:34:40.609,0.529113,2.67189,6.38495,0.225937,-0.110029,0.50372,0
2024-12-13 15:34:40.609,0.529113,2.67189,6.38495,0.225937,-0.110029,0.50372,0
2024-12-13 15:34:40.611,0.553041,2.70539,6.49532,0.221661,-0.116137,0.507996,0
2024-12-13 15:34:40.614,0.588933,2.72692,6.58624,0.216774,-0.122857,0.508607,0
2024-12-13 15:34:40.616,0.610469,2.74846,6.68196,0.210666,-0.129576,0.509218,0
2024-12-13 15:34:40.618,0.622433,2.78196,6.78724,0.205779,-0.133241,0.512883,0
2024-12-13 15:34:40.621,0.62004,2.82742,6.92124,0.202725,-0.135074,0.514104,0
2024-12-13 15:34:40.623,0.617647,2.8681,7.06511,0.198449,-0.136295,0.514715,0
2024-12-13 15:34:40.625,0.615255,2.91595,7.19432,0.192951,-0.138128,0.517769,0
2024-12-13 15:34:40.628,0.60329,2.9686,7.32114,0.189897,-0.138739,0.518991,0
2024-12-13 15:34:40.630,0.600898,3.04756,7.45514,0.1844,-0.141182,0.51838,0
2024-12-13 15:34:40.632,0.588933,3.16511,7.6014,0.179513,-0.144847,0.520824,0
2024-12-13 15:34:40.635,0.579362,3.29432,7.75454,0.175237,-0.149734,0.521434,0
2024-12-13 15:34:40.637,0.576969,3.4331,7.89811,0.169128,-0.152177,0.520824,0
2024-12-13 15:34:40.640,0.574577,3.59342,8.04886,0.163631,-0.153399,0.520213,0
2024-12-13 15:34:40.642,0.565005,3.77557,8.18076,0.156301,-0.154621,0.516548,0
2024-12-13 15:34:40.644,0.548256,3.95025,8.3028,0.149581,-0.153399,0.516548,0
2024-12-13 15:34:40.647,0.514756,4.11775,8.45115,0.14164,-0.153399,0.512883,0
2024-12-13 15:34:40.649,0.486042,4.28794,8.61386,0.133699,-0.158286,0.507385,0
2024-12-13 15:34:40.651,0.481256,4.44108,8.79602,0.122093,-0.167449,0.503109,0
2024-12-13 15:34:40.654,0.488435,4.57029,8.99941,0.109265,-0.180887,0.493336,0
2024-12-13 15:34:40.656,0.514756,4.67558,9.22912,0.094605,-0.200434,0.481729,0
2024-12-13 15:34:40.658,0.54347,4.76172,9.48066,0.0768904,-0.223646,0.465237,0
2024-12-13 15:34:40.661,0.576969,4.83619,9.76302,0.058565,-0.253578,0.447522,0
2024-12-13 15:34:40.663,0.63679,4.89362,10.084,0.0408504,-0.282899,0.421866,0
2024-12-13 15:34:40.665,0.672682,4.91994,10.4216,0.0219141,-0.318939,0.393767,0
2024-12-13 15:34:40.668,0.687039,4.89601,10.7973,-7.63559e-05,-0.353757,0.364447,0
2024-12-13 15:34:40.670,0.679861,4.85294,11.1805,-0.0226777,-0.392851,0.334515,0
2024-12-13 15:34:40.673,0.641576,4.80269,11.5636,-0.0483333,-0.433778,0.304584,0
2024-12-13 15:34:40.675,0.572184,4.70429,11.9752,-0.0752106,-0.47104,0.27282,0
2024-12-13 15:34:40.677,0.469292,4.57986,12.4086,-0.10392,-0.508301,0.245942,0
2024-12-13 15:34:40.680,0.364008,4.44586,12.8635,-0.13263,-0.541898,0.218454,0
2024-12-13 15:34:40.682,0.260818,4.32862,13.34,-0.163173,-0.573051,0.19341,0
2024-12-13 15:34:40.684,0.124427,4.21137,13.8523,-0.194937,-0.606037,0.175695,0
2024-12-13 15:34:40.687,0.00478565,4.07946,14.3743,-0.227922,-0.627416,0.159202,0
2024-12-13 15:34:40.689,-0.0861416,3.97179,14.9225,-0.260908,-0.641466,0.149429,0
2024-12-13 15:34:40.691,-0.18664,3.87847,15.4923,-0.292672,-0.650629,0.145153,0
2024-12-13 15:34:40.694,-0.294616,3.77557,16.0358,-0.323825,-0.65124,0.143931,0
2024-12-13 15:34:40.696,-0.383151,3.68704,16.5553,-0.351314,-0.638412,0.144542,0
2024-12-13 15:34:40.698,-0.507577,3.62931,17.0961,-0.378802,-0.61581,0.150039,0
2024-12-13 15:34:40.701,-0.533899,3.56949,17.6085,-0.402014,-0.582214,0.158591,0
2024-12-13 15:34:40.703,-0.4669,3.49771,18.0515,-0.419728,-0.534568,0.167754,0
2024-12-13 15:34:40.706,-0.438186,3.42832,18.4346,-0.436832,-0.475926,0.175695,0
2024-12-13 15:34:40.708,-0.344866,3.34696,18.784,-0.448438,-0.404457,0.186079,0
2024-12-13 15:34:40.710,-0.239282,3.27996,19.0953,-0.453325,-0.32688,0.192799,0
2024-12-13 15:34:40.713,-0.409472,3.44028,19.1671,-0.455768,-0.238307,0.203183,0
2024-12-13 15:34:40.715,-0.548256,3.61256,19.2221,-0.457601,-0.130187,0.223341,0
2024-12-13 15:34:40.717,-0.354437,3.49532,19.5527,-0.456379,-0.0483333,0.244721,0
2024-12-13 15:34:40.720,-0.143569,3.24646,19.8278,-0.449049,0.0139731,0.25877,0
2024-12-13 15:34:40.722,0.0430708,2.95663,19.9116,-0.43561,0.0689494,0.268544,2
2024-12-13 15:34:40.724,0.246461,2.67428,19.9406,-0.411787,0.114763,0.270987,0
2024-12-13 15:34:40.727,0.442971,2.4323,19.9286,-0.384299,0.160576,0.268544,0
2024-12-13 15:34:40.729,0.632004,2.19302,19.8781,-0.351314,0.203336,0.259992,0
2024-12-13 15:34:40.731,0.768395,1.96301,19.8039,-0.307333,0.239987,0.245332,0
2024-12-13 15:34:40.734,0.74686,1.8673,19.6173,-0.260908,0.274805,0.231282,0
2024-12-13 15:34:40.736,0.541077,1.94626,19.2724,-0.208375,0.317564,0.219065,0
2024-12-13 15:34:40.738,0.232104,2.15713,18.8824,-0.154621,0.362767,0.212346,0
2024-12-13 15:34:40.741,-0.22014,2.53549,18.4537,-0.0996445,0.406137,0.212346,0
2024-12-13 15:34:40.743,-0.651147,2.94945,18.0012,-0.0483333,0.443399,0.225174,0
2024-12-13 15:34:40.746,-0.835394,3.20339,17.6372,0.00175619,0.465389,0.241666,0
2024-12-13 15:34:40.748,-0.873978,3.34696,17.3261,0.050624,0.462946,0.255105,0
2024-12-13 15:34:40.750,-0.876371,3.44028,16.9573,0.0982701,0.445842,0.267933,0
2024-12-13 15:34:40.753,-0.890728,3.50249,16.4952,0.144694,0.422019,0.277706,0
2024-12-13 15:34:40.755,-0.852443,3.57906,15.9999,0.190508,0.394531,0.283204,0
2024-12-13 15:34:40.757,-0.71336,3.68226,15.5163,0.229602,0.362767,0.285037,0
2024-12-13 15:34:40.760,-0.591326,3.78754,15.0063,0.269307,0.332225,0.281982,0
2024-12-13 15:34:40.762,-0.52672,3.91675,14.47,0.302904,0.30718,0.275874,0
2024-12-13 15:34:40.764,-0.471685,4.03639,13.9816,0.32917,0.284578,0.267933,0
2024-12-13 15:34:40.767,-0.392722,4.12014,13.5769,0.351772,0.260145,0.256327,0
2024-12-13 15:34:40.769,-0.316152,4.19193,13.2419,0.369563,0.228991,0.238001,0
2024-12-13 15:34:40.771,-0.277567,4.25205,12.9688,0.379336,0.189897,0.216011,0
2024-12-13 15:34:40.776,-0.311366,4.38126,12.5713,0.384834,0.0860531,0.17203,0
2024-12-13 15:34:40.776,-0.311366,4.38126,12.5713,0.384834,0.0860531,0.17203,0
2024-12-13 15:34:40.780,-0.366401,4.43869,12.4349,0.369563,-0.0184018,0.132248,0
2024-12-13 15:34:40.781,-0.423829,4.48894,12.3272,0.369563,-0.0184018,0.132248,0
2024-12-13 15:34:40.783,-0.483649,4.53918,12.2578,0.352383,-0.0648262,0.116977,0
2024-12-13 15:34:40.786,-0.52672,4.57029,12.2267,0.332225,-0.101477,0.100484,0
2024-12-13 15:34:40.788,-0.567398,4.55833,12.2315,0.307791,-0.128354,0.0876566,0
2024-12-13 15:34:40.790,-0.598505,4.50808,12.2746,0.274194,-0.149123,0.0797156,0
2024-12-13 15:34:40.793,-0.600898,4.46261,12.3272,0.24243,-0.157675,0.0711637,0
2024-12-13 15:34:40.795,-0.579362,4.40279,12.387,0.204557,-0.159507,0.0662769,0
2024-12-13 15:34:40.797,-0.545863,4.30708,12.4421,0.164852,-0.158897,0.0595576,0
2024-12-13 15:34:40.800,-0.498006,4.23051,12.4636,0.119039,-0.154621,0.0528383,0
2024-12-13 15:34:40.802,-0.438186,4.18953,12.4564,0.0732253,-0.146069,0.0503949,0
2024-12-13 15:34:40.804,-0.385544,4.14407,12.454,0.022525,-0.133852,0.0442864,0
2024-12-13 15:34:40.807,-0.328116,4.09143,12.454,-0.029397,-0.11797,0.0436756,0
2024-12-13 15:34:40.809,-0.263211,4.02921,12.466,-0.0800973,-0.0978119,0.0412322,0
2024-12-13 15:34:40.811,-0.212961,3.98136,12.5043,-0.127743,-0.0703238,0.0387888,0
2024-12-13 15:34:40.814,-0.165105,3.93111,12.5378,-0.176611,-0.0391706,0.0357346,0
2024-12-13 15:34:40.816,-0.114855,3.84975,12.588,-0.216316,-7.63559e-05,0.0351237,0
2024-12-13 15:34:40.819,-0.0646062,3.8019,12.6338,-0.250524,0.0408504,0.0326803,0
2024-12-13 15:34:40.821,-0.0239282,3.75883,12.6769,-0.280455,0.0829989,0.0320695,0
2024-12-13 15:34:40.823,-0.0239282,3.72054,12.6936,-0.306111,0.125758,0.0308478,0
2024-12-13 15:34:40.826,-0.102891,3.73011,12.6625,-0.323825,0.17035,0.0320695,0
2024-12-13 15:34:40.828,-0.232104,3.78036,12.6191,-0.339707,0.209444,0.0369563,0
2024-12-13 15:34:40.830,-0.294616,3.77797,12.5809,-0.350703,0.244873,0.0455081,0
2024-12-13 15:34:40.833,-0.277567,3.69422,12.5713,-0.353757,0.269918,0.0522274,0
2024-12-13 15:34:40.835,-0.244068,3.58624,12.545,-0.351314,0.288244,0.0607793,0
2024-12-13 15:34:40.837,-0.200997,3.46899,12.4923,-0.342762,0.299239,0.0687203,0
2024-12-13 15:34:40.840,-0.165105,3.38525,12.3966,-0.331766,0.312067,0.0742179,0
2024-12-13 15:34:40.842,-0.124427,3.32064,12.2865,-0.31283,0.324284,0.0809373,0
2024-12-13 15:34:40.844,-0.0909273,3.27518,12.1669,-0.290229,0.334668,0.0870457,0
2024-12-13 15:34:40.847,-0.0861416,3.268,12.0278,-0.259076,0.346885,0.0919325,0
2024-12-13 15:34:40.849,-0.0789631,3.28953,11.8699,-0.227922,0.357269,0.098041,0
2024-12-13 15:34:40.852,-0.0646062,3.32782,11.712,-0.193104,0.367043,0.104149,0
2024-12-13 15:34:40.854,-0.0550349,3.34696,11.5564,-0.153399,0.376206,0.110258,0
2024-12-13 15:34:40.859,-0.0430708,3.38046,11.1517,-0.0739889,0.381092,0.124307,0
2024-12-13 15:34:40.859,-0.0430708,3.38046,11.1517,-0.0739889,0.381092,0.124307,0
2024-12-13 15:34:40.861,-0.0287139,3.40439,10.9193,-0.0306187,0.382314,0.129194,0
2024-12-13 15:34:40.863,-0.00717847,3.42114,10.6849,0.00786466,0.376206,0.135379,0
2024-12-13 15:34:40.866,0.0167498,3.41157,10.4432,0.050624,0.373762,0.139044,0
2024-12-13 15:34:40.868,0.0358923,3.41635,10.1916,0.0878856,0.36521,0.145153,0
2024-12-13 15:34:40.870,0.0382852,3.41875,9.94517,0.125147,0.354826,0.151261,0
2024-12-13 15:34:40.873,0.040678,3.41157,9.70319,0.160576,0.345052,0.153094,0
2024-12-13 15:34:40.875,0.0478565,3.43071,9.45913,0.195395,0.333446,0.159202,0
2024-12-13 15:34:40.877,0.0550349,3.44028,9.2028,0.224715,0.323673,0.163478,0
2024-12-13 15:34:40.880,0.040678,3.44267,8.96351,0.250371,0.309012,0.165311,0
2024-12-13 15:34:40.882,0.0143569,3.4666,8.7338,0.272972,0.293741,0.168976,0
2024-12-13 15:34:40.884,0.00239282,3.48335,8.49183,0.296185,0.277859,0.17203,0
2024-12-13 15:34:40.887,-0.00239282,3.48335,8.26212,0.315121,0.260755,0.174473,0
2024-12-13 15:34:40.889,-0.00239282,3.47857,8.05125,0.330392,0.243652,0.176917,0
2024-12-13 15:34:40.892,0.00717847,3.47378,7.85504,0.340776,0.225937,0.178749,0
2024-12-13 15:34:40.894,0.0167498,3.47378,7.65883,0.349939,0.202725,0.180582,0
2024-12-13 15:34:40.896,0.00957129,3.45464,7.46232,0.356048,0.182567,0.179971,0
2024-12-13 15:34:40.899,0.0239282,3.44267,7.27328,0.358491,0.159355,0.179971,0
2024-12-13 15:34:40.901,0.066999,3.44267,7.09382,0.357269,0.136753,0.176306,0
2024-12-13 15:34:40.903,0.119641,3.40917,6.94517,0.357269,0.116595,0.173862,0
2024-12-13 15:34:40.906,0.670289,3.03799,7.17757,0.351161,0.0878856,0.167754,0
2024-12-13 15:34:40.908,0.9003,2.75085,7.21107,0.359713,0.0188599,0.137212,0
2024-12-13 15:34:40.910,0.270389,3.09571,6.43998,0.362767,0.0213033,0.117588,0
2024-12-13 15:34:40.913,-0.0239282,3.46182,5.98774,0.352993,0.0610084,0.11209,0
2024-12-13 15:34:40.915,-0.0215354,3.61496,6.08824,0.342609,0.0738362,0.112701,0
2024-12-13 15:34:40.917,-0.141177,3.7349,6.05474,0.33589,0.0726145,0.116366,0
2024-12-13 15:34:40.920,-0.256032,3.79711,5.88216,0.323062,0.0720036,0.121253,0
2024-12-13 15:34:40.922,-0.265603,3.78036,5.72902,0.304736,0.0695602,0.127972,0
2024-12-13 15:34:40.925,-0.150748,3.6679,5.64048,0.285189,0.0622301,0.132859,0
2024-12-13 15:34:40.927,0.00478565,3.49532,5.62134,0.266253,0.042683,0.13347,0
2024-12-13 15:34:40.929,0.124427,3.34218,5.60459,0.250371,0.0188599,0.127972,0
2024-12-13 15:34:40.932,0.229711,3.23689,5.54477,0.232656,-0.00251974,0.120031,0
2024-12-13 15:34:40.934,0.304188,3.14357,5.47777,0.214942,-0.0177909,0.108425,0
2024-12-13 15:34:40.936,0.347258,3.09332,5.39402,0.19906,-0.0269536,0.0962084,0
2024-12-13 15:34:40.939,0.366401,3.09571,5.31237,0.182567,-0.0287862,0.0839915,0
2024-12-13 15:34:40.941,0.364008,3.11007,5.25733,0.167296,-0.0251211,0.0717745,0
2024-12-13 15:34:40.943,0.352044,3.12921,5.21665,0.151414,-0.0165692,0.0589468,0
2024-12-13 15:34:40.946,0.332901,3.15553,5.18794,0.137975,-0.00618483,0.046119,0
2024-12-13 15:34:40.948,0.330509,3.15793,5.17597,0.125147,0.00175619,0.0351237,0
2024-12-13 15:34:40.950,0.320937,3.14836,5.1688,0.111709,0.00908635,0.0235176,0
2024-12-13 15:34:40.953,0.320937,3.14118,5.1664,0.0982701,0.0133623,0.0119115,0
2024-12-13 15:34:40.955,0.335294,3.11964,5.1688,0.0854423,0.0139731,-0.00213797,0
2024-12-13 15:34:40.959,0.349651,3.08345,5.15683,0.0603975,0.010308,-0.0253502,0
2024-12-13 15:34:40.960,0.361615,3.04995,5.14248,0.0603975,0.010308,-0.0253502,0
2024-12-13 15:34:40.962,0.368794,3.0021,5.12573,0.0475697,0.00847551,-0.0369563,0
2024-12-13 15:34:40.965,0.375972,2.96142,5.11137,0.0365745,0.00542127,-0.0485624,0
2024-12-13 15:34:40.967,0.380758,2.92792,5.0994,0.0243575,0.00236703,-0.062001,0
2024-12-13 15:34:40.969,0.35683,2.89203,5.09462,0.0121406,-0.00374144,-0.0748288,0
2024-12-13 15:34:40.972,0.332901,2.85374,5.1018,-0.000687203,-0.00801737,-0.0846023,0
2024-12-13 15:34:40.974,0.320937,2.82263,5.10658,-0.0147367,-0.0159584,-0.0955976,0
2024-12-13 15:34:40.976,0.287438,2.78196,5.11376,-0.029397,-0.0245102,-0.105982,0
2024-12-13 15:34:40.979,0.263211,2.75324,5.1329,-0.0440574,-0.0324513,-0.113923,0
2024-12-13 15:34:40.981,0.251246,2.7341,5.17837,-0.0556635,-0.0440574,-0.124918,0
2024-12-13 15:34:40.983,0.22014,2.69821,5.2358,-0.0691021,-0.0605502,-0.132859,0
2024-12-13 15:34:40.986,0.177069,2.6671,5.28604,-0.0800973,-0.0764323,-0.138357,0
2024-12-13 15:34:40.988,0.155533,2.64317,5.35574,-0.0904818,-0.0923143,-0.143855,0
2024-12-13 15:34:40.990,0.145962,2.62164,5.42034,-0.101477,-0.110029,-0.14813,0
2024-12-13 15:34:40.993,0.124427,2.60249,5.46581,-0.111861,-0.1253,-0.153017,0
2024-12-13 15:34:40.995,0.11007,2.59532,5.52323,-0.118581,-0.136906,-0.159737,0
2024-12-13 15:34:40.998,0.107677,2.57617,5.57348,-0.1253,-0.150345,-0.163402,0
2024-12-13 15:34:41.000,0.102891,2.55703,5.60937,-0.130798,-0.158897,-0.165234,0
2024-12-13 15:34:41.002,0.0909273,2.54028,5.6357,-0.136906,-0.165005,-0.168288,0
2024-12-13 15:34:41.005,0.0741775,2.51845,5.65484,-0.140571,-0.167449,-0.171953,0
2024-12-13 15:34:41.009,0.0837488,2.45863,5.71227,-0.150956,-0.170503,-0.173786,0
2024-12-13 15:34:41.009,0.0837488,2.45863,5.71227,-0.150956,-0.170503,-0.173786,0
2024-12-13 15:34:41.014,0.0191426,2.39163,5.75534,-0.160729,-0.169892,-0.171953,0
2024-12-13 15:34:41.014,0.0191426,2.39163,5.75534,-0.160729,-0.169892,-0.171953,0
2024-12-13 15:34:41.016,-0.00239282,2.34856,5.78405,-0.166227,-0.16867,-0.172564,0
2024-12-13 15:34:41.019,-0.0358923,2.31506,5.81755,-0.172335,-0.166227,-0.170121,0
2024-12-13 15:34:41.021,-0.0646062,2.28156,5.84626,-0.179665,-0.16134,-0.165234,0
2024-12-13 15:34:41.023,-0.081356,2.25524,5.87498,-0.185163,-0.159507,-0.158515,0
2024-12-13 15:34:41.026,-0.0981057,2.2337,5.9016,-0.192493,-0.157675,-0.155461,0
2024-12-13 15:34:41.028,-0.117248,2.2002,5.9327,-0.199213,-0.152177,-0.149352,0
2024-12-13 15:34:41.031,-0.138784,2.16431,5.97817,-0.206543,-0.145458,-0.143244,0
2024-12-13 15:34:41.033,-0.162712,2.13559,6.03081,-0.213873,-0.140571,-0.137135,0
2024-12-13 15:34:41.038,-0.222533,2.08295,6.1672,-0.224257,-0.124078,-0.11881,0
2024-12-13 15:34:41.038,-0.222533,2.08295,6.1672,-0.224257,-0.124078,-0.11881,0
2024-12-13 15:34:41.040,-0.239282,2.04706,6.23899,-0.227922,-0.114305,-0.11148,0
2024-12-13 15:34:41.042,-0.256032,2.01835,6.31795,-0.229144,-0.106364,-0.0998735,0
2024-12-13 15:34:41.045,-0.287438,1.9992,6.4017,-0.230977,-0.0959794,-0.0907108,0
2024-12-13 15:34:41.047,-0.30658,1.98485,6.49771,-0.230366,-0.0868167,-0.0803264,0
2024-12-13 15:34:41.049,-0.32333,1.96301,6.57428,-0.230366,-0.0868167,-0.0803264,0
2024-12-13 15:34:41.052,-0.344866,1.92233,6.63889,-0.229755,-0.0660479,-0.0589468,0
2024-12-13 15:34:41.056,-0.41665,1.85533,6.82792,-0.222425,-0.0446682,-0.0351237,0
2024-12-13 15:34:41.056,-0.41665,1.85533,6.82792,-0.222425,-0.0446682,-0.0351237,0
2024-12-13 15:34:41.059,-0.435793,1.8338,6.93081,-0.213873,-0.0367272,-0.0229068,0
2024-12-13 15:34:41.061,-0.457328,1.80748,7.02682,-0.208375,-0.0269536,-0.0106898,0
2024-12-13 15:34:41.063,-0.476471,1.78116,7.11536,-0.200434,-0.0196235,0.00274881,0
2024-12-13 15:34:41.066,-0.505185,1.75723,7.22543,-0.189439,-0.0129041,0.0143549,0
2024-12-13 15:34:41.068,-0.50997,1.72852,7.33071,-0.17539,-0.00862822,0.0277936,0
2024-12-13 15:34:41.071,-0.500399,1.71177,7.42642,-0.158286,0.00114534,0.0375671,0
2024-12-13 15:34:41.073,-0.500399,1.6998,7.50778,-0.143625,0.00664296,0.0479515,0
2024-12-13 15:34:41.075,-0.488435,1.68305,7.57986,-0.127133,0.00786466,0.0577251,0
2024-12-13 15:34:41.078,-0.476471,1.67587,7.64208,-0.106364,0.0109189,0.0656661,0
2024-12-13 15:34:41.080,-0.462114,1.66152,7.68276,-0.0843733,0.010308,0.0717745,0
2024-12-13 15:34:41.082,-0.438186,1.64716,7.7019,-0.0642153,0.00603212,0.077883,0
2024-12-13 15:34:41.087,-0.364008,1.68544,7.7019,-0.0165692,-0.0104608,0.0882674,0
2024-12-13 15:34:41.087,-0.364008,1.68544,7.7019,-0.0165692,-0.0104608,0.0882674,0
2024-12-13 15:34:41.089,-0.332901,1.68784,7.64686,0.00358873,-0.0208452,0.0888783,0
2024-12-13 15:34:41.092,-0.270389,1.69023,7.58465,0.0255792,-0.0300079,0.0876566,0
2024-12-13 15:34:41.094,-0.136391,1.71894,7.54607,0.0255792,-0.0300079,0.0876566,0
2024-12-13 15:34:41.096,-0.0526421,1.76441,7.60379,0.0652843,-0.0568851,0.0803264,0
2024-12-13 15:34:41.099,-0.145962,1.78834,7.60379,0.0891073,-0.0721563,0.077883,0
2024-12-13 15:34:41.101,-0.297009,1.79791,7.49103,0.110487,-0.0825407,0.077883,0
2024-12-13 15:34:41.104,-0.407079,1.80987,7.44317,0.128812,-0.0941468,0.0784939,0
2024-12-13 15:34:41.108,-0.397508,1.80269,7.48385,0.173404,-0.127133,0.082159,0
2024-12-13 15:34:41.111,-0.320937,1.80509,7.48624,0.192341,-0.146069,0.082159,0
2024-12-13 15:34:41.111,-0.320937,1.80509,7.48624,0.192341,-0.146069,0.082159,0
2024-12-13 15:34:41.113,-0.232104,1.80269,7.45753,0.213109,-0.160118,0.0803264,0
2024-12-13 15:34:41.115,-0.114855,1.81944,7.4025,0.232656,-0.171114,0.0754396,0
2024-12-13 15:34:41.118,0.0119641,1.85533,7.34985,0.253425,-0.177833,0.0687203,0
2024-12-13 15:34:41.120,0.143569,1.89841,7.2996,0.269307,-0.187606,0.0595576,0
2024-12-13 15:34:41.122,0.20339,1.94387,7.25414,0.287022,-0.191882,0.0497841,0
2024-12-13 15:34:41.125,0.160319,1.99442,7.17757,0.298628,-0.192493,0.0393996,0
2024-12-13 15:34:41.127,0.0885344,2.03749,7.08425,0.309012,-0.190661,0.0284044,0
2024-12-13 15:34:41.129,0.0478565,2.07817,7.02443,0.315121,-0.19005,0.01802,0
2024-12-13 15:34:41.132,0.0574277,2.10927,6.97149,0.318175,-0.19005,0.00580305,0
2024-12-13 15:34:41.137,0.11007,2.19063,6.92363,0.318175,-0.191272,-0.0155766,0
2024-12-13 15:34:41.139,0.100499,2.23131,6.90688,0.310234,-0.19005,-0.0284044,0
2024-12-13 15:34:41.139,0.100499,2.23131,6.90688,0.310234,-0.19005,-0.0284044,0
2024-12-13 15:34:41.141,0.11007,2.27677,6.88056,0.303515,-0.181498,-0.0424539,0
2024-12-13 15:34:41.144,0.129212,2.34616,6.87817,0.293741,-0.167449,-0.05406,0
2024-12-13 15:34:41.146,0.133998,2.41795,6.88056,0.280913,-0.149123,-0.0687203,0
2024-12-13 15:34:41.148,0.138784,2.47537,6.87338,0.270529,-0.127133,-0.0839915,0
2024-12-13 15:34:41.151,0.0717847,2.62403,6.92124,0.253425,-0.100255,-0.0974301,0
2024-12-13 15:34:41.153,0.0933201,2.71496,7.01217,0.235711,-0.0672696,-0.109647,0
2024-12-13 15:34:41.155,0.244068,2.66231,6.98585,0.22044,-0.037338,-0.125529,0
2024-12-13 15:34:41.158,0.30658,2.61207,6.89013,0.19173,-0.0208452,-0.145076,0
2024-12-13 15:34:41.160,0.313759,2.61685,6.89731,0.165463,-0.00496313,-0.164623,0
2024-12-13 15:34:41.162,0.239282,2.74128,6.95713,0.131867,0.0109189,-0.18417,0
2024-12-13 15:34:41.165,0.0550349,2.90638,7.05793,0.100103,0.0310769,-0.206161,0
2024-12-13 15:34:41.167,-0.129212,2.97817,7.101,0.0683385,0.0561216,-0.222043,0
2024-12-13 15:34:41.169,-0.236889,2.98535,7.10339,0.0329094,0.0842206,-0.236703,0
2024-12-13 15:34:41.172,-0.263211,2.97577,7.19432,-0.00251974,0.106211,-0.250753,0
2024-12-13 15:34:41.174,-0.265603,2.95424,7.32593,-0.0391706,0.122704,-0.268467,0
2024-12-13 15:34:41.177,-0.294616,2.9351,7.46232,-0.0758214,0.135532,-0.283739,0
2024-12-13 15:34:41.179,-0.34008,2.94227,7.63251,-0.111251,0.147138,-0.300842,0
2024-12-13 15:34:41.181,-0.41665,2.9662,7.84068,-0.14668,0.160576,-0.319168,0
2024-12-13 15:34:41.186,-0.576969,2.9997,8.29322,-0.207764,0.1844,-0.352764,0
2024-12-13 15:34:41.186,-0.576969,2.9997,8.29322,-0.207764,0.1844,-0.352764,0
2024-12-13 15:34:41.188,-0.658325,3.02124,8.5014,-0.229144,0.197227,-0.368646,0
2024-12-13 15:34:41.191,-0.751645,3.06192,8.67608,-0.250524,0.211277,-0.385139,0
2024-12-13 15:34:41.193,-0.751645,3.03799,8.90848,-0.268238,0.224105,-0.40041,0
2024-12-13 15:34:41.195,-0.210568,2.63121,9.58834,-0.281066,0.221661,-0.422401,0
2024-12-13 15:34:41.198,-0.308973,2.4993,9.77259,-0.273736,0.200282,-0.462106,0
2024-12-13 15:34:41.200,-1.1013,2.94227,9.27009,-0.279234,0.244263,-0.47921,0
2024-12-13 15:34:41.202,-1.30708,3.22493,9.35624,-0.286564,0.291298,-0.48654,0
2024-12-13 15:34:41.205,-1.42223,3.38525,9.76541,-0.285342,0.307791,-0.489594,0
2024-12-13 15:34:41.207,-1.6328,3.54317,9.97867,-0.283509,0.309012,-0.487151,0
2024-12-13 15:34:41.210,-1.81226,3.65593,10.0768,-0.282288,0.307791,-0.480431,0
2024-12-13 15:34:41.213,-1.8673,3.66311,10.2108,-0.28412,0.301071,-0.47249,0
2024-12-13 15:34:41.217,-1.75484,3.47378,10.6442,-0.276179,0.258312,-0.462106,0
2024-12-13 15:34:41.219,-1.69262,3.39003,10.8858,-0.268238,0.226548,-0.459663,0
2024-12-13 15:34:41.219,-1.69262,3.39003,10.8858,-0.268238,0.226548,-0.459663,0
2024-12-13 15:34:41.221,-1.6328,3.34696,11.056,-0.257243,0.197838,-0.460273,0
2024-12-13 15:34:41.226,-1.60648,3.35653,11.2211,-0.223646,0.163631,-0.463939,0
2024-12-13 15:34:41.228,-1.60887,3.52164,11.2642,-0.207154,0.156301,-0.46516,0
2024-12-13 15:34:41.228,-1.65194,3.52164,11.2642,-0.207154,0.156301,-0.46516,0
2024-12-13 15:34:41.231,-1.71655,3.68226,11.2786,-0.188828,0.155079,-0.465771,0
2024-12-13 15:34:41.233,-1.76441,3.86411,11.2786,-0.171724,0.154468,-0.464549,0
2024-12-13 15:34:41.235,-1.81466,4.04836,11.2451,-0.151566,0.152635,-0.461495,0
2024-12-13 15:34:41.240,-1.90798,4.4004,11.1206,-0.121635,0.145916,-0.452332,0
2024-12-13 15:34:41.240,-1.90798,4.4004,11.1206,-0.121635,0.145916,-0.452332,0
2024-12-13 15:34:41.242,-1.94148,4.54636,11.0249,-0.110029,0.136753,-0.446835,0
2024-12-13 15:34:41.246,-1.94626,4.66122,10.9361,-0.0947577,0.117817,-0.433396,0
2024-12-13 15:34:41.247,-1.92473,4.75215,10.8165,-0.0947577,0.117817,-0.433396,0
2024-12-13 15:34:41.250,-1.90798,4.82423,10.6825,-0.0917034,0.108654,-0.428509,0
2024-12-13 15:34:41.252,-1.93908,4.89841,10.6322,-0.0929251,0.0970484,-0.424844,0
2024-12-13 15:34:41.254,-1.9657,4.95823,10.6609,-0.0959794,0.0817772,-0.419347,0
2024-12-13 15:34:41.257,-1.96062,4.98694,10.6968,-0.102088,0.0561216,-0.415071,0
2024-12-13 15:34:41.259,-1.9343,4.97019,10.7542,-0.108807,0.0347419,-0.408962,0
2024-12-13 15:34:41.261,-1.92233,4.97976,10.838,-0.116137,0.00847551,-0.405297,0
2024-12-13 15:34:41.264,-1.9992,5.07787,10.8811,-0.127133,-0.00923906,-0.399189,0
2024-12-13 15:34:41.266,-2.08535,5.21187,10.9122,-0.13996,-0.0184018,-0.392469,0
2024-12-13 15:34:41.268,-2.1667,5.35334,10.9843,-0.157675,-0.0226777,-0.383307,0
2024-12-13 15:34:41.271,-2.26241,5.49691,11.0704,-0.174779,-0.0275645,-0.369868,0
2024-12-13 15:34:41.273,-2.37009,5.63091,11.1876,-0.199823,-0.0257319,-0.355208,0
2024-12-13 15:34:41.275,-2.48016,5.75534,11.3384,-0.224868,-0.0300079,-0.33505,0
2024-12-13 15:34:41.278,-2.5666,5.87019,11.5421,-0.256021,-0.033673,-0.313059,0
2024-12-13 15:34:41.280,-2.63121,5.96142,11.779,-0.288396,-0.0397814,-0.289236,0
2024-12-13 15:34:41.283,-2.67667,6.00449,12.0183,-0.324436,-0.0440574,-0.26297,0
2024-12-13 15:34:41.285,-2.70299,6.04995,12.2842,-0.359865,-0.0501658,-0.235482,0
2024-12-13 15:34:41.287,-2.71496,6.09302,12.5976,-0.397738,-0.0562743,-0.206772,0
2024-12-13 15:34:41.290,-2.72213,6.09781,12.9425,-0.436832,-0.0568851,-0.175008,0
2024-12-13 15:34:41.292,-2.73888,6.09063,13.3065,-0.47104,-0.0550526,-0.143855,0
2024-12-13 15:34:41.297,-2.72453,6.00688,14.1515,-0.537011,-0.0471116,-0.0723854,0
2024-12-13 15:34:41.297,-2.72453,6.00688,14.1515,-0.537011,-0.0471116,-0.0723854,0
2024-12-13 15:34:41.299,-2.66471,5.9327,14.5825,-0.563888,-0.0403923,-0.0363454,0
2024-12-13 15:34:41.301,-2.62642,5.82712,14.98,-0.590155,-0.0287862,-0.000916271,0
2024-12-13 15:34:41.304,-2.58096,5.73141,15.3772,-0.610313,-0.0104608,0.0369563,0
2024-12-13 15:34:41.306,-2.49452,5.63809,15.8441,-0.625584,0.00847551,0.0723854,0
2024-12-13 15:34:41.308,-2.37488,5.51605,16.354,-0.634747,0.0194708,0.105371,0
2024-12-13 15:34:41.311,-2.25284,5.38924,16.8186,-0.635968,0.0322986,0.140266,0
2024-12-13 15:34:41.313,-2.12842,5.26212,17.2161,-0.632914,0.0457372,0.172641,0
2024-12-13 15:34:41.315,-1.9992,5.12573,17.563,-0.621308,0.0652843,0.206848,0
2024-12-13 15:34:41.318,-1.88405,4.98694,17.884,-0.621308,0.0652843,0.206848,0
2024-12-13 15:34:41.320,-1.76441,4.85055,18.1735,-0.588322,0.107433,0.270987,0
2024-12-13 15:34:41.323,-1.62323,4.72822,18.4322,-0.566943,0.127591,0.300919,0
2024-12-13 15:34:41.325,-1.47488,4.60379,18.6595,-0.540065,0.145916,0.331461,0
2024-12-13 15:34:41.327,-1.33579,4.45304,18.8489,-0.510745,0.160576,0.362614,0
2024-12-13 15:34:41.330,-1.18983,4.31665,18.9972,-0.474705,0.169128,0.393157,0
2024-12-13 15:34:41.332,-1.04148,4.22572,19.0905,-0.436832,0.175848,0.419423,0
2024-12-13 15:34:41.334,-0.96012,4.17757,19.1384,-0.396516,0.175237,0.447522,0
2024-12-13 15:34:41.337,-0.914656,4.12971,19.0953,-0.352535,0.175237,0.477454,2
2024-12-13 15:34:41.339,-0.777966,4.05793,19.0092,-0.306111,0.169739,0.505552,0
2024-12-13 15:34:41.344,-0.598505,3.78754,18.7457,-0.206543,0.13431,0.553809,0
2024-12-13 15:34:41.344,-0.452543,3.78754,18.7457,-0.206543,0.13431,0.553809,0
2024-12-13 15:34:41.346,-0.299402,3.63171,18.504,-0.155232,0.106211,0.574578,0
2024-12-13 15:34:41.348,-0.145962,3.47857,18.2456,-0.102699,0.0750579,0.586795,0
2024-12-13 15:34:41.351,0.00957129,3.31585,17.9581,-0.0465007,0.0414613,0.59718,0
2024-12-13 15:34:41.353,0.167498,3.17228,17.6782,0.00908635,0.00908635,0.603899,0
2024-12-13 15:34:41.356,0.282652,3.05713,17.3931,0.0677277,-0.0232886,0.605731,0
2024-12-13 15:34:41.358,0.366401,2.96381,17.0554,0.12698,-0.0507767,0.608786,0
2024-12-13 15:34:41.360,0.452543,2.88485,16.6869,0.185621,-0.0752106,0.603288,0
2024-12-13 15:34:41.363,0.538684,2.84895,16.2727,0.24243,-0.0929251,0.598401,0
2024-12-13 15:34:41.365,0.600898,2.82503,15.8321,0.297406,-0.104531,0.59046,0
2024-12-13 15:34:41.367,0.643968,2.80588,15.3796,0.35055,-0.109418,0.579465,0
2024-12-13 15:34:41.372,0.708575,2.8322,14.4724,0.44714,-0.10392,0.553199,0
2024-12-13 15:34:41.372,0.708575,2.8322,14.4724,0.44714,-0.10392,0.553199,0
2024-12-13 15:34:41.374,0.718146,2.85853,14.0175,0.44714,-0.10392,0.553199,0
2024-12-13 15:34:41.377,0.710967,2.91356,13.5984,0.53327,-0.0898709,0.51838,0
2024-12-13 15:34:41.379,0.687039,2.97817,13.194,0.568088,-0.081319,0.50372,0
2024-12-13 15:34:41.381,0.667897,3.03081,12.8037,0.599852,-0.0721563,0.486616,0
2024-12-13 15:34:41.386,0.557827,3.17707,12.0398,0.649331,-0.0568851,0.456074,0
2024-12-13 15:34:41.386,0.557827,3.17707,12.0398,0.649331,-0.0568851,0.456074,0
2024-12-13 15:34:41.388,0.507577,3.25843,11.6737,0.663991,-0.0501658,0.441413,0
2024-12-13 15:34:41.391,0.45015,3.3326,11.3264,0.67804,-0.0471116,0.429807,0
2024-12-13 15:34:41.393,0.392722,3.39721,11.0082,0.682316,-0.0452791,0.41698,0
2024-12-13 15:34:41.396,0.347258,3.44985,10.7064,0.681095,-0.0446682,0.405984,0
2024-12-13 15:34:41.398,0.330509,3.49292,10.4121,0.67804,-0.0452791,0.3956,0
2024-12-13 15:34:41.400,0.316152,3.52882,10.1414,0.668267,-0.0501658,0.385216,0
2024-12-13 15:34:41.403,0.275175,3.54556,9.89492,0.651774,-0.0556635,0.375442,0
2024-12-13 15:34:41.405,0.246461,3.55274,9.67448,0.629784,-0.0611611,0.366279,0
2024-12-13 15:34:41.407,0.215354,3.5671,9.48306,0.604739,-0.0721563,0.357727,0
2024-12-13 15:34:41.410,0.184247,3.59342,9.32034,0.572364,-0.0794865,0.348565,0
2024-12-13 15:34:41.412,0.145962,3.61496,9.18126,0.539989,-0.0862058,0.342456,0
2024-12-13 15:34:41.414,0.122034,3.62453,9.05923,0.502727,-0.0972011,0.33818,0
2024-12-13 15:34:41.417,0.117248,3.64876,8.96351,0.459357,-0.108807,0.333904,0
2024-12-13 15:34:41.419,0.102891,3.67029,8.89173,0.413544,-0.119192,0.330239,0
2024-12-13 15:34:41.422,0.0933201,3.66551,8.84148,0.367043,-0.130798,0.327185,0
2024-12-13 15:34:41.426,0.100499,3.66311,8.79362,0.265031,-0.154621,0.326574,0
2024-12-13 15:34:41.426,0.100499,3.66311,8.79362,0.265031,-0.154621,0.326574,0
2024-12-13 15:34:41.429,0.102891,3.64606,8.81037,0.211888,-0.165616,0.328407,0
2024-12-13 15:34:41.431,0.122034,3.62453,8.84148,0.161187,-0.176611,0.330239,0
2024-12-13 15:34:41.433,0.167498,3.60299,8.89651,0.110487,-0.186385,0.332072,0
2024-12-13 15:34:41.436,0.222533,3.55992,8.97787,0.0634518,-0.194326,0.332683,0
2024-12-13 15:34:41.438,0.289831,3.51685,9.06162,0.0127514,-0.200434,0.336959,0
2024-12-13 15:34:41.443,0.347258,3.45703,9.29163,-0.0727672,-0.208986,0.344289,0
2024-12-13 15:34:41.443,0.347258,3.45703,9.29163,-0.0727672,-0.208986,0.344289,0
2024-12-13 15:34:41.445,0.359223,3.40439,9.43998,-0.108807,-0.209597,0.349176,0
2024-12-13 15:34:41.447,0.375972,3.36371,9.59073,-0.13996,-0.207764,0.356506,0
2024-12-13 15:34:41.450,0.407079,3.33739,9.73191,-0.168059,-0.202267,0.365058,0
2024-12-13 15:34:41.452,0.431007,3.29671,9.85903,-0.189439,-0.197991,0.377275,0
2024-12-13 15:34:41.454,0.45015,3.25603,9.97628,-0.208375,-0.188217,0.385826,0
2024-12-13 15:34:41.457,0.478864,3.22014,10.0696,-0.221814,-0.177833,0.396211,0
2024-12-13 15:34:41.459,0.507577,3.17228,10.1533,-0.231587,-0.163783,0.407206,0
2024-12-13 15:34:41.463,0.533899,3.134,10.2227,-0.241361,-0.126522,0.429807,0
2024-12-13 15:34:41.464,0.553041,3.10289,10.2802,-0.241361,-0.126522,0.429807,0
2024-12-13 15:34:41.466,0.576969,3.06909,10.328,-0.24075,-0.105142,0.440803,0
2024-12-13 15:34:41.469,0.598505,3.04038,10.34,-0.237085,-0.0794865,0.45363,0
2024-12-13 15:34:41.471,0.610469,3.01645,10.3448,-0.227312,-0.0519984,0.465237,0
2024-12-13 15:34:41.473,0.617647,2.99492,10.3328,-0.216927,-0.0220669,0.476232,0
2024-12-13 15:34:41.476,0.617647,2.95902,10.3041,-0.205932,0.00542127,0.487838,0
2024-12-13 15:34:41.478,0.593719,2.92792,10.2706,-0.189439,0.0371853,0.499444,0
2024-12-13 15:34:41.480,0.576969,2.91356,10.2156,-0.171114,0.066506,0.512272,0
2024-12-13 15:34:41.483,0.557827,2.89442,10.1342,-0.152177,0.0958267,0.524489,0
2024-12-13 15:34:41.485,0.52672,2.88006,10.0528,-0.132019,0.122704,0.538538,0
2024-12-13 15:34:41.487,0.512363,2.87288,9.98106,-0.11064,0.151414,0.553199,0
2024-12-13 15:34:41.490,0.50997,2.86331,9.88296,-0.0910926,0.17768,0.565416,0
2024-12-13 15:34:41.492,0.502792,2.85613,9.77498,-0.0672696,0.199671,0.578854,0
2024-12-13 15:34:41.497,0.474078,2.84895,9.55245,-0.0232886,0.240597,0.601456,0
2024-12-13 15:34:41.497,0.474078,2.84895,9.55245,-0.0232886,0.240597,0.601456,0
2024-12-13 15:34:41.499,0.459721,2.84417,9.43759,-0.00313059,0.25709,0.612451,0
2024-12-13 15:34:41.502,0.454935,2.8322,9.32034,0.0139731,0.270529,0.622224,0
2024-12-13 15:34:41.504,0.454935,2.8322,9.21237,0.0365745,0.283968,0.629554,0
2024-12-13 15:34:41.506,0.440578,2.84417,9.1023,0.0567324,0.29313,0.636274,0
2024-12-13 15:34:41.509,0.423829,2.84178,8.98266,0.0787229,0.30046,0.643604,0
2024-12-13 15:34:41.511,0.395115,2.82981,8.85105,0.0939941,0.306569,0.649712,0
2024-12-13 15:34:41.513,0.359223,2.82981,8.70748,0.108044,0.311456,0.655821,0
2024-12-13 15:34:41.516,0.325723,2.82981,8.56361,0.125147,0.315732,0.661319,0
2024-12-13 15:34:41.518,0.297009,2.83938,8.43679,0.136143,0.319397,0.66926,0
2024-12-13 15:34:41.520,0.27996,2.84656,8.3028,0.146527,0.323062,0.671703,0
2024-12-13 15:34:41.524,0.270389,2.85613,8.15923,0.167296,0.334668,0.680866,0
2024-12-13 15:34:41.525,0.253639,2.84417,8.01057,0.167296,0.334668,0.680866,0
2024-12-13 15:34:41.527,0.22014,2.84417,7.86461,0.176459,0.338944,0.685752,0
2024-12-13 15:34:41.530,0.198604,2.84895,7.733,0.185621,0.341998,0.690028,0
2024-12-13 15:34:41.532,0.18664,2.82742,7.59183,0.194173,0.342609,0.693693,0
2024-12-13 15:34:41.535,0.160319,2.81545,7.43839,0.197838,0.344442,0.697969,0
2024-12-13 15:34:41.537,0.141177,2.80588,7.302,0.201503,0.346885,0.701024,0
2024-12-13 15:34:41.539,0.12682,2.79153,7.17278,0.202114,0.343831,0.700413,0
2024-12-13 15:34:41.542,0.112463,2.78196,7.05075,0.203336,0.340776,0.704078,0
2024-12-13 15:34:41.544,0.0885344,2.77238,6.92363,0.201503,0.340166,0.70591,0
2024-12-13 15:34:41.546,0.0646062,2.76281,6.80878,0.19906,0.33589,0.709575,0
2024-12-13 15:34:41.549,0.0358923,2.76042,6.73221,0.19906,0.33589,0.712019,0
2024-12-13 15:34:41.551,0.00239282,2.76281,6.63649,0.196006,0.335279,0.716295,0
2024-12-13 15:34:41.553,-0.0215354,2.77238,6.54317,0.194784,0.337722,0.718127,0
2024-12-13 15:34:41.556,-0.0334995,2.77478,6.46421,0.190508,0.340776,0.721792,0
2024-12-13 15:34:41.558,-0.0430708,2.76999,6.38973,0.188065,0.344442,0.725457,0
2024-12-13 15:34:41.560,-0.0550349,2.76521,6.32752,0.183178,0.348107,0.728512,0
2024-12-13 15:34:41.563,-0.0502493,2.77717,6.25095,0.180124,0.354826,0.731566,0
2024-12-13 15:34:41.565,-0.0358923,2.77717,6.18156,0.176459,0.359102,0.732177,0
2024-12-13 15:34:41.567,-0.0382852,2.76999,6.11456,0.170961,0.368875,0.735231,0
2024-12-13 15:34:41.570,-0.0454636,2.77478,6.05713,0.166685,0.376816,0.736453,0
2024-12-13 15:34:41.572,-0.0502493,2.76999,6.0021,0.16302,0.382314,0.738285,0
2024-12-13 15:34:41.575,-0.0646062,2.77956,5.9351,0.15569,0.390866,0.738285,0
2024-12-13 15:34:41.577,-0.0837488,2.78196,5.85344,0.14897,0.398807,0.738896,0
2024-12-13 15:34:41.579,-0.0933201,2.78196,5.76491,0.139808,0.406748,0.740729,0
2024-12-13 15:34:41.582,-0.0909273,2.78674,5.70987,0.130645,0.415911,0.739507,0
2024-12-13 15:34:41.584,-0.0909273,2.78674,5.64766,0.122093,0.423852,0.738285,0
2024-12-13 15:34:41.586,-0.102891,2.79871,5.58784,0.113541,0.433014,0.736453,0
2024-12-13 15:34:41.589,-0.122034,2.80349,5.53041,0.101935,0.440955,0.73462,0
2024-12-13 15:34:41.591,-0.133998,2.80349,5.47538,0.0915507,0.447064,0.733398,0
2024-12-13 15:34:41.593,-0.141177,2.8011,5.42991,0.0781121,0.453172,0.731566,0
2024-12-13 15:34:41.598,-0.129212,2.78196,5.35574,0.0518457,0.461724,0.724236,0
2024-12-13 15:34:41.598,-0.129212,2.78196,5.35574,0.0518457,0.461724,0.724236,0
2024-12-13 15:34:41.600,-0.133998,2.77956,5.32433,0.0371853,0.465389,0.722403,0
2024-12-13 15:34:41.603,-0.117248,2.76521,5.31715,0.0213033,0.465389,0.718738,0
2024-12-13 15:34:41.605,-0.124427,2.76521,5.31715,0.00664296,0.465389,0.715073,0
2024-12-13 15:34:41.608,-0.160319,2.74367,5.3004,-0.0104608,0.464168,0.708965,0
2024-12-13 15:34:41.610,-0.172283,2.69103,5.26929,-0.0269536,0.463557,0.703467,0
2024-12-13 15:34:41.612,-0.177069,2.65514,5.24058,-0.0458899,0.462335,0.696137,0
2024-12-13 15:34:41.615,-0.191426,2.64796,5.21665,-0.0648262,0.460502,0.691861,0
2024-12-13 15:34:41.617,-0.191426,2.63839,5.22144,-0.081319,0.459892,0.685142,0
2024-12-13 15:34:41.619,-0.193819,2.61207,5.24297,-0.102699,0.456227,0.678422,0
2024-12-13 15:34:41.622,-0.222533,2.59532,5.28126,-0.121635,0.45134,0.674757,0
2024-12-13 15:34:41.624,-0.258425,2.59292,5.33181,-0.13996,0.445842,0.668649,0
2024-12-13 15:34:41.626,-0.272782,2.57139,5.37727,-0.158286,0.439734,0.663762,0
2024-12-13 15:34:41.629,-0.272782,2.53549,5.45623,-0.177222,0.428128,0.660097,0
2024-12-13 15:34:41.631,-0.282652,2.51366,5.56152,-0.191272,0.423241,0.654599,0
2024-12-13 15:34:41.633,-0.325723,2.48255,5.64766,-0.205321,0.4153,0.651545,0
2024-12-13 15:34:41.636,-0.368794,2.44666,5.68834,-0.219981,0.412246,0.648491,0
2024-12-13 15:34:41.643,-0.330509,2.3988,5.90399,-0.253578,0.405526,0.636885,0
2024-12-13 15:34:41.643,-0.330509,2.3988,5.90399,-0.253578,0.405526,0.636885,0
2024-12-13 15:34:41.645,-0.320937,2.35334,5.98535,-0.262741,0.406137,0.631998,0
2024-12-13 15:34:41.645,-0.320937,2.35334,5.98535,-0.262741,0.406137,0.631998,0
2024-12-13 15:34:41.648,-0.313759,2.31266,6.03799,-0.268238,0.406137,0.627111,0
2024-12-13 15:34:41.650,-0.318545,2.29352,6.09542,-0.272514,0.406137,0.622224,0
2024-12-13 15:34:41.652,-0.318545,2.25524,6.16481,-0.271903,0.406748,0.61917,0
2024-12-13 15:34:41.655,-0.301795,2.20738,6.2342,-0.273125,0.40858,0.614894,0
2024-12-13 15:34:41.659,-0.285045,2.14517,6.41845,-0.270682,0.412856,0.610618,0
2024-12-13 15:34:41.659,-0.285045,2.14517,6.41845,-0.270682,0.412856,0.610618,0
2024-12-13 15:34:41.669,-0.270389,1.82423,6.64846,-0.215095,0.405526,0.570302,0
2024-12-13 15:34:41.669,-0.270389,1.82423,6.64846,-0.215095,0.405526,0.570302,0
2024-12-13 15:34:41.671,-0.490828,2.07099,6.41845,-0.201656,0.452561,0.572135,0
2024-12-13 15:34:41.671,-0.490828,2.07099,6.41845,-0.201656,0.452561,0.572135,0
2024-12-13 15:34:41.672,-0.490828,2.07099,6.41845,-0.201656,0.452561,0.572135,0
2024-12-13 15:34:41.673,-0.498006,2.19541,6.6006,-0.201656,0.452561,0.572135,0
2024-12-13 15:34:41.676,-0.569791,2.28156,6.71067,-0.170503,0.495932,0.584963,0
2024-12-13 15:34:41.678,-0.675075,2.34856,6.65564,-0.15401,0.508149,0.595347,0
2024-12-13 15:34:41.681,-0.706182,2.37488,6.56949,-0.140571,0.520976,0.606342,0
2024-12-13 15:34:41.683,-0.622433,2.33659,6.536,-0.131409,0.525863,0.615505,0
2024-12-13 15:34:41.685,-0.531506,2.25045,6.5671,-0.119802,0.520976,0.622835,0
2024-12-13 15:34:41.688,-0.498006,2.13081,6.56471,-0.110029,0.513035,0.6265,0
2024-12-13 15:34:41.690,-0.478864,2.0351,6.49771,-0.0996445,0.501429,0.631998,0
2024-12-13 15:34:41.692,-0.4669,1.98006,6.43041,-0.0886492,0.493488,0.631998,0
2024-12-13 15:34:41.695,-0.4669,1.96301,6.39213,-0.0752106,0.486158,0.631387,0
2024-12-13 15:34:41.697,-0.471685,1.98006,6.3682,-0.0678804,0.484326,0.63383,0
2024-12-13 15:34:41.699,-0.502792,2.02074,6.35623,-0.0556635,0.481271,0.636885,0
2024-12-13 15:34:41.702,-0.555434,2.04227,6.33231,-0.0465007,0.476385,0.638717,0
2024-12-13 15:34:41.704,-0.586541,2.04467,6.28206,-0.0385597,0.475163,0.641771,0
2024-12-13 15:34:41.706,-0.347258,1.88405,6.43041,-0.0342838,0.463557,0.642993,0
2024-12-13 15:34:41.709,-0.12682,1.68066,6.67478,-0.0220669,0.417743,0.627722,0
2024-12-13 15:34:41.711,-0.452543,1.84337,6.31316,-0.00801737,0.400029,0.615505,0
2024-12-13 15:34:41.716,-0.813859,2.36291,5.98056,-0.00801737,0.428128,0.621003,0
2024-12-13 15:34:41.716,-0.813859,2.36291,5.98056,-0.00801737,0.428128,0.621003,0
2024-12-13 15:34:41.718,-0.873978,2.48973,6.08824,-0.00801737,0.4153,0.627722,0
2024-12-13 15:34:41.721,-0.988834,2.58574,6.03799,-0.00740652,0.400029,0.636885,0
2024-12-13 15:34:41.723,-1.05344,2.62881,5.95663,-0.0122933,0.385368,0.650323,0
2024-12-13 15:34:41.725,-1.01755,2.6001,5.96381,-0.0232886,0.367043,0.659486,0
2024-12-13 15:34:41.728,-0.931406,2.52323,6.03081,-0.0355055,0.340776,0.66926,0
2024-12-13 15:34:41.730,-0.852443,2.42991,6.11217,-0.0434465,0.304126,0.674146,0
2024-12-13 15:34:41.733,-0.794716,2.33898,6.2007,-0.0562743,0.265031,0.677811,0
2024-12-13 15:34:41.735,-0.754038,2.26002,6.27966,-0.065437,0.229602,0.680255,0
2024-12-13 15:34:41.737,-0.73011,2.22652,6.32273,-0.0794865,0.197227,0.680866,0
2024-12-13 15:34:41.739,-0.715753,2.22413,6.35384,-0.0892601,0.169739,0.681476,0
2024-12-13 15:34:41.742,-0.715753,2.2337,6.38973,-0.104531,0.145305,0.682698,0
2024-12-13 15:34:41.744,-0.71336,2.27916,6.44238,-0.118581,0.124536,0.68392,0
2024-12-13 15:34:41.746,-0.715753,2.3342,6.52164,-0.131409,0.104379,0.683309,0
2024-12-13 15:34:41.749,-0.715753,2.38923,6.6006,-0.149123,0.0842206,0.684531,0
2024-12-13 15:34:41.751,-0.708575,2.42752,6.69153,-0.169281,0.0622301,0.688196,0
2024-12-13 15:34:41.754,-0.710967,2.46341,6.81596,-0.186996,0.0414613,0.690639,0
2024-12-13 15:34:41.756,-0.71336,2.50648,6.95235,-0.206543,0.0206925,0.695526,0
2024-12-13 15:34:41.761,-0.682254,2.5666,7.20628,-0.241972,-0.0208452,0.703467,0
2024-12-13 15:34:41.761,-0.682254,2.5666,7.20628,-0.241972,-0.0208452,0.703467,0
2024-12-13 15:34:41.763,-0.660718,2.60249,7.3355,-0.262741,-0.0385597,0.708965,0
2024-12-13 15:34:41.765,-0.63679,2.6336,7.44796,-0.277401,-0.0550526,0.713241,0
2024-12-13 15:34:41.768,-0.600898,2.65753,7.55803,-0.296948,-0.0691021,0.716295,0
2024-12-13 15:34:41.770,-0.555434,2.67906,7.68993,-0.31283,-0.0807082,0.723014,0
2024-12-13 15:34:41.775,-0.486042,2.66949,7.97229,-0.343373,-0.106975,0.730344,0
2024-12-13 15:34:41.775,-0.486042,2.66949,7.97229,-0.343373,-0.106975,0.730344,0
2024-12-13 15:34:41.777,-0.426222,2.66471,8.09193,-0.358033,-0.11797,0.737674,0
2024-12-13 15:34:41.779,-0.364008,2.6671,8.20469,-0.372082,-0.132019,0.740118,0
2024-12-13 15:34:41.782,-0.313759,2.66949,8.30519,-0.38491,-0.143625,0.743783,0
2024-12-13 15:34:41.784,-0.256032,2.66949,8.41526,-0.400181,-0.156453,0.749281,0
2024-12-13 15:34:41.787,-0.196211,2.65992,8.52772,-0.414842,-0.171724,0.754167,0
2024-12-13 15:34:41.789,-0.150748,2.67667,8.61386,-0.423394,-0.19005,0.757222,0
2024-12-13 15:34:41.791,-0.124427,2.71256,8.68804,-0.436221,-0.208375,0.763941,0
2024-12-13 15:34:41.794,-0.0837488,2.72453,8.79602,-0.445384,-0.226701,0.767606,0
2024-12-13 15:34:41.796,-0.026321,2.7006,8.91566,-0.453325,-0.247469,0.769439,0
2024-12-13 15:34:41.798,0.0454636,2.68624,9.03051,-0.462488,-0.26946,0.772493,0
2024-12-13 15:34:41.801,0.119641,2.67189,9.15973,-0.469818,-0.29084,0.773104,0
2024-12-13 15:34:41.803,0.172283,2.65514,9.29402,-0.47165,-0.309776,0.774936,0
2024-12-13 15:34:41.805,0.162712,2.68146,9.43281,-0.474705,-0.328101,0.780434,0
2024-12-13 15:34:41.808,0.155533,2.7006,9.55484,-0.474094,-0.342762,0.785931,0
2024-12-13 15:34:41.810,0.189033,2.69103,9.7008,-0.47165,-0.354979,0.79204,0
2024-12-13 15:34:41.812,0.215354,2.68146,9.9021,-0.466153,-0.366585,0.802424,0
2024-12-13 15:34:41.815,0.232104,2.68624,10.1055,-0.457601,-0.375137,0.811587,0
2024-12-13 15:34:41.817,0.251246,2.67906,10.3208,-0.44966,-0.379413,0.821971,0
2024-12-13 15:34:41.819,0.325723,2.65992,10.5365,-0.435,-0.376969,0.834188,0
2024-12-13 15:34:41.823,0.435793,2.65992,10.7112,-0.397127,-0.362309,0.855568,0
2024-12-13 15:34:41.824,0.54347,2.69342,10.8715,-0.397127,-0.362309,0.855568,0
2024-12-13 15:34:41.827,0.670289,2.77478,11.0345,-0.372693,-0.343983,0.862898,0
2024-12-13 15:34:41.829,0.804287,2.89681,11.1685,-0.349481,-0.322604,0.868396,0
2024-12-13 15:34:41.831,0.912264,3.05474,11.2379,-0.322604,-0.294505,0.873893,0
2024-12-13 15:34:41.834,1.00798,3.25843,11.2379,-0.292672,-0.2548,0.875726,0
2024-12-13 15:34:41.836,1.07258,3.49771,11.1924,-0.265795,-0.212651,0.877558,0
2024-12-13 15:34:41.838,1.11087,3.75165,11.1254,-0.242583,-0.164394,0.882445,0
2024-12-13 15:34:41.841,1.12762,3.99093,11.0417,-0.217538,-0.11064,0.881834,0
2024-12-13 15:34:41.843,1.11087,4.22572,10.9436,-0.198602,-0.0587177,0.881223,0
2024-12-13 15:34:41.845,1.09412,4.46261,10.8571,-0.184552,-0.0129041,0.880002,0
2024-12-13 15:34:41.848,1.07976,4.67318,10.8045,-0.176,0.0237467,0.880613,0
2024-12-13 15:34:41.850,1.04865,4.85055,10.7973,-0.172946,0.0518457,0.876337,0
2024-12-13 15:34:41.852,1.01037,4.98216,10.8547,-0.17539,0.0652843,0.87145,0
2024-12-13 15:34:41.855,0.986441,5.05633,10.9843,-0.180887,0.0695602,0.86412,0
2024-12-13 15:34:41.857,0.979263,5.05394,11.1876,-0.180887,0.0695602,0.86412,0
2024-12-13 15:34:41.860,0.96012,4.99891,11.4628,-0.208375,0.0469589,0.837243,0
2024-12-13 15:34:41.862,0.909871,4.92951,11.8053,-0.219981,0.0231358,0.82075,0
2024-12-13 15:34:41.864,0.833001,4.83619,12.1741,-0.237085,-0.00862822,0.803035,0
2024-12-13 15:34:41.867,0.710967,4.72104,12.5689,-0.257854,-0.0446682,0.785931,0
2024-12-13 15:34:41.869,0.545863,4.58704,13.0023,-0.277401,-0.0837624,0.770049,0
2024-12-13 15:34:41.871,0.349651,4.44586,13.474,-0.29817,-0.127743,0.757222,0
2024-12-13 15:34:41.876,-0.0334995,4.22094,14.4461,-0.344594,-0.213262,0.740729,0
2024-12-13 15:34:41.876,-0.0334995,4.22094,14.4461,-0.344594,-0.213262,0.740729,0
2024-12-13 15:34:41.878,-0.212961,4.12253,14.956,-0.364752,-0.250524,0.738896,0
2024-12-13 15:34:41.881,-0.380758,4.034,15.4804,-0.389186,-0.282899,0.74134,0
2024-12-13 15:34:41.883,-0.521934,3.94307,16.031,-0.411787,-0.306111,0.746837,0
2024-12-13 15:34:41.885,-0.629611,3.85693,16.6056,-0.430724,-0.317106,0.756611,0
2024-12-13 15:34:41.888,-0.684646,3.7684,17.1706,-0.445995,-0.318939,0.767606,0
2024-12-13 15:34:41.890,-0.687039,3.68704,17.7284,-0.455158,-0.307943,0.781045,0
2024-12-13 15:34:41.892,-0.667897,3.59821,18.2671,-0.461266,-0.283509,0.795094,0
2024-12-13 15:34:41.895,-0.632004,3.50728,18.7648,-0.457601,-0.246859,0.809754,0
2024-12-13 15:34:41.897,-0.574577,3.40439,19.2126,-0.449049,-0.199213,0.824415,0
2024-12-13 15:34:41.900,-0.498006,3.28475,19.622,-0.435,-0.137517,0.838464,0
2024-12-13 15:34:41.902,-0.409472,3.17228,19.9573,-0.414231,-0.0678804,0.848849,0
2024-12-13 15:34:41.904,-0.308973,3.05952,20.2158,-0.388575,0.00908635,0.859233,0
2024-12-13 15:34:41.907,-0.20339,2.95663,20.3976,-0.352535,0.0915507,0.867785,0
2024-12-13 15:34:41.909,-0.112463,2.8681,20.496,-0.313441,0.175237,0.873282,2
2024-12-13 15:34:41.911,-0.00478565,2.79631,20.5247,-0.270682,0.260755,0.87878,0
2024-12-13 15:34:41.914,0.112463,2.74846,20.455,-0.222425,0.339555,0.883056,0
2024-12-13 15:34:41.916,0.289831,2.73888,20.2205,-0.172335,0.4153,0.883056,0
2024-12-13 15:34:41.918,0.612862,2.79392,19.89,-0.122246,0.469054,0.874504,0
2024-12-13 15:34:41.921,0.265603,2.80349,19.6819,-0.0697129,0.528307,0.863509,0
2024-12-13 15:34:41.923,-0.464507,2.73649,19.3852,-0.0122933,0.599776,0.87145,0
2024-12-13 15:34:41.925,-0.694218,2.67906,18.9853,0.0439046,0.65353,0.887332,0
2024-12-13 15:34:41.928,-0.737288,2.64556,18.6428,0.100103,0.69629,0.904436,0
2024-12-13 15:34:41.930,-0.775574,2.66471,18.1543,0.150192,0.730573,0.920318,0
2024-12-13 15:34:41.933,-0.878764,2.73171,17.6348,0.194173,0.752564,0.936811,0
2024-12-13 15:34:41.935,-1.0319,2.84895,17.1921,0.236322,0.769668,0.949028,0
2024-12-13 15:34:41.937,-1.18265,2.9997,16.7874,0.275416,0.775165,0.967964,0
2024-12-13 15:34:41.940,-1.30947,3.16032,16.3828,0.309012,0.775165,0.985068,0
2024-12-13 15:34:41.942,-1.4004,3.32303,15.9661,0.337111,0.766002,0.999728,0
2024-12-13 15:34:41.944,-1.44377,3.49053,15.5378,0.359102,0.746455,1.015,0
2024-12-13 15:34:41.947,-1.44138,3.65354,15.1355,0.371395,0.715913,1.02294,0
2024-12-13 15:34:41.949,-1.41745,3.79711,14.7954,0.377504,0.679797,1.02783,0
2024-12-13 15:34:41.951,-1.42702,3.90718,14.5107,0.376893,0.640702,1.02844,0
2024-12-13 15:34:41.954,-1.4342,3.99332,14.2783,0.368952,0.594889,1.02599,0
2024-12-13 15:34:41.956,-1.41984,4.06032,14.1251,0.360934,0.546021,1.01927,0
2024-12-13 15:34:41.958,-1.41984,4.08425,14.0414,0.348107,0.493488,1.0095,0
2024-12-13 15:34:41.961,-1.45095,4.08425,13.9935,0.331003,0.440345,0.998506,0
2024-12-13 15:34:41.963,-1.50359,4.06271,13.9887,0.331003,0.440345,0.998506,0
2024-12-13 15:34:41.966,-1.57537,4.034,14.0342,0.288244,0.339555,0.967964,0
2024-12-13 15:34:41.968,-1.65434,4.00289,14.1036,0.261366,0.29313,0.953914,0
2024-12-13 15:34:41.970,-1.74766,3.94547,14.185,0.232046,0.250982,0.941087,0
2024-12-13 15:34:41.973,-1.83619,3.87368,14.2854,0.200282,0.208833,0.931924,0
2024-12-13 15:34:41.975,-1.88644,3.79472,14.3719,0.167907,0.172183,0.923372,0
2024-12-13 15:34:41.980,-1.89123,3.69661,14.738,0.101935,0.114763,0.909323,0
2024-12-13 15:34:41.980,-1.88166,3.58146,14.738,0.101935,0.114763,0.909323,0
2024-12-13 15:34:41.982,-1.8673,3.45464,14.901,0.0677277,0.0909399,0.902603,0
2024-12-13 15:34:41.984,-1.82423,3.30868,15.0278,0.0371853,0.0793338,0.897716,0
2024-12-13 15:34:41.987,-1.72612,3.17707,15.157,0.00786466,0.0732253,0.894051,0
2024-12-13 15:34:41.989,-1.59691,3.05713,15.2815,-0.0184018,0.0817772,0.889165,0
2024-12-13 15:34:41.991,-1.47488,2.93031,15.3772,-0.0391706,0.100103,0.882445,0
2024-12-13 15:34:41.994,-1.34058,2.81785,15.4397,-0.0391706,0.100103,0.882445,0
2024-12-13 15:34:41.996,-1.21376,2.72453,15.4756,-0.0666587,0.159966,0.87145,0
2024-12-13 15:34:41.998,-1.0989,2.65274,15.478,-0.073378,0.202114,0.866563,0
2024-12-13 15:34:42.001,-0.984048,2.59771,15.4083,-0.0752106,0.247928,0.859233,0
2024-12-13 15:34:42.003,-0.862014,2.53789,15.2862,-0.0764323,0.291909,0.851292,0
2024-12-13 15:34:42.006,-0.739681,2.48255,15.1283,-0.0697129,0.33589,0.843351,0
2024-12-13 15:34:42.009,-0.632004,2.42991,14.9273,-0.0538309,0.403694,0.825026,0
2024-12-13 15:34:42.010,-0.555434,2.39163,14.7356,-0.0538309,0.403694,0.825026,0
2024-12-13 15:34:42.013,-0.517149,2.37488,14.5466,-0.0379489,0.429349,0.815863,0
2024-12-13 15:34:42.015,-0.495613,2.35573,14.3288,-0.021456,0.447675,0.808533,0
2024-12-13 15:34:42.017,-0.445364,2.34377,14.0892,0.000534491,0.464168,0.800592,0
2024-12-13 15:34:42.020,-0.375972,2.31984,13.838,0.0286335,0.483104,0.791429,0
2024-12-13 15:34:42.022,-0.330509,2.30548,13.5721,0.0603975,0.500818,0.785931,0
2024-12-13 15:34:42.024,-0.299402,2.30788,13.2897,0.094605,0.512424,0.778601,0
2024-12-13 15:34:42.027,-0.292223,2.28634,12.9736,0.130034,0.527085,0.773714,0
2024-12-13 15:34:42.029,-0.299402,2.26481,12.6266,0.17035,0.539913,0.768217,0
2024-12-13 15:34:42.031,-0.292223,2.24806,12.2913,0.210055,0.547243,0.766384,0
2024-12-13 15:34:42.034,-0.258425,2.22652,11.9608,0.252204,0.551519,0.762719,0
2024-12-13 15:34:42.036,-0.208176,2.20259,11.6019,0.294352,0.549686,0.760887,0
2024-12-13 15:34:42.039,-0.172283,2.19063,11.2379,0.3365,0.541745,0.759054,0
2024-12-13 15:34:42.041,-0.165105,2.18584,10.8715,0.378725,0.532582,0.758443,0
2024-12-13 15:34:42.043,-0.157926,2.19541,10.4767,0.419652,0.52342,0.758443,0
2024-12-13 15:34:42.046,-0.145962,2.21216,10.0816,0.463633,0.511203,0.760887,0
2024-12-13 15:34:42.048,-0.129212,2.24327,9.69841,0.500895,0.497153,0.759665,0
2024-12-13 15:34:42.050,-0.114855,2.27677,9.30359,0.535713,0.483715,0.760887,0
2024-12-13 15:34:42.053,-0.117248,2.31027,8.89891,0.56931,0.472109,0.760887,0
2024-12-13 15:34:42.055,-0.11007,2.3677,8.51097,0.59863,0.459892,0.761497,0
2024-12-13 15:34:42.057,-0.0957129,2.41555,8.12782,0.625508,0.445842,0.76333,0
2024-12-13 15:34:42.060,-0.0861416,2.46102,7.7354,0.646887,0.434847,0.765773,0
2024-12-13 15:34:42.062,-0.0622134,2.50887,7.35225,0.662769,0.418354,0.763941,0
2024-12-13 15:34:42.064,-0.0454636,2.54267,6.99542,0.674986,0.403083,0.762108,0
2024-12-13 15:34:42.067,-0.0382852,2.5666,6.66521,0.682927,0.388422,0.76333,0
2024-12-13 15:34:42.069,-0.0143569,2.57617,6.34188,0.685371,0.371319,0.759054,0
2024-12-13 15:34:42.071,0.00239282,2.6001,6.02602,0.687203,0.354215,0.754778,0
2024-12-13 15:34:42.074,0.0239282,2.61685,5.73619,0.683538,0.337111,0.749891,0
2024-12-13 15:34:42.077,0.040678,2.62164,5.45145,0.660937,0.301682,0.735842,0
2024-12-13 15:34:42.079,0.0454636,2.62403,5.18315,0.660937,0.301682,0.735842,0
2024-12-13 15:34:42.081,0.0454636,2.61685,4.96062,0.643833,0.282135,0.72729,0
2024-12-13 15:34:42.083,0.0430708,2.60967,4.75693,0.624897,0.266253,0.718127,0
2024-12-13 15:34:42.086,0.0502493,2.62164,4.56551,0.603517,0.24976,0.710797,0
2024-12-13 15:34:42.088,0.0287139,2.62164,4.40279,0.578472,0.233267,0.699802,0
2024-12-13 15:34:42.090,-0.0143569,2.59292,4.24008,0.549152,0.222272,0.688196,0
2024-12-13 15:34:42.093,-0.026321,2.58814,4.06032,0.517998,0.21372,0.679033,0
2024-12-13 15:34:42.095,-0.0191426,2.60249,3.90479,0.485624,0.207001,0.66987,0
2024-12-13 15:34:42.097,-0.00717847,2.60728,3.8019,0.450194,0.202114,0.660097,0
2024-12-13 15:34:42.100,-0.0191426,2.60489,3.71575,0.412322,0.197227,0.650323,0
2024-12-13 15:34:42.102,-0.040678,2.60728,3.62931,0.373228,0.194173,0.639328,0
2024-12-13 15:34:42.104,-0.0765703,2.6336,3.60539,0.334057,0.192341,0.630776,0
2024-12-13 15:34:42.107,-0.105284,2.66949,3.61735,0.296795,0.186843,0.622224,0
2024-12-13 15:34:42.109,-0.0861416,2.67906,3.62214,0.259534,0.182567,0.616727,0
2024-12-13 15:34:42.112,-0.0550349,2.62881,3.61735,0.219829,0.182567,0.608786,0
2024-12-13 15:34:42.114,-0.0239282,2.54985,3.61017,0.181956,0.188675,0.598401,0
2024-12-13 15:34:42.116,0.0,2.51366,3.61496,0.145305,0.197227,0.589849,0
2024-12-13 15:34:42.119,0.0287139,2.5017,3.62931,0.109265,0.207612,0.580687,0
2024-12-13 15:34:42.121,0.026321,2.52592,3.62453,0.0756687,0.22044,0.571524,0
2024-12-13 15:34:42.124,-0.0311067,2.58335,3.61256,0.00664296,0.266864,0.555642,0
2024-12-13 15:34:42.126,-0.0909273,2.63839,3.60539,0.00664296,0.266864,0.555642,0
2024-12-13 15:34:42.128,-0.150748,2.68385,3.63171,-0.0287862,0.288854,0.551977,0
2024-12-13 15:34:42.130,-0.208176,2.72213,3.69661,-0.0629936,0.310234,0.546479,0
2024-12-13 15:34:42.133,-0.246461,2.74846,3.76361,-0.0984228,0.329781,0.544036,0
2024-12-13 15:34:42.135,-0.294616,2.74606,3.84975,-0.132019,0.345052,0.544036,0
2024-12-13 15:34:42.137,-0.342473,2.74367,3.93829,-0.16134,0.359713,0.542814,0
2024-12-13 15:34:42.140,-0.359223,2.74367,4.034,-0.191272,0.370708,0.53976,0
2024-12-13 15:34:42.142,-0.375972,2.7341,4.14407,-0.223036,0.380481,0.540982,0
2024-12-13 15:34:42.145,-0.407079,2.71496,4.27358,-0.252967,0.38659,0.540982,0
2024-12-13 15:34:42.147,-0.445364,2.71496,4.41236,-0.279234,0.398196,0.540371,0
2024-12-13 15:34:42.149,-0.478864,2.73171,4.54876,-0.301224,0.399418,0.540982,0
2024-12-13 15:34:42.154,-0.52672,2.72931,4.8003,-0.301224,0.399418,0.540982,0
2024-12-13 15:34:42.156,-0.553041,2.73171,4.91516,-0.362309,0.393309,0.540982,0
2024-12-13 15:34:42.156,-0.553041,2.73171,4.91516,-0.362309,0.393309,0.540982,0
2024-12-13 15:34:42.161,-0.651147,2.7341,5.15205,-0.395295,0.367043,0.542814,0
2024-12-13 15:34:42.161,-0.651147,2.7341,5.15205,-0.395295,0.367043,0.542814,0
2024-12-13 15:34:42.163,-0.701396,2.73171,5.28844,-0.408122,0.349939,0.545258,0
2024-12-13 15:34:42.166,-0.76361,2.73888,5.45384,-0.421561,0.327949,0.547701,0
2024-12-13 15:34:42.168,-0.833001,2.76281,5.60698,-0.433167,0.304736,0.552588,0
2024-12-13 15:34:42.170,-0.905085,2.77956,5.74337,-0.444162,0.277859,0.556864,0
2024-12-13 15:34:42.173,-0.99362,2.78913,5.89681,-0.453936,0.250371,0.559918,0
2024-12-13 15:34:42.175,-1.07498,2.80588,6.04277,-0.463709,0.222883,0.565416,0
2024-12-13 15:34:42.177,-1.1659,2.82024,6.17917,-0.474705,0.195395,0.572746,0
2024-12-13 15:34:42.180,-1.24247,2.81306,6.34906,-0.482035,0.16302,0.581298,0
2024-12-13 15:34:42.182,-1.30947,2.79153,6.536,-0.492419,0.133699,0.589849,0
2024-12-13 15:34:42.185,-1.38604,2.77478,6.73939,-0.499749,0.106822,0.599623,0
2024-12-13 15:34:42.187,-1.46291,2.7676,6.97388,-0.502804,0.0781121,0.609397,0
2024-12-13 15:34:42.189,-1.52752,2.76042,7.19432,-0.503415,0.0475697,0.620392,0
2024-12-13 15:34:42.192,-1.57777,2.75324,7.40489,-0.504636,0.0231358,0.63322,0
2024-12-13 15:34:42.196,-1.64955,2.74846,7.86461,-0.501582,-0.0245102,0.658875,0
2024-12-13 15:34:42.196,-1.64955,2.74846,7.86461,-0.501582,-0.0245102,0.658875,0
2024-12-13 15:34:42.201,-1.69502,2.77956,8.28605,-0.501582,-0.0245102,0.658875,0
2024-12-13 15:34:42.203,-1.72612,2.77717,8.46311,-0.482646,-0.0684913,0.700413,0
2024-12-13 15:34:42.203,-1.72612,2.77717,8.46311,-0.482646,-0.0684913,0.700413,0
2024-12-13 15:34:42.206,-1.74527,2.76521,8.63779,-0.472261,-0.0825407,0.713851,0
2024-12-13 15:34:42.208,-1.75005,2.76281,8.81277,-0.462488,-0.0898709,0.726068,0
2024-12-13 15:34:42.210,-1.75484,2.77478,8.99223,-0.454547,-0.0990336,0.740118,0
2024-12-13 15:34:42.213,-1.78116,2.75085,9.17408,-0.443551,-0.104531,0.753556,0
2024-12-13 15:34:42.215,-1.80748,2.71974,9.32513,-0.432556,-0.108807,0.766995,0
2024-12-13 15:34:42.220,-1.83141,2.65274,9.60509,-0.411177,-0.11064,0.793262,0
2024-12-13 15:34:42.220,-1.83141,2.65274,9.60509,-0.411177,-0.11064,0.793262,0
2024-12-13 15:34:42.222,-1.87687,2.62403,9.74866,-0.400181,-0.108196,0.806089,0
2024-12-13 15:34:42.225,-1.9008,2.58814,9.89971,-0.389797,-0.106975,0.820139,0
2024-12-13 15:34:42.227,-1.92233,2.56421,10.0385,-0.37758,-0.100866,0.834799,0
2024-12-13 15:34:42.229,-1.94387,2.55703,10.1701,-0.362309,-0.0941468,0.848849,0
2024-12-13 15:34:42.232,-1.95105,2.54985,10.3089,-0.346427,-0.0886492,0.864731,0
2024-12-13 15:34:42.234,-1.95583,2.52832,10.448,-0.337875,-0.081319,0.882445,0
2024-12-13 15:34:42.236,-1.93669,2.51127,10.5676,-0.325658,-0.0745997,0.898327,0
2024-12-13 15:34:42.239,-1.91516,2.50887,10.6849,-0.310998,-0.0636045,0.913598,0
2024-12-13 15:34:42.241,-1.89123,2.50409,10.7925,-0.300002,-0.0544418,0.92887,0
2024-12-13 15:34:42.243,-1.85533,2.48734,10.8954,-0.289618,-0.0422248,0.944141,0
2024-12-13 15:34:42.246,-1.80987,2.48734,10.9866,-0.279234,-0.0312296,0.957579,0
2024-12-13 15:34:42.248,-1.76441,2.48973,11.0632,-0.266406,-0.0159584,0.969186,0
2024-12-13 15:34:42.250,-1.72852,2.48495,11.1517,-0.256632,-0.00313059,0.97957,0
2024-12-13 15:34:42.253,-1.68305,2.5017,11.2403,-0.246859,0.00908635,0.989343,0
2024-12-13 15:34:42.255,-1.62323,2.51366,11.324,-0.237085,0.0219141,0.999117,0
2024-12-13 15:34:42.258,-1.55384,2.52592,11.3982,-0.229144,0.0329094,1.00278,0
