timestamp,accel_x,accel_y,accel_z,gyro_x,gyro_y,gyro_z,step_timestamp
2024-12-13 15:36:08.235,0.502792,2.91835,10.4934,-0.0562743,0.0481806,0.0149658,0
2024-12-13 15:36:08.235,0.502792,2.91835,10.4934,-0.0562743,0.0481806,0.0149658,0
2024-12-13 15:36:08.235,0.502792,2.91835,10.4934,-0.0562743,0.0481806,0.0149658,0
2024-12-13 15:36:08.235,0.502792,2.91835,10.4934,-0.0562743,0.0481806,0.0149658,0
2024-12-13 15:36:08.235,0.502792,2.91835,10.4934,-0.0562743,0.0481806,0.0149658,0
2024-12-13 15:36:08.235,0.502792,2.91835,10.4934,-0.0562743,0.0481806,0.0149658,0
2024-12-13 15:36:08.235,0.502792,2.91835,10.4934,-0.0562743,0.0481806,0.0149658,0
2024-12-13 15:36:08.235,0.502792,2.91835,10.4934,-0.0562743,0.0481806,0.0149658,0
2024-12-13 15:36:08.235,0.502792,2.91835,10.4934,-0.0562743,0.0481806,0.0149658,0
2024-12-13 15:36:08.235,0.502792,2.91835,10.4934,-0.0562743,0.0481806,0.0149658,0
2024-12-13 15:36:08.235,0.502792,2.91835,10.4934,-0.0562743,0.0481806,0.0149658,0
2024-12-13 15:36:08.235,0.502792,2.91835,10.4934,-0.0562743,0.0481806,0.0149658,0
2024-12-13 15:36:08.238,0.512363,2.92792,10.4623,-0.0489441,0.0481806,0.0174091,0
2024-12-13 15:36:08.238,0.512363,2.92792,10.4623,-0.0489441,0.0481806,0.0174091,0
2024-12-13 15:36:08.238,0.512363,2.92792,10.4623,-0.0489441,0.0481806,0.0174091,0
2024-12-13 15:36:08.238,0.512363,2.92792,10.4623,-0.0489441,0.0481806,0.0174091,0
2024-12-13 15:36:08.238,0.512363,2.92792,10.4623,-0.0489441,0.0481806,0.0174091,0
2024-12-13 15:36:08.238,0.512363,2.92792,10.4623,-0.0489441,0.0481806,0.0174091,0
2024-12-13 15:36:08.240,0.512363,2.94706,10.4408,-0.0385597,0.0500131,0.0216851,0
2024-12-13 15:36:08.240,0.514756,2.94706,10.4408,-0.0385597,0.0500131,0.0216851,0
2024-12-13 15:36:08.240,0.514756,2.94706,10.4408,-0.0385597,0.0500131,0.0216851,0
2024-12-13 15:36:08.240,0.514756,2.94706,10.4408,-0.0385597,0.0500131,0.0216851,0
2024-12-13 15:36:08.240,0.514756,2.94706,10.4408,-0.0385597,0.0500131,0.0216851,0
2024-12-13 15:36:08.240,0.514756,2.94706,10.4408,-0.0385597,0.0500131,0.0216851,0
2024-12-13 15:36:08.240,0.514756,2.94706,10.4408,-0.0385597,0.0500131,0.0216851,0
2024-12-13 15:36:08.240,0.514756,2.94706,10.4408,-0.0385597,0.0500131,0.0216851,0
2024-12-13 15:36:08.240,0.514756,2.94706,10.4408,-0.0385597,0.0500131,0.0216851,0
2024-12-13 15:36:08.240,0.514756,2.94706,10.4408,-0.0385597,0.0500131,0.0216851,0
2024-12-13 15:36:08.243,0.541077,2.95185,10.4001,-0.0281753,0.0530674,0.0241285,0
2024-12-13 15:36:08.243,0.541077,2.95185,10.4001,-0.0281753,0.0530674,0.0241285,0
2024-12-13 15:36:08.243,0.541077,2.95185,10.4001,-0.0281753,0.0530674,0.0241285,0
2024-12-13 15:36:08.243,0.541077,2.95185,10.4001,-0.0281753,0.0530674,0.0241285,0
2024-12-13 15:36:08.243,0.541077,2.95185,10.4001,-0.0281753,0.0530674,0.0241285,0
2024-12-13 15:36:08.243,0.541077,2.95185,10.4001,-0.0281753,0.0530674,0.0241285,0
2024-12-13 15:36:08.243,0.541077,2.95185,10.4001,-0.0281753,0.0530674,0.0241285,0
2024-12-13 15:36:08.245,0.562612,2.95663,10.3543,-0.0184018,0.0555107,0.0271827,0
2024-12-13 15:36:08.245,0.562612,2.95663,10.3543,-0.0184018,0.0555107,0.0271827,0
2024-12-13 15:36:08.245,0.562612,2.95663,10.3543,-0.0184018,0.0555107,0.0271827,0
2024-12-13 15:36:08.245,0.562612,2.95663,10.3543,-0.0184018,0.0555107,0.0271827,0
2024-12-13 15:36:08.245,0.562612,2.95663,10.3543,-0.0184018,0.0555107,0.0271827,0
2024-12-13 15:36:08.245,0.562612,2.95663,10.3543,-0.0184018,0.0555107,0.0271827,0
2024-12-13 15:36:08.245,0.562612,2.95663,10.3543,-0.0184018,0.0555107,0.0271827,0
2024-12-13 15:36:08.245,0.562612,2.95663,10.3543,-0.0184018,0.0555107,0.0271827,0
2024-12-13 15:36:08.245,0.562612,2.95663,10.3543,-0.0184018,0.0555107,0.0271827,0
2024-12-13 15:36:08.247,0.576969,2.96142,10.3017,-0.00801737,0.0555107,0.0296261,0
2024-12-13 15:36:08.247,0.576969,2.96142,10.3017,-0.00801737,0.0555107,0.0296261,0
2024-12-13 15:36:08.247,0.576969,2.96142,10.3017,-0.00801737,0.0555107,0.0296261,0
2024-12-13 15:36:08.247,0.576969,2.96142,10.3017,-0.00801737,0.0555107,0.0296261,0
2024-12-13 15:36:08.247,0.576969,2.96142,10.3017,-0.00801737,0.0555107,0.0296261,0
2024-12-13 15:36:08.250,0.576969,2.98056,10.2347,0.00175619,0.0567324,0.0326803,0
2024-12-13 15:36:08.250,0.576969,2.98056,10.2347,0.00175619,0.0567324,0.0326803,0
2024-12-13 15:36:08.250,0.576969,2.98056,10.2347,0.00175619,0.0567324,0.0326803,0
2024-12-13 15:36:08.250,0.576969,2.98056,10.2347,0.00175619,0.0567324,0.0326803,0
2024-12-13 15:36:08.252,0.584148,3.00449,10.1605,0.0096972,0.0591758,0.0393996,0
2024-12-13 15:36:08.252,0.584148,3.00449,10.1605,0.0096972,0.0591758,0.0393996,0
2024-12-13 15:36:08.252,0.584148,3.00449,10.1605,0.0096972,0.0591758,0.0393996,0
2024-12-13 15:36:08.252,0.584148,3.00449,10.1605,0.0096972,0.0591758,0.0393996,0
2024-12-13 15:36:08.252,0.584148,3.00449,10.1605,0.0096972,0.0591758,0.0393996,0
2024-12-13 15:36:08.254,0.600898,3.00927,10.0959,0.0176382,0.0603975,0.041843,0
2024-12-13 15:36:08.254,0.600898,3.00927,10.0959,0.0176382,0.0603975,0.041843,0
2024-12-13 15:36:08.254,0.600898,3.00927,10.0959,0.0176382,0.0603975,0.041843,0
2024-12-13 15:36:08.254,0.600898,3.00927,10.0959,0.0176382,0.0603975,0.041843,0
2024-12-13 15:36:08.254,0.600898,3.00927,10.0959,0.0176382,0.0603975,0.041843,0
2024-12-13 15:36:08.254,0.600898,3.00927,10.0959,0.0176382,0.0603975,0.041843,0
2024-12-13 15:36:08.254,0.600898,3.00927,10.0959,0.0176382,0.0603975,0.041843,0
2024-12-13 15:36:08.254,0.600898,3.00927,10.0959,0.0176382,0.0603975,0.041843,0
2024-12-13 15:36:08.254,0.600898,3.00927,10.0959,0.0176382,0.0603975,0.041843,0
2024-12-13 15:36:08.254,0.600898,3.00927,10.0959,0.0176382,0.0603975,0.041843,0
2024-12-13 15:36:08.257,0.617647,3.01406,10.0385,0.0274118,0.0597867,0.046119,0
2024-12-13 15:36:08.257,0.617647,3.01406,10.0385,0.0274118,0.0597867,0.046119,0
2024-12-13 15:36:08.257,0.617647,3.01406,10.0385,0.0274118,0.0597867,0.046119,0
2024-12-13 15:36:08.257,0.617647,3.01406,10.0385,0.0274118,0.0597867,0.046119,0
2024-12-13 15:36:08.259,0.622433,3.04277,9.9691,0.0341311,0.0610084,0.0516166,0
2024-12-13 15:36:08.259,0.622433,3.04277,9.9691,0.0341311,0.0610084,0.0516166,0
2024-12-13 15:36:08.259,0.622433,3.04277,9.9691,0.0341311,0.0610084,0.0516166,0
2024-12-13 15:36:08.259,0.622433,3.04277,9.9691,0.0341311,0.0610084,0.0516166,0
2024-12-13 15:36:08.259,0.622433,3.04277,9.9691,0.0341311,0.0610084,0.0516166,0
2024-12-13 15:36:08.259,0.622433,3.04277,9.9691,0.0341311,0.0610084,0.0516166,0
2024-12-13 15:36:08.259,0.622433,3.04277,9.9691,0.0341311,0.0610084,0.0516166,0
2024-12-13 15:36:08.259,0.622433,3.04277,9.9691,0.0341311,0.0610084,0.0516166,0
2024-12-13 15:36:08.259,0.622433,3.04277,9.9691,0.0341311,0.0610084,0.0516166,0
2024-12-13 15:36:08.261,0.632004,3.06192,9.9021,0.0414613,0.0622301,0.0571142,0
2024-12-13 15:36:08.261,0.632004,3.06192,9.9021,0.0414613,0.0622301,0.0571142,0
2024-12-13 15:36:08.261,0.632004,3.06192,9.9021,0.0414613,0.0622301,0.0571142,0
2024-12-13 15:36:08.261,0.632004,3.06192,9.9021,0.0414613,0.0622301,0.0571142,0
2024-12-13 15:36:08.261,0.632004,3.06192,9.9021,0.0414613,0.0622301,0.0571142,0
2024-12-13 15:36:08.261,0.632004,3.06192,9.9021,0.0414613,0.0622301,0.0571142,0
2024-12-13 15:36:08.264,0.648754,3.04756,9.83271,0.0487914,0.0616192,0.0607793,0
2024-12-13 15:36:08.264,0.648754,3.04756,9.83271,0.0487914,0.0616192,0.0607793,0
2024-12-13 15:36:08.264,0.648754,3.04756,9.83271,0.0487914,0.0616192,0.0607793,0
2024-12-13 15:36:08.264,0.648754,3.04756,9.83271,0.0487914,0.0616192,0.0607793,0
2024-12-13 15:36:08.264,0.648754,3.04756,9.83271,0.0487914,0.0616192,0.0607793,0
2024-12-13 15:36:08.264,0.648754,3.04756,9.83271,0.0487914,0.0616192,0.0607793,0
2024-12-13 15:36:08.264,0.648754,3.04756,9.83271,0.0487914,0.0616192,0.0607793,0
2024-12-13 15:36:08.264,0.648754,3.04756,9.83271,0.0487914,0.0616192,0.0607793,0
2024-12-13 15:36:08.266,0.648754,3.06431,9.7678,0.0561216,0.0610084,0.0644444,0
2024-12-13 15:36:08.266,0.648754,3.06431,9.7678,0.0561216,0.0610084,0.0644444,0
2024-12-13 15:36:08.266,0.648754,3.06431,9.7678,0.0561216,0.0610084,0.0644444,0
2024-12-13 15:36:08.266,0.648754,3.06431,9.7678,0.0561216,0.0610084,0.0644444,0
2024-12-13 15:36:08.266,0.648754,3.06431,9.7678,0.0561216,0.0610084,0.0644444,0
2024-12-13 15:36:08.266,0.648754,3.06431,9.7678,0.0561216,0.0610084,0.0644444,0
2024-12-13 15:36:08.268,0.643968,3.07627,9.7008,0.0591758,0.0610084,0.0711637,0
2024-12-13 15:36:08.268,0.643968,3.07627,9.7008,0.0591758,0.0610084,0.0711637,0
2024-12-13 15:36:08.268,0.643968,3.07627,9.7008,0.0591758,0.0610084,0.0711637,0
2024-12-13 15:36:08.268,0.643968,3.07627,9.7008,0.0591758,0.0610084,0.0711637,0
2024-12-13 15:36:08.268,0.643968,3.07627,9.7008,0.0591758,0.0610084,0.0711637,0
2024-12-13 15:36:08.268,0.643968,3.07627,9.7008,0.0591758,0.0610084,0.0711637,0
2024-12-13 15:36:08.268,0.643968,3.07627,9.7008,0.0591758,0.0610084,0.0711637,0
2024-12-13 15:36:08.268,0.643968,3.07627,9.7008,0.0591758,0.0610084,0.0711637,0
2024-12-13 15:36:08.271,0.655932,3.06431,9.6362,0.0634518,0.0616192,0.0766613,0
2024-12-13 15:36:08.271,0.655932,3.06431,9.6362,0.0634518,0.0616192,0.0766613,0
2024-12-13 15:36:08.271,0.655932,3.06431,9.6362,0.0634518,0.0616192,0.0766613,0
2024-12-13 15:36:08.271,0.655932,3.06431,9.6362,0.0634518,0.0616192,0.0766613,0
2024-12-13 15:36:08.271,0.655932,3.06431,9.6362,0.0634518,0.0616192,0.0766613,0
2024-12-13 15:36:08.273,0.677468,3.07149,9.57638,0.0677277,0.0628409,0.0784939,0
2024-12-13 15:36:08.273,0.677468,3.07149,9.57638,0.0677277,0.0628409,0.0784939,0
2024-12-13 15:36:08.273,0.677468,3.07149,9.57638,0.0677277,0.0628409,0.0784939,0
2024-12-13 15:36:08.273,0.677468,3.07149,9.57638,0.0677277,0.0628409,0.0784939,0
2024-12-13 15:36:08.273,0.677468,3.07149,9.57638,0.0677277,0.0628409,0.0784939,0
2024-12-13 15:36:08.273,0.677468,3.07149,9.57638,0.0677277,0.0628409,0.0784939,0
2024-12-13 15:36:08.273,0.677468,3.07149,9.57638,0.0677277,0.0628409,0.0784939,0
2024-12-13 15:36:08.274,0.677468,3.07149,9.57638,0.0707819,0.0628409,0.0852132,0
2024-12-13 15:36:08.274,0.677468,3.07149,9.57638,0.0707819,0.0628409,0.0852132,0
2024-12-13 15:36:08.276,0.684646,3.08106,9.5022,0.0707819,0.0628409,0.0852132,0
2024-12-13 15:36:08.276,0.684646,3.08106,9.5022,0.0707819,0.0628409,0.0852132,0
2024-12-13 15:36:08.276,0.684646,3.08106,9.5022,0.0707819,0.0628409,0.0852132,0
2024-12-13 15:36:08.276,0.684646,3.08106,9.5022,0.0707819,0.0628409,0.0852132,0
2024-12-13 15:36:08.276,0.684646,3.08106,9.5022,0.0707819,0.0628409,0.0852132,0
2024-12-13 15:36:08.278,0.687039,3.07388,9.41606,0.0707819,0.0622301,0.0913217,0
2024-12-13 15:36:08.278,0.687039,3.07388,9.41606,0.0707819,0.0622301,0.0913217,0
2024-12-13 15:36:08.278,0.687039,3.07388,9.41606,0.0707819,0.0622301,0.0913217,0
2024-12-13 15:36:08.278,0.687039,3.07388,9.41606,0.0707819,0.0622301,0.0913217,0
2024-12-13 15:36:08.278,0.687039,3.07388,9.41606,0.0707819,0.0622301,0.0913217,0
2024-12-13 15:36:08.278,0.687039,3.07388,9.41606,0.0707819,0.0622301,0.0913217,0
2024-12-13 15:36:08.278,0.687039,3.07388,9.41606,0.0707819,0.0622301,0.0913217,0
2024-12-13 15:36:08.278,0.687039,3.07388,9.41606,0.0707819,0.0622301,0.0913217,0
2024-12-13 15:36:08.278,0.687039,3.07388,9.41606,0.0707819,0.0622301,0.0913217,0
2024-12-13 15:36:08.279,0.687039,3.07388,9.41606,0.0738362,0.0640626,0.0962084,0
2024-12-13 15:36:08.280,0.696611,3.07149,9.34666,0.0738362,0.0640626,0.0962084,0
2024-12-13 15:36:08.280,0.696611,3.07149,9.34666,0.0738362,0.0640626,0.0962084,0
2024-12-13 15:36:08.280,0.696611,3.07149,9.34666,0.0738362,0.0640626,0.0962084,0
2024-12-13 15:36:08.280,0.696611,3.07149,9.34666,0.0738362,0.0640626,0.0962084,0
2024-12-13 15:36:08.280,0.696611,3.07149,9.34666,0.0738362,0.0640626,0.0962084,0
2024-12-13 15:36:08.283,0.701396,3.08345,9.29402,0.074447,0.0671168,0.101706,0
2024-12-13 15:36:08.283,0.701396,3.08345,9.29402,0.074447,0.0671168,0.101706,0
2024-12-13 15:36:08.283,0.701396,3.08345,9.29402,0.074447,0.0671168,0.101706,0
2024-12-13 15:36:08.283,0.701396,3.08345,9.29402,0.074447,0.0671168,0.101706,0
2024-12-13 15:36:08.283,0.701396,3.08345,9.29402,0.074447,0.0671168,0.101706,0
2024-12-13 15:36:08.283,0.701396,3.08345,9.29402,0.074447,0.0671168,0.101706,0
2024-12-13 15:36:08.283,0.701396,3.08345,9.29402,0.074447,0.0671168,0.101706,0
2024-12-13 15:36:08.283,0.701396,3.08345,9.29402,0.074447,0.0671168,0.101706,0
2024-12-13 15:36:08.285,0.708575,3.08345,9.2339,0.0738362,0.0689494,0.105982,0
2024-12-13 15:36:08.285,0.708575,3.08345,9.2339,0.0738362,0.0689494,0.105982,0
2024-12-13 15:36:08.285,0.708575,3.08345,9.2339,0.0738362,0.0689494,0.105982,0
2024-12-13 15:36:08.285,0.708575,3.08345,9.2339,0.0738362,0.0689494,0.105982,0
2024-12-13 15:36:08.287,0.722932,3.07388,9.15255,0.0707819,0.0713928,0.109647,0
2024-12-13 15:36:08.287,0.722932,3.07388,9.15255,0.0707819,0.0713928,0.109647,0
2024-12-13 15:36:08.287,0.722932,3.07388,9.15255,0.0707819,0.0713928,0.109647,0
2024-12-13 15:36:08.287,0.722932,3.07388,9.15255,0.0707819,0.0713928,0.109647,0
2024-12-13 15:36:08.287,0.722932,3.07388,9.15255,0.0707819,0.0713928,0.109647,0
2024-12-13 15:36:08.287,0.722932,3.07388,9.15255,0.0707819,0.0713928,0.109647,0
2024-12-13 15:36:08.287,0.722932,3.07388,9.15255,0.0707819,0.0713928,0.109647,0
2024-12-13 15:36:08.287,0.722932,3.07388,9.15255,0.0707819,0.0713928,0.109647,0
2024-12-13 15:36:08.287,0.722932,3.07388,9.15255,0.0707819,0.0713928,0.109647,0
2024-12-13 15:36:08.287,0.722932,3.07388,9.15255,0.0707819,0.0713928,0.109647,0
2024-12-13 15:36:08.290,0.739681,3.06909,9.09033,0.0689494,0.074447,0.11209,0
2024-12-13 15:36:08.290,0.739681,3.06909,9.09033,0.0689494,0.074447,0.11209,0
2024-12-13 15:36:08.292,0.742074,3.07149,9.04487,0.0671168,0.0762796,0.118199,0
2024-12-13 15:36:08.292,0.742074,3.07149,9.04487,0.0671168,0.0762796,0.118199,0
2024-12-13 15:36:08.292,0.742074,3.07149,9.04487,0.0671168,0.0762796,0.118199,0
2024-12-13 15:36:08.292,0.742074,3.07149,9.04487,0.0671168,0.0762796,0.118199,0
2024-12-13 15:36:08.292,0.742074,3.07149,9.04487,0.0671168,0.0762796,0.118199,0
2024-12-13 15:36:08.292,0.742074,3.07149,9.04487,0.0671168,0.0762796,0.118199,0
2024-12-13 15:36:08.292,0.742074,3.07149,9.04487,0.0671168,0.0762796,0.118199,0
2024-12-13 15:36:08.292,0.742074,3.07149,9.04487,0.0671168,0.0762796,0.118199,0
2024-12-13 15:36:08.292,0.742074,3.07149,9.04487,0.0671168,0.0762796,0.118199,0
2024-12-13 15:36:08.293,0.742074,3.07149,9.04487,0.0652843,0.0799446,0.119421,0
2024-12-13 15:36:08.294,0.734896,3.06192,8.98744,0.0652843,0.0799446,0.119421,0
2024-12-13 15:36:08.294,0.734896,3.06192,8.98744,0.0652843,0.0799446,0.119421,0
2024-12-13 15:36:08.294,0.734896,3.06192,8.98744,0.0652843,0.0799446,0.119421,0
2024-12-13 15:36:08.294,0.734896,3.06192,8.98744,0.0652843,0.0799446,0.119421,0
2024-12-13 15:36:08.294,0.734896,3.06192,8.98744,0.0652843,0.0799446,0.119421,0
2024-12-13 15:36:08.294,0.734896,3.06192,8.98744,0.0652843,0.0799446,0.119421,0
2024-12-13 15:36:08.297,0.749253,3.04756,8.93719,0.0616192,0.0829989,0.122475,0
2024-12-13 15:36:08.297,0.749253,3.04756,8.93719,0.0616192,0.0829989,0.122475,0
2024-12-13 15:36:08.297,0.749253,3.04756,8.93719,0.0616192,0.0829989,0.122475,0
2024-12-13 15:36:08.297,0.749253,3.04756,8.93719,0.0616192,0.0829989,0.122475,0
2024-12-13 15:36:08.297,0.749253,3.04756,8.93719,0.0616192,0.0829989,0.122475,0
2024-12-13 15:36:08.297,0.749253,3.04756,8.93719,0.0616192,0.0829989,0.122475,0
2024-12-13 15:36:08.297,0.749253,3.04756,8.93719,0.0616192,0.0829989,0.122475,0
2024-12-13 15:36:08.297,0.749253,3.04756,8.93719,0.0616192,0.0829989,0.122475,0
2024-12-13 15:36:08.299,0.756431,3.04277,8.88934,0.0597867,0.0860531,0.126751,0
2024-12-13 15:36:08.299,0.756431,3.04277,8.88934,0.0597867,0.0860531,0.126751,0
2024-12-13 15:36:08.299,0.756431,3.04277,8.88934,0.0597867,0.0860531,0.126751,0
2024-12-13 15:36:08.299,0.756431,3.04277,8.88934,0.0597867,0.0860531,0.126751,0
2024-12-13 15:36:08.299,0.756431,3.04277,8.88934,0.0597867,0.0860531,0.126751,0
2024-12-13 15:36:08.301,0.751645,3.02363,8.85823,0.0567324,0.0897182,0.130416,0
2024-12-13 15:36:08.301,0.751645,3.02363,8.85823,0.0567324,0.0897182,0.130416,0
2024-12-13 15:36:08.301,0.751645,3.02363,8.85823,0.0567324,0.0897182,0.130416,0
2024-12-13 15:36:08.301,0.751645,3.02363,8.85823,0.0567324,0.0897182,0.130416,0
2024-12-13 15:36:08.301,0.751645,3.02363,8.85823,0.0567324,0.0897182,0.130416,0
2024-12-13 15:36:08.301,0.751645,3.02363,8.85823,0.0567324,0.0897182,0.130416,0
2024-12-13 15:36:08.301,0.751645,3.02363,8.85823,0.0567324,0.0897182,0.130416,0
2024-12-13 15:36:08.304,0.74686,3.00927,8.8343,0.0536782,0.0909399,0.131638,0
2024-12-13 15:36:08.304,0.74686,3.00927,8.8343,0.0536782,0.0909399,0.131638,0
2024-12-13 15:36:08.304,0.74686,3.00927,8.8343,0.0536782,0.0909399,0.131638,0
2024-12-13 15:36:08.304,0.74686,3.00927,8.8343,0.0536782,0.0909399,0.131638,0
2024-12-13 15:36:08.304,0.74686,3.00927,8.8343,0.0536782,0.0909399,0.131638,0
2024-12-13 15:36:08.306,0.737288,2.9997,8.81037,0.0487914,0.094605,0.134768,0
2024-12-13 15:36:08.306,0.737288,2.9997,8.81037,0.0487914,0.094605,0.134768,0
2024-12-13 15:36:08.306,0.737288,2.9997,8.81037,0.0487914,0.094605,0.134768,0
2024-12-13 15:36:08.306,0.737288,2.9997,8.81037,0.0487914,0.094605,0.134768,0
2024-12-13 15:36:08.306,0.737288,2.9997,8.81037,0.0487914,0.094605,0.134768,0
2024-12-13 15:36:08.306,0.737288,2.9997,8.81037,0.0487914,0.094605,0.134768,0
2024-12-13 15:36:08.306,0.737288,2.9997,8.81037,0.0487914,0.094605,0.134768,0
2024-12-13 15:36:08.306,0.737288,2.9997,8.81037,0.0487914,0.094605,0.134768,0
2024-12-13 15:36:08.306,0.737288,2.9997,8.81037,0.0487914,0.094605,0.134768,0
2024-12-13 15:36:08.306,0.737288,2.9997,8.81037,0.0487914,0.094605,0.134768,0
2024-12-13 15:36:08.309,0.725324,2.98056,8.77927,0.0481806,0.0970484,0.137822,0
2024-12-13 15:36:08.309,0.725324,2.98056,8.77927,0.0481806,0.0970484,0.137822,0
2024-12-13 15:36:08.309,0.725324,2.98056,8.77927,0.0481806,0.0970484,0.137822,0
2024-12-13 15:36:08.309,0.725324,2.98056,8.77927,0.0481806,0.0970484,0.137822,0
2024-12-13 15:36:08.309,0.725324,2.98056,8.77927,0.0481806,0.0970484,0.137822,0
2024-12-13 15:36:08.310,0.725324,2.98056,8.77927,0.0451263,0.0994917,0.141487,0
2024-12-13 15:36:08.311,0.732503,2.95185,8.74577,0.0451263,0.0994917,0.141487,0
2024-12-13 15:36:08.311,0.732503,2.95185,8.74577,0.0451263,0.0994917,0.141487,0
2024-12-13 15:36:08.311,0.732503,2.95185,8.74577,0.0451263,0.0994917,0.141487,0
2024-12-13 15:36:08.311,0.732503,2.95185,8.74577,0.0451263,0.0994917,0.141487,0
2024-12-13 15:36:08.311,0.732503,2.95185,8.74577,0.0451263,0.0994917,0.141487,0
2024-12-13 15:36:08.311,0.732503,2.95185,8.74577,0.0451263,0.0994917,0.141487,0
2024-12-13 15:36:08.311,0.732503,2.95185,8.74577,0.0451263,0.0994917,0.141487,0
2024-12-13 15:36:08.311,0.732503,2.95185,8.74577,0.0451263,0.0994917,0.141487,0
2024-12-13 15:36:08.311,0.732503,2.95185,8.74577,0.0451263,0.0994917,0.141487,0
2024-12-13 15:36:08.313,0.732503,2.92792,8.71227,0.0457372,0.103157,0.140877,0
2024-12-13 15:36:08.313,0.732503,2.92792,8.71227,0.0457372,0.103157,0.140877,0
2024-12-13 15:36:08.313,0.732503,2.92792,8.71227,0.0457372,0.103157,0.140877,0
2024-12-13 15:36:08.313,0.732503,2.92792,8.71227,0.0457372,0.103157,0.140877,0
2024-12-13 15:36:08.316,0.727717,2.90399,8.67847,0.0451263,0.104379,0.142098,0
2024-12-13 15:36:08.316,0.727717,2.90399,8.67847,0.0451263,0.104379,0.142098,0
2024-12-13 15:36:08.316,0.727717,2.90399,8.67847,0.0451263,0.104379,0.142098,0
2024-12-13 15:36:08.316,0.727717,2.90399,8.67847,0.0451263,0.104379,0.142098,0
2024-12-13 15:36:08.316,0.727717,2.90399,8.67847,0.0451263,0.104379,0.142098,0
2024-12-13 15:36:08.316,0.727717,2.90399,8.67847,0.0451263,0.104379,0.142098,0
2024-12-13 15:36:08.316,0.727717,2.90399,8.67847,0.0451263,0.104379,0.142098,0
2024-12-13 15:36:08.316,0.727717,2.90399,8.67847,0.0451263,0.104379,0.142098,0
2024-12-13 15:36:08.318,0.737288,2.87288,8.64975,0.0451263,0.106211,0.144542,0
2024-12-13 15:36:08.318,0.737288,2.87288,8.64975,0.0451263,0.106211,0.144542,0
2024-12-13 15:36:08.318,0.737288,2.87288,8.64975,0.0451263,0.106211,0.144542,0
2024-12-13 15:36:08.318,0.737288,2.87288,8.64975,0.0451263,0.106211,0.144542,0
2024-12-13 15:36:08.318,0.737288,2.87288,8.64975,0.0451263,0.106211,0.144542,0
2024-12-13 15:36:08.320,0.737288,2.84656,8.61865,0.0457372,0.110487,0.145763,0
2024-12-13 15:36:08.320,0.737288,2.84656,8.61865,0.0457372,0.110487,0.145763,0
2024-12-13 15:36:08.320,0.737288,2.84656,8.61865,0.0457372,0.110487,0.145763,0
2024-12-13 15:36:08.320,0.737288,2.84656,8.61865,0.0457372,0.110487,0.145763,0
2024-12-13 15:36:08.320,0.737288,2.84656,8.61865,0.0457372,0.110487,0.145763,0
2024-12-13 15:36:08.320,0.737288,2.84656,8.61865,0.0457372,0.110487,0.145763,0
2024-12-13 15:36:08.320,0.737288,2.84656,8.61865,0.0457372,0.110487,0.145763,0
2024-12-13 15:36:08.320,0.737288,2.84656,8.61865,0.0457372,0.110487,0.145763,0
2024-12-13 15:36:08.323,0.737288,2.8346,8.59233,0.0500131,0.110487,0.147596,0
2024-12-13 15:36:08.323,0.737288,2.8346,8.59233,0.0500131,0.110487,0.147596,0
2024-12-13 15:36:08.323,0.737288,2.8346,8.59233,0.0500131,0.110487,0.147596,0
2024-12-13 15:36:08.323,0.737288,2.8346,8.59233,0.0500131,0.110487,0.147596,0
2024-12-13 15:36:08.324,0.737288,2.8346,8.59233,0.0500131,0.111709,0.146985,0
2024-12-13 15:36:08.325,0.734896,2.82503,8.57318,0.0500131,0.111709,0.146985,0
2024-12-13 15:36:08.325,0.734896,2.82503,8.57318,0.0500131,0.111709,0.146985,0
2024-12-13 15:36:08.325,0.734896,2.82503,8.57318,0.0500131,0.111709,0.146985,0
2024-12-13 15:36:08.325,0.734896,2.82503,8.57318,0.0500131,0.111709,0.146985,0
2024-12-13 15:36:08.325,0.734896,2.82503,8.57318,0.0500131,0.111709,0.146985,0
2024-12-13 15:36:08.325,0.734896,2.82503,8.57318,0.0500131,0.111709,0.146985,0
2024-12-13 15:36:08.325,0.734896,2.82503,8.57318,0.0500131,0.111709,0.146985,0
2024-12-13 15:36:08.325,0.734896,2.82503,8.57318,0.0500131,0.111709,0.146985,0
2024-12-13 15:36:08.327,0.73011,2.79871,8.53011,0.0548999,0.11232,0.147596,0
2024-12-13 15:36:08.327,0.73011,2.79871,8.53011,0.0548999,0.11232,0.147596,0
2024-12-13 15:36:08.327,0.73011,2.79871,8.53011,0.0548999,0.11232,0.147596,0
2024-12-13 15:36:08.327,0.73011,2.79871,8.53011,0.0548999,0.11232,0.147596,0
2024-12-13 15:36:08.327,0.73011,2.79871,8.53011,0.0548999,0.11232,0.147596,0
2024-12-13 15:36:08.327,0.73011,2.79871,8.53011,0.0548999,0.11232,0.147596,0
2024-12-13 15:36:08.330,0.732503,2.77956,8.48226,0.0591758,0.11232,0.146985,0
2024-12-13 15:36:08.330,0.732503,2.77956,8.48226,0.0591758,0.11232,0.146985,0
2024-12-13 15:36:08.330,0.732503,2.77956,8.48226,0.0591758,0.11232,0.146985,0
2024-12-13 15:36:08.330,0.732503,2.77956,8.48226,0.0591758,0.11232,0.146985,0
2024-12-13 15:36:08.330,0.732503,2.77956,8.48226,0.0591758,0.11232,0.146985,0
2024-12-13 15:36:08.330,0.732503,2.77956,8.48226,0.0591758,0.11232,0.146985,0
2024-12-13 15:36:08.330,0.732503,2.77956,8.48226,0.0591758,0.11232,0.146985,0
2024-12-13 15:36:08.332,0.732503,2.76042,8.43201,0.0634518,0.111709,0.146374,0
2024-12-13 15:36:08.334,0.71336,2.72692,8.3674,0.0689494,0.108654,0.145153,0
2024-12-13 15:36:08.339,0.670289,2.67667,8.25733,0.0817772,0.1056,0.146985,0
2024-12-13 15:36:08.339,0.670289,2.67667,8.25733,0.0817772,0.1056,0.146985,0
2024-12-13 15:36:08.341,0.65354,2.65514,8.1999,0.086664,0.100103,0.146985,0
2024-12-13 15:36:08.344,0.63679,2.61924,8.15923,0.0927724,0.0976592,0.148818,0
2024-12-13 15:36:08.346,0.617647,2.57378,8.11586,0.100713,0.0939941,0.151872,0
2024-12-13 15:36:08.349,0.608076,2.54267,8.06082,0.107433,0.0921616,0.153704,0
2024-12-13 15:36:08.351,0.598505,2.53071,8.00579,0.117817,0.0915507,0.153704,0
2024-12-13 15:36:08.353,0.591326,2.50887,7.94357,0.125758,0.0884965,0.154926,0
2024-12-13 15:36:08.356,0.588933,2.48016,7.89093,0.131256,0.0897182,0.15798,0
2024-12-13 15:36:08.358,0.600898,2.46102,7.82872,0.141029,0.0891073,0.159202,0
2024-12-13 15:36:08.360,0.605683,2.44905,7.74258,0.152025,0.0909399,0.158591,0
2024-12-13 15:36:08.363,0.610469,2.44188,7.65883,0.159355,0.0933833,0.160424,0
2024-12-13 15:36:08.365,0.617647,2.44427,7.56999,0.162409,0.0994917,0.161035,0
2024-12-13 15:36:08.367,0.622433,2.43948,7.47189,0.174626,0.102546,0.161035,0
2024-12-13 15:36:08.370,0.634397,2.40838,7.38575,0.181345,0.108044,0.161035,0
2024-12-13 15:36:08.372,0.634397,2.37488,7.30678,0.186232,0.111098,0.161645,0
2024-12-13 15:36:08.377,0.610469,2.28873,7.12254,0.198449,0.120871,0.158591,0
2024-12-13 15:36:08.377,0.610469,2.28873,7.12254,0.198449,0.120871,0.158591,0
2024-12-13 15:36:08.379,0.610469,2.26002,7.03879,0.203336,0.117206,0.158591,0
2024-12-13 15:36:08.382,0.605683,2.23849,6.95952,0.205779,0.118428,0.161035,0
2024-12-13 15:36:08.384,0.588933,2.20499,6.88535,0.21372,0.118428,0.160424,0
2024-12-13 15:36:08.386,0.569791,2.18345,6.81835,0.217996,0.114152,0.160424,0
2024-12-13 15:36:08.389,0.562612,2.15952,6.74417,0.221661,0.106822,0.162256,0
2024-12-13 15:36:08.391,0.557827,2.13799,6.67956,0.224105,0.103157,0.165921,0
2024-12-13 15:36:08.393,0.548256,2.13559,6.61017,0.227159,0.0964375,0.165311,0
2024-12-13 15:36:08.396,0.538684,2.12363,6.5336,0.229602,0.0915507,0.168365,0
2024-12-13 15:36:08.398,0.545863,2.10449,6.4666,0.232656,0.0872748,0.170197,0
2024-12-13 15:36:08.400,0.565005,2.08056,6.40409,0.234489,0.0817772,0.17203,0
2024-12-13 15:36:08.404,0.581755,2.0686,6.34427,0.239987,0.0701711,0.175695,0
2024-12-13 15:36:08.405,0.588933,2.05663,6.27009,0.239987,0.0701711,0.175695,0
2024-12-13 15:36:08.410,0.608076,2.01835,6.1337,0.243652,0.0658951,0.175695,0
2024-12-13 15:36:08.410,0.615255,2.01835,6.1337,0.243652,0.0658951,0.175695,0
2024-12-13 15:36:08.412,0.622433,1.99442,6.06192,0.250371,0.0561216,0.178749,0
2024-12-13 15:36:08.414,0.63679,1.9681,5.99253,0.255258,0.050624,0.178749,0
2024-12-13 15:36:08.417,0.63679,1.96062,5.91356,0.255869,0.0475697,0.17936,0
2024-12-13 15:36:08.419,0.629611,1.95105,5.84148,0.261366,0.0432938,0.179971,0
2024-12-13 15:36:08.422,0.612862,1.9343,5.76969,0.261977,0.0377962,0.181193,0
2024-12-13 15:36:08.424,0.600898,1.92233,5.70987,0.266253,0.0353528,0.179971,0
2024-12-13 15:36:08.426,0.591326,1.92233,5.64048,0.267475,0.0298552,0.181193,0
2024-12-13 15:36:08.429,0.579362,1.91755,5.56391,0.269918,0.0249684,0.181803,0
2024-12-13 15:36:08.431,0.576969,1.91516,5.49691,0.276027,0.0255792,0.183636,0
2024-12-13 15:36:08.433,0.562612,1.91276,5.42991,0.276027,0.0255792,0.186079,0
2024-12-13 15:36:08.436,0.533899,1.91755,5.36052,0.277859,0.022525,0.188523,0
2024-12-13 15:36:08.438,0.507577,1.9008,5.28365,0.282135,0.0255792,0.189744,0
2024-12-13 15:36:08.440,0.476471,1.91276,5.21187,0.284578,0.0268009,0.192799,0
2024-12-13 15:36:08.443,0.4669,1.93191,5.13769,0.2858,0.0316877,0.192799,0
2024-12-13 15:36:08.445,0.469292,1.91516,5.0659,0.290687,0.0322986,0.195242,0
2024-12-13 15:36:08.447,0.440578,1.91516,5.01805,0.291298,0.030466,0.197075,0
2024-12-13 15:36:08.450,0.397508,1.93191,4.95344,0.290076,0.0335202,0.197075,0
2024-12-13 15:36:08.452,0.378365,1.95344,4.89362,0.294352,0.0316877,0.197075,0
2024-12-13 15:36:08.455,0.352044,1.97528,4.85294,0.29313,0.0310769,0.197685,0
2024-12-13 15:36:08.457,0.316152,2.00399,4.81466,0.286411,0.0280226,0.197685,0
2024-12-13 15:36:08.459,0.285045,2.04227,4.77398,0.283968,0.0231358,0.195853,0
2024-12-13 15:36:08.462,0.253639,2.08535,4.7354,0.283357,0.0176382,0.195242,0
2024-12-13 15:36:08.464,0.222533,2.11645,4.72822,0.276027,0.0127514,0.19402,0
2024-12-13 15:36:08.466,0.198604,2.14277,4.70668,0.268086,0.00481042,0.194631,0
2024-12-13 15:36:08.469,0.181855,2.18106,4.68993,0.259534,-0.00251974,0.192799,0
2024-12-13 15:36:08.471,0.181855,2.21695,4.6995,0.24976,-0.0141258,0.190355,0
2024-12-13 15:36:08.473,0.16989,2.25284,4.71386,0.240597,-0.0238994,0.18669,0
2024-12-13 15:36:08.476,0.174676,2.28873,4.73779,0.224105,-0.0355055,0.182414,0
2024-12-13 15:36:08.478,0.198604,2.32223,4.7689,0.212498,-0.0507767,0.17936,0
2024-12-13 15:36:08.480,0.222533,2.35813,4.82184,0.193562,-0.0642153,0.173862,0
2024-12-13 15:36:08.483,0.260818,2.4012,4.90319,0.173404,-0.0739889,0.167754,0
2024-12-13 15:36:08.485,0.299402,2.45863,5.00369,0.152635,-0.0862058,0.162256,0
2024-12-13 15:36:08.487,0.349651,2.50648,5.13769,0.131867,-0.0972011,0.153094,0
2024-12-13 15:36:08.490,0.402293,2.53549,5.31237,0.109265,-0.102088,0.144542,0
2024-12-13 15:36:08.492,0.464507,2.57617,5.48973,0.0854423,-0.11064,0.134768,0
2024-12-13 15:36:08.495,0.536291,2.61446,5.68355,0.0628409,-0.114305,0.126751,0
2024-12-13 15:36:08.497,0.600898,2.64317,5.89681,0.046348,-0.112472,0.117588,0
2024-12-13 15:36:08.499,0.655932,2.67906,6.07867,0.0268009,-0.113694,0.110869,0
2024-12-13 15:36:08.502,0.706182,2.71017,6.25334,0.00786466,-0.108807,0.105371,0
2024-12-13 15:36:08.504,0.754038,2.73649,6.42323,-0.00679568,-0.105142,0.0992627,0
2024-12-13 15:36:08.506,0.787538,2.76042,6.59103,-0.0208452,-0.0996445,0.0962084,0
2024-12-13 15:36:08.509,0.816252,2.77238,6.77528,-0.037338,-0.093536,0.0937651,0
2024-12-13 15:36:08.511,0.859622,2.77478,6.98345,-0.049555,-0.0837624,0.0949868,0
2024-12-13 15:36:08.513,0.890728,2.77478,7.21107,-0.0581068,-0.0709346,0.0943759,0
2024-12-13 15:36:08.516,0.926621,2.76521,7.44557,-0.0642153,-0.0593285,0.0937651,0
2024-12-13 15:36:08.518,0.979263,2.75563,7.6684,-0.0727672,-0.0471116,0.0998735,0
2024-12-13 15:36:08.520,1.02712,2.73649,7.88615,-0.077654,-0.0312296,0.10476,0
2024-12-13 15:36:08.523,1.07019,2.72213,8.10629,-0.0837624,-0.0141258,0.11148,0
2024-12-13 15:36:08.525,1.13001,2.72213,8.34587,-0.0849841,0.00114534,0.120031,0
2024-12-13 15:36:08.528,1.18265,2.72931,8.59233,-0.0886492,0.0188599,0.12614,0
2024-12-13 15:36:08.530,1.21137,2.75085,8.81994,-0.0886492,0.0390179,0.134768,0
2024-12-13 15:36:08.532,1.2329,2.81306,9.02573,-0.0898709,0.058565,0.143931,0
2024-12-13 15:36:08.535,1.25444,2.88724,9.22433,-0.0880384,0.086664,0.15065,0
2024-12-13 15:36:08.538,1.28554,2.97099,9.41127,-0.0843733,0.147749,0.165921,0
2024-12-13 15:36:08.539,1.31186,3.07627,9.57159,-0.0843733,0.147749,0.165921,0
2024-12-13 15:36:08.542,1.34058,3.18425,9.71277,-0.0849841,0.177069,0.173252,0
2024-12-13 15:36:08.544,1.36929,3.30868,9.83271,-0.0825407,0.210666,0.177527,0
2024-12-13 15:36:08.546,1.3669,3.43789,9.94517,-0.0831516,0.243041,0.17936,0
2024-12-13 15:36:08.549,1.37169,3.54317,10.0409,-0.0843733,0.272972,0.180582,0
2024-12-13 15:36:08.551,1.36929,3.6341,10.127,-0.0831516,0.298017,0.17936,0
2024-12-13 15:36:08.553,1.3334,3.7349,10.2203,-0.0837624,0.317564,0.17203,0
2024-12-13 15:36:08.556,1.28554,3.85215,10.3232,-0.0904818,0.333446,0.165311,0
2024-12-13 15:36:08.558,1.22094,3.96222,10.4384,-0.0947577,0.340166,0.156148,0
2024-12-13 15:36:08.561,1.1348,4.05075,10.5628,-0.102088,0.340776,0.146374,0
2024-12-13 15:36:08.563,1.04387,4.13211,10.7064,-0.111251,0.339555,0.134157,0
2024-12-13 15:36:08.565,0.936192,4.21615,10.8787,-0.124078,0.327949,0.121253,0
2024-12-13 15:36:08.568,0.821037,4.26401,11.0824,-0.137517,0.310845,0.109647,0
2024-12-13 15:36:08.570,0.694218,4.28555,11.3336,-0.150345,0.287022,0.0962084,0
2024-12-13 15:36:08.572,0.56022,4.29751,11.6282,-0.167449,0.257701,0.0833807,0
2024-12-13 15:36:08.575,0.41665,4.28794,11.9848,-0.183331,0.22105,0.0693312,0
2024-12-13 15:36:08.577,0.263211,4.26162,12.4014,-0.201045,0.178902,0.0565034,0
2024-12-13 15:36:08.579,0.114855,4.20897,12.8707,-0.219371,0.133088,0.046119,0
2024-12-13 15:36:08.582,-0.0287139,4.14168,13.3783,-0.234642,0.0799446,0.033902,0
2024-12-13 15:36:08.584,-0.145962,4.07707,13.8954,-0.246859,0.0219141,0.0235176,0
2024-12-13 15:36:08.586,-0.256032,4.01486,14.4006,-0.257854,-0.0379489,0.0161875,0
2024-12-13 15:36:08.589,-0.34008,3.95264,14.889,-0.270682,-0.0984228,0.0064139,0
2024-12-13 15:36:08.591,-0.378365,3.8689,15.3963,-0.280455,-0.157675,0.000916271,0
2024-12-13 15:36:08.593,-0.395115,3.77557,15.9302,-0.291451,-0.21204,-0.00458135,0
2024-12-13 15:36:08.596,-0.404686,3.66072,16.4689,-0.299392,-0.260908,-0.010079,0
2024-12-13 15:36:08.598,-0.419043,3.5336,17.0076,-0.309165,-0.309776,-0.0125224,0
2024-12-13 15:36:08.601,-0.421436,3.402,17.5199,-0.318328,-0.354368,-0.0131332,0
2024-12-13 15:36:08.603,-0.402293,3.27278,18.0251,-0.328101,-0.391629,-0.010079,0
2024-12-13 15:36:08.605,-0.364008,3.15553,18.5399,-0.331766,-0.424615,-0.00580305,0
2024-12-13 15:36:08.608,-0.304188,3.01884,19.0355,-0.33421,-0.447217,0.00458135,0
2024-12-13 15:36:08.612,-0.081356,2.76999,19.8565,-0.322604,-0.466764,0.0241285,0
2024-12-13 15:36:08.613,-0.208176,2.76999,19.8565,-0.322604,-0.466764,0.0241285,0
2024-12-13 15:36:08.615,0.0717847,2.64796,20.211,-0.312219,-0.460044,0.0363454,0
2024-12-13 15:36:08.617,0.256032,2.50409,20.4888,-0.298781,-0.444162,0.046119,0
2024-12-13 15:36:08.619,0.438186,2.35095,20.7305,-0.282899,-0.416063,0.0571142,0
2024-12-13 15:36:08.622,0.60329,2.23131,20.9411,-0.257854,-0.381856,0.0668878,0
2024-12-13 15:36:08.624,0.758824,2.11406,21.1041,-0.234031,-0.342151,0.0784939,0
2024-12-13 15:36:08.626,0.885943,2.01117,21.207,-0.199213,-0.295116,0.0870457,0
2024-12-13 15:36:08.629,0.967299,1.93191,21.2548,-0.158897,-0.240139,0.0998735,0
2024-12-13 15:36:08.631,1.01515,1.86012,21.219,-0.113083,-0.182109,0.11148,0
2024-12-13 15:36:08.634,1.0343,1.81226,21.0682,-0.0636045,-0.116137,0.124918,2
2024-12-13 15:36:08.636,0.988834,1.78834,20.831,-0.0116825,-0.0471116,0.140877,0
2024-12-13 15:36:08.638,0.921835,1.80269,20.5008,0.0451263,0.0182491,0.15798,0
2024-12-13 15:36:08.641,0.835394,1.85294,20.0698,0.104379,0.086664,0.178138,0
2024-12-13 15:36:08.643,0.691825,1.92473,19.5479,0.161187,0.150192,0.20074,0
2024-12-13 15:36:08.645,0.524327,2.02313,18.9613,0.22044,0.205168,0.225174,0
2024-12-13 15:36:08.649,0.35683,2.14756,18.3485,0.331614,0.305958,0.277096,0
2024-12-13 15:36:08.650,0.191426,2.28634,17.7236,0.331614,0.305958,0.277096,0
2024-12-13 15:36:08.652,0.0598206,2.42752,17.1033,0.383612,0.345663,0.298475,0
2024-12-13 15:36:08.655,-0.040678,2.57139,16.4785,0.428204,0.378649,0.322298,0
2024-12-13 15:36:08.657,-0.117248,2.71974,15.8704,0.469131,0.402472,0.340624,0
2024-12-13 15:36:08.659,-0.191426,2.85374,15.2839,0.510057,0.415911,0.352841,0
2024-12-13 15:36:08.662,-0.289831,2.96381,14.7189,0.539989,0.420187,0.365668,0
2024-12-13 15:36:08.664,-0.402293,3.05713,14.1945,0.570531,0.416521,0.375442,0
2024-12-13 15:36:08.666,-0.529113,3.15793,13.7013,0.594965,0.407359,0.385216,0
2024-12-13 15:36:08.669,-0.655932,3.24646,13.2395,0.617567,0.390866,0.392546,0
2024-12-13 15:36:08.671,-0.768395,3.28953,12.8492,0.632227,0.368265,0.399265,0
2024-12-13 15:36:08.674,-0.85005,3.32782,12.5115,0.642,0.340166,0.401708,0
2024-12-13 15:36:08.676,-0.933799,3.39482,12.2578,0.649942,0.307791,0.40293,0
2024-12-13 15:36:08.678,-1.12044,3.46421,12.0254,0.655439,0.267475,0.405984,0
2024-12-13 15:36:08.681,-1.32861,3.49292,11.7622,0.660326,0.230213,0.410871,0
2024-12-13 15:36:08.683,-1.40279,3.45942,11.6091,0.658493,0.194784,0.414536,0
2024-12-13 15:36:08.688,-1.40788,3.37089,11.47,0.643222,0.107433,0.415147,0
2024-12-13 15:36:08.688,-1.40788,3.37089,11.47,0.643222,0.107433,0.415147,0
2024-12-13 15:36:08.690,-1.4342,3.34218,11.3839,0.631005,0.0695602,0.413315,0
2024-12-13 15:36:08.692,-1.46291,3.34935,11.3073,0.614512,0.0359636,0.410871,0
2024-12-13 15:36:08.695,-1.47727,3.38285,11.2522,0.593744,0.00419957,0.407206,0
2024-12-13 15:36:08.697,-1.43898,3.38285,11.2331,0.565645,-0.0226777,0.406595,0
2024-12-13 15:36:08.699,-0.766002,3.02842,11.4413,0.534491,-0.0562743,0.401098,0
2024-12-13 15:36:08.702,-0.200997,2.61685,11.7718,0.512501,-0.120413,0.360171,0
2024-12-13 15:36:08.704,-0.940978,3.0021,11.2259,0.492343,-0.1253,0.327796,0
2024-12-13 15:36:08.707,-1.54188,3.6006,10.7016,0.451416,-0.0703238,0.322909,0
2024-12-13 15:36:08.709,-1.39083,3.8354,10.9771,0.413544,-0.0556635,0.32352,0
2024-12-13 15:36:08.711,-0.703789,3.64128,11.2786,0.372617,-0.0666587,0.32352,0
2024-12-13 15:36:08.714,-0.129212,3.27518,11.4963,0.341998,-0.119802,0.291756,0
2024-12-13 15:36:08.716,-0.699003,3.55753,10.7949,0.304126,-0.108807,0.265489,0
2024-12-13 15:36:08.718,-1.05344,3.92154,10.2371,0.250982,-0.0477224,0.259992,0
2024-12-13 15:36:08.721,-0.744467,3.90957,10.5772,0.200282,-0.0410031,0.255105,0
2024-12-13 15:36:08.723,-0.581755,3.88804,10.6849,0.158744,-0.0593285,0.247164,0
2024-12-13 15:36:08.725,-0.514756,3.86172,10.515,0.11293,-0.0764323,0.237391,0
2024-12-13 15:36:08.728,-0.390329,3.73968,10.3161,0.0713928,-0.077654,0.227617,0
2024-12-13 15:36:08.730,-0.155533,3.52403,10.2347,0.0237467,-0.0800973,0.216622,0
2024-12-13 15:36:08.732,0.0909273,3.29432,10.2299,-0.0141258,-0.0880384,0.19402,0
2024-12-13 15:36:08.735,0.241675,3.11964,10.1964,-0.0483333,-0.0959794,0.167143,0
2024-12-13 15:36:08.737,0.335294,3.00927,10.0983,-0.0782648,-0.0953685,0.142098,0
2024-12-13 15:36:08.740,0.385544,2.94706,9.99063,-0.100866,-0.0898709,0.115756,0
2024-12-13 15:36:08.742,0.385544,2.93988,9.89971,-0.120413,-0.0770431,0.0882674,0
2024-12-13 15:36:08.744,0.385544,2.9662,9.81087,-0.136906,-0.057496,0.0632227,0
2024-12-13 15:36:08.747,0.385544,3.02124,9.73909,-0.150345,-0.0385597,0.0400105,0
2024-12-13 15:36:08.750,0.378365,3.08345,9.6697,-0.170503,0.00481042,0.00152712,0
2024-12-13 15:36:08.751,0.380758,3.12682,9.58355,-0.170503,0.00481042,0.00152712,0
2024-12-13 15:36:08.754,0.3999,3.17468,9.48545,-0.174779,0.0243575,-0.0186308,0
2024-12-13 15:36:08.756,0.426222,3.19861,9.38734,-0.176611,0.0396287,-0.0351237,0
2024-12-13 15:36:08.758,0.459721,3.22253,9.29642,-0.179055,0.0469589,-0.0528383,0
2024-12-13 15:36:08.761,0.493221,3.24885,9.19801,-0.182109,0.0567324,-0.0705529,0
2024-12-13 15:36:08.763,0.524327,3.25364,9.09273,-0.180887,0.0689494,-0.0882674,0
2024-12-13 15:36:08.765,0.548256,3.27039,8.98266,-0.180276,0.0775012,-0.102928,0
2024-12-13 15:36:08.768,0.56022,3.2991,8.85344,-0.180887,0.0854423,-0.120031,0
2024-12-13 15:36:08.770,0.574577,3.31825,8.73141,-0.180276,0.0909399,-0.140189,0
2024-12-13 15:36:08.772,0.565005,3.3326,8.61147,-0.182109,0.101935,-0.158515,0
2024-12-13 15:36:08.775,0.550648,3.335,8.50379,-0.183331,0.111709,-0.177451,0
2024-12-13 15:36:08.777,0.533899,3.33739,8.42004,-0.187606,0.120871,-0.195777,0
2024-12-13 15:36:08.780,0.505185,3.335,8.34108,-0.193715,0.129423,-0.21288,0
2024-12-13 15:36:08.782,0.471685,3.33739,8.2693,-0.19738,0.136143,-0.231206,0
2024-12-13 15:36:08.784,0.4334,3.34218,8.2023,-0.204099,0.14164,-0.247699,0
2024-12-13 15:36:08.787,0.392722,3.33739,8.16162,-0.21143,0.146527,-0.26297,0
2024-12-13 15:36:08.789,0.35683,3.34935,8.135,-0.219371,0.155079,-0.279463,0
2024-12-13 15:36:08.791,0.328116,3.34935,8.08953,-0.22609,0.161798,-0.292901,0
2024-12-13 15:36:08.794,0.313759,3.34218,8.06082,-0.235253,0.168517,-0.305729,0
2024-12-13 15:36:08.796,0.299402,3.34935,8.02732,-0.243804,0.17768,-0.317946,0
2024-12-13 15:36:08.798,0.282652,3.36132,7.98425,-0.252356,0.186843,-0.331385,0
2024-12-13 15:36:08.802,0.267996,3.33978,7.96032,-0.268849,0.212498,-0.355819,0
2024-12-13 15:36:08.803,0.265603,3.32543,7.94357,-0.268849,0.212498,-0.355819,0
2024-12-13 15:36:08.805,0.246461,3.32782,7.93639,-0.27679,0.223494,-0.366203,0
2024-12-13 15:36:08.808,0.229711,3.31107,7.94118,-0.288396,0.234489,-0.375366,0
2024-12-13 15:36:08.810,0.224925,3.28235,7.94118,-0.291451,0.246706,-0.386972,0
2024-12-13 15:36:08.813,0.217747,3.27039,7.92443,-0.29817,0.255869,-0.396745,0
2024-12-13 15:36:08.815,0.217747,3.268,7.9005,-0.303057,0.265642,-0.405297,0
2024-12-13 15:36:08.817,0.210568,3.26321,7.86222,-0.312219,0.269918,-0.415682,0
2024-12-13 15:36:08.820,0.200997,3.25843,7.82154,-0.313441,0.27847,-0.427288,0
2024-12-13 15:36:08.822,0.181855,3.24407,7.79761,-0.32016,0.282746,-0.434618,0
2024-12-13 15:36:08.824,0.138784,3.22493,7.77129,-0.322604,0.282135,-0.441948,0
2024-12-13 15:36:08.827,0.0885344,3.20818,7.7689,-0.328101,0.280913,-0.449278,0
2024-12-13 15:36:08.829,0.0334995,3.19143,7.79522,-0.328712,0.277248,-0.453554,0
2024-12-13 15:36:08.831,-0.0239282,3.19621,7.82393,-0.325658,0.268696,-0.456608,0
2024-12-13 15:36:08.834,-0.0765703,3.19861,7.84307,-0.328712,0.258312,-0.457219,0
2024-12-13 15:36:08.836,-0.122034,3.17228,7.85265,-0.324436,0.246095,-0.455387,0
2024-12-13 15:36:08.838,-0.167498,3.14836,7.8694,-0.318328,0.233267,-0.452943,0
2024-12-13 15:36:08.841,-0.212961,3.12921,7.88375,-0.310998,0.222883,-0.448667,0
2024-12-13 15:36:08.843,-0.239282,3.09811,7.87657,-0.304278,0.208223,-0.440726,0
2024-12-13 15:36:08.845,-0.258425,3.06431,7.88615,-0.293894,0.191119,-0.430953,0
2024-12-13 15:36:08.848,-0.282652,3.03799,7.89332,-0.284731,0.174015,-0.419957,0
2024-12-13 15:36:08.850,-0.325723,3.02124,7.87897,-0.270682,0.154468,-0.413238,0
2024-12-13 15:36:08.853,-0.366401,2.98056,7.87897,-0.254189,0.136143,-0.40041,0
2024-12-13 15:36:08.855,-0.390329,2.94227,7.88854,-0.243804,0.114152,-0.385139,0
2024-12-13 15:36:08.857,-0.414257,2.92313,7.89093,-0.230366,0.0921616,-0.37109,0
2024-12-13 15:36:08.860,-0.423829,2.89442,7.87657,-0.21204,0.0713928,-0.355208,0
2024-12-13 15:36:08.862,-0.421436,2.88006,7.867,-0.199213,0.0457372,-0.340547,0
2024-12-13 15:36:08.864,-0.414257,2.8657,7.85743,-0.185163,0.0237467,-0.325276,0
2024-12-13 15:36:08.867,-0.414257,2.83699,7.84307,-0.166227,0.00175619,-0.308172,0
2024-12-13 15:36:08.869,-0.409472,2.80588,7.83111,-0.148512,-0.0184018,-0.290458,0
2024-12-13 15:36:08.871,-0.3999,2.77717,7.81436,-0.128965,-0.033673,-0.275798,0
2024-12-13 15:36:08.874,-0.392722,2.76999,7.78804,-0.112472,-0.0501658,-0.259916,0
2024-12-13 15:36:08.876,-0.383151,2.7341,7.75933,-0.0941468,-0.0648262,-0.245866,0
2024-12-13 15:36:08.878,-0.380758,2.68864,7.72583,-0.0819299,-0.0782648,-0.230595,0
2024-12-13 15:36:08.881,-0.380758,2.6671,7.67797,-0.0611611,-0.0868167,-0.217767,0
2024-12-13 15:36:08.883,-0.385544,2.65035,7.6349,-0.0477224,-0.0972011,-0.204328,0
2024-12-13 15:36:08.886,-0.387936,2.62881,7.60379,-0.0330621,-0.105142,-0.192722,0
2024-12-13 15:36:08.888,-0.392722,2.60489,7.57478,-0.021456,-0.114916,-0.179895,0
2024-12-13 15:36:08.890,-0.414257,2.59053,7.54128,-0.00984991,-0.124078,-0.167678,0
2024-12-13 15:36:08.893,-0.447757,2.5666,7.51735,-0.00251974,-0.133241,-0.156071,0
2024-12-13 15:36:08.895,-0.490828,2.54267,7.51257,0.00725381,-0.138128,-0.144465,0
2024-12-13 15:36:08.897,-0.541077,2.52323,7.50778,0.0164165,-0.146069,-0.131638,0
2024-12-13 15:36:08.900,-0.598505,2.49212,7.50539,0.0194708,-0.152788,-0.119421,0
2024-12-13 15:36:08.902,-0.646361,2.46341,7.5006,0.0249684,-0.158286,-0.105982,0
2024-12-13 15:36:08.904,-0.689432,2.44666,7.48864,0.0280226,-0.164394,-0.0907108,0
2024-12-13 15:36:08.907,-0.725324,2.43709,7.47907,0.030466,-0.168059,-0.0772722,0
2024-12-13 15:36:08.909,-0.761217,2.42513,7.49103,0.0298552,-0.169892,-0.0650552,0
2024-12-13 15:36:08.911,-0.804287,2.39163,7.50539,0.0353528,-0.17539,-0.0479515,0
2024-12-13 15:36:08.914,-0.825823,2.35813,7.51257,0.038407,-0.179665,-0.0345129,0
2024-12-13 15:36:08.916,-0.830609,2.34377,7.53171,0.0371853,-0.183941,-0.0192417,0
2024-12-13 15:36:08.918,-0.845265,2.31984,7.55564,0.0359636,-0.186996,-0.00397051,0
2024-12-13 15:36:08.921,-0.864407,2.28873,7.58704,0.0335202,-0.192493,0.00824644,0
2024-12-13 15:36:08.923,-0.871586,2.2672,7.63011,0.0347419,-0.193715,0.0216851,0
2024-12-13 15:36:08.926,-0.869193,2.25284,7.66361,0.0365745,-0.198602,0.0363454,0
2024-12-13 15:36:08.928,-0.862014,2.2337,7.6995,0.0371853,-0.199823,0.0516166,0
2024-12-13 15:36:08.930,-0.85005,2.21934,7.733,0.0353528,-0.199823,0.0632227,0
2024-12-13 15:36:08.933,-0.852443,2.19781,7.7689,0.038407,-0.197991,0.0772722,0
2024-12-13 15:36:08.935,-0.833001,2.16431,7.78565,0.038407,-0.196769,0.0907108,0
2024-12-13 15:36:08.937,-0.804287,2.11406,7.8,0.038407,-0.19738,0.103539,0
2024-12-13 15:36:08.940,-0.780359,2.08295,7.8359,0.0396287,-0.196158,0.117588,0
2024-12-13 15:36:08.942,-0.756431,2.06381,7.85743,0.0414613,-0.194326,0.128583,0
2024-12-13 15:36:08.944,-0.725324,2.0351,7.85743,0.0445155,-0.196158,0.139655,0
2024-12-13 15:36:08.947,-0.691825,2.02074,7.84547,0.0451263,-0.197991,0.15065,0
2024-12-13 15:36:08.949,-0.663111,1.99442,7.84547,0.0475697,-0.203488,0.161645,0
2024-12-13 15:36:08.951,-0.629611,1.95583,7.85025,0.0494023,-0.205932,0.171419,0
2024-12-13 15:36:08.954,-0.581755,1.93908,7.85743,0.0530674,-0.214484,0.179971,0
2024-12-13 15:36:08.956,-0.524327,1.92712,7.85504,0.0518457,-0.221814,0.18669,0
2024-12-13 15:36:08.959,-0.486042,1.91276,7.86222,0.0567324,-0.231587,0.192799,0
2024-12-13 15:36:08.961,-0.435793,1.91276,7.8694,0.0610084,-0.244415,0.197685,0
2024-12-13 15:36:08.963,-0.371187,1.89841,7.85504,0.0597867,-0.258465,0.20074,0
2024-12-13 15:36:08.966,-0.320937,1.87687,7.85265,0.0634518,-0.271293,0.201961,0
2024-12-13 15:36:08.968,-0.285045,1.85773,7.85265,0.0658951,-0.287785,0.204405,0
2024-12-13 15:36:08.970,-0.246461,1.85773,7.85504,0.0695602,-0.302446,0.203794,0
2024-12-13 15:36:08.973,-0.205783,1.85294,7.85265,0.0726145,-0.316495,0.203183,0
2024-12-13 15:36:08.975,-0.177069,1.8338,7.82632,0.0762796,-0.332377,0.198907,0
2024-12-13 15:36:08.977,-0.143569,1.84337,7.81436,0.0775012,-0.347648,0.195853,0
2024-12-13 15:36:08.980,-0.117248,1.83619,7.81915,0.0793338,-0.364141,0.192799,0
2024-12-13 15:36:08.982,-0.0885344,1.81226,7.81675,0.082388,-0.378802,0.18669,0
2024-12-13 15:36:08.984,-0.0478565,1.80987,7.8,0.0842206,-0.396516,0.179971,0
2024-12-13 15:36:08.987,-0.00478565,1.82423,7.77847,0.0891073,-0.411787,0.173252,0
2024-12-13 15:36:08.989,0.0287139,1.83619,7.76172,0.0933833,-0.430113,0.1647,0
2024-12-13 15:36:08.992,0.0598206,1.82901,7.74018,0.0958267,-0.449049,0.156759,0
2024-12-13 15:36:08.994,0.105284,1.82423,7.69233,0.0994917,-0.464931,0.148818,0
2024-12-13 15:36:08.996,0.150748,1.81226,7.63729,0.101935,-0.482035,0.139044,0
2024-12-13 15:36:08.999,0.193819,1.80748,7.60858,0.108044,-0.497306,0.12614,0
2024-12-13 15:36:09.001,0.236889,1.81466,7.56042,0.11232,-0.511966,0.115145,0
2024-12-13 15:36:09.003,0.285045,1.81466,7.49342,0.115985,-0.518686,0.103539,0
2024-12-13 15:36:09.006,0.332901,1.79791,7.43839,0.120261,-0.527238,0.0888783,0
2024-12-13 15:36:09.008,0.373579,1.77876,7.4025,0.128202,-0.532735,0.0754396,0
2024-12-13 15:36:09.010,0.431007,1.75244,7.34985,0.134921,-0.532735,0.0595576,0
2024-12-13 15:36:09.013,0.486042,1.72134,7.28046,0.143473,-0.52907,0.0436756,0
2024-12-13 15:36:09.015,0.524327,1.69741,7.21825,0.14897,-0.527238,0.025961,0
2024-12-13 15:36:09.017,0.553041,1.68784,7.18475,0.155079,-0.518686,0.00702474,0
2024-12-13 15:36:09.020,0.581755,1.67348,7.16082,0.163631,-0.505858,-0.00946813,0
2024-12-13 15:36:09.022,0.608076,1.64716,7.1345,0.172793,-0.490587,-0.0271827,0
2024-12-13 15:36:09.024,0.615255,1.62802,7.08425,0.180734,-0.472261,-0.0424539,0
2024-12-13 15:36:09.027,0.629611,1.61845,7.01725,0.189897,-0.453936,-0.0583359,0
2024-12-13 15:36:09.029,0.639183,1.61845,6.94517,0.198449,-0.431945,-0.0748288,0
2024-12-13 15:36:09.032,0.63679,1.60887,6.87338,0.203947,-0.409344,-0.0882674,0
2024-12-13 15:36:09.034,0.629611,1.61605,6.80399,0.209444,-0.386132,-0.103539,0
2024-12-13 15:36:09.036,0.615255,1.62323,6.72024,0.213109,-0.361698,-0.117588,0
2024-12-13 15:36:09.039,0.588933,1.62323,6.6341,0.214331,-0.336042,-0.131027,0
2024-12-13 15:36:09.041,0.574577,1.64477,6.56949,0.216164,-0.315274,-0.143244,0
2024-12-13 15:36:09.043,0.565005,1.66391,6.48575,0.219218,-0.289618,-0.155461,0
2024-12-13 15:36:09.046,0.550648,1.68305,6.38973,0.22105,-0.263962,-0.166456,0
2024-12-13 15:36:09.048,0.550648,1.69741,6.28924,0.217996,-0.241972,-0.178673,0
2024-12-13 15:36:09.050,0.533899,1.72612,6.18156,0.218607,-0.216316,-0.187836,0
2024-12-13 15:36:09.053,0.507577,1.75484,6.08585,0.214331,-0.191272,-0.196998,0
2024-12-13 15:36:09.055,0.486042,1.77398,5.98056,0.208833,-0.167449,-0.206161,0
2024-12-13 15:36:09.057,0.486042,1.80748,5.88933,0.205779,-0.142404,-0.217156,0
2024-12-13 15:36:09.060,0.486042,1.83619,5.81994,0.194173,-0.114916,-0.224486,0
2024-12-13 15:36:09.062,0.471685,1.85294,5.75773,0.187454,-0.0868167,-0.233649,0
2024-12-13 15:36:09.065,0.459721,1.88883,5.71466,0.181345,-0.0568851,-0.242812,0
2024-12-13 15:36:09.067,0.438186,1.9343,5.68595,0.169739,-0.0269536,-0.248309,0
2024-12-13 15:36:09.069,0.409472,1.95583,5.6692,0.169739,-0.0269536,-0.248309,0
2024-12-13 15:36:09.074,0.354437,2.05663,5.62134,0.136753,0.0481806,-0.268467,0
2024-12-13 15:36:09.074,0.354437,2.05663,5.62134,0.136753,0.0481806,-0.268467,0
2024-12-13 15:36:09.079,0.301795,2.14517,5.59502,0.108654,0.0848314,-0.283128,0
2024-12-13 15:36:09.081,0.275175,2.18824,5.60698,0.094605,0.100103,-0.289847,0
2024-12-13 15:36:09.081,0.275175,2.18824,5.60698,0.094605,0.100103,-0.289847,0
2024-12-13 15:36:09.083,0.239282,2.23849,5.60698,0.0768904,0.114152,-0.295345,0
2024-12-13 15:36:09.086,0.208176,2.29113,5.59023,0.0603975,0.128202,-0.302675,0
2024-12-13 15:36:09.088,0.18664,2.34856,5.57827,0.0408504,0.139808,-0.308783,0
2024-12-13 15:36:09.090,0.157926,2.40359,5.57348,0.0213033,0.154468,-0.315503,0
2024-12-13 15:36:09.093,0.129212,2.44188,5.57109,0.00358873,0.168517,-0.322222,0
2024-12-13 15:36:09.095,0.0981057,2.48495,5.56391,-0.0165692,0.178291,-0.329552,0
2024-12-13 15:36:09.097,0.0765703,2.53071,5.58305,-0.0361163,0.189286,-0.337493,0
2024-12-13 15:36:09.100,0.0622134,2.55224,5.62612,-0.0562743,0.19906,-0.344823,0
2024-12-13 15:36:09.102,0.0311067,2.57139,5.67398,-0.0770431,0.207612,-0.355208,0
2024-12-13 15:36:09.105,-0.00717847,2.60489,5.74098,-0.0990336,0.215553,-0.364981,0
2024-12-13 15:36:09.107,-0.0526421,2.64078,5.82712,-0.120413,0.22105,-0.374144,0
2024-12-13 15:36:09.109,-0.112463,2.66471,5.91596,-0.141182,0.227159,-0.383307,0
2024-12-13 15:36:09.112,-0.16989,2.67667,6.02602,-0.160118,0.234489,-0.39308,0
2024-12-13 15:36:09.114,-0.234497,2.69581,6.15763,-0.183331,0.238154,-0.40041,0
2024-12-13 15:36:09.116,-0.287438,2.72692,6.28445,-0.199823,0.247317,-0.409573,0
2024-12-13 15:36:09.119,-0.34008,2.74367,6.44716,-0.220592,0.248538,-0.416903,0
2024-12-13 15:36:09.121,-0.414257,2.74128,6.62214,-0.239528,0.250982,-0.423012,0
2024-12-13 15:36:09.123,-0.4669,2.74846,6.79203,-0.256021,0.250982,-0.430342,0
2024-12-13 15:36:09.126,-0.524327,2.7676,6.98824,-0.272514,0.247317,-0.437061,0
2024-12-13 15:36:09.128,-0.591326,2.78196,7.2015,-0.292061,0.244263,-0.441337,0
2024-12-13 15:36:09.130,-0.648754,2.79153,7.40967,-0.310998,0.237543,-0.446835,0
2024-12-13 15:36:09.133,-0.706182,2.79153,7.60618,-0.326269,0.232656,-0.4505,0
2024-12-13 15:36:09.135,-0.754038,2.8011,7.79761,-0.34154,0.224715,-0.455387,0
2024-12-13 15:36:09.138,-0.811466,2.81067,7.97947,-0.357422,0.219829,-0.45783,0
2024-12-13 15:36:09.140,-0.862014,2.81306,8.17598,-0.37025,0.214942,-0.460273,0
2024-12-13 15:36:09.142,-0.893121,2.81306,8.36979,-0.386132,0.208223,-0.461495,0
2024-12-13 15:36:09.145,-0.931406,2.82503,8.56601,-0.395295,0.208223,-0.462106,0
2024-12-13 15:36:09.147,-0.967299,2.84178,8.77927,-0.405068,0.208833,-0.462106,0
2024-12-13 15:36:09.149,-1.00558,2.8657,9.00658,-0.410566,0.212498,-0.462106,0
2024-12-13 15:36:09.152,-1.03908,2.89442,9.26531,-0.414231,0.22044,-0.45783,0
2024-12-13 15:36:09.154,-1.0678,2.92074,9.5357,-0.415452,0.230213,-0.455387,0
2024-12-13 15:36:09.156,-1.1013,2.95663,9.78216,-0.409955,0.247928,-0.451722,0
2024-12-13 15:36:09.159,-1.12762,3.00927,10.0026,-0.404457,0.266864,-0.448667,0
2024-12-13 15:36:09.161,-1.1659,3.06909,10.2227,-0.396516,0.285189,-0.444391,0
2024-12-13 15:36:09.163,-1.20419,3.12921,10.4504,-0.386132,0.30718,-0.443781,0
2024-12-13 15:36:09.166,-1.21854,3.20818,10.6657,-0.372082,0.335279,-0.439505,0
2024-12-13 15:36:09.168,-1.24008,3.30868,10.8595,-0.358033,0.360934,-0.43645,0
2024-12-13 15:36:09.171,-1.27837,3.41157,11.0441,-0.342762,0.382314,-0.430953,0
2024-12-13 15:36:09.173,-1.32383,3.54556,11.1972,-0.326269,0.403694,-0.427288,0
2024-12-13 15:36:09.175,-1.39083,3.67986,11.3408,-0.309776,0.417743,-0.422401,0
2024-12-13 15:36:09.178,-1.47966,3.79472,11.5134,-0.290229,0.434847,-0.415682,0
2024-12-13 15:36:09.180,-1.55862,3.93111,11.6761,-0.276179,0.440345,-0.408962,0
2024-12-13 15:36:09.182,-1.60409,4.06511,11.8268,-0.26213,0.43729,-0.401632,0
2024-12-13 15:36:09.185,-1.63759,4.18714,11.9895,-0.249913,0.42996,-0.393691,0
2024-12-13 15:36:09.187,-1.65912,4.29272,12.1214,-0.239528,0.420187,-0.388804,0
2024-12-13 15:36:09.189,-1.68066,4.37647,12.2411,-0.23342,0.403694,-0.382696,0
2024-12-13 15:36:09.192,-1.70219,4.47697,12.387,-0.230977,0.384147,-0.376587,0
2024-12-13 15:36:09.194,-1.7333,4.5679,12.5545,-0.230977,0.361545,-0.367425,0
2024-12-13 15:36:09.196,-1.76441,4.6349,12.7678,-0.230977,0.333446,-0.361927,0
2024-12-13 15:36:09.199,-1.8003,4.69472,13.0071,-0.234642,0.301071,-0.35704,0
2024-12-13 15:36:09.201,-1.83859,4.733,13.2658,-0.241361,0.26381,-0.346656,0
2024-12-13 15:36:09.203,-1.87448,4.76172,13.5625,-0.248691,0.22777,-0.337493,0
2024-12-13 15:36:09.206,-1.92473,4.78834,13.8835,-0.257854,0.189897,-0.32833,0
2024-12-13 15:36:09.208,-1.9681,4.79552,14.1921,-0.265795,0.152635,-0.314892,0
2024-12-13 15:36:09.211,-2.01117,4.80987,14.4939,-0.279234,0.115985,-0.300231,0
2024-12-13 15:36:09.213,-2.07099,4.82902,14.8002,-0.289618,0.0872748,-0.283128,0
2024-12-13 15:36:09.215,-2.12602,4.82423,15.1259,-0.303667,0.0628409,-0.263581,0
2024-12-13 15:36:09.218,-2.16909,4.81705,15.4636,-0.318328,0.0445155,-0.24159,0
2024-12-13 15:36:09.220,-2.19541,4.80987,15.8058,-0.332988,0.0310769,-0.215935,0
2024-12-13 15:36:09.222,-2.21934,4.80269,16.1435,-0.346427,0.0213033,-0.189057,0
2024-12-13 15:36:09.225,-2.22891,4.79312,16.4857,-0.361087,0.014584,-0.157904,0
2024-12-13 15:36:09.227,-2.21456,4.7689,16.8377,-0.378191,0.0139731,-0.124918,0
2024-12-13 15:36:09.229,-2.18106,4.75932,17.1778,-0.390408,0.0127514,-0.0888783,0
2024-12-13 15:36:09.232,-2.11884,4.74975,17.5152,-0.405679,0.0158057,-0.0491732,0
2024-12-13 15:36:09.234,-2.02313,4.69233,17.872,-0.420339,0.0182491,-0.00885729,0
2024-12-13 15:36:09.236,-1.87926,4.62054,18.2381,-0.430113,0.022525,0.0308478,0
2024-12-13 15:36:09.239,-1.6998,4.52243,18.5901,-0.444162,0.0261901,0.0723854,0
2024-12-13 15:36:09.241,-1.4988,4.39083,18.947,-0.450271,0.0347419,0.112701,0
2024-12-13 15:36:09.244,-1.28794,4.24726,19.3011,-0.453936,0.038407,0.149429,0
2024-12-13 15:36:09.246,-1.05823,4.08903,19.634,-0.44966,0.0457372,0.184858,0
2024-12-13 15:36:09.248,-0.821037,3.90957,19.9526,-0.443551,0.0487914,0.220898,0
2024-12-13 15:36:09.251,-0.600898,3.72054,20.2205,-0.431335,0.0518457,0.253883,0
2024-12-13 15:36:09.253,-0.397508,3.54796,20.4455,-0.414231,0.0597867,0.283204,0
2024-12-13 15:36:09.255,-0.205783,3.38285,20.63,-0.388575,0.0677277,0.311303,0
2024-12-13 15:36:09.258,-0.0239282,3.22971,20.776,-0.356811,0.074447,0.338791,0
2024-12-13 15:36:09.260,0.119641,3.08854,20.8669,-0.321382,0.0854423,0.364447,2
2024-12-13 15:36:09.262,0.217747,2.98535,20.8789,-0.274347,0.094605,0.390102,0
2024-12-13 15:36:09.266,0.294616,2.88485,20.8167,-0.164394,0.119039,0.438359,0
2024-12-13 15:36:09.267,0.335294,2.80588,20.6707,-0.164394,0.119039,0.438359,0
2024-12-13 15:36:09.269,0.359223,2.76521,20.4383,-0.10331,0.131256,0.460961,0
2024-12-13 15:36:09.272,0.395115,2.72453,20.1416,-0.0403923,0.137364,0.481119,0
2024-12-13 15:36:09.274,0.41665,2.68864,19.7895,0.0219141,0.142862,0.501887,0
2024-12-13 15:36:09.276,0.426222,2.66949,19.3875,0.086664,0.145305,0.518991,0
2024-12-13 15:36:09.279,0.440578,2.68146,18.9781,0.152025,0.145916,0.533041,0
2024-12-13 15:36:09.281,0.442971,2.70539,18.5423,0.210666,0.145916,0.546479,0
2024-12-13 15:36:09.284,0.411865,2.73649,18.0897,0.268086,0.147138,0.556253,0
2024-12-13 15:36:09.286,0.383151,2.76999,17.6324,0.326727,0.14897,0.562361,0
2024-12-13 15:36:09.288,0.390329,2.79631,17.1586,0.376282,0.145916,0.566026,0
2024-12-13 15:36:09.291,0.452543,2.79631,16.6822,0.422706,0.139808,0.562361,0
2024-12-13 15:36:09.293,0.545863,2.74846,16.244,0.460579,0.125147,0.553199,0
2024-12-13 15:36:09.295,0.629611,2.69581,15.88,0.492343,0.100713,0.540371,0
2024-12-13 15:36:09.298,0.699003,2.64078,15.5617,0.524107,0.0677277,0.521434,0
2024-12-13 15:36:09.300,0.737288,2.59532,15.2264,0.549152,0.0280226,0.500055,0
2024-12-13 15:36:09.302,0.732503,2.57617,14.9106,0.568088,-0.0196235,0.477454,0
2024-12-13 15:36:09.305,0.708575,2.55703,14.6327,0.585192,-0.0691021,0.45363,0
2024-12-13 15:36:09.307,0.682254,2.54746,14.3767,0.595576,-0.121024,0.430418,0
2024-12-13 15:36:09.309,0.651147,2.54985,14.1706,0.601074,-0.17539,0.407817,0
2024-12-13 15:36:09.312,0.62004,2.54507,13.972,0.607182,-0.227312,0.388881,0
2024-12-13 15:36:09.314,0.588933,2.52084,13.7901,0.609626,-0.282288,0.369944,0
2024-12-13 15:36:09.317,0.588933,2.47777,13.6463,0.607793,-0.332377,0.354062,0
2024-12-13 15:36:09.319,0.608076,2.42273,13.5027,0.604739,-0.380023,0.339402,0
2024-12-13 15:36:09.321,0.632004,2.34856,13.3543,0.601685,-0.42095,0.327185,0
2024-12-13 15:36:09.324,0.689432,2.26241,13.2275,0.594965,-0.456379,0.313746,0
2024-12-13 15:36:09.326,0.768395,2.17627,13.0932,0.594965,-0.456379,0.313746,0
2024-12-13 15:36:09.328,0.85005,2.10209,12.9305,0.582137,-0.50036,0.292367,0
2024-12-13 15:36:09.331,0.933799,2.0327,12.7511,0.576029,-0.511966,0.280761,0
2024-12-13 15:36:09.333,1.01515,1.9657,12.5761,0.565034,-0.51441,0.2661,0
2024-12-13 15:36:09.335,1.07737,1.92951,12.4205,0.557704,-0.509523,0.255716,0
2024-12-13 15:36:09.340,1.16351,1.88166,12.1095,0.544265,-0.480202,0.238612,0
2024-12-13 15:36:09.340,1.16351,1.88166,12.1095,0.544265,-0.480202,0.238612,0
2024-12-13 15:36:09.342,1.20897,1.88166,11.9441,0.539989,-0.455158,0.231282,0
2024-12-13 15:36:09.345,1.2664,1.89601,11.7766,0.535102,-0.425837,0.222119,0
2024-12-13 15:36:09.347,1.30229,1.9008,11.578,0.533881,-0.391019,0.214789,0
2024-12-13 15:36:09.349,1.32144,1.92473,11.3623,0.528383,-0.353757,0.210513,0
2024-12-13 15:36:09.353,1.35733,1.94626,11.1541,0.524718,-0.271293,0.199518,0
2024-12-13 15:36:09.354,1.38126,1.9681,10.9361,0.524718,-0.271293,0.199518,0
2024-12-13 15:36:09.357,1.38844,2.00638,10.716,0.521053,-0.231587,0.195242,0
2024-12-13 15:36:09.359,1.38604,2.05902,10.5126,0.518609,-0.192493,0.19341,0
2024-12-13 15:36:09.361,1.38365,2.11406,10.3208,0.518609,-0.154621,0.192188,0
2024-12-13 15:36:09.364,1.36929,2.17149,10.1079,0.515555,-0.122857,0.190966,0
2024-12-13 15:36:09.366,1.34058,2.23849,9.88056,0.514333,-0.0923143,0.191577,0
2024-12-13 15:36:09.371,1.30469,2.3342,9.42084,0.510057,-0.0397814,0.197685,0
2024-12-13 15:36:09.371,1.30469,2.3342,9.42084,0.510057,-0.0397814,0.197685,0
2024-12-13 15:36:09.375,1.25444,2.43948,8.98026,0.497841,-0.00740652,0.205016,0
2024-12-13 15:36:09.375,1.25444,2.43948,8.98026,0.497841,-0.00740652,0.205016,0
2024-12-13 15:36:09.380,1.19701,2.49452,8.55643,0.485624,0.00908635,0.2154,0
2024-12-13 15:36:09.380,1.19701,2.49452,8.55643,0.485624,0.00908635,0.2154,0
2024-12-13 15:36:09.382,1.1683,2.50648,8.36022,0.480126,0.010308,0.217233,0
2024-12-13 15:36:09.385,1.15872,2.54267,8.1664,0.471574,0.0096972,0.222119,0
2024-12-13 15:36:09.387,1.14197,2.57857,7.97707,0.462411,0.00358873,0.225174,0
2024-12-13 15:36:09.390,1.12283,2.59771,7.79283,0.45386,-0.0019089,0.231282,0
2024-12-13 15:36:09.392,1.08215,2.61685,7.62293,0.442864,-0.0116825,0.235558,0
2024-12-13 15:36:09.394,1.05105,2.65035,7.4671,0.430647,-0.0232886,0.241056,0
2024-12-13 15:36:09.397,1.02233,2.67667,7.32114,0.420263,-0.0355055,0.245332,0
2024-12-13 15:36:09.399,0.99362,2.70539,7.18953,0.408046,-0.0471116,0.250829,0
2024-12-13 15:36:09.401,0.964906,2.72692,7.06511,0.408046,-0.0471116,0.250829,0
2024-12-13 15:36:09.404,0.921835,2.73171,6.96192,0.38239,-0.0758214,0.268544,0
2024-12-13 15:36:09.406,0.878764,2.74367,6.85663,0.36773,-0.0880384,0.275874,0
2024-12-13 15:36:09.408,0.842872,2.74367,6.74896,0.351161,-0.102088,0.283204,0
2024-12-13 15:36:09.411,0.830609,2.75085,6.64606,0.338333,-0.114305,0.292367,0
2024-12-13 15:36:09.413,0.833001,2.76281,6.55274,0.323062,-0.128354,0.303362,0
2024-12-13 15:36:09.415,0.828216,2.76521,6.4666,0.305958,-0.13935,0.313746,0
2024-12-13 15:36:09.418,0.842872,2.76999,6.37298,0.291298,-0.147901,0.32352,0
2024-12-13 15:36:09.420,0.88355,2.77478,6.27488,0.272972,-0.155232,0.335737,0
2024-12-13 15:36:09.423,0.905085,2.77717,6.2007,0.25648,-0.163783,0.343678,0
2024-12-13 15:36:09.425,0.936192,2.76999,6.16002,0.239376,-0.165616,0.35223,0
2024-12-13 15:36:09.427,0.986441,2.76521,6.10738,0.223494,-0.165616,0.360782,0
2024-12-13 15:36:09.430,1.02951,2.7676,6.05713,0.203336,-0.163173,0.368723,0
2024-12-13 15:36:09.432,1.07498,2.75324,6.02602,0.186232,-0.155842,0.376053,0
2024-12-13 15:36:09.434,1.12044,2.74128,5.99013,0.168517,-0.148512,0.382161,0
2024-12-13 15:36:09.437,1.16351,2.74367,5.95903,0.150192,-0.136295,0.390102,0
2024-12-13 15:36:09.439,1.19701,2.74606,5.94467,0.131867,-0.121024,0.396822,0
2024-12-13 15:36:09.441,1.22812,2.74846,5.94228,0.11293,-0.104531,0.404763,0
2024-12-13 15:36:09.444,1.27119,2.74606,5.94228,0.0939941,-0.0868167,0.409649,0
2024-12-13 15:36:09.446,1.31186,2.72453,5.93031,0.0750579,-0.0642153,0.416369,0
2024-12-13 15:36:09.448,1.34297,2.71496,5.89921,0.0555107,-0.0397814,0.420645,0
2024-12-13 15:36:09.451,1.37647,2.71735,5.88694,0.0390179,-0.0129041,0.424921,0
2024-12-13 15:36:09.453,1.40788,2.70299,5.89442,0.0213033,0.0127514,0.43164,0
2024-12-13 15:36:09.455,1.42223,2.66471,5.88455,0.00419957,0.0402396,0.435916,0
2024-12-13 15:36:09.458,1.41745,2.63121,5.89203,-0.0165692,0.0652843,0.443246,0
2024-12-13 15:36:09.460,1.41027,2.60489,5.91356,-0.0348946,0.0933833,0.448133,0
2024-12-13 15:36:09.463,1.40548,2.57139,5.93749,-0.0526092,0.119039,0.450576,0
2024-12-13 15:36:09.465,1.38844,2.54507,5.9662,-0.0709346,0.141029,0.458517,0
2024-12-13 15:36:09.467,1.3669,2.51127,5.97338,-0.0868167,0.161187,0.465237,0
2024-12-13 15:36:09.470,1.3334,2.49691,5.98295,-0.10331,0.181956,0.471956,0
2024-12-13 15:36:09.472,1.28076,2.4993,6.01406,-0.122246,0.199671,0.477454,0
2024-12-13 15:36:09.474,1.23051,2.47777,6.04038,-0.13935,0.216164,0.483562,0
2024-12-13 15:36:09.477,1.1683,2.44905,6.07867,-0.157064,0.233267,0.490892,0
2024-12-13 15:36:09.479,1.10369,2.42991,6.12652,-0.17539,0.248538,0.498833,0
2024-12-13 15:36:09.481,1.05583,2.41316,6.16959,-0.192493,0.260755,0.503109,0
2024-12-13 15:36:09.484,1.01755,2.40598,6.20788,-0.208375,0.274805,0.511661,0
2024-12-13 15:36:09.486,0.99362,2.40359,6.24616,-0.208375,0.274805,0.511661,0
2024-12-13 15:36:09.488,0.979263,2.40598,6.30359,-0.237696,0.294963,0.519602,0
2024-12-13 15:36:09.491,0.969691,2.40598,6.34906,-0.253578,0.305347,0.523878,0
2024-12-13 15:36:09.493,0.936192,2.38206,6.4017,-0.268849,0.316953,0.523878,0
2024-12-13 15:36:09.496,0.909871,2.35813,6.45703,-0.28412,0.329781,0.526321,0
2024-12-13 15:36:09.498,0.921835,2.35813,6.50489,-0.296948,0.345663,0.52571,0
2024-12-13 15:36:09.503,0.876371,2.34616,6.62931,-0.324436,0.370097,0.523267,0
2024-12-13 15:36:09.503,0.876371,2.34616,6.62931,-0.324436,0.370097,0.523267,0
2024-12-13 15:36:09.505,0.859622,2.3342,6.68914,-0.33421,0.388422,0.519602,0
2024-12-13 15:36:09.507,0.852443,2.33181,6.75135,-0.346427,0.40797,0.517769,0
2024-12-13 15:36:09.510,0.85005,2.34138,6.78963,-0.358033,0.425684,0.512883,0
2024-12-13 15:36:09.512,0.852443,2.33659,6.81117,-0.369639,0.445231,0.506163,0
2024-12-13 15:36:09.514,0.84018,2.32463,6.85663,-0.383078,0.462335,0.497001,0
2024-12-13 15:36:09.517,0.835394,2.32223,6.90449,-0.394073,0.482493,0.48906,0
2024-12-13 15:36:09.519,0.84018,2.31745,6.95235,-0.408122,0.50204,0.476843,0
2024-12-13 15:36:09.521,0.835394,2.3007,7.00499,-0.419728,0.519144,0.465847,0
2024-12-13 15:36:09.524,0.82343,2.29591,7.0675,-0.430724,0.536248,0.454852,0
2024-12-13 15:36:09.526,0.804287,2.27677,7.15125,-0.441108,0.547854,0.440803,0
2024-12-13 15:36:09.528,0.801895,2.27199,7.235,-0.455768,0.558849,0.425531,0
2024-12-13 15:36:09.531,0.80668,2.27916,7.31157,-0.462488,0.568012,0.409039,0
2024-12-13 15:36:09.533,0.813859,2.27199,7.39532,-0.475926,0.57412,0.391935,0
2024-12-13 15:36:09.536,0.821037,2.27916,7.48864,-0.4857,0.578396,0.37422,0
2024-12-13 15:36:09.538,0.80668,2.29591,7.57986,-0.492419,0.582061,0.355284,0
2024-12-13 15:36:09.540,0.770788,2.31984,7.64686,-0.500971,0.585115,0.336348,0
2024-12-13 15:36:09.543,0.727717,2.34616,7.68993,-0.50708,0.590613,0.316801,0
2024-12-13 15:36:09.545,0.701396,2.35573,7.73779,-0.516853,0.594278,0.299697,0
2024-12-13 15:36:09.547,0.675075,2.34377,7.81915,-0.516853,0.594278,0.299697,0
2024-12-13 15:36:09.550,0.643968,2.32463,7.91964,-0.532735,0.602219,0.264268,0
2024-12-13 15:36:09.552,0.610469,2.32463,8.02493,-0.538233,0.60283,0.246553,0
2024-12-13 15:36:09.554,0.598505,2.31506,8.13769,-0.544341,0.600387,0.228228,0
2024-12-13 15:36:09.557,0.605683,2.28156,8.24776,-0.544341,0.600387,0.228228,0
2024-12-13 15:36:09.559,0.612862,2.2672,8.36501,-0.552282,0.586337,0.192799,0
2024-12-13 15:36:09.564,0.608076,2.20499,8.60668,-0.552893,0.56679,0.153094,0
2024-12-13 15:36:09.564,0.608076,2.20499,8.60668,-0.552893,0.56679,0.153094,0
2024-12-13 15:36:09.566,0.591326,2.17866,8.72902,-0.551671,0.551519,0.134768,0
2024-12-13 15:36:09.569,0.591326,2.14995,8.85584,-0.547396,0.538691,0.116366,0
2024-12-13 15:36:09.571,0.588933,2.13799,8.98266,-0.540676,0.525252,0.0998735,0
2024-12-13 15:36:09.573,0.569791,2.13799,9.11426,-0.533346,0.511814,0.0827698,0
2024-12-13 15:36:09.576,0.550648,2.1332,9.24347,-0.523572,0.503262,0.0674986,0
2024-12-13 15:36:09.578,0.524327,2.13799,9.37538,-0.512577,0.492877,0.0522274,0
2024-12-13 15:36:09.580,0.486042,2.14756,9.49741,-0.497917,0.482493,0.0387888,0
2024-12-13 15:36:09.583,0.442971,2.15234,9.6003,-0.480202,0.472109,0.0308478,0
2024-12-13 15:36:09.585,0.409472,2.15952,9.70559,-0.463709,0.460502,0.0222959,0
2024-12-13 15:36:09.590,0.330509,2.19541,9.85185,-0.425837,0.436069,0.0119115,0
2024-12-13 15:36:09.590,0.330509,2.19541,9.85185,-0.425837,0.436069,0.0119115,0
2024-12-13 15:36:09.592,0.289831,2.19781,9.9332,-0.400792,0.425073,0.0119115,0
2024-12-13 15:36:09.594,0.246461,2.21216,9.99063,-0.378802,0.412856,0.0106898,0
2024-12-13 15:36:09.597,0.22014,2.2337,10.017,-0.354368,0.40125,0.0125224,0
2024-12-13 15:36:09.599,0.232104,2.25284,10.0505,-0.32749,0.389033,0.0155766,0
2024-12-13 15:36:09.601,0.244068,2.27677,10.0792,-0.303057,0.374984,0.0192417,0
2024-12-13 15:36:09.604,0.232104,2.29831,10.0887,-0.274347,0.360934,0.0222959,0
2024-12-13 15:36:09.606,0.210568,2.31984,10.1007,-0.248691,0.348717,0.0253502,0
2024-12-13 15:36:09.611,0.184247,2.33659,10.1127,-0.186385,0.326727,0.0393996,0
2024-12-13 15:36:09.611,0.174676,2.35095,10.0959,-0.186385,0.326727,0.0393996,0
2024-12-13 15:36:09.614,0.162712,2.37488,10.0816,-0.125911,0.308401,0.0546708,0
2024-12-13 15:36:09.616,0.150748,2.38684,10.0457,-0.125911,0.308401,0.0546708,0
2024-12-13 15:36:09.618,0.160319,2.39641,9.98824,-0.0953685,0.30046,0.0650552,0
2024-12-13 15:36:09.620,0.165105,2.42273,9.91406,-0.0642153,0.290687,0.0748288,0
2024-12-13 15:36:09.623,0.155533,2.44427,9.83988,-0.0324513,0.282135,0.0852132,0
2024-12-13 15:36:09.625,0.133998,2.47777,9.78216,-0.00435229,0.274194,0.098041,0
2024-12-13 15:36:09.627,0.129212,2.49452,9.70559,-0.00435229,0.274194,0.098041,0
2024-12-13 15:36:09.630,0.155533,2.50648,9.62663,0.0524565,0.255258,0.124918,0
2024-12-13 15:36:09.632,0.167498,2.53549,9.55245,0.0524565,0.255258,0.124918,0
2024-12-13 15:36:09.634,0.165105,2.54746,9.46631,0.104379,0.235711,0.154315,0
2024-12-13 15:36:09.637,0.174676,2.54985,9.38016,0.130034,0.225326,0.168976,0
2024-12-13 15:36:09.639,0.18664,2.54507,9.28445,0.155079,0.214942,0.183025,0
2024-12-13 15:36:09.644,0.246461,2.53071,9.07837,0.200892,0.194173,0.214789,0
2024-12-13 15:36:09.644,0.246461,2.53071,9.07837,0.200892,0.194173,0.214789,0
2024-12-13 15:36:09.646,0.282652,2.52084,8.97308,0.223494,0.189897,0.229449,0
2024-12-13 15:36:09.649,0.332901,2.50887,8.85823,0.247317,0.181956,0.246553,0
2024-12-13 15:36:09.651,0.395115,2.49691,8.75773,0.268086,0.176459,0.262435,0
2024-12-13 15:36:09.653,0.459721,2.48734,8.65215,0.290687,0.174626,0.277706,0
2024-12-13 15:36:09.656,0.500399,2.45863,8.52533,0.311456,0.173404,0.292978,0
2024-12-13 15:36:09.658,0.555434,2.42034,8.40808,0.333446,0.17035,0.305805,0
2024-12-13 15:36:09.660,0.596112,2.40598,8.3004,0.354215,0.165463,0.320466,0
2024-12-13 15:36:09.663,0.612862,2.38923,8.19751,0.371395,0.158744,0.335737,0
2024-12-13 15:36:09.665,0.643968,2.35813,8.08714,0.392164,0.155079,0.349786,0
2024-12-13 15:36:09.667,0.675075,2.32702,7.96989,0.410489,0.14836,0.362614,0
2024-12-13 15:36:09.670,0.691825,2.3007,7.87418,0.428815,0.14164,0.373609,0
2024-12-13 15:36:09.672,0.71336,2.28395,7.76172,0.447751,0.136143,0.385826,0
2024-12-13 15:36:09.675,0.756431,2.2672,7.64447,0.447751,0.136143,0.385826,0
2024-12-13 15:36:09.677,0.797109,2.25284,7.54367,0.483791,0.117817,0.407206,0
2024-12-13 15:36:09.679,0.828216,2.23131,7.436,0.497841,0.109876,0.415758,0
2024-12-13 15:36:09.682,0.876371,2.19541,7.32593,0.516166,0.0982701,0.421866,0
2024-12-13 15:36:09.684,0.924228,2.17627,7.22064,0.528383,0.0848314,0.428586,0
2024-12-13 15:36:09.687,0.950549,2.14995,7.10818,0.552817,0.0597867,0.436527,0
2024-12-13 15:36:09.689,0.974477,2.12363,6.98345,0.552817,0.0597867,0.436527,0
2024-12-13 15:36:09.691,0.996012,2.10927,6.87578,0.560758,0.0469589,0.437138,0
2024-12-13 15:36:09.693,1.00798,2.10449,6.77288,0.568088,0.0341311,0.437138,0
2024-12-13 15:36:09.696,1.01515,2.08295,6.66042,0.574196,0.0219141,0.434694,0
2024-12-13 15:36:09.700,1.01037,2.05902,6.55753,0.582137,-0.0019089,0.429197,0
2024-12-13 15:36:09.700,0.998405,2.07577,6.4666,0.582137,-0.0019089,0.429197,0
2024-12-13 15:36:09.703,0.991227,2.07817,6.35145,0.582748,-0.0141258,0.423699,0
2024-12-13 15:36:09.705,0.986441,2.07099,6.24616,0.580916,-0.0269536,0.415147,0
2024-12-13 15:36:09.707,0.964906,2.08774,6.15763,0.577861,-0.0397814,0.412704,0
2024-12-13 15:36:09.710,0.933799,2.10209,6.06192,0.576029,-0.0562743,0.405374,0
2024-12-13 15:36:09.712,0.895514,2.11167,5.99253,0.568088,-0.0709346,0.398043,0
2024-12-13 15:36:09.715,0.852443,2.14277,5.9351,0.558314,-0.0880384,0.389491,0
2024-12-13 15:36:09.719,0.833001,2.21695,5.8008,0.533881,-0.122857,0.376664,0
2024-12-13 15:36:09.719,0.804287,2.21695,5.8008,0.533881,-0.122857,0.376664,0
2024-12-13 15:36:09.722,0.756431,2.25763,5.75055,0.519831,-0.13935,0.369944,0
2024-12-13 15:36:09.724,0.725324,2.27438,5.70748,0.505171,-0.158897,0.363225,0
2024-12-13 15:36:09.726,0.703789,2.29113,5.65484,0.487456,-0.177222,0.355895,0
2024-12-13 15:36:09.729,0.682254,2.31506,5.62612,0.469131,-0.196158,0.349176,0
2024-12-13 15:36:09.731,0.658325,2.33181,5.63809,0.452638,-0.216316,0.347954,0
2024-12-13 15:36:09.733,0.641576,2.35813,5.64766,0.430647,-0.237085,0.342456,0
2024-12-13 15:36:09.736,0.627219,2.38684,5.64766,0.410489,-0.257854,0.336959,0
2024-12-13 15:36:09.738,0.624826,2.39163,5.6692,0.389721,-0.27679,0.332072,0
2024-12-13 15:36:09.740,0.648754,2.42034,5.7003,0.36773,-0.295726,0.327185,0
2024-12-13 15:36:09.743,0.672682,2.44905,5.74337,0.351161,-0.314663,0.322909,0
2024-12-13 15:36:09.745,0.699003,2.45384,5.79841,0.330392,-0.334821,0.319855,0
2024-12-13 15:36:09.748,0.737288,2.4682,5.85344,0.312677,-0.352535,0.314968,0
2024-12-13 15:36:09.750,0.773181,2.48495,5.90878,0.293741,-0.373915,0.311914,0
2024-12-13 15:36:09.752,0.809073,2.48734,5.97099,0.276027,-0.389797,0.307027,0
2024-12-13 15:36:09.755,0.84018,2.49691,6.03799,0.260755,-0.405679,0.30214,0
2024-12-13 15:36:09.757,0.885943,2.4993,6.10738,0.244263,-0.423394,0.299697,0
2024-12-13 15:36:09.759,0.936192,2.4993,6.18395,0.227159,-0.440497,0.29481,0
2024-12-13 15:36:09.762,0.991227,2.51127,6.28206,0.216164,-0.453936,0.289923,0
2024-12-13 15:36:09.764,1.04387,2.52832,6.40888,0.203947,-0.468596,0.284426,0
2024-12-13 15:36:09.766,1.11087,2.54028,6.55035,0.193562,-0.478981,0.278928,0
2024-12-13 15:36:09.771,0.677468,2.25524,7.31396,0.186843,-0.463099,0.285037,0
2024-12-13 15:36:09.771,0.677468,2.25524,7.31396,0.186843,-0.463099,0.285037,0
2024-12-13 15:36:09.773,0.553041,2.13799,7.66361,0.205168,-0.412398,0.30886,0
2024-12-13 15:36:09.776,0.895514,2.24566,7.47189,0.211277,-0.400181,0.328407,0
2024-12-13 15:36:09.778,1.03908,2.32223,7.39532,0.214331,-0.403846,0.342456,0
2024-12-13 15:36:09.781,1.15633,2.43709,7.34507,0.21372,-0.408733,0.355284,0
2024-12-13 15:36:09.783,1.21376,2.58574,7.31635,0.209444,-0.408733,0.365058,0
2024-12-13 15:36:09.785,1.24008,2.74128,7.32832,0.208223,-0.395905,0.37422,0
2024-12-13 15:36:09.788,1.32622,2.91356,7.35464,0.202114,-0.376358,0.38155,0
2024-12-13 15:36:09.790,1.4342,3.11007,7.38814,0.196616,-0.352535,0.387659,0
2024-12-13 15:36:09.792,1.5347,3.31107,7.40967,0.19173,-0.318939,0.391324,0
2024-12-13 15:36:09.795,1.59452,3.51446,7.40728,0.181956,-0.28412,0.391324,0
2024-12-13 15:36:09.797,1.63998,3.70618,7.40728,0.169128,-0.247469,0.388881,0
2024-12-13 15:36:09.799,1.71655,3.88325,7.43839,0.152635,-0.21876,0.383994,0
2024-12-13 15:36:09.802,1.78355,4.0675,7.48624,0.129423,-0.196769,0.37422,0
2024-12-13 15:36:09.804,1.82423,4.23051,7.56521,0.102546,-0.189439,0.360782,0
2024-12-13 15:36:09.806,1.86251,4.39322,7.6995,0.0732253,-0.19005,0.340013,0
2024-12-13 15:36:09.809,1.90558,4.56072,7.84547,0.0335202,-0.200434,0.317412,0
2024-12-13 15:36:09.811,1.92473,4.71625,8.02493,-0.00740652,-0.218149,0.288702,0
2024-12-13 15:36:09.813,1.90798,4.84816,8.30997,-0.0538309,-0.241361,0.254494,0
2024-12-13 15:36:09.816,1.88644,4.92951,8.69043,-0.0996445,-0.266406,0.221508,0
2024-12-13 15:36:09.818,1.86251,4.97976,9.1334,-0.147291,-0.296948,0.186079,0
2024-12-13 15:36:09.821,1.80269,5.01087,9.62184,-0.194326,-0.329934,0.149429,0
2024-12-13 15:36:09.823,1.70459,5.01566,10.139,-0.24075,-0.368417,0.110869,0
2024-12-13 15:36:09.825,1.58016,4.99651,10.6705,-0.285342,-0.410566,0.0723854,0
2024-12-13 15:36:09.828,1.41745,4.96062,11.2116,-0.32749,-0.453936,0.0357346,0
2024-12-13 15:36:09.830,1.24008,4.89123,11.767,-0.368417,-0.497306,0.00213797,0
2024-12-13 15:36:09.832,1.07498,4.79312,12.3512,-0.410566,-0.54312,-0.0271827,0
2024-12-13 15:36:09.835,0.88355,4.68754,12.9497,-0.452103,-0.591987,-0.0565034,0
2024-12-13 15:36:09.837,0.694218,4.55593,13.5482,-0.491198,-0.63719,-0.0791047,0
2024-12-13 15:36:09.842,0.299402,4.25683,14.793,-0.56511,-0.726985,-0.107815,0
2024-12-13 15:36:09.842,0.299402,4.25683,14.793,-0.56511,-0.726985,-0.107815,0
2024-12-13 15:36:09.844,0.129212,4.09382,15.4035,-0.598707,-0.766079,-0.114534,0
2024-12-13 15:36:09.846,-0.00717847,3.92154,16.0214,-0.62986,-0.792345,-0.115145,0
2024-12-13 15:36:09.849,-0.0837488,3.7349,16.6439,-0.662235,-0.808838,-0.109647,0
2024-12-13 15:36:09.851,-0.133998,3.55274,17.2591,-0.688501,-0.81739,-0.102317,0
2024-12-13 15:36:09.854,-0.16989,3.36132,17.8433,-0.712324,-0.814947,-0.0894891,0
2024-12-13 15:36:09.856,-0.196211,3.23928,18.291,-0.733093,-0.803951,-0.0723854,0
2024-12-13 15:36:09.858,-0.160319,3.27039,18.3987,-0.756916,-0.808838,-0.0528383,0
2024-12-13 15:36:09.861,-0.285045,3.41396,18.4107,-0.788069,-0.815557,-0.0332912,0
2024-12-13 15:36:09.863,-0.440578,3.46182,18.7528,-0.819833,-0.784404,-0.00397051,0
2024-12-13 15:36:09.865,-0.325723,3.3015,19.3732,-0.845489,-0.758138,0.0332912,0
2024-12-13 15:36:09.870,0.102891,2.81545,20.4865,-0.864425,-0.693999,0.0937651,0
2024-12-13 15:36:09.870,0.102891,2.81545,20.4865,-0.864425,-0.693999,0.0937651,0
2024-12-13 15:36:09.872,0.342473,2.4682,21.0201,-0.855873,-0.646353,0.120031,0
2024-12-13 15:36:09.875,0.502792,2.09731,21.5181,-0.840602,-0.588933,0.142098,0
2024-12-13 15:36:09.877,0.792323,1.69502,21.918,-0.807006,-0.52174,0.161645,0
2024-12-13 15:36:09.879,1.37647,1.31904,22.0639,-0.764857,-0.462488,0.175084,2
2024-12-13 15:36:09.882,1.89841,0.991227,22.1046,-0.7166,-0.409955,0.178749,0
2024-12-13 15:36:09.884,2.3342,0.701396,22.0615,-0.663456,-0.354368,0.176306,0
2024-12-13 15:36:09.886,2.76042,0.474078,21.8629,-0.605426,-0.291451,0.162867,0
2024-12-13 15:36:09.889,2.77238,0.359223,21.7433,-0.538233,-0.21143,0.145763,0
2024-12-13 15:36:09.891,2.46341,0.34008,21.6069,-0.464931,-0.11797,0.136601,0
2024-12-13 15:36:09.894,2.13081,0.390329,21.2333,-0.383078,-0.0196235,0.131638,0
2024-12-13 15:36:09.896,1.69741,0.545863,20.7784,-0.300002,0.0793338,0.135379,0
2024-12-13 15:36:09.898,1.24008,0.816252,20.3354,-0.215705,0.170961,0.151261,0
2024-12-13 15:36:09.901,0.830609,1.17069,19.8302,-0.129576,0.247928,0.17203,0
2024-12-13 15:36:09.903,0.471685,1.54427,19.2556,-0.0489441,0.301071,0.198907,0
2024-12-13 15:36:09.905,0.153141,1.91994,18.6667,0.0280226,0.335279,0.228839,0
2024-12-13 15:36:09.908,-0.081356,2.24806,18.0682,0.100713,0.354826,0.259381,0
2024-12-13 15:36:09.910,-0.184247,2.48973,17.5223,0.166074,0.355437,0.28748,0
2024-12-13 15:36:09.912,-0.148355,2.68385,17.0243,0.228381,0.345052,0.310081,0
2024-12-13 15:36:09.915,-0.0119641,2.81306,16.5096,0.287633,0.32917,0.322909,0
2024-12-13 15:36:09.917,0.167498,2.88963,16.0119,0.339555,0.308401,0.328407,0
2024-12-13 15:36:09.919,0.328116,2.94227,15.5474,0.387277,0.288854,0.324742,0
2024-12-13 15:36:09.922,0.457328,2.93988,15.102,0.428204,0.267475,0.315579,0
2024-12-13 15:36:09.924,0.533899,2.91595,14.7189,0.469742,0.252204,0.300919,0
2024-12-13 15:36:09.927,0.555434,2.88245,14.403,0.503949,0.238765,0.277706,0
2024-12-13 15:36:09.929,0.612862,2.75803,14.1754,0.535713,0.22105,0.255105,0
2024-12-13 15:36:09.931,0.708575,2.57617,14.0677,0.567477,0.194173,0.225784,0
2024-12-13 15:36:09.934,0.512363,2.56421,13.7566,0.567477,0.194173,0.225784,0
2024-12-13 15:36:09.936,0.229711,2.64796,13.3878,0.616345,0.174015,0.1647,0
2024-12-13 15:36:09.938,0.292223,2.5666,13.4381,0.632838,0.158744,0.137822,0
2024-12-13 15:36:09.941,0.239282,2.52084,13.3831,0.651774,0.131867,0.106593,0
2024-12-13 15:36:09.943,0.0239282,2.6001,13.0789,0.665213,0.122704,0.0815481,0
2024-12-13 15:36:09.945,-0.0646062,2.69103,12.8707,0.672543,0.119039,0.0601685,0
2024-12-13 15:36:09.948,-0.148355,2.77956,12.6577,0.674375,0.116595,0.0375671,0
2024-12-13 15:36:09.950,-0.253639,2.88006,12.4325,0.670099,0.11965,0.0210742,0
2024-12-13 15:36:09.955,-0.404686,3.10289,12.0159,0.64872,0.131867,-0.00335966,0
2024-12-13 15:36:09.955,-0.404686,3.10289,12.0159,0.64872,0.131867,-0.00335966,0
2024-12-13 15:36:09.957,-0.459721,3.16271,11.767,0.64872,0.131867,-0.00335966,0
2024-12-13 15:36:09.959,-0.519542,3.21057,11.5086,0.609015,0.150192,-0.0198525,0
2024-12-13 15:36:09.962,-0.565005,3.24646,11.2714,0.580305,0.157522,-0.0222959,0
2024-12-13 15:36:09.964,-0.596112,3.26321,11.0441,0.546097,0.166074,-0.0253502,0
2024-12-13 15:36:09.967,-0.605683,3.26082,10.8428,0.513723,0.172183,-0.0265719,0
2024-12-13 15:36:09.969,-0.629611,3.25603,10.6131,0.475239,0.176459,-0.0247393,0
2024-12-13 15:36:09.971,-0.682254,3.26082,10.3472,0.434312,0.187454,-0.0222959,0
2024-12-13 15:36:09.974,-0.677468,3.22014,10.1677,0.392775,0.197838,-0.0167983,0
2024-12-13 15:36:09.976,-0.615255,3.12204,10.0528,0.351772,0.202725,-0.0119115,0
2024-12-13 15:36:09.978,-0.529113,2.9997,9.93799,0.308401,0.202725,-0.00885729,0
2024-12-13 15:36:09.981,-0.426222,2.88245,9.83031,0.269918,0.204557,-0.00763559,0
2024-12-13 15:36:09.983,-0.330509,2.7676,9.73191,0.234489,0.210055,-0.00946813,0
2024-12-13 15:36:09.985,-0.253639,2.67906,9.66491,0.198449,0.214331,-0.0125224,0
2024-12-13 15:36:09.988,-0.196211,2.62403,9.59791,0.167907,0.223494,-0.0174091,0
2024-12-13 15:36:09.990,-0.155533,2.60489,9.51655,0.141029,0.230824,-0.0253502,0
2024-12-13 15:36:09.992,-0.129212,2.60489,9.44956,0.11293,0.241208,-0.0314586,0
2024-12-13 15:36:09.995,-0.119641,2.60489,9.38734,0.0921616,0.25648,-0.0393996,0
2024-12-13 15:36:09.997,-0.12682,2.65274,9.32274,0.0720036,0.269307,-0.0436756,0
2024-12-13 15:36:10.000,-0.153141,2.72213,9.25783,0.0524565,0.283968,-0.0497841,0
2024-12-13 15:36:10.002,-0.177069,2.77717,9.20758,0.0359636,0.298628,-0.0552817,0
2024-12-13 15:36:10.004,-0.198604,2.83938,9.15255,0.0243575,0.309012,-0.0595576,0
2024-12-13 15:36:10.007,-0.215354,2.8992,9.11187,0.0096972,0.318175,-0.062001,0
2024-12-13 15:36:10.011,-0.234497,2.96381,9.06641,-0.0122933,0.325505,-0.0668878,0
2024-12-13 15:36:10.011,-0.234497,2.96381,9.06641,-0.0122933,0.325505,-0.0668878,0
2024-12-13 15:36:10.014,-0.0789631,2.85853,9.13101,-0.0190126,0.322451,-0.069942,0
2024-12-13 15:36:10.016,0.212961,2.64556,9.32752,-0.0220669,0.294963,-0.0833807,0
2024-12-13 15:36:10.018,0.112463,2.68385,9.12623,-0.0177909,0.279081,-0.102928,0
2024-12-13 15:36:10.021,-0.217747,2.91356,8.73141,-0.0202343,0.29985,-0.110869,0
2024-12-13 15:36:10.025,-0.34008,3.14596,8.74577,-0.0226777,0.321229,-0.107815,0
2024-12-13 15:36:10.025,-0.34008,3.14596,8.74577,-0.0226777,0.321229,-0.107815,0
2024-12-13 15:36:10.028,-0.397508,3.18903,8.68325,-0.0202343,0.318175,-0.104149,0
2024-12-13 15:36:10.030,-0.414257,3.19621,8.56361,-0.0202343,0.315732,-0.0998735,0
2024-12-13 15:36:10.032,-0.387936,3.17946,8.4679,-0.0232886,0.310845,-0.0974301,0
2024-12-13 15:36:10.035,-0.352044,3.12204,8.41047,-0.0245102,0.302904,-0.0974301,0
2024-12-13 15:36:10.037,-0.27996,3.03799,8.39612,-0.0245102,0.302904,-0.0974301,0
2024-12-13 15:36:10.041,-0.205783,2.9662,8.37697,-0.0281753,0.251593,-0.105371,0
2024-12-13 15:36:10.042,-0.172283,2.90638,8.31476,-0.0281753,0.251593,-0.105371,0
2024-12-13 15:36:10.044,-0.138784,2.8681,8.21426,-0.0269536,0.240597,-0.108425,0
2024-12-13 15:36:10.047,-0.12682,2.85135,8.1015,-0.0245102,0.230824,-0.113312,0
2024-12-13 15:36:10.051,-0.141177,2.8346,7.91486,-0.0232886,0.218607,-0.120642,0
2024-12-13 15:36:10.051,-0.141177,2.8346,7.91486,-0.0232886,0.218607,-0.120642,0
2024-12-13 15:36:10.054,-0.177069,2.83938,7.81675,-0.0226777,0.218607,-0.123086,0
2024-12-13 15:36:10.056,-0.210568,2.85613,7.73061,-0.0245102,0.216164,-0.125529,0
2024-12-13 15:36:10.058,-0.222533,2.8681,7.66122,-0.0251211,0.219218,-0.127972,0
2024-12-13 15:36:10.061,-0.224925,2.88006,7.57478,-0.0269536,0.219218,-0.130416,0
2024-12-13 15:36:10.063,-0.222533,2.88485,7.48624,-0.033673,0.214942,-0.131638,0
2024-12-13 15:36:10.066,-0.232104,2.87767,7.41685,-0.0379489,0.212498,-0.132859,0
2024-12-13 15:36:10.068,-0.236889,2.8657,7.34746,-0.0410031,0.207612,-0.135303,0
2024-12-13 15:36:10.070,-0.241675,2.85374,7.28286,-0.0483333,0.202725,-0.135914,0
2024-12-13 15:36:10.073,-0.234497,2.82742,7.23021,-0.0532201,0.19906,-0.136524,0
2024-12-13 15:36:10.075,-0.232104,2.79871,7.15364,-0.0581068,0.194173,-0.136524,0
2024-12-13 15:36:10.077,-0.234497,2.78196,7.08186,-0.065437,0.189897,-0.134692,0
2024-12-13 15:36:10.080,-0.222533,2.77238,7.01725,-0.0691021,0.186843,-0.135914,0
2024-12-13 15:36:10.082,-0.212961,2.74606,6.95474,-0.0739889,0.183178,-0.135303,0
2024-12-13 15:36:10.084,-0.205783,2.71974,6.90928,-0.0807082,0.178902,-0.137746,0
2024-12-13 15:36:10.087,-0.191426,2.69821,6.84706,-0.0868167,0.174626,-0.137135,0
2024-12-13 15:36:10.089,-0.184247,2.67189,6.78724,-0.0868167,0.174626,-0.137135,0
2024-12-13 15:36:10.091,-0.181855,2.64796,6.74896,-0.0965902,0.162409,-0.138968,0
2024-12-13 15:36:10.094,-0.179462,2.62881,6.70349,-0.100866,0.157522,-0.138357,0
2024-12-13 15:36:10.096,-0.177069,2.61924,6.66521,-0.106364,0.151414,-0.140189,0
2024-12-13 15:36:10.101,-0.16989,2.59532,6.64846,-0.112472,0.138586,-0.140189,0
2024-12-13 15:36:10.101,-0.165105,2.58096,6.61735,-0.112472,0.138586,-0.140189,0
2024-12-13 15:36:10.103,-0.16989,2.58096,6.56949,-0.113083,0.133699,-0.1408,0
2024-12-13 15:36:10.106,-0.172283,2.59532,6.5336,-0.114305,0.128812,-0.138968,0
2024-12-13 15:36:10.108,-0.16989,2.60249,6.51446,-0.113694,0.123315,-0.139579,0
2024-12-13 15:36:10.110,-0.179462,2.59771,6.48096,-0.113694,0.117817,-0.138357,0
2024-12-13 15:36:10.113,-0.196211,2.6001,6.44238,-0.114916,0.113541,-0.137746,0
2024-12-13 15:36:10.115,-0.184247,2.59532,6.41845,-0.109418,0.111709,-0.135303,0
2024-12-13 15:36:10.117,-0.181855,2.60249,6.39213,-0.107585,0.109265,-0.134692,0
2024-12-13 15:36:10.120,-0.18664,2.58574,6.35863,-0.102699,0.108654,-0.132859,0
2024-12-13 15:36:10.122,-0.189033,2.56182,6.32034,-0.0996445,0.104379,-0.131638,0
2024-12-13 15:36:10.124,-0.18664,2.55464,6.28445,-0.0984228,0.0988809,-0.129194,0
2024-12-13 15:36:10.127,-0.179462,2.54267,6.24138,-0.0917034,0.0958267,-0.127972,0
2024-12-13 15:36:10.129,-0.177069,2.54746,6.20788,-0.0898709,0.0921616,-0.12614,0
2024-12-13 15:36:10.131,-0.177069,2.56182,6.17917,-0.0868167,0.0860531,-0.123697,0
2024-12-13 15:36:10.134,-0.184247,2.57139,6.14327,-0.0862058,0.0787229,-0.121864,0
2024-12-13 15:36:10.136,-0.193819,2.58335,6.12413,-0.0819299,0.0738362,-0.118199,0
2024-12-13 15:36:10.138,-0.196211,2.57857,6.10499,-0.085595,0.0646735,-0.117588,0
2024-12-13 15:36:10.143,-0.18664,2.55942,6.03799,-0.0819299,0.0494023,-0.110869,0
2024-12-13 15:36:10.143,-0.18664,2.55942,6.03799,-0.0819299,0.0494023,-0.110869,0
2024-12-13 15:36:10.148,-0.162712,2.55224,6.02842,-0.0825407,0.0292443,-0.10476,0
2024-12-13 15:36:10.148,-0.162712,2.55224,6.02842,-0.0825407,0.0292443,-0.10476,0
2024-12-13 15:36:10.150,-0.157926,2.53549,6.00927,-0.0849841,0.0170274,-0.102928,0
2024-12-13 15:36:10.153,-0.141177,2.53071,5.99731,-0.0880384,0.00603212,-0.100484,0
2024-12-13 15:36:10.155,-0.131605,2.52832,5.99492,-0.0898709,-0.00801737,-0.0998735,0
2024-12-13 15:36:10.157,-0.133998,2.52084,5.99253,-0.0965902,-0.0202343,-0.0962084,0
2024-12-13 15:36:10.160,-0.133998,2.51605,5.98774,-0.100255,-0.0367272,-0.0949868,0
2024-12-13 15:36:10.162,-0.153141,2.51605,6.01167,-0.106364,-0.0526092,-0.0962084,0
2024-12-13 15:36:10.164,-0.179462,2.51366,6.0691,-0.114916,-0.0672696,-0.0943759,0
2024-12-13 15:36:10.167,-0.193819,2.51366,6.10738,-0.122857,-0.0843733,-0.0931542,0
2024-12-13 15:36:10.169,-0.208176,2.50648,6.15284,-0.130798,-0.101477,-0.0913217,0
2024-12-13 15:36:10.171,-0.212961,2.49691,6.22224,-0.13996,-0.116748,-0.0882674,0
2024-12-13 15:36:10.176,-0.217747,2.49691,6.39213,-0.157064,-0.144847,-0.0815481,0
2024-12-13 15:36:10.176,-0.217747,2.49691,6.39213,-0.157064,-0.144847,-0.0815481,0
2024-12-13 15:36:10.181,-0.232104,2.47059,6.56232,-0.173557,-0.173557,-0.0748288,0
2024-12-13 15:36:10.181,-0.232104,2.47059,6.56232,-0.173557,-0.173557,-0.0748288,0
2024-12-13 15:36:10.183,-0.244068,2.46102,6.65085,-0.18272,-0.186385,-0.0711637,0
2024-12-13 15:36:10.186,-0.241675,2.45145,6.72264,-0.190661,-0.194326,-0.0693312,0
2024-12-13 15:36:10.188,-0.232104,2.43948,6.79681,-0.199823,-0.20471,-0.0638335,0
2024-12-13 15:36:10.190,-0.232104,2.42513,6.85185,-0.206543,-0.21143,-0.0583359,0
2024-12-13 15:36:10.193,-0.229711,2.37966,6.90449,-0.214484,-0.213873,-0.0528383,0
2024-12-13 15:36:10.195,-0.205783,2.32941,6.98824,-0.219981,-0.217538,-0.0473407,0
2024-12-13 15:36:10.197,-0.189033,2.3007,7.07468,-0.224868,-0.21876,-0.0406213,0
2024-12-13 15:36:10.200,-0.179462,2.28156,7.15364,-0.229144,-0.219371,-0.0326803,0
2024-12-13 15:36:10.202,-0.184247,2.23849,7.23261,-0.230977,-0.219371,-0.0247393,0
2024-12-13 15:36:10.204,-0.20339,2.19781,7.32114,-0.237085,-0.220592,-0.01802,0
2024-12-13 15:36:10.207,-0.22014,2.17388,7.41925,-0.237696,-0.220592,-0.010079,0
2024-12-13 15:36:10.209,-0.232104,2.13559,7.51735,-0.239528,-0.221203,0.000916271,0
2024-12-13 15:36:10.211,-0.234497,2.10927,7.62533,-0.243804,-0.223036,0.010079,0
2024-12-13 15:36:10.214,-0.244068,2.09731,7.7354,-0.244415,-0.221814,0.0186308,0
2024-12-13 15:36:10.219,-0.215354,2.03749,7.91725,-0.239528,-0.215095,0.0375671,0
2024-12-13 15:36:10.219,-0.215354,2.03749,7.91725,-0.239528,-0.215095,0.0375671,0
2024-12-13 15:36:10.221,-0.189033,2.02074,7.99621,-0.234642,-0.209597,0.0455081,0
2024-12-13 15:36:10.223,-0.150748,2.0016,8.07279,-0.227312,-0.205932,0.0546708,0
2024-12-13 15:36:10.228,-0.0382852,1.98006,8.17119,-0.210208,-0.195547,0.0662769,0
2024-12-13 15:36:10.228,-0.0382852,1.98006,8.17119,-0.210208,-0.195547,0.0662769,0
2024-12-13 15:36:10.230,0.0143569,1.98245,8.20469,-0.199213,-0.191882,0.069942,0
2024-12-13 15:36:10.233,0.0693919,1.97049,8.22622,-0.186996,-0.191272,0.0729962,0
2024-12-13 15:36:10.237,0.191426,2.0016,8.21665,-0.160118,-0.188217,0.0748288,0
2024-12-13 15:36:10.237,0.191426,2.0016,8.21665,-0.160118,-0.188217,0.0748288,0
2024-12-13 15:36:10.240,0.236889,2.02313,8.19033,-0.143625,-0.19005,0.0742179,0
2024-12-13 15:36:10.242,0.265603,2.0351,8.15923,-0.128965,-0.193715,0.0736071,0
2024-12-13 15:36:10.244,0.299402,2.03988,8.11586,-0.113083,-0.198602,0.0717745,0
2024-12-13 15:36:10.247,0.311366,2.04945,8.05843,-0.0953685,-0.208986,0.0681095,0
2024-12-13 15:36:10.249,0.318545,2.06142,8.01057,-0.0782648,-0.220592,0.0662769,0
2024-12-13 15:36:10.252,0.332901,2.07099,7.95554,-0.0623828,-0.231587,0.0626118,0
2024-12-13 15:36:10.254,0.342473,2.07577,7.9005,-0.0465007,-0.245026,0.0613902,0
2024-12-13 15:36:10.257,0.354437,2.08295,7.84068,-0.00862822,-0.273125,0.0558925,0
2024-12-13 15:36:10.261,0.337687,2.10688,7.74018,0.00725381,-0.287785,0.0516166,0
2024-12-13 15:36:10.261,0.337687,2.10688,7.74018,0.00725381,-0.287785,0.0516166,0
2024-12-13 15:36:10.263,0.335294,2.10927,7.69233,0.0249684,-0.301224,0.0473407,0
2024-12-13 15:36:10.266,0.32333,2.10449,7.63968,0.0414613,-0.31283,0.0442864,0
2024-12-13 15:36:10.268,0.32333,2.12602,7.56999,0.058565,-0.326269,0.0393996,0
2024-12-13 15:36:10.270,0.330509,2.15474,7.51257,0.074447,-0.336653,0.0351237,0
2024-12-13 15:36:10.275,0.328116,2.19781,7.39292,0.103157,-0.354979,0.025961,0
2024-12-13 15:36:10.275,0.328116,2.19781,7.39292,0.103157,-0.354979,0.025961,0
2024-12-13 15:36:10.277,0.342473,2.22413,7.33071,0.103157,-0.354979,0.025961,0
2024-12-13 15:36:10.280,0.349651,2.27916,7.27328,0.120871,-0.364752,0.0131332,0
2024-12-13 15:36:10.282,0.364008,2.32941,7.20628,0.127591,-0.365974,0.0051922,0
2024-12-13 15:36:10.284,0.373579,2.37248,7.12971,0.133699,-0.36353,-0.00274881,0
2024-12-13 15:36:10.287,0.383151,2.42034,7.06032,0.131256,-0.364141,-0.0113007,0
2024-12-13 15:36:10.289,0.397508,2.47537,6.99542,0.131867,-0.354368,-0.0198525,0
2024-12-13 15:36:10.292,0.428614,2.52323,6.94517,0.132477,-0.343373,-0.0326803,0
2024-12-13 15:36:10.294,0.45015,2.58096,6.91645,0.123926,-0.331156,-0.046119,0
2024-12-13 15:36:10.296,0.454935,2.65035,6.89492,0.115985,-0.314052,-0.0571142,0
2024-12-13 15:36:10.299,0.4669,2.69342,6.8686,0.104989,-0.293894,-0.069942,0
2024-12-13 15:36:10.301,0.464507,2.74367,6.84706,0.0915507,-0.270682,-0.082159,0
2024-12-13 15:36:10.303,0.454935,2.79392,6.84228,0.0775012,-0.242583,-0.0974301,0
2024-12-13 15:36:10.306,0.457328,2.83938,6.85185,0.0628409,-0.210819,-0.112701,0
2024-12-13 15:36:10.308,0.447757,2.88485,6.8686,0.0469589,-0.177833,-0.123697,0
2024-12-13 15:36:10.310,0.423829,2.92552,6.89013,0.0280226,-0.146069,-0.137746,0
2024-12-13 15:36:10.313,0.404686,2.95185,6.91885,0.00908635,-0.112472,-0.151185,0
2024-12-13 15:36:10.315,0.373579,2.9686,6.95713,-0.0104608,-0.0794865,-0.164623,0
2024-12-13 15:36:10.317,0.32333,2.99013,7.00738,-0.0342838,-0.0483333,-0.177451,0
2024-12-13 15:36:10.320,0.275175,2.99013,7.0675,-0.0532201,-0.0153475,-0.190279,0
2024-12-13 15:36:10.322,0.227318,2.98535,7.14407,-0.0758214,0.0139731,-0.201274,0
2024-12-13 15:36:10.325,0.162712,3.00688,7.24457,-0.100866,0.042683,-0.211659,0
2024-12-13 15:36:10.327,0.102891,3.02124,7.36182,-0.124078,0.0726145,-0.221432,0
2024-12-13 15:36:10.329,0.0502493,3.01645,7.49103,-0.144847,0.0982701,-0.231817,0
2024-12-13 15:36:10.332,-0.0143569,3.00688,7.63968,-0.166227,0.122704,-0.238536,0
2024-12-13 15:36:10.334,-0.081356,3.0021,7.79283,-0.188217,0.145916,-0.243423,0
2024-12-13 15:36:10.336,-0.124427,3.00927,7.94118,-0.206543,0.169739,-0.249531,0
2024-12-13 15:36:10.341,-0.165105,3.0021,8.20708,-0.239528,0.210055,-0.258083,0
2024-12-13 15:36:10.341,-0.165105,3.0021,8.20708,-0.239528,0.210055,-0.258083,0
2024-12-13 15:36:10.343,-0.172283,2.98774,8.35065,-0.255411,0.224105,-0.266024,0
2024-12-13 15:36:10.346,-0.18664,2.98056,8.49661,-0.270682,0.239376,-0.272743,0
2024-12-13 15:36:10.348,-0.227318,2.97577,8.64258,-0.282899,0.253425,-0.27763,0
2024-12-13 15:36:10.350,-0.272782,2.95902,8.81277,-0.293283,0.266864,-0.285571,0
2024-12-13 15:36:10.355,-0.385544,2.9327,9.12383,-0.304278,0.294963,-0.294734,0
2024-12-13 15:36:10.355,-0.385544,2.9327,9.12383,-0.304278,0.294963,-0.294734,0
2024-12-13 15:36:10.358,-0.438186,2.93031,9.25544,-0.304889,0.309012,-0.298399,0
2024-12-13 15:36:10.360,-0.493221,2.92552,9.35145,-0.306722,0.325505,-0.303286,0
2024-12-13 15:36:10.362,-0.536291,2.92313,9.45195,-0.304278,0.34322,-0.30634,0
2024-12-13 15:36:10.365,-0.576969,2.91117,9.57159,-0.301835,0.356658,-0.310005,0
2024-12-13 15:36:10.367,-0.617647,2.88963,9.66491,-0.301835,0.356658,-0.310005,0
2024-12-13 15:36:10.369,-0.655932,2.88963,9.74387,-0.287175,0.395142,-0.314281,0
2024-12-13 15:36:10.372,-0.701396,2.91117,9.82074,-0.274958,0.414078,-0.318557,0
2024-12-13 15:36:10.374,-0.742074,2.92074,9.8686,-0.265184,0.432404,-0.319168,0
2024-12-13 15:36:10.376,-0.773181,2.92313,9.91406,-0.252356,0.455005,-0.319168,0
2024-12-13 15:36:10.379,-0.811466,2.94467,9.9667,-0.239528,0.470276,-0.321,0
2024-12-13 15:36:10.381,-0.85005,2.97817,10.0074,-0.223646,0.483715,-0.322833,0
2024-12-13 15:36:10.383,-0.9003,3.01406,10.0457,-0.21143,0.498375,-0.321611,0
2024-12-13 15:36:10.386,-0.948156,3.05952,10.0744,-0.196769,0.504483,-0.321611,0
2024-12-13 15:36:10.388,-0.991227,3.10768,10.0887,-0.174779,0.510592,-0.319779,0
2024-12-13 15:36:10.390,-1.04865,3.15793,10.1151,-0.155842,0.512424,-0.317335,0
2024-12-13 15:36:10.393,-1.1013,3.2345,10.1366,-0.138739,0.511203,-0.310616,0
2024-12-13 15:36:10.398,-1.18505,3.44985,10.1007,-0.107585,0.501429,-0.299621,0
2024-12-13 15:36:10.398,-1.18505,3.44985,10.1007,-0.107585,0.501429,-0.299621,0
2024-12-13 15:36:10.400,-1.22812,3.57667,10.0648,-0.0910926,0.49471,-0.29168,0
2024-12-13 15:36:10.402,-1.28076,3.69422,10.0361,-0.0788757,0.485547,-0.283128,0
2024-12-13 15:36:10.407,-1.41027,4.02204,9.95953,-0.0568851,0.466,-0.261137,0
2024-12-13 15:36:10.407,-1.41027,4.02204,9.95953,-0.0568851,0.466,-0.261137,0
2024-12-13 15:36:10.409,-1.45573,4.18235,9.94995,-0.0477224,0.454394,-0.248309,0
2024-12-13 15:36:10.412,-1.19701,4.1345,10.0624,-0.0446682,0.436069,-0.232427,0
2024-12-13 15:36:10.414,-0.691825,3.8689,10.5078,-0.0324513,0.380481,-0.239758,0
2024-12-13 15:36:10.416,-1.10608,4.16082,10.1916,-0.0165692,0.348717,-0.249531,0
2024-12-13 15:36:10.421,-1.47248,4.88405,10.1031,-0.0238994,0.380481,-0.207993,0
2024-12-13 15:36:10.422,-1.47248,4.88405,10.1031,-0.0184018,0.310234,-0.204939,0
2024-12-13 15:36:10.423,-0.873978,4.60618,10.8739,-0.0184018,0.310234,-0.204939,0
2024-12-13 15:36:10.426,-1.07976,4.72343,10.7782,-0.0116825,0.24976,-0.211048,0
2024-12-13 15:36:10.428,-1.54427,5.1329,10.3591,-0.0220669,0.243652,-0.201274,0
2024-12-13 15:36:10.431,-1.57059,5.34616,10.6753,-0.0300079,0.219829,-0.187225,0
2024-12-13 15:36:10.433,-1.60409,5.52084,11.0848,-0.0391706,0.173404,-0.170732,0
2024-12-13 15:36:10.435,-1.76919,5.74098,11.3862,-0.0556635,0.113541,-0.149352,0
2024-12-13 15:36:10.438,-1.98245,5.95185,11.6043,-0.0727672,0.058565,-0.125529,0
2024-12-13 15:36:10.440,-2.33181,6.23899,11.7311,-0.0917034,0.0127514,-0.0937651,0
2024-12-13 15:36:10.442,-2.70299,6.52642,11.9273,-0.120413,-0.021456,-0.0473407,0
2024-12-13 15:36:10.445,-2.77956,6.57667,12.399,-0.148512,-0.0648262,0.00763559,0
2024-12-13 15:36:10.447,-2.69103,6.45195,12.9473,-0.178444,-0.118581,0.0613902,0
2024-12-13 15:36:10.449,-2.55942,6.22941,13.4357,-0.205321,-0.172335,0.113312,0
2024-12-13 15:36:10.454,-2.13799,5.57109,14.4939,-0.250524,-0.250524,0.209292,0
2024-12-13 15:36:10.454,-2.13799,5.57109,14.4939,-0.250524,-0.250524,0.209292,0
2024-12-13 15:36:10.456,-1.85773,5.21905,15.0829,-0.265795,-0.278623,0.247775,0
2024-12-13 15:36:10.459,-1.61366,4.90798,15.6814,-0.278012,-0.295116,0.28015,0
2024-12-13 15:36:10.461,-1.45095,4.6684,16.2727,-0.281066,-0.298781,0.310081,0
2024-12-13 15:36:10.466,-1.28554,4.49611,17.2448,-0.281066,-0.271293,0.360171,0
2024-12-13 15:36:10.468,-1.04626,4.53201,17.5152,-0.275568,-0.260908,0.379107,0
2024-12-13 15:36:10.468,-1.04626,4.53201,17.5152,-0.275568,-0.260908,0.379107,0
2024-12-13 15:36:10.471,-0.742074,4.52243,17.9055,-0.277401,-0.24808,0.391324,0
2024-12-13 15:36:10.473,-0.579362,4.50329,18.382,-0.270071,-0.209597,0.398654,0
2024-12-13 15:36:10.475,-0.3999,4.43151,18.7672,-0.263352,-0.161951,0.407206,0
2024-12-13 15:36:10.478,-0.208176,4.31187,19.2054,-0.246859,-0.111251,0.409649,0
2024-12-13 15:36:10.480,-0.0693919,4.16321,19.622,-0.229144,-0.0556635,0.412704,0
2024-12-13 15:36:10.482,0.0119641,3.99332,19.9262,-0.20471,-0.00679568,0.412704,0
2024-12-13 15:36:10.485,0.0622134,3.77797,20.2158,-0.177222,0.0402396,0.412093,0
2024-12-13 15:36:10.487,0.0478565,3.53839,20.4912,-0.147291,0.0842206,0.410871,0
2024-12-13 15:36:10.489,0.0143569,3.3015,20.6827,-0.112472,0.125147,0.409649,0
2024-12-13 15:36:10.492,-0.0215354,3.04995,20.8214,-0.0715455,0.161187,0.41026,0
2024-12-13 15:36:10.494,-0.107677,2.8011,20.9196,-0.0306187,0.194173,0.41026,0
2024-12-13 15:36:10.496,-0.227318,2.57378,20.9435,0.0139731,0.219218,0.413315,2
2024-12-13 15:36:10.501,-0.373579,2.34377,20.898,0.109876,0.247317,0.423699,0
2024-12-13 15:36:10.501,-0.550648,2.12363,20.8286,0.109876,0.247317,0.423699,0
2024-12-13 15:36:10.504,-0.727717,1.9343,20.7186,0.161187,0.252204,0.43164,0
2024-12-13 15:36:10.506,-0.895514,1.76919,20.5439,0.213109,0.244873,0.444468,0
2024-12-13 15:36:10.508,-1.05105,1.60409,20.3282,0.266253,0.234489,0.455463,0
2024-12-13 15:36:10.511,-1.20658,1.44855,20.0913,0.32184,0.214942,0.468902,0
2024-12-13 15:36:10.513,-1.35254,1.33101,19.8183,0.37506,0.191119,0.484784,0
2024-12-13 15:36:10.515,-1.46052,1.25683,19.4833,0.426371,0.161798,0.504942,0
2024-12-13 15:36:10.518,-1.45095,1.23769,19.0977,0.478904,0.120871,0.522656,0
2024-12-13 15:36:10.520,-1.34058,1.28076,18.6906,0.528383,0.0775012,0.536706,0
2024-12-13 15:36:10.522,-1.15872,1.35254,18.291,0.528383,0.0775012,0.536706,0
2024-12-13 15:36:10.525,-0.931406,1.43659,17.86,0.613901,-0.0104608,0.548923,0
2024-12-13 15:36:10.527,-0.699003,1.53948,17.3883,0.613901,-0.0104608,0.548923,0
2024-12-13 15:36:10.529,-0.45015,1.61366,16.9167,0.690257,-0.0886492,0.539149,0
2024-12-13 15:36:10.532,-0.217747,1.64716,16.4761,0.690257,-0.0886492,0.539149,0
2024-12-13 15:36:10.534,-0.0287139,1.67827,16.0549,0.753175,-0.160118,0.50372,0
2024-12-13 15:36:10.537,0.11007,1.71416,15.6455,0.783106,-0.19738,0.481729,0
2024-12-13 15:36:10.539,0.205783,1.72134,15.2408,0.814259,-0.232198,0.456074,0
2024-12-13 15:36:10.541,0.285045,1.72373,14.8361,0.840526,-0.266406,0.430418,0
2024-12-13 15:36:10.544,0.35683,1.72134,14.4126,0.869236,-0.296948,0.40293,0
2024-12-13 15:36:10.546,0.414257,1.72134,13.9552,0.89428,-0.32749,0.37422,0
2024-12-13 15:36:10.548,0.442971,1.73809,13.5099,0.916882,-0.354368,0.347954,0
2024-12-13 15:36:10.551,0.45015,1.73809,13.0717,0.916882,-0.354368,0.347954,0
2024-12-13 15:36:10.553,0.421436,1.74048,12.6386,0.960252,-0.387964,0.300919,0
2024-12-13 15:36:10.555,0.385544,1.74287,12.2267,0.960252,-0.387964,0.300919,0
2024-12-13 15:36:10.558,0.359223,1.76441,11.8244,0.998735,-0.404457,0.263657,0
2024-12-13 15:36:10.560,0.325723,1.78355,11.4437,1.01462,-0.409344,0.250218,0
2024-12-13 15:36:10.562,0.289831,1.79312,11.0752,1.02806,-0.410566,0.238001,0
2024-12-13 15:36:10.567,0.217747,1.86969,10.3567,1.04333,-0.402625,0.228228,0
2024-12-13 15:36:10.567,0.217747,1.86969,10.3567,1.04333,-0.402625,0.228228,0
2024-12-13 15:36:10.569,0.179462,1.91755,10.0098,1.04699,-0.397738,0.227006,0
2024-12-13 15:36:10.572,0.141177,1.97288,9.68166,1.04821,-0.392851,0.227617,0
2024-12-13 15:36:10.574,0.112463,2.03749,9.35384,1.0476,-0.387354,0.232504,0
2024-12-13 15:36:10.577,0.0957129,2.09252,9.05923,1.04027,-0.381245,0.236169,0
2024-12-13 15:36:10.579,0.0981057,2.14277,8.78884,1.03111,-0.372693,0.243499,0
2024-12-13 15:36:10.581,0.117248,2.19781,8.51336,1.02134,-0.360476,0.25144,0
2024-12-13 15:36:10.586,0.143569,2.3007,8.02971,0.989573,-0.336042,0.268544,0
2024-12-13 15:36:10.586,0.143569,2.3007,8.02971,0.989573,-0.336042,0.268544,0
2024-12-13 15:36:10.591,0.191426,2.41077,7.63251,0.946202,-0.313441,0.288091,0
2024-12-13 15:36:10.591,0.191426,2.41077,7.63251,0.946202,-0.313441,0.288091,0
2024-12-13 15:36:10.593,0.215354,2.45145,7.45035,0.921768,-0.300002,0.296032,0
2024-12-13 15:36:10.595,0.232104,2.49212,7.2996,0.895502,-0.285953,0.303362,0
2024-12-13 15:36:10.600,0.289831,2.57617,7.04118,0.833807,-0.265795,0.322909,0
2024-12-13 15:36:10.600,0.289831,2.57617,7.04118,0.833807,-0.265795,0.322909,0
2024-12-13 15:36:10.602,0.332901,2.60967,6.92124,0.800821,-0.250524,0.331461,0
2024-12-13 15:36:10.605,0.366401,2.63121,6.81596,0.763559,-0.241361,0.341235,0
2024-12-13 15:36:10.607,0.380758,2.67189,6.74656,0.72813,-0.227922,0.351008,0
2024-12-13 15:36:10.610,0.409472,2.72213,6.66042,0.687814,-0.220592,0.360782,0
2024-12-13 15:36:10.612,0.442971,2.75563,6.56949,0.649942,-0.212651,0.371777,0
2024-12-13 15:36:10.614,0.474078,2.78913,6.50728,0.607793,-0.205321,0.38155,0
2024-12-13 15:36:10.617,0.505185,2.81067,6.45942,0.56259,-0.199213,0.391935,0
2024-12-13 15:36:10.619,0.529113,2.8322,6.41845,0.51922,-0.194937,0.40293,0
2024-12-13 15:36:10.621,0.550648,2.85613,6.38016,0.472185,-0.193104,0.413315,0
2024-12-13 15:36:10.624,0.586541,2.8657,6.36102,0.427593,-0.185163,0.425531,0
2024-12-13 15:36:10.626,0.632004,2.87767,6.35623,0.380558,-0.180887,0.439581,0
2024-12-13 15:36:10.628,0.675075,2.87767,6.33709,0.332835,-0.172946,0.45302,0
2024-12-13 15:36:10.631,0.732503,2.87288,6.34427,0.286411,-0.168059,0.464626,0
2024-12-13 15:36:10.633,0.785145,2.87049,6.35145,0.236932,-0.164394,0.476232,0
2024-12-13 15:36:10.635,0.821037,2.8657,6.3682,0.191119,-0.157675,0.490892,0
2024-12-13 15:36:10.638,0.862014,2.86092,6.41605,0.14164,-0.15401,0.50372,0
2024-12-13 15:36:10.640,0.926621,2.84895,6.46421,0.0970484,-0.150345,0.517769,0
2024-12-13 15:36:10.642,0.996012,2.82503,6.50728,0.0530674,-0.149123,0.531819,0
2024-12-13 15:36:10.645,1.0343,2.81785,6.55514,0.0096972,-0.147291,0.545868,0
2024-12-13 15:36:10.647,1.07258,2.81067,6.61735,-0.0330621,-0.144236,0.559307,0
2024-12-13 15:36:10.650,1.1324,2.77717,6.70589,-0.073378,-0.143015,0.570913,0
2024-12-13 15:36:10.652,1.15633,2.76042,6.78724,-0.110029,-0.141793,0.584963,0
2024-12-13 15:36:10.657,1.18265,2.71735,6.95474,-0.176,-0.137517,0.610618,0
2024-12-13 15:36:10.657,1.18265,2.71735,6.95474,-0.176,-0.137517,0.610618,0
2024-12-13 15:36:10.659,1.18744,2.69821,7.04836,-0.203488,-0.131409,0.624057,0
2024-12-13 15:36:10.661,1.19701,2.67189,7.14646,-0.227922,-0.122857,0.636885,0
2024-12-13 15:36:10.664,1.21376,2.63839,7.23739,-0.248691,-0.110029,0.648491,0
2024-12-13 15:36:10.666,1.22812,2.60967,7.31396,-0.265795,-0.0984228,0.661319,0
2024-12-13 15:36:10.671,1.26401,2.54028,7.49342,-0.292061,-0.0593285,0.685752,0
2024-12-13 15:36:10.671,1.26401,2.54028,7.49342,-0.292061,-0.0593285,0.685752,0
2024-12-13 15:36:10.673,1.28554,2.51366,7.55803,-0.29817,-0.0397814,0.697969,0
2024-12-13 15:36:10.675,1.2999,2.48495,7.60858,-0.3055,-0.0147367,0.706521,0
2024-12-13 15:36:10.678,1.30708,2.47059,7.66122,-0.312219,0.0096972,0.715684,0
2024-12-13 15:36:10.680,1.32144,2.45623,7.69472,-0.31283,0.038407,0.726068,0
2024-12-13 15:36:10.683,1.33579,2.41795,7.73061,-0.310998,0.0671168,0.732788,0
2024-12-13 15:36:10.685,1.33101,2.38684,7.7689,-0.311608,0.0952158,0.737674,0
2024-12-13 15:36:10.690,1.34058,2.36291,7.81436,-0.307943,0.155079,0.74867,0
2024-12-13 15:36:10.690,1.34058,2.36291,7.81436,-0.307943,0.155079,0.74867,0
2024-12-13 15:36:10.692,1.35494,2.33659,7.81675,-0.304278,0.185621,0.752335,0
2024-12-13 15:36:10.694,1.36929,2.31027,7.82393,-0.300613,0.218607,0.752335,0
2024-12-13 15:36:10.697,1.37647,2.26959,7.83111,-0.293894,0.24976,0.754778,0
2024-12-13 15:36:10.699,1.38126,2.24088,7.83111,-0.289007,0.283968,0.753556,0
2024-12-13 15:36:10.702,1.38126,2.23131,7.84547,-0.289007,0.283968,0.753556,0
2024-12-13 15:36:10.704,1.37408,2.22652,7.8359,-0.278012,0.347496,0.748059,0
2024-12-13 15:36:10.706,1.37886,2.21216,7.82393,-0.26946,0.376816,0.742561,0
2024-12-13 15:36:10.708,1.37169,2.20499,7.81197,-0.266406,0.403083,0.737674,0
2024-12-13 15:36:10.711,1.34776,2.21934,7.79043,-0.260908,0.42996,0.73462,0
2024-12-13 15:36:10.713,1.31186,2.22413,7.76172,-0.252356,0.455005,0.726679,0
2024-12-13 15:36:10.718,1.23769,2.24088,7.68036,-0.238918,0.499597,0.712019,0
2024-12-13 15:36:10.718,1.23769,2.24088,7.68036,-0.238918,0.499597,0.712019,0
2024-12-13 15:36:10.720,1.20419,2.24806,7.65643,-0.234642,0.518533,0.70591,0
2024-12-13 15:36:10.723,1.17069,2.26481,7.6349,-0.229144,0.534415,0.697358,0
2024-12-13 15:36:10.727,1.13001,2.28156,7.55803,-0.217538,0.561292,0.685752,0
2024-12-13 15:36:10.727,1.09173,2.28156,7.55803,-0.217538,0.561292,0.685752,0
2024-12-13 15:36:10.730,1.06062,2.28634,7.49821,-0.21143,0.572898,0.677201,0
2024-12-13 15:36:10.732,1.03669,2.31027,7.4336,-0.206543,0.578396,0.66926,0
2024-12-13 15:36:10.737,0.972084,2.34616,7.31157,-0.19738,0.590002,0.649712,0
2024-12-13 15:36:10.737,0.972084,2.34616,7.31157,-0.19738,0.590002,0.649712,0
2024-12-13 15:36:10.739,0.919442,2.35573,7.24696,-0.19738,0.590002,0.649712,0
2024-12-13 15:36:10.741,0.862014,2.3677,7.168,-0.193715,0.591224,0.632609,0
2024-12-13 15:36:10.744,0.821037,2.39163,7.09861,-0.193715,0.591224,0.632609,0
2024-12-13 15:36:10.746,0.794716,2.42034,7.01964,-0.185163,0.592445,0.616727,0
2024-12-13 15:36:10.748,0.754038,2.44666,6.94517,-0.184552,0.590002,0.608175,0
2024-12-13 15:36:10.751,0.694218,2.47777,6.8686,-0.180887,0.585115,0.599623,0
2024-12-13 15:36:10.753,0.643968,2.4993,6.78006,-0.178444,0.583894,0.592293,0
2024-12-13 15:36:10.756,0.634397,2.51366,6.7011,-0.177833,0.576563,0.583741,0
2024-12-13 15:36:10.760,0.565005,2.55703,6.55035,-0.176,0.564957,0.56847,0
2024-12-13 15:36:10.760,0.565005,2.55703,6.55035,-0.176,0.564957,0.56847,0
2024-12-13 15:36:10.763,0.541077,2.56421,6.47378,-0.176,0.556405,0.559307,0
2024-12-13 15:36:10.765,0.512363,2.59532,6.40409,-0.177222,0.547854,0.551977,0
2024-12-13 15:36:10.770,0.493221,2.63599,6.32034,-0.182109,0.530139,0.534873,0
2024-12-13 15:36:10.770,0.471685,2.63599,6.32034,-0.182109,0.530139,0.534873,0
2024-12-13 15:36:10.772,0.442971,2.65753,6.3012,-0.182109,0.530139,0.534873,0
2024-12-13 15:36:10.774,0.409472,2.68624,6.27727,-0.188828,0.509981,0.51838,0
2024-12-13 15:36:10.777,0.378365,2.69581,6.25095,-0.193104,0.502651,0.513493,0
2024-12-13 15:36:10.779,0.344866,2.70778,6.22702,-0.199213,0.497153,0.507385,0
2024-12-13 15:36:10.781,0.311366,2.74367,6.19113,-0.202878,0.491656,0.50372,0
2024-12-13 15:36:10.784,0.275175,2.76999,6.18634,-0.208986,0.487991,0.498222,0
2024-12-13 15:36:10.786,0.244068,2.76999,6.18395,-0.213873,0.48738,0.49639,0
2024-12-13 15:36:10.789,0.20339,2.76999,6.16959,-0.215095,0.489212,0.495168,0
2024-12-13 15:36:10.791,0.160319,2.77956,6.18874,-0.223036,0.490434,0.492725,0
2024-12-13 15:36:10.793,0.133998,2.80588,6.19592,-0.227922,0.495321,0.493946,0
2024-12-13 15:36:10.796,0.105284,2.82263,6.2007,-0.234642,0.498986,0.495779,0
2024-12-13 15:36:10.798,0.0693919,2.8346,6.20788,-0.241972,0.505705,0.497611,0
2024-12-13 15:36:10.800,0.040678,2.84417,6.21267,-0.24808,0.509981,0.499444,0
2024-12-13 15:36:10.803,0.0143569,2.84656,6.2342,-0.254189,0.513035,0.50372,0
2024-12-13 15:36:10.805,-0.0191426,2.86331,6.2677,-0.263352,0.518533,0.51105,0
2024-12-13 15:36:10.807,-0.0478565,2.87767,6.30359,-0.26946,0.522809,0.514715,0
2024-12-13 15:36:10.810,-0.0837488,2.89681,6.31795,-0.279234,0.524031,0.522045,0
2024-12-13 15:36:10.812,-0.0981057,2.91595,6.34427,-0.287785,0.527696,0.528765,0
2024-12-13 15:36:10.814,-0.0957129,2.91835,6.4017,-0.294505,0.530139,0.538538,0
2024-12-13 15:36:10.817,-0.124427,2.91835,6.47617,-0.303057,0.532582,0.54709,0
2024-12-13 15:36:10.819,-0.16989,2.90878,6.55274,-0.313441,0.534415,0.556253,0
2024-12-13 15:36:10.821,-0.200997,2.89681,6.63649,-0.321382,0.533804,0.566026,0
2024-12-13 15:36:10.824,-0.215354,2.88963,6.7346,-0.328712,0.535026,0.577022,0
2024-12-13 15:36:10.826,-0.232104,2.88006,6.84945,-0.33421,0.535026,0.588628,0
2024-12-13 15:36:10.829,-0.241675,2.87049,6.9691,-0.339707,0.538691,0.600845,0
2024-12-13 15:36:10.831,-0.246461,2.85853,7.09382,-0.343373,0.538691,0.614894,0
2024-12-13 15:36:10.833,-0.258425,2.84656,7.20628,-0.345205,0.538691,0.625279,0
2024-12-13 15:36:10.836,-0.270389,2.82981,7.30918,-0.345816,0.541745,0.64055,0
2024-12-13 15:36:10.840,-0.304188,2.81306,7.53889,-0.343373,0.546632,0.66926,0
2024-12-13 15:36:10.840,-0.304188,2.81306,7.53889,-0.343373,0.546632,0.66926,0
2024-12-13 15:36:10.843,-0.316152,2.79153,7.62293,-0.340318,0.549075,0.679644,0
2024-12-13 15:36:10.845,-0.332901,2.75803,7.71386,-0.334821,0.551519,0.693693,0
2024-12-13 15:36:10.850,-0.383151,2.71974,7.89093,-0.322604,0.550297,0.720571,0
2024-12-13 15:36:10.850,-0.383151,2.71974,7.89093,-0.322604,0.550297,0.720571,0
2024-12-13 15:36:10.854,-0.457328,2.71735,8.04168,-0.3055,0.550297,0.749891,0
2024-12-13 15:36:10.854,-0.457328,2.71735,8.04168,-0.3055,0.550297,0.749891,0
2024-12-13 15:36:10.857,-0.481256,2.71735,8.10629,-0.296337,0.547243,0.764552,0
2024-12-13 15:36:10.859,-0.493221,2.70299,8.19512,-0.28412,0.546021,0.780434,0
2024-12-13 15:36:10.862,-0.502792,2.69342,8.27408,-0.270682,0.54541,0.793872,0
2024-12-13 15:36:10.864,-0.490828,2.7006,8.3339,-0.256632,0.544189,0.809754,0
2024-12-13 15:36:10.866,-0.486042,2.72213,8.36501,-0.242583,0.541134,0.823804,0
2024-12-13 15:36:10.869,-0.476471,2.72213,8.38654,-0.230366,0.53808,0.838464,0
2024-12-13 15:36:10.871,-0.471685,2.72453,8.41526,-0.213262,0.531972,0.851292,0
2024-12-13 15:36:10.873,-0.474078,2.74367,8.44158,-0.195547,0.527085,0.864731,0
2024-12-13 15:36:10.876,-0.457328,2.75085,8.46072,-0.177222,0.520366,0.877558,0
2024-12-13 15:36:10.878,-0.459721,2.76042,8.47508,-0.161951,0.513035,0.887943,0
2024-12-13 15:36:10.880,-0.454935,2.78435,8.49183,-0.144236,0.504483,0.899549,0
2024-12-13 15:36:10.883,-0.428614,2.81067,8.49422,-0.127133,0.496542,0.912988,0
2024-12-13 15:36:10.885,-0.431007,2.81306,8.49422,-0.111861,0.486158,0.922761,0
2024-12-13 15:36:10.887,-0.435793,2.8011,8.52054,-0.0959794,0.475774,0.930702,0
2024-12-13 15:36:10.890,-0.421436,2.80349,8.51815,-0.0800973,0.463557,0.939865,0
2024-12-13 15:36:10.892,-0.419043,2.81306,8.5014,-0.0666587,0.45134,0.947806,0
2024-12-13 15:36:10.894,-0.411865,2.81785,8.52533,-0.0513875,0.436679,0.954525,0
2024-12-13 15:36:10.897,-0.402293,2.82742,8.56601,-0.0397814,0.418354,0.959412,0
2024-12-13 15:36:10.899,-0.409472,2.85374,8.59951,-0.0251211,0.397585,0.966131,0
2024-12-13 15:36:10.902,-0.419043,2.85613,8.61865,-0.0129041,0.375595,0.97224,0
2024-12-13 15:36:10.904,-0.426222,2.85135,8.62822,-0.0019089,0.35788,0.973461,0
2024-12-13 15:36:10.907,-0.421436,2.85613,8.6354,0.0176382,0.316953,0.980181,0
2024-12-13 15:36:10.909,-0.397508,2.85853,8.64258,0.0176382,0.316953,0.980181,0
2024-12-13 15:36:10.911,-0.375972,2.8657,8.65215,0.0268009,0.298628,0.980181,0
2024-12-13 15:36:10.916,-0.325723,2.87767,8.64018,0.0377962,0.258923,0.978959,0
2024-12-13 15:36:10.916,-0.325723,2.87767,8.64018,0.0377962,0.258923,0.978959,0
2024-12-13 15:36:10.920,-0.246461,2.87049,8.64258,0.0451263,0.217996,0.969796,0
2024-12-13 15:36:10.920,-0.246461,2.87049,8.64258,0.0451263,0.217996,0.969796,0
2024-12-13 15:36:10.923,-0.22014,2.86092,8.63301,0.0445155,0.193562,0.963077,0
2024-12-13 15:36:10.925,-0.198604,2.85135,8.64258,0.0414613,0.169128,0.955136,0
2024-12-13 15:36:10.927,-0.172283,2.84417,8.66411,0.0396287,0.140419,0.944141,0
2024-12-13 15:36:10.930,-0.141177,2.84417,8.68565,0.0377962,0.111709,0.933756,0
2024-12-13 15:36:10.932,-0.107677,2.84895,8.71227,0.0341311,0.0842206,0.923372,0
2024-12-13 15:36:10.935,-0.0765703,2.83938,8.72423,0.0298552,0.0561216,0.914209,0
2024-12-13 15:36:10.939,-0.00478565,2.82263,8.70748,0.022525,0.00297788,0.891608,0
2024-12-13 15:36:10.939,-0.00478565,2.82263,8.70748,0.022525,0.00297788,0.891608,0
2024-12-13 15:36:10.942,0.0478565,2.80349,8.70748,0.0182491,-0.0238994,0.881223,0
2024-12-13 15:36:10.944,0.105284,2.8011,8.68804,0.0170274,-0.049555,0.869617,0
2024-12-13 15:36:10.946,0.160319,2.78674,8.69283,0.0133623,-0.0800973,0.858622,0
2024-12-13 15:36:10.949,0.222533,2.75803,8.69283,0.0127514,-0.114305,0.844573,0
2024-12-13 15:36:10.951,0.265603,2.72931,8.69043,0.0139731,-0.151566,0.830523,0
2024-12-13 15:36:10.953,0.289831,2.71496,8.70509,0.0115297,-0.187606,0.817085,0
2024-12-13 15:36:10.956,0.311366,2.7006,8.69761,0.014584,-0.224257,0.804868,0
2024-12-13 15:36:10.958,0.337687,2.68385,8.68325,0.0194708,-0.260297,0.795094,0
2024-12-13 15:36:10.960,0.378365,2.65753,8.6665,0.0231358,-0.292672,0.786542,0
2024-12-13 15:36:10.963,0.428614,2.63599,8.63779,0.0280226,-0.328101,0.778601,0
2024-12-13 15:36:10.968,0.529113,2.62403,8.60429,0.0420721,-0.391629,0.765773,0
2024-12-13 15:36:10.968,0.529113,2.62403,8.60429,0.0420721,-0.391629,0.765773,0
2024-12-13 15:36:10.970,0.572184,2.60489,8.61865,0.0518457,-0.420339,0.760276,0
2024-12-13 15:36:10.972,0.632004,2.59771,8.63061,0.0597867,-0.44966,0.757222,0
2024-12-13 15:36:10.975,0.696611,2.59771,8.64258,0.0768904,-0.474705,0.752946,0
2024-12-13 15:36:10.977,0.761217,2.59532,8.6689,0.0872748,-0.498528,0.747448,0
2024-12-13 15:36:10.982,0.917049,2.61207,8.6665,0.120871,-0.533957,0.738285,0
2024-12-13 15:36:10.982,0.917049,2.61207,8.6665,0.120871,-0.533957,0.738285,0
2024-12-13 15:36:10.984,0.991227,2.61685,8.65215,0.135532,-0.548617,0.732788,0
2024-12-13 15:36:10.986,1.07258,2.62642,8.63779,0.152635,-0.554726,0.72729,0
2024-12-13 15:36:10.991,1.21376,2.69103,8.58036,0.186843,-0.558391,0.718738,0
2024-12-13 15:36:10.991,1.21376,2.69103,8.58036,0.186843,-0.558391,0.718738,0
2024-12-13 15:36:10.993,1.26879,2.71974,8.54447,0.20639,-0.555947,0.71263,0
2024-12-13 15:36:10.996,1.31426,2.74128,8.50858,0.219829,-0.549839,0.707743,0
2024-12-13 15:36:10.998,1.35494,2.78674,8.46072,0.236932,-0.537622,0.705299,0
2024-12-13 15:36:11.000,1.40548,2.8346,8.40569,0.254036,-0.524183,0.705299,0
2024-12-13 15:36:11.003,1.45095,2.86331,8.3674,0.266864,-0.504025,0.701634,0
2024-12-13 15:36:11.005,1.49641,2.88724,8.30997,0.281524,-0.479591,0.701024,0
2024-12-13 15:36:11.008,1.54427,2.95185,8.2358,0.294352,-0.452103,0.69858,0
2024-12-13 15:36:11.010,1.5682,3.03559,8.17119,0.304736,-0.420339,0.699191,0
2024-12-13 15:36:11.012,1.57298,3.12921,8.11346,0.313899,-0.381245,0.701024,0
2024-12-13 15:36:11.015,1.54905,3.24646,8.05604,0.32184,-0.33421,0.705299,0
2024-12-13 15:36:11.019,1.51316,3.53839,7.87897,0.328559,-0.221814,0.718738,0
2024-12-13 15:36:11.019,1.51316,3.53839,7.87897,0.328559,-0.221814,0.718738,0
2024-12-13 15:36:11.022,1.47966,3.72533,7.77847,0.327949,-0.155232,0.727901,0
2024-12-13 15:36:11.024,1.4653,3.91914,7.70429,0.320618,-0.0862058,0.736453,0
2024-12-13 15:36:11.026,1.45334,4.09621,7.66601,0.320618,-0.0862058,0.736453,0
2024-12-13 15:36:11.029,1.42941,4.29512,7.64926,0.29313,0.050624,0.759054,0
2024-12-13 15:36:11.031,1.39322,4.49133,7.65404,0.27114,0.109876,0.766384,0
2024-12-13 15:36:11.033,1.36451,4.67079,7.72104,0.244263,0.163631,0.773714,0
2024-12-13 15:36:11.036,1.35733,4.84816,7.88615,0.214942,0.205168,0.778601,0
2024-12-13 15:36:11.038,1.36211,4.98933,8.1664,0.17768,0.235711,0.778601,0
2024-12-13 15:36:11.041,1.35972,5.11615,8.51576,0.139808,0.248538,0.773714,0
2024-12-13 15:36:11.043,1.34776,5.2334,8.90609,0.100713,0.250371,0.764552,0
2024-12-13 15:36:11.048,1.30947,5.32911,9.85424,0.00603212,0.215553,0.733398,0
2024-12-13 15:36:11.048,1.30947,5.32911,9.85424,0.00603212,0.215553,0.733398,0
2024-12-13 15:36:11.050,1.27837,5.3342,10.3905,-0.0446682,0.181956,0.710797,0
2024-12-13 15:36:11.052,1.24965,5.31954,10.9361,-0.0965902,0.142862,0.685142,0
2024-12-13 15:36:11.056,1.19701,5.27887,11.511,-0.205321,0.0548999,0.627111,0
2024-12-13 15:36:11.057,1.11805,5.18315,12.131,-0.205321,0.0548999,0.627111,0
2024-12-13 15:36:11.059,1.01515,5.0348,12.7726,-0.205321,0.0548999,0.627111,0
2024-12-13 15:36:11.062,0.873978,4.89123,13.4477,-0.310998,-0.0306187,0.567859,0
2024-12-13 15:36:11.064,0.73011,4.74257,14.1323,-0.310998,-0.0306187,0.567859,0
2024-12-13 15:36:11.066,0.567398,4.57986,14.8146,-0.39957,-0.110029,0.521434,0
2024-12-13 15:36:11.069,0.375972,4.40758,15.4804,-0.439276,-0.144847,0.506163,0
2024-12-13 15:36:11.071,0.18664,4.22812,16.1315,-0.475926,-0.172946,0.497611,0
2024-12-13 15:36:11.073,0.026321,4.03639,16.7468,-0.505247,-0.191882,0.494557,0
2024-12-13 15:36:11.076,-0.11007,3.85693,17.3213,-0.532735,-0.200434,0.49639,0
2024-12-13 15:36:11.078,-0.236889,3.67508,17.8505,-0.548617,-0.195547,0.504942,0
2024-12-13 15:36:11.081,-0.371187,3.5001,18.3197,-0.561445,-0.167449,0.521434,0
2024-12-13 15:36:11.083,-0.4669,3.3015,18.8154,-0.569997,-0.128965,0.545868,0
2024-12-13 15:36:11.085,-0.517149,3.06192,19.2867,-0.568775,-0.0831516,0.572746,0
2024-12-13 15:36:11.090,-0.749253,2.69342,19.7967,-0.542509,0.0341311,0.641161,0
2024-12-13 15:36:11.090,-0.749253,2.69342,19.7967,-0.542509,0.0341311,0.641161,0
2024-12-13 15:36:11.092,-0.885943,2.55464,19.9164,-0.526016,0.120261,0.689417,0
2024-12-13 15:36:11.095,-0.813859,2.30788,20.1966,-0.497306,0.186843,0.738896,0
2024-12-13 15:36:11.098,-0.766002,2.09013,20.2875,-0.429502,0.324284,0.837243,0
2024-12-13 15:36:11.099,-0.490828,1.7333,20.388,-0.429502,0.324284,0.837243,2
2024-12-13 15:36:11.102,-0.371187,1.52752,20.3163,-0.381245,0.380481,0.878169,0
2024-12-13 15:36:11.104,-0.232104,1.35972,20.0842,-0.333599,0.452561,0.922761,0
2024-12-13 15:36:11.106,0.179462,0.996012,20.0626,-0.280455,0.503873,0.953304,0
2024-12-13 15:36:11.109,0.371187,0.768395,19.8613,-0.219981,0.547854,0.974683,0
2024-12-13 15:36:11.111,0.423829,0.708575,19.4737,-0.155232,0.597332,0.993009,0
2024-12-13 15:36:11.114,0.414257,0.739681,19.0905,-0.0886492,0.6462,1.00889,0
2024-12-13 15:36:11.116,0.320937,0.852443,18.7313,-0.0202343,0.693235,1.02599,0
2024-12-13 15:36:11.118,0.160319,1.04148,18.3485,0.0512348,0.736682,1.04249,0
2024-12-13 15:36:11.121,-0.0167498,1.26879,17.9414,0.125147,0.774554,1.05898,0
2024-12-13 15:36:11.123,-0.196211,1.51077,17.5439,0.194784,0.80754,1.07608,0
2024-12-13 15:36:11.126,-0.344866,1.75005,17.1538,0.330392,0.852743,1.11029,0
2024-12-13 15:36:11.128,-0.440578,1.98245,16.7444,0.330392,0.852743,1.11029,0
2024-12-13 15:36:11.130,-0.490828,2.18584,16.3229,0.393996,0.863738,1.12556,0
2024-12-13 15:36:11.132,-0.517149,2.35095,15.8608,0.45447,0.874122,1.13595,0
2024-12-13 15:36:11.135,-0.538684,2.48495,15.37,0.506392,0.877177,1.1445,0
2024-12-13 15:36:11.137,-0.567398,2.59532,14.8696,0.556482,0.880231,1.15,0
2024-12-13 15:36:11.142,-0.722932,2.79392,13.8691,0.63467,0.870457,1.15427,0
2024-12-13 15:36:11.142,-0.722932,2.79392,13.8691,0.63467,0.870457,1.15427,0
2024-12-13 15:36:11.144,-0.859622,2.87767,13.3711,0.663991,0.859462,1.15427,0
2024-12-13 15:36:11.146,-1.02233,2.94706,12.8827,0.686592,0.841748,1.15305,0
2024-12-13 15:36:11.149,-1.18983,3.04756,12.4349,0.69942,0.817924,1.15366,0
2024-12-13 15:36:11.151,-1.36451,3.16271,12.0254,0.704918,0.789825,1.15122,0
2024-12-13 15:36:11.154,-1.52034,3.25603,11.6593,0.701864,0.754396,1.14939,0
2024-12-13 15:36:11.156,-1.64477,3.34457,11.3264,0.687203,0.712859,1.14755,0
2024-12-13 15:36:11.161,-1.8673,3.50967,10.838,0.640779,0.62421,1.13839,0
2024-12-13 15:36:11.161,-1.8673,3.50967,10.838,0.640779,0.62421,1.13839,0
2024-12-13 15:36:11.163,-1.9681,3.57428,10.6849,0.609015,0.575342,1.1335,0
2024-12-13 15:36:11.165,-2.05185,3.62214,10.5772,0.570531,0.529528,1.12923,0
2024-12-13 15:36:11.168,-2.1332,3.65354,10.5102,0.528994,0.484326,1.12434,0
2024-12-13 15:36:11.170,-2.18824,3.67268,10.4862,0.48318,0.440345,1.11701,0
2024-12-13 15:36:11.175,-2.22413,3.65115,10.5197,0.384223,0.362156,1.10724,0
2024-12-13 15:36:11.175,-2.22413,3.65115,10.5197,0.384223,0.362156,1.10724,0
2024-12-13 15:36:11.177,-2.20499,3.61735,10.5915,0.32917,0.329781,1.10113,0
2024-12-13 15:36:11.179,-2.16431,3.56949,10.6992,0.274194,0.302904,1.09319,0
2024-12-13 15:36:11.182,-2.0997,3.50728,10.8069,0.274194,0.302904,1.09319,0
2024-12-13 15:36:11.184,-2.00638,3.44746,10.9217,0.159966,0.268086,1.07486,0
2024-12-13 15:36:11.187,-1.9008,3.38525,11.0369,0.104989,0.259534,1.06326,0
2024-12-13 15:36:11.189,-1.78116,3.32543,11.1685,0.0475697,0.253425,1.05226,0
2024-12-13 15:36:11.191,-1.64716,3.24407,11.3169,-0.00679568,0.248538,1.03943,0
2024-12-13 15:36:11.194,-1.52273,3.14357,11.4509,-0.0623828,0.248538,1.02599,0
2024-12-13 15:36:11.198,-1.32383,2.95185,11.7096,-0.163783,0.254036,0.997895,0
2024-12-13 15:36:11.199,-1.32383,2.95185,11.7096,-0.209597,0.261366,0.985068,0
2024-12-13 15:36:11.203,-1.18744,2.74367,12.0206,-0.251135,0.266253,0.975294,0
2024-12-13 15:36:11.203,-1.18744,2.74367,12.0206,-0.251135,0.266253,0.975294,0
2024-12-13 15:36:11.205,-1.10369,2.64317,12.1741,-0.288396,0.271751,0.96552,0
2024-12-13 15:36:11.208,-1.02233,2.55224,12.3129,-0.316495,0.277859,0.95819,0
2024-12-13 15:36:11.210,-0.933799,2.45145,12.4229,-0.34154,0.283968,0.953914,0
