timestamp,accel_x,accel_y,accel_z,gyro_x,gyro_y,gyro_z,step_timestamp
2024-12-13 15:33:23.274,-0.162712,3.38525,9.40648,0.0151948,-0.00496313,-0.0167983,0
2024-12-13 15:33:23.274,-0.162712,3.38525,9.40648,0.0151948,-0.00496313,-0.0167983,0
2024-12-13 15:33:23.274,-0.162712,3.38525,9.40648,0.0151948,-0.00496313,-0.0167983,0
2024-12-13 15:33:23.274,-0.162712,3.38525,9.40648,0.0151948,-0.00496313,-0.0167983,0
2024-12-13 15:33:23.274,-0.162712,3.38525,9.40648,0.0151948,-0.00496313,-0.0167983,0
2024-12-13 15:33:23.274,-0.162712,3.38525,9.40648,0.0151948,-0.00496313,-0.0167983,0
2024-12-13 15:33:23.274,-0.162712,3.38525,9.40648,0.0151948,-0.00496313,-0.0167983,0
2024-12-13 15:33:23.274,-0.162712,3.38525,9.40648,0.0151948,-0.00496313,-0.0167983,0
2024-12-13 15:33:23.274,-0.162712,3.38525,9.40648,0.0151948,-0.00496313,-0.0167983,0
2024-12-13 15:33:23.274,-0.162712,3.38525,9.40648,0.0151948,-0.00496313,-0.0167983,0
2024-12-13 15:33:23.274,-0.162712,3.38525,9.40648,0.0151948,-0.00496313,-0.0167983,0
2024-12-13 15:33:23.274,-0.162712,3.38525,9.40648,0.0151948,-0.00496313,-0.0167983,0
2024-12-13 15:33:23.274,-0.162712,3.38525,9.40648,0.0151948,-0.00496313,-0.0167983,0
2024-12-13 15:33:23.274,-0.162712,3.38525,9.40648,0.0151948,-0.00496313,-0.0167983,0
2024-12-13 15:33:23.274,-0.162712,3.38525,9.40648,0.0151948,-0.00496313,-0.0167983,0
2024-12-13 15:33:23.274,-0.162712,3.38525,9.40648,0.0151948,-0.00496313,-0.0167983,0
2024-12-13 15:33:23.274,-0.162712,3.38525,9.40648,0.0151948,-0.00496313,-0.0167983,0
2024-12-13 15:33:23.274,-0.162712,3.38525,9.40648,0.0151948,-0.00496313,-0.0167983,0
2024-12-13 15:33:23.274,-0.162712,3.38525,9.40648,0.0151948,-0.00496313,-0.0167983,0
2024-12-13 15:33:23.274,-0.162712,3.38525,9.40648,0.0151948,-0.00496313,-0.0167983,0
2024-12-13 15:33:23.274,-0.162712,3.38525,9.40648,0.0151948,-0.00496313,-0.0167983,0
2024-12-13 15:33:23.274,-0.162712,3.38525,9.40648,0.0151948,-0.00496313,-0.0167983,0
2024-12-13 15:33:23.274,-0.162712,3.38525,9.40648,0.0151948,-0.00496313,-0.0167983,0
2024-12-13 15:33:23.274,-0.162712,3.38525,9.40648,0.0151948,-0.00496313,-0.0167983,0
2024-12-13 15:33:23.274,-0.162712,3.38525,9.40648,0.0151948,-0.00496313,-0.0167983,0
2024-12-13 15:33:23.274,-0.162712,3.38525,9.40648,0.0151948,-0.00496313,-0.0167983,0
2024-12-13 15:33:23.274,-0.162712,3.38525,9.40648,0.0151948,-0.00496313,-0.0167983,0
2024-12-13 15:33:23.274,-0.162712,3.38525,9.40648,0.0151948,-0.00496313,-0.0167983,0
2024-12-13 15:33:23.274,-0.162712,3.38525,9.40648,0.0151948,-0.00496313,-0.0167983,0
2024-12-13 15:33:23.274,-0.162712,3.38525,9.40648,0.0151948,-0.00496313,-0.0167983,0
2024-12-13 15:33:23.274,-0.162712,3.38525,9.40648,0.0151948,-0.00496313,-0.0167983,0
2024-12-13 15:33:23.274,-0.162712,3.38525,9.40648,0.0151948,-0.00496313,-0.0167983,0
2024-12-13 15:33:23.274,-0.162712,3.38525,9.40648,0.0151948,-0.00496313,-0.0167983,0
2024-12-13 15:33:23.274,-0.162712,3.38525,9.40648,0.0151948,-0.00496313,-0.0167983,0
2024-12-13 15:33:23.274,-0.162712,3.38525,9.40648,0.0151948,-0.00496313,-0.0167983,0
2024-12-13 15:33:23.274,-0.162712,3.38525,9.40648,0.0151948,-0.00496313,-0.0167983,0
2024-12-13 15:33:23.274,-0.162712,3.38525,9.40648,0.0151948,-0.00496313,-0.0167983,0
2024-12-13 15:33:23.274,-0.162712,3.38525,9.40648,0.0151948,-0.00496313,-0.0167983,0
2024-12-13 15:33:23.274,-0.162712,3.38525,9.40648,0.0151948,-0.00496313,-0.0167983,0
2024-12-13 15:33:23.274,-0.162712,3.38525,9.40648,0.0151948,-0.00496313,-0.0167983,0
2024-12-13 15:33:23.274,-0.162712,3.38525,9.40648,0.0151948,-0.00496313,-0.0167983,0
2024-12-13 15:33:23.274,-0.162712,3.38525,9.40648,0.0151948,-0.00496313,-0.0167983,0
2024-12-13 15:33:23.274,-0.162712,3.38525,9.40648,0.0151948,-0.00496313,-0.0167983,0
2024-12-13 15:33:23.274,-0.162712,3.38525,9.40648,0.0151948,-0.00496313,-0.0167983,0
2024-12-13 15:33:23.274,-0.162712,3.38525,9.40648,0.0151948,-0.00496313,-0.0167983,0
2024-12-13 15:33:23.274,-0.162712,3.38525,9.40648,0.0151948,-0.00496313,-0.0167983,0
2024-12-13 15:33:23.274,-0.162712,3.38525,9.40648,0.0151948,-0.00496313,-0.0167983,0
2024-12-13 15:33:23.274,-0.162712,3.38525,9.40648,0.0151948,-0.00496313,-0.0167983,0
2024-12-13 15:33:23.274,-0.162712,3.38525,9.40648,0.0151948,-0.00496313,-0.0167983,0
2024-12-13 15:33:23.274,-0.162712,3.38525,9.40648,0.0151948,-0.00496313,-0.0167983,0
2024-12-13 15:33:23.274,-0.162712,3.38525,9.40648,0.0151948,-0.00496313,-0.0167983,0
2024-12-13 15:33:23.274,-0.162712,3.38525,9.40648,0.0151948,-0.00496313,-0.0167983,0
2024-12-13 15:33:23.274,-0.162712,3.38525,9.40648,0.0151948,-0.00496313,-0.0167983,0
2024-12-13 15:33:23.274,-0.162712,3.38525,9.40648,0.0151948,-0.00496313,-0.0167983,0
2024-12-13 15:33:23.274,-0.162712,3.38525,9.40648,0.0151948,-0.00496313,-0.0167983,0
2024-12-13 15:33:23.274,-0.162712,3.38525,9.40648,0.0151948,-0.00496313,-0.0167983,0
2024-12-13 15:33:23.274,-0.162712,3.38525,9.40648,0.0151948,-0.00496313,-0.0167983,0
2024-12-13 15:33:23.274,-0.162712,3.38525,9.40648,0.0151948,-0.00496313,-0.0167983,0
2024-12-13 15:33:23.274,-0.162712,3.38525,9.40648,0.0151948,-0.00496313,-0.0167983,0
2024-12-13 15:33:23.274,-0.162712,3.38525,9.40648,0.0151948,-0.00496313,-0.0167983,0
2024-12-13 15:33:23.274,-0.162712,3.38525,9.40648,0.0151948,-0.00496313,-0.0167983,0
2024-12-13 15:33:23.286,-0.162712,3.3661,9.43281,0.0133623,-0.00923906,-0.0198525,0
2024-12-13 15:33:23.298,-0.181855,3.32303,9.4352,0.00175619,-0.0275645,-0.0320695,0
2024-12-13 15:33:23.298,-0.181855,3.32303,9.4352,0.00175619,-0.0275645,-0.0320695,0
2024-12-13 15:33:23.298,-0.181855,3.32303,9.4352,0.00175619,-0.0275645,-0.0320695,0
2024-12-13 15:33:23.298,-0.181855,3.32303,9.4352,0.00175619,-0.0275645,-0.0320695,0
2024-12-13 15:33:23.298,-0.181855,3.32303,9.4352,0.00175619,-0.0275645,-0.0320695,0
2024-12-13 15:33:23.298,-0.181855,3.32303,9.4352,0.00175619,-0.0275645,-0.0320695,0
2024-12-13 15:33:23.298,-0.181855,3.32303,9.4352,0.00175619,-0.0275645,-0.0320695,0
2024-12-13 15:33:23.303,-0.179462,3.30868,9.45434,0.00358873,-0.0306187,-0.0375671,0
2024-12-13 15:33:23.303,-0.179462,3.30868,9.45434,0.00358873,-0.0306187,-0.0375671,0
2024-12-13 15:33:23.305,-0.18664,3.31585,9.46152,0.00236703,-0.0324513,-0.038178,0
2024-12-13 15:33:23.305,-0.18664,3.31585,9.46152,0.00236703,-0.0324513,-0.038178,0
2024-12-13 15:33:23.305,-0.18664,3.31585,9.46152,0.00236703,-0.0324513,-0.038178,0
2024-12-13 15:33:23.305,-0.18664,3.31585,9.46152,0.00236703,-0.0324513,-0.038178,0
2024-12-13 15:33:23.307,-0.198604,3.32782,9.48545,0.00236703,-0.0348946,-0.0406213,0
2024-12-13 15:33:23.307,-0.198604,3.32782,9.48545,0.00236703,-0.0348946,-0.0406213,0
2024-12-13 15:33:23.307,-0.198604,3.32782,9.48545,0.00236703,-0.0348946,-0.0406213,0
2024-12-13 15:33:23.307,-0.198604,3.32782,9.48545,0.00236703,-0.0348946,-0.0406213,0
2024-12-13 15:33:23.310,-0.217747,3.32543,9.49502,0.00175619,-0.0367272,-0.0400105,0
2024-12-13 15:33:23.310,-0.217747,3.32543,9.49502,0.00175619,-0.0367272,-0.0400105,0
2024-12-13 15:33:23.312,-0.222533,3.32303,9.51177,0.00542127,-0.0348946,-0.0393996,0
2024-12-13 15:33:23.312,-0.222533,3.32303,9.51177,0.00542127,-0.0348946,-0.0393996,0
2024-12-13 15:33:23.314,-0.200997,3.33021,9.52613,0.00664296,-0.0342838,-0.0400105,0
2024-12-13 15:33:23.314,-0.200997,3.33021,9.52613,0.00664296,-0.0342838,-0.0400105,0
2024-12-13 15:33:23.314,-0.200997,3.33021,9.52613,0.00664296,-0.0342838,-0.0400105,0
2024-12-13 15:33:23.317,-0.191426,3.33978,9.51655,0.00908635,-0.0312296,-0.041843,0
2024-12-13 15:33:23.317,-0.191426,3.33978,9.51655,0.00908635,-0.0312296,-0.041843,0
2024-12-13 15:33:23.317,-0.191426,3.33978,9.51655,0.00908635,-0.0312296,-0.041843,0
2024-12-13 15:33:23.317,-0.191426,3.33978,9.51655,0.00908635,-0.0312296,-0.041843,0
2024-12-13 15:33:23.317,-0.191426,3.33978,9.51655,0.00908635,-0.0312296,-0.041843,0
2024-12-13 15:33:23.319,-0.198604,3.32782,9.49981,0.0096972,-0.0275645,-0.041843,0
2024-12-13 15:33:23.319,-0.198604,3.32782,9.49981,0.0096972,-0.0275645,-0.041843,0
2024-12-13 15:33:23.319,-0.198604,3.32782,9.49981,0.0096972,-0.0275645,-0.041843,0
2024-12-13 15:33:23.319,-0.198604,3.32782,9.49981,0.0096972,-0.0275645,-0.041843,0
2024-12-13 15:33:23.322,-0.205783,3.31585,9.49023,0.0115297,-0.0257319,-0.0424539,0
2024-12-13 15:33:23.322,-0.205783,3.31585,9.49023,0.0115297,-0.0257319,-0.0424539,0
2024-12-13 15:33:23.322,-0.205783,3.31585,9.49023,0.0115297,-0.0257319,-0.0424539,0
2024-12-13 15:33:23.322,-0.205783,3.31585,9.49023,0.0115297,-0.0257319,-0.0424539,0
2024-12-13 15:33:23.324,-0.20339,3.31825,9.50459,0.0133623,-0.021456,-0.041843,0
2024-12-13 15:33:23.324,-0.20339,3.31825,9.50459,0.0133623,-0.021456,-0.041843,0
2024-12-13 15:33:23.324,-0.20339,3.31825,9.50459,0.0133623,-0.021456,-0.041843,0
2024-12-13 15:33:23.324,-0.20339,3.31825,9.50459,0.0133623,-0.021456,-0.041843,0
2024-12-13 15:33:23.324,-0.20339,3.31825,9.50459,0.0133623,-0.021456,-0.041843,0
2024-12-13 15:33:23.324,-0.20339,3.31825,9.50459,0.0133623,-0.021456,-0.041843,0
2024-12-13 15:33:23.324,-0.20339,3.31825,9.50459,0.0133623,-0.021456,-0.041843,0
2024-12-13 15:33:23.324,-0.20339,3.31825,9.50459,0.0133623,-0.021456,-0.041843,0
2024-12-13 15:33:23.324,-0.20339,3.31825,9.50459,0.0133623,-0.021456,-0.041843,0
2024-12-13 15:33:23.324,-0.20339,3.31825,9.50459,0.0133623,-0.021456,-0.041843,0
2024-12-13 15:33:23.324,-0.20339,3.31825,9.50459,0.0133623,-0.021456,-0.041843,0
2024-12-13 15:33:23.324,-0.20339,3.31825,9.50459,0.0133623,-0.021456,-0.041843,0
2024-12-13 15:33:23.326,-0.196211,3.33021,9.49981,0.0133623,-0.021456,-0.041843,0
2024-12-13 15:33:23.331,-0.189033,3.335,9.47109,0.0182491,-0.0122933,-0.041843,0
2024-12-13 15:33:23.331,-0.189033,3.335,9.47109,0.0182491,-0.0122933,-0.041843,0
2024-12-13 15:33:23.331,-0.189033,3.335,9.47109,0.0182491,-0.0122933,-0.041843,0
2024-12-13 15:33:23.333,-0.184247,3.33739,9.48306,0.0194708,-0.00984991,-0.0412322,0
2024-12-13 15:33:23.333,-0.184247,3.33739,9.48306,0.0194708,-0.00984991,-0.0412322,0
2024-12-13 15:33:23.333,-0.184247,3.33739,9.48306,0.0194708,-0.00984991,-0.0412322,0
2024-12-13 15:33:23.333,-0.184247,3.33739,9.48306,0.0194708,-0.00984991,-0.0412322,0
2024-12-13 15:33:23.336,-0.177069,3.34935,9.48066,0.0219141,-0.0104608,-0.041843,0
2024-12-13 15:33:23.336,-0.177069,3.34935,9.48066,0.0219141,-0.0104608,-0.041843,0
2024-12-13 15:33:23.336,-0.177069,3.34935,9.48066,0.0219141,-0.0104608,-0.041843,0
2024-12-13 15:33:23.336,-0.177069,3.34935,9.48066,0.0219141,-0.0104608,-0.041843,0
2024-12-13 15:33:23.336,-0.177069,3.34935,9.48066,0.0219141,-0.0104608,-0.041843,0
2024-12-13 15:33:23.336,-0.177069,3.34935,9.48066,0.0219141,-0.0104608,-0.041843,0
2024-12-13 15:33:23.338,-0.165105,3.35175,9.48066,0.0231358,-0.00801737,-0.0430647,0
2024-12-13 15:33:23.338,-0.165105,3.35175,9.48066,0.0231358,-0.00801737,-0.0430647,0
2024-12-13 15:33:23.338,-0.165105,3.35175,9.48066,0.0231358,-0.00801737,-0.0430647,0
2024-12-13 15:33:23.338,-0.165105,3.35175,9.48066,0.0231358,-0.00801737,-0.0430647,0
2024-12-13 15:33:23.340,-0.165105,3.36132,9.48545,0.0231358,-0.00862822,-0.0430647,0
2024-12-13 15:33:23.343,-0.167498,3.37807,9.48306,0.0231358,-0.00984991,-0.0406213,0
2024-12-13 15:33:23.345,-0.157926,3.38525,9.48066,0.0231358,-0.0122933,-0.041843,0
2024-12-13 15:33:23.347,-0.160319,3.38046,9.46631,0.022525,-0.0129041,-0.041843,0
2024-12-13 15:33:23.350,-0.16989,3.37567,9.47109,0.0213033,-0.0159584,-0.0400105,0
2024-12-13 15:33:23.355,-0.162712,3.3661,9.51416,0.0164165,-0.0208452,-0.038178,0
2024-12-13 15:33:23.355,-0.162712,3.3661,9.51416,0.0164165,-0.0208452,-0.038178,0
2024-12-13 15:33:23.357,-0.181855,3.3661,9.52613,0.014584,-0.0220669,-0.0363454,0
2024-12-13 15:33:23.359,-0.184247,3.37328,9.53809,0.0109189,-0.0251211,-0.0357346,0
2024-12-13 15:33:23.362,-0.18664,3.37089,9.54527,0.010308,-0.0275645,-0.0326803,0
2024-12-13 15:33:23.364,-0.191426,3.37567,9.55005,0.00664296,-0.0275645,-0.0320695,0
2024-12-13 15:33:23.366,-0.191426,3.38285,9.5692,0.00725381,-0.0269536,-0.0290152,0
2024-12-13 15:33:23.369,-0.200997,3.39003,9.6003,0.00603212,-0.0269536,-0.0277936,0
2024-12-13 15:33:23.371,-0.196211,3.39242,9.61945,0.00419957,-0.0281753,-0.025961,0
2024-12-13 15:33:23.373,-0.191426,3.3996,9.62902,0.00358873,-0.0281753,-0.0253502,0
2024-12-13 15:33:23.376,-0.189033,3.40439,9.64816,0.00297788,-0.0287862,-0.0216851,0
2024-12-13 15:33:23.378,-0.181855,3.3996,9.6673,0.00236703,-0.0263428,-0.0210742,0
2024-12-13 15:33:23.380,-0.179462,3.38764,9.67927,0.00175619,-0.0251211,-0.0216851,0
2024-12-13 15:33:23.383,-0.174676,3.38525,9.67687,0.00236703,-0.021456,-0.0198525,0
2024-12-13 15:33:23.385,-0.172283,3.402,9.68166,0.00297788,-0.0202343,-0.0192417,0
2024-12-13 15:33:23.387,-0.167498,3.40439,9.68166,0.00236703,-0.0159584,-0.0186308,0
2024-12-13 15:33:23.390,-0.157926,3.39242,9.68645,0.00603212,-0.0122933,-0.0186308,0
2024-12-13 15:33:23.393,-0.150748,3.402,9.69841,0.0096972,-0.0104608,-0.0155766,0
2024-12-13 15:33:23.395,-0.145962,3.40439,9.69362,0.0096972,-0.0104608,-0.0155766,0
2024-12-13 15:33:23.397,-0.129212,3.3996,9.69123,0.0109189,-0.00618483,-0.0167983,0
2024-12-13 15:33:23.399,-0.12682,3.41635,9.67687,0.014584,-0.00679568,-0.0149658,0
2024-12-13 15:33:23.402,-0.141177,3.42592,9.65773,0.0182491,-0.00801737,-0.0155766,0
2024-12-13 15:33:23.404,-0.148355,3.43071,9.64098,0.0194708,-0.00313059,-0.0167983,0
2024-12-13 15:33:23.406,-0.165105,3.4331,9.62663,0.0219141,-0.00374144,-0.0155766,0
2024-12-13 15:33:23.409,-0.157926,3.4355,9.60748,0.0261901,-0.00251974,-0.0155766,0
2024-12-13 15:33:23.411,-0.145962,3.43789,9.59073,0.030466,-0.00251974,-0.0143549,0
2024-12-13 15:33:23.413,-0.155533,3.43071,9.5692,0.0341311,-0.00251974,-0.0143549,0
2024-12-13 15:33:23.416,-0.162712,3.4331,9.54766,0.0365745,0.000534491,-0.0125224,0
2024-12-13 15:33:23.418,-0.162712,3.43789,9.52613,0.038407,-7.63559e-05,-0.0125224,0
2024-12-13 15:33:23.420,-0.160319,3.44267,9.49741,0.0408504,-0.000687203,-0.0119115,0
2024-12-13 15:33:23.423,-0.153141,3.44507,9.4687,0.0439046,-7.63559e-05,-0.0131332,0
2024-12-13 15:33:23.425,-0.133998,3.4355,9.44956,0.0445155,-0.00313059,-0.0125224,0
2024-12-13 15:33:23.428,-0.12682,3.4355,9.42563,0.0451263,-0.00313059,-0.0125224,0
2024-12-13 15:33:23.430,-0.114855,3.44746,9.40409,0.0445155,-0.00435229,-0.0137441,0
2024-12-13 15:33:23.432,-0.0957129,3.44985,9.40409,0.0457372,-0.00618483,-0.0143549,0
2024-12-13 15:33:23.435,-0.0837488,3.44267,9.4017,0.0439046,-0.00984991,-0.0155766,0
2024-12-13 15:33:23.437,-0.0789631,3.44507,9.37777,0.0432938,-0.0141258,-0.01802,0
2024-12-13 15:33:23.439,-0.0717847,3.44267,9.35145,0.038407,-0.0159584,-0.0198525,0
2024-12-13 15:33:23.442,-0.066999,3.42592,9.33949,0.0359636,-0.0202343,-0.0222959,0
2024-12-13 15:33:23.444,-0.0837488,3.42592,9.32274,0.0335202,-0.0257319,-0.0265719,0
2024-12-13 15:33:23.449,-0.0885344,3.38046,9.32034,0.0274118,-0.0300079,-0.0314586,0
2024-12-13 15:33:23.449,-0.0837488,3.38046,9.32034,0.0274118,-0.0300079,-0.0314586,0
2024-12-13 15:33:23.451,-0.0861416,3.38046,9.31795,0.0237467,-0.0342838,-0.033902,0
2024-12-13 15:33:23.453,-0.081356,3.3685,9.31795,0.0200816,-0.0367272,-0.038178,0
2024-12-13 15:33:23.456,-0.0741775,3.35175,9.31795,0.0151948,-0.0403923,-0.0393996,0
2024-12-13 15:33:23.458,-0.066999,3.3326,9.32513,0.0133623,-0.0428357,-0.0430647,0
2024-12-13 15:33:23.460,-0.0598206,3.32543,9.34188,0.010308,-0.0440574,-0.0442864,0
2024-12-13 15:33:23.463,-0.0478565,3.33021,9.34906,0.00786466,-0.0428357,-0.0473407,0
2024-12-13 15:33:23.465,-0.0478565,3.335,9.36581,0.00419957,-0.0428357,-0.0479515,0
2024-12-13 15:33:23.468,-0.0550349,3.34218,9.39452,0.00419957,-0.0434465,-0.0503949,0
2024-12-13 15:33:23.470,-0.0382852,3.34457,9.42802,0.00419957,-0.0434465,-0.0503949,0
2024-12-13 15:33:23.472,-0.0239282,3.32543,9.44716,0.000534491,-0.037338,-0.0510057,0
2024-12-13 15:33:23.475,-0.0239282,3.32303,9.45195,0.00114534,-0.033673,-0.0522274,0
2024-12-13 15:33:23.477,-0.0215354,3.33739,9.4687,0.00114534,-0.0263428,-0.0510057,0
2024-12-13 15:33:23.479,-0.0191426,3.35414,9.49502,0.00358873,-0.0196235,-0.0510057,0
2024-12-13 15:33:23.482,-0.0215354,3.34935,9.51177,0.00358873,-0.0122933,-0.0497841,0
2024-12-13 15:33:23.484,-0.0358923,3.32303,9.50698,0.00664296,-0.00313059,-0.0467298,0
2024-12-13 15:33:23.486,-0.0358923,3.2991,9.50938,0.0115297,0.00419957,-0.046119,0
2024-12-13 15:33:23.489,-0.0239282,3.28235,9.50698,0.0096972,0.010308,-0.0430647,0
2024-12-13 15:33:23.491,-0.026321,3.29432,9.48784,0.0096972,0.014584,-0.0400105,0
2024-12-13 15:33:23.493,-0.0358923,3.29432,9.4687,0.0121406,0.0194708,-0.038178,0
2024-12-13 15:33:23.496,-0.0502493,3.28475,9.45913,0.0121406,0.0243575,-0.0332912,0
2024-12-13 15:33:23.498,-0.040678,3.28475,9.44956,0.0139731,0.030466,-0.0290152,0
2024-12-13 15:33:23.501,-0.0191426,3.27757,9.46152,0.0151948,0.0310769,-0.025961,0
2024-12-13 15:33:23.503,-0.00717847,3.28235,9.47827,0.0151948,0.0310769,-0.025961,0
2024-12-13 15:33:23.505,0.00239282,3.2991,9.48066,0.0164165,0.0335202,-0.0192417,0
2024-12-13 15:33:23.508,0.0167498,3.31107,9.46631,0.014584,0.0353528,-0.0149658,0
2024-12-13 15:33:23.510,0.0239282,3.31585,9.45195,0.0127514,0.0377962,-0.0143549,0
2024-12-13 15:33:23.515,0.0454636,3.32543,9.38256,0.0121406,0.0377962,-0.0119115,0
2024-12-13 15:33:23.515,0.0454636,3.32543,9.38256,0.0121406,0.0377962,-0.0119115,0
2024-12-13 15:33:23.519,0.0526421,3.33739,9.32513,0.00847551,0.0286335,-0.00580305,0
2024-12-13 15:33:23.522,0.0646062,3.33978,9.27488,0.00419957,0.0255792,-0.00335966,0
2024-12-13 15:33:23.524,0.0789631,3.34935,9.22194,0.00419957,0.0255792,-0.00335966,0
2024-12-13 15:33:23.526,0.0909273,3.35653,9.19562,-0.00374144,0.0164165,-0.000916271,0
2024-12-13 15:33:23.526,0.0909273,3.35653,9.19562,-0.00374144,0.0164165,-0.000916271,0
2024-12-13 15:33:23.529,0.11007,3.3685,9.16451,-0.00862822,0.0109189,0.000305424,0
2024-12-13 15:33:23.531,0.12682,3.3685,9.1358,-0.0104608,0.00664296,0.000916271,0
2024-12-13 15:33:23.533,0.138784,3.36132,9.0999,-0.0153475,0.00175619,0.00213797,0
2024-12-13 15:33:23.536,0.153141,3.35175,9.05444,-0.0190126,-0.00496313,0.000305424,0
2024-12-13 15:33:23.538,0.177069,3.34457,9.02573,-0.0238994,-0.0104608,-0.000305424,0
2024-12-13 15:33:23.541,0.205783,3.34457,8.99941,-0.0312296,-0.0171801,0.000916271,0
2024-12-13 15:33:23.545,0.236889,3.34218,8.96351,-0.0403923,-0.0312296,-0.00335966,0
2024-12-13 15:33:23.545,0.267996,3.34218,8.96351,-0.0403923,-0.0312296,-0.00335966,0
2024-12-13 15:33:23.548,0.277567,3.3326,8.95634,-0.0452791,-0.0367272,-0.00335966,0
2024-12-13 15:33:23.550,0.285045,3.3326,8.95634,-0.0507767,-0.0428357,-0.0051922,0
2024-12-13 15:33:23.552,0.308973,3.34935,8.97787,-0.057496,-0.0477224,-0.00763559,0
2024-12-13 15:33:23.557,0.330509,3.34457,9.01616,-0.065437,-0.0587177,-0.00580305,0
2024-12-13 15:33:23.557,0.330509,3.34457,9.01616,-0.065437,-0.0587177,-0.00580305,0
2024-12-13 15:33:23.559,0.354437,3.34457,9.04008,-0.0666587,-0.0617719,-0.0051922,0
2024-12-13 15:33:23.562,0.34008,3.34935,9.06641,-0.0666587,-0.0636045,-0.0064139,0
2024-12-13 15:33:23.564,0.325723,3.32543,9.07598,-0.0648262,-0.0629936,-0.00397051,0
2024-12-13 15:33:23.566,0.366401,3.27757,9.09273,-0.0648262,-0.0605502,-0.000305424,0
2024-12-13 15:33:23.569,0.428614,3.24407,9.14537,-0.0623828,-0.057496,0.00152712,0
2024-12-13 15:33:23.571,0.483649,3.22971,9.22912,-0.057496,-0.057496,0.000305424,0
2024-12-13 15:33:23.574,0.538684,3.24168,9.30599,-0.049555,-0.0526092,-0.000305424,0
2024-12-13 15:33:23.576,0.593719,3.268,9.34666,-0.0428357,-0.049555,-0.000916271,0
2024-12-13 15:33:23.578,0.634397,3.27996,9.36581,-0.0330621,-0.0440574,-0.00397051,0
2024-12-13 15:33:23.581,0.655932,3.2991,9.37538,-0.0281753,-0.0367272,-0.00397051,0
2024-12-13 15:33:23.583,0.655932,3.32303,9.34188,-0.0202343,-0.0226777,-0.00458135,0
2024-12-13 15:33:23.585,0.641576,3.32543,9.24587,-0.0147367,-0.0122933,-0.0064139,0
2024-12-13 15:33:23.588,0.65354,3.30389,9.15494,-0.0104608,-0.00129805,-0.00458135,0
2024-12-13 15:33:23.590,0.718146,3.27757,9.11187,-0.00984991,0.0096972,-0.00458135,0
2024-12-13 15:33:23.592,0.777966,3.24407,9.09273,-0.0104608,0.0182491,-0.00580305,0
2024-12-13 15:33:23.595,0.828216,3.21057,9.07837,-0.0122933,0.0274118,-0.0064139,0
2024-12-13 15:33:23.597,0.885943,3.19143,9.06641,-0.0141258,0.0329094,-0.00763559,0
2024-12-13 15:33:23.599,0.914656,3.16511,9.06641,-0.0159584,0.0365745,-0.00763559,0
2024-12-13 15:33:23.604,0.905085,3.11964,9.01616,-0.0159584,0.0365745,-0.00763559,0
2024-12-13 15:33:23.604,0.905085,3.11964,9.01616,-0.0159584,0.0365745,-0.00763559,0
2024-12-13 15:33:23.607,0.897907,3.09571,8.99462,-0.0275645,0.0579541,-0.0131332,0
2024-12-13 15:33:23.609,0.9003,3.07149,9.00419,-0.0287862,0.0689494,-0.0167983,0
2024-12-13 15:33:23.611,0.895514,3.06192,9.01855,-0.0324513,0.0817772,-0.01802,0
2024-12-13 15:33:23.614,0.888335,3.06192,9.02573,-0.033673,0.0933833,-0.0186308,0
2024-12-13 15:33:23.618,0.857229,3.04756,9.02333,-0.037338,0.119039,-0.0204634,0
2024-12-13 15:33:23.618,0.857229,3.04756,9.02333,-0.037338,0.119039,-0.0204634,0
2024-12-13 15:33:23.621,0.85005,3.06909,9.01616,-0.0361163,0.130034,-0.0186308,0
2024-12-13 15:33:23.623,0.862014,3.09571,9.00419,-0.0361163,0.143473,-0.0210742,0
2024-12-13 15:33:23.628,0.821037,3.09093,8.98026,-0.0385597,0.161187,-0.025961,0
2024-12-13 15:33:23.628,0.821037,3.09093,8.98026,-0.0385597,0.161187,-0.025961,0
2024-12-13 15:33:23.632,0.74686,3.02602,8.94676,-0.0410031,0.169128,-0.0296261,0
2024-12-13 15:33:23.632,0.74686,3.02602,8.94676,-0.0410031,0.169128,-0.0296261,0
2024-12-13 15:33:23.635,0.73011,2.99492,8.95873,-0.041614,0.170961,-0.0290152,0
2024-12-13 15:33:23.637,0.71336,2.97817,8.98266,-0.0440574,0.167907,-0.0296261,0
2024-12-13 15:33:23.639,0.675075,2.96142,8.99941,-0.0440574,0.167907,-0.0296261,0
2024-12-13 15:33:23.642,0.643968,2.94467,9.01137,-0.0446682,0.164242,-0.0229068,0
2024-12-13 15:33:23.644,0.624826,2.92792,9.03051,-0.0440574,0.16302,-0.0222959,0
2024-12-13 15:33:23.647,0.612862,2.92313,9.05205,-0.0446682,0.159966,-0.01802,0
2024-12-13 15:33:23.649,0.598505,2.94227,9.07358,-0.0446682,0.157522,-0.0131332,0
2024-12-13 15:33:23.651,0.581755,2.95902,9.06641,-0.0428357,0.158133,-0.0106898,0
2024-12-13 15:33:23.654,0.584148,2.95663,9.06401,-0.0391706,0.154468,-0.0064139,0
2024-12-13 15:33:23.656,0.596112,2.9351,9.0688,-0.0397814,0.14836,0.00152712,0
2024-12-13 15:33:23.663,0.567398,2.88006,9.03769,-0.0287862,0.124536,0.0131332,0
2024-12-13 15:33:23.665,0.550648,2.84895,9.01376,-0.0245102,0.113541,0.0161875,0
2024-12-13 15:33:23.668,0.533899,2.82981,8.99223,-0.0226777,0.0994917,0.0174091,0
2024-12-13 15:33:23.668,0.533899,2.82981,8.99223,-0.0226777,0.0994917,0.0174091,0
2024-12-13 15:33:23.671,0.531506,2.80349,8.96351,-0.0147367,0.0707819,0.0247393,0
2024-12-13 15:33:23.672,0.474078,2.78913,8.95394,-0.0147367,0.0707819,0.0247393,0
2024-12-13 15:33:23.672,0.474078,2.78913,8.95394,-0.0147367,0.0707819,0.0247393,0
2024-12-13 15:33:23.675,0.385544,2.78196,8.98266,-0.0129041,0.0579541,0.0284044,0
2024-12-13 15:33:23.677,0.145962,2.78196,8.99223,-0.00740652,0.0542891,0.0320695,0
2024-12-13 15:33:23.680,-0.0311067,2.7341,8.89173,-0.0019089,0.0628409,0.0412322,0
2024-12-13 15:33:23.682,0.0598206,2.69821,8.83909,0.00481042,0.0561216,0.0583359,0
2024-12-13 15:33:23.684,0.177069,2.77956,8.93001,0.0121406,0.0359636,0.0748288,0
2024-12-13 15:33:23.689,0.359223,2.81306,9.00658,0.0206925,-0.0593285,0.101095,0
2024-12-13 15:33:23.689,0.359223,2.81306,9.00658,0.0206925,-0.0593285,0.101095,0
2024-12-13 15:33:23.691,0.354437,2.78435,8.92044,0.022525,-0.105753,0.106593,0
2024-12-13 15:33:23.694,0.285045,2.83938,8.89651,0.0243575,-0.136295,0.110258,0
2024-12-13 15:33:23.696,0.253639,2.96142,8.97787,0.0316877,-0.164394,0.115145,0
2024-12-13 15:33:23.698,0.208176,3.09332,9.04487,0.0371853,-0.19005,0.119421,0
2024-12-13 15:33:23.701,0.136391,3.17946,9.0353,0.0475697,-0.213262,0.124918,0
2024-12-13 15:33:23.703,0.102891,3.23689,8.99941,0.0610084,-0.230366,0.130416,0
2024-12-13 15:33:23.706,0.138784,3.28235,8.96591,0.0707819,-0.24075,0.13347,0
2024-12-13 15:33:23.708,0.222533,3.29671,8.93719,0.0775012,-0.248691,0.132859,0
2024-12-13 15:33:23.710,0.311366,3.30628,8.89173,0.0878856,-0.256021,0.129805,0
2024-12-13 15:33:23.712,0.3999,3.32303,8.81755,0.100713,-0.262741,0.124918,0
2024-12-13 15:33:23.715,0.474078,3.33739,8.74098,0.108044,-0.270682,0.116977,0
2024-12-13 15:33:23.717,0.52672,3.35414,8.68325,0.114763,-0.277401,0.108425,0
2024-12-13 15:33:23.722,0.639183,3.30868,8.61865,0.122093,-0.293283,0.0839915,0
2024-12-13 15:33:23.722,0.639183,3.30868,8.61865,0.122093,-0.293283,0.0839915,0
2024-12-13 15:33:23.727,0.632004,3.27518,8.42483,0.118428,-0.301835,0.0534491,0
2024-12-13 15:33:23.727,0.643968,3.27518,8.42483,0.118428,-0.301835,0.0534491,0
2024-12-13 15:33:23.729,0.63679,3.35892,8.40808,0.111709,-0.307943,0.038178,0
2024-12-13 15:33:23.731,0.586541,3.45703,8.41526,0.104989,-0.316495,0.0216851,0
2024-12-13 15:33:23.736,0.445364,3.55274,8.32912,0.0878856,-0.324436,-0.010079,0
2024-12-13 15:33:23.736,0.445364,3.55274,8.32912,0.0878856,-0.324436,-0.010079,0
2024-12-13 15:33:23.738,0.445364,3.59342,8.25733,0.0738362,-0.321382,-0.0253502,0
2024-12-13 15:33:23.741,0.440578,3.61735,8.21187,0.0518457,-0.321993,-0.0393996,0
2024-12-13 15:33:23.743,0.411865,3.60778,8.19751,0.030466,-0.319549,-0.0546708,0
2024-12-13 15:33:23.745,0.3999,3.60299,8.18794,0.00542127,-0.318939,-0.0668878,0
2024-12-13 15:33:23.748,0.383151,3.61974,8.18076,-0.0208452,-0.321382,-0.0803264,0
2024-12-13 15:33:23.750,0.354437,3.63649,8.18315,-0.0483333,-0.323825,-0.0913217,0
2024-12-13 15:33:23.753,0.330509,3.6006,8.19033,-0.0794865,-0.326269,-0.101095,0
2024-12-13 15:33:23.755,0.304188,3.56949,8.20948,-0.110029,-0.324436,-0.110869,0
2024-12-13 15:33:23.757,0.275175,3.62931,8.27887,-0.140571,-0.325047,-0.121864,0
2024-12-13 15:33:23.760,0.229711,3.71575,8.34587,-0.172946,-0.325047,-0.129194,0
2024-12-13 15:33:23.762,0.153141,3.79472,8.38894,-0.205321,-0.321993,-0.135914,0
2024-12-13 15:33:23.764,0.102891,3.84497,8.42962,-0.235253,-0.314663,-0.145076,0
2024-12-13 15:33:23.767,0.0909273,3.87607,8.47508,-0.265184,-0.306111,-0.152406,0
2024-12-13 15:33:23.769,0.0885344,3.90718,8.54926,-0.295726,-0.293894,-0.159126,0
2024-12-13 15:33:23.771,0.0933201,3.95025,8.62104,-0.295726,-0.293894,-0.159126,0
2024-12-13 15:33:23.776,0.165105,4.06032,8.76012,-0.383078,-0.256632,-0.179284,0
2024-12-13 15:33:23.776,0.165105,4.06032,8.76012,-0.383078,-0.256632,-0.179284,0
2024-12-13 15:33:23.778,0.155533,4.14168,8.83909,-0.407511,-0.242583,-0.187225,0
2024-12-13 15:33:23.781,0.150748,4.21376,8.91087,-0.407511,-0.242583,-0.187225,0
2024-12-13 15:33:23.785,0.189033,4.3334,9.1358,-0.475316,-0.193104,-0.214102,0
2024-12-13 15:33:23.785,0.189033,4.3334,9.1358,-0.475316,-0.193104,-0.214102,0
2024-12-13 15:33:23.788,0.191426,4.38844,9.25305,-0.496084,-0.174168,-0.222654,0
2024-12-13 15:33:23.790,0.18664,4.44586,9.35384,-0.509523,-0.156453,-0.232427,0
2024-12-13 15:33:23.793,0.179462,4.49611,9.45673,-0.526016,-0.138739,-0.242201,0
2024-12-13 15:33:23.795,0.167498,4.54397,9.5333,-0.526016,-0.138739,-0.242201,0
2024-12-13 15:33:23.797,0.131605,4.5679,9.5692,-0.553504,-0.114916,-0.259916,0
2024-12-13 15:33:23.802,0.026321,4.62533,9.71755,-0.582214,-0.0917034,-0.275798,0
2024-12-13 15:33:23.802,0.026321,4.62533,9.71755,-0.582214,-0.0917034,-0.275798,0
2024-12-13 15:33:23.804,-0.0119641,4.66361,9.77977,-0.591376,-0.081319,-0.280684,0
2024-12-13 15:33:23.807,-0.066999,4.69472,9.83271,-0.606037,-0.0709346,-0.28496,0
2024-12-13 15:33:23.809,-0.145962,4.72822,9.9021,-0.6152,-0.0581068,-0.288014,0
2024-12-13 15:33:23.811,-0.229711,4.73061,9.98824,-0.627416,-0.0452791,-0.287404,0
2024-12-13 15:33:23.814,-0.313759,4.72822,10.0816,-0.63719,-0.0324513,-0.285571,0
2024-12-13 15:33:23.816,-0.392722,4.733,10.1749,-0.64452,-0.0196235,-0.284349,0
2024-12-13 15:33:23.821,-0.562612,4.74018,10.4097,-0.653683,-0.00313059,-0.280073,0
2024-12-13 15:33:23.823,-0.629611,4.74018,10.4862,-0.667732,0.0231358,-0.263581,0
2024-12-13 15:33:23.823,-0.629611,4.74018,10.4862,-0.667732,0.0231358,-0.263581,0
2024-12-13 15:33:23.828,-0.773181,4.68993,10.716,-0.678728,0.0518457,-0.244644,0
2024-12-13 15:33:23.830,-0.852443,4.65883,10.8763,-0.683004,0.0677277,-0.231206,0
2024-12-13 15:33:23.830,-0.852443,4.65883,10.8763,-0.683004,0.0677277,-0.231206,0
2024-12-13 15:33:23.835,-0.893121,4.62054,11.2187,-0.678117,0.100103,-0.203718,0
2024-12-13 15:33:23.835,-0.893121,4.62054,11.2187,-0.678117,0.100103,-0.203718,0
2024-12-13 15:33:23.837,-0.907478,4.58704,11.3432,-0.67323,0.113541,-0.192722,0
2024-12-13 15:33:23.840,-0.912264,4.57747,11.4317,-0.668343,0.131867,-0.182949,0
2024-12-13 15:33:23.842,-0.895514,4.60618,11.5517,-0.661013,0.14836,-0.172564,0
2024-12-13 15:33:23.844,-0.895514,4.62772,11.712,-0.65185,0.154468,-0.160347,0
2024-12-13 15:33:23.847,-0.914656,4.64686,11.8555,-0.632303,0.159355,-0.149352,0
2024-12-13 15:33:23.849,-0.948156,4.6684,11.9752,-0.610313,0.161187,-0.138968,0
2024-12-13 15:33:23.851,-0.962513,4.68993,12.076,-0.584657,0.161798,-0.123697,0
2024-12-13 15:33:23.854,-0.964906,4.69233,12.1478,-0.555337,0.161187,-0.11209,0
2024-12-13 15:33:23.856,-0.955334,4.666,12.1645,-0.522962,0.159966,-0.0992627,0
2024-12-13 15:33:23.858,-0.94337,4.64208,12.131,-0.490587,0.158744,-0.085824,0
2024-12-13 15:33:23.863,-0.9003,4.63011,11.9656,-0.425226,0.151414,-0.0656661,0
2024-12-13 15:33:23.863,-0.9003,4.63011,11.9656,-0.425226,0.151414,-0.0656661,0
2024-12-13 15:33:23.868,-0.85005,4.63968,11.7526,-0.3562,0.119039,-0.0485624,0
2024-12-13 15:33:23.868,-0.85005,4.63968,11.7526,-0.3562,0.119039,-0.0485624,0
2024-12-13 15:33:23.870,-0.813859,4.63968,11.5995,-0.325047,0.0958267,-0.0412322,0
2024-12-13 15:33:23.873,-0.794716,4.63968,11.4341,-0.289618,0.0713928,-0.0308478,0
2024-12-13 15:33:23.875,-0.780359,4.6349,11.2451,-0.256632,0.0445155,-0.0229068,0
2024-12-13 15:33:23.877,-0.766002,4.62772,11.056,-0.225479,0.0158057,-0.0167983,0
2024-12-13 15:33:23.880,-0.756431,4.62533,10.8882,-0.193715,-0.013515,-0.00885729,0
2024-12-13 15:33:23.882,-0.74686,4.61815,10.7183,-0.161951,-0.0403923,0.000916271,0
2024-12-13 15:33:23.884,-0.727717,4.60379,10.5365,-0.131409,-0.0678804,0.010079,0
2024-12-13 15:33:23.887,-0.672682,4.57508,10.3424,-0.102088,-0.0917034,0.0161875,0
2024-12-13 15:33:23.889,-0.60329,4.54636,10.1486,-0.0739889,-0.114305,0.0229068,0
2024-12-13 15:33:23.891,-0.533899,4.52961,9.95953,-0.0471116,-0.135074,0.0284044,0
2024-12-13 15:33:23.896,-0.45015,4.47458,9.62184,0.00481042,-0.172335,0.0412322,0
2024-12-13 15:33:23.896,-0.385544,4.47458,9.62184,0.00481042,-0.172335,0.0412322,0
2024-12-13 15:33:23.901,-0.301795,4.42194,9.26292,0.0457372,-0.205321,0.0479515,0
2024-12-13 15:33:23.901,-0.301795,4.42194,9.26292,0.0457372,-0.205321,0.0479515,0
2024-12-13 15:33:23.903,-0.287438,4.39322,9.08794,0.0646735,-0.223036,0.0510057,0
2024-12-13 15:33:23.906,-0.304188,4.34776,8.93719,0.0799446,-0.237085,0.05406,0
2024-12-13 15:33:23.908,-0.292223,4.32144,8.79123,0.094605,-0.24808,0.0595576,0
2024-12-13 15:33:23.910,-0.244068,4.32622,8.60908,0.106822,-0.260908,0.0656661,0
2024-12-13 15:33:23.913,-0.205783,4.33101,8.45115,0.11232,-0.26946,0.0717745,0
2024-12-13 15:33:23.915,-0.191426,4.33579,8.33869,0.120871,-0.274347,0.0772722,0
2024-12-13 15:33:23.917,-0.177069,4.33579,8.24776,0.12698,-0.27679,0.0839915,0
2024-12-13 15:33:23.920,-0.136391,4.32144,8.15444,0.131256,-0.274347,0.0888783,0
2024-12-13 15:33:23.922,-0.0933201,4.30708,8.04886,0.137364,-0.26946,0.0968193,0
2024-12-13 15:33:23.924,-0.0430708,4.28794,7.95314,0.139808,-0.265184,0.101095,0
2024-12-13 15:33:23.927,0.0167498,4.26401,7.87179,0.141029,-0.257854,0.105982,0
2024-12-13 15:33:23.929,0.081356,4.26162,7.81197,0.142862,-0.250524,0.109036,0
2024-12-13 15:33:23.934,0.205783,4.24008,7.70668,0.144084,-0.242583,0.112701,0
2024-12-13 15:33:23.936,0.241675,4.21615,7.67558,0.144694,-0.218149,0.119421,0
2024-12-13 15:33:23.936,0.241675,4.21615,7.67558,0.144694,-0.218149,0.119421,0
2024-12-13 15:33:23.939,0.267996,4.18235,7.64447,0.144694,-0.201656,0.121864,0
2024-12-13 15:33:23.941,0.294616,4.168,7.62533,0.142862,-0.183331,0.124918,0
2024-12-13 15:33:23.943,0.318545,4.16082,7.60379,0.143473,-0.158286,0.127972,0
2024-12-13 15:33:23.946,0.342473,4.15843,7.6014,0.143473,-0.13263,0.131027,0
2024-12-13 15:33:23.948,0.373579,4.14646,7.58944,0.142251,-0.102699,0.132248,0
2024-12-13 15:33:23.950,0.397508,4.14407,7.5676,0.139197,-0.0684913,0.13347,0
2024-12-13 15:33:23.953,0.438186,4.14646,7.56282,0.137364,-0.0306187,0.132248,0
2024-12-13 15:33:23.957,0.54347,4.13928,7.57478,0.134921,0.046348,0.123697,0
2024-12-13 15:33:23.957,0.54347,4.13928,7.57478,0.134921,0.046348,0.123697,0
2024-12-13 15:33:23.960,0.596112,4.12253,7.54846,0.130645,0.0842206,0.119421,0
2024-12-13 15:33:23.962,0.608076,4.10578,7.53889,0.124536,0.125147,0.115145,0
2024-12-13 15:33:23.964,0.569791,4.09861,7.58704,0.122093,0.161798,0.113312,0
2024-12-13 15:33:23.967,0.505185,4.101,7.63251,0.120261,0.192341,0.11148,0
2024-12-13 15:33:23.969,0.4334,4.11775,7.64447,0.120871,0.227159,0.11148,0
2024-12-13 15:33:23.974,0.359223,4.09143,7.62054,0.118428,0.276027,0.118199,0
2024-12-13 15:33:23.974,0.359223,4.09143,7.62054,0.118428,0.276027,0.118199,0
2024-12-13 15:33:23.976,0.342473,4.101,7.58704,0.117206,0.295574,0.121253,0
2024-12-13 15:33:23.979,0.330509,4.09861,7.54846,0.109876,0.312677,0.123697,0
2024-12-13 15:33:23.981,0.294616,4.07946,7.53171,0.102546,0.329781,0.130416,0
2024-12-13 15:33:23.983,0.270389,4.05554,7.50778,0.0921616,0.342609,0.134768,0
2024-12-13 15:33:23.988,0.244068,4.02443,7.47667,0.0658951,0.363378,0.145153,0
2024-12-13 15:33:23.988,0.193819,4.02443,7.47667,0.0658951,0.363378,0.145153,0
2024-12-13 15:33:23.990,0.131605,4.01246,7.50778,0.0487914,0.370708,0.148818,0
2024-12-13 15:33:23.993,0.0741775,3.98614,7.55564,0.0347419,0.374984,0.154315,0
2024-12-13 15:33:23.995,0.0239282,3.96939,7.6014,0.0206925,0.377427,0.161645,0
2024-12-13 15:33:24.000,0.00717847,3.95982,7.68515,-0.00984991,0.389033,0.167754,0
2024-12-13 15:33:24.000,0.00717847,3.95982,7.68515,-0.00984991,0.389033,0.167754,0
2024-12-13 15:33:24.002,0.0311067,3.95743,7.7354,-0.0269536,0.388422,0.171419,0
2024-12-13 15:33:24.005,0.0382852,3.95264,7.79043,-0.0422248,0.385368,0.176917,0
2024-12-13 15:33:24.007,0.0,3.92872,7.867,-0.057496,0.382314,0.184247,0
2024-12-13 15:33:24.009,-0.0789631,3.89043,7.96032,-0.0678804,0.378038,0.192188,0
2024-12-13 15:33:24.012,-0.16989,3.86411,8.0345,-0.081319,0.370097,0.20074,0
2024-12-13 15:33:24.015,-0.253639,3.84018,8.08714,-0.0996445,0.361545,0.220287,0
2024-12-13 15:33:24.016,-0.287438,3.79711,8.15923,-0.0996445,0.361545,0.220287,0
2024-12-13 15:33:24.019,-0.301795,3.77318,8.24776,-0.106975,0.361545,0.23006,0
2024-12-13 15:33:24.021,-0.308973,3.7684,8.33869,-0.111251,0.363378,0.238612,0
2024-12-13 15:33:24.023,-0.292223,3.7684,8.42004,-0.116748,0.365821,0.247164,0
2024-12-13 15:33:24.026,-0.275175,3.766,8.50619,-0.116137,0.368265,0.256327,0
2024-12-13 15:33:24.028,-0.277567,3.75883,8.60429,-0.114916,0.373151,0.263657,0
2024-12-13 15:33:24.030,-0.275175,3.77318,8.68804,-0.108807,0.37926,0.27343,0
2024-12-13 15:33:24.033,-0.258425,3.7684,8.73859,-0.101477,0.383536,0.283815,0
2024-12-13 15:33:24.037,-0.239282,3.72293,8.78644,-0.0929251,0.383536,0.291756,0
2024-12-13 15:33:24.040,-0.224925,3.67508,8.80798,-0.0691021,0.38659,0.305195,0
2024-12-13 15:33:24.040,-0.224925,3.67508,8.80798,-0.0691021,0.38659,0.305195,0
2024-12-13 15:33:24.043,-0.212961,3.62692,8.84387,-0.0550526,0.389644,0.312525,0
2024-12-13 15:33:24.045,-0.172283,3.58864,8.84387,-0.0550526,0.389644,0.312525,0
2024-12-13 15:33:24.047,-0.12682,3.57428,8.82234,-0.0275645,0.389033,0.324131,0
2024-12-13 15:33:24.050,-0.124427,3.54796,8.80798,0.00664296,0.39392,0.333294,0
2024-12-13 15:33:24.052,-0.141177,3.48096,8.76491,0.00664296,0.39392,0.333294,0
2024-12-13 15:33:24.054,-0.150748,3.42353,8.71466,0.0200816,0.393309,0.336959,0
2024-12-13 15:33:24.056,-0.148355,3.36371,8.66411,0.0365745,0.39392,0.340013,0
2024-12-13 15:33:24.059,-0.145962,3.2991,8.59472,0.050624,0.391477,0.3449,0
2024-12-13 15:33:24.061,-0.150748,3.24407,8.51576,0.0616192,0.387812,0.346732,0
2024-12-13 15:33:24.063,-0.150748,3.20818,8.42962,0.0738362,0.384757,0.350397,0
2024-12-13 15:33:24.066,-0.148355,3.16989,8.32672,0.0836097,0.377427,0.35223,0
2024-12-13 15:33:24.068,-0.150748,3.14357,8.20708,0.0915507,0.367654,0.351619,0
2024-12-13 15:33:24.070,-0.148355,3.13161,8.10389,0.0988809,0.355437,0.35223,0
2024-12-13 15:33:24.073,-0.143569,3.12921,8.01536,0.106211,0.342609,0.351008,0
2024-12-13 15:33:24.078,-0.102891,3.13161,7.84786,0.114763,0.309012,0.343067,0
2024-12-13 15:33:24.078,-0.102891,3.13161,7.84786,0.114763,0.309012,0.343067,0
2024-12-13 15:33:24.080,-0.0765703,3.13161,7.75693,0.119039,0.291909,0.33818,0
2024-12-13 15:33:24.082,-0.0502493,3.12204,7.67318,0.121482,0.272362,0.331461,0
2024-12-13 15:33:24.085,-0.00239282,3.12204,7.58226,0.125147,0.252204,0.324742,0
2024-12-13 15:33:24.087,0.0478565,3.12682,7.51017,0.125147,0.234489,0.317412,0
2024-12-13 15:33:24.089,0.100499,3.11725,7.45035,0.125758,0.213109,0.308249,0
2024-12-13 15:33:24.092,0.145962,3.1005,7.37857,0.124536,0.192951,0.296643,0
2024-12-13 15:33:24.094,0.189033,3.08345,7.29003,0.124536,0.169739,0.28748,0
2024-12-13 15:33:24.096,0.246461,3.06909,7.2015,0.122704,0.14836,0.274652,0
2024-12-13 15:33:24.099,0.294616,3.0667,7.14407,0.121482,0.125758,0.259381,0
2024-12-13 15:33:24.103,0.407079,3.06909,7.02922,0.117206,0.0848314,0.23678,0
2024-12-13 15:33:24.103,0.407079,3.06909,7.02922,0.117206,0.0848314,0.23678,0
2024-12-13 15:33:24.106,0.481256,3.04517,6.98585,0.111709,0.0603975,0.22273,0
2024-12-13 15:33:24.108,0.555434,3.0332,6.9667,0.109265,0.0408504,0.20807,0
2024-12-13 15:33:24.110,0.610469,3.02124,6.94517,0.104989,0.022525,0.194631,0
2024-12-13 15:33:24.113,0.658325,3.00927,6.90928,0.100713,0.00664296,0.182414,0
2024-12-13 15:33:24.115,0.71336,2.9997,6.88774,0.0976592,-0.00679568,0.168976,0
2024-12-13 15:33:24.118,0.770788,3.00449,6.8662,0.0939941,-0.0202343,0.15737,0
2024-12-13 15:33:24.120,0.82343,3.01884,6.85185,0.090329,-0.0306187,0.145153,0
2024-12-13 15:33:24.125,0.871586,3.0021,6.84228,0.0848314,-0.0428357,0.120031,0
2024-12-13 15:33:24.125,0.905085,2.98056,6.83271,0.0848314,-0.0428357,0.120031,0
2024-12-13 15:33:24.127,0.948156,2.98056,6.8351,0.0817772,-0.0465007,0.110869,0
2024-12-13 15:33:24.129,0.998405,2.97817,6.8351,0.0817772,-0.0465007,0.110869,0
2024-12-13 15:33:24.134,1.08455,2.95424,6.84467,0.0817772,-0.037338,0.0803264,0
2024-12-13 15:33:24.134,1.08455,2.95424,6.84467,0.0817772,-0.037338,0.0803264,0
2024-12-13 15:33:24.136,1.1348,2.93749,6.84706,0.0842206,-0.0300079,0.0723854,0
2024-12-13 15:33:24.139,1.1659,2.92313,6.84945,0.0854423,-0.0232886,0.0656661,0
2024-12-13 15:33:24.141,1.20658,2.8992,6.85424,0.086664,-0.013515,0.0571142,0
2024-12-13 15:33:24.143,1.24247,2.86331,6.85903,0.0878856,-0.00557398,0.0485624,0
2024-12-13 15:33:24.146,1.26879,2.84895,6.87817,0.090329,0.00419957,0.0430647,0
2024-12-13 15:33:24.148,1.30708,2.8346,6.90688,0.0927724,0.0133623,0.0357346,0
2024-12-13 15:33:24.151,1.34536,2.80828,6.94038,0.0958267,0.0188599,0.0308478,0
2024-12-13 15:33:24.155,1.35254,2.79153,7.00977,0.100713,0.0292443,0.0229068,0
2024-12-13 15:33:24.155,1.35254,2.79153,7.00977,0.100713,0.0292443,0.0229068,0
2024-12-13 15:33:24.158,1.37647,2.79631,7.04118,0.104989,0.0341311,0.0204634,0
2024-12-13 15:33:24.160,1.40279,2.81785,7.06032,0.109265,0.0390179,0.0186308,0
2024-12-13 15:33:24.165,1.42463,2.84178,7.14886,0.11965,0.0487914,0.0137441,0
2024-12-13 15:33:24.167,1.4342,2.86092,7.18953,0.124536,0.0530674,0.0125224,0
2024-12-13 15:33:24.167,1.4342,2.86092,7.18953,0.124536,0.0530674,0.0125224,0
2024-12-13 15:33:24.169,1.43181,2.88006,7.23021,0.130034,0.0542891,0.0119115,0
2024-12-13 15:33:24.172,1.42223,2.8992,7.27089,0.136143,0.058565,0.0119115,0
2024-12-13 15:33:24.174,1.42463,2.92552,7.31875,0.142862,0.0640626,0.00885729,0
2024-12-13 15:33:24.176,1.42223,2.94706,7.37857,0.150803,0.0658951,0.010079,0
2024-12-13 15:33:24.181,1.39561,2.9997,7.47667,0.166074,0.0701711,0.0125224,0
2024-12-13 15:33:24.184,1.39083,3.01645,7.51974,0.166074,0.0701711,0.0125224,0
2024-12-13 15:33:24.186,1.37886,3.02842,7.55564,0.1844,0.0713928,0.0137441,0
2024-12-13 15:33:24.186,1.37886,3.02842,7.55564,0.1844,0.0713928,0.0137441,0
2024-12-13 15:33:24.188,1.36451,3.03559,7.61336,0.192951,0.0707819,0.0161875,0
2024-12-13 15:33:24.191,1.34297,3.04995,7.66361,0.202114,0.0707819,0.0174091,0
2024-12-13 15:33:24.193,1.30229,3.06909,7.733,0.212498,0.0689494,0.0198525,0
2024-12-13 15:33:24.195,1.27119,3.09571,7.8024,0.224105,0.0689494,0.0235176,0
2024-12-13 15:33:24.198,1.22812,3.11007,7.85504,0.233878,0.0677277,0.0265719,0
2024-12-13 15:33:24.200,1.17069,3.12204,7.93639,0.243652,0.0677277,0.0320695,0
2024-12-13 15:33:24.202,1.10848,3.12443,8.02493,0.257701,0.0707819,0.0375671,0
2024-12-13 15:33:24.205,1.0343,3.12682,8.12303,0.27114,0.0732253,0.0442864,0
2024-12-13 15:33:24.207,0.996012,3.13639,8.21187,0.281524,0.0732253,0.0522274,0
2024-12-13 15:33:24.209,0.962513,3.15793,8.29562,0.293741,0.0750579,0.0595576,0
2024-12-13 15:33:24.212,0.907478,3.16511,8.38176,0.30718,0.074447,0.0687203,0
2024-12-13 15:33:24.214,0.85005,3.16271,8.47747,0.321229,0.0756687,0.077883,0
2024-12-13 15:33:24.216,0.811466,3.15553,8.57079,0.334057,0.0762796,0.085824,0
2024-12-13 15:33:24.219,0.792323,3.16271,8.65933,0.348107,0.0781121,0.0968193,0
2024-12-13 15:33:24.221,0.758824,3.18903,8.75055,0.362767,0.0817772,0.107815,0
2024-12-13 15:33:24.224,0.718146,3.20578,8.81994,0.377504,0.0891073,0.121253,0
2024-12-13 15:33:24.226,0.687039,3.21775,8.87498,0.392164,0.0976592,0.135379,0
2024-12-13 15:33:24.228,0.687039,3.23211,8.91805,0.408046,0.104989,0.148818,0
2024-12-13 15:33:24.232,0.699003,3.27518,8.95155,0.441032,0.127591,0.170808,0
2024-12-13 15:33:24.233,0.689432,3.30628,8.97787,0.441032,0.127591,0.170808,0
2024-12-13 15:33:24.235,0.699003,3.32064,9.02094,0.45386,0.138586,0.183636,0
2024-12-13 15:33:24.238,0.727717,3.34696,9.07598,0.469742,0.152025,0.195242,0
2024-12-13 15:33:24.240,0.722932,3.3685,9.11426,0.481958,0.161798,0.202572,0
2024-12-13 15:33:24.242,0.732503,3.41396,9.11426,0.494175,0.170961,0.212346,0
2024-12-13 15:33:24.245,0.785145,3.49292,9.07598,0.505171,0.175848,0.219676,0
2024-12-13 15:33:24.247,0.825823,3.5671,9.04726,0.512501,0.176459,0.224563,0
2024-12-13 15:33:24.249,0.84018,3.66072,9.01855,0.516777,0.182567,0.23006,0
2024-12-13 15:33:24.252,0.845265,3.766,8.97787,0.516166,0.186232,0.231282,0
2024-12-13 15:33:24.254,0.845265,3.89282,8.93241,0.511279,0.186843,0.231893,0
2024-12-13 15:33:24.257,0.825823,4.04357,8.89891,0.503338,0.186843,0.231893,0
2024-12-13 15:33:24.259,0.777966,4.16321,8.87976,0.491121,0.185621,0.229449,0
2024-12-13 15:33:24.261,0.701396,4.29512,8.88216,0.472185,0.179513,0.224563,0
2024-12-13 15:33:24.264,0.624826,4.46501,8.91566,0.450805,0.170961,0.220287,0
2024-12-13 15:33:24.267,0.531506,4.62054,8.96112,0.391553,0.149581,0.206848,0
2024-12-13 15:33:24.268,0.404686,4.75693,9.0353,0.391553,0.149581,0.206848,0
2024-12-13 15:33:24.273,0.155533,4.95823,9.26531,0.356048,0.133088,0.20074,0
2024-12-13 15:33:24.273,0.155533,4.95823,9.26531,0.356048,0.133088,0.20074,0
2024-12-13 15:33:24.275,0.0239282,5.0324,9.37059,0.276027,0.0964375,0.184247,0
2024-12-13 15:33:24.278,-0.102891,5.11855,9.48784,0.230213,0.0756687,0.176917,0
2024-12-13 15:33:24.280,-0.22014,5.2023,9.64337,0.17768,0.0548999,0.171419,0
2024-12-13 15:33:24.282,-0.349651,5.27887,9.83749,0.121482,0.0292443,0.165921,0
2024-12-13 15:33:24.285,-0.493221,5.35334,10.072,0.0616192,0.00236703,0.15737,0
2024-12-13 15:33:24.287,-0.663111,5.39881,10.3711,-0.00129805,-0.0257319,0.151872,0
2024-12-13 15:33:24.289,-0.852443,5.41077,10.7279,-0.065437,-0.0556635,0.148207,0
2024-12-13 15:33:24.292,-1.02233,5.38684,11.0776,-0.136906,-0.0947577,0.145153,0
2024-12-13 15:33:24.295,-1.14676,5.34616,11.391,-0.286564,-0.165005,0.139655,0
2024-12-13 15:33:24.297,-1.26162,5.27408,11.7766,-0.286564,-0.165005,0.139655,0
2024-12-13 15:33:24.299,-1.4004,5.15205,12.2698,-0.358033,-0.208375,0.136601,0
2024-12-13 15:33:24.301,-1.5323,5.00369,12.8085,-0.427669,-0.257854,0.136601,0
2024-12-13 15:33:24.304,-1.6352,4.82423,13.3902,-0.491808,-0.304889,0.142709,0
2024-12-13 15:33:24.306,-1.70459,4.6325,13.984,-0.547396,-0.348259,0.15065,0
2024-12-13 15:33:24.308,-1.74766,4.44347,14.592,-0.597485,-0.385521,0.158591,0
2024-12-13 15:33:24.311,-1.79551,4.25444,15.1834,-0.640244,-0.41362,0.172641,0
2024-12-13 15:33:24.313,-1.81466,4.08664,15.7436,-0.673841,-0.432556,0.187301,0
2024-12-13 15:33:24.315,-1.78355,3.90239,16.3086,-0.702551,-0.439886,0.200129,0
2024-12-13 15:33:24.320,-1.69741,3.51207,17.4171,-0.735536,-0.409955,0.225174,0
2024-12-13 15:33:24.322,-1.6352,3.3326,17.927,-0.738591,-0.385521,0.241666,0
2024-12-13 15:33:24.322,-1.6352,3.3326,17.927,-0.738591,-0.385521,0.241666,0
2024-12-13 15:33:24.325,-1.55384,3.16032,18.4059,-0.734926,-0.357422,0.254494,0
2024-12-13 15:33:24.327,-1.45813,2.9997,18.8225,-0.719654,-0.323825,0.269765,0
2024-12-13 15:33:24.330,-1.35494,2.85853,19.1671,-0.700718,-0.285342,0.285647,0
2024-12-13 15:33:24.334,-1.13001,2.60728,19.7034,-0.640855,-0.193715,0.310081,0
2024-12-13 15:33:24.337,-1.00319,2.52084,19.8733,-0.60115,-0.143015,0.319855,2
2024-12-13 15:33:24.337,-1.00319,2.52084,19.8733,-0.60115,-0.143015,0.319855,2
2024-12-13 15:33:24.339,-0.871586,2.42752,19.9693,-0.555337,-0.0904818,0.326574,0
2024-12-13 15:33:24.341,-0.739681,2.34616,20.0124,-0.50036,-0.0348946,0.333904,0
2024-12-13 15:33:24.344,-0.632004,2.29113,19.9932,-0.439276,0.0231358,0.335737,0
2024-12-13 15:33:24.346,-0.538684,2.23131,19.8996,-0.375747,0.0799446,0.332683,0
2024-12-13 15:33:24.348,-0.4669,2.17149,19.7417,-0.306111,0.137364,0.330239,0
2024-12-13 15:33:24.351,-0.435793,2.1332,19.5072,-0.231587,0.192951,0.327185,0
2024-12-13 15:33:24.353,-0.438186,2.10927,19.2078,-0.15401,0.244263,0.320466,0
2024-12-13 15:33:24.355,-0.490828,2.09252,18.8608,-0.0770431,0.290687,0.31619,0
2024-12-13 15:33:24.360,-0.579362,2.10688,18.0371,0.0793338,0.370708,0.301529,0
2024-12-13 15:33:24.360,-0.696611,2.14756,18.0371,0.0793338,0.370708,0.301529,0
2024-12-13 15:33:24.362,-0.859622,2.19781,17.5846,0.155079,0.398807,0.295421,0
2024-12-13 15:33:24.365,-1.0343,2.27438,17.1347,0.229602,0.420187,0.292367,0
2024-12-13 15:33:24.367,-1.21137,2.33659,16.6798,0.301682,0.434236,0.290534,0
2024-12-13 15:33:24.370,-1.38126,2.41316,16.1794,0.368341,0.437901,0.289313,0
2024-12-13 15:33:24.372,-1.5323,2.50648,15.6455,0.428204,0.434847,0.289923,0
2024-12-13 15:33:24.374,-1.6663,2.59292,15.0996,0.48318,0.421408,0.291145,0
2024-12-13 15:33:24.377,-1.79312,2.63839,14.5633,0.529605,0.40125,0.292978,0
2024-12-13 15:33:24.379,-1.88644,2.65992,14.039,0.571753,0.373762,0.299086,0
2024-12-13 15:33:24.381,-1.94387,2.69821,13.5266,0.603517,0.338333,0.302751,0
2024-12-13 15:33:24.384,-1.96301,2.72453,13.0382,0.631005,0.301071,0.305195,0
2024-12-13 15:33:24.386,-1.94387,2.76042,12.5761,0.654828,0.265031,0.306416,0
2024-12-13 15:33:24.388,-1.90319,2.82981,12.1454,0.671932,0.226548,0.306416,0
2024-12-13 15:33:24.391,-1.84816,2.8992,11.712,0.685981,0.192341,0.306416,0
2024-12-13 15:33:24.395,-1.71655,3.02602,10.9193,0.690257,0.159355,0.302751,0
2024-12-13 15:33:24.398,-1.63041,3.11486,10.558,0.690868,0.104379,0.290534,0
2024-12-13 15:33:24.399,-1.63041,3.11486,10.558,0.682927,0.0817772,0.281372,0
2024-12-13 15:33:24.400,-1.53948,3.22014,10.206,0.682927,0.0817772,0.281372,0
2024-12-13 15:33:24.403,-1.43898,3.31585,9.85903,0.67071,0.058565,0.267322,0
2024-12-13 15:33:24.405,-1.32861,3.40439,9.54766,0.65605,0.038407,0.250829,0
2024-12-13 15:33:24.407,-1.16112,3.44985,9.27727,0.637114,0.0188599,0.233115,0
2024-12-13 15:33:24.410,-1.07019,3.47378,9.04248,0.614512,0.00114534,0.2154,0
2024-12-13 15:33:24.412,-1.03908,3.53839,8.7673,0.586413,-0.0184018,0.19402,0
2024-12-13 15:33:24.414,-0.955334,3.62931,8.51815,0.559536,-0.0355055,0.175084,0
2024-12-13 15:33:24.417,-0.926621,3.67747,8.31954,0.528383,-0.0562743,0.15737,0
2024-12-13 15:33:24.419,-0.936192,3.65354,8.07996,0.494786,-0.0739889,0.136601,0
2024-12-13 15:33:24.421,-0.948156,3.6006,7.8694,0.457525,-0.085595,0.119421,0
2024-12-13 15:33:24.424,-0.97687,3.55514,7.66361,0.415987,-0.0910926,0.104149,0
2024-12-13 15:33:24.428,-1.02473,3.45224,7.31635,0.32917,-0.0910926,0.0772722,0
2024-12-13 15:33:24.431,-0.924228,3.41875,7.21107,0.283968,-0.0910926,0.0656661,0
2024-12-13 15:33:24.431,-0.924228,3.41875,7.21107,0.283968,-0.0910926,0.0656661,0
2024-12-13 15:33:24.433,-0.720539,3.47617,7.13929,0.235711,-0.0917034,0.0479515,0
2024-12-13 15:33:24.436,-0.471685,3.51207,7.08425,0.190508,-0.0831516,0.0204634,0
2024-12-13 15:33:24.438,-0.234497,3.4666,7.01217,0.142251,-0.0758214,-0.00702474,0
2024-12-13 15:33:24.440,-0.0789631,3.39721,6.8997,0.0933833,-0.073378,-0.0363454,0
2024-12-13 15:33:24.443,-0.00478565,3.31107,6.82313,0.046348,-0.0745997,-0.0632227,0
2024-12-13 15:33:24.445,0.0119641,3.27039,6.85424,-0.000687203,-0.0794865,-0.0846023,0
2024-12-13 15:33:24.447,-0.0239282,3.22014,6.89013,-0.0452791,-0.0947577,-0.103539,0
2024-12-13 15:33:24.450,-0.0789631,3.15314,6.88535,-0.0886492,-0.113694,-0.116366,0
2024-12-13 15:33:24.452,-0.145962,3.11486,6.88295,-0.133241,-0.138128,-0.127362,0
2024-12-13 15:33:24.454,-0.179462,3.08584,6.88056,-0.173557,-0.163783,-0.137135,0
2024-12-13 15:33:24.457,-0.167498,3.09571,6.87817,-0.214484,-0.186385,-0.146909,0
2024-12-13 15:33:24.461,-0.0382852,3.09571,6.89013,-0.303057,-0.219371,-0.164012,0
2024-12-13 15:33:24.464,0.0382852,3.08345,6.90928,-0.346427,-0.222425,-0.175619,0
2024-12-13 15:33:24.464,0.0382852,3.08345,6.90928,-0.346427,-0.222425,-0.175619,0
2024-12-13 15:33:24.466,0.0933201,3.05713,6.92842,-0.391019,-0.221203,-0.186614,0
2024-12-13 15:33:24.468,0.133998,3.04756,6.95474,-0.433778,-0.21876,-0.199442,0
2024-12-13 15:33:24.471,0.153141,3.01645,7.01725,-0.474705,-0.209597,-0.210437,0
2024-12-13 15:33:24.473,0.177069,2.95663,7.08425,-0.512577,-0.198602,-0.222043,0
2024-12-13 15:33:24.476,0.246461,2.91595,7.17039,-0.548006,-0.186385,-0.233038,0
2024-12-13 15:33:24.478,0.253639,2.90399,7.27328,-0.577327,-0.170503,-0.244644,0
2024-12-13 15:33:24.480,0.212961,2.88006,7.31875,-0.606037,-0.153399,-0.25625,0
2024-12-13 15:33:24.483,0.181855,2.84895,7.39771,-0.606037,-0.153399,-0.25625,0
2024-12-13 15:33:24.485,0.119641,2.82981,7.51735,-0.654905,-0.113083,-0.277019,0
2024-12-13 15:33:24.487,0.0550349,2.80349,7.61097,-0.671398,-0.0874275,-0.286793,0
2024-12-13 15:33:24.490,0.0454636,2.77478,7.72822,-0.683004,-0.0617719,-0.295345,0
2024-12-13 15:33:24.494,0.0741775,2.7341,8.00818,-0.699496,-0.0159584,-0.319168,0
2024-12-13 15:33:24.497,0.0957129,2.70778,8.10389,-0.699496,-0.0159584,-0.319168,0
2024-12-13 15:33:24.497,0.0957129,2.70778,8.10389,-0.699496,-0.0159584,-0.319168,0
2024-12-13 15:33:24.499,0.0765703,2.67667,8.17837,-0.699496,0.0341311,-0.342991,0
2024-12-13 15:33:24.501,0.0382852,2.65274,8.24298,-0.692777,0.0591758,-0.353986,0
2024-12-13 15:33:24.504,0.0,2.61924,8.29801,-0.682393,0.082388,-0.36376,0
2024-12-13 15:33:24.506,-0.0693919,2.59292,8.36262,-0.672008,0.102546,-0.373533,0
2024-12-13 15:33:24.509,-0.162712,2.58335,8.43679,-0.656737,0.120261,-0.381474,0
2024-12-13 15:33:24.511,-0.229711,2.57139,8.50379,-0.656737,0.120261,-0.381474,0
2024-12-13 15:33:24.513,-0.30658,2.55942,8.55643,-0.626806,0.14897,-0.390026,0
2024-12-13 15:33:24.516,-0.368794,2.54746,8.58276,-0.605426,0.158133,-0.393691,0
2024-12-13 15:33:24.518,-0.3999,2.5331,8.59472,-0.587101,0.165463,-0.394913,0
2024-12-13 15:33:24.520,-0.440578,2.53071,8.60668,-0.568164,0.169739,-0.396134,0
2024-12-13 15:33:24.523,-0.4669,2.54267,8.62583,-0.548006,0.170961,-0.396134,0
2024-12-13 15:33:24.525,-0.478864,2.56182,8.64018,-0.548006,0.170961,-0.396134,0
2024-12-13 15:33:24.527,-0.486042,2.5666,8.63061,-0.505247,0.166074,-0.399189,0
2024-12-13 15:33:24.530,-0.486042,2.55224,8.62104,-0.485089,0.158133,-0.401021,0
2024-12-13 15:33:24.532,-0.476471,2.55224,8.60429,-0.465542,0.152635,-0.403465,0
2024-12-13 15:33:24.534,-0.464507,2.56182,8.5684,-0.447827,0.142251,-0.404686,0
2024-12-13 15:33:24.537,-0.469292,2.56182,8.54208,-0.426448,0.127591,-0.405908,0
2024-12-13 15:33:24.539,-0.490828,2.54507,8.51336,-0.409955,0.111098,-0.40713,0
2024-12-13 15:33:24.541,-0.524327,2.53549,8.4679,-0.391629,0.0994917,-0.411406,0
2024-12-13 15:33:24.546,-0.521934,2.4993,8.32912,-0.359255,0.0768904,-0.419957,0
2024-12-13 15:33:24.547,-0.521934,2.4993,8.32912,-0.359255,0.0768904,-0.419957,0
2024-12-13 15:33:24.549,-0.538684,2.48495,8.27169,-0.359255,0.0768904,-0.419957,0
2024-12-13 15:33:24.553,-0.600898,2.4658,8.13769,-0.312219,0.0127514,-0.410184,0
2024-12-13 15:33:24.553,-0.600898,2.4658,8.13769,-0.312219,0.0127514,-0.410184,0
2024-12-13 15:33:24.556,-0.629611,2.44427,8.00818,-0.301224,-0.0171801,-0.402854,0
2024-12-13 15:33:24.558,-0.691825,2.40838,7.87657,-0.289618,-0.0458899,-0.393691,0
2024-12-13 15:33:24.560,-0.744467,2.37727,7.75454,-0.279234,-0.0709346,-0.383918,0
2024-12-13 15:33:24.565,-0.76361,2.30548,7.59901,-0.264573,-0.119802,-0.36376,0
2024-12-13 15:33:24.565,-0.76361,2.30548,7.59901,-0.264573,-0.119802,-0.36376,0
2024-12-13 15:33:24.567,-0.737288,2.30309,7.52214,-0.255411,-0.13935,-0.355208,0
2024-12-13 15:33:24.570,-0.701396,2.29113,7.47189,-0.246248,-0.159507,-0.344212,0
2024-12-13 15:33:24.572,-0.682254,2.2672,7.42164,-0.235863,-0.176611,-0.33505,0
2024-12-13 15:33:24.574,-0.670289,2.24566,7.37139,-0.225479,-0.191882,-0.322222,0
2024-12-13 15:33:24.577,-0.648754,2.23849,7.33071,-0.215095,-0.20471,-0.311227,0
2024-12-13 15:33:24.579,-0.624826,2.22174,7.28046,-0.201656,-0.214484,-0.297788,0
2024-12-13 15:33:24.582,-0.60329,2.20499,7.23021,-0.191272,-0.219371,-0.285571,0
2024-12-13 15:33:24.584,-0.588933,2.19063,7.17518,-0.176,-0.223036,-0.274576,0
2024-12-13 15:33:24.586,-0.572184,2.17388,7.09861,-0.166227,-0.22609,-0.260526,0
2024-12-13 15:33:24.589,-0.548256,2.15474,7.02922,-0.152177,-0.224868,-0.253196,0
2024-12-13 15:33:24.591,-0.531506,2.12842,6.97627,-0.152177,-0.224868,-0.253196,0
2024-12-13 15:33:24.593,-0.52672,2.10449,6.95235,-0.1253,-0.221203,-0.228762,0
2024-12-13 15:33:24.598,-0.550648,2.06142,6.89253,-0.0965902,-0.21204,-0.206161,0
2024-12-13 15:33:24.598,-0.550648,2.06142,6.89253,-0.0965902,-0.21204,-0.206161,0
2024-12-13 15:33:24.600,-0.536291,2.0327,6.86381,-0.0965902,-0.21204,-0.206161,0
2024-12-13 15:33:24.603,-0.524327,2.00638,6.83988,-0.0666587,-0.199823,-0.182338,0
2024-12-13 15:33:24.605,-0.514756,1.98724,6.80399,-0.0489441,-0.193104,-0.171953,0
2024-12-13 15:33:24.607,-0.507577,1.97288,6.76571,-0.033673,-0.187606,-0.160347,0
2024-12-13 15:33:24.610,-0.469292,1.9681,6.72981,-0.0208452,-0.180276,-0.151796,0
2024-12-13 15:33:24.612,-0.426222,1.96301,6.69871,-0.00435229,-0.173557,-0.142633,0
2024-12-13 15:33:24.614,-0.409472,1.94148,6.65085,0.00908635,-0.166227,-0.137135,0
2024-12-13 15:33:24.617,-0.419043,1.91516,6.60539,0.0255792,-0.158897,-0.131027,0
2024-12-13 15:33:24.619,-0.423829,1.88166,6.57667,0.038407,-0.15401,-0.123697,0
2024-12-13 15:33:24.622,-0.423829,1.85294,6.5336,0.0524565,-0.14668,-0.11881,0
2024-12-13 15:33:24.624,-0.407079,1.82423,6.48096,0.066506,-0.144236,-0.114534,0
2024-12-13 15:33:24.626,-0.397508,1.79312,6.43041,0.0775012,-0.144847,-0.107204,0
2024-12-13 15:33:24.629,-0.392722,1.77159,6.37059,0.0878856,-0.141793,-0.105371,0
2024-12-13 15:33:24.631,-0.373579,1.77398,6.31556,0.0964375,-0.142404,-0.102928,0
2024-12-13 15:33:24.633,-0.352044,1.8003,6.25334,0.102546,-0.146069,-0.100484,0
2024-12-13 15:33:24.636,-0.34008,1.81226,6.18395,0.104989,-0.150345,-0.0992627,0
2024-12-13 15:33:24.640,-0.332901,1.82423,6.11456,0.103768,-0.164394,-0.098041,0
2024-12-13 15:33:24.640,-0.328116,1.84098,6.05235,0.103768,-0.164394,-0.098041,0
2024-12-13 15:33:24.643,-0.328116,1.84337,5.9997,0.100713,-0.172335,-0.0968193,0
2024-12-13 15:33:24.645,-0.320937,1.85294,5.97099,0.0939941,-0.180887,-0.0998735,0
2024-12-13 15:33:24.647,-0.335294,1.86012,5.9351,0.0884965,-0.188828,-0.101095,0
2024-12-13 15:33:24.650,-0.347258,1.88405,5.90638,0.0805555,-0.199213,-0.105371,0
2024-12-13 15:33:24.655,-0.344866,1.90798,5.89203,0.0610084,-0.216927,-0.108425,0
2024-12-13 15:33:24.657,-0.35683,1.91516,5.9351,0.0536782,-0.223036,-0.110258,0
2024-12-13 15:33:24.657,-0.35683,1.91516,5.9351,0.0536782,-0.223036,-0.110258,0
2024-12-13 15:33:24.659,-0.361615,1.92712,5.96381,0.0439046,-0.227312,-0.113312,0
2024-12-13 15:33:24.662,-0.359223,1.94626,5.98056,0.0353528,-0.230366,-0.116977,0
2024-12-13 15:33:24.664,-0.375972,1.97528,6.01406,0.0310769,-0.231587,-0.120642,0
2024-12-13 15:33:24.666,-0.409472,2.00399,6.04995,0.0280226,-0.231587,-0.124307,0
2024-12-13 15:33:24.669,-0.445364,2.03031,6.08585,0.0249684,-0.227922,-0.126751,0
2024-12-13 15:33:24.673,-0.493221,2.10209,6.12892,0.0213033,-0.218149,-0.131638,0
2024-12-13 15:33:24.673,-0.493221,2.10209,6.12892,0.0213033,-0.218149,-0.131638,0
2024-12-13 15:33:24.676,-0.519542,2.15952,6.1337,0.0213033,-0.209597,-0.132859,0
2024-12-13 15:33:24.678,-0.533899,2.22174,6.08824,0.0194708,-0.203488,-0.135914,0
2024-12-13 15:33:24.680,-0.545863,2.29113,6.04756,0.0158057,-0.201045,-0.138357,0
2024-12-13 15:33:24.683,-0.576969,2.36291,6.02842,0.0127514,-0.199823,-0.142633,0
2024-12-13 15:33:24.685,-0.598505,2.43709,6.01645,0.00786466,-0.193715,-0.14813,0
2024-12-13 15:33:24.687,-0.627219,2.51845,6.00688,0.00419957,-0.188217,-0.149963,0
2024-12-13 15:33:24.692,-0.682254,2.69342,6.03799,-0.0019089,-0.186385,-0.156682,0
2024-12-13 15:33:24.695,-0.71336,2.76521,6.08345,-0.0159584,-0.177833,-0.170121,0
2024-12-13 15:33:24.695,-0.71336,2.76521,6.08345,-0.0159584,-0.177833,-0.170121,0
2024-12-13 15:33:24.697,-0.744467,2.84656,6.16242,-0.0232886,-0.173557,-0.173786,0
2024-12-13 15:33:24.699,-0.775574,2.92792,6.25813,-0.0348946,-0.172335,-0.181727,0
2024-12-13 15:33:24.702,-0.809073,2.99492,6.33709,-0.0458899,-0.171114,-0.190279,0
2024-12-13 15:33:24.704,-0.85005,3.05474,6.44477,-0.0562743,-0.169281,-0.194555,0
2024-12-13 15:33:24.706,-0.888335,3.09811,6.58385,-0.0691021,-0.169892,-0.200663,0
2024-12-13 15:33:24.709,-0.919442,3.15793,6.73939,-0.0819299,-0.169281,-0.207383,0
2024-12-13 15:33:24.711,-0.950549,3.21775,6.89731,-0.0965902,-0.169892,-0.21288,0
2024-12-13 15:33:24.713,-0.967299,3.25603,7.05314,-0.0965902,-0.169892,-0.21288,0
2024-12-13 15:33:24.716,-0.962513,3.28714,7.21346,-0.1253,-0.16867,-0.222043,0
2024-12-13 15:33:24.720,-0.996012,3.35653,7.54607,-0.162562,-0.183331,-0.228151,0
2024-12-13 15:33:24.720,-0.996012,3.35653,7.54607,-0.162562,-0.183331,-0.228151,0
2024-12-13 15:33:24.723,-1.04387,3.37089,7.73779,-0.182109,-0.193715,-0.232427,0
2024-12-13 15:33:24.725,-1.09173,3.3661,7.93639,-0.201656,-0.208986,-0.233649,0
2024-12-13 15:33:24.728,-1.1348,3.34935,8.14726,-0.22609,-0.223646,-0.231817,0
2024-12-13 15:33:24.730,-1.13958,3.32543,8.38894,-0.249302,-0.24075,-0.232427,0
2024-12-13 15:33:24.735,-1.09651,3.28953,8.98505,-0.276179,-0.255411,-0.231817,0
2024-12-13 15:33:24.737,-1.08215,3.25843,9.30838,-0.32016,-0.282899,-0.233038,0
2024-12-13 15:33:24.737,-1.08215,3.25843,9.30838,-0.32016,-0.282899,-0.233038,0
2024-12-13 15:33:24.739,-1.07737,3.22493,9.63141,-0.340318,-0.293283,-0.232427,0
2024-12-13 15:33:24.744,-1.07737,3.14836,10.2754,-0.373915,-0.303667,-0.227541,0
2024-12-13 15:33:24.746,-1.08694,3.134,10.5939,-0.387964,-0.303667,-0.222654,0
2024-12-13 15:33:24.746,-1.08694,3.134,10.5939,-0.387964,-0.303667,-0.222654,0
2024-12-13 15:33:24.749,-1.09412,3.13879,10.8882,-0.400181,-0.298781,-0.217156,0
2024-12-13 15:33:24.753,-1.08215,3.12443,11.4389,-0.406901,-0.294505,-0.212269,0
2024-12-13 15:33:24.753,-1.08215,3.12443,11.4389,-0.406901,-0.294505,-0.212269,0
2024-12-13 15:33:24.756,-1.07019,3.15314,11.6976,-0.412398,-0.274347,-0.197609,0
2024-12-13 15:33:24.758,-1.04626,3.16511,11.9393,-0.411177,-0.260908,-0.192722,0
2024-12-13 15:33:24.763,-1.01755,3.18186,12.3344,-0.394684,-0.221814,-0.177451,0
2024-12-13 15:33:24.763,-0.979263,3.201,12.3344,-0.394684,-0.221814,-0.177451,0
2024-12-13 15:33:24.765,-0.924228,3.22732,12.4756,-0.379413,-0.194326,-0.174397,0
2024-12-13 15:33:24.768,-0.864407,3.24885,12.5952,-0.361087,-0.16134,-0.167067,0
2024-12-13 15:33:24.770,-0.799502,3.25603,12.6841,-0.340929,-0.125911,-0.166456,0
2024-12-13 15:33:24.772,-0.742074,3.25364,12.7463,-0.313441,-0.0862058,-0.164012,0
2024-12-13 15:33:24.775,-0.696611,3.24885,12.7798,-0.28412,-0.0471116,-0.165845,0
2024-12-13 15:33:24.777,-0.667897,3.22732,12.7774,-0.24808,-0.00801737,-0.167067,0
2024-12-13 15:33:24.779,-0.655932,3.19621,12.7295,-0.21204,0.0292443,-0.16951,0
2024-12-13 15:33:24.782,-0.648754,3.18903,12.6386,-0.180276,0.0610084,-0.170121,0
2024-12-13 15:33:24.784,-0.660718,3.19861,12.5306,-0.140571,0.0921616,-0.170732,0
2024-12-13 15:33:24.786,-0.679861,3.22014,12.4182,-0.10392,0.11965,-0.173175,0
2024-12-13 15:33:24.791,-0.720539,3.29193,12.0927,-0.0281753,0.171572,-0.17684,0
2024-12-13 15:33:24.793,-0.74686,3.35414,11.9249,0.00542127,0.196006,-0.180505,0
2024-12-13 15:33:24.793,-0.74686,3.35414,11.9249,0.00542127,0.196006,-0.180505,0
2024-12-13 15:33:24.796,-0.74686,3.41396,11.7646,0.0377962,0.21372,-0.181116,0
2024-12-13 15:33:24.801,-0.80668,3.59581,11.511,0.0970484,0.236932,-0.185392,0
2024-12-13 15:33:24.801,-0.80668,3.59581,11.511,0.0970484,0.236932,-0.185392,0
2024-12-13 15:33:24.803,-0.84018,3.6679,11.4006,0.11965,0.238765,-0.187836,0
2024-12-13 15:33:24.805,-0.885943,3.73968,11.2881,0.142862,0.235711,-0.188446,0
2024-12-13 15:33:24.808,-0.957727,3.833,11.1446,0.16302,0.227159,-0.187836,0
2024-12-13 15:33:24.810,-1.01276,3.89761,11.0034,0.178291,0.212498,-0.18417,0
2024-12-13 15:33:24.812,-1.0343,3.95743,10.8763,0.192341,0.197838,-0.181116,0
2024-12-13 15:33:24.815,-1.0343,4.01964,10.7495,0.202114,0.180124,-0.179284,0
2024-12-13 15:33:24.817,-1.01755,4.06989,10.6059,0.202114,0.180124,-0.179284,0
2024-12-13 15:33:24.819,-0.996012,4.12014,10.4719,0.212498,0.144084,-0.174397,0
2024-12-13 15:33:24.822,-0.967299,4.18475,10.3615,0.215553,0.12698,-0.172564,0
2024-12-13 15:33:24.824,-0.919442,4.24726,10.273,0.216164,0.113541,-0.170732,0
2024-12-13 15:33:24.829,-0.857229,4.36451,10.1749,0.21372,0.0958267,-0.170121,0
2024-12-13 15:33:24.829,-0.857229,4.36451,10.1749,0.21372,0.0958267,-0.170121,0
2024-12-13 15:33:24.831,-0.813859,4.45065,10.1438,0.213109,0.0909399,-0.170121,0
2024-12-13 15:33:24.834,-0.787538,4.53918,10.1151,0.207001,0.0854423,-0.168899,0
2024-12-13 15:33:24.836,-0.766002,4.63968,10.0816,0.201503,0.0842206,-0.171343,0
2024-12-13 15:33:24.838,-0.74686,4.74018,10.0887,0.196616,0.0872748,-0.170732,0
2024-12-13 15:33:24.841,-0.756431,4.84577,10.1055,0.189897,0.0891073,-0.170121,0
2024-12-13 15:33:24.843,-0.744467,4.97019,10.1151,0.183789,0.0939941,-0.168899,0
2024-12-13 15:33:24.846,-0.732503,5.1018,10.151,0.164852,0.102546,-0.167678,0
2024-12-13 15:33:24.848,-0.737288,5.20947,10.2084,0.164852,0.102546,-0.167678,0
2024-12-13 15:33:24.850,-0.701396,5.33181,10.2897,0.153857,0.11293,-0.167067,0
2024-12-13 15:33:24.852,-0.675075,5.48495,10.4121,0.14897,0.108654,-0.161569,0
2024-12-13 15:33:24.855,-0.691825,5.57348,10.4575,0.144084,0.0958267,-0.15485,0
2024-12-13 15:33:24.857,-0.689432,5.57109,10.3905,0.130645,0.0915507,-0.146298,0
2024-12-13 15:33:24.859,-0.648754,5.57827,10.3424,0.11232,0.0939941,-0.142022,0
2024-12-13 15:33:24.862,-0.605683,5.58305,10.3519,0.086664,0.0958267,-0.141411,0
2024-12-13 15:33:24.864,-0.591326,5.55195,10.4408,0.0579541,0.0952158,-0.142022,0
2024-12-13 15:33:24.866,-0.617647,5.52084,10.6083,0.0310769,0.094605,-0.142022,0
2024-12-13 15:33:24.869,-0.667897,5.47777,10.8404,0.00297788,0.0897182,-0.138357,0
2024-12-13 15:33:24.871,-0.703789,5.41556,11.1015,-0.0177909,0.0799446,-0.132859,0
2024-12-13 15:33:24.874,-0.737288,5.34377,11.3839,-0.0379489,0.0683385,-0.125529,0
2024-12-13 15:33:24.876,-0.768395,5.26929,11.6856,-0.057496,0.0536782,-0.115756,0
2024-12-13 15:33:24.881,-0.775574,5.04437,12.2985,-0.0929251,0.0151948,-0.0901,0
2024-12-13 15:33:24.881,-0.775574,5.04437,12.2985,-0.0929251,0.0151948,-0.0901,0
2024-12-13 15:33:24.883,-0.74686,4.91755,12.5833,-0.106975,-0.00251974,-0.0766613,0
2024-12-13 15:33:24.885,-0.684646,4.77159,12.8683,-0.119192,-0.0220669,-0.0650552,0
2024-12-13 15:33:24.888,-0.60329,4.64208,13.2084,-0.128965,-0.0410031,-0.0516166,0
2024-12-13 15:33:24.890,-0.500399,4.53679,13.5697,-0.129576,-0.0703238,-0.0363454,0
2024-12-13 15:33:24.895,-0.337687,4.31905,13.9887,-0.135684,-0.115526,-0.0167983,0
2024-12-13 15:33:24.895,-0.141177,4.31905,13.9887,-0.135684,-0.115526,-0.0167983,0
2024-12-13 15:33:24.897,0.0215354,4.21137,14.1921,-0.137517,-0.122857,-0.0143549,0
2024-12-13 15:33:24.899,0.160319,4.12014,14.4317,-0.144236,-0.122246,-0.0149658,0
2024-12-13 15:33:24.902,0.272782,4.03161,14.6566,-0.145458,-0.116748,-0.0198525,0
2024-12-13 15:33:24.904,0.330509,3.94068,14.8552,-0.148512,-0.110029,-0.0229068,0
2024-12-13 15:33:24.907,0.361615,3.85215,15.0709,-0.147901,-0.0990336,-0.0241285,0
2024-12-13 15:33:24.909,0.387936,3.77079,15.2886,-0.14668,-0.0880384,-0.0253502,0
2024-12-13 15:33:24.911,0.419043,3.6679,15.4971,-0.138739,-0.0758214,-0.0235176,0
2024-12-13 15:33:24.914,0.447757,3.54796,15.6718,-0.126522,-0.0648262,-0.0192417,0
2024-12-13 15:33:24.916,0.474078,3.41635,15.789,-0.114916,-0.0562743,-0.0119115,2
2024-12-13 15:33:24.918,0.514756,3.27278,15.88,-0.101477,-0.0483333,-0.00702474,0
2024-12-13 15:33:24.923,1.30947,3.07627,15.7986,-0.081319,-0.0403923,-0.00397051,0
2024-12-13 15:33:24.923,1.30947,3.07627,15.7986,-0.081319,-0.0403923,-0.00397051,0
2024-12-13 15:33:24.925,1.89601,3.13639,15.7196,-0.077654,-0.0678804,-0.0290152,0
2024-12-13 15:33:24.928,1.75244,3.17468,15.7268,-0.0697129,-0.0709346,-0.0613902,0
2024-12-13 15:33:24.930,1.1659,3.12204,15.7651,-0.0519984,-0.0550526,-0.0827698,0
2024-12-13 15:33:24.932,0.720539,2.98056,15.9398,-0.0324513,-0.029397,-0.0937651,0
2024-12-13 15:33:24.935,0.361615,2.79153,16.0908,-0.00435229,0.0096972,-0.0943759,0
2024-12-13 15:33:24.937,-0.0741775,2.54267,16.1578,0.0298552,0.0536782,-0.0876566,0
2024-12-13 15:33:24.939,-0.205783,2.29113,16.0741,0.0628409,0.101935,-0.0693312,0
2024-12-13 15:33:24.942,0.066999,2.08774,15.8848,0.0982701,0.13431,-0.0510057,0
2024-12-13 15:33:24.944,0.0598206,1.98485,15.6239,0.130034,0.157522,-0.0369563,0
2024-12-13 15:33:24.947,-0.155533,1.98724,15.1714,0.160576,0.175848,-0.0161875,0
2024-12-13 15:33:24.949,-0.267996,2.01595,14.75,0.185621,0.186232,0.00763559,0
2024-12-13 15:33:24.951,-0.0957129,2.13081,14.3791,0.203947,0.186843,0.0314586,0
2024-12-13 15:33:24.954,0.205783,2.31745,13.9744,0.218607,0.170961,0.0430647,0
2024-12-13 15:33:24.957,-0.12682,2.45623,13.608,0.239376,0.176459,0.0833807,0
2024-12-13 15:33:24.961,-0.464507,2.61924,13.0837,0.239376,0.176459,0.0833807,0
2024-12-13 15:33:24.961,-0.464507,2.61924,13.0837,0.239376,0.176459,0.0833807,0
2024-12-13 15:33:24.963,-0.270389,2.67189,12.8779,0.247928,0.174015,0.127362,0
2024-12-13 15:33:24.965,-0.138784,2.72453,12.6266,0.251593,0.164242,0.140877,0
2024-12-13 15:33:24.968,-0.0550349,2.77478,12.4301,0.252814,0.150192,0.151872,0
2024-12-13 15:33:24.970,0.0167498,2.81306,12.3057,0.253425,0.131256,0.158591,0
2024-12-13 15:33:24.972,0.0933201,2.83938,12.198,0.253425,0.114152,0.161035,0
2024-12-13 15:33:24.975,0.191426,2.86331,12.0712,0.249149,0.0927724,0.158591,0
2024-12-13 15:33:24.980,0.330509,2.89681,11.8029,0.235711,0.0487914,0.146985,0
2024-12-13 15:33:24.980,0.330509,2.89681,11.8029,0.235711,0.0487914,0.146985,0
2024-12-13 15:33:24.984,0.313759,2.90878,11.621,0.211888,0.00603212,0.134768,0
2024-12-13 15:33:24.984,0.313759,2.90878,11.621,0.211888,0.00603212,0.134768,0
2024-12-13 15:33:24.989,0.297009,2.8992,11.5397,0.175848,-0.0342838,0.120031,0
2024-12-13 15:33:24.989,0.265603,2.8992,11.5397,0.175848,-0.0342838,0.120031,0
2024-12-13 15:33:24.991,0.232104,2.88006,11.5205,0.151414,-0.0556635,0.115756,0
2024-12-13 15:33:24.994,0.22014,2.83938,11.5229,0.127591,-0.0739889,0.113312,0
2024-12-13 15:33:24.998,0.212961,2.77238,11.554,0.0652843,-0.10331,0.110869,0
2024-12-13 15:33:24.998,0.212961,2.77238,11.554,0.0652843,-0.10331,0.110869,0
2024-12-13 15:33:25.002,0.246461,2.72692,11.6067,0.00725381,-0.117359,0.108425,0
2024-12-13 15:33:25.003,0.292223,2.65992,11.6713,0.00725381,-0.117359,0.108425,0
2024-12-13 15:33:25.005,0.344866,2.57617,11.7239,-0.0226777,-0.121024,0.110258,0
2024-12-13 15:33:25.008,0.411865,2.49452,11.7742,-0.049555,-0.117359,0.110869,0
2024-12-13 15:33:25.010,0.481256,2.41795,11.8268,-0.0745997,-0.11064,0.11209,0
2024-12-13 15:33:25.013,0.541077,2.32941,11.8866,-0.0972011,-0.101477,0.112701,0
2024-12-13 15:33:25.015,0.586541,2.22891,11.9321,-0.0972011,-0.101477,0.112701,0
2024-12-13 15:33:25.017,0.615255,2.1332,11.9776,-0.13935,-0.0782648,0.115145,0
2024-12-13 15:33:25.020,0.65354,2.05902,12.0446,-0.156453,-0.065437,0.117588,0
2024-12-13 15:33:25.022,0.684646,1.98006,12.0903,-0.16867,-0.0532201,0.117588,0
2024-12-13 15:33:25.024,0.701396,1.89362,12.1023,-0.178444,-0.0379489,0.119421,0
2024-12-13 15:33:25.027,0.725324,1.83141,12.0975,-0.189439,-0.0257319,0.122475,0
2024-12-13 15:33:25.029,0.732503,1.79312,12.0903,-0.194326,-0.0141258,0.123697,0
2024-12-13 15:33:25.031,0.73011,1.73809,12.0688,-0.196158,0.000534491,0.126751,0
2024-12-13 15:33:25.034,0.73011,1.68784,12.0278,-0.196769,0.014584,0.131638,0
2024-12-13 15:33:25.036,0.710967,1.67827,11.9728,-0.19738,0.0298552,0.132859,0
2024-12-13 15:33:25.038,0.677468,1.6663,11.9106,-0.19005,0.0414613,0.137212,0
2024-12-13 15:33:25.041,0.634397,1.64477,11.8531,-0.180276,0.0555107,0.143931,0
2024-12-13 15:33:25.043,0.60329,1.6352,11.7694,-0.167449,0.0683385,0.15065,0
2024-12-13 15:33:25.045,0.608076,1.6328,11.6426,-0.150956,0.0817772,0.15798,0
2024-12-13 15:33:25.048,0.598505,1.62802,11.5349,-0.130798,0.0921616,0.165921,0
2024-12-13 15:33:25.050,0.574577,1.6663,11.4269,-0.108196,0.108044,0.172641,0
2024-12-13 15:33:25.055,0.517149,1.66869,11.0393,-0.0513875,0.141029,0.185468,0
2024-12-13 15:33:25.055,0.517149,1.66869,11.0393,-0.0513875,0.141029,0.185468,0
2024-12-13 15:33:25.057,0.498006,1.61366,10.7758,-0.0245102,0.162409,0.190966,0
2024-12-13 15:33:25.060,0.481256,1.61845,10.5532,0.00603212,0.188675,0.19402,0
2024-12-13 15:33:25.062,0.45015,1.64716,10.3448,0.0359636,0.214942,0.197685,0
2024-12-13 15:33:25.064,0.397508,1.67348,10.1151,0.0671168,0.236322,0.202572,0
2024-12-13 15:33:25.067,0.344866,1.69262,9.87338,0.0964375,0.260145,0.208681,0
2024-12-13 15:33:25.069,0.301795,1.72852,9.61945,0.0964375,0.260145,0.208681,0
2024-12-13 15:33:25.071,0.253639,1.79312,9.36581,0.157522,0.294352,0.216622,0
2024-12-13 15:33:25.074,0.217747,1.85294,9.11665,0.182567,0.30718,0.222119,0
2024-12-13 15:33:25.078,0.129212,1.95344,8.6354,0.228991,0.323062,0.229449,0
2024-12-13 15:33:25.081,0.129212,1.95344,8.40329,0.251593,0.321229,0.234336,0
2024-12-13 15:33:25.081,0.0981057,2.00638,8.40329,0.251593,0.321229,0.234336,0
2024-12-13 15:33:25.083,0.119641,2.04945,8.22383,0.270529,0.312067,0.235558,0
2024-12-13 15:33:25.086,0.100499,2.09013,8.01297,0.286411,0.296185,0.241056,0
2024-12-13 15:33:25.088,0.0574277,2.12602,7.73779,0.29985,0.279692,0.245332,0
2024-12-13 15:33:25.090,0.0502493,2.14038,7.51017,0.308401,0.25648,0.246553,0
2024-12-13 15:33:25.093,0.026321,2.14277,7.31635,0.318175,0.233878,0.248386,0
2024-12-13 15:33:25.095,0.0191426,2.15474,7.12493,0.323062,0.207001,0.252051,0
2024-12-13 15:33:25.097,0.0119641,2.17388,6.95474,0.323673,0.17768,0.256327,0
2024-12-13 15:33:25.100,-0.00478565,2.24088,6.80638,0.323062,0.152025,0.255716,0
2024-12-13 15:33:25.102,0.0143569,2.34856,6.68196,0.320008,0.137364,0.248997,0
2024-12-13 15:33:25.104,0.0622134,2.37966,6.59821,0.316343,0.122704,0.238612,0
2024-12-13 15:33:25.107,0.0885344,2.33659,6.51925,0.309623,0.101935,0.234947,0
2024-12-13 15:33:25.109,0.0502493,2.29352,6.4352,0.304126,0.0768904,0.231282,0
2024-12-13 15:33:25.111,-0.0119641,2.26481,6.37777,0.298017,0.0573433,0.23678,0
2024-12-13 15:33:25.114,-0.0430708,2.27199,6.34427,0.291909,0.0341311,0.245332,0
2024-12-13 15:33:25.116,-0.066999,2.29113,6.34427,0.288244,0.00847551,0.25877,0
2024-12-13 15:33:25.121,-0.217747,2.29831,6.26291,0.279081,-0.0391706,0.285037,0
2024-12-13 15:33:25.121,-0.217747,2.29831,6.26291,0.279081,-0.0391706,0.285037,0
2024-12-13 15:33:25.123,-0.236889,2.32702,6.18156,0.269918,-0.0532201,0.300308,0
2024-12-13 15:33:25.126,-0.20339,2.34856,6.11217,0.260145,-0.0599394,0.310692,0
2024-12-13 15:33:25.130,-0.167498,2.39163,6.07388,0.231435,-0.0562743,0.333294,0
2024-12-13 15:33:25.130,-0.136391,2.4323,6.04995,0.231435,-0.0562743,0.333294,0
2024-12-13 15:33:25.133,-0.0861416,2.45863,6.05474,0.217996,-0.0440574,0.340013,0
2024-12-13 15:33:25.135,-0.0454636,2.47777,6.06192,0.204557,-0.0257319,0.351619,0
2024-12-13 15:33:25.140,0.0167498,2.50409,6.03799,0.179513,0.0280226,0.371166,0
2024-12-13 15:33:25.140,0.0167498,2.50409,6.03799,0.179513,0.0280226,0.371166,0
2024-12-13 15:33:25.142,0.0382852,2.50648,6.04517,0.165463,0.0555107,0.378496,0
2024-12-13 15:33:25.144,0.0454636,2.49212,6.04756,0.153857,0.0860531,0.385826,0
2024-12-13 15:33:25.147,0.138784,2.48973,6.08106,0.142251,0.114152,0.390102,0
2024-12-13 15:33:25.149,0.239282,2.49452,6.19113,0.130645,0.137975,0.394378,0
2024-12-13 15:33:25.154,0.0119641,2.49452,6.07388,0.109876,0.187454,0.403541,0
2024-12-13 15:33:25.156,-0.0789631,2.48495,6.03081,0.0927724,0.215553,0.409039,0
2024-12-13 15:33:25.156,-0.0789631,2.48495,6.03081,0.0927724,0.215553,0.409039,0
2024-12-13 15:33:25.159,-0.145962,2.52323,6.0332,0.0817772,0.245484,0.415147,0
2024-12-13 15:33:25.161,-0.177069,2.55703,6.04995,0.066506,0.276027,0.415758,0
2024-12-13 15:33:25.163,-0.167498,2.50887,6.07388,0.0530674,0.309623,0.41698,0
2024-12-13 15:33:25.166,-0.0981057,2.45863,6.07867,0.0390179,0.337722,0.422477,0
2024-12-13 15:33:25.168,-0.0239282,2.44427,6.05713,0.0274118,0.365821,0.423088,0
2024-12-13 15:33:25.170,-0.0239282,2.42034,6.04038,0.0133623,0.389033,0.423088,0
2024-12-13 15:33:25.173,-0.0693919,2.3988,6.08585,-0.000687203,0.40858,0.424921,0
2024-12-13 15:33:25.175,-0.138784,2.38684,6.15045,-0.00740652,0.420797,0.431029,0
2024-12-13 15:33:25.177,-0.210568,2.38206,6.19831,-0.0159584,0.426295,0.437748,0
2024-12-13 15:33:25.180,-0.248854,2.37248,6.19592,-0.0257319,0.425684,0.445689,0
2024-12-13 15:33:25.182,-0.27996,2.37248,6.14088,-0.037338,0.419576,0.455463,0
2024-12-13 15:33:25.184,-0.30658,2.39402,6.08824,-0.0562743,0.411635,0.463404,0
2024-12-13 15:33:25.187,-0.301795,2.4323,6.04517,-0.0715455,0.403083,0.468902,0
2024-12-13 15:33:25.189,-0.270389,2.48495,6.02602,-0.0917034,0.400639,0.470123,0
2024-12-13 15:33:25.191,-0.239282,2.50409,6.05474,-0.111861,0.400029,0.471345,0
2024-12-13 15:33:25.194,-0.232104,2.50648,6.08585,-0.131409,0.394531,0.478064,0
2024-12-13 15:33:25.196,-0.251246,2.49212,6.09542,-0.145458,0.385979,0.484173,0
2024-12-13 15:33:25.199,-0.263211,2.47777,6.14567,-0.160729,0.377427,0.490281,0
2024-12-13 15:33:25.201,-0.263211,2.49212,6.22941,-0.177833,0.364599,0.502498,0
2024-12-13 15:33:25.203,-0.294616,2.50409,6.31556,-0.193715,0.354826,0.509828,0
2024-12-13 15:33:25.206,-0.328116,2.51605,6.3993,-0.206543,0.34322,0.522656,0
2024-12-13 15:33:25.208,-0.407079,2.65514,6.49053,-0.221814,0.334668,0.533651,0
2024-12-13 15:33:25.210,-0.275175,2.72453,6.66999,-0.232809,0.3365,0.538538,0
2024-12-13 15:33:25.213,0.0598206,2.55703,6.87817,-0.238307,0.332225,0.540371,0
2024-12-13 15:33:25.215,0.150748,2.43948,7.01217,-0.245026,0.32184,0.540371,0
2024-12-13 15:33:25.217,0.00717847,2.38923,7.09861,-0.248691,0.310845,0.543425,0
2024-12-13 15:33:25.220,-0.124427,2.31745,7.17757,-0.255411,0.29985,0.549533,0
2024-12-13 15:33:25.224,-0.0837488,2.17149,7.41207,-0.261519,0.287022,0.555031,0
2024-12-13 15:33:25.227,-0.0358923,2.11406,7.53171,-0.271903,0.252814,0.559918,0
2024-12-13 15:33:25.227,-0.0358923,2.11406,7.53171,-0.271903,0.252814,0.559918,0
2024-12-13 15:33:25.229,0.0119641,2.07338,7.64447,-0.275568,0.24243,0.559918,0
2024-12-13 15:33:25.234,0.0526421,2.09492,7.85743,-0.280455,0.235711,0.56114,0
2024-12-13 15:33:25.236,0.282652,2.0351,7.99621,-0.287785,0.262588,0.550144,0
2024-12-13 15:33:25.236,0.282652,2.0351,7.99621,-0.287785,0.262588,0.550144,0
2024-12-13 15:33:25.239,0.4669,1.9681,8.17837,-0.289007,0.268696,0.540982,0
2024-12-13 15:33:25.243,0.442971,1.90558,8.34826,-0.283509,0.264421,0.529375,0
2024-12-13 15:33:25.243,0.352044,1.85294,8.43919,-0.283509,0.264421,0.529375,0
2024-12-13 15:33:25.246,0.342473,1.81466,8.5014,-0.283509,0.261366,0.523878,0
2024-12-13 15:33:25.248,0.469292,1.79551,8.63061,-0.278623,0.261977,0.517159,0
2024-12-13 15:33:25.250,0.502792,1.79073,8.76491,-0.26946,0.25709,0.509828,0
2024-12-13 15:33:25.253,0.421436,1.78355,8.78405,-0.26946,0.25709,0.509828,0
2024-12-13 15:33:25.255,0.366401,1.77876,8.78405,-0.251745,0.276637,0.497611,0
2024-12-13 15:33:25.257,0.320937,1.78594,8.83191,-0.241361,0.291298,0.49639,0
2024-12-13 15:33:25.260,0.294616,1.79312,8.88216,-0.227312,0.307791,0.495779,0
2024-12-13 15:33:25.262,0.289831,1.76201,8.9348,-0.209597,0.327949,0.49639,0
2024-12-13 15:33:25.264,0.35683,1.72373,8.96591,-0.191272,0.347496,0.495779,0
2024-12-13 15:33:25.267,0.447757,1.6998,8.97787,-0.169281,0.365821,0.491503,0
2024-12-13 15:33:25.269,0.519542,1.69262,8.94676,-0.150956,0.383536,0.48906,0
2024-12-13 15:33:25.272,0.557827,1.69262,8.89651,-0.128965,0.400639,0.483562,0
2024-12-13 15:33:25.274,0.576969,1.70937,8.83669,-0.107585,0.414689,0.474399,0
2024-12-13 15:33:25.276,0.591326,1.75005,8.75534,-0.085595,0.426906,0.469512,0
2024-12-13 15:33:25.279,0.579362,1.78834,8.6689,-0.085595,0.426906,0.469512,0
2024-12-13 15:33:25.281,0.553041,1.84576,8.57558,-0.0348946,0.439123,0.462793,0
2024-12-13 15:33:25.283,0.529113,1.91276,8.47029,-0.0147367,0.44462,0.456074,0
2024-12-13 15:33:25.286,0.50997,1.97049,8.34826,0.00786466,0.445231,0.454241,0
2024-12-13 15:33:25.290,0.486042,2.06142,8.10868,0.0432938,0.434236,0.448133,0
2024-12-13 15:33:25.290,0.4669,2.06142,8.10868,0.0432938,0.434236,0.448133,0
2024-12-13 15:33:25.293,0.483649,2.10688,8.00339,0.0597867,0.426295,0.4463,0
2024-12-13 15:33:25.295,0.502792,2.14517,7.9005,0.0713928,0.412856,0.444468,0
2024-12-13 15:33:25.297,0.493221,2.15952,7.78086,0.0884965,0.398807,0.440192,0
2024-12-13 15:33:25.300,0.490828,2.18345,7.66361,0.0976592,0.381703,0.434694,0
2024-12-13 15:33:25.302,0.500399,2.21695,7.56282,0.106822,0.366432,0.43164,0
2024-12-13 15:33:25.305,0.533899,2.23609,7.49342,0.114763,0.346885,0.42431,0
2024-12-13 15:33:25.307,0.672682,2.26002,7.48624,0.122704,0.322451,0.413925,0
2024-12-13 15:33:25.309,0.725324,2.28395,7.46471,0.130645,0.294963,0.40293,0
2024-12-13 15:33:25.314,0.593719,2.34856,7.27089,0.139808,0.241819,0.378496,0
2024-12-13 15:33:25.314,0.593719,2.34856,7.27089,0.139808,0.241819,0.378496,0
2024-12-13 15:33:25.316,0.488435,2.38206,7.25414,0.142251,0.215553,0.367501,0
2024-12-13 15:33:25.319,0.423829,2.3988,7.28525,0.141029,0.188065,0.355284,0
2024-12-13 15:33:25.321,0.447757,2.42273,7.35703,0.143473,0.157522,0.346121,0
2024-12-13 15:33:25.323,0.514756,2.4682,7.45035,0.143473,0.12698,0.336348,0
2024-12-13 15:33:25.326,0.586541,2.52323,7.50778,0.143473,0.12698,0.336348,0
2024-12-13 15:33:25.328,0.63679,2.56899,7.50778,0.146527,0.074447,0.311303,0
2024-12-13 15:33:25.330,0.639183,2.61446,7.51017,0.147138,0.0579541,0.300308,0
2024-12-13 15:33:25.333,0.615255,2.65274,7.53649,0.142251,0.0408504,0.290534,0
2024-12-13 15:33:25.335,0.56022,2.67906,7.57747,0.141029,0.0280226,0.280761,0
2024-12-13 15:33:25.338,0.476471,2.70539,7.64926,0.139808,0.0182491,0.275874,0
2024-12-13 15:33:25.340,0.407079,2.72931,7.71386,0.137364,0.0133623,0.274041,0
2024-12-13 15:33:25.342,0.349651,2.75324,7.77847,0.136143,0.010308,0.27343,0
2024-12-13 15:33:25.345,0.299402,2.77956,7.85265,0.136143,0.010308,0.27343,0
2024-12-13 15:33:25.347,0.270389,2.81785,7.91486,0.136753,0.00908635,0.277706,0
2024-12-13 15:33:25.349,0.251246,2.82981,7.97468,0.133699,0.00908635,0.283204,0
2024-12-13 15:33:25.352,0.248854,2.8346,8.05843,0.131256,0.0109189,0.289923,0
2024-12-13 15:33:25.354,0.253639,2.84178,8.14248,0.131867,0.0133623,0.296643,0
2024-12-13 15:33:25.356,0.236889,2.84895,8.1999,0.130645,0.0121406,0.304584,0
2024-12-13 15:33:25.359,0.222533,2.85374,8.25015,0.130645,0.0109189,0.311303,0
2024-12-13 15:33:25.361,0.227318,2.85853,8.30997,0.130645,0.0096972,0.321077,0
2024-12-13 15:33:25.363,0.239282,2.8657,8.37219,0.132477,0.00908635,0.329018,0
2024-12-13 15:33:25.366,0.253639,2.87049,8.4344,0.132477,0.00603212,0.339402,0
2024-12-13 15:33:25.368,0.27996,2.8657,8.47747,0.133699,0.00236703,0.347954,0
2024-12-13 15:33:25.370,0.297009,2.86331,8.52054,0.134921,-0.00313059,0.356506,0
2024-12-13 15:33:25.374,0.320937,2.87288,8.58036,0.141029,-0.0147367,0.37422,0
2024-12-13 15:33:25.378,0.387936,2.87288,8.66172,0.142862,-0.0238994,0.383383,0
2024-12-13 15:33:25.378,0.387936,2.87288,8.66172,0.142862,-0.0238994,0.383383,0
2024-12-13 15:33:25.380,0.402293,2.87528,8.68804,0.146527,-0.0342838,0.390713,0
2024-12-13 15:33:25.382,0.428614,2.87767,8.71705,0.150803,-0.041614,0.398043,0
2024-12-13 15:33:25.385,0.471685,2.89681,8.72662,0.150803,-0.0519984,0.403541,0
2024-12-13 15:33:25.389,0.519542,2.94467,8.71466,0.153857,-0.0788757,0.418201,0
2024-12-13 15:33:25.389,0.519542,2.94467,8.71466,0.153857,-0.0788757,0.418201,0
2024-12-13 15:33:25.394,0.605683,2.98774,8.69522,0.156301,-0.106364,0.430418,0
2024-12-13 15:33:25.395,0.605683,2.98774,8.69522,0.156301,-0.122857,0.434083,0
2024-12-13 15:33:25.396,0.65354,3.01884,8.7003,0.156301,-0.122857,0.434083,0
2024-12-13 15:33:25.399,0.689432,3.03799,8.70509,0.158744,-0.142404,0.440192,0
2024-12-13 15:33:25.401,0.701396,3.05952,8.71227,0.161187,-0.160729,0.444468,0
2024-12-13 15:33:25.406,0.718146,3.11246,8.71227,0.166074,-0.194937,0.45363,0
2024-12-13 15:33:25.406,0.718146,3.11246,8.71227,0.166074,-0.194937,0.45363,0
2024-12-13 15:33:25.408,0.720539,3.15075,8.7027,0.166685,-0.216927,0.457296,0
2024-12-13 15:33:25.413,0.696611,3.22732,8.77209,0.172793,-0.232198,0.46035,0
2024-12-13 15:33:25.415,0.739681,3.28475,8.81755,0.186232,-0.260297,0.466458,0
2024-12-13 15:33:25.415,0.739681,3.28475,8.81755,0.186232,-0.260297,0.466458,0
2024-12-13 15:33:25.418,0.797109,3.35414,8.86541,0.192341,-0.271903,0.466458,0
2024-12-13 15:33:25.420,0.847657,3.44028,8.89412,0.199671,-0.282899,0.468291,0
2024-12-13 15:33:25.425,0.952942,3.58385,8.96351,0.218607,-0.301224,0.460961,0
2024-12-13 15:33:25.425,0.952942,3.58385,8.96351,0.218607,-0.301224,0.460961,0
2024-12-13 15:33:25.427,0.984048,3.68943,8.98026,0.22777,-0.307943,0.452409,0
2024-12-13 15:33:25.429,1.00798,3.84018,8.99223,0.238765,-0.31283,0.4463,0
2024-12-13 15:33:25.432,0.996012,3.99093,8.99462,0.248538,-0.313441,0.433472,0
2024-12-13 15:33:25.434,0.948156,4.15125,8.97787,0.253425,-0.316495,0.421256,0
2024-12-13 15:33:25.436,0.931406,4.35015,8.93241,0.259534,-0.315274,0.412704,0
2024-12-13 15:33:25.439,0.936192,4.56072,8.89412,0.261366,-0.314052,0.396822,0
2024-12-13 15:33:25.441,0.929013,4.75693,8.89412,0.259534,-0.314052,0.380329,0
2024-12-13 15:33:25.443,0.929013,4.93669,8.92523,0.255869,-0.314663,0.363836,0
2024-12-13 15:33:25.446,0.948156,5.12094,9.01855,0.247317,-0.314663,0.344289,0
2024-12-13 15:33:25.448,0.940978,5.27887,9.19083,0.236322,-0.321993,0.322298,0
2024-12-13 15:33:25.451,0.88355,5.40359,9.4352,0.22777,-0.339097,0.300308,0
2024-12-13 15:33:25.453,0.854836,5.48255,9.67687,0.214331,-0.358033,0.277706,0
2024-12-13 15:33:25.455,0.876371,5.5328,9.89731,0.19906,-0.371471,0.253273,0
2024-12-13 15:33:25.458,0.873978,5.60459,10.151,0.19906,-0.371471,0.253273,0
2024-12-13 15:33:25.460,0.809073,5.68355,10.4312,0.150803,-0.386132,0.189744,0
2024-12-13 15:33:25.462,0.699003,5.73859,10.7566,0.150803,-0.386132,0.189744,0
2024-12-13 15:33:25.465,0.565005,5.77926,11.1183,0.100103,-0.398349,0.134157,0
2024-12-13 15:33:25.467,0.421436,5.7673,11.47,0.0768904,-0.404457,0.110869,0
2024-12-13 15:33:25.469,0.277567,5.70269,11.822,0.0494023,-0.406901,0.0919325,0
2024-12-13 15:33:25.474,-0.00478565,5.48495,12.6721,-0.00923906,-0.39957,0.0607793,0
2024-12-13 15:33:25.474,-0.00478565,5.48495,12.6721,-0.00923906,-0.39957,0.0607793,0
2024-12-13 15:33:25.476,-0.200997,5.31954,13.2156,-0.0422248,-0.394684,0.0516166,0
2024-12-13 15:33:25.479,-0.409472,5.11615,13.826,-0.0727672,-0.382467,0.0473407,0
2024-12-13 15:33:25.481,-0.598505,4.90798,14.458,-0.10392,-0.369028,0.0485624,0
2024-12-13 15:33:25.484,-0.768395,4.69472,15.0494,-0.132019,-0.350092,0.05406,0
2024-12-13 15:33:25.486,-0.914656,4.49133,15.6407,-0.159507,-0.330545,0.0650552,0
2024-12-13 15:33:25.488,-1.01515,4.3023,16.2679,-0.185163,-0.29817,0.0791047,0
2024-12-13 15:33:25.491,-1.07737,4.13928,16.8832,-0.205321,-0.255411,0.0962084,0
2024-12-13 15:33:25.493,-1.1013,4.01725,17.441,-0.222425,-0.201656,0.116366,0
2024-12-13 15:33:25.495,-1.11326,3.9,17.9605,-0.236474,-0.143015,0.136601,0
2024-12-13 15:33:25.499,-1.12044,3.77079,18.449,-0.254189,-0.0104608,0.180582,0
2024-12-13 15:33:25.500,-1.11087,3.63889,18.8776,-0.254189,-0.0104608,0.180582,0
2024-12-13 15:33:25.502,-1.07019,3.51685,19.2245,-0.257243,0.058565,0.198907,0
2024-12-13 15:33:25.505,-1.01037,3.3996,19.4928,-0.253578,0.126369,0.217843,0
2024-12-13 15:33:25.507,-0.909871,3.28953,19.6723,-0.247469,0.188065,0.235558,0
2024-12-13 15:33:25.509,-0.813859,3.19861,19.7728,-0.24075,0.249149,0.247164,0
2024-12-13 15:33:25.512,-0.74686,3.08854,19.8039,-0.22609,0.307791,0.255105,0
2024-12-13 15:33:25.514,-0.665504,2.97338,19.7704,-0.210208,0.363989,0.260603,2
2024-12-13 15:33:25.519,-0.519542,2.77238,19.5407,-0.165005,0.456227,0.267322,0
2024-12-13 15:33:25.519,-0.519542,2.77238,19.5407,-0.165005,0.456227,0.267322,0
2024-12-13 15:33:25.521,-0.493221,2.68624,19.337,-0.136295,0.494099,0.264268,0
2024-12-13 15:33:25.524,-0.481256,2.59053,19.1001,-0.106364,0.522198,0.262435,0
2024-12-13 15:33:25.526,-0.493221,2.50887,18.8249,-0.0721563,0.541134,0.256327,0
2024-12-13 15:33:25.528,-0.50997,2.46341,18.5207,-0.037338,0.549686,0.248386,0
2024-12-13 15:33:25.531,-0.548256,2.42991,18.2118,-7.63559e-05,0.548464,0.241056,0
2024-12-13 15:33:25.533,-0.617647,2.41077,17.8959,0.0359636,0.541745,0.231282,0
2024-12-13 15:33:25.535,-0.708575,2.41795,17.5439,0.0732253,0.532582,0.220287,0
2024-12-13 15:33:25.538,-0.811466,2.45145,17.1706,0.111709,0.519755,0.213567,0
2024-12-13 15:33:25.540,-0.94337,2.49212,16.8018,0.153246,0.503262,0.206848,0
2024-12-13 15:33:25.542,-1.08694,2.54267,16.3995,0.195395,0.488601,0.201351,0
2024-12-13 15:33:25.545,-1.24008,2.61924,15.9613,0.233267,0.472109,0.198296,0
2024-12-13 15:33:25.547,-1.37886,2.70299,15.5019,0.233267,0.472109,0.198296,0
2024-12-13 15:33:25.549,-1.48205,2.76999,15.0183,0.310845,0.430571,0.197075,0
2024-12-13 15:33:25.552,-1.5658,2.81306,14.5442,0.349328,0.40797,0.198296,0
2024-12-13 15:33:25.554,-1.62562,2.84178,14.0845,0.383612,0.384757,0.197075,0
2024-12-13 15:33:25.557,-1.6328,2.85374,13.6463,0.4111,0.358491,0.198907,0
2024-12-13 15:33:25.559,-1.59212,2.87528,13.2419,0.445919,0.334057,0.196464,0
2024-12-13 15:33:25.561,-1.54666,2.90878,12.8396,0.471574,0.304126,0.192188,0
2024-12-13 15:33:25.564,-1.49641,2.92792,12.4493,0.493565,0.270529,0.183025,0
2024-12-13 15:33:25.566,-1.43659,2.95902,12.0927,0.512501,0.239987,0.175084,0
2024-12-13 15:33:25.568,-1.39083,3.01884,11.7335,0.525939,0.209444,0.161035,0
2024-12-13 15:33:25.571,-1.33101,3.06192,11.3719,0.541822,0.17768,0.145153,0
2024-12-13 15:33:25.573,-1.26879,3.11964,11.0489,0.550984,0.147749,0.127362,0
2024-12-13 15:33:25.578,-1.24247,3.28235,10.5269,0.561979,0.074447,0.0986518,0
2024-12-13 15:33:25.580,-1.18265,3.31346,10.1988,0.559536,0.0396287,0.0797156,0
2024-12-13 15:33:25.580,-1.18265,3.31346,10.1988,0.559536,0.0396287,0.0797156,0
2024-12-13 15:33:25.582,-1.12522,3.35892,9.87578,0.546708,0.0127514,0.0577251,0
2024-12-13 15:33:25.587,-1.07737,3.3996,9.59791,0.507003,-0.0324513,0.0149658,0
2024-12-13 15:33:25.587,-1.0654,3.41635,9.3682,0.507003,-0.0324513,0.0149658,0
2024-12-13 15:33:25.590,-1.08215,3.41635,9.18605,0.481958,-0.0532201,-0.00274881,0
2024-12-13 15:33:25.592,-1.08933,3.42832,9.05683,0.45447,-0.073378,-0.0216851,0
2024-12-13 15:33:25.594,-1.0678,3.44028,8.9348,0.429426,-0.0947577,-0.033902,0
2024-12-13 15:33:25.597,-1.02233,3.44507,8.79362,0.401327,-0.116137,-0.046119,0
2024-12-13 15:33:25.599,-0.986441,3.4331,8.67129,0.371395,-0.132019,-0.0558925,0
2024-12-13 15:33:25.601,-0.938585,3.42353,8.57318,0.334057,-0.14668,-0.0656661,0
2024-12-13 15:33:25.604,-0.857229,3.42353,8.47986,0.298017,-0.157675,-0.0748288,0
2024-12-13 15:33:25.606,-0.797109,3.40917,8.40329,0.261977,-0.167449,-0.0852132,0
2024-12-13 15:33:25.611,-0.670289,3.39242,8.28126,0.190508,-0.186385,-0.101706,0
2024-12-13 15:33:25.611,-0.670289,3.39242,8.28126,0.190508,-0.186385,-0.101706,0
2024-12-13 15:33:25.613,-0.567398,3.38285,8.21426,0.152025,-0.191272,-0.11148,0
2024-12-13 15:33:25.615,-0.486042,3.38046,8.16401,0.114763,-0.196769,-0.118199,0
2024-12-13 15:33:25.618,-0.407079,3.38046,8.13021,0.0750579,-0.202267,-0.127362,0
2024-12-13 15:33:25.620,-0.308973,3.38285,8.09432,0.0377962,-0.203488,-0.137746,0
2024-12-13 15:33:25.622,-0.236889,3.37807,8.06561,0.00297788,-0.202267,-0.14752,0
2024-12-13 15:33:25.625,-0.179462,3.34696,8.05604,-0.0318404,-0.200434,-0.157293,0
2024-12-13 15:33:25.627,-0.119641,3.31346,8.09193,-0.065437,-0.199213,-0.164012,0
2024-12-13 15:33:25.630,-0.081356,3.30389,8.15683,-0.0978119,-0.196158,-0.171343,0
2024-12-13 15:33:25.632,-0.0622134,3.31107,8.21665,-0.127743,-0.19005,-0.178062,0
2024-12-13 15:33:25.634,-0.0382852,3.29671,8.27887,-0.153399,-0.182109,-0.18417,0
2024-12-13 15:33:25.637,-0.0143569,3.27518,8.34826,-0.176611,-0.173557,-0.187836,0
2024-12-13 15:33:25.639,-0.00717847,3.25364,8.43201,-0.200434,-0.160729,-0.188446,0
2024-12-13 15:33:25.641,0.00957129,3.22014,8.51815,-0.222425,-0.145458,-0.19089,0
2024-12-13 15:33:25.644,0.0167498,3.18664,8.60908,-0.238307,-0.128354,-0.19089,0
2024-12-13 15:33:25.648,0.0215354,3.13161,8.78166,-0.267627,-0.0910926,-0.186614,0
2024-12-13 15:33:25.651,-0.00957129,3.08345,8.87498,-0.274347,-0.0666587,-0.182949,0
2024-12-13 15:33:25.651,-0.00957129,3.08345,8.87498,-0.274347,-0.0666587,-0.182949,0
2024-12-13 15:33:25.653,-0.0526421,3.03559,8.9683,-0.287785,-0.0440574,-0.178062,0
2024-12-13 15:33:25.658,-0.0741775,2.98535,9.13819,-0.300002,0.0158057,-0.163402,0
2024-12-13 15:33:25.658,-0.119641,2.98535,9.13819,-0.300002,0.0158057,-0.163402,0
2024-12-13 15:33:25.660,-0.229711,2.92792,9.27966,-0.303057,0.0524565,-0.155461,0
2024-12-13 15:33:25.663,-0.368794,2.87049,9.42323,-0.302446,0.0872748,-0.143244,0
2024-12-13 15:33:25.665,-0.52672,2.8011,9.55963,-0.296948,0.118428,-0.123086,0
2024-12-13 15:33:25.667,-0.65354,2.73171,9.67687,-0.287785,0.149581,-0.098041,0
2024-12-13 15:33:25.670,-0.754038,2.69821,9.74866,-0.27679,0.178291,-0.0748288,0
2024-12-13 15:33:25.673,-0.833001,2.68624,9.8013,-0.253578,0.231435,-0.0174091,0
2024-12-13 15:33:25.674,-0.871586,2.68864,9.83271,-0.253578,0.231435,-0.0174091,0
2024-12-13 15:33:25.677,-0.876371,2.70299,9.83988,-0.241972,0.260755,0.00763559,0
2024-12-13 15:33:25.679,-0.871586,2.72213,9.83988,-0.226701,0.288854,0.0320695,0
2024-12-13 15:33:25.681,-0.885943,2.73888,9.84467,-0.214484,0.312677,0.05406,0
2024-12-13 15:33:25.684,-0.912264,2.75085,9.82553,-0.203488,0.3365,0.0754396,0
2024-12-13 15:33:25.686,-0.936192,2.75803,9.79652,-0.189439,0.359102,0.0968193,0
2024-12-13 15:33:25.688,-0.948156,2.76521,9.75584,-0.179055,0.375595,0.116977,0
2024-12-13 15:33:25.691,-0.964906,2.7676,9.69362,-0.166838,0.390866,0.137212,0
2024-12-13 15:33:25.693,-0.984048,2.7676,9.6027,-0.151566,0.402472,0.154926,0
2024-12-13 15:33:25.696,-0.99362,2.77478,9.49023,-0.140571,0.40858,0.170808,0
2024-12-13 15:33:25.698,-0.99362,2.77478,9.38734,-0.130187,0.409802,0.189134,0
2024-12-13 15:33:25.700,-0.974477,2.78674,9.2677,-0.11797,0.407359,0.203183,0
2024-12-13 15:33:25.705,-0.940978,2.81067,8.93959,-0.0978119,0.389033,0.227006,0
2024-12-13 15:33:25.705,-0.940978,2.81067,8.93959,-0.0978119,0.389033,0.227006,0
2024-12-13 15:33:25.707,-0.964906,2.80349,8.77687,-0.0923143,0.373151,0.234947,0
2024-12-13 15:33:25.710,-0.986441,2.79631,8.60668,-0.0843733,0.353604,0.242277,0
2024-12-13 15:33:25.714,-1.0678,2.75563,8.23819,-0.0752106,0.30718,0.256327,0
2024-12-13 15:33:25.714,-1.0678,2.75563,8.23819,-0.0752106,0.30718,0.256327,0
2024-12-13 15:33:25.719,-1.09651,2.75563,7.85265,-0.0672696,0.258923,0.269765,0
2024-12-13 15:33:25.719,-1.09173,2.75563,7.85265,-0.0672696,0.258923,0.269765,0
2024-12-13 15:33:25.724,-1.07737,2.72453,7.51496,-0.065437,0.2351,0.275874,0
2024-12-13 15:33:25.726,-1.07498,2.72931,7.35703,-0.0581068,0.194784,0.285647,0
2024-12-13 15:33:25.726,-1.07498,2.72931,7.35703,-0.0581068,0.194784,0.285647,0
2024-12-13 15:33:25.731,-1.03669,2.74128,7.12014,-0.057496,0.178902,0.288091,0
2024-12-13 15:33:25.731,-1.03669,2.74128,7.12014,-0.057496,0.178902,0.288091,0
2024-12-13 15:33:25.733,-1.01037,2.74128,6.98824,-0.0519984,0.150192,0.296643,0
2024-12-13 15:33:25.736,-0.986441,2.74367,6.85424,-0.0532201,0.135532,0.301529,0
2024-12-13 15:33:25.740,-0.929013,2.77478,6.58864,-0.0550526,0.102546,0.303362,0
2024-12-13 15:33:25.740,-0.929013,2.77478,6.58864,-0.0550526,0.102546,0.303362,0
2024-12-13 15:33:25.743,-0.902692,2.8011,6.44955,-0.057496,0.0854423,0.300919,0
2024-12-13 15:33:25.747,-0.801895,2.85374,6.2342,-0.0617719,0.0579541,0.298475,0
2024-12-13 15:33:25.747,-0.801895,2.85374,6.2342,-0.0617719,0.0579541,0.298475,0
2024-12-13 15:33:25.750,-0.737288,2.88245,6.15284,-0.0666587,0.0451263,0.295421,0
2024-12-13 15:33:25.752,-0.682254,2.89442,6.08585,-0.0709346,0.0353528,0.288702,0
2024-12-13 15:33:25.754,-0.639183,2.91835,6.02842,-0.0758214,0.0255792,0.282593,0
2024-12-13 15:33:25.757,-0.581755,2.93031,5.98056,-0.0794865,0.0170274,0.272209,0
2024-12-13 15:33:25.759,-0.514756,2.9351,5.92074,-0.0849841,0.00847551,0.262435,0
2024-12-13 15:33:25.761,-0.488435,2.95424,5.8678,-0.0917034,0.00236703,0.252662,0
2024-12-13 15:33:25.764,-0.464507,2.9662,5.82951,-0.0990336,-0.00679568,0.241666,0
2024-12-13 15:33:25.766,-0.442971,2.97817,5.79841,-0.107585,-0.0147367,0.232504,0
2024-12-13 15:33:25.768,-0.423829,2.99492,5.77448,-0.111861,-0.021456,0.219065,0
2024-12-13 15:33:25.771,-0.407079,2.99492,5.75773,-0.124078,-0.0300079,0.206237,0
2024-12-13 15:33:25.773,-0.404686,2.99252,5.76012,-0.132019,-0.0355055,0.192799,0
2024-12-13 15:33:25.776,-0.387936,2.99731,5.76252,-0.142404,-0.0428357,0.181193,0
2024-12-13 15:33:25.778,-0.371187,2.98056,5.76969,-0.156453,-0.0465007,0.167143,0
2024-12-13 15:33:25.780,-0.347258,2.97817,5.8008,-0.16867,-0.0489441,0.154926,0
2024-12-13 15:33:25.785,-0.344866,2.97099,5.88455,-0.196158,-0.0526092,0.127362,0
2024-12-13 15:33:25.785,-0.344866,2.97099,5.88455,-0.196158,-0.0526092,0.127362,0
2024-12-13 15:33:25.787,-0.402293,2.94945,5.95903,-0.208986,-0.0538309,0.11209,0
2024-12-13 15:33:25.790,-0.4669,2.91356,6.07149,-0.226701,-0.0556635,0.100484,0
2024-12-13 15:33:25.797,-0.598505,2.88963,6.3993,-0.266406,-0.0489441,0.0705529,0
2024-12-13 15:33:25.797,-0.598505,2.88963,6.3993,-0.266406,-0.0489441,0.0705529,0
2024-12-13 15:33:25.799,-0.643968,2.8657,6.56232,-0.280455,-0.0471116,0.0632227,0
2024-12-13 15:33:25.799,-0.643968,2.8657,6.56232,-0.280455,-0.0471116,0.0632227,0
2024-12-13 15:33:25.823,-0.801895,2.51605,7.87657,-0.354368,-0.0385597,-0.00152712,0
2024-12-13 15:33:25.823,-0.852443,2.45145,8.02493,-0.354368,-0.0385597,-0.00152712,0
2024-12-13 15:33:25.823,-0.852443,2.45145,8.02493,-0.354368,-0.0385597,-0.00152712,0
2024-12-13 15:33:25.823,-0.852443,2.45145,8.02493,-0.354368,-0.0385597,-0.00152712,0
2024-12-13 15:33:25.823,-0.852443,2.45145,8.02493,-0.354368,-0.0385597,-0.00152712,0
2024-12-13 15:33:25.823,-0.852443,2.45145,8.02493,-0.354368,-0.0385597,-0.00152712,0
2024-12-13 15:33:25.824,-0.852443,2.45145,8.02493,-0.354368,-0.0385597,-0.00152712,0
2024-12-13 15:33:25.827,-0.940978,2.36052,8.32194,-0.359865,-0.037338,-0.0119115,0
2024-12-13 15:33:25.827,-0.940978,2.36052,8.32194,-0.359865,-0.037338,-0.0119115,0
2024-12-13 15:33:25.830,-0.962513,2.34616,8.45115,-0.3562,-0.037338,-0.0155766,0
2024-12-13 15:33:25.830,-0.962513,2.34616,8.45115,-0.3562,-0.037338,-0.0155766,0
2024-12-13 15:33:25.830,-0.962513,2.34616,8.45115,-0.3562,-0.037338,-0.0155766,0
2024-12-13 15:33:25.832,-0.938585,2.3342,8.58515,-0.350703,-0.0367272,-0.0174091,0
2024-12-13 15:33:25.832,-0.938585,2.3342,8.58515,-0.350703,-0.0367272,-0.0174091,0
2024-12-13 15:33:25.834,-0.895514,2.32223,8.75055,-0.34154,-0.037338,-0.0210742,0
2024-12-13 15:33:25.837,-0.881157,2.30309,8.90609,-0.329934,-0.0355055,-0.0247393,0
2024-12-13 15:33:25.839,-0.893121,2.28634,9.04487,-0.317717,-0.0342838,-0.0277936,0
2024-12-13 15:33:25.841,-0.921835,2.26959,9.14297,-0.302446,-0.0287862,-0.0284044,0
2024-12-13 15:33:25.844,-0.938585,2.26002,9.21955,-0.28412,-0.0220669,-0.0296261,0
2024-12-13 15:33:25.846,-0.940978,2.25284,9.29402,-0.263352,-0.0177909,-0.0308478,0
2024-12-13 15:33:25.849,-0.96012,2.23849,9.35384,-0.243194,-0.0122933,-0.0284044,0
2024-12-13 15:33:25.851,-0.962513,2.23609,9.39931,-0.214484,-0.0104608,-0.0271827,0
2024-12-13 15:33:25.853,-0.940978,2.25045,9.42323,-0.185774,-0.00923906,-0.025961,0
2024-12-13 15:33:25.856,-0.917049,2.27199,9.41127,-0.159507,-0.0129041,-0.0222959,0
2024-12-13 15:33:25.858,-0.895514,2.27916,9.40648,-0.128965,-0.0177909,-0.0204634,0
2024-12-13 15:33:25.860,-0.862014,2.28156,9.36581,-0.100866,-0.0238994,-0.0174091,0
2024-12-13 15:33:25.863,-0.825823,2.3007,9.3012,-0.0703238,-0.0312296,-0.01802,0
2024-12-13 15:33:25.865,-0.804287,2.30788,9.24347,-0.041614,-0.0422248,-0.0161875,0
2024-12-13 15:33:25.867,-0.770788,2.31027,9.17169,-0.00862822,-0.0568851,-0.0167983,0
2024-12-13 15:33:25.870,-0.739681,2.33659,9.09751,0.0206925,-0.073378,-0.0174091,0
2024-12-13 15:33:25.872,-0.73011,2.36291,8.99701,0.0518457,-0.0868167,-0.0192417,0
2024-12-13 15:33:25.874,-0.727717,2.39163,8.89651,0.0817772,-0.10331,-0.0192417,0
2024-12-13 15:33:25.877,-0.737288,2.42513,8.80798,0.109265,-0.119192,-0.0186308,0
2024-12-13 15:33:25.879,-0.754038,2.46341,8.69522,0.137364,-0.136295,-0.01802,0
2024-12-13 15:33:25.884,-0.770788,2.58335,8.45354,0.189897,-0.163173,-0.0167983,0
2024-12-13 15:33:25.884,-0.770788,2.58335,8.45354,0.189897,-0.163173,-0.0167983,0
2024-12-13 15:33:25.886,-0.76361,2.62164,8.34587,0.216774,-0.173557,-0.0155766,0
2024-12-13 15:33:25.889,-0.739681,2.66471,8.2358,0.238154,-0.185774,-0.0143549,0
2024-12-13 15:33:25.891,-0.718146,2.73171,8.10868,0.261366,-0.198602,-0.0119115,0
2024-12-13 15:33:25.893,-0.691825,2.78435,7.98664,0.280303,-0.207764,-0.0119115,0
2024-12-13 15:33:25.896,-0.651147,2.84178,7.84307,0.295574,-0.21876,-0.0137441,0
2024-12-13 15:33:25.898,-0.608076,2.88245,7.68276,0.306569,-0.224868,-0.0167983,0
2024-12-13 15:33:25.900,-0.579362,2.92792,7.55324,0.316343,-0.232198,-0.0210742,0
2024-12-13 15:33:25.905,-0.54347,3.02602,7.32832,0.327338,-0.234031,-0.0290152,0
2024-12-13 15:33:25.905,-0.54347,3.02602,7.32832,0.327338,-0.234031,-0.0290152,0
2024-12-13 15:33:25.907,-0.533899,3.07149,7.21825,0.326727,-0.230977,-0.0326803,0
2024-12-13 15:33:25.910,-0.533899,3.09571,7.12732,0.323673,-0.22609,-0.0375671,0
2024-12-13 15:33:25.912,-0.524327,3.12682,7.06272,0.318786,-0.219371,-0.0436756,0
2024-12-13 15:33:25.917,-0.493221,3.16511,6.91885,0.299239,-0.199823,-0.0516166,0
2024-12-13 15:33:25.917,-0.493221,3.16511,6.91885,0.299239,-0.199823,-0.0516166,0
2024-12-13 15:33:25.919,-0.474078,3.17946,6.89013,0.286411,-0.188828,-0.0571142,0
2024-12-13 15:33:25.922,-0.447757,3.18425,6.88056,0.286411,-0.188828,-0.0571142,0
2024-12-13 15:33:25.924,-0.411865,3.19143,6.89253,0.253425,-0.16867,-0.0681095,0
2024-12-13 15:33:25.926,-0.368794,3.18903,6.92124,0.237543,-0.157675,-0.0760505,0
2024-12-13 15:33:25.929,-0.316152,3.201,6.97867,0.22044,-0.149123,-0.0839915,0
2024-12-13 15:33:25.931,-0.258425,3.22493,7.05314,0.202114,-0.142404,-0.0925434,0
2024-12-13 15:33:25.933,-0.239282,3.23689,7.08904,0.18501,-0.133852,-0.0998735,0
2024-12-13 15:33:25.936,-0.22014,3.26082,7.11536,0.167296,-0.126522,-0.109647,0
2024-12-13 15:33:25.938,-0.205783,3.29193,7.16561,0.146527,-0.121024,-0.120031,0
2024-12-13 15:33:25.940,-0.20339,3.31346,7.19193,0.129423,-0.114305,-0.131638,0
2024-12-13 15:33:25.943,-0.189033,3.33021,7.22303,0.11293,-0.111861,-0.142022,0
2024-12-13 15:33:25.945,-0.193819,3.33978,7.28525,0.0988809,-0.111251,-0.151796,0
2024-12-13 15:33:25.947,-0.198604,3.35892,7.35464,0.0799446,-0.111861,-0.16218,0
2024-12-13 15:33:25.950,-0.208176,3.38046,7.41207,0.0671168,-0.111251,-0.172564,0
2024-12-13 15:33:25.952,-0.227318,3.38764,7.4671,0.0530674,-0.113083,-0.179284,0
2024-12-13 15:33:25.955,-0.241675,3.39482,7.53889,0.0414613,-0.115526,-0.187225,0
2024-12-13 15:33:25.957,-0.260818,3.40678,7.60618,0.0329094,-0.116137,-0.192722,0
2024-12-13 15:33:25.959,-0.27996,3.41157,7.67079,0.0274118,-0.120413,-0.200052,0
2024-12-13 15:33:25.962,-0.299402,3.41635,7.75454,0.0206925,-0.127133,-0.20555,0
2024-12-13 15:33:25.964,-0.311366,3.41157,7.8359,0.0188599,-0.133241,-0.209215,0
2024-12-13 15:33:25.966,-0.313759,3.40917,7.91007,0.0188599,-0.141182,-0.213491,0
2024-12-13 15:33:25.969,-0.311366,3.42592,7.99861,0.0188599,-0.152788,-0.215324,0
2024-12-13 15:33:25.971,-0.316152,3.43789,8.08236,0.0182491,-0.166838,-0.217156,0
2024-12-13 15:33:25.973,-0.337687,3.44985,8.13021,0.0243575,-0.18272,-0.22021,0
2024-12-13 15:33:25.976,-0.354437,3.46182,8.15683,0.0292443,-0.200434,-0.221432,0
2024-12-13 15:33:25.978,-0.383151,3.45464,8.18076,0.038407,-0.217538,-0.222043,0
2024-12-13 15:33:25.980,-0.4334,3.46421,8.21426,0.0414613,-0.235253,-0.220821,0
2024-12-13 15:33:25.983,-0.469292,3.48574,8.2693,0.0481806,-0.251135,-0.221432,0
2024-12-13 15:33:25.985,-0.478864,3.49292,8.32433,0.0579541,-0.265795,-0.215935,0
2024-12-13 15:33:25.988,-0.488435,3.50728,8.37937,0.0652843,-0.278623,-0.212269,0
2024-12-13 15:33:25.990,-0.493221,3.53599,8.43919,0.074447,-0.291451,-0.209215,0
2024-12-13 15:33:25.992,-0.493221,3.55992,8.51097,0.0848314,-0.29817,-0.206161,0
2024-12-13 15:33:25.995,-0.50997,3.55992,8.58754,0.0952158,-0.3055,-0.203718,0
2024-12-13 15:33:25.997,-0.512363,3.58385,8.65215,0.103157,-0.307943,-0.196998,0
2024-12-13 15:33:25.999,-0.490828,3.62214,8.72423,0.111709,-0.309165,-0.193944,0
2024-12-13 15:33:26.002,-0.459721,3.67029,8.80559,0.122093,-0.306722,-0.19089,0
2024-12-13 15:33:26.004,-0.442971,3.7325,8.90848,0.130034,-0.301224,-0.187225,0
2024-12-13 15:33:26.006,-0.435793,3.78275,9.01376,0.139808,-0.291451,-0.186003,0
2024-12-13 15:33:26.009,-0.435793,3.82822,9.0999,0.147138,-0.278623,-0.18356,0
2024-12-13 15:33:26.011,-0.454935,3.88564,9.18126,0.153246,-0.266406,-0.178673,0
2024-12-13 15:33:26.013,-0.481256,3.94068,9.27488,0.159355,-0.245026,-0.178062,0
2024-12-13 15:33:26.016,-0.502792,4.00289,9.37299,0.162409,-0.225479,-0.176229,0
2024-12-13 15:33:26.020,-0.598505,4.14886,9.57877,0.163631,-0.180276,-0.168899,0
2024-12-13 15:33:26.020,-0.598505,4.14886,9.57877,0.163631,-0.180276,-0.168899,0
2024-12-13 15:33:26.023,-0.632004,4.24247,9.66491,0.160576,-0.160118,-0.165234,0
2024-12-13 15:33:26.028,-0.766002,4.45544,9.86621,0.150803,-0.116748,-0.153628,0
2024-12-13 15:33:26.030,-0.859622,4.57508,9.97628,0.142862,-0.0947577,-0.145687,0
2024-12-13 15:33:26.030,-0.859622,4.57508,9.97628,0.142862,-0.0947577,-0.145687,0
2024-12-13 15:33:26.032,-0.945763,4.68754,10.1007,0.136753,-0.0715455,-0.135914,0
2024-12-13 15:33:26.035,-1.02951,4.78355,10.2443,0.123926,-0.0519984,-0.124918,0
2024-12-13 15:33:26.039,-1.0989,4.9678,10.5389,0.101324,-0.0220669,-0.098041,0
2024-12-13 15:33:26.039,-1.16112,4.9678,10.5389,0.101324,-0.0220669,-0.098041,0
2024-12-13 15:33:26.042,-1.2329,5.07069,10.7231,0.0872748,-0.00984991,-0.0894891,0
2024-12-13 15:33:26.044,-1.29512,5.17119,10.9193,0.0707819,-0.00374144,-0.0754396,0
2024-12-13 15:33:26.046,-1.35015,5.28126,11.1302,0.0561216,-7.63559e-05,-0.0601685,0
2024-12-13 15:33:26.049,-1.41745,5.39402,11.3575,0.0408504,-0.00251974,-0.046119,0
2024-12-13 15:33:26.051,-1.49163,5.52323,11.5708,0.0255792,-0.00862822,-0.0326803,0
2024-12-13 15:33:26.053,-1.54905,5.65484,11.767,0.0096972,-0.0141258,-0.0143549,0
2024-12-13 15:33:26.056,-1.5993,5.7338,11.9752,-0.00923906,-0.0251211,0.00213797,0
2024-12-13 15:33:26.061,-1.67348,5.78644,12.4493,-0.0379489,-0.0532201,0.0369563,0
2024-12-13 15:33:26.061,-1.67348,5.78644,12.4493,-0.0379489,-0.0532201,0.0369563,0
2024-12-13 15:33:26.063,-1.67587,5.74098,12.7439,-0.0544418,-0.0703238,0.0546708,0
2024-12-13 15:33:26.065,-1.65434,5.6333,13.086,-0.0678804,-0.0892601,0.0717745,0
2024-12-13 15:33:26.068,-1.6328,5.50648,13.4501,-0.0807082,-0.113694,0.0882674,0
2024-12-13 15:33:26.070,-1.61127,5.37009,13.8332,-0.0923143,-0.13935,0.105371,0
2024-12-13 15:33:26.072,-1.57059,5.20469,14.2591,-0.105142,-0.170503,0.123086,0
2024-12-13 15:33:26.075,-1.54427,5.01326,14.6758,-0.111251,-0.205321,0.138433,0
2024-12-13 15:33:26.077,-1.52034,4.82184,15.0853,-0.119802,-0.239528,0.15065,0
2024-12-13 15:33:26.079,-1.45334,4.68754,15.5833,-0.127133,-0.265184,0.162867,0
2024-12-13 15:33:26.082,-1.36211,4.60379,16.1291,-0.128354,-0.289007,0.17936,0
2024-12-13 15:33:26.084,-1.31426,4.52961,16.6152,-0.120413,-0.315884,0.197075,0
2024-12-13 15:33:26.086,-1.29033,4.44586,17.0554,-0.111251,-0.339707,0.214789,0
2024-12-13 15:33:26.089,-1.24726,4.37169,17.4936,-0.0965902,-0.360476,0.23678,0
2024-12-13 15:33:26.091,-1.1683,4.29272,17.8959,-0.0794865,-0.381856,0.259992,0
2024-12-13 15:33:26.093,-1.07976,4.19432,18.2357,-0.0587177,-0.39957,0.280761,0
2024-12-13 15:33:26.097,-0.979263,4.101,18.516,-0.0110716,-0.425226,0.318633,0
2024-12-13 15:33:26.098,-0.837787,3.98854,18.7265,-0.0110716,-0.425226,0.318633,0
2024-12-13 15:33:26.101,-0.660718,3.84975,18.8848,0.0182491,-0.427669,0.333294,0
2024-12-13 15:33:26.103,-0.490828,3.70379,19.0164,0.0494023,-0.425226,0.344289,2
2024-12-13 15:33:26.105,-0.32333,3.54078,19.0977,0.0817772,-0.417285,0.353451,0
2024-12-13 15:33:26.108,-0.150748,3.38764,19.124,0.122093,-0.402625,0.362003,0
2024-12-13 15:33:26.110,0.00239282,3.25364,19.0738,0.167907,-0.38491,0.36689,0
2024-12-13 15:33:26.112,0.153141,3.11007,18.9374,0.216164,-0.361087,0.368723,0
2024-12-13 15:33:26.115,0.320937,2.9686,18.7385,0.264421,-0.334821,0.368112,0
2024-12-13 15:33:26.117,0.478864,2.85135,18.4561,0.319397,-0.304889,0.368112,0
2024-12-13 15:33:26.119,0.600898,2.72692,18.0969,0.37506,-0.27679,0.364447,0
2024-12-13 15:33:26.122,0.696611,2.59532,17.6973,0.430647,-0.246859,0.35956,0
2024-12-13 15:33:26.124,0.777966,2.48255,17.2711,0.485013,-0.218149,0.355895,0
2024-12-13 15:33:26.126,0.818644,2.38445,16.8209,0.538767,-0.189439,0.349786,0
2024-12-13 15:33:26.129,0.813859,2.31506,16.3445,0.594354,-0.163783,0.347343,0
2024-12-13 15:33:26.131,0.780359,2.26002,15.8249,0.646887,-0.138128,0.3449,0
2024-12-13 15:33:26.134,0.74686,2.22413,15.2767,0.700031,-0.113694,0.341845,0
2024-12-13 15:33:26.136,0.739681,2.22174,14.6949,0.751342,-0.0874275,0.343067,0
2024-12-13 15:33:26.138,0.749253,2.24088,14.1036,0.798988,-0.0629936,0.343678,0
2024-12-13 15:33:26.141,0.777966,2.28634,13.5362,0.841748,-0.0385597,0.343678,0
2024-12-13 15:33:26.143,0.80668,2.37248,12.9162,0.883896,-0.0153475,0.3449,0
2024-12-13 15:33:26.145,0.780359,2.48973,12.2626,0.918714,0.00419957,0.3449,0
2024-12-13 15:33:26.148,0.725324,2.60967,11.6378,0.949257,0.0194708,0.34551,0
2024-12-13 15:33:26.150,0.687039,2.73649,11.0465,0.971858,0.0347419,0.34551,0
2024-12-13 15:33:26.152,0.643968,2.90638,10.491,0.997514,0.0481806,0.347343,0
2024-12-13 15:33:26.155,0.624826,3.07867,9.95474,1.01217,0.0567324,0.347954,0
2024-12-13 15:33:26.157,0.667897,3.19861,9.47109,1.02317,0.0616192,0.3449,0
2024-12-13 15:33:26.159,0.663111,3.30628,9.04248,1.02989,0.0610084,0.341845,0
2024-12-13 15:33:26.162,0.596112,3.41396,8.56601,1.03355,0.0591758,0.333904,0
2024-12-13 15:33:26.164,0.541077,3.50967,8.11825,1.02683,0.0561216,0.328407,0
2024-12-13 15:33:26.167,0.524327,3.6006,7.7665,1.01523,0.0542891,0.321687,0
2024-12-13 15:33:26.169,0.531506,3.70618,7.436,0.999957,0.0487914,0.311303,0
2024-12-13 15:33:26.171,0.521934,3.81386,7.1345,0.976745,0.0402396,0.299697,0
2024-12-13 15:33:26.174,0.498006,3.91675,6.85903,0.948035,0.0329094,0.289923,0
2024-12-13 15:33:26.176,0.462114,4.04118,6.6006,0.910773,0.0219141,0.28015,0
2024-12-13 15:33:26.178,0.41665,4.17518,6.36102,0.863127,0.00786466,0.269765,0
2024-12-13 15:33:26.181,0.354437,4.29512,6.15763,0.811816,-0.0104608,0.262435,0
2024-12-13 15:33:26.183,0.299402,4.40519,6.01406,0.747677,-0.0275645,0.252662,0
2024-12-13 15:33:26.185,0.251246,4.51526,5.90638,0.67804,-0.0489441,0.248386,0
2024-12-13 15:33:26.188,0.217747,4.60858,5.84866,0.603517,-0.0745997,0.247164,0
2024-12-13 15:33:26.190,0.198604,4.65883,5.84387,0.522274,-0.0978119,0.243499,0
2024-12-13 15:33:26.192,0.20339,4.69233,5.88933,0.431869,-0.121024,0.241056,0
2024-12-13 15:33:26.195,0.224925,4.71147,5.97817,0.337722,-0.144236,0.241666,0
2024-12-13 15:33:26.197,0.27996,4.69233,6.10499,0.238765,-0.163783,0.241056,0
2024-12-13 15:33:26.199,0.366401,4.66361,6.2677,0.142251,-0.18272,0.239834,0
2024-12-13 15:33:26.202,0.459721,4.6014,6.4666,0.0402396,-0.199213,0.237391,0
2024-12-13 15:33:26.204,0.553041,4.5009,6.70349,-0.0617719,-0.209597,0.23678,0
2024-12-13 15:33:26.207,0.660718,4.37169,6.95952,-0.159507,-0.215095,0.234947,0
2024-12-13 15:33:26.209,0.773181,4.22333,7.28286,-0.256632,-0.21876,0.235558,0
2024-12-13 15:33:26.214,1.0008,3.92154,7.98186,-0.436832,-0.199823,0.230671,0
2024-12-13 15:33:26.214,1.0008,3.92154,7.98186,-0.436832,-0.199823,0.230671,0
2024-12-13 15:33:26.216,1.10608,3.7684,8.36979,-0.51441,-0.181498,0.225174,0
2024-12-13 15:33:26.218,1.21137,3.6341,8.77687,-0.584657,-0.155232,0.219065,0
2024-12-13 15:33:26.221,1.29751,3.52164,9.18126,-0.584657,-0.155232,0.219065,0
2024-12-13 15:33:26.223,1.33819,3.41157,9.56441,-0.708659,-0.0880384,0.207459,0
2024-12-13 15:33:26.225,1.36451,3.31107,9.97149,-0.755084,-0.0452791,0.204405,0
2024-12-13 15:33:26.228,1.36929,3.21296,10.3735,-0.794178,-0.00129805,0.201351,0
2024-12-13 15:33:26.230,1.34058,3.12682,10.7327,-0.824109,0.0439046,0.200129,0
2024-12-13 15:33:26.232,1.31426,3.0332,11.0704,-0.848543,0.0927724,0.203183,0
2024-12-13 15:33:26.235,1.29272,2.92552,11.3934,-0.862593,0.142251,0.206237,0
2024-12-13 15:33:26.237,1.26162,2.82981,11.6785,-0.869312,0.191119,0.212346,0
2024-12-13 15:33:26.240,1.24965,2.72453,11.9321,-0.868701,0.239376,0.217843,0
2024-12-13 15:33:26.242,1.22333,2.6336,12.1119,-0.862593,0.289465,0.226395,0
2024-12-13 15:33:26.247,1.18505,2.49691,12.3368,-0.829607,0.389644,0.243499,0
2024-12-13 15:33:26.247,1.18505,2.49691,12.3368,-0.829607,0.389644,0.243499,0
2024-12-13 15:33:26.249,1.1659,2.43709,12.4086,-0.805173,0.439123,0.252662,0
2024-12-13 15:33:26.251,1.15155,2.38923,12.454,-0.775852,0.489212,0.261824,0
2024-12-13 15:33:26.254,1.1348,2.33659,12.4588,-0.739202,0.543578,0.269765,0
2024-12-13 15:33:26.256,1.11565,2.28395,12.4373,-0.698275,0.593056,0.276485,0
2024-12-13 15:33:26.258,1.1013,2.25763,12.3607,-0.656126,0.641313,0.281372,0
2024-12-13 15:33:26.261,1.08215,2.26481,12.253,-0.611534,0.687127,0.289313,0
2024-12-13 15:33:26.263,1.07019,2.28873,12.131,-0.560223,0.728741,0.294199,0
2024-12-13 15:33:26.265,1.03669,2.32223,11.9752,-0.505858,0.768446,0.298475,0
2024-12-13 15:33:26.268,0.972084,2.36291,11.8005,-0.448438,0.803264,0.30214,0
2024-12-13 15:33:26.270,0.897907,2.37966,11.6091,-0.39224,0.831363,0.305195,0
2024-12-13 15:33:26.272,0.82343,2.4012,11.4102,-0.336653,0.855186,0.307027,0
2024-12-13 15:33:26.275,0.734896,2.43948,11.1948,-0.279234,0.875955,0.311914,0
2024-12-13 15:33:26.277,0.632004,2.48973,10.9555,-0.224257,0.88695,0.314357,0
2024-12-13 15:33:26.280,0.524327,2.54028,10.7136,-0.16867,0.891837,0.316801,0
2024-12-13 15:33:26.282,0.419043,2.57617,10.4384,-0.118581,0.891837,0.319855,0
2024-12-13 15:33:26.284,0.325723,2.6001,10.1438,-0.0691021,0.884507,0.322298,0
2024-12-13 15:33:26.287,0.224925,2.62642,9.87338,-0.0202343,0.868014,0.325963,0
2024-12-13 15:33:26.289,0.112463,2.64796,9.60509,0.0237467,0.84358,0.332683,0
2024-12-13 15:33:26.294,-0.0909273,2.66949,9.04726,0.0988809,0.777609,0.34551,0
2024-12-13 15:33:26.294,-0.0909273,2.66949,9.04726,0.0988809,0.777609,0.34551,0
2024-12-13 15:33:26.296,-0.145962,2.67428,8.7673,0.131867,0.741569,0.352841,0
2024-12-13 15:33:26.298,-0.174676,2.70539,8.50379,0.160576,0.698122,0.360782,0
2024-12-13 15:33:26.301,-0.200997,2.7341,8.26212,0.188675,0.659639,0.36689,0
2024-12-13 15:33:26.303,-0.236889,2.74367,8.00818,0.212498,0.619323,0.370555,0
2024-12-13 15:33:26.305,-0.285045,2.74846,7.71386,0.212498,0.619323,0.370555,0
2024-12-13 15:33:26.308,-0.308973,2.76521,7.42882,0.248538,0.555795,0.379107,0
2024-12-13 15:33:26.310,-0.311366,2.8011,7.18953,0.263199,0.532582,0.379718,0
2024-12-13 15:33:26.315,-0.0909273,2.85853,6.83271,0.277859,0.489212,0.377275,0
2024-12-13 15:33:26.315,-0.0909273,2.85853,6.83271,0.277859,0.489212,0.377275,0
2024-12-13 15:33:26.317,-0.133998,2.90638,6.63649,0.283968,0.471498,0.37422,0
2024-12-13 15:33:26.320,-0.22014,2.94945,6.32991,0.282746,0.456837,0.370555,0
2024-12-13 15:33:26.322,-0.342473,2.98056,6.09302,0.279692,0.44401,0.370555,0
2024-12-13 15:33:26.324,-0.4669,3.01167,5.88694,0.269918,0.431182,0.372388,0
2024-12-13 15:33:26.327,-0.576969,3.03559,5.70748,0.254647,0.420187,0.376664,0
2024-12-13 15:33:26.329,-0.670289,3.06431,5.56152,0.237543,0.410413,0.382161,0
2024-12-13 15:33:26.331,-0.710967,3.08106,5.42513,0.217996,0.404305,0.390102,0
2024-12-13 15:33:26.334,-0.665504,3.09571,5.31237,0.196006,0.401861,0.398043,0
2024-12-13 15:33:26.336,-0.555434,3.12682,5.23819,0.172793,0.403083,0.403541,0
2024-12-13 15:33:26.338,-0.442971,3.15075,5.16401,0.150192,0.403694,0.407817,0
2024-12-13 15:33:26.341,-0.366401,3.18425,5.06351,0.123926,0.409191,0.408428,0
2024-12-13 15:33:26.343,-0.342473,3.21057,4.97498,0.0952158,0.415911,0.41026,0
2024-12-13 15:33:26.345,-0.347258,3.23211,4.91516,0.0677277,0.423241,0.410871,0
2024-12-13 15:33:26.349,-0.368794,3.268,4.87448,0.00786466,0.442788,0.413315,0
2024-12-13 15:33:26.350,-0.41665,3.2991,4.86251,0.00786466,0.442788,0.413315,0
2024-12-13 15:33:26.353,-0.459721,3.32782,4.86012,-0.0226777,0.453783,0.418201,0
2024-12-13 15:33:26.355,-0.481256,3.335,4.84098,-0.0519984,0.465389,0.424921,0
2024-12-13 15:33:26.357,-0.498006,3.33978,4.82662,-0.0800973,0.476385,0.429197,0
2024-12-13 15:33:26.360,-0.507577,3.36132,4.82423,-0.107585,0.486158,0.436527,0
2024-12-13 15:33:26.364,-0.490828,3.38764,4.86251,-0.165616,0.50204,0.446911,0
2024-12-13 15:33:26.364,-0.490828,3.38764,4.86251,-0.165616,0.50204,0.446911,0
2024-12-13 15:33:26.367,-0.486042,3.3996,4.88166,-0.192493,0.506927,0.452409,0
2024-12-13 15:33:26.369,-0.500399,3.40917,4.91276,-0.219371,0.508759,0.457906,0
2024-12-13 15:33:26.371,-0.517149,3.43071,4.94387,-0.244415,0.506927,0.462793,0
2024-12-13 15:33:26.374,-0.533899,3.45464,4.99891,-0.267627,0.504483,0.467069,0
2024-12-13 15:33:26.376,-0.562612,3.46182,5.07548,-0.293894,0.496542,0.473788,0
2024-12-13 15:33:26.379,-0.608076,3.4666,5.16162,-0.317106,0.486158,0.479286,0
2024-12-13 15:33:26.381,-0.65354,3.47857,5.28604,-0.336653,0.47333,0.484784,0
2024-12-13 15:33:26.383,-0.667897,3.48096,5.42752,-0.353146,0.457448,0.492725,0
2024-12-13 15:33:26.386,-0.687039,3.4666,5.59023,-0.369639,0.43729,0.501887,0
2024-12-13 15:33:26.388,-0.722932,3.45703,5.7338,-0.385521,0.416521,0.508607,0
2024-12-13 15:33:26.390,-0.727717,3.45942,5.84626,-0.397738,0.395753,0.514104,0
2024-12-13 15:33:26.393,-0.720539,3.45224,6.0021,-0.410566,0.37193,0.520824,0
2024-12-13 15:33:26.395,-0.703789,3.44507,6.17677,-0.421561,0.349328,0.526321,0
2024-12-13 15:33:26.397,-0.655932,3.42592,6.3347,-0.429502,0.327949,0.529375,0
2024-12-13 15:33:26.400,-0.600898,3.39482,6.49292,-0.438665,0.309012,0.528765,0
2024-12-13 15:33:26.402,-0.536291,3.3661,6.64846,-0.443551,0.289465,0.526321,0
2024-12-13 15:33:26.404,-0.471685,3.34218,6.8016,-0.447217,0.27114,0.523267,0
2024-12-13 15:33:26.407,-0.426222,3.32543,6.95474,-0.452103,0.255869,0.518991,0
2024-12-13 15:33:26.409,-0.380758,3.2991,7.10579,-0.453325,0.244263,0.51105,0
2024-12-13 15:33:26.411,-0.34008,3.25843,7.25414,-0.450882,0.230213,0.506774,0
2024-12-13 15:33:26.414,-0.330509,3.21057,7.41685,-0.453325,0.219829,0.500666,0
2024-12-13 15:33:26.416,-0.335294,3.15075,7.58944,-0.449049,0.210666,0.497611,0
2024-12-13 15:33:26.418,-0.318545,3.09811,7.74497,-0.443551,0.200282,0.493336,0
2024-12-13 15:33:26.421,-0.287438,3.05474,7.90529,-0.437443,0.189286,0.490281,0
2024-12-13 15:33:26.423,-0.258425,3.00927,8.07518,-0.430724,0.177069,0.48967,0
2024-12-13 15:33:26.426,-0.258425,2.97577,8.21905,-0.425837,0.164242,0.48967,0
2024-12-13 15:33:26.428,-0.258425,2.9327,8.32672,-0.416063,0.155079,0.490892,0
2024-12-13 15:33:26.430,-0.234497,2.88724,8.45115,-0.409344,0.146527,0.491503,0
2024-12-13 15:33:26.433,-0.215354,2.83699,8.5684,-0.39957,0.141029,0.493336,0
2024-12-13 15:33:26.435,-0.172283,2.77478,8.67608,-0.388575,0.136143,0.494557,0
2024-12-13 15:33:26.437,-0.12682,2.72931,8.80798,-0.375747,0.139808,0.495168,0
2024-12-13 15:33:26.440,-0.0693919,2.68385,8.9348,-0.362309,0.142862,0.497001,0
2024-12-13 15:33:26.442,0.00957129,2.61924,9.06401,-0.345816,0.147138,0.497001,0
2024-12-13 15:33:26.444,0.0741775,2.56421,9.21476,-0.328101,0.152025,0.495168,0
2024-12-13 15:33:26.447,0.117248,2.52592,9.3682,-0.304278,0.161187,0.497001,0
2024-12-13 15:33:26.449,0.153141,2.49452,9.49741,-0.278623,0.173404,0.498222,0
2024-12-13 15:33:26.451,0.167498,2.46341,9.60987,-0.249913,0.188065,0.498222,0
2024-12-13 15:33:26.454,0.179462,2.42991,9.69602,-0.219981,0.203336,0.498833,0
2024-12-13 15:33:26.456,0.205783,2.39402,9.74627,-0.184552,0.222883,0.498833,0
2024-12-13 15:33:26.459,0.236889,2.37009,9.79173,-0.149734,0.241819,0.500055,0
2024-12-13 15:33:26.461,0.265603,2.37009,9.84228,-0.111251,0.264421,0.50372,0
2024-12-13 15:33:26.463,0.267996,2.39641,9.83271,-0.0709346,0.283968,0.506163,0
2024-12-13 15:33:26.466,0.253639,2.41316,9.77977,-0.0324513,0.30718,0.51105,0
2024-12-13 15:33:26.468,0.258425,2.41795,9.7008,0.00786466,0.331003,0.512883,0
2024-12-13 15:33:26.470,0.267996,2.4323,9.53809,0.0469589,0.35788,0.515326,0
2024-12-13 15:33:26.475,0.397508,2.44666,9.30599,0.11965,0.417743,0.51838,0
2024-12-13 15:33:26.475,0.397508,2.44666,9.30599,0.11965,0.417743,0.51838,0
2024-12-13 15:33:26.477,0.488435,2.47298,9.31316,0.158133,0.429349,0.518991,0
2024-12-13 15:33:26.480,0.320937,2.56182,9.17169,0.199671,0.440955,0.52571,0
2024-12-13 15:33:26.482,0.162712,2.62881,8.92044,0.234489,0.449507,0.536706,0
2024-12-13 15:33:26.484,-0.0143569,2.6671,8.73859,0.270529,0.453172,0.553199,0
2024-12-13 15:33:26.487,-0.179462,2.69103,8.54926,0.298628,0.456227,0.569081,0
2024-12-13 15:33:26.489,-0.301795,2.71735,8.37697,0.32184,0.45867,0.588628,0
2024-12-13 15:33:26.492,-0.387936,2.73649,8.23819,0.340776,0.463557,0.606342,0
2024-12-13 15:33:26.494,-0.431007,2.75324,8.12064,0.358491,0.464778,0.622835,0
2024-12-13 15:33:26.496,-0.426222,2.77478,8.01297,0.372617,0.457448,0.635663,0
2024-12-13 15:33:26.499,-0.395115,2.79871,7.89572,0.386055,0.448896,0.650323,0
2024-12-13 15:33:26.501,-0.352044,2.82742,7.77847,0.397051,0.441566,0.660708,0
2024-12-13 15:33:26.503,-0.318545,2.85374,7.64208,0.404381,0.430571,0.666816,0
2024-12-13 15:33:26.506,-0.294616,2.8681,7.50778,0.410489,0.418354,0.675368,0
2024-12-13 15:33:26.509,-0.297009,2.8992,7.39532,0.416598,0.397585,0.682698,0
2024-12-13 15:33:26.510,-0.330509,2.93031,7.2996,0.416598,0.397585,0.682698,0
2024-12-13 15:33:26.513,-0.368794,2.95663,7.23021,0.417209,0.384147,0.687585,0
2024-12-13 15:33:26.515,-0.426222,2.99731,7.14168,0.41782,0.374373,0.690639,0
2024-12-13 15:33:26.517,-0.483649,3.0332,7.03639,0.415376,0.368265,0.693693,0
2024-12-13 15:33:26.520,-0.493221,3.05713,6.95952,0.410489,0.360934,0.69858,0
2024-12-13 15:33:26.524,-0.442971,3.10289,6.91406,0.398272,0.344442,0.706521,0
2024-12-13 15:33:26.524,-0.442971,3.10289,6.91406,0.398272,0.344442,0.706521,0
2024-12-13 15:33:26.527,-0.421436,3.134,6.88056,0.386055,0.335279,0.710797,0
2024-12-13 15:33:26.529,-0.454935,3.16271,6.83749,0.379947,0.329781,0.713851,0
2024-12-13 15:33:26.532,-0.512363,3.18903,6.79681,0.36773,0.321229,0.71996,0
2024-12-13 15:33:26.534,-0.586541,3.19621,6.77049,0.354215,0.315121,0.726679,0
