timestamp,accel_x,accel_y,accel_z,gyro_x,gyro_y,gyro_z,step_timestamp
2024-12-13 15:21:35.764,-0.277567,2.00638,9.93799,0.00603212,-0.0403923,-0.0687203,0
2024-12-13 15:21:35.764,-0.277567,2.00638,9.93799,0.00603212,-0.0403923,-0.0687203,0
2024-12-13 15:21:35.764,-0.277567,2.00638,9.93799,0.00603212,-0.0403923,-0.0687203,0
2024-12-13 15:21:35.764,-0.277567,2.00638,9.93799,0.00603212,-0.0403923,-0.0687203,0
2024-12-13 15:21:35.764,-0.277567,2.00638,9.93799,0.00603212,-0.0403923,-0.0687203,0
2024-12-13 15:21:35.764,-0.277567,2.00638,9.93799,0.00603212,-0.0403923,-0.0687203,0
2024-12-13 15:21:35.764,-0.277567,2.00638,9.93799,0.00603212,-0.0403923,-0.0687203,0
2024-12-13 15:21:35.764,-0.277567,2.00638,9.93799,0.00603212,-0.0403923,-0.0687203,0
2024-12-13 15:21:35.764,-0.277567,2.00638,9.93799,0.00603212,-0.0403923,-0.0687203,0
2024-12-13 15:21:35.764,-0.277567,2.00638,9.93799,0.00603212,-0.0403923,-0.0687203,0
2024-12-13 15:21:35.764,-0.277567,2.00638,9.93799,0.00603212,-0.0403923,-0.0687203,0
2024-12-13 15:21:35.764,-0.277567,2.00638,9.93799,0.00603212,-0.0403923,-0.0687203,0
2024-12-13 15:21:35.764,-0.277567,2.00638,9.93799,0.00603212,-0.0403923,-0.0687203,0
2024-12-13 15:21:35.764,-0.277567,2.00638,9.93799,0.00603212,-0.0403923,-0.0687203,0
2024-12-13 15:21:35.764,-0.277567,2.00638,9.93799,0.00603212,-0.0403923,-0.0687203,0
2024-12-13 15:21:35.764,-0.277567,2.00638,9.93799,0.00603212,-0.0403923,-0.0687203,0
2024-12-13 15:21:35.764,-0.277567,2.00638,9.93799,0.00603212,-0.0403923,-0.0687203,0
2024-12-13 15:21:35.764,-0.277567,2.00638,9.93799,0.00603212,-0.0403923,-0.0687203,0
2024-12-13 15:21:35.764,-0.277567,2.00638,9.93799,0.00603212,-0.0403923,-0.0687203,0
2024-12-13 15:21:35.764,-0.277567,2.00638,9.93799,0.00603212,-0.0403923,-0.0687203,0
2024-12-13 15:21:35.764,-0.277567,2.00638,9.93799,0.00603212,-0.0403923,-0.0687203,0
2024-12-13 15:21:35.764,-0.277567,2.00638,9.93799,0.00603212,-0.0403923,-0.0687203,0
2024-12-13 15:21:35.764,-0.277567,2.00638,9.93799,0.00603212,-0.0403923,-0.0687203,0
2024-12-13 15:21:35.764,-0.277567,2.00638,9.93799,0.00603212,-0.0403923,-0.0687203,0
2024-12-13 15:21:35.764,-0.277567,2.00638,9.93799,0.00603212,-0.0403923,-0.0687203,0
2024-12-13 15:21:35.764,-0.277567,2.00638,9.93799,0.00603212,-0.0403923,-0.0687203,0
2024-12-13 15:21:35.764,-0.277567,2.00638,9.93799,0.00603212,-0.0403923,-0.0687203,0
2024-12-13 15:21:35.764,-0.277567,2.00638,9.93799,0.00603212,-0.0403923,-0.0687203,0
2024-12-13 15:21:35.764,-0.277567,2.00638,9.93799,0.00603212,-0.0403923,-0.0687203,0
2024-12-13 15:21:35.764,-0.277567,2.00638,9.93799,0.00603212,-0.0403923,-0.0687203,0
2024-12-13 15:21:35.764,-0.277567,2.00638,9.93799,0.00603212,-0.0403923,-0.0687203,0
2024-12-13 15:21:35.764,-0.277567,2.00638,9.93799,0.00603212,-0.0403923,-0.0687203,0
2024-12-13 15:21:35.764,-0.277567,2.00638,9.93799,0.00603212,-0.0403923,-0.0687203,0
2024-12-13 15:21:35.764,-0.277567,2.00638,9.93799,0.00603212,-0.0403923,-0.0687203,0
2024-12-13 15:21:35.764,-0.277567,2.00638,9.93799,0.00603212,-0.0403923,-0.0687203,0
2024-12-13 15:21:35.764,-0.277567,2.00638,9.93799,0.00603212,-0.0403923,-0.0687203,0
2024-12-13 15:21:35.764,-0.277567,2.00638,9.93799,0.00603212,-0.0403923,-0.0687203,0
2024-12-13 15:21:35.764,-0.277567,2.00638,9.93799,0.00603212,-0.0403923,-0.0687203,0
2024-12-13 15:21:35.764,-0.277567,2.00638,9.93799,0.00603212,-0.0403923,-0.0687203,0
2024-12-13 15:21:35.764,-0.277567,2.00638,9.93799,0.00603212,-0.0403923,-0.0687203,0
2024-12-13 15:21:35.764,-0.277567,2.00638,9.93799,0.00603212,-0.0403923,-0.0687203,0
2024-12-13 15:21:35.764,-0.277567,2.00638,9.93799,0.00603212,-0.0403923,-0.0687203,0
2024-12-13 15:21:35.764,-0.277567,2.00638,9.93799,0.00603212,-0.0403923,-0.0687203,0
2024-12-13 15:21:35.764,-0.277567,2.00638,9.93799,0.00603212,-0.0403923,-0.0687203,0
2024-12-13 15:21:35.764,-0.277567,2.00638,9.93799,0.00603212,-0.0403923,-0.0687203,0
2024-12-13 15:21:35.764,-0.277567,2.00638,9.93799,0.00603212,-0.0403923,-0.0687203,0
2024-12-13 15:21:35.764,-0.277567,2.00638,9.93799,0.00603212,-0.0403923,-0.0687203,0
2024-12-13 15:21:35.764,-0.277567,2.00638,9.93799,0.00603212,-0.0403923,-0.0687203,0
2024-12-13 15:21:35.764,-0.277567,2.00638,9.93799,0.00603212,-0.0403923,-0.0687203,0
2024-12-13 15:21:35.765,-0.277567,2.00638,9.93799,0.00725381,-0.0440574,-0.0687203,0
2024-12-13 15:21:35.771,-0.272782,2.03031,9.92842,0.00725381,-0.0440574,-0.0687203,0
2024-12-13 15:21:35.785,-0.335294,1.99681,9.94756,0.0200816,-0.0532201,-0.0705529,0
2024-12-13 15:21:35.785,-0.335294,1.99681,9.94756,0.0200816,-0.0532201,-0.0705529,0
2024-12-13 15:21:35.785,-0.335294,1.99681,9.94756,0.0200816,-0.0532201,-0.0705529,0
2024-12-13 15:21:35.785,-0.335294,1.99681,9.94756,0.0200816,-0.0532201,-0.0705529,0
2024-12-13 15:21:35.785,-0.335294,1.99681,9.94756,0.0200816,-0.0532201,-0.0705529,0
2024-12-13 15:21:35.788,-0.342473,1.9992,9.94756,0.0213033,-0.0532201,-0.0711637,0
2024-12-13 15:21:35.788,-0.342473,1.9992,9.94756,0.0213033,-0.0532201,-0.0711637,0
2024-12-13 15:21:35.788,-0.342473,1.9992,9.94756,0.0213033,-0.0532201,-0.0711637,0
2024-12-13 15:21:35.788,-0.342473,1.9992,9.94756,0.0213033,-0.0532201,-0.0711637,0
2024-12-13 15:21:35.790,-0.32333,2.00638,9.94756,0.0213033,-0.0532201,-0.0711637,0
2024-12-13 15:21:35.790,-0.32333,2.00638,9.94756,0.0213033,-0.0532201,-0.0711637,0
2024-12-13 15:21:35.795,-0.30658,2.02552,9.94038,0.0292443,-0.041614,-0.0674986,0
2024-12-13 15:21:35.795,-0.30658,2.02552,9.94038,0.0292443,-0.041614,-0.0674986,0
2024-12-13 15:21:35.795,-0.30658,2.02552,9.94038,0.0292443,-0.041614,-0.0674986,0
2024-12-13 15:21:35.795,-0.30658,2.02552,9.94038,0.0292443,-0.041614,-0.0674986,0
2024-12-13 15:21:35.797,-0.30658,2.05424,9.91885,0.030466,-0.0367272,-0.0687203,0
2024-12-13 15:21:35.797,-0.30658,2.05424,9.91885,0.030466,-0.0367272,-0.0687203,0
2024-12-13 15:21:35.797,-0.30658,2.05424,9.91885,0.030466,-0.0367272,-0.0687203,0
2024-12-13 15:21:35.797,-0.30658,2.05424,9.91885,0.030466,-0.0367272,-0.0687203,0
2024-12-13 15:21:35.799,-0.313759,2.0662,9.88056,0.030466,-0.0348946,-0.0668878,0
2024-12-13 15:21:35.799,-0.313759,2.0662,9.88056,0.030466,-0.0348946,-0.0668878,0
2024-12-13 15:21:35.799,-0.313759,2.0662,9.88056,0.030466,-0.0348946,-0.0668878,0
2024-12-13 15:21:35.799,-0.313759,2.0662,9.88056,0.030466,-0.0348946,-0.0668878,0
2024-12-13 15:21:35.802,-0.301795,2.06381,9.8686,0.0298552,-0.0300079,-0.0668878,0
2024-12-13 15:21:35.802,-0.301795,2.06381,9.8686,0.0298552,-0.0300079,-0.0668878,0
2024-12-13 15:21:35.802,-0.301795,2.06381,9.8686,0.0298552,-0.0300079,-0.0668878,0
2024-12-13 15:21:35.804,-0.292223,2.0662,9.85424,0.0292443,-0.0226777,-0.0681095,0
2024-12-13 15:21:35.804,-0.292223,2.0662,9.85424,0.0292443,-0.0226777,-0.0681095,0
2024-12-13 15:21:35.804,-0.292223,2.0662,9.85424,0.0292443,-0.0226777,-0.0681095,0
2024-12-13 15:21:35.804,-0.292223,2.0662,9.85424,0.0292443,-0.0226777,-0.0681095,0
2024-12-13 15:21:35.804,-0.292223,2.0662,9.85424,0.0292443,-0.0226777,-0.0681095,0
2024-12-13 15:21:35.804,-0.292223,2.0662,9.85424,0.0292443,-0.0226777,-0.0681095,0
2024-12-13 15:21:35.805,-0.292223,2.0662,9.85424,0.0261901,-0.0177909,-0.0668878,0
2024-12-13 15:21:35.806,-0.30658,2.08535,9.81805,0.0261901,-0.0177909,-0.0668878,0
2024-12-13 15:21:35.809,-0.32333,2.0997,9.78934,0.0292443,-0.013515,-0.0668878,0
2024-12-13 15:21:35.809,-0.32333,2.0997,9.78934,0.0292443,-0.013515,-0.0668878,0
2024-12-13 15:21:35.809,-0.32333,2.0997,9.78934,0.0292443,-0.013515,-0.0668878,0
2024-12-13 15:21:35.809,-0.32333,2.0997,9.78934,0.0292443,-0.013515,-0.0668878,0
2024-12-13 15:21:35.809,-0.32333,2.0997,9.78934,0.0292443,-0.013515,-0.0668878,0
2024-12-13 15:21:35.814,-0.320937,2.10209,9.76541,0.022525,-0.00923906,-0.0668878,0
2024-12-13 15:21:35.814,-0.320937,2.10209,9.76541,0.022525,-0.00923906,-0.0668878,0
2024-12-13 15:21:35.814,-0.320937,2.10209,9.76541,0.022525,-0.00923906,-0.0668878,0
2024-12-13 15:21:35.816,-0.335294,2.12363,9.74866,0.0206925,-0.00679568,-0.0662769,0
2024-12-13 15:21:35.816,-0.335294,2.12363,9.74866,0.0206925,-0.00679568,-0.0662769,0
2024-12-13 15:21:35.816,-0.335294,2.12363,9.74866,0.0206925,-0.00679568,-0.0662769,0
2024-12-13 15:21:35.818,-0.320937,2.11406,9.74387,0.0182491,-0.00557398,-0.0668878,0
2024-12-13 15:21:35.818,-0.320937,2.11406,9.74387,0.0182491,-0.00557398,-0.0668878,0
2024-12-13 15:21:35.818,-0.320937,2.11406,9.74387,0.0182491,-0.00557398,-0.0668878,0
2024-12-13 15:21:35.821,-0.292223,2.09731,9.72952,0.0133623,-0.00557398,-0.0656661,0
2024-12-13 15:21:35.823,-0.292223,2.10688,9.70559,0.0115297,-0.00618483,-0.0656661,0
2024-12-13 15:21:35.823,-0.289831,2.10688,9.70559,0.0115297,-0.00618483,-0.0656661,0
2024-12-13 15:21:35.823,-0.289831,2.10688,9.70559,0.0115297,-0.00618483,-0.0656661,0
2024-12-13 15:21:35.823,-0.289831,2.10688,9.70559,0.0115297,-0.00618483,-0.0656661,0
2024-12-13 15:21:35.825,-0.285045,2.09731,9.7008,0.00664296,-0.00923906,-0.0656661,0
2024-12-13 15:21:35.825,-0.285045,2.09731,9.7008,0.00664296,-0.00923906,-0.0656661,0
2024-12-13 15:21:35.828,-0.267996,2.09252,9.70559,0.00175619,-0.00984991,-0.0662769,0
2024-12-13 15:21:35.828,-0.267996,2.09252,9.70559,0.00175619,-0.00984991,-0.0662769,0
2024-12-13 15:21:35.830,-0.267996,2.08295,9.7008,0.00175619,-0.00984991,-0.0662769,0
2024-12-13 15:21:35.830,-0.267996,2.08295,9.7008,0.00175619,-0.00984991,-0.0662769,0
2024-12-13 15:21:35.832,-0.292223,2.07338,9.69362,-0.00435229,-0.0147367,-0.0687203,0
2024-12-13 15:21:35.835,-0.30658,2.08535,9.70319,-0.00923906,-0.0177909,-0.0705529,0
2024-12-13 15:21:35.835,-0.30658,2.08535,9.70319,-0.00923906,-0.0177909,-0.0705529,0
2024-12-13 15:21:35.835,-0.30658,2.08535,9.70319,-0.00923906,-0.0177909,-0.0705529,0
2024-12-13 15:21:35.837,-0.297009,2.08774,9.72473,-0.0129041,-0.0190126,-0.0711637,0
2024-12-13 15:21:35.837,-0.297009,2.08774,9.72473,-0.0129041,-0.0190126,-0.0711637,0
2024-12-13 15:21:35.837,-0.297009,2.08774,9.72473,-0.0129041,-0.0190126,-0.0711637,0
2024-12-13 15:21:35.837,-0.297009,2.08774,9.72473,-0.0129041,-0.0190126,-0.0711637,0
2024-12-13 15:21:35.839,-0.292223,2.08056,9.75105,-0.0147367,-0.0202343,-0.0736071,0
2024-12-13 15:21:35.839,-0.292223,2.08056,9.75105,-0.0147367,-0.0202343,-0.0736071,0
2024-12-13 15:21:35.839,-0.292223,2.08056,9.75105,-0.0147367,-0.0202343,-0.0736071,0
2024-12-13 15:21:35.842,-0.304188,2.07577,9.77498,-0.0165692,-0.0232886,-0.0736071,0
2024-12-13 15:21:35.842,-0.304188,2.07577,9.77498,-0.0165692,-0.0232886,-0.0736071,0
2024-12-13 15:21:35.842,-0.304188,2.07577,9.77498,-0.0165692,-0.0232886,-0.0736071,0
2024-12-13 15:21:35.842,-0.304188,2.07577,9.77498,-0.0165692,-0.0232886,-0.0736071,0
2024-12-13 15:21:35.843,-0.304188,2.07577,9.77498,-0.0196235,-0.0245102,-0.0736071,0
2024-12-13 15:21:35.844,-0.30658,2.07338,9.78216,-0.0196235,-0.0245102,-0.0736071,0
2024-12-13 15:21:35.844,-0.30658,2.07338,9.78216,-0.0196235,-0.0245102,-0.0736071,0
2024-12-13 15:21:35.847,-0.308973,2.0662,9.79412,-0.021456,-0.0251211,-0.0748288,0
2024-12-13 15:21:35.847,-0.308973,2.0662,9.79412,-0.021456,-0.0251211,-0.0748288,0
2024-12-13 15:21:35.847,-0.308973,2.0662,9.79412,-0.021456,-0.0251211,-0.0748288,0
2024-12-13 15:21:35.849,-0.32333,2.06381,9.81087,-0.0238994,-0.0281753,-0.0723854,0
2024-12-13 15:21:35.849,-0.32333,2.06381,9.81087,-0.0238994,-0.0281753,-0.0723854,0
2024-12-13 15:21:35.851,-0.335294,2.07577,9.8351,-0.0269536,-0.0287862,-0.0729962,0
2024-12-13 15:21:35.851,-0.335294,2.07577,9.8351,-0.0269536,-0.0287862,-0.0729962,0
2024-12-13 15:21:35.854,-0.337687,2.08295,9.86142,-0.0281753,-0.0312296,-0.0754396,0
2024-12-13 15:21:35.856,-0.328116,2.07577,9.87817,-0.0275645,-0.0324513,-0.0766613,0
2024-12-13 15:21:35.858,-0.32333,2.07099,9.87338,-0.0263428,-0.0330621,-0.077883,0
2024-12-13 15:21:35.861,-0.325723,2.07099,9.88296,-0.0306187,-0.0355055,-0.077883,0
2024-12-13 15:21:35.865,-0.335294,2.05424,9.91646,-0.0257319,-0.0367272,-0.0797156,0
2024-12-13 15:21:35.865,-0.335294,2.05424,9.91646,-0.0257319,-0.0367272,-0.0797156,0
2024-12-13 15:21:35.868,-0.337687,2.05424,9.92842,-0.0251211,-0.0355055,-0.077883,0
2024-12-13 15:21:35.870,-0.347258,2.05902,9.9332,-0.021456,-0.0367272,-0.0784939,0
2024-12-13 15:21:35.875,-0.366401,2.03749,9.98345,-0.0165692,-0.0306187,-0.0809373,0
2024-12-13 15:21:35.875,-0.364008,2.03749,9.98345,-0.0165692,-0.0306187,-0.0809373,0
2024-12-13 15:21:35.877,-0.364008,2.0351,10.0074,-0.0141258,-0.0306187,-0.0809373,0
2024-12-13 15:21:35.880,-0.364008,2.04945,10.005,-0.013515,-0.0300079,-0.082159,0
2024-12-13 15:21:35.882,-0.364008,2.06381,10.005,-0.0116825,-0.0263428,-0.0833807,0
2024-12-13 15:21:35.884,-0.366401,2.07577,9.98585,-0.00984991,-0.0232886,-0.082159,0
2024-12-13 15:21:35.887,-0.35683,2.08056,9.97867,-0.00496313,-0.0226777,-0.0846023,0
2024-12-13 15:21:35.889,-0.349651,2.08774,9.98585,-0.00496313,-0.021456,-0.0833807,0
2024-12-13 15:21:35.891,-0.342473,2.09252,9.97388,-0.00313059,-0.0190126,-0.0827698,0
2024-12-13 15:21:35.894,-0.330509,2.09252,9.96431,-0.00251974,-0.0208452,-0.082159,0
2024-12-13 15:21:35.898,-0.30658,2.11167,9.94995,-0.00374144,-0.0171801,-0.0833807,0
2024-12-13 15:21:35.898,-0.30658,2.11167,9.94995,-0.00374144,-0.0171801,-0.0833807,0
2024-12-13 15:21:35.903,-0.292223,2.07817,9.93799,-0.00557398,-0.0190126,-0.0876566,0
2024-12-13 15:21:35.903,-0.292223,2.07817,9.93799,-0.00557398,-0.0190126,-0.0876566,0
2024-12-13 15:21:35.905,-0.299402,2.08056,9.9332,-0.00435229,-0.0220669,-0.0864349,0
2024-12-13 15:21:35.908,-0.299402,2.09013,9.93081,-0.00679568,-0.0226777,-0.0882674,0
2024-12-13 15:21:35.917,-0.282652,2.0997,9.92842,-0.00618483,-0.0275645,-0.0894891,0
2024-12-13 15:21:35.917,-0.282652,2.0997,9.92842,-0.00618483,-0.0275645,-0.0894891,0
2024-12-13 15:21:35.917,-0.282652,2.0997,9.92842,-0.00618483,-0.0275645,-0.0894891,0
2024-12-13 15:21:35.917,-0.282652,2.0997,9.92842,-0.00618483,-0.0275645,-0.0894891,0
2024-12-13 15:21:35.920,-0.289831,2.10449,9.94278,-0.00862822,-0.033673,-0.0901,0
2024-12-13 15:21:35.922,-0.287438,2.12363,9.94278,-0.00862822,-0.0324513,-0.0888783,0
2024-12-13 15:21:35.924,-0.285045,2.14277,9.94756,-0.013515,-0.037338,-0.0888783,0
2024-12-13 15:21:35.927,-0.285045,2.14756,9.9691,-0.00435229,-0.0355055,-0.0882674,0
2024-12-13 15:21:35.929,-0.287438,2.15474,9.96431,-0.0019089,-0.0318404,-0.085824,0
2024-12-13 15:21:35.931,-0.289831,2.14277,9.96192,-0.00129805,-0.0330621,-0.0864349,0
2024-12-13 15:21:35.934,-0.285045,2.12842,9.9691,0.00236703,-0.0300079,-0.0839915,0
2024-12-13 15:21:35.936,-0.277567,2.1332,9.96431,0.00542127,-0.0287862,-0.0827698,0
2024-12-13 15:21:35.938,-0.277567,2.13081,9.95713,0.010308,-0.0306187,-0.0815481,0
2024-12-13 15:21:35.941,-0.285045,2.12602,9.94756,0.010308,-0.029397,-0.0797156,0
2024-12-13 15:21:35.943,-0.289831,2.11406,9.94756,0.0139731,-0.0306187,-0.0797156,0
2024-12-13 15:21:35.945,-0.275175,2.09731,9.96431,0.0170274,-0.0318404,-0.077883,0
2024-12-13 15:21:35.949,-0.272782,2.09252,9.96192,0.022525,-0.0306187,-0.0736071,0
2024-12-13 15:21:35.950,-0.292223,2.09492,9.94278,0.022525,-0.0306187,-0.0736071,0
2024-12-13 15:21:35.953,-0.301795,2.0997,9.93081,0.0261901,-0.0287862,-0.0717745,0
2024-12-13 15:21:35.957,-0.285045,2.11645,9.90449,0.0292443,-0.0281753,-0.0650552,0
2024-12-13 15:21:35.957,-0.285045,2.11645,9.90449,0.0292443,-0.0281753,-0.0650552,0
2024-12-13 15:21:35.960,-0.27996,2.0997,9.89492,0.0322986,-0.0251211,-0.0638335,0
2024-12-13 15:21:35.962,-0.289831,2.09252,9.87817,0.0335202,-0.021456,-0.0626118,0
2024-12-13 15:21:35.964,-0.272782,2.09731,9.85424,0.0359636,-0.0184018,-0.0607793,0
2024-12-13 15:21:35.967,-0.256032,2.09013,9.84467,0.0359636,-0.0171801,-0.0595576,0
2024-12-13 15:21:35.969,-0.239282,2.07817,9.8351,0.0371853,-0.0147367,-0.0583359,0
2024-12-13 15:21:35.971,-0.222533,2.07577,9.81566,0.0341311,-0.0116825,-0.0595576,0
2024-12-13 15:21:35.974,-0.215354,2.0686,9.79173,0.0335202,-0.00984991,-0.0601685,0
2024-12-13 15:21:35.976,-0.205783,2.06142,9.78694,0.0322986,-0.00740652,-0.0595576,0
2024-12-13 15:21:35.978,-0.208176,2.06381,9.77259,0.0292443,-0.00740652,-0.0601685,0
2024-12-13 15:21:35.981,-0.22014,2.06142,9.75823,0.0286335,-0.00801737,-0.0601685,0
2024-12-13 15:21:35.983,-0.236889,2.06142,9.7678,0.0255792,-0.00496313,-0.0595576,0
2024-12-13 15:21:35.988,-0.244068,2.0686,9.77977,0.022525,-0.00374144,-0.0601685,0
2024-12-13 15:21:35.988,-0.244068,2.0686,9.77977,0.022525,-0.00374144,-0.0601685,0
2024-12-13 15:21:35.990,-0.253639,2.07099,9.78216,0.0206925,-0.00251974,-0.062001,0
2024-12-13 15:21:35.993,-0.224925,2.0662,9.78216,0.0213033,0.000534491,-0.0607793,0
2024-12-13 15:21:35.995,-0.205783,2.06142,9.78455,0.0213033,0.000534491,-0.0607793,0
2024-12-13 15:21:35.997,-0.20339,2.05424,9.76302,0.0200816,0.00358873,-0.0632227,0
2024-12-13 15:21:36.001,-0.198604,2.05663,9.75105,0.0219141,0.00419957,-0.0674986,0
2024-12-13 15:21:36.002,-0.198604,2.05663,9.75344,0.0219141,0.00419957,-0.0674986,0
2024-12-13 15:21:36.004,-0.200997,2.05663,9.74387,0.0176382,0.00419957,-0.0681095,0
2024-12-13 15:21:36.007,-0.200997,2.04467,9.73191,0.0164165,0.00297788,-0.0687203,0
2024-12-13 15:21:36.009,-0.210568,2.03988,9.72234,0.0170274,0.00236703,-0.0693312,0
2024-12-13 15:21:36.011,-0.208176,2.05663,9.71277,0.0139731,0.00358873,-0.069942,0
2024-12-13 15:21:36.014,-0.205783,2.0662,9.71037,0.014584,0.00236703,-0.069942,0
2024-12-13 15:21:36.016,-0.208176,2.0662,9.71516,0.0133623,0.00114534,-0.0693312,0
2024-12-13 15:21:36.018,-0.22014,2.08056,9.71755,0.0121406,-7.63559e-05,-0.0711637,0
2024-12-13 15:21:36.021,-0.217747,2.09013,9.72473,0.0115297,-0.0019089,-0.069942,0
2024-12-13 15:21:36.023,-0.191426,2.08056,9.74148,0.0115297,-0.00251974,-0.0711637,0
2024-12-13 15:21:36.026,-0.179462,2.07817,9.74387,0.010308,-0.00618483,-0.0736071,0
2024-12-13 15:21:36.028,-0.160319,2.07099,9.73191,0.00908635,-0.00801737,-0.0748288,0
2024-12-13 15:21:36.030,-0.136391,2.0686,9.72473,0.00908635,-0.00801737,-0.0772722,0
2024-12-13 15:21:36.035,-0.122034,2.07577,9.72473,0.00236703,-0.013515,-0.0815481,0
2024-12-13 15:21:36.035,-0.117248,2.07577,9.72473,0.00236703,-0.013515,-0.0815481,0
2024-12-13 15:21:36.037,-0.136391,2.06381,9.71277,0.00114534,-0.0153475,-0.0833807,0
2024-12-13 15:21:36.040,-0.155533,2.05902,9.71037,-7.63559e-05,-0.0171801,-0.0870457,0
2024-12-13 15:21:36.042,-0.160319,2.05663,9.71516,-0.0019089,-0.021456,-0.0901,0
2024-12-13 15:21:36.044,-0.162712,2.03749,9.74387,-0.00313059,-0.0238994,-0.0913217,0
2024-12-13 15:21:36.047,-0.174676,2.02313,9.77019,-0.00496313,-0.0269536,-0.0913217,0
2024-12-13 15:21:36.049,-0.184247,2.0327,9.78934,-0.00679568,-0.0269536,-0.0913217,0
2024-12-13 15:21:36.051,-0.181855,2.02792,9.81805,-0.00557398,-0.0275645,-0.0925434,0
2024-12-13 15:21:36.054,-0.189033,2.0351,9.83271,-0.00618483,-0.0263428,-0.0919325,0
2024-12-13 15:21:36.056,-0.198604,2.04227,9.83271,-0.00435229,-0.0257319,-0.0937651,0
2024-12-13 15:21:36.059,-0.191426,2.01117,9.84706,-0.00618483,-0.0238994,-0.0919325,0
2024-12-13 15:21:36.061,-0.172283,1.98963,9.85664,-0.00374144,-0.0208452,-0.0919325,0
2024-12-13 15:21:36.063,-0.174676,1.98724,9.85185,-0.00496313,-0.0190126,-0.0931542,0
2024-12-13 15:21:36.068,-0.177069,1.99442,9.85903,-0.00313059,-0.0147367,-0.0913217,0
2024-12-13 15:21:36.068,-0.172283,1.99681,9.86142,-0.00313059,-0.0147367,-0.0913217,0
2024-12-13 15:21:36.070,-0.18664,1.99202,9.86142,-0.00251974,-0.0122933,-0.0913217,0
2024-12-13 15:21:36.073,-0.200997,1.98245,9.84946,-0.00313059,-0.00923906,-0.0888783,0
2024-12-13 15:21:36.075,-0.210568,1.98245,9.84706,-0.00313059,-0.00923906,-0.0888783,0
2024-12-13 15:21:36.077,-0.217747,1.99202,9.84467,0.000534491,-0.00557398,-0.0876566,0
2024-12-13 15:21:36.080,-0.229711,2.01117,9.82792,-0.00129805,-0.00618483,-0.0852132,0
2024-12-13 15:21:36.082,-0.236889,2.02552,9.81087,-0.000687203,-0.00251974,-0.0839915,0
2024-12-13 15:21:36.084,-0.222533,2.02074,9.79891,-0.00129805,-0.00435229,-0.0827698,0
2024-12-13 15:21:36.087,-0.217747,2.01835,9.78934,-7.63559e-05,-0.00618483,-0.0827698,0
2024-12-13 15:21:36.091,-0.205783,2.01117,9.75823,0.00175619,-0.00313059,-0.0797156,0
2024-12-13 15:21:36.091,-0.205783,2.01117,9.75823,0.00175619,-0.00313059,-0.0797156,0
2024-12-13 15:21:36.094,-0.189033,1.98963,9.7343,0.00297788,-0.00435229,-0.0791047,0
2024-12-13 15:21:36.096,-0.174676,1.98006,9.72952,0.00297788,-0.00435229,-0.0809373,0
2024-12-13 15:21:36.099,-0.181855,1.9681,9.71516,0.00175619,-0.00374144,-0.0791047,0
2024-12-13 15:21:36.101,-0.179462,1.9681,9.7008,0.00175619,-0.00801737,-0.0784939,0
2024-12-13 15:21:36.103,-0.177069,1.97288,9.68166,0.00236703,-0.0104608,-0.0803264,0
2024-12-13 15:21:36.106,-0.181855,1.96062,9.66491,-7.63559e-05,-0.0116825,-0.0797156,0
2024-12-13 15:21:36.110,-0.155533,1.9343,9.6697,-0.00129805,-0.0141258,-0.0803264,0
2024-12-13 15:21:36.110,-0.155533,1.9343,9.6697,-0.00129805,-0.0141258,-0.0803264,0
2024-12-13 15:21:36.113,-0.162712,1.93669,9.65773,-0.000687203,-0.0122933,-0.082159,0
2024-12-13 15:21:36.115,-0.16989,1.94148,9.65773,-0.00129805,-0.0153475,-0.0833807,0
2024-12-13 15:21:36.117,-0.179462,1.94148,9.63141,-0.00251974,-0.013515,-0.0839915,0
2024-12-13 15:21:36.120,-0.16989,1.94148,9.59552,-0.00313059,-0.0122933,-0.0846023,0
2024-12-13 15:21:36.122,-0.145962,1.94387,9.5692,-0.00313059,-0.0122933,-0.0864349,0
2024-12-13 15:21:36.124,-0.150748,1.95344,9.53091,-0.00557398,-0.0141258,-0.0864349,0
2024-12-13 15:21:36.127,-0.160319,1.9657,9.49023,-0.00740652,-0.0141258,-0.0870457,0
2024-12-13 15:21:36.129,-0.157926,1.97288,9.44716,-0.00984991,-0.0141258,-0.0876566,0
2024-12-13 15:21:36.132,-0.177069,1.98006,9.41127,-0.0116825,-0.0147367,-0.0901,0
2024-12-13 15:21:36.134,-0.212961,1.97528,9.38495,-0.0159584,-0.0184018,-0.0888783,0
2024-12-13 15:21:36.136,-0.229711,1.97049,9.36102,-0.0184018,-0.0190126,-0.0907108,0
2024-12-13 15:21:36.139,-0.236889,1.94865,9.32752,-0.0208452,-0.0226777,-0.0907108,0
2024-12-13 15:21:36.141,-0.248854,1.92473,9.30838,-0.0226777,-0.0257319,-0.0907108,0
2024-12-13 15:21:36.143,-0.272782,1.91755,9.30599,-0.0245102,-0.0306187,-0.0888783,0
2024-12-13 15:21:36.146,-0.282652,1.91755,9.3012,-0.0281753,-0.0348946,-0.0894891,0
2024-12-13 15:21:36.148,-0.289831,1.91516,9.28924,-0.029397,-0.0434465,-0.0870457,0
2024-12-13 15:21:36.150,-0.294616,1.89601,9.29402,-0.0318404,-0.0519984,-0.0864349,0
2024-12-13 15:21:36.153,-0.275175,1.89123,9.32274,-0.0361163,-0.0587177,-0.0870457,0
2024-12-13 15:21:36.155,-0.253639,1.88883,9.35863,-0.0379489,-0.0678804,-0.0882674,0
2024-12-13 15:21:36.160,-0.234497,1.84576,9.44956,-0.0379489,-0.0831516,-0.0894891,0
2024-12-13 15:21:36.160,-0.205783,1.84576,9.44956,-0.0379489,-0.0831516,-0.0894891,0
2024-12-13 15:21:36.162,-0.165105,1.84337,9.47827,-0.0397814,-0.0892601,-0.0925434,0
2024-12-13 15:21:36.165,-0.131605,1.84816,9.50459,-0.0397814,-0.0892601,-0.0925434,0
2024-12-13 15:21:36.167,-0.122034,1.84816,9.53809,-0.041614,-0.10331,-0.098041,0
2024-12-13 15:21:36.169,-0.0885344,1.86491,9.57638,-0.0422248,-0.106975,-0.101095,0
2024-12-13 15:21:36.172,-0.0550349,1.87687,9.59313,-0.0428357,-0.109418,-0.102317,0
2024-12-13 15:21:36.174,-0.0550349,1.87926,9.60509,-0.0452791,-0.114305,-0.105371,0
2024-12-13 15:21:36.176,-0.0574277,1.88883,9.61705,-0.0458899,-0.113694,-0.10476,0
2024-12-13 15:21:36.180,-0.0382852,1.88405,9.60987,-0.0526092,-0.11064,-0.110258,0
2024-12-13 15:21:36.181,-0.0191426,1.88883,9.6003,-0.0526092,-0.11064,-0.110258,0
2024-12-13 15:21:36.184,-0.00478565,1.91037,9.61227,-0.0538309,-0.106364,-0.109647,0
2024-12-13 15:21:36.186,0.0287139,1.91994,9.60509,-0.0550526,-0.100866,-0.113312,0
2024-12-13 15:21:36.188,0.0693919,1.91755,9.58834,-0.0593285,-0.0929251,-0.115756,0
2024-12-13 15:21:36.190,0.0981057,1.92233,9.58834,-0.0642153,-0.0904818,-0.117588,0
2024-12-13 15:21:36.193,0.102891,1.95105,9.57159,-0.0666587,-0.0862058,-0.120642,0
2024-12-13 15:21:36.195,0.0957129,1.97049,9.54288,-0.0739889,-0.0800973,-0.123086,0
2024-12-13 15:21:36.197,0.0837488,1.9657,9.50938,-0.0800973,-0.0758214,-0.12614,0
2024-12-13 15:21:36.200,0.066999,1.95583,9.48306,-0.0849841,-0.0715455,-0.126751,0
2024-12-13 15:21:36.202,0.0693919,1.95823,9.46391,-0.0953685,-0.0709346,-0.127362,0
2024-12-13 15:21:36.205,0.081356,1.96301,9.45434,-0.101477,-0.0691021,-0.129805,0
2024-12-13 15:21:36.207,0.081356,1.9657,9.44238,-0.108807,-0.0703238,-0.131027,0
2024-12-13 15:21:36.209,0.0789631,1.9657,9.44477,-0.116748,-0.0703238,-0.132248,0
2024-12-13 15:21:36.212,0.081356,1.97528,9.46391,-0.124689,-0.0691021,-0.132859,0
2024-12-13 15:21:36.214,0.0789631,1.9992,9.47348,-0.132019,-0.0697129,-0.134692,0
2024-12-13 15:21:36.216,0.0909273,2.00877,9.48306,-0.142404,-0.0727672,-0.135914,0
2024-12-13 15:21:36.219,0.114855,2.00877,9.49023,-0.149123,-0.0745997,-0.1408,0
2024-12-13 15:21:36.221,0.112463,2.00399,9.49981,-0.155842,-0.0782648,-0.1408,0
2024-12-13 15:21:36.226,0.107677,1.98724,9.54048,-0.173557,-0.0837624,-0.145687,0
2024-12-13 15:21:36.226,0.102891,1.98724,9.54048,-0.173557,-0.0837624,-0.145687,0
2024-12-13 15:21:36.228,0.0885344,1.9992,9.56202,-0.181498,-0.0843733,-0.148741,0
2024-12-13 15:21:36.230,0.0646062,2.00399,9.58355,-0.183331,-0.0819299,-0.151185,0
2024-12-13 15:21:36.233,0.0526421,1.98485,9.61705,-0.190661,-0.0807082,-0.155461,0
2024-12-13 15:21:36.235,0.0430708,1.95344,9.66491,-0.194937,-0.0788757,-0.157904,0
2024-12-13 15:21:36.238,0.026321,1.94626,9.69841,-0.198602,-0.0758214,-0.160958,0
2024-12-13 15:21:36.240,0.0239282,1.95105,9.72473,-0.205321,-0.0739889,-0.161569,0
2024-12-13 15:21:36.242,0.026321,1.94865,9.74148,-0.208375,-0.0703238,-0.16218,0
2024-12-13 15:21:36.245,0.0143569,1.96062,9.75105,-0.210208,-0.0629936,-0.16218,0
2024-12-13 15:21:36.247,0.0191426,1.98006,9.76302,-0.213873,-0.0568851,-0.163402,0
2024-12-13 15:21:36.249,0.0215354,1.98963,9.74866,-0.216927,-0.0489441,-0.165234,0
2024-12-13 15:21:36.252,-0.00239282,1.99681,9.72234,-0.217538,-0.0434465,-0.165845,0
2024-12-13 15:21:36.254,-0.0215354,2.01595,9.70798,-0.220592,-0.0385597,-0.164623,0
2024-12-13 15:21:36.257,-0.0239282,2.02552,9.69362,-0.224257,-0.0306187,-0.166456,0
2024-12-13 15:21:36.259,-0.026321,2.03031,9.6673,-0.227922,-0.0257319,-0.165234,0
2024-12-13 15:21:36.263,-0.0598206,2.03031,9.6338,-0.229144,-0.0208452,-0.167678,0
2024-12-13 15:21:36.263,-0.0598206,2.03031,9.6338,-0.229144,-0.0208452,-0.167678,0
2024-12-13 15:21:36.266,-0.0861416,2.02313,9.62663,-0.236474,-0.00923906,-0.164623,0
2024-12-13 15:21:36.268,-0.0957129,2.0327,9.61705,-0.239528,-0.00740652,-0.164623,0
2024-12-13 15:21:36.271,-0.0933201,2.04227,9.60748,-0.241361,-0.00435229,-0.163402,0
2024-12-13 15:21:36.273,-0.0909273,2.04945,9.58595,-0.241972,0.00114534,-0.16218,0
2024-12-13 15:21:36.275,-0.105284,2.06381,9.55963,-0.241972,0.00358873,-0.160347,0
2024-12-13 15:21:36.278,-0.122034,2.09492,9.52613,-0.243804,0.00236703,-0.159126,0
2024-12-13 15:21:36.282,-0.155533,2.13799,9.45195,-0.249913,0.00114534,-0.156071,0
2024-12-13 15:21:36.282,-0.155533,2.13799,9.45195,-0.249913,0.00114534,-0.156071,0
2024-12-13 15:21:36.285,-0.160319,2.15952,9.41366,-0.252967,-0.00251974,-0.154239,0
2024-12-13 15:21:36.287,-0.165105,2.16909,9.38734,-0.254189,-0.00557398,-0.152406,0
2024-12-13 15:21:36.289,-0.136391,2.17149,9.36341,-0.255411,-0.0122933,-0.152406,0
2024-12-13 15:21:36.292,-0.105284,2.19302,9.36341,-0.255411,-0.0122933,-0.152406,0
2024-12-13 15:21:36.296,-0.0861416,2.23609,9.32034,-0.265795,-0.033673,-0.153017,0
2024-12-13 15:21:36.299,-0.066999,2.23131,9.3012,-0.268849,-0.0391706,-0.154239,0
2024-12-13 15:21:36.299,-0.066999,2.23131,9.3012,-0.268849,-0.0391706,-0.154239,0
2024-12-13 15:21:36.301,-0.040678,2.23131,9.31077,-0.274958,-0.0446682,-0.156071,0
2024-12-13 15:21:36.303,-0.0167498,2.22891,9.32992,-0.278623,-0.0489441,-0.155461,0
2024-12-13 15:21:36.306,0.0143569,2.22891,9.35624,-0.279234,-0.0513875,-0.157293,0
2024-12-13 15:21:36.308,0.0334995,2.22174,9.39452,-0.283509,-0.0538309,-0.159126,0
2024-12-13 15:21:36.311,0.0239282,2.22174,9.41366,-0.282899,-0.0556635,-0.159737,0
2024-12-13 15:21:36.313,0.0167498,2.24088,9.42323,-0.287175,-0.0599394,-0.16218,0
2024-12-13 15:21:36.315,0.0143569,2.24806,9.43998,-0.285953,-0.0599394,-0.159737,0
2024-12-13 15:21:36.318,0.0167498,2.24806,9.46391,-0.285953,-0.0623828,-0.160958,0
2024-12-13 15:21:36.320,0.0215354,2.24806,9.48545,-0.289618,-0.0636045,-0.162791,0
2024-12-13 15:21:36.322,0.0358923,2.25763,9.50459,-0.292061,-0.0648262,-0.161569,0
2024-12-13 15:21:36.325,0.0622134,2.26481,9.52852,-0.293283,-0.0660479,-0.160347,0
2024-12-13 15:21:36.327,0.0837488,2.26959,9.56441,-0.290229,-0.0648262,-0.16218,0
2024-12-13 15:21:36.329,0.0933201,2.28156,9.6003,-0.293283,-0.0648262,-0.163402,0
2024-12-13 15:21:36.332,0.11007,2.27677,9.63141,-0.295116,-0.0666587,-0.163402,0
2024-12-13 15:21:36.334,0.129212,2.26481,9.66252,-0.292061,-0.0691021,-0.165234,0
2024-12-13 15:21:36.336,0.138784,2.27438,9.70319,-0.293283,-0.0697129,-0.166456,0
2024-12-13 15:21:36.339,0.162712,2.29831,9.7343,-0.293283,-0.0691021,-0.164623,0
2024-12-13 15:21:36.341,0.189033,2.32223,9.74148,-0.293894,-0.0727672,-0.166456,0
2024-12-13 15:21:36.344,0.20339,2.32702,9.75344,-0.294505,-0.0745997,-0.167678,0
2024-12-13 15:21:36.346,0.22014,2.33898,9.76302,-0.296337,-0.077654,-0.168899,0
2024-12-13 15:21:36.348,0.239282,2.36291,9.75344,-0.296948,-0.0843733,-0.170732,0
2024-12-13 15:21:36.351,0.246461,2.37248,9.76541,-0.298781,-0.0910926,-0.171343,0
2024-12-13 15:21:36.353,0.260818,2.37966,9.77977,-0.301835,-0.0990336,-0.171343,0
2024-12-13 15:21:36.355,0.275175,2.38445,9.79412,-0.296948,-0.106364,-0.172564,0
2024-12-13 15:21:36.358,0.275175,2.38206,9.82553,-0.302446,-0.114305,-0.172564,0
2024-12-13 15:21:36.360,0.263211,2.37488,9.84946,-0.300613,-0.124078,-0.172564,0
2024-12-13 15:21:36.362,0.256032,2.37727,9.86621,-0.303667,-0.130187,-0.171343,0
2024-12-13 15:21:36.365,0.256032,2.3988,9.88056,-0.304889,-0.135684,-0.16951,0
2024-12-13 15:21:36.367,0.246461,2.40598,9.91167,-0.302446,-0.142404,-0.168899,0
2024-12-13 15:21:36.369,0.229711,2.41077,9.94995,-0.304889,-0.149123,-0.167067,0
2024-12-13 15:21:36.372,0.217747,2.4347,9.98824,-0.308554,-0.155232,-0.163402,0
2024-12-13 15:21:36.374,0.215354,2.44427,10.0481,-0.307333,-0.16134,-0.16218,0
2024-12-13 15:21:36.377,0.210568,2.43709,10.1031,-0.307943,-0.167449,-0.161569,0
2024-12-13 15:21:36.379,0.200997,2.42991,10.1533,-0.307333,-0.169281,-0.157904,0
2024-12-13 15:21:36.381,0.174676,2.4323,10.2132,-0.307943,-0.173557,-0.153017,0
2024-12-13 15:21:36.384,0.150748,2.4347,10.2826,-0.307333,-0.172946,-0.149352,0
2024-12-13 15:21:36.386,0.124427,2.42513,10.3615,-0.309165,-0.172946,-0.144465,0
2024-12-13 15:21:36.388,0.105284,2.41795,10.4551,-0.308554,-0.174168,-0.139579,0
2024-12-13 15:21:36.391,0.100499,2.3988,10.5556,-0.304278,-0.170503,-0.136524,0
2024-12-13 15:21:36.393,0.0789631,2.38923,10.6561,-0.303667,-0.16867,-0.131027,0
2024-12-13 15:21:36.395,0.0622134,2.38684,10.7303,-0.299392,-0.166838,-0.123697,0
2024-12-13 15:21:36.398,0.0550349,2.38206,10.8093,-0.299392,-0.164394,-0.118199,0
2024-12-13 15:21:36.400,0.0598206,2.38923,10.8954,-0.295116,-0.16134,-0.113312,0
2024-12-13 15:21:36.402,0.0765703,2.39402,10.9627,-0.294505,-0.155842,-0.107204,0
2024-12-13 15:21:36.405,0.0837488,2.39163,11.0489,-0.291451,-0.150345,-0.102928,0
2024-12-13 15:21:36.407,0.081356,2.38684,11.1446,-0.289618,-0.147291,-0.0962084,0
2024-12-13 15:21:36.410,0.0526421,2.3677,11.2403,-0.287785,-0.144236,-0.0913217,0
2024-12-13 15:21:36.412,0.00478565,2.35334,11.3336,-0.284731,-0.138739,-0.0864349,0
2024-12-13 15:21:36.414,-0.040678,2.35573,11.4174,-0.279844,-0.131409,-0.077883,0
2024-12-13 15:21:36.417,-0.107677,2.35573,11.5182,-0.273736,-0.1253,-0.0687203,0
2024-12-13 15:21:36.419,-0.162712,2.3342,11.5947,-0.268238,-0.116137,-0.0589468,0
2024-12-13 15:21:36.421,-0.196211,2.29352,11.6569,-0.259076,-0.105753,-0.0473407,0
2024-12-13 15:21:36.424,-0.241675,2.25284,11.7359,-0.252356,-0.0984228,-0.0357346,0
2024-12-13 15:21:36.426,-0.27996,2.2002,11.7957,-0.243194,-0.0874275,-0.0235176,0
2024-12-13 15:21:36.428,-0.30658,2.16192,11.8484,-0.234642,-0.0739889,-0.00885729,0
2024-12-13 15:21:36.431,-0.316152,2.14517,11.8962,-0.225479,-0.0568851,0.00274881,0
2024-12-13 15:21:36.433,-0.316152,2.09731,11.9345,-0.214484,-0.0330621,0.0137441,0
2024-12-13 15:21:36.435,-0.294616,2.04945,11.9704,-0.205932,-0.00557398,0.0247393,0
2024-12-13 15:21:36.438,-0.289831,2.01835,11.9895,-0.19738,0.022525,0.0369563,0
2024-12-13 15:21:36.440,-0.313759,2.00877,12.023,-0.183331,0.0512348,0.0455081,0
2024-12-13 15:21:36.442,-0.344866,2.01117,12.0589,-0.170503,0.0750579,0.0552817,0
2024-12-13 15:21:36.445,-0.371187,2.03031,12.076,-0.163173,0.0964375,0.0662769,0
2024-12-13 15:21:36.447,-0.397508,2.05185,12.0879,-0.149734,0.114763,0.0766613,0
2024-12-13 15:21:36.450,-0.411865,2.0686,12.0999,-0.142404,0.126369,0.0882674,0
2024-12-13 15:21:36.452,-0.409472,2.10688,12.1071,-0.13263,0.139808,0.098041,0
2024-12-13 15:21:36.454,-0.414257,2.13081,12.1095,-0.120413,0.153246,0.108425,0
2024-12-13 15:21:36.457,-0.409472,2.14277,12.1023,-0.10392,0.165463,0.11881,0
2024-12-13 15:21:36.459,-0.395115,2.15234,12.0808,-0.0862058,0.175848,0.127972,0
2024-12-13 15:21:36.461,-0.373579,2.1667,12.035,-0.0709346,0.183178,0.135379,0
2024-12-13 15:21:36.464,-0.354437,2.18584,11.9776,-0.0562743,0.18501,0.142098,0
2024-12-13 15:21:36.466,-0.347258,2.20259,11.9082,-0.0403923,0.187454,0.148818,0
2024-12-13 15:21:36.468,-0.330509,2.22652,11.8101,-0.0196235,0.18501,0.153094,0
2024-12-13 15:21:36.471,-0.318545,2.25524,11.7024,-0.00496313,0.180124,0.15798,0
2024-12-13 15:21:36.473,-0.325723,2.26241,11.5947,0.0139731,0.173404,0.161645,0
2024-12-13 15:21:36.475,-0.320937,2.26959,11.47,0.0329094,0.163631,0.165921,0
2024-12-13 15:21:36.478,-0.304188,2.29831,11.3169,0.0518457,0.155079,0.169586,0
2024-12-13 15:21:36.480,-0.297009,2.31984,11.1709,0.0720036,0.142862,0.172641,0
2024-12-13 15:21:36.482,-0.287438,2.33181,11.0441,0.0891073,0.130034,0.174473,0
2024-12-13 15:21:36.485,-0.263211,2.34856,10.905,0.104379,0.11965,0.177527,0
2024-12-13 15:21:36.487,-0.239282,2.37248,10.7495,0.125758,0.110487,0.176306,0
2024-12-13 15:21:36.490,-0.222533,2.37727,10.5939,0.144694,0.101324,0.176917,0
2024-12-13 15:21:36.492,-0.215354,2.37966,10.4408,0.159966,0.0933833,0.175695,0
2024-12-13 15:21:36.494,-0.208176,2.37966,10.2802,0.178902,0.0842206,0.176917,0
2024-12-13 15:21:36.497,-0.205783,2.37488,10.1127,0.193562,0.0762796,0.175084,0
2024-12-13 15:21:36.499,-0.210568,2.37966,9.97628,0.205168,0.0695602,0.173252,0
2024-12-13 15:21:36.501,-0.208176,2.38445,9.86142,0.218607,0.0652843,0.171419,0
2024-12-13 15:21:36.504,-0.205783,2.38445,9.74387,0.229602,0.0591758,0.170808,0
2024-12-13 15:21:36.506,-0.20339,2.37727,9.63141,0.239987,0.0548999,0.168976,0
2024-12-13 15:21:36.508,-0.200997,2.37488,9.52134,0.250371,0.0481806,0.167143,0
2024-12-13 15:21:36.511,-0.205783,2.38923,9.40409,0.258312,0.0432938,0.165311,0
2024-12-13 15:21:36.513,-0.205783,2.3988,9.3012,0.264421,0.0359636,0.165921,0
2024-12-13 15:21:36.515,-0.200997,2.3988,9.20997,0.268696,0.0292443,0.1647,0
2024-12-13 15:21:36.518,-0.193819,2.4012,9.09512,0.272362,0.0206925,0.163478,0
2024-12-13 15:21:36.520,-0.174676,2.3988,8.98505,0.274194,0.0139731,0.162867,0
2024-12-13 15:21:36.523,-0.157926,2.38923,8.89173,0.276027,0.00908635,0.162867,0
2024-12-13 15:21:36.525,-0.141177,2.37727,8.79841,0.272972,0.000534491,0.161035,0
2024-12-13 15:21:36.527,-0.107677,2.35334,8.72662,0.272362,-0.00435229,0.159202,0
2024-12-13 15:21:36.530,-0.0981057,2.32702,8.65933,0.269918,-0.0110716,0.159202,0
2024-12-13 15:21:36.532,-0.0933201,2.30788,8.58036,0.266864,-0.0184018,0.15737,0
2024-12-13 15:21:36.534,-0.066999,2.28634,8.52293,0.261366,-0.0263428,0.155537,0
2024-12-13 15:21:36.537,-0.0454636,2.2672,8.47508,0.255258,-0.0287862,0.153094,0
2024-12-13 15:21:36.540,-0.0311067,2.25284,8.43679,0.244263,-0.0324513,0.150039,0
2024-12-13 15:21:36.541,-0.0119641,2.23609,8.40569,0.244263,-0.0324513,0.150039,0
2024-12-13 15:21:36.544,0.00478565,2.21695,8.36501,0.236932,-0.0312296,0.148818,0
2024-12-13 15:21:36.546,0.0215354,2.18345,8.3363,0.230213,-0.0287862,0.146374,0
2024-12-13 15:21:36.548,0.0502493,2.15234,8.31715,0.222272,-0.0251211,0.14332,0
2024-12-13 15:21:36.551,0.0693919,2.14517,8.3004,0.212498,-0.0177909,0.139655,0
2024-12-13 15:21:36.553,0.0550349,2.12842,8.29083,0.209444,-0.0110716,0.13599,0
2024-12-13 15:21:36.556,0.0430708,2.0997,8.29322,0.200282,-0.00251974,0.13347,0
2024-12-13 15:21:36.558,0.0334995,2.09492,8.29801,0.19173,0.00358873,0.130416,0
2024-12-13 15:21:36.560,0.0287139,2.09252,8.30519,0.185621,0.00908635,0.128583,0
2024-12-13 15:21:36.563,0.0239282,2.08774,8.30519,0.178291,0.0188599,0.124918,0
2024-12-13 15:21:36.565,0.00717847,2.08535,8.31954,0.168517,0.0231358,0.122475,0
2024-12-13 15:21:36.567,-0.00717847,2.07577,8.33869,0.164852,0.0329094,0.122475,0
2024-12-13 15:21:36.570,-0.0167498,2.08535,8.34587,0.154468,0.038407,0.120031,0
2024-12-13 15:21:36.572,-0.0167498,2.10449,8.35304,0.145916,0.046348,0.121253,0
2024-12-13 15:21:36.574,-0.0143569,2.10688,8.35783,0.138586,0.0561216,0.120642,0
2024-12-13 15:21:36.579,-0.0454636,2.11645,8.39372,0.125758,0.0683385,0.120642,0
2024-12-13 15:21:36.579,-0.0454636,2.11645,8.39372,0.125758,0.0683385,0.120642,0
2024-12-13 15:21:36.581,-0.0526421,2.13081,8.4009,0.121482,0.0738362,0.120642,0
2024-12-13 15:21:36.584,-0.0478565,2.14277,8.41287,0.114152,0.0793338,0.122475,0
2024-12-13 15:21:36.586,-0.0526421,2.13559,8.43679,0.108654,0.086664,0.124918,0
2024-12-13 15:21:36.588,-0.0741775,2.12363,8.44636,0.104379,0.0933833,0.128583,0
2024-12-13 15:21:36.591,-0.0909273,2.10927,8.46311,0.0964375,0.0970484,0.131638,0
2024-12-13 15:21:36.593,-0.100499,2.10449,8.48226,0.0891073,0.101935,0.13599,0
2024-12-13 15:21:36.596,-0.11007,2.10209,8.5014,0.0848314,0.1056,0.140877,0
2024-12-13 15:21:36.598,-0.11007,2.09252,8.51576,0.0775012,0.109265,0.146985,0
2024-12-13 15:21:36.600,-0.114855,2.07338,8.54447,0.0713928,0.110487,0.150039,0
2024-12-13 15:21:36.603,-0.119641,2.05424,8.58036,0.0652843,0.11293,0.154926,0
2024-12-13 15:21:36.605,-0.107677,2.04467,8.61386,0.058565,0.113541,0.159202,0
2024-12-13 15:21:36.607,-0.0933201,2.03988,8.64736,0.0536782,0.114763,0.162867,0
2024-12-13 15:21:36.610,-0.0885344,2.02074,8.68325,0.0475697,0.11232,0.168976,0
2024-12-13 15:21:36.612,-0.0861416,2.01595,8.71705,0.0396287,0.11293,0.173252,0
2024-12-13 15:21:36.614,-0.0789631,2.02792,8.74337,0.0365745,0.111709,0.175084,0
2024-12-13 15:21:36.617,-0.0622134,2.03749,8.77448,0.0237467,0.106211,0.179971,0
2024-12-13 15:21:36.619,-0.0478565,2.04706,8.79602,0.0176382,0.101935,0.183636,0
2024-12-13 15:21:36.621,-0.0382852,2.04467,8.82712,0.0121406,0.0952158,0.187301,0
2024-12-13 15:21:36.624,-0.0311067,2.02313,8.87737,0.00236703,0.0884965,0.192188,0
2024-12-13 15:21:36.626,-0.00957129,2.02074,8.92523,-0.00313059,0.0805555,0.194631,0
2024-12-13 15:21:36.629,0.0119641,2.02313,8.97548,-0.00862822,0.0713928,0.196464,0
2024-12-13 15:21:36.631,0.026321,2.00877,9.04726,-0.0196235,0.0634518,0.198296,0
2024-12-13 15:21:36.633,0.0215354,2.0016,9.10948,-0.0263428,0.0561216,0.199518,0
2024-12-13 15:21:36.636,0.00957129,1.99681,9.15015,-0.029397,0.0512348,0.203183,0
2024-12-13 15:21:36.638,0.0215354,1.98963,9.20519,-0.0355055,0.046348,0.206237,0
2024-12-13 15:21:36.640,0.0358923,1.97528,9.25544,-0.0403923,0.0420721,0.206848,0
2024-12-13 15:21:36.643,0.0358923,1.95583,9.30359,-0.0410031,0.0408504,0.209292,0
2024-12-13 15:21:36.645,0.0526421,1.94387,9.35624,-0.041614,0.0390179,0.211124,0
2024-12-13 15:21:36.647,0.0646062,1.95105,9.39931,-0.0434465,0.0420721,0.213567,0
2024-12-13 15:21:36.650,0.0598206,1.93908,9.45434,-0.0458899,0.0439046,0.217233,0
2024-12-13 15:21:36.652,0.0693919,1.92473,9.49263,-0.0428357,0.050624,0.219065,0
2024-12-13 15:21:36.654,0.081356,1.90319,9.51177,-0.0428357,0.0524565,0.223341,0
2024-12-13 15:21:36.657,0.105284,1.89841,9.54288,-0.0403923,0.0579541,0.225784,0
2024-12-13 15:21:36.659,0.12682,1.90798,9.55484,-0.0403923,0.0634518,0.228228,0
2024-12-13 15:21:36.662,0.133998,1.88883,9.5668,-0.0397814,0.0707819,0.230671,0
2024-12-13 15:21:36.664,0.148355,1.86969,9.58834,-0.0348946,0.0762796,0.233725,0
2024-12-13 15:21:36.666,0.153141,1.8673,9.60748,-0.0312296,0.0805555,0.236169,0
2024-12-13 15:21:36.669,0.162712,1.87208,9.62184,-0.029397,0.0872748,0.236169,0
2024-12-13 15:21:36.671,0.18664,1.88644,9.62423,-0.0300079,0.0921616,0.239223,0
2024-12-13 15:21:36.673,0.212961,1.89601,9.64337,-0.0251211,0.094605,0.242277,0
2024-12-13 15:21:36.676,0.234497,1.89123,9.67448,-0.0245102,0.0958267,0.245942,0
2024-12-13 15:21:36.678,0.260818,1.88166,9.69602,-0.0220669,0.102546,0.245942,0
2024-12-13 15:21:36.680,0.282652,1.87687,9.70559,-0.0184018,0.103768,0.248386,0
2024-12-13 15:21:36.683,0.294616,1.88883,9.72473,-0.0196235,0.106822,0.249607,0
2024-12-13 15:21:36.685,0.313759,1.89601,9.73909,-0.0177909,0.109265,0.25144,0
2024-12-13 15:21:36.690,0.337687,1.89841,9.75344,-0.0147367,0.11293,0.254494,0
2024-12-13 15:21:36.690,0.359223,1.89841,9.77737,-0.0147367,0.11293,0.254494,0
2024-12-13 15:21:36.692,0.383151,1.88883,9.79412,-0.0122933,0.11232,0.258159,0
2024-12-13 15:21:36.694,0.402293,1.89362,9.81566,-0.0122933,0.111098,0.25877,0
2024-12-13 15:21:36.697,0.409472,1.88405,9.81805,-0.00801737,0.11293,0.258159,0
2024-12-13 15:21:36.699,0.423829,1.88405,9.81566,-0.00740652,0.114763,0.259992,0
2024-12-13 15:21:36.702,0.435793,1.88644,9.82553,-0.00496313,0.116595,0.263046,0
2024-12-13 15:21:36.704,0.435793,1.88405,9.84706,-0.000687203,0.122704,0.264268,0
2024-12-13 15:21:36.706,0.440578,1.90558,9.85424,-7.63559e-05,0.125758,0.264268,0
2024-12-13 15:21:36.709,0.45015,1.90798,9.85185,0.00542127,0.132477,0.264268,0
2024-12-13 15:21:36.711,0.471685,1.89601,9.85424,0.0115297,0.139197,0.266711,0
2024-12-13 15:21:36.713,0.483649,1.88883,9.83749,0.0115297,0.146527,0.267933,0
2024-12-13 15:21:36.716,0.488435,1.88644,9.8013,0.0164165,0.152635,0.269155,0
2024-12-13 15:21:36.719,0.498006,1.88405,9.76541,0.0298552,0.165463,0.27282,0
2024-12-13 15:21:36.720,0.498006,1.87926,9.7343,0.0298552,0.165463,0.27282,0
2024-12-13 15:21:36.723,0.483649,1.87208,9.70319,0.0371853,0.174015,0.270376,0
2024-12-13 15:21:36.726,0.471685,1.86251,9.65055,0.0524565,0.1844,0.275874,0
2024-12-13 15:21:36.727,0.474078,1.86251,9.58116,0.0524565,0.1844,0.275874,0
2024-12-13 15:21:36.730,0.493221,1.85055,9.52134,0.0567324,0.188065,0.278317,0
2024-12-13 15:21:36.732,0.514756,1.84098,9.44238,0.0658951,0.192341,0.28015,0
2024-12-13 15:21:36.735,0.517149,1.85055,9.34666,0.0726145,0.194784,0.282593,0
2024-12-13 15:21:36.737,0.521934,1.85055,9.26052,0.0793338,0.197838,0.285037,0
2024-12-13 15:21:36.739,0.553041,1.85294,9.1669,0.0860531,0.202114,0.286258,0
2024-12-13 15:21:36.742,0.576969,1.84816,9.07598,0.094605,0.204557,0.288702,0
2024-12-13 15:21:36.744,0.588933,1.84576,8.98505,0.100713,0.205168,0.289313,0
2024-12-13 15:21:36.746,0.612862,1.86251,8.89173,0.1056,0.211888,0.288702,0
2024-12-13 15:21:36.749,0.617647,1.87208,8.80319,0.114152,0.214942,0.290534,0
2024-12-13 15:21:36.751,0.62004,1.85773,8.71466,0.124536,0.222272,0.291145,0
2024-12-13 15:21:36.754,0.62004,1.85773,8.61386,0.129423,0.228381,0.291756,0
2024-12-13 15:21:36.756,0.605683,1.86969,8.48465,0.137364,0.236932,0.293588,0
2024-12-13 15:21:36.758,0.610469,1.85773,8.34108,0.144084,0.245484,0.29481,0
2024-12-13 15:21:36.760,0.634397,1.82901,8.20469,0.14897,0.254647,0.295421,0
2024-12-13 15:21:36.763,0.663111,1.80509,8.07996,0.152635,0.265642,0.291756,0
2024-12-13 15:21:36.765,0.663111,1.77876,7.98425,0.15569,0.273583,0.291145,0
2024-12-13 15:21:36.768,0.624826,1.74766,7.89811,0.157522,0.281524,0.293588,0
2024-12-13 15:21:36.770,0.579362,1.74527,7.77129,0.163631,0.283968,0.292367,0
2024-12-13 15:21:36.772,0.524327,1.74048,7.63729,0.166685,0.287022,0.293588,0
2024-12-13 15:21:36.775,0.502792,1.70219,7.50539,0.165463,0.291909,0.295421,0
2024-12-13 15:21:36.777,0.50997,1.67109,7.37857,0.167296,0.298628,0.298475,0
2024-12-13 15:21:36.779,0.533899,1.66152,7.27328,0.166074,0.302293,0.300308,0
2024-12-13 15:21:36.782,0.550648,1.64955,7.19671,0.167907,0.305347,0.299697,0
2024-12-13 15:21:36.784,0.550648,1.64716,7.12971,0.167907,0.304126,0.299086,0
2024-12-13 15:21:36.786,0.541077,1.63998,7.06272,0.166074,0.30046,0.297254,0
2024-12-13 15:21:36.789,0.533899,1.6328,6.98106,0.165463,0.291298,0.294199,0
2024-12-13 15:21:36.791,0.52672,1.6328,6.89253,0.163631,0.282135,0.29481,0
2024-12-13 15:21:36.793,0.514756,1.64955,6.81117,0.158744,0.27114,0.291145,0
2024-12-13 15:21:36.796,0.493221,1.6663,6.72981,0.158744,0.259534,0.286258,0
2024-12-13 15:21:36.798,0.476471,1.66869,6.64846,0.155079,0.249149,0.281982,0
2024-12-13 15:21:36.800,0.469292,1.67827,6.57189,0.152635,0.233267,0.277096,0
2024-12-13 15:21:36.803,0.452543,1.69741,6.52164,0.147749,0.22105,0.274041,0
2024-12-13 15:21:36.805,0.4334,1.71416,6.48096,0.139808,0.208833,0.268544,0
2024-12-13 15:21:36.808,0.414257,1.71416,6.44955,0.134921,0.192341,0.263657,0
2024-12-13 15:21:36.810,0.397508,1.74048,6.4352,0.130034,0.17768,0.260603,0
2024-12-13 15:21:36.812,0.387936,1.76201,6.42323,0.125758,0.161187,0.253273,0
2024-12-13 15:21:36.817,0.349651,1.8003,6.4017,0.11293,0.124536,0.245332,0
2024-12-13 15:21:36.817,0.349651,1.8003,6.4017,0.11293,0.124536,0.245332,0
2024-12-13 15:21:36.819,0.354437,1.81226,6.39213,0.108044,0.108044,0.238612,0
2024-12-13 15:21:36.822,0.368794,1.82901,6.38734,0.101324,0.0958267,0.230671,0
2024-12-13 15:21:36.824,0.371187,1.85533,6.39691,0.0921616,0.0829989,0.225784,0
2024-12-13 15:21:36.826,0.366401,1.87926,6.43759,0.0860531,0.066506,0.217843,0
2024-12-13 15:21:36.829,0.366401,1.89841,6.48814,0.0781121,0.0494023,0.211124,0
2024-12-13 15:21:36.831,0.375972,1.90798,6.52882,0.0738362,0.0341311,0.202572,0
2024-12-13 15:21:36.833,0.397508,1.91755,6.5671,0.0707819,0.0164165,0.19402,0
2024-12-13 15:21:36.836,0.426222,1.92951,6.62214,0.0683385,0.00236703,0.184858,0
2024-12-13 15:21:36.838,0.445364,1.94148,6.68914,0.0610084,-0.0165692,0.177527,0
2024-12-13 15:21:36.841,0.457328,1.94148,6.75135,0.0579541,-0.0324513,0.167143,0
2024-12-13 15:21:36.844,0.471685,1.94865,6.81835,0.0518457,-0.0538309,0.150039,0
2024-12-13 15:21:36.845,0.483649,1.98006,6.81835,0.0518457,-0.0538309,0.150039,0
2024-12-13 15:21:36.849,0.476471,2.01117,6.84467,0.0487914,-0.0581068,0.140266,0
2024-12-13 15:21:36.850,0.474078,2.01117,6.98824,0.0487914,-0.0581068,0.140266,0
2024-12-13 15:21:36.852,0.476471,1.99442,7.12014,0.038407,-0.0898709,0.126751,0
2024-12-13 15:21:36.855,0.490828,1.98724,7.2015,0.0377962,-0.10331,0.120031,0
2024-12-13 15:21:36.857,0.507577,1.99442,7.30439,0.0390179,-0.112472,0.113923,0
2024-12-13 15:21:36.859,0.500399,2.0016,7.41446,0.0371853,-0.122857,0.110869,0
2024-12-13 15:21:36.862,0.50997,1.99442,7.50778,0.0420721,-0.125911,0.108425,0
2024-12-13 15:21:36.864,0.536291,1.98724,7.61097,0.0457372,-0.124689,0.10476,0
2024-12-13 15:21:36.866,0.56022,2.00399,7.60618,0.0469589,-0.114916,0.101706,0
2024-12-13 15:21:36.869,0.586541,2.0662,7.52214,0.0487914,-0.0892601,0.100484,0
2024-12-13 15:21:36.871,0.615255,2.09731,7.57986,0.0494023,-0.0568851,0.102317,0
2024-12-13 15:21:36.873,0.622433,2.07817,7.7689,0.0512348,-0.0312296,0.0986518,0
2024-12-13 15:21:36.876,0.593719,2.0662,8.01057,0.0555107,-0.0208452,0.0986518,0
2024-12-13 15:21:36.878,0.591326,2.0662,8.24058,0.0567324,-0.0263428,0.0968193,0
2024-12-13 15:21:36.881,0.617647,2.07577,8.37219,0.0610084,-0.0318404,0.0974301,0
2024-12-13 15:21:36.883,0.677468,2.08056,8.43679,0.0652843,-0.0330621,0.0943759,0
2024-12-13 15:21:36.885,0.737288,2.08774,8.47269,0.0677277,-0.0275645,0.0907108,0
2024-12-13 15:21:36.888,0.749253,2.09252,8.49183,0.0738362,-0.0165692,0.0870457,0
2024-12-13 15:21:36.890,0.739681,2.09252,8.49901,0.0781121,0.00236703,0.0839915,0
2024-12-13 15:21:36.892,0.715753,2.11645,8.49901,0.0799446,0.0274118,0.0797156,0
2024-12-13 15:21:36.895,0.696611,2.16431,8.54447,0.0799446,0.0518457,0.0766613,0
2024-12-13 15:21:36.897,0.694218,2.20259,8.61147,0.0836097,0.0787229,0.0754396,0
2024-12-13 15:21:36.899,0.71336,2.23609,8.69522,0.082388,0.0982701,0.0723854,0
2024-12-13 15:21:36.902,0.722932,2.27199,8.79841,0.0854423,0.114763,0.0674986,0
2024-12-13 15:21:36.904,0.737288,2.29591,8.88694,0.0836097,0.122704,0.0650552,0
2024-12-13 15:21:36.906,0.754038,2.3007,8.95155,0.0793338,0.126369,0.0613902,0
2024-12-13 15:21:36.909,0.768395,2.29113,8.99701,0.0756687,0.128812,0.0552817,0
2024-12-13 15:21:36.911,0.785145,2.28395,9.01376,0.0713928,0.128202,0.0503949,0
2024-12-13 15:21:36.914,0.792323,2.28873,9.04965,0.066506,0.128202,0.0436756,0
2024-12-13 15:21:36.916,0.816252,2.31027,9.11665,0.0610084,0.128202,0.0363454,0
2024-12-13 15:21:36.918,0.842872,2.31984,9.19562,0.0548999,0.131867,0.0277936,0
2024-12-13 15:21:36.921,0.847657,2.30309,9.29881,0.0487914,0.133088,0.0204634,0
2024-12-13 15:21:36.923,0.828216,2.28395,9.39931,0.0445155,0.133699,0.0125224,0
2024-12-13 15:21:36.925,0.809073,2.2672,9.51895,0.0365745,0.135532,0.00274881,0
2024-12-13 15:21:36.928,0.809073,2.24806,9.64098,0.0298552,0.130645,-0.00458135,0
2024-12-13 15:21:36.930,0.789931,2.24327,9.73669,0.0298552,0.126369,-0.0119115,0
2024-12-13 15:21:36.932,0.780359,2.25045,9.83749,0.0280226,0.119039,-0.0192417,0
2024-12-13 15:21:36.935,0.787538,2.26481,9.94995,0.0255792,0.114152,-0.0265719,0
2024-12-13 15:21:36.937,0.775574,2.28395,10.0433,0.0298552,0.11293,-0.0308478,0
2024-12-13 15:21:36.939,0.768395,2.3007,10.127,0.0274118,0.1056,-0.038178,0
2024-12-13 15:21:36.942,0.754038,2.3342,10.2012,0.0292443,0.103768,-0.0436756,0
2024-12-13 15:21:36.944,0.734896,2.38206,10.2658,0.0322986,0.104379,-0.0503949,0
2024-12-13 15:21:36.947,0.734896,2.41795,10.3113,0.0341311,0.106211,-0.0558925,0
2024-12-13 15:21:36.949,0.732503,2.46341,10.3352,0.0420721,0.109876,-0.0601685,0
2024-12-13 15:21:36.951,0.710967,2.52084,10.3496,0.0457372,0.116595,-0.0656661,0
2024-12-13 15:21:36.954,0.720539,2.59292,10.3543,0.0524565,0.122704,-0.0711637,0
2024-12-13 15:21:36.956,0.74686,2.66231,10.3328,0.0628409,0.131256,-0.0766613,0
2024-12-13 15:21:36.958,0.756431,2.73888,10.2921,0.0695602,0.139808,-0.0846023,0
2024-12-13 15:21:36.961,0.761217,2.82263,10.2538,0.0762796,0.145305,-0.0901,0
2024-12-13 15:21:36.963,0.74686,2.88006,10.1868,0.0799446,0.149581,-0.0968193,0
2024-12-13 15:21:36.965,0.706182,2.94706,10.1079,0.0872748,0.150192,-0.105982,0
2024-12-13 15:21:36.968,0.667897,3.02124,10.0313,0.0884965,0.147138,-0.116977,0
2024-12-13 15:21:36.970,0.65354,3.07388,9.95713,0.0909399,0.13431,-0.127362,0
2024-12-13 15:21:36.972,0.612862,3.12443,9.92363,0.0884965,0.114152,-0.138968,0
2024-12-13 15:21:36.975,0.545863,3.1675,9.91885,0.086664,0.0872748,-0.152406,0
2024-12-13 15:21:36.977,0.495613,3.19861,9.91167,0.082388,0.0561216,-0.170121,0
2024-12-13 15:21:36.979,0.445364,3.22732,9.93799,0.0762796,0.0188599,-0.186003,0
2024-12-13 15:21:36.982,0.402293,3.24168,10.0146,0.0701711,-0.0177909,-0.204328,0
2024-12-13 15:21:36.984,0.387936,3.23689,10.0983,0.0646735,-0.0556635,-0.222654,0
2024-12-13 15:21:36.987,0.371187,3.21775,10.2108,0.0524565,-0.0996445,-0.242812,0
2024-12-13 15:21:36.989,0.320937,3.19382,10.3328,0.042683,-0.146069,-0.266635,0
2024-12-13 15:21:36.991,0.275175,3.14357,10.4432,0.0335202,-0.191272,-0.288014,0
2024-12-13 15:21:36.994,0.248854,3.08345,10.5844,0.0188599,-0.239528,-0.310616,0
2024-12-13 15:21:36.996,0.200997,3.01167,10.7734,0.000534491,-0.289618,-0.332606,0
2024-12-13 15:21:36.998,0.138784,2.92313,10.9771,-0.0196235,-0.338486,-0.353375,0
2024-12-13 15:21:37.001,0.0550349,2.81785,11.2164,-0.0379489,-0.390408,-0.372922,0
2024-12-13 15:21:37.003,-0.0502493,2.71017,11.511,-0.0605502,-0.445995,-0.389415,0
2024-12-13 15:21:37.005,-0.153141,2.59532,11.8292,-0.0837624,-0.501582,-0.399189,0
2024-12-13 15:21:37.008,-0.227318,2.45384,12.1502,-0.10392,-0.549228,-0.409573,0
2024-12-13 15:21:37.010,-0.248854,2.32463,12.4612,-0.130798,-0.589544,-0.418125,0
2024-12-13 15:21:37.012,-0.260818,2.20259,12.8037,-0.158286,-0.629249,-0.424844,0
2024-12-13 15:21:37.015,-0.311366,2.08535,13.1818,-0.180887,-0.663456,-0.429731,0
2024-12-13 15:21:37.017,-0.375972,1.97528,13.5984,-0.205321,-0.693388,-0.429731,0
2024-12-13 15:21:37.020,-0.471685,1.85773,14.0701,-0.227312,-0.720265,-0.427898,0
2024-12-13 15:21:37.022,-0.521934,1.76201,14.4963,-0.245026,-0.745921,-0.424233,0
2024-12-13 15:21:37.024,-0.572184,1.75723,14.7117,-0.261519,-0.748364,-0.417514,0
2024-12-13 15:21:37.027,-0.605683,1.75962,14.9824,-0.282288,-0.744699,-0.403465,0
2024-12-13 15:21:37.029,-0.553041,1.68305,15.4349,-0.295116,-0.741034,-0.387583,0
2024-12-13 15:21:37.031,-0.471685,1.5658,15.856,-0.304889,-0.737369,-0.374144,0
2024-12-13 15:21:37.034,-0.34008,1.43659,16.2368,-0.310387,-0.728817,-0.360094,0
2024-12-13 15:21:37.036,-0.172283,1.31665,16.5455,-0.315274,-0.708659,-0.345434,0
2024-12-13 15:21:37.038,0.0215354,1.19222,16.8449,-0.312219,-0.681171,-0.337493,0
2024-12-13 15:21:37.041,0.215354,1.07976,17.1562,-0.303057,-0.643909,-0.330163,0
2024-12-13 15:21:37.043,0.387936,0.964906,17.441,-0.291451,-0.606037,-0.324054,0
2024-12-13 15:21:37.045,0.541077,0.8668,17.6492,-0.274347,-0.560834,-0.321611,0
2024-12-13 15:21:37.048,0.684646,0.804287,17.7476,-0.251135,-0.508912,-0.324665,0
2024-12-13 15:21:37.050,0.818644,0.758824,17.8002,-0.22609,-0.450271,-0.324054,1
2024-12-13 15:21:37.053,0.955334,0.734896,17.8361,-0.196769,-0.386743,-0.326498,0
2024-12-13 15:21:37.055,1.07498,0.71336,17.8146,-0.167449,-0.32749,-0.330774,0
2024-12-13 15:21:37.057,1.16112,0.715753,17.7141,-0.138739,-0.268849,-0.332606,0
2024-12-13 15:21:37.060,1.23769,0.742074,17.5726,-0.105753,-0.21204,-0.337493,0
2024-12-13 15:21:37.062,1.27119,0.787538,17.3644,-0.073378,-0.157675,-0.341158,0
2024-12-13 15:21:37.064,1.23529,0.873978,17.077,-0.0434465,-0.102088,-0.342991,0
2024-12-13 15:21:37.067,1.1994,0.974477,16.797,-0.0129041,-0.0526092,-0.343602,0
2024-12-13 15:21:37.069,1.1659,1.08215,16.5215,0.0151948,-0.0122933,-0.339936,0
2024-12-13 15:21:37.071,1.07258,1.18265,16.2416,0.0396287,0.0182491,-0.334439,0
2024-12-13 15:21:37.074,0.938585,1.25204,15.9853,0.0646735,0.0451263,-0.32833,0
2024-12-13 15:21:37.076,0.804287,1.2999,15.7316,0.0854423,0.0603975,-0.319779,0
2024-12-13 15:21:37.078,0.670289,1.32861,15.5043,0.1056,0.0707819,-0.307562,0
2024-12-13 15:21:37.081,0.553041,1.34297,15.3389,0.122093,0.0732253,-0.295345,0
2024-12-13 15:21:37.083,0.490828,1.33101,15.1953,0.141029,0.0738362,-0.286793,0
2024-12-13 15:21:37.085,0.452543,1.30708,15.0805,0.158744,0.0683385,-0.27763,0
2024-12-13 15:21:37.088,0.41665,1.29272,14.9871,0.179513,0.0634518,-0.269689,0
2024-12-13 15:21:37.090,0.380758,1.27837,14.8962,0.196006,0.0579541,-0.264802,0
2024-12-13 15:21:37.093,0.342473,1.28076,14.793,0.21372,0.0542891,-0.259916,0
2024-12-13 15:21:37.096,0.316152,1.2999,14.6854,0.249149,0.0536782,-0.261137,0
2024-12-13 15:21:37.097,0.275175,1.31665,14.5777,0.249149,0.0536782,-0.261137,0
2024-12-13 15:21:37.100,0.229711,1.32144,14.458,0.264421,0.0548999,-0.263581,0
2024-12-13 15:21:37.102,0.172283,1.32622,14.348,0.279081,0.0591758,-0.267857,0
2024-12-13 15:21:37.104,0.100499,1.3334,14.2376,0.292519,0.0658951,-0.270911,0
2024-12-13 15:21:37.107,0.0239282,1.32622,14.1227,0.305347,0.0775012,-0.271522,0
2024-12-13 15:21:37.109,-0.0334995,1.30229,14.0366,0.320618,0.086664,-0.278241,0
2024-12-13 15:21:37.111,-0.0717847,1.27119,13.9648,0.330392,0.101324,-0.281295,0
2024-12-13 15:21:37.114,-0.129212,1.24247,13.8787,0.341387,0.114763,-0.284349,0
2024-12-13 15:21:37.116,-0.198604,1.22333,13.771,0.348717,0.130034,-0.286793,0
2024-12-13 15:21:37.118,-0.267996,1.20897,13.6439,0.35788,0.146527,-0.289847,0
2024-12-13 15:21:37.121,-0.320937,1.20419,13.5147,0.366432,0.164852,-0.289847,0
2024-12-13 15:21:37.123,-0.349651,1.18744,13.3998,0.376893,0.18501,-0.287404,0
2024-12-13 15:21:37.126,-0.368794,1.17787,13.3137,0.386055,0.207001,-0.287404,0
2024-12-13 15:21:37.128,-0.383151,1.1659,13.2084,0.395829,0.225326,-0.281295,0
2024-12-13 15:21:37.130,-0.390329,1.14915,13.0645,0.407435,0.244873,-0.275798,0
2024-12-13 15:21:37.133,-0.380758,1.16112,12.8922,0.41782,0.265642,-0.271522,0
2024-12-13 15:21:37.135,-0.364008,1.1683,12.7152,0.431258,0.287633,-0.266024,0
2024-12-13 15:21:37.137,-0.364008,1.17308,12.5545,0.441643,0.310845,-0.259305,0
2024-12-13 15:21:37.140,-0.359223,1.1994,12.3918,0.452638,0.329781,-0.25564,0
2024-12-13 15:21:37.142,-0.352044,1.22572,12.2267,0.467298,0.348717,-0.248309,0
2024-12-13 15:21:37.144,-0.359223,1.26162,12.0374,0.480737,0.365821,-0.238536,0
2024-12-13 15:21:37.147,-0.371187,1.29751,11.8149,0.494786,0.382925,-0.229373,0
2024-12-13 15:21:37.149,-0.375972,1.31665,11.5804,0.506392,0.398196,-0.223265,0
2024-12-13 15:21:37.151,-0.390329,1.34776,11.3432,0.521053,0.411635,-0.212269,0
2024-12-13 15:21:37.154,-0.4334,1.38844,11.1135,0.534491,0.428128,-0.202496,0
2024-12-13 15:21:37.156,-0.4669,1.41506,10.8691,0.546708,0.440345,-0.19089,0
2024-12-13 15:21:37.159,-0.464507,1.42702,10.6011,0.560147,0.453783,-0.180505,0
2024-12-13 15:21:37.161,-0.447757,1.45334,10.3304,0.568699,0.462946,-0.170121,0
2024-12-13 15:21:37.163,-0.459721,1.49641,10.0816,0.577861,0.467833,-0.160958,0
2024-12-13 15:21:37.166,-0.50997,1.55384,9.85424,0.586413,0.469665,-0.152406,0
2024-12-13 15:21:37.168,-0.569791,1.61127,9.60748,0.590689,0.467833,-0.144465,0
2024-12-13 15:21:37.170,-0.624826,1.6663,9.35624,0.596187,0.468443,-0.136524,0
2024-12-13 15:21:37.175,-0.694218,1.72612,9.1023,0.59863,0.45867,-0.11881,0
2024-12-13 15:21:37.175,-0.761217,1.78594,8.85344,0.59863,0.45867,-0.11881,0
2024-12-13 15:21:37.177,-0.710967,1.77159,8.72423,0.597409,0.449507,-0.11148,0
2024-12-13 15:21:37.180,-0.263211,1.52513,8.98026,0.59863,0.418354,-0.114534,0
2024-12-13 15:21:37.182,-0.160319,1.41506,8.96112,0.61268,0.378649,-0.13347,0
2024-12-13 15:21:37.184,-0.696611,1.58734,8.34108,0.615123,0.374984,-0.144465,0
2024-12-13 15:21:37.187,-1.01276,1.69262,8.01057,0.613901,0.399418,-0.142022,0
2024-12-13 15:21:37.189,-1.01037,1.82423,7.84307,0.615123,0.414078,-0.142633,0
2024-12-13 15:21:37.191,-0.974477,2.01835,7.60618,0.610847,0.405526,-0.145076,0
2024-12-13 15:21:37.194,-1.03669,2.15234,7.46949,0.599241,0.385979,-0.14752,0
2024-12-13 15:21:37.196,-1.20897,2.27438,7.2996,0.590078,0.367043,-0.14813,0
2024-12-13 15:21:37.199,-1.38365,2.39641,7.09861,0.574807,0.349939,-0.146909,0
2024-12-13 15:21:37.201,-1.46052,2.4682,6.97388,0.559536,0.329781,-0.143244,0
2024-12-13 15:21:37.203,-1.55384,2.52084,6.86142,0.541211,0.304126,-0.138968,0
2024-12-13 15:21:37.206,-1.6663,2.55224,6.72981,0.520442,0.282135,-0.132859,0
2024-12-13 15:21:37.208,-1.72852,2.56182,6.63889,0.496008,0.25709,-0.127362,0
2024-12-13 15:21:37.210,-1.73569,2.54267,6.59821,0.470963,0.228991,-0.121864,0
2024-12-13 15:21:37.213,-1.77398,2.5331,6.53839,0.448362,0.203336,-0.120031,0
2024-12-13 15:21:37.215,-1.89123,2.55224,6.40409,0.423317,0.180734,-0.114534,0
2024-12-13 15:21:37.217,-1.91037,2.53549,6.34188,0.393386,0.162409,-0.108425,0
2024-12-13 15:21:37.220,-1.84098,2.4658,6.39691,0.362767,0.141029,-0.107204,0
2024-12-13 15:21:37.222,-1.79551,2.35573,6.47378,0.338333,0.114763,-0.104149,0
2024-12-13 15:21:37.224,-1.76919,2.25524,6.52403,0.338333,0.114763,-0.104149,0
2024-12-13 15:21:37.227,-1.74527,2.16909,6.56949,0.288854,0.0683385,-0.108425,0
2024-12-13 15:21:37.229,-1.71894,2.08295,6.61017,0.26381,0.050624,-0.113923,0
2024-12-13 15:21:37.232,-1.70219,2.0016,6.63889,0.241819,0.0390179,-0.117588,0
2024-12-13 15:21:37.234,-1.67827,1.92951,6.67717,0.218607,0.0286335,-0.123697,0
2024-12-13 15:21:37.236,-1.64955,1.87208,6.71306,0.197227,0.022525,-0.13347,0
2024-12-13 15:21:37.240,-1.66869,1.83619,6.75374,0.156911,0.0243575,-0.143855,0
2024-12-13 15:21:37.241,-1.70937,1.81944,6.8016,0.156911,0.0243575,-0.143855,0
2024-12-13 15:21:37.243,-1.75244,1.80748,6.83749,0.13431,0.0292443,-0.148741,0
2024-12-13 15:21:37.246,-1.78355,1.78355,6.87817,0.11293,0.0396287,-0.151185,0
2024-12-13 15:21:37.248,-1.81466,1.76919,6.91885,0.0927724,0.0500131,-0.152406,0
2024-12-13 15:21:37.250,-1.83619,1.77159,6.96192,0.0701711,0.0610084,-0.153017,0
2024-12-13 15:21:37.253,-1.86012,1.77398,7.01217,0.0512348,0.0756687,-0.152406,0
2024-12-13 15:21:37.255,-1.87926,1.7668,7.06511,0.0280226,0.0891073,-0.149963,0
2024-12-13 15:21:37.257,-1.88166,1.75723,7.09382,0.00664296,0.100103,-0.148741,0
2024-12-13 15:21:37.260,-1.87926,1.7668,7.11536,-0.0116825,0.11232,-0.14752,0
2024-12-13 15:21:37.262,-1.88166,1.77159,7.13211,-0.0116825,0.11232,-0.14752,0
2024-12-13 15:21:37.267,-1.9008,1.80748,7.17278,-0.0727672,0.141029,-0.149352,0
2024-12-13 15:21:37.267,-1.9008,1.80748,7.17278,-0.0727672,0.141029,-0.149352,0
2024-12-13 15:21:37.269,-1.91276,1.80987,7.19671,-0.0904818,0.14836,-0.148741,0
2024-12-13 15:21:37.272,-1.9343,1.81466,7.23739,-0.11064,0.152025,-0.151185,0
2024-12-13 15:21:37.274,-1.97767,1.81944,7.27089,-0.128354,0.155079,-0.151796,0
2024-12-13 15:21:37.276,-2.0351,1.82901,7.302,-0.14668,0.152025,-0.151185,0
2024-12-13 15:21:37.279,-2.09013,1.84816,7.34746,-0.163783,0.143473,-0.152406,0
2024-12-13 15:21:37.281,-2.12363,1.8673,7.40489,-0.183331,0.133699,-0.153017,0
2024-12-13 15:21:37.283,-2.15952,1.84337,7.47428,-0.198602,0.11965,-0.151185,0
2024-12-13 15:21:37.286,-2.2002,1.80509,7.51496,-0.21204,0.103157,-0.151185,0
2024-12-13 15:21:37.288,-2.21456,1.79312,7.56042,-0.229755,0.0878856,-0.14813,0
2024-12-13 15:21:37.293,-2.25763,1.84816,7.74258,-0.260297,0.0518457,-0.145687,0
2024-12-13 15:21:37.293,-2.25763,1.84816,7.74258,-0.260297,0.0518457,-0.145687,0
2024-12-13 15:21:37.295,-2.3007,1.88644,7.85743,-0.274958,0.0310769,-0.146298,0
2024-12-13 15:21:37.297,-2.34377,1.92473,7.97707,-0.285953,0.010308,-0.145687,0
2024-12-13 15:21:37.302,-2.42034,1.95344,8.17598,-0.301835,-0.0391706,-0.144465,0
2024-12-13 15:21:37.302,-2.42034,1.95344,8.17598,-0.301835,-0.0391706,-0.144465,0
2024-12-13 15:21:37.307,-2.48973,1.97767,8.38894,-0.321993,-0.0941468,-0.144465,0
2024-12-13 15:21:37.307,-2.48973,1.97767,8.38894,-0.321993,-0.0941468,-0.144465,0
2024-12-13 15:21:37.309,-2.5331,1.9681,8.47986,-0.329934,-0.121635,-0.143855,0
2024-12-13 15:21:37.312,-2.56899,1.97528,8.55404,-0.337875,-0.149123,-0.141411,0
2024-12-13 15:21:37.314,-2.59771,1.96301,8.62104,-0.350092,-0.177833,-0.139579,0
2024-12-13 15:21:37.316,-2.62881,1.93669,8.68325,-0.358033,-0.205321,-0.137135,0
2024-12-13 15:21:37.319,-2.65514,1.91037,8.74098,-0.370861,-0.231587,-0.135303,0
2024-12-13 15:21:37.321,-2.67906,1.87208,8.82712,-0.383078,-0.256632,-0.129805,0
2024-12-13 15:21:37.326,-2.65992,1.77637,9.05683,-0.405679,-0.300613,-0.120642,0
2024-12-13 15:21:37.326,-2.65992,1.77637,9.05683,-0.405679,-0.300613,-0.120642,0
2024-12-13 15:21:37.328,-2.61446,1.72134,9.19322,-0.418507,-0.321382,-0.113923,0
2024-12-13 15:21:37.330,-2.58096,1.65912,9.34188,-0.430113,-0.337264,-0.107204,0
2024-12-13 15:21:37.335,-2.48495,1.53709,9.64577,-0.450882,-0.354368,-0.0894891,0
2024-12-13 15:21:37.335,-2.48495,1.53709,9.64577,-0.450882,-0.354368,-0.0894891,0
2024-12-13 15:21:37.338,-2.42273,1.47488,9.78934,-0.45699,-0.356811,-0.0809373,0
2024-12-13 15:21:37.340,-2.34616,1.39322,9.94278,-0.464931,-0.354979,-0.0711637,0
2024-12-13 15:21:37.342,-2.24806,1.33579,10.0792,-0.468596,-0.347038,-0.062001,0
2024-12-13 15:21:37.345,-2.15474,1.29512,10.2036,-0.47165,-0.333599,-0.05406,0
2024-12-13 15:21:37.347,-2.05424,1.25444,10.3089,-0.474094,-0.318328,-0.0479515,0
2024-12-13 15:21:37.349,-1.94626,1.21854,10.3953,-0.475316,-0.297559,-0.041843,0
2024-12-13 15:21:37.352,-1.83859,1.18265,10.4623,-0.475316,-0.297559,-0.041843,0
2024-12-13 15:21:37.356,-1.67587,1.15633,10.6155,-0.476537,-0.217538,-0.0253502,0
2024-12-13 15:21:37.356,-1.67587,1.15633,10.6155,-0.476537,-0.217538,-0.0253502,0
2024-12-13 15:21:37.359,-1.58255,1.15394,10.6944,-0.474094,-0.18272,-0.0204634,0
2024-12-13 15:21:37.363,-1.42941,1.18026,10.8188,-0.467375,-0.149123,-0.0161875,0
2024-12-13 15:21:37.366,-1.35972,1.18744,10.8523,-0.45699,-0.0886492,-0.010079,0
2024-12-13 15:21:37.366,-1.35972,1.18744,10.8523,-0.45699,-0.0886492,-0.010079,0
2024-12-13 15:21:37.368,-1.28554,1.21615,10.8476,-0.452103,-0.0660479,-0.00702474,0
2024-12-13 15:21:37.373,-1.20419,1.29272,10.8093,-0.447217,-0.0446682,-0.00152712,0
2024-12-13 15:21:37.375,-1.08694,1.33819,10.7638,-0.441719,-0.00862822,0.00335966,0
2024-12-13 15:21:37.378,-1.00798,1.37169,10.716,-0.443551,0.00542127,0.0064139,0
2024-12-13 15:21:37.380,-0.926621,1.40548,10.6442,-0.443551,0.0164165,0.00824644,0
2024-12-13 15:21:37.380,-0.926621,1.40548,10.6442,-0.443551,0.0164165,0.00824644,0
2024-12-13 15:21:37.382,-0.845265,1.43181,10.5748,-0.444773,0.0237467,0.0106898,0
2024-12-13 15:21:37.385,-0.756431,1.45095,10.5126,-0.447217,0.0298552,0.0143549,0
2024-12-13 15:21:37.387,-0.694218,1.48684,10.4408,-0.450882,0.0310769,0.0143549,0
2024-12-13 15:21:37.389,-0.646361,1.5347,10.3783,-0.454547,0.030466,0.0125224,0
2024-12-13 15:21:37.392,-0.596112,1.58255,10.3184,-0.460044,0.0261901,0.0125224,0
2024-12-13 15:21:37.394,-0.562612,1.60409,10.2754,-0.463099,0.0213033,0.00946813,0
2024-12-13 15:21:37.396,-0.545863,1.63041,10.2419,-0.466153,0.0176382,0.00702474,0
2024-12-13 15:21:37.399,-0.536291,1.65912,10.2156,-0.47165,0.0164165,0.0051922,0
2024-12-13 15:21:37.401,-0.531506,1.69502,10.2132,-0.472872,0.0139731,0.00152712,0
2024-12-13 15:21:37.403,-0.52672,1.72852,10.1964,-0.474094,0.0133623,-0.00397051,0
2024-12-13 15:21:37.406,-0.536291,1.74527,10.194,-0.474094,0.0109189,-0.00763559,0
2024-12-13 15:21:37.411,-0.572184,1.82662,10.1725,-0.472261,0.00847551,-0.0174091,0
2024-12-13 15:21:37.411,-0.572184,1.82662,10.1725,-0.472261,0.00847551,-0.0174091,0
2024-12-13 15:21:37.413,-0.598505,1.86491,10.1486,-0.469818,0.00725381,-0.0210742,0
2024-12-13 15:21:37.415,-0.629611,1.89123,10.127,-0.468596,0.00908635,-0.0247393,0
2024-12-13 15:21:37.420,-0.660718,1.95105,10.0576,-0.47104,0.0109189,-0.033902,0
2024-12-13 15:21:37.420,-0.660718,1.95105,10.0576,-0.47104,0.0109189,-0.033902,0
2024-12-13 15:21:37.422,-0.665504,1.99202,10.0337,-0.469818,0.0115297,-0.0363454,0
2024-12-13 15:21:37.425,-0.667897,2.01356,9.99542,-0.472872,0.0127514,-0.038178,0
2024-12-13 15:21:37.427,-0.672682,2.04945,9.97388,-0.476537,0.0170274,-0.0412322,0
2024-12-13 15:21:37.429,-0.667897,2.09731,9.96192,-0.474705,0.0231358,-0.0467298,0
2024-12-13 15:21:37.432,-0.663111,2.12363,9.9356,-0.476537,0.0292443,-0.0448973,0
2024-12-13 15:21:37.434,-0.677468,2.13559,9.92842,-0.476537,0.0341311,-0.0479515,0
2024-12-13 15:21:37.436,-0.682254,2.14277,9.94278,-0.479591,0.038407,-0.0503949,0
2024-12-13 15:21:37.440,-0.670289,2.13799,9.94995,-0.477148,0.050624,-0.0510057,0
2024-12-13 15:21:37.444,-0.634397,2.08535,9.94995,-0.474705,0.0567324,-0.0534491,0
2024-12-13 15:21:37.444,-0.634397,2.08535,9.94995,-0.474705,0.0567324,-0.0534491,0
2024-12-13 15:21:37.446,-0.608076,2.06142,9.9667,-0.473483,0.0616192,-0.0546708,0
2024-12-13 15:21:37.448,-0.581755,2.04945,9.98824,-0.47165,0.066506,-0.0552817,0
2024-12-13 15:21:37.453,-0.569791,2.03988,10.017,-0.464931,0.074447,-0.0534491,0
2024-12-13 15:21:37.453,-0.569791,2.03988,10.017,-0.464931,0.074447,-0.0534491,0
2024-12-13 15:21:37.455,-0.565005,2.05663,10.0457,-0.460655,0.0781121,-0.0546708,0
2024-12-13 15:21:37.458,-0.584148,2.07338,10.06,-0.454547,0.0811663,-0.05406,0
2024-12-13 15:21:37.462,-0.605683,2.08295,10.0744,-0.439276,0.0964375,-0.0479515,0
2024-12-13 15:21:37.462,-0.60329,2.08056,10.1079,-0.439276,0.0964375,-0.0479515,0
2024-12-13 15:21:37.465,-0.596112,2.09013,10.1462,-0.430724,0.1056,-0.0436756,0
2024-12-13 15:21:37.467,-0.588933,2.10449,10.1725,-0.42095,0.11232,-0.0387888,0
2024-12-13 15:21:37.472,-0.536291,2.12602,10.1988,-0.395295,0.130034,-0.0314586,0
2024-12-13 15:21:37.472,-0.536291,2.12602,10.1988,-0.395295,0.130034,-0.0314586,0
2024-12-13 15:21:37.474,-0.507577,2.13559,10.2108,-0.382467,0.137975,-0.0271827,0
2024-12-13 15:21:37.476,-0.481256,2.14756,10.2108,-0.367806,0.142862,-0.0235176,0
2024-12-13 15:21:37.479,-0.457328,2.15474,10.2036,-0.354368,0.144084,-0.0216851,0
2024-12-13 15:21:37.481,-0.435793,2.16909,10.1964,-0.336042,0.147138,-0.0192417,0
2024-12-13 15:21:37.484,-0.419043,2.18584,10.1892,-0.320771,0.147749,-0.0161875,0
2024-12-13 15:21:37.486,-0.426222,2.21934,10.1725,-0.3055,0.147749,-0.0161875,0
2024-12-13 15:21:37.491,-0.483649,2.25284,10.1629,-0.273125,0.141029,-0.0137441,0
2024-12-13 15:21:37.492,-0.483649,2.25284,10.1629,-0.2548,0.13431,-0.0137441,0
2024-12-13 15:21:37.493,-0.505185,2.27677,10.1294,-0.2548,0.13431,-0.0137441,0
2024-12-13 15:21:37.495,-0.538684,2.29352,10.0935,-0.238918,0.124536,-0.00946813,0
2024-12-13 15:21:37.498,-0.553041,2.31266,10.0744,-0.223036,0.117817,-0.00946813,0
2024-12-13 15:21:37.500,-0.567398,2.32463,10.0528,-0.204099,0.104379,-0.00702474,0
2024-12-13 15:21:37.502,-0.574577,2.33659,10.0193,-0.190661,0.0933833,-0.00702474,0
2024-12-13 15:21:37.507,-0.579362,2.34377,9.98106,-0.157064,0.0652843,-0.00824644,0
2024-12-13 15:21:37.507,-0.579362,2.34377,9.98106,-0.157064,0.0652843,-0.00824644,0
2024-12-13 15:21:37.509,-0.576969,2.34138,9.96192,-0.143015,0.0469589,-0.00885729,0
2024-12-13 15:21:37.512,-0.567398,2.34856,9.93081,-0.127133,0.0268009,-0.0119115,0
2024-12-13 15:21:37.514,-0.565005,2.34856,9.91646,-0.11064,0.0096972,-0.0155766,0
2024-12-13 15:21:37.517,-0.553041,2.35573,9.91167,-0.0953685,-0.00923906,-0.0155766,0
2024-12-13 15:21:37.519,-0.54347,2.35813,9.88774,-0.0794865,-0.029397,-0.0204634,0
2024-12-13 15:21:37.521,-0.531506,2.35813,9.85903,-0.0794865,-0.029397,-0.0204634,0
2024-12-13 15:21:37.524,-0.519542,2.37009,9.82074,-0.0507767,-0.0660479,-0.025961,0
2024-12-13 15:21:37.526,-0.529113,2.38684,9.77737,-0.0379489,-0.0819299,-0.0284044,0
2024-12-13 15:21:37.528,-0.50997,2.38684,9.74866,-0.0245102,-0.0965902,-0.0320695,0
2024-12-13 15:21:37.531,-0.459721,2.37009,9.72712,-0.0245102,-0.0965902,-0.0320695,0
2024-12-13 15:21:37.533,-0.419043,2.35095,9.69841,0.00358873,-0.123468,-0.0369563,0
2024-12-13 15:21:37.535,-0.383151,2.34377,9.65295,0.014584,-0.136295,-0.0387888,0
2024-12-13 15:21:37.538,-0.35683,2.34377,9.6027,0.0268009,-0.145458,-0.0436756,0
2024-12-13 15:21:37.540,-0.332901,2.32941,9.5692,0.0268009,-0.145458,-0.0436756,0
2024-12-13 15:21:37.542,-0.30658,2.31027,9.51416,0.0481806,-0.16134,-0.0510057,0
2024-12-13 15:21:37.545,-0.292223,2.28395,9.45195,0.0610084,-0.169281,-0.0558925,0
2024-12-13 15:21:37.547,-0.260818,2.24806,9.4017,0.0732253,-0.171724,-0.0583359,0
2024-12-13 15:21:37.550,-0.234497,2.22413,9.3347,0.0799446,-0.17539,-0.0626118,0
2024-12-13 15:21:37.552,-0.234497,2.21695,9.27009,0.0878856,-0.180887,-0.0650552,0
2024-12-13 15:21:37.554,-0.224925,2.2002,9.20997,0.0964375,-0.184552,-0.0668878,0
2024-12-13 15:21:37.557,-0.205783,2.17866,9.15494,0.102546,-0.187606,-0.0711637,0
2024-12-13 15:21:37.559,-0.198604,2.16192,9.09751,0.102546,-0.187606,-0.0711637,0
2024-12-13 15:21:37.561,-0.196211,2.13081,9.05683,0.116595,-0.196158,-0.0766613,0
2024-12-13 15:21:37.564,-0.191426,2.10927,9.02573,0.122093,-0.196158,-0.0809373,0
2024-12-13 15:21:37.566,-0.18664,2.10209,8.98983,0.129423,-0.195547,-0.0803264,0
2024-12-13 15:21:37.571,-0.141177,2.07099,8.91087,0.142862,-0.19005,-0.0876566,0
2024-12-13 15:21:37.571,-0.141177,2.07099,8.91087,0.142862,-0.19005,-0.0876566,0
2024-12-13 15:21:37.573,-0.129212,2.05902,8.85344,0.146527,-0.188217,-0.0870457,0
2024-12-13 15:21:37.575,-0.0861416,2.05902,8.81994,0.153857,-0.185163,-0.0901,0
2024-12-13 15:21:37.578,-0.0478565,2.04467,8.78405,0.153857,-0.185163,-0.0901,0
2024-12-13 15:21:37.580,-0.026321,2.02792,8.73141,0.168517,-0.179665,-0.0974301,0
2024-12-13 15:21:37.585,0.0430708,2.01117,8.60668,0.17768,-0.173557,-0.102928,0
2024-12-13 15:21:37.587,0.081356,2.01356,8.53011,0.183178,-0.170503,-0.109036,0
2024-12-13 15:21:37.587,0.081356,2.01356,8.53011,0.183178,-0.170503,-0.109036,0
2024-12-13 15:21:37.590,0.124427,2.01117,8.45354,0.187454,-0.165616,-0.112701,0
2024-12-13 15:21:37.592,0.138784,2.00399,8.3674,0.190508,-0.162562,-0.117588,0
2024-12-13 15:21:37.594,0.136391,2.00399,8.3004,0.194173,-0.158286,-0.121253,0
2024-12-13 15:21:37.597,0.143569,2.0016,8.24058,0.196616,-0.158286,-0.124307,0
2024-12-13 15:21:37.599,0.141177,2.0016,8.16401,0.200892,-0.158286,-0.125529,0
2024-12-13 15:21:37.601,0.129212,2.00399,8.08714,0.200892,-0.160118,-0.129194,0
2024-12-13 15:21:37.604,0.11007,2.01356,8.01536,0.205779,-0.166227,-0.131638,0
2024-12-13 15:21:37.606,0.105284,2.03031,7.92922,0.207612,-0.172946,-0.134692,0
2024-12-13 15:21:37.608,0.112463,2.0327,7.8335,0.209444,-0.180887,-0.138968,0
2024-12-13 15:21:37.613,0.12682,2.0016,7.68754,0.208833,-0.199823,-0.14752,0
2024-12-13 15:21:37.613,0.12682,2.0016,7.68754,0.208833,-0.199823,-0.14752,0
2024-12-13 15:21:37.615,0.155533,1.99202,7.62533,0.210055,-0.207764,-0.150574,0
2024-12-13 15:21:37.618,0.18664,1.9681,7.55324,0.209444,-0.214484,-0.156682,0
2024-12-13 15:21:37.620,0.189033,1.92473,7.50299,0.209444,-0.223646,-0.165234,0
2024-12-13 15:21:37.623,0.177069,1.9008,7.45753,0.207612,-0.228533,-0.173786,0
2024-12-13 15:21:37.625,0.145962,1.86491,7.42882,0.208833,-0.234642,-0.18356,0
2024-12-13 15:21:37.627,0.107677,1.83619,7.4025,0.203336,-0.241972,-0.193333,0
2024-12-13 15:21:37.630,0.0717847,1.84337,7.35703,0.201503,-0.247469,-0.202496,0
2024-12-13 15:21:37.632,0.0358923,1.82662,7.32353,0.201503,-0.251135,-0.211048,0
2024-12-13 15:21:37.634,0.0191426,1.79312,7.28764,0.196616,-0.253578,-0.218989,0
2024-12-13 15:21:37.637,-0.00717847,1.78594,7.24457,0.192951,-0.253578,-0.22693,0
2024-12-13 15:21:37.639,-0.0478565,1.76919,7.20868,0.187454,-0.254189,-0.235482,0
2024-12-13 15:21:37.641,-0.0741775,1.74287,7.18236,0.175848,-0.255411,-0.239758,0
2024-12-13 15:21:37.644,-0.0885344,1.71894,7.14168,0.165463,-0.255411,-0.247088,0
2024-12-13 15:21:37.646,-0.105284,1.70219,7.11536,0.151414,-0.2548,-0.253196,0
2024-12-13 15:21:37.648,-0.141177,1.67827,7.09861,0.136753,-0.252356,-0.261137,0
2024-12-13 15:21:37.651,-0.184247,1.66391,7.09143,0.122704,-0.246248,-0.267857,0
2024-12-13 15:21:37.653,-0.241675,1.66869,7.10339,0.109876,-0.241972,-0.273354,0
2024-12-13 15:21:37.656,-0.299402,1.66869,7.12971,0.094605,-0.235253,-0.279463,0
2024-12-13 15:21:37.660,-0.3999,1.66869,7.19432,0.0640626,-0.219371,-0.284349,0
2024-12-13 15:21:37.660,-0.3999,1.66869,7.19432,0.0640626,-0.219371,-0.284349,0
2024-12-13 15:21:37.665,-0.454935,1.6663,7.25653,0.0475697,-0.193715,-0.289236,0
2024-12-13 15:21:37.665,-0.519542,1.67109,7.25653,0.0475697,-0.193715,-0.289236,0
2024-12-13 15:21:37.667,-0.567398,1.67348,7.29003,0.0408504,-0.180276,-0.288625,0
2024-12-13 15:21:37.670,-0.60329,1.67348,7.33789,0.0322986,-0.167449,-0.288014,0
2024-12-13 15:21:37.672,-0.655932,1.68784,7.37617,0.0286335,-0.154621,-0.289236,0
2024-12-13 15:21:37.674,-0.739681,1.68305,7.4025,0.0194708,-0.143625,-0.287404,0
2024-12-13 15:21:37.677,-0.797109,1.6663,7.42164,0.0188599,-0.135074,-0.283128,0
2024-12-13 15:21:37.679,-0.833001,1.65912,7.45035,0.0164165,-0.129576,-0.280073,0
2024-12-13 15:21:37.684,-0.924228,1.67827,7.50539,0.0096972,-0.121635,-0.274576,0
2024-12-13 15:21:37.684,-0.924228,1.67827,7.50539,0.0096972,-0.121635,-0.274576,0
2024-12-13 15:21:37.686,-0.969691,1.67587,7.53171,0.00358873,-0.122857,-0.269078,0
2024-12-13 15:21:37.688,-1.00798,1.68305,7.5676,0.00419957,-0.122246,-0.264802,0
2024-12-13 15:21:37.693,-1.0989,1.68544,7.64926,-0.000687203,-0.121635,-0.259305,0
2024-12-13 15:21:37.696,-1.0989,1.70219,7.68515,-0.00801737,-0.130798,-0.249531,0
2024-12-13 15:21:37.696,-1.13719,1.70219,7.68515,-0.00801737,-0.130798,-0.249531,0
2024-12-13 15:21:37.698,-1.15394,1.70459,7.71865,-0.0141258,-0.135684,-0.245255,0
2024-12-13 15:21:37.700,-1.1683,1.69023,7.75693,-0.0196235,-0.143015,-0.239758,0
2024-12-13 15:21:37.703,-1.2018,1.68066,7.83111,-0.0245102,-0.152788,-0.234871,0
2024-12-13 15:21:37.705,-1.24008,1.67827,7.91725,-0.0306187,-0.161951,-0.230595,0
2024-12-13 15:21:37.707,-1.26879,1.68305,8.01536,-0.0361163,-0.170503,-0.225708,0
2024-12-13 15:21:37.710,-1.28554,1.68544,8.12064,-0.0422248,-0.180276,-0.220821,0
2024-12-13 15:21:37.712,-1.30469,1.67827,8.23819,-0.0465007,-0.185774,-0.217767,0
2024-12-13 15:21:37.714,-1.31904,1.67109,8.36022,-0.0483333,-0.19005,-0.212269,0
2024-12-13 15:21:37.717,-1.31665,1.66869,8.47986,-0.0526092,-0.192493,-0.207993,0
2024-12-13 15:21:37.719,-1.32144,1.68066,8.59711,-0.0526092,-0.196158,-0.204328,0
2024-12-13 15:21:37.721,-1.35494,1.68544,8.70987,-0.0513875,-0.196158,-0.200663,0
2024-12-13 15:21:37.724,-1.38844,1.68066,8.82952,-0.0513875,-0.195547,-0.197609,0
2024-12-13 15:21:37.726,-1.41506,1.67587,8.93959,-0.0471116,-0.191882,-0.193333,0
2024-12-13 15:21:37.729,-1.44377,1.68066,9.04965,-0.0428357,-0.183331,-0.186614,0
2024-12-13 15:21:37.731,-1.47248,1.6998,9.1693,-0.0367272,-0.177222,-0.181727,0
2024-12-13 15:21:37.736,-1.5323,1.7333,9.37059,-0.0208452,-0.166838,-0.167067,0
2024-12-13 15:21:37.736,-1.5323,1.7333,9.37059,-0.0208452,-0.166838,-0.167067,0
2024-12-13 15:21:37.738,-1.5658,1.75005,9.44716,-0.0122933,-0.158286,-0.157904,0
2024-12-13 15:21:37.740,-1.59212,1.77398,9.51895,0.00358873,-0.150956,-0.149352,0
2024-12-13 15:21:37.745,-1.62084,1.85055,9.60987,0.0286335,-0.13996,-0.127972,0
2024-12-13 15:21:37.745,-1.62084,1.85055,9.60987,0.0286335,-0.13996,-0.127972,0
2024-12-13 15:21:37.747,-1.62562,1.88644,9.65055,0.042683,-0.135684,-0.118199,0
2024-12-13 15:21:37.750,-1.61127,1.91755,9.65773,0.0567324,-0.133241,-0.105371,0
2024-12-13 15:21:37.752,-1.59691,1.95823,9.66012,0.0695602,-0.132019,-0.0962084,0
2024-12-13 15:21:37.754,-1.58973,1.99442,9.67448,0.0842206,-0.133852,-0.0852132,0
2024-12-13 15:21:37.759,-1.54905,2.09731,9.64577,0.111709,-0.13996,-0.0638335,0
2024-12-13 15:21:37.759,-1.54905,2.09731,9.64577,0.111709,-0.13996,-0.0638335,0
2024-12-13 15:21:37.761,-1.53709,2.14995,9.61945,0.124536,-0.144236,-0.0546708,0
2024-12-13 15:21:37.764,-1.51077,2.18584,9.57877,0.135532,-0.150345,-0.0448973,0
2024-12-13 15:21:37.766,-1.47488,2.21216,9.54288,0.135532,-0.150345,-0.0448973,0
2024-12-13 15:21:37.769,-1.44138,2.25284,9.51416,0.157522,-0.159507,-0.0284044,0
2024-12-13 15:21:37.771,-1.4004,2.29352,9.46391,0.167296,-0.166227,-0.0204634,0
2024-12-13 15:21:37.773,-1.35733,2.32702,9.42323,0.172183,-0.177222,-0.0119115,0
2024-12-13 15:21:37.776,-1.31426,2.37009,9.41366,0.17768,-0.192493,-0.00580305,0
2024-12-13 15:21:37.778,-1.29033,2.3988,9.38974,0.183178,-0.206543,-0.00397051,0
2024-12-13 15:21:37.780,-1.2664,2.41795,9.34666,0.182567,-0.220592,-0.00152712,0
2024-12-13 15:21:37.783,-1.22812,2.44905,9.32034,0.183178,-0.235253,0.00152712,0
2024-12-13 15:21:37.785,-1.20658,2.45863,9.33709,0.181956,-0.249302,0.00458135,0
2024-12-13 15:21:37.787,-1.18505,2.47537,9.36102,0.180734,-0.259076,0.00213797,0
2024-12-13 15:21:37.792,-1.08933,2.53549,9.43759,0.178902,-0.273736,0.000305424,0
2024-12-13 15:21:37.794,-1.04865,2.55464,9.5022,0.175848,-0.281677,-0.00152712,0
2024-12-13 15:21:37.799,-1.02473,2.56421,9.59073,0.172183,-0.290229,-0.0113007,0
2024-12-13 15:21:37.799,-0.998405,2.56421,9.59073,0.172183,-0.290229,-0.0113007,0
2024-12-13 15:21:37.802,-0.962513,2.5666,9.62184,0.17035,-0.291451,-0.0155766,0
2024-12-13 15:21:37.802,-0.962513,2.5666,9.62184,0.17035,-0.291451,-0.0155766,0
2024-12-13 15:21:37.804,-0.938585,2.57617,9.66491,0.166074,-0.292061,-0.0186308,0
2024-12-13 15:21:37.806,-0.917049,2.59292,9.71516,0.164852,-0.287785,-0.0204634,0
2024-12-13 15:21:37.809,-0.897907,2.59053,9.76302,0.161187,-0.283509,-0.0235176,0
2024-12-13 15:21:37.811,-0.890728,2.57378,9.80369,0.159355,-0.278012,-0.0253502,0
2024-12-13 15:21:37.813,-0.893121,2.5666,9.84706,0.159355,-0.278012,-0.0253502,0
2024-12-13 15:21:37.818,-0.878764,2.56182,9.96192,0.152025,-0.262741,-0.0271827,0
2024-12-13 15:21:37.818,-0.878764,2.56182,9.96192,0.152025,-0.262741,-0.0271827,0
2024-12-13 15:21:37.820,-0.862014,2.55464,10.0385,0.150803,-0.256021,-0.0265719,0
2024-12-13 15:21:37.825,-0.84018,2.53549,10.2108,0.153246,-0.24808,-0.0241285,0
2024-12-13 15:21:37.825,-0.84018,2.53549,10.2108,0.153246,-0.24808,-0.0241285,0
2024-12-13 15:21:37.827,-0.835394,2.53549,10.2754,0.153857,-0.244415,-0.0229068,0
2024-12-13 15:21:37.830,-0.821037,2.54028,10.3615,0.155079,-0.237696,-0.0222959,0
2024-12-13 15:21:37.832,-0.80668,2.5666,10.4384,0.158133,-0.231587,-0.0216851,0
2024-12-13 15:21:37.835,-0.804287,2.60967,10.491,0.163631,-0.224868,-0.0204634,0
2024-12-13 15:21:37.837,-0.813859,2.65992,10.5413,0.169739,-0.216316,-0.01802,0
2024-12-13 15:21:37.839,-0.816252,2.72213,10.5724,0.175237,-0.209597,-0.0155766,0
2024-12-13 15:21:37.844,-0.833001,2.8657,10.6083,0.188675,-0.188828,-0.00885729,0
2024-12-13 15:21:37.844,-0.833001,2.8657,10.6083,0.188675,-0.188828,-0.00885729,0
2024-12-13 15:21:37.846,-0.85005,2.92074,10.6155,0.197227,-0.178444,-0.00458135,0
2024-12-13 15:21:37.849,-0.876371,2.98535,10.6059,0.203336,-0.166838,0.00213797,0
2024-12-13 15:21:37.851,-0.895514,3.05474,10.5939,0.208833,-0.157064,0.00580305,0
2024-12-13 15:21:37.853,-0.912264,3.12682,10.558,0.212498,-0.14668,0.00763559,0
2024-12-13 15:21:37.856,-0.940978,3.17228,10.5317,0.214942,-0.13935,0.00946813,0
2024-12-13 15:21:37.858,-0.969691,3.20578,10.5341,0.214942,-0.136295,0.010079,0
2024-12-13 15:21:37.860,-0.991227,3.25125,10.5485,0.211277,-0.133852,0.0106898,0
2024-12-13 15:21:37.863,-1.02233,3.3015,10.5844,0.208833,-0.135074,0.00763559,0
2024-12-13 15:21:37.865,-1.05823,3.35414,10.6274,0.203947,-0.141182,0.00702474,0
2024-12-13 15:21:37.867,-1.09412,3.39482,10.692,0.196006,-0.152788,0.00458135,0
2024-12-13 15:21:37.870,-1.11805,3.402,10.771,0.189286,-0.165616,0.00152712,0
2024-12-13 15:21:37.872,-1.11805,3.39242,10.8643,0.178291,-0.181498,-0.00152712,0
2024-12-13 15:21:37.875,-1.11326,3.37567,10.989,0.164852,-0.198602,-0.00824644,0
2024-12-13 15:21:37.877,-1.0989,3.335,11.135,0.153857,-0.21876,-0.0161875,0
2024-12-13 15:21:37.879,-1.1013,3.27518,11.3097,0.135532,-0.237696,-0.0235176,0
2024-12-13 15:21:37.882,-1.12044,3.19143,11.5182,0.122704,-0.257243,-0.0284044,0
2024-12-13 15:21:37.884,-1.1324,3.08106,11.7239,0.108654,-0.277401,-0.0357346,0
2024-12-13 15:21:37.886,-1.15633,2.97817,11.9273,0.0933833,-0.296337,-0.0387888,0
2024-12-13 15:21:37.889,-1.18026,2.90878,12.1454,0.0775012,-0.310998,-0.0436756,0
2024-12-13 15:21:37.891,-1.19222,2.85135,12.3751,0.0622301,-0.317717,-0.046119,0
2024-12-13 15:21:37.893,-1.23051,2.78674,12.6314,0.0451263,-0.321993,-0.0455081,0
2024-12-13 15:21:37.896,-1.27597,2.71256,12.8994,0.0286335,-0.321993,-0.0448973,0
2024-12-13 15:21:37.898,-1.30229,2.60967,13.1892,0.0127514,-0.315274,-0.0393996,0
2024-12-13 15:21:37.900,-1.30947,2.50648,13.4955,-0.00251974,-0.304278,-0.0302369,0
2024-12-13 15:21:37.903,-1.30229,2.41795,13.8141,-0.0141258,-0.288396,-0.0174091,0
2024-12-13 15:21:37.905,-1.29512,2.32463,14.1203,-0.0257319,-0.267017,-0.00580305,0
2024-12-13 15:21:37.910,-1.21137,2.07338,14.726,-0.0483333,-0.202267,0.0174091,0
2024-12-13 15:21:37.910,-1.21137,2.07338,14.726,-0.0483333,-0.202267,0.0174091,0
2024-12-13 15:21:37.912,-1.16351,1.95344,15.0206,-0.0544418,-0.164394,0.0308478,0
2024-12-13 15:21:37.915,-1.10848,1.83141,15.3006,-0.0611611,-0.125911,0.0448973,0
2024-12-13 15:21:37.917,-1.06062,1.69502,15.5976,-0.0642153,-0.0819299,0.0583359,0
2024-12-13 15:21:37.919,-1.02473,1.54905,15.8728,-0.0642153,-0.0330621,0.0717745,0
2024-12-13 15:21:37.922,-0.912264,1.47727,16.0262,-0.0642153,-0.0330621,0.0717745,0
2024-12-13 15:21:37.926,-0.557827,1.37886,16.1554,-0.0593285,0.0848314,0.101706,0
2024-12-13 15:21:37.926,-0.557827,1.37886,16.1554,-0.0593285,0.0848314,0.101706,0
2024-12-13 15:21:37.929,-0.495613,1.34297,16.2631,-0.0544418,0.126369,0.106593,0
2024-12-13 15:21:37.931,-0.409472,1.30229,16.354,-0.0489441,0.169128,0.11209,0
2024-12-13 15:21:37.933,-0.337687,1.23051,16.445,-0.0379489,0.213109,0.120031,1
2024-12-13 15:21:37.936,-0.263211,1.14437,16.5311,-0.0226777,0.258312,0.125529,0
2024-12-13 15:21:37.938,-0.136391,1.0678,16.5649,-0.00435229,0.298628,0.129194,0
2024-12-13 15:21:37.941,-0.0550349,1.01037,16.5817,-0.00435229,0.298628,0.129194,0
2024-12-13 15:21:37.943,-0.0502493,0.972084,16.596,0.0469589,0.373762,0.144542,0
2024-12-13 15:21:37.945,-0.0526421,0.94337,16.5817,0.0799446,0.411635,0.154315,0
2024-12-13 15:21:37.948,-0.0981057,0.926621,16.5577,0.116595,0.446453,0.165921,0
2024-12-13 15:21:37.950,-0.189033,0.933799,16.4665,0.154468,0.479439,0.177527,0
2024-12-13 15:21:37.952,-0.316152,0.945763,16.2847,0.192341,0.503873,0.192188,0
2024-12-13 15:21:37.955,-0.438186,0.952942,16.0669,0.230824,0.525863,0.209902,0
2024-12-13 15:21:37.957,-0.567398,0.984048,15.8154,0.267475,0.544799,0.228839,0
2024-12-13 15:21:37.959,-0.710967,1.01755,15.5402,0.301071,0.560681,0.249607,0
2024-12-13 15:21:37.962,-0.845265,1.04387,15.2504,0.334057,0.569844,0.274041,0
2024-12-13 15:21:37.964,-0.964906,1.05823,14.9225,0.36521,0.571677,0.296032,0
2024-12-13 15:21:37.966,-1.00558,1.10848,14.5514,0.392775,0.564346,0.316801,0
2024-12-13 15:21:37.969,-0.962513,1.22333,14.106,0.412322,0.542356,0.335126,0
2024-12-13 15:21:37.971,-0.873978,1.3334,13.6247,0.424539,0.505705,0.346732,0
2024-12-13 15:21:37.973,-0.761217,1.41506,13.1602,0.431258,0.458059,0.354673,0
2024-12-13 15:21:37.976,-0.65354,1.52034,12.7415,0.431869,0.40125,0.355284,0
2024-12-13 15:21:37.978,-0.557827,1.63998,12.3727,0.431869,0.40125,0.355284,0
2024-12-13 15:21:37.981,-0.454935,1.73569,12.0541,0.409879,0.272362,0.339402,0
2024-12-13 15:21:37.983,-0.354437,1.82184,11.8005,0.392775,0.202725,0.32352,0
2024-12-13 15:21:37.985,-0.265603,1.89841,11.6043,0.375671,0.133088,0.308249,0
2024-12-13 15:21:37.988,-0.215354,1.9681,11.4867,0.353604,0.0628409,0.288702,0
2024-12-13 15:21:37.990,-0.200997,2.0327,11.4365,0.329781,-0.00801737,0.2661,0
2024-12-13 15:21:37.992,-0.205783,2.07099,11.4054,0.305347,-0.0745997,0.245332,0
2024-12-13 15:21:37.995,-0.210568,2.07577,11.3886,0.284578,-0.138128,0.225174,0
2024-12-13 15:21:37.997,-0.212961,2.07338,11.3839,0.262588,-0.19738,0.206848,0
2024-12-13 15:21:37.999,-0.222533,2.07099,11.3743,0.236322,-0.252967,0.19341,0
2024-12-13 15:21:38.002,-0.217747,2.04706,11.3527,0.210666,-0.300002,0.180582,0
2024-12-13 15:21:38.004,-0.191426,2.0016,11.3073,0.185621,-0.34154,0.17203,0
2024-12-13 15:21:38.006,-0.155533,1.96062,11.2929,0.158744,-0.378191,0.165921,0
2024-12-13 15:21:38.009,-0.0981057,1.91037,11.3073,0.13431,-0.405068,0.160424,0
2024-12-13 15:21:38.011,-0.00478565,1.84576,11.3264,0.108044,-0.422783,0.156759,0
2024-12-13 15:21:38.014,0.0933201,1.76919,11.3767,0.0854423,-0.433167,0.154926,0
2024-12-13 15:21:38.018,0.299402,1.68784,11.566,0.0512348,-0.437443,0.155537,0
2024-12-13 15:21:38.018,0.299402,1.68784,11.566,0.0512348,-0.437443,0.155537,0
2024-12-13 15:21:38.021,0.378365,1.62323,11.6545,0.0402396,-0.433167,0.15798,0
2024-12-13 15:21:38.023,0.474078,1.55145,11.7191,0.030466,-0.421561,0.160424,0
2024-12-13 15:21:38.028,0.605683,1.42941,11.834,0.0188599,-0.380634,0.176306,0
2024-12-13 15:21:38.028,0.605683,1.42941,11.834,0.0188599,-0.380634,0.176306,0
2024-12-13 15:21:38.030,0.687039,1.37647,11.8843,0.0182491,-0.357422,0.189134,0
2024-12-13 15:21:38.032,0.780359,1.3334,11.956,0.0200816,-0.33421,0.200129,0
2024-12-13 15:21:38.035,0.857229,1.29033,12.0254,0.0213033,-0.306722,0.217233,0
2024-12-13 15:21:38.037,0.919442,1.24247,12.0688,0.0274118,-0.27679,0.234336,0
2024-12-13 15:21:38.042,1.00558,1.16112,12.1621,0.0341311,-0.244415,0.252662,0
2024-12-13 15:21:38.044,1.03908,1.0989,12.1549,0.0603975,-0.171114,0.292978,0
2024-12-13 15:21:38.044,1.03908,1.0989,12.1549,0.0603975,-0.171114,0.292978,0
2024-12-13 15:21:38.047,1.08933,1.04148,12.0832,0.0732253,-0.129576,0.315579,0
2024-12-13 15:21:38.049,1.16112,0.998405,11.9895,0.0884965,-0.0910926,0.340013,0
2024-12-13 15:21:38.051,1.21615,0.96012,11.889,0.101935,-0.0483333,0.362003,0
2024-12-13 15:21:38.054,1.26401,0.931406,11.7766,0.115374,-0.00374144,0.384605,0
2024-12-13 15:21:38.056,1.31904,0.936192,11.6689,0.127591,0.0396287,0.407817,0
2024-12-13 15:21:38.058,1.36451,0.94337,11.5564,0.138586,0.0836097,0.428586,0
2024-12-13 15:21:38.061,1.40788,0.926621,11.4245,0.150192,0.127591,0.448744,0
2024-12-13 15:21:38.063,1.44616,0.926621,11.3001,0.160576,0.170961,0.468902,0
2024-12-13 15:21:38.065,1.47966,0.952942,11.1613,0.169128,0.213109,0.487227,0
2024-12-13 15:21:38.068,1.4988,0.97687,10.9962,0.176459,0.255869,0.504942,0
2024-12-13 15:21:38.070,1.48205,1.02233,10.8404,0.181345,0.29313,0.521434,0
2024-12-13 15:21:38.075,1.38844,1.15633,10.5006,0.187454,0.354215,0.555642,0
2024-12-13 15:21:38.075,1.38844,1.15633,10.5006,0.187454,0.354215,0.555642,0
2024-12-13 15:21:38.077,1.31665,1.22572,10.3567,0.188065,0.374984,0.56847,0
2024-12-13 15:21:38.079,1.24008,1.28794,10.1988,0.188065,0.392698,0.58313,0
2024-12-13 15:21:38.082,1.18744,1.34536,10.06,0.186843,0.409802,0.594125,0
2024-12-13 15:21:38.084,1.16112,1.38604,9.91406,0.189286,0.425684,0.601456,0
2024-12-13 15:21:38.089,1.1348,1.44855,9.64098,0.186843,0.45134,0.613672,0
2024-12-13 15:21:38.091,1.08215,1.48205,9.47588,0.1844,0.459281,0.617338,0
2024-12-13 15:21:38.091,1.08215,1.48205,9.47588,0.1844,0.459281,0.617338,0
2024-12-13 15:21:38.094,1.00558,1.53948,9.30359,0.180124,0.463557,0.620392,0
2024-12-13 15:21:38.096,0.931406,1.58255,9.13819,0.173404,0.464168,0.624668,0
2024-12-13 15:21:38.098,0.859622,1.61127,8.99701,0.17035,0.459892,0.625279,0
2024-12-13 15:21:38.103,0.708575,1.68305,8.71466,0.15569,0.440345,0.625279,0
2024-12-13 15:21:38.103,0.708575,1.68305,8.71466,0.15569,0.440345,0.625279,0
2024-12-13 15:21:38.105,0.646361,1.6998,8.58993,0.149581,0.428738,0.623446,0
2024-12-13 15:21:38.108,0.596112,1.72373,8.48226,0.142251,0.418354,0.623446,0
2024-12-13 15:21:38.110,0.557827,1.72134,8.38176,0.142251,0.418354,0.623446,0
2024-12-13 15:21:38.112,0.52672,1.70459,8.28365,0.125758,0.398196,0.622835,0
2024-12-13 15:21:38.115,0.545863,1.68305,8.2693,0.11965,0.388422,0.622224,0
2024-12-13 15:21:38.117,0.572184,1.69502,8.22862,0.115374,0.388422,0.622224,0
2024-12-13 15:21:38.120,0.538684,1.73091,8.11346,0.109876,0.381703,0.617338,0
2024-12-13 15:21:38.122,0.469292,1.75962,8.02014,0.108044,0.368265,0.614894,0
2024-12-13 15:21:38.124,0.404686,1.79073,7.90529,0.101935,0.348717,0.611229,0
2024-12-13 15:21:38.127,0.378365,1.82423,7.78804,0.0952158,0.323673,0.606953,0
2024-12-13 15:21:38.129,0.385544,1.85294,7.68754,0.0952158,0.323673,0.606953,0
2024-12-13 15:21:38.132,0.404686,1.87448,7.59422,0.0689494,0.244873,0.588017,0
2024-12-13 15:21:38.136,0.409472,1.91994,7.436,0.058565,0.222272,0.582519,0
2024-12-13 15:21:38.136,0.409472,1.91994,7.436,0.058565,0.222272,0.582519,0
2024-12-13 15:21:38.138,0.419043,1.92951,7.39532,0.050624,0.197227,0.5758,0
2024-12-13 15:21:38.141,0.419043,1.9343,7.37139,0.0420721,0.174626,0.56847,0
2024-12-13 15:21:38.143,0.440578,1.92233,7.38096,0.0365745,0.15569,0.560529,0
2024-12-13 15:21:38.145,0.474078,1.91037,7.41207,0.0316877,0.13431,0.551977,0
2024-12-13 15:21:38.148,0.502792,1.91037,7.45035,0.0268009,0.111098,0.544036,0
2024-12-13 15:21:38.150,0.548256,1.90558,7.48624,0.022525,0.0939941,0.535484,0
2024-12-13 15:21:38.152,0.600898,1.90319,7.51257,0.022525,0.0738362,0.526321,0
2024-12-13 15:21:38.155,0.660718,1.9008,7.53889,0.0213033,0.0548999,0.516548,0
2024-12-13 15:21:38.157,0.699003,1.89362,7.54607,0.0200816,0.0420721,0.506774,0
2024-12-13 15:21:38.160,0.737288,1.89123,7.55564,0.0206925,0.0292443,0.49639,0
2024-12-13 15:21:38.162,0.787538,1.89841,7.57747,0.0206925,0.0158057,0.484784,0
2024-12-13 15:21:38.164,0.799502,1.90319,7.57478,0.022525,0.00297788,0.471956,0
2024-12-13 15:21:38.167,0.80668,1.90798,7.55564,0.0200816,-0.00801737,0.46035,0
2024-12-13 15:21:38.169,0.821037,1.91276,7.54367,0.0206925,-0.0196235,0.448133,0
2024-12-13 15:21:38.171,0.845265,1.90798,7.54128,0.0200816,-0.0300079,0.436527,0
2024-12-13 15:21:38.174,0.864407,1.9008,7.54367,0.0164165,-0.041614,0.423088,0
2024-12-13 15:21:38.176,0.871586,1.89123,7.53889,0.0139731,-0.0526092,0.409649,0
2024-12-13 15:21:38.178,0.893121,1.88405,7.52453,0.0121406,-0.0642153,0.397433,0
2024-12-13 15:21:38.181,0.914656,1.87687,7.51496,0.00725381,-0.0758214,0.384605,0
2024-12-13 15:21:38.183,0.921835,1.86251,7.50299,0.00114534,-0.0868167,0.369944,0
2024-12-13 15:21:38.185,0.926621,1.86251,7.47907,-0.00313059,-0.0996445,0.355895,0
2024-12-13 15:21:38.188,0.938585,1.85294,7.45275,-0.0116825,-0.108807,0.341235,0
2024-12-13 15:21:38.190,0.962513,1.82901,7.42642,-0.0232886,-0.11797,0.329018,0
2024-12-13 15:21:38.193,0.96012,1.80987,7.39053,-0.0312296,-0.124078,0.314357,0
2024-12-13 15:21:38.195,0.952942,1.80269,7.35943,-0.0458899,-0.130798,0.300308,0
2024-12-13 15:21:38.198,0.950549,1.8003,7.3331,-0.0752106,-0.13935,0.27282,0
2024-12-13 15:21:38.200,0.950549,1.78355,7.32114,-0.0752106,-0.13935,0.27282,0
2024-12-13 15:21:38.202,0.962513,1.76441,7.34507,-0.0947577,-0.147291,0.259992,0
2024-12-13 15:21:38.204,0.96012,1.75723,7.38335,-0.0947577,-0.147291,0.259992,0
2024-12-13 15:21:38.207,0.931406,1.75484,7.42642,-0.131409,-0.152177,0.234336,0
2024-12-13 15:21:38.209,0.905085,1.75723,7.47907,-0.149123,-0.151566,0.222119,0
2024-12-13 15:21:38.211,0.88355,1.75244,7.56999,-0.165616,-0.14668,0.211124,0
2024-12-13 15:21:38.214,0.852443,1.74287,7.66361,-0.178444,-0.13996,0.197685,0
2024-12-13 15:21:38.216,0.825823,1.75005,7.733,-0.194937,-0.137517,0.18669,0
2024-12-13 15:21:38.218,0.804287,1.76201,7.80479,-0.21143,-0.13263,0.17936,0
2024-12-13 15:21:38.221,0.782752,1.76919,7.87657,-0.224868,-0.128965,0.166532,0
2024-12-13 15:21:38.223,0.766002,1.7668,7.94597,-0.238307,-0.121024,0.159202,0
2024-12-13 15:21:38.226,0.756431,1.76201,8.01775,-0.251135,-0.115526,0.152483,0
2024-12-13 15:21:38.228,0.739681,1.77159,8.11107,-0.251135,-0.115526,0.152483,0
2024-12-13 15:21:38.230,0.737288,1.78594,8.22144,-0.275568,-0.100255,0.137212,0
2024-12-13 15:21:38.233,0.761217,1.81226,8.3363,-0.275568,-0.100255,0.137212,0
2024-12-13 15:21:38.237,0.809073,1.84098,8.56361,-0.304278,-0.0727672,0.121864,0
2024-12-13 15:21:38.237,0.809073,1.84098,8.56361,-0.304278,-0.0727672,0.121864,0
2024-12-13 15:21:38.240,0.818644,1.86491,8.6665,-0.310998,-0.065437,0.116366,0
2024-12-13 15:21:38.242,0.809073,1.86251,8.78884,-0.316495,-0.0593285,0.110869,0
2024-12-13 15:21:38.244,0.813859,1.85773,8.9013,-0.323825,-0.0544418,0.107815,0
2024-12-13 15:21:38.247,0.811466,1.86491,9.00898,-0.32688,-0.0465007,0.104149,0
2024-12-13 15:21:38.249,0.785145,1.85533,9.11905,-0.331156,-0.0410031,0.102317,0
2024-12-13 15:21:38.251,0.758824,1.84337,9.22433,-0.332377,-0.0367272,0.101706,0
2024-12-13 15:21:38.254,0.718146,1.83141,9.33709,-0.332988,-0.0312296,0.101706,0
2024-12-13 15:21:38.256,0.667897,1.79073,9.45434,-0.335431,-0.0275645,0.102317,0
2024-12-13 15:21:38.258,0.622433,1.75244,9.55963,-0.334821,-0.0208452,0.104149,0
2024-12-13 15:21:38.261,0.574577,1.72134,9.67927,-0.332988,-0.0171801,0.110258,0
2024-12-13 15:21:38.263,0.524327,1.70698,9.79412,-0.328101,-0.0129041,0.116977,0
2024-12-13 15:21:38.266,0.4669,1.70459,9.9021,-0.322604,-0.00435229,0.125529,0
2024-12-13 15:21:38.268,0.407079,1.68784,10.0313,-0.316495,0.00175619,0.135379,0
2024-12-13 15:21:38.270,0.35683,1.68784,10.1701,-0.308554,0.0109189,0.144542,0
2024-12-13 15:21:38.273,0.344866,1.70219,10.2754,-0.301224,0.022525,0.15798,0
2024-12-13 15:21:38.275,0.347258,1.71416,10.3711,-0.291451,0.0347419,0.167143,0
2024-12-13 15:21:38.277,0.354437,1.71894,10.4886,-0.285342,0.0469589,0.17936,0
2024-12-13 15:21:38.280,0.364008,1.73091,10.6035,-0.272514,0.0634518,0.191577,0
2024-12-13 15:21:38.282,0.368794,1.74766,10.716,-0.263352,0.0775012,0.20074,0
2024-12-13 15:21:38.284,0.397508,1.77398,10.8021,-0.254189,0.0921616,0.208681,0
2024-12-13 15:21:38.287,0.411865,1.80509,10.8906,-0.241361,0.101324,0.217843,0
2024-12-13 15:21:38.291,0.452543,1.84337,11.0106,-0.219371,0.120261,0.23006,0
2024-12-13 15:21:38.291,0.452543,1.84337,11.0106,-0.219371,0.120261,0.23006,0
2024-12-13 15:21:38.294,0.457328,1.88405,11.0632,-0.207764,0.126369,0.237391,0
2024-12-13 15:21:38.296,0.500399,1.93191,11.1039,-0.195547,0.130034,0.243499,0
2024-12-13 15:21:38.299,0.533899,1.9681,11.1374,-0.186996,0.133088,0.24411,0
2024-12-13 15:21:38.301,0.581755,2.01117,11.1613,-0.176,0.13431,0.247775,0
2024-12-13 15:21:38.303,0.655932,2.05185,11.147,-0.165616,0.134921,0.249607,0
2024-12-13 15:21:38.306,0.727717,2.08056,11.1135,-0.157064,0.131256,0.248997,0
2024-12-13 15:21:38.308,0.751645,2.13559,11.0752,-0.147901,0.126369,0.246553,0
2024-12-13 15:21:38.310,0.739681,2.19541,11.0154,-0.140571,0.116595,0.24411,0
2024-12-13 15:21:38.313,0.749253,2.23609,10.9531,-0.136295,0.104989,0.242888,0
2024-12-13 15:21:38.315,0.761217,2.26002,10.9193,-0.130798,0.0915507,0.237391,0
2024-12-13 15:21:38.320,0.787538,2.31506,10.8571,-0.120413,0.0610084,0.228839,0
2024-12-13 15:21:38.320,0.787538,2.31506,10.8571,-0.120413,0.0610084,0.228839,0
2024-12-13 15:21:38.322,0.797109,2.36531,10.8212,-0.117359,0.0439046,0.22273,0
2024-12-13 15:21:38.324,0.813859,2.39402,10.7877,-0.111861,0.0255792,0.212346,0
2024-12-13 15:21:38.327,0.845265,2.40359,10.7375,-0.106975,0.00786466,0.203183,0
2024-12-13 15:21:38.329,0.871586,2.42752,10.6896,-0.0996445,-0.0116825,0.19341,0
2024-12-13 15:21:38.332,0.895514,2.44905,10.6514,-0.0941468,-0.033673,0.181803,0
2024-12-13 15:21:38.334,0.933799,2.45384,10.6179,-0.0904818,-0.0556635,0.170197,0
2024-12-13 15:21:38.336,0.967299,2.45384,10.558,-0.0843733,-0.0752106,0.154926,0
2024-12-13 15:21:38.339,1.00798,2.44905,10.5006,-0.0807082,-0.0953685,0.14332,0
2024-12-13 15:21:38.341,1.0319,2.44666,10.4647,-0.0770431,-0.116137,0.129805,0
2024-12-13 15:21:38.343,1.0343,2.44188,10.4001,-0.0721563,-0.133241,0.114534,0
2024-12-13 15:21:38.346,1.04148,2.44188,10.3424,-0.0721563,-0.149734,0.103539,0
2024-12-13 15:21:38.348,1.05105,2.4347,10.3113,-0.0721563,-0.166227,0.0913217,0
2024-12-13 15:21:38.353,1.05105,2.40359,10.2323,-0.0745997,-0.193104,0.0687203,0
2024-12-13 15:21:38.353,1.05105,2.40359,10.2323,-0.0745997,-0.193104,0.0687203,0
2024-12-13 15:21:38.357,1.08455,2.37248,10.1773,-0.0752106,-0.210208,0.0491732,0
2024-12-13 15:21:38.357,1.08455,2.37248,10.1773,-0.0752106,-0.210208,0.0491732,0
2024-12-13 15:21:38.362,1.11326,2.30788,10.1533,-0.0800973,-0.223036,0.0308478,0
2024-12-13 15:21:38.362,1.11326,2.30788,10.1533,-0.0800973,-0.223036,0.0308478,0
2024-12-13 15:21:38.364,1.11565,2.28156,10.1605,-0.081319,-0.231587,0.0229068,0
2024-12-13 15:21:38.367,1.1348,2.2672,10.1749,-0.0837624,-0.234642,0.0106898,0
2024-12-13 15:21:38.369,1.16351,2.24806,10.2036,-0.0837624,-0.234642,0.0106898,0
2024-12-13 15:21:38.372,1.20419,2.20738,10.2251,-0.0862058,-0.240139,0.00152712,0
2024-12-13 15:21:38.374,1.23769,2.15952,10.2586,-0.0874275,-0.24075,-0.0186308,0
2024-12-13 15:21:38.376,1.25922,2.12602,10.3065,-0.0880384,-0.237696,-0.0290152,0
2024-12-13 15:21:38.379,1.26879,2.08774,10.3567,-0.0880384,-0.237696,-0.0290152,0
2024-12-13 15:21:38.381,1.28076,2.06142,10.4216,-0.0831516,-0.232809,-0.0491732,0
2024-12-13 15:21:38.383,1.31186,2.0327,10.4671,-0.0831516,-0.232809,-0.0491732,0
2024-12-13 15:21:38.386,1.34058,1.9992,10.4934,-0.0794865,-0.228533,-0.0687203,0
2024-12-13 15:21:38.388,1.37647,1.97767,10.5174,-0.0764323,-0.222425,-0.0784939,0
2024-12-13 15:21:38.390,1.40788,1.9681,10.5485,-0.0727672,-0.218149,-0.0864349,0
2024-12-13 15:21:38.393,1.41984,1.94626,10.57,-0.0697129,-0.212651,-0.0931542,0
2024-12-13 15:21:38.395,1.40548,1.92473,10.5867,-0.0678804,-0.208986,-0.101095,0
2024-12-13 15:21:38.397,1.37169,1.91994,10.5915,-0.0642153,-0.20471,-0.107815,0
2024-12-13 15:21:38.400,1.32622,1.92473,10.5867,-0.0599394,-0.199823,-0.11148,0
2024-12-13 15:21:38.403,1.26879,1.93908,10.5891,-0.0513875,-0.188217,-0.110258,0
2024-12-13 15:21:38.405,1.21615,1.94148,10.5939,-0.0513875,-0.188217,-0.110258,0
2024-12-13 15:21:38.407,1.17069,1.93669,10.5987,-0.0465007,-0.176,-0.105982,0
2024-12-13 15:21:38.409,1.1348,1.94865,10.5867,-0.0410031,-0.162562,-0.104149,0
2024-12-13 15:21:38.412,1.10608,1.96062,10.57,-0.0318404,-0.145458,-0.0968193,0
2024-12-13 15:21:38.416,1.12044,1.94148,10.4432,-0.0104608,-0.105753,-0.085824,0
2024-12-13 15:21:38.416,1.12044,1.94148,10.4432,-0.0104608,-0.105753,-0.085824,0
2024-12-13 15:21:38.419,1.15155,1.93191,10.3591,-0.000687203,-0.0843733,-0.0772722,0
2024-12-13 15:21:38.421,1.17308,1.91994,10.2586,0.0127514,-0.0593285,-0.069942,0
2024-12-13 15:21:38.423,1.18505,1.90319,10.1486,0.0231358,-0.0330621,-0.0638335,0
2024-12-13 15:21:38.426,1.19462,1.89362,10.0457,0.0329094,-0.00801737,-0.05406,0
2024-12-13 15:21:38.428,1.18505,1.89123,9.94278,0.0445155,0.0200816,-0.0479515,0
2024-12-13 15:21:38.435,1.11326,1.88883,9.57638,0.0567324,0.0432938,-0.0412322,0
2024-12-13 15:21:38.438,1.07976,1.87926,9.43759,0.0921616,0.111098,-0.01802,0
2024-12-13 15:21:38.438,1.07976,1.87926,9.43759,0.0921616,0.111098,-0.01802,0
2024-12-13 15:21:38.440,1.06062,1.86969,9.30599,0.103768,0.133088,-0.0131332,0
2024-12-13 15:21:38.440,1.06062,1.86969,9.30599,0.103768,0.133088,-0.0131332,0
2024-12-13 15:21:38.442,1.04865,1.88883,9.19801,0.111098,0.153246,-0.00824644,0
2024-12-13 15:21:38.447,0.926621,1.91037,9.04248,0.13431,0.182567,0.000305424,0
2024-12-13 15:21:38.447,0.926621,1.91037,9.04248,0.13431,0.182567,0.000305424,0
2024-12-13 15:21:38.452,0.837787,1.91755,8.87019,0.158133,0.197227,0.0106898,0
2024-12-13 15:21:38.452,0.837787,1.91755,8.87019,0.158133,0.197227,0.0106898,0
2024-12-13 15:21:38.454,0.813859,1.91276,8.77209,0.168517,0.203336,0.0155766,0
2024-12-13 15:21:38.456,0.789931,1.91037,8.67608,0.180734,0.210666,0.0186308,0
2024-12-13 15:21:38.459,0.761217,1.90798,8.57558,0.192341,0.217385,0.0210742,0
2024-12-13 15:21:38.461,0.720539,1.89841,8.45833,0.202725,0.222272,0.0253502,0
2024-12-13 15:21:38.463,0.667897,1.90798,8.31237,0.21372,0.228991,0.0302369,0
2024-12-13 15:21:38.466,0.612862,1.92951,8.1688,0.222272,0.233267,0.033902,0
2024-12-13 15:21:38.468,0.56022,1.95105,8.04168,0.230824,0.238154,0.0400105,0
2024-12-13 15:21:38.470,0.507577,1.9681,7.91486,0.238154,0.241819,0.0473407,0
2024-12-13 15:21:38.473,0.452543,1.97767,7.79522,0.244263,0.243041,0.0516166,0
2024-12-13 15:21:38.475,0.407079,1.99442,7.68036,0.248538,0.243041,0.0577251,0
2024-12-13 15:21:38.478,0.375972,2.02552,7.55803,0.250982,0.244263,0.062001,0
2024-12-13 15:21:38.480,0.35683,2.03988,7.44078,0.250982,0.246095,0.0650552,0
2024-12-13 15:21:38.482,0.354437,2.03031,7.3331,0.252814,0.247928,0.0693312,0
2024-12-13 15:21:38.485,0.366401,2.0327,7.23978,0.250371,0.246706,0.0705529,0
2024-12-13 15:21:38.487,0.366401,2.05902,7.17278,0.244263,0.247928,0.0729962,0
2024-12-13 15:21:38.489,0.328116,2.08295,7.10818,0.240597,0.246095,0.0717745,0
2024-12-13 15:21:38.494,0.253639,2.12842,6.96192,0.225937,0.24243,0.0705529,0
2024-12-13 15:21:38.495,0.253639,2.12842,6.96192,0.216774,0.239376,0.0681095,0
2024-12-13 15:21:38.496,0.198604,2.16431,6.90449,0.216774,0.239376,0.0681095,0
2024-12-13 15:21:38.499,0.153141,2.19781,6.83749,0.200892,0.237543,0.0644444,0
2024-12-13 15:21:38.501,0.119641,2.23609,6.79442,0.186843,0.232046,0.0601685,0
2024-12-13 15:21:38.503,0.0861416,2.26241,6.77528,0.172793,0.227159,0.0558925,0
2024-12-13 15:21:38.506,0.0502493,2.29113,6.74178,0.172793,0.227159,0.0558925,0
2024-12-13 15:21:38.508,-0.00478565,2.31745,6.71306,0.136753,0.221661,0.0455081,0
2024-12-13 15:21:38.511,-0.0454636,2.33181,6.70589,0.122093,0.222272,0.0412322,0
2024-12-13 15:21:38.513,-0.0598206,2.34856,6.70828,0.103768,0.223494,0.0363454,0
2024-12-13 15:21:38.515,-0.0885344,2.37009,6.71067,0.103768,0.223494,0.0363454,0
2024-12-13 15:21:38.518,-0.117248,2.39402,6.71067,0.0677277,0.232046,0.0235176,0
2024-12-13 15:21:38.520,-0.138784,2.3988,6.71067,0.0494023,0.233878,0.0198525,0
2024-12-13 15:21:38.522,-0.155533,2.39641,6.72264,0.0298552,0.240597,0.0119115,0
2024-12-13 15:21:38.527,-0.181855,2.40359,6.77288,-0.00740652,0.254036,0.000305424,0
2024-12-13 15:21:38.527,-0.181855,2.40359,6.77288,-0.00740652,0.254036,0.000305424,0
2024-12-13 15:21:38.529,-0.18664,2.39641,6.79681,-0.0275645,0.259534,-0.00702474,0
2024-12-13 15:21:38.532,-0.193819,2.39641,6.82313,-0.0477224,0.265642,-0.0125224,0
2024-12-13 15:21:38.534,-0.191426,2.3988,6.85424,-0.0678804,0.272362,-0.01802,0
2024-12-13 15:21:38.536,-0.212961,2.40359,6.91167,-0.0886492,0.280913,-0.0235176,0
2024-12-13 15:21:38.541,-0.256032,2.39641,7.06032,-0.127133,0.295574,-0.0308478,0
2024-12-13 15:21:38.541,-0.256032,2.39641,7.06032,-0.127133,0.295574,-0.0308478,0
2024-12-13 15:21:38.543,-0.285045,2.38684,7.15364,-0.144236,0.304126,-0.0357346,0
2024-12-13 15:21:38.546,-0.301795,2.4012,7.26371,-0.16134,0.310234,-0.0363454,0
2024-12-13 15:21:38.548,-0.297009,2.3988,7.39292,-0.176,0.313899,-0.0387888,0
2024-12-13 15:21:38.551,-0.289831,2.38445,7.51974,-0.19005,0.317564,-0.041843,0
2024-12-13 15:21:38.553,-0.282652,2.37488,7.63968,-0.204099,0.316343,-0.0436756,0
2024-12-13 15:21:38.555,-0.267996,2.36052,7.75933,-0.213262,0.313899,-0.0448973,0
2024-12-13 15:21:38.558,-0.248854,2.35095,7.87657,-0.221814,0.309623,-0.0467298,0
2024-12-13 15:21:38.560,-0.246461,2.33659,7.98186,-0.230977,0.304126,-0.0491732,0
2024-12-13 15:21:38.562,-0.246461,2.32941,8.09671,-0.237696,0.298628,-0.0528383,0
2024-12-13 15:21:38.565,-0.246461,2.31984,8.20708,-0.242583,0.290076,-0.0577251,0
2024-12-13 15:21:38.567,-0.251246,2.29831,8.30997,-0.250524,0.282135,-0.0607793,0
2024-12-13 15:21:38.569,-0.244068,2.28634,8.4009,-0.255411,0.27114,-0.0638335,0
2024-12-13 15:21:38.574,-0.256032,2.26241,8.61147,-0.260908,0.244263,-0.069942,0
2024-12-13 15:21:38.574,-0.256032,2.26241,8.61147,-0.260908,0.244263,-0.069942,0
2024-12-13 15:21:38.576,-0.270389,2.25045,8.7027,-0.263352,0.227159,-0.0729962,0
2024-12-13 15:21:38.579,-0.297009,2.24806,8.80319,-0.26213,0.207612,-0.0754396,0
2024-12-13 15:21:38.581,-0.325723,2.23849,8.90369,-0.26213,0.207612,-0.0754396,0
2024-12-13 15:21:38.584,-0.332901,2.21934,9.01137,-0.264573,0.174015,-0.0760505,0
2024-12-13 15:21:38.586,-0.308973,2.20977,9.13819,-0.261519,0.158133,-0.0772722,0
2024-12-13 15:21:38.588,-0.27996,2.19063,9.26292,-0.257854,0.144694,-0.0772722,0
2024-12-13 15:21:38.593,-0.22014,2.20738,9.44477,-0.245026,0.121482,-0.0717745,0
2024-12-13 15:21:38.593,-0.22014,2.20738,9.44477,-0.245026,0.121482,-0.0717745,0
2024-12-13 15:21:38.595,-0.189033,2.22652,9.52134,-0.237085,0.111098,-0.0693312,0
2024-12-13 15:21:38.598,-0.153141,2.24806,9.59552,-0.22609,0.101324,-0.0693312,0
2024-12-13 15:21:38.600,-0.119641,2.27677,9.67209,-0.213873,0.0897182,-0.0668878,0
2024-12-13 15:21:38.602,-0.0909273,2.29113,9.74866,-0.204099,0.082388,-0.0662769,0
2024-12-13 15:21:38.605,-0.0550349,2.30548,9.82074,-0.192493,0.0750579,-0.0644444,0
2024-12-13 15:21:38.607,0.0,2.32941,9.89013,-0.179055,0.0677277,-0.062001,0
2024-12-13 15:21:38.612,0.081356,2.36052,10.0265,-0.143625,0.0610084,-0.0577251,0
2024-12-13 15:21:38.612,0.081356,2.36052,10.0265,-0.143625,0.0610084,-0.0577251,0
2024-12-13 15:21:38.614,0.145962,2.35813,10.0433,-0.124689,0.058565,-0.05406,0
2024-12-13 15:21:38.617,0.189033,2.37248,10.0385,-0.106364,0.0548999,-0.0522274,0
2024-12-13 15:21:38.619,0.208176,2.37966,10.0337,-0.0862058,0.0512348,-0.0473407,0
2024-12-13 15:21:38.621,0.239282,2.3988,10.0193,-0.0678804,0.0518457,-0.0430647,0
2024-12-13 15:21:38.624,0.272782,2.42034,9.99781,-0.0483333,0.0542891,-0.0406213,0
2024-12-13 15:21:38.626,0.287438,2.4323,9.97388,-0.0269536,0.0567324,-0.0314586,0
2024-12-13 15:21:38.628,0.308973,2.45863,9.94517,-0.00679568,0.0616192,-0.0229068,0
2024-12-13 15:21:38.631,0.347258,2.47777,9.89731,0.0164165,0.0671168,-0.0149658,0
2024-12-13 15:21:38.635,0.414257,2.48255,9.75584,0.0353528,0.074447,-0.00763559,0
2024-12-13 15:21:38.638,0.447757,2.47537,9.66491,0.0793338,0.0884965,0.0119115,0
2024-12-13 15:21:38.638,0.447757,2.47537,9.66491,0.0793338,0.0884965,0.0119115,0
2024-12-13 15:21:38.640,0.483649,2.47537,9.58355,0.094605,0.0952158,0.0210742,0
2024-12-13 15:21:38.645,0.596112,2.47298,9.37777,0.125758,0.102546,0.0387888,0
2024-12-13 15:21:38.645,0.596112,2.47298,9.37777,0.125758,0.102546,0.0387888,0
2024-12-13 15:21:38.649,0.694218,2.45145,9.17647,0.147749,0.1056,0.0503949,0
2024-12-13 15:21:38.649,0.694218,2.45145,9.17647,0.147749,0.1056,0.0503949,0
2024-12-13 15:21:38.654,0.775574,2.48255,8.9683,0.16302,0.100713,0.0595576,0
2024-12-13 15:21:38.654,0.775574,2.48255,8.9683,0.16302,0.100713,0.0595576,0
2024-12-13 15:21:38.658,0.811466,2.48973,8.87976,0.165463,0.0939941,0.0650552,0
2024-12-13 15:21:38.659,0.825823,2.49452,8.79362,0.165463,0.0939941,0.0650552,0
2024-12-13 15:21:38.664,0.847657,2.52084,8.64975,0.165463,0.0878856,0.0662769,0
2024-12-13 15:21:38.664,0.847657,2.52084,8.64975,0.165463,0.0878856,0.0662769,0
2024-12-13 15:21:38.666,0.845265,2.54267,8.59711,0.161798,0.0811663,0.0632227,0
2024-12-13 15:21:38.668,0.828216,2.55942,8.54926,0.158133,0.0756687,0.0613902,0
2024-12-13 15:21:38.671,0.792323,2.57617,8.51336,0.150803,0.0701711,0.0601685,0
2024-12-13 15:21:38.673,0.754038,2.60728,8.48704,0.145305,0.0622301,0.0552817,0
2024-12-13 15:21:38.678,0.725324,2.62881,8.46311,0.130034,0.0524565,0.0491732,0
2024-12-13 15:21:38.678,0.725324,2.62881,8.46311,0.130034,0.0524565,0.0491732,0
2024-12-13 15:21:38.680,0.720539,2.62642,8.4679,0.122704,0.0451263,0.0430647,0
2024-12-13 15:21:38.682,0.71336,2.62164,8.47269,0.114763,0.0365745,0.0363454,0
2024-12-13 15:21:38.685,0.701396,2.62164,8.48944,0.107433,0.0286335,0.0320695,0
2024-12-13 15:21:38.687,0.689432,2.61446,8.50379,0.0988809,0.0206925,0.0265719,0
2024-12-13 15:21:38.690,0.689432,2.60489,8.54447,0.0933833,0.0133623,0.0186308,0
2024-12-13 15:21:38.692,0.696611,2.60489,8.60668,0.0872748,0.00542127,0.0125224,0
2024-12-13 15:21:38.694,0.689432,2.6001,8.65933,0.0793338,-0.000687203,0.0064139,0
2024-12-13 15:21:38.697,0.658325,2.59771,8.71705,0.0738362,-0.00618483,-0.000916271,0
2024-12-13 15:21:38.699,0.627219,2.60728,8.78644,0.0720036,-0.0141258,-0.00397051,0
2024-12-13 15:21:38.701,0.600898,2.59292,8.84866,0.0707819,-0.0232886,-0.00946813,0
2024-12-13 15:21:38.704,0.576969,2.56899,8.91087,0.0677277,-0.0269536,-0.010079,0
2024-12-13 15:21:38.706,0.569791,2.56182,8.97548,0.0713928,-0.0281753,-0.0143549,0
2024-12-13 15:21:38.708,0.553041,2.54267,9.02094,0.0713928,-0.0281753,-0.0137441,0
2024-12-13 15:21:38.711,0.541077,2.52832,9.06401,0.0750579,-0.0226777,-0.0125224,0
2024-12-13 15:21:38.713,0.553041,2.52084,9.11665,0.0768904,-0.0153475,-0.0143549,0
2024-12-13 15:21:38.715,0.569791,2.5017,9.17647,0.0829989,-0.00496313,-0.0125224,0
2024-12-13 15:21:38.718,0.581755,2.48734,9.23869,0.090329,0.00847551,-0.0119115,0
2024-12-13 15:21:38.720,0.581755,2.46341,9.27966,0.0970484,0.0249684,-0.00824644,0
2024-12-13 15:21:38.723,0.579362,2.43948,9.38256,0.0970484,0.0249684,-0.00824644,0
2024-12-13 15:21:38.725,0.584148,2.39641,9.52852,0.114763,0.0536782,-0.00213797,0
2024-12-13 15:21:38.727,0.584148,2.34377,9.61466,0.125758,0.0652843,-0.000916271,0
2024-12-13 15:21:38.730,0.600898,2.31984,9.65295,0.139808,0.0775012,0.00274881,0
2024-12-13 15:21:38.732,0.632004,2.31745,9.67927,0.156301,0.0982701,0.00397051,0
2024-12-13 15:21:38.734,0.65354,2.30788,9.71994,0.17035,0.11965,0.00397051,0
2024-12-13 15:21:38.737,0.655932,2.31266,9.73191,0.186843,0.144084,0.00458135,0
2024-12-13 15:21:38.739,0.624826,2.34138,9.72234,0.202114,0.168517,0.00458135,0
2024-12-13 15:21:38.744,0.579362,2.42034,9.67448,0.232656,0.214942,0.00274881,0
2024-12-13 15:21:38.744,0.579362,2.42034,9.67448,0.232656,0.214942,0.00274881,0
2024-12-13 15:21:38.748,0.507577,2.5331,9.56441,0.258312,0.243652,0.00458135,0
2024-12-13 15:21:38.748,0.507577,2.5331,9.56441,0.258312,0.243652,0.00458135,0
2024-12-13 15:21:38.753,0.478864,2.6671,9.38016,0.270529,0.252814,-0.000305424,0
2024-12-13 15:21:38.753,0.478864,2.6671,9.38016,0.270529,0.252814,-0.000305424,0
2024-12-13 15:21:38.758,0.447757,2.8011,9.12144,0.267475,0.247317,-0.00885729,0
2024-12-13 15:21:38.758,0.447757,2.8011,9.12144,0.267475,0.247317,-0.00885729,0
2024-12-13 15:21:38.763,0.404686,3.00688,8.94437,0.248538,0.212498,-0.0229068,0
2024-12-13 15:21:38.763,0.404686,3.00688,8.94437,0.248538,0.212498,-0.0229068,0
2024-12-13 15:21:38.767,0.224925,3.18664,8.88694,0.211888,0.139808,-0.0436756,0
2024-12-13 15:21:38.767,0.224925,3.18664,8.88694,0.211888,0.139808,-0.0436756,0
2024-12-13 15:21:38.770,0.155533,3.21775,8.91566,0.188675,0.086664,-0.0589468,0
2024-12-13 15:21:38.772,0.133998,3.20339,8.99223,0.163631,0.0286335,-0.0766613,0
2024-12-13 15:21:38.774,0.143569,3.16989,9.1334,0.138586,-0.0403923,-0.100484,0
2024-12-13 15:21:38.777,0.155533,3.14357,9.30838,0.113541,-0.112472,-0.12614,0
2024-12-13 15:21:38.781,0.0598206,3.11486,9.75105,0.0622301,-0.26213,-0.185392,0
2024-12-13 15:21:38.781,0.0598206,3.11486,9.75105,0.0622301,-0.26213,-0.185392,0
2024-12-13 15:21:38.784,-0.0430708,3.08106,10.005,0.0353528,-0.339707,-0.217156,0
2024-12-13 15:21:38.786,-0.131605,3.01884,10.2395,0.00847551,-0.419118,-0.249531,0
2024-12-13 15:21:38.788,-0.20339,2.90399,10.4934,-0.0208452,-0.499139,-0.278241,0
2024-12-13 15:21:38.791,-0.265603,2.76521,10.7853,-0.0550526,-0.580381,-0.307562,0
2024-12-13 15:21:38.796,-0.32333,2.44905,11.6067,-0.113694,-0.711103,-0.360705,0
2024-12-13 15:21:38.796,-0.32333,2.44905,11.6067,-0.113694,-0.711103,-0.360705,0
2024-12-13 15:21:38.800,-0.454935,2.0662,12.6072,-0.156453,-0.821666,-0.397356,0
2024-12-13 15:21:38.800,-0.454935,2.0662,12.6072,-0.156453,-0.821666,-0.397356,0
2024-12-13 15:21:38.803,-0.440578,1.87926,13.0621,-0.173557,-0.868701,-0.412627,0
2024-12-13 15:21:38.805,-0.3999,1.70459,13.5147,-0.188828,-0.902909,-0.430953,0
2024-12-13 15:21:38.807,-0.335294,1.54427,14.0175,-0.200434,-0.926732,-0.444391,0
2024-12-13 15:21:38.810,-0.263211,1.40788,14.5346,-0.210208,-0.939559,-0.455997,0
2024-12-13 15:21:38.812,-0.224925,1.30708,15.0183,-0.212651,-0.94017,-0.467604,0
2024-12-13 15:21:38.814,-0.205783,1.22094,15.478,-0.209597,-0.933451,-0.47188,0
2024-12-13 15:21:38.817,-0.189033,1.14676,15.8919,-0.202267,-0.915126,-0.476155,0
2024-12-13 15:21:38.819,-0.157926,1.08215,16.2583,-0.194937,-0.887637,-0.473712,0
2024-12-13 15:21:38.821,-0.0957129,1.04148,16.6056,-0.180887,-0.849765,-0.468214,0
2024-12-13 15:21:38.824,0.00478565,0.998405,16.9191,-0.163173,-0.80334,-0.460884,0
2024-12-13 15:21:38.826,0.138784,0.940978,17.1921,-0.141793,-0.747753,-0.448667,0
2024-12-13 15:21:38.829,0.217747,0.996012,17.1033,-0.116137,-0.679949,-0.432785,0
2024-12-13 15:21:38.831,0.18664,1.09651,16.8353,-0.100255,-0.571219,-0.406519,0
2024-12-13 15:21:38.833,0.337687,1.04626,16.9741,-0.0837624,-0.462488,-0.380863,0
2024-12-13 15:21:38.838,0.76361,0.648754,17.5104,-0.0330621,-0.319549,-0.330774,1
2024-12-13 15:21:38.838,0.76361,0.648754,17.5104,-0.0330621,-0.319549,-0.330774,1
2024-12-13 15:21:38.840,0.957727,0.462114,17.6013,0.00114534,-0.266406,-0.308783,0
2024-12-13 15:21:38.843,1.14197,0.304188,17.4434,0.0365745,-0.206543,-0.29168,0
2024-12-13 15:21:38.845,1.29512,0.208176,17.1057,0.0762796,-0.124689,-0.272132,0
2024-12-13 15:21:38.847,1.43659,0.18664,16.7252,0.115985,-0.0287862,-0.253196,0
2024-12-13 15:21:38.850,1.55862,0.205783,16.3445,0.155079,0.0756687,-0.239147,0
2024-12-13 15:21:38.852,1.6328,0.256032,15.9206,0.194173,0.180734,-0.226319,0
2024-12-13 15:21:38.854,1.65912,0.354437,15.4421,0.194173,0.180734,-0.226319,0
2024-12-13 15:21:38.857,1.63041,0.502792,14.9321,0.261977,0.374373,-0.198831,0
2024-12-13 15:21:38.859,1.55145,0.667897,14.4126,0.286411,0.458059,-0.184781,0
2024-12-13 15:21:38.861,1.40788,0.818644,13.9146,0.308401,0.528307,-0.170732,0
2024-12-13 15:21:38.864,1.21137,0.957727,13.4333,0.326116,0.585726,-0.154239,0
2024-12-13 15:21:38.866,0.998405,1.08933,13.0023,0.341998,0.63154,-0.136524,0
2024-12-13 15:21:38.869,0.768395,1.2018,12.5952,0.351161,0.664525,-0.117588,0
2024-12-13 15:21:38.871,0.517149,1.31426,12.2028,0.357269,0.687127,-0.0968193,0
2024-12-13 15:21:38.873,0.270389,1.42941,11.8531,0.361545,0.699955,-0.0748288,0
2024-12-13 15:21:38.876,0.0646062,1.50598,11.5253,0.362767,0.701176,-0.0522274,0
2024-12-13 15:21:38.878,-0.081356,1.54666,11.1948,0.361545,0.6969,-0.0296261,0
2024-12-13 15:21:38.880,-0.20339,1.58973,10.8667,0.354826,0.684073,-0.00702474,0
2024-12-13 15:21:38.883,-0.308973,1.63998,10.5724,0.351161,0.662082,0.010079,0
2024-12-13 15:21:38.885,-0.392722,1.6663,10.3113,0.341998,0.637037,0.0241285,0
2024-12-13 15:21:38.887,-0.483649,1.68544,10.0624,0.333446,0.608938,0.0375671,0
2024-12-13 15:21:38.890,-0.565005,1.71177,9.83749,0.323673,0.571677,0.0455081,0
2024-12-13 15:21:38.892,-0.65354,1.75723,9.64577,0.313899,0.53808,0.0485624,0
2024-12-13 15:21:38.894,-0.76361,1.79551,9.45673,0.301071,0.502651,0.0516166,0
2024-12-13 15:21:38.897,-0.854836,1.79073,9.28206,0.287022,0.468443,0.0503949,0
2024-12-13 15:21:38.899,-0.945763,1.78116,9.15015,0.271751,0.434847,0.0473407,0
2024-12-13 15:21:38.902,-1.0343,1.80509,9.05205,0.257701,0.402472,0.0430647,0
2024-12-13 15:21:38.904,-1.11805,1.83859,8.97787,0.243652,0.368875,0.0351237,0
2024-12-13 15:21:38.906,-1.20897,1.88644,8.92284,0.230824,0.333446,0.0265719,0
2024-12-13 15:21:38.909,-1.29512,1.9343,8.87498,0.216774,0.30046,0.0161875,0
2024-12-13 15:21:38.911,-1.38365,1.95583,8.84387,0.201503,0.268696,0.00458135,0
2024-12-13 15:21:38.913,-1.47488,1.96301,8.83669,0.187454,0.241208,-0.00580305,0
2024-12-13 15:21:38.918,-1.5658,1.9657,8.87976,0.164852,0.194784,-0.0308478,0
2024-12-13 15:21:38.918,-1.5658,1.9657,8.87976,0.164852,0.194784,-0.0308478,0
2024-12-13 15:21:38.920,-1.5993,1.94865,8.90369,0.150192,0.174626,-0.0455081,0
2024-12-13 15:21:38.923,-1.63041,1.92233,8.95873,0.136143,0.15569,-0.0546708,0
2024-12-13 15:21:38.925,-1.65673,1.89362,9.01137,0.125147,0.139197,-0.0681095,0
2024-12-13 15:21:38.927,-1.67587,1.84337,9.02333,0.11293,0.122093,-0.0803264,0
2024-12-13 15:21:38.930,-1.6998,1.77637,9.04008,0.0982701,0.104989,-0.0931542,0
2024-12-13 15:21:38.932,-1.70937,1.71416,9.0688,0.0793338,0.0829989,-0.105371,0
2024-12-13 15:21:38.934,-1.70937,1.63759,9.08794,0.0548999,0.0616192,-0.115145,0
2024-12-13 15:21:38.937,-1.70698,1.56341,9.12144,0.030466,0.0371853,-0.122475,0
2024-12-13 15:21:38.942,-1.67587,1.40788,9.29642,-0.0312296,-0.00923906,-0.138357,0
2024-12-13 15:21:38.942,-1.67587,1.40788,9.29642,-0.0312296,-0.00923906,-0.138357,0
2024-12-13 15:21:38.944,-1.61366,1.35015,9.4352,-0.0605502,-0.0342838,-0.146298,0
2024-12-13 15:21:38.946,-1.52034,1.30708,9.62663,-0.0886492,-0.0544418,-0.153017,0
2024-12-13 15:21:38.949,-1.42223,1.24726,9.84228,-0.111861,-0.0709346,-0.159126,0
2024-12-13 15:21:38.951,-1.32622,1.18983,10.0217,-0.133852,-0.0849841,-0.170732,0
2024-12-13 15:21:38.953,-1.22572,1.15872,10.1988,-0.133852,-0.0849841,-0.170732,0
2024-12-13 15:21:38.956,-1.14437,1.12762,10.3663,-0.174168,-0.11064,-0.193944,0
2024-12-13 15:21:38.958,-1.09173,1.10848,10.5006,-0.174168,-0.11064,-0.193944,0
2024-12-13 15:21:38.960,-1.07258,1.08455,10.6274,-0.206543,-0.130187,-0.218989,0
2024-12-13 15:21:38.963,-1.06062,1.04626,10.7447,-0.221203,-0.136906,-0.229373,0
2024-12-13 15:21:38.965,-1.04626,1.05344,10.8476,-0.237085,-0.143625,-0.240368,0
2024-12-13 15:21:38.967,-1.04865,1.07737,10.9555,-0.24808,-0.152788,-0.251974,0
2024-12-13 15:21:38.970,-1.05823,1.08694,11.0465,-0.26213,-0.164394,-0.261748,0
2024-12-13 15:21:38.975,-1.01515,1.12283,11.202,-0.286564,-0.191272,-0.276408,0
2024-12-13 15:21:38.975,-1.01515,1.12283,11.202,-0.286564,-0.191272,-0.276408,0
2024-12-13 15:21:38.977,-0.969691,1.13719,11.2594,-0.296948,-0.205932,-0.286182,0
2024-12-13 15:21:38.979,-0.924228,1.13719,11.3432,-0.3055,-0.222425,-0.295956,0
2024-12-13 15:21:38.982,-0.881157,1.11326,11.4389,-0.315274,-0.234642,-0.306951,0
2024-12-13 15:21:38.984,-0.816252,1.10608,11.5277,-0.324436,-0.24808,-0.317946,0
2024-12-13 15:21:38.986,-0.756431,1.10369,11.6163,-0.330545,-0.263352,-0.329552,0
2024-12-13 15:21:38.989,-0.734896,1.09173,11.7096,-0.336042,-0.27679,-0.339936,0
2024-12-13 15:21:38.991,-0.701396,1.07976,11.8053,-0.339097,-0.289618,-0.351543,0
2024-12-13 15:21:38.993,-0.682254,1.08215,11.9178,-0.339097,-0.289618,-0.351543,0
2024-12-13 15:21:38.996,-0.675075,1.1013,12.035,-0.342762,-0.309165,-0.370479,0
2024-12-13 15:21:38.998,-0.655932,1.09412,12.1502,-0.34154,-0.316495,-0.379031,0
2024-12-13 15:21:39.000,-0.639183,1.07019,12.2626,-0.336653,-0.319549,-0.38575,0
2024-12-13 15:21:39.003,-0.624826,1.0678,12.3583,-0.328712,-0.319549,-0.391248,0
2024-12-13 15:21:39.005,-0.593719,1.06062,12.4373,-0.321382,-0.320771,-0.397356,0
2024-12-13 15:21:39.008,-0.553041,1.06062,12.5019,-0.310998,-0.315884,-0.401632,0
2024-12-13 15:21:39.010,-0.524327,1.07737,12.5665,-0.300002,-0.310387,-0.404075,0
