timestamp,accel_x,accel_y,accel_z,gyro_x,gyro_y,gyro_z,step_timestamp
2024-12-13 15:23:32.544,0.962513,2.6336,9.84467,-0.00313059,-0.021456,0.0131332,0
2024-12-13 15:23:32.544,0.962513,2.6336,9.84467,-0.00313059,-0.021456,0.0131332,0
2024-12-13 15:23:32.544,0.962513,2.6336,9.84467,-0.00313059,-0.021456,0.0131332,0
2024-12-13 15:23:32.544,0.962513,2.6336,9.84467,-0.00313059,-0.021456,0.0131332,0
2024-12-13 15:23:32.544,0.962513,2.6336,9.84467,-0.00313059,-0.021456,0.0131332,0
2024-12-13 15:23:32.544,0.962513,2.6336,9.84467,-0.00313059,-0.021456,0.0131332,0
2024-12-13 15:23:32.544,0.962513,2.6336,9.84467,-0.00313059,-0.021456,0.0131332,0
2024-12-13 15:23:32.547,0.964906,2.6336,9.87338,-0.00435229,-0.0275645,0.0455081,0
2024-12-13 15:23:32.547,0.964906,2.6336,9.87338,-0.00435229,-0.0275645,0.0455081,0
2024-12-13 15:23:32.547,0.964906,2.6336,9.87338,-0.00435229,-0.0275645,0.0455081,0
2024-12-13 15:23:32.547,0.964906,2.6336,9.87338,-0.00435229,-0.0275645,0.0455081,0
2024-12-13 15:23:32.549,0.97687,2.62642,9.90449,-0.00740652,-0.0306187,0.0051922,0
2024-12-13 15:23:32.549,0.97687,2.62642,9.90449,-0.00740652,-0.0306187,0.0051922,0
2024-12-13 15:23:32.551,0.984048,2.61924,9.93081,-0.00740652,-0.0306187,-0.0186308,0
2024-12-13 15:23:32.551,0.984048,2.61924,9.93081,-0.00740652,-0.0306187,-0.0186308,0
2024-12-13 15:23:32.551,0.984048,2.61924,9.93081,-0.00740652,-0.0306187,-0.0186308,0
2024-12-13 15:23:32.551,0.984048,2.61924,9.93081,-0.00740652,-0.0306187,-0.0186308,0
2024-12-13 15:23:32.551,0.984048,2.61924,9.93081,-0.00740652,-0.0306187,-0.0186308,0
2024-12-13 15:23:32.551,0.984048,2.61924,9.93081,-0.00740652,-0.0306187,-0.0186308,0
2024-12-13 15:23:32.551,0.984048,2.61924,9.93081,-0.00740652,-0.0306187,-0.0186308,0
2024-12-13 15:23:32.561,1.00558,2.60489,10.0122,0.00236703,-0.0458899,-0.0192417,0
2024-12-13 15:23:32.561,1.00558,2.60489,10.0122,0.00236703,-0.0458899,-0.0192417,0
2024-12-13 15:23:32.561,1.00558,2.60489,10.0122,0.00236703,-0.0458899,-0.0192417,0
2024-12-13 15:23:32.562,1.00558,2.60489,10.0122,0.00664296,-0.049555,0.00580305,0
2024-12-13 15:23:32.563,0.986441,2.59771,10.0098,0.00664296,-0.049555,0.00580305,0
2024-12-13 15:23:32.566,0.998405,2.59292,10.0217,0.0096972,-0.0556635,-0.0149658,0
2024-12-13 15:23:32.568,1.01037,2.58096,10.0409,0.0164165,-0.0581068,-0.0406213,0
2024-12-13 15:23:32.570,1.00558,2.56182,10.0505,0.0200816,-0.0648262,-0.01802,0
2024-12-13 15:23:32.573,1.01994,2.53071,10.0505,0.0243575,-0.0721563,-0.0119115,0
2024-12-13 15:23:32.575,1.03908,2.50648,10.0576,0.0292443,-0.0782648,-0.038178,0
2024-12-13 15:23:32.577,1.04626,2.4993,10.0624,0.0347419,-0.081319,-0.0424539,0
2024-12-13 15:23:32.580,1.04865,2.50409,10.0481,0.0390179,-0.0862058,-0.0265719,0
2024-12-13 15:23:32.587,1.06062,2.50887,10.0122,0.0390179,-0.0862058,-0.0265719,0
2024-12-13 15:23:32.589,1.05823,2.51366,10.0026,0.0579541,-0.0868167,-0.0387888,0
2024-12-13 15:23:32.589,1.05823,2.51366,10.0026,0.0579541,-0.0868167,-0.0387888,0
2024-12-13 15:23:32.589,1.05823,2.51366,10.0026,0.0579541,-0.0868167,-0.0387888,0
2024-12-13 15:23:32.592,1.05583,2.51845,9.95953,0.0646735,-0.0843733,-0.0565034,0
2024-12-13 15:23:32.594,1.04626,2.52084,9.90449,0.066506,-0.0782648,-0.0650552,0
2024-12-13 15:23:32.596,1.04148,2.51845,9.8686,0.0720036,-0.0739889,-0.0546708,0
2024-12-13 15:23:32.599,1.05344,2.50887,9.83031,0.0738362,-0.0739889,-0.0583359,0
2024-12-13 15:23:32.601,1.05583,2.50648,9.77977,0.0732253,-0.0684913,-0.0748288,0
2024-12-13 15:23:32.603,1.05105,2.51127,9.71994,0.0713928,-0.065437,-0.0754396,0
2024-12-13 15:23:32.606,1.03908,2.51366,9.66252,0.0707819,-0.0617719,-0.0705529,0
2024-12-13 15:23:32.608,1.02473,2.52084,9.61705,0.0683385,-0.057496,-0.0797156,0
2024-12-13 15:23:32.610,1.01276,2.51366,9.57638,0.066506,-0.0526092,-0.0901,0
2024-12-13 15:23:32.613,1.01037,2.51605,9.5333,0.0628409,-0.0465007,-0.085824,0
2024-12-13 15:23:32.615,1.01515,2.51845,9.49981,0.0579541,-0.0422248,-0.0852132,0
2024-12-13 15:23:32.617,1.01276,2.51127,9.47348,0.0536782,-0.0367272,-0.0974301,0
2024-12-13 15:23:32.620,1.0008,2.51366,9.43041,0.0475697,-0.0324513,-0.101095,0
2024-12-13 15:23:32.622,0.988834,2.51605,9.40648,0.038407,-0.029397,-0.0955976,0
2024-12-13 15:23:32.625,0.988834,2.51127,9.38256,0.0359636,-0.0269536,-0.101095,0
2024-12-13 15:23:32.627,0.979263,2.4993,9.35384,0.0292443,-0.0232886,-0.109647,0
2024-12-13 15:23:32.629,0.967299,2.4993,9.3347,0.0213033,-0.0202343,-0.107204,0
2024-12-13 15:23:32.632,0.969691,2.4993,9.33949,0.0164165,-0.0196235,-0.107204,0
2024-12-13 15:23:32.634,0.97687,2.4993,9.34906,0.0121406,-0.0202343,-0.115756,0
2024-12-13 15:23:32.636,0.97687,2.50409,9.35145,0.00481042,-0.0171801,-0.120031,0
2024-12-13 15:23:32.639,0.957727,2.50648,9.36581,-7.63559e-05,-0.0208452,-0.116366,0
2024-12-13 15:23:32.641,0.950549,2.50887,9.38256,-0.00496313,-0.021456,-0.119421,0
2024-12-13 15:23:32.643,0.972084,2.50887,9.40409,-0.00923906,-0.0226777,-0.127972,0
2024-12-13 15:23:32.646,0.981655,2.49452,9.43041,-0.0165692,-0.0287862,-0.130416,0
2024-12-13 15:23:32.648,0.991227,2.48734,9.45434,-0.0165692,-0.0330621,-0.128583,0
2024-12-13 15:23:32.650,1.0008,2.48255,9.49023,-0.0159584,-0.0403923,-0.135914,0
2024-12-13 15:23:32.653,1.00319,2.4658,9.5357,-0.0165692,-0.0483333,-0.141411,0
2024-12-13 15:23:32.655,1.01515,2.45863,9.58834,-0.0159584,-0.0550526,-0.143244,0
2024-12-13 15:23:32.657,1.01755,2.45623,9.6362,-0.0141258,-0.0605502,-0.145687,0
2024-12-13 15:23:32.660,1.01755,2.44905,9.68645,-0.0122933,-0.0691021,-0.151796,0
2024-12-13 15:23:32.662,1.02233,2.44905,9.7343,-0.00923906,-0.0727672,-0.15485,0
2024-12-13 15:23:32.665,1.0319,2.45384,9.76541,-0.00435229,-0.0764323,-0.15485,0
2024-12-13 15:23:32.667,1.05344,2.46102,9.79652,0.00358873,-0.0807082,-0.159737,0
2024-12-13 15:23:32.669,1.07498,2.47059,9.81087,0.00786466,-0.0819299,-0.165234,0
2024-12-13 15:23:32.672,1.08694,2.45863,9.83031,0.0121406,-0.0837624,-0.164623,0
2024-12-13 15:23:32.674,1.07976,2.44188,9.85185,0.0188599,-0.0819299,-0.166456,0
2024-12-13 15:23:32.676,1.09173,2.44188,9.83749,0.0231358,-0.0794865,-0.171343,0
2024-12-13 15:23:32.679,1.10848,2.4323,9.82074,0.0298552,-0.0758214,-0.174397,0
2024-12-13 15:23:32.682,1.10848,2.42752,9.79652,0.0371853,-0.0642153,-0.173786,0
2024-12-13 15:23:32.683,1.1013,2.44188,9.75105,0.0371853,-0.0642153,-0.173786,0
2024-12-13 15:23:32.686,1.09651,2.44666,9.70319,0.0414613,-0.0556635,-0.17684,0
2024-12-13 15:23:32.688,1.09651,2.44666,9.65055,0.0445155,-0.0513875,-0.178062,0
2024-12-13 15:23:32.690,1.08455,2.46102,9.58834,0.0420721,-0.0434465,-0.175619,0
2024-12-13 15:23:32.693,1.07737,2.4658,9.52613,0.0408504,-0.0379489,-0.175619,0
2024-12-13 15:23:32.695,1.05823,2.46102,9.47588,0.0414613,-0.0324513,-0.177451,0
2024-12-13 15:23:32.698,1.04626,2.47298,9.42323,0.0347419,-0.0281753,-0.176229,0
2024-12-13 15:23:32.700,1.03669,2.49452,9.35384,0.0292443,-0.0220669,-0.173786,0
2024-12-13 15:23:32.702,1.03908,2.50648,9.30599,0.0268009,-0.0196235,-0.174397,0
2024-12-13 15:23:32.705,1.05105,2.52084,9.26292,0.0170274,-0.0177909,-0.175619,0
2024-12-13 15:23:32.707,1.04387,2.54746,9.22433,0.0096972,-0.0159584,-0.176229,0
2024-12-13 15:23:32.709,1.0654,2.56182,9.19801,0.00114534,-0.0171801,-0.176229,0
2024-12-13 15:23:32.713,1.0989,2.57857,9.1693,-0.0159584,-0.0110716,-0.178673,0
2024-12-13 15:23:32.714,1.11565,2.60967,9.14537,-0.0159584,-0.0110716,-0.178673,0
2024-12-13 15:23:32.716,1.12044,2.63599,9.13101,-0.0287862,-0.00801737,-0.181727,0
2024-12-13 15:23:32.719,1.12762,2.65035,9.11905,-0.0361163,-0.00374144,-0.184781,0
2024-12-13 15:23:32.721,1.12762,2.65514,9.09273,-0.0471116,0.00175619,-0.188446,0
2024-12-13 15:23:32.723,1.12522,2.67667,9.07837,-0.0593285,0.00114534,-0.19089,0
2024-12-13 15:23:32.726,1.14197,2.69821,9.08076,-0.0715455,0.00481042,-0.193944,0
2024-12-13 15:23:32.728,1.14437,2.71974,9.08315,-0.0849841,0.00664296,-0.198831,0
2024-12-13 15:23:32.731,1.1348,2.75563,9.08794,-0.093536,0.00847551,-0.201885,0
2024-12-13 15:23:32.733,1.11326,2.79631,9.08794,-0.106975,0.00725381,-0.206772,0
2024-12-13 15:23:32.735,1.08933,2.82263,9.08315,-0.121024,0.00725381,-0.209826,0
2024-12-13 15:23:32.738,1.07498,2.83938,9.0999,-0.130798,0.00725381,-0.210437,0
2024-12-13 15:23:32.740,1.06301,2.85853,9.13819,-0.144236,0.00725381,-0.214102,0
2024-12-13 15:23:32.742,1.04148,2.88485,9.15973,-0.155842,0.010308,-0.213491,0
2024-12-13 15:23:32.745,1.02473,2.90399,9.18126,-0.167449,0.0096972,-0.214102,0
2024-12-13 15:23:32.747,1.01994,2.92552,9.23151,-0.177833,0.010308,-0.214713,0
2024-12-13 15:23:32.749,1.03669,2.95902,9.28206,-0.190661,0.00847551,-0.214713,0
2024-12-13 15:23:32.752,1.04626,2.98056,9.31316,-0.198602,0.0109189,-0.215935,0
2024-12-13 15:23:32.754,1.04865,2.9997,9.34427,-0.203488,0.0109189,-0.214713,0
2024-12-13 15:23:32.756,1.06062,3.02363,9.37059,-0.210819,0.00847551,-0.21288,0
2024-12-13 15:23:32.759,1.05583,3.05234,9.39931,-0.220592,0.0096972,-0.213491,0
2024-12-13 15:23:32.761,1.03908,3.07388,9.43998,-0.22609,0.0096972,-0.213491,0
2024-12-13 15:23:32.763,1.03908,3.10529,9.49023,-0.232198,0.010308,-0.212269,0
2024-12-13 15:23:32.766,1.05583,3.13879,9.5357,-0.240139,0.010308,-0.211048,0
2024-12-13 15:23:32.768,1.05823,3.16032,9.56202,-0.246248,0.00725381,-0.210437,0
2024-12-13 15:23:32.771,1.05344,3.18903,9.59552,-0.250524,0.00481042,-0.209826,0
2024-12-13 15:23:32.773,1.07019,3.20578,9.64816,-0.256021,0.00358873,-0.208604,0
2024-12-13 15:23:32.775,1.10608,3.22732,9.69602,-0.258465,0.000534491,-0.208604,0
2024-12-13 15:23:32.778,1.12522,3.24646,9.74627,-0.260908,-0.00435229,-0.209826,0
2024-12-13 15:23:32.780,1.13719,3.25843,9.79891,-0.263962,-0.00984991,-0.209826,0
2024-12-13 15:23:32.782,1.17308,3.27996,9.84706,-0.264573,-0.0153475,-0.21288,0
2024-12-13 15:23:32.785,1.20419,3.30628,9.90449,-0.265795,-0.0184018,-0.213491,0
2024-12-13 15:23:32.787,1.22572,3.3326,9.97388,-0.268849,-0.0263428,-0.215324,0
2024-12-13 15:23:32.789,1.24487,3.34218,10.0361,-0.263962,-0.0300079,-0.218378,0
2024-12-13 15:23:32.792,1.27119,3.34457,10.0911,-0.258465,-0.0342838,-0.220821,0
2024-12-13 15:23:32.794,1.29751,3.35892,10.1533,-0.257854,-0.0403923,-0.221432,0
2024-12-13 15:23:32.796,1.30469,3.3685,10.2108,-0.252967,-0.0477224,-0.225097,0
2024-12-13 15:23:32.799,1.31665,3.37807,10.2562,-0.246248,-0.0501658,-0.227541,0
2024-12-13 15:23:32.801,1.32861,3.38046,10.2993,-0.24075,-0.0550526,-0.229984,0
2024-12-13 15:23:32.804,1.32622,3.38764,10.3567,-0.231587,-0.0568851,-0.230595,0
2024-12-13 15:23:32.806,1.32144,3.40439,10.4216,-0.221814,-0.0593285,-0.233649,0
2024-12-13 15:23:32.808,1.32144,3.42114,10.4647,-0.21143,-0.0587177,-0.234871,0
2024-12-13 15:23:32.811,1.32622,3.42832,10.5102,-0.201656,-0.057496,-0.236092,0
2024-12-13 15:23:32.813,1.32622,3.44028,10.5509,-0.187606,-0.0550526,-0.237925,0
2024-12-13 15:23:32.815,1.30708,3.46182,10.5652,-0.176,-0.0532201,-0.239147,0
2024-12-13 15:23:32.818,1.2999,3.48096,10.5604,-0.159507,-0.0452791,-0.240979,0
2024-12-13 15:23:32.820,1.31426,3.47617,10.558,-0.145458,-0.0355055,-0.240979,0
2024-12-13 15:23:32.822,1.30469,3.47378,10.5461,-0.128354,-0.0300079,-0.24159,0
2024-12-13 15:23:32.825,1.27597,3.48335,10.5078,-0.114916,-0.0190126,-0.242201,0
2024-12-13 15:23:32.827,1.25683,3.48574,10.4551,-0.0972011,-0.0116825,-0.242812,0
2024-12-13 15:23:32.829,1.22094,3.48814,10.4025,-0.0800973,-0.00435229,-0.242812,0
2024-12-13 15:23:32.832,1.18026,3.50489,10.3424,-0.0666587,0.00542127,-0.244033,0
2024-12-13 15:23:32.834,1.15394,3.51924,10.2538,-0.0526092,0.00847551,-0.242812,0
2024-12-13 15:23:32.837,1.13001,3.51924,10.1725,-0.0379489,0.0127514,-0.242201,0
2024-12-13 15:23:32.840,1.1013,3.51685,10.0887,-0.0171801,0.0164165,-0.239758,0
2024-12-13 15:23:32.841,1.07258,3.50967,9.99542,-0.0171801,0.0164165,-0.239758,0
2024-12-13 15:23:32.844,1.04148,3.51685,9.91885,-0.00557398,0.0182491,-0.236703,0
2024-12-13 15:23:32.846,1.00798,3.52642,9.84946,0.00297788,0.0182491,-0.23426,0
2024-12-13 15:23:32.848,0.986441,3.5336,9.77498,0.00786466,0.0127514,-0.231817,0
2024-12-13 15:23:32.851,0.981655,3.55274,9.71755,0.0188599,0.0109189,-0.230595,0
2024-12-13 15:23:32.853,0.969691,3.55992,9.66491,0.0268009,0.00725381,-0.228151,0
2024-12-13 15:23:32.855,0.955334,3.57428,9.61466,0.0322986,0.000534491,-0.227541,0
2024-12-13 15:23:32.858,0.955334,3.60778,9.56441,0.0402396,-0.00374144,-0.224486,0
2024-12-13 15:23:32.860,0.964906,3.63889,9.52373,0.046348,-0.00862822,-0.222043,0
2024-12-13 15:23:32.862,0.969691,3.64367,9.48784,0.0542891,-0.013515,-0.222654,0
2024-12-13 15:23:32.865,0.967299,3.64367,9.44956,0.0622301,-0.0184018,-0.223265,0
2024-12-13 15:23:32.867,0.972084,3.65833,9.41845,0.0707819,-0.021456,-0.225097,0
2024-12-13 15:23:32.869,0.991227,3.67029,9.39452,0.0787229,-0.0281753,-0.224486,0
2024-12-13 15:23:32.872,1.01515,3.68704,9.35384,0.0811663,-0.0355055,-0.225708,0
2024-12-13 15:23:32.874,1.02233,3.699,9.32752,0.0872748,-0.0422248,-0.229373,0
2024-12-13 15:23:32.877,1.01755,3.69661,9.29642,0.0970484,-0.0471116,-0.230595,0
2024-12-13 15:23:32.879,1.02473,3.70618,9.26531,0.100713,-0.0538309,-0.233038,0
2024-12-13 15:23:32.881,1.0343,3.71575,9.25305,0.102546,-0.0593285,-0.236703,0
2024-12-13 15:23:32.884,1.03669,3.7325,9.22912,0.111709,-0.0666587,-0.239758,0
2024-12-13 15:23:32.886,1.04148,3.75165,9.21955,0.114763,-0.0721563,-0.242812,0
2024-12-13 15:23:32.888,1.05344,3.74686,9.21955,0.118428,-0.0764323,-0.245255,0
2024-12-13 15:23:32.891,1.07258,3.74208,9.20519,0.120871,-0.0831516,-0.250142,0
2024-12-13 15:23:32.893,1.08455,3.75404,9.19801,0.125758,-0.0868167,-0.253807,0
2024-12-13 15:23:32.895,1.09651,3.76361,9.18126,0.133088,-0.0910926,-0.256861,0
2024-12-13 15:23:32.898,1.11565,3.74925,9.15255,0.133699,-0.0972011,-0.261137,0
2024-12-13 15:23:32.900,1.12044,3.74208,9.1358,0.136753,-0.0996445,-0.264802,0
2024-12-13 15:23:32.902,1.12522,3.74208,9.11426,0.142862,-0.106975,-0.268467,0
2024-12-13 15:23:32.905,1.13719,3.73011,9.08315,0.145305,-0.113083,-0.273354,0
2024-12-13 15:23:32.907,1.13958,3.71815,9.04965,0.144694,-0.118581,-0.276408,0
2024-12-13 15:23:32.910,1.15633,3.71815,9.02573,0.14836,-0.124689,-0.282517,0
2024-12-13 15:23:32.912,1.17069,3.71575,9.01855,0.146527,-0.131409,-0.285571,0
2024-12-13 15:23:32.914,1.1659,3.71097,8.99701,0.147749,-0.137517,-0.290458,0
2024-12-13 15:23:32.917,1.16112,3.71097,8.98026,0.147749,-0.143625,-0.292901,0
2024-12-13 15:23:32.919,1.1683,3.71336,8.99223,0.14897,-0.146069,-0.297788,0
2024-12-13 15:23:32.921,1.18505,3.72533,8.99223,0.147138,-0.149734,-0.301453,0
2024-12-13 15:23:32.924,1.18744,3.7349,8.98026,0.14836,-0.152177,-0.305118,0
2024-12-13 15:23:32.928,1.21376,3.74208,8.97787,0.142862,-0.153399,-0.306951,0
2024-12-13 15:23:32.928,1.21376,3.74208,8.97787,0.142862,-0.153399,-0.306951,0
2024-12-13 15:23:32.931,1.22572,3.74208,8.97069,0.142862,-0.151566,-0.316724,0
2024-12-13 15:23:32.933,1.26401,3.74208,8.97548,0.14164,-0.151566,-0.323444,0
2024-12-13 15:23:32.935,1.28554,3.74686,8.98744,0.139808,-0.150956,-0.326498,0
2024-12-13 15:23:32.938,1.28554,3.74447,8.96591,0.137975,-0.148512,-0.333217,0
2024-12-13 15:23:32.940,1.29033,3.74447,8.94676,0.137364,-0.147291,-0.339936,0
2024-12-13 15:23:32.942,1.29512,3.75165,8.94916,0.132477,-0.144236,-0.346656,0
2024-12-13 15:23:32.945,1.28794,3.75883,8.94916,0.13431,-0.13935,-0.353986,0
2024-12-13 15:23:32.947,1.27358,3.75643,8.93719,0.130034,-0.136295,-0.358262,0
2024-12-13 15:23:32.950,1.25444,3.76122,8.92044,0.125758,-0.133241,-0.365592,0
2024-12-13 15:23:32.952,1.24008,3.77079,8.90848,0.123315,-0.128354,-0.369868,0
2024-12-13 15:23:32.954,1.21376,3.78036,8.90609,0.123926,-0.121635,-0.374144,0
2024-12-13 15:23:32.957,1.18744,3.78275,8.90369,0.120871,-0.116748,-0.380252,0
2024-12-13 15:23:32.959,1.16112,3.77079,8.88694,0.117817,-0.111861,-0.382085,0
2024-12-13 15:23:32.961,1.13719,3.76122,8.85823,0.11232,-0.108807,-0.385139,0
2024-12-13 15:23:32.964,1.13958,3.766,8.85105,0.108044,-0.105142,-0.386361,0
2024-12-13 15:23:32.966,1.11326,3.7684,8.84148,0.104989,-0.104531,-0.387583,0
2024-12-13 15:23:32.968,1.05823,3.766,8.81994,0.0988809,-0.104531,-0.388804,0
2024-12-13 15:23:32.971,1.03669,3.77797,8.81516,0.0982701,-0.105142,-0.390637,0
2024-12-13 15:23:32.973,1.02712,3.78515,8.82234,0.0915507,-0.104531,-0.391248,0
2024-12-13 15:23:32.975,0.99362,3.7995,8.83191,0.0878856,-0.106975,-0.390026,0
2024-12-13 15:23:32.978,0.96012,3.8019,8.83909,0.0817772,-0.105142,-0.388193,0
2024-12-13 15:23:32.980,0.936192,3.79711,8.83669,0.0799446,-0.108196,-0.387583,0
2024-12-13 15:23:32.983,0.912264,3.81147,8.85823,0.0762796,-0.112472,-0.384528,0
2024-12-13 15:23:32.986,0.888335,3.82104,8.88934,0.0732253,-0.118581,-0.381474,0
2024-12-13 15:23:32.987,0.88355,3.82104,8.90369,0.0732253,-0.118581,-0.381474,0
2024-12-13 15:23:32.991,0.907478,3.82343,8.92044,0.0726145,-0.129576,-0.379642,0
2024-12-13 15:23:32.992,0.909871,3.82343,8.95873,0.0726145,-0.129576,-0.379642,0
2024-12-13 15:23:32.994,0.895514,3.82822,8.99701,0.0756687,-0.135684,-0.379031,0
2024-12-13 15:23:32.997,0.890728,3.8354,9.01376,0.0768904,-0.144236,-0.37842,0
2024-12-13 15:23:32.999,0.897907,3.82343,9.04726,0.0781121,-0.150956,-0.377198,0
2024-12-13 15:23:33.001,0.897907,3.82104,9.09033,0.0829989,-0.160118,-0.375976,0
2024-12-13 15:23:33.004,0.897907,3.82343,9.12623,0.0878856,-0.172335,-0.375976,0
2024-12-13 15:23:33.006,0.905085,3.81625,9.15973,0.0921616,-0.184552,-0.374144,0
2024-12-13 15:23:33.008,0.909871,3.8019,9.17647,0.0976592,-0.197991,-0.377198,0
2024-12-13 15:23:33.011,0.924228,3.77079,9.18365,0.103157,-0.212651,-0.37842,0
2024-12-13 15:23:33.013,0.926621,3.74925,9.20519,0.109265,-0.227922,-0.379031,0
2024-12-13 15:23:33.016,0.936192,3.73968,9.21476,0.113541,-0.239528,-0.381474,0
2024-12-13 15:23:33.018,0.952942,3.71336,9.21476,0.117206,-0.253578,-0.386361,0
2024-12-13 15:23:33.020,0.957727,3.67747,9.22194,0.120261,-0.263962,-0.388804,0
2024-12-13 15:23:33.023,0.969691,3.65115,9.21955,0.124536,-0.275568,-0.391248,0
2024-12-13 15:23:33.025,0.964906,3.64367,9.21715,0.129423,-0.282288,-0.394302,0
2024-12-13 15:23:33.027,0.945763,3.63889,9.22194,0.129423,-0.287785,-0.397967,0
2024-12-13 15:23:33.031,0.926621,3.6006,9.23151,0.136753,-0.289618,-0.401632,0
2024-12-13 15:23:33.032,0.905085,3.56231,9.22672,0.136753,-0.289618,-0.401632,0
2024-12-13 15:23:33.034,0.890728,3.54317,9.21237,0.136143,-0.287785,-0.402243,0
2024-12-13 15:23:33.037,0.8668,3.51446,9.21715,0.136143,-0.281066,-0.405297,0
2024-12-13 15:23:33.039,0.847657,3.48096,9.20997,0.139197,-0.271903,-0.401632,0
2024-12-13 15:23:33.041,0.816252,3.45703,9.19083,0.138586,-0.262741,-0.402243,0
2024-12-13 15:23:33.044,0.775574,3.43071,9.17408,0.139197,-0.249302,-0.401632,0
2024-12-13 15:23:33.046,0.742074,3.40917,9.15733,0.139197,-0.237696,-0.397967,0
2024-12-13 15:23:33.048,0.696611,3.37089,9.13819,0.136143,-0.221814,-0.395524,0
2024-12-13 15:23:33.051,0.663111,3.3326,9.10708,0.136753,-0.207154,-0.393691,0
2024-12-13 15:23:33.053,0.634397,3.30389,9.07598,0.139197,-0.192493,-0.390026,0
2024-12-13 15:23:33.056,0.598505,3.27757,9.04248,0.134921,-0.176,-0.383918,0
2024-12-13 15:23:33.058,0.550648,3.26082,9.02573,0.133699,-0.16134,-0.379031,0
2024-12-13 15:23:33.060,0.507577,3.24885,9.01616,0.136753,-0.147291,-0.369868,0
2024-12-13 15:23:33.063,0.474078,3.24168,8.99701,0.136143,-0.131409,-0.366203,0
2024-12-13 15:23:33.065,0.426222,3.22253,8.9683,0.139197,-0.119192,-0.358873,0
2024-12-13 15:23:33.067,0.387936,3.19143,8.93001,0.140419,-0.107585,-0.349099,0
2024-12-13 15:23:33.070,0.352044,3.16511,8.90848,0.142251,-0.0965902,-0.34238,0
2024-12-13 15:23:33.072,0.308973,3.14357,8.9013,0.145916,-0.0868167,-0.333828,0
2024-12-13 15:23:33.074,0.275175,3.12204,8.87976,0.153246,-0.0764323,-0.322833,0
2024-12-13 15:23:33.077,0.239282,3.1005,8.85344,0.155079,-0.0684913,-0.31367,0
2024-12-13 15:23:33.079,0.208176,3.08106,8.82952,0.160576,-0.0623828,-0.305118,0
2024-12-13 15:23:33.081,0.184247,3.06909,8.80319,0.17035,-0.0599394,-0.294123,0
2024-12-13 15:23:33.084,0.165105,3.04995,8.77927,0.177069,-0.0562743,-0.281295,0
2024-12-13 15:23:33.086,0.138784,3.04517,8.75055,0.183178,-0.0532201,-0.272743,0
2024-12-13 15:23:33.089,0.138784,3.03799,8.72662,0.192951,-0.0507767,-0.262359,0
2024-12-13 15:23:33.091,0.143569,3.02124,8.68565,0.204557,-0.0507767,-0.251974,0
2024-12-13 15:23:33.093,0.138784,3.0021,8.64497,0.213109,-0.049555,-0.244033,0
2024-12-13 15:23:33.096,0.145962,2.98774,8.61147,0.225326,-0.049555,-0.234871,0
2024-12-13 15:23:33.098,0.148355,2.98774,8.56122,0.235711,-0.0465007,-0.223876,0
2024-12-13 15:23:33.100,0.162712,2.97817,8.50619,0.246095,-0.0428357,-0.215935,0
2024-12-13 15:23:33.103,0.174676,2.96381,8.45354,0.257701,-0.0391706,-0.211048,0
2024-12-13 15:23:33.105,0.184247,2.94227,8.39851,0.266864,-0.0385597,-0.202496,0
2024-12-13 15:23:33.108,0.20339,2.9327,8.34108,0.277248,-0.0355055,-0.196387,0
2024-12-13 15:23:33.110,0.217747,2.92792,8.25733,0.286411,-0.033673,-0.193944,0
2024-12-13 15:23:33.112,0.229711,2.91117,8.19033,0.294963,-0.0312296,-0.187836,0
2024-12-13 15:23:33.114,0.239282,2.90399,8.135,0.304736,-0.0281753,-0.182949,0
2024-12-13 15:23:33.117,0.239282,2.88963,8.07518,0.313288,-0.0257319,-0.179284,0
2024-12-13 15:23:33.119,0.232104,2.88006,8.001,0.318175,-0.0196235,-0.178062,0
2024-12-13 15:23:33.121,0.232104,2.87767,7.94118,0.324284,-0.0159584,-0.174397,0
2024-12-13 15:23:33.124,0.234497,2.8657,7.89093,0.327949,-0.0110716,-0.170732,0
2024-12-13 15:23:33.126,0.224925,2.8657,7.82872,0.332835,-0.00923906,-0.167678,0
2024-12-13 15:23:33.129,0.224925,2.87288,7.78804,0.334668,-0.00740652,-0.165845,0
2024-12-13 15:23:33.131,0.22014,2.87767,7.74736,0.337111,-0.00129805,-0.163402,0
2024-12-13 15:23:33.133,0.189033,2.8681,7.70908,0.338333,0.00236703,-0.16218,0
2024-12-13 15:23:33.136,0.155533,2.86331,7.67079,0.342609,0.00908635,-0.160958,0
2024-12-13 15:23:33.138,0.131605,2.85613,7.64686,0.346274,0.014584,-0.159126,0
2024-12-13 15:23:33.141,0.119641,2.83938,7.62293,0.349939,0.0219141,-0.155461,0
2024-12-13 15:23:33.143,0.0981057,2.82981,7.56282,0.351161,0.0286335,-0.154239,0
2024-12-13 15:23:33.145,0.0789631,2.82024,7.50299,0.352993,0.0365745,-0.152406,0
2024-12-13 15:23:33.147,0.066999,2.80588,7.44557,0.355437,0.0451263,-0.149352,0
2024-12-13 15:23:33.150,0.0502493,2.80349,7.38335,0.355437,0.0530674,-0.146298,0
2024-12-13 15:23:33.152,0.0334995,2.78435,7.32353,0.356658,0.0634518,-0.143244,0
2024-12-13 15:23:33.154,0.0167498,2.77478,7.27328,0.356658,0.0683385,-0.141411,0
2024-12-13 15:23:33.157,0.00239282,2.78196,7.23739,0.351772,0.0781121,-0.136524,0
2024-12-13 15:23:33.159,-0.00717847,2.77238,7.2015,0.351772,0.0854423,-0.134081,0
2024-12-13 15:23:33.162,-0.0191426,2.75803,7.168,0.346885,0.094605,-0.130416,0
2024-12-13 15:23:33.164,-0.0311067,2.74846,7.1345,0.34322,0.104989,-0.125529,0
2024-12-13 15:23:33.166,-0.0311067,2.75324,7.10818,0.340776,0.11293,-0.123697,0
2024-12-13 15:23:33.169,-0.0311067,2.74367,7.10339,0.338944,0.123926,-0.122475,0
2024-12-13 15:23:33.171,-0.0454636,2.71974,7.101,0.335279,0.134921,-0.116977,0
2024-12-13 15:23:33.173,-0.0502493,2.70299,7.09861,0.334057,0.146527,-0.115145,0
2024-12-13 15:23:33.176,-0.0454636,2.68864,7.10818,0.331614,0.159966,-0.113312,0
2024-12-13 15:23:33.178,-0.0550349,2.67906,7.11775,0.332225,0.173404,-0.110258,0
2024-12-13 15:23:33.180,-0.0693919,2.65992,7.12971,0.331614,0.187454,-0.107815,0
2024-12-13 15:23:33.183,-0.0622134,2.6336,7.13211,0.331614,0.200892,-0.105982,0
2024-12-13 15:23:33.185,-0.0454636,2.60728,7.14168,0.333446,0.214942,-0.104149,0
2024-12-13 15:23:33.187,-0.0287139,2.58335,7.17518,0.334057,0.228381,-0.103539,0
2024-12-13 15:23:33.190,-0.00717847,2.54507,7.20389,0.337722,0.241819,-0.101095,0
2024-12-13 15:23:33.192,0.00478565,2.49691,7.20628,0.341387,0.254647,-0.0986518,0
2024-12-13 15:23:33.195,0.0287139,2.4658,7.20389,0.345052,0.271751,-0.0968193,0
2024-12-13 15:23:33.197,0.0478565,2.45863,7.19432,0.348107,0.287022,-0.0955976,0
2024-12-13 15:23:33.200,0.0502493,2.44427,7.19671,0.357269,0.325505,-0.0894891,0
2024-12-13 15:23:33.202,0.0382852,2.42273,7.20628,0.357269,0.325505,-0.0894891,0
2024-12-13 15:23:33.204,0.0167498,2.42034,7.19671,0.36521,0.347496,-0.085824,0
2024-12-13 15:23:33.206,-0.00957129,2.4323,7.17278,0.371395,0.37193,-0.082159,0
2024-12-13 15:23:33.209,-0.0430708,2.44666,7.16321,0.383612,0.390866,-0.077883,0
2024-12-13 15:23:33.212,-0.0741775,2.45384,7.16561,0.400105,0.435458,-0.0662769,0
2024-12-13 15:23:33.213,-0.0837488,2.46341,7.14168,0.400105,0.435458,-0.0662769,0
2024-12-13 15:23:33.216,-0.081356,2.47777,7.09621,0.410489,0.454394,-0.062001,0
2024-12-13 15:23:33.218,-0.0885344,2.48734,7.03879,0.421485,0.473941,-0.0583359,0
2024-12-13 15:23:33.220,-0.100499,2.47298,6.97867,0.431869,0.490434,-0.0552817,0
2024-12-13 15:23:33.223,-0.107677,2.46102,6.9021,0.442864,0.506927,-0.0546708,0
2024-12-13 15:23:33.225,-0.11007,2.48016,6.81596,0.447751,0.517311,-0.0516166,0
2024-12-13 15:23:33.227,-0.122034,2.48973,6.7346,0.45447,0.527085,-0.0485624,0
2024-12-13 15:23:33.230,-0.143569,2.48255,6.65803,0.462411,0.535026,-0.0479515,0
2024-12-13 15:23:33.232,-0.155533,2.49212,6.60778,0.465466,0.539913,-0.0473407,0
2024-12-13 15:23:33.235,-0.16989,2.49452,6.54078,0.466687,0.539913,-0.0442864,0
2024-12-13 15:23:33.237,-0.16989,2.4993,6.45464,0.467909,0.543578,-0.0436756,0
2024-12-13 15:23:33.239,-0.165105,2.5017,6.38973,0.466076,0.544799,-0.0430647,0
2024-12-13 15:23:33.242,-0.157926,2.48973,6.32273,0.463022,0.543578,-0.0424539,0
2024-12-13 15:23:33.244,-0.148355,2.4993,6.24377,0.458746,0.540523,-0.0436756,0
2024-12-13 15:23:33.246,-0.143569,2.51845,6.18874,0.455081,0.536248,-0.0430647,0
2024-12-13 15:23:33.249,-0.138784,2.53789,6.14567,0.444086,0.53075,-0.0455081,0
2024-12-13 15:23:33.251,-0.143569,2.55942,6.10738,0.434923,0.520366,-0.0485624,0
2024-12-13 15:23:33.253,-0.155533,2.57857,6.08345,0.422706,0.510592,-0.0491732,0
2024-12-13 15:23:33.256,-0.148355,2.58335,6.07388,0.412933,0.498986,-0.0516166,0
2024-12-13 15:23:33.258,-0.143569,2.59532,6.08585,0.400716,0.485547,-0.0558925,0
2024-12-13 15:23:33.260,-0.143569,2.61207,6.10738,0.386055,0.473941,-0.0589468,0
2024-12-13 15:23:33.263,-0.136391,2.60967,6.13849,0.372006,0.459892,-0.0626118,0
2024-12-13 15:23:33.265,-0.129212,2.59292,6.19592,0.358491,0.45134,-0.0662769,0
2024-12-13 15:23:33.268,-0.129212,2.59053,6.27488,0.345663,0.441566,-0.0723854,0
2024-12-13 15:23:33.270,-0.129212,2.59292,6.3682,0.334057,0.433625,-0.0754396,0
2024-12-13 15:23:33.272,-0.124427,2.59053,6.47378,0.322451,0.42996,-0.0809373,0
2024-12-13 15:23:33.275,-0.117248,2.58335,6.6006,0.313899,0.428128,-0.0809373,0
2024-12-13 15:23:33.277,-0.11007,2.55703,6.72024,0.307791,0.427517,-0.0852132,0
2024-12-13 15:23:33.279,-0.107677,2.52323,6.83749,0.303515,0.431182,-0.0864349,0
2024-12-13 15:23:33.282,-0.107677,2.50648,6.9691,0.30046,0.43729,-0.0852132,0
2024-12-13 15:23:33.284,-0.112463,2.47537,7.08425,0.299239,0.445231,-0.0846023,0
2024-12-13 15:23:33.286,-0.129212,2.45145,7.18953,0.301071,0.455616,-0.0827698,0
2024-12-13 15:23:33.289,-0.148355,2.4323,7.28286,0.303515,0.465389,-0.0791047,0
2024-12-13 15:23:33.291,-0.167498,2.41795,7.36421,0.302293,0.476995,-0.0748288,0
2024-12-13 15:23:33.293,-0.179462,2.42513,7.44557,0.30718,0.490434,-0.0681095,0
2024-12-13 15:23:33.296,-0.193819,2.4323,7.52453,0.312677,0.499597,-0.0595576,0
2024-12-13 15:23:33.298,-0.205783,2.45863,7.59183,0.316343,0.513035,-0.0503949,0
2024-12-13 15:23:33.300,-0.20339,2.49452,7.6349,0.319397,0.527085,-0.0406213,0
2024-12-13 15:23:33.303,-0.205783,2.53549,7.67318,0.323062,0.536248,-0.0332912,0
2024-12-13 15:23:33.305,-0.208176,2.58574,7.71386,0.327338,0.54541,-0.0241285,0
2024-12-13 15:23:33.308,-0.210568,2.65274,7.72822,0.332225,0.549075,-0.0137441,0
2024-12-13 15:23:33.310,-0.241675,2.73649,7.72583,0.334668,0.548464,-0.0051922,0
2024-12-13 15:23:33.312,-0.265603,2.81545,7.73779,0.337722,0.539302,0.00335966,0
2024-12-13 15:23:33.315,-0.265603,2.89203,7.74736,0.33589,0.520366,0.0113007,0
2024-12-13 15:23:33.317,-0.272782,2.98056,7.7665,0.332225,0.492877,0.0137441,0
2024-12-13 15:23:33.319,-0.251246,3.05952,7.78086,0.327338,0.453172,0.0174091,0
2024-12-13 15:23:33.322,-0.210568,3.11725,7.79043,0.320008,0.403694,0.01802,0
2024-12-13 15:23:33.324,-0.179462,3.19143,7.81675,0.30718,0.346274,0.01802,0
2024-12-13 15:23:33.326,-0.145962,3.28475,7.85504,0.292519,0.279692,0.0149658,0
2024-12-13 15:23:33.329,-0.0957129,3.33978,7.94597,0.272362,0.211277,0.00824644,0
2024-12-13 15:23:33.331,-0.0430708,3.39482,8.068,0.24976,0.137364,0.0051922,0
2024-12-13 15:23:33.333,0.0,3.48574,8.21426,0.24976,0.137364,0.0051922,0
2024-12-13 15:23:33.336,0.0502493,3.5671,8.37937,0.200892,-0.0147367,-0.0064139,0
2024-12-13 15:23:33.338,0.107677,3.65833,8.55883,0.178291,-0.0880384,-0.0149658,0
2024-12-13 15:23:33.341,0.174676,3.75404,8.77209,0.150803,-0.163173,-0.0229068,0
2024-12-13 15:23:33.343,0.239282,3.82582,8.99462,0.122093,-0.24075,-0.0345129,0
2024-12-13 15:23:33.345,0.308973,3.8665,9.23869,0.0933833,-0.318939,-0.0442864,0
2024-12-13 15:23:33.348,0.464507,3.9,9.52373,0.0646735,-0.386743,-0.0546708,0
2024-12-13 15:23:33.350,0.65354,3.88804,9.78934,0.0341311,-0.445995,-0.0656661,0
2024-12-13 15:23:33.352,0.828216,3.86172,10.0241,-0.000687203,-0.50769,-0.0784939,0
2024-12-13 15:23:33.355,0.998405,3.85932,10.2802,-0.0355055,-0.564499,-0.0943759,0
2024-12-13 15:23:33.357,1.17787,3.86172,10.5269,-0.0697129,-0.619475,-0.113923,0
2024-12-13 15:23:33.359,1.36451,3.87368,10.7686,-0.106975,-0.669565,-0.140189,0
2024-12-13 15:23:33.362,1.5658,3.88804,11.0393,-0.147901,-0.712935,-0.16951,0
2024-12-13 15:23:33.364,1.78116,3.87607,11.3145,-0.191882,-0.748975,-0.201885,0
2024-12-13 15:23:33.366,1.97288,3.84018,11.6043,-0.238307,-0.778907,-0.237314,0
2024-12-13 15:23:33.369,2.13081,3.7995,11.9034,-0.281066,-0.800286,-0.2703,0
2024-12-13 15:23:33.371,2.26241,3.75404,12.21,-0.324436,-0.81006,-0.307562,0
2024-12-13 15:23:33.374,2.38445,3.699,12.5306,-0.372693,-0.811282,-0.341158,0
2024-12-13 15:23:33.376,2.48973,3.6341,12.8659,-0.417285,-0.799065,-0.374144,0
2024-12-13 15:23:33.378,2.59053,3.57428,13.2108,-0.460044,-0.773409,-0.408351,0
2024-12-13 15:23:33.381,2.65992,3.52642,13.5266,-0.499139,-0.734315,-0.440115,0
2024-12-13 15:23:33.383,2.68624,3.5001,13.8165,-0.5364,-0.683004,-0.468825,0
2024-12-13 15:23:33.385,2.66949,3.49771,14.0868,-0.569997,-0.620086,-0.495703,0
2024-12-13 15:23:33.388,2.59771,3.50249,14.3384,-0.607259,-0.545563,-0.518304,0
2024-12-13 15:23:33.390,2.51127,3.52164,14.5561,-0.639023,-0.466153,-0.540294,0
2024-12-13 15:23:33.392,2.41555,3.56471,14.7069,-0.668954,-0.385521,-0.554344,0
2024-12-13 15:23:33.395,2.29352,3.60299,14.805,-0.701329,-0.3055,-0.568393,0
2024-12-13 15:23:33.397,2.19541,3.60299,14.8747,-0.736758,-0.231587,-0.583665,0
2024-12-13 15:23:33.399,2.12602,3.58624,14.9034,-0.775852,-0.167449,-0.594049,0
2024-12-13 15:23:33.402,2.08535,3.5671,14.9154,-0.818001,-0.114305,-0.606266,0
2024-12-13 15:23:33.406,2.13081,3.41157,14.9489,-0.913293,-0.0477224,-0.641695,0
2024-12-13 15:23:33.406,2.13081,3.41157,14.9489,-0.913293,-0.0477224,-0.641695,0
2024-12-13 15:23:33.409,2.21216,3.30389,14.9919,-0.967658,-0.0342838,-0.663686,0
2024-12-13 15:23:33.411,2.30548,3.17468,15.047,-1.02386,-0.0269536,-0.690563,0
2024-12-13 15:23:33.414,2.40598,3.05474,15.1451,-1.08189,-0.0275645,-0.719884,0
2024-12-13 15:23:33.416,2.49212,2.95424,15.2982,-1.1387,-0.0287862,-0.751037,0
2024-12-13 15:23:33.418,2.55703,2.8322,15.4828,-1.19367,-0.0263428,-0.786466,0
2024-12-13 15:23:33.421,2.61207,2.72453,15.6933,-1.24254,-0.0220669,-0.818841,0
2024-12-13 15:23:33.423,2.63599,2.63599,15.9518,-1.28713,-0.00984991,-0.854881,0
2024-12-13 15:23:33.425,2.62164,2.5331,16.2368,-1.325,0.0139731,-0.888477,0
2024-12-13 15:23:33.428,2.58574,2.44666,16.4952,-1.35555,0.0475697,-0.919631,0
2024-12-13 15:23:33.430,2.51127,2.38684,16.742,-1.37754,0.0915507,-0.944675,0
2024-12-13 15:23:33.432,2.40838,2.32702,16.9549,-1.39036,0.145305,-0.967887,0
2024-12-13 15:23:33.435,2.27438,2.28634,17.1323,-1.39892,0.207001,-0.986824,0
2024-12-13 15:23:33.437,2.07577,2.26241,17.3357,-1.39586,0.27114,-1.00332,0
2024-12-13 15:23:33.439,1.85533,2.24566,17.5104,-1.38487,0.338333,-1.0137,0
2024-12-13 15:23:33.442,1.63998,2.22174,17.63,-1.36715,0.409191,-1.02225,0
2024-12-13 15:23:33.444,1.41984,2.18584,17.7284,-1.34394,0.48005,-1.02286,0
2024-12-13 15:23:33.447,1.16112,2.16192,17.7787,-1.31034,0.553351,-1.01981,0
2024-12-13 15:23:33.449,0.869193,2.15474,17.7619,-1.27003,0.623599,-1.01309,1
2024-12-13 15:23:33.451,0.569791,2.13799,17.6901,-1.22727,0.691403,-1.00393,0
2024-12-13 15:23:33.454,0.275175,2.13799,17.5774,-1.17657,0.756229,-0.989878,0
2024-12-13 15:23:33.456,-0.0215354,2.15713,17.4123,-1.12342,0.811205,-0.974607,0
2024-12-13 15:23:33.458,-0.316152,2.18106,17.2089,-1.06967,0.861905,-0.950784,0
2024-12-13 15:23:33.461,-0.598505,2.20977,16.9693,-1.01042,0.904665,-0.926961,0
2024-12-13 15:23:33.463,-0.878764,2.23849,16.6822,-0.951166,0.935207,-0.896418,0
2024-12-13 15:23:33.466,-1.14915,2.2672,16.4019,-0.890081,0.951089,-0.863433,0
2024-12-13 15:23:33.468,-1.41027,2.28873,16.1219,-0.830218,0.956587,-0.824338,0
2024-12-13 15:23:33.470,-1.64237,2.3007,15.8369,-0.769133,0.954143,-0.783412,0
2024-12-13 15:23:33.472,-1.81226,2.34138,15.521,-0.707437,0.945592,-0.739431,0
2024-12-13 15:23:33.477,-2.04706,2.48255,14.889,-0.588933,0.888172,-0.648414,0
2024-12-13 15:23:33.480,-2.04706,2.57857,14.5729,-0.535179,0.847245,-0.603212,0
2024-12-13 15:23:33.480,-2.16431,2.57857,14.5729,-0.535179,0.847245,-0.603212,0
2024-12-13 15:23:33.482,-2.25524,2.64078,14.2472,-0.480813,0.795934,-0.562285,0
2024-12-13 15:23:33.484,-2.30788,2.70778,13.9074,-0.428891,0.74279,-0.521358,0
2024-12-13 15:23:33.487,-2.31506,2.79871,13.5673,-0.383688,0.682851,-0.485318,0
2024-12-13 15:23:33.489,-2.30309,2.87288,13.2299,-0.339707,0.616879,-0.451111,0
2024-12-13 15:23:33.491,-2.27199,2.9686,12.8851,-0.303057,0.550297,-0.416903,0
2024-12-13 15:23:33.496,-2.23849,3.16989,12.2363,-0.241972,0.417132,-0.361927,0
2024-12-13 15:23:33.498,-2.20259,3.16989,11.9321,-0.219981,0.352383,-0.337493,0
2024-12-13 15:23:33.498,-2.15234,3.26082,11.9321,-0.219981,0.352383,-0.337493,0
2024-12-13 15:23:33.501,-2.08535,3.36371,11.6354,-0.202267,0.290076,-0.317335,0
2024-12-13 15:23:33.503,-2.01356,3.45703,11.3623,-0.188217,0.228381,-0.300842,0
2024-12-13 15:23:33.505,-1.93669,3.52164,11.1183,-0.179665,0.171572,-0.286182,0
2024-12-13 15:23:33.508,-1.83619,3.5671,10.9002,-0.176611,0.11965,-0.273354,0
2024-12-13 15:23:33.510,-1.72852,3.60778,10.7207,-0.176611,0.0713928,-0.265413,0
2024-12-13 15:23:33.512,-1.61127,3.64367,10.5628,-0.179665,0.0329094,-0.258694,0
2024-12-13 15:23:33.515,-1.5012,3.66311,10.4312,-0.179055,0.00175619,-0.253807,0
2024-12-13 15:23:33.517,-1.40548,3.67986,10.3184,-0.181498,-0.0202343,-0.252585,0
2024-12-13 15:23:33.520,-1.32383,3.68943,10.2036,-0.186385,-0.0312296,-0.253807,0
2024-12-13 15:23:33.522,-1.26879,3.67747,10.0983,-0.193104,-0.0330621,-0.254418,0
2024-12-13 15:23:33.524,-1.24008,3.67029,10.005,-0.195547,-0.0263428,-0.257472,0
2024-12-13 15:23:33.529,-1.18505,3.65593,9.80609,-0.20471,0.00786466,-0.259305,0
2024-12-13 15:23:33.531,-1.18505,3.60778,9.70319,-0.209597,0.0359636,-0.260526,0
2024-12-13 15:23:33.531,-1.18505,3.60778,9.70319,-0.209597,0.0359636,-0.260526,0
2024-12-13 15:23:33.534,-1.18983,3.57189,9.60509,-0.214484,0.0634518,-0.261137,0
2024-12-13 15:23:33.536,-1.17787,3.53121,9.49741,-0.218149,0.0933833,-0.261137,0
2024-12-13 15:23:33.538,-1.18505,3.48335,9.38256,-0.223646,0.126369,-0.261137,0
2024-12-13 15:23:33.541,-1.18983,3.44267,9.27488,-0.227312,0.159966,-0.261748,0
2024-12-13 15:23:33.543,-1.20658,3.41396,9.15255,-0.227312,0.159966,-0.261748,0
2024-12-13 15:23:33.545,-1.24247,3.38525,9.0353,-0.238307,0.224715,-0.261748,0
2024-12-13 15:23:33.548,-1.27358,3.34457,8.93001,-0.246248,0.255869,-0.259916,0
2024-12-13 15:23:33.550,-1.30947,3.30389,8.85344,-0.251135,0.280913,-0.260526,0
2024-12-13 15:23:33.553,-1.1348,3.14118,8.92762,-0.256021,0.29985,-0.258694,0
2024-12-13 15:23:33.555,-0.859622,2.88963,9.18126,-0.252967,0.296795,-0.268467,0
2024-12-13 15:23:33.557,-1.08933,2.8992,9.00419,-0.244415,0.304126,-0.282517,0
2024-12-13 15:23:33.560,-1.4653,3.06909,8.64736,-0.241361,0.339555,-0.283739,0
2024-12-13 15:23:33.562,-1.64716,3.14596,8.67847,-0.235253,0.362156,-0.275798,0
2024-12-13 15:23:33.564,-1.89601,3.22253,8.67368,-0.229144,0.37193,-0.26297,0
2024-12-13 15:23:33.567,-2.10449,3.31346,8.59233,-0.224257,0.374984,-0.244644,0
2024-12-13 15:23:33.569,-2.20259,3.34218,8.56122,-0.220592,0.36521,-0.220821,0
2024-12-13 15:23:33.571,-2.22652,3.32064,8.51815,-0.215095,0.348717,-0.193944,0
2024-12-13 15:23:33.574,-2.19063,3.24407,8.47508,-0.208986,0.327949,-0.176229,0
2024-12-13 15:23:33.576,-2.11645,3.11007,8.47747,-0.202267,0.303515,-0.156071,0
2024-12-13 15:23:33.578,-2.02313,2.98056,8.50858,-0.193715,0.272972,-0.140189,0
2024-12-13 15:23:33.583,-1.90319,2.76281,8.62583,-0.193715,0.272972,-0.140189,0
2024-12-13 15:23:33.585,-1.89841,2.68385,8.71227,-0.143625,0.16302,-0.113923,0
2024-12-13 15:23:33.588,-1.91516,2.65514,8.8008,-0.121024,0.122704,-0.107204,0
2024-12-13 15:23:33.588,-1.91516,2.65514,8.8008,-0.121024,0.122704,-0.107204,0
2024-12-13 15:23:33.590,-1.93908,2.63839,8.87737,-0.093536,0.0793338,-0.098041,0
2024-12-13 15:23:33.593,-2.0016,2.63839,8.95634,-0.0629936,0.0377962,-0.0894891,0
2024-12-13 15:23:33.595,-2.05902,2.64317,9.04248,-0.033673,-0.00557398,-0.0772722,0
2024-12-13 15:23:33.600,-2.16192,2.66231,9.15255,0.0377962,-0.0764323,-0.0473407,0
2024-12-13 15:23:33.600,-2.16192,2.66231,9.15255,0.0377962,-0.0764323,-0.0473407,0
2024-12-13 15:23:33.602,-2.19063,2.62881,9.2028,0.0787229,-0.108807,-0.0296261,0
2024-12-13 15:23:33.604,-2.21456,2.58814,9.24347,0.119039,-0.137517,-0.010079,0
2024-12-13 15:23:33.607,-2.22174,2.54507,9.27966,0.159355,-0.163783,0.0064139,0
2024-12-13 15:23:33.609,-2.20977,2.48495,9.29163,0.200282,-0.188828,0.025961,0
2024-12-13 15:23:33.611,-2.18106,2.43948,9.27488,0.24243,-0.210208,0.0448973,0
2024-12-13 15:23:33.614,-2.15713,2.38684,9.25305,0.280303,-0.23342,0.062001,0
2024-12-13 15:23:33.616,-2.14038,2.33659,9.22433,0.318175,-0.254189,0.0809373,0
2024-12-13 15:23:33.618,-2.11884,2.30788,9.18126,0.356658,-0.273736,0.0955976,0
2024-12-13 15:23:33.621,-2.09731,2.28634,9.12623,0.392164,-0.293283,0.11209,0
2024-12-13 15:23:33.623,-2.07338,2.2672,9.04726,0.423928,-0.307943,0.127972,0
2024-12-13 15:23:33.626,-2.05902,2.26002,8.96351,0.452027,-0.32016,0.144542,0
2024-12-13 15:23:33.628,-2.04945,2.2672,8.88934,0.478293,-0.328712,0.159813,0
2024-12-13 15:23:33.630,-2.02074,2.26481,8.81516,0.502727,-0.336653,0.176306,0
2024-12-13 15:23:33.633,-1.97767,2.27677,8.72423,0.522885,-0.34154,0.189744,0
2024-12-13 15:23:33.635,-1.93191,2.30309,8.62583,0.542432,-0.343373,0.203794,0
2024-12-13 15:23:33.637,-1.88166,2.30548,8.55643,0.557704,-0.348259,0.2154,0
2024-12-13 15:23:33.640,-1.82901,2.30309,8.49183,0.56992,-0.353146,0.223952,0
2024-12-13 15:23:33.644,-1.72612,2.23609,8.34108,0.587635,-0.360476,0.238001,0
2024-12-13 15:23:33.647,-1.68784,2.21695,8.28844,0.592522,-0.36292,0.245332,0
2024-12-13 15:23:33.647,-1.68784,2.21695,8.28844,0.592522,-0.36292,0.245332,0
2024-12-13 15:23:33.649,-1.65912,2.20499,8.22862,0.594354,-0.36353,0.252662,0
2024-12-13 15:23:33.651,-1.60887,2.19541,8.1664,0.594965,-0.36353,0.256938,0
2024-12-13 15:23:33.654,-1.56341,2.19781,8.13261,0.594965,-0.356811,0.263046,0
2024-12-13 15:23:33.656,-1.5347,2.19063,8.10868,0.593133,-0.350703,0.268544,0
2024-12-13 15:23:33.659,-1.50359,2.17866,8.07757,0.5913,-0.342151,0.27282,0
2024-12-13 15:23:33.663,-1.46291,2.17866,8.02732,0.581527,-0.326269,0.280761,0
2024-12-13 15:23:33.663,-1.41745,2.17388,8.02732,0.581527,-0.326269,0.280761,0
2024-12-13 15:23:33.666,-1.37886,2.15952,8.02732,0.572975,-0.319549,0.283815,0
2024-12-13 15:23:33.668,-1.32622,2.14277,8.02014,0.565645,-0.309776,0.283815,0
2024-12-13 15:23:33.670,-1.26879,2.11645,7.99382,0.558925,-0.303667,0.285647,0
2024-12-13 15:23:33.673,-1.23051,2.10209,7.97947,0.546097,-0.297559,0.288702,0
2024-12-13 15:23:33.675,-1.19222,2.09492,8.00339,0.535102,-0.291451,0.285647,0
2024-12-13 15:23:33.677,-1.14197,2.08774,8.02971,0.522885,-0.287175,0.285647,0
2024-12-13 15:23:33.680,-1.1013,2.09013,8.04168,0.510057,-0.282288,0.283204,0
2024-12-13 15:23:33.682,-1.09173,2.09731,8.08475,0.496619,-0.27679,0.281982,0
2024-12-13 15:23:33.684,-1.07737,2.09013,8.17119,0.486234,-0.270682,0.280761,0
2024-12-13 15:23:33.687,-1.05344,2.08774,8.23819,0.474628,-0.268849,0.277706,0
2024-12-13 15:23:33.689,-1.0319,2.08295,8.31954,0.464855,-0.267627,0.276485,0
2024-12-13 15:23:33.691,-1.01276,2.07099,8.42483,0.458135,-0.26946,0.27343,0
2024-12-13 15:23:33.694,-0.991227,2.06381,8.50379,0.45386,-0.271293,0.270376,0
2024-12-13 15:23:33.696,-0.957727,2.0351,8.59233,0.448362,-0.273736,0.268544,0
2024-12-13 15:23:33.699,-0.924228,2.00399,8.6689,0.445919,-0.280455,0.265489,0
2024-12-13 15:23:33.701,-0.907478,1.98485,8.74098,0.445919,-0.286564,0.263657,0
2024-12-13 15:23:33.703,-0.902692,1.9681,8.81277,0.441643,-0.295116,0.260603,0
2024-12-13 15:23:33.706,-0.876371,1.96301,8.88694,0.443475,-0.306111,0.257548,0
2024-12-13 15:23:33.708,-0.837787,1.95823,8.94916,0.442864,-0.316495,0.25144,0
2024-12-13 15:23:33.710,-0.801895,1.95583,8.99462,0.442864,-0.328712,0.248386,0
2024-12-13 15:23:33.714,-0.780359,1.96301,9.04726,0.443475,-0.359865,0.241056,0
2024-12-13 15:23:33.715,-0.780359,1.97528,9.0999,0.443475,-0.359865,0.241056,0
2024-12-13 15:23:33.717,-0.770788,1.98006,9.15015,0.445308,-0.37758,0.230671,0
2024-12-13 15:23:33.720,-0.751645,1.97049,9.19322,0.44714,-0.394073,0.224563,0
2024-12-13 15:23:33.722,-0.715753,1.95344,9.22672,0.448973,-0.408122,0.219065,0
2024-12-13 15:23:33.727,-0.672682,1.91276,9.28924,0.450194,-0.419728,0.214178,0
2024-12-13 15:23:33.729,-0.665504,1.91516,9.30599,0.45386,-0.44233,0.203794,0
2024-12-13 15:23:33.729,-0.665504,1.91516,9.30599,0.45386,-0.44233,0.203794,0
2024-12-13 15:23:33.732,-0.660718,1.90558,9.30599,0.452027,-0.449049,0.200129,0
2024-12-13 15:23:33.734,-0.646361,1.88883,9.29881,0.453249,-0.457601,0.19341,0
2024-12-13 15:23:33.736,-0.615255,1.88883,9.30599,0.450194,-0.463709,0.187912,0
2024-12-13 15:23:33.739,-0.586541,1.8673,9.31077,0.450805,-0.464931,0.183636,0
2024-12-13 15:23:33.741,-0.550648,1.84337,9.30359,0.450805,-0.464931,0.176917,0
2024-12-13 15:23:33.743,-0.507577,1.83859,9.27966,0.448362,-0.463709,0.173252,0
2024-12-13 15:23:33.746,-0.464507,1.83141,9.26292,0.444697,-0.45699,0.167143,0
2024-12-13 15:23:33.748,-0.423829,1.81226,9.2363,0.436756,-0.450882,0.161035,0
2024-12-13 15:23:33.750,-0.383151,1.81466,9.18844,0.431258,-0.439276,0.156759,0
2024-12-13 15:23:33.753,-0.349651,1.80509,9.15015,0.42515,-0.424615,0.150039,0
2024-12-13 15:23:33.755,-0.325723,1.78594,9.09273,0.415987,-0.407511,0.144542,0
2024-12-13 15:23:33.757,-0.282652,1.78834,9.03291,0.405603,-0.387354,0.137822,0
2024-12-13 15:23:33.760,-0.232104,1.77398,9.00898,0.395218,-0.366585,0.131638,0
2024-12-13 15:23:33.762,-0.200997,1.75484,8.98266,0.383612,-0.345205,0.124307,0
2024-12-13 15:23:33.765,-0.167498,1.75484,8.96351,0.376893,-0.319549,0.121253,0
2024-12-13 15:23:33.767,-0.122034,1.7668,8.96112,0.363378,-0.295116,0.116366,0
2024-12-13 15:23:33.769,-0.0693919,1.78116,8.94916,0.357269,-0.268849,0.107815,0
2024-12-13 15:23:33.772,-0.0143569,1.77637,8.9348,0.35055,-0.241361,0.102317,0
2024-12-13 15:23:33.774,0.040678,1.75484,8.90369,0.345052,-0.213262,0.0943759,0
2024-12-13 15:23:33.776,0.11007,1.73569,8.88455,0.341998,-0.180887,0.0864349,0
2024-12-13 15:23:33.779,0.162712,1.72612,8.87259,0.338944,-0.150345,0.0791047,0
2024-12-13 15:23:33.781,0.181855,1.72612,8.84148,0.339555,-0.119192,0.0711637,0
2024-12-13 15:23:33.783,0.205783,1.72134,8.81277,0.34322,-0.0929251,0.0638335,0
2024-12-13 15:23:33.786,0.224925,1.70937,8.77687,0.348107,-0.0660479,0.0552817,0
2024-12-13 15:23:33.788,0.215354,1.71177,8.7338,0.352993,-0.0422248,0.0497841,0
2024-12-13 15:23:33.793,0.251246,1.73091,8.59472,0.370173,-0.000687203,0.038178,0
2024-12-13 15:23:33.793,0.251246,1.73091,8.59472,0.370173,-0.000687203,0.038178,0
2024-12-13 15:23:33.795,0.239282,1.73091,8.49901,0.379947,0.0188599,0.0284044,0
2024-12-13 15:23:33.797,0.236889,1.7333,8.39612,0.391553,0.0390179,0.0241285,0
2024-12-13 15:23:33.800,0.256032,1.74527,8.27408,0.402548,0.0573433,0.0186308,0
2024-12-13 15:23:33.802,0.253639,1.75962,8.14248,0.411711,0.074447,0.0113007,0
2024-12-13 15:23:33.805,0.234497,1.78116,8.01536,0.419652,0.0915507,0.0064139,0
2024-12-13 15:23:33.807,0.215354,1.80269,7.88854,0.429426,0.109876,-0.000305424,0
2024-12-13 15:23:33.809,0.193819,1.81944,7.76172,0.440421,0.124536,-0.00397051,0
2024-12-13 15:23:33.812,0.177069,1.82662,7.6349,0.449584,0.136143,-0.010079,0
2024-12-13 15:23:33.814,0.174676,1.84337,7.50299,0.456914,0.147138,-0.0143549,0
2024-12-13 15:23:33.816,0.16989,1.87448,7.35464,0.463022,0.15569,-0.0167983,0
2024-12-13 15:23:33.819,0.162712,1.89123,7.19911,0.469131,0.159966,-0.0204634,0
2024-12-13 15:23:33.821,0.167498,1.89123,7.05314,0.474017,0.164242,-0.0247393,0
2024-12-13 15:23:33.826,0.153141,1.91516,6.73699,0.477683,0.169739,-0.0332912,0
2024-12-13 15:23:33.828,0.138784,1.93908,6.58385,0.478293,0.170961,-0.0375671,0
2024-12-13 15:23:33.828,0.138784,1.93908,6.58385,0.478293,0.170961,-0.0375671,0
2024-12-13 15:23:33.833,0.133998,1.95823,6.29881,0.472185,0.171572,-0.0442864,0
2024-12-13 15:23:33.835,0.138784,1.97288,6.15763,0.466076,0.174015,-0.0485624,0
2024-12-13 15:23:33.835,0.138784,1.97288,6.15763,0.466076,0.174015,-0.0485624,0
2024-12-13 15:23:33.838,0.12682,2.00877,6.04517,0.459968,0.17768,-0.0516166,0
2024-12-13 15:23:33.840,0.117248,2.04945,5.93749,0.452638,0.181956,-0.0546708,0
2024-12-13 15:23:33.842,0.105284,2.09013,5.82234,0.442253,0.186843,-0.0571142,0
2024-12-13 15:23:33.845,0.0885344,2.12602,5.70748,0.431258,0.191119,-0.0601685,0
2024-12-13 15:23:33.847,0.0741775,2.15713,5.61177,0.421485,0.19906,-0.062001,0
2024-12-13 15:23:33.849,0.081356,2.19063,5.5352,0.409268,0.205779,-0.062001,0
2024-12-13 15:23:33.852,0.287438,2.09013,5.58305,0.395829,0.208223,-0.0693312,0
2024-12-13 15:23:33.854,0.500399,1.96301,5.70987,0.38911,0.198449,-0.0827698,0
2024-12-13 15:23:33.856,0.366401,2.04706,5.50648,0.383612,0.196616,-0.0974301,0
2024-12-13 15:23:33.859,0.167498,2.18584,5.19033,0.367043,0.22044,-0.107204,0
2024-12-13 15:23:33.861,0.0837488,2.29591,5.09223,0.351772,0.238765,-0.113312,0
2024-12-13 15:23:33.863,0.00478565,2.40359,5.0324,0.334668,0.250371,-0.117588,0
2024-12-13 15:23:33.866,-0.0646062,2.4993,4.94866,0.313288,0.262588,-0.118199,0
2024-12-13 15:23:33.868,-0.136391,2.6001,4.83619,0.291298,0.27114,-0.116366,0
2024-12-13 15:23:33.870,-0.18664,2.69103,4.70668,0.261977,0.276637,-0.113312,0
2024-12-13 15:23:33.873,-0.217747,2.74846,4.6014,0.230213,0.280913,-0.109647,0
2024-12-13 15:23:33.875,-0.234497,2.77717,4.52243,0.194173,0.282135,-0.106593,0
2024-12-13 15:23:33.878,-0.215354,2.78913,4.4674,0.155079,0.279081,-0.103539,0
2024-12-13 15:23:33.880,-0.174676,2.80588,4.44826,0.115985,0.274194,-0.101095,0
2024-12-13 15:23:33.882,-0.153141,2.84417,4.4339,0.0768904,0.27114,-0.100484,0
2024-12-13 15:23:33.885,-0.133998,2.88006,4.4339,0.038407,0.269918,-0.101706,0
2024-12-13 15:23:33.887,-0.107677,2.91117,4.46979,-0.00313059,0.26381,-0.102928,0
2024-12-13 15:23:33.889,-0.0861416,2.95902,4.54397,-0.0403923,0.258312,-0.105371,0
2024-12-13 15:23:33.892,-0.0598206,2.99252,4.64686,-0.0758214,0.251593,-0.109647,0
2024-12-13 15:23:33.894,-0.0382852,3.03081,4.7689,-0.110029,0.243652,-0.115756,0
2024-12-13 15:23:33.896,-0.00239282,3.04756,4.89601,-0.143625,0.230213,-0.120642,0
2024-12-13 15:23:33.899,0.026321,3.0667,5.04198,-0.173557,0.22044,-0.129194,0
2024-12-13 15:23:33.901,0.0478565,3.11725,5.2023,-0.199823,0.20639,-0.135914,0
2024-12-13 15:23:33.903,0.0502493,3.14118,5.37009,-0.220592,0.196006,-0.142022,0
2024-12-13 15:23:33.908,0.0478565,3.1675,5.72662,-0.259686,0.174015,-0.156682,0
2024-12-13 15:23:33.908,0.0358923,3.20818,5.72662,-0.259686,0.174015,-0.156682,0
2024-12-13 15:23:33.911,0.00717847,3.24646,5.87498,-0.271293,0.165463,-0.16218,0
2024-12-13 15:23:33.913,-0.00239282,3.28475,5.99731,-0.282288,0.159355,-0.167678,0
2024-12-13 15:23:33.915,-0.0119641,3.31346,6.14088,-0.292061,0.153246,-0.171953,0
2024-12-13 15:23:33.918,-0.0191426,3.34218,6.26531,-0.296948,0.147749,-0.178062,0
2024-12-13 15:23:33.921,-0.00478565,3.35892,6.36581,-0.307333,0.13431,-0.18356,0
2024-12-13 15:23:33.922,0.026321,3.36371,6.47139,-0.307333,0.13431,-0.18356,0
2024-12-13 15:23:33.925,0.0526421,3.36132,6.55514,-0.312219,0.124536,-0.186614,0
2024-12-13 15:23:33.927,0.0598206,3.35414,6.62931,-0.318328,0.11293,-0.189057,0
2024-12-13 15:23:33.929,0.0646062,3.37089,6.70349,-0.323825,0.0976592,-0.192722,0
2024-12-13 15:23:33.932,0.066999,3.39003,6.77049,-0.329323,0.0817772,-0.196387,0
2024-12-13 15:23:33.934,0.066999,3.41396,6.85663,-0.334821,0.0628409,-0.198831,0
2024-12-13 15:23:33.936,0.0741775,3.44507,6.9667,-0.339707,0.0408504,-0.201274,0
2024-12-13 15:23:33.939,0.0693919,3.45703,7.07468,-0.343983,0.0158057,-0.201274,0
2024-12-13 15:23:33.941,0.0622134,3.47617,7.17039,-0.349481,-0.00740652,-0.201274,0
2024-12-13 15:23:33.946,0.0693919,3.54078,7.39053,-0.354979,-0.0562743,-0.203107,0
2024-12-13 15:23:33.946,0.0693919,3.54078,7.39053,-0.354979,-0.0562743,-0.203107,0
2024-12-13 15:23:33.948,0.0765703,3.56471,7.5006,-0.358644,-0.0819299,-0.203107,0
2024-12-13 15:23:33.951,0.0789631,3.60299,7.62054,-0.358644,-0.105753,-0.206772,0
2024-12-13 15:23:33.953,0.0789631,3.63889,7.77368,-0.355589,-0.130798,-0.210437,0
2024-12-13 15:23:33.955,0.0909273,3.66551,7.92443,-0.353146,-0.157675,-0.213491,0
2024-12-13 15:23:33.958,0.122034,3.67508,8.06321,-0.34887,-0.184552,-0.217156,0
2024-12-13 15:23:33.960,0.143569,3.699,8.2023,-0.340929,-0.210819,-0.222654,0
2024-12-13 15:23:33.962,0.145962,3.72533,8.35783,-0.333599,-0.240139,-0.228762,0
2024-12-13 15:23:33.965,0.143569,3.74686,8.53251,-0.325047,-0.267627,-0.23426,0
2024-12-13 15:23:33.967,0.129212,3.78036,8.69043,-0.312219,-0.295726,-0.24159,0
2024-12-13 15:23:33.969,0.102891,3.80668,8.87259,-0.300613,-0.323215,-0.247699,0
2024-12-13 15:23:33.972,0.0837488,3.83779,9.06401,-0.287785,-0.350703,-0.253807,0
2024-12-13 15:23:33.974,0.0502493,3.87368,9.22433,-0.287785,-0.350703,-0.253807,0
2024-12-13 15:23:33.979,-0.0550349,3.94068,9.5668,-0.230977,-0.433778,-0.266024,0
2024-12-13 15:23:33.979,-0.0550349,3.94068,9.5668,-0.230977,-0.433778,-0.266024,0
2024-12-13 15:23:33.981,-0.102891,3.99811,9.71755,-0.210819,-0.455768,-0.267246,0
2024-12-13 15:23:33.986,-0.217747,4.10818,9.92842,-0.170503,-0.491808,-0.273354,0
2024-12-13 15:23:33.986,-0.217747,4.10818,9.92842,-0.170503,-0.491808,-0.273354,0
2024-12-13 15:23:33.988,-0.301795,4.17039,10.0026,-0.15401,-0.509523,-0.273354,0
2024-12-13 15:23:33.991,-0.392722,4.2329,10.0552,-0.137517,-0.520518,-0.270911,0
2024-12-13 15:23:33.993,-0.490828,4.32144,10.0935,-0.123468,-0.530903,-0.269689,0
2024-12-13 15:23:33.995,-0.567398,4.41715,10.1246,-0.111861,-0.540676,-0.266635,0
2024-12-13 15:23:33.998,-0.65354,4.47458,10.1486,-0.106364,-0.548006,-0.262359,0
2024-12-13 15:23:34.000,-0.739681,4.5344,10.1462,-0.105142,-0.555337,-0.256861,0
2024-12-13 15:23:34.002,-0.811466,4.62772,10.127,-0.108807,-0.560834,-0.250753,0
2024-12-13 15:23:34.005,-0.895514,4.73061,10.1127,-0.118581,-0.564499,-0.240979,0
2024-12-13 15:23:34.007,-0.967299,4.84098,10.1079,-0.135684,-0.570608,-0.233649,0
2024-12-13 15:23:34.009,-1.01994,4.94148,10.127,-0.160118,-0.577327,-0.226319,0
2024-12-13 15:23:34.012,-1.05105,5.04915,10.1797,-0.19005,-0.588933,-0.2196,0
2024-12-13 15:23:34.014,-1.05344,5.14965,10.261,-0.224257,-0.606037,-0.214102,0
2024-12-13 15:23:34.017,-1.0319,5.22144,10.3834,-0.263352,-0.628638,-0.209826,0
2024-12-13 15:23:34.019,-0.979263,5.26929,10.5293,-0.307333,-0.654905,-0.209826,0
2024-12-13 15:23:34.021,-0.878764,5.29562,10.7112,-0.354368,-0.684836,-0.211048,0
2024-12-13 15:23:34.024,-0.727717,5.29801,10.9385,-0.403236,-0.720265,-0.216545,0
2024-12-13 15:23:34.026,-0.548256,5.27887,11.19,-0.453325,-0.753251,-0.22693,0
2024-12-13 15:23:34.028,-0.344866,5.24058,11.4772,-0.505247,-0.789291,-0.24159,0
2024-12-13 15:23:34.031,-0.122034,5.17358,11.7838,-0.560223,-0.828996,-0.258694,0
2024-12-13 15:23:34.033,0.100499,5.07787,12.1286,-0.613978,-0.866258,-0.280684,0
2024-12-13 15:23:34.035,0.332901,4.9678,12.5115,-0.673841,-0.898022,-0.306951,0
2024-12-13 15:23:34.038,0.565005,4.86251,12.8851,-0.728817,-0.926121,-0.333828,0
2024-12-13 15:23:34.040,0.749253,4.76172,13.2586,-0.782572,-0.944446,-0.361927,0
2024-12-13 15:23:34.042,0.8668,4.70668,13.6295,-0.838159,-0.951776,-0.391248,0
2024-12-13 15:23:34.047,0.797109,4.85055,14.1993,-0.890692,-0.943835,-0.41446,0
2024-12-13 15:23:34.050,0.926621,4.81705,14.7189,-0.998201,-0.891303,-0.446835,0
2024-12-13 15:23:34.051,0.926621,4.81705,14.7189,-1.04829,-0.86076,-0.462106,0
2024-12-13 15:23:34.052,1.05583,4.73779,15.2408,-1.04829,-0.86076,-0.462106,0
2024-12-13 15:23:34.054,1.18744,4.63011,15.722,-1.08861,-0.814336,-0.47921,0
2024-12-13 15:23:34.057,1.31665,4.51526,16.2033,-1.12159,-0.753862,-0.495092,0
2024-12-13 15:23:34.059,1.39801,4.41954,16.6893,-1.14603,-0.671398,-0.512195,0
2024-12-13 15:23:34.061,1.42223,4.32622,17.1443,-1.16069,-0.57977,-0.528688,0
2024-12-13 15:23:34.064,1.40548,4.21615,17.5606,-1.17046,-0.480202,-0.546403,0
2024-12-13 15:23:34.066,1.34536,4.12014,17.9438,-1.16985,-0.373304,-0.564728,0
2024-12-13 15:23:34.068,1.25444,4.034,18.2647,-1.16435,-0.265795,-0.58061,0
2024-12-13 15:23:34.071,1.11805,3.94068,18.5255,-1.15458,-0.161951,-0.592216,0
2024-12-13 15:23:34.073,0.967299,3.83061,18.7481,-1.13992,-0.0642153,-0.600157,0
2024-12-13 15:23:34.075,0.801895,3.7325,18.9015,-1.12037,0.0292443,-0.604433,0
2024-12-13 15:23:34.078,0.63679,3.61496,19.0116,-1.10143,0.111098,-0.606266,0
2024-12-13 15:23:34.080,0.471685,3.48574,19.0834,-1.08067,0.183789,-0.60199,0
2024-12-13 15:23:34.082,0.27996,3.37328,19.0786,-1.05684,0.249149,-0.592827,1
2024-12-13 15:23:34.085,0.119641,3.24885,19.0451,-1.03485,0.304736,-0.581221,0
2024-12-13 15:23:34.087,-0.0215354,3.12204,19.0116,-1.01408,0.352993,-0.562285,0
2024-12-13 15:23:34.090,-0.172283,2.9997,18.9374,-0.992092,0.392698,-0.540905,0
2024-12-13 15:23:34.092,-0.287438,2.87767,18.868,-0.975599,0.425684,-0.514028,0
2024-12-13 15:23:34.094,-0.371187,2.74367,18.8393,-0.952387,0.44462,-0.484096,0
2024-12-13 15:23:34.097,-0.464507,2.63121,18.8034,-0.929786,0.461113,-0.454165,0
2024-12-13 15:23:34.099,-0.56022,2.54985,18.7457,-0.906574,0.478217,-0.416292,0
2024-12-13 15:23:34.101,-0.663111,2.4993,18.705,-0.880918,0.492877,-0.380252,0
2024-12-13 15:23:34.104,-0.744467,2.47059,18.6859,-0.848543,0.508759,-0.338715,0
2024-12-13 15:23:34.108,-0.85005,2.41795,18.626,-0.776463,0.542967,-0.251364,0
2024-12-13 15:23:34.108,-0.85005,2.41795,18.626,-0.776463,0.542967,-0.251364,0
2024-12-13 15:23:34.111,-0.895514,2.40598,18.5806,-0.734315,0.563736,-0.206161,0
2024-12-13 15:23:34.114,-0.931406,2.40598,18.516,-0.637801,0.618101,-0.115756,0
2024-12-13 15:23:34.115,-0.962513,2.38445,18.4179,-0.637801,0.618101,-0.115756,0
2024-12-13 15:23:34.118,-0.97687,2.36531,18.3126,-0.585268,0.646811,-0.0717745,0
2024-12-13 15:23:34.123,-1.01755,2.31745,18.0299,-0.465542,0.702474,0.0149658,0
2024-12-13 15:23:34.125,-1.0343,2.29831,17.8481,-0.405068,0.728741,0.0565034,0
2024-12-13 15:23:34.125,-1.0343,2.29831,17.8481,-0.405068,0.728741,0.0565034,0
2024-12-13 15:23:34.127,-1.07258,2.27677,17.642,-0.338486,0.755618,0.0986518,0
2024-12-13 15:23:34.130,-1.10848,2.26481,17.4218,-0.271293,0.783106,0.139655,0
2024-12-13 15:23:34.132,-1.13958,2.25284,17.228,-0.203488,0.806318,0.179971,0
2024-12-13 15:23:34.134,-1.17787,2.24806,17.0243,-0.130187,0.824644,0.220898,0
2024-12-13 15:23:34.137,-1.21615,2.25045,16.742,-0.0581068,0.84358,0.259992,0
2024-12-13 15:23:34.139,-1.23051,2.22891,16.3875,0.0151948,0.861295,0.301529,0
2024-12-13 15:23:34.141,-1.23051,2.20738,16.0191,0.0878856,0.874122,0.341235,0
2024-12-13 15:23:34.144,-1.25683,2.21216,15.6622,0.158133,0.882674,0.379718,0
2024-12-13 15:23:34.146,-1.29033,2.20259,15.2743,0.226548,0.887561,0.41759,0
2024-12-13 15:23:34.148,-1.30708,2.19541,14.8624,0.293741,0.883285,0.459128,0
2024-12-13 15:23:34.151,-1.31904,2.2002,14.4341,0.356658,0.874122,0.495168,0
2024-12-13 15:23:34.153,-1.32861,2.20738,14.0031,0.415376,0.857019,0.533651,0
2024-12-13 15:23:34.155,-1.32383,2.20977,13.596,0.467909,0.835639,0.570302,0
2024-12-13 15:23:34.158,-1.31665,2.20499,13.177,0.518609,0.806929,0.605121,0
2024-12-13 15:23:34.160,-1.30229,2.2002,12.763,0.565034,0.773333,0.639939,0
2024-12-13 15:23:34.163,-1.12522,2.09252,12.4852,0.607793,0.733628,0.66987,0
2024-12-13 15:23:34.165,-0.869193,1.9343,12.3607,0.652996,0.673077,0.690639,0
2024-12-13 15:23:34.167,-0.931406,1.94387,11.9489,0.697588,0.620544,0.703467,0
2024-12-13 15:23:34.170,-1.07498,2.04945,11.4221,0.733628,0.585726,0.727901,0
2024-12-13 15:23:34.172,-1.08215,2.14038,11.1709,0.766613,0.544799,0.752335,0
2024-12-13 15:23:34.174,-1.1348,2.24088,10.9098,0.797767,0.498375,0.773714,0
2024-12-13 15:23:34.177,-1.1994,2.34856,10.5891,0.823422,0.450118,0.79937,0
2024-12-13 15:23:34.179,-1.24965,2.43948,10.261,0.848467,0.396974,0.82808,0
2024-12-13 15:23:34.181,-1.25922,2.5017,9.94756,0.863127,0.344442,0.858011,0
2024-12-13 15:23:34.184,-1.22572,2.54507,9.67687,0.874733,0.291909,0.886721,0
2024-12-13 15:23:34.186,-1.1683,2.57378,9.39691,0.883285,0.240597,0.911766,0
2024-12-13 15:23:34.188,-1.07498,2.59292,9.14776,0.888783,0.190508,0.936811,0
2024-12-13 15:23:34.191,-0.986441,2.60489,8.92044,0.890004,0.139197,0.959412,0
2024-12-13 15:23:34.193,-0.876371,2.60249,8.7338,0.889394,0.090329,0.980181,0
2024-12-13 15:23:34.196,-0.71336,2.57617,8.61865,0.886339,0.0390179,0.996063,0
2024-12-13 15:23:34.198,-0.605683,2.57139,8.48226,0.881453,-0.0141258,1.00828,0
2024-12-13 15:23:34.200,-0.52672,2.58096,8.33151,0.875955,-0.0623828,1.01927,0
2024-12-13 15:23:34.203,-0.409472,2.5666,8.2358,0.871068,-0.10331,1.02966,0
2024-12-13 15:23:34.205,-0.277567,2.54746,8.19273,0.86496,-0.147291,1.03577,0
2024-12-13 15:23:34.207,-0.162712,2.54985,8.13021,0.860073,-0.186996,1.04065,0
2024-12-13 15:23:34.210,-0.040678,2.54507,8.05843,0.855186,-0.219371,1.04432,0
2024-12-13 15:23:34.212,0.0981057,2.52832,8.02254,0.848467,-0.247469,1.04676,0
2024-12-13 15:23:34.214,0.239282,2.50887,7.98904,0.842358,-0.267627,1.04798,0
2024-12-13 15:23:34.217,0.392722,2.49212,7.95554,0.836861,-0.283509,1.04737,0
2024-12-13 15:23:34.219,0.519542,2.48495,7.91007,0.831363,-0.293283,1.0431,0
2024-12-13 15:23:34.221,0.63679,2.49212,7.84307,0.824644,-0.289618,1.03638,0
2024-12-13 15:23:34.224,0.773181,2.49691,7.80718,0.819146,-0.281677,1.02905,0
2024-12-13 15:23:34.226,0.909871,2.49691,7.78565,0.811816,-0.271903,1.02233,0
2024-12-13 15:23:34.229,1.05105,2.51366,7.71625,0.803875,-0.2548,1.01317,0
2024-12-13 15:23:34.231,1.1683,2.55942,7.63968,0.797767,-0.234642,1.00278,0
2024-12-13 15:23:34.233,1.27837,2.60967,7.58465,0.790436,-0.213873,0.989954,0
2024-12-13 15:23:34.236,1.39801,2.64078,7.52214,0.779441,-0.191882,0.971629,0
2024-12-13 15:23:34.238,1.50598,2.67667,7.43839,0.7715,-0.167449,0.953914,0
2024-12-13 15:23:34.240,1.6017,2.71017,7.3355,0.757451,-0.140571,0.931924,0
2024-12-13 15:23:34.243,1.71177,2.71496,7.25175,0.745234,-0.113694,0.906268,0
2024-12-13 15:23:34.245,1.82662,2.72453,7.16561,0.730573,-0.0868167,0.881223,0
2024-12-13 15:23:34.247,1.92473,2.75324,7.04597,0.71347,-0.0623828,0.851903,0
2024-12-13 15:23:34.250,2.00638,2.77717,6.90688,0.693922,-0.0355055,0.820139,0
2024-12-13 15:23:34.252,2.09492,2.78435,6.78724,0.674986,-0.00618483,0.788986,0
2024-12-13 15:23:34.254,2.15234,2.81067,6.65564,0.654217,0.0243575,0.753556,0
2024-12-13 15:23:34.257,2.18345,2.85613,6.51207,0.626729,0.0518457,0.71996,0
2024-12-13 15:23:34.259,2.21934,2.87767,6.39452,0.598019,0.0787229,0.681476,0
2024-12-13 15:23:34.261,2.23849,2.88485,6.30359,0.565034,0.102546,0.644826,0
2024-12-13 15:23:34.264,2.22413,2.9016,6.2007,0.53327,0.121482,0.607564,0
2024-12-13 15:23:34.266,2.20738,2.92074,6.10499,0.503338,0.137975,0.571524,0
2024-12-13 15:23:34.269,2.19781,2.94706,6.01885,0.466076,0.15569,0.534262,0
2024-12-13 15:23:34.271,2.15474,2.98056,5.92792,0.428815,0.174626,0.498222,0
2024-12-13 15:23:34.273,2.11167,2.9997,5.88455,0.393996,0.193562,0.462793,0
2024-12-13 15:23:34.278,2.07099,3.00688,5.8678,0.326116,0.219218,0.392546,0
2024-12-13 15:23:34.278,2.01356,3.00927,5.85823,0.326116,0.219218,0.392546,0
2024-12-13 15:23:34.280,1.95344,3.00688,5.83909,0.290076,0.232656,0.361392,0
2024-12-13 15:23:34.283,1.89362,2.99252,5.83669,0.258312,0.244873,0.329018,0
2024-12-13 15:23:34.285,1.82901,2.98774,5.86541,0.229602,0.255869,0.299086,0
2024-12-13 15:23:34.287,1.74527,2.9997,5.89442,0.202114,0.268086,0.270376,0
2024-12-13 15:23:34.290,1.65194,3.01167,5.92074,0.178902,0.279692,0.244721,0
2024-12-13 15:23:34.292,1.54905,3.02842,5.94706,0.156911,0.287022,0.221508,0
2024-12-13 15:23:34.297,1.35254,3.06431,5.97578,0.123926,0.302904,0.17936,0
2024-12-13 15:23:34.297,1.35254,3.06431,5.97578,0.123926,0.302904,0.17936,0
2024-12-13 15:23:34.299,1.2664,3.05952,5.98535,0.106211,0.308401,0.162867,0
2024-12-13 15:23:34.302,1.18026,3.06431,5.96142,0.0915507,0.310845,0.146374,0
2024-12-13 15:23:34.304,1.11087,3.05713,5.92553,0.0775012,0.310234,0.131638,0
2024-12-13 15:23:34.306,1.0654,3.0332,5.91835,0.0603975,0.304736,0.119421,0
2024-12-13 15:23:34.309,1.02473,3.02124,5.91356,0.0475697,0.30046,0.106593,0
2024-12-13 15:23:34.311,0.981655,3.01406,5.89921,0.0322986,0.291909,0.0968193,0
2024-12-13 15:23:34.313,0.94337,3.02363,5.88216,0.0188599,0.27847,0.0846023,0
2024-12-13 15:23:34.316,0.88355,3.02602,5.87258,0.00664296,0.266253,0.0772722,0
2024-12-13 15:23:34.319,0.833001,3.01167,5.88216,-0.0190126,0.231435,0.0589468,0
2024-12-13 15:23:34.320,0.82343,3.01406,5.89681,-0.0190126,0.231435,0.0589468,0
2024-12-13 15:23:34.323,0.816252,3.02363,5.91117,-0.0342838,0.212498,0.0522274,0
2024-12-13 15:23:34.325,0.804287,3.01645,5.92074,-0.0465007,0.192341,0.0430647,0
2024-12-13 15:23:34.327,0.794716,3.00449,5.92313,-0.0623828,0.167907,0.0345129,0
2024-12-13 15:23:34.330,0.787538,2.9997,5.93749,-0.0752106,0.144694,0.025961,0
2024-12-13 15:23:34.332,0.794716,2.99731,5.98056,-0.0904818,0.122093,0.01802,0
2024-12-13 15:23:34.334,0.818644,2.99731,6.02363,-0.105142,0.0988809,0.00580305,0
2024-12-13 15:23:34.337,0.837787,2.99492,6.0691,-0.119802,0.0768904,-0.00397051,0
2024-12-13 15:23:34.339,0.84018,3.0021,6.13849,-0.135684,0.0567324,-0.0143549,0
2024-12-13 15:23:34.342,0.857229,3.00927,6.21745,-0.152788,0.0359636,-0.0247393,0
2024-12-13 15:23:34.344,0.902692,3.00927,6.30598,-0.166838,0.0151948,-0.0369563,0
2024-12-13 15:23:34.349,0.957727,3.00688,6.50489,-0.194326,-0.0177909,-0.0613902,0
2024-12-13 15:23:34.349,0.957727,3.00688,6.50489,-0.194326,-0.0177909,-0.0613902,0
2024-12-13 15:23:34.351,0.967299,3.0021,6.60539,-0.20471,-0.0306187,-0.0748288,0
2024-12-13 15:23:34.353,0.991227,3.0021,6.70589,-0.214484,-0.0452791,-0.0882674,0
2024-12-13 15:23:34.356,1.00558,2.98535,6.79681,-0.227312,-0.0550526,-0.102928,0
2024-12-13 15:23:34.358,1.00558,2.9686,6.8662,-0.235253,-0.0642153,-0.118199,0
2024-12-13 15:23:34.360,0.986441,2.94467,6.93081,-0.246248,-0.0715455,-0.131027,0
2024-12-13 15:23:34.363,0.955334,2.9327,7.0002,-0.255411,-0.0794865,-0.146298,0
2024-12-13 15:23:34.365,0.940978,2.91117,7.07946,-0.265795,-0.0837624,-0.159737,0
2024-12-13 15:23:34.367,0.924228,2.88485,7.15604,-0.277401,-0.0862058,-0.171343,0
2024-12-13 15:23:34.370,0.893121,2.8657,7.20868,-0.287785,-0.093536,-0.181727,0
2024-12-13 15:23:34.372,0.8668,2.84895,7.26611,-0.297559,-0.100866,-0.192722,0
2024-12-13 15:23:34.375,0.835394,2.8322,7.3331,-0.304278,-0.101477,-0.204328,0
2024-12-13 15:23:34.377,0.80668,2.81067,7.37617,-0.315884,-0.100866,-0.212269,0
2024-12-13 15:23:34.379,0.777966,2.78196,7.41446,-0.32688,-0.0959794,-0.218989,0
2024-12-13 15:23:34.382,0.74686,2.74846,7.49103,-0.336653,-0.0874275,-0.22693,0
2024-12-13 15:23:34.386,0.665504,2.69821,7.65883,-0.356811,-0.0648262,-0.228151,0
2024-12-13 15:23:34.386,0.665504,2.69821,7.65883,-0.356811,-0.0648262,-0.228151,0
2024-12-13 15:23:34.389,0.624826,2.66949,7.71625,-0.366585,-0.0519984,-0.227541,0
2024-12-13 15:23:34.391,0.588933,2.62403,7.8,-0.374526,-0.0403923,-0.225708,0
2024-12-13 15:23:34.393,0.555434,2.59053,7.90289,-0.380634,-0.0312296,-0.224486,0
2024-12-13 15:23:34.396,0.519542,2.58096,8.00339,-0.389186,-0.021456,-0.22021,0
2024-12-13 15:23:34.398,0.488435,2.55224,8.09911,-0.395905,-0.013515,-0.214713,0
2024-12-13 15:23:34.400,0.41665,2.57857,8.18076,-0.397738,-0.00374144,-0.209215,0
2024-12-13 15:23:34.403,0.270389,2.64078,8.13769,-0.400181,0.00908635,-0.196998,0
2024-12-13 15:23:34.405,0.241675,2.61685,8.19033,-0.407511,0.0268009,-0.182338,0
2024-12-13 15:23:34.408,0.294616,2.55942,8.4009,-0.408122,0.0347419,-0.173175,0
2024-12-13 15:23:34.410,0.22014,2.5331,8.43201,-0.407511,0.0414613,-0.162791,0
2024-12-13 15:23:34.412,0.189033,2.48973,8.44876,-0.411787,0.0536782,-0.151185,0
2024-12-13 15:23:34.415,0.215354,2.43948,8.57079,-0.409955,0.0603975,-0.138968,0
2024-12-13 15:23:34.417,0.196211,2.40359,8.6689,-0.405068,0.0683385,-0.129194,0
2024-12-13 15:23:34.419,0.193819,2.37248,8.77209,-0.400181,0.0762796,-0.117588,0
2024-12-13 15:23:34.422,0.193819,2.36291,8.86302,-0.394684,0.0836097,-0.105982,0
2024-12-13 15:23:34.424,0.189033,2.35573,8.94198,-0.394684,0.0836097,-0.105982,0
2024-12-13 15:23:34.426,0.172283,2.35095,9.01376,-0.374526,0.104379,-0.0833807,0
2024-12-13 15:23:34.429,0.150748,2.34138,9.06641,-0.362309,0.116595,-0.0693312,0
2024-12-13 15:23:34.431,0.138784,2.33898,9.11665,-0.350092,0.127591,-0.0571142,0
2024-12-13 15:23:34.433,0.119641,2.32941,9.1669,-0.338486,0.137364,-0.0436756,0
2024-12-13 15:23:34.436,0.112463,2.31984,9.22433,-0.322604,0.14836,-0.0271827,0
2024-12-13 15:23:34.438,0.112463,2.32223,9.27966,-0.307943,0.159355,-0.0106898,0
2024-12-13 15:23:34.440,0.11007,2.30309,9.30838,-0.292672,0.167907,0.0051922,0
2024-12-13 15:23:34.443,0.11007,2.28156,9.33949,-0.274958,0.179513,0.0229068,0
2024-12-13 15:23:34.445,0.117248,2.27916,9.37538,-0.258465,0.189897,0.0387888,0
2024-12-13 15:23:34.448,0.131605,2.27677,9.39691,-0.240139,0.19906,0.0534491,0
2024-12-13 15:23:34.450,0.131605,2.27438,9.41366,-0.219371,0.207612,0.0687203,0
2024-12-13 15:23:34.452,0.129212,2.27199,9.42323,-0.198602,0.219218,0.0833807,0
2024-12-13 15:23:34.455,0.124427,2.27438,9.42563,-0.178444,0.229602,0.0998735,0
2024-12-13 15:23:34.457,0.117248,2.28634,9.41606,-0.153399,0.241208,0.115145,0
2024-12-13 15:23:34.459,0.107677,2.29831,9.38256,-0.130187,0.250982,0.131027,0
2024-12-13 15:23:34.462,0.0933201,2.31506,9.34906,-0.111251,0.260145,0.147596,0
2024-12-13 15:23:34.464,0.0909273,2.33659,9.31077,-0.0892601,0.269918,0.162867,0
2024-12-13 15:23:34.466,0.114855,2.36291,9.24108,-0.0697129,0.27847,0.178749,0
2024-12-13 15:23:34.469,0.157926,2.37727,9.17169,-0.049555,0.287633,0.19341,0
2024-12-13 15:23:34.471,0.18664,2.38684,9.11187,-0.0318404,0.292519,0.205626,0
2024-12-13 15:23:34.476,0.244068,2.42034,8.98744,0.00542127,0.305347,0.231282,0
2024-12-13 15:23:34.476,0.244068,2.42034,8.98744,0.00542127,0.305347,0.231282,0
2024-12-13 15:23:34.478,0.277567,2.44905,8.90609,0.0237467,0.309623,0.243499,0
2024-12-13 15:23:34.481,0.332901,2.47298,8.81277,0.0390179,0.315732,0.253273,0
2024-12-13 15:23:34.483,0.378365,2.48495,8.72184,0.0524565,0.320618,0.261824,0
2024-12-13 15:23:34.485,0.414257,2.50887,8.64497,0.0671168,0.324894,0.269155,0
2024-12-13 15:23:34.488,0.447757,2.54507,8.57797,0.0811663,0.324894,0.275263,0
2024-12-13 15:23:34.490,0.462114,2.59053,8.51576,0.0970484,0.327949,0.28015,0
2024-12-13 15:23:34.492,0.481256,2.64078,8.44397,0.109265,0.331614,0.284426,0
2024-12-13 15:23:34.495,0.500399,2.68385,8.36262,0.122093,0.334668,0.289923,0
2024-12-13 15:23:34.497,0.521934,2.72692,8.28365,0.122093,0.334668,0.289923,0
2024-12-13 15:23:34.499,0.553041,2.76999,8.21426,0.144084,0.343831,0.298475,0
2024-12-13 15:23:34.502,0.596112,2.80349,8.13769,0.154468,0.346274,0.299697,0
2024-12-13 15:23:34.504,0.627219,2.83938,8.07518,0.164852,0.349939,0.301529,0
2024-12-13 15:23:34.506,0.658325,2.85853,8.02254,0.174626,0.353604,0.300919,0
2024-12-13 15:23:34.509,0.689432,2.86331,7.934,0.182567,0.355437,0.300308,0
2024-12-13 15:23:34.511,0.710967,2.88724,7.85743,0.186843,0.356048,0.298475,0
2024-12-13 15:23:34.516,0.775574,2.92792,7.69233,0.195395,0.355437,0.291756,0
2024-12-13 15:23:34.516,0.775574,2.92792,7.69233,0.195395,0.355437,0.291756,0
2024-12-13 15:23:34.518,0.828216,2.96142,7.61815,0.197838,0.351161,0.288091,0
2024-12-13 15:23:34.521,0.871586,2.9662,7.53649,0.197227,0.346274,0.282593,0
2024-12-13 15:23:34.523,0.917049,2.97577,7.45275,0.196616,0.341998,0.277096,0
2024-12-13 15:23:34.525,0.94337,2.9997,7.37617,0.191119,0.333446,0.268544,0
2024-12-13 15:23:34.528,0.962513,3.01884,7.32832,0.186843,0.325505,0.261824,0
2024-12-13 15:23:34.530,0.986441,3.0332,7.30678,0.181956,0.315121,0.253883,0
2024-12-13 15:23:34.535,1.0008,3.05952,7.28046,0.164852,0.290687,0.234947,0
2024-12-13 15:23:34.535,1.01994,3.09571,7.28286,0.164852,0.290687,0.234947,0
2024-12-13 15:23:34.537,1.02712,3.10768,7.30439,0.159966,0.279081,0.226395,0
2024-12-13 15:23:34.539,1.04148,3.11964,7.33789,0.154468,0.269918,0.2154,0
2024-12-13 15:23:34.542,1.07737,3.13879,7.4025,0.150192,0.261366,0.206848,0
2024-12-13 15:23:34.544,1.0989,3.14836,7.48146,0.150192,0.255258,0.196464,0
2024-12-13 15:23:34.546,1.1013,3.15314,7.57239,0.151414,0.250982,0.18669,0
2024-12-13 15:23:34.549,1.10369,3.16511,7.67318,0.156911,0.248538,0.176306,0
2024-12-13 15:23:34.551,1.10369,3.16271,7.78325,0.167296,0.247928,0.167143,0
2024-12-13 15:23:34.554,1.09412,3.15793,7.89811,0.180734,0.247928,0.156759,0
2024-12-13 15:23:34.556,1.08455,3.14118,7.97468,0.198449,0.255258,0.146985,0
2024-12-13 15:23:34.558,1.07258,3.13879,8.03689,0.218607,0.260755,0.138433,0
2024-12-13 15:23:34.561,1.03908,3.14118,8.11107,0.241819,0.268696,0.131638,0
2024-12-13 15:23:34.563,1.00798,3.134,8.15444,0.266864,0.279081,0.122475,0
2024-12-13 15:23:34.565,0.998405,3.11486,8.15683,0.293741,0.290076,0.115756,0
2024-12-13 15:23:34.568,0.986441,3.1005,8.11825,0.320618,0.304126,0.108425,0
2024-12-13 15:23:34.570,0.969691,3.08584,8.05125,0.35055,0.315121,0.102317,0
2024-12-13 15:23:34.572,0.948156,3.05713,7.97468,0.375671,0.324284,0.0968193,0
2024-12-13 15:23:34.575,0.919442,3.0332,7.87897,0.399494,0.332835,0.0913217,0
2024-12-13 15:23:34.577,0.873978,3.02363,7.78804,0.420874,0.337111,0.0876566,0
2024-12-13 15:23:34.579,0.825823,3.0332,7.69233,0.444697,0.338944,0.0864349,0
2024-12-13 15:23:34.582,0.775574,3.04517,7.58226,0.444697,0.338944,0.0864349,0
2024-12-13 15:23:34.587,0.687039,3.06909,7.41685,0.49723,0.323062,0.077883,0
2024-12-13 15:23:34.587,0.687039,3.06909,7.41685,0.49723,0.323062,0.077883,0
2024-12-13 15:23:34.589,0.663111,3.07867,7.32593,0.51189,0.313288,0.0760505,0
2024-12-13 15:23:34.591,0.655932,3.08345,7.22543,0.522885,0.299239,0.0729962,0
2024-12-13 15:23:34.594,0.648754,3.08345,7.13929,0.535102,0.285189,0.0705529,0
2024-12-13 15:23:34.596,0.639183,3.09332,7.06989,0.544876,0.268696,0.0687203,0
2024-12-13 15:23:34.598,0.63679,3.09811,7.01486,0.553428,0.247317,0.0632227,0
2024-12-13 15:23:34.601,0.617647,3.11007,6.97867,0.557093,0.226548,0.0558925,0
2024-12-13 15:23:34.603,0.591326,3.13879,6.95235,0.561979,0.203336,0.0497841,0
2024-12-13 15:23:34.605,0.557827,3.16989,6.94038,0.563201,0.175237,0.0424539,0
2024-12-13 15:23:34.608,0.536291,3.201,6.93799,0.566866,0.149581,0.033902,0
2024-12-13 15:23:34.612,0.52672,3.2656,6.90928,0.565034,0.0994917,0.0143549,0
2024-12-13 15:23:34.612,0.52672,3.2656,6.90928,0.565034,0.0994917,0.0143549,0
2024-12-13 15:23:34.615,0.512363,3.30628,6.92124,0.561369,0.0781121,-0.000916271,0
2024-12-13 15:23:34.617,0.478864,3.3326,6.96192,0.557704,0.0579541,-0.0125224,0
2024-12-13 15:23:34.619,0.445364,3.35175,7.04357,0.549763,0.0353528,-0.025961,0
2024-12-13 15:23:34.622,0.431007,3.36371,7.15604,0.544876,0.0170274,-0.038178,0
2024-12-13 15:23:34.627,0.3999,3.34935,7.4336,0.538767,-0.000687203,-0.0681095,0
2024-12-13 15:23:34.629,0.385544,3.335,7.61576,0.532048,-0.0281753,-0.0803264,0
2024-12-13 15:23:34.629,0.385544,3.335,7.61576,0.532048,-0.0281753,-0.0803264,0
2024-12-13 15:23:34.631,0.366401,3.31107,7.8335,0.53327,-0.0348946,-0.0919325,0
2024-12-13 15:23:34.636,0.332901,3.27757,8.19512,0.543043,-0.0263428,-0.114534,0
2024-12-13 15:23:34.636,0.332901,3.27757,8.19512,0.543043,-0.0263428,-0.114534,0
2024-12-13 15:23:34.638,0.294616,3.27278,8.34587,0.554649,-0.00984991,-0.123086,0
2024-12-13 15:23:34.641,0.234497,3.27757,8.46551,0.566255,0.010308,-0.127972,0
2024-12-13 15:23:34.643,0.153141,3.29193,8.54926,0.575418,0.038407,-0.13347,0
2024-12-13 15:23:34.645,0.0502493,3.335,8.59472,0.587024,0.0713928,-0.13347,0
2024-12-13 15:23:34.648,-0.0646062,3.40917,8.60908,0.596187,0.1056,-0.135303,0
2024-12-13 15:23:34.650,-0.196211,3.51924,8.59951,0.600463,0.139197,-0.134692,0
2024-12-13 15:23:34.652,-0.35683,3.66072,8.5684,0.604739,0.172793,-0.132859,0
2024-12-13 15:23:34.655,-0.553041,3.79711,8.51815,0.604739,0.202725,-0.128583,0
2024-12-13 15:23:34.657,-0.768395,3.91914,8.47269,0.602295,0.226548,-0.123697,0
2024-12-13 15:23:34.660,-0.97687,4.034,8.42722,0.596187,0.239987,-0.117588,0
2024-12-13 15:23:34.662,-1.16351,4.101,8.42004,0.579083,0.238154,-0.109647,0
2024-12-13 15:23:34.664,-1.32622,4.12732,8.47029,0.558925,0.218607,-0.10476,0
2024-12-13 15:23:34.667,-1.48684,4.14646,8.52533,0.532659,0.181956,-0.0943759,0
2024-12-13 15:23:34.669,-1.60648,4.13928,8.60668,0.505171,0.134921,-0.0846023,0
2024-12-13 15:23:34.671,-1.67587,4.11057,8.71945,0.466687,0.0829989,-0.0742179,0
2024-12-13 15:23:34.674,-1.75244,4.07707,8.91326,0.428204,0.0219141,-0.0613902,0
2024-12-13 15:23:34.676,-1.83859,4.05793,9.19083,0.390942,-0.0489441,-0.0467298,0
2024-12-13 15:23:34.678,-1.92233,4.0675,9.5022,0.349328,-0.128354,-0.033902,0
2024-12-13 15:23:34.681,-1.98006,4.09621,9.82553,0.310845,-0.215705,-0.0229068,0
2024-12-13 15:23:34.683,-2.00877,4.13928,10.1797,0.277859,-0.307943,-0.0106898,0
2024-12-13 15:23:34.685,-2.01117,4.15843,10.6202,0.243041,-0.409955,0.000916271,0
2024-12-13 15:23:34.688,-1.98006,4.17039,11.0895,0.211888,-0.515021,0.0106898,0
2024-12-13 15:23:34.690,-1.90558,4.16561,11.5373,0.185621,-0.623141,0.0198525,0
2024-12-13 15:23:34.693,-1.78116,4.12253,11.9919,0.158744,-0.728817,0.0253502,0
2024-12-13 15:23:34.695,-1.60648,4.0675,12.4421,0.136753,-0.832661,0.0308478,0
2024-12-13 15:23:34.697,-1.37408,3.99811,12.8587,0.117817,-0.92551,0.0345129,0
2024-12-13 15:23:34.700,-1.11805,3.91436,13.2491,0.0970484,-1.01164,0.0320695,0
2024-12-13 15:23:34.702,-0.8668,3.83779,13.6176,0.0768904,-1.08555,0.0247393,0
2024-12-13 15:23:34.704,-0.622433,3.78993,13.9887,0.0561216,-1.14847,0.0174091,0
2024-12-13 15:23:34.707,-0.383151,3.75883,14.3719,0.0335202,-1.19917,0.00458135,0
2024-12-13 15:23:34.709,-0.143569,3.73729,14.7691,0.00908635,-1.24071,-0.00946813,0
2024-12-13 15:23:34.711,0.0981057,3.71336,15.1786,-0.0104608,-1.26453,-0.0247393,0
2024-12-13 15:23:34.714,0.325723,3.68704,15.5857,-0.0300079,-1.27247,-0.0436756,0
2024-12-13 15:23:34.716,0.52672,3.68704,15.9876,-0.0477224,-1.26331,-0.0638335,0
2024-12-13 15:23:34.718,0.675075,3.7014,16.3828,-0.0611611,-1.23154,-0.0864349,0
2024-12-13 15:23:34.721,0.775574,3.73729,16.7492,-0.0721563,-1.1839,-0.109036,0
2024-12-13 15:23:34.723,0.837787,3.77557,17.053,-0.0764323,-1.11487,-0.134692,0
2024-12-13 15:23:34.725,0.890728,3.82104,17.3237,-0.0819299,-1.0318,-0.156682,0
2024-12-13 15:23:34.728,0.919442,3.88804,17.5511,-0.0825407,-0.942614,-0.182338,0
2024-12-13 15:23:34.730,0.924228,3.94068,17.7093,-0.085595,-0.843656,-0.206772,0
2024-12-13 15:23:34.733,0.924228,3.98854,17.7763,-0.0910926,-0.742867,-0.232427,1
2024-12-13 15:23:34.735,0.912264,4.03639,17.7619,-0.0953685,-0.648796,-0.259305,0
2024-12-13 15:23:34.737,0.878764,4.05075,17.6877,-0.11064,-0.562667,-0.28496,0
2024-12-13 15:23:34.740,0.82343,4.04118,17.5774,-0.127743,-0.486311,-0.316113,0
2024-12-13 15:23:34.742,0.775574,4.01246,17.4434,-0.152177,-0.422783,-0.344212,0
2024-12-13 15:23:34.744,0.73011,3.97418,17.2807,-0.183941,-0.376358,-0.373533,0
2024-12-13 15:23:34.747,0.694218,3.92632,17.1251,-0.224257,-0.344594,-0.402243,0
2024-12-13 15:23:34.749,0.684646,3.84257,17.01,-0.271293,-0.323215,-0.432785,0
2024-12-13 15:23:34.751,0.689432,3.7325,16.9406,-0.317717,-0.310998,-0.461495,0
2024-12-13 15:23:34.754,0.701396,3.62453,16.931,-0.369028,-0.306111,-0.489594,0
2024-12-13 15:23:34.756,0.720539,3.50728,16.9741,-0.419728,-0.307333,-0.513417,0
2024-12-13 15:23:34.758,0.732503,3.3996,17.0507,-0.466153,-0.303667,-0.534186,0
2024-12-13 15:23:34.761,0.744467,3.29432,17.1538,-0.508301,-0.301224,-0.553733,0
2024-12-13 15:23:34.763,0.780359,3.18186,17.2543,-0.546174,-0.295116,-0.572669,0
2024-12-13 15:23:34.766,0.809073,3.09093,17.3979,-0.578549,-0.282899,-0.586719,0
2024-12-13 15:23:34.768,0.804287,3.01645,17.5534,-0.598707,-0.265184,-0.597714,0
2024-12-13 15:23:34.770,0.785145,2.94945,17.6683,-0.617643,-0.240139,-0.608098,0
2024-12-13 15:23:34.773,0.766002,2.87288,17.7787,-0.627416,-0.209597,-0.617261,0
2024-12-13 15:23:34.775,0.773181,2.79871,17.8696,-0.632303,-0.171724,-0.625202,0
2024-12-13 15:23:34.777,0.782752,2.74128,17.9007,-0.629249,-0.128965,-0.632532,0
2024-12-13 15:23:34.780,0.749253,2.67189,17.8959,-0.623141,-0.0819299,-0.636808,0
2024-12-13 15:23:34.782,0.701396,2.60728,17.8505,-0.610313,-0.0312296,-0.641084,0
2024-12-13 15:23:34.784,0.641576,2.56899,17.75,-0.595042,0.0243575,-0.646582,0
2024-12-13 15:23:34.787,0.557827,2.52832,17.6085,-0.577327,0.0811663,-0.652079,0
2024-12-13 15:23:34.789,0.457328,2.4993,17.4434,-0.556558,0.14164,-0.655134,0
2024-12-13 15:23:34.791,0.344866,2.49452,17.2376,-0.535179,0.201503,-0.655745,0
2024-12-13 15:23:34.794,0.222533,2.47537,16.9884,-0.510134,0.263199,-0.656355,0
2024-12-13 15:23:34.796,0.081356,2.45384,16.7061,-0.483867,0.318786,-0.656966,0
2024-12-13 15:23:34.799,-0.0550349,2.45623,16.3995,-0.461877,0.37254,-0.653301,0
2024-12-13 15:23:34.801,-0.181855,2.47777,16.1076,-0.43561,0.420797,-0.648414,0
2024-12-13 15:23:34.806,-0.519542,2.53549,15.5282,-0.383078,0.50204,-0.634365,0
2024-12-13 15:23:34.806,-0.519542,2.53549,15.5282,-0.383078,0.50204,-0.634365,0
2024-12-13 15:23:34.808,-0.675075,2.55942,15.2384,-0.354979,0.535637,-0.622759,0
2024-12-13 15:23:34.810,-0.801895,2.57857,14.9297,-0.325047,0.568012,-0.607488,0
2024-12-13 15:23:34.813,-0.902692,2.58096,14.6303,-0.294505,0.602219,-0.594049,0
2024-12-13 15:23:34.815,-0.967299,2.58096,14.3169,-0.263962,0.635816,-0.575113,0
2024-12-13 15:23:34.817,-1.01755,2.58574,13.9863,-0.230977,0.668801,-0.558009,0
2024-12-13 15:23:34.820,-1.07258,2.61685,13.6463,-0.198602,0.695679,-0.540294,0
2024-12-13 15:23:34.822,-1.13001,2.64078,13.2921,-0.167449,0.723243,-0.520747,0
2024-12-13 15:23:34.824,-1.18026,2.64078,12.9521,-0.135684,0.74279,-0.5012,0
2024-12-13 15:23:34.827,-1.20897,2.66471,12.5976,-0.10392,0.763559,-0.481653,0
2024-12-13 15:23:34.829,-1.24008,2.69342,12.2411,-0.073378,0.776998,-0.462106,0
2024-12-13 15:23:34.834,-1.27597,2.75803,11.5182,-0.0184018,0.787382,-0.425455,0
2024-12-13 15:23:34.836,-1.03669,2.62403,11.403,0.00847551,0.781274,-0.413238,0
2024-12-13 15:23:34.839,-1.03669,2.62403,11.403,0.00847551,0.781274,-0.413238,0
2024-12-13 15:23:34.839,-0.885943,2.51605,11.2379,0.00847551,0.781274,-0.413238,0
2024-12-13 15:23:34.841,-1.08215,2.6001,10.6729,0.0732253,0.742179,-0.40713,0
2024-12-13 15:23:34.843,-1.23051,2.71017,10.1964,0.100103,0.745844,-0.399189,0
2024-12-13 15:23:34.846,-1.2999,2.80349,9.94278,0.122704,0.736682,-0.390637,0
2024-12-13 15:23:34.848,-1.39801,2.9351,9.62663,0.144084,0.720189,-0.379642,0
2024-12-13 15:23:34.850,-1.48684,3.05713,9.26531,0.157522,0.699344,-0.369257,0
2024-12-13 15:23:34.853,-1.5682,3.16989,8.88934,0.168517,0.676132,-0.357651,0
2024-12-13 15:23:34.855,-1.63041,3.27278,8.50619,0.17768,0.652309,-0.344212,0
2024-12-13 15:23:34.857,-1.66869,3.33739,8.17358,0.17768,0.630318,-0.328941,0
2024-12-13 15:23:34.862,-1.70937,3.44028,7.53171,0.169739,0.589391,-0.305729,0
2024-12-13 15:23:34.862,-1.70937,3.44028,7.53171,0.169739,0.589391,-0.305729,0
2024-12-13 15:23:34.864,-1.6998,3.48814,7.26132,0.162409,0.569233,-0.297177,0
2024-12-13 15:23:34.867,-1.69502,3.54317,7.0002,0.14897,0.550908,-0.288625,0
2024-12-13 15:23:34.869,-1.64477,3.58385,6.78006,0.133699,0.531972,-0.281295,0
2024-12-13 15:23:34.872,-1.60648,3.59821,6.56471,0.116595,0.512424,-0.277019,0
2024-12-13 15:23:34.874,-1.6017,3.61735,6.35863,0.0976592,0.492877,-0.2703,0
2024-12-13 15:23:34.876,-1.57537,3.61974,6.2007,0.0768904,0.472719,-0.267857,0
2024-12-13 15:23:34.879,-1.52752,3.61735,6.0691,0.0524565,0.454394,-0.264191,0
2024-12-13 15:23:34.881,-1.47966,3.61974,5.95903,0.0286335,0.435458,-0.264191,0
2024-12-13 15:23:34.883,-1.45573,3.60778,5.85823,0.00786466,0.4153,-0.267246,0
2024-12-13 15:23:34.886,-1.4653,3.62931,5.74337,-0.0141258,0.399418,-0.269078,0
2024-12-13 15:23:34.888,-1.48205,3.66551,5.64048,-0.037338,0.387812,-0.269078,0
2024-12-13 15:23:34.890,-1.47966,3.68704,5.59502,-0.0611611,0.374373,-0.269689,0
2024-12-13 15:23:34.893,-1.45334,3.69183,5.57587,-0.0831516,0.359713,-0.269689,0
2024-12-13 15:23:34.895,-1.40279,3.67508,5.5687,-0.104531,0.341387,-0.269689,0
2024-12-13 15:23:34.897,-1.35494,3.62692,5.58066,-0.126522,0.321229,-0.272743,0
2024-12-13 15:23:34.900,-1.31904,3.55514,5.60459,-0.144236,0.299239,-0.277019,0
2024-12-13 15:23:34.902,-1.29272,3.49292,5.64766,-0.160118,0.271751,-0.281906,0
2024-12-13 15:23:34.904,-1.29272,3.45464,5.71466,-0.173557,0.244873,-0.288625,0
2024-12-13 15:23:34.909,-1.33101,3.3996,5.88933,-0.194326,0.189286,-0.298399,0
2024-12-13 15:23:34.909,-1.33101,3.3996,5.88933,-0.194326,0.189286,-0.298399,0
2024-12-13 15:23:34.912,-1.37169,3.38764,5.99013,-0.198602,0.156911,-0.303897,0
2024-12-13 15:23:34.914,-1.41984,3.37567,6.08824,-0.200434,0.128202,-0.306951,0
2024-12-13 15:23:34.916,-1.47009,3.35414,6.17917,-0.200434,0.0982701,-0.307562,0
2024-12-13 15:23:34.919,-1.52513,3.335,6.2677,-0.197991,0.0671168,-0.310616,0
2024-12-13 15:23:34.921,-1.5682,3.31585,6.35384,-0.193104,0.0359636,-0.311838,0
2024-12-13 15:23:34.923,-1.59212,3.28953,6.44238,-0.188828,0.00664296,-0.310616,0
2024-12-13 15:23:34.926,-1.61366,3.2656,6.55035,-0.182109,-0.0251211,-0.309394,0
2024-12-13 15:23:34.928,-1.62802,3.22253,6.65564,-0.174779,-0.0562743,-0.308172,0
2024-12-13 15:23:34.930,-1.63759,3.17707,6.7681,-0.165616,-0.0862058,-0.30634,0
2024-12-13 15:23:34.933,-1.66152,3.14118,6.87099,-0.152788,-0.116137,-0.305118,0
2024-12-13 15:23:34.935,-1.67348,3.08854,6.97388,-0.143625,-0.143015,-0.303286,0
2024-12-13 15:23:34.938,-1.70459,3.04995,7.08186,-0.131409,-0.16867,-0.302064,0
2024-12-13 15:23:34.942,-1.74527,3.03799,7.27568,-0.102088,-0.212651,-0.294734,0
2024-12-13 15:23:34.942,-1.74527,3.03799,7.27568,-0.102088,-0.212651,-0.294734,0
2024-12-13 15:23:34.945,-1.75484,3.03559,7.36421,-0.0868167,-0.235253,-0.29229,0
2024-12-13 15:23:34.947,-1.76441,3.03081,7.4336,-0.0721563,-0.256632,-0.289236,0
2024-12-13 15:23:34.949,-1.8003,3.01884,7.49821,-0.0568851,-0.275568,-0.286182,0
2024-12-13 15:23:34.952,-1.83141,2.99492,7.57986,-0.0397814,-0.296337,-0.280073,0
2024-12-13 15:23:34.956,-1.89123,2.90638,7.73779,-0.0226777,-0.315274,-0.277019,0
2024-12-13 15:23:34.959,-1.92473,2.85853,7.79522,0.0127514,-0.343373,-0.259916,0
2024-12-13 15:23:34.959,-1.92473,2.85853,7.79522,0.0127514,-0.343373,-0.259916,0
2024-12-13 15:23:34.961,-1.94865,2.82024,7.8359,0.0286335,-0.353146,-0.251364,0
2024-12-13 15:23:34.963,-1.95583,2.81306,7.87418,0.0451263,-0.362309,-0.24159,0
2024-12-13 15:23:34.966,-1.97288,2.81067,7.89572,0.0610084,-0.367806,-0.229373,0
2024-12-13 15:23:34.968,-2.00399,2.79392,7.91247,0.074447,-0.372082,-0.218378,0
2024-12-13 15:23:34.970,-2.01835,2.77238,7.92682,0.0897182,-0.378802,-0.206772,0
2024-12-13 15:23:34.973,-2.0327,2.77238,7.91964,0.0994917,-0.38491,-0.192111,0
2024-12-13 15:23:34.975,-2.05424,2.78435,7.92682,0.108654,-0.396516,-0.178062,0
2024-12-13 15:23:34.978,-2.05902,2.78196,7.93639,0.114763,-0.410566,-0.167678,0
2024-12-13 15:23:34.980,-2.03988,2.76521,7.934,0.11965,-0.425226,-0.15485,0
2024-12-13 15:23:34.982,-2.0016,2.7676,7.94357,0.121482,-0.441719,-0.142633,0
2024-12-13 15:23:34.985,-1.9681,2.77478,7.96989,0.120871,-0.460655,-0.132248,0
2024-12-13 15:23:34.987,-1.93191,2.76999,8.01057,0.115985,-0.483257,-0.121864,0
2024-12-13 15:23:34.989,-1.89123,2.77478,8.05125,0.114152,-0.506469,-0.11209,0
2024-12-13 15:23:34.992,-1.84816,2.79392,8.11107,0.107433,-0.526627,-0.102928,0
2024-12-13 15:23:34.996,-1.78116,2.82742,8.28365,0.0915507,-0.567553,-0.0907108,0
2024-12-13 15:23:34.996,-1.78116,2.82742,8.28365,0.0915507,-0.567553,-0.0907108,0
2024-12-13 15:23:34.999,-1.72134,2.85135,8.38894,0.0842206,-0.580992,-0.0846023,0
2024-12-13 15:23:35.001,-1.6663,2.85135,8.50858,0.0775012,-0.595042,-0.0791047,0
2024-12-13 15:23:35.003,-1.60887,2.84178,8.64018,0.0713928,-0.607869,-0.0742179,0
2024-12-13 15:23:35.006,-1.54188,2.83699,8.77687,0.066506,-0.614589,-0.069942,0
2024-12-13 15:23:35.009,-1.50598,2.88724,8.9013,0.0591758,-0.628027,-0.0607793,0
2024-12-13 15:23:35.010,-1.5323,2.95424,8.87259,0.0591758,-0.628027,-0.0607793,0
2024-12-13 15:23:35.013,-1.43898,2.96381,8.9683,0.0500131,-0.627416,-0.0522274,0
2024-12-13 15:23:35.015,-1.28315,2.90878,9.19562,0.042683,-0.637801,-0.0479515,0
2024-12-13 15:23:35.018,-1.21376,2.82981,9.29881,0.0353528,-0.659181,-0.046119,0
2024-12-13 15:23:35.020,-1.12522,2.76999,9.42563,0.030466,-0.676895,-0.0485624,0
2024-12-13 15:23:35.022,-1.01515,2.70539,9.57159,0.0237467,-0.69461,-0.0558925,0
2024-12-13 15:23:35.025,-0.893121,2.64317,9.71994,0.022525,-0.708659,-0.0613902,0
2024-12-13 15:23:35.027,-0.768395,2.58814,9.89971,0.0182491,-0.717822,-0.0681095,0
2024-12-13 15:23:35.029,-0.651147,2.55942,10.1103,0.0188599,-0.726985,-0.077883,0
2024-12-13 15:23:35.032,-0.562612,2.53789,10.3089,0.0237467,-0.734926,-0.0864349,0
2024-12-13 15:23:35.034,-0.488435,2.4993,10.4886,0.0280226,-0.734926,-0.0913217,0
2024-12-13 15:23:35.037,-0.440578,2.48255,10.6681,0.038407,-0.728206,-0.102928,0
2024-12-13 15:23:35.039,-0.395115,2.4682,10.8619,0.0475697,-0.720265,-0.11209,0
2024-12-13 15:23:35.041,-0.349651,2.44427,11.0441,0.0640626,-0.707437,-0.121864,0
2024-12-13 15:23:35.043,-0.304188,2.43709,11.2116,0.0842206,-0.688501,-0.129194,0
2024-12-13 15:23:35.046,-0.260818,2.44188,11.3671,0.104989,-0.664678,-0.138357,0
2024-12-13 15:23:35.048,-0.224925,2.44188,11.4915,0.126369,-0.637801,-0.14813,0
2024-12-13 15:23:35.051,-0.18664,2.42991,11.5875,0.152025,-0.606037,-0.154239,0
2024-12-13 15:23:35.053,-0.155533,2.41077,11.6809,0.179513,-0.57244,-0.160958,0
2024-12-13 15:23:35.055,-0.129212,2.4012,11.7598,0.208833,-0.533346,-0.16951,0
2024-12-13 15:23:35.058,-0.133998,2.3988,11.7957,0.238154,-0.493641,-0.179284,0
2024-12-13 15:23:35.060,-0.155533,2.39163,11.7981,0.266864,-0.450882,-0.186614,0
2024-12-13 15:23:35.062,-0.162712,2.3677,11.7766,0.293741,-0.408733,-0.192722,0
2024-12-13 15:23:35.065,-0.174676,2.35095,11.7335,0.323062,-0.364141,-0.201274,0
2024-12-13 15:23:35.067,-0.210568,2.3677,11.6617,0.354826,-0.319549,-0.207993,0
2024-12-13 15:23:35.069,-0.272782,2.39163,11.5397,0.38178,-0.276179,-0.21288,0
2024-12-13 15:23:35.072,-0.359223,2.42752,11.3695,0.40377,-0.228533,-0.216545,0
2024-12-13 15:23:35.074,-0.462114,2.46102,11.1733,0.426371,-0.183331,-0.218378,0
2024-12-13 15:23:35.079,-0.591326,2.52323,10.7016,0.452638,-0.104531,-0.218378,0
2024-12-13 15:23:35.079,-0.591326,2.52323,10.7016,0.452638,-0.104531,-0.218378,0
2024-12-13 15:23:35.081,-0.627219,2.54985,10.4288,0.461801,-0.073378,-0.218378,0
2024-12-13 15:23:35.084,-0.648754,2.57139,10.1533,0.466076,-0.0446682,-0.216545,0
2024-12-13 15:23:35.086,-0.658325,2.55703,9.88774,0.461801,-0.021456,-0.217767,0
2024-12-13 15:23:35.088,-0.655932,2.54028,9.63859,0.453249,-0.00801737,-0.218378,0
2024-12-13 15:23:35.091,-0.655932,2.54985,9.42802,0.444086,0.00358873,-0.22021,0
2024-12-13 15:23:35.093,-0.646361,2.54985,9.24587,0.430647,0.0127514,-0.225097,0
2024-12-13 15:23:35.095,-0.648754,2.54746,9.12144,0.416598,0.0170274,-0.231817,0
2024-12-13 15:23:35.098,-0.663111,2.56421,9.03291,0.40377,0.0237467,-0.236092,0
2024-12-13 15:23:35.100,-0.679861,2.58574,8.93241,0.390331,0.0322986,-0.240368,0
2024-12-13 15:23:35.102,-0.689432,2.61207,8.82234,0.379336,0.0432938,-0.245866,0
2024-12-13 15:23:35.105,-0.691825,2.65992,8.71705,0.366432,0.0548999,-0.250753,0
2024-12-13 15:23:35.107,-0.718146,2.70778,8.6019,0.354215,0.0689494,-0.257472,0
2024-12-13 15:23:35.109,-0.732503,2.75563,8.52533,0.341998,0.0805555,-0.262359,0
2024-12-13 15:23:35.112,-0.727717,2.80828,8.47029,0.32917,0.0927724,-0.267857,0
2024-12-13 15:23:35.114,-0.73011,2.82024,8.39133,0.32184,0.104989,-0.274576,0
2024-12-13 15:23:35.116,-0.739681,2.83699,8.30758,0.313899,0.116595,-0.281295,0
2024-12-13 15:23:35.119,-0.732503,2.8657,8.2334,0.304736,0.127591,-0.289847,0
2024-12-13 15:23:35.121,-0.710967,2.86092,8.15923,0.29985,0.144084,-0.29901,0
2024-12-13 15:23:35.124,-0.710967,2.84895,8.07039,0.295574,0.158744,-0.307562,0
2024-12-13 15:23:35.126,-0.708575,2.85135,7.9675,0.290687,0.171572,-0.316113,0
2024-12-13 15:23:35.128,-0.699003,2.84895,7.86222,0.284578,0.18501,-0.325276,0
2024-12-13 15:23:35.131,-0.701396,2.84178,7.7665,0.283357,0.196616,-0.331995,0
2024-12-13 15:23:35.133,-0.718146,2.82742,7.65643,0.27847,0.208223,-0.343602,0
2024-12-13 15:23:35.135,-0.734896,2.80349,7.55324,0.277248,0.217385,-0.353986,0
2024-12-13 15:23:35.138,-0.758824,2.78196,7.44317,0.272362,0.225326,-0.360705,0
2024-12-13 15:23:35.140,-0.782752,2.76281,7.3331,0.269307,0.234489,-0.368646,0
2024-12-13 15:23:35.142,-0.801895,2.73171,7.23261,0.268086,0.239987,-0.376587,0
2024-12-13 15:23:35.145,-0.82343,2.70299,7.12732,0.265031,0.243041,-0.383918,0
2024-12-13 15:23:35.147,-0.833001,2.67906,7.02682,0.26381,0.247317,-0.391859,0
2024-12-13 15:23:35.149,-0.864407,2.64796,6.92363,0.260755,0.250371,-0.395524,0
2024-12-13 15:23:35.152,-0.905085,2.62164,6.83271,0.258312,0.254036,-0.398578,0
2024-12-13 15:23:35.154,-0.940978,2.59292,6.75374,0.258923,0.252814,-0.404075,0
2024-12-13 15:23:35.157,-0.984048,2.58574,6.6676,0.259534,0.254036,-0.408962,0
2024-12-13 15:23:35.159,-1.02233,2.54985,6.59103,0.261977,0.252814,-0.409573,0
2024-12-13 15:23:35.161,-1.0654,2.51605,6.50489,0.261977,0.250371,-0.409573,0
2024-12-13 15:23:35.165,-1.11326,2.50887,6.39691,0.266253,0.247928,-0.409573,0
2024-12-13 15:23:35.166,-1.16112,2.48734,6.3012,0.266253,0.247928,-0.409573,0
2024-12-13 15:23:35.168,-1.20658,2.48016,6.21027,0.268086,0.246095,-0.408351,0
2024-12-13 15:23:35.171,-1.25683,2.47298,6.12652,0.27114,0.243652,-0.404075,0
2024-12-13 15:23:35.173,-1.31186,2.45863,6.06192,0.271751,0.241208,-0.399189,0
2024-12-13 15:23:35.175,-1.35972,2.46102,5.98535,0.274805,0.235711,-0.394302,0
2024-12-13 15:23:35.178,-1.41506,2.47537,5.89681,0.276637,0.232656,-0.388193,0
2024-12-13 15:23:35.180,-1.47248,2.47777,5.81037,0.280303,0.227159,-0.381474,0
2024-12-13 15:23:35.182,-1.5323,2.4658,5.71466,0.286411,0.22105,-0.374144,0
2024-12-13 15:23:35.185,-1.59212,2.4658,5.62134,0.289465,0.211888,-0.363149,0
2024-12-13 15:23:35.187,-1.53948,2.41077,5.59023,0.288854,0.19906,-0.355208,0
2024-12-13 15:23:35.189,-1.37408,2.27199,5.71705,0.294963,0.175237,-0.353986,0
2024-12-13 15:23:35.192,-1.45334,2.25763,5.62612,0.301682,0.146527,-0.354597,0
2024-12-13 15:23:35.194,-1.68544,2.36531,5.31237,0.304736,0.136143,-0.350321,0
2024-12-13 15:23:35.197,-1.78116,2.4323,5.1999,0.306569,0.126369,-0.339936,0
2024-12-13 15:23:35.199,-1.88405,2.48973,5.12333,0.304126,0.1056,-0.326498,0
2024-12-13 15:23:35.201,-2.00399,2.54746,4.99412,0.30046,0.0799446,-0.309394,0
2024-12-13 15:23:35.204,-2.0686,2.58335,4.88166,0.290687,0.0475697,-0.291069,0
2024-12-13 15:23:35.206,-2.09252,2.6001,4.78594,0.277248,0.0139731,-0.271522,0
2024-12-13 15:23:35.208,-2.0997,2.60489,4.69711,0.259534,-0.0257319,-0.252585,0
2024-12-13 15:23:35.211,-2.08295,2.60728,4.64208,0.239376,-0.065437,-0.231817,0
2024-12-13 15:23:35.215,-1.90558,2.56182,4.70907,0.19906,-0.144847,-0.197609,0
2024-12-13 15:23:35.215,-1.90558,2.56182,4.70907,0.19906,-0.144847,-0.197609,0
2024-12-13 15:23:35.218,-1.8003,2.51366,4.78834,0.182567,-0.184552,-0.185392,0
2024-12-13 15:23:35.220,-1.71177,2.48016,4.89601,0.164852,-0.223646,-0.174397,0
2024-12-13 15:23:35.222,-1.62323,2.47059,5.02044,0.152635,-0.256021,-0.165845,0
2024-12-13 15:23:35.227,-1.53709,2.45623,5.32911,0.139808,-0.309776,-0.157293,0
2024-12-13 15:23:35.227,-1.47488,2.44905,5.32911,0.139808,-0.309776,-0.157293,0
2024-12-13 15:23:35.230,-1.41745,2.45623,5.48255,0.137975,-0.33421,-0.151796,0
2024-12-13 15:23:35.232,-1.3669,2.49212,5.62612,0.137975,-0.351924,-0.14813,0
2024-12-13 15:23:35.234,-1.33101,2.52592,5.75294,0.139197,-0.365974,-0.143244,0
2024-12-13 15:23:35.237,-1.30947,2.52592,5.85105,0.142251,-0.37758,-0.142633,0
2024-12-13 15:23:35.239,-1.28794,2.52832,5.92313,0.14836,-0.383078,-0.138968,0
2024-12-13 15:23:35.241,-1.27119,2.5331,5.99253,0.149581,-0.387354,-0.132859,0
2024-12-13 15:23:35.244,-1.24487,2.54507,6.05474,0.156301,-0.387964,-0.129805,0
2024-12-13 15:23:35.246,-1.22572,2.53789,6.10738,0.158744,-0.388575,-0.12614,0
2024-12-13 15:23:35.248,-1.21137,2.54028,6.14088,0.165463,-0.386132,-0.124918,0
2024-12-13 15:23:35.251,-1.18983,2.54267,6.15763,0.167907,-0.387354,-0.121864,0
2024-12-13 15:23:35.253,-1.18505,2.52592,6.16959,0.17035,-0.387354,-0.119421,0
2024-12-13 15:23:35.255,-1.18744,2.53071,6.16959,0.167296,-0.387964,-0.118199,0
2024-12-13 15:23:35.258,-1.19701,2.54985,6.15524,0.167296,-0.391629,-0.115756,0
2024-12-13 15:23:35.260,-1.22572,2.55942,6.14327,0.166074,-0.395905,-0.11148,0
2024-12-13 15:23:35.263,-1.26162,2.57857,6.1337,0.159355,-0.39957,-0.109036,0
2024-12-13 15:23:35.265,-1.30229,2.61446,6.13849,0.152025,-0.405068,-0.102317,0
2024-12-13 15:23:35.268,-1.36451,2.64796,6.15045,0.134921,-0.416674,-0.0882674,0
2024-12-13 15:23:35.270,-1.42223,2.67906,6.15045,0.134921,-0.416674,-0.0882674,0
2024-12-13 15:23:35.272,-1.47488,2.71256,6.16959,0.121482,-0.424615,-0.0815481,0
2024-12-13 15:23:35.274,-1.51316,2.75324,6.20549,0.109876,-0.430724,-0.0736071,0
2024-12-13 15:23:35.277,-1.54666,2.78196,6.23181,0.0982701,-0.436221,-0.0632227,0
2024-12-13 15:23:35.279,-1.58016,2.79871,6.27727,0.0805555,-0.44233,-0.0522274,0
2024-12-13 15:23:35.281,-1.60409,2.82503,6.34666,0.0652843,-0.450271,-0.0436756,0
2024-12-13 15:23:35.284,-1.62562,2.8657,6.41605,0.0494023,-0.457601,-0.0351237,0
2024-12-13 15:23:35.286,-1.64716,2.88485,6.5025,0.0329094,-0.463709,-0.0235176,0
2024-12-13 15:23:35.288,-1.67348,2.90399,6.61017,0.0188599,-0.473483,-0.0113007,0
2024-12-13 15:23:35.291,-1.69502,2.94945,6.72742,0.00114534,-0.488143,0.000916271,0
2024-12-13 15:23:35.293,-1.72852,2.98774,6.86381,-0.0141258,-0.494863,0.0131332,0
2024-12-13 15:23:35.295,-1.75723,3.00927,7.01217,-0.0263428,-0.504636,0.0296261,0
2024-12-13 15:23:35.298,-1.75484,3.03799,7.16321,-0.0355055,-0.517464,0.0448973,0
2024-12-13 15:23:35.300,-1.74527,3.07149,7.30918,-0.0465007,-0.527848,0.0589468,0
2024-12-13 15:23:35.305,-1.75005,3.15793,7.64926,-0.0605502,-0.549839,0.0901,0
2024-12-13 15:23:35.305,-1.72852,3.15793,7.64926,-0.0605502,-0.549839,0.0901,0
2024-12-13 15:23:35.307,-1.68544,3.17707,7.82393,-0.0648262,-0.560834,0.103539,0
2024-12-13 15:23:35.310,-1.64955,3.20339,7.96989,-0.0678804,-0.568775,0.116977,0
2024-12-13 15:23:35.312,-1.59452,3.23211,8.11107,-0.0715455,-0.574884,0.130416,0
2024-12-13 15:23:35.314,-1.5347,3.268,8.25972,-0.0739889,-0.580381,0.142709,0
2024-12-13 15:23:35.317,-1.48445,3.29671,8.40569,-0.0739889,-0.582825,0.152483,0
2024-12-13 15:23:35.319,-1.43659,3.33021,8.54686,-0.0782648,-0.58649,0.1647,0
2024-12-13 15:23:35.321,-1.38844,3.34696,8.68565,-0.0800973,-0.589544,0.175084,0
2024-12-13 15:23:35.324,-1.33579,3.35414,8.82234,-0.0807082,-0.588933,0.183025,0
2024-12-13 15:23:35.326,-1.28315,3.37328,8.97548,-0.0831516,-0.590766,0.192188,0
2024-12-13 15:23:35.328,-1.22812,3.3996,9.13101,-0.0849841,-0.591376,0.203183,0
2024-12-13 15:23:35.333,-1.13001,3.48335,9.43041,-0.0868167,-0.585268,0.217843,0
2024-12-13 15:23:35.333,-1.13001,3.48335,9.43041,-0.0868167,-0.585268,0.217843,0
2024-12-13 15:23:35.338,-1.02951,3.56231,9.77259,-0.0849841,-0.57244,0.230671,0
2024-12-13 15:23:35.338,-1.02951,3.56231,9.77259,-0.0849841,-0.57244,0.230671,0
2024-12-13 15:23:35.340,-0.99362,3.60539,9.92842,-0.0788757,-0.562056,0.235558,0
2024-12-13 15:23:35.343,-0.950549,3.66551,10.0744,-0.0770431,-0.549228,0.239834,0
2024-12-13 15:23:35.345,-0.931406,3.74686,10.2156,-0.0721563,-0.529681,0.242888,0
2024-12-13 15:23:35.347,-0.950549,3.85454,10.3232,-0.0648262,-0.504025,0.244721,0
2024-12-13 15:23:35.350,-0.99362,3.99811,10.3857,-0.057496,-0.474705,0.247164,0
2024-12-13 15:23:35.352,-1.06062,4.15125,10.4145,-0.0544418,-0.443551,0.250218,0
2024-12-13 15:23:35.357,-1.1348,4.44826,10.4097,-0.0544418,-0.409344,0.252662,0
2024-12-13 15:23:35.357,-1.21615,4.44826,10.4097,-0.0544418,-0.409344,0.252662,0
2024-12-13 15:23:35.359,-1.30947,4.61336,10.3735,-0.0629936,-0.350092,0.259381,0
2024-12-13 15:23:35.361,-1.38844,4.7354,10.3256,-0.0770431,-0.330545,0.260603,0
2024-12-13 15:23:35.364,-1.46291,4.81227,10.2945,-0.0978119,-0.317717,0.264268,0
2024-12-13 15:23:35.366,-1.51316,4.86491,10.2706,-0.121024,-0.311608,0.265489,0
2024-12-13 15:23:35.368,-1.4988,4.90319,10.2921,-0.152177,-0.310387,0.267933,0
2024-12-13 15:23:35.371,-1.45573,4.93669,10.3639,-0.187606,-0.317717,0.266711,0
2024-12-13 15:23:35.373,-1.38844,4.96301,10.4815,-0.226701,-0.329323,0.263657,0
2024-12-13 15:23:35.376,-1.30229,4.97258,10.6346,-0.265795,-0.346427,0.257548,0
2024-12-13 15:23:35.378,-1.22333,4.98216,10.7973,-0.301224,-0.365974,0.249607,0
2024-12-13 15:23:35.380,-1.1324,4.97976,10.9914,-0.343373,-0.389797,0.239223,0
2024-12-13 15:23:35.383,-1.03669,4.9678,11.2116,-0.383688,-0.420339,0.228839,0
2024-12-13 15:23:35.385,-0.931406,4.93191,11.4509,-0.424004,-0.458212,0.214789,0
2024-12-13 15:23:35.387,-0.813859,4.86491,11.7096,-0.464931,-0.499139,0.198296,0
2024-12-13 15:23:35.390,-0.689432,4.79073,12.0087,-0.503415,-0.537622,0.185468,0
2024-12-13 15:23:35.392,-0.557827,4.71625,12.3296,-0.540676,-0.576105,0.171419,0
2024-12-13 15:23:35.394,-0.411865,4.61815,12.6386,-0.573662,-0.604204,0.156759,0
2024-12-13 15:23:35.397,-0.248854,4.53201,12.964,-0.609091,-0.632303,0.140266,0
2024-12-13 15:23:35.399,-0.114855,4.46022,13.2873,-0.635968,-0.645742,0.126751,0
2024-12-13 15:23:35.401,-0.11007,4.47458,13.5314,-0.663456,-0.65124,0.114534,0
2024-12-13 15:23:35.404,-0.224925,4.59661,13.6702,-0.693999,-0.642688,0.110869,0
2024-12-13 15:23:35.406,-0.258425,4.64686,13.9696,-0.726374,-0.630471,0.110869,0
2024-12-13 15:23:35.409,-0.174676,4.60858,14.4197,-0.748364,-0.620086,0.112701,0
2024-12-13 15:23:35.411,-0.0789631,4.52722,14.7906,-0.769133,-0.602983,0.113923,0
2024-12-13 15:23:35.413,0.0502493,4.42194,15.1427,-0.783183,-0.577327,0.116366,0
2024-12-13 15:23:35.416,0.162712,4.32383,15.4732,-0.791734,-0.538233,0.115756,0
2024-12-13 15:23:35.418,0.217747,4.2329,15.8106,-0.791734,-0.489365,0.113312,0
2024-12-13 15:23:35.420,0.224925,4.15603,16.1315,-0.783793,-0.430113,0.110869,0
2024-12-13 15:23:35.424,0.196211,4.101,16.4115,-0.750197,-0.300002,0.110869,0
2024-12-13 15:23:35.425,0.136391,4.07229,16.6606,-0.750197,-0.300002,0.110869,0
2024-12-13 15:23:35.427,0.0239282,4.05554,16.8521,-0.72393,-0.230366,0.115145,0
2024-12-13 15:23:35.430,-0.117248,4.04118,16.9765,-0.72393,-0.230366,0.115145,0
2024-12-13 15:23:35.432,-0.292223,4.04118,17.0363,-0.668954,-0.0929251,0.130416,0
2024-12-13 15:23:35.434,-0.486042,4.034,17.0435,-0.636579,-0.0251211,0.144542,1
2024-12-13 15:23:35.437,-0.667897,4.03639,16.9932,-0.60848,0.0365745,0.167143,0
2024-12-13 15:23:35.439,-0.837787,4.04118,16.8879,-0.60848,0.0365745,0.167143,0
2024-12-13 15:23:35.442,-0.979263,4.01246,16.7683,-0.557169,0.137975,0.220898,0
2024-12-13 15:23:35.444,-1.10608,3.97657,16.6319,-0.5364,0.175848,0.252662,0
2024-12-13 15:23:35.446,-1.21137,3.92872,16.4545,-0.520518,0.200892,0.288091,0
2024-12-13 15:23:35.449,-1.28794,3.87129,16.2918,-0.511356,0.215553,0.326574,0
2024-12-13 15:23:35.451,-1.33101,3.81865,16.1674,-0.502193,0.22105,0.366279,0
2024-12-13 15:23:35.453,-1.3334,3.75643,16.0813,-0.502193,0.22105,0.366279,0
2024-12-13 15:23:35.458,-1.31186,3.63171,15.9805,-0.488754,0.186843,0.48906,0
2024-12-13 15:23:35.458,-1.31186,3.63171,15.9805,-0.488754,0.186843,0.48906,0
2024-12-13 15:23:35.460,-1.32622,3.65354,15.9015,-0.485089,0.173404,0.533041,0
2024-12-13 15:23:35.463,-1.28315,3.65354,15.8871,-0.483257,0.156301,0.5758,0
2024-12-13 15:23:35.465,-1.15633,3.6006,16.0143,-0.480202,0.135532,0.618559,0
2024-12-13 15:23:35.467,-1.02712,3.54556,16.0813,-0.474705,0.113541,0.657653,0
2024-12-13 15:23:35.470,-0.885943,3.50728,16.1219,-0.465542,0.0958267,0.693693,0
2024-12-13 15:23:35.472,-0.744467,3.48814,16.177,-0.453936,0.0884965,0.729123,0
2024-12-13 15:23:35.474,-0.632004,3.48574,16.1913,-0.438665,0.0860531,0.760887,0
2024-12-13 15:23:35.477,-0.517149,3.5001,16.2033,-0.422172,0.0860531,0.788986,0
2024-12-13 15:23:35.479,-0.404686,3.50489,16.2272,-0.405068,0.0878856,0.814641,0
2024-12-13 15:23:35.482,-0.289831,3.48096,16.2631,-0.386132,0.0915507,0.836021,0
2024-12-13 15:23:35.484,-0.191426,3.45224,16.2703,-0.366585,0.0952158,0.855568,0
2024-12-13 15:23:35.486,-0.133998,3.47857,16.165,-0.344594,0.106822,0.876337,0
2024-12-13 15:23:35.489,-0.0957129,3.48335,16.043,-0.322604,0.120261,0.894051,0
2024-12-13 15:23:35.491,-0.0382852,3.46182,16.031,-0.301835,0.125147,0.910544,0
2024-12-13 15:23:35.493,0.0526421,3.44985,16.0095,-0.277401,0.131867,0.923983,0
2024-12-13 15:23:35.498,0.246461,3.39003,15.7795,-0.235253,0.146527,0.945363,0
2024-12-13 15:23:35.498,0.246461,3.39003,15.7795,-0.235253,0.146527,0.945363,0
2024-12-13 15:23:35.500,0.332901,3.35892,15.6383,-0.213873,0.157522,0.955747,0
2024-12-13 15:23:35.503,0.387936,3.31825,15.5043,-0.188217,0.174015,0.966742,0
2024-12-13 15:23:35.505,0.423829,3.32303,15.303,-0.168059,0.194173,0.976516,0
2024-12-13 15:23:35.507,0.428614,3.34457,15.0494,-0.168059,0.194173,0.976516,0
2024-12-13 15:23:35.510,0.454935,3.32064,14.889,-0.132019,0.248538,1.00278,0
2024-12-13 15:23:35.512,0.50997,3.26082,14.7595,-0.114305,0.265031,1.01805,0
2024-12-13 15:23:35.515,0.548256,3.19143,14.6184,-0.0972011,0.280303,1.03394,0
2024-12-13 15:23:35.517,0.586541,3.11725,14.4891,-0.0807082,0.298017,1.04737,0
2024-12-13 15:23:35.519,0.646361,3.04756,14.3456,-0.0617719,0.313899,1.06203,0
2024-12-13 15:23:35.522,0.739681,2.99492,14.1993,-0.0397814,0.332835,1.07486,0
2024-12-13 15:23:35.524,0.818644,2.96142,14.051,-0.0177909,0.357269,1.08586,0
2024-12-13 15:23:35.526,0.9003,2.94227,13.8739,0.00786466,0.38659,1.09869,0
2024-12-13 15:23:35.529,1.00558,2.91835,13.6558,0.0335202,0.421408,1.11029,0
2024-12-13 15:23:35.531,1.09173,2.8992,13.4357,0.0610084,0.459892,1.12006,0
2024-12-13 15:23:35.536,1.15155,2.88724,12.9401,0.109876,0.538691,1.13961,0
2024-12-13 15:23:35.536,1.20897,2.87049,12.9401,0.109876,0.538691,1.13961,0
2024-12-13 15:23:35.538,1.24487,2.85613,12.6841,0.13431,0.574731,1.14816,0
2024-12-13 15:23:35.540,1.25444,2.84656,12.4182,0.154468,0.604052,1.15488,0
2024-12-13 15:23:35.543,1.28315,2.84895,12.131,0.172183,0.628486,1.15977,0
2024-12-13 15:23:35.545,1.32861,2.85135,11.8316,0.188675,0.649865,1.16588,0
2024-12-13 15:23:35.548,1.35015,2.84895,11.5421,0.200892,0.666969,1.16954,0
2024-12-13 15:23:35.550,1.37647,2.85374,11.2594,0.210666,0.680407,1.17077,0
2024-12-13 15:23:35.552,1.4342,2.87528,10.9747,0.219218,0.693235,1.17077,0
2024-12-13 15:23:35.555,1.50838,2.87528,10.7064,0.224715,0.704307,1.17015,0
2024-12-13 15:23:35.557,1.58255,2.86331,10.4408,0.233267,0.717135,1.16527,0
2024-12-13 15:23:35.559,1.65673,2.87528,10.1438,0.237543,0.731184,1.15916,0
2024-12-13 15:23:35.562,1.71894,2.88963,9.8351,0.236932,0.740347,1.14939,0
2024-12-13 15:23:35.564,1.75962,2.91117,9.5333,0.236322,0.74951,1.13717,0
2024-12-13 15:23:35.566,1.78834,2.9351,9.24347,0.22777,0.751342,1.12434,0
2024-12-13 15:23:35.569,1.80748,2.96142,8.95873,0.222272,0.746455,1.10785,0
2024-12-13 15:23:35.573,1.83619,2.99252,8.44636,0.195395,0.723854,1.06814,0
2024-12-13 15:23:35.573,1.83619,2.99252,8.44636,0.195395,0.723854,1.06814,0
2024-12-13 15:23:35.576,1.83859,3.01406,8.24537,0.179513,0.707361,1.04615,0
2024-12-13 15:23:35.578,1.84098,3.03799,8.03929,0.162409,0.685905,1.02233,0
2024-12-13 15:23:35.583,1.83141,3.07627,7.733,0.130034,0.643146,0.970407,0
2024-12-13 15:23:35.585,1.79312,3.08854,7.62054,0.115374,0.619934,0.944141,0
2024-12-13 15:23:35.585,1.79312,3.08854,7.62054,0.115374,0.619934,0.944141,0
2024-12-13 15:23:35.588,1.76441,3.10768,7.54607,0.102546,0.598554,0.91482,0
2024-12-13 15:23:35.590,1.72612,3.13639,7.49582,0.0915507,0.577174,0.887943,0
2024-12-13 15:23:35.592,1.64477,3.15075,7.44796,0.0860531,0.556405,0.859233,0
2024-12-13 15:23:35.595,1.55145,3.15314,7.40728,0.0793338,0.531361,0.832967,0
2024-12-13 15:23:35.597,1.4653,3.16511,7.39292,0.0781121,0.508759,0.805478,0
2024-12-13 15:23:35.599,1.37169,3.16989,7.38814,0.0799446,0.484326,0.781045,0
2024-12-13 15:23:35.602,1.27597,3.15793,7.38814,0.0860531,0.45867,0.756611,0
2024-12-13 15:23:35.604,1.18265,3.12921,7.4001,0.0921616,0.433014,0.73462,0
2024-12-13 15:23:35.606,1.1013,3.08854,7.4025,0.104989,0.406748,0.715073,0
2024-12-13 15:23:35.609,1.0319,3.05474,7.38575,0.115985,0.377427,0.695526,0
2024-12-13 15:23:35.611,0.972084,3.01167,7.369,0.131256,0.348717,0.678422,0
2024-12-13 15:23:35.613,0.909871,2.96142,7.34985,0.147749,0.323673,0.661319,0
2024-12-13 15:23:35.616,0.842872,2.91356,7.30918,0.165463,0.29985,0.646658,0
2024-12-13 15:23:35.618,0.775574,2.8657,7.24936,0.18501,0.276637,0.636274,0
2024-12-13 15:23:35.621,0.701396,2.82263,7.17757,0.203947,0.25709,0.625279,0
2024-12-13 15:23:35.623,0.62004,2.8011,7.08904,0.22044,0.239376,0.618559,0
2024-12-13 15:23:35.625,0.545863,2.79871,7.00499,0.236932,0.222883,0.616116,0
2024-12-13 15:23:35.628,0.4669,2.78913,6.91406,0.254647,0.208833,0.611229,0
2024-12-13 15:23:35.630,0.378365,2.76281,6.82553,0.268696,0.195395,0.61184,0
2024-12-13 15:23:35.632,0.292223,2.75563,6.73221,0.27847,0.188065,0.617948,0
2024-12-13 15:23:35.635,0.224925,2.77717,6.6341,0.291298,0.178291,0.622224,0
2024-12-13 15:23:35.639,0.145962,2.79392,6.40409,0.305958,0.162409,0.642382,0
2024-12-13 15:23:35.639,0.145962,2.79392,6.40409,0.305958,0.162409,0.642382,0
2024-12-13 15:23:35.642,0.12682,2.80828,6.29163,0.309012,0.153246,0.651545,0
2024-12-13 15:23:35.644,0.114855,2.81785,6.19113,0.310234,0.142862,0.663762,0
2024-12-13 15:23:35.646,0.117248,2.81067,6.07149,0.306569,0.133088,0.675979,0
2024-12-13 15:23:35.649,0.141177,2.8011,5.96142,0.301682,0.125758,0.685142,0
2024-12-13 15:23:35.651,0.179462,2.80349,5.8678,0.295574,0.117206,0.694304,0
2024-12-13 15:23:35.653,0.210568,2.80828,5.77448,0.283357,0.109265,0.702245,0
2024-12-13 15:23:35.656,0.263211,2.80828,5.68595,0.269918,0.103768,0.710186,0
2024-12-13 15:23:35.658,0.347258,2.82263,5.62373,0.250982,0.0994917,0.715073,0
2024-12-13 15:23:35.661,0.423829,2.85135,5.59023,0.22777,0.0970484,0.716295,0
2024-12-13 15:23:35.663,0.507577,2.88245,5.5663,0.204557,0.0952158,0.718738,0
2024-12-13 15:23:35.665,0.579362,2.8992,5.5687,0.178902,0.0958267,0.718127,0
2024-12-13 15:23:35.668,0.639183,2.91117,5.60459,0.152025,0.0958267,0.714462,0
2024-12-13 15:23:35.670,0.701396,2.93749,5.66441,0.125147,0.0964375,0.709575,0
2024-12-13 15:23:35.672,0.74686,2.95663,5.74816,0.0964375,0.0988809,0.706521,0
2024-12-13 15:23:35.675,0.794716,2.97577,5.84387,0.0683385,0.100713,0.699191,0
2024-12-13 15:23:35.677,0.854836,2.99252,5.95424,0.0402396,0.101935,0.689417,0
2024-12-13 15:23:35.679,0.936192,2.99492,6.06431,0.0139731,0.109876,0.679644,0
2024-12-13 15:23:35.682,1.0343,3.0021,6.17438,-0.0116825,0.117206,0.666816,0
2024-12-13 15:23:35.686,1.2329,3.01406,6.40648,-0.0593285,0.137975,0.635663,0
2024-12-13 15:23:35.686,1.2329,3.01406,6.40648,-0.0593285,0.137975,0.635663,0
2024-12-13 15:23:35.691,1.32622,3.02602,6.66999,-0.105142,0.161798,0.594125,0
2024-12-13 15:23:35.691,1.39561,3.02602,6.66999,-0.105142,0.161798,0.594125,0
2024-12-13 15:23:35.697,1.52513,3.00688,6.97388,-0.158286,0.196616,0.523267,0
2024-12-13 15:23:35.698,1.58973,3.00927,7.13689,-0.158286,0.196616,0.523267,0
2024-12-13 15:23:35.698,1.58973,3.00927,7.13689,-0.158286,0.196616,0.523267,0
2024-12-13 15:23:35.701,1.64237,3.00927,7.28046,-0.166838,0.208833,0.498833,0
2024-12-13 15:23:35.703,1.67587,3.01167,7.42403,-0.177222,0.219218,0.473788,0
2024-12-13 15:23:35.705,1.6998,2.99731,7.57239,-0.185774,0.226548,0.449965,0
2024-12-13 15:23:35.708,1.70698,2.9686,7.69711,-0.191272,0.231435,0.423088,0
2024-12-13 15:23:35.710,1.69262,2.93031,7.79283,-0.194937,0.232656,0.399265,0
2024-12-13 15:23:35.715,1.62084,2.84895,7.99861,-0.196769,0.232046,0.37422,0
2024-12-13 15:23:35.716,1.62084,2.84895,7.99861,-0.201045,0.218607,0.332072,0
2024-12-13 15:23:35.718,1.56102,2.82981,8.1015,-0.197991,0.205168,0.313746,0
2024-12-13 15:23:35.719,1.5012,2.79153,8.21187,-0.197991,0.205168,0.313746,0
2024-12-13 15:23:35.722,1.43659,2.72931,8.31954,-0.195547,0.188675,0.296032,0
2024-12-13 15:23:35.724,1.36451,2.66949,8.42483,-0.191882,0.169128,0.281372,0
2024-12-13 15:23:35.727,1.30229,2.63599,8.51815,-0.188828,0.14897,0.2661,0
2024-12-13 15:23:35.729,1.22094,2.61685,8.61147,-0.183941,0.128812,0.25144,0
2024-12-13 15:23:35.731,1.13719,2.59292,8.74098,-0.176611,0.109265,0.241056,0
2024-12-13 15:23:35.734,1.06301,2.55942,8.85344,-0.167449,0.0927724,0.233115,0
2024-12-13 15:23:35.736,0.991227,2.53789,8.94437,-0.158897,0.0787229,0.225784,0
2024-12-13 15:23:35.738,0.929013,2.52832,9.03769,-0.150956,0.0683385,0.221508,0
2024-12-13 15:23:35.741,0.869193,2.50887,9.12862,-0.13935,0.0658951,0.218454,0
2024-12-13 15:23:35.743,0.804287,2.48973,9.20997,-0.127743,0.0616192,0.217843,0
2024-12-13 15:23:35.745,0.742074,2.47537,9.27488,-0.115526,0.0658951,0.220287,0
2024-12-13 15:23:35.748,0.684646,2.45863,9.32992,-0.0996445,0.0732253,0.22273,0
2024-12-13 15:23:35.750,0.63679,2.45145,9.35384,-0.0886492,0.0848314,0.228228,0
2024-12-13 15:23:35.752,0.586541,2.45145,9.37299,-0.0739889,0.0982701,0.236169,0
2024-12-13 15:23:35.755,0.524327,2.43709,9.38016,-0.0629936,0.111709,0.247164,0
2024-12-13 15:23:35.757,0.4669,2.41316,9.37538,-0.0501658,0.130034,0.261214,0
2024-12-13 15:23:35.759,0.407079,2.39163,9.37059,-0.0385597,0.145305,0.277096,0
2024-12-13 15:23:35.762,0.368794,2.38684,9.33231,-0.0306187,0.164852,0.292367,0
2024-12-13 15:23:35.764,0.34008,2.37488,9.29163,-0.0196235,0.178902,0.311303,0
2024-12-13 15:23:35.767,0.308973,2.35813,9.24587,-0.0153475,0.19906,0.33085,0
2024-12-13 15:23:35.769,0.287438,2.36291,9.2028,-0.0104608,0.215553,0.353451,0
2024-12-13 15:23:35.774,0.277567,2.37488,9.10708,-0.00618483,0.231435,0.373609,0
2024-12-13 15:23:35.776,0.270389,2.38923,9.05923,-0.0019089,0.267475,0.420034,0
2024-12-13 15:23:35.778,0.267996,2.41077,9.02573,-0.00374144,0.283357,0.440192,0
2024-12-13 15:23:35.778,0.267996,2.41077,9.02573,-0.00374144,0.283357,0.440192,0
2024-12-13 15:23:35.781,0.289831,2.45145,8.97548,-0.00496313,0.30046,0.462182,0
2024-12-13 15:23:35.783,0.320937,2.49691,8.92523,-0.00740652,0.319397,0.482951,0
2024-12-13 15:23:35.785,0.35683,2.53071,8.88694,-0.0122933,0.3365,0.500666,0
2024-12-13 15:23:35.788,0.407079,2.56421,8.84387,-0.0153475,0.351772,0.517159,0
2024-12-13 15:23:35.790,0.469292,2.60967,8.79841,-0.0226777,0.363989,0.530597,0
2024-12-13 15:23:35.792,0.557827,2.65274,8.76491,-0.029397,0.375595,0.540982,0
2024-12-13 15:23:35.795,0.641576,2.7006,8.7362,-0.0385597,0.378649,0.54709,0
2024-12-13 15:23:35.797,0.732503,2.74367,8.71227,-0.0483333,0.382925,0.551977,0
2024-12-13 15:23:35.800,0.835394,2.77956,8.69761,-0.057496,0.384147,0.551977,0
2024-12-13 15:23:35.802,0.921835,2.80828,8.67129,-0.065437,0.382314,0.545868,0
2024-12-13 15:23:35.804,1.00319,2.84417,8.67608,-0.073378,0.380481,0.540371,0
2024-12-13 15:23:35.807,1.09651,2.86331,8.69043,-0.0849841,0.376206,0.531208,0
2024-12-13 15:23:35.809,1.19222,2.8657,8.69522,-0.0917034,0.370097,0.519602,0
2024-12-13 15:23:35.811,1.27837,2.87049,8.71466,-0.0990336,0.365821,0.502498,0
2024-12-13 15:23:35.814,1.35494,2.87767,8.73859,-0.107585,0.35788,0.486616,0
2024-12-13 15:23:35.816,1.41506,2.88963,8.78405,-0.114916,0.351772,0.468902,0
2024-12-13 15:23:35.818,1.45334,2.88724,8.83669,-0.121024,0.342609,0.450576,0
2024-12-13 15:23:35.821,1.49163,2.88245,8.87259,-0.122857,0.33589,0.43164,0
2024-12-13 15:23:35.823,1.52513,2.88006,8.91326,-0.1253,0.330392,0.411482,0
2024-12-13 15:23:35.825,1.52273,2.8657,8.95394,-0.1253,0.323062,0.391324,0
2024-12-13 15:23:35.828,1.50838,2.84656,8.97787,-0.124689,0.319397,0.372999,0
2024-12-13 15:23:35.833,1.47009,2.79631,9.0688,-0.116748,0.317564,0.33818,0
2024-12-13 15:23:35.833,1.47009,2.79631,9.0688,-0.116748,0.317564,0.33818,0
2024-12-13 15:23:35.835,1.43659,2.77238,9.10948,-0.110029,0.316343,0.324131,0
2024-12-13 15:23:35.837,1.39322,2.75803,9.13819,-0.0990336,0.322451,0.310692,0
2024-12-13 15:23:35.840,1.31426,2.72931,9.15973,-0.0880384,0.326727,0.299697,0
2024-12-13 15:23:35.842,1.23051,2.69821,9.16212,-0.0739889,0.334057,0.290534,0
2024-12-13 15:23:35.844,1.15155,2.69103,9.15015,-0.057496,0.345052,0.284426,0
2024-12-13 15:23:35.847,1.0678,2.66949,9.13819,-0.0391706,0.357269,0.280761,0
2024-12-13 15:23:35.849,0.974477,2.63839,9.12623,-0.0196235,0.369486,0.277706,0
2024-12-13 15:23:35.851,0.909871,2.60728,9.07119,0.00114534,0.383536,0.276485,0
2024-12-13 15:23:35.854,0.833001,2.58335,8.99462,0.0237467,0.400029,0.281372,0
2024-12-13 15:23:35.856,0.74686,2.5666,8.91805,0.0475697,0.411635,0.286869,0
2024-12-13 15:23:35.858,0.679861,2.55464,8.82952,0.0689494,0.424462,0.292367,0
2024-12-13 15:23:35.861,0.622433,2.54746,8.74337,0.0909399,0.433625,0.300919,0
2024-12-13 15:23:35.863,0.557827,2.54507,8.6665,0.114763,0.440955,0.309471,0
2024-12-13 15:23:35.865,0.498006,2.55224,8.58515,0.139197,0.446453,0.318633,0
2024-12-13 15:23:35.868,0.445364,2.55464,8.48704,0.162409,0.447064,0.330239,0
2024-12-13 15:23:35.870,0.390329,2.55464,8.37219,0.1844,0.447064,0.342456,0
2024-12-13 15:23:35.873,0.335294,2.55703,8.24058,0.208833,0.443399,0.353451,0
2024-12-13 15:23:35.875,0.308973,2.56182,8.11586,0.22777,0.439734,0.365058,0
2024-12-13 15:23:35.877,0.301795,2.56899,7.99143,0.247928,0.433014,0.376664,0
2024-12-13 15:23:35.880,0.287438,2.56421,7.86222,0.268696,0.425684,0.385826,0
2024-12-13 15:23:35.882,0.285045,2.57617,7.74018,0.287022,0.414689,0.398043,0
2024-12-13 15:23:35.884,0.282652,2.56899,7.61815,0.305958,0.40125,0.407817,0
2024-12-13 15:23:35.887,0.270389,2.5666,7.50778,0.32184,0.384757,0.415758,0
2024-12-13 15:23:35.889,0.258425,2.60489,7.40967,0.337111,0.370708,0.423699,0
2024-12-13 15:23:35.891,0.285045,2.61924,7.31875,0.352993,0.352993,0.431029,0
2024-12-13 15:23:35.894,0.308973,2.61924,7.23261,0.365821,0.33589,0.435916,0
2024-12-13 15:23:35.896,0.32333,2.63599,7.15604,0.38178,0.316343,0.439581,0
2024-12-13 15:23:35.898,0.371187,2.65992,7.08904,0.394607,0.296795,0.444468,0
2024-12-13 15:23:35.901,0.426222,2.67906,7.01964,0.408046,0.276027,0.445689,0
2024-12-13 15:23:35.903,0.469292,2.70299,6.94038,0.415376,0.255869,0.4463,0
2024-12-13 15:23:35.906,0.512363,2.73649,6.84945,0.425761,0.238765,0.443857,0
2024-12-13 15:23:35.908,0.553041,2.77478,6.76571,0.436756,0.222272,0.440803,0
2024-12-13 15:23:35.910,0.586541,2.80349,6.69153,0.443475,0.207612,0.436527,0
2024-12-13 15:23:35.913,0.617647,2.82742,6.63171,0.446529,0.192341,0.429807,0
2024-12-13 15:23:35.917,0.699003,2.87528,6.48814,0.45447,0.163631,0.408428,0
2024-12-13 15:23:35.917,0.699003,2.87528,6.48814,0.45447,0.163631,0.408428,0
2024-12-13 15:23:35.920,0.734896,2.91595,6.42323,0.455692,0.150192,0.394378,0
2024-12-13 15:23:35.922,0.758824,2.96142,6.36102,0.452638,0.140419,0.38094,0
2024-12-13 15:23:35.924,0.770788,2.97338,6.29163,0.451416,0.131256,0.365668,0
2024-12-13 15:23:35.927,0.787538,2.98295,6.22224,0.444086,0.122093,0.347954,0
2024-12-13 15:23:35.929,0.799502,2.9997,6.16959,0.437977,0.115374,0.330239,0
2024-12-13 15:23:35.931,0.80668,3.01167,6.11934,0.428815,0.108654,0.313136,0
2024-12-13 15:23:35.934,0.801895,3.02124,6.06431,0.420263,0.104989,0.292978,0
2024-12-13 15:23:35.936,0.797109,3.02842,6.01885,0.407435,0.100103,0.275874,0
2024-12-13 15:23:35.938,0.782752,3.01406,5.99253,0.393386,0.0964375,0.255716,0
2024-12-13 15:23:35.941,0.744467,3.02124,5.97338,0.376282,0.094605,0.239223,0
2024-12-13 15:23:35.943,0.715753,3.02842,5.96142,0.359102,0.0927724,0.221508,0
2024-12-13 15:23:35.946,0.687039,3.02363,5.96142,0.340166,0.0927724,0.205016,0
2024-12-13 15:23:35.948,0.655932,3.01645,5.97817,0.32184,0.0958267,0.191577,0
2024-12-13 15:23:35.950,0.622433,2.98295,5.98535,0.301071,0.100713,0.178138,0
2024-12-13 15:23:35.953,0.596112,2.96381,6.01645,0.281524,0.106822,0.165311,0
2024-12-13 15:23:35.955,0.576969,2.92792,6.05713,0.260145,0.115985,0.153094,0
2024-12-13 15:23:35.957,0.572184,2.87528,6.09542,0.238765,0.128202,0.145763,0
2024-12-13 15:23:35.960,0.569791,2.82742,6.14327,0.217996,0.142251,0.136601,0
2024-12-13 15:23:35.962,0.569791,2.77717,6.17917,0.192951,0.156911,0.127972,0
2024-12-13 15:23:35.964,0.574577,2.73649,6.22702,0.174015,0.17035,0.120642,0
2024-12-13 15:23:35.967,0.579362,2.70778,6.27727,0.151414,0.186232,0.113312,0
2024-12-13 15:23:35.969,0.579362,2.6671,6.34427,0.130034,0.200892,0.105982,0
2024-12-13 15:23:35.971,0.588933,2.64078,6.4352,0.106211,0.214942,0.0992627,0
2024-12-13 15:23:35.974,0.629611,2.62642,6.55753,0.0891073,0.225326,0.0919325,0
2024-12-13 15:23:35.976,0.651147,2.60728,6.71306,0.0677277,0.238154,0.085824,0
2024-12-13 15:23:35.979,0.65354,2.58814,6.8662,0.0524565,0.248538,0.0791047,0
2024-12-13 15:23:35.981,0.670289,2.58096,6.99302,0.0408504,0.263199,0.0723854,0
2024-12-13 15:23:35.983,0.679861,2.59053,7.12732,0.0310769,0.280913,0.0668878,0
2024-12-13 15:23:35.986,0.691825,2.59532,7.2685,0.0243575,0.30046,0.062001,0
2024-12-13 15:23:35.988,0.691825,2.61446,7.39771,0.0200816,0.317564,0.0528383,0
2024-12-13 15:23:35.991,0.677468,2.62642,7.52932,0.022525,0.360324,0.0442864,0
2024-12-13 15:23:35.993,0.667897,2.6336,7.65643,0.022525,0.360324,0.0442864,0
2024-12-13 15:23:35.995,0.651147,2.65514,7.77129,0.0286335,0.376816,0.038178,0
2024-12-13 15:23:35.997,0.632004,2.67189,7.87657,0.0310769,0.393309,0.0332912,0
2024-12-13 15:23:36.000,0.586541,2.68385,7.98425,0.0390179,0.403083,0.025961,0
2024-12-13 15:23:36.003,0.541077,2.71974,8.08475,0.0579541,0.417132,0.0143549,0
2024-12-13 15:23:36.004,0.517149,2.76521,8.17837,0.0579541,0.417132,0.0143549,0
2024-12-13 15:23:36.007,0.490828,2.77717,8.25255,0.0671168,0.423241,0.0064139,0
2024-12-13 15:23:36.009,0.452543,2.79631,8.32194,0.082388,0.428738,-0.000916271,0
2024-12-13 15:23:36.012,0.409472,2.82742,8.41526,0.0988809,0.433014,-0.0064139,0
2024-12-13 15:23:36.014,0.359223,2.8346,8.5014,0.113541,0.43729,-0.0113007,0
2024-12-13 15:23:36.016,0.294616,2.85135,8.57558,0.130645,0.439123,-0.0149658,0
2024-12-13 15:23:36.019,0.241675,2.88963,8.65215,0.147138,0.439734,-0.01802,0
2024-12-13 15:23:36.021,0.196211,2.91835,8.72662,0.163631,0.439123,-0.0241285,0
2024-12-13 15:23:36.023,0.136391,2.93749,8.79841,0.181956,0.438512,-0.0265719,0
2024-12-13 15:23:36.026,0.0885344,2.95424,8.87019,0.197838,0.437901,-0.0277936,0
2024-12-13 15:23:36.028,0.0598206,2.96381,8.9348,0.216774,0.43729,-0.0296261,0
2024-12-13 15:23:36.030,0.0215354,2.97817,8.98505,0.233267,0.436679,-0.0308478,0
2024-12-13 15:23:36.033,-0.0334995,3.0021,9.02573,0.247928,0.439734,-0.0332912,0
2024-12-13 15:23:36.035,-0.114855,3.0332,9.05205,0.264421,0.442177,-0.0332912,0
2024-12-13 15:23:36.037,-0.208176,3.06909,9.06401,0.277248,0.447064,-0.0326803,0
2024-12-13 15:23:36.040,-0.308973,3.10768,9.09033,0.288244,0.455005,-0.0296261,0
2024-12-13 15:23:36.042,-0.428614,3.15793,9.11426,0.297406,0.462946,-0.0247393,0
2024-12-13 15:23:36.044,-0.569791,3.21536,9.13101,0.306569,0.472109,-0.01802,0
2024-12-13 15:23:36.047,-0.725324,3.27757,9.15733,0.309012,0.48005,-0.00946813,0
2024-12-13 15:23:36.049,-0.873978,3.3685,9.17408,0.310845,0.486769,0.000305424,0
2024-12-13 15:23:36.052,-1.01276,3.4666,9.18605,0.311456,0.491045,0.0125224,0
