timestamp,accel_x,accel_y,accel_z,gyro_x,gyro_y,gyro_z,step_timestamp
2024-12-13 15:23:08.928,-0.0143569,2.09731,9.95235,0.0249684,-0.0257319,-0.0436756,0
2024-12-13 15:23:08.928,-0.0143569,2.09731,9.95235,0.0249684,-0.0257319,-0.0436756,0
2024-12-13 15:23:08.928,-0.0143569,2.09731,9.95235,0.0249684,-0.0257319,-0.0436756,0
2024-12-13 15:23:08.928,-0.0143569,2.09731,9.95235,0.0249684,-0.0257319,-0.0436756,0
2024-12-13 15:23:08.928,-0.0143569,2.09731,9.95235,0.0249684,-0.0257319,-0.0436756,0
2024-12-13 15:23:08.928,-0.0143569,2.09731,9.95235,0.0249684,-0.0257319,-0.0436756,0
2024-12-13 15:23:08.928,-0.0143569,2.09731,9.95235,0.0249684,-0.0257319,-0.0436756,0
2024-12-13 15:23:08.928,-0.0143569,2.09731,9.95235,0.0249684,-0.0257319,-0.0436756,0
2024-12-13 15:23:08.931,-0.0382852,2.10688,9.9332,0.0268009,-0.0251211,-0.0406213,0
2024-12-13 15:23:08.931,-0.0382852,2.10688,9.9332,0.0268009,-0.0251211,-0.0406213,0
2024-12-13 15:23:08.933,-0.0382852,2.11884,9.90688,0.0292443,-0.0306187,-0.0357346,0
2024-12-13 15:23:08.933,-0.0382852,2.11884,9.90688,0.0292443,-0.0306187,-0.0357346,0
2024-12-13 15:23:08.933,-0.0382852,2.11884,9.90688,0.0292443,-0.0306187,-0.0357346,0
2024-12-13 15:23:08.935,-0.040678,2.11167,9.89013,0.0274118,-0.0342838,-0.038178,0
2024-12-13 15:23:08.935,-0.040678,2.11167,9.89013,0.0274118,-0.0342838,-0.038178,0
2024-12-13 15:23:08.935,-0.040678,2.11167,9.89013,0.0274118,-0.0342838,-0.038178,0
2024-12-13 15:23:08.935,-0.040678,2.11167,9.89013,0.0274118,-0.0342838,-0.038178,0
2024-12-13 15:23:08.938,-0.0430708,2.10449,9.87817,0.0292443,-0.0385597,-0.0400105,0
2024-12-13 15:23:08.938,-0.0430708,2.10449,9.87817,0.0292443,-0.0385597,-0.0400105,0
2024-12-13 15:23:08.938,-0.0430708,2.10449,9.87817,0.0292443,-0.0385597,-0.0400105,0
2024-12-13 15:23:08.938,-0.0430708,2.10449,9.87817,0.0292443,-0.0385597,-0.0400105,0
2024-12-13 15:23:08.940,-0.0334995,2.10688,9.86381,0.0268009,-0.0446682,-0.033902,0
2024-12-13 15:23:08.940,-0.0334995,2.10688,9.86381,0.0268009,-0.0446682,-0.033902,0
2024-12-13 15:23:08.940,-0.0334995,2.10688,9.86381,0.0268009,-0.0446682,-0.033902,0
2024-12-13 15:23:08.940,-0.0334995,2.10688,9.86381,0.0268009,-0.0446682,-0.033902,0
2024-12-13 15:23:08.942,-0.0143569,2.11167,9.85185,0.0280226,-0.0501658,-0.033902,0
2024-12-13 15:23:08.945,0.00717847,2.12363,9.84946,0.0316877,-0.0532201,-0.0357346,0
2024-12-13 15:23:08.947,0.0215354,2.12602,9.84946,0.0292443,-0.057496,-0.0363454,0
2024-12-13 15:23:08.950,0.040678,2.13081,9.84467,0.0298552,-0.0617719,-0.0332912,0
2024-12-13 15:23:08.952,0.066999,2.13799,9.84228,0.0292443,-0.0636045,-0.0357346,0
2024-12-13 15:23:08.959,0.122034,2.13799,9.86621,0.0286335,-0.0684913,-0.0387888,0
2024-12-13 15:23:08.961,0.143569,2.15713,9.85424,0.0292443,-0.0660479,-0.0436756,0
2024-12-13 15:23:08.961,0.143569,2.15713,9.85424,0.0292443,-0.0660479,-0.0436756,0
2024-12-13 15:23:08.961,0.143569,2.15713,9.85424,0.0292443,-0.0660479,-0.0436756,0
2024-12-13 15:23:08.968,0.198604,2.14995,9.8351,0.0268009,-0.0623828,-0.046119,0
2024-12-13 15:23:08.968,0.198604,2.14995,9.8351,0.0268009,-0.0623828,-0.046119,0
2024-12-13 15:23:08.968,0.198604,2.14995,9.8351,0.0268009,-0.0623828,-0.046119,0
2024-12-13 15:23:08.972,0.205783,2.15234,9.82553,0.0213033,-0.0581068,-0.0558925,0
2024-12-13 15:23:08.973,0.208176,2.15952,9.81087,0.0213033,-0.0581068,-0.0558925,0
2024-12-13 15:23:08.975,0.208176,2.16192,9.79412,0.0231358,-0.0550526,-0.0558925,0
2024-12-13 15:23:08.978,0.212961,2.15952,9.78934,0.0231358,-0.0526092,-0.0589468,0
2024-12-13 15:23:08.980,0.215354,2.17627,9.77498,0.0176382,-0.0501658,-0.0632227,0
2024-12-13 15:23:08.983,0.212961,2.20499,9.74866,0.0164165,-0.0452791,-0.0632227,0
2024-12-13 15:23:08.985,0.191426,2.2002,9.75105,0.0151948,-0.0410031,-0.0644444,0
2024-12-13 15:23:08.987,0.189033,2.2002,9.73669,0.0133623,-0.0422248,-0.0674986,0
2024-12-13 15:23:08.991,0.20339,2.19781,9.71037,0.00725381,-0.0367272,-0.0681095,0
2024-12-13 15:23:08.992,0.205783,2.17866,9.70559,0.00725381,-0.0367272,-0.0681095,0
2024-12-13 15:23:08.994,0.205783,2.18106,9.69602,0.00481042,-0.0361163,-0.0742179,0
2024-12-13 15:23:08.997,0.215354,2.18345,9.69123,0.00175619,-0.0361163,-0.0742179,0
2024-12-13 15:23:09.001,0.210568,2.18584,9.69602,-0.00557398,-0.037338,-0.0797156,0
2024-12-13 15:23:09.001,0.198604,2.17866,9.68884,-0.00557398,-0.037338,-0.0797156,0
2024-12-13 15:23:09.004,0.191426,2.16431,9.68405,-0.00801737,-0.037338,-0.082159,0
2024-12-13 15:23:09.006,0.181855,2.17149,9.71037,-0.00923906,-0.0379489,-0.0839915,0
2024-12-13 15:23:09.008,0.196211,2.17866,9.73191,-0.00923906,-0.0391706,-0.0839915,0
2024-12-13 15:23:09.011,0.208176,2.1667,9.73191,-0.0104608,-0.0391706,-0.085824,0
2024-12-13 15:23:09.013,0.20339,2.14995,9.74627,-0.0104608,-0.0385597,-0.0876566,0
2024-12-13 15:23:09.016,0.205783,2.15234,9.75823,-0.0110716,-0.0397814,-0.0876566,0
2024-12-13 15:23:09.018,0.200997,2.16909,9.75344,-0.0110716,-0.0397814,-0.0894891,0
2024-12-13 15:23:09.020,0.198604,2.17149,9.75584,-0.00862822,-0.0385597,-0.0913217,0
2024-12-13 15:23:09.023,0.191426,2.15952,9.75823,-0.00679568,-0.0367272,-0.0925434,0
2024-12-13 15:23:09.025,0.184247,2.14995,9.74387,-0.00740652,-0.0367272,-0.0913217,0
2024-12-13 15:23:09.027,0.184247,2.15234,9.73191,-0.00496313,-0.0361163,-0.0925434,0
2024-12-13 15:23:09.030,0.16989,2.17149,9.72712,-0.00313059,-0.0342838,-0.0925434,0
2024-12-13 15:23:09.032,0.148355,2.18345,9.72234,-0.000687203,-0.0355055,-0.0949868,0
2024-12-13 15:23:09.034,0.143569,2.16431,9.70559,-0.000687203,-0.037338,-0.0955976,0
2024-12-13 15:23:09.037,0.129212,2.1667,9.67687,0.00419957,-0.0403923,-0.098041,0
2024-12-13 15:23:09.039,0.105284,2.17149,9.66252,0.00236703,-0.0465007,-0.0974301,0
2024-12-13 15:23:09.041,0.0861416,2.1667,9.64816,0.00114534,-0.049555,-0.0962084,0
2024-12-13 15:23:09.044,0.0837488,2.17149,9.60987,0.00175619,-0.0568851,-0.0986518,0
2024-12-13 15:23:09.046,0.0933201,2.16909,9.59552,-0.000687203,-0.0648262,-0.0986518,0
2024-12-13 15:23:09.048,0.0933201,2.16431,9.59791,-0.000687203,-0.0745997,-0.101095,0
2024-12-13 15:23:09.051,0.0933201,2.14277,9.6027,-0.0019089,-0.0831516,-0.102317,0
2024-12-13 15:23:09.053,0.105284,2.12363,9.61227,-0.00496313,-0.0953685,-0.106593,0
2024-12-13 15:23:09.056,0.11007,2.12124,9.63859,-0.00496313,-0.0953685,-0.106593,0
2024-12-13 15:23:09.060,0.155533,2.09492,9.69602,-0.0122933,-0.122857,-0.109036,0
2024-12-13 15:23:09.060,0.155533,2.09492,9.69602,-0.0122933,-0.122857,-0.109036,0
2024-12-13 15:23:09.063,0.193819,2.07338,9.71994,-0.0141258,-0.130798,-0.113923,0
2024-12-13 15:23:09.065,0.208176,2.05185,9.76302,-0.0184018,-0.136906,-0.115145,0
2024-12-13 15:23:09.067,0.205783,2.05424,9.81326,-0.0177909,-0.138739,-0.117588,0
2024-12-13 15:23:09.070,0.222533,2.06381,9.86621,-0.0177909,-0.13996,-0.116977,0
2024-12-13 15:23:09.072,0.246461,2.0662,9.92842,-0.0202343,-0.13996,-0.118199,0
2024-12-13 15:23:09.074,0.265603,2.05185,9.98106,-0.0202343,-0.136295,-0.120031,0
2024-12-13 15:23:09.077,0.287438,2.03749,10.0361,-0.0190126,-0.135074,-0.116977,0
2024-12-13 15:23:09.079,0.299402,2.0351,10.084,-0.0196235,-0.131409,-0.117588,0
2024-12-13 15:23:09.081,0.318545,2.03749,10.1222,-0.0165692,-0.122246,-0.116366,0
2024-12-13 15:23:09.084,0.342473,2.03988,10.1653,-0.0141258,-0.114305,-0.115756,0
2024-12-13 15:23:09.086,0.347258,2.04227,10.1916,-0.0122933,-0.101477,-0.113923,0
2024-12-13 15:23:09.089,0.347258,2.04227,10.206,-0.00923906,-0.0929251,-0.11148,0
2024-12-13 15:23:09.091,0.354437,2.02792,10.2132,-0.00801737,-0.0837624,-0.109647,0
2024-12-13 15:23:09.093,0.364008,2.0327,10.2275,-0.0019089,-0.0715455,-0.106593,0
2024-12-13 15:23:09.096,0.35683,2.05185,10.2371,0.00297788,-0.0617719,-0.104149,0
2024-12-13 15:23:09.098,0.352044,2.07099,10.2299,0.00786466,-0.0532201,-0.0998735,0
2024-12-13 15:23:09.100,0.364008,2.08295,10.206,0.00847551,-0.0452791,-0.0968193,0
2024-12-13 15:23:09.103,0.366401,2.07817,10.1797,0.0133623,-0.0403923,-0.0943759,0
2024-12-13 15:23:09.105,0.364008,2.08774,10.1581,0.0151948,-0.033673,-0.0931542,0
2024-12-13 15:23:09.107,0.392722,2.11645,10.1318,0.0188599,-0.029397,-0.0894891,0
2024-12-13 15:23:09.110,0.414257,2.13799,10.0983,0.022525,-0.0269536,-0.0864349,0
2024-12-13 15:23:09.112,0.428614,2.13799,10.0505,0.0213033,-0.0269536,-0.0870457,0
2024-12-13 15:23:09.114,0.452543,2.13799,10.0026,0.022525,-0.0263428,-0.0846023,0
2024-12-13 15:23:09.117,0.486042,2.1667,9.97628,0.0249684,-0.0245102,-0.0846023,0
2024-12-13 15:23:09.119,0.50997,2.19302,9.94995,0.0243575,-0.0287862,-0.0852132,0
2024-12-13 15:23:09.121,0.533899,2.20977,9.89971,0.0231358,-0.0312296,-0.0864349,0
2024-12-13 15:23:09.124,0.581755,2.2337,9.85664,0.0219141,-0.0342838,-0.0882674,0
2024-12-13 15:23:09.126,0.63679,2.24806,9.82314,0.0213033,-0.0342838,-0.0931542,0
2024-12-13 15:23:09.129,0.682254,2.25524,9.8013,0.0170274,-0.0410031,-0.098041,0
2024-12-13 15:23:09.131,0.715753,2.27438,9.78455,0.0133623,-0.0465007,-0.101095,0
2024-12-13 15:23:09.133,0.744467,2.29113,9.77019,0.0115297,-0.0513875,-0.106593,0
2024-12-13 15:23:09.136,0.782752,2.31027,9.75584,0.00481042,-0.057496,-0.116366,0
2024-12-13 15:23:09.138,0.833001,2.33181,9.75823,-7.63559e-05,-0.0629936,-0.124918,0
2024-12-13 15:23:09.140,0.857229,2.35095,9.76062,-0.00251974,-0.0660479,-0.134081,0
2024-12-13 15:23:09.143,0.88355,2.3677,9.7678,-0.00679568,-0.0678804,-0.142633,0
2024-12-13 15:23:09.145,0.912264,2.38445,9.78694,-0.0141258,-0.0715455,-0.152406,0
2024-12-13 15:23:09.147,0.931406,2.41316,9.8013,-0.0147367,-0.0727672,-0.159737,0
2024-12-13 15:23:09.150,0.957727,2.42513,9.83031,-0.0202343,-0.0764323,-0.170121,0
2024-12-13 15:23:09.152,0.991227,2.4347,9.86142,-0.0251211,-0.0764323,-0.178673,0
2024-12-13 15:23:09.154,1.01037,2.43709,9.89731,-0.0281753,-0.0794865,-0.191501,0
2024-12-13 15:23:09.157,1.02473,2.44188,9.94038,-0.0281753,-0.0770431,-0.19822,0
2024-12-13 15:23:09.159,1.05344,2.45863,9.97867,-0.029397,-0.0752106,-0.207383,0
2024-12-13 15:23:09.162,1.08694,2.44666,10.0146,-0.029397,-0.0752106,-0.217767,0
2024-12-13 15:23:09.164,1.11565,2.42752,10.0457,-0.0281753,-0.0721563,-0.225708,0
2024-12-13 15:23:09.166,1.13719,2.4347,10.0792,-0.0269536,-0.0672696,-0.233649,0
2024-12-13 15:23:09.169,1.14915,2.45145,10.1103,-0.0269536,-0.0623828,-0.244644,0
2024-12-13 15:23:09.171,1.15633,2.44666,10.1055,-0.0220669,-0.0556635,-0.253807,0
2024-12-13 15:23:09.173,1.17069,2.44427,10.1055,-0.0232886,-0.0483333,-0.261748,0
2024-12-13 15:23:09.176,1.17308,2.44427,10.127,-0.0226777,-0.0434465,-0.2703,0
2024-12-13 15:23:09.178,1.17787,2.43948,10.1198,-0.0171801,-0.033673,-0.278241,0
2024-12-13 15:23:09.180,1.17787,2.43948,10.1103,-0.0141258,-0.0287862,-0.285571,0
2024-12-13 15:23:09.183,1.15872,2.45145,10.1031,-0.0129041,-0.0263428,-0.289847,0
2024-12-13 15:23:09.185,1.14676,2.45863,10.0959,-0.00862822,-0.0220669,-0.295956,0
2024-12-13 15:23:09.188,1.14437,2.47298,10.084,-0.00740652,-0.0208452,-0.302064,0
2024-12-13 15:23:09.190,1.15633,2.47777,10.0768,-0.00313059,-0.0171801,-0.306951,0
2024-12-13 15:23:09.192,1.1659,2.47777,10.0696,0.00236703,-0.0122933,-0.313059,0
2024-12-13 15:23:09.195,1.17308,2.47777,10.0672,0.00725381,-0.0122933,-0.316724,0
2024-12-13 15:23:09.197,1.17308,2.47298,10.0672,0.0127514,-0.00923906,-0.321611,0
2024-12-13 15:23:09.199,1.18265,2.48016,10.0528,0.0176382,-0.00313059,-0.327109,0
2024-12-13 15:23:09.202,1.2018,2.49691,10.0241,0.0219141,0.000534491,-0.331385,0
2024-12-13 15:23:09.204,1.21854,2.51845,9.99303,0.0261901,0.00664296,-0.337493,0
2024-12-13 15:23:09.206,1.24008,2.52592,9.97388,0.0322986,0.010308,-0.341158,0
2024-12-13 15:23:09.209,1.24008,2.53549,9.94517,0.0377962,0.0164165,-0.348488,0
2024-12-13 15:23:09.211,1.23769,2.54985,9.89971,0.0420721,0.0237467,-0.354597,0
2024-12-13 15:23:09.213,1.24008,2.57378,9.85185,0.0469589,0.0298552,-0.361316,0
2024-12-13 15:23:09.216,1.2329,2.59053,9.80369,0.0530674,0.0347419,-0.363149,0
2024-12-13 15:23:09.218,1.22572,2.60728,9.75105,0.0573433,0.038407,-0.367425,0
2024-12-13 15:23:09.220,1.22572,2.63599,9.69841,0.058565,0.0420721,-0.372311,0
2024-12-13 15:23:09.223,1.24008,2.65992,9.64098,0.058565,0.046348,-0.379642,0
2024-12-13 15:23:09.225,1.24247,2.68146,9.58595,0.0610084,0.0530674,-0.382085,0
2024-12-13 15:23:09.227,1.24008,2.69342,9.54288,0.0622301,0.0524565,-0.388804,0
2024-12-13 15:23:09.230,1.25444,2.69821,9.50698,0.0610084,0.0548999,-0.394913,0
2024-12-13 15:23:09.232,1.25922,2.70778,9.46152,0.0628409,0.0555107,-0.3998,0
2024-12-13 15:23:09.235,1.25922,2.73171,9.40888,0.0597867,0.0573433,-0.405297,0
2024-12-13 15:23:09.237,1.26879,2.76042,9.3682,0.0603975,0.0622301,-0.411406,0
2024-12-13 15:23:09.239,1.26401,2.79153,9.33709,0.0597867,0.0634518,-0.415682,0
2024-12-13 15:23:09.242,1.27119,2.81067,9.30838,0.058565,0.0652843,-0.420568,0
2024-12-13 15:23:09.244,1.28794,2.82263,9.28445,0.0579541,0.0652843,-0.427288,0
2024-12-13 15:23:09.246,1.28315,2.83938,9.27009,0.0536782,0.0640626,-0.431564,0
2024-12-13 15:23:09.249,1.28315,2.86331,9.24587,0.0530674,0.0622301,-0.437061,0
2024-12-13 15:23:09.251,1.29751,2.88724,9.21476,0.0524565,0.0603975,-0.443781,0
2024-12-13 15:23:09.253,1.31186,2.88963,9.17887,0.0500131,0.0542891,-0.448667,0
2024-12-13 15:23:09.256,1.32144,2.87767,9.12862,0.0481806,0.0481806,-0.453554,0
2024-12-13 15:23:09.258,1.33579,2.87288,9.07358,0.0439046,0.0445155,-0.461495,0
2024-12-13 15:23:09.260,1.35254,2.87767,9.02333,0.0402396,0.0396287,-0.470658,0
2024-12-13 15:23:09.263,1.35733,2.9016,8.96351,0.0329094,0.0353528,-0.478599,0
2024-12-13 15:23:09.265,1.35015,2.93988,8.90848,0.0219141,0.0322986,-0.487151,0
2024-12-13 15:23:09.269,1.33101,2.98535,8.86541,0.00481042,0.0194708,-0.506087,0
2024-12-13 15:23:09.270,1.42223,2.95663,8.85584,0.00481042,0.0194708,-0.506087,0
2024-12-13 15:23:09.272,1.89362,2.69103,9.24108,-0.00618483,-0.00374144,-0.525634,0
2024-12-13 15:23:09.275,1.95105,2.6001,9.34188,-0.00129805,-0.0367272,-0.559231,0
2024-12-13 15:23:09.277,1.49641,2.82263,8.8678,-0.00618483,-0.0232886,-0.581832,0
2024-12-13 15:23:09.279,1.36211,2.96142,8.8008,-0.0122933,-0.00313059,-0.596492,0
2024-12-13 15:23:09.282,1.25683,3.09093,8.92762,-0.0202343,-0.00557398,-0.608709,0
2024-12-13 15:23:09.284,1.08455,3.24885,8.90369,-0.0300079,-0.00557398,-0.616039,0
2024-12-13 15:23:09.286,1.00558,3.34218,8.87498,-0.041614,-0.0110716,-0.619094,0
2024-12-13 15:23:09.289,0.938585,3.41635,8.81755,-0.0526092,-0.0226777,-0.620926,0
2024-12-13 15:23:09.291,0.835394,3.49292,8.67368,-0.0678804,-0.0312296,-0.622148,0
2024-12-13 15:23:09.293,0.758824,3.51685,8.56122,-0.0886492,-0.0361163,-0.620315,0
2024-12-13 15:23:09.296,0.773181,3.50489,8.54447,-0.116137,-0.0465007,-0.617872,0
2024-12-13 15:23:09.298,0.8668,3.45942,8.57318,-0.137517,-0.0636045,-0.618483,0
2024-12-13 15:23:09.303,1.08455,3.3015,8.66411,-0.160118,-0.0843733,-0.62337,0
2024-12-13 15:23:09.303,1.08455,3.3015,8.66411,-0.160118,-0.0843733,-0.62337,0
2024-12-13 15:23:09.305,1.1683,3.21296,8.7338,-0.206543,-0.122857,-0.649636,0
2024-12-13 15:23:09.308,1.23769,3.14596,8.82712,-0.224868,-0.141182,-0.66674,0
2024-12-13 15:23:09.310,1.27837,3.11007,8.92284,-0.244415,-0.158286,-0.688119,0
2024-12-13 15:23:09.312,1.28554,3.10768,9.02094,-0.258465,-0.174168,-0.708277,0
2024-12-13 15:23:09.315,1.26401,3.11964,9.14058,-0.271293,-0.189439,-0.730268,0
2024-12-13 15:23:09.317,1.19222,3.12443,9.22912,-0.28412,-0.201045,-0.74615,0
2024-12-13 15:23:09.319,1.10848,3.12682,9.28684,-0.293894,-0.21204,-0.763254,0
2024-12-13 15:23:09.322,1.04387,3.14357,9.35145,-0.3055,-0.219371,-0.776081,0
2024-12-13 15:23:09.324,0.984048,3.16989,9.44716,-0.314663,-0.219371,-0.787077,0
2024-12-13 15:23:09.326,0.926621,3.1675,9.5333,-0.322604,-0.219371,-0.797461,0
2024-12-13 15:23:09.329,0.864407,3.14836,9.62423,-0.329934,-0.222425,-0.807235,0
2024-12-13 15:23:09.331,0.809073,3.11964,9.72712,-0.334821,-0.223036,-0.816397,0
2024-12-13 15:23:09.333,0.76361,3.08584,9.81326,-0.34154,-0.219981,-0.822506,0
2024-12-13 15:23:09.336,0.718146,3.0332,9.89013,-0.34154,-0.219371,-0.828614,0
2024-12-13 15:23:09.338,0.665504,2.98056,9.9667,-0.343983,-0.219981,-0.835334,0
2024-12-13 15:23:09.341,0.605683,2.93988,10.0528,-0.342762,-0.218149,-0.838999,0
2024-12-13 15:23:09.343,0.548256,2.8992,10.1366,-0.339707,-0.216927,-0.842664,0
2024-12-13 15:23:09.345,0.4669,2.86331,10.2012,-0.336653,-0.212651,-0.845107,0
2024-12-13 15:23:09.348,0.383151,2.82981,10.2538,-0.332377,-0.205321,-0.843885,0
2024-12-13 15:23:09.350,0.297009,2.81306,10.3041,-0.323825,-0.201045,-0.840831,0
2024-12-13 15:23:09.352,0.196211,2.81785,10.3519,-0.317106,-0.192493,-0.835334,0
2024-12-13 15:23:09.355,0.11007,2.80588,10.3929,-0.3055,-0.187606,-0.828003,0
2024-12-13 15:23:09.357,0.0167498,2.78913,10.4336,-0.292672,-0.180887,-0.81823,0
2024-12-13 15:23:09.359,-0.0909273,2.77956,10.4743,-0.281066,-0.173557,-0.806624,0
2024-12-13 15:23:09.362,-0.167498,2.75324,10.491,-0.26946,-0.16867,-0.792574,0
2024-12-13 15:23:09.364,-0.222533,2.72213,10.4958,-0.254189,-0.163783,-0.779136,0
2024-12-13 15:23:09.366,-0.287438,2.71974,10.5102,-0.241361,-0.158286,-0.764475,0
2024-12-13 15:23:09.369,-0.347258,2.71496,10.5174,-0.222425,-0.155232,-0.749204,0
2024-12-13 15:23:09.371,-0.392722,2.68385,10.5221,-0.207764,-0.151566,-0.732711,0
2024-12-13 15:23:09.374,-0.431007,2.67428,10.5197,-0.191882,-0.146069,-0.714997,0
2024-12-13 15:23:09.376,-0.457328,2.67428,10.5006,-0.173557,-0.142404,-0.698504,0
2024-12-13 15:23:09.378,-0.488435,2.65274,10.4743,-0.155842,-0.138128,-0.682622,0
2024-12-13 15:23:09.381,-0.514756,2.62881,10.4432,-0.137517,-0.134463,-0.665518,0
2024-12-13 15:23:09.383,-0.529113,2.62403,10.3881,-0.120413,-0.130187,-0.646582,0
2024-12-13 15:23:09.385,-0.533899,2.61685,10.3376,-0.10392,-0.124078,-0.6307,0
2024-12-13 15:23:09.388,-0.545863,2.61685,10.2873,-0.0892601,-0.121024,-0.613596,0
2024-12-13 15:23:09.390,-0.586541,2.62164,10.2323,-0.073378,-0.119192,-0.596492,0
2024-12-13 15:23:09.392,-0.591326,2.62403,10.1749,-0.0593285,-0.116137,-0.582443,0
2024-12-13 15:23:09.395,-0.588933,2.62403,10.1103,-0.0458899,-0.112472,-0.565339,0
2024-12-13 15:23:09.397,-0.593719,2.61924,10.0409,-0.033673,-0.108807,-0.551901,0
2024-12-13 15:23:09.399,-0.586541,2.61446,9.97628,-0.0220669,-0.109418,-0.536629,0
2024-12-13 15:23:09.402,-0.600898,2.60249,9.90928,-0.0129041,-0.107585,-0.519526,0
2024-12-13 15:23:09.404,-0.610469,2.60249,9.87099,-0.00129805,-0.106975,-0.506087,0
2024-12-13 15:23:09.406,-0.600898,2.60489,9.83749,0.00908635,-0.105142,-0.49387,0
2024-12-13 15:23:09.409,-0.596112,2.60249,9.78455,0.0176382,-0.104531,-0.479821,0
2024-12-13 15:23:09.411,-0.605683,2.60249,9.72952,0.0249684,-0.10331,-0.466382,0
2024-12-13 15:23:09.414,-0.612862,2.6001,9.69362,0.0365745,-0.101477,-0.454165,0
2024-12-13 15:23:09.416,-0.610469,2.59771,9.65295,0.046348,-0.0996445,-0.441948,0
2024-12-13 15:23:09.418,-0.615255,2.59292,9.6003,0.0555107,-0.0965902,-0.430953,0
2024-12-13 15:23:09.421,-0.600898,2.57617,9.53809,0.0634518,-0.0929251,-0.419957,0
2024-12-13 15:23:09.423,-0.591326,2.57378,9.48784,0.0732253,-0.0923143,-0.410184,0
2024-12-13 15:23:09.425,-0.605683,2.56899,9.4352,0.0781121,-0.093536,-0.3998,0
2024-12-13 15:23:09.428,-0.617647,2.54985,9.3682,0.0860531,-0.093536,-0.390637,0
2024-12-13 15:23:09.430,-0.639183,2.54267,9.30838,0.0891073,-0.0923143,-0.381474,0
2024-12-13 15:23:09.432,-0.648754,2.54985,9.2677,0.0915507,-0.0929251,-0.373533,0
2024-12-13 15:23:09.435,-0.655932,2.55703,9.22912,0.0952158,-0.093536,-0.36437,0
2024-12-13 15:23:09.437,-0.677468,2.55224,9.18605,0.0970484,-0.0965902,-0.356429,0
2024-12-13 15:23:09.439,-0.703789,2.54746,9.15494,0.101324,-0.0978119,-0.347267,0
2024-12-13 15:23:09.442,-0.749253,2.54267,9.12862,0.101935,-0.0990336,-0.337493,0
2024-12-13 15:23:09.444,-0.789931,2.54985,9.11665,0.104379,-0.0990336,-0.32833,0
2024-12-13 15:23:09.447,-0.811466,2.55942,9.11905,0.103157,-0.100866,-0.317946,0
2024-12-13 15:23:09.449,-0.821037,2.54985,9.1358,0.107433,-0.100866,-0.30634,0
2024-12-13 15:23:09.451,-0.828216,2.54507,9.14058,0.11293,-0.101477,-0.296566,0
2024-12-13 15:23:09.455,-0.85005,2.5331,9.13101,0.121482,-0.101477,-0.273965,0
2024-12-13 15:23:09.456,-0.876371,2.52323,9.13819,0.121482,-0.101477,-0.273965,0
2024-12-13 15:23:09.459,-0.895514,2.50409,9.13101,0.135532,-0.0965902,-0.251974,0
2024-12-13 15:23:09.461,-0.9003,2.47059,9.11426,0.135532,-0.0965902,-0.251974,0
2024-12-13 15:23:09.463,-0.895514,2.44188,9.0999,0.139197,-0.0947577,-0.239147,0
2024-12-13 15:23:09.465,-0.9003,2.41795,9.0688,0.146527,-0.0941468,-0.229984,0
2024-12-13 15:23:09.468,-0.924228,2.39402,9.03769,0.149581,-0.0941468,-0.2196,0
2024-12-13 15:23:09.470,-0.945763,2.37248,9.01855,0.154468,-0.093536,-0.206772,0
2024-12-13 15:23:09.472,-0.945763,2.35573,8.98983,0.156911,-0.0947577,-0.195777,0
2024-12-13 15:23:09.475,-0.955334,2.33659,8.95155,0.158744,-0.0953685,-0.18417,0
2024-12-13 15:23:09.477,-0.97687,2.31506,8.91805,0.161798,-0.0947577,-0.167678,0
2024-12-13 15:23:09.480,-0.969691,2.30309,8.90369,0.159966,-0.0953685,-0.154239,0
2024-12-13 15:23:09.482,-0.974477,2.27916,8.88455,0.16302,-0.0929251,-0.143244,0
2024-12-13 15:23:09.484,-0.988834,2.2672,8.85823,0.161798,-0.0917034,-0.129194,0
2024-12-13 15:23:09.487,-0.979263,2.27438,8.83191,0.163631,-0.0898709,-0.115145,0
2024-12-13 15:23:09.489,-0.962513,2.25763,8.83191,0.161187,-0.085595,-0.101706,0
2024-12-13 15:23:09.491,-0.952942,2.24088,8.83669,0.161187,-0.0800973,-0.0888783,0
2024-12-13 15:23:09.494,-0.940978,2.21695,8.81277,0.158133,-0.0745997,-0.0754396,0
2024-12-13 15:23:09.496,-0.940978,2.19063,8.80798,0.158133,-0.0697129,-0.062001,0
2024-12-13 15:23:09.498,-0.931406,2.17388,8.80798,0.156301,-0.0636045,-0.0503949,0
2024-12-13 15:23:09.501,-0.912264,2.16431,8.8008,0.153246,-0.0568851,-0.0363454,0
2024-12-13 15:23:09.503,-0.890728,2.15234,8.81037,0.152025,-0.0532201,-0.025961,0
2024-12-13 15:23:09.505,-0.873978,2.14277,8.80798,0.149581,-0.0452791,-0.0149658,0
2024-12-13 15:23:09.508,-0.871586,2.1332,8.8008,0.149581,-0.0397814,-0.00335966,0
2024-12-13 15:23:09.511,-0.8668,2.12124,8.8008,0.142862,-0.0263428,0.0198525,0
2024-12-13 15:23:09.512,-0.859622,2.10927,8.79841,0.142862,-0.0263428,0.0198525,0
2024-12-13 15:23:09.515,-0.852443,2.09013,8.79841,0.140419,-0.0202343,0.0302369,0
2024-12-13 15:23:09.517,-0.837787,2.07577,8.81277,0.138586,-0.0153475,0.041843,0
2024-12-13 15:23:09.520,-0.82343,2.07338,8.82712,0.136753,-0.0110716,0.0497841,0
2024-12-13 15:23:09.522,-0.80668,2.05185,8.82234,0.13431,-0.00679568,0.0632227,0
2024-12-13 15:23:09.524,-0.794716,2.02313,8.82952,0.130645,-0.00374144,0.0736071,0
2024-12-13 15:23:09.527,-0.787538,2.01356,8.84148,0.128812,-0.000687203,0.0833807,0
2024-12-13 15:23:09.529,-0.775574,1.98963,8.85344,0.130645,-0.00129805,0.0937651,0
2024-12-13 15:23:09.531,-0.766002,1.9657,8.87259,0.129423,0.00297788,0.10476,0
2024-12-13 15:23:09.534,-0.76361,1.95344,8.88934,0.130645,0.00908635,0.11209,0
2024-12-13 15:23:09.536,-0.775574,1.95105,8.90848,0.130034,0.0096972,0.123086,0
2024-12-13 15:23:09.538,-0.773181,1.95105,8.91087,0.130034,0.014584,0.134157,0
2024-12-13 15:23:09.541,-0.761217,1.93669,8.90609,0.129423,0.0176382,0.14332,0
2024-12-13 15:23:09.543,-0.754038,1.91037,8.90369,0.128202,0.0213033,0.154315,0
2024-12-13 15:23:09.545,-0.751645,1.89601,8.90848,0.129423,0.0231358,0.162867,0
2024-12-13 15:23:09.548,-0.749253,1.88644,8.9013,0.131867,0.0261901,0.175084,0
2024-12-13 15:23:09.550,-0.749253,1.86251,8.88934,0.130645,0.0316877,0.184858,0
2024-12-13 15:23:09.553,-0.744467,1.85294,8.89412,0.133088,0.0322986,0.195242,0
2024-12-13 15:23:09.555,-0.732503,1.84816,8.88934,0.131867,0.0359636,0.206848,0
2024-12-13 15:23:09.557,-0.722932,1.83619,8.88455,0.131256,0.0396287,0.217233,0
2024-12-13 15:23:09.560,-0.708575,1.81705,8.87259,0.131256,0.0408504,0.228228,0
2024-12-13 15:23:09.563,-0.706182,1.79551,8.85823,0.132477,0.0469589,0.252051,0
2024-12-13 15:23:09.564,-0.682254,1.8003,8.85344,0.132477,0.0469589,0.252051,0
2024-12-13 15:23:09.567,-0.634397,1.78355,8.85105,0.131867,0.0518457,0.262435,0
2024-12-13 15:23:09.569,-0.605683,1.75244,8.85584,0.132477,0.0555107,0.274041,0
2024-12-13 15:23:09.571,-0.56022,1.72134,8.85344,0.132477,0.0591758,0.283815,0
2024-12-13 15:23:09.574,-0.519542,1.68305,8.84626,0.131867,0.0652843,0.29481,0
2024-12-13 15:23:09.576,-0.495613,1.65434,8.84148,0.13431,0.0726145,0.305195,0
2024-12-13 15:23:09.578,-0.442971,1.63759,8.84387,0.136753,0.0781121,0.313746,0
2024-12-13 15:23:09.581,-0.385544,1.61605,8.8343,0.137975,0.0878856,0.324131,0
2024-12-13 15:23:09.583,-0.337687,1.59212,8.82712,0.139808,0.0982701,0.331461,0
2024-12-13 15:23:09.586,-0.297009,1.5658,8.83909,0.139197,0.108044,0.342456,0
2024-12-13 15:23:09.588,-0.251246,1.54905,8.8343,0.140419,0.120871,0.349786,0
2024-12-13 15:23:09.590,-0.217747,1.55384,8.83191,0.141029,0.138586,0.35956,0
2024-12-13 15:23:09.593,-0.191426,1.55862,8.82952,0.147749,0.157522,0.369334,0
2024-12-13 15:23:09.595,-0.162712,1.55145,8.82473,0.152025,0.179513,0.379107,0
2024-12-13 15:23:09.597,-0.136391,1.5347,8.81277,0.152025,0.179513,0.379107,0
2024-12-13 15:23:09.600,-0.100499,1.52752,8.8008,0.166074,0.227159,0.401708,0
2024-12-13 15:23:09.602,-0.0693919,1.52752,8.79841,0.176459,0.250982,0.409649,0
2024-12-13 15:23:09.604,-0.0478565,1.52513,8.77927,0.186232,0.277248,0.420645,0
2024-12-13 15:23:09.607,-0.040678,1.52991,8.7362,0.200282,0.304126,0.43164,0
2024-12-13 15:23:09.609,-0.0334995,1.54188,8.68325,0.21372,0.333446,0.440192,0
2024-12-13 15:23:09.611,-0.0143569,1.56102,8.62583,0.230213,0.362156,0.449965,0
2024-12-13 15:23:09.614,0.00239282,1.55862,8.56122,0.246706,0.392698,0.459128,0
2024-12-13 15:23:09.616,0.0239282,1.55145,8.50619,0.261977,0.420797,0.465237,0
2024-12-13 15:23:09.618,0.0598206,1.56341,8.42244,0.282135,0.448896,0.473788,0
2024-12-13 15:23:09.621,0.081356,1.57059,8.30997,0.282135,0.448896,0.473788,0
2024-12-13 15:23:09.623,0.0909273,1.58495,8.1999,0.318786,0.500208,0.484173,0
2024-12-13 15:23:09.626,0.112463,1.57777,8.08236,0.318786,0.500208,0.484173,0
2024-12-13 15:23:09.628,0.107677,1.54188,7.97707,0.355437,0.539302,0.492725,0
2024-12-13 15:23:09.633,0.0239282,1.54666,7.85025,0.395218,0.549686,0.506163,0
2024-12-13 15:23:09.633,0.0239282,1.54666,7.85025,0.395218,0.549686,0.506163,0
2024-12-13 15:23:09.635,-0.0334995,1.5347,7.77368,0.414154,0.549686,0.514715,0
2024-12-13 15:23:09.637,-0.0550349,1.5347,7.69233,0.437977,0.549075,0.5251,0
2024-12-13 15:23:09.640,-0.0454636,1.5323,7.6014,0.46119,0.547243,0.534873,0
2024-12-13 15:23:09.642,-0.026321,1.52034,7.47907,0.484402,0.546632,0.548312,0
2024-12-13 15:23:09.644,-0.00717847,1.5012,7.34507,0.505782,0.547854,0.559307,0
2024-12-13 15:23:09.647,-0.00717847,1.47966,7.22064,0.528383,0.548464,0.569691,0
2024-12-13 15:23:09.649,-0.0119641,1.48205,7.09621,0.549152,0.549075,0.578243,0
2024-12-13 15:23:09.651,-0.0143569,1.48684,6.97149,0.566866,0.549075,0.589849,0
2024-12-13 15:23:09.654,-0.0215354,1.48684,6.85903,0.584581,0.547243,0.599012,0
2024-12-13 15:23:09.656,-0.0287139,1.4988,6.74896,0.602295,0.541134,0.608786,0
2024-12-13 15:23:09.659,-0.0358923,1.53709,6.65085,0.616956,0.531972,0.61917,0
2024-12-13 15:23:09.661,-0.040678,1.58016,6.54317,0.629784,0.524641,0.630165,0
2024-12-13 15:23:09.663,-0.0478565,1.60648,6.42084,0.643222,0.515479,0.641771,0
2024-12-13 15:23:09.666,-0.0550349,1.62323,6.32273,0.653607,0.505705,0.653377,0
2024-12-13 15:23:09.668,-0.0598206,1.66869,6.22702,0.658493,0.49471,0.664373,0
2024-12-13 15:23:09.670,-0.0550349,1.70937,6.13131,0.667656,0.486158,0.675368,0
2024-12-13 15:23:09.673,-0.0215354,1.75244,6.0356,0.671321,0.475774,0.683309,0
2024-12-13 15:23:09.675,0.27996,1.63998,6.10259,0.676208,0.466611,0.690028,0
2024-12-13 15:23:09.677,0.749253,1.38126,6.41127,0.687814,0.431182,0.680255,0
2024-12-13 15:23:09.680,0.655932,1.38365,6.22941,0.698809,0.404915,0.66254,0
2024-12-13 15:23:09.682,0.342473,1.5658,5.78166,0.703696,0.422019,0.65521,0
2024-12-13 15:23:09.684,0.289831,1.67827,5.71705,0.707361,0.433625,0.649712,0
2024-12-13 15:23:09.687,0.22014,1.81944,5.69073,0.707361,0.438512,0.649712,0
2024-12-13 15:23:09.689,0.129212,1.97767,5.61416,0.704307,0.442788,0.652156,0
2024-12-13 15:23:09.691,0.0478565,2.11884,5.50888,0.697588,0.44462,0.654599,0
2024-12-13 15:23:09.694,0.00957129,2.22891,5.37488,0.682927,0.441566,0.66254,0
2024-12-13 15:23:09.696,0.0191426,2.29113,5.24297,0.660937,0.434847,0.668038,0
2024-12-13 15:23:09.699,0.0287139,2.33898,5.11137,0.638335,0.429349,0.672925,0
2024-12-13 15:23:09.701,0.0550349,2.37248,4.98933,0.607793,0.423852,0.675368,0
2024-12-13 15:23:09.703,0.148355,2.38923,4.88884,0.572364,0.421408,0.677811,0
2024-12-13 15:23:09.706,0.265603,2.38445,4.81944,0.534491,0.431182,0.677811,0
2024-12-13 15:23:09.708,0.375972,2.38206,4.82662,0.49051,0.435458,0.673535,0
2024-12-13 15:23:09.710,0.457328,2.40838,4.86012,0.443475,0.439123,0.663762,0
2024-12-13 15:23:09.713,0.486042,2.4658,4.87448,0.398272,0.44462,0.653377,0
2024-12-13 15:23:09.717,0.533899,2.59771,5.03958,0.306569,0.459892,0.619781,0
2024-12-13 15:23:09.717,0.533899,2.59771,5.03958,0.306569,0.459892,0.619781,0
2024-12-13 15:23:09.720,0.553041,2.66471,5.17119,0.265642,0.466611,0.59779,0
2024-12-13 15:23:09.722,0.567398,2.72453,5.32433,0.222883,0.473941,0.577632,0
2024-12-13 15:23:09.724,0.584148,2.77238,5.5017,0.1844,0.482493,0.55442,0
2024-12-13 15:23:09.727,0.588933,2.81785,5.68595,0.149581,0.491656,0.53243,0
2024-12-13 15:23:09.729,0.596112,2.85853,5.8678,0.120261,0.504483,0.509828,0
2024-12-13 15:23:09.732,0.593719,2.88485,6.05235,0.0927724,0.514868,0.484784,0
2024-12-13 15:23:09.734,0.581755,2.89442,6.26291,0.0683385,0.525863,0.458517,0
2024-12-13 15:23:09.736,0.562612,2.90638,6.45703,0.0475697,0.534415,0.435305,0
2024-12-13 15:23:09.739,0.533899,2.91356,6.62453,0.0298552,0.539913,0.410871,0
2024-12-13 15:23:09.741,0.493221,2.91595,6.79442,0.0158057,0.547243,0.38827,0
2024-12-13 15:23:09.743,0.435793,2.92552,6.93799,0.00175619,0.555184,0.370555,0
2024-12-13 15:23:09.746,0.378365,2.93749,7.03639,-0.00984991,0.563736,0.350397,0
2024-12-13 15:23:09.748,0.32333,2.93988,7.14168,-0.0196235,0.572287,0.332072,0
2024-12-13 15:23:09.750,0.270389,2.94945,7.25893,-0.033673,0.58145,0.318022,0
2024-12-13 15:23:09.753,0.191426,2.97338,7.38814,-0.0434465,0.591835,0.307027,0
2024-12-13 15:23:09.755,0.0622134,2.99731,7.51496,-0.0538309,0.602219,0.297254,0
2024-12-13 15:23:09.757,-0.0717847,3.05952,7.63729,-0.065437,0.613825,0.289923,0
2024-12-13 15:23:09.760,-0.222533,3.13639,7.74258,-0.0727672,0.627264,0.288091,0
2024-12-13 15:23:09.762,-0.419043,3.22493,7.84786,-0.0788757,0.645589,0.289313,0
2024-12-13 15:23:09.765,-0.629611,3.33021,7.95075,-0.0880384,0.666358,0.293588,0
2024-12-13 15:23:09.767,-0.837787,3.41635,8.04646,-0.0947577,0.690181,0.304584,0
2024-12-13 15:23:09.769,-1.05344,3.49292,8.14008,-0.0959794,0.71347,0.317412,0
2024-12-13 15:23:09.772,-1.28794,3.57428,8.22622,-0.101477,0.732406,0.335737,0
2024-12-13 15:23:09.774,-1.50598,3.63889,8.31476,-0.105142,0.75012,0.357727,0
2024-12-13 15:23:09.776,-1.67587,3.68704,8.41287,-0.11064,0.765392,0.382161,0
2024-12-13 15:23:09.779,-1.82184,3.72533,8.52054,-0.116137,0.775776,0.41026,0
2024-12-13 15:23:09.783,-1.94626,3.73968,8.71227,-0.122246,0.775776,0.463404,0
2024-12-13 15:23:09.783,-1.94626,3.73968,8.71227,-0.122246,0.775776,0.463404,0
2024-12-13 15:23:09.786,-1.9343,3.71815,8.78884,-0.122857,0.761116,0.490281,0
2024-12-13 15:23:09.788,-1.9008,3.67747,8.8343,-0.130798,0.731795,0.512883,0
2024-12-13 15:23:09.790,-1.82662,3.61735,8.83909,-0.143625,0.687127,0.53243,0
2024-12-13 15:23:09.793,-1.71655,3.53121,8.81516,-0.161951,0.621155,0.544647,0
2024-12-13 15:23:09.795,-1.57777,3.42592,8.78644,-0.192493,0.528917,0.551977,0
2024-12-13 15:23:09.797,-1.44616,3.31107,8.76252,-0.231587,0.416521,0.55442,0
2024-12-13 15:23:09.802,-1.18744,3.13161,8.85584,-0.347648,0.131867,0.54709,0
2024-12-13 15:23:09.802,-1.18744,3.13161,8.85584,-0.347648,0.131867,0.54709,0
2024-12-13 15:23:09.805,-1.02233,3.05234,9.00419,-0.419118,-0.0232886,0.53976,0
2024-12-13 15:23:09.807,-0.847657,2.99013,9.2677,-0.49303,-0.181498,0.524489,0
2024-12-13 15:23:09.809,-0.694218,2.9686,9.6673,-0.567553,-0.331766,0.510439,0
2024-12-13 15:23:09.812,-0.586541,2.9686,10.1629,-0.642077,-0.47165,0.498222,0
2024-12-13 15:23:09.814,-0.464507,2.96381,10.7088,-0.711713,-0.596874,0.484784,0
2024-12-13 15:23:09.816,-0.347258,2.97577,11.2857,-0.772798,-0.700718,0.470123,0
2024-12-13 15:23:09.819,-0.260818,2.99013,11.9441,-0.82472,-0.783183,0.458517,0
2024-12-13 15:23:09.821,-0.153141,2.9662,12.6817,-0.82472,-0.783183,0.458517,0
2024-12-13 15:23:09.823,0.0143569,2.8992,13.4548,-0.899244,-0.897411,0.435305,0
2024-12-13 15:23:09.826,0.224925,2.79871,14.2208,-0.915126,-0.928564,0.420645,0
2024-12-13 15:23:09.828,0.435793,2.67428,14.9201,-0.920012,-0.943225,0.403541,0
2024-12-13 15:23:09.831,0.634397,2.52832,15.5258,-0.910239,-0.936505,0.382772,0
2024-12-13 15:23:09.833,0.797109,2.3677,16.0717,-0.894968,-0.913293,0.363225,0
2024-12-13 15:23:09.835,0.96012,2.18345,16.5745,-0.865647,-0.872977,0.339402,0
2024-12-13 15:23:09.838,1.12522,1.9992,17.0148,-0.833272,-0.821055,0.312525,0
2024-12-13 15:23:09.840,1.25922,1.8003,17.3788,-0.79601,-0.760581,0.291145,0
2024-12-13 15:23:09.842,1.36211,1.57537,17.6877,-0.753862,-0.691555,0.269765,0
2024-12-13 15:23:09.845,1.4342,1.34536,17.9246,-0.711103,-0.616421,0.250218,0
2024-12-13 15:23:09.849,1.47488,1.13719,18.2046,-0.617643,-0.445384,0.221508,0
2024-12-13 15:23:09.849,1.47488,0.929013,18.2046,-0.617643,-0.445384,0.221508,0
2024-12-13 15:23:09.852,1.4653,0.722932,18.2647,-0.571219,-0.354979,0.216011,1
2024-12-13 15:23:09.854,1.44377,0.555434,18.2551,-0.526016,-0.260908,0.213567,0
2024-12-13 15:23:09.856,1.38844,0.404686,18.1926,-0.481424,-0.168059,0.217233,0
2024-12-13 15:23:09.859,1.30947,0.260818,18.0754,-0.442941,-0.073378,0.225174,0
2024-12-13 15:23:09.862,1.20658,0.160319,17.9198,-0.37758,0.11232,0.256938,0
2024-12-13 15:23:09.863,1.08215,0.0885344,17.7404,-0.37758,0.11232,0.256938,0
2024-12-13 15:23:09.866,0.924228,0.0526421,17.5223,-0.37758,0.11232,0.256938,0
2024-12-13 15:23:09.868,0.744467,0.0717847,17.2878,-0.332377,0.287633,0.302751,0
2024-12-13 15:23:09.871,0.576969,0.12682,17.0363,-0.320771,0.373151,0.328407,0
2024-12-13 15:23:09.873,0.428614,0.208176,16.8018,-0.310998,0.453172,0.35956,0
2024-12-13 15:23:09.875,0.308973,0.313759,16.6199,-0.308554,0.525252,0.387048,0
2024-12-13 15:23:09.878,0.198604,0.426222,16.4522,-0.306722,0.58817,0.411482,0
2024-12-13 15:23:09.880,0.0837488,0.550648,16.3086,-0.304889,0.648643,0.430418,0
2024-12-13 15:23:09.882,-0.040678,0.694218,16.1674,-0.307943,0.702474,0.450576,0
2024-12-13 15:23:09.885,-0.174676,0.873978,16.0095,-0.312219,0.753785,0.46768,0
2024-12-13 15:23:09.887,-0.289831,1.07498,15.8728,-0.316495,0.803875,0.481729,0
2024-12-13 15:23:09.889,-0.375972,1.25204,15.7651,-0.321382,0.846634,0.492114,0
2024-12-13 15:23:09.892,-0.474078,1.4342,15.6574,-0.328712,0.882674,0.500666,0
2024-12-13 15:23:09.894,-0.586541,1.62323,15.5593,-0.332988,0.908941,0.505552,0
2024-12-13 15:23:09.896,-0.670289,1.8003,15.4612,-0.339707,0.923601,0.509828,0
2024-12-13 15:23:09.899,-0.749253,1.98724,15.2886,-0.347038,0.927877,0.507996,0
2024-12-13 15:23:09.901,-0.821037,2.17866,15.1092,-0.359255,0.927877,0.503109,0
2024-12-13 15:23:09.903,-0.80668,2.32463,15.0015,-0.372082,0.916882,0.493946,0
2024-12-13 15:23:09.906,-0.710967,2.38445,14.9369,-0.386743,0.893059,0.479286,0
2024-12-13 15:23:09.908,-0.722932,2.51127,14.7236,-0.402014,0.863127,0.462182,0
2024-12-13 15:23:09.913,-0.737288,2.75563,14.4054,-0.446606,0.816092,0.422477,0
2024-12-13 15:23:09.913,-0.737288,2.75563,14.4054,-0.446606,0.816092,0.422477,0
2024-12-13 15:23:09.915,-0.579362,2.75563,14.4676,-0.467375,0.770278,0.397433,0
2024-12-13 15:23:09.919,-0.445364,2.73888,14.47,-0.513188,0.670634,0.336348,0
2024-12-13 15:23:09.920,-0.320937,2.71496,14.4844,-0.513188,0.670634,0.336348,0
2024-12-13 15:23:09.922,-0.215354,2.72453,14.4891,-0.527848,0.628486,0.300308,0
2024-12-13 15:23:09.925,-0.112463,2.73888,14.525,-0.542509,0.593667,0.2661,0
2024-12-13 15:23:09.927,-0.0526421,2.74846,14.5944,-0.554115,0.563125,0.230671,0
2024-12-13 15:23:09.929,-0.040678,2.76521,14.6136,-0.559612,0.536858,0.196464,0
2024-12-13 15:23:09.932,-0.0334995,2.7676,14.6327,-0.563278,0.514868,0.166532,0
2024-12-13 15:23:09.934,-0.00717847,2.72213,14.7356,-0.565721,0.489212,0.135379,0
2024-12-13 15:23:09.936,0.0358923,2.64317,14.8409,-0.560223,0.460502,0.102928,0
2024-12-13 15:23:09.939,0.0837488,2.53549,14.9082,-0.548617,0.436069,0.0736071,0
2024-12-13 15:23:09.941,0.141177,2.4012,14.9871,-0.532735,0.412246,0.0467298,0
2024-12-13 15:23:09.944,0.184247,2.27916,15.0709,-0.511966,0.392698,0.0174091,0
2024-12-13 15:23:09.946,0.179462,2.17149,15.1499,-0.482646,0.373151,-0.0125224,0
2024-12-13 15:23:09.948,0.124427,2.0686,15.2192,-0.445384,0.354826,-0.0375671,0
2024-12-13 15:23:09.953,-0.0789631,2.0016,15.2408,-0.354979,0.323062,-0.0809373,0
2024-12-13 15:23:09.953,-0.0789631,2.0016,15.2408,-0.354979,0.323062,-0.0809373,0
2024-12-13 15:23:09.955,-0.222533,1.97767,15.2192,-0.302446,0.307791,-0.0968193,0
2024-12-13 15:23:09.958,-0.378365,1.98963,15.1451,-0.247469,0.294963,-0.107204,0
2024-12-13 15:23:09.962,-0.655932,2.03749,14.9154,-0.124078,0.280913,-0.117588,0
2024-12-13 15:23:09.962,-0.655932,2.03749,14.9154,-0.124078,0.280913,-0.117588,0
2024-12-13 15:23:09.967,-0.833001,2.08535,14.5322,0.00358873,0.287633,-0.115756,0
2024-12-13 15:23:09.967,-0.833001,2.08535,14.5322,0.00358873,0.287633,-0.115756,0
2024-12-13 15:23:09.969,-0.873978,2.08295,14.3022,0.066506,0.292519,-0.112701,0
2024-12-13 15:23:09.972,-0.9003,2.06142,14.0222,0.130645,0.301682,-0.107204,0
2024-12-13 15:23:09.974,-0.912264,2.06381,13.7133,0.191119,0.310234,-0.102928,0
2024-12-13 15:23:09.976,-0.933799,2.08774,13.3926,0.246706,0.318786,-0.0968193,0
2024-12-13 15:23:09.979,-0.972084,2.11645,13.0454,0.30046,0.328559,-0.0931542,0
2024-12-13 15:23:09.981,-1.01037,2.14756,12.6841,0.348107,0.338944,-0.0846023,0
2024-12-13 15:23:09.984,-1.0343,2.19302,12.32,0.395218,0.349328,-0.0784939,0
2024-12-13 15:23:09.986,-1.03669,2.24088,11.9536,0.434312,0.360324,-0.0711637,0
2024-12-13 15:23:09.988,-1.03669,2.27677,11.5732,0.467298,0.373762,-0.0650552,0
2024-12-13 15:23:09.991,-1.01276,2.31266,11.2164,0.49723,0.389644,-0.0595576,0
2024-12-13 15:23:09.993,-1.00319,2.3677,10.8619,0.525329,0.405526,-0.0571142,0
2024-12-13 15:23:09.995,-0.99362,2.42513,10.4815,0.54793,0.422019,-0.0528383,0
2024-12-13 15:23:09.998,-0.74686,2.3677,10.2275,0.565034,0.439123,-0.0510057,0
2024-12-13 15:23:10.000,-0.189033,2.10927,10.3615,0.583359,0.430571,-0.0644444,0
2024-12-13 15:23:10.005,-0.536291,2.25045,9.31316,0.620621,0.459281,-0.110258,0
2024-12-13 15:23:10.009,-0.8668,2.50648,8.65215,0.628562,0.518533,-0.131027,0
2024-12-13 15:23:10.009,-0.8668,2.50648,8.65215,0.628562,0.518533,-0.131027,0
2024-12-13 15:23:10.010,-0.8668,2.50648,8.65215,0.628562,0.518533,-0.131027,0
2024-12-13 15:23:10.012,-1.08215,2.67428,8.3028,0.621232,0.539302,-0.134081,0
2024-12-13 15:23:10.014,-1.14437,2.78196,8.04886,0.610847,0.547854,-0.135914,0
2024-12-13 15:23:10.017,-1.17308,2.87049,7.75693,0.590689,0.546632,-0.135914,0
2024-12-13 15:23:10.019,-1.17787,2.95185,7.436,0.568088,0.546021,-0.136524,0
2024-12-13 15:23:10.021,-1.15155,3.01645,7.13211,0.535713,0.547243,-0.138357,0
2024-12-13 15:23:10.024,-1.14915,3.05474,6.82792,0.501506,0.551519,-0.140189,0
2024-12-13 15:23:10.026,-1.14915,3.07149,6.5671,0.463022,0.558849,-0.146298,0
2024-12-13 15:23:10.028,-1.09651,3.06192,6.39213,0.41782,0.560681,-0.153017,0
2024-12-13 15:23:10.031,-1.01994,3.03799,6.27727,0.37506,0.560071,-0.163402,0
2024-12-13 15:23:10.033,-0.998405,3.02363,6.16002,0.32917,0.555184,-0.17684,0
2024-12-13 15:23:10.035,-0.979263,3.01645,6.06431,0.282135,0.549686,-0.192111,0
2024-12-13 15:23:10.038,-0.929013,2.9997,6.05713,0.237543,0.539302,-0.207993,0
2024-12-13 15:23:10.040,-0.881157,2.94945,6.08345,0.196616,0.525863,-0.228762,0
2024-12-13 15:23:10.042,-0.84018,2.91117,6.11934,0.155079,0.512424,-0.250753,0
2024-12-13 15:23:10.047,-0.854836,2.85374,6.25095,0.0860531,0.482493,-0.29168,0
2024-12-13 15:23:10.047,-0.854836,2.85374,6.25095,0.0860531,0.482493,-0.29168,0
2024-12-13 15:23:10.052,-0.94337,2.79392,6.43759,0.0371853,0.455005,-0.334439,0
2024-12-13 15:23:10.052,-0.94337,2.79392,6.43759,0.0371853,0.455005,-0.334439,0
2024-12-13 15:23:10.054,-1.02233,2.78435,6.54796,0.0176382,0.440955,-0.350932,0
2024-12-13 15:23:10.057,-1.07976,2.76042,6.63649,0.00297788,0.426295,-0.368035,0
2024-12-13 15:23:10.059,-1.15155,2.73171,6.74417,-0.00374144,0.412856,-0.382085,0
2024-12-13 15:23:10.061,-1.24008,2.70778,6.85663,-0.00984991,0.395753,-0.391248,0
2024-12-13 15:23:10.066,-1.35972,2.61924,7.01964,-0.0141258,0.355437,-0.404075,0
2024-12-13 15:23:10.066,-1.35972,2.61924,7.01964,-0.0141258,0.355437,-0.404075,0
2024-12-13 15:23:10.068,-1.4004,2.57378,7.08664,-0.0122933,0.334057,-0.407741,0
2024-12-13 15:23:10.071,-1.44855,2.51366,7.15125,-0.00435229,0.307791,-0.408351,0
2024-12-13 15:23:10.073,-1.51316,2.4682,7.22064,0.00175619,0.279692,-0.412627,0
2024-12-13 15:23:10.075,-1.55862,2.41795,7.27568,0.0115297,0.253425,-0.413849,0
2024-12-13 15:23:10.078,-1.59691,2.37727,7.30678,0.0200816,0.224105,-0.412016,0
2024-12-13 15:23:10.080,-1.63759,2.35095,7.33789,0.0322986,0.196006,-0.407741,0
2024-12-13 15:23:10.082,-1.68066,2.33659,7.37857,0.0457372,0.167907,-0.404686,0
2024-12-13 15:23:10.085,-1.72373,2.31745,7.39532,0.0603975,0.139197,-0.403465,0
2024-12-13 15:23:10.090,-1.79551,2.28873,7.34028,0.0860531,0.0805555,-0.390637,0
2024-12-13 15:23:10.090,-1.79551,2.28873,7.34028,0.0860531,0.0805555,-0.390637,0
2024-12-13 15:23:10.092,-1.83141,2.28873,7.31396,0.0970484,0.0512348,-0.384528,0
2024-12-13 15:23:10.094,-1.87448,2.26959,7.27328,0.109876,0.022525,-0.377198,0
2024-12-13 15:23:10.097,-1.89601,2.26241,7.21107,0.119039,-0.00862822,-0.368646,0
2024-12-13 15:23:10.099,-1.91516,2.26481,7.14646,0.127591,-0.0379489,-0.361927,0
2024-12-13 15:23:10.101,-1.9343,2.2672,7.07946,0.130645,-0.0684913,-0.355208,0
2024-12-13 15:23:10.104,-1.94387,2.25045,7.0002,0.132477,-0.0996445,-0.348488,0
2024-12-13 15:23:10.106,-1.93908,2.24088,6.92363,0.133699,-0.128354,-0.34238,0
2024-12-13 15:23:10.108,-1.93191,2.23609,6.87099,0.131256,-0.158286,-0.336882,0
2024-12-13 15:23:10.111,-1.90319,2.22652,6.82313,0.123926,-0.186385,-0.331385,0
2024-12-13 15:23:10.113,-1.86012,2.22413,6.75853,0.118428,-0.215095,-0.325887,0
2024-12-13 15:23:10.115,-1.82423,2.20499,6.71306,0.104379,-0.244415,-0.323444,0
2024-12-13 15:23:10.118,-1.79312,2.18584,6.69631,0.0915507,-0.271903,-0.321,0
2024-12-13 15:23:10.123,-1.71655,2.16909,6.68435,0.0555107,-0.330545,-0.319779,0
2024-12-13 15:23:10.123,-1.71655,2.16909,6.68435,0.0555107,-0.330545,-0.319779,0
2024-12-13 15:23:10.125,-1.68066,2.14995,6.70589,0.0359636,-0.359255,-0.319779,0
2024-12-13 15:23:10.127,-1.64237,2.13799,6.72503,0.0127514,-0.389797,-0.322833,0
2024-12-13 15:23:10.130,-1.59691,2.1332,6.76571,-0.0110716,-0.419118,-0.325887,0
2024-12-13 15:23:10.132,-1.55623,2.10688,6.83749,-0.033673,-0.444773,-0.32772,0
2024-12-13 15:23:10.134,-1.52513,2.08056,6.91645,-0.0593285,-0.469818,-0.333828,0
2024-12-13 15:23:10.137,-1.48205,2.0686,7.01217,-0.085595,-0.490587,-0.339936,0
2024-12-13 15:23:10.139,-1.44138,2.05424,7.12014,-0.107585,-0.510134,-0.342991,0
2024-12-13 15:23:10.141,-1.39561,2.03749,7.22782,-0.133241,-0.527238,-0.350321,0
2024-12-13 15:23:10.144,-1.35494,2.02074,7.34985,-0.155842,-0.544341,-0.35704,0
2024-12-13 15:23:10.146,-1.30469,2.0016,7.48624,-0.176611,-0.561445,-0.36437,0
2024-12-13 15:23:10.148,-1.25204,1.96301,7.6349,-0.196769,-0.577938,-0.374755,0
2024-12-13 15:23:10.151,-1.20897,1.92951,7.78325,-0.215095,-0.592598,-0.382085,0
2024-12-13 15:23:10.153,-1.17787,1.91516,7.94597,-0.234642,-0.60848,-0.394302,0
2024-12-13 15:23:10.156,-1.15394,1.89841,8.12064,-0.252967,-0.625584,-0.402854,0
2024-12-13 15:23:10.158,-1.1324,1.89362,8.27169,-0.264573,-0.637801,-0.412016,0
2024-12-13 15:23:10.160,-1.12283,1.88883,8.42483,-0.276179,-0.650629,-0.42179,0
2024-12-13 15:23:10.163,-1.13719,1.91516,8.55165,-0.286564,-0.661013,-0.434618,0
2024-12-13 15:23:10.165,-1.22812,2.02313,8.53011,-0.297559,-0.659791,-0.441337,0
2024-12-13 15:23:10.167,-1.25444,2.09013,8.59233,-0.314052,-0.648796,-0.443781,0
2024-12-13 15:23:10.170,-1.18744,2.0686,8.82712,-0.325658,-0.650018,-0.446835,0
2024-12-13 15:23:10.172,-1.16112,2.02074,8.99223,-0.337875,-0.661013,-0.452943,0
2024-12-13 15:23:10.174,-1.15633,1.94865,9.09751,-0.350092,-0.674452,-0.461495,0
2024-12-13 15:23:10.179,-1.07498,1.78834,9.42802,-0.365363,-0.690945,-0.481042,0
2024-12-13 15:23:10.179,-1.07498,1.78834,9.42802,-0.365363,-0.690945,-0.481042,0
2024-12-13 15:23:10.181,-1.00319,1.72612,9.6362,-0.368417,-0.697053,-0.498757,0
2024-12-13 15:23:10.184,-0.962513,1.70219,9.82074,-0.37025,-0.693999,-0.514028,0
2024-12-13 15:23:10.186,-0.924228,1.70219,9.9691,-0.365974,-0.684836,-0.529299,0
2024-12-13 15:23:10.188,-0.921835,1.70698,10.0863,-0.359865,-0.668343,-0.541516,0
2024-12-13 15:23:10.191,-0.962513,1.71416,10.1845,-0.353146,-0.645131,-0.552511,0
2024-12-13 15:23:10.193,-1.00319,1.72373,10.2419,-0.345816,-0.618254,-0.564117,0
2024-12-13 15:23:10.196,-1.05344,1.72373,10.2873,-0.337875,-0.588322,-0.573891,0
2024-12-13 15:23:10.198,-1.08694,1.71177,10.3424,-0.331766,-0.557169,-0.579389,0
2024-12-13 15:23:10.200,-1.13958,1.71177,10.3711,-0.324436,-0.523572,-0.585497,0
2024-12-13 15:23:10.203,-1.21376,1.69741,10.3857,-0.320771,-0.491808,-0.591606,0
2024-12-13 15:23:10.207,-1.31186,1.65673,10.3834,-0.314663,-0.422172,-0.597714,0
2024-12-13 15:23:10.207,-1.31186,1.65673,10.3834,-0.314663,-0.422172,-0.597714,0
2024-12-13 15:23:10.210,-1.3669,1.62802,10.3929,-0.313441,-0.388575,-0.597103,0
2024-12-13 15:23:10.212,-1.41745,1.61366,10.4504,-0.313441,-0.357422,-0.595882,0
2024-12-13 15:23:10.214,-1.47488,1.59452,10.4815,-0.309165,-0.326269,-0.596492,0
2024-12-13 15:23:10.218,-1.56102,1.60648,10.4599,-0.308554,-0.292672,-0.593438,0
2024-12-13 15:23:10.219,-1.65673,1.63998,10.4408,-0.308554,-0.292672,-0.593438,0
2024-12-13 15:23:10.222,-1.74766,1.68544,10.4192,-0.306111,-0.214484,-0.58061,0
2024-12-13 15:23:10.224,-1.83619,1.73569,10.4025,-0.306111,-0.214484,-0.58061,0
2024-12-13 15:23:10.226,-1.91516,1.77876,10.3735,-0.308554,-0.136906,-0.559842,0
2024-12-13 15:23:10.229,-1.99202,1.81466,10.328,-0.309165,-0.102699,-0.54457,0
2024-12-13 15:23:10.231,-2.06142,1.83859,10.2945,-0.312219,-0.0678804,-0.52991,0
2024-12-13 15:23:10.233,-2.08535,1.84816,10.2586,-0.317717,-0.0379489,-0.51586,0
2024-12-13 15:23:10.236,-2.07577,1.85055,10.206,-0.321382,-0.00740652,-0.503033,0
2024-12-13 15:23:10.238,-2.05902,1.85533,10.1773,-0.324436,0.0188599,-0.488372,0
2024-12-13 15:23:10.240,-2.02313,1.86491,10.1629,-0.331766,0.0439046,-0.474934,0
2024-12-13 15:23:10.245,-1.99442,1.86969,10.0863,-0.340929,0.0915507,-0.457219,0
2024-12-13 15:23:10.245,-1.96301,1.87208,10.0863,-0.340929,0.0915507,-0.457219,0
2024-12-13 15:23:10.247,-1.94387,1.87687,10.0768,-0.345205,0.109876,-0.451111,0
2024-12-13 15:23:10.250,-1.92951,1.88883,10.0648,-0.349481,0.130645,-0.444391,0
2024-12-13 15:23:10.252,-1.90798,1.91276,10.0481,-0.351314,0.147749,-0.440115,0
2024-12-13 15:23:10.254,-1.89362,1.94387,10.0505,-0.351924,0.164242,-0.435229,0
2024-12-13 15:23:10.258,-1.88644,1.9657,10.0505,-0.352535,0.193562,-0.42912,0
2024-12-13 15:23:10.259,-1.88405,1.9657,10.0552,-0.352535,0.193562,-0.42912,0
2024-12-13 15:23:10.261,-1.85533,1.98006,10.0505,-0.349481,0.20639,-0.427288,0
2024-12-13 15:23:10.264,-1.82662,1.98006,10.0313,-0.345205,0.217996,-0.426677,0
2024-12-13 15:23:10.266,-1.79791,1.95344,10.0313,-0.345205,0.217996,-0.426677,0
2024-12-13 15:23:10.269,-1.75484,1.94387,10.0241,-0.332988,0.240597,-0.426677,0
2024-12-13 15:23:10.271,-1.71894,1.93908,10.0146,-0.332988,0.240597,-0.426677,0
2024-12-13 15:23:10.276,-1.71177,1.89123,9.98345,-0.301224,0.259534,-0.424233,0
2024-12-13 15:23:10.276,-1.71177,1.89123,9.98345,-0.301224,0.259534,-0.424233,0
2024-12-13 15:23:10.278,-1.71655,1.87448,9.98106,-0.287785,0.26381,-0.423623,0
2024-12-13 15:23:10.283,-1.70937,1.84576,9.97149,-0.251135,0.270529,-0.419347,0
2024-12-13 15:23:10.283,-1.70937,1.84576,9.97149,-0.251135,0.270529,-0.419347,0
2024-12-13 15:23:10.285,-1.6998,1.83141,9.95235,-0.230366,0.271751,-0.415682,0
2024-12-13 15:23:10.287,-1.68544,1.81705,9.89253,-0.208375,0.274194,-0.412627,0
2024-12-13 15:23:10.290,-1.68305,1.79791,9.84228,-0.183941,0.277248,-0.40713,0
2024-12-13 15:23:10.292,-1.67109,1.77876,9.79652,-0.155842,0.281524,-0.404075,0
2024-12-13 15:23:10.294,-1.65912,1.75723,9.73191,-0.128965,0.285189,-0.3998,0
2024-12-13 15:23:10.297,-1.6663,1.74048,9.64816,-0.102088,0.289465,-0.393691,0
2024-12-13 15:23:10.302,-1.68305,1.68305,9.48784,-0.0422248,0.298017,-0.380252,0
2024-12-13 15:23:10.304,-1.69502,1.65912,9.38016,-0.0116825,0.304736,-0.372922,0
2024-12-13 15:23:10.304,-1.69741,1.65912,9.38016,-0.0116825,0.304736,-0.372922,0
2024-12-13 15:23:10.306,-1.70698,1.64237,9.25305,0.0170274,0.309012,-0.36437,0
2024-12-13 15:23:10.311,-1.71894,1.56102,8.99941,0.0487914,0.313899,-0.353986,0
2024-12-13 15:23:10.311,-1.71894,1.56102,8.99941,0.0487914,0.313899,-0.353986,0
2024-12-13 15:23:10.313,-1.70698,1.54666,8.87737,0.109876,0.324284,-0.333217,0
2024-12-13 15:23:10.316,-1.71177,1.53948,8.75773,0.139808,0.330392,-0.321611,0
2024-12-13 15:23:10.318,-1.72852,1.52513,8.63779,0.17035,0.3365,-0.310005,0
2024-12-13 15:23:10.320,-1.73569,1.52034,8.51815,0.19906,0.34322,-0.295345,0
2024-12-13 15:23:10.323,-1.74048,1.51555,8.39133,0.229602,0.349939,-0.283128,0
2024-12-13 15:23:10.325,-1.75484,1.54427,8.24537,0.257701,0.353604,-0.269078,0
2024-12-13 15:23:10.330,-1.79791,1.57059,7.97229,0.313899,0.374984,-0.239147,0
2024-12-13 15:23:10.330,-1.79791,1.57059,7.97229,0.313899,0.374984,-0.239147,0
2024-12-13 15:23:10.332,-1.81705,1.58495,7.82393,0.34322,0.382925,-0.222654,0
2024-12-13 15:23:10.335,-1.81944,1.6017,7.67318,0.372617,0.392088,-0.20555,0
2024-12-13 15:23:10.337,-1.81705,1.61127,7.52932,0.372617,0.392088,-0.20555,0
2024-12-13 15:23:10.340,-1.81466,1.61366,7.37857,0.449584,0.40858,-0.153628,0
2024-12-13 15:23:10.342,-1.79551,1.62323,7.20868,0.449584,0.40858,-0.153628,0
2024-12-13 15:23:10.344,-1.77398,1.64955,7.02443,0.476461,0.40858,-0.1408,0
2024-12-13 15:23:10.346,-1.76919,1.64955,6.84467,0.49723,0.405526,-0.126751,0
2024-12-13 15:23:10.349,-1.7668,1.64955,6.67717,0.517998,0.400029,-0.112701,0
2024-12-13 15:23:10.351,-1.76201,1.65673,6.50967,0.534491,0.392698,-0.0992627,0
2024-12-13 15:23:10.353,-1.75962,1.65434,6.34427,0.550984,0.382314,-0.0839915,0
2024-12-13 15:23:10.356,-1.73809,1.66391,6.1672,0.563812,0.370097,-0.0723854,0
2024-12-13 15:23:10.358,-1.71177,1.65673,5.98056,0.574807,0.354826,-0.0607793,0
2024-12-13 15:23:10.363,-1.68784,1.67348,5.68595,0.580305,0.334057,-0.038178,0
2024-12-13 15:23:10.363,-1.68784,1.67348,5.68595,0.580305,0.334057,-0.038178,0
2024-12-13 15:23:10.365,-1.65673,1.68066,5.53759,0.587635,0.280303,-0.0302369,0
2024-12-13 15:23:10.367,-1.62802,1.6998,5.40598,0.588246,0.251593,-0.0222959,0
2024-12-13 15:23:10.371,-1.5993,1.70698,5.27408,0.576029,0.181345,-0.0106898,0
2024-12-13 15:23:10.372,-1.58495,1.72134,5.15922,0.576029,0.181345,-0.0106898,0
2024-12-13 15:23:10.377,-1.58734,1.77159,4.95583,0.558314,0.1056,-0.00213797,0
2024-12-13 15:23:10.377,-1.58734,1.77159,4.95583,0.558314,0.1056,-0.00213797,0
2024-12-13 15:23:10.379,-1.57777,1.80509,4.87448,0.542432,0.066506,0.00152712,0
2024-12-13 15:23:10.382,-1.57537,1.84337,4.82662,0.524718,0.0286335,0.00152712,0
2024-12-13 15:23:10.386,-1.58973,1.91276,4.77398,0.487456,-0.0489441,0.00458135,0
2024-12-13 15:23:10.386,-1.58973,1.91276,4.77398,0.487456,-0.0489441,0.00458135,0
2024-12-13 15:23:10.391,-1.64237,2.02313,4.78594,0.444086,-0.115526,0.00397051,0
2024-12-13 15:23:10.391,-1.64237,2.02313,4.78594,0.444086,-0.115526,0.00397051,0
2024-12-13 15:23:10.393,-1.6663,2.08295,4.81944,0.420874,-0.143625,0.0051922,0
2024-12-13 15:23:10.396,-1.69502,2.15474,4.8673,0.397662,-0.173557,0.00397051,0
2024-12-13 15:23:10.398,-1.72373,2.21695,4.93909,0.371395,-0.195547,0.00274881,0
2024-12-13 15:23:10.400,-1.74766,2.28873,5.02762,0.348107,-0.215705,0.0051922,0
2024-12-13 15:23:10.403,-1.77398,2.35813,5.11615,0.327949,-0.234642,0.0051922,0
2024-12-13 15:23:10.405,-1.81226,2.40359,5.20469,0.302904,-0.250524,0.00580305,0
2024-12-13 15:23:10.408,-1.83859,2.45384,5.29801,0.282135,-0.261519,0.00458135,0
2024-12-13 15:23:10.410,-1.86012,2.4993,5.37249,0.258312,-0.272514,0.00580305,0
2024-12-13 15:23:10.413,-1.85294,2.52323,5.42273,0.211888,-0.29084,0.0064139,0
2024-12-13 15:23:10.415,-1.81944,2.52592,5.47538,0.211888,-0.29084,0.0064139,0
2024-12-13 15:23:10.417,-1.79312,2.52592,5.52802,0.187454,-0.300002,0.00580305,0
2024-12-13 15:23:10.419,-1.78355,2.54507,5.6022,0.159966,-0.309776,0.00213797,0
2024-12-13 15:23:10.422,-1.78834,2.57139,5.69552,0.130645,-0.318939,-0.000305424,0
2024-12-13 15:23:10.424,-1.79312,2.6001,5.76969,0.0994917,-0.336653,-0.000916271,0
2024-12-13 15:23:10.426,-1.79073,2.63121,5.87019,0.0683385,-0.353757,-0.00580305,0
2024-12-13 15:23:10.429,-1.77398,2.65514,5.99253,0.0329094,-0.376358,-0.00885729,0
2024-12-13 15:23:10.431,-1.76441,2.67906,6.12413,-0.0019089,-0.39957,-0.0113007,0
2024-12-13 15:23:10.433,-1.75484,2.69821,6.29641,-0.0367272,-0.425226,-0.0149658,0
2024-12-13 15:23:10.436,-1.71894,2.69821,6.47857,-0.0691021,-0.452103,-0.0210742,0
2024-12-13 15:23:10.438,-1.66391,2.6671,6.64367,-0.10331,-0.477759,-0.0253502,0
2024-12-13 15:23:10.441,-1.58973,2.62403,6.82792,-0.138128,-0.505247,-0.0357346,0
2024-12-13 15:23:10.443,-1.51555,2.60489,7.04118,-0.170503,-0.530903,-0.0436756,0
2024-12-13 15:23:10.445,-1.4342,2.57378,7.28046,-0.204099,-0.557169,-0.05406,0
2024-12-13 15:23:10.448,-1.31665,2.51605,7.54367,-0.23342,-0.582214,-0.0668878,0
2024-12-13 15:23:10.450,-1.20419,2.45145,7.80718,-0.264573,-0.603593,-0.0797156,0
2024-12-13 15:23:10.452,-1.09651,2.38445,8.08714,-0.292061,-0.624362,-0.0955976,0
2024-12-13 15:23:10.457,-0.9003,2.24088,8.64736,-0.345205,-0.656737,-0.125529,0
2024-12-13 15:23:10.457,-0.9003,2.24088,8.64736,-0.345205,-0.656737,-0.125529,0
2024-12-13 15:23:10.459,-0.854836,2.18824,8.94437,-0.345205,-0.656737,-0.125529,0
2024-12-13 15:23:10.462,-0.813859,2.16192,9.25305,-0.391629,-0.685447,-0.159737,0
2024-12-13 15:23:10.466,-0.734896,2.05424,9.96431,-0.430724,-0.711103,-0.186614,0
2024-12-13 15:23:10.466,-0.734896,2.05424,9.96431,-0.430724,-0.711103,-0.186614,0
2024-12-13 15:23:10.469,-0.720539,2.02313,10.3448,-0.443551,-0.724541,-0.201274,0
2024-12-13 15:23:10.471,-0.758824,2.04227,10.7016,-0.450271,-0.737369,-0.213491,0
2024-12-13 15:23:10.473,-0.948156,2.18106,10.8739,-0.453936,-0.741034,-0.22021,0
2024-12-13 15:23:10.476,-1.06062,2.27438,11.1039,-0.459433,-0.732482,-0.217156,0
2024-12-13 15:23:10.478,-0.957727,2.22174,11.6282,-0.45699,-0.728817,-0.213491,0
2024-12-13 15:23:10.482,-0.85005,2.15952,12.1262,-0.435,-0.748975,-0.211659,0
2024-12-13 15:23:10.483,-0.751645,2.07338,12.5091,-0.435,-0.748975,-0.211659,0
2024-12-13 15:23:10.485,-0.641576,1.98006,12.8851,-0.41362,-0.754473,-0.213491,0
2024-12-13 15:23:10.488,-0.52672,1.90558,13.2634,-0.384299,-0.749586,-0.215935,0
2024-12-13 15:23:10.492,-0.431007,1.80509,13.917,-0.303667,-0.717822,-0.229984,0
2024-12-13 15:23:10.492,-0.375972,1.80509,13.917,-0.303667,-0.717822,-0.229984,0
2024-12-13 15:23:10.495,-0.371187,1.78834,14.1969,-0.251135,-0.692166,-0.237314,0
2024-12-13 15:23:10.497,-0.419043,1.76201,14.4676,-0.196769,-0.664067,-0.24159,0
2024-12-13 15:23:10.499,-0.500399,1.75723,14.6806,-0.137517,-0.632303,-0.247088,0
2024-12-13 15:23:10.502,-0.612862,1.77637,14.8528,-0.0727672,-0.595652,-0.24892,0
2024-12-13 15:23:10.504,-0.732503,1.80509,14.9848,-0.00618483,-0.552282,-0.247699,0
2024-12-13 15:23:10.506,-0.869193,1.84816,15.0733,0.0591758,-0.504636,-0.243423,0
2024-12-13 15:23:10.509,-1.05823,1.91994,15.0829,0.130034,-0.451492,-0.233649,0
2024-12-13 15:23:10.511,-1.29272,2.02792,14.98,0.195395,-0.391019,-0.217156,0
2024-12-13 15:23:10.514,-1.5347,2.14756,14.7978,0.25648,-0.32749,-0.192722,0
2024-12-13 15:23:10.518,-1.98006,2.41316,14.295,0.345663,-0.201656,-0.132248,0
2024-12-13 15:23:10.518,-1.98006,2.41316,14.295,0.345663,-0.201656,-0.132248,0
2024-12-13 15:23:10.521,-2.21456,2.55224,13.9146,0.376282,-0.150345,-0.0937651,0
2024-12-13 15:23:10.525,-2.44188,2.74606,13.3017,0.386055,-0.0837624,-0.0106898,0
2024-12-13 15:23:10.525,-2.44188,2.74606,13.3017,0.386055,-0.0837624,-0.0106898,0
2024-12-13 15:23:10.528,-2.44188,2.75085,13.1267,0.373839,-0.0764323,0.0290152,0
2024-12-13 15:23:10.532,-2.29591,2.71496,12.7415,0.352383,-0.0794865,0.0662769,0
2024-12-13 15:23:10.537,-2.10688,2.6671,12.5713,0.231435,-0.10392,0.151261,0
2024-12-13 15:23:10.537,-2.10688,2.6671,12.5713,0.231435,-0.10392,0.151261,0
2024-12-13 15:23:10.542,-1.91994,2.67906,12.6769,0.127591,-0.115526,0.189134,0
2024-12-13 15:23:10.542,-1.91994,2.67906,12.6769,0.127591,-0.115526,0.189134,0
2024-12-13 15:23:10.542,-1.91994,2.67906,12.6769,0.127591,-0.115526,0.189134,0
2024-12-13 15:23:10.544,-1.81705,2.7341,12.842,0.0787229,-0.118581,0.203183,0
2024-12-13 15:23:10.546,-1.72134,2.79871,13.0621,0.0316877,-0.120413,0.211124,0
2024-12-13 15:23:10.549,-1.63998,2.87528,13.3137,-0.0129041,-0.117359,0.216622,0
2024-12-13 15:23:10.551,-1.54666,2.94706,13.5888,-0.0507767,-0.11064,0.220287,0
2024-12-13 15:23:10.554,-1.45334,3.00927,13.8715,-0.0831516,-0.101477,0.22273,0
2024-12-13 15:23:10.556,-1.36451,3.06192,14.1658,-0.108807,-0.0874275,0.221508,0
2024-12-13 15:23:10.558,-1.27119,3.08584,14.4341,-0.129576,-0.0697129,0.219065,0
2024-12-13 15:23:10.561,-1.17547,3.07627,14.6614,-0.146069,-0.0489441,0.213567,0
2024-12-13 15:23:10.563,-1.08933,3.08106,14.8723,-0.160118,-0.0226777,0.209902,0
2024-12-13 15:23:10.565,-0.998405,3.07867,15.0733,-0.165005,0.00725381,0.201961,0
2024-12-13 15:23:10.568,-0.9003,3.04517,15.2551,-0.167449,0.0377962,0.19402,0
2024-12-13 15:23:10.570,-0.833001,3.0021,15.4155,-0.169281,0.0683385,0.186079,0
2024-12-13 15:23:10.572,-0.758824,2.96142,15.5593,-0.165005,0.0982701,0.180582,0
2024-12-13 15:23:10.575,-0.699003,2.91117,15.679,-0.159507,0.12698,0.176306,0
2024-12-13 15:23:10.577,-0.655932,2.84656,15.7747,-0.149734,0.156911,0.170197,0
2024-12-13 15:23:10.579,-0.605683,2.77717,15.8369,-0.138128,0.183789,0.167143,1
2024-12-13 15:23:10.582,-0.557827,2.69821,15.8752,-0.123468,0.208223,0.168365,0
2024-12-13 15:23:10.585,-0.498006,2.62164,15.9063,-0.0868167,0.248538,0.168976,0
2024-12-13 15:23:10.587,-0.442971,2.53071,15.9135,-0.0868167,0.248538,0.168976,0
2024-12-13 15:23:10.589,-0.366401,2.42991,15.88,-0.0691021,0.265031,0.169586,0
2024-12-13 15:23:10.594,-0.239282,2.23131,15.7771,-0.0257319,0.287633,0.172641,0
2024-12-13 15:23:10.594,-0.239282,2.23131,15.7771,-0.0257319,0.287633,0.172641,0
2024-12-13 15:23:10.596,-0.181855,2.14277,15.6909,-0.00435229,0.294352,0.172641,0
2024-12-13 15:23:10.598,-0.129212,2.09252,15.5904,0.0158057,0.302904,0.175084,0
2024-12-13 15:23:10.603,-0.112463,1.98963,15.4202,0.058565,0.308401,0.174473,0
2024-12-13 15:23:10.603,-0.112463,1.98963,15.4202,0.058565,0.308401,0.174473,0
2024-12-13 15:23:10.608,-0.131605,1.94387,15.2408,0.101935,0.312067,0.174473,0
2024-12-13 15:23:10.608,-0.131605,1.94387,15.2408,0.101935,0.312067,0.174473,0
2024-12-13 15:23:10.610,-0.145962,1.92473,15.157,0.124536,0.315732,0.178138,0
2024-12-13 15:23:10.612,-0.172283,1.90798,15.0685,0.152025,0.319397,0.179971,0
2024-12-13 15:23:10.615,-0.198604,1.89601,14.9895,0.17768,0.324284,0.181803,0
2024-12-13 15:23:10.617,-0.227318,1.87926,14.9058,0.205779,0.329781,0.183636,0
2024-12-13 15:23:10.620,-0.287438,1.8673,14.805,0.236932,0.338944,0.187912,0
2024-12-13 15:23:10.622,-0.342473,1.84098,14.6997,0.268086,0.352993,0.192188,0
2024-12-13 15:23:10.624,-0.3999,1.80987,14.5681,0.301682,0.367654,0.196464,0
2024-12-13 15:23:10.627,-0.454935,1.77876,14.4221,0.334057,0.383536,0.201351,0
2024-12-13 15:23:10.629,-0.500399,1.76441,14.24,0.371395,0.397585,0.20807,0
2024-12-13 15:23:10.631,-0.562612,1.76441,14.0342,0.407435,0.412856,0.2154,0
2024-12-13 15:23:10.634,-0.629611,1.76201,13.8356,0.440421,0.429349,0.224563,0
2024-12-13 15:23:10.636,-0.706182,1.75484,13.6128,0.469131,0.44462,0.235558,0
2024-12-13 15:23:10.638,-0.789931,1.73569,13.352,0.499062,0.457448,0.247164,0
2024-12-13 15:23:10.641,-0.859622,1.71416,13.098,0.499062,0.457448,0.247164,0
2024-12-13 15:23:10.643,-0.952942,1.71655,12.8611,0.553428,0.474552,0.277706,0
2024-12-13 15:23:10.645,-1.04387,1.7333,12.612,0.57664,0.482493,0.294199,0
2024-12-13 15:23:10.648,-1.12283,1.74766,12.3344,0.596798,0.485547,0.313136,0
2024-12-13 15:23:10.650,-1.21854,1.75962,12.0637,0.616956,0.486769,0.335126,0
2024-12-13 15:23:10.652,-1.29272,1.76441,11.8077,0.632838,0.481271,0.358338,0
2024-12-13 15:23:10.655,-1.33819,1.77637,11.5636,0.645666,0.474552,0.382772,0
2024-12-13 15:23:10.657,-1.35733,1.79312,11.3145,0.65605,0.461113,0.406595,0
2024-12-13 15:23:10.660,-1.37647,1.80987,11.0824,0.665213,0.445231,0.433472,0
2024-12-13 15:23:10.662,-1.37408,1.82184,10.8691,0.671321,0.424462,0.456685,0
2024-12-13 15:23:10.664,-1.35015,1.83859,10.6537,0.674375,0.402472,0.479286,0
2024-12-13 15:23:10.667,-1.33819,1.88166,10.4599,0.673765,0.375595,0.502498,0
2024-12-13 15:23:10.669,-1.24008,1.8673,10.2897,0.674986,0.34322,0.520824,0
2024-12-13 15:23:10.671,-0.933799,1.71416,10.3591,0.675597,0.297406,0.534873,0
2024-12-13 15:23:10.674,-0.818644,1.66869,10.2706,0.678651,0.240597,0.537927,0
2024-12-13 15:23:10.676,-0.984048,1.79312,9.86621,0.681095,0.207001,0.542203,0
2024-12-13 15:23:10.678,-1.0343,1.90798,9.67448,0.674986,0.175237,0.548923,0
2024-12-13 15:23:10.681,-1.09173,2.0662,9.51177,0.668878,0.137364,0.557474,0
2024-12-13 15:23:10.683,-1.16112,2.21934,9.31077,0.652996,0.0933833,0.569081,0
2024-12-13 15:23:10.688,-1.01037,2.37009,9.12383,0.615123,-0.0281753,0.586795,0
2024-12-13 15:23:10.688,-1.01037,2.37009,9.12383,0.615123,-0.0281753,0.586795,0
2024-12-13 15:23:10.693,-0.9003,2.51366,8.73141,0.558314,-0.142404,0.598401,0
2024-12-13 15:23:10.693,-0.9003,2.51366,8.73141,0.558314,-0.142404,0.598401,0
2024-12-13 15:23:10.695,-0.732503,2.50648,8.67129,0.523496,-0.201045,0.599012,0
2024-12-13 15:23:10.697,-0.524327,2.4658,8.67608,0.489289,-0.259076,0.594736,0
2024-12-13 15:23:10.700,-0.318545,2.42752,8.69761,0.452638,-0.317106,0.585573,0
2024-12-13 15:23:10.702,-0.124427,2.40598,8.76252,0.41782,-0.37025,0.572746,0
2024-12-13 15:23:10.704,0.0526421,2.37488,8.8678,0.386055,-0.414231,0.551366,0
2024-12-13 15:23:10.707,0.217747,2.33898,8.98026,0.354215,-0.453325,0.528765,0
2024-12-13 15:23:10.709,0.354437,2.32223,9.12144,0.326727,-0.4857,0.505552,0
2024-12-13 15:23:10.711,0.462114,2.32223,9.25544,0.303515,-0.509523,0.480508,0
2024-12-13 15:23:10.716,0.62004,2.31984,9.41845,0.263199,-0.538844,0.428586,0
2024-12-13 15:23:10.718,0.684646,2.33659,9.49502,0.248538,-0.541898,0.402319,0
2024-12-13 15:23:10.721,0.684646,2.33659,9.49502,0.232046,-0.541287,0.377885,0
2024-12-13 15:23:10.721,0.734896,2.33898,9.52613,0.232046,-0.541287,0.377885,0
2024-12-13 15:23:10.723,0.794716,2.31027,9.52373,0.214942,-0.534568,0.351619,0
2024-12-13 15:23:10.726,0.8668,2.27199,9.54527,0.198449,-0.522962,0.324131,0
2024-12-13 15:23:10.728,0.921835,2.22652,9.55005,0.181345,-0.508301,0.300308,0
2024-12-13 15:23:10.730,0.974477,2.17149,9.53091,0.162409,-0.491808,0.275874,0
2024-12-13 15:23:10.733,1.02951,2.12363,9.52373,0.146527,-0.470429,0.249607,0
2024-12-13 15:23:10.735,1.07498,2.08535,9.50698,0.130645,-0.448438,0.223341,0
2024-12-13 15:23:10.737,1.1348,2.04945,9.48306,0.116595,-0.426448,0.19402,0
2024-12-13 15:23:10.740,1.16112,2.01356,9.45913,0.0982701,-0.402625,0.166532,0
2024-12-13 15:23:10.742,1.15394,1.97528,9.43041,0.0836097,-0.375747,0.14332,0
2024-12-13 15:23:10.744,1.12762,1.93191,9.40409,0.0689494,-0.350703,0.120642,0
2024-12-13 15:23:10.747,1.08933,1.87926,9.38016,0.0573433,-0.321382,0.0992627,0
2024-12-13 15:23:10.749,1.02712,1.8338,9.36102,0.0432938,-0.293894,0.082159,0
2024-12-13 15:23:10.751,0.962513,1.80269,9.32274,0.0341311,-0.26213,0.0662769,0
2024-12-13 15:23:10.755,0.905085,1.78116,9.28206,0.0200816,-0.194326,0.0424539,0
2024-12-13 15:23:10.756,0.84018,1.75244,9.24347,0.0200816,-0.194326,0.0424539,0
2024-12-13 15:23:10.758,0.780359,1.72134,9.2028,0.0139731,-0.160118,0.0326803,0
2024-12-13 15:23:10.761,0.718146,1.69502,9.16212,0.010308,-0.123468,0.0253502,0
2024-12-13 15:23:10.763,0.655932,1.67827,9.09512,0.00847551,-0.0886492,0.0174091,0
2024-12-13 15:23:10.766,0.576969,1.6663,9.01137,0.00419957,-0.0532201,0.0167983,0
2024-12-13 15:23:10.768,0.507577,1.64237,8.92762,0.00481042,-0.0196235,0.0143549,0
2024-12-13 15:23:10.770,0.452543,1.62562,8.84148,0.00419957,0.010308,0.0143549,0
2024-12-13 15:23:10.775,0.359223,1.61366,8.64736,0.00175619,0.0628409,0.0161875,0
2024-12-13 15:23:10.775,0.359223,1.61366,8.64736,0.00175619,0.0628409,0.0161875,0
2024-12-13 15:23:10.777,0.297009,1.61605,8.55643,-0.00435229,0.0878856,0.0192417,0
2024-12-13 15:23:10.780,0.232104,1.63041,8.46551,-0.00557398,0.110487,0.0204634,0
2024-12-13 15:23:10.782,0.179462,1.66869,8.3674,-0.00923906,0.13431,0.0235176,0
2024-12-13 15:23:10.784,0.0981057,1.71655,8.27408,-0.0116825,0.155079,0.0271827,0
2024-12-13 15:23:10.787,0.00957129,1.7668,8.20469,-0.013515,0.173404,0.0302369,0
2024-12-13 15:23:10.789,-0.0574277,1.8338,8.13261,-0.013515,0.191119,0.033902,0
2024-12-13 15:23:10.791,-0.114855,1.91037,8.05125,-0.013515,0.207001,0.0406213,0
2024-12-13 15:23:10.794,-0.174676,1.97528,7.98425,-0.0141258,0.217996,0.046119,0
2024-12-13 15:23:10.796,-0.232104,2.02792,7.92443,-0.00740652,0.227159,0.0522274,0
2024-12-13 15:23:10.801,-0.316152,2.11167,7.77608,-0.00313059,0.236322,0.0565034,0
2024-12-13 15:23:10.801,-0.316152,2.11167,7.77608,-0.00313059,0.236322,0.0565034,0
2024-12-13 15:23:10.803,-0.342473,2.12363,7.69472,0.000534491,0.234489,0.0589468,0
2024-12-13 15:23:10.806,-0.352044,2.14995,7.63011,0.00603212,0.226548,0.0607793,0
2024-12-13 15:23:10.808,-0.364008,2.15713,7.55803,0.00664296,0.216774,0.0607793,0
2024-12-13 15:23:10.810,-0.378365,2.17627,7.44317,0.00847551,0.20639,0.0601685,0
2024-12-13 15:23:10.815,-0.419043,2.23849,7.22064,0.00725381,0.174626,0.0583359,0
2024-12-13 15:23:10.815,-0.419043,2.23849,7.22064,0.00725381,0.174626,0.0583359,0
2024-12-13 15:23:10.817,-0.454935,2.27916,7.12732,0.00236703,0.152635,0.05406,0
2024-12-13 15:23:10.820,-0.471685,2.32223,7.05314,-0.00557398,0.124536,0.0528383,0
2024-12-13 15:23:10.822,-0.474078,2.35095,6.99063,-0.0153475,0.0921616,0.0497841,0
2024-12-13 15:23:10.824,-0.488435,2.40359,6.94756,-0.0269536,0.0573433,0.0473407,0
2024-12-13 15:23:10.827,-0.481256,2.45145,6.92842,-0.0367272,0.0188599,0.0424539,0
2024-12-13 15:23:10.829,-0.459721,2.47298,6.92124,-0.0501658,-0.021456,0.0369563,0
2024-12-13 15:23:10.831,-0.445364,2.49691,6.91885,-0.0629936,-0.0617719,0.0314586,0
2024-12-13 15:23:10.834,-0.421436,2.5331,6.93799,-0.077654,-0.10392,0.0247393,0
2024-12-13 15:23:10.836,-0.395115,2.56899,6.98345,-0.0910926,-0.146069,0.0161875,0
2024-12-13 15:23:10.839,-0.378365,2.59771,7.05075,-0.107585,-0.185774,0.00824644,0
2024-12-13 15:23:10.841,-0.347258,2.61685,7.13929,-0.121635,-0.224257,-0.00335966,0
2024-12-13 15:23:10.843,-0.311366,2.62881,7.24696,-0.134463,-0.259686,-0.0125224,0
2024-12-13 15:23:10.846,-0.282652,2.63839,7.36421,-0.149123,-0.293283,-0.0216851,0
2024-12-13 15:23:10.848,-0.229711,2.64317,7.48864,-0.163783,-0.324436,-0.0332912,0
2024-12-13 15:23:10.850,-0.181855,2.65274,7.60618,-0.176,-0.351314,-0.0467298,0
2024-12-13 15:23:10.853,-0.143569,2.65274,7.72822,-0.184552,-0.373915,-0.0583359,0
2024-12-13 15:23:10.855,-0.102891,2.62642,7.867,-0.196158,-0.392851,-0.069942,0
2024-12-13 15:23:10.857,-0.0454636,2.59771,7.98904,-0.202267,-0.406901,-0.082159,0
2024-12-13 15:23:10.860,0.00957129,2.56899,8.08236,-0.21204,-0.419118,-0.0943759,0
2024-12-13 15:23:10.862,0.0574277,2.52323,8.16401,-0.219371,-0.425837,-0.106593,0
2024-12-13 15:23:10.864,0.11007,2.48495,8.24776,-0.230977,-0.427669,-0.11881,0
2024-12-13 15:23:10.867,0.138784,2.44427,8.34108,-0.237696,-0.426448,-0.131638,0
2024-12-13 15:23:10.869,0.165105,2.39402,8.42483,-0.245637,-0.422172,-0.142633,0
2024-12-13 15:23:10.872,0.184247,2.3677,8.50379,-0.256632,-0.417285,-0.151185,0
2024-12-13 15:23:10.874,0.189033,2.33898,8.58993,-0.266406,-0.408733,-0.160347,0
2024-12-13 15:23:10.876,0.191426,2.3007,8.67368,-0.272514,-0.394684,-0.165845,0
2024-12-13 15:23:10.879,0.191426,2.28873,8.76012,-0.272514,-0.394684,-0.165845,0
2024-12-13 15:23:10.883,0.174676,2.23849,8.88934,-0.300002,-0.345816,-0.184781,0
2024-12-13 15:23:10.883,0.174676,2.23849,8.88934,-0.300002,-0.345816,-0.184781,0
2024-12-13 15:23:10.888,0.179462,2.16909,9.01855,-0.314052,-0.3055,-0.187836,0
2024-12-13 15:23:10.888,0.179462,2.16909,9.01855,-0.314052,-0.3055,-0.187836,0
2024-12-13 15:23:10.890,0.172283,2.13799,9.06641,-0.320771,-0.285953,-0.19089,0
2024-12-13 15:23:10.893,0.157926,2.0997,9.12623,-0.324436,-0.264573,-0.191501,0
2024-12-13 15:23:10.895,0.145962,2.04467,9.18844,-0.331766,-0.244415,-0.19089,0
2024-12-13 15:23:10.897,0.124427,1.9992,9.2339,-0.336653,-0.222425,-0.190279,0
2024-12-13 15:23:10.900,0.105284,1.98485,9.29642,-0.339097,-0.202878,-0.188446,0
2024-12-13 15:23:10.905,0.0885344,1.97528,9.37777,-0.345205,-0.153399,-0.182949,0
2024-12-13 15:23:10.905,0.0382852,1.97528,9.37777,-0.345205,-0.153399,-0.182949,0
2024-12-13 15:23:10.907,-0.00478565,1.9657,9.39213,-0.34887,-0.128354,-0.17684,0
2024-12-13 15:23:10.909,-0.0287139,1.9681,9.40648,-0.350703,-0.100866,-0.168288,0
2024-12-13 15:23:10.912,-0.0574277,1.98245,9.44238,-0.354368,-0.0764323,-0.158515,0
2024-12-13 15:23:10.914,-0.0861416,1.98006,9.45673,-0.359255,-0.0501658,-0.151796,0
2024-12-13 15:23:10.917,-0.0957129,1.9657,9.45195,-0.36353,0.000534491,-0.129805,0
2024-12-13 15:23:10.919,-0.102891,1.95823,9.45913,-0.36353,0.000534491,-0.129805,0
2024-12-13 15:23:10.921,-0.11007,1.9681,9.46152,-0.368417,0.0249684,-0.116977,0
2024-12-13 15:23:10.923,-0.114855,1.98485,9.44477,-0.371471,0.046348,-0.108425,0
2024-12-13 15:23:10.926,-0.114855,1.98006,9.42802,-0.37758,0.0720036,-0.0955976,0
2024-12-13 15:23:10.928,-0.114855,1.98006,9.4352,-0.381245,0.0939941,-0.0852132,0
2024-12-13 15:23:10.931,-0.124427,2.00877,9.44238,-0.388575,0.115985,-0.0760505,0
2024-12-13 15:23:10.933,-0.138784,2.02792,9.43759,-0.394684,0.136143,-0.0662769,0
2024-12-13 15:23:10.935,-0.131605,2.03988,9.43281,-0.39957,0.152635,-0.0589468,0
2024-12-13 15:23:10.937,-0.105284,2.05663,9.44238,-0.403846,0.167907,-0.0516166,0
2024-12-13 15:23:10.940,-0.0981057,2.0662,9.46152,-0.412398,0.181345,-0.046119,0
2024-12-13 15:23:10.942,-0.105284,2.07577,9.47588,-0.415452,0.19173,-0.0400105,0
2024-12-13 15:23:10.945,-0.0957129,2.08295,9.48306,-0.422783,0.19906,-0.0351237,0
2024-12-13 15:23:10.947,-0.0885344,2.07577,9.51416,-0.425837,0.205168,-0.0320695,0
2024-12-13 15:23:10.949,-0.0885344,2.07099,9.56441,-0.433778,0.20639,-0.0296261,0
2024-12-13 15:23:10.952,-0.0861416,2.09013,9.61466,-0.43561,0.203336,-0.0296261,0
2024-12-13 15:23:10.956,-0.0957129,2.08056,9.75344,-0.436832,0.199671,-0.0271827,0
2024-12-13 15:23:10.956,-0.0957129,2.08056,9.75344,-0.436832,0.199671,-0.0271827,0
2024-12-13 15:23:10.961,-0.122034,2.07577,9.88774,-0.42828,0.188675,-0.025961,0
2024-12-13 15:23:10.961,-0.122034,2.07577,9.88774,-0.42828,0.188675,-0.025961,0
2024-12-13 15:23:10.966,-0.181855,2.02074,10.0409,-0.414842,0.173404,-0.0204634,0
2024-12-13 15:23:10.968,-0.212961,2.0016,10.1462,-0.402014,0.167907,-0.0161875,0
2024-12-13 15:23:10.968,-0.212961,2.0016,10.1462,-0.402014,0.167907,-0.0161875,0
2024-12-13 15:23:10.970,-0.241675,1.99202,10.2395,-0.389186,0.161187,-0.00946813,0
2024-12-13 15:23:10.973,-0.272782,1.97049,10.285,-0.370861,0.156911,-0.00213797,0
2024-12-13 15:23:10.975,-0.313759,1.95583,10.328,-0.352535,0.151414,0.00824644,0
2024-12-13 15:23:10.978,-0.354437,1.94626,10.3881,-0.331156,0.149581,0.0192417,0
2024-12-13 15:23:10.980,-0.385544,1.92233,10.4216,-0.306111,0.147749,0.0314586,0
2024-12-13 15:23:10.982,-0.426222,1.9008,10.4336,-0.283509,0.144084,0.0479515,0
2024-12-13 15:23:10.985,-0.457328,1.89123,10.424,-0.257243,0.145305,0.0644444,0
2024-12-13 15:23:10.987,-0.483649,1.87926,10.4097,-0.230366,0.145305,0.0803264,0
2024-12-13 15:23:10.989,-0.507577,1.86012,10.3929,-0.202267,0.14836,0.0998735,0
2024-12-13 15:23:10.992,-0.517149,1.83619,10.3448,-0.172946,0.149581,0.121253,0
2024-12-13 15:23:10.994,-0.514756,1.8338,10.273,-0.143015,0.155079,0.141487,0
2024-12-13 15:23:10.996,-0.505185,1.84337,10.1916,-0.113083,0.161187,0.163478,0
2024-12-13 15:23:10.999,-0.488435,1.84098,10.0959,-0.0862058,0.164852,0.183636,0
2024-12-13 15:23:11.001,-0.478864,1.82662,9.97867,-0.0581068,0.170961,0.204405,0
2024-12-13 15:23:11.003,-0.462114,1.8338,9.83988,-0.033673,0.17768,0.225174,0
2024-12-13 15:23:11.006,-0.421436,1.85533,9.71277,-0.0110716,0.181345,0.245942,0
2024-12-13 15:23:11.008,-0.383151,1.86969,9.57398,0.0096972,0.18501,0.265489,0
2024-12-13 15:23:11.011,-0.344866,1.88166,9.41366,0.030466,0.186232,0.285647,0
2024-12-13 15:23:11.013,-0.304188,1.90798,9.27727,0.0475697,0.188065,0.303973,0
2024-12-13 15:23:11.015,-0.265603,1.9343,9.14058,0.0616192,0.188065,0.319244,0
2024-12-13 15:23:11.018,-0.217747,1.94148,8.99462,0.0762796,0.188065,0.333294,0
2024-12-13 15:23:11.022,-0.0837488,1.99442,8.78166,0.0964375,0.1844,0.355284,0
2024-12-13 15:23:11.022,-0.0837488,1.99442,8.78166,0.0964375,0.1844,0.355284,0
2024-12-13 15:23:11.025,-0.0358923,2.01356,8.69761,0.102546,0.1844,0.365668,0
2024-12-13 15:23:11.027,0.0311067,2.01835,8.60429,0.11232,0.1844,0.369944,0
2024-12-13 15:23:11.029,0.100499,2.0327,8.50619,0.120261,0.186232,0.377275,0
2024-12-13 15:23:11.032,0.155533,2.05902,8.41765,0.130645,0.189286,0.379107,0
2024-12-13 15:23:11.034,0.229711,2.07817,8.3028,0.130645,0.189286,0.379107,0
2024-12-13 15:23:11.036,0.297009,2.09013,8.19273,0.144084,0.201503,0.377275,0
2024-12-13 15:23:11.039,0.347258,2.09252,8.08953,0.147749,0.205779,0.376664,0
2024-12-13 15:23:11.041,0.392722,2.09252,7.97707,0.149581,0.207001,0.373609,0
2024-12-13 15:23:11.043,0.452543,2.10209,7.867,0.150803,0.208833,0.36689,0
2024-12-13 15:23:11.046,0.519542,2.09252,7.76172,0.151414,0.210055,0.360171,0
2024-12-13 15:23:11.048,0.565005,2.09731,7.65883,0.147138,0.207001,0.351008,0
2024-12-13 15:23:11.051,0.608076,2.11645,7.56521,0.144084,0.207001,0.341845,0
2024-12-13 15:23:11.053,0.643968,2.12602,7.50299,0.138586,0.203336,0.330239,0
2024-12-13 15:23:11.055,0.660718,2.13081,7.436,0.133699,0.196616,0.318633,0
2024-12-13 15:23:11.058,0.677468,2.13559,7.38335,0.127591,0.189897,0.305195,0
2024-12-13 15:23:11.062,0.675075,2.15713,7.31396,0.116595,0.174015,0.276485,0
2024-12-13 15:23:11.062,0.667897,2.15713,7.31396,0.116595,0.174015,0.276485,0
2024-12-13 15:23:11.065,0.658325,2.16431,7.29243,0.11232,0.165463,0.260603,0
2024-12-13 15:23:11.067,0.641576,2.18345,7.26132,0.107433,0.159355,0.244721,0
2024-12-13 15:23:11.069,0.632004,2.19781,7.24457,0.101324,0.152025,0.228228,0
2024-12-13 15:23:11.072,0.612862,2.21456,7.22782,0.0970484,0.145305,0.214178,0
2024-12-13 15:23:11.074,0.588933,2.22891,7.22064,0.094605,0.135532,0.198907,0
2024-12-13 15:23:11.076,0.557827,2.2337,7.23261,0.0915507,0.128812,0.184247,0
2024-12-13 15:23:11.079,0.521934,2.24566,7.24457,0.0909399,0.11965,0.17203,0
2024-12-13 15:23:11.081,0.488435,2.27438,7.24936,0.090329,0.111098,0.15737,0
2024-12-13 15:23:11.084,0.454935,2.29352,7.2685,0.0909399,0.103768,0.142098,0
2024-12-13 15:23:11.086,0.414257,2.30548,7.27328,0.0939941,0.0982701,0.131027,0
2024-12-13 15:23:11.088,0.354437,2.34138,7.27568,0.0933833,0.094605,0.117588,0
2024-12-13 15:23:11.093,0.256032,2.3988,7.2996,0.0982701,0.0891073,0.0955976,0
2024-12-13 15:23:11.093,0.256032,2.3988,7.2996,0.0982701,0.0891073,0.0955976,0
2024-12-13 15:23:11.095,0.210568,2.4323,7.30439,0.101324,0.0872748,0.085824,0
2024-12-13 15:23:11.098,0.162712,2.44666,7.30678,0.104989,0.0836097,0.0760505,0
2024-12-13 15:23:11.100,0.117248,2.47777,7.302,0.110487,0.082388,0.0681095,0
2024-12-13 15:23:11.102,0.0717847,2.50409,7.31396,0.115374,0.0817772,0.062001,0
2024-12-13 15:23:11.105,0.0287139,2.5331,7.32832,0.119039,0.0781121,0.0558925,0
2024-12-13 15:23:11.107,0.00239282,2.56421,7.3331,0.12698,0.0726145,0.0503949,0
2024-12-13 15:23:11.109,-0.0239282,2.58335,7.3355,0.130034,0.0671168,0.0442864,0
2024-12-13 15:23:11.112,-0.0382852,2.6001,7.32593,0.135532,0.0616192,0.0387888,0
2024-12-13 15:23:11.114,-0.040678,2.61446,7.31396,0.140419,0.0536782,0.0345129,0
2024-12-13 15:23:11.116,-0.0430708,2.64796,7.31635,0.144084,0.046348,0.0296261,0
2024-12-13 15:23:11.119,-0.0478565,2.68385,7.3355,0.150192,0.0377962,0.0229068,0
2024-12-13 15:23:11.121,-0.0454636,2.71256,7.35225,0.15569,0.0261901,0.0186308,0
2024-12-13 15:23:11.124,-0.0478565,2.75563,7.36421,0.159355,0.014584,0.0113007,0
2024-12-13 15:23:11.127,-0.0478565,2.78913,7.369,0.166685,-0.0141258,-0.00824644,0
2024-12-13 15:23:11.128,-0.0311067,2.82503,7.38096,0.166685,-0.0141258,-0.00824644,0
2024-12-13 15:23:11.131,0.0119641,2.83699,7.37617,0.167296,-0.0281753,-0.0198525,0
2024-12-13 15:23:11.133,0.0574277,2.83699,7.3666,0.167296,-0.0452791,-0.0332912,0
2024-12-13 15:23:11.135,0.0909273,2.85853,7.40489,0.167907,-0.0593285,-0.046119,0
2024-12-13 15:23:11.140,0.174676,2.88245,7.48624,0.158744,-0.0849841,-0.0803264,0
2024-12-13 15:23:11.140,0.174676,2.88245,7.48624,0.158744,-0.0849841,-0.0803264,0
2024-12-13 15:23:11.142,0.208176,2.88724,7.54607,0.15569,-0.0978119,-0.0986518,0
2024-12-13 15:23:11.145,0.227318,2.90638,7.61336,0.153246,-0.108196,-0.119421,0
2024-12-13 15:23:11.147,0.241675,2.9351,7.68754,0.153246,-0.108196,-0.119421,0
2024-12-13 15:23:11.152,0.248854,2.93749,7.8694,0.147138,-0.114916,-0.182338,0
2024-12-13 15:23:11.152,0.248854,2.93749,7.8694,0.147138,-0.114916,-0.182338,0
2024-12-13 15:23:11.154,0.241675,2.93749,7.96511,0.149581,-0.110029,-0.202496,0
2024-12-13 15:23:11.157,0.246461,2.92552,8.05364,0.146527,-0.102088,-0.222043,0
2024-12-13 15:23:11.159,0.241675,2.89442,8.14726,0.150192,-0.0886492,-0.240368,0
2024-12-13 15:23:11.161,0.227318,2.88485,8.23819,0.153246,-0.0739889,-0.257472,0
2024-12-13 15:23:11.164,0.210568,2.87288,8.33869,0.15569,-0.0550526,-0.273965,0
2024-12-13 15:23:11.168,0.122034,2.83938,8.49183,0.172793,-0.00984991,-0.300842,0
2024-12-13 15:23:11.168,0.122034,2.83938,8.49183,0.172793,-0.00984991,-0.300842,0
2024-12-13 15:23:11.173,-0.0191426,2.81785,8.61147,0.195395,0.0469589,-0.322833,0
2024-12-13 15:23:11.175,-0.0191426,2.81785,8.61147,0.209444,0.0781121,-0.328941,0
2024-12-13 15:23:11.175,-0.107677,2.81067,8.6689,0.209444,0.0781121,-0.328941,0
2024-12-13 15:23:11.178,-0.205783,2.79631,8.71466,0.225326,0.106822,-0.33505,0
2024-12-13 15:23:11.182,-0.419043,2.77238,8.76491,0.261366,0.159966,-0.336271,0
2024-12-13 15:23:11.182,-0.419043,2.77238,8.76491,0.261366,0.159966,-0.336271,0
2024-12-13 15:23:11.187,-0.624826,2.71496,8.82234,0.29985,0.202725,-0.331995,0
2024-12-13 15:23:11.187,-0.624826,2.71496,8.82234,0.29985,0.202725,-0.331995,0
2024-12-13 15:23:11.190,-0.71336,2.68146,8.82712,0.321229,0.22105,-0.324665,0
2024-12-13 15:23:11.192,-0.816252,2.65753,8.82473,0.342609,0.2351,-0.314892,0
2024-12-13 15:23:11.194,-0.909871,2.62403,8.81994,0.362767,0.246706,-0.30634,0
2024-12-13 15:23:11.197,-0.97687,2.60249,8.81994,0.386055,0.25648,-0.295345,0
2024-12-13 15:23:11.199,-1.04865,2.58814,8.82234,0.409268,0.260755,-0.282517,0
2024-12-13 15:23:11.201,-1.09412,2.59053,8.84148,0.428204,0.260755,-0.267857,0
2024-12-13 15:23:11.206,-1.10369,2.60728,8.8678,0.470963,0.260755,-0.239758,0
2024-12-13 15:23:11.206,-1.10369,2.60728,8.8678,0.470963,0.260755,-0.239758,0
2024-12-13 15:23:11.208,-1.07976,2.62403,8.89891,0.491121,0.261366,-0.227541,0
2024-12-13 15:23:11.211,-1.04387,2.67667,8.9348,0.511279,0.265031,-0.218378,0
2024-12-13 15:23:11.213,-1.02233,2.75563,8.94437,0.528994,0.270529,-0.206772,0
2024-12-13 15:23:11.215,-1.04148,2.84417,8.93241,0.54793,0.279692,-0.199442,0
2024-12-13 15:23:11.218,-1.07737,2.95185,8.90609,0.561369,0.294352,-0.192111,0
2024-12-13 15:23:11.220,-1.13958,3.06909,8.87976,0.574807,0.310845,-0.186614,0
2024-12-13 15:23:11.222,-1.23769,3.18664,8.85823,0.584581,0.327338,-0.181116,0
2024-12-13 15:23:11.225,-1.3669,3.31585,8.82952,0.590689,0.347496,-0.175008,0
2024-12-13 15:23:11.230,-1.70219,3.56471,8.77209,0.5913,0.37193,-0.16218,0
2024-12-13 15:23:11.230,-1.70219,3.56471,8.77209,0.5913,0.37193,-0.16218,0
2024-12-13 15:23:11.232,-1.83619,3.64876,8.76491,0.584581,0.374373,-0.151796,0
2024-12-13 15:23:11.234,-1.88166,3.699,8.76012,0.573586,0.365821,-0.143855,0
2024-12-13 15:23:11.237,-1.90558,3.73011,8.72902,0.573586,0.365821,-0.143855,0
2024-12-13 15:23:11.239,-1.92951,3.75883,8.72423,0.524107,0.324284,-0.135303,0
2024-12-13 15:23:11.241,-1.93191,3.80429,8.77687,0.491732,0.288244,-0.137746,0
2024-12-13 15:23:11.244,-1.90798,3.84018,8.86062,0.45386,0.238154,-0.144465,0
2024-12-13 15:23:11.246,-1.86012,3.88564,8.96591,0.409268,0.176459,-0.159737,0
2024-12-13 15:23:11.248,-1.82184,3.95025,9.09512,0.363989,0.1056,-0.179284,0
2024-12-13 15:23:11.251,-1.82184,4.01725,9.28206,0.313288,0.0280226,-0.201885,0
2024-12-13 15:23:11.253,-1.84816,4.09861,9.51655,0.260145,-0.0562743,-0.230595,0
2024-12-13 15:23:11.255,-1.85773,4.14407,9.79173,0.211277,-0.142404,-0.260526,0
2024-12-13 15:23:11.258,-1.84816,4.13689,10.1055,0.161187,-0.236474,-0.294734,0
2024-12-13 15:23:11.260,-1.83141,4.09861,10.4623,0.115985,-0.335431,-0.328941,0
2024-12-13 15:23:11.263,-1.75962,3.99093,10.8691,0.0726145,-0.441108,-0.364981,0
2024-12-13 15:23:11.265,-1.6352,3.80668,11.2905,0.0274118,-0.552282,-0.402854,0
2024-12-13 15:23:11.267,-1.48205,3.57667,11.6689,-0.0147367,-0.669565,-0.440115,0
2024-12-13 15:23:11.270,-1.27597,3.29432,12.023,-0.057496,-0.78868,-0.479821,0
2024-12-13 15:23:11.272,-1.03908,2.98056,12.3918,-0.104531,-0.91085,-0.521969,0
2024-12-13 15:23:11.274,-0.828216,2.66471,12.7678,-0.152788,-1.02569,-0.561063,0
2024-12-13 15:23:11.277,-0.615255,2.34377,13.165,-0.199823,-1.13442,-0.599547,0
2024-12-13 15:23:11.279,-0.364008,2.01356,13.5984,-0.199823,-1.13442,-0.599547,0
2024-12-13 15:23:11.281,-0.122034,1.69262,14.0605,-0.292061,-1.31828,-0.667961,0
2024-12-13 15:23:11.284,0.0502493,1.38365,14.5633,-0.337264,-1.39342,-0.698504,0
2024-12-13 15:23:11.286,0.18664,1.09651,15.1044,-0.376358,-1.45695,-0.722938,0
2024-12-13 15:23:11.288,0.342473,0.835394,15.7053,-0.407511,-1.49787,-0.744317,0
2024-12-13 15:23:11.291,0.490828,0.608076,16.3205,-0.427669,-1.51864,-0.761421,0
2024-12-13 15:23:11.293,0.612862,0.404686,16.9191,-0.437443,-1.50948,-0.773027,0
2024-12-13 15:23:11.296,0.708575,0.289831,17.5247,-0.435,-1.47894,-0.781579,0
2024-12-13 15:23:11.298,0.658325,0.277567,17.9198,-0.419118,-1.41846,-0.780968,0
2024-12-13 15:23:11.300,0.708575,0.18664,18.3269,-0.403846,-1.32806,-0.770584,0
2024-12-13 15:23:11.304,0.912264,-0.00239282,18.8895,-0.326269,-1.11732,-0.750426,0
2024-12-13 15:23:11.305,1.04865,-0.215354,19.3011,-0.326269,-1.11732,-0.750426,0
2024-12-13 15:23:11.307,1.14915,-0.440578,19.5622,-0.274347,-0.980486,-0.741263,0
2024-12-13 15:23:11.310,1.18983,-0.648754,19.6938,-0.213873,-0.824109,-0.729046,0
2024-12-13 15:23:11.312,1.19222,-0.842872,19.7034,-0.144847,-0.645131,-0.71744,0
2024-12-13 15:23:11.314,1.14676,-1.02473,19.6316,-0.0739889,-0.456379,-0.70278,1
2024-12-13 15:23:11.319,0.74686,-1.29512,19.3442,0.00542127,-0.271293,-0.683843,0
2024-12-13 15:23:11.321,0.330509,-1.30229,18.9829,0.166685,0.0964375,-0.630089,0
2024-12-13 15:23:11.321,0.330509,-1.30229,18.9829,0.166685,0.0964375,-0.630089,0
2024-12-13 15:23:11.324,-0.157926,-1.22812,18.5279,0.243041,0.277859,-0.58733,0
2024-12-13 15:23:11.326,-0.646361,-1.08455,18.0323,0.316953,0.451951,-0.536018,0
2024-12-13 15:23:11.328,-1.12762,-0.897907,17.4864,0.384834,0.615047,-0.476766,0
2024-12-13 15:23:11.331,-1.5993,-0.675075,16.8856,0.384834,0.615047,-0.476766,0
2024-12-13 15:23:11.333,-2.09013,-0.452543,16.2057,0.496008,0.883285,-0.331385,0
2024-12-13 15:23:11.336,-2.61446,-0.208176,15.3963,0.533881,0.997514,-0.247699,0
2024-12-13 15:23:11.338,-2.99492,0.0191426,14.6734,0.555871,1.09647,-0.157293,0
2024-12-13 15:23:11.343,-3.201,0.174676,13.4309,0.560758,1.20826,0.0241285,0
2024-12-13 15:23:11.343,-3.34457,0.313759,13.4309,0.560758,1.20826,0.0241285,0
2024-12-13 15:23:11.345,-3.4355,0.435793,12.8037,0.560758,1.20826,0.0241285,0
2024-12-13 15:23:11.347,-3.44985,0.533899,12.2219,0.516777,1.22414,0.187301,0
2024-12-13 15:23:11.350,-3.38764,0.632004,11.688,0.480737,1.20154,0.255716,0
2024-12-13 15:23:11.352,-3.2991,0.770788,11.202,0.43248,1.16,0.315579,0
2024-12-13 15:23:11.354,-3.18664,0.914656,10.7997,0.376893,1.10075,0.365058,0
2024-12-13 15:23:11.357,-3.0332,1.0678,10.491,0.315732,1.02439,0.405374,0
2024-12-13 15:23:11.359,-2.48734,0.99362,10.558,0.24976,0.929099,0.428586,0
2024-12-13 15:23:11.361,-1.80748,0.811466,10.9675,0.195395,0.77883,0.425531,0
2024-12-13 15:23:11.364,-1.9008,1.08455,10.6035,0.147138,0.642535,0.404763,0
2024-12-13 15:23:11.366,-2.24806,1.58255,9.97867,0.0817772,0.572898,0.394378,0
2024-12-13 15:23:11.369,-2.07577,1.9008,10.2538,0.0249684,0.491656,0.386437,0
2024-12-13 15:23:11.371,-1.86012,2.16192,10.6896,-0.0238994,0.369486,0.371166,0
2024-12-13 15:23:11.373,-1.82662,2.48495,10.7949,-0.0238994,0.369486,0.371166,0
2024-12-13 15:23:11.376,-1.80748,2.80349,10.8212,-0.116137,0.11965,0.333904,0
2024-12-13 15:23:11.378,-1.77398,3.05952,10.8739,-0.160118,0.0096972,0.318633,0
2024-12-13 15:23:11.380,-1.67109,3.22493,10.9771,-0.20471,-0.0880384,0.301529,0
2024-12-13 15:23:11.383,-1.49163,3.31107,11.1326,-0.245637,-0.180276,0.286258,0
2024-12-13 15:23:11.385,-1.23529,3.32064,11.3001,-0.285953,-0.266406,0.267933,0
2024-12-13 15:23:11.387,-0.914656,3.25603,11.5134,-0.321382,-0.348259,0.24411,0
2024-12-13 15:23:11.390,-0.54347,3.12204,11.8029,-0.348259,-0.424004,0.2154,0
2024-12-13 15:23:11.392,-0.162712,2.92074,12.131,-0.371471,-0.491198,0.179971,0
2024-12-13 15:23:11.394,0.18664,2.70299,12.466,-0.382467,-0.544952,0.139044,0
2024-12-13 15:23:11.397,0.500399,2.50409,12.7822,-0.383688,-0.584046,0.0913217,0
2024-12-13 15:23:11.400,0.773181,2.34616,13.0669,-0.357422,-0.618865,-0.0161875,0
2024-12-13 15:23:11.401,0.974477,2.23131,13.34,-0.357422,-0.618865,-0.0161875,0
2024-12-13 15:23:11.404,1.07976,2.15234,13.5721,-0.330545,-0.611534,-0.0693312,0
2024-12-13 15:23:11.407,1.10608,2.08774,13.7204,-0.254189,-0.559612,-0.171343,0
2024-12-13 15:23:11.409,1.07976,2.0351,13.7973,-0.254189,-0.559612,-0.171343,0
2024-12-13 15:23:11.411,1.02233,1.99681,13.7877,-0.207764,-0.51441,-0.215935,0
2024-12-13 15:23:11.413,0.933799,1.96062,13.7013,-0.160729,-0.458212,-0.258083,0
2024-12-13 15:23:11.416,0.801895,1.91994,13.5529,-0.114305,-0.398349,-0.295956,0
2024-12-13 15:23:11.418,0.634397,1.87687,13.3543,-0.0691021,-0.334821,-0.324665,0
2024-12-13 15:23:11.420,0.4334,1.85533,13.1052,-0.0275645,-0.271293,-0.34971,0
2024-12-13 15:23:11.423,0.181855,1.86012,12.7846,0.010308,-0.202878,-0.365592,0
2024-12-13 15:23:11.425,-0.081356,1.8673,12.4277,0.0439046,-0.137517,-0.377198,0
2024-12-13 15:23:11.427,-0.335294,1.85773,12.0637,0.0695602,-0.0764323,-0.380863,0
2024-12-13 15:23:11.430,-0.584148,1.85773,11.6928,0.0909399,-0.021456,-0.379642,0
2024-12-13 15:23:11.432,-0.82343,1.89601,11.3169,0.108044,0.0298552,-0.372311,0
2024-12-13 15:23:11.435,-1.03908,1.92473,10.9651,0.117206,0.0799446,-0.362538,0
2024-12-13 15:23:11.437,-1.2329,1.96062,10.6609,0.123315,0.126369,-0.347878,0
2024-12-13 15:23:11.439,-1.40788,2.00877,10.3807,0.128812,0.169128,-0.330163,0
2024-12-13 15:23:11.442,-1.5347,2.04945,10.139,0.132477,0.207001,-0.310005,0
2024-12-13 15:23:11.444,-1.6328,2.09013,9.91167,0.138586,0.246706,-0.290458,0
2024-12-13 15:23:11.446,-1.71416,2.14517,9.67209,0.141029,0.285189,-0.267246,0
2024-12-13 15:23:11.449,-1.80509,2.19063,9.41845,0.142862,0.320008,-0.247088,0
2024-12-13 15:23:11.451,-1.88405,2.22413,9.15973,0.144694,0.356048,-0.226319,0
2024-12-13 15:23:11.453,-1.93908,2.27677,8.89891,0.144084,0.38659,-0.203107,0
2024-12-13 15:23:11.457,-1.98724,2.3342,8.64736,0.136143,0.436069,-0.16218,0
2024-12-13 15:23:11.458,-2.00399,2.4012,8.39851,0.136143,0.436069,-0.16218,0
2024-12-13 15:23:11.460,-2.01117,2.46102,8.14248,0.129423,0.454394,-0.143244,0
2024-12-13 15:23:11.463,-2.00399,2.49452,7.9005,0.117206,0.466,-0.123697,0
2024-12-13 15:23:11.465,-1.95344,2.51605,7.68276,0.117206,0.466,-0.123697,0
2024-12-13 15:23:11.467,-1.52752,2.26002,7.95314,0.086664,0.461113,-0.0974301,0
2024-12-13 15:23:11.470,-1.27837,2.09492,8.04646,0.0854423,0.420797,-0.105371,0
2024-12-13 15:23:11.472,-1.64955,2.34856,7.369,0.0781121,0.423852,-0.106593,0
2024-12-13 15:23:11.475,-1.85294,2.56421,6.98824,0.0597867,0.450118,-0.0998735,0
2024-12-13 15:23:11.477,-1.83859,2.7006,7.04836,0.042683,0.458059,-0.0901,0
2024-12-13 15:23:11.479,-1.92473,2.85853,7.0002,0.0268009,0.448896,-0.077883,0
2024-12-13 15:23:11.482,-2.01595,3.00927,6.88056,0.00542127,0.434847,-0.0656661,0
2024-12-13 15:23:11.484,-2.04706,3.14596,6.76571,-0.0196235,0.40858,-0.0503949,0
2024-12-13 15:23:11.486,-2.08295,3.2656,6.59582,-0.0471116,0.384147,-0.0387888,0
2024-12-13 15:23:11.489,-2.05424,3.33739,6.5001,-0.0764323,0.360324,-0.0271827,0
2024-12-13 15:23:11.491,-1.95344,3.37567,6.47857,-0.105142,0.334668,-0.0167983,0
2024-12-13 15:23:11.493,-1.83859,3.40678,6.50967,-0.131409,0.307791,-0.0131332,0
2024-12-13 15:23:11.496,-1.71177,3.42592,6.57667,-0.158897,0.277248,-0.0143549,0
2024-12-13 15:23:11.498,-1.58016,3.42353,6.64367,-0.180887,0.247928,-0.0192417,0
2024-12-13 15:23:11.500,-1.45573,3.40917,6.76571,-0.201656,0.214942,-0.0296261,0
2024-12-13 15:23:11.503,-1.33579,3.37807,6.93081,-0.215095,0.182567,-0.0473407,0
2024-12-13 15:23:11.505,-1.24487,3.34457,7.09861,-0.226701,0.150803,-0.0681095,0
2024-12-13 15:23:11.507,-1.20658,3.30628,7.26371,-0.231587,0.117206,-0.0913217,0
2024-12-13 15:23:11.512,-1.21854,3.25125,7.55803,-0.226701,0.0512348,-0.141411,0
2024-12-13 15:23:11.512,-1.21854,3.25125,7.55803,-0.226701,0.0512348,-0.141411,0
2024-12-13 15:23:11.515,-1.26401,3.23928,7.69472,-0.213873,0.0176382,-0.166456,0
2024-12-13 15:23:11.517,-1.34058,3.22253,7.80479,-0.202267,-0.0116825,-0.187225,0
2024-12-13 15:23:11.519,-1.43659,3.20578,7.88615,-0.186996,-0.0391706,-0.204328,0
2024-12-13 15:23:11.522,-1.56102,3.18903,7.95554,-0.172946,-0.0703238,-0.217767,0
2024-12-13 15:23:11.524,-1.67587,3.16032,7.99861,-0.155842,-0.0990336,-0.228762,0
2024-12-13 15:23:11.526,-1.76441,3.10768,8.01775,-0.138739,-0.128965,-0.234871,0
2024-12-13 15:23:11.529,-1.82901,3.03559,8.03211,-0.124078,-0.154621,-0.235482,0
2024-12-13 15:23:11.531,-1.86491,2.95902,8.05604,-0.108196,-0.181498,-0.237314,0
2024-12-13 15:23:11.533,-1.87687,2.89681,8.06082,-0.0929251,-0.21143,-0.233038,0
2024-12-13 15:23:11.536,-1.87448,2.82503,8.06082,-0.0831516,-0.241361,-0.229373,0
2024-12-13 15:23:11.538,-1.85294,2.76281,8.06561,-0.0770431,-0.271903,-0.228151,0
2024-12-13 15:23:11.540,-1.82662,2.71256,8.06082,-0.0697129,-0.300613,-0.223265,0
2024-12-13 15:23:11.543,-1.8338,2.65992,8.08236,-0.0642153,-0.333599,-0.2196,0
2024-12-13 15:23:11.545,-1.85773,2.62403,8.12782,-0.0599394,-0.364752,-0.215935,0
2024-12-13 15:23:11.548,-1.86491,2.59771,8.17598,-0.0581068,-0.395295,-0.210437,0
2024-12-13 15:23:11.550,-1.87448,2.57617,8.22862,-0.0581068,-0.424615,-0.203718,0
2024-12-13 15:23:11.552,-1.89123,2.56421,8.30758,-0.0587177,-0.450882,-0.196998,0
2024-12-13 15:23:11.555,-1.90319,2.55224,8.39851,-0.0611611,-0.475926,-0.189057,0
2024-12-13 15:23:11.557,-1.9008,2.53071,8.46551,-0.0605502,-0.496695,-0.182949,0
2024-12-13 15:23:11.559,-1.88883,2.53071,8.53011,-0.0629936,-0.518686,-0.175619,0
2024-12-13 15:23:11.562,-1.86969,2.52832,8.61386,-0.0642153,-0.537011,-0.167678,0
2024-12-13 15:23:11.564,-1.8338,2.51366,8.7027,-0.0636045,-0.553504,-0.159126,0
2024-12-13 15:23:11.569,-1.7333,2.48734,8.87498,-0.0721563,-0.57244,-0.146298,0
2024-12-13 15:23:11.569,-1.7333,2.48734,8.87498,-0.0721563,-0.57244,-0.146298,0
2024-12-13 15:23:11.571,-1.6663,2.47059,8.94676,-0.0782648,-0.577938,-0.141411,0
2024-12-13 15:23:11.573,-1.62562,2.45384,9.04008,-0.0849841,-0.581603,-0.138357,0
2024-12-13 15:23:11.576,-1.59691,2.46341,9.12862,-0.0898709,-0.584046,-0.134692,0
2024-12-13 15:23:11.578,-1.54427,2.48016,9.22672,-0.0941468,-0.582214,-0.13347,0
2024-12-13 15:23:11.580,-1.50598,2.49452,9.32513,-0.101477,-0.577938,-0.13347,0
2024-12-13 15:23:11.583,-1.49402,2.50648,9.43041,-0.104531,-0.574884,-0.132859,0
2024-12-13 15:23:11.588,-1.42941,2.48973,9.63859,-0.117359,-0.56511,-0.135914,0
2024-12-13 15:23:11.588,-1.42941,2.48973,9.63859,-0.117359,-0.56511,-0.135914,0
2024-12-13 15:23:11.590,-1.38844,2.46102,9.74627,-0.122857,-0.558391,-0.135914,0
2024-12-13 15:23:11.592,-1.34297,2.45863,9.85664,-0.126522,-0.544952,-0.140189,0
2024-12-13 15:23:11.595,-1.30947,2.45384,9.94995,-0.130187,-0.531513,-0.142022,0
2024-12-13 15:23:11.597,-1.29512,2.44666,10.0289,-0.135074,-0.515021,-0.146298,0
2024-12-13 15:23:11.599,-1.26879,2.45145,10.1031,-0.136295,-0.493641,-0.149963,0
2024-12-13 15:23:11.602,-1.23051,2.44188,10.1964,-0.138128,-0.47104,-0.154239,0
2024-12-13 15:23:11.604,-1.22094,2.42752,10.2826,-0.141182,-0.445995,-0.156682,0
2024-12-13 15:23:11.606,-1.1994,2.41795,10.3687,-0.140571,-0.42095,-0.160347,0
2024-12-13 15:23:11.609,-1.17547,2.3988,10.4647,-0.141182,-0.395295,-0.164623,0
2024-12-13 15:23:11.611,-1.15155,2.37488,10.5437,-0.144236,-0.369639,-0.16951,0
2024-12-13 15:23:11.613,-1.1348,2.34616,10.5963,-0.143015,-0.342762,-0.172564,0
2024-12-13 15:23:11.616,-1.1324,2.32463,10.6585,-0.13996,-0.313441,-0.176229,0
2024-12-13 15:23:11.618,-1.11805,2.31027,10.7327,-0.138128,-0.287785,-0.180505,0
2024-12-13 15:23:11.621,-1.12044,2.29831,10.7925,-0.136295,-0.262741,-0.185392,0
2024-12-13 15:23:11.623,-1.1324,2.28395,10.85,-0.132019,-0.238918,-0.185392,0
2024-12-13 15:23:11.625,-1.13958,2.26481,10.893,-0.128965,-0.214484,-0.189668,0
2024-12-13 15:23:11.628,-1.15155,2.25763,10.9193,-0.123468,-0.189439,-0.191501,0
2024-12-13 15:23:11.630,-1.31426,2.35573,10.8117,-0.11797,-0.160118,-0.189668,0
2024-12-13 15:23:11.632,-1.39561,2.41077,10.7327,-0.11797,-0.123468,-0.18356,0
2024-12-13 15:23:11.635,-1.21854,2.30309,10.9002,-0.117359,-0.10392,-0.181116,0
2024-12-13 15:23:11.637,-1.10608,2.21216,11.0273,-0.114305,-0.0959794,-0.180505,0
2024-12-13 15:23:11.639,-1.08694,2.1332,10.9866,-0.11064,-0.0800973,-0.18356,0
2024-12-13 15:23:11.642,-1.05344,2.05663,10.9603,-0.106364,-0.0623828,-0.184781,0
2024-12-13 15:23:11.644,-1.02712,2.01835,10.989,-0.0996445,-0.0403923,-0.187836,0
2024-12-13 15:23:11.646,-1.0343,2.01117,11.0393,-0.0953685,-0.0171801,-0.19089,0
2024-12-13 15:23:11.649,-1.06062,2.01595,11.0752,-0.0874275,0.00419957,-0.192722,0
2024-12-13 15:23:11.651,-1.10608,2.04706,11.0632,-0.0764323,0.0249684,-0.192111,0
2024-12-13 15:23:11.654,-1.17069,2.07099,11.0393,-0.0672696,0.0439046,-0.187836,0
2024-12-13 15:23:11.656,-1.22572,2.09492,11.0345,-0.057496,0.0628409,-0.182949,0
2024-12-13 15:23:11.658,-1.26879,2.13081,11.0178,-0.0489441,0.0829989,-0.175619,0
2024-12-13 15:23:11.661,-1.29751,2.14038,10.9986,-0.0489441,0.0829989,-0.175619,0
2024-12-13 15:23:11.663,-1.2999,2.14995,10.9866,-0.0281753,0.115985,-0.156682,0
2024-12-13 15:23:11.665,-1.27597,2.15474,10.9555,-0.0147367,0.128812,-0.146909,0
2024-12-13 15:23:11.668,-1.24726,2.1332,10.9098,-0.0019089,0.140419,-0.138357,0
2024-12-13 15:23:11.670,-1.22333,2.12842,10.8691,0.0115297,0.153246,-0.129805,0
2024-12-13 15:23:11.672,-1.17547,2.14995,10.8236,0.0249684,0.166685,-0.123697,0
2024-12-13 15:23:11.675,-1.14197,2.16192,10.7614,0.0439046,0.177069,-0.11881,0
2024-12-13 15:23:11.677,-1.13958,2.17627,10.6849,0.0579541,0.183789,-0.114534,0
2024-12-13 15:23:11.679,-1.12762,2.20259,10.6035,0.0738362,0.189897,-0.113312,0
2024-12-13 15:23:11.682,-1.1324,2.23849,10.503,0.090329,0.19906,-0.109036,0
2024-12-13 15:23:11.684,-1.1324,2.27199,10.3881,0.104989,0.201503,-0.105982,0
2024-12-13 15:23:11.686,-1.12522,2.29591,10.273,0.119039,0.204557,-0.104149,0
2024-12-13 15:23:11.689,-1.11565,2.31745,10.1581,0.133088,0.207001,-0.101095,0
2024-12-13 15:23:11.691,-1.08455,2.34138,10.0505,0.144694,0.20639,-0.100484,0
2024-12-13 15:23:11.694,-1.06301,2.35573,9.94995,0.15569,0.207612,-0.100484,0
2024-12-13 15:23:11.696,-1.04626,2.35813,9.83988,0.167296,0.208223,-0.101095,0
2024-12-13 15:23:11.698,-1.00558,2.35813,9.70798,0.177069,0.20639,-0.101706,0
2024-12-13 15:23:11.701,-0.955334,2.36291,9.57159,0.183178,0.203947,-0.104149,0
2024-12-13 15:23:11.703,-0.924228,2.37248,9.43998,0.188065,0.201503,-0.107204,0
2024-12-13 15:23:11.705,-0.9003,2.37966,9.30838,0.192341,0.199671,-0.110869,0
2024-12-13 15:23:11.708,-0.888335,2.38923,9.19562,0.195395,0.195395,-0.115145,0
2024-12-13 15:23:11.710,-0.873978,2.39641,9.09512,0.195395,0.188675,-0.119421,0
2024-12-13 15:23:11.712,-0.847657,2.41316,8.99462,0.197227,0.183789,-0.12614,0
2024-12-13 15:23:11.715,-0.833001,2.4323,8.91326,0.197227,0.183789,-0.12614,0
2024-12-13 15:23:11.717,-0.82343,2.44188,8.8343,0.196006,0.173404,-0.138357,0
2024-12-13 15:23:11.719,-0.804287,2.43948,8.77209,0.198449,0.172183,-0.144465,0
2024-12-13 15:23:11.722,-0.777966,2.44188,8.72902,0.19906,0.168517,-0.151796,0
2024-12-13 15:23:11.724,-0.737288,2.44188,8.67129,0.19906,0.168517,-0.158515,0
2024-12-13 15:23:11.727,-0.682254,2.42991,8.61147,0.200892,0.168517,-0.165234,0
2024-12-13 15:23:11.729,-0.641576,2.41555,8.56361,0.203947,0.172183,-0.173786,0
2024-12-13 15:23:11.731,-0.617647,2.39641,8.51336,0.203947,0.172183,-0.173786,0
2024-12-13 15:23:11.734,-0.600898,2.37009,8.45833,0.208833,0.181345,-0.189057,0
2024-12-13 15:23:11.736,-0.579362,2.34138,8.38654,0.214331,0.186232,-0.195166,0
2024-12-13 15:23:11.738,-0.567398,2.32702,8.32672,0.22044,0.192951,-0.200663,0
2024-12-13 15:23:11.741,-0.567398,2.31745,8.27408,0.224105,0.202114,-0.204328,0
2024-12-13 15:23:11.743,-0.56022,2.29352,8.20708,0.228991,0.211888,-0.207993,0
2024-12-13 15:23:11.745,-0.553041,2.28156,8.135,0.2351,0.219218,-0.214102,0
2024-12-13 15:23:11.748,-0.557827,2.27916,8.07996,0.239376,0.227159,-0.217156,0
2024-12-13 15:23:11.751,-0.567398,2.26002,8.00818,0.255869,0.244263,-0.218378,0
2024-12-13 15:23:11.752,-0.588933,2.25284,7.91486,0.255869,0.244263,-0.218378,0
2024-12-13 15:23:11.755,-0.60329,2.25524,7.83829,0.263199,0.255258,-0.217767,0
2024-12-13 15:23:11.757,-0.622433,2.24327,7.7665,0.272362,0.261977,-0.215324,0
2024-12-13 15:23:11.760,-0.622433,2.23131,7.68276,0.272362,0.261977,-0.215324,0
2024-12-13 15:23:11.764,-0.63679,2.21934,7.48385,0.297406,0.282135,-0.209826,0
2024-12-13 15:23:11.764,-0.63679,2.21934,7.48385,0.297406,0.282135,-0.209826,0
2024-12-13 15:23:11.767,-0.641576,2.20977,7.37378,0.304126,0.287022,-0.209215,0
2024-12-13 15:23:11.769,-0.641576,2.21934,7.27089,0.311456,0.291298,-0.206161,0
2024-12-13 15:23:11.772,-0.655932,2.23131,7.16561,0.324284,0.296185,-0.203718,0
2024-12-13 15:23:11.774,-0.665504,2.2337,7.06032,0.324284,0.296185,-0.203718,0
2024-12-13 15:23:11.776,-0.672682,2.23131,6.95952,0.331614,0.296185,-0.201274,0
2024-12-13 15:23:11.778,-0.670289,2.21934,6.84467,0.332835,0.294352,-0.19822,0
2024-12-13 15:23:11.781,-0.677468,2.21216,6.72742,0.3365,0.290076,-0.196998,0
2024-12-13 15:23:11.783,-0.691825,2.21456,6.6341,0.338333,0.281524,-0.196998,0
2024-12-13 15:23:11.785,-0.689432,2.22413,6.53839,0.339555,0.272972,-0.193944,0
2024-12-13 15:23:11.788,-0.677468,2.22891,6.45195,0.341387,0.263199,-0.195166,0
2024-12-13 15:23:11.790,-0.670289,2.2337,6.36341,0.339555,0.247317,-0.194555,0
2024-12-13 15:23:11.792,-0.672682,2.24088,6.27488,0.335279,0.230824,-0.194555,0
2024-12-13 15:23:11.795,-0.667897,2.23131,6.18634,0.331003,0.213109,-0.196387,0
2024-12-13 15:23:11.797,-0.658325,2.22174,6.11217,0.32917,0.195395,-0.196998,0
2024-12-13 15:23:11.800,-0.663111,2.23609,6.04995,0.323062,0.175237,-0.198831,0
2024-12-13 15:23:11.803,-0.667897,2.25045,5.98774,0.312677,0.136753,-0.204939,0
2024-12-13 15:23:11.804,-0.663111,2.27438,5.95185,0.312677,0.136753,-0.204939,0
2024-12-13 15:23:11.807,-0.655932,2.31266,5.92074,0.306569,0.116595,-0.209826,0
2024-12-13 15:23:11.809,-0.658325,2.34138,5.89203,0.29985,0.0970484,-0.214713,0
2024-12-13 15:23:11.811,-0.663111,2.3677,5.88933,0.294963,0.0781121,-0.22021,0
2024-12-13 15:23:11.814,-0.663111,2.39163,5.88455,0.290076,0.0622301,-0.224486,0
2024-12-13 15:23:11.816,-0.663111,2.41795,5.89203,0.286411,0.0451263,-0.231817,0
2024-12-13 15:23:11.818,-0.667897,2.4347,5.90638,0.283357,0.0274118,-0.238536,0
2024-12-13 15:23:11.821,-0.675075,2.46341,5.9327,0.280913,0.010308,-0.245866,0
2024-12-13 15:23:11.823,-0.689432,2.4993,5.9686,0.279692,-0.00496313,-0.253807,0
2024-12-13 15:23:11.825,-0.718146,2.51845,5.97817,0.279692,-0.00496313,-0.253807,0
2024-12-13 15:23:11.828,-0.749253,2.51845,6.00449,0.277859,-0.0355055,-0.2703,0
2024-12-13 15:23:11.830,-0.782752,2.51366,6.0332,0.279081,-0.0544418,-0.277019,0
2024-12-13 15:23:11.833,-0.811466,2.52323,6.04277,0.282746,-0.0715455,-0.284349,0
2024-12-13 15:23:11.835,-0.845265,2.53789,6.07627,0.283968,-0.0910926,-0.29229,0
2024-12-13 15:23:11.837,-0.893121,2.5331,6.11934,0.2858,-0.111861,-0.298399,0
2024-12-13 15:23:11.840,-0.931406,2.51845,6.13849,0.288244,-0.136295,-0.304507,0
2024-12-13 15:23:11.842,-0.957727,2.51366,6.17438,0.291298,-0.161951,-0.307562,0
2024-12-13 15:23:11.844,-0.988834,2.5017,6.22702,0.29313,-0.190661,-0.31367,0
2024-12-13 15:23:11.847,-1.02951,2.48734,6.27966,0.296795,-0.219371,-0.317335,0
2024-12-13 15:23:11.849,-1.06301,2.48016,6.32513,0.301071,-0.251135,-0.317946,0
2024-12-13 15:23:11.851,-1.08694,2.4682,6.37777,0.29985,-0.281677,-0.318557,0
2024-12-13 15:23:11.856,-1.11565,2.44666,6.5025,0.305958,-0.334821,-0.31367,0
2024-12-13 15:23:11.856,-1.1324,2.44188,6.5025,0.305958,-0.334821,-0.31367,0
2024-12-13 15:23:11.858,-1.14915,2.43948,6.56949,0.307791,-0.359865,-0.310005,0
2024-12-13 15:23:11.861,-1.17787,2.44427,6.64367,0.308401,-0.383688,-0.305729,0
2024-12-13 15:23:11.863,-1.20419,2.43948,6.72264,0.313899,-0.404457,-0.298399,0
2024-12-13 15:23:11.865,-1.22094,2.42513,6.8016,0.316953,-0.423394,-0.290458,0
2024-12-13 15:23:11.868,-1.22572,2.43709,6.8662,0.319397,-0.440497,-0.281906,0
2024-12-13 15:23:11.870,-1.20658,2.44666,6.91406,0.323062,-0.458212,-0.273965,0
2024-12-13 15:23:11.873,-1.18265,2.45863,6.97627,0.325505,-0.472261,-0.267857,0
2024-12-13 15:23:11.875,-1.15633,2.48973,7.03879,0.326727,-0.488143,-0.259305,0
2024-12-13 15:23:11.880,-1.05583,2.52592,7.15364,0.326727,-0.509523,-0.247088,0
2024-12-13 15:23:11.880,-1.05583,2.52592,7.15364,0.326727,-0.509523,-0.247088,0
2024-12-13 15:23:11.882,-1.01276,2.55703,7.19911,0.326116,-0.519297,-0.243423,0
2024-12-13 15:23:11.884,-0.955334,2.58814,7.24457,0.326116,-0.526016,-0.240979,0
2024-12-13 15:23:11.887,-0.881157,2.60967,7.27568,0.322451,-0.530292,-0.237314,0
2024-12-13 15:23:11.889,-0.80668,2.64317,7.28046,0.320008,-0.532735,-0.239147,0
2024-12-13 15:23:11.891,-0.734896,2.66949,7.29482,0.310845,-0.538233,-0.24159,0
2024-12-13 15:23:11.894,-0.675075,2.70539,7.32353,0.302904,-0.540676,-0.244033,0
2024-12-13 15:23:11.896,-0.648754,2.76042,7.34268,0.290076,-0.541287,-0.250142,0
2024-12-13 15:23:11.898,-0.634397,2.80588,7.34985,0.274805,-0.539454,-0.258083,0
2024-12-13 15:23:11.901,-0.615255,2.85613,7.37139,0.255258,-0.538233,-0.266024,0
2024-12-13 15:23:11.903,-0.60329,2.9016,7.40489,0.233878,-0.538233,-0.278241,0
2024-12-13 15:23:11.906,-0.598505,2.94467,7.436,0.213109,-0.537011,-0.290458,0
2024-12-13 15:23:11.908,-0.593719,2.98056,7.46949,0.185621,-0.542509,-0.302675,0
2024-12-13 15:23:11.910,-0.586541,3.00688,7.54128,0.158133,-0.546785,-0.316113,0
2024-12-13 15:23:11.913,-0.605683,3.03559,7.65643,0.128202,-0.553504,-0.330774,0
2024-12-13 15:23:11.915,-0.639183,3.06431,7.77368,0.0982701,-0.562667,-0.346656,0
2024-12-13 15:23:11.917,-0.655932,3.09093,7.92682,0.0677277,-0.573662,-0.363149,0
2024-12-13 15:23:11.920,-0.667897,3.11486,8.10629,0.0677277,-0.573662,-0.363149,0
2024-12-13 15:23:11.924,-0.648754,3.08854,8.52772,-0.00801737,-0.609091,-0.40713,0
2024-12-13 15:23:11.927,-0.63679,3.07388,8.75534,-0.0306187,-0.621308,-0.42179,0
2024-12-13 15:23:11.927,-0.63679,3.07388,8.75534,-0.0306187,-0.621308,-0.42179,0
2024-12-13 15:23:11.929,-0.63679,3.03799,9.00898,-0.0501658,-0.631692,-0.43645,0
2024-12-13 15:23:11.931,-0.646361,2.99731,9.25783,-0.0629936,-0.641466,-0.449889,0
2024-12-13 15:23:11.934,-0.634397,2.94706,9.48306,-0.0752106,-0.652461,-0.463939,0
2024-12-13 15:23:11.936,-0.632004,2.89203,9.71755,-0.0837624,-0.664678,-0.477377,0
2024-12-13 15:23:11.939,-0.660718,2.83699,9.98106,-0.0874275,-0.675063,-0.488372,0
2024-12-13 15:23:11.941,-0.691825,2.77717,10.2275,-0.0880384,-0.682393,-0.497535,0
2024-12-13 15:23:11.943,-0.732503,2.72692,10.4647,-0.0874275,-0.691555,-0.504865,0
2024-12-13 15:23:11.946,-0.794716,2.69103,10.7088,-0.0843733,-0.697664,-0.507309,0
2024-12-13 15:23:11.948,-0.859622,2.6671,10.9484,-0.0758214,-0.698886,-0.509752,0
2024-12-13 15:23:11.950,-0.924228,2.64796,11.1972,-0.065437,-0.70194,-0.507919,0
2024-12-13 15:23:11.953,-1.00558,2.62403,11.4389,-0.0471116,-0.698886,-0.5012,0
2024-12-13 15:23:11.955,-1.09651,2.60249,11.6833,-0.0287862,-0.695831,-0.492037,0
2024-12-13 15:23:11.957,-1.19462,2.60249,11.9273,-0.00801737,-0.690945,-0.477988,0
2024-12-13 15:23:11.960,-1.28554,2.61207,12.1406,0.0219141,-0.677506,-0.463328,0
2024-12-13 15:23:11.962,-1.37886,2.63121,12.3081,0.0542891,-0.656126,-0.44317,0
2024-12-13 15:23:11.967,-1.51077,2.71256,12.5689,0.12698,-0.585268,-0.391859,0
2024-12-13 15:23:11.967,-1.51077,2.71256,12.5689,0.12698,-0.585268,-0.391859,0
2024-12-13 15:23:11.969,-1.55862,2.76281,12.6649,0.166074,-0.540676,-0.36376,0
2024-12-13 15:23:11.971,-1.60409,2.82981,12.6912,0.204557,-0.488143,-0.333217,0
2024-12-13 15:23:11.974,-1.65912,2.90399,12.6386,0.243652,-0.431335,-0.301453,0
2024-12-13 15:23:11.979,-1.74287,3.07867,12.3894,0.306569,-0.314052,-0.238536,0
2024-12-13 15:23:11.979,-1.74287,3.07867,12.3894,0.306569,-0.314052,-0.238536,0
2024-12-13 15:23:11.981,-1.79551,3.18664,12.1908,0.329781,-0.260908,-0.208604,0
2024-12-13 15:23:11.983,-1.84576,3.27996,11.9656,0.345052,-0.21204,-0.178673,0
2024-12-13 15:23:11.986,-1.87208,3.39003,11.7263,0.349939,-0.174168,-0.153628,0
2024-12-13 15:23:11.988,-1.87687,3.49771,11.511,0.348717,-0.143015,-0.131638,0
2024-12-13 15:23:11.990,-1.88644,3.58146,11.3384,0.339555,-0.122246,-0.110869,0
2024-12-13 15:23:11.993,-1.86969,3.66551,11.1685,0.322451,-0.106364,-0.0962084,0
2024-12-13 15:23:11.997,-1.75244,3.8019,10.7853,0.269307,-0.0984228,-0.0723854,0
2024-12-13 15:23:11.997,-1.75244,3.8019,10.7853,0.269307,-0.0984228,-0.0723854,0
2024-12-13 15:23:12.000,-1.65194,3.84018,10.6585,0.232656,-0.101477,-0.0674986,0
2024-12-13 15:23:12.002,-1.55384,3.87368,10.5987,0.192341,-0.11064,-0.0656661,0
2024-12-13 15:23:12.004,-1.45573,3.92632,10.5963,0.147749,-0.127743,-0.0687203,0
2024-12-13 15:23:12.007,-1.35494,3.98854,10.6537,0.0982701,-0.150345,-0.0754396,0
2024-12-13 15:23:12.009,-1.24726,4.06271,10.7327,0.0512348,-0.176,-0.0870457,0
2024-12-13 15:23:12.012,-1.13001,4.1345,10.8476,0.00175619,-0.199213,-0.102928,0
2024-12-13 15:23:12.016,-0.847657,4.2015,11.2068,-0.0892601,-0.245026,-0.143855,0
2024-12-13 15:23:12.016,-0.847657,4.2015,11.2068,-0.0892601,-0.245026,-0.143855,0
2024-12-13 15:23:12.019,-0.715753,4.21855,11.4293,-0.133241,-0.263352,-0.170121,0
2024-12-13 15:23:12.021,-0.627219,4.2353,11.6785,-0.173557,-0.276179,-0.195777,0
2024-12-13 15:23:12.023,-0.562612,4.25444,11.9465,-0.205321,-0.285342,-0.223876,0
2024-12-13 15:23:12.026,-0.50997,4.25205,12.2291,-0.23342,-0.292672,-0.251364,0
2024-12-13 15:23:12.028,-0.471685,4.23051,12.5306,-0.257854,-0.292672,-0.278241,0
2024-12-13 15:23:12.030,-0.457328,4.18475,12.8348,-0.277401,-0.288396,-0.302675,0
2024-12-13 15:23:12.033,-0.440578,4.13689,13.1172,-0.289007,-0.278012,-0.325887,0
2024-12-13 15:23:12.035,-0.421436,4.10339,13.3878,-0.294505,-0.261519,-0.347878,0
2024-12-13 15:23:12.040,-0.464507,4.01007,13.8428,-0.292061,-0.21204,-0.380863,0
2024-12-13 15:23:12.042,-0.464507,3.95025,14.0031,-0.284731,-0.180887,-0.395524,0
2024-12-13 15:23:12.042,-0.500399,3.95025,14.0031,-0.284731,-0.180887,-0.395524,0
2024-12-13 15:23:12.045,-0.550648,3.88804,14.1132,-0.275568,-0.148512,-0.402854,0
2024-12-13 15:23:12.047,-0.622433,3.83061,14.1921,-0.265184,-0.116137,-0.409573,0
2024-12-13 15:23:12.049,-0.708575,3.76122,14.24,-0.256021,-0.085595,-0.413238,0
2024-12-13 15:23:12.052,-0.787538,3.68226,14.2639,-0.243804,-0.057496,-0.412627,0
2024-12-13 15:23:12.054,-0.859622,3.61735,14.2615,-0.236474,-0.033673,-0.407741,0
2024-12-13 15:23:12.056,-0.924228,3.53839,14.2185,-0.226701,-0.0129041,-0.401632,0
2024-12-13 15:23:12.059,-0.97687,3.46899,14.1706,-0.21876,0.00847551,-0.39308,0
2024-12-13 15:23:12.061,-1.03669,3.42114,14.1203,-0.215095,0.0268009,-0.383307,0
2024-12-13 15:23:12.063,-1.08455,3.38285,14.0486,-0.210819,0.0420721,-0.368646,0
2024-12-13 15:23:12.066,-1.13958,3.3326,13.9576,-0.210208,0.0548999,-0.354597,0
2024-12-13 15:23:12.068,-1.2018,3.2991,13.8739,-0.210819,0.0683385,-0.339936,0
2024-12-13 15:23:12.071,-1.25444,3.28714,13.8093,-0.210819,0.0683385,-0.339936,0
2024-12-13 15:23:12.073,-1.2999,3.28235,13.7566,-0.216316,0.086664,-0.301453,0
2024-12-13 15:23:12.075,-1.32383,3.27039,13.7037,-0.224868,0.0909399,-0.284349,0
2024-12-13 15:23:12.077,-1.34297,3.24168,13.6511,-0.231587,0.0921616,-0.266024,0
2024-12-13 15:23:12.080,-1.32861,3.21057,13.6008,-0.241972,0.0909399,-0.24892,0
2024-12-13 15:23:12.082,-1.30229,3.16032,13.5673,-0.252967,0.0884965,-0.231817,0
2024-12-13 15:23:12.085,-1.29272,3.10768,13.5458,-0.265184,0.0836097,-0.218378,0
2024-12-13 15:23:12.087,-1.24965,3.07867,13.5194,-0.278012,0.0768904,-0.203718,0
2024-12-13 15:23:12.089,-1.1994,3.04756,13.5123,-0.294505,0.0713928,-0.189668,0
2024-12-13 15:23:12.092,-1.18744,2.97817,13.5194,-0.309776,0.0628409,-0.175619,0
2024-12-13 15:23:12.094,-1.16112,2.9016,13.5386,-0.325658,0.0524565,-0.163402,0
2024-12-13 15:23:12.096,-1.11805,2.84417,13.5601,-0.34154,0.0402396,-0.151185,0
2024-12-13 15:23:12.099,-1.08215,2.78913,13.6032,-0.361698,0.0255792,-0.138968,0
2024-12-13 15:23:12.101,-1.04626,2.74606,13.6798,-0.378802,0.0133623,-0.127362,0
2024-12-13 15:23:12.103,-0.996012,2.70539,13.7468,-0.39224,0.00358873,-0.113923,0
2024-12-13 15:23:12.106,-0.948156,2.64796,13.8332,-0.405679,-0.00313059,-0.100484,0
2024-12-13 15:23:12.108,-0.897907,2.59771,13.9146,-0.419728,-0.00313059,-0.0876566,0
2024-12-13 15:23:12.110,-0.857229,2.53789,13.972,-0.431945,-0.00129805,-0.0705529,0
2024-12-13 15:23:12.113,-0.828216,2.48255,14.0198,-0.44233,0.00481042,-0.0528383,0
2024-12-13 15:23:12.115,-0.792323,2.4347,14.0725,-0.449049,0.014584,-0.0351237,0
2024-12-13 15:23:12.118,-0.744467,2.37488,14.1443,-0.455158,0.0249684,-0.0161875,0
2024-12-13 15:23:12.120,-0.694218,2.3342,14.2065,-0.461266,0.0329094,0.000305424,0
2024-12-13 15:23:12.122,-0.646361,2.31506,14.2639,-0.465542,0.046348,0.0192417,0
2024-12-13 15:23:12.125,-0.596112,2.28156,14.3288,-0.467985,0.0597867,0.0375671,0
2024-12-13 15:23:12.127,-0.538684,2.24327,14.3982,-0.470429,0.0762796,0.0552817,0
2024-12-13 15:23:12.129,-0.486042,2.20499,14.4796,-0.465542,0.0939941,0.0705529,1
2024-12-13 15:23:12.132,-0.435793,2.1667,14.5514,-0.456379,0.114152,0.085824,0
2024-12-13 15:23:12.134,-0.397508,2.12124,14.5968,-0.447217,0.136143,0.102928,0
2024-12-13 15:23:12.136,-0.361615,2.07577,14.6231,-0.433778,0.159355,0.11881,0
2024-12-13 15:23:12.139,-0.337687,2.04467,14.6399,-0.417896,0.18501,0.134157,0
2024-12-13 15:23:12.141,-0.349651,2.02313,14.6495,-0.400792,0.210666,0.148818,0
2024-12-13 15:23:12.143,-0.378365,1.99442,14.6375,-0.376969,0.234489,0.167754,0
2024-12-13 15:23:12.146,-0.404686,1.97049,14.604,-0.351924,0.258923,0.18669,0
2024-12-13 15:23:12.148,-0.419043,1.94387,14.5514,-0.32749,0.283968,0.20807,0
2024-12-13 15:23:12.150,-0.435793,1.91516,14.47,-0.296948,0.306569,0.230671,0
2024-12-13 15:23:12.153,-0.474078,1.90798,14.3719,-0.263352,0.332225,0.253883,0
2024-12-13 15:23:12.155,-0.505185,1.90319,14.2591,-0.230366,0.357269,0.277706,0
2024-12-13 15:23:12.158,-0.521934,1.89601,14.1084,-0.193715,0.377427,0.303362,0
2024-12-13 15:23:12.160,-0.524327,1.90319,13.9385,-0.157675,0.402472,0.327796,0
2024-12-13 15:23:12.162,-0.529113,1.91994,13.7806,-0.119802,0.426906,0.356506,0
2024-12-13 15:23:12.165,-0.548256,1.9343,13.6056,-0.077654,0.450729,0.384605,0
2024-12-13 15:23:12.167,-0.581755,1.96301,13.395,-0.0330621,0.473941,0.413315,0
2024-12-13 15:23:12.169,-0.622433,1.99202,13.1916,0.00664296,0.492267,0.442024,0
2024-12-13 15:23:12.172,-0.65354,2.02074,12.9879,0.0500131,0.508149,0.472567,0
2024-12-13 15:23:12.174,-0.677468,2.06381,12.7582,0.090329,0.524641,0.502498,0
2024-12-13 15:23:12.176,-0.687039,2.10449,12.5163,0.136753,0.539913,0.531208,0
2024-12-13 15:23:12.179,-0.675075,2.13081,12.2794,0.178291,0.550908,0.560529,0
2024-12-13 15:23:12.181,-0.651147,2.15952,12.0326,0.224715,0.560681,0.588017,0
2024-12-13 15:23:12.183,-0.610469,2.1667,11.7694,0.263199,0.569844,0.612451,0
2024-12-13 15:23:12.186,-0.562612,2.1667,11.482,0.305347,0.578396,0.636885,0
2024-12-13 15:23:12.188,-0.514756,2.20499,11.1685,0.345052,0.583283,0.661319,0
2024-12-13 15:23:12.191,-0.4669,2.24327,10.8523,0.380558,0.585115,0.682087,0
2024-12-13 15:23:12.193,-0.440578,2.28395,10.5532,0.414765,0.583894,0.702245,0
2024-12-13 15:23:12.195,-0.426222,2.34616,10.2586,0.445308,0.575342,0.71996,0
2024-12-13 15:23:12.200,-0.344866,2.47537,9.66491,0.496619,0.55213,0.751113,0
2024-12-13 15:23:12.200,-0.344866,2.47537,9.66491,0.496619,0.55213,0.751113,0
2024-12-13 15:23:12.202,-0.287438,2.51127,9.38016,0.519831,0.53808,0.762719,0
2024-12-13 15:23:12.205,-0.239282,2.56421,9.09512,0.536935,0.517922,0.773104,0
2024-12-13 15:23:12.207,-0.179462,2.60728,8.82952,0.550373,0.497153,0.782877,0
2024-12-13 15:23:12.209,-0.102891,2.63839,8.58036,0.564423,0.470887,0.785931,0
2024-12-13 15:23:12.212,-0.0215354,2.69103,8.3339,0.574196,0.445842,0.788986,0
2024-12-13 15:23:12.219,0.227318,2.8011,7.6684,0.586413,0.356048,0.779823,0
2024-12-13 15:23:12.219,0.227318,2.8011,7.6684,0.586413,0.356048,0.779823,0
2024-12-13 15:23:12.219,0.227318,2.8011,7.6684,0.586413,0.356048,0.779823,0
2024-12-13 15:23:12.221,0.299402,2.84656,7.46471,0.582748,0.32184,0.771882,0
2024-12-13 15:23:12.224,0.375972,2.89203,7.27089,0.577861,0.287633,0.760887,0
2024-12-13 15:23:12.226,0.447757,2.92552,7.09621,0.570531,0.249149,0.746837,0
2024-12-13 15:23:12.228,0.646361,2.87288,7.02443,0.558925,0.210666,0.733398,0
2024-12-13 15:23:12.231,1.21376,2.55464,7.46232,0.550984,0.149581,0.703467,0
2024-12-13 15:23:12.233,1.33579,2.46102,7.5006,0.563201,0.0799446,0.657043,0
2024-12-13 15:23:12.235,0.917049,2.72692,6.85903,0.560758,0.066506,0.622835,0
2024-12-13 15:23:12.238,0.775574,2.90878,6.67478,0.553428,0.0738362,0.599012,0
2024-12-13 15:23:12.240,0.689432,3.06192,6.72503,0.553428,0.0738362,0.599012,0
2024-12-13 15:23:12.242,0.524327,3.25125,6.6676,0.543043,0.0616192,0.564194,0
2024-12-13 15:23:12.245,0.378365,3.41635,6.55274,0.53327,0.046348,0.551977,0
2024-12-13 15:23:12.247,0.27996,3.53599,6.41366,0.519831,0.030466,0.544036,0
2024-12-13 15:23:12.249,0.239282,3.61256,6.24856,0.501506,0.0164165,0.539149,0
2024-12-13 15:23:12.252,0.260818,3.63649,6.08824,0.479515,0.00542127,0.534873,0
2024-12-13 15:23:12.254,0.330509,3.62453,5.98295,0.45447,-0.00435229,0.527543,0
2024-12-13 15:23:12.256,0.440578,3.58864,5.91835,0.426371,-0.013515,0.514715,0
2024-12-13 15:23:12.259,0.593719,3.53121,5.90638,0.399494,-0.0238994,0.499444,0
2024-12-13 15:23:12.261,0.754038,3.45703,5.94228,0.373228,-0.0355055,0.478064,0
2024-12-13 15:23:12.264,0.864407,3.38525,5.9997,0.347496,-0.0477224,0.451798,0
2024-12-13 15:23:12.267,0.929013,3.35175,6.06431,0.30718,-0.0648262,0.388881,0
2024-12-13 15:23:12.268,0.967299,3.34218,6.13131,0.30718,-0.0648262,0.388881,0
2024-12-13 15:23:12.271,0.984048,3.34696,6.22224,0.29313,-0.0721563,0.357117,0
2024-12-13 15:23:12.273,0.984048,3.37567,6.29163,0.279692,-0.0770431,0.32352,0
2024-12-13 15:23:12.275,0.964906,3.40678,6.33709,0.267475,-0.0807082,0.290534,0
2024-12-13 15:23:12.278,0.933799,3.44507,6.36102,0.260145,-0.0794865,0.263657,0
2024-12-13 15:23:12.280,0.888335,3.47378,6.36102,0.24976,-0.077654,0.234947,0
2024-12-13 15:23:12.282,0.842872,3.48096,6.34427,0.238765,-0.0727672,0.207459,0
2024-12-13 15:23:12.285,0.785145,3.48096,6.32513,0.228991,-0.0721563,0.184247,0
2024-12-13 15:23:12.287,0.732503,3.47378,6.30598,0.228991,-0.0721563,0.184247,0
2024-12-13 15:23:12.289,0.71336,3.4666,6.29881,0.202114,-0.0709346,0.13599,0
2024-12-13 15:23:12.292,0.699003,3.4331,6.29881,0.202114,-0.0709346,0.13599,0
2024-12-13 15:23:12.294,0.665504,3.40678,6.29881,0.171572,-0.0752106,0.0913217,0
2024-12-13 15:23:12.297,0.632004,3.39482,6.31795,0.155079,-0.0782648,0.0705529,0
2024-12-13 15:23:12.299,0.610469,3.38285,6.32752,0.139808,-0.0800973,0.0497841,0
2024-12-13 15:23:12.301,0.565005,3.38046,6.33948,0.120871,-0.0849841,0.0296261,0
2024-12-13 15:23:12.304,0.500399,3.37807,6.3682,0.103157,-0.0868167,0.00946813,0
2024-12-13 15:23:12.306,0.454935,3.36371,6.41605,0.0854423,-0.0880384,-0.00763559,0
2024-12-13 15:23:12.308,0.411865,3.35414,6.46182,0.0726145,-0.0898709,-0.0253502,0
2024-12-13 15:23:12.311,0.368794,3.35653,6.49532,0.0567324,-0.0904818,-0.0412322,0
2024-12-13 15:23:12.313,0.32333,3.34457,6.52882,0.0396287,-0.0929251,-0.0589468,0
2024-12-13 15:23:12.315,0.275175,3.33739,6.55992,0.0231358,-0.0929251,-0.0760505,0
2024-12-13 15:23:12.318,0.229711,3.32782,6.58864,0.00847551,-0.0917034,-0.0931542,0
2024-12-13 15:23:12.320,0.177069,3.30868,6.61017,-0.0104608,-0.0862058,-0.107204,0
2024-12-13 15:23:12.322,0.11007,3.27996,6.62692,-0.0281753,-0.0819299,-0.120031,0
2024-12-13 15:23:12.327,-0.0119641,3.19861,6.68196,-0.0611611,-0.0691021,-0.144465,0
2024-12-13 15:23:12.327,-0.0119641,3.19861,6.68196,-0.0611611,-0.0691021,-0.144465,0
2024-12-13 15:23:12.330,-0.066999,3.17946,6.68435,-0.0794865,-0.0599394,-0.154239,0
2024-12-13 15:23:12.332,-0.12682,3.15793,6.69631,-0.102088,-0.0513875,-0.16218,0
2024-12-13 15:23:12.334,-0.208176,3.12204,6.72024,-0.122857,-0.041614,-0.162791,0
2024-12-13 15:23:12.337,-0.304188,3.08106,6.76571,-0.141793,-0.0355055,-0.165234,0
2024-12-13 15:23:12.339,-0.371187,3.05952,6.83031,-0.163783,-0.0257319,-0.167678,0
2024-12-13 15:23:12.341,-0.426222,3.0332,6.89492,-0.181498,-0.0238994,-0.167678,0
2024-12-13 15:23:12.344,-0.486042,2.99013,6.96431,-0.199213,-0.0226777,-0.164623,0
2024-12-13 15:23:12.346,-0.550648,2.95902,7.03879,-0.215095,-0.0238994,-0.160958,0
2024-12-13 15:23:12.348,-0.62004,2.93749,7.10818,-0.232809,-0.0269536,-0.157904,0
2024-12-13 15:23:12.351,-0.651147,2.91117,7.17996,-0.249302,-0.0300079,-0.153017,0
2024-12-13 15:23:12.353,-0.665504,2.88724,7.23978,-0.263352,-0.0355055,-0.149352,0
2024-12-13 15:23:12.355,-0.691825,2.8681,7.30678,-0.278012,-0.0410031,-0.143244,0
2024-12-13 15:23:12.358,-0.737288,2.85374,7.39532,-0.295726,-0.0452791,-0.134692,0
2024-12-13 15:23:12.360,-0.785145,2.85135,7.46949,-0.307333,-0.0526092,-0.128583,0
2024-12-13 15:23:12.362,-0.835394,2.84417,7.55803,-0.32016,-0.0617719,-0.119421,0
2024-12-13 15:23:12.365,-0.8668,2.83699,7.67558,-0.332377,-0.0684913,-0.110258,0
2024-12-13 15:23:12.367,-0.88355,2.83938,7.79522,-0.342151,-0.0782648,-0.101095,0
2024-12-13 15:23:12.370,-0.9003,2.8322,7.9005,-0.353757,-0.0862058,-0.0919325,0
2024-12-13 15:23:12.372,-0.912264,2.81785,7.99861,-0.360476,-0.0929251,-0.0846023,0
2024-12-13 15:23:12.374,-0.914656,2.80828,8.10868,-0.364752,-0.102699,-0.0736071,0
2024-12-13 15:23:12.377,-0.885943,2.8011,8.22622,-0.369028,-0.108807,-0.0638335,0
2024-12-13 15:23:12.379,-0.857229,2.78196,8.3339,-0.373304,-0.116748,-0.05406,0
2024-12-13 15:23:12.381,-0.842872,2.74606,8.44636,-0.375747,-0.121635,-0.0467298,0
2024-12-13 15:23:12.384,-0.811466,2.7341,8.56122,-0.375747,-0.129576,-0.038178,0
2024-12-13 15:23:12.386,-0.782752,2.72692,8.6665,-0.375137,-0.133241,-0.0284044,0
2024-12-13 15:23:12.388,-0.742074,2.69342,8.76491,-0.374526,-0.13935,-0.0235176,0
2024-12-13 15:23:12.391,-0.703789,2.66949,8.85105,-0.371471,-0.143625,-0.0167983,0
2024-12-13 15:23:12.394,-0.694218,2.64317,8.93001,-0.366585,-0.149123,-0.00335966,0
2024-12-13 15:23:12.395,-0.667897,2.60249,9.02333,-0.366585,-0.149123,-0.00335966,0
