timestamp,accel_x,accel_y,accel_z,gyro_x,gyro_y,gyro_z,step_timestamp
2024-12-13 15:22:49.949,-1.41266,2.74128,7.27089,0.208223,0.0377962,-0.12614,0
2024-12-13 15:22:49.949,-1.41266,2.74128,7.27089,0.208223,0.0377962,-0.12614,0
2024-12-13 15:22:49.949,-1.41266,2.74128,7.27089,0.208223,0.0377962,-0.12614,0
2024-12-13 15:22:49.949,-1.41266,2.74128,7.27089,0.208223,0.0377962,-0.12614,0
2024-12-13 15:22:49.949,-1.41266,2.74128,7.27089,0.208223,0.0377962,-0.12614,0
2024-12-13 15:22:49.949,-1.41266,2.74128,7.27089,0.208223,0.0377962,-0.12614,0
2024-12-13 15:22:49.952,-1.39083,2.76042,7.25414,0.205779,0.030466,-0.12614,0
2024-12-13 15:22:49.952,-1.39083,2.76042,7.25414,0.205779,0.030466,-0.12614,0
2024-12-13 15:22:49.952,-1.39083,2.76042,7.25414,0.205779,0.030466,-0.12614,0
2024-12-13 15:22:49.954,-1.36451,2.78435,7.23978,0.200282,0.0219141,-0.124918,0
2024-12-13 15:22:49.954,-1.36451,2.78435,7.23978,0.200282,0.0219141,-0.124918,0
2024-12-13 15:22:49.954,-1.36451,2.78435,7.23978,0.200282,0.0219141,-0.124918,0
2024-12-13 15:22:49.956,-1.34776,2.81545,7.20868,0.199671,0.014584,-0.124918,0
2024-12-13 15:22:49.956,-1.34776,2.81545,7.20868,0.199671,0.014584,-0.124918,0
2024-12-13 15:22:49.956,-1.34776,2.81545,7.20868,0.199671,0.014584,-0.124918,0
2024-12-13 15:22:49.956,-1.34776,2.81545,7.20868,0.199671,0.014584,-0.124918,0
2024-12-13 15:22:49.959,-1.32144,2.81785,7.17757,0.195395,0.00603212,-0.12614,0
2024-12-13 15:22:49.959,-1.32144,2.81785,7.17757,0.195395,0.00603212,-0.12614,0
2024-12-13 15:22:49.960,-1.32144,2.81785,7.17757,0.192341,-0.0019089,-0.127362,0
2024-12-13 15:22:49.961,-1.2999,2.81067,7.17039,0.192341,-0.0019089,-0.127362,0
2024-12-13 15:22:49.961,-1.2999,2.81067,7.17039,0.192341,-0.0019089,-0.127362,0
2024-12-13 15:22:49.961,-1.2999,2.81067,7.17039,0.192341,-0.0019089,-0.127362,0
2024-12-13 15:22:49.963,-1.27837,2.82742,7.16321,0.188675,-0.00862822,-0.129194,0
2024-12-13 15:22:49.963,-1.27837,2.82742,7.16321,0.188675,-0.00862822,-0.129194,0
2024-12-13 15:22:49.963,-1.27837,2.82742,7.16321,0.188675,-0.00862822,-0.129194,0
2024-12-13 15:22:49.966,-1.26401,2.84656,7.1345,0.180124,-0.013515,-0.132248,0
2024-12-13 15:22:49.966,-1.26401,2.84656,7.1345,0.180124,-0.013515,-0.132248,0
2024-12-13 15:22:49.966,-1.26401,2.84656,7.1345,0.180124,-0.013515,-0.132248,0
2024-12-13 15:22:49.967,-1.26401,2.84656,7.1345,0.174626,-0.0184018,-0.137746,0
2024-12-13 15:22:49.968,-1.2664,2.87049,7.11057,0.174626,-0.0184018,-0.137746,0
2024-12-13 15:22:49.970,-1.27119,2.89442,7.101,0.169128,-0.021456,-0.140189,0
2024-12-13 15:22:49.970,-1.27119,2.89442,7.101,0.169128,-0.021456,-0.140189,0
2024-12-13 15:22:49.970,-1.27119,2.89442,7.101,0.169128,-0.021456,-0.140189,0
2024-12-13 15:22:49.970,-1.27119,2.89442,7.101,0.169128,-0.021456,-0.140189,0
2024-12-13 15:22:49.970,-1.27119,2.89442,7.101,0.169128,-0.021456,-0.140189,0
2024-12-13 15:22:49.973,-1.28554,2.92313,7.08664,0.160576,-0.0251211,-0.141411,0
2024-12-13 15:22:49.975,-1.29512,2.95185,7.06989,0.153857,-0.0281753,-0.146298,0
2024-12-13 15:22:49.975,-1.29512,2.95185,7.06989,0.153857,-0.0281753,-0.146298,0
2024-12-13 15:22:49.975,-1.29512,2.95185,7.06989,0.153857,-0.0281753,-0.146298,0
2024-12-13 15:22:49.975,-1.29512,2.95185,7.06989,0.153857,-0.0281753,-0.146298,0
2024-12-13 15:22:49.975,-1.29512,2.95185,7.06989,0.153857,-0.0281753,-0.146298,0
2024-12-13 15:22:49.975,-1.29512,2.95185,7.06989,0.153857,-0.0281753,-0.146298,0
2024-12-13 15:22:49.978,-1.29751,2.9662,7.06032,0.144694,-0.0287862,-0.148741,0
2024-12-13 15:22:49.979,-1.29751,2.9662,7.06032,0.132477,-0.033673,-0.151796,0
2024-12-13 15:22:49.980,-1.30947,2.99013,7.05314,0.132477,-0.033673,-0.151796,0
2024-12-13 15:22:49.980,-1.30947,2.99013,7.05314,0.132477,-0.033673,-0.151796,0
2024-12-13 15:22:49.980,-1.30947,2.99013,7.05314,0.132477,-0.033673,-0.151796,0
2024-12-13 15:22:49.980,-1.30947,2.99013,7.05314,0.132477,-0.033673,-0.151796,0
2024-12-13 15:22:49.980,-1.30947,2.99013,7.05314,0.132477,-0.033673,-0.151796,0
2024-12-13 15:22:49.982,-1.31186,3.01645,7.04357,0.121482,-0.0410031,-0.155461,0
2024-12-13 15:22:49.982,-1.31186,3.01645,7.04357,0.121482,-0.0410031,-0.155461,0
2024-12-13 15:22:49.982,-1.31186,3.01645,7.04357,0.121482,-0.0410031,-0.155461,0
2024-12-13 15:22:49.985,-1.29512,3.01645,7.03639,0.106822,-0.0483333,-0.156682,0
2024-12-13 15:22:49.985,-1.29512,3.01645,7.03639,0.106822,-0.0483333,-0.156682,0
2024-12-13 15:22:49.985,-1.29512,3.01645,7.03639,0.106822,-0.0483333,-0.156682,0
2024-12-13 15:22:49.985,-1.29512,3.01645,7.03639,0.106822,-0.0483333,-0.156682,0
2024-12-13 15:22:49.987,-1.27597,3.01884,7.03879,0.0909399,-0.0599394,-0.163402,0
2024-12-13 15:22:49.987,-1.27597,3.01884,7.03879,0.0909399,-0.0599394,-0.163402,0
2024-12-13 15:22:49.987,-1.27597,3.01884,7.03879,0.0909399,-0.0599394,-0.163402,0
2024-12-13 15:22:49.989,-1.2664,3.01406,7.05075,0.0762796,-0.0703238,-0.168288,0
2024-12-13 15:22:49.989,-1.2664,3.01406,7.05075,0.0762796,-0.0703238,-0.168288,0
2024-12-13 15:22:49.989,-1.2664,3.01406,7.05075,0.0762796,-0.0703238,-0.168288,0
2024-12-13 15:22:49.992,-1.24487,3.0021,7.07229,0.0579541,-0.0800973,-0.173786,0
2024-12-13 15:22:49.992,-1.24487,3.0021,7.07229,0.0579541,-0.0800973,-0.173786,0
2024-12-13 15:22:49.992,-1.24487,3.0021,7.07229,0.0579541,-0.0800973,-0.173786,0
2024-12-13 15:22:49.994,-1.20897,3.0021,7.101,0.0414613,-0.0917034,-0.179284,0
2024-12-13 15:22:49.994,-1.20897,3.0021,7.101,0.0414613,-0.0917034,-0.179284,0
2024-12-13 15:22:49.994,-1.20897,3.0021,7.101,0.0414613,-0.0917034,-0.179284,0
2024-12-13 15:22:49.994,-1.20897,3.0021,7.101,0.0414613,-0.0917034,-0.179284,0
2024-12-13 15:22:49.996,-1.18983,3.0021,7.1345,0.0213033,-0.106364,-0.184781,0
2024-12-13 15:22:49.996,-1.18983,3.0021,7.1345,0.0213033,-0.106364,-0.184781,0
2024-12-13 15:22:49.996,-1.18983,3.0021,7.1345,0.0213033,-0.106364,-0.184781,0
2024-12-13 15:22:49.996,-1.18983,3.0021,7.1345,0.0213033,-0.106364,-0.184781,0
2024-12-13 15:22:49.999,-1.18744,2.9997,7.19432,0.00358873,-0.116748,-0.193944,0
2024-12-13 15:22:49.999,-1.18744,2.9997,7.19432,0.00358873,-0.116748,-0.193944,0
2024-12-13 15:22:49.999,-1.18744,2.9997,7.19432,0.00358873,-0.116748,-0.193944,0
2024-12-13 15:22:49.999,-1.18744,2.9997,7.19432,0.00358873,-0.116748,-0.193944,0
2024-12-13 15:22:50.001,-1.18265,2.97817,7.26611,-0.0177909,-0.131409,-0.200663,0
2024-12-13 15:22:50.001,-1.18265,2.97817,7.26611,-0.0177909,-0.131409,-0.200663,0
2024-12-13 15:22:50.001,-1.18265,2.97817,7.26611,-0.0177909,-0.131409,-0.200663,0
2024-12-13 15:22:50.003,-1.17547,2.97099,7.34028,-0.0330621,-0.143015,-0.207383,0
2024-12-13 15:22:50.003,-1.17547,2.97099,7.34028,-0.0330621,-0.143015,-0.207383,0
2024-12-13 15:22:50.003,-1.17547,2.97099,7.34028,-0.0330621,-0.143015,-0.207383,0
2024-12-13 15:22:50.006,-1.15633,2.97099,7.4336,-0.0489441,-0.156453,-0.214713,0
2024-12-13 15:22:50.006,-1.15633,2.97099,7.4336,-0.0489441,-0.156453,-0.214713,0
2024-12-13 15:22:50.006,-1.15633,2.97099,7.4336,-0.0489441,-0.156453,-0.214713,0
2024-12-13 15:22:50.006,-1.15633,2.97099,7.4336,-0.0489441,-0.156453,-0.214713,0
2024-12-13 15:22:50.006,-1.15633,2.97099,7.4336,-0.0489441,-0.156453,-0.214713,0
2024-12-13 15:22:50.008,-1.14197,2.96381,7.54367,-0.0648262,-0.171724,-0.222654,0
2024-12-13 15:22:50.008,-1.14197,2.96381,7.54367,-0.0648262,-0.171724,-0.222654,0
2024-12-13 15:22:50.008,-1.14197,2.96381,7.54367,-0.0648262,-0.171724,-0.222654,0
2024-12-13 15:22:50.008,-1.14197,2.96381,7.54367,-0.0648262,-0.171724,-0.222654,0
2024-12-13 15:22:50.010,-1.1324,2.95663,7.66601,-0.0788757,-0.188828,-0.229373,0
2024-12-13 15:22:50.010,-1.1324,2.95663,7.66601,-0.0788757,-0.188828,-0.229373,0
2024-12-13 15:22:50.010,-1.1324,2.95663,7.66601,-0.0788757,-0.188828,-0.229373,0
2024-12-13 15:22:50.010,-1.1324,2.95663,7.66601,-0.0788757,-0.188828,-0.229373,0
2024-12-13 15:22:50.013,-1.0989,2.9351,7.79043,-0.0917034,-0.203488,-0.236092,0
2024-12-13 15:22:50.013,-1.0989,2.9351,7.79043,-0.0917034,-0.203488,-0.236092,0
2024-12-13 15:22:50.013,-1.0989,2.9351,7.79043,-0.0917034,-0.203488,-0.236092,0
2024-12-13 15:22:50.013,-1.0989,2.9351,7.79043,-0.0917034,-0.203488,-0.236092,0
2024-12-13 15:22:50.013,-1.0989,2.9351,7.79043,-0.0917034,-0.203488,-0.236092,0
2024-12-13 15:22:50.015,-1.0678,2.92792,7.91007,-0.101477,-0.217538,-0.244033,0
2024-12-13 15:22:50.015,-1.0678,2.92792,7.91007,-0.101477,-0.217538,-0.244033,0
2024-12-13 15:22:50.015,-1.0678,2.92792,7.91007,-0.101477,-0.217538,-0.244033,0
2024-12-13 15:22:50.015,-1.0678,2.92792,7.91007,-0.101477,-0.217538,-0.244033,0
2024-12-13 15:22:50.018,-1.05105,2.92792,8.04168,-0.11064,-0.229144,-0.253807,0
2024-12-13 15:22:50.018,-1.05105,2.92792,8.04168,-0.11064,-0.229144,-0.253807,0
2024-12-13 15:22:50.018,-1.05105,2.92792,8.04168,-0.11064,-0.229144,-0.253807,0
2024-12-13 15:22:50.018,-1.05105,2.92792,8.04168,-0.11064,-0.229144,-0.253807,0
2024-12-13 15:22:50.018,-1.05105,2.92792,8.04168,-0.11064,-0.229144,-0.253807,0
2024-12-13 15:22:50.020,-1.02951,2.92313,8.18076,-0.118581,-0.24075,-0.259916,0
2024-12-13 15:22:50.020,-1.02951,2.92313,8.18076,-0.118581,-0.24075,-0.259916,0
2024-12-13 15:22:50.020,-1.02951,2.92313,8.18076,-0.118581,-0.24075,-0.259916,0
2024-12-13 15:22:50.021,-1.02951,2.92313,8.18076,-0.119802,-0.247469,-0.266024,0
2024-12-13 15:22:50.022,-1.00798,2.91356,8.31476,-0.119802,-0.247469,-0.266024,0
2024-12-13 15:22:50.022,-1.00798,2.91356,8.31476,-0.119802,-0.247469,-0.266024,0
2024-12-13 15:22:50.022,-1.00798,2.91356,8.31476,-0.119802,-0.247469,-0.266024,0
2024-12-13 15:22:50.022,-1.00798,2.91356,8.31476,-0.119802,-0.247469,-0.266024,0
2024-12-13 15:22:50.022,-1.00798,2.91356,8.31476,-0.119802,-0.247469,-0.266024,0
2024-12-13 15:22:50.025,-0.986441,2.89442,8.42483,-0.123468,-0.254189,-0.273354,0
2024-12-13 15:22:50.025,-0.986441,2.89442,8.42483,-0.123468,-0.254189,-0.273354,0
2024-12-13 15:22:50.025,-0.986441,2.89442,8.42483,-0.123468,-0.254189,-0.273354,0
2024-12-13 15:22:50.025,-0.986441,2.89442,8.42483,-0.123468,-0.254189,-0.273354,0
2024-12-13 15:22:50.025,-0.986441,2.89442,8.42483,-0.123468,-0.254189,-0.273354,0
2024-12-13 15:22:50.025,-0.986441,2.89442,8.42483,-0.123468,-0.254189,-0.273354,0
2024-12-13 15:22:50.027,-0.96012,2.87049,8.52054,-0.124078,-0.258465,-0.280684,0
2024-12-13 15:22:50.027,-0.96012,2.87049,8.52054,-0.124078,-0.258465,-0.280684,0
2024-12-13 15:22:50.027,-0.96012,2.87049,8.52054,-0.124078,-0.258465,-0.280684,0
2024-12-13 15:22:50.027,-0.96012,2.87049,8.52054,-0.124078,-0.258465,-0.280684,0
2024-12-13 15:22:50.029,-0.948156,2.85613,8.61147,-0.121024,-0.263962,-0.288625,0
2024-12-13 15:22:50.029,-0.948156,2.85613,8.61147,-0.121024,-0.263962,-0.288625,0
2024-12-13 15:22:50.029,-0.948156,2.85613,8.61147,-0.121024,-0.263962,-0.288625,0
2024-12-13 15:22:50.029,-0.948156,2.85613,8.61147,-0.121024,-0.263962,-0.288625,0
2024-12-13 15:22:50.029,-0.948156,2.85613,8.61147,-0.121024,-0.263962,-0.288625,0
2024-12-13 15:22:50.032,-0.919442,2.8346,8.70509,-0.116748,-0.270682,-0.295345,0
2024-12-13 15:22:50.032,-0.919442,2.8346,8.70509,-0.116748,-0.270682,-0.295345,0
2024-12-13 15:22:50.032,-0.919442,2.8346,8.70509,-0.116748,-0.270682,-0.295345,0
2024-12-13 15:22:50.032,-0.919442,2.8346,8.70509,-0.116748,-0.270682,-0.295345,0
2024-12-13 15:22:50.032,-0.919442,2.8346,8.70509,-0.116748,-0.270682,-0.295345,0
2024-12-13 15:22:50.034,-0.878764,2.80349,8.77448,-0.113083,-0.275568,-0.303897,0
2024-12-13 15:22:50.034,-0.878764,2.80349,8.77448,-0.113083,-0.275568,-0.303897,0
2024-12-13 15:22:50.034,-0.878764,2.80349,8.77448,-0.113083,-0.275568,-0.303897,0
2024-12-13 15:22:50.034,-0.878764,2.80349,8.77448,-0.113083,-0.275568,-0.303897,0
2024-12-13 15:22:50.036,-0.837787,2.76999,8.82952,-0.110029,-0.279234,-0.310616,0
2024-12-13 15:22:50.036,-0.837787,2.76999,8.82952,-0.110029,-0.279234,-0.310616,0
2024-12-13 15:22:50.036,-0.837787,2.76999,8.82952,-0.110029,-0.279234,-0.310616,0
2024-12-13 15:22:50.036,-0.837787,2.76999,8.82952,-0.110029,-0.279234,-0.310616,0
2024-12-13 15:22:50.036,-0.837787,2.76999,8.82952,-0.110029,-0.279234,-0.310616,0
2024-12-13 15:22:50.039,-0.813859,2.73888,8.88934,-0.105753,-0.278012,-0.317946,0
2024-12-13 15:22:50.039,-0.813859,2.73888,8.88934,-0.105753,-0.278012,-0.317946,0
2024-12-13 15:22:50.039,-0.813859,2.73888,8.88934,-0.105753,-0.278012,-0.317946,0
2024-12-13 15:22:50.039,-0.813859,2.73888,8.88934,-0.105753,-0.278012,-0.317946,0
2024-12-13 15:22:50.041,-0.797109,2.71974,8.94198,-0.102699,-0.280455,-0.323444,0
2024-12-13 15:22:50.041,-0.797109,2.71974,8.94198,-0.102699,-0.280455,-0.323444,0
2024-12-13 15:22:50.041,-0.797109,2.71974,8.94198,-0.102699,-0.280455,-0.323444,0
2024-12-13 15:22:50.041,-0.797109,2.71974,8.94198,-0.102699,-0.280455,-0.323444,0
2024-12-13 15:22:50.041,-0.797109,2.71974,8.94198,-0.102699,-0.280455,-0.323444,0
2024-12-13 15:22:50.041,-0.797109,2.71974,8.94198,-0.102699,-0.280455,-0.323444,0
2024-12-13 15:22:50.043,-0.780359,2.69342,8.97069,-0.0965902,-0.28412,-0.331995,0
2024-12-13 15:22:50.043,-0.780359,2.69342,8.97069,-0.0965902,-0.28412,-0.331995,0
2024-12-13 15:22:50.043,-0.780359,2.69342,8.97069,-0.0965902,-0.28412,-0.331995,0
2024-12-13 15:22:50.043,-0.780359,2.69342,8.97069,-0.0965902,-0.28412,-0.331995,0
2024-12-13 15:22:50.043,-0.780359,2.69342,8.97069,-0.0965902,-0.28412,-0.331995,0
2024-12-13 15:22:50.046,-0.797109,2.66471,9.0018,-0.0947577,-0.28412,-0.337493,0
2024-12-13 15:22:50.046,-0.797109,2.66471,9.0018,-0.0947577,-0.28412,-0.337493,0
2024-12-13 15:22:50.046,-0.797109,2.66471,9.0018,-0.0947577,-0.28412,-0.337493,0
2024-12-13 15:22:50.046,-0.797109,2.66471,9.0018,-0.0947577,-0.28412,-0.337493,0
2024-12-13 15:22:50.048,-0.809073,2.64796,9.05444,-0.0910926,-0.283509,-0.340547,0
2024-12-13 15:22:50.048,-0.809073,2.64796,9.05444,-0.0910926,-0.283509,-0.340547,0
2024-12-13 15:22:50.048,-0.809073,2.64796,9.05444,-0.0910926,-0.283509,-0.340547,0
2024-12-13 15:22:50.048,-0.809073,2.64796,9.05444,-0.0910926,-0.283509,-0.340547,0
2024-12-13 15:22:50.048,-0.809073,2.64796,9.05444,-0.0910926,-0.283509,-0.340547,0
2024-12-13 15:22:50.051,-0.809073,2.63121,9.09273,-0.0862058,-0.281677,-0.345434,0
2024-12-13 15:22:50.051,-0.809073,2.63121,9.09273,-0.0862058,-0.281677,-0.345434,0
2024-12-13 15:22:50.051,-0.809073,2.63121,9.09273,-0.0862058,-0.281677,-0.345434,0
2024-12-13 15:22:50.051,-0.809073,2.63121,9.09273,-0.0862058,-0.281677,-0.345434,0
2024-12-13 15:22:50.051,-0.809073,2.63121,9.09273,-0.0862058,-0.281677,-0.345434,0
2024-12-13 15:22:50.053,-0.809073,2.6001,9.12862,-0.0831516,-0.281066,-0.350321,0
2024-12-13 15:22:50.053,-0.809073,2.6001,9.12862,-0.0831516,-0.281066,-0.350321,0
2024-12-13 15:22:50.053,-0.809073,2.6001,9.12862,-0.0831516,-0.281066,-0.350321,0
2024-12-13 15:22:50.053,-0.809073,2.6001,9.12862,-0.0831516,-0.281066,-0.350321,0
2024-12-13 15:22:50.055,-0.811466,2.59292,9.15733,-0.081319,-0.277401,-0.352764,0
2024-12-13 15:22:50.055,-0.811466,2.59292,9.15733,-0.081319,-0.277401,-0.352764,0
2024-12-13 15:22:50.055,-0.811466,2.59292,9.15733,-0.081319,-0.277401,-0.352764,0
2024-12-13 15:22:50.055,-0.811466,2.59292,9.15733,-0.081319,-0.277401,-0.352764,0
2024-12-13 15:22:50.055,-0.811466,2.59292,9.15733,-0.081319,-0.277401,-0.352764,0
2024-12-13 15:22:50.055,-0.811466,2.59292,9.15733,-0.081319,-0.277401,-0.352764,0
2024-12-13 15:22:50.058,-0.813859,2.60489,9.1693,-0.0764323,-0.274347,-0.354597,0
2024-12-13 15:22:50.058,-0.813859,2.60489,9.1693,-0.0764323,-0.274347,-0.354597,0
2024-12-13 15:22:50.058,-0.813859,2.60489,9.1693,-0.0764323,-0.274347,-0.354597,0
2024-12-13 15:22:50.058,-0.813859,2.60489,9.1693,-0.0764323,-0.274347,-0.354597,0
2024-12-13 15:22:50.060,-0.821037,2.59532,9.21237,-0.077654,-0.271903,-0.35704,0
2024-12-13 15:22:50.060,-0.821037,2.59532,9.21237,-0.077654,-0.271903,-0.35704,0
2024-12-13 15:22:50.060,-0.821037,2.59532,9.21237,-0.077654,-0.271903,-0.35704,0
2024-12-13 15:22:50.060,-0.821037,2.59532,9.21237,-0.077654,-0.271903,-0.35704,0
2024-12-13 15:22:50.060,-0.821037,2.59532,9.21237,-0.077654,-0.271903,-0.35704,0
2024-12-13 15:22:50.062,-0.825823,2.58814,9.23869,-0.0727672,-0.268849,-0.35704,0
2024-12-13 15:22:50.062,-0.825823,2.58814,9.23869,-0.0727672,-0.268849,-0.35704,0
2024-12-13 15:22:50.062,-0.825823,2.58814,9.23869,-0.0727672,-0.268849,-0.35704,0
2024-12-13 15:22:50.062,-0.825823,2.58814,9.23869,-0.0727672,-0.268849,-0.35704,0
2024-12-13 15:22:50.062,-0.825823,2.58814,9.23869,-0.0727672,-0.268849,-0.35704,0
2024-12-13 15:22:50.065,-0.821037,2.57378,9.24108,-0.0709346,-0.260908,-0.358262,0
2024-12-13 15:22:50.065,-0.821037,2.57378,9.24108,-0.0709346,-0.260908,-0.358262,0
2024-12-13 15:22:50.065,-0.821037,2.57378,9.24108,-0.0709346,-0.260908,-0.358262,0
2024-12-13 15:22:50.065,-0.821037,2.57378,9.24108,-0.0709346,-0.260908,-0.358262,0
2024-12-13 15:22:50.067,-0.813859,2.5666,9.25783,-0.0697129,-0.253578,-0.360705,0
2024-12-13 15:22:50.067,-0.813859,2.5666,9.25783,-0.0697129,-0.253578,-0.360705,0
2024-12-13 15:22:50.067,-0.813859,2.5666,9.25783,-0.0697129,-0.253578,-0.360705,0
2024-12-13 15:22:50.067,-0.813859,2.5666,9.25783,-0.0697129,-0.253578,-0.360705,0
2024-12-13 15:22:50.069,-0.804287,2.56899,9.28445,-0.0678804,-0.245026,-0.359484,0
2024-12-13 15:22:50.069,-0.804287,2.56899,9.28445,-0.0678804,-0.245026,-0.359484,0
2024-12-13 15:22:50.069,-0.804287,2.56899,9.28445,-0.0678804,-0.245026,-0.359484,0
2024-12-13 15:22:50.069,-0.804287,2.56899,9.28445,-0.0678804,-0.245026,-0.359484,0
2024-12-13 15:22:50.069,-0.804287,2.56899,9.28445,-0.0678804,-0.245026,-0.359484,0
2024-12-13 15:22:50.069,-0.804287,2.56899,9.28445,-0.0678804,-0.245026,-0.359484,0
2024-12-13 15:22:50.072,-0.797109,2.55942,9.31077,-0.0642153,-0.235863,-0.361927,0
2024-12-13 15:22:50.072,-0.797109,2.55942,9.31077,-0.0642153,-0.235863,-0.361927,0
2024-12-13 15:22:50.072,-0.797109,2.55942,9.31077,-0.0642153,-0.235863,-0.361927,0
2024-12-13 15:22:50.073,-0.797109,2.55942,9.31077,-0.0636045,-0.221814,-0.36376,0
2024-12-13 15:22:50.074,-0.785145,2.56182,9.33709,-0.0636045,-0.221814,-0.36376,0
2024-12-13 15:22:50.074,-0.785145,2.56182,9.33709,-0.0636045,-0.221814,-0.36376,0
2024-12-13 15:22:50.074,-0.785145,2.56182,9.33709,-0.0636045,-0.221814,-0.36376,0
2024-12-13 15:22:50.074,-0.785145,2.56182,9.33709,-0.0636045,-0.221814,-0.36376,0
2024-12-13 15:22:50.074,-0.785145,2.56182,9.33709,-0.0636045,-0.221814,-0.36376,0
2024-12-13 15:22:50.074,-0.785145,2.56182,9.33709,-0.0636045,-0.221814,-0.36376,0
2024-12-13 15:22:50.076,-0.780359,2.56899,9.36341,-0.0611611,-0.210819,-0.363149,0
2024-12-13 15:22:50.076,-0.780359,2.56899,9.36341,-0.0611611,-0.210819,-0.363149,0
2024-12-13 15:22:50.076,-0.780359,2.56899,9.36341,-0.0611611,-0.210819,-0.363149,0
2024-12-13 15:22:50.076,-0.780359,2.56899,9.36341,-0.0611611,-0.210819,-0.363149,0
2024-12-13 15:22:50.079,-0.799502,2.57139,9.38974,-0.0550526,-0.194326,-0.363149,0
2024-12-13 15:22:50.079,-0.799502,2.57139,9.38974,-0.0550526,-0.194326,-0.363149,0
2024-12-13 15:22:50.079,-0.799502,2.57139,9.38974,-0.0550526,-0.194326,-0.363149,0
2024-12-13 15:22:50.079,-0.799502,2.57139,9.38974,-0.0550526,-0.194326,-0.363149,0
2024-12-13 15:22:50.079,-0.799502,2.57139,9.38974,-0.0550526,-0.194326,-0.363149,0
2024-12-13 15:22:50.081,-0.821037,2.57857,9.4017,-0.0526092,-0.176,-0.36437,0
2024-12-13 15:22:50.081,-0.821037,2.57857,9.4017,-0.0526092,-0.176,-0.36437,0
2024-12-13 15:22:50.081,-0.821037,2.57857,9.4017,-0.0526092,-0.176,-0.36437,0
2024-12-13 15:22:50.081,-0.821037,2.57857,9.4017,-0.0526092,-0.176,-0.36437,0
2024-12-13 15:22:50.081,-0.821037,2.57857,9.4017,-0.0526092,-0.176,-0.36437,0
2024-12-13 15:22:50.084,-0.82343,2.58335,9.40409,-0.049555,-0.155842,-0.363149,0
2024-12-13 15:22:50.084,-0.82343,2.58335,9.40409,-0.049555,-0.155842,-0.363149,0
2024-12-13 15:22:50.084,-0.82343,2.58335,9.40409,-0.049555,-0.155842,-0.363149,0
2024-12-13 15:22:50.084,-0.82343,2.58335,9.40409,-0.049555,-0.155842,-0.363149,0
2024-12-13 15:22:50.084,-0.82343,2.58335,9.40409,-0.049555,-0.155842,-0.363149,0
2024-12-13 15:22:50.086,-0.833001,2.57378,9.40888,-0.0446682,-0.135074,-0.361316,0
2024-12-13 15:22:50.086,-0.833001,2.57378,9.40888,-0.0446682,-0.135074,-0.361316,0
2024-12-13 15:22:50.086,-0.833001,2.57378,9.40888,-0.0446682,-0.135074,-0.361316,0
2024-12-13 15:22:50.086,-0.833001,2.57378,9.40888,-0.0446682,-0.135074,-0.361316,0
2024-12-13 15:22:50.086,-0.833001,2.57378,9.40888,-0.0446682,-0.135074,-0.361316,0
2024-12-13 15:22:50.086,-0.833001,2.57378,9.40888,-0.0446682,-0.135074,-0.361316,0
2024-12-13 15:22:50.086,-0.833001,2.57378,9.40888,-0.0446682,-0.135074,-0.361316,0
2024-12-13 15:22:50.086,-0.833001,2.57378,9.40888,-0.0446682,-0.135074,-0.361316,0
2024-12-13 15:22:50.086,-0.833001,2.57378,9.40888,-0.0446682,-0.135074,-0.361316,0
2024-12-13 15:22:50.086,-0.833001,2.57378,9.40888,-0.0446682,-0.135074,-0.361316,0
2024-12-13 15:22:50.091,-0.869193,2.60249,9.40409,-0.0324513,-0.0898709,-0.359484,0
2024-12-13 15:22:50.091,-0.869193,2.60249,9.40409,-0.0324513,-0.0898709,-0.359484,0
2024-12-13 15:22:50.091,-0.869193,2.60249,9.40409,-0.0324513,-0.0898709,-0.359484,0
2024-12-13 15:22:50.091,-0.869193,2.60249,9.40409,-0.0324513,-0.0898709,-0.359484,0
2024-12-13 15:22:50.093,-0.893121,2.60728,9.37059,-0.0269536,-0.0672696,-0.35704,0
2024-12-13 15:22:50.093,-0.893121,2.60728,9.37059,-0.0269536,-0.0672696,-0.35704,0
2024-12-13 15:22:50.093,-0.893121,2.60728,9.37059,-0.0269536,-0.0672696,-0.35704,0
2024-12-13 15:22:50.093,-0.893121,2.60728,9.37059,-0.0269536,-0.0672696,-0.35704,0
2024-12-13 15:22:50.093,-0.893121,2.60728,9.37059,-0.0269536,-0.0672696,-0.35704,0
2024-12-13 15:22:50.095,-0.926621,2.60489,9.33709,-0.0202343,-0.0440574,-0.353375,0
2024-12-13 15:22:50.095,-0.926621,2.60489,9.33709,-0.0202343,-0.0440574,-0.353375,0
2024-12-13 15:22:50.095,-0.926621,2.60489,9.33709,-0.0202343,-0.0440574,-0.353375,0
2024-12-13 15:22:50.095,-0.926621,2.60489,9.33709,-0.0202343,-0.0440574,-0.353375,0
2024-12-13 15:22:50.095,-0.926621,2.60489,9.33709,-0.0202343,-0.0440574,-0.353375,0
2024-12-13 15:22:50.098,-0.962513,2.6001,9.29642,-0.0147367,-0.021456,-0.348488,0
2024-12-13 15:22:50.098,-0.962513,2.6001,9.29642,-0.0147367,-0.021456,-0.348488,0
2024-12-13 15:22:50.098,-0.962513,2.6001,9.29642,-0.0147367,-0.021456,-0.348488,0
2024-12-13 15:22:50.100,-0.979263,2.60728,9.2339,-0.00618483,-0.000687203,-0.344212,0
2024-12-13 15:22:50.100,-0.979263,2.60728,9.2339,-0.00618483,-0.000687203,-0.344212,0
2024-12-13 15:22:50.100,-0.979263,2.60728,9.2339,-0.00618483,-0.000687203,-0.344212,0
2024-12-13 15:22:50.100,-0.979263,2.60728,9.2339,-0.00618483,-0.000687203,-0.344212,0
2024-12-13 15:22:50.102,-1.01037,2.61685,9.1693,0.00358873,0.0182491,-0.340547,0
2024-12-13 15:22:50.102,-1.01037,2.61685,9.1693,0.00358873,0.0182491,-0.340547,0
2024-12-13 15:22:50.102,-1.01037,2.61685,9.1693,0.00358873,0.0182491,-0.340547,0
2024-12-13 15:22:50.105,-1.04626,2.61924,9.0999,0.00725381,0.0371853,-0.333828,0
2024-12-13 15:22:50.105,-1.04626,2.61924,9.0999,0.00725381,0.0371853,-0.333828,0
2024-12-13 15:22:50.107,-1.0678,2.63121,9.02094,0.0127514,0.0530674,-0.328941,0
2024-12-13 15:22:50.107,-1.0678,2.63121,9.02094,0.0127514,0.0530674,-0.328941,0
2024-12-13 15:22:50.107,-1.0678,2.63121,9.02094,0.0127514,0.0530674,-0.328941,0
2024-12-13 15:22:50.107,-1.0678,2.63121,9.02094,0.0127514,0.0530674,-0.328941,0
2024-12-13 15:22:50.107,-1.0678,2.63121,9.02094,0.0127514,0.0530674,-0.328941,0
2024-12-13 15:22:50.109,-1.08694,2.64556,8.94198,0.0176382,0.0652843,-0.324054,0
2024-12-13 15:22:50.109,-1.08694,2.64556,8.94198,0.0176382,0.0652843,-0.324054,0
2024-12-13 15:22:50.109,-1.08694,2.64556,8.94198,0.0176382,0.0652843,-0.324054,0
2024-12-13 15:22:50.109,-1.08694,2.64556,8.94198,0.0176382,0.0652843,-0.324054,0
2024-12-13 15:22:50.112,-1.10608,2.64556,8.84866,0.022525,0.0781121,-0.316724,0
2024-12-13 15:22:50.112,-1.10608,2.64556,8.84866,0.022525,0.0781121,-0.316724,0
2024-12-13 15:22:50.112,-1.10608,2.64556,8.84866,0.022525,0.0781121,-0.316724,0
2024-12-13 15:22:50.112,-1.10608,2.64556,8.84866,0.022525,0.0781121,-0.316724,0
2024-12-13 15:22:50.114,-1.1324,2.65274,8.75294,0.0261901,0.0884965,-0.309394,0
2024-12-13 15:22:50.114,-1.1324,2.65274,8.75294,0.0261901,0.0884965,-0.309394,0
2024-12-13 15:22:50.114,-1.1324,2.65274,8.75294,0.0261901,0.0884965,-0.309394,0
2024-12-13 15:22:50.114,-1.1324,2.65274,8.75294,0.0261901,0.0884965,-0.309394,0
2024-12-13 15:22:50.116,-1.13719,2.6671,8.68804,0.0341311,0.0933833,-0.303897,0
2024-12-13 15:22:50.116,-1.13719,2.6671,8.68804,0.0341311,0.0933833,-0.303897,0
2024-12-13 15:22:50.117,-1.13719,2.6671,8.68804,0.0341311,0.0933833,-0.303897,0
2024-12-13 15:22:50.119,-1.1324,2.67906,8.62343,0.0390179,0.0994917,-0.29901,0
2024-12-13 15:22:50.119,-1.1324,2.67906,8.62343,0.0390179,0.0994917,-0.29901,0
2024-12-13 15:22:50.119,-1.1324,2.67906,8.62343,0.0390179,0.0994917,-0.29901,0
2024-12-13 15:22:50.119,-1.1324,2.67906,8.62343,0.0390179,0.0994917,-0.29901,0
2024-12-13 15:22:50.119,-1.1324,2.67906,8.62343,0.0390179,0.0994917,-0.29901,0
2024-12-13 15:22:50.121,-1.12522,2.69103,8.55404,0.0432938,0.102546,-0.29229,0
2024-12-13 15:22:50.121,-1.12522,2.69103,8.55404,0.0432938,0.102546,-0.29229,0
2024-12-13 15:22:50.121,-1.12522,2.69103,8.55404,0.0432938,0.102546,-0.29229,0
2024-12-13 15:22:50.121,-1.12522,2.69103,8.55404,0.0432938,0.102546,-0.29229,0
2024-12-13 15:22:50.121,-1.12522,2.69103,8.55404,0.0432938,0.102546,-0.29229,0
2024-12-13 15:22:50.124,-1.11805,2.71017,8.50379,0.0494023,0.104379,-0.286182,0
2024-12-13 15:22:50.124,-1.11805,2.71017,8.50379,0.0494023,0.104379,-0.286182,0
2024-12-13 15:22:50.124,-1.11805,2.71017,8.50379,0.0494023,0.104379,-0.286182,0
2024-12-13 15:22:50.124,-1.11805,2.71017,8.50379,0.0494023,0.104379,-0.286182,0
2024-12-13 15:22:50.124,-1.11805,2.71017,8.50379,0.0494023,0.104379,-0.286182,0
2024-12-13 15:22:50.126,-1.11565,2.72692,8.46072,0.0548999,0.108654,-0.283128,0
2024-12-13 15:22:50.126,-1.11565,2.72692,8.46072,0.0548999,0.108654,-0.283128,0
2024-12-13 15:22:50.126,-1.11565,2.72692,8.46072,0.0548999,0.108654,-0.283128,0
2024-12-13 15:22:50.126,-1.11565,2.72692,8.46072,0.0548999,0.108654,-0.283128,0
2024-12-13 15:22:50.128,-1.10608,2.73171,8.40808,0.0610084,0.11232,-0.281906,0
2024-12-13 15:22:50.128,-1.10608,2.73171,8.40808,0.0610084,0.11232,-0.281906,0
2024-12-13 15:22:50.128,-1.10608,2.73171,8.40808,0.0610084,0.11232,-0.281906,0
2024-12-13 15:22:50.128,-1.10608,2.73171,8.40808,0.0610084,0.11232,-0.281906,0
2024-12-13 15:22:50.128,-1.10608,2.73171,8.40808,0.0610084,0.11232,-0.281906,0
2024-12-13 15:22:50.128,-1.10608,2.73171,8.40808,0.0610084,0.11232,-0.281906,0
2024-12-13 15:22:50.131,-1.09173,2.74606,8.3674,0.0695602,0.115985,-0.276408,0
2024-12-13 15:22:50.131,-1.09173,2.74606,8.3674,0.0695602,0.115985,-0.276408,0
2024-12-13 15:22:50.131,-1.09173,2.74606,8.3674,0.0695602,0.115985,-0.276408,0
2024-12-13 15:22:50.131,-1.09173,2.74606,8.3674,0.0695602,0.115985,-0.276408,0
2024-12-13 15:22:50.133,-1.09651,2.77238,8.31715,0.0787229,0.122093,-0.273965,0
2024-12-13 15:22:50.133,-1.09651,2.77238,8.31715,0.0787229,0.122093,-0.273965,0
2024-12-13 15:22:50.133,-1.09651,2.77238,8.31715,0.0787229,0.122093,-0.273965,0
2024-12-13 15:22:50.133,-1.09651,2.77238,8.31715,0.0787229,0.122093,-0.273965,0
2024-12-13 15:22:50.133,-1.09651,2.77238,8.31715,0.0787229,0.122093,-0.273965,0
2024-12-13 15:22:50.135,-1.10608,2.78435,8.25972,0.0921616,0.131256,-0.273354,0
2024-12-13 15:22:50.135,-1.10608,2.78435,8.25972,0.0921616,0.131256,-0.273354,0
2024-12-13 15:22:50.135,-1.10608,2.78435,8.25972,0.0921616,0.131256,-0.273354,0
2024-12-13 15:22:50.135,-1.10608,2.78435,8.25972,0.0921616,0.131256,-0.273354,0
2024-12-13 15:22:50.135,-1.10608,2.78435,8.25972,0.0921616,0.131256,-0.273354,0
2024-12-13 15:22:50.135,-1.10608,2.78435,8.25972,0.0921616,0.131256,-0.273354,0
2024-12-13 15:22:50.138,-1.12044,2.77238,8.20948,0.103157,0.138586,-0.2703,0
2024-12-13 15:22:50.138,-1.12044,2.77238,8.20948,0.103157,0.138586,-0.2703,0
2024-12-13 15:22:50.138,-1.12044,2.77238,8.20948,0.103157,0.138586,-0.2703,0
2024-12-13 15:22:50.140,-1.12283,2.78674,8.15444,0.117817,0.149581,-0.267857,0
2024-12-13 15:22:50.140,-1.12283,2.78674,8.15444,0.117817,0.149581,-0.267857,0
2024-12-13 15:22:50.140,-1.12283,2.78674,8.15444,0.117817,0.149581,-0.267857,0
2024-12-13 15:22:50.140,-1.12283,2.78674,8.15444,0.117817,0.149581,-0.267857,0
2024-12-13 15:22:50.140,-1.12283,2.78674,8.15444,0.117817,0.149581,-0.267857,0
2024-12-13 15:22:50.142,-1.13001,2.81545,8.09193,0.132477,0.160576,-0.263581,0
2024-12-13 15:22:50.142,-1.13001,2.81545,8.09193,0.132477,0.160576,-0.263581,0
2024-12-13 15:22:50.142,-1.13001,2.81545,8.09193,0.132477,0.160576,-0.263581,0
2024-12-13 15:22:50.142,-1.13001,2.81545,8.09193,0.132477,0.160576,-0.263581,0
2024-12-13 15:22:50.142,-1.13001,2.81545,8.09193,0.132477,0.160576,-0.263581,0
2024-12-13 15:22:50.145,-1.16112,2.82742,8.01057,0.149581,0.172183,-0.261137,0
2024-12-13 15:22:50.145,-1.16112,2.82742,8.01057,0.149581,0.172183,-0.261137,0
2024-12-13 15:22:50.145,-1.16112,2.82742,8.01057,0.149581,0.172183,-0.261137,0
2024-12-13 15:22:50.145,-1.16112,2.82742,8.01057,0.149581,0.172183,-0.261137,0
2024-12-13 15:22:50.145,-1.16112,2.82742,8.01057,0.149581,0.172183,-0.261137,0
2024-12-13 15:22:50.145,-1.16112,2.82742,8.01057,0.149581,0.172183,-0.261137,0
2024-12-13 15:22:50.147,-1.17308,2.83938,7.92443,0.166074,0.183789,-0.257472,0
2024-12-13 15:22:50.147,-1.17308,2.83938,7.92443,0.166074,0.183789,-0.257472,0
2024-12-13 15:22:50.149,-1.1994,2.85853,7.83111,0.180734,0.194784,-0.252585,0
2024-12-13 15:22:50.149,-1.1994,2.85853,7.83111,0.180734,0.194784,-0.252585,0
2024-12-13 15:22:50.149,-1.1994,2.85853,7.83111,0.180734,0.194784,-0.252585,0
2024-12-13 15:22:50.149,-1.1994,2.85853,7.83111,0.180734,0.194784,-0.252585,0
2024-12-13 15:22:50.149,-1.1994,2.85853,7.83111,0.180734,0.194784,-0.252585,0
2024-12-13 15:22:50.150,-1.1994,2.85853,7.83111,0.180734,0.194784,-0.252585,0
2024-12-13 15:22:50.152,-1.2329,2.88245,7.70429,0.196616,0.205168,-0.246477,0
2024-12-13 15:22:50.152,-1.2329,2.88245,7.70429,0.196616,0.205168,-0.246477,0
2024-12-13 15:22:50.152,-1.2329,2.88245,7.70429,0.196616,0.205168,-0.246477,0
2024-12-13 15:22:50.152,-1.2329,2.88245,7.70429,0.196616,0.205168,-0.246477,0
2024-12-13 15:22:50.154,-1.24965,2.88485,7.5676,0.214331,0.214942,-0.244033,0
2024-12-13 15:22:50.154,-1.24965,2.88485,7.5676,0.214331,0.214942,-0.244033,0
2024-12-13 15:22:50.154,-1.24965,2.88485,7.5676,0.214331,0.214942,-0.244033,0
2024-12-13 15:22:50.154,-1.24965,2.88485,7.5676,0.214331,0.214942,-0.244033,0
2024-12-13 15:22:50.154,-1.24965,2.88485,7.5676,0.214331,0.214942,-0.244033,0
2024-12-13 15:22:50.155,-1.24965,2.88485,7.5676,0.224105,0.224715,-0.239758,0
2024-12-13 15:22:50.157,-1.27119,2.87528,7.4336,0.224105,0.224715,-0.239758,0
2024-12-13 15:22:50.157,-1.27119,2.87528,7.4336,0.224105,0.224715,-0.239758,0
2024-12-13 15:22:50.157,-1.27119,2.87528,7.4336,0.224105,0.224715,-0.239758,0
2024-12-13 15:22:50.159,-1.2999,2.87767,7.27568,0.237543,0.231435,-0.23426,0
2024-12-13 15:22:50.159,-1.2999,2.87767,7.27568,0.237543,0.231435,-0.23426,0
2024-12-13 15:22:50.159,-1.2999,2.87767,7.27568,0.237543,0.231435,-0.23426,0
2024-12-13 15:22:50.159,-1.2999,2.87767,7.27568,0.237543,0.231435,-0.23426,0
2024-12-13 15:22:50.159,-1.2999,2.87767,7.27568,0.237543,0.231435,-0.23426,0
2024-12-13 15:22:50.159,-1.2999,2.87767,7.27568,0.237543,0.231435,-0.23426,0
2024-12-13 15:22:50.161,-1.32861,2.88485,7.13211,0.246095,0.236322,-0.230595,0
2024-12-13 15:22:50.161,-1.32861,2.88485,7.13211,0.246095,0.236322,-0.230595,0
2024-12-13 15:22:50.161,-1.32861,2.88485,7.13211,0.246095,0.236322,-0.230595,0
2024-12-13 15:22:50.161,-1.32861,2.88485,7.13211,0.246095,0.236322,-0.230595,0
2024-12-13 15:22:50.161,-1.32861,2.88485,7.13211,0.246095,0.236322,-0.230595,0
2024-12-13 15:22:50.164,-1.35733,2.89442,6.9667,0.252204,0.239376,-0.223876,0
2024-12-13 15:22:50.164,-1.35733,2.89442,6.9667,0.252204,0.239376,-0.223876,0
2024-12-13 15:22:50.164,-1.35733,2.89442,6.9667,0.252204,0.239376,-0.223876,0
2024-12-13 15:22:50.164,-1.35733,2.89442,6.9667,0.252204,0.239376,-0.223876,0
2024-12-13 15:22:50.166,-1.38365,2.90638,6.78246,0.260145,0.239987,-0.2196,0
2024-12-13 15:22:50.166,-1.38365,2.90638,6.78246,0.260145,0.239987,-0.2196,0
2024-12-13 15:22:50.166,-1.38365,2.90638,6.78246,0.260145,0.239987,-0.2196,0
2024-12-13 15:22:50.166,-1.38365,2.90638,6.78246,0.260145,0.239987,-0.2196,0
2024-12-13 15:22:50.166,-1.38365,2.90638,6.78246,0.260145,0.239987,-0.2196,0
2024-12-13 15:22:50.166,-1.38365,2.90638,6.78246,0.260145,0.239987,-0.2196,0
2024-12-13 15:22:50.168,-1.41745,2.91835,6.62931,0.26381,0.239987,-0.215324,0
2024-12-13 15:22:50.168,-1.41745,2.91835,6.62931,0.26381,0.239987,-0.215324,0
2024-12-13 15:22:50.168,-1.41745,2.91835,6.62931,0.26381,0.239987,-0.215324,0
2024-12-13 15:22:50.168,-1.41745,2.91835,6.62931,0.26381,0.239987,-0.215324,0
2024-12-13 15:22:50.171,-1.45813,2.9327,6.49053,0.263199,0.238154,-0.208604,0
2024-12-13 15:22:50.171,-1.45813,2.9327,6.49053,0.263199,0.238154,-0.208604,0
2024-12-13 15:22:50.171,-1.45813,2.9327,6.49053,0.263199,0.238154,-0.208604,0
2024-12-13 15:22:50.171,-1.45813,2.9327,6.49053,0.263199,0.238154,-0.208604,0
2024-12-13 15:22:50.171,-1.45813,2.9327,6.49053,0.263199,0.238154,-0.208604,0
2024-12-13 15:22:50.173,-1.47727,2.93749,6.35623,0.263199,0.232046,-0.202496,0
2024-12-13 15:22:50.173,-1.47727,2.93749,6.35623,0.263199,0.232046,-0.202496,0
2024-12-13 15:22:50.173,-1.47727,2.93749,6.35623,0.263199,0.232046,-0.202496,0
2024-12-13 15:22:50.173,-1.47727,2.93749,6.35623,0.263199,0.232046,-0.202496,0
2024-12-13 15:22:50.173,-1.47727,2.93749,6.35623,0.263199,0.232046,-0.202496,0
2024-12-13 15:22:50.175,-1.47727,2.95424,6.22702,0.261977,0.224105,-0.200052,0
2024-12-13 15:22:50.175,-1.47727,2.95424,6.22702,0.261977,0.224105,-0.200052,0
2024-12-13 15:22:50.175,-1.47727,2.95424,6.22702,0.261977,0.224105,-0.200052,0
2024-12-13 15:22:50.175,-1.47727,2.95424,6.22702,0.261977,0.224105,-0.200052,0
2024-12-13 15:22:50.175,-1.47727,2.95424,6.22702,0.261977,0.224105,-0.200052,0
2024-12-13 15:22:50.178,-1.46291,2.98295,6.09542,0.25648,0.210055,-0.197609,0
2024-12-13 15:22:50.178,-1.46291,2.98295,6.09542,0.25648,0.210055,-0.197609,0
2024-12-13 15:22:50.178,-1.46291,2.98295,6.09542,0.25648,0.210055,-0.197609,0
2024-12-13 15:22:50.178,-1.46291,2.98295,6.09542,0.25648,0.210055,-0.197609,0
2024-12-13 15:22:50.178,-1.46291,2.98295,6.09542,0.25648,0.210055,-0.197609,0
2024-12-13 15:22:50.180,-1.4653,2.99013,5.94467,0.246095,0.192951,-0.192722,0
2024-12-13 15:22:50.180,-1.4653,2.99013,5.94467,0.246095,0.192951,-0.192722,0
2024-12-13 15:22:50.180,-1.4653,2.99013,5.94467,0.246095,0.192951,-0.192722,0
2024-12-13 15:22:50.181,-1.4653,2.99013,5.94467,0.237543,0.174626,-0.189668,0
2024-12-13 15:22:50.182,-1.46291,2.97577,5.81755,0.237543,0.174626,-0.189668,0
2024-12-13 15:22:50.182,-1.46291,2.97577,5.81755,0.237543,0.174626,-0.189668,0
2024-12-13 15:22:50.182,-1.46291,2.97577,5.81755,0.237543,0.174626,-0.189668,0
2024-12-13 15:22:50.182,-1.46291,2.97577,5.81755,0.237543,0.174626,-0.189668,0
2024-12-13 15:22:50.182,-1.46291,2.97577,5.81755,0.237543,0.174626,-0.189668,0
2024-12-13 15:22:50.185,-1.45573,2.95663,5.72902,0.225326,0.153246,-0.190279,0
2024-12-13 15:22:50.185,-1.45573,2.95663,5.72902,0.225326,0.153246,-0.190279,0
2024-12-13 15:22:50.185,-1.45573,2.95663,5.72902,0.225326,0.153246,-0.190279,0
2024-12-13 15:22:50.185,-1.45573,2.95663,5.72902,0.225326,0.153246,-0.190279,0
2024-12-13 15:22:50.185,-1.45573,2.95663,5.72902,0.225326,0.153246,-0.190279,0
2024-12-13 15:22:50.187,-1.45095,2.95663,5.62852,0.210055,0.127591,-0.190279,0
2024-12-13 15:22:50.187,-1.45095,2.95663,5.62852,0.210055,0.127591,-0.190279,0
2024-12-13 15:22:50.187,-1.45095,2.95663,5.62852,0.210055,0.127591,-0.190279,0
2024-12-13 15:22:50.187,-1.45095,2.95663,5.62852,0.210055,0.127591,-0.190279,0
2024-12-13 15:22:50.187,-1.45095,2.95663,5.62852,0.210055,0.127591,-0.190279,0
2024-12-13 15:22:50.187,-1.45095,2.95663,5.62852,0.210055,0.127591,-0.190279,0
2024-12-13 15:22:50.189,-1.44138,2.95902,5.53041,0.192951,0.101324,-0.191501,0
2024-12-13 15:22:50.189,-1.44138,2.95902,5.53041,0.192951,0.101324,-0.191501,0
2024-12-13 15:22:50.189,-1.44138,2.95902,5.53041,0.192951,0.101324,-0.191501,0
2024-12-13 15:22:50.189,-1.44138,2.95902,5.53041,0.192951,0.101324,-0.191501,0
2024-12-13 15:22:50.192,-1.44138,2.95185,5.47298,0.174015,0.0787229,-0.192111,0
2024-12-13 15:22:50.192,-1.44138,2.95185,5.47298,0.174015,0.0787229,-0.192111,0
2024-12-13 15:22:50.192,-1.44138,2.95185,5.47298,0.174015,0.0787229,-0.192111,0
2024-12-13 15:22:50.192,-1.44138,2.95185,5.47298,0.174015,0.0787229,-0.192111,0
2024-12-13 15:22:50.192,-1.44138,2.95185,5.47298,0.174015,0.0787229,-0.192111,0
2024-12-13 15:22:50.192,-1.44138,2.95185,5.47298,0.174015,0.0787229,-0.192111,0
2024-12-13 15:22:50.192,-1.44138,2.95185,5.47298,0.174015,0.0787229,-0.192111,0
2024-12-13 15:22:50.192,-1.44138,2.95185,5.47298,0.174015,0.0787229,-0.192111,0
2024-12-13 15:22:50.194,-1.43659,2.94467,5.42752,0.152025,0.0500131,-0.193944,0
2024-12-13 15:22:50.197,-1.4342,2.94945,5.39163,0.131256,0.022525,-0.193944,0
2024-12-13 15:22:50.197,-1.4342,2.94945,5.39163,0.131256,0.022525,-0.193944,0
2024-12-13 15:22:50.197,-1.4342,2.94945,5.39163,0.131256,0.022525,-0.193944,0
2024-12-13 15:22:50.197,-1.4342,2.94945,5.39163,0.131256,0.022525,-0.193944,0
2024-12-13 15:22:50.199,-1.43181,2.94945,5.37966,0.109876,-0.0104608,-0.196998,0
2024-12-13 15:22:50.199,-1.43181,2.94945,5.37966,0.109876,-0.0104608,-0.196998,0
2024-12-13 15:22:50.199,-1.43181,2.94945,5.37966,0.109876,-0.0104608,-0.196998,0
2024-12-13 15:22:50.199,-1.43181,2.94945,5.37966,0.109876,-0.0104608,-0.196998,0
2024-12-13 15:22:50.199,-1.43181,2.94945,5.37966,0.109876,-0.0104608,-0.196998,0
2024-12-13 15:22:50.199,-1.43181,2.94945,5.37966,0.109876,-0.0104608,-0.196998,0
2024-12-13 15:22:50.201,-1.42463,2.94706,5.38684,0.0817772,-0.0465007,-0.199442,0
2024-12-13 15:22:50.201,-1.42463,2.94706,5.38684,0.0817772,-0.0465007,-0.199442,0
2024-12-13 15:22:50.201,-1.42463,2.94706,5.38684,0.0817772,-0.0465007,-0.199442,0
2024-12-13 15:22:50.202,-1.42463,2.94706,5.38684,0.058565,-0.0800973,-0.202496,0
2024-12-13 15:22:50.204,-1.40788,2.94467,5.41795,0.058565,-0.0800973,-0.202496,0
2024-12-13 15:22:50.204,-1.40788,2.94467,5.41795,0.058565,-0.0800973,-0.202496,0
2024-12-13 15:22:50.204,-1.40788,2.94467,5.41795,0.058565,-0.0800973,-0.202496,0
2024-12-13 15:22:50.204,-1.40788,2.94467,5.41795,0.058565,-0.0800973,-0.202496,0
2024-12-13 15:22:50.204,-1.40788,2.94467,5.41795,0.058565,-0.0800973,-0.202496,0
2024-12-13 15:22:50.206,-1.37647,2.9351,5.47059,0.0329094,-0.116748,-0.206161,0
2024-12-13 15:22:50.206,-1.37647,2.9351,5.47059,0.0329094,-0.116748,-0.206161,0
2024-12-13 15:22:50.206,-1.37647,2.9351,5.47059,0.0329094,-0.116748,-0.206161,0
2024-12-13 15:22:50.206,-1.37647,2.9351,5.47059,0.0329094,-0.116748,-0.206161,0
2024-12-13 15:22:50.207,-1.37647,2.9351,5.47059,0.00725381,-0.150956,-0.210437,0
2024-12-13 15:22:50.208,-1.34058,2.92792,5.54955,0.00725381,-0.150956,-0.210437,0
2024-12-13 15:22:50.208,-1.34058,2.92792,5.54955,0.00725381,-0.150956,-0.210437,0
2024-12-13 15:22:50.208,-1.34058,2.92792,5.54955,0.00725381,-0.150956,-0.210437,0
2024-12-13 15:22:50.208,-1.34058,2.92792,5.54955,0.00725381,-0.150956,-0.210437,0
2024-12-13 15:22:50.211,-1.31665,2.91595,5.66202,-0.0147367,-0.184552,-0.218378,0
2024-12-13 15:22:50.211,-1.31665,2.91595,5.66202,-0.0147367,-0.184552,-0.218378,0
2024-12-13 15:22:50.211,-1.31665,2.91595,5.66202,-0.0147367,-0.184552,-0.218378,0
2024-12-13 15:22:50.211,-1.31665,2.91595,5.66202,-0.0147367,-0.184552,-0.218378,0
2024-12-13 15:22:50.211,-1.31665,2.91595,5.66202,-0.0147367,-0.184552,-0.218378,0
2024-12-13 15:22:50.213,-1.30708,2.92552,5.79841,-0.0379489,-0.216927,-0.223265,0
2024-12-13 15:22:50.213,-1.30708,2.92552,5.79841,-0.0379489,-0.216927,-0.223265,0
2024-12-13 15:22:50.213,-1.30708,2.92552,5.79841,-0.0379489,-0.216927,-0.223265,0
2024-12-13 15:22:50.213,-1.30708,2.92552,5.79841,-0.0379489,-0.216927,-0.223265,0
2024-12-13 15:22:50.215,-1.30708,2.9327,5.95663,-0.0562743,-0.242583,-0.22693,0
2024-12-13 15:22:50.215,-1.30708,2.9327,5.95663,-0.0562743,-0.242583,-0.22693,0
2024-12-13 15:22:50.215,-1.30708,2.9327,5.95663,-0.0562743,-0.242583,-0.22693,0
2024-12-13 15:22:50.215,-1.30708,2.9327,5.95663,-0.0562743,-0.242583,-0.22693,0
2024-12-13 15:22:50.218,-1.30708,2.9351,6.12892,-0.0727672,-0.268238,-0.233038,0
2024-12-13 15:22:50.218,-1.30708,2.9351,6.12892,-0.0727672,-0.268238,-0.233038,0
2024-12-13 15:22:50.218,-1.30708,2.9351,6.12892,-0.0727672,-0.268238,-0.233038,0
2024-12-13 15:22:50.218,-1.30708,2.9351,6.12892,-0.0727672,-0.268238,-0.233038,0
2024-12-13 15:22:50.220,-1.30708,2.94467,6.32034,-0.0862058,-0.282899,-0.240368,0
2024-12-13 15:22:50.220,-1.30708,2.94467,6.32034,-0.0862058,-0.282899,-0.240368,0
2024-12-13 15:22:50.220,-1.30708,2.94467,6.32034,-0.0862058,-0.282899,-0.240368,0
2024-12-13 15:22:50.221,-1.30708,2.94467,6.32034,-0.0941468,-0.296948,-0.244644,0
2024-12-13 15:22:50.222,-1.3334,2.94467,6.50728,-0.0941468,-0.296948,-0.244644,0
2024-12-13 15:22:50.222,-1.3334,2.94467,6.50728,-0.0941468,-0.296948,-0.244644,0
2024-12-13 15:22:50.222,-1.3334,2.94467,6.50728,-0.0941468,-0.296948,-0.244644,0
2024-12-13 15:22:50.222,-1.3334,2.94467,6.50728,-0.0941468,-0.296948,-0.244644,0
2024-12-13 15:22:50.225,-1.34536,2.94945,6.68674,-0.101477,-0.303667,-0.250142,0
2024-12-13 15:22:50.225,-1.34536,2.94945,6.68674,-0.101477,-0.303667,-0.250142,0
2024-12-13 15:22:50.225,-1.34536,2.94945,6.68674,-0.101477,-0.303667,-0.250142,0
2024-12-13 15:22:50.225,-1.34536,2.94945,6.68674,-0.101477,-0.303667,-0.250142,0
2024-12-13 15:22:50.227,-1.35733,2.93988,6.86381,-0.104531,-0.310387,-0.253807,0
2024-12-13 15:22:50.227,-1.35733,2.93988,6.86381,-0.104531,-0.310387,-0.253807,0
2024-12-13 15:22:50.227,-1.35733,2.93988,6.86381,-0.104531,-0.310387,-0.253807,0
2024-12-13 15:22:50.230,-1.39561,2.91595,7.00977,-0.105142,-0.314052,-0.253196,0
2024-12-13 15:22:50.230,-1.39561,2.91595,7.00977,-0.105142,-0.314052,-0.253196,0
2024-12-13 15:22:50.230,-1.39561,2.91595,7.00977,-0.105142,-0.314052,-0.253196,0
2024-12-13 15:22:50.231,-1.39561,2.91595,7.00977,-0.102088,-0.313441,-0.253196,0
2024-12-13 15:22:50.232,-1.41506,2.87288,7.11775,-0.102088,-0.313441,-0.253196,0
2024-12-13 15:22:50.232,-1.41506,2.87288,7.11775,-0.102088,-0.313441,-0.253196,0
2024-12-13 15:22:50.232,-1.41506,2.87288,7.11775,-0.102088,-0.313441,-0.253196,0
2024-12-13 15:22:50.232,-1.41506,2.87288,7.11775,-0.102088,-0.313441,-0.253196,0
2024-12-13 15:22:50.234,-1.43659,2.82263,7.20628,-0.10392,-0.317106,-0.253807,0
2024-12-13 15:22:50.234,-1.43659,2.82263,7.20628,-0.10392,-0.317106,-0.253807,0
2024-12-13 15:22:50.234,-1.43659,2.82263,7.20628,-0.10392,-0.317106,-0.253807,0
2024-12-13 15:22:50.237,-1.46291,2.78435,7.29003,-0.100255,-0.318939,-0.250142,0
2024-12-13 15:22:50.239,-1.48923,2.7341,7.36421,-0.101477,-0.325047,-0.245866,0
2024-12-13 15:22:50.241,-1.52752,2.67906,7.4336,-0.10392,-0.337264,-0.243423,0
2024-12-13 15:22:50.244,-1.55145,2.65035,7.50299,-0.106975,-0.347648,-0.237925,0
2024-12-13 15:22:50.246,-1.55862,2.63839,7.5676,-0.104531,-0.359865,-0.227541,0
2024-12-13 15:22:50.248,-1.58495,2.60489,7.65165,-0.108196,-0.373304,-0.215935,0
2024-12-13 15:22:50.251,-1.61605,2.59771,7.74497,-0.111251,-0.387354,-0.20555,0
2024-12-13 15:22:50.253,-1.64477,2.59771,7.84547,-0.11064,-0.400792,-0.194555,0
2024-12-13 15:22:50.255,-1.65194,2.6001,7.97947,-0.114916,-0.414231,-0.180505,0
2024-12-13 15:22:50.258,-1.64477,2.61207,8.10389,-0.114916,-0.424615,-0.165845,0
2024-12-13 15:22:50.260,-1.63998,2.60967,8.20948,-0.115526,-0.432556,-0.150574,0
2024-12-13 15:22:50.263,-1.62562,2.61207,8.35304,-0.113694,-0.441719,-0.134081,0
2024-12-13 15:22:50.265,-1.60648,2.61685,8.50379,-0.112472,-0.450882,-0.119421,0
2024-12-13 15:22:50.267,-1.58255,2.61446,8.65215,-0.108807,-0.455768,-0.102317,0
2024-12-13 15:22:50.270,-1.55145,2.61446,8.79602,-0.10392,-0.461266,-0.0864349,0
2024-12-13 15:22:50.272,-1.52513,2.62881,8.93001,-0.0978119,-0.461877,-0.0705529,0
2024-12-13 15:22:50.274,-1.4988,2.64078,9.07837,-0.0898709,-0.462488,-0.0546708,0
2024-12-13 15:22:50.277,-1.45573,2.65514,9.21955,-0.0807082,-0.463099,-0.0424539,0
2024-12-13 15:22:50.279,-1.40548,2.67189,9.36341,-0.0715455,-0.45699,-0.0296261,0
2024-12-13 15:22:50.286,-1.2664,2.72931,9.73909,-0.0391706,-0.437443,0.00702474,0
2024-12-13 15:22:50.286,-1.2664,2.72931,9.73909,-0.0391706,-0.437443,0.00702474,0
2024-12-13 15:22:50.286,-1.2664,2.72931,9.73909,-0.0391706,-0.437443,0.00702474,0
2024-12-13 15:22:50.288,-1.21615,2.74846,9.86142,-0.0300079,-0.429502,0.0174091,0
2024-12-13 15:22:50.291,-1.16351,2.76521,9.9691,-0.0159584,-0.418507,0.0284044,0
2024-12-13 15:22:50.293,-1.1013,2.79153,10.0696,-0.00679568,-0.40629,0.0357346,0
2024-12-13 15:22:50.295,-1.04148,2.83699,10.1677,0.00114534,-0.39224,0.046119,0
2024-12-13 15:22:50.298,-0.991227,2.87767,10.261,0.00114534,-0.39224,0.046119,0
2024-12-13 15:22:50.303,-0.852443,2.95185,10.4647,0.0353528,-0.331766,0.0742179,0
2024-12-13 15:22:50.303,-0.852443,2.95185,10.4647,0.0353528,-0.331766,0.0742179,0
2024-12-13 15:22:50.305,-0.809073,2.95663,10.558,0.0451263,-0.307943,0.0809373,0
2024-12-13 15:22:50.307,-0.785145,2.97099,10.6394,0.0555107,-0.28412,0.0870457,0
2024-12-13 15:22:50.310,-0.756431,2.98056,10.7112,0.0646735,-0.257854,0.0955976,0
2024-12-13 15:22:50.312,-0.734896,2.9997,10.783,0.074447,-0.230977,0.102928,0
2024-12-13 15:22:50.314,-0.720539,3.05713,10.8404,0.0842206,-0.201045,0.109036,0
2024-12-13 15:22:50.317,-0.715753,3.11007,10.8906,0.0952158,-0.171724,0.116977,0
2024-12-13 15:22:50.319,-0.739681,3.18186,10.9289,0.102546,-0.138128,0.123697,0
2024-12-13 15:22:50.321,-0.792323,3.25603,10.9337,0.11232,-0.106975,0.131027,0
2024-12-13 15:22:50.324,-0.864407,3.34935,10.9289,0.119039,-0.0745997,0.140266,0
2024-12-13 15:22:50.326,-0.967299,3.48574,10.9146,0.125758,-0.0458899,0.148818,0
2024-12-13 15:22:50.328,-1.0989,3.63171,10.8739,0.130034,-0.0202343,0.154315,0
2024-12-13 15:22:50.331,-1.22812,3.77797,10.8356,0.129423,0.00236703,0.163478,0
2024-12-13 15:22:50.333,-1.36451,3.90479,10.7901,0.128202,0.0188599,0.174473,0
2024-12-13 15:22:50.336,-1.51555,3.99571,10.7375,0.122704,0.0298552,0.187301,0
2024-12-13 15:22:50.340,-1.74766,4.15364,10.5915,0.0970484,0.0396287,0.216011,0
2024-12-13 15:22:50.340,-1.74766,4.15364,10.5915,0.0970484,0.0396287,0.216011,0
2024-12-13 15:22:50.343,-1.82423,4.24247,10.5389,0.0732253,0.0329094,0.23006,0
2024-12-13 15:22:50.345,-1.87687,4.33101,10.5174,0.0481806,0.0133623,0.241056,0
2024-12-13 15:22:50.347,-1.92233,4.40279,10.5389,0.0176382,-0.0159584,0.250829,0
2024-12-13 15:22:50.350,-1.95583,4.46261,10.5891,-0.0165692,-0.0526092,0.25877,0
2024-12-13 15:22:50.352,-1.9681,4.51765,10.6777,-0.0513875,-0.0959794,0.263657,0
2024-12-13 15:22:50.354,-1.95823,4.56311,10.8212,-0.0923143,-0.144847,0.2661,0
2024-12-13 15:22:50.357,-1.91276,4.58943,11.001,-0.128965,-0.194937,0.269155,0
2024-12-13 15:22:50.359,-1.83141,4.60858,11.2092,-0.16867,-0.247469,0.267933,0
2024-12-13 15:22:50.361,-1.72373,4.62054,11.4724,-0.204099,-0.299392,0.267933,0
2024-12-13 15:22:50.364,-1.59452,4.62293,11.7718,-0.235863,-0.347648,0.266711,0
2024-12-13 15:22:50.366,-1.43181,4.59901,12.0808,-0.262741,-0.389186,0.262435,0
2024-12-13 15:22:50.369,-1.24247,4.56551,12.3966,-0.285953,-0.425226,0.255716,0
2024-12-13 15:22:50.371,-1.06062,4.52004,12.7128,-0.3055,-0.451492,0.247164,0
2024-12-13 15:22:50.373,-0.890728,4.46501,13.0143,-0.317717,-0.473483,0.238612,0
2024-12-13 15:22:50.376,-0.715753,4.42433,13.2897,-0.332988,-0.486311,0.228228,0
2024-12-13 15:22:50.378,-0.557827,4.37647,13.5362,-0.343983,-0.495473,0.216011,0
2024-12-13 15:22:50.380,-0.409472,4.33101,13.7566,-0.352535,-0.499139,0.203794,0
2024-12-13 15:22:50.383,-0.272782,4.31187,13.9887,-0.358033,-0.496695,0.189134,0
2024-12-13 15:22:50.385,-0.167498,4.27837,14.2185,-0.36353,-0.490587,0.175695,0
2024-12-13 15:22:50.387,-0.0646062,4.25444,14.4413,-0.370861,-0.478981,0.162256,0
2024-12-13 15:22:50.390,0.0311067,4.24247,14.6638,-0.369639,-0.460044,0.145763,0
2024-12-13 15:22:50.392,0.11007,4.19671,14.8866,-0.372693,-0.438665,0.129805,0
2024-12-13 15:22:50.394,0.18664,4.14646,15.1044,-0.367806,-0.408122,0.115145,0
2024-12-13 15:22:50.397,0.265603,4.09143,15.315,-0.359255,-0.374526,0.0998735,0
2024-12-13 15:22:50.401,0.347258,3.967,15.7316,-0.331156,-0.292061,0.0668878,0
2024-12-13 15:22:50.401,0.347258,3.967,15.7316,-0.331156,-0.292061,0.0668878,0
2024-12-13 15:22:50.404,0.371187,3.88325,15.923,-0.306722,-0.246859,0.0503949,0
2024-12-13 15:22:50.406,0.371187,3.80907,16.0717,-0.282288,-0.200434,0.0357346,0
2024-12-13 15:22:50.409,0.337687,3.71815,16.1674,-0.252356,-0.155842,0.0222959,0
2024-12-13 15:22:50.411,0.270389,3.63171,16.2296,-0.217538,-0.11064,0.010079,1
2024-12-13 15:22:50.413,0.165105,3.54796,16.2296,-0.183331,-0.0697129,-0.000305424,0
2024-12-13 15:22:50.416,0.0478565,3.45224,16.1507,-0.148512,-0.029397,-0.00580305,0
2024-12-13 15:22:50.418,-0.0933201,3.38764,16.0573,-0.109418,0.010308,-0.00702474,0
2024-12-13 15:22:50.420,-0.267996,3.335,15.9183,-0.073378,0.0451263,-0.00458135,0
2024-12-13 15:22:50.423,-0.459721,3.29193,15.7173,-0.0379489,0.0781121,0.00274881,0
2024-12-13 15:22:50.425,-0.648754,3.28475,15.5187,-0.00557398,0.108044,0.0155766,0
2024-12-13 15:22:50.427,-0.825823,3.30628,15.2982,0.0200816,0.133699,0.0345129,0
2024-12-13 15:22:50.430,-0.996012,3.34935,15.0518,0.0481806,0.158133,0.0558925,0
2024-12-13 15:22:50.432,-1.16112,3.38764,14.8193,0.0683385,0.180124,0.0827698,0
2024-12-13 15:22:50.434,-1.31665,3.43789,14.5777,0.0878856,0.196006,0.110869,0
2024-12-13 15:22:50.437,-1.48445,3.50249,14.3408,0.102546,0.207612,0.140266,0
2024-12-13 15:22:50.439,-1.62084,3.55514,14.1227,0.111098,0.215553,0.171419,0
2024-12-13 15:22:50.442,-1.70459,3.59103,13.9146,0.118428,0.214331,0.201961,0
2024-12-13 15:22:50.444,-1.75723,3.61256,13.7013,0.120871,0.207612,0.234336,0
2024-12-13 15:22:50.446,-1.77159,3.62692,13.4955,0.122093,0.194784,0.261824,0
2024-12-13 15:22:50.450,-1.77398,3.62692,13.2993,0.103768,0.146527,0.311303,0
2024-12-13 15:22:50.451,-1.74766,3.6341,13.1172,0.103768,0.146527,0.311303,0
2024-12-13 15:22:50.453,-1.71416,3.66072,12.964,0.0927724,0.122093,0.333904,0
2024-12-13 15:22:50.456,-1.67827,3.67747,12.8396,0.0768904,0.0939941,0.354062,0
2024-12-13 15:22:50.458,-1.61127,3.69183,12.7319,0.0610084,0.0610084,0.372388,0
2024-12-13 15:22:50.460,-1.5347,3.69183,12.6266,0.042683,0.0231358,0.390713,0
2024-12-13 15:22:50.463,-1.42941,3.67029,12.5521,0.0200816,-0.0202343,0.403541,0
2024-12-13 15:22:50.465,-1.2999,3.63171,12.4899,-0.00496313,-0.0672696,0.415758,0
2024-12-13 15:22:50.467,-1.15394,3.58146,12.4421,-0.00496313,-0.0672696,0.415758,0
2024-12-13 15:22:50.470,-0.981655,3.50967,12.4253,-0.0623828,-0.165005,0.427975,0
2024-12-13 15:22:50.472,-0.809073,3.42114,12.4397,-0.0917034,-0.213873,0.433472,0
2024-12-13 15:22:50.475,-0.612862,3.3326,12.5115,-0.1253,-0.259076,0.433472,0
2024-12-13 15:22:50.477,-0.390329,3.22014,12.6338,-0.156453,-0.301224,0.433472,0
2024-12-13 15:22:50.479,-0.184247,3.11725,12.7846,-0.185163,-0.336653,0.432862,0
2024-12-13 15:22:50.482,0.0143569,3.02842,12.9473,-0.213262,-0.364141,0.43164,0
2024-12-13 15:22:50.484,0.212961,2.9327,13.1052,-0.241361,-0.385521,0.429197,0
2024-12-13 15:22:50.486,0.407079,2.85853,13.2873,-0.259686,-0.39957,0.426142,0
2024-12-13 15:22:50.489,0.572184,2.78435,13.5123,-0.278623,-0.406901,0.420645,0
2024-12-13 15:22:50.491,0.708575,2.71256,13.7133,-0.292672,-0.406901,0.413315,0
2024-12-13 15:22:50.493,0.833001,2.64796,13.8978,-0.301224,-0.400181,0.402319,0
2024-12-13 15:22:50.496,0.96012,2.58335,14.0701,-0.306111,-0.383688,0.392546,0
2024-12-13 15:22:50.498,1.08455,2.51127,14.2089,-0.304278,-0.356811,0.383383,0
2024-12-13 15:22:50.500,1.17547,2.41555,14.3145,-0.304278,-0.356811,0.383383,0
2024-12-13 15:22:50.503,1.2664,2.31027,14.3695,-0.29084,-0.271293,0.363225,0
2024-12-13 15:22:50.505,1.34536,2.20259,14.403,-0.276179,-0.217538,0.351619,0
2024-12-13 15:22:50.507,1.40548,2.10927,14.4197,-0.258465,-0.158897,0.34551,0
2024-12-13 15:22:50.510,1.42463,2.01356,14.3958,-0.238307,-0.093536,0.337569,0
2024-12-13 15:22:50.512,1.40788,1.93191,14.3456,-0.218149,-0.021456,0.336348,0
2024-12-13 15:22:50.515,1.35015,1.88166,14.2567,-0.189439,0.0530674,0.333904,0
2024-12-13 15:22:50.517,1.24726,1.83619,14.1395,-0.161951,0.130645,0.340624,0
2024-12-13 15:22:50.519,1.13001,1.80987,14.0031,-0.161951,0.130645,0.340624,0
2024-12-13 15:22:50.522,0.97687,1.8003,13.8356,-0.0972011,0.290687,0.363836,0
2024-12-13 15:22:50.524,0.80668,1.79791,13.6463,-0.0629936,0.37254,0.38094,0
2024-12-13 15:22:50.526,0.658325,1.78355,13.4166,-0.0245102,0.450729,0.401098,0
2024-12-13 15:22:50.529,0.50997,1.77637,13.1435,0.014584,0.527085,0.427975,0
2024-12-13 15:22:50.531,0.364008,1.77159,12.8683,0.0530674,0.597943,0.456685,0
2024-12-13 15:22:50.533,0.212961,1.75723,12.5856,0.0915507,0.66758,0.48906,0
2024-12-13 15:22:50.536,0.0717847,1.77159,12.2889,0.130645,0.72813,0.524489,0
2024-12-13 15:22:50.538,-0.0454636,1.80987,11.9848,0.169128,0.781274,0.560529,0
2024-12-13 15:22:50.540,-0.160319,1.84098,11.6521,0.209444,0.827087,0.59718,0
2024-12-13 15:22:50.543,-0.270389,1.87208,11.3408,0.243652,0.863127,0.635663,0
2024-12-13 15:22:50.545,-0.354437,1.89841,11.0249,0.279692,0.896113,0.672314,0
2024-12-13 15:22:50.548,-0.419043,1.92951,10.6872,0.31451,0.921768,0.710186,0
2024-12-13 15:22:50.551,-0.452543,1.97049,10.328,0.378725,0.954143,0.782266,0
2024-12-13 15:22:50.552,-0.476471,2.01117,9.95953,0.378725,0.954143,0.782266,0
2024-12-13 15:22:50.555,-0.512363,2.07577,9.64098,0.407435,0.962084,0.817085,0
2024-12-13 15:22:50.557,-0.519542,2.1332,9.32752,0.431258,0.957808,0.847627,0
2024-12-13 15:22:50.559,-0.519542,2.17866,9.01616,0.455081,0.948646,0.877558,0
2024-12-13 15:22:50.562,-0.529113,2.23609,8.73141,0.473407,0.93032,0.905047,0
2024-12-13 15:22:50.564,-0.500399,2.30309,8.45594,0.492954,0.904665,0.930702,0
2024-12-13 15:22:50.566,-0.435793,2.36291,8.17119,0.505782,0.876566,0.950249,0
2024-12-13 15:22:50.569,-0.364008,2.41795,7.90289,0.51922,0.840526,0.969796,0
2024-12-13 15:22:50.571,-0.285045,2.48495,7.6684,0.532659,0.798988,0.983235,0
2024-12-13 15:22:50.573,-0.193819,2.55224,7.45035,0.539989,0.75684,0.992398,0
2024-12-13 15:22:50.576,-0.0837488,2.60728,7.25653,0.548541,0.710415,0.996063,0
2024-12-13 15:22:50.578,0.026321,2.6671,7.05554,0.550984,0.655974,0.997285,0
2024-12-13 15:22:50.580,0.136391,2.74367,6.84945,0.552206,0.600997,0.993009,0
2024-12-13 15:22:50.583,0.236889,2.81785,6.67478,0.552206,0.546021,0.985678,0
2024-12-13 15:22:50.585,0.344866,2.88245,6.48096,0.546708,0.48738,0.974072,0
2024-12-13 15:22:50.590,0.56022,2.98774,6.14806,0.528383,0.367043,0.942919,0
2024-12-13 15:22:50.592,0.660718,3.04517,5.9997,0.514333,0.30718,0.920318,0
2024-12-13 15:22:50.592,0.660718,3.04517,5.9997,0.514333,0.30718,0.920318,0
2024-12-13 15:22:50.595,0.749253,3.09811,5.87976,0.500284,0.247928,0.897106,0
2024-12-13 15:22:50.597,0.82343,3.14596,5.78405,0.478293,0.189286,0.872061,0
2024-12-13 15:22:50.600,0.881157,3.201,5.70748,0.458135,0.137975,0.845184,0
2024-12-13 15:22:50.602,0.938585,3.23928,5.64048,0.436145,0.0872748,0.817695,0
2024-12-13 15:22:50.604,1.00558,3.28475,5.58784,0.4111,0.0451263,0.786542,0
2024-12-13 15:22:50.606,1.08215,3.32303,5.58305,0.388499,0.00603212,0.754778,0
2024-12-13 15:22:50.609,1.16351,3.33978,5.58784,0.367043,-0.0257319,0.722403,0
2024-12-13 15:22:50.611,1.24008,3.35414,5.58545,0.345052,-0.0513875,0.687585,0
2024-12-13 15:22:50.613,1.29512,3.35414,5.58545,0.323673,-0.0770431,0.654599,0
2024-12-13 15:22:50.616,1.33579,3.3326,5.5998,0.302293,-0.0984228,0.620392,0
2024-12-13 15:22:50.618,1.37647,3.32064,5.62373,0.283357,-0.117359,0.58313,0
2024-12-13 15:22:50.621,1.39083,3.31107,5.64527,0.261977,-0.135074,0.548923,0
2024-12-13 15:22:50.623,1.39801,3.29193,5.67159,0.238765,-0.149123,0.515326,0
2024-12-13 15:22:50.625,1.41745,3.28475,5.70269,0.216774,-0.161951,0.481119,0
2024-12-13 15:22:50.628,1.40548,3.29432,5.73141,0.198449,-0.174168,0.445689,0
2024-12-13 15:22:50.630,1.37647,3.28953,5.76491,0.178902,-0.182109,0.413925,0
2024-12-13 15:22:50.632,1.36929,3.29432,5.80798,0.158744,-0.185774,0.38094,0
2024-12-13 15:22:50.635,1.34776,3.32782,5.85105,0.139197,-0.186385,0.348565,0
2024-12-13 15:22:50.637,1.30947,3.33739,5.91596,0.120871,-0.187606,0.319855,0
2024-12-13 15:22:50.639,1.27597,3.33021,5.99492,0.1056,-0.185163,0.292367,0
2024-12-13 15:22:50.642,1.24487,3.335,6.04995,0.0915507,-0.183941,0.263046,0
2024-12-13 15:22:50.644,1.20419,3.34218,6.10259,0.074447,-0.178444,0.236169,0
2024-12-13 15:22:50.646,1.1659,3.34696,6.16002,0.0610084,-0.174779,0.208681,0
2024-12-13 15:22:50.651,1.08455,3.31825,6.22224,0.030466,-0.168059,0.156148,0
2024-12-13 15:22:50.652,1.08455,3.31825,6.22224,0.030466,-0.168059,0.156148,0
2024-12-13 15:22:50.656,1.01037,3.2991,6.25813,0.00297788,-0.155232,0.102928,0
2024-12-13 15:22:50.656,1.01037,3.2991,6.25813,0.00297788,-0.155232,0.102928,0
2024-12-13 15:22:50.658,0.955334,3.27996,6.24138,-0.0141258,-0.149734,0.0772722,0
2024-12-13 15:22:50.663,0.789931,3.25125,6.24377,-0.0141258,-0.149734,0.0772722,0
2024-12-13 15:22:50.665,0.715753,3.23689,6.23181,-0.0703238,-0.132019,0.0051922,0
2024-12-13 15:22:50.668,0.634397,3.21536,6.21506,-0.0929251,-0.130798,-0.0119115,0
2024-12-13 15:22:50.668,0.634397,3.21536,6.21506,-0.0929251,-0.130798,-0.0119115,0
2024-12-13 15:22:50.672,0.512363,3.16511,6.21745,-0.144236,-0.124689,-0.0497841,0
2024-12-13 15:22:50.675,0.459721,3.134,6.21506,-0.172946,-0.121635,-0.0656661,0
2024-12-13 15:22:50.682,0.308973,3.01884,6.30598,-0.263352,-0.122857,-0.108425,0
2024-12-13 15:22:50.684,0.265603,2.99013,6.37059,-0.291451,-0.122857,-0.119421,0
2024-12-13 15:22:50.686,0.18664,2.9686,6.44238,-0.320771,-0.123468,-0.129194,0
2024-12-13 15:22:50.686,0.18664,2.9686,6.44238,-0.320771,-0.123468,-0.129194,0
2024-12-13 15:22:50.689,0.122034,2.95424,6.54078,-0.353146,-0.124078,-0.137746,0
2024-12-13 15:22:50.689,0.122034,2.95424,6.54078,-0.353146,-0.124078,-0.137746,0
2024-12-13 15:22:50.689,0.122034,2.95424,6.54078,-0.353146,-0.124078,-0.137746,0
2024-12-13 15:22:50.694,0.0215354,2.9351,6.81356,-0.380023,-0.1253,-0.146298,0
2024-12-13 15:22:50.696,-0.00478565,2.93988,6.97388,-0.431335,-0.128965,-0.15485,0
2024-12-13 15:22:50.696,-0.00478565,2.93988,6.97388,-0.431335,-0.128965,-0.15485,0
2024-12-13 15:22:50.699,-0.0239282,2.94945,7.15604,-0.469818,-0.131409,-0.165234,0
2024-12-13 15:22:50.701,-0.0382852,2.95424,7.34028,-0.469818,-0.131409,-0.165234,0
2024-12-13 15:22:50.703,-0.0622134,2.93988,7.52453,-0.482035,-0.132019,-0.165845,0
2024-12-13 15:22:50.712,-0.105284,2.87049,8.21187,-0.503415,-0.1253,-0.179895,0
2024-12-13 15:22:50.712,-0.122034,2.85374,8.21187,-0.503415,-0.1253,-0.179895,0
2024-12-13 15:22:50.715,-0.136391,2.82503,8.3674,-0.504025,-0.124689,-0.181727,0
2024-12-13 15:22:50.717,-0.160319,2.79871,8.54208,-0.50036,-0.128965,-0.181727,0
2024-12-13 15:22:50.717,-0.160319,2.79871,8.54208,-0.50036,-0.128965,-0.181727,0
2024-12-13 15:22:50.719,-0.189033,2.76999,8.7003,-0.494252,-0.133241,-0.181116,0
2024-12-13 15:22:50.719,-0.189033,2.76999,8.7003,-0.494252,-0.133241,-0.181116,0
2024-12-13 15:22:50.722,-0.210568,2.75085,8.84387,-0.488143,-0.141182,-0.179895,0
2024-12-13 15:22:50.724,-0.224925,2.74367,9.0018,-0.480813,-0.150345,-0.178673,0
2024-12-13 15:22:50.727,-0.246461,2.72692,9.13819,-0.469207,-0.162562,-0.172564,0
2024-12-13 15:22:50.729,-0.277567,2.71735,9.2677,-0.458823,-0.172946,-0.167067,0
2024-12-13 15:22:50.731,-0.299402,2.69821,9.40409,-0.444162,-0.180276,-0.161569,0
2024-12-13 15:22:50.734,-0.32333,2.6671,9.5357,-0.430113,-0.187606,-0.155461,0
2024-12-13 15:22:50.736,-0.354437,2.65514,9.65773,-0.414842,-0.191882,-0.145076,0
2024-12-13 15:22:50.738,-0.373579,2.65992,9.7678,-0.395905,-0.193715,-0.13347,0
2024-12-13 15:22:50.741,-0.378365,2.65992,9.89492,-0.378802,-0.193104,-0.121864,0
2024-12-13 15:22:50.743,-0.380758,2.62403,10.0265,-0.354368,-0.188828,-0.110258,0
2024-12-13 15:22:50.745,-0.392722,2.59053,10.1366,-0.332988,-0.185163,-0.0937651,0
2024-12-13 15:22:50.748,-0.397508,2.57857,10.2323,-0.309165,-0.176,-0.077883,0
2024-12-13 15:22:50.750,-0.3999,2.56182,10.3065,-0.282899,-0.163173,-0.0626118,0
2024-12-13 15:22:50.752,-0.414257,2.54028,10.3807,-0.256021,-0.147901,-0.0455081,0
2024-12-13 15:22:50.755,-0.419043,2.52592,10.4456,-0.231587,-0.132019,-0.0271827,0
2024-12-13 15:22:50.757,-0.3999,2.51845,10.4743,-0.207154,-0.110029,-0.00702474,0
2024-12-13 15:22:50.760,-0.378365,2.51366,10.4743,-0.177222,-0.085595,0.0119115,0
2024-12-13 15:22:50.762,-0.380758,2.51366,10.4791,-0.151566,-0.0599394,0.0320695,0
2024-12-13 15:22:50.764,-0.395115,2.52084,10.4719,-0.127743,-0.0324513,0.0491732,0
2024-12-13 15:22:50.767,-0.407079,2.51605,10.4264,-0.105142,-0.00129805,0.0717745,0
2024-12-13 15:22:50.769,-0.431007,2.50887,10.3711,-0.0837624,0.030466,0.0931542,0
2024-12-13 15:22:50.771,-0.428614,2.51366,10.2921,-0.0642153,0.0646735,0.115145,0
2024-12-13 15:22:50.774,-0.423829,2.52323,10.1916,-0.0440574,0.0952158,0.136601,0
2024-12-13 15:22:50.776,-0.426222,2.5331,10.0911,-0.029397,0.123315,0.159202,0
2024-12-13 15:22:50.778,-0.411865,2.5331,9.98824,-0.0141258,0.150192,0.180582,0
2024-12-13 15:22:50.781,-0.383151,2.53789,9.88296,-0.00313059,0.173404,0.201961,0
2024-12-13 15:22:50.783,-0.352044,2.55703,9.7678,0.00664296,0.192951,0.22273,0
2024-12-13 15:22:50.785,-0.32333,2.57139,9.62902,0.0121406,0.209444,0.242277,0
2024-12-13 15:22:50.788,-0.292223,2.58096,9.49981,0.0170274,0.223494,0.25877,0
2024-12-13 15:22:50.790,-0.244068,2.58335,9.37777,0.0194708,0.232656,0.27343,0
2024-12-13 15:22:50.792,-0.181855,2.58574,9.26292,0.0170274,0.235711,0.28748,0
2024-12-13 15:22:50.795,-0.114855,2.59532,9.17408,0.0164165,0.241208,0.297864,0
2024-12-13 15:22:50.797,-0.0550349,2.59532,9.0999,0.0127514,0.238765,0.30886,0
2024-12-13 15:22:50.800,-0.00239282,2.57378,9.04248,0.00664296,0.233267,0.318633,0
2024-12-13 15:22:50.802,0.0693919,2.56421,8.97308,-0.0019089,0.226548,0.326574,0
2024-12-13 15:22:50.804,0.12682,2.58096,8.93001,-0.00801737,0.219218,0.331461,0
2024-12-13 15:22:50.807,0.179462,2.60249,8.89651,-0.0153475,0.211888,0.336348,0
2024-12-13 15:22:50.809,0.256032,2.61685,8.87498,-0.0245102,0.200892,0.339402,0
2024-12-13 15:22:50.811,0.330509,2.62881,8.89173,-0.0330621,0.193562,0.341845,0
2024-12-13 15:22:50.814,0.378365,2.63599,8.91087,-0.0397814,0.189286,0.339402,0
2024-12-13 15:22:50.816,0.423829,2.64556,8.95634,-0.0446682,0.188065,0.339402,0
2024-12-13 15:22:50.818,0.481256,2.6671,9.03291,-0.0483333,0.186232,0.337569,0
2024-12-13 15:22:50.821,0.536291,2.67667,9.10708,-0.0465007,0.191119,0.332683,0
2024-12-13 15:22:50.823,0.576969,2.68864,9.1693,-0.0428357,0.195395,0.328407,0
2024-12-13 15:22:50.825,0.596112,2.71256,9.22672,-0.037338,0.204557,0.324131,0
2024-12-13 15:22:50.829,0.591326,2.72213,9.27727,-0.0153475,0.231435,0.313746,0
2024-12-13 15:22:50.830,0.605683,2.70539,9.30599,-0.0153475,0.231435,0.313746,0
2024-12-13 15:22:50.833,0.624826,2.69581,9.32513,-0.000687203,0.245484,0.307638,0
2024-12-13 15:22:50.835,0.598505,2.7006,9.32513,0.0133623,0.261366,0.303973,0
2024-12-13 15:22:50.840,0.541077,2.65274,9.26531,0.0487914,0.292519,0.295421,0
2024-12-13 15:22:50.840,0.541077,2.65274,9.26531,0.0487914,0.292519,0.295421,0
2024-12-13 15:22:50.842,0.531506,2.64556,9.21237,0.0695602,0.310234,0.292978,0
2024-12-13 15:22:50.844,0.517149,2.63599,9.15973,0.0897182,0.32917,0.291145,0
2024-12-13 15:22:50.847,0.483649,2.62403,9.08794,0.108654,0.347496,0.289923,0
2024-12-13 15:22:50.849,0.457328,2.60489,9.0018,0.128812,0.363378,0.289923,0
2024-12-13 15:22:50.852,0.428614,2.59771,8.91326,0.150192,0.379871,0.290534,0
2024-12-13 15:22:50.854,0.383151,2.6001,8.81516,0.169128,0.398807,0.292367,0
2024-12-13 15:22:50.856,0.34008,2.58096,8.70748,0.189286,0.4153,0.296643,0
2024-12-13 15:22:50.858,0.299402,2.57378,8.59472,0.208833,0.433014,0.302751,0
2024-12-13 15:22:50.861,0.265603,2.55942,8.49183,0.227159,0.450118,0.307027,0
2024-12-13 15:22:50.863,0.239282,2.54507,8.37697,0.245484,0.466,0.313746,0
2024-12-13 15:22:50.865,0.224925,2.53071,8.23101,0.265031,0.479439,0.321077,0
2024-12-13 15:22:50.868,0.217747,2.51127,8.08714,0.279692,0.493488,0.328407,0
2024-12-13 15:22:50.870,0.205783,2.50648,7.94118,0.294352,0.505705,0.335126,0
2024-12-13 15:22:50.873,0.191426,2.50887,7.8,0.308401,0.5167,0.344289,0
2024-12-13 15:22:50.875,0.174676,2.51366,7.6684,0.320618,0.524641,0.354062,0
2024-12-13 15:22:50.877,0.157926,2.51605,7.53889,0.330392,0.528917,0.35956,0
2024-12-13 15:22:50.880,0.157926,2.53071,7.40489,0.337722,0.532582,0.367501,0
2024-12-13 15:22:50.882,0.184247,2.54507,7.27807,0.348107,0.532582,0.373609,0
2024-12-13 15:22:50.884,0.210568,2.54985,7.15364,0.353604,0.534415,0.379107,0
2024-12-13 15:22:50.887,0.229711,2.55942,7.02922,0.362156,0.531972,0.382772,0
2024-12-13 15:22:50.889,0.244068,2.58335,6.9021,0.363989,0.528307,0.387048,0
2024-12-13 15:22:50.891,0.258425,2.6001,6.77767,0.36521,0.52342,0.387659,0
2024-12-13 15:22:50.895,0.277567,2.60489,6.6676,0.362767,0.508759,0.388881,0
2024-12-13 15:22:50.896,0.313759,2.62642,6.55035,0.362767,0.508759,0.388881,0
2024-12-13 15:22:50.898,0.35683,2.65992,6.43041,0.358491,0.495932,0.385826,0
2024-12-13 15:22:50.901,0.378365,2.67667,6.3347,0.353604,0.483715,0.383383,0
2024-12-13 15:22:50.903,0.402293,2.69342,6.24377,0.345663,0.468443,0.379718,0
2024-12-13 15:22:50.906,0.442971,2.70778,6.16242,0.337111,0.449507,0.372388,0
2024-12-13 15:22:50.908,0.474078,2.71256,6.09063,0.327338,0.430571,0.363836,0
2024-12-13 15:22:50.911,0.490828,2.74606,6.02842,0.298017,0.387201,0.341235,0
2024-12-13 15:22:50.913,0.521934,2.76999,5.99013,0.298017,0.387201,0.341235,0
2024-12-13 15:22:50.915,0.562612,2.78196,5.96381,0.285189,0.362767,0.329628,0
2024-12-13 15:22:50.917,0.60329,2.79631,5.94945,0.269307,0.337111,0.315579,0
2024-12-13 15:22:50.920,0.634397,2.80828,5.94228,0.252814,0.310234,0.301529,0
2024-12-13 15:22:50.922,0.655932,2.82742,5.95424,0.237543,0.280913,0.284426,0
2024-12-13 15:22:50.924,0.682254,2.85853,5.97817,0.221661,0.252204,0.267322,0
2024-12-13 15:22:50.927,0.708575,2.89681,6.0332,0.204557,0.225326,0.248997,0
2024-12-13 15:22:50.929,0.722932,2.91356,6.11456,0.189897,0.197227,0.231282,0
2024-12-13 15:22:50.931,0.727717,2.92313,6.20549,0.175848,0.168517,0.212957,0
2024-12-13 15:22:50.934,0.744467,2.95185,6.32034,0.161798,0.144694,0.19341,0
2024-12-13 15:22:50.936,0.768395,2.9686,6.44955,0.153857,0.11965,0.174473,0
2024-12-13 15:22:50.939,0.780359,2.95663,6.57428,0.150803,0.0970484,0.151872,0
2024-12-13 15:22:50.941,0.801895,2.95424,6.7011,0.144694,0.0775012,0.131638,0
2024-12-13 15:22:50.943,0.833001,2.95424,6.83031,0.14164,0.0597867,0.109647,0
2024-12-13 15:22:50.946,0.837787,2.93988,6.95474,0.141029,0.0432938,0.0894891,0
2024-12-13 15:22:50.948,0.818644,2.9327,7.06989,0.14164,0.0322986,0.0681095,0
2024-12-13 15:22:50.950,0.804287,2.93988,7.17996,0.147138,0.0255792,0.0455081,0
2024-12-13 15:22:50.953,0.782752,2.9351,7.29243,0.14897,0.0231358,0.025961,0
2024-12-13 15:22:50.955,0.754038,2.92074,7.39053,0.153857,0.0231358,0.00702474,0
2024-12-13 15:22:50.957,0.718146,2.91835,7.47189,0.159966,0.0243575,-0.0125224,0
2024-12-13 15:22:50.960,0.670289,2.92074,7.55324,0.166074,0.0298552,-0.0290152,0
2024-12-13 15:22:50.962,0.615255,2.91117,7.62772,0.172793,0.0371853,-0.0436756,0
2024-12-13 15:22:50.964,0.567398,2.89203,7.68515,0.180734,0.0457372,-0.0583359,0
2024-12-13 15:22:50.967,0.531506,2.87528,7.74975,0.186843,0.058565,-0.0729962,0
2024-12-13 15:22:50.969,0.476471,2.85374,7.81436,0.195395,0.0713928,-0.0852132,0
2024-12-13 15:22:50.971,0.419043,2.81306,7.8694,0.20639,0.0860531,-0.098041,0
2024-12-13 15:22:50.974,0.354437,2.80588,7.92443,0.212498,0.101935,-0.109647,0
2024-12-13 15:22:50.976,0.272782,2.78674,7.97468,0.22044,0.120261,-0.118199,0
2024-12-13 15:22:50.979,0.200997,2.75324,8.01057,0.230824,0.137364,-0.128583,0
2024-12-13 15:22:50.981,0.119641,2.74846,8.05843,0.239376,0.155079,-0.135303,0
2024-12-13 15:22:50.983,0.00478565,2.74606,8.10389,0.244263,0.171572,-0.141411,0
2024-12-13 15:22:50.986,-0.119641,2.76521,8.14008,0.250371,0.193562,-0.144465,0
2024-12-13 15:22:50.988,-0.263211,2.78913,8.18794,0.258312,0.214942,-0.145687,0
2024-12-13 15:22:50.990,-0.426222,2.83938,8.20469,0.266864,0.239987,-0.142633,0
2024-12-13 15:22:50.993,-0.598505,2.91356,8.18555,0.274194,0.267475,-0.140189,0
2024-12-13 15:22:50.995,-0.782752,2.98295,8.15444,0.279692,0.293741,-0.13347,0
2024-12-13 15:22:50.997,-0.97687,3.04756,8.10389,0.284578,0.320618,-0.124307,0
2024-12-13 15:22:51.000,-1.18505,3.14118,8.03689,0.2858,0.345663,-0.113923,0
2024-12-13 15:22:51.002,-1.40279,3.27039,7.96511,0.282746,0.359713,-0.102317,0
2024-12-13 15:22:51.004,-1.62084,3.4331,7.87179,0.275416,0.37254,-0.085824,0
2024-12-13 15:22:51.007,-1.81944,3.60778,7.77847,0.265642,0.378038,-0.0711637,0
2024-12-13 15:22:51.009,-1.9657,3.7349,7.71625,0.246706,0.369486,-0.0558925,0
2024-12-13 15:22:51.012,-2.11406,3.85215,7.67079,0.224715,0.345663,-0.041843,0
2024-12-13 15:22:51.014,-2.27677,3.97179,7.61815,0.19906,0.312067,-0.0284044,0
2024-12-13 15:22:51.017,-2.39402,4.08425,7.61097,0.125758,0.203336,-0.00274881,0
2024-12-13 15:22:51.019,-2.45384,4.16321,7.66601,0.125758,0.203336,-0.00274881,0
2024-12-13 15:22:51.021,-2.48973,4.20628,7.733,0.0829989,0.137364,0.010079,0
2024-12-13 15:22:51.023,-2.51366,4.24965,7.80479,0.0329094,0.0561216,0.0210742,0
2024-12-13 15:22:51.026,-2.49212,4.28555,7.92922,-0.0196235,-0.0391706,0.0320695,0
2024-12-13 15:22:51.028,-2.40598,4.32862,8.10629,-0.0782648,-0.141182,0.0387888,0
2024-12-13 15:22:51.030,-2.27199,4.36929,8.30758,-0.138739,-0.2548,0.0369563,0
2024-12-13 15:22:51.033,-2.07817,4.37169,8.57079,-0.203488,-0.380634,0.0326803,0
2024-12-13 15:22:51.035,-1.81944,4.33579,8.89891,-0.271293,-0.516853,0.0198525,0
2024-12-13 15:22:51.037,-1.51555,4.26401,9.2677,-0.342151,-0.659181,0.00335966,0
2024-12-13 15:22:51.040,-1.17787,4.17039,9.68884,-0.417896,-0.806395,-0.0192417,0
2024-12-13 15:22:51.042,-0.835394,4.05554,10.1318,-0.494863,-0.950555,-0.0473407,0
2024-12-13 15:22:51.045,-0.486042,3.95025,10.637,-0.57244,-1.08738,-0.0797156,0
2024-12-13 15:22:51.047,-0.150748,3.84736,11.2594,-0.653683,-1.21811,-0.114534,0
2024-12-13 15:22:51.049,0.155533,3.75404,11.9584,-0.726985,-1.32928,-0.155461,0
2024-12-13 15:22:51.052,0.457328,3.68943,12.6936,-0.79601,-1.42335,-0.198831,0
2024-12-13 15:22:51.054,0.785145,3.62931,13.5075,-0.857706,-1.4936,-0.24159,0
2024-12-13 15:22:51.056,1.13958,3.57189,14.3934,-0.91085,-1.53636,-0.287404,0
2024-12-13 15:22:51.059,1.47488,3.48574,15.3102,-0.948722,-1.55407,-0.336271,0
2024-12-13 15:22:51.061,1.77398,3.38764,16.2416,-0.977432,-1.54247,-0.389415,0
2024-12-13 15:22:51.063,2.04467,3.30389,17.1467,-0.990871,-1.50154,-0.439505,0
2024-12-13 15:22:51.066,2.26959,3.18425,18.0443,-0.989038,-1.43618,-0.492648,0
2024-12-13 15:22:51.068,2.26481,3.2345,18.6667,-0.973156,-1.33417,-0.543349,0
2024-12-13 15:22:51.070,2.19302,3.34218,19.1097,-0.9475,-1.1894,-0.582443,0
2024-12-13 15:22:51.073,2.33181,3.25125,19.7752,-0.914515,-1.02935,-0.615429,0
2024-12-13 15:22:51.075,2.49691,3.0332,20.4239,-0.86809,-0.880307,-0.649636,0
2024-12-13 15:22:51.077,2.54746,2.7341,20.8526,-0.81739,-0.730039,-0.686287,0
2024-12-13 15:22:51.080,2.53549,2.40838,21.1208,-0.753862,-0.570608,-0.721105,0
2024-12-13 15:22:51.082,2.49691,2.08056,21.2572,-0.683004,-0.400792,-0.75348,0
2024-12-13 15:22:51.085,2.38684,1.75962,21.2596,-0.60848,-0.223036,-0.78219,1
2024-12-13 15:22:51.089,1.96301,1.1659,20.9889,-0.444773,0.136143,-0.817619,0
2024-12-13 15:22:51.089,1.96301,1.1659,20.9889,-0.444773,0.136143,-0.817619,0
2024-12-13 15:22:51.092,1.62084,0.924228,20.7162,-0.36353,0.303515,-0.821284,0
2024-12-13 15:22:51.094,1.16112,0.751645,20.3306,-0.281066,0.457448,-0.817008,0
2024-12-13 15:22:51.096,0.612862,0.658325,19.8039,-0.204099,0.605273,-0.795018,0
2024-12-13 15:22:51.099,0.0167498,0.684646,19.2006,-0.132019,0.746455,-0.760199,0
2024-12-13 15:22:51.101,-0.567398,0.777966,18.5854,-0.0709346,0.875344,-0.707667,0
2024-12-13 15:22:51.103,-1.1013,0.897907,17.9725,-0.0165692,0.98774,-0.642306,0
2024-12-13 15:22:51.106,-1.56341,1.02233,17.3836,0.0286335,1.07876,-0.564117,0
2024-12-13 15:22:51.108,-1.98485,1.14676,16.8018,0.0652843,1.15206,-0.477988,0
2024-12-13 15:22:51.110,-2.39163,1.24965,16.2224,0.0933833,1.20398,-0.383918,0
2024-12-13 15:22:51.113,-2.71496,1.34297,15.667,0.113541,1.24369,-0.288625,0
2024-12-13 15:22:51.115,-2.9351,1.45095,15.1642,0.126369,1.26812,-0.187836,0
2024-12-13 15:22:51.118,-3.08345,1.53948,14.75,0.135532,1.27728,-0.0882674,0
2024-12-13 15:22:51.120,-3.15075,1.63041,14.3839,0.142251,1.27362,0.00702474,0
2024-12-13 15:22:51.122,-3.15075,1.73091,14.039,0.147749,1.25835,0.0968193,0
2024-12-13 15:22:51.125,-3.10289,1.85055,13.7495,0.153857,1.23513,0.180582,0
2024-12-13 15:22:51.127,-3.01884,1.97288,13.4955,0.160576,1.2052,0.253883,0
2024-12-13 15:22:51.129,-2.8992,2.08535,13.2754,0.167296,1.16611,0.319855,0
2024-12-13 15:22:51.132,-2.72453,2.19541,13.0884,0.174626,1.12029,0.37422,0
2024-12-13 15:22:51.134,-1.98963,1.9992,13.3304,0.1844,1.05982,0.412704,0
2024-12-13 15:22:51.137,-1.41266,1.82901,13.4955,0.214942,0.962084,0.416369,0
2024-12-13 15:22:51.139,-1.65912,2.11645,12.9473,0.240597,0.906497,0.412704,0
2024-12-13 15:22:51.141,-1.75005,2.4323,12.641,0.265031,0.880231,0.412093,0
2024-12-13 15:22:51.143,-1.63759,2.67428,12.7271,0.294352,0.830752,0.407817,0
2024-12-13 15:22:51.146,-1.66391,2.98295,12.6434,0.320618,0.76417,0.401708,0
2024-12-13 15:22:51.148,-1.72373,3.30868,12.4349,0.349328,0.691403,0.392546,0
2024-12-13 15:22:51.151,-1.70219,3.57667,12.2339,0.373228,0.625431,0.387659,0
2024-12-13 15:22:51.153,-1.60409,3.76361,12.0398,0.392775,0.55274,0.377885,0
2024-12-13 15:22:51.155,-1.48445,3.88325,11.8268,0.4111,0.481271,0.364447,0
2024-12-13 15:22:51.158,-1.37647,3.96461,11.5875,0.427593,0.412856,0.350397,0
2024-12-13 15:22:51.160,-1.29751,4.0005,11.3073,0.43981,0.35055,0.334515,0
2024-12-13 15:22:51.162,-1.17787,4.01007,11.0513,0.445919,0.290076,0.315579,0
2024-12-13 15:22:51.165,-1.01994,4.0005,10.8356,0.448973,0.22777,0.29481,0
2024-12-13 15:22:51.167,-0.876371,3.93111,10.6274,0.447751,0.163631,0.270376,0
2024-12-13 15:22:51.169,-0.74686,3.84257,10.4527,0.446529,0.0970484,0.245942,0
2024-12-13 15:22:51.172,-0.648754,3.77318,10.2706,0.442253,0.0310769,0.217233,0
2024-12-13 15:22:51.174,-0.579362,3.69661,10.0744,0.435534,-0.0324513,0.192188,0
2024-12-13 15:22:51.176,-0.519542,3.61256,9.91167,0.426371,-0.0923143,0.1647,0
2024-12-13 15:22:51.179,-0.4334,3.50967,9.80609,0.421485,-0.148512,0.139044,0
2024-12-13 15:22:51.181,-0.371187,3.40917,9.71516,0.407435,-0.202267,0.113923,0
2024-12-13 15:22:51.183,-0.352044,3.31825,9.60509,0.400105,-0.253578,0.0888783,0
2024-12-13 15:22:51.186,-0.325723,3.24168,9.49502,0.38911,-0.300613,0.0662769,0
2024-12-13 15:22:51.188,-0.320937,3.16989,9.38256,0.377504,-0.344594,0.046119,0
2024-12-13 15:22:51.191,-0.34008,3.10289,9.29163,0.364599,-0.382467,0.0271827,0
2024-12-13 15:22:51.200,-0.445364,3.04038,8.97308,0.364599,-0.382467,0.0271827,0
2024-12-13 15:22:51.202,-0.490828,3.07388,8.89173,0.280303,-0.499749,-0.0375671,0
2024-12-13 15:22:51.202,-0.490828,3.07388,8.89173,0.280303,-0.499749,-0.0375671,0
2024-12-13 15:22:51.202,-0.490828,3.07388,8.89173,0.280303,-0.499749,-0.0375671,0
2024-12-13 15:22:51.205,-0.533899,3.09332,8.80559,0.259534,-0.50769,-0.046119,0
2024-12-13 15:22:51.205,-0.533899,3.09332,8.80559,0.259534,-0.50769,-0.046119,0
2024-12-13 15:22:51.207,-0.569791,3.11486,8.74337,0.237543,-0.513799,-0.0522274,0
2024-12-13 15:22:51.209,-0.605683,3.14596,8.69283,0.213109,-0.518075,-0.0601685,0
2024-12-13 15:22:51.212,-0.643968,3.1675,8.64258,0.186232,-0.521129,-0.0681095,0
2024-12-13 15:22:51.214,-0.672682,3.18664,8.61147,0.156301,-0.524794,-0.0766613,0
2024-12-13 15:22:51.216,-0.691825,3.21296,8.58993,0.127591,-0.527238,-0.0846023,0
2024-12-13 15:22:51.219,-0.710967,3.23689,8.57079,0.0970484,-0.527848,-0.0919325,0
2024-12-13 15:22:51.221,-0.718146,3.24885,8.58276,0.0640626,-0.527848,-0.101706,0
2024-12-13 15:22:51.224,-0.708575,3.25364,8.61625,0.0310769,-0.528459,-0.11209,0
2024-12-13 15:22:51.226,-0.71336,3.25603,8.64497,-0.00129805,-0.522351,-0.121253,0
2024-12-13 15:22:51.228,-0.715753,3.23928,8.7027,-0.0312296,-0.516242,-0.131638,0
2024-12-13 15:22:51.231,-0.720539,3.22732,8.7697,-0.0617719,-0.504636,-0.142633,0
2024-12-13 15:22:51.233,-0.708575,3.22253,8.81516,-0.0892601,-0.4857,-0.152406,0
2024-12-13 15:22:51.235,-0.694218,3.21057,8.85584,-0.11797,-0.467985,-0.161569,0
2024-12-13 15:22:51.238,-0.701396,3.20818,8.91087,-0.143625,-0.444773,-0.171953,0
2024-12-13 15:22:51.240,-0.694218,3.19143,8.97308,-0.169281,-0.422783,-0.182338,0
2024-12-13 15:22:51.242,-0.696611,3.1675,9.02573,-0.191882,-0.397738,-0.193333,0
2024-12-13 15:22:51.245,-0.701396,3.13879,9.08315,-0.213262,-0.373915,-0.206161,0
2024-12-13 15:22:51.247,-0.701396,3.1005,9.12623,-0.232809,-0.345205,-0.215935,0
2024-12-13 15:22:51.249,-0.696611,3.06431,9.15973,-0.250524,-0.317717,-0.225708,0
2024-12-13 15:22:51.252,-0.706182,3.01645,9.20758,-0.272514,-0.292061,-0.236092,0
2024-12-13 15:22:51.254,-0.732503,2.97577,9.24347,-0.285953,-0.265184,-0.242201,0
2024-12-13 15:22:51.256,-0.751645,2.94227,9.27249,-0.302446,-0.239528,-0.251364,0
2024-12-13 15:22:51.259,-0.785145,2.92074,9.31556,-0.315274,-0.216927,-0.256861,0
2024-12-13 15:22:51.261,-0.825823,2.89681,9.35863,-0.323215,-0.196158,-0.263581,0
2024-12-13 15:22:51.264,-0.859622,2.85374,9.41606,-0.332988,-0.176611,-0.266635,0
2024-12-13 15:22:51.266,-0.905085,2.79631,9.46631,-0.340318,-0.159507,-0.269689,0
2024-12-13 15:22:51.268,-0.950549,2.76281,9.51895,-0.343983,-0.146069,-0.268467,0
2024-12-13 15:22:51.271,-0.981655,2.73171,9.58834,-0.343983,-0.132019,-0.2703,0
2024-12-13 15:22:51.273,-1.02473,2.69342,9.64816,-0.342151,-0.121635,-0.270911,0
2024-12-13 15:22:51.275,-1.05583,2.66231,9.70319,-0.335431,-0.111861,-0.268467,0
2024-12-13 15:22:51.280,-1.11805,2.6001,9.80369,-0.313441,-0.0996445,-0.266635,0
2024-12-13 15:22:51.282,-1.14197,2.56421,9.84467,-0.300002,-0.0929251,-0.261748,0
2024-12-13 15:22:51.282,-1.14197,2.56421,9.84467,-0.300002,-0.0929251,-0.261748,0
2024-12-13 15:22:51.285,-1.15633,2.53071,9.89492,-0.287785,-0.0874275,-0.258694,0
2024-12-13 15:22:51.287,-1.1683,2.50648,9.93081,-0.266406,-0.0843733,-0.256861,0
2024-12-13 15:22:51.289,-1.18983,2.48255,9.94995,-0.246859,-0.0800973,-0.251974,0
2024-12-13 15:22:51.292,-1.21615,2.45863,9.9667,-0.225479,-0.0739889,-0.246477,0
2024-12-13 15:22:51.294,-1.24008,2.43709,9.9667,-0.200434,-0.0684913,-0.24159,0
2024-12-13 15:22:51.297,-1.2664,2.4347,9.95474,-0.172946,-0.0611611,-0.237314,0
2024-12-13 15:22:51.299,-1.28554,2.4323,9.9332,-0.147901,-0.0544418,-0.229984,0
2024-12-13 15:22:51.301,-1.31904,2.42034,9.88774,-0.121024,-0.0507767,-0.220821,0
2024-12-13 15:22:51.304,-1.34776,2.40838,9.82553,-0.0947577,-0.0446682,-0.211048,0
2024-12-13 15:22:51.306,-1.36451,2.40359,9.77019,-0.0666587,-0.0367272,-0.201885,0
2024-12-13 15:22:51.308,-1.36929,2.39641,9.72473,-0.0391706,-0.0318404,-0.192111,0
2024-12-13 15:22:51.311,-1.38126,2.37966,9.65055,-0.0116825,-0.0281753,-0.181727,0
2024-12-13 15:22:51.313,-1.39083,2.38923,9.57159,0.014584,-0.0232886,-0.171343,0
2024-12-13 15:22:51.315,-1.39322,2.3988,9.48306,0.0390179,-0.0202343,-0.160347,0
2024-12-13 15:22:51.318,-1.4004,2.38923,9.38495,0.0658951,-0.0184018,-0.148741,0
2024-12-13 15:22:51.320,-1.40788,2.37727,9.27249,0.0897182,-0.0165692,-0.138357,0
2024-12-13 15:22:51.322,-1.40279,2.37966,9.15973,0.110487,-0.0165692,-0.129805,0
2024-12-13 15:22:51.325,-1.38365,2.38923,9.06162,0.133699,-0.0147367,-0.119421,0
2024-12-13 15:22:51.327,-1.37886,2.40598,8.94676,0.152025,-0.013515,-0.108425,0
2024-12-13 15:22:51.330,-1.37169,2.42513,8.81755,0.169128,-0.0147367,-0.0992627,0
2024-12-13 15:22:51.332,-1.34776,2.44666,8.69522,0.185621,-0.0122933,-0.0937651,0
2024-12-13 15:22:51.334,-1.33101,2.46341,8.57797,0.202114,-0.00862822,-0.0852132,0
2024-12-13 15:22:51.337,-1.31186,2.48016,8.47269,0.214331,-0.00984991,-0.0766613,0
2024-12-13 15:22:51.339,-1.28794,2.50887,8.36979,0.226548,-0.0116825,-0.0711637,0
2024-12-13 15:22:51.341,-1.2664,2.5331,8.25972,0.236932,-0.0110716,-0.0668878,0
2024-12-13 15:22:51.344,-1.24247,2.55942,8.15683,0.247928,-0.013515,-0.062001,0
2024-12-13 15:22:51.346,-1.2018,2.59053,8.05364,0.255869,-0.0141258,-0.0601685,0
2024-12-13 15:22:51.348,-1.17069,2.61207,7.94357,0.265031,-0.013515,-0.0595576,0
2024-12-13 15:22:51.351,-1.1348,2.63121,7.82872,0.267475,-0.0171801,-0.0595576,0
2024-12-13 15:22:51.353,-1.09173,2.62642,7.74018,0.273583,-0.0177909,-0.062001,0
2024-12-13 15:22:51.355,-1.0678,2.62403,7.64686,0.275416,-0.0177909,-0.0638335,0
2024-12-13 15:22:51.358,-1.03669,2.65035,7.53171,0.275416,-0.0202343,-0.0668878,0
2024-12-13 15:22:51.360,-0.998405,2.66471,7.41925,0.274194,-0.0208452,-0.0705529,0
2024-12-13 15:22:51.362,-0.974477,2.69103,7.32353,0.27114,-0.0257319,-0.0754396,0
2024-12-13 15:22:51.365,-0.950549,2.71256,7.21586,0.267475,-0.0251211,-0.082159,0
2024-12-13 15:22:51.367,-0.907478,2.71256,7.10818,0.257701,-0.029397,-0.0901,0
2024-12-13 15:22:51.371,-0.869193,2.71256,7.01217,0.236322,-0.0422248,-0.110258,0
2024-12-13 15:22:51.372,-0.835394,2.71017,6.92602,0.236322,-0.0422248,-0.110258,0
2024-12-13 15:22:51.374,-0.792323,2.71735,6.8351,0.22044,-0.0489441,-0.121864,0
2024-12-13 15:22:51.377,-0.777966,2.71256,6.75374,0.203336,-0.0568851,-0.135303,0
2024-12-13 15:22:51.379,-0.780359,2.71017,6.70589,0.181956,-0.0642153,-0.146909,0
2024-12-13 15:22:51.381,-0.766002,2.71974,6.66042,0.162409,-0.0709346,-0.159737,0
2024-12-13 15:22:51.384,-0.737288,2.72692,6.62692,0.139808,-0.077654,-0.171953,0
2024-12-13 15:22:51.386,-0.715753,2.71496,6.61735,0.115985,-0.0849841,-0.182338,0
2024-12-13 15:22:51.388,-0.682254,2.70299,6.63171,0.0939941,-0.093536,-0.195777,0
2024-12-13 15:22:51.391,-0.65354,2.69103,6.66521,0.0732253,-0.102088,-0.207993,0
2024-12-13 15:22:51.393,-0.634397,2.67189,6.71306,0.0500131,-0.112472,-0.22021,0
2024-12-13 15:22:51.395,-0.598505,2.64556,6.77049,0.0255792,-0.122246,-0.236092,0
2024-12-13 15:22:51.398,-0.553041,2.61207,6.85185,0.00664296,-0.133852,-0.250753,0
2024-12-13 15:22:51.400,-0.505185,2.59532,6.95474,-0.0104608,-0.143015,-0.263581,0
2024-12-13 15:22:51.403,-0.471685,2.56421,7.07707,-0.0281753,-0.155842,-0.27763,0
2024-12-13 15:22:51.405,-0.442971,2.51366,7.21107,-0.0422248,-0.168059,-0.29229,0
2024-12-13 15:22:51.407,-0.4334,2.47059,7.3331,-0.0538309,-0.179055,-0.306951,0
2024-12-13 15:22:51.410,-0.440578,2.4347,7.45035,-0.0629936,-0.186996,-0.321,0
2024-12-13 15:22:51.412,-0.447757,2.38206,7.57986,-0.0697129,-0.193104,-0.334439,0
2024-12-13 15:22:51.414,-0.471685,2.34856,7.70429,-0.0758214,-0.198602,-0.346045,0
2024-12-13 15:22:51.417,-0.490828,2.31266,7.82632,-0.0782648,-0.204099,-0.356429,0
2024-12-13 15:22:51.419,-0.512363,2.27677,7.94836,-0.0758214,-0.207154,-0.365592,0
2024-12-13 15:22:51.421,-0.529113,2.24806,8.06321,-0.0758214,-0.208375,-0.372311,0
2024-12-13 15:22:51.424,-0.54347,2.21216,8.17598,-0.0691021,-0.209597,-0.380863,0
2024-12-13 15:22:51.426,-0.572184,2.18106,8.27169,-0.0629936,-0.209597,-0.386972,0
2024-12-13 15:22:51.428,-0.591326,2.14277,8.36022,-0.0562743,-0.209597,-0.390026,0
2024-12-13 15:22:51.431,-0.612862,2.10209,8.45115,-0.0458899,-0.206543,-0.39308,0
2024-12-13 15:22:51.433,-0.63679,2.0662,8.54208,-0.0306187,-0.202878,-0.396134,0
2024-12-13 15:22:51.436,-0.646361,2.04227,8.61625,-0.013515,-0.199213,-0.396134,0
2024-12-13 15:22:51.438,-0.651147,2.00877,8.69283,0.00175619,-0.191272,-0.394913,0
2024-12-13 15:22:51.440,-0.675075,1.97528,8.74816,0.022525,-0.180887,-0.393691,0
2024-12-13 15:22:51.443,-0.696611,1.95823,8.78405,0.0432938,-0.171724,-0.391859,0
2024-12-13 15:22:51.445,-0.715753,1.96062,8.81277,0.0658951,-0.16134,-0.388804,0
2024-12-13 15:22:51.447,-0.744467,1.95344,8.81994,0.090329,-0.147901,-0.385139,0
2024-12-13 15:22:51.450,-0.785145,1.94148,8.78405,0.113541,-0.13996,-0.382085,0
2024-12-13 15:22:51.452,-0.82343,1.94626,8.72184,0.133699,-0.129576,-0.376587,0
2024-12-13 15:22:51.454,-0.859622,1.93908,8.66411,0.155079,-0.118581,-0.370479,0
2024-12-13 15:22:51.457,-0.9003,1.90798,8.58993,0.179513,-0.10392,-0.360094,0
2024-12-13 15:22:51.459,-0.917049,1.88166,8.50858,0.201503,-0.0917034,-0.347878,0
2024-12-13 15:22:51.461,-0.936192,1.89601,8.4009,0.219829,-0.0807082,-0.338104,0
2024-12-13 15:22:51.464,-0.96012,1.91037,8.26451,0.236932,-0.0697129,-0.328941,0
2024-12-13 15:22:51.466,-0.967299,1.92951,8.135,0.254036,-0.0593285,-0.317946,0
2024-12-13 15:22:51.468,-0.962513,1.94626,8.00579,0.266253,-0.0513875,-0.308172,0
2024-12-13 15:22:51.471,-0.948156,1.9657,7.867,0.273583,-0.0465007,-0.297788,0
2024-12-13 15:22:51.473,-0.94337,2.0016,7.75454,0.280913,-0.041614,-0.288625,0
2024-12-13 15:22:51.476,-0.914656,2.02792,7.64926,0.285189,-0.0391706,-0.283128,0
2024-12-13 15:22:51.478,-0.862014,2.04227,7.53649,0.290687,-0.0391706,-0.278852,0
2024-12-13 15:22:51.480,-0.809073,2.08774,7.43121,0.291298,-0.0410031,-0.275798,0
2024-12-13 15:22:51.483,-0.773181,2.13081,7.33789,0.291909,-0.0403923,-0.274576,0
2024-12-13 15:22:51.485,-0.739681,2.15952,7.26132,0.291298,-0.0403923,-0.276408,0
2024-12-13 15:22:51.487,-0.687039,2.19063,7.19911,0.287022,-0.0428357,-0.278852,0
2024-12-13 15:22:51.490,-0.65354,2.21456,7.12254,0.283968,-0.0446682,-0.28496,0
2024-12-13 15:22:51.492,-0.622433,2.24566,7.06032,0.279081,-0.0465007,-0.289847,0
2024-12-13 15:22:51.494,-0.584148,2.25284,7.00977,0.272972,-0.0471116,-0.298399,0
2024-12-13 15:22:51.497,-0.557827,2.26241,6.95474,0.265031,-0.0471116,-0.30634,0
2024-12-13 15:22:51.499,-0.531506,2.28156,6.90928,0.259534,-0.0483333,-0.313059,0
2024-12-13 15:22:51.501,-0.507577,2.3007,6.84945,0.252204,-0.0483333,-0.322833,0
2024-12-13 15:22:51.504,-0.486042,2.31027,6.80638,0.24243,-0.0483333,-0.332606,0
2024-12-13 15:22:51.506,-0.481256,2.31984,6.78006,0.233267,-0.0489441,-0.344823,0
2024-12-13 15:22:51.509,-0.462114,2.32463,6.75374,0.222883,-0.0483333,-0.353986,0
2024-12-13 15:22:51.513,-0.428614,2.31506,6.71067,0.203336,-0.0446682,-0.375366,0
2024-12-13 15:22:51.516,-0.445364,2.31506,6.70589,0.19173,-0.0410031,-0.384528,0
2024-12-13 15:22:51.517,-0.445364,2.31506,6.70589,0.176459,-0.0379489,-0.393691,0
2024-12-13 15:22:51.518,-0.457328,2.3342,6.70349,0.176459,-0.0379489,-0.393691,0
2024-12-13 15:22:51.520,-0.464507,2.35334,6.71546,0.169739,-0.029397,-0.402243,0
2024-12-13 15:22:51.523,-0.502792,2.35095,6.72503,0.156911,-0.0220669,-0.410795,0
2024-12-13 15:22:51.525,-0.545863,2.35813,6.73699,0.14836,-0.0147367,-0.418736,0
2024-12-13 15:22:51.527,-0.588933,2.39641,6.75853,0.139808,0.000534491,-0.424233,0
2024-12-13 15:22:51.530,-0.65354,2.42752,6.75853,0.135532,0.0164165,-0.428509,0
2024-12-13 15:22:51.532,-0.71336,2.45623,6.75135,0.127591,0.030466,-0.430342,0
2024-12-13 15:22:51.534,-0.758824,2.48973,6.73939,0.120261,0.0457372,-0.432785,0
2024-12-13 15:22:51.537,-0.818644,2.51845,6.72981,0.113541,0.0597867,-0.434007,0
2024-12-13 15:22:51.539,-0.885943,2.55224,6.71067,0.108654,0.0720036,-0.43645,0
2024-12-13 15:22:51.542,-0.957727,2.58574,6.68674,0.103768,0.0842206,-0.435229,0
2024-12-13 15:22:51.544,-1.02951,2.61207,6.65803,0.0964375,0.0939941,-0.435229,0
2024-12-13 15:22:51.546,-1.09173,2.64556,6.6341,0.0921616,0.102546,-0.432785,0
2024-12-13 15:22:51.549,-1.1348,2.67667,6.60299,0.0848314,0.109876,-0.431564,0
2024-12-13 15:22:51.551,-1.18265,2.69821,6.57428,0.0793338,0.114763,-0.427898,0
2024-12-13 15:22:51.553,-1.2329,2.71735,6.55514,0.0701711,0.115985,-0.424844,0
2024-12-13 15:22:51.556,-1.25204,2.73649,6.53839,0.0628409,0.116595,-0.420568,0
2024-12-13 15:22:51.558,-1.26401,2.76281,6.5336,0.0524565,0.11293,-0.417514,0
2024-12-13 15:22:51.560,-1.29751,2.77956,6.50728,0.0420721,0.107433,-0.410795,0
2024-12-13 15:22:51.563,-1.31904,2.79631,6.49532,0.0316877,0.100713,-0.404686,0
2024-12-13 15:22:51.565,-1.31426,2.81067,6.51207,0.0213033,0.0909399,-0.401021,0
2024-12-13 15:22:51.567,-1.31904,2.82503,6.52403,0.00786466,0.0781121,-0.396134,0
2024-12-13 15:22:51.570,-1.31904,2.85374,6.55514,-0.00251974,0.0634518,-0.391859,0
2024-12-13 15:22:51.572,-1.30947,2.88245,6.60778,-0.0165692,0.0457372,-0.38575,0
2024-12-13 15:22:51.574,-1.31186,2.92313,6.67478,-0.0281753,0.0280226,-0.384528,0
2024-12-13 15:22:51.577,-1.30469,2.96381,6.74178,-0.037338,0.010308,-0.380252,0
2024-12-13 15:22:51.579,-1.29512,2.99731,6.79921,-0.0489441,-0.00984991,-0.379031,0
2024-12-13 15:22:51.582,-1.28315,3.03799,6.87578,-0.0599394,-0.0318404,-0.379642,0
2024-12-13 15:22:51.584,-1.27837,3.08106,6.97388,-0.0691021,-0.0507767,-0.379031,0
2024-12-13 15:22:51.586,-1.27837,3.11964,7.0675,-0.0727672,-0.0721563,-0.380252,0
2024-12-13 15:22:51.589,-1.28315,3.15314,7.16321,-0.0825407,-0.0929251,-0.383307,0
2024-12-13 15:22:51.591,-1.28794,3.18186,7.25893,-0.0874275,-0.112472,-0.386361,0
2024-12-13 15:22:51.593,-1.28554,3.18903,7.36182,-0.0923143,-0.134463,-0.388193,0
2024-12-13 15:22:51.596,-1.27597,3.20818,7.47428,-0.0959794,-0.152177,-0.392469,0
2024-12-13 15:22:51.598,-1.27119,3.21775,7.57747,-0.0965902,-0.171724,-0.395524,0
2024-12-13 15:22:51.600,-1.25444,3.20578,7.67318,-0.0965902,-0.193104,-0.3998,0
2024-12-13 15:22:51.603,-1.23769,3.21296,7.75933,-0.100866,-0.213262,-0.402243,0
2024-12-13 15:22:51.605,-1.24008,3.21057,7.84547,-0.102699,-0.232809,-0.405297,0
2024-12-13 15:22:51.607,-1.22094,3.18664,7.92682,-0.106975,-0.2548,-0.407741,0
2024-12-13 15:22:51.610,-1.20419,3.15793,8.00818,-0.11064,-0.27679,-0.412016,0
2024-12-13 15:22:51.612,-1.21376,3.11725,8.09193,-0.117359,-0.299392,-0.412627,0
2024-12-13 15:22:51.617,-1.25444,3.05952,8.3028,-0.134463,-0.342151,-0.413849,0
2024-12-13 15:22:51.617,-1.25444,3.05952,8.3028,-0.134463,-0.342151,-0.413849,0
2024-12-13 15:22:51.619,-1.29272,3.04756,8.45354,-0.141793,-0.361087,-0.410184,0
2024-12-13 15:22:51.622,-1.35494,3.06192,8.64497,-0.147901,-0.378191,-0.406519,0
2024-12-13 15:22:51.624,-1.42702,3.09332,8.8678,-0.152788,-0.395295,-0.3998,0
2024-12-13 15:22:51.626,-1.47248,3.12204,9.11665,-0.153399,-0.409955,-0.390026,0
2024-12-13 15:22:51.629,-1.51795,3.134,9.3682,-0.149734,-0.419118,-0.380252,0
2024-12-13 15:22:51.631,-1.55862,3.14836,9.6362,-0.141793,-0.424615,-0.367425,0
2024-12-13 15:22:51.633,-1.58973,3.17228,9.89731,-0.128354,-0.420339,-0.356429,0
2024-12-13 15:22:51.636,-1.61845,3.201,10.1198,-0.112472,-0.408122,-0.340547,0
2024-12-13 15:22:51.638,-1.67587,3.22493,10.3232,-0.0923143,-0.387964,-0.324665,0
2024-12-13 15:22:51.640,-1.76919,3.27996,10.4862,-0.0678804,-0.36292,-0.309394,0
2024-12-13 15:22:51.643,-1.88166,3.3685,10.6035,-0.0422248,-0.331156,-0.289236,0
2024-12-13 15:22:51.645,-2.02074,3.45703,10.6825,-0.0159584,-0.299392,-0.265413,0
2024-12-13 15:22:51.647,-2.18106,3.58146,10.7088,0.0115297,-0.263962,-0.240979,0
2024-12-13 15:22:51.650,-2.32463,3.71575,10.6849,0.0353528,-0.229144,-0.214102,0
2024-12-13 15:22:51.652,-2.46102,3.84736,10.6107,0.0530674,-0.196769,-0.184781,0
2024-12-13 15:22:51.655,-2.60728,4.01007,10.491,0.0658951,-0.168059,-0.153628,0
2024-12-13 15:22:51.657,-2.7341,4.18235,10.3352,0.0732253,-0.144847,-0.123697,0
2024-12-13 15:22:51.659,-2.84178,4.32862,10.1462,0.0750579,-0.128965,-0.0937651,0
2024-12-13 15:22:51.662,-2.90399,4.45304,9.9691,0.066506,-0.122857,-0.0632227,0
2024-12-13 15:22:51.664,-2.92792,4.57268,9.81566,0.0475697,-0.126522,-0.0351237,0
2024-12-13 15:22:51.666,-2.90878,4.66122,9.71277,0.0219141,-0.141182,-0.0113007,0
2024-12-13 15:22:51.669,-2.82263,4.69233,9.65055,-0.0116825,-0.161951,0.00885729,0
2024-12-13 15:22:51.671,-2.69342,4.67797,9.5692,-0.0526092,-0.187606,0.0247393,0
2024-12-13 15:22:51.673,-2.55703,4.69472,9.49502,-0.0990336,-0.221203,0.038178,0
2024-12-13 15:22:51.676,-2.42034,4.74497,9.45434,-0.153399,-0.263962,0.0455081,0
2024-12-13 15:22:51.678,-2.26002,4.77637,9.4687,-0.215095,-0.315274,0.0503949,0
2024-12-13 15:22:51.680,-2.06381,4.78594,9.54766,-0.285342,-0.376969,0.0467298,0
2024-12-13 15:22:51.683,-1.81944,4.77159,9.6673,-0.36292,-0.446606,0.0400105,0
2024-12-13 15:22:51.685,-1.52991,4.72343,9.84228,-0.441108,-0.522962,0.0277936,0
2024-12-13 15:22:51.688,-1.21854,4.63968,10.084,-0.531513,-0.604204,0.0106898,0
2024-12-13 15:22:51.690,-0.890728,4.51286,10.3905,-0.623141,-0.684836,-0.00946813,0
2024-12-13 15:22:51.692,-0.555434,4.35254,10.7758,-0.711103,-0.757527,-0.0326803,0
2024-12-13 15:22:51.695,-0.224925,4.20628,11.2187,-0.800897,-0.819833,-0.0589468,0
2024-12-13 15:22:51.697,0.102891,4.08186,11.6952,-0.888248,-0.871755,-0.0901,0
2024-12-13 15:22:51.699,0.395115,3.97657,12.2076,-0.971934,-0.907795,-0.122475,0
2024-12-13 15:22:51.702,0.622433,3.87607,12.7869,-1.05134,-0.926121,-0.15485,0
2024-12-13 15:22:51.704,0.792323,3.77557,13.4477,-1.12159,-0.929786,-0.187836,0
2024-12-13 15:22:51.706,0.938585,3.69422,14.1538,-1.18023,-0.916347,-0.220821,0
2024-12-13 15:22:51.711,1.17787,3.55753,15.588,-1.2627,-0.837548,-0.280684,0
2024-12-13 15:22:51.711,1.17787,3.55753,15.588,-1.2627,-0.837548,-0.280684,0
2024-12-13 15:22:51.713,1.26162,3.48335,16.3325,-1.28286,-0.769133,-0.309394,0
2024-12-13 15:22:51.716,1.30229,3.3996,17.0554,-1.28713,-0.681782,-0.336271,0
2024-12-13 15:22:51.718,1.2664,3.32064,17.7189,-1.27247,-0.574884,-0.358873,0
2024-12-13 15:22:51.721,1.02712,3.36132,18.1735,-1.24254,-0.445384,-0.377198,0
2024-12-13 15:22:51.723,0.710967,3.45464,18.449,-1.20589,-0.289007,-0.383307,0
2024-12-13 15:22:51.725,0.605683,3.40917,18.8632,-1.15946,-0.127743,-0.37842,1
2024-12-13 15:22:51.728,0.572184,3.24407,19.2915,-1.09899,0.014584,-0.371701,0
2024-12-13 15:22:51.730,0.457328,3.03081,19.4833,-1.03363,0.151414,-0.36376,0
2024-12-13 15:22:51.732,0.299402,2.77478,19.5168,-0.960328,0.290076,-0.353375,0
2024-12-13 15:22:51.735,0.100499,2.50887,19.4474,-0.960328,0.290076,-0.353375,0
2024-12-13 15:22:51.737,-0.105284,2.27677,19.2867,-0.80273,0.565568,-0.319168,0
2024-12-13 15:22:51.739,-0.34008,2.07817,19.1001,-0.717211,0.690181,-0.296566,0
2024-12-13 15:22:51.744,-0.964906,1.91994,18.5997,-0.54373,0.898556,-0.230595,0
2024-12-13 15:22:51.744,-0.964906,1.91994,18.5997,-0.54373,0.898556,-0.230595,0
2024-12-13 15:22:51.746,-1.4342,1.9992,18.1783,-0.460044,0.981021,-0.186003,0
2024-12-13 15:22:51.749,-1.97528,2.13559,17.6806,-0.380634,1.0476,-0.129194,0
2024-12-13 15:22:51.751,-2.48973,2.29352,17.1873,-0.309165,1.09586,-0.0632227,0
2024-12-13 15:22:51.753,-2.92313,2.42513,16.6199,-0.254189,1.11113,0.0137441,0
2024-12-13 15:22:51.756,-3.27757,2.55703,16.0502,-0.214484,1.09891,0.0962084,0
2024-12-13 15:22:51.758,-3.55753,2.71256,15.6024,-0.173557,1.09097,0.182414,0
2024-12-13 15:22:51.761,-3.74686,2.87049,15.2336,-0.137517,1.07998,0.271598,0
2024-12-13 15:22:51.763,-3.85693,3.01406,14.9345,-0.10331,1.06226,0.357117,0
2024-12-13 15:22:51.765,-3.88804,3.12204,14.6973,-0.0721563,1.02317,0.435916,0
2024-12-13 15:22:51.768,-3.85932,3.21775,14.4867,-0.0471116,0.95903,0.507385,0
2024-12-13 15:22:51.770,-3.7684,3.3015,14.2711,-0.0257319,0.875955,0.569691,0
2024-12-13 15:22:51.772,-3.63171,3.39003,14.0414,-0.0104608,0.776998,0.623446,0
2024-12-13 15:22:51.775,-3.44267,3.49053,13.8021,0.00297788,0.669412,0.665594,0
2024-12-13 15:22:51.777,-3.21057,3.59821,13.5721,0.0096972,0.555795,0.695526,0
2024-12-13 15:22:51.779,-2.94227,3.72054,13.3831,0.00908635,0.433014,0.717516,0
2024-12-13 15:22:51.784,-2.38684,3.96222,13.0645,-0.00618483,0.181956,0.729733,0
2024-12-13 15:22:51.784,-2.38684,3.96222,13.0645,-0.00618483,0.181956,0.729733,0
2024-12-13 15:22:51.786,-2.11167,4.05793,12.964,-0.0245102,0.058565,0.725457,0
2024-12-13 15:22:51.789,-1.79551,4.12493,12.9377,-0.0465007,-0.0599394,0.71263,0
2024-12-13 15:22:51.791,-1.44855,4.14168,12.9808,-0.073378,-0.174779,0.693083,0
2024-12-13 15:22:51.794,-1.09651,4.09861,13.0765,-0.0990336,-0.27679,0.666816,0
2024-12-13 15:22:51.796,-0.751645,3.99332,13.1988,-0.124689,-0.365363,0.638106,0
2024-12-13 15:22:51.799,-0.442971,3.85215,13.3759,-0.169281,-0.483257,0.572746,0
2024-12-13 15:22:51.801,-0.184247,3.68226,13.5864,-0.169281,-0.483257,0.572746,0
2024-12-13 15:22:51.803,0.0215354,3.49771,13.7758,-0.185163,-0.513188,0.53976,0
2024-12-13 15:22:51.805,0.174676,3.335,13.9744,-0.19738,-0.525405,0.508607,0
2024-12-13 15:22:51.808,0.27996,3.201,14.185,-0.205932,-0.522962,0.481119,0
2024-12-13 15:22:51.810,0.35683,3.06909,14.3958,-0.210208,-0.50708,0.458517,0
2024-12-13 15:22:51.812,0.423829,2.92074,14.5968,-0.208375,-0.482646,0.435916,0
2024-12-13 15:22:51.817,0.517149,2.67667,14.8528,-0.191272,-0.395295,0.404763,0
2024-12-13 15:22:51.817,0.517149,2.67667,14.8528,-0.191272,-0.395295,0.404763,0
2024-12-13 15:22:51.819,0.533899,2.55224,14.8962,-0.174779,-0.334821,0.3956,0
2024-12-13 15:22:51.822,0.531506,2.4323,14.913,-0.15401,-0.264573,0.391324,0
2024-12-13 15:22:51.824,0.512363,2.32223,14.913,-0.132019,-0.186385,0.391324,0
2024-12-13 15:22:51.827,0.488435,2.2337,14.8624,-0.10331,-0.105753,0.393767,0
2024-12-13 15:22:51.829,0.452543,2.14277,14.7643,-0.0770431,-0.0251211,0.401708,0
2024-12-13 15:22:51.831,0.402293,2.04467,14.6375,-0.0489441,0.0555107,0.412093,0
2024-12-13 15:22:51.834,0.332901,1.9681,14.4628,-0.0196235,0.132477,0.427975,0
2024-12-13 15:22:51.836,0.248854,1.91276,14.2567,0.00725381,0.207001,0.447522,0
2024-12-13 15:22:51.839,0.155533,1.87926,14.0438,0.0658951,0.342609,0.494557,0
2024-12-13 15:22:51.841,0.066999,1.86012,13.8165,0.0658951,0.342609,0.494557,0
2024-12-13 15:22:51.843,-0.00478565,1.86012,13.5841,0.090329,0.399418,0.522045,0
2024-12-13 15:22:51.845,-0.0885344,1.88166,13.3448,0.116595,0.455005,0.550755,0
2024-12-13 15:22:51.848,-0.148355,1.91516,13.0837,0.142862,0.498986,0.581298,0
2024-12-13 15:22:51.850,-0.184247,1.95583,12.8204,0.17035,0.538691,0.61184,0
2024-12-13 15:22:51.855,-0.239282,2.0327,12.3488,0.217385,0.599776,0.671092,0
2024-12-13 15:22:51.857,-0.229711,2.07338,12.1406,0.244263,0.620544,0.696748,0
2024-12-13 15:22:51.857,-0.229711,2.07338,12.1406,0.244263,0.620544,0.696748,0
2024-12-13 15:22:51.862,-0.165105,2.16192,11.7239,0.291909,0.648033,0.742561,0
2024-12-13 15:22:51.864,-0.0981057,2.18584,11.4987,0.317564,0.655974,0.760887,0
2024-12-13 15:22:51.867,-0.0454636,2.21216,11.2762,0.344442,0.66086,0.775547,0
2024-12-13 15:22:51.869,0.00717847,2.25284,11.068,0.370173,0.661471,0.787764,0
2024-12-13 15:22:51.871,0.0693919,2.28634,10.8547,0.370173,0.661471,0.787764,0
2024-12-13 15:22:51.877,0.145962,2.37488,10.4551,0.467298,0.616269,0.810976,0
2024-12-13 15:22:51.878,0.184247,2.41077,10.2682,0.467298,0.616269,0.810976,0
2024-12-13 15:22:51.878,0.184247,2.41077,10.2682,0.467298,0.616269,0.810976,0
2024-12-13 15:22:51.878,0.184247,2.41077,10.2682,0.467298,0.616269,0.810976,0
2024-12-13 15:22:51.881,0.217747,2.44427,10.0792,0.4899,0.600997,0.808533,0
2024-12-13 15:22:51.883,0.248854,2.48973,9.89492,0.51189,0.586337,0.806089,0
2024-12-13 15:22:51.885,0.260818,2.53549,9.70319,0.535102,0.569233,0.804257,0
2024-12-13 15:22:51.888,0.265603,2.57378,9.51655,0.561979,0.555795,0.798759,0
2024-12-13 15:22:51.890,0.282652,2.6001,9.3347,0.58397,0.541134,0.794483,0
2024-12-13 15:22:51.892,0.316152,2.61207,9.16212,0.607793,0.52342,0.787153,0
2024-12-13 15:22:51.895,0.330509,2.63121,8.98744,0.629784,0.505705,0.77738,0
2024-12-13 15:22:51.900,0.677468,2.37488,9.5668,0.651774,0.483104,0.766995,0
2024-12-13 15:22:51.900,1.2329,1.94865,9.5668,0.651774,0.483104,0.766995,0
2024-12-13 15:22:51.902,1.01994,1.98006,9.2339,0.688425,0.363989,0.696137,0
2024-12-13 15:22:51.905,0.493221,2.26959,8.39372,0.795934,0.40125,0.664373,0
2024-12-13 15:22:51.907,0.397508,2.40838,8.2334,0.795934,0.40125,0.664373,0
2024-12-13 15:22:51.909,0.32333,2.52084,8.23819,0.827698,0.396364,0.655821,0
2024-12-13 15:22:51.914,-0.124427,2.82742,7.66601,0.872901,0.365821,0.661319,0
2024-12-13 15:22:51.916,-0.232104,2.91117,7.36182,0.884507,0.348717,0.672925,0
2024-12-13 15:22:51.916,-0.232104,2.91117,7.36182,0.884507,0.348717,0.672925,0
2024-12-13 15:22:51.918,-0.27996,2.9327,7.05554,0.888172,0.326727,0.685752,0
2024-12-13 15:22:51.921,-0.258425,2.91595,6.76571,0.887561,0.309012,0.699802,0
2024-12-13 15:22:51.923,-0.160319,2.85374,6.52164,0.884507,0.291298,0.707743,0
2024-12-13 15:22:51.925,-0.026321,2.77238,6.32513,0.877177,0.270529,0.71263,0
2024-12-13 15:22:51.928,0.0957129,2.71974,6.12413,0.864349,0.255258,0.713241,0
2024-12-13 15:22:51.930,0.224925,2.65753,5.95903,0.850299,0.236932,0.707743,0
2024-12-13 15:22:51.933,0.344866,2.57617,5.8343,0.83625,0.215553,0.696748,0
2024-12-13 15:22:51.937,0.457328,2.52592,5.64048,0.803264,0.169739,0.66926,0
2024-12-13 15:22:51.937,0.457328,2.52592,5.64048,0.803264,0.169739,0.66926,0
2024-12-13 15:22:51.940,0.486042,2.52592,5.5687,0.78616,0.147138,0.651545,0
2024-12-13 15:22:51.942,0.505185,2.54746,5.49213,0.767224,0.125758,0.63383,0
2024-12-13 15:22:51.944,0.512363,2.58335,5.41795,0.748899,0.106822,0.616116,0
2024-12-13 15:22:51.947,0.490828,2.65035,5.34377,0.729962,0.0927724,0.599623,0
2024-12-13 15:22:51.949,0.45015,2.71735,5.27408,0.710415,0.0842206,0.581298,0
2024-12-13 15:22:51.951,0.423829,2.75803,5.1999,0.710415,0.0842206,0.581298,0
2024-12-13 15:22:51.954,0.390329,2.79153,5.13051,0.67071,0.0768904,0.55442,0
2024-12-13 15:22:51.956,0.352044,2.82503,5.08744,0.650552,0.0799446,0.541592,0
2024-12-13 15:22:51.958,0.344866,2.84895,5.04915,0.630394,0.0842206,0.530597,0
2024-12-13 15:22:51.961,0.361615,2.86331,4.99173,0.606571,0.0891073,0.520213,0
2024-12-13 15:22:51.963,0.392722,2.8681,4.94387,0.58397,0.0964375,0.506163,0
2024-12-13 15:22:51.965,0.402293,2.86092,4.91037,0.559536,0.101324,0.491503,0
2024-12-13 15:22:51.970,0.411865,2.85374,4.82423,0.508225,0.109876,0.465237,0
2024-12-13 15:22:51.971,0.411865,2.85374,4.82423,0.481348,0.109876,0.448744,0
2024-12-13 15:22:51.973,0.397508,2.8681,4.78834,0.481348,0.109876,0.448744,0
2024-12-13 15:22:51.975,0.364008,2.88485,4.75693,0.455692,0.109876,0.434083,0
2024-12-13 15:22:51.977,0.337687,2.8992,4.71386,0.428815,0.104989,0.420034,0
2024-12-13 15:22:51.980,0.301795,2.92552,4.68515,0.398883,0.0970484,0.405374,0
2024-12-13 15:22:51.982,0.265603,2.94467,4.67558,0.370784,0.0891073,0.391324,0
2024-12-13 15:22:51.984,0.236889,2.96142,4.65883,0.340776,0.0762796,0.374831,0
2024-12-13 15:22:51.987,0.18664,2.98535,4.64925,0.310845,0.0603975,0.362003,0
2024-12-13 15:22:51.989,0.133998,2.9997,4.65883,0.277859,0.0414613,0.347954,0
2024-12-13 15:22:51.994,0.0526421,3.05474,4.65643,0.244873,0.0194708,0.33085,0
2024-12-13 15:22:51.996,0.0143569,3.08345,4.7019,0.179513,-0.0269536,0.301529,0
2024-12-13 15:22:51.996,0.0143569,3.08345,4.7019,0.179513,-0.0269536,0.301529,0
2024-12-13 15:22:51.998,-0.0334995,3.09811,4.7665,0.145305,-0.0526092,0.286869,0
2024-12-13 15:22:52.001,-0.081356,3.10289,4.83141,0.110487,-0.0807082,0.27282,0
2024-12-13 15:22:52.003,-0.114855,3.11246,4.91755,0.0793338,-0.107585,0.259381,0
2024-12-13 15:22:52.006,-0.141177,3.11007,5.00608,0.0494023,-0.136295,0.245942,0
2024-12-13 15:22:52.008,-0.174676,3.08345,5.11137,0.0188599,-0.169281,0.231893,0
2024-12-13 15:22:52.010,-0.193819,3.04756,5.24537,-0.0110716,-0.200434,0.216622,0
2024-12-13 15:22:52.015,-0.184247,3.0021,5.37488,-0.0648262,-0.256632,0.191577,0
2024-12-13 15:22:52.015,-0.181855,2.93749,5.4993,-0.0648262,-0.256632,0.191577,0
2024-12-13 15:22:52.017,-0.172283,2.8681,5.62852,-0.0892601,-0.281066,0.177527,0
2024-12-13 15:22:52.020,-0.143569,2.82024,5.75055,-0.114305,-0.3055,0.162256,0
2024-12-13 15:22:52.022,-0.136391,2.74128,5.84387,-0.137517,-0.325658,0.151261,0
2024-12-13 15:22:52.024,-0.155533,2.67189,5.93031,-0.165005,-0.345205,0.140266,0
2024-12-13 15:22:52.027,-0.174676,2.62642,6.01406,-0.189439,-0.365363,0.127972,0
2024-12-13 15:22:52.029,-0.181855,2.56182,6.10259,-0.217538,-0.381856,0.11881,0
2024-12-13 15:22:52.031,-0.181855,2.50887,6.19592,-0.246248,-0.402014,0.11148,0
2024-12-13 15:22:52.034,-0.191426,2.45145,6.29881,-0.274347,-0.417896,0.102928,0
2024-12-13 15:22:52.036,-0.20339,2.37488,6.41605,-0.303667,-0.430113,0.0949868,0
2024-12-13 15:22:52.038,-0.205783,2.30788,6.52642,-0.333599,-0.440497,0.0901,0
2024-12-13 15:22:52.042,-0.212961,2.25284,6.64846,-0.389797,-0.450882,0.0797156,0
2024-12-13 15:22:52.046,-0.256032,2.15952,6.95713,-0.417285,-0.452714,0.0772722,0
2024-12-13 15:22:52.048,-0.256032,2.15952,6.95713,-0.442941,-0.44966,0.077883,0
2024-12-13 15:22:52.048,-0.287438,2.11645,7.12014,-0.442941,-0.44966,0.077883,0
2024-12-13 15:22:52.050,-0.292223,2.07577,7.28764,-0.466764,-0.440497,0.077883,0
2024-12-13 15:22:52.053,-0.282652,2.04227,7.47428,-0.491198,-0.432556,0.0760505,0
2024-12-13 15:22:52.055,-0.275175,1.99681,7.68036,-0.508301,-0.422783,0.0797156,0
2024-12-13 15:22:52.060,-0.253639,1.91516,8.08953,-0.539454,-0.386132,0.0815481,0
2024-12-13 15:22:52.060,-0.253639,1.91516,8.08953,-0.539454,-0.386132,0.0815481,0
2024-12-13 15:22:52.062,-0.277567,1.87926,8.27408,-0.548617,-0.357422,0.0833807,0
2024-12-13 15:22:52.064,-0.292223,1.85533,8.4679,-0.558391,-0.325658,0.0901,0
2024-12-13 15:22:52.067,-0.297009,1.80987,8.6665,-0.560834,-0.287175,0.0943759,0
2024-12-13 15:22:52.069,-0.320937,1.76201,8.82473,-0.562667,-0.24808,0.101095,0
2024-12-13 15:22:52.071,-0.359223,1.72373,8.97787,-0.559002,-0.202878,0.110869,0
2024-12-13 15:22:52.074,-0.435793,1.72134,9.12623,-0.55778,-0.157675,0.121253,0
2024-12-13 15:22:52.076,-0.584148,1.81466,9.09751,-0.55778,-0.157675,0.121253,0
2024-12-13 15:22:52.079,-0.737288,1.91037,9.02333,-0.546174,-0.0385597,0.156148,0
2024-12-13 15:22:52.081,-0.777966,1.91516,9.20519,-0.54312,0.0176382,0.179971,0
2024-12-13 15:22:52.083,-0.797109,1.8338,9.38256,-0.535179,0.0548999,0.204405,0
2024-12-13 15:22:52.086,-0.873978,1.71177,9.43998,-0.530292,0.0842206,0.227617,0
2024-12-13 15:22:52.093,-0.917049,1.46291,9.6673,-0.496695,0.16302,0.29481,0
2024-12-13 15:22:52.093,-0.917049,1.46291,9.6673,-0.496695,0.16302,0.29481,0
2024-12-13 15:22:52.095,-0.895514,1.41506,9.76541,-0.477148,0.188065,0.318633,0
2024-12-13 15:22:52.095,-0.895514,1.41506,9.76541,-0.477148,0.188065,0.318633,0
2024-12-13 15:22:52.097,-0.914656,1.38844,9.86381,-0.457601,0.209444,0.342456,0
2024-12-13 15:22:52.100,-0.964906,1.39561,9.91167,-0.433778,0.22777,0.368112,0
2024-12-13 15:22:52.102,-1.02951,1.41984,9.9356,-0.406901,0.247928,0.394378,0
2024-12-13 15:22:52.104,-1.12522,1.43181,9.94995,-0.380023,0.268696,0.426753,0
2024-12-13 15:22:52.107,-1.18983,1.43898,9.99303,-0.34887,0.282746,0.46035,0
2024-12-13 15:22:52.109,-1.22333,1.45334,10.0289,-0.317717,0.296185,0.497001,0
2024-12-13 15:22:52.112,-1.24008,1.49402,10.017,-0.287175,0.304736,0.533651,0
2024-12-13 15:22:52.114,-1.22094,1.53948,9.99063,-0.254189,0.310845,0.569691,0
2024-12-13 15:22:52.116,-1.18026,1.55862,9.95235,-0.220592,0.318175,0.609397,0
2024-12-13 15:22:52.119,-1.13719,1.58016,9.9021,-0.19005,0.325505,0.649712,0
2024-12-13 15:22:52.121,-1.07258,1.60648,9.8686,-0.156453,0.329781,0.689417,0
2024-12-13 15:22:52.126,-0.881157,1.65912,9.75584,-0.0880384,0.337722,0.762108,0
2024-12-13 15:22:52.126,-0.881157,1.65912,9.75584,-0.0880384,0.337722,0.762108,0
2024-12-13 15:22:52.128,-0.782752,1.68066,9.68166,-0.0587177,0.338333,0.796316,0
2024-12-13 15:22:52.133,-0.517149,1.71894,9.54766,0.00603212,0.338333,0.854957,0
2024-12-13 15:22:52.133,-0.517149,1.71894,9.54766,0.00603212,0.338333,0.854957,0
2024-12-13 15:22:52.135,-0.395115,1.75484,9.45913,0.0371853,0.3365,0.879391,0
2024-12-13 15:22:52.140,-0.157926,1.82184,9.22912,0.0933833,0.332225,0.920929,0
2024-12-13 15:22:52.142,-0.0358923,1.86491,9.10469,0.120261,0.328559,0.938032,0
2024-12-13 15:22:52.142,-0.0358923,1.86491,9.10469,0.120261,0.328559,0.938032,0
2024-12-13 15:22:52.144,0.0622134,1.92233,8.99462,0.145305,0.322451,0.949638,0
2024-12-13 15:22:52.147,0.157926,1.97288,8.8678,0.169128,0.320008,0.957579,0
2024-12-13 15:22:52.149,0.246461,2.02074,8.73859,0.189897,0.317564,0.964299,0
2024-12-13 15:22:52.152,0.330509,2.05185,8.61865,0.210666,0.313288,0.969796,0
2024-12-13 15:22:52.154,0.428614,2.07338,8.51097,0.228991,0.310234,0.969796,0
2024-12-13 15:22:52.156,0.505185,2.11167,8.40808,0.244873,0.309012,0.97224,0
2024-12-13 15:22:52.159,0.56022,2.14995,8.29562,0.261977,0.305958,0.969796,0
2024-12-13 15:22:52.161,0.615255,2.15952,8.16401,0.277248,0.30718,0.963688,0
2024-12-13 15:22:52.163,0.665504,2.15952,8.03211,0.292519,0.310234,0.961245,0
2024-12-13 15:22:52.167,0.715753,2.17866,7.90768,0.313288,0.321229,0.950249,0
2024-12-13 15:22:52.168,0.76361,2.19541,7.78565,0.313288,0.321229,0.950249,0
2024-12-13 15:22:52.170,0.789931,2.20259,7.65643,0.323673,0.327338,0.944752,0
2024-12-13 15:22:52.173,0.797109,2.22413,7.52453,0.330392,0.339555,0.938032,0
2024-12-13 15:22:52.175,0.809073,2.23849,7.39532,0.33589,0.35055,0.932535,0
2024-12-13 15:22:52.177,0.833001,2.25284,7.27089,0.338944,0.362156,0.92887,0
2024-12-13 15:22:52.180,0.842872,2.28395,7.16082,0.343831,0.374984,0.922761,0
2024-12-13 15:22:52.182,0.837787,2.29113,7.02443,0.343831,0.385368,0.917264,0
2024-12-13 15:22:52.185,0.845265,2.29352,6.87817,0.345663,0.400029,0.914209,0
2024-12-13 15:22:52.187,0.842872,2.30309,6.74896,0.341998,0.411635,0.90749,0
2024-12-13 15:22:52.189,0.85005,2.30548,6.62931,0.3365,0.42263,0.903214,0
2024-12-13 15:22:52.192,0.890728,2.30309,6.50967,0.331614,0.433625,0.898327,0
2024-12-13 15:22:52.194,0.938585,2.31027,6.3993,0.32184,0.443399,0.892219,0
2024-12-13 15:22:52.196,0.979263,2.31984,6.28924,0.310234,0.450729,0.885499,0
2024-12-13 15:22:52.199,0.996012,2.31745,6.18634,0.298017,0.459892,0.87878,0
2024-12-13 15:22:52.201,1.0008,2.3342,6.09063,0.284578,0.465389,0.870228,0
2024-12-13 15:22:52.203,1.01037,2.39163,6.01167,0.271751,0.471498,0.860455,0
2024-12-13 15:22:52.206,1.02233,2.4323,5.96381,0.255258,0.475774,0.851903,0
2024-12-13 15:22:52.208,1.04387,2.45863,5.92792,0.255258,0.475774,0.851903,0
2024-12-13 15:22:52.210,1.0678,2.49212,5.90638,0.217996,0.483715,0.828691,0
2024-12-13 15:22:52.213,1.11326,2.52084,5.88694,0.200892,0.486769,0.815863,0
2024-12-13 15:22:52.215,1.17547,2.52832,5.87976,0.181345,0.488601,0.801813,0
2024-12-13 15:22:52.218,1.38365,2.41555,6.1002,0.164852,0.481271,0.783488,0
2024-12-13 15:22:52.220,1.5012,2.34616,6.25813,0.155079,0.462946,0.756,0
2024-12-13 15:22:52.222,1.31186,2.47298,6.0021,0.144694,0.467222,0.732788,0
2024-12-13 15:22:52.225,1.19701,2.62403,5.82473,0.128202,0.490434,0.713851,0
2024-12-13 15:22:52.227,1.23769,2.72692,5.95663,0.116595,0.503873,0.696748,0
2024-12-13 15:22:52.229,1.22333,2.82024,6.07867,0.103157,0.506927,0.680255,0
2024-12-13 15:22:52.232,1.1683,2.90878,6.09542,0.0897182,0.503873,0.664984,0
2024-12-13 15:22:52.234,1.13958,2.94467,6.12652,0.074447,0.496542,0.649102,0
2024-12-13 15:22:52.236,1.14915,2.92313,6.19592,0.0591758,0.484326,0.631998,0
2024-12-13 15:22:52.239,1.20658,2.88006,6.30359,0.0469589,0.469665,0.611229,0
2024-12-13 15:22:52.241,1.26879,2.8346,6.42323,0.0359636,0.451951,0.59046,0
2024-12-13 15:22:52.243,1.32861,2.8011,6.56949,0.0268009,0.42996,0.562972,0
2024-12-13 15:22:52.246,1.39801,2.78913,6.73699,0.0268009,0.409802,0.535484,0
2024-12-13 15:22:52.248,1.43181,2.77956,6.8997,0.0261901,0.387201,0.508607,0
2024-12-13 15:22:52.250,1.42702,2.77956,7.05793,0.0310769,0.365821,0.478064,0
2024-12-13 15:22:52.253,1.41745,2.80349,7.2015,0.0414613,0.346885,0.447522,0
2024-12-13 15:22:52.255,1.40788,2.83938,7.34985,0.0524565,0.325505,0.418201,0
2024-12-13 15:22:52.258,1.38844,2.86331,7.46949,0.0652843,0.304736,0.391935,0
2024-12-13 15:22:52.261,1.36451,2.88485,7.56999,0.0884965,0.260755,0.339402,0
2024-12-13 15:22:52.262,1.3334,2.8992,7.65643,0.0884965,0.260755,0.339402,0
2024-12-13 15:22:52.267,1.26879,2.89681,7.75933,0.110487,0.22777,0.289923,0
2024-12-13 15:22:52.267,1.26879,2.89681,7.75933,0.110487,0.22777,0.289923,0
2024-12-13 15:22:52.269,1.21137,2.90399,7.80718,0.118428,0.213109,0.265489,0
2024-12-13 15:22:52.272,1.13958,2.89442,7.85743,0.128812,0.202725,0.243499,0
2024-12-13 15:22:52.274,1.04387,2.9016,7.89332,0.132477,0.196616,0.223341,0
2024-12-13 15:22:52.276,0.905085,2.94706,7.92922,0.136753,0.195395,0.206848,0
2024-12-13 15:22:52.279,0.74686,2.9997,7.99143,0.137364,0.196616,0.191577,0
2024-12-13 15:22:52.281,0.555434,3.05234,8.05843,0.138586,0.204557,0.180582,0
2024-12-13 15:22:52.283,0.337687,3.11964,8.11586,0.138586,0.214942,0.170808,0
2024-12-13 15:22:52.286,0.133998,3.20818,8.15444,0.136753,0.227159,0.164089,0
2024-12-13 15:22:52.291,-0.301795,3.43071,8.17119,0.12698,0.26381,0.162256,0
2024-12-13 15:22:52.291,-0.301795,3.43071,8.17119,0.12698,0.26381,0.162256,0
2024-12-13 15:22:52.293,-0.514756,3.54796,8.2023,0.114763,0.279081,0.164089,0
2024-12-13 15:22:52.295,-0.720539,3.65833,8.24058,0.103157,0.287633,0.168365,0
2024-12-13 15:22:52.298,-0.914656,3.7014,8.28126,0.0842206,0.291298,0.177527,0
2024-12-13 15:22:52.300,-1.09173,3.70858,8.33151,0.0628409,0.287633,0.189134,0
2024-12-13 15:22:52.302,-1.27837,3.73011,8.37458,0.0347419,0.277248,0.202572,0
2024-12-13 15:22:52.305,-1.4677,3.78993,8.4344,0.00175619,0.252814,0.218454,0
2024-12-13 15:22:52.307,-1.64477,3.87847,8.53969,-0.0397814,0.219218,0.235558,0
2024-12-13 15:22:52.309,-1.78834,3.98854,8.67129,-0.0837624,0.174015,0.253273,0
2024-12-13 15:22:52.312,-1.88883,4.09861,8.85823,-0.132019,0.115374,0.267322,0
2024-12-13 15:22:52.314,-1.93191,4.18714,9.09751,-0.185163,0.0408504,0.279539,0
2024-12-13 15:22:52.316,-1.93669,4.24247,9.36102,-0.243194,-0.0513875,0.288702,0
2024-12-13 15:22:52.319,-1.92951,4.28076,9.65534,-0.307333,-0.158897,0.292978,0
2024-12-13 15:22:52.321,-1.86969,4.30469,9.99303,-0.376358,-0.278623,0.295421,0
2024-12-13 15:22:52.323,-1.71655,4.29272,10.3881,-0.450882,-0.407511,0.291145,0
2024-12-13 15:22:52.326,-1.48445,4.26401,10.8667,-0.526016,-0.541898,0.283815,0
2024-12-13 15:22:52.328,-1.18265,4.22333,11.4317,-0.602983,-0.677506,0.269155,0
2024-12-13 15:22:52.331,-0.818644,4.14646,12.076,-0.681782,-0.808227,0.245332,0
2024-12-13 15:22:52.333,-0.431007,4.0675,12.7965,-0.755084,-0.928564,0.219065,0
2024-12-13 15:22:52.335,-0.026321,3.99571,13.5745,-0.82472,-1.0318,0.186079,0
2024-12-13 15:22:52.342,0.955334,3.90718,16.1602,-0.989649,-1.21078,0.0546708,0
2024-12-13 15:22:52.345,0.955334,4.09861,16.8186,-1.02874,-1.20161,0.0125224,0
2024-12-13 15:22:52.345,0.952942,4.09861,16.8186,-1.02874,-1.20161,0.0125224,0
2024-12-13 15:22:52.347,1.07258,4.19671,17.6181,-1.0599,-1.16069,-0.0216851,0
2024-12-13 15:22:52.347,1.07258,4.19671,17.6181,-1.0599,-1.16069,-0.0216851,0
2024-12-13 15:22:52.349,1.42463,4.10818,18.638,-1.07822,-1.11732,-0.0571142,0
2024-12-13 15:22:52.352,1.75962,3.96939,19.555,-1.08616,-1.06356,-0.0955976,0
2024-12-13 15:22:52.356,2.43709,3.52403,21.1113,-1.07028,-0.887637,-0.192722,0
2024-12-13 15:22:52.356,2.43709,3.52403,21.1113,-1.07028,-0.887637,-0.192722,0
2024-12-13 15:22:52.359,2.68864,3.26082,21.7768,-1.03852,-0.764246,-0.247699,0
2024-12-13 15:22:52.361,2.82742,2.98535,22.3202,-0.995757,-0.621308,-0.307562,0
2024-12-13 15:22:52.364,2.91356,2.71496,22.7919,-0.944446,-0.466764,-0.36376,0
2024-12-13 15:22:52.366,2.9351,2.44905,23.182,-0.883972,-0.306111,-0.419347,0
2024-12-13 15:22:52.368,2.85613,2.19781,23.4407,-0.81739,-0.147901,-0.473101,0
2024-12-13 15:22:52.371,2.68385,1.95105,23.6034,-0.743477,0.00847551,-0.520747,1
2024-12-13 15:22:52.373,2.42752,1.6998,23.6369,-0.667122,0.158133,-0.559231,0
2024-12-13 15:22:52.378,2.09492,1.4677,23.3163,-0.505247,0.439734,-0.603212,0
2024-12-13 15:22:52.378,1.70937,1.25922,23.3163,-0.505247,0.439734,-0.603212,0
2024-12-13 15:22:52.380,1.29033,1.07258,23.0073,-0.425226,0.570455,-0.607488,0
2024-12-13 15:22:52.382,0.837787,0.933799,22.6241,-0.34887,0.688959,-0.597714,0
2024-12-13 15:22:52.385,0.359223,0.845265,22.1791,-0.271903,0.798377,-0.577556,0
2024-12-13 15:22:52.387,-0.129212,0.813859,21.6619,-0.197991,0.897945,-0.540905,0
2024-12-13 15:22:52.389,-0.641576,0.847657,21.1113,-0.132019,0.989573,-0.491427,0
2024-12-13 15:22:52.392,-1.14676,0.909871,20.5463,-0.0703238,1.06837,-0.428509,0
2024-12-13 15:22:52.395,-1.64955,1.0343,19.9116,0.0359636,1.20154,-0.273965,0
2024-12-13 15:22:52.397,-2.10209,1.19701,19.3179,0.0359636,1.20154,-0.273965,0
2024-12-13 15:22:52.399,-2.39163,1.32383,18.813,0.0768904,1.2504,-0.187225,0
2024-12-13 15:22:52.401,-2.61207,1.44616,18.2839,0.115985,1.28461,-0.0986518,0
2024-12-13 15:22:52.404,-2.80588,1.57537,17.7308,0.150192,1.30843,-0.00885729,0
2024-12-13 15:22:52.408,-2.96142,1.78116,16.7204,0.202725,1.32554,0.15798,0
2024-12-13 15:22:52.408,-2.96142,1.78116,16.7204,0.202725,1.32554,0.15798,0
2024-12-13 15:22:52.411,-2.91117,1.89841,16.2559,0.222883,1.3121,0.233115,0
2024-12-13 15:22:52.413,-2.82981,2.02313,15.8345,0.24243,1.28522,0.297864,0
2024-12-13 15:22:52.415,-2.33898,1.91037,15.7077,0.257701,1.24063,0.347954,0
2024-12-13 15:22:52.418,-1.82184,1.79312,15.6694,0.284578,1.16427,0.372388,0
2024-12-13 15:22:52.420,-1.89841,2.0016,15.1307,0.31451,1.09953,0.385216,0
2024-12-13 15:22:52.422,-1.94387,2.26481,14.6614,0.334668,1.06043,0.394989,0
2024-12-13 15:22:52.425,-1.79551,2.47777,14.5394,0.359713,0.996292,0.397433,0
2024-12-13 15:22:52.427,-1.70219,2.72692,14.3504,0.384834,0.916271,0.394378,0
2024-12-13 15:22:52.429,-1.61127,2.99731,14.0988,0.407435,0.827698,0.385826,0
2024-12-13 15:22:52.432,-1.52034,3.23211,13.8165,0.428815,0.733017,0.37422,0
2024-12-13 15:22:52.434,-1.43181,3.4331,13.5003,0.449584,0.640702,0.358949,0
2024-12-13 15:22:52.437,-1.3334,3.60539,13.165,0.462411,0.553351,0.341235,0
2024-12-13 15:22:52.439,-1.22094,3.72772,12.8516,0.47585,0.469054,0.321077,0
2024-12-13 15:22:52.441,-1.08694,3.81865,12.5306,0.484402,0.385979,0.300919,0
2024-12-13 15:22:52.444,-0.931406,3.8689,12.2195,0.487456,0.303515,0.275874,0
2024-12-13 15:22:52.446,-0.758824,3.84736,11.956,0.49051,0.22044,0.248386,0
2024-12-13 15:22:52.451,-0.452543,3.71575,11.4245,0.485624,0.0652843,0.185468,0
2024-12-13 15:22:52.451,-0.452543,3.71575,11.4245,0.485624,0.0652843,0.185468,0
2024-12-13 15:22:52.453,-0.299402,3.6006,11.214,0.47585,-0.00618483,0.150039,0
2024-12-13 15:22:52.455,-0.167498,3.48814,11.0369,0.469131,-0.0770431,0.11209,0
2024-12-13 15:22:52.458,-0.0837488,3.39242,10.8619,0.46119,-0.144236,0.0760505,0
2024-12-13 15:22:52.460,-0.0191426,3.3015,10.704,0.452027,-0.202267,0.0406213,0
2024-12-13 15:22:52.462,0.0334995,3.22253,10.57,0.441032,-0.251135,0.00397051,0
2024-12-13 15:22:52.465,0.0287139,3.15075,10.436,0.433702,-0.297559,-0.0296261,0
2024-12-13 15:22:52.467,-0.026321,3.10289,10.2993,0.426371,-0.336653,-0.0626118,0
2024-12-13 15:22:52.470,-0.0933201,3.0667,10.1605,0.41843,-0.368417,-0.0907108,0
2024-12-13 15:22:52.472,-0.148355,3.02602,10.0313,0.408046,-0.392851,-0.118199,0
2024-12-13 15:22:52.474,-0.20339,2.98056,9.92363,0.398883,-0.41362,-0.141411,0
2024-12-13 15:22:52.477,-0.270389,2.9351,9.80848,0.390331,-0.431945,-0.163402,0
2024-12-13 15:22:52.479,-0.352044,2.88963,9.69362,0.377504,-0.441719,-0.18417,0
2024-12-13 15:22:52.481,-0.423829,2.86331,9.57877,0.368341,-0.444773,-0.202496,0
2024-12-13 15:22:52.484,-0.486042,2.8322,9.45673,0.356658,-0.44233,-0.218989,0
2024-12-13 15:22:52.486,-0.562612,2.79392,9.33949,0.343831,-0.433167,-0.236092,0
2024-12-13 15:22:52.488,-0.655932,2.77956,9.22912,0.331614,-0.419728,-0.248309,0
2024-12-13 15:22:52.491,-0.761217,2.75563,9.1023,0.318786,-0.405068,-0.259305,0
2024-12-13 15:22:52.493,-0.845265,2.70778,8.96351,0.304126,-0.384299,-0.269078,0
2024-12-13 15:22:52.495,-0.919442,2.66949,8.81755,0.286411,-0.36353,-0.272743,0
2024-12-13 15:22:52.498,-1.00558,2.63839,8.67608,0.268086,-0.338486,-0.278241,0
2024-12-13 15:22:52.503,-1.14437,2.57857,8.39372,0.22777,-0.285953,-0.283128,0
2024-12-13 15:22:52.503,-1.14437,2.57857,8.39372,0.22777,-0.285953,-0.283128,0
2024-12-13 15:22:52.505,-1.20419,2.55942,8.27169,0.202114,-0.256632,-0.281906,0
2024-12-13 15:22:52.507,-1.24726,2.54267,8.15923,0.175237,-0.227312,-0.279463,0
2024-12-13 15:22:52.510,-1.29751,2.52084,8.04407,0.14836,-0.194326,-0.278241,0
2024-12-13 15:22:52.512,-1.34536,2.49691,7.94357,0.11965,-0.160118,-0.270911,0
2024-12-13 15:22:52.514,-1.39322,2.48255,7.85982,0.0897182,-0.126522,-0.267246,0
2024-12-13 15:22:52.517,-1.44138,2.4682,7.7665,0.0591758,-0.0917034,-0.262359,0
2024-12-13 15:22:52.519,-1.48445,2.45863,7.68515,0.0268009,-0.0526092,-0.254418,0
2024-12-13 15:22:52.521,-1.5323,2.4682,7.64926,-0.00496313,-0.0147367,-0.246477,0
