timestamp,accel_x,accel_y,accel_z,gyro_x,gyro_y,gyro_z,step_timestamp
2024-12-13 15:24:26.930,0.040678,2.85374,5.2669,0.201503,-0.219981,0.249607,0
2024-12-13 15:24:26.930,0.040678,2.85374,5.2669,0.201503,-0.219981,0.249607,0
2024-12-13 15:24:26.930,0.040678,2.85374,5.2669,0.201503,-0.219981,0.249607,0
2024-12-13 15:24:26.930,0.040678,2.85374,5.2669,0.201503,-0.219981,0.249607,0
2024-12-13 15:24:26.930,0.040678,2.85374,5.2669,0.201503,-0.219981,0.249607,0
2024-12-13 15:24:26.930,0.040678,2.85374,5.2669,0.201503,-0.219981,0.249607,0
2024-12-13 15:24:26.930,0.040678,2.85374,5.2669,0.201503,-0.219981,0.249607,0
2024-12-13 15:24:26.932,0.0430708,2.82263,5.39881,0.186843,-0.234031,0.245332,0
2024-12-13 15:24:26.932,0.0430708,2.82263,5.39881,0.186843,-0.234031,0.245332,0
2024-12-13 15:24:26.932,0.0430708,2.82263,5.39881,0.186843,-0.234031,0.245332,0
2024-12-13 15:24:26.932,0.0430708,2.82263,5.39881,0.186843,-0.234031,0.245332,0
2024-12-13 15:24:26.932,0.0430708,2.82263,5.39881,0.186843,-0.234031,0.245332,0
2024-12-13 15:24:26.932,0.0430708,2.82263,5.39881,0.186843,-0.234031,0.245332,0
2024-12-13 15:24:26.932,0.0430708,2.82263,5.39881,0.186843,-0.234031,0.245332,0
2024-12-13 15:24:26.933,0.0430708,2.82263,5.39881,0.186843,-0.234031,0.245332,0
2024-12-13 15:24:26.935,0.0382852,2.78913,5.50888,0.172183,-0.244415,0.241056,0
2024-12-13 15:24:26.935,0.0382852,2.78913,5.50888,0.172183,-0.244415,0.241056,0
2024-12-13 15:24:26.935,0.0382852,2.78913,5.50888,0.172183,-0.244415,0.241056,0
2024-12-13 15:24:26.935,0.0382852,2.78913,5.50888,0.172183,-0.244415,0.241056,0
2024-12-13 15:24:26.937,0.0430708,2.78435,5.6333,0.162409,-0.249302,0.236169,0
2024-12-13 15:24:26.937,0.0430708,2.78435,5.6333,0.162409,-0.249302,0.236169,0
2024-12-13 15:24:26.937,0.0430708,2.78435,5.6333,0.162409,-0.249302,0.236169,0
2024-12-13 15:24:26.937,0.0430708,2.78435,5.6333,0.162409,-0.249302,0.236169,0
2024-12-13 15:24:26.937,0.0430708,2.78435,5.6333,0.162409,-0.249302,0.236169,0
2024-12-13 15:24:26.938,0.0430708,2.78435,5.6333,0.151414,-0.250524,0.233115,0
2024-12-13 15:24:26.939,0.0646062,2.78196,5.78884,0.151414,-0.250524,0.233115,0
2024-12-13 15:24:26.939,0.0646062,2.78196,5.78884,0.151414,-0.250524,0.233115,0
2024-12-13 15:24:26.939,0.0646062,2.78196,5.78884,0.151414,-0.250524,0.233115,0
2024-12-13 15:24:26.939,0.0646062,2.78196,5.78884,0.151414,-0.250524,0.233115,0
2024-12-13 15:24:26.939,0.0646062,2.78196,5.78884,0.151414,-0.250524,0.233115,0
2024-12-13 15:24:26.942,0.0957129,2.78196,5.91596,0.145916,-0.245637,0.228228,0
2024-12-13 15:24:26.942,0.0957129,2.78196,5.91596,0.145916,-0.245637,0.228228,0
2024-12-13 15:24:26.942,0.0957129,2.78196,5.91596,0.145916,-0.245637,0.228228,0
2024-12-13 15:24:26.942,0.0957129,2.78196,5.91596,0.145916,-0.245637,0.228228,0
2024-12-13 15:24:26.942,0.0957129,2.78196,5.91596,0.145916,-0.245637,0.228228,0
2024-12-13 15:24:26.942,0.0957129,2.78196,5.91596,0.145916,-0.245637,0.228228,0
2024-12-13 15:24:26.944,0.12682,2.79153,6.02602,0.136143,-0.238918,0.225174,0
2024-12-13 15:24:26.944,0.12682,2.79153,6.02602,0.136143,-0.238918,0.225174,0
2024-12-13 15:24:26.945,0.12682,2.79153,6.02602,0.131256,-0.226701,0.223952,0
2024-12-13 15:24:26.946,0.150748,2.78913,6.15284,0.131256,-0.226701,0.223952,0
2024-12-13 15:24:26.946,0.150748,2.78913,6.15284,0.131256,-0.226701,0.223952,0
2024-12-13 15:24:26.946,0.150748,2.78913,6.15284,0.131256,-0.226701,0.223952,0
2024-12-13 15:24:26.946,0.150748,2.78913,6.15284,0.131256,-0.226701,0.223952,0
2024-12-13 15:24:26.949,0.162712,2.78196,6.27966,0.124536,-0.208986,0.219065,0
2024-12-13 15:24:26.949,0.162712,2.78196,6.27966,0.124536,-0.208986,0.219065,0
2024-12-13 15:24:26.949,0.162712,2.78196,6.27966,0.124536,-0.208986,0.219065,0
2024-12-13 15:24:26.949,0.162712,2.78196,6.27966,0.124536,-0.208986,0.219065,0
2024-12-13 15:24:26.949,0.162712,2.78196,6.27966,0.124536,-0.208986,0.219065,0
2024-12-13 15:24:26.949,0.162712,2.78196,6.27966,0.124536,-0.208986,0.219065,0
2024-12-13 15:24:26.949,0.162712,2.78196,6.27966,0.124536,-0.208986,0.219065,0
2024-12-13 15:24:26.949,0.162712,2.78196,6.27966,0.124536,-0.208986,0.219065,0
2024-12-13 15:24:26.954,0.16989,2.76521,6.40648,0.120261,-0.152177,0.216622,0
2024-12-13 15:24:26.954,0.198604,2.75324,6.51925,0.120261,-0.152177,0.216622,0
2024-12-13 15:24:26.954,0.198604,2.75324,6.51925,0.120261,-0.152177,0.216622,0
2024-12-13 15:24:26.956,0.229711,2.74367,6.6006,0.11965,-0.116137,0.216011,0
2024-12-13 15:24:26.956,0.229711,2.74367,6.6006,0.11965,-0.116137,0.216011,0
2024-12-13 15:24:26.956,0.229711,2.74367,6.6006,0.11965,-0.116137,0.216011,0
2024-12-13 15:24:26.956,0.229711,2.74367,6.6006,0.11965,-0.116137,0.216011,0
2024-12-13 15:24:26.958,0.253639,2.74606,6.67478,0.115985,-0.0727672,0.216011,0
2024-12-13 15:24:26.958,0.253639,2.74606,6.67478,0.115985,-0.0727672,0.216011,0
2024-12-13 15:24:26.958,0.253639,2.74606,6.67478,0.115985,-0.0727672,0.216011,0
2024-12-13 15:24:26.958,0.253639,2.74606,6.67478,0.115985,-0.0727672,0.216011,0
2024-12-13 15:24:26.961,0.265603,2.78196,6.74417,0.115985,-0.0263428,0.216622,0
2024-12-13 15:24:26.961,0.265603,2.78196,6.74417,0.115985,-0.0263428,0.216622,0
2024-12-13 15:24:26.962,0.265603,2.78196,6.74417,0.113541,0.0231358,0.217843,0
2024-12-13 15:24:26.963,0.272782,2.80588,6.82074,0.113541,0.0231358,0.217843,0
2024-12-13 15:24:26.963,0.272782,2.80588,6.82074,0.113541,0.0231358,0.217843,0
2024-12-13 15:24:26.965,0.287438,2.82503,6.89492,0.111709,0.0738362,0.219676,0
2024-12-13 15:24:26.965,0.287438,2.82503,6.89492,0.111709,0.0738362,0.219676,0
2024-12-13 15:24:26.965,0.287438,2.82503,6.89492,0.111709,0.0738362,0.219676,0
2024-12-13 15:24:26.965,0.287438,2.82503,6.89492,0.111709,0.0738362,0.219676,0
2024-12-13 15:24:26.965,0.287438,2.82503,6.89492,0.111709,0.0738362,0.219676,0
2024-12-13 15:24:26.965,0.287438,2.82503,6.89492,0.111709,0.0738362,0.219676,0
2024-12-13 15:24:26.968,0.311366,2.87049,6.94756,0.109876,0.129423,0.221508,0
2024-12-13 15:24:26.968,0.311366,2.87049,6.94756,0.109876,0.129423,0.221508,0
2024-12-13 15:24:26.968,0.311366,2.87049,6.94756,0.109876,0.129423,0.221508,0
2024-12-13 15:24:26.968,0.311366,2.87049,6.94756,0.109876,0.129423,0.221508,0
2024-12-13 15:24:26.970,0.330509,2.9016,7.00499,0.109265,0.183178,0.223952,0
2024-12-13 15:24:26.970,0.330509,2.9016,7.00499,0.109265,0.183178,0.223952,0
2024-12-13 15:24:26.970,0.330509,2.9016,7.00499,0.109265,0.183178,0.223952,0
2024-12-13 15:24:26.970,0.330509,2.9016,7.00499,0.109265,0.183178,0.223952,0
2024-12-13 15:24:26.972,0.361615,2.93749,7.06511,0.107433,0.239376,0.225174,0
2024-12-13 15:24:26.972,0.361615,2.93749,7.06511,0.107433,0.239376,0.225174,0
2024-12-13 15:24:26.972,0.361615,2.93749,7.06511,0.107433,0.239376,0.225174,0
2024-12-13 15:24:26.972,0.361615,2.93749,7.06511,0.107433,0.239376,0.225174,0
2024-12-13 15:24:26.972,0.361615,2.93749,7.06511,0.107433,0.239376,0.225174,0
2024-12-13 15:24:26.975,0.404686,2.97338,7.11536,0.1056,0.291298,0.226395,0
2024-12-13 15:24:26.975,0.404686,2.97338,7.11536,0.1056,0.291298,0.226395,0
2024-12-13 15:24:26.975,0.404686,2.97338,7.11536,0.1056,0.291298,0.226395,0
2024-12-13 15:24:26.975,0.404686,2.97338,7.11536,0.1056,0.291298,0.226395,0
2024-12-13 15:24:26.977,0.438186,3.01645,7.18236,0.101935,0.34322,0.228228,0
2024-12-13 15:24:26.977,0.438186,3.01645,7.18236,0.101935,0.34322,0.228228,0
2024-12-13 15:24:26.977,0.438186,3.01645,7.18236,0.101935,0.34322,0.228228,0
2024-12-13 15:24:26.977,0.438186,3.01645,7.18236,0.101935,0.34322,0.228228,0
2024-12-13 15:24:26.979,0.462114,3.06431,7.23261,0.101935,0.398196,0.228839,0
2024-12-13 15:24:26.979,0.462114,3.06431,7.23261,0.101935,0.398196,0.228839,0
2024-12-13 15:24:26.979,0.462114,3.06431,7.23261,0.101935,0.398196,0.228839,0
2024-12-13 15:24:26.979,0.462114,3.06431,7.23261,0.101935,0.398196,0.228839,0
2024-12-13 15:24:26.979,0.462114,3.06431,7.23261,0.101935,0.398196,0.228839,0
2024-12-13 15:24:26.982,0.4669,3.11964,7.28046,0.100713,0.449507,0.229449,0
2024-12-13 15:24:26.982,0.4669,3.11964,7.28046,0.100713,0.449507,0.229449,0
2024-12-13 15:24:26.982,0.4669,3.11964,7.28046,0.100713,0.449507,0.229449,0
2024-12-13 15:24:26.982,0.4669,3.11964,7.28046,0.100713,0.449507,0.229449,0
2024-12-13 15:24:26.982,0.4669,3.11964,7.28046,0.100713,0.449507,0.229449,0
2024-12-13 15:24:26.984,0.452543,3.21536,7.34268,0.0988809,0.502651,0.227617,0
2024-12-13 15:24:26.984,0.452543,3.21536,7.34268,0.0988809,0.502651,0.227617,0
2024-12-13 15:24:26.984,0.452543,3.21536,7.34268,0.0988809,0.502651,0.227617,0
2024-12-13 15:24:26.984,0.452543,3.21536,7.34268,0.0988809,0.502651,0.227617,0
2024-12-13 15:24:26.984,0.452543,3.21536,7.34268,0.0988809,0.502651,0.227617,0
2024-12-13 15:24:26.984,0.452543,3.21536,7.34268,0.0988809,0.502651,0.227617,0
2024-12-13 15:24:26.987,0.440578,3.32303,7.38335,0.0933833,0.549686,0.227617,0
2024-12-13 15:24:26.987,0.440578,3.32303,7.38335,0.0933833,0.549686,0.227617,0
2024-12-13 15:24:26.987,0.440578,3.32303,7.38335,0.0933833,0.549686,0.227617,0
2024-12-13 15:24:26.987,0.440578,3.32303,7.38335,0.0933833,0.549686,0.227617,0
2024-12-13 15:24:26.987,0.440578,3.32303,7.38335,0.0933833,0.549686,0.227617,0
2024-12-13 15:24:26.987,0.440578,3.32303,7.38335,0.0933833,0.549686,0.227617,0
2024-12-13 15:24:26.989,0.423829,3.41875,7.40728,0.0952158,0.597332,0.225784,0
2024-12-13 15:24:26.989,0.423829,3.41875,7.40728,0.0952158,0.597332,0.225784,0
2024-12-13 15:24:26.989,0.423829,3.41875,7.40728,0.0952158,0.597332,0.225784,0
2024-12-13 15:24:26.989,0.423829,3.41875,7.40728,0.0952158,0.597332,0.225784,0
2024-12-13 15:24:26.991,0.402293,3.53121,7.4001,0.0921616,0.639481,0.223952,0
2024-12-13 15:24:26.991,0.402293,3.53121,7.4001,0.0921616,0.639481,0.223952,0
2024-12-13 15:24:26.991,0.402293,3.53121,7.4001,0.0921616,0.639481,0.223952,0
2024-12-13 15:24:26.991,0.402293,3.53121,7.4001,0.0921616,0.639481,0.223952,0
2024-12-13 15:24:26.991,0.402293,3.53121,7.4001,0.0921616,0.639481,0.223952,0
2024-12-13 15:24:26.991,0.402293,3.53121,7.4001,0.0921616,0.639481,0.223952,0
2024-12-13 15:24:26.991,0.402293,3.53121,7.4001,0.0921616,0.639481,0.223952,0
2024-12-13 15:24:26.991,0.402293,3.53121,7.4001,0.0921616,0.639481,0.223952,0
2024-12-13 15:24:26.994,0.361615,3.65354,7.37857,0.0884965,0.679797,0.221508,0
2024-12-13 15:24:26.994,0.361615,3.65354,7.37857,0.0884965,0.679797,0.221508,0
2024-12-13 15:24:26.994,0.361615,3.65354,7.37857,0.0884965,0.679797,0.221508,0
2024-12-13 15:24:26.994,0.361615,3.65354,7.37857,0.0884965,0.679797,0.221508,0
2024-12-13 15:24:26.996,0.304188,3.7684,7.34028,0.0805555,0.71347,0.217233,0
2024-12-13 15:24:26.996,0.304188,3.7684,7.34028,0.0805555,0.71347,0.217233,0
2024-12-13 15:24:26.996,0.304188,3.7684,7.34028,0.0805555,0.71347,0.217233,0
2024-12-13 15:24:26.996,0.304188,3.7684,7.34028,0.0805555,0.71347,0.217233,0
2024-12-13 15:24:26.996,0.304188,3.7684,7.34028,0.0805555,0.71347,0.217233,0
2024-12-13 15:24:26.996,0.304188,3.7684,7.34028,0.0805555,0.71347,0.217233,0
2024-12-13 15:24:26.998,0.246461,3.89522,7.28286,0.0689494,0.737903,0.212346,0
2024-12-13 15:24:26.998,0.246461,3.89522,7.28286,0.0689494,0.737903,0.212346,0
2024-12-13 15:24:26.998,0.246461,3.89522,7.28286,0.0689494,0.737903,0.212346,0
2024-12-13 15:24:26.998,0.246461,3.89522,7.28286,0.0689494,0.737903,0.212346,0
2024-12-13 15:24:26.998,0.246461,3.89522,7.28286,0.0689494,0.737903,0.212346,0
2024-12-13 15:24:26.998,0.246461,3.89522,7.28286,0.0689494,0.737903,0.212346,0
2024-12-13 15:24:26.998,0.246461,3.89522,7.28286,0.0689494,0.737903,0.212346,0
2024-12-13 15:24:26.998,0.246461,3.89522,7.28286,0.0689494,0.737903,0.212346,0
2024-12-13 15:24:27.001,0.179462,4.02204,7.24218,0.0518457,0.755618,0.204405,0
2024-12-13 15:24:27.001,0.179462,4.02204,7.24218,0.0518457,0.755618,0.204405,0
2024-12-13 15:24:27.001,0.179462,4.02204,7.24218,0.0518457,0.755618,0.204405,0
2024-12-13 15:24:27.001,0.179462,4.02204,7.24218,0.0518457,0.755618,0.204405,0
2024-12-13 15:24:27.003,0.100499,4.14646,7.21825,0.0329094,0.764781,0.195853,0
2024-12-13 15:24:27.003,0.100499,4.14646,7.21825,0.0329094,0.764781,0.195853,0
2024-12-13 15:24:27.003,0.100499,4.14646,7.21825,0.0329094,0.764781,0.195853,0
2024-12-13 15:24:27.003,0.100499,4.14646,7.21825,0.0329094,0.764781,0.195853,0
2024-12-13 15:24:27.003,0.100499,4.14646,7.21825,0.0329094,0.764781,0.195853,0
2024-12-13 15:24:27.003,0.100499,4.14646,7.21825,0.0329094,0.764781,0.195853,0
2024-12-13 15:24:27.005,0.00239282,4.27837,7.21346,0.0121406,0.764781,0.188523,0
2024-12-13 15:24:27.005,0.00239282,4.27837,7.21346,0.0121406,0.764781,0.188523,0
2024-12-13 15:24:27.005,0.00239282,4.27837,7.21346,0.0121406,0.764781,0.188523,0
2024-12-13 15:24:27.005,0.00239282,4.27837,7.21346,0.0121406,0.764781,0.188523,0
2024-12-13 15:24:27.005,0.00239282,4.27837,7.21346,0.0121406,0.764781,0.188523,0
2024-12-13 15:24:27.008,-0.105284,4.4004,7.20628,-0.0171801,0.756229,0.17936,0
2024-12-13 15:24:27.008,-0.105284,4.4004,7.20628,-0.0171801,0.756229,0.17936,0
2024-12-13 15:24:27.008,-0.105284,4.4004,7.20628,-0.0171801,0.756229,0.17936,0
2024-12-13 15:24:27.008,-0.105284,4.4004,7.20628,-0.0171801,0.756229,0.17936,0
2024-12-13 15:24:27.008,-0.105284,4.4004,7.20628,-0.0171801,0.756229,0.17936,0
2024-12-13 15:24:27.008,-0.105284,4.4004,7.20628,-0.0171801,0.756229,0.17936,0
2024-12-13 15:24:27.008,-0.105284,4.4004,7.20628,-0.0171801,0.756229,0.17936,0
2024-12-13 15:24:27.010,-0.200997,4.54158,7.20628,-0.0519984,0.748288,0.17203,0
2024-12-13 15:24:27.010,-0.200997,4.54158,7.20628,-0.0519984,0.748288,0.17203,0
2024-12-13 15:24:27.010,-0.200997,4.54158,7.20628,-0.0519984,0.748288,0.17203,0
2024-12-13 15:24:27.010,-0.200997,4.54158,7.20628,-0.0519984,0.748288,0.17203,0
2024-12-13 15:24:27.010,-0.200997,4.54158,7.20628,-0.0519984,0.748288,0.17203,0
2024-12-13 15:24:27.010,-0.200997,4.54158,7.20628,-0.0519984,0.748288,0.17203,0
2024-12-13 15:24:27.012,-0.285045,4.71865,7.23261,-0.0910926,0.731184,0.1647,0
2024-12-13 15:24:27.012,-0.285045,4.71865,7.23261,-0.0910926,0.731184,0.1647,0
2024-12-13 15:24:27.012,-0.285045,4.71865,7.23261,-0.0910926,0.731184,0.1647,0
2024-12-13 15:24:27.012,-0.285045,4.71865,7.23261,-0.0910926,0.731184,0.1647,0
2024-12-13 15:24:27.012,-0.285045,4.71865,7.23261,-0.0910926,0.731184,0.1647,0
2024-12-13 15:24:27.015,-0.385544,4.92473,7.28046,-0.135074,0.699955,0.153704,0
2024-12-13 15:24:27.015,-0.385544,4.92473,7.28046,-0.135074,0.699955,0.153704,0
2024-12-13 15:24:27.015,-0.385544,4.92473,7.28046,-0.135074,0.699955,0.153704,0
2024-12-13 15:24:27.015,-0.385544,4.92473,7.28046,-0.135074,0.699955,0.153704,0
2024-12-13 15:24:27.015,-0.385544,4.92473,7.28046,-0.135074,0.699955,0.153704,0
2024-12-13 15:24:27.017,-0.507577,5.15205,7.35703,-0.177222,0.668191,0.142709,0
2024-12-13 15:24:27.017,-0.385544,4.92473,7.28046,-0.177222,0.668191,0.142709,0
2024-12-13 15:24:27.017,-0.507577,5.15205,7.35703,-0.177222,0.668191,0.142709,0
2024-12-13 15:24:27.017,-0.507577,5.15205,7.35703,-0.177222,0.668191,0.142709,0
2024-12-13 15:24:27.017,-0.507577,5.15205,7.35703,-0.177222,0.668191,0.142709,0
2024-12-13 15:24:27.017,-0.507577,5.15205,7.35703,-0.177222,0.668191,0.142709,0
2024-12-13 15:24:27.019,-0.641576,5.39881,7.48146,-0.224257,0.62421,0.130416,0
2024-12-13 15:24:27.019,-0.641576,5.39881,7.48146,-0.224257,0.62421,0.130416,0
2024-12-13 15:24:27.019,-0.641576,5.39881,7.48146,-0.224257,0.62421,0.130416,0
2024-12-13 15:24:27.019,-0.641576,5.39881,7.48146,-0.224257,0.62421,0.130416,0
2024-12-13 15:24:27.019,-0.641576,5.39881,7.48146,-0.224257,0.62421,0.130416,0
2024-12-13 15:24:27.019,-0.641576,5.39881,7.48146,-0.224257,0.62421,0.130416,0
2024-12-13 15:24:27.022,-0.775574,5.63091,7.63729,-0.271903,0.569844,0.113312,0
2024-12-13 15:24:27.022,-0.775574,5.63091,7.63729,-0.271903,0.569844,0.113312,0
2024-12-13 15:24:27.022,-0.775574,5.63091,7.63729,-0.271903,0.569844,0.113312,0
2024-12-13 15:24:27.022,-0.775574,5.63091,7.63729,-0.271903,0.569844,0.113312,0
2024-12-13 15:24:27.022,-0.775574,5.63091,7.63729,-0.271903,0.569844,0.113312,0
2024-12-13 15:24:27.022,-0.775574,5.63091,7.63729,-0.271903,0.569844,0.113312,0
2024-12-13 15:24:27.022,-0.775574,5.63091,7.63729,-0.271903,0.569844,0.113312,0
2024-12-13 15:24:27.024,-0.862014,5.82951,7.84307,-0.325658,0.501429,0.098041,0
2024-12-13 15:24:27.024,-0.862014,5.82951,7.84307,-0.325658,0.501429,0.098041,0
2024-12-13 15:24:27.024,-0.862014,5.82951,7.84307,-0.325658,0.501429,0.098041,0
2024-12-13 15:24:27.024,-0.862014,5.82951,7.84307,-0.325658,0.501429,0.098041,0
2024-12-13 15:24:27.027,-0.912264,5.99492,8.12303,-0.376358,0.426295,0.0772722,0
2024-12-13 15:24:27.027,-0.912264,5.99492,8.12303,-0.376358,0.426295,0.0772722,0
2024-12-13 15:24:27.027,-0.912264,5.99492,8.12303,-0.376358,0.426295,0.0772722,0
2024-12-13 15:24:27.027,-0.912264,5.99492,8.12303,-0.376358,0.426295,0.0772722,0
2024-12-13 15:24:27.027,-0.912264,5.99492,8.12303,-0.376358,0.426295,0.0772722,0
2024-12-13 15:24:27.027,-0.912264,5.99492,8.12303,-0.376358,0.426295,0.0772722,0
2024-12-13 15:24:27.028,-0.912264,5.99492,8.12303,-0.428891,0.3365,0.05406,0
2024-12-13 15:24:27.029,-0.926621,6.14088,8.45833,-0.428891,0.3365,0.05406,0
2024-12-13 15:24:27.029,-0.926621,6.14088,8.45833,-0.428891,0.3365,0.05406,0
2024-12-13 15:24:27.029,-0.926621,6.14088,8.45833,-0.428891,0.3365,0.05406,0
2024-12-13 15:24:27.029,-0.926621,6.14088,8.45833,-0.428891,0.3365,0.05406,0
2024-12-13 15:24:27.029,-0.926621,6.14088,8.45833,-0.428891,0.3365,0.05406,0
2024-12-13 15:24:27.029,-0.926621,6.14088,8.45833,-0.428891,0.3365,0.05406,0
2024-12-13 15:24:27.029,-0.926621,6.14088,8.45833,-0.428891,0.3365,0.05406,0
2024-12-13 15:24:27.029,-0.926621,6.14088,8.45833,-0.428891,0.3365,0.05406,0
2024-12-13 15:24:27.029,-0.926621,6.14088,8.45833,-0.428891,0.3365,0.05406,0
2024-12-13 15:24:27.029,-0.926621,6.14088,8.45833,-0.428891,0.3365,0.05406,0
2024-12-13 15:24:27.031,-0.871586,6.26291,8.81994,-0.480202,0.238765,0.0290152,0
2024-12-13 15:24:27.031,-0.871586,6.26291,8.81994,-0.480202,0.238765,0.0290152,0
2024-12-13 15:24:27.034,-0.761217,6.33709,9.25783,-0.530903,0.13431,-0.000916271,0
2024-12-13 15:24:27.034,-0.761217,6.33709,9.25783,-0.530903,0.13431,-0.000916271,0
2024-12-13 15:24:27.034,-0.761217,6.33709,9.25783,-0.530903,0.13431,-0.000916271,0
2024-12-13 15:24:27.036,-0.588933,6.36341,9.75823,-0.577938,0.0249684,-0.0369563,0
2024-12-13 15:24:27.036,-0.588933,6.36341,9.75823,-0.577938,0.0249684,-0.0369563,0
2024-12-13 15:24:27.036,-0.588933,6.36341,9.75823,-0.577938,0.0249684,-0.0369563,0
2024-12-13 15:24:27.036,-0.588933,6.36341,9.75823,-0.577938,0.0249684,-0.0369563,0
2024-12-13 15:24:27.036,-0.588933,6.36341,9.75823,-0.577938,0.0249684,-0.0369563,0
2024-12-13 15:24:27.036,-0.588933,6.36341,9.75823,-0.577938,0.0249684,-0.0369563,0
2024-12-13 15:24:27.038,-0.366401,6.34188,10.3161,-0.617032,-0.0874275,-0.0797156,0
2024-12-13 15:24:27.038,-0.366401,6.34188,10.3161,-0.617032,-0.0874275,-0.0797156,0
2024-12-13 15:24:27.038,-0.366401,6.34188,10.3161,-0.617032,-0.0874275,-0.0797156,0
2024-12-13 15:24:27.038,-0.366401,6.34188,10.3161,-0.617032,-0.0874275,-0.0797156,0
2024-12-13 15:24:27.038,-0.366401,6.34188,10.3161,-0.617032,-0.0874275,-0.0797156,0
2024-12-13 15:24:27.041,-0.124427,6.27009,10.9531,-0.654905,-0.204099,-0.124307,0
2024-12-13 15:24:27.041,-0.124427,6.27009,10.9531,-0.654905,-0.204099,-0.124307,0
2024-12-13 15:24:27.041,-0.124427,6.27009,10.9531,-0.654905,-0.204099,-0.124307,0
2024-12-13 15:24:27.041,-0.124427,6.27009,10.9531,-0.654905,-0.204099,-0.124307,0
2024-12-13 15:24:27.043,-0.124427,6.27009,11.6258,-0.68728,-0.320771,-0.173786,0
2024-12-13 15:24:27.043,0.117248,6.14567,11.6258,-0.68728,-0.320771,-0.173786,0
2024-12-13 15:24:27.043,0.117248,6.14567,11.6258,-0.68728,-0.320771,-0.173786,0
2024-12-13 15:24:27.043,0.117248,6.14567,11.6258,-0.68728,-0.320771,-0.173786,0
2024-12-13 15:24:27.043,0.117248,6.14567,11.6258,-0.68728,-0.320771,-0.173786,0
2024-12-13 15:24:27.043,0.117248,6.14567,11.6258,-0.68728,-0.320771,-0.173786,0
2024-12-13 15:24:27.045,0.364008,5.98535,12.332,-0.70927,-0.43561,-0.226319,0
2024-12-13 15:24:27.045,0.364008,5.98535,12.332,-0.70927,-0.43561,-0.226319,0
2024-12-13 15:24:27.045,0.364008,5.98535,12.332,-0.70927,-0.43561,-0.226319,0
2024-12-13 15:24:27.045,0.364008,5.98535,12.332,-0.70927,-0.43561,-0.226319,0
2024-12-13 15:24:27.045,0.364008,5.98535,12.332,-0.70927,-0.43561,-0.226319,0
2024-12-13 15:24:27.048,0.60329,5.81037,13.0884,-0.727595,-0.546785,-0.277019,0
2024-12-13 15:24:27.048,0.60329,5.81037,13.0884,-0.727595,-0.546785,-0.277019,0
2024-12-13 15:24:27.048,0.60329,5.81037,13.0884,-0.727595,-0.546785,-0.277019,0
2024-12-13 15:24:27.048,0.60329,5.81037,13.0884,-0.727595,-0.546785,-0.277019,0
2024-12-13 15:24:27.048,0.60329,5.81037,13.0884,-0.727595,-0.546785,-0.277019,0
2024-12-13 15:24:27.048,0.60329,5.81037,13.0884,-0.727595,-0.546785,-0.277019,0
2024-12-13 15:24:27.048,0.60329,5.81037,13.0884,-0.727595,-0.546785,-0.277019,0
2024-12-13 15:24:27.050,0.821037,5.61655,13.9002,-0.736758,-0.65124,-0.331385,0
2024-12-13 15:24:27.050,0.821037,5.61655,13.9002,-0.736758,-0.65124,-0.331385,0
2024-12-13 15:24:27.050,0.821037,5.61655,13.9002,-0.736758,-0.65124,-0.331385,0
2024-12-13 15:24:27.052,1.02233,5.42513,14.7428,-0.734926,-0.746532,-0.382085,0
2024-12-13 15:24:27.052,1.02233,5.42513,14.7428,-0.734926,-0.746532,-0.382085,0
2024-12-13 15:24:27.052,1.02233,5.42513,14.7428,-0.734926,-0.746532,-0.382085,0
2024-12-13 15:24:27.052,1.02233,5.42513,14.7428,-0.734926,-0.746532,-0.382085,0
2024-12-13 15:24:27.052,1.02233,5.42513,14.7428,-0.734926,-0.746532,-0.382085,0
2024-12-13 15:24:27.052,1.02233,5.42513,14.7428,-0.734926,-0.746532,-0.382085,0
2024-12-13 15:24:27.055,1.21854,5.23819,15.6168,-0.72393,-0.827774,-0.431564,0
2024-12-13 15:24:27.055,1.21854,5.23819,15.6168,-0.72393,-0.827774,-0.431564,0
2024-12-13 15:24:27.055,1.21854,5.23819,15.6168,-0.72393,-0.827774,-0.431564,0
2024-12-13 15:24:27.055,1.21854,5.23819,15.6168,-0.72393,-0.827774,-0.431564,0
2024-12-13 15:24:27.055,1.21854,5.23819,15.6168,-0.72393,-0.827774,-0.431564,0
2024-12-13 15:24:27.057,1.39322,5.05155,16.4761,-0.704383,-0.894357,-0.477988,0
2024-12-13 15:24:27.057,1.39322,5.05155,16.4761,-0.704383,-0.894357,-0.477988,0
2024-12-13 15:24:27.057,1.39322,5.05155,16.4761,-0.704383,-0.894357,-0.477988,0
2024-12-13 15:24:27.057,1.39322,5.05155,16.4761,-0.704383,-0.894357,-0.477988,0
2024-12-13 15:24:27.057,1.39322,5.05155,16.4761,-0.704383,-0.894357,-0.477988,0
2024-12-13 15:24:27.060,1.5347,4.88644,17.307,-0.672008,-0.938949,-0.523191,0
2024-12-13 15:24:27.060,1.5347,4.88644,17.307,-0.672008,-0.938949,-0.523191,0
2024-12-13 15:24:27.060,1.5347,4.88644,17.307,-0.672008,-0.938949,-0.523191,0
2024-12-13 15:24:27.060,1.5347,4.88644,17.307,-0.672008,-0.938949,-0.523191,0
2024-12-13 15:24:27.062,1.60648,4.77159,18.0873,-0.629249,-0.959717,-0.564728,0
2024-12-13 15:24:27.062,1.60648,4.77159,18.0873,-0.629249,-0.959717,-0.564728,0
2024-12-13 15:24:27.062,1.60648,4.77159,18.0873,-0.629249,-0.959717,-0.564728,0
2024-12-13 15:24:27.062,1.60648,4.77159,18.0873,-0.629249,-0.959717,-0.564728,0
2024-12-13 15:24:27.062,1.60648,4.77159,18.0873,-0.629249,-0.959717,-0.564728,0
2024-12-13 15:24:27.064,1.6017,4.68993,18.784,-0.574273,-0.949944,-0.603212,0
2024-12-13 15:24:27.064,1.6017,4.68993,18.784,-0.574273,-0.949944,-0.603212,0
2024-12-13 15:24:27.064,1.6017,4.68993,18.784,-0.574273,-0.949944,-0.603212,0
2024-12-13 15:24:27.064,1.6017,4.68993,18.784,-0.574273,-0.949944,-0.603212,0
2024-12-13 15:24:27.064,1.6017,4.68993,18.784,-0.574273,-0.949944,-0.603212,0
2024-12-13 15:24:27.067,1.53948,4.65643,19.3971,-0.510745,-0.910239,-0.634976,0
2024-12-13 15:24:27.067,1.53948,4.65643,19.3971,-0.510745,-0.910239,-0.634976,0
2024-12-13 15:24:27.067,1.53948,4.65643,19.3971,-0.510745,-0.910239,-0.634976,0
2024-12-13 15:24:27.067,1.53948,4.65643,19.3971,-0.510745,-0.910239,-0.634976,0
2024-12-13 15:24:27.067,1.53948,4.65643,19.3971,-0.510745,-0.910239,-0.634976,0
2024-12-13 15:24:27.069,1.38844,4.6995,19.8781,-0.439886,-0.841824,-0.663075,0
2024-12-13 15:24:27.069,1.38844,4.6995,19.8781,-0.439886,-0.841824,-0.663075,0
2024-12-13 15:24:27.069,1.38844,4.6995,19.8781,-0.439886,-0.841824,-0.663075,0
2024-12-13 15:24:27.069,1.38844,4.6995,19.8781,-0.439886,-0.841824,-0.663075,0
2024-12-13 15:24:27.069,1.38844,4.6995,19.8781,-0.439886,-0.841824,-0.663075,0
2024-12-13 15:24:27.069,1.38844,4.6995,19.8781,-0.439886,-0.841824,-0.663075,0
2024-12-13 15:24:27.071,1.15394,4.78355,20.211,-0.366585,-0.750197,-0.686898,0
2024-12-13 15:24:27.071,1.15394,4.78355,20.211,-0.366585,-0.750197,-0.686898,0
2024-12-13 15:24:27.071,1.15394,4.78355,20.211,-0.366585,-0.750197,-0.686898,0
2024-12-13 15:24:27.071,1.15394,4.78355,20.211,-0.366585,-0.750197,-0.686898,0
2024-12-13 15:24:27.071,1.15394,4.78355,20.211,-0.366585,-0.750197,-0.686898,0
2024-12-13 15:24:27.071,1.15394,4.78355,20.211,-0.366585,-0.750197,-0.686898,0
2024-12-13 15:24:27.071,1.15394,4.78355,20.211,-0.366585,-0.750197,-0.686898,0
2024-12-13 15:24:27.074,1.15394,4.78355,20.211,-0.293894,-0.638412,-0.700336,0
2024-12-13 15:24:27.074,0.862014,4.91994,20.4,-0.293894,-0.638412,-0.700336,0
2024-12-13 15:24:27.074,0.862014,4.91994,20.4,-0.293894,-0.638412,-0.700336,0
2024-12-13 15:24:27.076,0.529113,5.09701,20.4479,-0.225479,-0.51441,-0.71011,1
2024-12-13 15:24:27.076,0.529113,5.09701,20.4479,-0.225479,-0.51441,-0.71011,1
2024-12-13 15:24:27.076,0.529113,5.09701,20.4479,-0.225479,-0.51441,-0.71011,1
2024-12-13 15:24:27.076,0.529113,5.09701,20.4479,-0.225479,-0.51441,-0.71011,1
2024-12-13 15:24:27.076,0.529113,5.09701,20.4479,-0.225479,-0.51441,-0.71011,1
2024-12-13 15:24:27.076,0.529113,5.09701,20.4479,-0.225479,-0.51441,-0.71011,1
2024-12-13 15:24:27.078,0.189033,5.25494,20.3354,-0.165616,-0.387964,-0.711332,0
2024-12-13 15:24:27.078,0.189033,5.25494,20.3354,-0.165616,-0.387964,-0.711332,0
2024-12-13 15:24:27.078,0.189033,5.25494,20.3354,-0.165616,-0.387964,-0.711332,0
2024-12-13 15:24:27.078,0.189033,5.25494,20.3354,-0.165616,-0.387964,-0.711332,0
2024-12-13 15:24:27.078,0.189033,5.25494,20.3354,-0.165616,-0.387964,-0.711332,0
2024-12-13 15:24:27.078,0.189033,5.25494,20.3354,-0.165616,-0.387964,-0.711332,0
2024-12-13 15:24:27.081,-0.136391,5.4012,20.0698,-0.122857,-0.263962,-0.706445,0
2024-12-13 15:24:27.081,-0.136391,5.4012,20.0698,-0.122857,-0.263962,-0.706445,0
2024-12-13 15:24:27.081,-0.136391,5.4012,20.0698,-0.122857,-0.263962,-0.706445,0
2024-12-13 15:24:27.081,-0.136391,5.4012,20.0698,-0.122857,-0.263962,-0.706445,0
2024-12-13 15:24:27.081,-0.136391,5.4012,20.0698,-0.122857,-0.263962,-0.706445,0
2024-12-13 15:24:27.081,-0.136391,5.4012,20.0698,-0.122857,-0.263962,-0.706445,0
2024-12-13 15:24:27.083,-0.426222,5.52563,19.7345,-0.0862058,-0.149123,-0.704612,0
2024-12-13 15:24:27.085,-0.660718,5.58784,19.3923,-0.0660479,-0.0587177,-0.699115,0
2024-12-13 15:24:27.088,-0.816252,5.57587,19.057,-0.0611611,0.0164165,-0.697282,0
2024-12-13 15:24:27.090,-0.895514,5.54238,18.7576,-0.0709346,0.0671168,-0.699115,0
2024-12-13 15:24:27.093,-0.936192,5.49213,18.4681,-0.0862058,0.1056,-0.704612,0
2024-12-13 15:24:27.095,-0.96012,5.41556,18.1902,-0.110029,0.13431,-0.714386,0
2024-12-13 15:24:27.097,-1.00319,5.34856,17.9701,-0.141182,0.151414,-0.727214,0
2024-12-13 15:24:27.100,-1.06301,5.28844,17.805,-0.172335,0.169128,-0.735766,0
2024-12-13 15:24:27.102,-1.09173,5.21665,17.6611,-0.201656,0.181956,-0.744928,0
2024-12-13 15:24:27.104,-1.09412,5.12812,17.5534,-0.230366,0.193562,-0.752258,0
2024-12-13 15:24:27.107,-1.05823,5.0324,17.4649,-0.257854,0.208833,-0.756534,0
2024-12-13 15:24:27.109,-0.964906,4.92234,17.3716,-0.285342,0.224105,-0.761421,0
2024-12-13 15:24:27.111,-0.830609,4.8003,17.2687,-0.306722,0.24243,-0.765086,0
2024-12-13 15:24:27.114,-0.672682,4.67558,17.1706,-0.32749,0.264421,-0.769973,0
2024-12-13 15:24:27.116,-0.507577,4.55115,17.0794,-0.347648,0.287633,-0.778525,0
2024-12-13 15:24:27.118,-0.349651,4.45304,16.9669,-0.367196,0.312677,-0.788909,0
2024-12-13 15:24:27.121,-0.215354,4.37169,16.8449,-0.383078,0.340166,-0.799294,0
2024-12-13 15:24:27.123,-0.112463,4.31187,16.7396,-0.400792,0.368875,-0.816397,0
2024-12-13 15:24:27.125,-0.0334995,4.2664,16.6199,-0.414231,0.396364,-0.831669,0
2024-12-13 15:24:27.129,0.0239282,4.22333,16.4976,-0.436832,0.447675,-0.873206,0
2024-12-13 15:24:27.130,0.0765703,4.19193,16.3852,-0.436832,0.447675,-0.873206,0
2024-12-13 15:24:27.133,0.119641,4.15843,16.2847,-0.443551,0.470887,-0.900694,0
2024-12-13 15:24:27.135,0.12682,4.12732,16.1985,-0.444773,0.491656,-0.927572,0
2024-12-13 15:24:27.137,0.0957129,4.09143,16.1004,-0.445384,0.511203,-0.953227,0
2024-12-13 15:24:27.140,0.0478565,4.05075,16.0143,-0.438665,0.524641,-0.986213,0
2024-12-13 15:24:27.142,-0.00717847,3.99811,15.9302,-0.426448,0.535637,-1.02042,0
2024-12-13 15:24:27.147,-0.258425,3.89522,15.6814,-0.387964,0.54541,-1.08456,0
2024-12-13 15:24:27.147,-0.258425,3.89522,15.6814,-0.387964,0.54541,-1.08456,0
2024-12-13 15:24:27.149,-0.431007,3.82582,15.521,-0.362309,0.539302,-1.1151,0
2024-12-13 15:24:27.151,-0.624826,3.75883,15.3437,-0.328101,0.530139,-1.14442,0
2024-12-13 15:24:27.154,-0.828216,3.68704,15.1499,-0.328101,0.530139,-1.14442,0
2024-12-13 15:24:27.156,-1.05105,3.59342,14.9345,-0.260297,0.48005,-1.1884,0
2024-12-13 15:24:27.158,-1.28315,3.48814,14.6949,-0.225479,0.442788,-1.2049,0
2024-12-13 15:24:27.161,-1.5012,3.38525,14.4389,-0.189439,0.396974,-1.21589,0
2024-12-13 15:24:27.163,-1.72612,3.28953,14.1419,-0.155232,0.344442,-1.22017,0
2024-12-13 15:24:27.166,-1.97049,3.19621,13.8332,-0.122857,0.289465,-1.21833,0
2024-12-13 15:24:27.168,-2.21216,3.11246,13.5242,-0.0965902,0.232656,-1.21223,0
2024-12-13 15:24:27.170,-2.42752,3.04277,13.218,-0.0739889,0.173404,-1.19634,0
2024-12-13 15:24:27.173,-2.61207,2.95424,12.9233,-0.0532201,0.111709,-1.1768,0
2024-12-13 15:24:27.175,-2.79871,2.8681,12.6239,-0.0355055,0.0475697,-1.14809,0
2024-12-13 15:24:27.177,-2.98295,2.81545,12.3512,-0.0232886,-0.013515,-1.1151,0
2024-12-13 15:24:27.180,-3.14836,2.76999,12.1071,-0.0165692,-0.0721563,-1.07479,0
2024-12-13 15:24:27.182,-3.28475,2.72213,11.8843,-0.0110716,-0.127743,-1.03142,0
2024-12-13 15:24:27.187,-3.44028,2.70778,11.5588,-0.00923906,-0.221203,-0.931237,0
2024-12-13 15:24:27.187,-3.44028,2.70778,11.5588,-0.00923906,-0.221203,-0.931237,0
2024-12-13 15:24:27.189,-3.48096,2.71496,11.4126,-0.00923906,-0.256021,-0.87626,0
2024-12-13 15:24:27.191,-3.5001,2.72692,11.2977,-0.0104608,-0.282899,-0.820673,0
2024-12-13 15:24:27.196,-3.44507,2.76042,11.1015,-0.0116825,-0.3055,-0.707056,0
2024-12-13 15:24:27.196,-3.44507,2.76042,11.1015,-0.0116825,-0.3055,-0.707056,0
2024-12-13 15:24:27.199,-3.37089,2.75563,11.013,-0.0122933,-0.3055,-0.654523,0
2024-12-13 15:24:27.201,-3.27518,2.7676,10.9337,-0.0122933,-0.29817,-0.601379,0
2024-12-13 15:24:27.206,-3.04038,2.79631,10.759,-0.0147367,-0.279234,-0.551901,0
2024-12-13 15:24:27.208,-2.91595,2.79871,10.6537,-0.0147367,-0.223646,-0.46516,0
2024-12-13 15:24:27.208,-2.91595,2.79871,10.6537,-0.0147367,-0.223646,-0.46516,0
2024-12-13 15:24:27.210,-2.78913,2.80588,10.5341,-0.0159584,-0.186385,-0.425455,0
2024-12-13 15:24:27.213,-2.65753,2.80828,10.4312,-0.0171801,-0.143625,-0.389415,0
2024-12-13 15:24:27.215,-2.54267,2.80588,10.3328,-0.0177909,-0.0965902,-0.35704,0
2024-12-13 15:24:27.217,-2.4323,2.80349,10.2251,-0.0165692,-0.0483333,-0.328941,0
2024-12-13 15:24:27.220,-2.32702,2.80588,10.1222,-0.0141258,0.00603212,-0.302064,0
2024-12-13 15:24:27.222,-2.21695,2.79392,10.0265,-0.0141258,0.0610084,-0.278852,0
2024-12-13 15:24:27.227,-2.00399,2.77238,9.85903,-0.00557398,0.170961,-0.239147,0
2024-12-13 15:24:27.227,-2.00399,2.77238,9.85903,-0.00557398,0.170961,-0.239147,0
2024-12-13 15:24:27.229,-1.92951,2.75085,9.7678,0.00175619,0.225326,-0.224486,0
2024-12-13 15:24:27.231,-1.86012,2.72931,9.66252,0.010308,0.277859,-0.210437,0
2024-12-13 15:24:27.234,-1.78116,2.7006,9.54527,0.0206925,0.326727,-0.200052,0
2024-12-13 15:24:27.236,-1.73091,2.65035,9.42084,0.0316877,0.37193,-0.191501,0
2024-12-13 15:24:27.239,-1.69741,2.60249,9.28684,0.0432938,0.409191,-0.181727,0
2024-12-13 15:24:27.241,-1.67827,2.56182,9.16451,0.0561216,0.439734,-0.175008,0
2024-12-13 15:24:27.243,-1.6663,2.52832,9.0353,0.0683385,0.464168,-0.168899,0
2024-12-13 15:24:27.246,-1.65194,2.50409,8.88694,0.0817772,0.478828,-0.163402,0
2024-12-13 15:24:27.248,-1.6328,2.47059,8.73141,0.0939941,0.48738,-0.158515,0
2024-12-13 15:24:27.250,-1.63998,2.4323,8.60668,0.106822,0.485547,-0.155461,0
2024-12-13 15:24:27.253,-1.66869,2.40359,8.50379,0.11965,0.481271,-0.150574,0
2024-12-13 15:24:27.257,-1.68784,2.38206,8.40329,0.147138,0.450729,-0.142022,0
2024-12-13 15:24:27.257,-1.72373,2.36531,8.32194,0.147138,0.450729,-0.142022,0
2024-12-13 15:24:27.260,-1.78116,2.33659,8.26451,0.161187,0.427517,-0.137135,0
2024-12-13 15:24:27.262,-1.82901,2.30788,8.21905,0.17768,0.400639,-0.131027,0
2024-12-13 15:24:27.264,-1.87208,2.30309,8.18315,0.197227,0.368875,-0.12614,0
2024-12-13 15:24:27.267,-1.91037,2.27677,8.17598,0.218607,0.335279,-0.120642,0
2024-12-13 15:24:27.269,-1.93908,2.25763,8.16401,0.241208,0.297406,-0.110869,0
2024-12-13 15:24:27.272,-1.98006,2.24088,8.14248,0.266864,0.261977,-0.10476,0
2024-12-13 15:24:27.274,-2.0327,2.22174,8.13769,0.295574,0.223494,-0.0968193,0
2024-12-13 15:24:27.276,-2.08056,2.21934,8.15205,0.324894,0.18501,-0.0870457,0
2024-12-13 15:24:27.281,-2.15952,2.18345,8.11825,0.324894,0.18501,-0.0870457,0
2024-12-13 15:24:27.283,-2.19063,2.15713,8.08714,0.423928,0.0628409,-0.0577251,0
2024-12-13 15:24:27.283,-2.19063,2.15713,8.08714,0.423928,0.0628409,-0.0577251,0
2024-12-13 15:24:27.286,-2.22174,2.12602,8.04886,0.459357,0.0206925,-0.0479515,0
2024-12-13 15:24:27.288,-2.25284,2.09492,7.99621,0.489289,-0.0232886,-0.0387888,0
2024-12-13 15:24:27.290,-2.28873,2.04467,7.93879,0.524107,-0.0642153,-0.0271827,0
2024-12-13 15:24:27.293,-2.31984,2.01356,7.867,0.55526,-0.104531,-0.01802,0
2024-12-13 15:24:27.295,-2.35813,1.99442,7.7689,0.580916,-0.144236,-0.0051922,0
2024-12-13 15:24:27.297,-2.40598,1.97528,7.66601,0.607182,-0.18272,0.00946813,0
2024-12-13 15:24:27.300,-2.44427,1.9657,7.56282,0.629173,-0.219981,0.0229068,0
2024-12-13 15:24:27.302,-2.48973,1.95823,7.46949,0.646887,-0.252356,0.0406213,0
2024-12-13 15:24:27.304,-2.52084,1.94865,7.38814,0.659715,-0.281066,0.0595576,0
2024-12-13 15:24:27.307,-2.53071,1.94387,7.31396,0.671932,-0.304278,0.0760505,0
2024-12-13 15:24:27.309,-2.53071,1.93191,7.23021,0.681095,-0.323825,0.098041,0
2024-12-13 15:24:27.312,-2.52323,1.91994,7.14646,0.688425,-0.340929,0.121864,0
2024-12-13 15:24:27.314,-2.49691,1.90798,7.07707,0.693922,-0.355589,0.142709,0
2024-12-13 15:24:27.316,-2.45623,1.89841,7.02682,0.694533,-0.365974,0.164089,0
2024-12-13 15:24:27.319,-2.42034,1.90319,6.98585,0.691479,-0.372693,0.185468,0
2024-12-13 15:24:27.321,-2.38445,1.89362,6.92842,0.687203,-0.376969,0.206848,0
2024-12-13 15:24:27.323,-2.35573,1.9008,6.87338,0.681706,-0.376358,0.227617,0
2024-12-13 15:24:27.326,-2.32223,1.93191,6.84945,0.673765,-0.374526,0.247164,0
2024-12-13 15:24:27.328,-2.27677,1.94865,6.80638,0.66338,-0.369028,0.267933,0
2024-12-13 15:24:27.330,-2.22652,1.97767,6.74896,0.651163,-0.36353,0.289313,0
2024-12-13 15:24:27.333,-2.17866,2.01117,6.71067,0.637114,-0.358644,0.310081,0
2024-12-13 15:24:27.337,-2.11406,2.07817,6.68674,0.59863,-0.353146,0.346121,0
2024-12-13 15:24:27.337,-2.11406,2.07817,6.68674,0.59863,-0.353146,0.346121,0
2024-12-13 15:24:27.340,-2.0686,2.10927,6.68435,0.579694,-0.354368,0.364447,0
2024-12-13 15:24:27.342,-1.9681,2.1332,6.71546,0.555871,-0.359865,0.380329,0
2024-12-13 15:24:27.345,-1.85773,2.15952,6.77288,0.53327,-0.365363,0.394378,0
2024-12-13 15:24:27.347,-1.75962,2.2002,6.82313,0.507003,-0.375137,0.405374,0
2024-12-13 15:24:27.349,-1.65194,2.23849,6.87578,0.481348,-0.383078,0.413925,0
2024-12-13 15:24:27.352,-1.55862,2.26481,6.9332,0.456303,-0.386132,0.421866,0
2024-12-13 15:24:27.354,-1.45095,2.30788,7.00738,0.431258,-0.389186,0.427364,0
2024-12-13 15:24:27.356,-1.33101,2.35334,7.09861,0.406824,-0.389797,0.431029,0
2024-12-13 15:24:27.359,-1.22333,2.38923,7.21346,0.384834,-0.391019,0.43164,0
2024-12-13 15:24:27.361,-1.11565,2.42752,7.32832,0.363989,-0.392851,0.432862,0
2024-12-13 15:24:27.363,-0.991227,2.45863,7.436,0.363989,-0.392851,0.432862,0
2024-12-13 15:24:27.366,-0.871586,2.48734,7.56282,0.321229,-0.395905,0.428586,0
2024-12-13 15:24:27.368,-0.74686,2.5331,7.67797,0.30718,-0.395295,0.425531,0
2024-12-13 15:24:27.370,-0.629611,2.58335,7.76411,0.291298,-0.39224,0.418812,0
2024-12-13 15:24:27.373,-0.517149,2.62881,7.84307,0.276637,-0.384299,0.412093,0
2024-12-13 15:24:27.375,-0.395115,2.67906,7.93161,0.263199,-0.375137,0.400487,0
2024-12-13 15:24:27.378,-0.301795,2.72931,8.02254,0.249149,-0.364141,0.390713,0
2024-12-13 15:24:27.380,-0.224925,2.78674,8.10629,0.239987,-0.351924,0.379107,0
2024-12-13 15:24:27.382,-0.150748,2.83938,8.16401,0.225326,-0.340318,0.362003,0
2024-12-13 15:24:27.385,-0.081356,2.88485,8.20708,0.217385,-0.32688,0.34551,0
2024-12-13 15:24:27.387,-0.0143569,2.9327,8.24298,0.205779,-0.311608,0.329018,0
2024-12-13 15:24:27.389,0.0550349,2.98056,8.2669,0.19906,-0.293283,0.307027,0
2024-12-13 15:24:27.392,0.11007,3.02363,8.28605,0.188675,-0.274958,0.284426,0
2024-12-13 15:24:27.394,0.153141,3.0667,8.29083,0.179513,-0.255411,0.261214,0
2024-12-13 15:24:27.396,0.165105,3.12443,8.28126,0.167907,-0.238918,0.238001,0
2024-12-13 15:24:27.399,0.160319,3.17707,8.25255,0.157522,-0.221814,0.212957,0
2024-12-13 15:24:27.401,0.150748,3.22971,8.23819,0.144694,-0.206543,0.187301,0
2024-12-13 15:24:27.403,0.100499,3.28235,8.24537,0.132477,-0.194326,0.162256,0
2024-12-13 15:24:27.406,0.040678,3.31585,8.25015,0.118428,-0.183941,0.137212,0
2024-12-13 15:24:27.408,-0.0191426,3.37089,8.24298,0.106211,-0.179665,0.109036,0
2024-12-13 15:24:27.410,-0.0837488,3.41875,8.23101,0.0958267,-0.176611,0.085824,0
2024-12-13 15:24:27.413,-0.165105,3.45224,8.22862,0.0836097,-0.174168,0.0607793,0
2024-12-13 15:24:27.415,-0.263211,3.48335,8.2358,0.0732253,-0.176,0.038178,0
2024-12-13 15:24:27.418,-0.373579,3.50489,8.24058,0.0634518,-0.178444,0.0161875,0
2024-12-13 15:24:27.420,-0.481256,3.51207,8.25255,0.0518457,-0.186996,-0.00152712,0
2024-12-13 15:24:27.422,-0.584148,3.51207,8.25494,0.0439046,-0.194326,-0.0216851,0
2024-12-13 15:24:27.425,-0.696611,3.52882,8.27169,0.0439046,-0.194326,-0.0216851,0
2024-12-13 15:24:27.427,-0.801895,3.52642,8.30758,0.0249684,-0.21876,-0.0479515,0
2024-12-13 15:24:27.429,-0.893121,3.51207,8.32912,0.0170274,-0.232198,-0.0577251,0
2024-12-13 15:24:27.432,-0.986441,3.50967,8.36501,0.00664296,-0.245026,-0.0644444,0
2024-12-13 15:24:27.434,-1.07498,3.51207,8.40569,0.00175619,-0.259076,-0.0693312,0
2024-12-13 15:24:27.437,-1.13719,3.50728,8.45833,-0.00251974,-0.273736,-0.0705529,0
2024-12-13 15:24:27.439,-1.18983,3.49532,8.52293,-0.00618483,-0.285953,-0.0705529,0
2024-12-13 15:24:27.441,-1.22333,3.47378,8.58754,-0.00923906,-0.29817,-0.0681095,0
2024-12-13 15:24:27.443,-1.25444,3.44985,8.65215,-0.0104608,-0.306111,-0.0650552,0
2024-12-13 15:24:27.446,-1.2999,3.42832,8.70987,-0.0104608,-0.311608,-0.0601685,0
2024-12-13 15:24:27.448,-1.33579,3.41157,8.76252,-0.00740652,-0.314052,-0.0528383,0
2024-12-13 15:24:27.451,-1.36929,3.40678,8.81755,-0.00251974,-0.314663,-0.046119,0
2024-12-13 15:24:27.455,-1.41266,3.39721,8.93001,0.00908635,-0.310998,-0.0271827,0
2024-12-13 15:24:27.455,-1.41266,3.39721,8.93001,0.00908635,-0.310998,-0.0271827,0
2024-12-13 15:24:27.458,-1.41027,3.40439,8.95634,0.0170274,-0.307333,-0.0167983,0
2024-12-13 15:24:27.460,-1.41506,3.39003,8.98266,0.0255792,-0.300613,-0.00702474,0
2024-12-13 15:24:27.462,-1.41027,3.3685,8.98266,0.0353528,-0.289618,0.00397051,0
2024-12-13 15:24:27.465,-1.41506,3.37567,8.94437,0.0451263,-0.278623,0.0143549,0
2024-12-13 15:24:27.467,-1.41506,3.38046,8.91805,0.0536782,-0.265184,0.0241285,0
2024-12-13 15:24:27.469,-1.42463,3.3661,8.88694,0.0640626,-0.250524,0.0332912,0
2024-12-13 15:24:27.472,-1.44138,3.35653,8.83909,0.0695602,-0.238307,0.0448973,0
2024-12-13 15:24:27.476,-1.42702,3.32782,8.71227,0.0854423,-0.213873,0.0668878,0
2024-12-13 15:24:27.476,-1.42702,3.32782,8.71227,0.0854423,-0.213873,0.0668878,0
2024-12-13 15:24:27.479,-1.41506,3.30868,8.66411,0.0927724,-0.204099,0.0791047,0
2024-12-13 15:24:27.481,-1.4004,3.3015,8.61625,0.100713,-0.194937,0.0919325,0
2024-12-13 15:24:27.483,-1.36211,3.30628,8.55883,0.109265,-0.185774,0.101095,0
2024-12-13 15:24:27.488,-1.3334,3.28475,8.42244,0.12698,-0.166227,0.123697,0
2024-12-13 15:24:27.488,-1.3334,3.28475,8.42244,0.12698,-0.166227,0.123697,0
2024-12-13 15:24:27.491,-1.32622,3.28235,8.36501,0.136143,-0.158897,0.136601,0
2024-12-13 15:24:27.494,-1.32622,3.27518,8.28605,0.145305,-0.151566,0.148207,0
2024-12-13 15:24:27.498,-1.31186,3.27278,8.12064,0.162409,-0.136906,0.170197,0
2024-12-13 15:24:27.500,-1.32861,3.27039,8.0345,0.170961,-0.131409,0.182414,0
2024-12-13 15:24:27.500,-1.32861,3.27039,8.0345,0.170961,-0.131409,0.182414,0
2024-12-13 15:24:27.502,-1.32861,3.27278,7.94836,0.180124,-0.130187,0.194631,0
2024-12-13 15:24:27.505,-1.31904,3.27996,7.86222,0.180124,-0.130187,0.194631,0
2024-12-13 15:24:27.507,-1.31426,3.27518,7.77847,0.196616,-0.126522,0.216622,0
2024-12-13 15:24:27.509,-1.32861,3.25603,7.70908,0.203947,-0.126522,0.227617,0
2024-12-13 15:24:27.512,-1.33819,3.24168,7.64208,0.211888,-0.127133,0.237391,0
2024-12-13 15:24:27.514,-1.31904,3.22732,7.55324,0.211888,-0.127133,0.237391,0
2024-12-13 15:24:27.516,-1.29751,3.21536,7.45275,0.229602,-0.13263,0.25877,0
2024-12-13 15:24:27.519,-1.28315,3.21296,7.37617,0.236932,-0.13263,0.271598,0
2024-12-13 15:24:27.521,-1.27358,3.201,7.32832,0.243652,-0.135074,0.282593,0
2024-12-13 15:24:27.524,-1.24726,3.18186,7.2685,0.251593,-0.138739,0.292978,0
2024-12-13 15:24:27.526,-1.2018,3.16271,7.19432,0.259534,-0.141182,0.302751,0
2024-12-13 15:24:27.528,-1.16351,3.134,7.12971,0.266864,-0.143015,0.312525,0
2024-12-13 15:24:27.531,-1.11565,3.10529,7.04597,0.273583,-0.145458,0.319855,0
2024-12-13 15:24:27.533,-1.07019,3.08345,6.9332,0.279081,-0.145458,0.329018,0
2024-12-13 15:24:27.535,-1.02951,3.05952,6.85185,0.287022,-0.14668,0.336348,0
2024-12-13 15:24:27.538,-0.99362,3.04756,6.77767,0.291298,-0.145458,0.342456,0
2024-12-13 15:24:27.540,-0.952942,3.03799,6.7011,0.293741,-0.146069,0.349176,0
2024-12-13 15:24:27.542,-0.895514,3.01645,6.6341,0.297406,-0.147291,0.354673,0
2024-12-13 15:24:27.545,-0.842872,3.00449,6.5671,0.296795,-0.147901,0.360782,0
2024-12-13 15:24:27.547,-0.801895,2.98535,6.5025,0.295574,-0.146069,0.364447,0
2024-12-13 15:24:27.549,-0.751645,2.96142,6.42563,0.294352,-0.145458,0.36689,0
2024-12-13 15:24:27.553,-0.706182,2.95902,6.37059,0.290076,-0.138739,0.374831,0
2024-12-13 15:24:27.554,-0.660718,2.97099,6.32513,0.290076,-0.138739,0.374831,0
2024-12-13 15:24:27.557,-0.60329,2.97577,6.29641,0.287633,-0.135074,0.375442,0
2024-12-13 15:24:27.559,-0.548256,2.98295,6.28445,0.2858,-0.1253,0.379718,0
2024-12-13 15:24:27.561,-0.498006,2.98295,6.27249,0.283357,-0.116137,0.379107,0
2024-12-13 15:24:27.564,-0.438186,2.98774,6.25813,0.283357,-0.116137,0.379107,0
2024-12-13 15:24:27.566,-0.387936,2.99252,6.23899,0.282746,-0.0947577,0.377275,0
2024-12-13 15:24:27.568,-0.354437,2.99731,6.2342,0.284578,-0.0843733,0.374831,0
2024-12-13 15:24:27.571,-0.335294,2.99013,6.20549,0.285189,-0.073378,0.371166,0
2024-12-13 15:24:27.573,-0.30658,2.98295,6.17438,0.287633,-0.0642153,0.365668,0
2024-12-13 15:24:27.575,-0.275175,3.01167,6.15763,0.288244,-0.0507767,0.362003,0
2024-12-13 15:24:27.578,-0.265603,3.02602,6.11456,0.290076,-0.0379489,0.355284,0
2024-12-13 15:24:27.580,-0.263211,3.03799,6.08345,0.29313,-0.0238994,0.349786,0
2024-12-13 15:24:27.582,-0.272782,3.08584,6.04756,0.293741,-0.00801737,0.342456,0
2024-12-13 15:24:27.585,-0.275175,3.11725,5.97578,0.295574,0.00725381,0.334515,0
2024-12-13 15:24:27.587,-0.27996,3.12682,5.91117,0.294963,0.022525,0.329628,0
2024-12-13 15:24:27.589,-0.277567,3.13639,5.84387,0.294963,0.038407,0.322298,0
2024-12-13 15:24:27.592,-0.270389,3.12921,5.75773,0.291298,0.0579541,0.316801,0
2024-12-13 15:24:27.597,-0.282652,3.11964,5.67398,0.282135,0.094605,0.303973,0
2024-12-13 15:24:27.597,-0.299402,3.10768,5.58066,0.282135,0.094605,0.303973,0
2024-12-13 15:24:27.599,-0.311366,3.10529,5.47777,0.270529,0.109265,0.297254,0
2024-12-13 15:24:27.601,-0.332901,3.10289,5.39881,0.262588,0.123926,0.293588,0
2024-12-13 15:24:27.604,-0.347258,3.10529,5.31954,0.252204,0.13431,0.289923,0
2024-12-13 15:24:27.606,-0.354437,3.11486,5.2358,0.237543,0.143473,0.285647,0
2024-12-13 15:24:27.608,-0.371187,3.12682,5.19272,0.223494,0.14897,0.285037,0
2024-12-13 15:24:27.611,-0.395115,3.15314,5.17597,0.207001,0.152635,0.284426,0
2024-12-13 15:24:27.613,-0.431007,3.18664,5.1329,0.191119,0.157522,0.281982,0
2024-12-13 15:24:27.615,-0.462114,3.22732,5.10658,0.173404,0.161187,0.282593,0
2024-12-13 15:24:27.618,-0.486042,3.29193,5.09701,0.158744,0.166074,0.283815,0
2024-12-13 15:24:27.620,-0.500399,3.3685,5.08505,0.142862,0.173404,0.285037,0
2024-12-13 15:24:27.622,-0.512363,3.42592,5.08265,0.128812,0.179513,0.285037,0
2024-12-13 15:24:27.625,-0.529113,3.49053,5.07308,0.113541,0.186232,0.284426,0
2024-12-13 15:24:27.627,-0.536291,3.55992,5.04676,0.0988809,0.195395,0.284426,0
2024-12-13 15:24:27.630,-0.524327,3.62931,5.0324,0.0842206,0.204557,0.283204,0
2024-12-13 15:24:27.632,-0.50997,3.699,5.00848,0.0671168,0.208833,0.278317,0
2024-12-13 15:24:27.634,-0.498006,3.75404,4.97976,0.0500131,0.216164,0.272209,0
2024-12-13 15:24:27.637,-0.454935,3.79711,4.96301,0.0329094,0.218607,0.266711,0
2024-12-13 15:24:27.639,-0.419043,3.85215,4.94387,0.014584,0.219218,0.255716,0
2024-12-13 15:24:27.641,-0.3999,3.92632,4.91276,-0.00374144,0.217385,0.245332,0
2024-12-13 15:24:27.646,-0.366401,3.98375,4.89123,-0.0477224,0.205168,0.217843,0
2024-12-13 15:24:27.646,-0.347258,4.04836,4.89123,-0.0477224,0.205168,0.217843,0
2024-12-13 15:24:27.648,-0.330509,4.11775,4.89841,-0.073378,0.196006,0.201961,0
2024-12-13 15:24:27.651,-0.311366,4.17757,4.90798,-0.0996445,0.185621,0.186079,0
2024-12-13 15:24:27.653,-0.289831,4.2329,4.92234,-0.127133,0.17035,0.168365,0
2024-12-13 15:24:27.655,-0.239282,4.28315,4.96301,-0.151566,0.15569,0.148207,0
2024-12-13 15:24:27.658,-0.184247,4.32383,5.03719,-0.181498,0.135532,0.12614,0
2024-12-13 15:24:27.660,-0.129212,4.33819,5.13051,-0.207154,0.11293,0.102928,0
2024-12-13 15:24:27.663,-0.0550349,4.35015,5.23819,-0.237085,0.0891073,0.0754396,0
2024-12-13 15:24:27.665,0.00239282,4.35733,5.36531,-0.264573,0.0622301,0.0479515,0
2024-12-13 15:24:27.667,0.0382852,4.34537,5.52084,-0.289618,0.0359636,0.0174091,0
2024-12-13 15:24:27.670,0.0789631,4.34058,5.71705,-0.315884,0.00603212,-0.0113007,0
2024-12-13 15:24:27.672,0.129212,4.32862,5.9351,-0.340318,-0.0232886,-0.0455081,0
2024-12-13 15:24:27.674,0.155533,4.32383,6.15763,-0.359865,-0.0550526,-0.0754396,0
2024-12-13 15:24:27.677,0.153141,4.30947,6.38256,-0.379413,-0.0843733,-0.102928,0
2024-12-13 15:24:27.679,0.138784,4.29751,6.61735,-0.395905,-0.115526,-0.136524,0
2024-12-13 15:24:27.681,0.105284,4.3023,6.8686,-0.408733,-0.144236,-0.164012,0
2024-12-13 15:24:27.684,0.066999,4.28555,7.12732,-0.418507,-0.169892,-0.187836,0
2024-12-13 15:24:27.686,0.0287139,4.26401,7.3666,-0.425837,-0.193104,-0.208604,0
2024-12-13 15:24:27.688,-0.0143569,4.27119,7.58226,-0.430113,-0.217538,-0.228151,0
2024-12-13 15:24:27.691,-0.0646062,4.26162,7.80718,-0.432556,-0.239528,-0.247699,0
2024-12-13 15:24:27.693,-0.124427,4.24247,8.068,-0.430724,-0.261519,-0.26297,0
2024-12-13 15:24:27.695,-0.165105,4.24008,8.34108,-0.426448,-0.279844,-0.274576,0
2024-12-13 15:24:27.698,-0.181855,4.24247,8.6019,-0.416674,-0.301835,-0.288014,0
2024-12-13 15:24:27.700,-0.184247,4.23051,8.86062,-0.408122,-0.319549,-0.299621,0
2024-12-13 15:24:27.705,-0.143569,4.19671,9.34906,-0.375137,-0.34887,-0.322222,0
2024-12-13 15:24:27.705,-0.143569,4.19671,9.34906,-0.375137,-0.34887,-0.322222,0
2024-12-13 15:24:27.707,-0.122034,4.18475,9.5692,-0.357422,-0.360476,-0.333828,0
2024-12-13 15:24:27.710,-0.0957129,4.18953,9.75105,-0.340929,-0.369639,-0.346656,0
2024-12-13 15:24:27.712,-0.0837488,4.18953,9.9332,-0.320771,-0.373304,-0.360705,0
2024-12-13 15:24:27.714,-0.0717847,4.18953,10.1222,-0.299392,-0.375137,-0.373533,0
2024-12-13 15:24:27.717,-0.0717847,4.20389,10.3232,-0.275568,-0.371471,-0.388804,0
2024-12-13 15:24:27.719,-0.0909273,4.23769,10.5102,-0.253578,-0.366585,-0.401021,0
2024-12-13 15:24:27.721,-0.133998,4.27597,10.6514,-0.230977,-0.354368,-0.411406,0
2024-12-13 15:24:27.726,-0.184247,4.30469,10.9361,-0.181498,-0.324436,-0.430953,0
2024-12-13 15:24:27.726,-0.251246,4.34537,10.9361,-0.181498,-0.324436,-0.430953,0
2024-12-13 15:24:27.728,-0.361615,4.4004,11.0178,-0.157675,-0.301835,-0.437061,0
2024-12-13 15:24:27.731,-0.498006,4.45304,11.08,-0.13263,-0.273125,-0.440726,0
2024-12-13 15:24:27.733,-0.632004,4.52483,11.1159,-0.111861,-0.238307,-0.441948,0
2024-12-13 15:24:27.736,-0.768395,4.62293,11.1302,-0.0904818,-0.200434,-0.440726,0
2024-12-13 15:24:27.738,-0.905085,4.72582,11.1159,-0.0721563,-0.158897,-0.434618,0
2024-12-13 15:24:27.740,-1.0343,4.84577,11.0871,-0.0587177,-0.114916,-0.424844,0
2024-12-13 15:24:27.743,-1.14676,4.96541,11.0273,-0.0452791,-0.0684913,-0.416903,0
2024-12-13 15:24:27.745,-1.24008,5.07069,10.9409,-0.0385597,-0.0238994,-0.408962,0
2024-12-13 15:24:27.747,-1.30947,5.19272,10.8236,-0.0348946,0.0206925,-0.397356,0
2024-12-13 15:24:27.750,-1.33579,5.29801,10.6872,-0.037338,0.0591758,-0.389415,0
2024-12-13 15:24:27.752,-1.33101,5.37966,10.5556,-0.0465007,0.0939941,-0.383918,0
2024-12-13 15:24:27.754,-1.29272,5.45384,10.4049,-0.0623828,0.123315,-0.379642,0
2024-12-13 15:24:27.757,-1.22812,5.51366,10.2538,-0.0843733,0.146527,-0.380863,0
2024-12-13 15:24:27.759,-1.18265,5.5663,10.0959,-0.117359,0.167907,-0.386972,0
2024-12-13 15:24:27.761,-1.16112,5.60937,9.94517,-0.155232,0.183178,-0.39308,0
2024-12-13 15:24:27.766,-1.13719,5.6357,9.67927,-0.251135,0.189286,-0.411406,0
2024-12-13 15:24:27.766,-1.10608,5.6692,9.67927,-0.251135,0.189286,-0.411406,0
2024-12-13 15:24:27.768,-1.07737,5.69791,9.59313,-0.314663,0.175237,-0.422401,0
2024-12-13 15:24:27.771,-1.05583,5.71705,9.5692,-0.380023,0.147138,-0.435229,0
2024-12-13 15:24:27.773,-1.0343,5.75055,9.57877,-0.452714,0.108654,-0.448056,0
2024-12-13 15:24:27.776,-0.99362,5.76252,9.63141,-0.530903,0.0597867,-0.460273,0
2024-12-13 15:24:27.778,-0.919442,5.73141,9.75584,-0.612756,0.00603212,-0.473712,0
2024-12-13 15:24:27.780,-0.797109,5.67159,9.94756,-0.692166,-0.0513875,-0.487762,0
2024-12-13 15:24:27.783,-0.641576,5.58305,10.2012,-0.772798,-0.112472,-0.504865,0
2024-12-13 15:24:27.785,-0.486042,5.4682,10.5317,-0.850376,-0.171114,-0.521969,0
2024-12-13 15:24:27.787,-0.32333,5.35574,10.9193,-0.922456,-0.229144,-0.540294,0
2024-12-13 15:24:27.790,-0.16989,5.23101,11.3312,-0.990871,-0.281066,-0.561063,0
2024-12-13 15:24:27.792,-0.0526421,5.11855,11.7574,-1.05196,-0.331156,-0.58061,0
2024-12-13 15:24:27.794,0.0646062,5.02523,12.186,-1.10815,-0.372082,-0.599547,0
2024-12-13 15:24:27.797,0.172283,4.93669,12.5856,-1.15824,-0.40629,-0.619094,0
2024-12-13 15:24:27.799,0.248854,4.88644,12.9544,-1.20589,-0.438665,-0.635587,0
2024-12-13 15:24:27.801,0.294616,4.8338,13.3208,-1.2517,-0.462488,-0.653912,0
2024-12-13 15:24:27.804,0.30658,4.76172,13.6917,-1.29141,-0.480813,-0.672848,0
2024-12-13 15:24:27.806,0.287438,4.69233,14.039,-1.33111,-0.492419,-0.686287,0
2024-12-13 15:24:27.809,0.260818,4.61815,14.3743,-1.36104,-0.500971,-0.701558,0
2024-12-13 15:24:27.811,0.244068,4.51765,14.7093,-1.39159,-0.504636,-0.712553,0
2024-12-13 15:24:27.813,0.210568,4.38844,15.0374,-1.41663,-0.505247,-0.720494,0
2024-12-13 15:24:27.816,0.138784,4.27119,15.358,-1.43984,-0.501582,-0.727825,0
2024-12-13 15:24:27.818,0.0789631,4.12971,15.6718,-1.43984,-0.501582,-0.727825,0
2024-12-13 15:24:27.832,-0.337687,3.14836,17.5463,-1.47405,-0.466764,-0.686287,0
2024-12-13 15:24:27.834,-0.337687,3.14836,17.8313,-1.45511,-0.447217,-0.661853,0
2024-12-13 15:24:27.834,-0.4334,2.99492,17.8313,-1.45511,-0.447217,-0.661853,0
2024-12-13 15:24:27.837,-0.545863,2.84417,18.1161,-1.42946,-0.425837,-0.633754,0
2024-12-13 15:24:27.837,-0.545863,2.84417,18.1161,-1.42946,-0.425837,-0.633754,0
2024-12-13 15:24:27.839,-0.660718,2.70539,18.37,-1.39892,-0.402014,-0.601379,0
2024-12-13 15:24:27.839,-0.660718,2.70539,18.37,-1.39892,-0.402014,-0.601379,0
2024-12-13 15:24:27.842,-0.76361,2.58335,18.6021,-1.36043,-0.375137,-0.562285,0
2024-12-13 15:24:27.842,-0.76361,2.58335,18.6021,-1.36043,-0.375137,-0.562285,0
2024-12-13 15:24:27.842,-0.76361,2.58335,18.6021,-1.36043,-0.375137,-0.562285,0
2024-12-13 15:24:27.844,-0.864407,2.47777,18.8249,-1.31706,-0.345816,-0.518915,0
2024-12-13 15:24:27.846,-0.97687,2.37727,19.002,-1.26514,-0.310387,-0.468825,0
2024-12-13 15:24:27.849,-1.09412,2.30548,19.148,-1.21078,-0.271293,-0.417514,0
2024-12-13 15:24:27.851,-1.2018,2.36291,19.1671,-1.14725,-0.22609,-0.360094,0
2024-12-13 15:24:27.853,-1.3669,2.47777,18.9733,-1.0825,-0.151566,-0.292901,0
2024-12-13 15:24:27.856,-1.47248,2.46341,19.0283,-1.02019,-0.0697129,-0.220821,0
2024-12-13 15:24:27.858,-1.47009,2.36531,19.325,-0.950555,-0.0171801,-0.149352,0
2024-12-13 15:24:27.860,-1.53948,2.25045,19.378,-0.87481,0.0164165,-0.0803264,1
2024-12-13 15:24:27.863,-1.57537,2.13081,19.3298,-0.797232,0.0567324,-0.0119115,0
2024-12-13 15:24:27.865,-1.51795,2.06381,19.3011,-0.712935,0.104989,0.0558925,0
2024-12-13 15:24:27.867,-1.44616,2.04706,19.2006,-0.620086,0.16302,0.120642,0
2024-12-13 15:24:27.870,-1.38844,2.04706,19.0594,-0.522351,0.232656,0.186079,0
2024-12-13 15:24:27.872,-1.38604,2.09492,18.8776,-0.423394,0.302293,0.250218,0
2024-12-13 15:24:27.874,-1.47488,2.18584,18.6356,-0.324436,0.368875,0.313746,0
2024-12-13 15:24:27.877,-1.5993,2.3007,18.3389,-0.224868,0.428738,0.378496,0
2024-12-13 15:24:27.879,-1.69741,2.4012,18.0132,-0.1253,0.48005,0.443246,0
2024-12-13 15:24:27.882,-1.75962,2.4993,17.6973,-0.0306187,0.521587,0.506774,0
2024-12-13 15:24:27.884,-1.77876,2.59532,17.4027,0.0597867,0.551519,0.569691,0
2024-12-13 15:24:27.886,-1.76441,2.6671,17.0865,0.154468,0.577785,0.628333,0
2024-12-13 15:24:27.889,-1.71416,2.7676,16.6893,0.244873,0.602219,0.685142,0
2024-12-13 15:24:27.893,-1.53709,2.92792,15.8345,0.415376,0.6462,0.781045,0
2024-12-13 15:24:27.893,-1.53709,2.92792,15.8345,0.415376,0.6462,0.781045,0
2024-12-13 15:24:27.896,-1.46052,2.99731,15.4274,0.499673,0.665136,0.826858,0
2024-12-13 15:24:27.898,-1.22333,2.9662,15.114,0.57664,0.673077,0.865341,0
2024-12-13 15:24:27.900,-0.84018,2.8322,15.0278,0.65605,0.655363,0.890386,0
2024-12-13 15:24:27.903,-0.770788,2.83699,14.6375,0.734849,0.635816,0.904436,0
2024-12-13 15:24:27.905,-0.905085,2.98774,13.9457,0.811205,0.636427,0.918485,0
2024-12-13 15:24:27.907,-0.917049,3.12443,13.5386,0.881453,0.634594,0.932535,0
2024-12-13 15:24:27.910,-0.926621,3.27039,13.1868,0.948035,0.618712,0.945363,0
2024-12-13 15:24:27.912,-0.952942,3.42832,12.7487,1.01034,0.594278,0.95819,0
2024-12-13 15:24:27.915,-0.974477,3.60299,12.2578,1.06471,0.563125,0.97224,0
2024-12-13 15:24:27.917,-0.972084,3.75404,11.7335,1.11113,0.535026,0.985068,0
2024-12-13 15:24:27.919,-0.9003,3.84257,11.2546,1.14656,0.498986,0.997285,0
2024-12-13 15:24:27.922,-0.809073,3.90718,10.8188,1.17588,0.455005,1.00767,0
2024-12-13 15:24:27.924,-0.73011,3.96461,10.3881,1.19848,0.405526,1.01011,0
2024-12-13 15:24:27.926,-0.63679,4.02204,9.92842,1.21314,0.347496,1.0095,0
2024-12-13 15:24:27.929,-0.550648,4.09143,9.44956,1.21742,0.290076,1.00645,0
2024-12-13 15:24:27.931,-0.457328,4.17039,9.01616,1.21436,0.234489,1.00095,0
2024-12-13 15:24:27.933,-0.337687,4.23769,8.65933,1.20337,0.17035,0.993009,0
2024-12-13 15:24:27.936,-0.227318,4.29512,8.33151,1.18688,0.100713,0.982013,0
2024-12-13 15:24:27.938,-0.150748,4.34537,7.98186,1.16061,0.030466,0.969186,0
2024-12-13 15:24:27.940,-0.0334995,4.36451,7.71147,1.12823,-0.0391706,0.953304,0
2024-12-13 15:24:27.943,0.0837488,4.37408,7.51974,1.09464,-0.114305,0.937422,0
2024-12-13 15:24:27.945,0.148355,4.40279,7.29243,1.0531,-0.187606,0.916653,0
2024-12-13 15:24:27.947,0.251246,4.42433,7.08664,1.00973,-0.253578,0.895884,0
2024-12-13 15:24:27.950,0.404686,4.40758,6.99302,0.965139,-0.319549,0.873893,0
2024-12-13 15:24:27.955,0.744467,4.34776,6.94277,0.870457,-0.439886,0.823804,0
2024-12-13 15:24:27.957,0.914656,4.28555,6.94756,0.824644,-0.491198,0.793872,0
2024-12-13 15:24:27.959,1.09651,4.2015,6.97867,0.780663,-0.530292,0.762108,0
2024-12-13 15:24:27.959,1.09651,4.2015,6.97867,0.780663,-0.530292,0.762108,0
2024-12-13 15:24:27.962,1.25922,4.13211,7.04357,0.737903,-0.55778,0.728512,0
2024-12-13 15:24:27.964,1.40548,4.07468,7.11536,0.698198,-0.576105,0.696137,0
2024-12-13 15:24:27.966,1.54905,4.00529,7.19911,0.662158,-0.580992,0.660097,0
2024-12-13 15:24:27.969,1.68305,3.95025,7.27568,0.626118,-0.576105,0.625279,0
2024-12-13 15:24:27.971,1.78594,3.92154,7.31875,0.593744,-0.562667,0.593514,0
2024-12-13 15:24:27.973,1.88883,3.88804,7.34507,0.56259,-0.539454,0.555031,0
2024-12-13 15:24:27.976,1.98963,3.87607,7.34985,0.531437,-0.511356,0.51838,0
2024-12-13 15:24:27.978,2.07817,3.87607,7.37139,0.497841,-0.480813,0.482951,0
2024-12-13 15:24:27.980,2.14995,3.85693,7.39292,0.466687,-0.448438,0.443246,0
2024-12-13 15:24:27.983,2.22652,3.84257,7.38575,0.434923,-0.416674,0.404152,0
2024-12-13 15:24:27.985,2.30788,3.84257,7.37378,0.403159,-0.381245,0.362614,0
2024-12-13 15:24:27.988,2.37248,3.84018,7.35703,0.368952,-0.345816,0.320466,0
2024-12-13 15:24:27.990,2.41795,3.83061,7.35464,0.3365,-0.310387,0.274652,0
2024-12-13 15:24:27.992,2.44188,3.81386,7.35703,0.307791,-0.271903,0.228228,0
2024-12-13 15:24:27.995,2.44666,3.80668,7.35703,0.279081,-0.236474,0.179971,0
2024-12-13 15:24:27.997,2.43709,3.78993,7.369,0.249149,-0.201656,0.132859,0
2024-12-13 15:24:27.999,2.42273,3.75883,7.38814,0.222883,-0.166838,0.0876566,0
2024-12-13 15:24:28.002,2.40838,3.72772,7.39771,0.195395,-0.135684,0.038178,0
2024-12-13 15:24:28.004,2.37727,3.71097,7.38096,0.17035,-0.104531,-0.00885729,0
2024-12-13 15:24:28.006,2.30788,3.69183,7.36182,0.145305,-0.0770431,-0.0558925,0
2024-12-13 15:24:28.009,2.21695,3.65593,7.34985,0.123315,-0.0538309,-0.101095,0
2024-12-13 15:24:28.011,2.12124,3.61496,7.31875,0.0982701,-0.0318404,-0.143855,0
2024-12-13 15:24:28.014,2.01835,3.55753,7.28764,0.0762796,-0.0129041,-0.18356,0
2024-12-13 15:24:28.016,1.89123,3.50489,7.25893,0.0524565,-0.000687203,-0.220821,0
2024-12-13 15:24:28.018,1.75962,3.46182,7.235,0.0292443,0.00908635,-0.259305,0
2024-12-13 15:24:28.021,1.64716,3.42353,7.21346,0.00847551,0.0151948,-0.289847,0
2024-12-13 15:24:28.025,1.39322,3.3326,7.18953,-0.0379489,0.0164165,-0.343602,0
2024-12-13 15:24:28.026,1.39322,3.3326,7.18953,-0.0605502,0.0121406,-0.368646,0
2024-12-13 15:24:28.028,1.26162,3.29432,7.21346,-0.0605502,0.0121406,-0.368646,0
2024-12-13 15:24:28.030,1.13001,3.25603,7.235,-0.0794865,0.00603212,-0.389415,0
2024-12-13 15:24:28.032,1.01037,3.201,7.27807,-0.0972011,-7.63559e-05,-0.407741,0
2024-12-13 15:24:28.035,0.890728,3.16032,7.34268,-0.111861,-0.00984991,-0.422401,0
2024-12-13 15:24:28.037,0.758824,3.11246,7.39532,-0.125911,-0.0220669,-0.435229,0
2024-12-13 15:24:28.039,0.641576,3.0667,7.46232,-0.137517,-0.0361163,-0.444391,0
2024-12-13 15:24:28.042,0.545863,3.03799,7.53889,-0.144236,-0.0483333,-0.451722,0
2024-12-13 15:24:28.044,0.452543,3.00449,7.61815,-0.150956,-0.0703238,-0.45783,0
2024-12-13 15:24:28.046,0.354437,2.97577,7.70429,-0.153399,-0.0910926,-0.461495,0
2024-12-13 15:24:28.049,0.256032,2.94227,7.8024,-0.155842,-0.111861,-0.46516,0
2024-12-13 15:24:28.053,0.0646062,2.8681,7.97468,-0.15401,-0.157064,-0.462106,0
2024-12-13 15:24:28.054,0.0646062,2.8681,7.97468,-0.15401,-0.157064,-0.462106,0
2024-12-13 15:24:28.056,0.0,2.8346,8.03689,-0.148512,-0.180887,-0.459663,0
2024-12-13 15:24:28.058,-0.0574277,2.80588,8.10389,-0.140571,-0.202267,-0.455387,0
2024-12-13 15:24:28.061,-0.114855,2.77238,8.17119,-0.129576,-0.223036,-0.449889,0
2024-12-13 15:24:28.063,-0.181855,2.7341,8.22383,-0.120413,-0.241972,-0.441337,0
2024-12-13 15:24:28.065,-0.239282,2.70299,8.27887,-0.109418,-0.257854,-0.433396,0
2024-12-13 15:24:28.068,-0.27996,2.68146,8.32912,-0.100866,-0.272514,-0.423623,0
2024-12-13 15:24:28.070,-0.32333,2.65274,8.36022,-0.0898709,-0.285342,-0.411406,0
2024-12-13 15:24:28.072,-0.352044,2.61685,8.38176,-0.0770431,-0.296948,-0.40041,0
2024-12-13 15:24:28.075,-0.385544,2.6001,8.41047,-0.0642153,-0.306111,-0.386972,0
2024-12-13 15:24:28.077,-0.421436,2.57617,8.4344,-0.0556635,-0.314052,-0.369257,0
2024-12-13 15:24:28.079,-0.45015,2.54746,8.43919,-0.0452791,-0.319549,-0.354597,0
2024-12-13 15:24:28.082,-0.474078,2.52832,8.44876,-0.0367272,-0.321993,-0.335661,0
2024-12-13 15:24:28.086,-0.541077,2.52323,8.45594,-0.0184018,-0.318939,-0.295345,0
2024-12-13 15:24:28.089,-0.56022,2.52323,8.4679,-0.0104608,-0.315274,-0.273965,0
2024-12-13 15:24:28.089,-0.56022,2.52323,8.4679,-0.0104608,-0.315274,-0.273965,0
2024-12-13 15:24:28.091,-0.555434,2.51845,8.47269,-0.00251974,-0.306111,-0.252585,0
2024-12-13 15:24:28.094,-0.538684,2.52832,8.46311,0.00542127,-0.292672,-0.229984,0
2024-12-13 15:24:28.096,-0.536291,2.54746,8.46551,0.0121406,-0.279234,-0.206772,0
2024-12-13 15:24:28.098,-0.531506,2.55464,8.45115,0.0176382,-0.26213,-0.182949,0
2024-12-13 15:24:28.101,-0.533899,2.55464,8.42962,0.0231358,-0.243804,-0.159737,0
2024-12-13 15:24:28.103,-0.517149,2.56182,8.39133,0.0268009,-0.224868,-0.137135,0
2024-12-13 15:24:28.105,-0.481256,2.58335,8.35065,0.0292443,-0.205932,-0.113312,0
2024-12-13 15:24:28.108,-0.471685,2.58814,8.31476,0.030466,-0.184552,-0.0913217,0
2024-12-13 15:24:28.110,-0.4669,2.61207,8.25494,0.0310769,-0.165616,-0.0705529,0
2024-12-13 15:24:28.112,-0.4669,2.65753,8.1999,0.0292443,-0.141793,-0.0491732,0
2024-12-13 15:24:28.115,-0.4669,2.70299,8.15205,0.0298552,-0.121635,-0.0271827,0
2024-12-13 15:24:28.117,-0.478864,2.75324,8.1015,0.0255792,-0.104531,-0.0051922,0
2024-12-13 15:24:28.119,-0.500399,2.79871,8.04168,0.0249684,-0.0849841,0.0161875,0
2024-12-13 15:24:28.122,-0.512363,2.82981,7.97947,0.0194708,-0.0721563,0.0375671,0
2024-12-13 15:24:28.124,-0.521934,2.8681,7.91007,0.0139731,-0.057496,0.0565034,0
2024-12-13 15:24:28.127,-0.524327,2.93988,7.84307,0.00725381,-0.0428357,0.0766613,0
2024-12-13 15:24:28.129,-0.493221,2.9997,7.78565,0.00114534,-0.0355055,0.0937651,0
2024-12-13 15:24:28.131,-0.435793,3.02363,7.71386,-0.00679568,-0.0306187,0.110258,0
2024-12-13 15:24:28.134,-0.364008,3.05474,7.65883,-0.0153475,-0.029397,0.125529,0
2024-12-13 15:24:28.136,-0.260818,3.08345,7.62533,-0.0275645,-0.0324513,0.137822,0
2024-12-13 15:24:28.138,-0.148355,3.10529,7.58465,-0.0410031,-0.037338,0.147596,0
2024-12-13 15:24:28.141,-0.0598206,3.11964,7.55803,-0.0550526,-0.0465007,0.154315,0
2024-12-13 15:24:28.143,0.0119641,3.14357,7.55085,-0.0715455,-0.0556635,0.159202,0
2024-12-13 15:24:28.145,0.0741775,3.18664,7.57478,-0.0898709,-0.0629936,0.1647,0
2024-12-13 15:24:28.148,0.131605,3.23211,7.62293,-0.107585,-0.0721563,0.165311,0
2024-12-13 15:24:28.150,0.181855,3.28953,7.67558,-0.1253,-0.0837624,0.168365,0
2024-12-13 15:24:28.152,0.22014,3.33739,7.75933,-0.144236,-0.0910926,0.17203,0
2024-12-13 15:24:28.155,0.246461,3.34457,7.86461,-0.158286,-0.0984228,0.173862,0
2024-12-13 15:24:28.157,0.282652,3.35414,7.97947,-0.172946,-0.105142,0.175084,0
2024-12-13 15:24:28.159,0.313759,3.37089,8.09671,-0.18272,-0.111861,0.176917,0
2024-12-13 15:24:28.162,0.335294,3.39003,8.20948,-0.193715,-0.114916,0.177527,0
2024-12-13 15:24:28.164,0.371187,3.3996,8.31715,-0.199213,-0.119192,0.178138,0
2024-12-13 15:24:28.167,0.41665,3.42832,8.42483,-0.205932,-0.122857,0.176306,0
2024-12-13 15:24:28.169,0.447757,3.44507,8.53969,-0.207764,-0.120413,0.175695,0
2024-12-13 15:24:28.171,0.459721,3.4331,8.64497,-0.207764,-0.11797,0.178138,0
2024-12-13 15:24:28.174,0.469292,3.4331,8.74577,-0.207764,-0.115526,0.176917,0
2024-12-13 15:24:28.176,0.483649,3.42832,8.82234,-0.205932,-0.114305,0.176917,0
2024-12-13 15:24:28.178,0.517149,3.41157,8.88934,-0.202267,-0.11064,0.177527,0
2024-12-13 15:24:28.182,0.574577,3.38046,8.96591,-0.194326,-0.109418,0.175084,0
2024-12-13 15:24:28.183,0.62004,3.35414,9.02812,-0.194326,-0.109418,0.175084,0
2024-12-13 15:24:28.185,0.634397,3.34696,9.09273,-0.187606,-0.108807,0.17203,0
2024-12-13 15:24:28.188,0.663111,3.34218,9.15015,-0.181498,-0.104531,0.169586,0
2024-12-13 15:24:28.190,0.706182,3.35414,9.2004,-0.17539,-0.0996445,0.166532,0
2024-12-13 15:24:28.193,0.73011,3.37807,9.24108,-0.165005,-0.0923143,0.1647,0
2024-12-13 15:24:28.195,0.732503,3.39482,9.27727,-0.158286,-0.0794865,0.162256,0
2024-12-13 15:24:28.200,0.694218,3.41157,9.35145,-0.13935,-0.0465007,0.159813,0
2024-12-13 15:24:28.200,0.694218,3.41157,9.35145,-0.13935,-0.0465007,0.159813,0
2024-12-13 15:24:28.204,0.682254,3.41875,9.37538,-0.114916,-0.0110716,0.15798,0
2024-12-13 15:24:28.207,0.665504,3.41157,9.35384,-0.102699,0.00725381,0.156759,0
2024-12-13 15:24:28.207,0.665504,3.41157,9.35384,-0.102699,0.00725381,0.156759,0
2024-12-13 15:24:28.209,0.641576,3.39482,9.32034,-0.0904818,0.0249684,0.15737,0
2024-12-13 15:24:28.211,0.617647,3.37807,9.26292,-0.0782648,0.0420721,0.154926,0
2024-12-13 15:24:28.214,0.586541,3.36132,9.18605,-0.0691021,0.0579541,0.154926,0
2024-12-13 15:24:28.216,0.565005,3.34218,9.12144,-0.0605502,0.0701711,0.154926,0
2024-12-13 15:24:28.218,0.553041,3.3326,9.05923,-0.0501658,0.0787229,0.155537,0
2024-12-13 15:24:28.223,0.498006,3.30868,8.92284,-0.0391706,0.0933833,0.159202,0
2024-12-13 15:24:28.223,0.498006,3.30868,8.92284,-0.0391706,0.0933833,0.159202,0
2024-12-13 15:24:28.225,0.474078,3.29432,8.8678,-0.0355055,0.0976592,0.161035,0
2024-12-13 15:24:28.228,0.464507,3.29432,8.84148,-0.0306187,0.101324,0.163478,0
2024-12-13 15:24:28.230,0.457328,3.28475,8.81994,-0.0263428,0.104989,0.167754,0
2024-12-13 15:24:28.232,0.421436,3.268,8.81994,-0.0202343,0.109265,0.170197,0
2024-12-13 15:24:28.235,0.402293,3.2656,8.81755,-0.0104608,0.111098,0.174473,0
2024-12-13 15:24:28.237,0.385544,3.268,8.83909,0.000534491,0.117817,0.178138,0
2024-12-13 15:24:28.240,0.361615,3.26321,8.87259,0.0139731,0.128202,0.184858,0
2024-12-13 15:24:28.242,0.347258,3.25603,8.88455,0.0286335,0.136753,0.190355,0
2024-12-13 15:24:28.244,0.335294,3.24407,8.88216,0.0439046,0.147138,0.196464,0
2024-12-13 15:24:28.247,0.320937,3.24407,8.88216,0.0628409,0.161187,0.203183,0
2024-12-13 15:24:28.249,0.301795,3.24168,8.84387,0.0860531,0.174626,0.20807,0
2024-12-13 15:24:28.251,0.27996,3.22732,8.77687,0.107433,0.191119,0.212957,0
2024-12-13 15:24:28.256,0.251246,3.22971,8.61386,0.155079,0.219218,0.227617,0
2024-12-13 15:24:28.256,0.251246,3.22971,8.61386,0.155079,0.219218,0.227617,0
2024-12-13 15:24:28.258,0.232104,3.21057,8.53011,0.176459,0.231435,0.233725,0
2024-12-13 15:24:28.261,0.229711,3.20818,8.4344,0.198449,0.241819,0.238612,0
2024-12-13 15:24:28.263,0.208176,3.20578,8.34108,0.218607,0.246706,0.245332,0
2024-12-13 15:24:28.265,0.177069,3.18425,8.25733,0.236932,0.250371,0.252662,0
2024-12-13 15:24:28.268,0.165105,3.18903,8.17598,0.25709,0.252204,0.255105,0
2024-12-13 15:24:28.270,0.143569,3.20578,8.09432,0.277248,0.252204,0.262435,0
2024-12-13 15:24:28.273,0.131605,3.19143,7.98904,0.296185,0.24976,0.267933,0
2024-12-13 15:24:28.275,0.153141,3.18425,7.87657,0.313899,0.247928,0.272209,0
2024-12-13 15:24:28.277,0.181855,3.17707,7.7665,0.328559,0.243652,0.277096,0
2024-12-13 15:24:28.280,0.205783,3.13639,7.65883,0.343831,0.235711,0.280761,0
2024-12-13 15:24:28.282,0.22014,3.11725,7.56999,0.35788,0.224715,0.282593,0
2024-12-13 15:24:28.287,0.22014,3.12682,7.44317,0.383612,0.196616,0.289923,0
2024-12-13 15:24:28.287,0.22014,3.12682,7.44317,0.383612,0.196616,0.289923,0
2024-12-13 15:24:28.289,0.239282,3.12682,7.37857,0.394607,0.179513,0.292367,0
2024-12-13 15:24:28.291,0.275175,3.13161,7.302,0.406213,0.162409,0.293588,0
2024-12-13 15:24:28.294,0.30658,3.15075,7.22543,0.415987,0.143473,0.294199,0
2024-12-13 15:24:28.296,0.335294,3.16032,7.15125,0.422095,0.125758,0.29481,0
2024-12-13 15:24:28.298,0.378365,3.16989,7.07468,0.433091,0.104379,0.292978,0
2024-12-13 15:24:28.301,0.428614,3.17946,7.00738,0.436145,0.0854423,0.288702,0
2024-12-13 15:24:28.303,0.495613,3.18664,6.95952,0.438588,0.066506,0.284426,0
2024-12-13 15:24:28.306,0.553041,3.19861,6.92363,0.440421,0.046348,0.28015,0
2024-12-13 15:24:28.308,0.615255,3.20578,6.89253,0.442253,0.0274118,0.271598,0
2024-12-13 15:24:28.310,0.679861,3.22014,6.88056,0.43981,0.0127514,0.262435,0
2024-12-13 15:24:28.313,0.720539,3.22493,6.87338,0.441032,-0.0019089,0.252662,0
2024-12-13 15:24:28.315,0.756431,3.22493,6.88056,0.441032,-0.0129041,0.241056,0
2024-12-13 15:24:28.317,0.785145,3.24646,6.88535,0.444086,-0.021456,0.230671,0
2024-12-13 15:24:28.320,0.825823,3.26321,6.88535,0.446529,-0.0263428,0.218454,0
2024-12-13 15:24:28.322,0.876371,3.26082,6.90449,0.44714,-0.0318404,0.205626,0
2024-12-13 15:24:28.325,0.909871,3.26321,6.91406,0.44714,-0.0318404,0.205626,0
2024-12-13 15:24:28.327,0.96012,3.26082,6.90688,0.450805,-0.0312296,0.176917,0
2024-12-13 15:24:28.329,1.01276,3.24407,6.88056,0.451416,-0.0251211,0.163478,0
2024-12-13 15:24:28.331,1.02712,3.23689,6.8351,0.453249,-0.0171801,0.148207,0
2024-12-13 15:24:28.334,1.02473,3.24885,6.79921,0.45386,-0.00557398,0.132859,0
2024-12-13 15:24:28.336,1.02473,3.25603,6.76092,0.452638,0.00664296,0.116977,0
2024-12-13 15:24:28.338,1.00798,3.268,6.72024,0.450194,0.0200816,0.101095,0
2024-12-13 15:24:28.341,0.991227,3.2991,6.6676,0.447751,0.0359636,0.0882674,0
2024-12-13 15:24:28.343,0.955334,3.32782,6.60299,0.441032,0.0536782,0.0742179,0
2024-12-13 15:24:28.346,0.9003,3.35175,6.52164,0.437367,0.0713928,0.0613902,0
2024-12-13 15:24:28.348,0.857229,3.36132,6.44238,0.428815,0.090329,0.0491732,0
2024-12-13 15:24:28.350,0.813859,3.38285,6.37298,0.423928,0.109265,0.0387888,0
2024-12-13 15:24:28.354,0.758824,3.3996,6.29163,0.397051,0.137364,0.0174091,0
2024-12-13 15:24:28.355,0.720539,3.40917,6.19113,0.397051,0.137364,0.0174091,0
2024-12-13 15:24:28.357,0.679861,3.42114,6.09542,0.383001,0.145916,0.0064139,0
2024-12-13 15:24:28.360,0.627219,3.42353,6.01406,0.363378,0.153246,-0.00397051,0
2024-12-13 15:24:28.362,0.581755,3.43789,5.9327,0.346885,0.155079,-0.0131332,0
2024-12-13 15:24:28.364,0.52672,3.45703,5.86541,0.323673,0.155079,-0.0235176,0
2024-12-13 15:24:28.367,0.4669,3.47617,5.8343,0.301071,0.152635,-0.0302369,0
2024-12-13 15:24:28.369,0.419043,3.51207,5.81276,0.276027,0.14897,-0.0369563,0
2024-12-13 15:24:28.371,0.373579,3.54796,5.81994,0.249149,0.142862,-0.0430647,0
2024-12-13 15:24:28.376,0.292223,3.61256,5.89442,0.198449,0.130034,-0.0552817,0
2024-12-13 15:24:28.376,0.292223,3.61256,5.89442,0.198449,0.130034,-0.0552817,0
2024-12-13 15:24:28.379,0.253639,3.65115,5.95424,0.172183,0.122704,-0.0577251,0
2024-12-13 15:24:28.381,0.227318,3.69422,6.03081,0.14897,0.114152,-0.062001,0
2024-12-13 15:24:28.383,0.18664,3.72772,6.13849,0.124536,0.107433,-0.0674986,0
2024-12-13 15:24:28.386,0.145962,3.76122,6.22941,0.104989,0.0988809,-0.0693312,0
2024-12-13 15:24:28.388,0.112463,3.78993,6.34188,0.0842206,0.0927724,-0.0687203,0
2024-12-13 15:24:28.390,0.112463,3.81625,6.48814,0.066506,0.0884965,-0.0729962,0
2024-12-13 15:24:28.393,0.105284,3.84736,6.61735,0.0494023,0.082388,-0.0748288,0
2024-12-13 15:24:28.395,0.081356,3.87607,6.75135,0.0347419,0.0805555,-0.0784939,0
2024-12-13 15:24:28.397,0.0717847,3.9,6.8686,0.0219141,0.0787229,-0.0791047,0
2024-12-13 15:24:28.400,0.040678,3.92154,6.97627,0.0109189,0.0781121,-0.0815481,0
2024-12-13 15:24:28.402,0.00957129,3.9335,7.08664,-7.63559e-05,0.0787229,-0.0815481,0
2024-12-13 15:24:28.404,0.00239282,3.92872,7.18236,-0.0116825,0.0817772,-0.0815481,0
2024-12-13 15:24:28.407,0.00478565,3.93111,7.27089,-0.0196235,0.0829989,-0.0803264,0
2024-12-13 15:24:28.409,0.0287139,3.95025,7.3666,-0.0300079,0.0836097,-0.0791047,0
2024-12-13 15:24:28.412,0.066999,3.95982,7.45753,-0.0385597,0.086664,-0.0760505,0
2024-12-13 15:24:28.414,0.105284,3.93589,7.53889,-0.0477224,0.0891073,-0.0729962,0
2024-12-13 15:24:28.416,0.157926,3.91197,7.60379,-0.0581068,0.0921616,-0.069942,0
2024-12-13 15:24:28.419,0.217747,3.91197,7.67797,-0.0678804,0.0952158,-0.0723854,0
2024-12-13 15:24:28.421,0.267996,3.90479,7.79522,-0.0800973,0.0982701,-0.0717745,0
2024-12-13 15:24:28.423,0.325723,3.88325,7.92443,-0.0923143,0.0988809,-0.0736071,0
2024-12-13 15:24:28.426,0.392722,3.88325,8.068,-0.100866,0.0976592,-0.0754396,0
2024-12-13 15:24:28.428,0.45015,3.9,8.21905,-0.108807,0.101324,-0.0784939,0
2024-12-13 15:24:28.430,0.502792,3.92154,8.36979,-0.118581,0.106822,-0.0839915,0
2024-12-13 15:24:28.433,0.538684,3.95264,8.5349,-0.121635,0.114763,-0.0901,0
2024-12-13 15:24:28.435,0.545863,3.99093,8.72423,-0.124078,0.128202,-0.0962084,0
2024-12-13 15:24:28.438,0.548256,4.01725,8.92523,-0.121635,0.144084,-0.102317,0
2024-12-13 15:24:28.440,0.531506,4.034,9.13101,-0.116137,0.16302,-0.110869,0
2024-12-13 15:24:28.442,0.505185,4.04596,9.32992,-0.105142,0.186232,-0.115756,0
2024-12-13 15:24:28.444,0.488435,4.06511,9.50938,-0.0892601,0.211277,-0.124918,0
2024-12-13 15:24:28.447,0.476471,4.07468,9.67927,-0.0715455,0.238154,-0.130416,0
2024-12-13 15:24:28.449,0.452543,4.0675,9.82792,-0.0501658,0.267475,-0.137135,0
2024-12-13 15:24:28.454,0.304188,4.06511,9.99303,-0.00374144,0.326116,-0.146909,0
2024-12-13 15:24:28.454,0.304188,4.06511,9.99303,-0.00374144,0.326116,-0.146909,0
2024-12-13 15:24:28.459,0.0789631,4.11536,10.0265,0.0469589,0.382314,-0.146298,0
2024-12-13 15:24:28.461,-0.0789631,4.16561,9.99303,0.0677277,0.406748,-0.143244,0
2024-12-13 15:24:28.461,-0.0789631,4.16561,9.99303,0.0677277,0.406748,-0.143244,0
2024-12-13 15:24:28.463,-0.239282,4.2353,9.9332,0.086664,0.42996,-0.134081,0
2024-12-13 15:24:28.466,-0.395115,4.31665,9.85664,0.101324,0.443399,-0.120642,0
2024-12-13 15:24:28.468,-0.550648,4.38604,9.76541,0.111709,0.449507,-0.108425,0
2024-12-13 15:24:28.470,-0.708575,4.44826,9.67687,0.118428,0.446453,-0.0925434,0
2024-12-13 15:24:28.473,-0.85005,4.52961,9.58834,0.117817,0.431793,-0.0723854,0
2024-12-13 15:24:28.475,-0.969691,4.61097,9.50698,0.116595,0.406748,-0.0522274,0
2024-12-13 15:24:28.477,-1.07737,4.67558,9.44477,0.104379,0.369486,-0.0326803,0
2024-12-13 15:24:28.480,-1.14197,4.733,9.40648,0.0897182,0.322451,-0.0113007,0
2024-12-13 15:24:28.482,-1.18026,4.79312,9.41845,0.0683385,0.267475,0.00824644,0
2024-12-13 15:24:28.485,-1.19462,4.84098,9.44477,0.0439046,0.20639,0.0284044,0
2024-12-13 15:24:28.487,-1.18265,4.88884,9.51177,0.0139731,0.143473,0.0455081,0
2024-12-13 15:24:28.489,-1.15633,4.93909,9.6338,-0.0184018,0.0720036,0.0626118,0
2024-12-13 15:24:28.492,-1.09651,4.99173,9.77977,-0.0544418,-0.000687203,0.0754396,0
2024-12-13 15:24:28.494,-1.00558,5.05633,9.95474,-0.0904818,-0.0745997,0.0839915,0
2024-12-13 15:24:28.496,-0.895514,5.11855,10.1629,-0.13263,-0.152177,0.0894891,0
2024-12-13 15:24:28.499,-0.770788,5.15922,10.424,-0.174168,-0.232809,0.0919325,0
2024-12-13 15:24:28.501,-0.639183,5.19272,10.7471,-0.216927,-0.318328,0.0882674,0
2024-12-13 15:24:28.503,-0.483649,5.20947,11.0967,-0.261519,-0.409344,0.0833807,0
2024-12-13 15:24:28.506,-0.294616,5.19033,11.4796,-0.307943,-0.498528,0.0729962,0
2024-12-13 15:24:28.508,-0.100499,5.15444,11.8914,-0.353146,-0.585879,0.0601685,0
2024-12-13 15:24:28.510,0.0933201,5.11855,12.3105,-0.395905,-0.669565,0.0448973,0
2024-12-13 15:24:28.513,0.27996,5.0994,12.7558,-0.439886,-0.748364,0.0253502,0
2024-12-13 15:24:28.515,0.454935,5.07069,13.2419,-0.480202,-0.818001,0.00458135,0
2024-12-13 15:24:28.517,0.615255,5.02762,13.7877,-0.518075,-0.882751,-0.0204634,0
2024-12-13 15:24:28.520,0.777966,4.98694,14.3743,-0.551671,-0.935894,-0.0473407,0
2024-12-13 15:24:28.522,0.950549,4.95583,14.9656,-0.57977,-0.976821,-0.0723854,0
2024-12-13 15:24:28.525,1.11087,4.91516,15.5617,-0.598096,-1.00981,-0.0998735,0
2024-12-13 15:24:28.527,1.26401,4.85294,16.1411,-0.612756,-1.0263,-0.131027,0
2024-12-13 15:24:28.529,1.41027,4.76172,16.7228,-0.621919,-1.02996,-0.161569,0
2024-12-13 15:24:28.532,1.52991,4.666,17.2783,-0.621308,-1.0208,-0.189057,0
2024-12-13 15:24:28.534,1.6017,4.57508,17.805,-0.61581,-0.995757,-0.217767,0
2024-12-13 15:24:28.536,1.67348,4.48894,18.3389,-0.604204,-0.959717,-0.246477,0
2024-12-13 15:24:28.539,1.5993,4.54158,18.5782,-0.58649,-0.907795,-0.271522,0
2024-12-13 15:24:28.541,1.52513,4.56072,18.7217,-0.570608,-0.829607,-0.285571,0
2024-12-13 15:24:28.543,1.6352,4.39801,19.136,-0.548617,-0.754473,-0.298399,0
2024-12-13 15:24:28.548,1.75723,3.89282,19.7393,-0.494863,-0.624973,-0.324665,0
2024-12-13 15:24:28.550,1.75723,3.57906,19.9406,-0.460655,-0.556558,-0.339326,1
2024-12-13 15:24:28.550,1.8003,3.57906,19.9406,-0.460655,-0.556558,-0.339326,1
2024-12-13 15:24:28.553,1.82184,3.28953,20.1272,-0.418507,-0.480813,-0.355208,0
2024-12-13 15:24:28.560,1.49402,2.70778,20.2253,-0.260908,-0.239528,-0.384528,0
2024-12-13 15:24:28.565,0.96012,2.55464,19.9478,-0.260908,-0.239528,-0.384528,0
2024-12-13 15:24:28.567,0.639183,2.51605,19.6579,-0.0831516,-0.0165692,-0.344823,0
2024-12-13 15:24:28.568,0.639183,2.51605,19.6579,-0.0281753,0.0475697,-0.314892,0
2024-12-13 15:24:28.569,0.308973,2.52084,19.2891,-0.0281753,0.0475697,-0.314892,0
2024-12-13 15:24:28.569,0.308973,2.52084,19.2891,-0.0281753,0.0475697,-0.314892,0
2024-12-13 15:24:28.572,0.0167498,2.5666,18.8943,0.0194708,0.104989,-0.276408,0
2024-12-13 15:24:28.572,0.0167498,2.5666,18.8943,0.0194708,0.104989,-0.276408,0
2024-12-13 15:24:28.574,-0.239282,2.62403,18.4657,0.0628409,0.155079,-0.228762,0
2024-12-13 15:24:28.576,-0.469292,2.69581,18.0227,0.0964375,0.196616,-0.176229,0
2024-12-13 15:24:28.579,-0.658325,2.75324,17.5869,0.0964375,0.196616,-0.176229,0
2024-12-13 15:24:28.581,-0.770788,2.78435,17.1921,0.153857,0.251593,-0.0638335,0
2024-12-13 15:24:28.586,-0.804287,2.77238,16.5431,0.194784,0.276637,0.0375671,0
2024-12-13 15:24:28.588,-0.754038,2.77478,16.2631,0.213109,0.282135,0.0809373,0
2024-12-13 15:24:28.591,-0.675075,2.81545,16.0191,0.232656,0.282746,0.120031,0
2024-12-13 15:24:28.591,-0.675075,2.81545,16.0191,0.232656,0.282746,0.120031,0
2024-12-13 15:24:28.593,-0.596112,2.9016,15.7843,0.250982,0.283968,0.151872,0
2024-12-13 15:24:28.595,-0.517149,2.97817,15.5474,0.273583,0.287633,0.178138,0
2024-12-13 15:24:28.598,-0.426222,3.04756,15.3102,0.296185,0.294963,0.201351,0
2024-12-13 15:24:28.600,-0.311366,3.14118,15.0565,0.320008,0.30718,0.217233,0
2024-12-13 15:24:28.602,-0.215354,3.23928,14.7835,0.343831,0.322451,0.227617,0
2024-12-13 15:24:28.605,-0.133998,3.31107,14.5011,0.365821,0.335279,0.233725,0
2024-12-13 15:24:28.607,-0.0598206,3.38764,14.1921,0.389721,0.35055,0.234336,0
2024-12-13 15:24:28.609,0.00239282,3.45464,13.8428,0.410489,0.366432,0.232504,0
2024-12-13 15:24:28.612,0.0861416,3.5001,13.4931,0.430036,0.384147,0.225174,0
2024-12-13 15:24:28.614,0.198604,3.50728,13.1435,0.444086,0.398196,0.210513,0
2024-12-13 15:24:28.616,0.553041,3.32782,13.1076,0.455692,0.40125,0.191577,0
2024-12-13 15:24:28.619,0.689432,3.2345,12.8851,0.477683,0.391477,0.161035,0
2024-12-13 15:24:28.621,0.402293,3.40439,12.1837,0.492954,0.414078,0.134157,0
2024-12-13 15:24:28.623,0.285045,3.52642,11.7838,0.502116,0.445231,0.115145,0
2024-12-13 15:24:28.626,0.27996,3.58624,11.6378,0.51189,0.456837,0.0943759,0
2024-12-13 15:24:28.628,0.167498,3.66551,11.3049,0.521664,0.455616,0.077883,0
2024-12-13 15:24:28.631,0.0215354,3.7325,10.8643,0.525939,0.45867,0.0668878,0
2024-12-13 15:24:28.633,-0.0933201,3.77079,10.4432,0.527772,0.461113,0.0565034,0
2024-12-13 15:24:28.635,-0.157926,3.77797,10.0457,0.521664,0.463557,0.0497841,0
2024-12-13 15:24:28.638,-0.150748,3.72054,9.76302,0.516777,0.456837,0.0412322,0
2024-12-13 15:24:28.640,-0.177069,3.65833,9.47109,0.51189,0.442177,0.0314586,0
2024-12-13 15:24:28.642,-0.184247,3.6006,9.15255,0.503338,0.428738,0.0192417,0
2024-12-13 15:24:28.645,-0.179462,3.53121,8.88216,0.496619,0.412246,0.00824644,0
2024-12-13 15:24:28.647,-0.215354,3.47378,8.61625,0.486234,0.39392,-0.00458135,0
2024-12-13 15:24:28.649,-0.244068,3.42114,8.38176,0.475239,0.374984,-0.0161875,0
2024-12-13 15:24:28.652,-0.318545,3.41396,8.14726,0.46852,0.354826,-0.0290152,0
2024-12-13 15:24:28.654,-0.447757,3.43789,7.88136,0.458135,0.335279,-0.0400105,0
2024-12-13 15:24:28.656,-0.533899,3.42592,7.69233,0.447751,0.317564,-0.0467298,0
2024-12-13 15:24:28.660,-0.586541,3.39721,7.55803,0.429426,0.262588,-0.0613902,0
2024-12-13 15:24:28.661,-0.706182,3.40439,7.32114,0.429426,0.262588,-0.0613902,0
2024-12-13 15:24:28.664,-0.862014,3.46421,7.02682,0.412322,0.243652,-0.0632227,0
2024-12-13 15:24:28.666,-0.972084,3.51207,6.79442,0.397051,0.224715,-0.0632227,0
2024-12-13 15:24:28.668,-1.05583,3.52642,6.60539,0.38178,0.205779,-0.062001,0
2024-12-13 15:24:28.671,-1.1324,3.54556,6.40648,0.360934,0.183789,-0.0595576,0
2024-12-13 15:24:28.673,-1.2018,3.5671,6.18634,0.335279,0.163631,-0.0546708,0
2024-12-13 15:24:28.675,-1.25683,3.58385,5.98535,0.305958,0.140419,-0.0485624,0
2024-12-13 15:24:28.678,-1.30229,3.58385,5.80319,0.276027,0.119039,-0.0455081,0
2024-12-13 15:24:28.680,-1.31426,3.58385,5.65245,0.243041,0.0933833,-0.0406213,0
2024-12-13 15:24:28.682,-1.30469,3.56471,5.56391,0.208833,0.0677277,-0.0369563,0
2024-12-13 15:24:28.685,-1.29272,3.52642,5.52084,0.176459,0.0377962,-0.0345129,0
2024-12-13 15:24:28.687,-1.27837,3.49292,5.48495,0.141029,0.0096972,-0.0332912,0
2024-12-13 15:24:28.689,-1.2664,3.47857,5.45863,0.104379,-0.0190126,-0.033902,0
2024-12-13 15:24:28.692,-1.25922,3.46899,5.47538,0.0701711,-0.0452791,-0.0357346,0
2024-12-13 15:24:28.694,-1.25444,3.44985,5.52802,0.038407,-0.0721563,-0.0345129,0
2024-12-13 15:24:28.696,-1.25444,3.45224,5.6022,0.00847551,-0.0978119,-0.0357346,0
2024-12-13 15:24:28.699,-1.24965,3.47139,5.7003,-0.0184018,-0.122246,-0.0375671,0
2024-12-13 15:24:28.704,-1.24008,3.47617,5.96142,-0.0684913,-0.165005,-0.0375671,0
2024-12-13 15:24:28.706,-1.22333,3.47139,6.10259,-0.0874275,-0.180887,-0.0357346,0
2024-12-13 15:24:28.708,-1.1994,3.45224,6.23659,-0.104531,-0.196158,-0.0351237,0
2024-12-13 15:24:28.711,-1.1994,3.45224,6.23659,-0.116137,-0.201656,-0.0345129,0
2024-12-13 15:24:28.711,-1.18744,3.43789,6.38495,-0.116137,-0.201656,-0.0345129,0
2024-12-13 15:24:28.713,-1.1683,3.42832,6.55035,-0.123468,-0.204099,-0.0314586,0
2024-12-13 15:24:28.715,-1.15155,3.41635,6.69871,-0.128354,-0.204099,-0.0277936,0
2024-12-13 15:24:28.718,-1.14437,3.38764,6.82553,-0.129576,-0.200434,-0.0271827,0
2024-12-13 15:24:28.720,-1.12762,3.37089,6.94038,-0.127133,-0.200434,-0.0247393,0
2024-12-13 15:24:28.722,-1.11326,3.37807,7.03879,-0.121635,-0.196769,-0.0229068,0
2024-12-13 15:24:28.725,-1.10369,3.37089,7.11057,-0.116137,-0.191882,-0.0186308,0
2024-12-13 15:24:28.727,-1.09173,3.3685,7.168,-0.108196,-0.187606,-0.0174091,0
2024-12-13 15:24:28.739,-1.12762,3.37567,7.16561,-0.100866,-0.182109,-0.0137441,0
2024-12-13 15:24:28.753,-1.30947,3.51207,7.16082,-0.0458899,-0.215705,0.000916271,0
2024-12-13 15:24:28.755,-1.3334,3.51207,7.15364,-0.0458899,-0.215705,0.000916271,0
2024-12-13 15:24:28.758,-1.35972,3.5001,7.12254,-0.0422248,-0.219981,0.0113007,0
2024-12-13 15:24:28.758,-1.35972,3.5001,7.12254,-0.0422248,-0.219981,0.0113007,0
2024-12-13 15:24:28.760,-1.39322,3.49532,7.08186,-0.0434465,-0.223646,0.0186308,0
2024-12-13 15:24:28.760,-1.39322,3.49532,7.08186,-0.0434465,-0.223646,0.0186308,0
2024-12-13 15:24:28.762,-1.41984,3.5001,7.06032,-0.0465007,-0.229144,0.0265719,0
2024-12-13 15:24:28.762,-1.41984,3.5001,7.06032,-0.0465007,-0.229144,0.0265719,0
2024-12-13 15:24:28.765,-1.43659,3.49771,7.034,-0.0519984,-0.231587,0.0363454,0
2024-12-13 15:24:28.765,-1.43659,3.49771,7.034,-0.0519984,-0.231587,0.0363454,0
2024-12-13 15:24:28.765,-1.43659,3.49771,7.034,-0.0519984,-0.231587,0.0363454,0
2024-12-13 15:24:28.767,-1.43659,3.48814,6.98345,-0.0593285,-0.234642,0.0455081,0
2024-12-13 15:24:28.767,-1.45095,3.48814,6.98345,-0.0593285,-0.234642,0.0455081,0
2024-12-13 15:24:28.767,-1.45095,3.48814,6.98345,-0.0593285,-0.234642,0.0455081,0
2024-12-13 15:24:28.770,-1.44377,3.49292,6.96431,-0.0709346,-0.239528,0.0552817,0
2024-12-13 15:24:28.770,-1.44377,3.49292,6.96431,-0.0709346,-0.239528,0.0552817,0
2024-12-13 15:24:28.772,-1.43181,3.5001,6.94038,-0.0819299,-0.241972,0.0662769,0
2024-12-13 15:24:28.772,-1.43181,3.5001,6.94038,-0.0819299,-0.241972,0.0662769,0
2024-12-13 15:24:28.774,-1.41027,3.49532,6.9021,-0.0990336,-0.244415,0.077883,0
2024-12-13 15:24:28.777,-1.36929,3.50728,6.89013,-0.114916,-0.249913,0.0907108,0
2024-12-13 15:24:28.779,-1.31426,3.52642,6.91167,-0.133241,-0.253578,0.100484,0
2024-12-13 15:24:28.781,-1.25444,3.5336,6.94995,-0.155232,-0.257243,0.109647,0
2024-12-13 15:24:28.784,-1.18983,3.54796,6.99302,-0.155232,-0.257243,0.109647,0
2024-12-13 15:24:28.786,-1.12762,3.5671,7.04597,-0.202878,-0.272514,0.124918,0
2024-12-13 15:24:28.788,-1.07737,3.58385,7.12493,-0.226701,-0.279844,0.130416,0
2024-12-13 15:24:28.791,-1.00798,3.59581,7.24936,-0.24808,-0.285953,0.134768,0
2024-12-13 15:24:28.793,-0.909871,3.61017,7.39292,-0.270682,-0.292672,0.137822,0
2024-12-13 15:24:28.795,-0.816252,3.62453,7.55324,-0.290229,-0.297559,0.139655,0
2024-12-13 15:24:28.800,-0.65354,3.64876,7.86461,-0.323825,-0.300613,0.139044,0
2024-12-13 15:24:28.800,-0.65354,3.64876,7.86461,-0.323825,-0.300613,0.139044,0
2024-12-13 15:24:28.802,-0.567398,3.64128,8.04646,-0.337264,-0.296337,0.137822,0
2024-12-13 15:24:28.805,-0.464507,3.61974,8.19751,-0.350092,-0.29084,0.135379,0
2024-12-13 15:24:28.807,-0.404686,3.61017,8.32672,-0.359865,-0.282899,0.130416,0
2024-12-13 15:24:28.810,-0.337687,3.59342,8.43679,-0.365974,-0.272514,0.12614,0
2024-12-13 15:24:28.812,-0.260818,3.56471,8.52772,-0.372693,-0.26213,0.117588,0
2024-12-13 15:24:28.814,-0.208176,3.52882,8.61147,-0.383078,-0.249913,0.11209,0
2024-12-13 15:24:28.817,-0.157926,3.49532,8.69761,-0.389186,-0.234642,0.110258,0
2024-12-13 15:24:28.819,-0.119641,3.47617,8.79841,-0.397127,-0.220592,0.102928,0
2024-12-13 15:24:28.824,-0.105284,3.46899,9.0018,-0.413009,-0.194937,0.0974301,0
2024-12-13 15:24:28.824,-0.105284,3.46899,9.0018,-0.413009,-0.194937,0.0974301,0
2024-12-13 15:24:28.826,-0.114855,3.47857,9.09751,-0.417896,-0.180887,0.0968193,0
2024-12-13 15:24:28.828,-0.12682,3.47857,9.20997,-0.420339,-0.164394,0.0943759,0
2024-12-13 15:24:28.831,-0.131605,3.46899,9.32513,-0.420339,-0.150345,0.0949868,0
2024-12-13 15:24:28.833,-0.124427,3.45703,9.42563,-0.417285,-0.135684,0.0962084,0
2024-12-13 15:24:28.835,-0.100499,3.45703,9.55005,-0.41362,-0.115526,0.0986518,0
2024-12-13 15:24:28.840,-0.0382852,3.44746,9.77977,-0.408122,-0.0978119,0.101706,0
2024-12-13 15:24:28.840,-0.0382852,3.44746,9.77977,-0.408122,-0.0978119,0.101706,0
2024-12-13 15:24:28.847,0.0909273,3.42592,9.98345,-0.382467,-0.0617719,0.101706,0
2024-12-13 15:24:28.850,0.114855,3.44507,10.0217,-0.332988,-0.00923906,0.098041,0
2024-12-13 15:24:28.850,0.114855,3.44507,10.0217,-0.332988,-0.00923906,0.098041,0
2024-12-13 15:24:28.850,0.114855,3.44507,10.0217,-0.332988,-0.00923906,0.098041,0
2024-12-13 15:24:28.852,0.131605,3.44985,10.0552,-0.31283,0.00786466,0.0949868,0
2024-12-13 15:24:28.854,0.165105,3.45224,10.0624,-0.292061,0.0249684,0.0937651,0
2024-12-13 15:24:28.857,0.162712,3.4666,10.0552,-0.26946,0.0402396,0.0901,0
2024-12-13 15:24:28.859,0.165105,3.47139,10.0265,-0.246859,0.0524565,0.0876566,0
2024-12-13 15:24:28.861,0.177069,3.48814,9.98585,-0.223646,0.0634518,0.0833807,0
2024-12-13 15:24:28.864,0.16989,3.51207,9.93799,-0.199823,0.0701711,0.0797156,0
2024-12-13 15:24:28.866,0.148355,3.51207,9.8686,-0.176,0.0762796,0.0748288,0
2024-12-13 15:24:28.868,0.124427,3.50249,9.78216,-0.153399,0.0805555,0.0729962,0
2024-12-13 15:24:28.871,0.11007,3.49292,9.69123,-0.132019,0.0811663,0.0693312,0
2024-12-13 15:24:28.873,0.0933201,3.49532,9.57159,-0.109418,0.0775012,0.0650552,0
2024-12-13 15:24:28.876,0.066999,3.49771,9.44477,-0.0868167,0.0713928,0.0607793,0
2024-12-13 15:24:28.878,0.0430708,3.48574,9.32752,-0.0678804,0.0640626,0.0601685,0
2024-12-13 15:24:28.880,0.0334995,3.46899,9.21476,-0.0483333,0.0561216,0.0571142,0
2024-12-13 15:24:28.883,0.0239282,3.47139,9.10469,-0.0318404,0.046348,0.0522274,0
2024-12-13 15:24:28.885,0.0119641,3.48335,8.98505,-0.0129041,0.038407,0.0503949,0
2024-12-13 15:24:28.887,-0.00717847,3.46421,8.86541,0.00358873,0.0298552,0.0485624,0
2024-12-13 15:24:28.892,-0.0502493,3.44267,8.69043,0.0353528,0.0139731,0.0442864,0
2024-12-13 15:24:28.892,-0.0502493,3.44267,8.69043,0.0353528,0.0139731,0.0442864,0
2024-12-13 15:24:28.894,-0.0622134,3.41635,8.58515,0.0518457,0.0115297,0.0442864,0
2024-12-13 15:24:28.897,-0.0741775,3.38525,8.46551,0.0658951,0.00481042,0.0424539,0
2024-12-13 15:24:28.899,-0.0717847,3.37807,8.35783,0.0829989,0.00236703,0.0430647,0
2024-12-13 15:24:28.901,-0.066999,3.35892,8.24776,0.0994917,0.000534491,0.041843,0
2024-12-13 15:24:28.904,-0.0646062,3.335,8.14965,0.110487,-7.63559e-05,0.0424539,0
2024-12-13 15:24:28.906,-0.0789631,3.32303,8.068,0.123315,0.00114534,0.0455081,0
2024-12-13 15:24:28.908,-0.0981057,3.3015,7.96511,0.139808,0.00175619,0.046119,0
2024-12-13 15:24:28.911,-0.105284,3.28235,7.85982,0.153857,0.00358873,0.0479515,0
2024-12-13 15:24:28.913,-0.122034,3.28235,7.75693,0.167907,0.00542127,0.0516166,0
2024-12-13 15:24:28.916,-0.136391,3.28235,7.63968,0.182567,0.0096972,0.0528383,0
2024-12-13 15:24:28.918,-0.150748,3.27757,7.52692,0.197838,0.0139731,0.0546708,0
2024-12-13 15:24:28.920,-0.160319,3.28714,7.4025,0.210055,0.0219141,0.0583359,0
2024-12-13 15:24:28.923,-0.155533,3.27996,7.27328,0.222883,0.0255792,0.0601685,0
2024-12-13 15:24:28.925,-0.155533,3.26321,7.12254,0.233878,0.0298552,0.0632227,0
2024-12-13 15:24:28.932,-0.143569,3.268,6.66281,0.254036,0.0396287,0.0656661,0
2024-12-13 15:24:28.934,-0.143569,3.28475,6.51207,0.260755,0.042683,0.0662769,0
2024-12-13 15:24:28.934,-0.143569,3.28475,6.51207,0.260755,0.042683,0.0662769,0
2024-12-13 15:24:28.934,-0.143569,3.28475,6.51207,0.260755,0.042683,0.0662769,0
2024-12-13 15:24:28.937,-0.153141,3.28953,6.36102,0.260145,0.0432938,0.0638335,0
2024-12-13 15:24:28.939,-0.162712,3.28714,6.21267,0.25709,0.0445155,0.0632227,0
2024-12-13 15:24:28.941,-0.16989,3.29432,6.07627,0.25648,0.046348,0.0632227,0
2024-12-13 15:24:28.944,-0.18664,3.29671,5.92553,0.250982,0.0451263,0.0632227,0
2024-12-13 15:24:28.946,-0.18664,3.2991,5.77448,0.243041,0.0451263,0.0626118,0
2024-12-13 15:24:28.949,-0.191426,3.30628,5.65962,0.232046,0.0402396,0.0595576,0
2024-12-13 15:24:28.951,-0.193819,3.31346,5.54955,0.221661,0.0347419,0.0589468,0
2024-12-13 15:24:28.953,-0.184247,3.31825,5.44188,0.205168,0.0292443,0.0565034,0
2024-12-13 15:24:28.956,-0.162712,3.32303,5.35095,0.189897,0.0194708,0.0528383,0
2024-12-13 15:24:28.958,-0.138784,3.32782,5.26451,0.173404,0.0109189,0.0491732,0
2024-12-13 15:24:28.960,-0.131605,3.34935,5.20947,0.155079,-7.63559e-05,0.0430647,0
2024-12-13 15:24:28.963,-0.112463,3.37567,5.17358,0.134921,-0.0110716,0.038178,0
2024-12-13 15:24:28.965,-0.081356,3.37328,5.14487,0.113541,-0.0226777,0.0314586,0
2024-12-13 15:24:28.967,-0.0574277,3.35414,5.14726,0.0921616,-0.0348946,0.0247393,0
2024-12-13 15:24:28.970,-0.0287139,3.35653,5.17597,0.0738362,-0.0489441,0.0155766,0
2024-12-13 15:24:28.972,-0.00717847,3.33978,5.20469,0.0548999,-0.0611611,0.00763559,0
2024-12-13 15:24:28.974,0.0143569,3.31825,5.2358,0.038407,-0.0752106,-0.000916271,0
2024-12-13 15:24:28.977,0.0454636,3.32543,5.27887,0.0194708,-0.0886492,-0.0125224,0
2024-12-13 15:24:28.979,0.0717847,3.32782,5.33659,0.00358873,-0.0990336,-0.0229068,0
2024-12-13 15:24:28.981,0.0885344,3.31346,5.41795,-0.0129041,-0.112472,-0.0326803,0
2024-12-13 15:24:28.984,0.112463,3.29432,5.51366,-0.0263428,-0.127743,-0.046119,0
2024-12-13 15:24:28.986,0.131605,3.27518,5.60698,-0.0379489,-0.13996,-0.0595576,0
2024-12-13 15:24:28.989,0.136391,3.25603,5.70748,-0.0477224,-0.150345,-0.0705529,0
2024-12-13 15:24:28.991,0.141177,3.23211,5.82234,-0.0556635,-0.159507,-0.0815481,0
2024-12-13 15:24:28.993,0.138784,3.2345,5.93988,-0.0605502,-0.170503,-0.0937651,0
2024-12-13 15:24:28.996,0.138784,3.24168,6.04995,-0.0636045,-0.179055,-0.104149,0
2024-12-13 15:24:28.998,0.119641,3.21536,6.15284,-0.0648262,-0.19005,-0.113312,0
2024-12-13 15:24:29.000,0.0909273,3.19861,6.2677,-0.065437,-0.199823,-0.121253,0
2024-12-13 15:24:29.003,0.0717847,3.19382,6.39213,-0.0587177,-0.210819,-0.129805,0
2024-12-13 15:24:29.005,0.0478565,3.19143,6.50489,-0.0593285,-0.224257,-0.138357,0
2024-12-13 15:24:29.007,0.0119641,3.18664,6.60539,-0.0532201,-0.236474,-0.144465,0
2024-12-13 15:24:29.010,-0.0239282,3.18425,6.68435,-0.0458899,-0.246248,-0.148741,0
2024-12-13 15:24:29.012,-0.0622134,3.19861,6.75613,-0.0410031,-0.257243,-0.151796,0
2024-12-13 15:24:29.014,-0.112463,3.20578,6.82792,-0.0324513,-0.265184,-0.153628,0
2024-12-13 15:24:29.017,-0.160319,3.20818,6.87338,-0.0232886,-0.275568,-0.15485,0
2024-12-13 15:24:29.019,-0.196211,3.22014,6.88535,-0.0153475,-0.284731,-0.154239,0
2024-12-13 15:24:29.022,-0.229711,3.24168,6.90688,-0.00984991,-0.291451,-0.151796,0
2024-12-13 15:24:29.024,-0.256032,3.24885,6.93799,-0.00740652,-0.298781,-0.150574,0
2024-12-13 15:24:29.026,-0.270389,3.25125,6.95235,-0.00618483,-0.306722,-0.148741,0
2024-12-13 15:24:29.029,-0.285045,3.26321,6.96431,-0.00374144,-0.313441,-0.145687,0
2024-12-13 15:24:29.031,-0.287438,3.3015,6.98345,-0.00374144,-0.322604,-0.141411,0
2024-12-13 15:24:29.033,-0.294616,3.33021,7.00977,-0.00679568,-0.329323,-0.138357,0
2024-12-13 15:24:29.036,-0.320937,3.335,7.04118,-0.013515,-0.332377,-0.136524,0
2024-12-13 15:24:29.038,-0.325723,3.35414,7.07946,-0.0147367,-0.339097,-0.132248,0
2024-12-13 15:24:29.040,-0.311366,3.38046,7.12254,-0.021456,-0.344594,-0.127362,0
2024-12-13 15:24:29.043,-0.304188,3.40439,7.16321,-0.0275645,-0.348259,-0.123697,0
2024-12-13 15:24:29.045,-0.308973,3.40917,7.22064,-0.029397,-0.350092,-0.120031,0
2024-12-13 15:24:29.047,-0.30658,3.41396,7.28764,-0.0379489,-0.351924,-0.114534,0
2024-12-13 15:24:29.050,-0.285045,3.4331,7.34268,-0.0440574,-0.353757,-0.11209,0
2024-12-13 15:24:29.052,-0.277567,3.44028,7.4025,-0.0507767,-0.359255,-0.110258,0
2024-12-13 15:24:29.055,-0.265603,3.4331,7.46949,-0.0593285,-0.364752,-0.107204,0
2024-12-13 15:24:29.057,-0.244068,3.4331,7.5341,-0.0684913,-0.369639,-0.105371,0
2024-12-13 15:24:29.059,-0.22014,3.44746,7.60379,-0.077654,-0.378191,-0.102928,0
2024-12-13 15:24:29.062,-0.200997,3.45224,7.68036,-0.0868167,-0.386743,-0.101095,0
2024-12-13 15:24:29.064,-0.196211,3.44507,7.77368,-0.0978119,-0.39896,-0.0992627,0
2024-12-13 15:24:29.066,-0.191426,3.45703,7.86222,-0.108196,-0.408122,-0.098041,0
2024-12-13 15:24:29.069,-0.162712,3.4666,7.96511,-0.123468,-0.419728,-0.0968193,0
2024-12-13 15:24:29.071,-0.124427,3.48096,8.09671,-0.133241,-0.435,-0.0931542,0
2024-12-13 15:24:29.073,-0.0909273,3.50249,8.24298,-0.146069,-0.446606,-0.0901,0
2024-12-13 15:24:29.076,-0.0646062,3.51924,8.39133,-0.158286,-0.456379,-0.0901,0
2024-12-13 15:24:29.078,-0.0334995,3.53599,8.55165,-0.169281,-0.467375,-0.0888783,0
2024-12-13 15:24:29.080,0.00239282,3.55753,8.74816,-0.176611,-0.472872,-0.0852132,0
2024-12-13 15:24:29.083,0.0287139,3.56471,8.9348,-0.186385,-0.478981,-0.0833807,0
2024-12-13 15:24:29.085,0.0478565,3.58864,9.12144,-0.194326,-0.480813,-0.0803264,0
2024-12-13 15:24:29.087,0.066999,3.64128,9.33709,-0.199823,-0.477759,-0.0766613,0
2024-12-13 15:24:29.090,0.0885344,3.67986,9.54527,-0.199213,-0.470429,-0.0736071,0
2024-12-13 15:24:29.092,0.0933201,3.72293,9.74627,-0.196769,-0.461266,-0.0705529,0
2024-12-13 15:24:29.095,0.0909273,3.78515,9.95713,-0.192493,-0.447217,-0.0656661,0
2024-12-13 15:24:29.097,0.0885344,3.85932,10.1581,-0.183331,-0.427059,-0.0583359,0
2024-12-13 15:24:29.099,0.0885344,3.91914,10.3472,-0.171724,-0.406901,-0.0528383,0
2024-12-13 15:24:29.102,0.0717847,3.95743,10.5078,-0.157675,-0.380023,-0.0473407,0
2024-12-13 15:24:29.104,0.0430708,3.99811,10.637,-0.141182,-0.351314,-0.041843,0
2024-12-13 15:24:29.106,0.0334995,4.02682,10.7279,-0.1253,-0.322604,-0.0351237,0
2024-12-13 15:24:29.109,0.0215354,4.05793,10.7949,-0.108807,-0.294505,-0.0284044,0
2024-12-13 15:24:29.111,0.0239282,4.09621,10.8715,-0.093536,-0.268849,-0.0229068,0
2024-12-13 15:24:29.113,0.0239282,4.11775,10.946,-0.077654,-0.243804,-0.0149658,0
2024-12-13 15:24:29.116,0.00957129,4.14407,10.9866,-0.0648262,-0.223646,-0.00885729,0
2024-12-13 15:24:29.118,-0.00957129,4.168,11.0034,-0.0507767,-0.205932,-0.000916271,0
2024-12-13 15:24:29.120,-0.0119641,4.18714,11.0249,-0.0434465,-0.190661,0.00824644,0
2024-12-13 15:24:29.123,0.0167498,4.21376,11.0608,-0.0348946,-0.179055,0.0174091,0
2024-12-13 15:24:29.125,0.0598206,4.22812,11.1111,-0.0263428,-0.169892,0.0229068,0
2024-12-13 15:24:29.128,0.114855,4.25444,11.1589,-0.0208452,-0.162562,0.0302369,0
2024-12-13 15:24:29.130,0.174676,4.27837,11.2235,-0.0177909,-0.15401,0.0369563,0
2024-12-13 15:24:29.132,0.22014,4.31187,11.2953,-0.0141258,-0.144847,0.0430647,0
2024-12-13 15:24:29.135,0.258425,4.3669,11.3527,-0.0110716,-0.134463,0.0473407,0
2024-12-13 15:24:29.137,0.285045,4.42911,11.415,-0.00801737,-0.119802,0.0546708,0
2024-12-13 15:24:29.139,0.297009,4.52004,11.4891,-0.00557398,-0.102699,0.0583359,0
2024-12-13 15:24:29.142,0.275175,4.62533,11.5684,-0.00313059,-0.0837624,0.0644444,0
2024-12-13 15:24:29.144,0.236889,4.72343,11.6234,0.000534491,-0.0672696,0.0711637,0
2024-12-13 15:24:29.146,0.217747,4.82184,11.6617,0.00419957,-0.0458899,0.077883,0
2024-12-13 15:24:29.149,0.212961,4.92234,11.7048,0.00908635,-0.029397,0.0833807,0
2024-12-13 15:24:29.151,0.217747,5.00369,11.7383,0.010308,-0.0171801,0.0882674,0
2024-12-13 15:24:29.153,0.239282,5.08983,11.7646,0.0096972,-0.0116825,0.0901,0
2024-12-13 15:24:29.156,0.270389,5.1688,11.7933,0.00786466,-0.00984991,0.0894891,0
2024-12-13 15:24:29.158,0.320937,5.25015,11.8125,0.00419957,-0.0104608,0.0833807,0
2024-12-13 15:24:29.161,0.359223,5.31476,11.8244,-0.0019089,-0.0177909,0.0766613,0
2024-12-13 15:24:29.163,0.387936,5.36531,11.8412,-0.0104608,-0.0287862,0.0687203,0
2024-12-13 15:24:29.165,0.414257,5.41795,11.8747,-0.0196235,-0.0434465,0.0577251,0
2024-12-13 15:24:29.168,0.440578,5.45145,11.9201,-0.0287862,-0.0642153,0.046119,0
2024-12-13 15:24:29.170,0.481256,5.47298,11.9752,-0.0403923,-0.0886492,0.0332912,0
2024-12-13 15:24:29.172,0.502792,5.47298,12.0494,-0.0513875,-0.115526,0.0192417,0
2024-12-13 15:24:29.175,0.514756,5.47059,12.1525,-0.0629936,-0.147901,0.00580305,0
2024-12-13 15:24:29.177,0.521934,5.48255,12.265,-0.073378,-0.179665,-0.00763559,0
2024-12-13 15:24:29.179,0.52672,5.47777,12.3799,-0.085595,-0.21143,-0.0186308,0
2024-12-13 15:24:29.182,0.521934,5.44666,12.5115,-0.0923143,-0.242583,-0.0290152,0
2024-12-13 15:24:29.184,0.500399,5.41077,12.6362,-0.0978119,-0.270071,-0.038178,0
2024-12-13 15:24:29.186,0.490828,5.3677,12.7726,-0.10392,-0.292061,-0.0436756,0
2024-12-13 15:24:29.189,0.505185,5.30279,12.9114,-0.105753,-0.310387,-0.0479515,0
2024-12-13 15:24:29.191,0.517149,5.2358,13.0238,-0.106364,-0.325658,-0.0534491,0
2024-12-13 15:24:29.193,0.517149,5.1664,13.1148,-0.105753,-0.335431,-0.0546708,0
2024-12-13 15:24:29.198,0.531506,5.04676,13.2395,-0.10392,-0.348259,-0.0522274,0
2024-12-13 15:24:29.198,0.531506,5.04676,13.2395,-0.10392,-0.348259,-0.0522274,0
2024-12-13 15:24:29.201,0.56022,4.9678,13.261,-0.10392,-0.348259,-0.0485624,0
2024-12-13 15:24:29.203,0.593719,4.90319,13.2706,-0.106975,-0.347038,-0.0430647,0
2024-12-13 15:24:29.205,0.634397,4.84577,13.2897,-0.109418,-0.345816,-0.038178,0
2024-12-13 15:24:29.208,0.665504,4.78355,13.3089,-0.114305,-0.342151,-0.0345129,0
2024-12-13 15:24:29.210,0.694218,4.7354,13.3496,-0.122246,-0.335431,-0.0296261,0
2024-12-13 15:24:29.212,0.715753,4.70668,13.4022,-0.130187,-0.324436,-0.0241285,0
2024-12-13 15:24:29.215,0.725324,4.68993,13.462,-0.138739,-0.31283,-0.0186308,0
2024-12-13 15:24:29.217,0.725324,4.68993,13.5314,-0.142404,-0.293283,-0.0143549,0
2024-12-13 15:24:29.219,0.708575,4.69233,13.608,-0.147291,-0.262741,-0.0064139,0
2024-12-13 15:24:29.222,0.677468,4.68993,13.6678,-0.147901,-0.223646,-0.000305424,0
2024-12-13 15:24:29.224,0.63679,4.68754,13.7204,-0.149123,-0.179665,0.0064139,0
2024-12-13 15:24:29.226,0.586541,4.68275,13.7686,-0.14668,-0.131409,0.0161875,0
2024-12-13 15:24:29.229,0.514756,4.68275,13.7997,-0.142404,-0.0800973,0.0247393,1
2024-12-13 15:24:29.231,0.438186,4.68275,13.8021,-0.135684,-0.0300079,0.0363454,0
2024-12-13 15:24:29.234,0.375972,4.67797,13.7686,-0.1253,0.0206925,0.0467298,0
2024-12-13 15:24:29.236,0.299402,4.68036,13.7037,-0.119802,0.0701711,0.0589468,0
2024-12-13 15:24:29.238,0.212961,4.67318,13.5864,-0.106975,0.114152,0.069942,0
2024-12-13 15:24:29.241,0.133998,4.65883,13.4261,-0.10331,0.153857,0.0827698,0
2024-12-13 15:24:29.243,0.0550349,4.65165,13.2419,-0.0978119,0.18501,0.0937651,0
2024-12-13 15:24:29.245,-0.0311067,4.63968,13.043,-0.0953685,0.207001,0.105371,0
2024-12-13 15:24:29.248,-0.114855,4.61576,12.8539,-0.0959794,0.214942,0.11881,0
2024-12-13 15:24:29.250,-0.177069,4.60858,12.6912,-0.100866,0.21372,0.13347,0
2024-12-13 15:24:29.252,-0.222533,4.61097,12.5378,-0.109418,0.200892,0.149429,0
2024-12-13 15:24:29.255,-0.244068,4.59422,12.4062,-0.116137,0.180124,0.161645,0
2024-12-13 15:24:29.257,-0.224925,4.57986,12.2913,-0.126522,0.154468,0.176306,0
2024-12-13 15:24:29.259,-0.18664,4.56311,12.2267,-0.13996,0.116595,0.189134,0
2024-12-13 15:24:29.262,-0.119641,4.52004,12.21,-0.150956,0.0732253,0.202572,0
2024-12-13 15:24:29.264,-0.0478565,4.47697,12.2124,-0.165616,0.0261901,0.212957,0
2024-12-13 15:24:29.266,0.0502493,4.45065,12.2602,-0.176611,-0.0226777,0.22273,0
2024-12-13 15:24:29.269,0.191426,4.41715,12.3416,-0.191272,-0.0697129,0.229449,0
2024-12-13 15:24:29.271,0.332901,4.37408,12.4325,-0.199823,-0.115526,0.23678,0
2024-12-13 15:24:29.274,0.457328,4.32383,12.5569,-0.207764,-0.160118,0.241666,0
2024-12-13 15:24:29.276,0.586541,4.28315,12.7199,-0.21143,-0.198602,0.239834,0
2024-12-13 15:24:29.282,0.854836,4.22094,13.0765,-0.205321,-0.29084,0.234336,0
2024-12-13 15:24:29.283,0.984048,4.15364,13.2467,-0.205321,-0.29084,0.234336,0
2024-12-13 15:24:29.283,0.984048,4.15364,13.2467,-0.205321,-0.29084,0.234336,0
2024-12-13 15:24:29.285,1.10608,4.06989,13.3974,-0.197991,-0.302446,0.226395,0
2024-12-13 15:24:29.288,1.20419,3.99332,13.5314,-0.184552,-0.308554,0.221508,0
2024-12-13 15:24:29.290,1.27597,3.91914,13.6415,-0.173557,-0.313441,0.214178,0
2024-12-13 15:24:29.292,1.32144,3.84497,13.7061,-0.157675,-0.310387,0.206848,0
2024-12-13 15:24:29.295,1.3669,3.77557,13.759,-0.13996,-0.303667,0.200129,0
2024-12-13 15:24:29.297,1.40788,3.69422,13.7925,-0.124078,-0.292672,0.194631,0
2024-12-13 15:24:29.299,1.39322,3.61017,13.8236,-0.107585,-0.279234,0.189744,0
2024-12-13 15:24:29.302,1.37169,3.52642,13.8332,-0.0880384,-0.259686,0.18669,0
2024-12-13 15:24:29.304,1.36929,3.44746,13.7901,-0.0697129,-0.237085,0.189134,0
2024-12-13 15:24:29.307,1.34297,3.36371,13.7252,-0.0458899,-0.210208,0.191577,0
2024-12-13 15:24:29.309,1.28076,3.29432,13.6391,-0.0251211,-0.180276,0.195242,0
2024-12-13 15:24:29.311,1.21854,3.24168,13.5242,-0.00557398,-0.146069,0.201961,0
2024-12-13 15:24:29.314,1.17547,3.19621,13.4022,0.0182491,-0.108807,0.213567,0
2024-12-13 15:24:29.316,1.14197,3.15075,13.2634,0.0347419,-0.0764323,0.225784,0
2024-12-13 15:24:29.318,1.09651,3.09571,13.0956,0.0512348,-0.0452791,0.242277,0
2024-12-13 15:24:29.321,1.03669,3.05713,12.9209,0.0713928,-0.0104608,0.263046,0
2024-12-13 15:24:29.323,0.988834,3.02124,12.7104,0.0860531,0.0219141,0.284426,0
2024-12-13 15:24:29.325,0.950549,2.99013,12.5019,0.0976592,0.0518457,0.310081,0
2024-12-13 15:24:29.328,0.914656,2.98535,12.3105,0.111098,0.0854423,0.333904,0
2024-12-13 15:24:29.330,0.907478,2.98295,12.1023,0.121482,0.115374,0.360171,0
2024-12-13 15:24:29.332,0.897907,2.99731,11.9106,0.130034,0.145305,0.385826,0
2024-12-13 15:24:29.335,0.885943,3.01884,11.755,0.136143,0.172793,0.41026,0
2024-12-13 15:24:29.337,0.878764,3.04995,11.6043,0.144694,0.197838,0.433472,0
2024-12-13 15:24:29.340,0.88355,3.10289,11.4437,0.152025,0.218607,0.457296,0
2024-12-13 15:24:29.342,0.88355,3.134,11.2834,0.156301,0.236932,0.478064,0
2024-12-13 15:24:29.344,0.890728,3.16032,11.123,0.163631,0.254036,0.493336,0
2024-12-13 15:24:29.347,0.933799,3.20818,10.9508,0.17035,0.266864,0.508607,0
2024-12-13 15:24:29.349,0.981655,3.24885,10.759,0.174626,0.279692,0.522656,0
2024-12-13 15:24:29.351,1.0319,3.28235,10.5724,0.181345,0.289465,0.53243,0
2024-12-13 15:24:29.354,1.08215,3.31585,10.3977,0.186843,0.294963,0.540371,0
2024-12-13 15:24:29.356,1.14197,3.3326,10.2538,0.189286,0.294963,0.545258,0
2024-12-13 15:24:29.358,1.21376,3.33739,10.1198,0.189897,0.292519,0.547701,0
2024-12-13 15:24:29.361,1.26879,3.33739,9.95235,0.194173,0.290687,0.550144,0
2024-12-13 15:24:29.363,1.33819,3.34935,9.77019,0.194784,0.287022,0.550755,0
2024-12-13 15:24:29.365,1.41266,3.38285,9.58595,0.194784,0.281524,0.548312,0
2024-12-13 15:24:29.368,1.47966,3.41635,9.40888,0.19173,0.273583,0.544036,0
2024-12-13 15:24:29.370,1.52034,3.44267,9.25305,0.187454,0.267475,0.540371,0
2024-12-13 15:24:29.372,1.55623,3.45224,9.0999,0.178902,0.255869,0.531819,0
2024-12-13 15:24:29.375,1.62802,3.45464,8.9683,0.174626,0.246095,0.522656,0
2024-12-13 15:24:29.377,1.69741,3.45464,8.84148,0.165463,0.235711,0.514715,0
2024-12-13 15:24:29.380,1.76919,3.45464,8.71227,0.158744,0.225937,0.501887,0
2024-12-13 15:24:29.382,1.83859,3.44267,8.59951,0.14897,0.216164,0.486005,0
2024-12-13 15:24:29.384,1.91276,3.4355,8.48944,0.142251,0.208223,0.472567,0
2024-12-13 15:24:29.389,2.02074,3.40917,8.30519,0.121482,0.196006,0.439581,0
2024-12-13 15:24:29.391,2.07817,3.39003,8.22383,0.113541,0.191119,0.422477,0
2024-12-13 15:24:29.391,2.07817,3.39003,8.22383,0.113541,0.191119,0.422477,0
2024-12-13 15:24:29.394,2.11645,3.37328,8.14248,0.103768,0.188675,0.404763,0
2024-12-13 15:24:29.396,2.14277,3.36371,8.05604,0.0952158,0.188065,0.387659,0
2024-12-13 15:24:29.398,2.19063,3.34935,7.98186,0.0872748,0.187454,0.369944,0
2024-12-13 15:24:29.401,2.24088,3.33739,7.91247,0.0799446,0.183789,0.349786,0
2024-12-13 15:24:29.403,2.28634,3.31346,7.85265,0.0677277,0.180124,0.329628,0
2024-12-13 15:24:29.405,2.33181,3.28475,7.8024,0.0616192,0.172183,0.308249,0
2024-12-13 15:24:29.408,2.35813,3.27278,7.76411,0.0555107,0.162409,0.285647,0
2024-12-13 15:24:29.410,2.35095,3.25125,7.75454,0.050624,0.14897,0.265489,0
2024-12-13 15:24:29.413,2.30788,3.22014,7.76411,0.0481806,0.132477,0.244721,0
2024-12-13 15:24:29.415,2.26481,3.201,7.77368,0.046348,0.11232,0.225784,0
2024-12-13 15:24:29.417,2.22652,3.201,7.8,0.0481806,0.0884965,0.205016,0
2024-12-13 15:24:29.420,2.1667,3.20339,7.84068,0.0512348,0.0597867,0.18669,0
2024-12-13 15:24:29.427,2.03031,3.15793,7.94836,0.0793338,-0.029397,0.132859,0
2024-12-13 15:24:29.427,2.07338,3.15793,7.94836,0.0793338,-0.029397,0.132859,0
2024-12-13 15:24:29.427,2.03031,3.15793,7.94836,0.0793338,-0.029397,0.132859,0
2024-12-13 15:24:29.429,1.98724,3.15553,7.95793,0.0939941,-0.0593285,0.115756,0
2024-12-13 15:24:29.431,1.92712,3.13161,7.96989,0.111709,-0.0849841,0.0986518,0
2024-12-13 15:24:29.434,1.85294,3.11007,7.98186,0.125147,-0.111251,0.0839915,0
2024-12-13 15:24:29.436,1.79073,3.1005,7.97947,0.142251,-0.135684,0.0681095,0
2024-12-13 15:24:29.438,1.74287,3.09811,7.96511,0.158133,-0.157064,0.0552817,0
2024-12-13 15:24:29.441,1.68066,3.09571,7.96032,0.175237,-0.177833,0.0424539,0
2024-12-13 15:24:29.443,1.82423,3.05234,7.91247,0.190508,-0.19005,0.0302369,0
2024-12-13 15:24:29.445,2.19063,2.97338,7.85025,0.205779,-0.189439,0.0125224,0
2024-12-13 15:24:29.448,2.16909,2.98535,7.6684,0.222272,-0.169281,-0.0106898,0
2024-12-13 15:24:29.450,1.87208,3.08106,7.37378,0.230824,-0.131409,-0.0265719,0
2024-12-13 15:24:29.453,1.65194,3.11964,7.18953,0.228381,-0.104531,-0.0400105,0
2024-12-13 15:24:29.455,1.37886,3.14836,7.13929,0.22044,-0.0965902,-0.0455081,0
2024-12-13 15:24:29.457,1.14197,3.19382,7.17757,0.21372,-0.101477,-0.0479515,0
2024-12-13 15:24:29.460,1.0008,3.21775,7.21825,0.207612,-0.116748,-0.0473407,0
2024-12-13 15:24:29.462,0.955334,3.22732,7.21107,0.198449,-0.13935,-0.0424539,0
2024-12-13 15:24:29.464,0.986441,3.21057,7.18714,0.188675,-0.159507,-0.0406213,0
2024-12-13 15:24:29.467,1.07976,3.18186,7.15364,0.181956,-0.168059,-0.0406213,0
2024-12-13 15:24:29.469,1.19222,3.12921,7.06989,0.177069,-0.165005,-0.0412322,0
2024-12-13 15:24:29.471,1.26162,3.0667,6.95474,0.169739,-0.155232,-0.0430647,0
2024-12-13 15:24:29.474,1.31186,3.02602,6.83271,0.161798,-0.140571,-0.0491732,0
2024-12-13 15:24:29.476,1.35254,2.99013,6.71067,0.14836,-0.120413,-0.0558925,0
2024-12-13 15:24:29.478,1.40279,2.96142,6.61017,0.131256,-0.0996445,-0.0613902,0
2024-12-13 15:24:29.481,1.43659,2.94227,6.55753,0.113541,-0.0837624,-0.0668878,0
2024-12-13 15:24:29.484,1.41266,2.93988,6.51925,0.0646735,-0.0648262,-0.082159,0
2024-12-13 15:24:29.486,1.37169,2.9662,6.45464,0.0646735,-0.0648262,-0.082159,0
2024-12-13 15:24:29.488,1.33101,2.99252,6.39213,0.0365745,-0.0611611,-0.0870457,0
2024-12-13 15:24:29.490,1.27597,3.01406,6.34666,0.00786466,-0.0617719,-0.0882674,0
2024-12-13 15:24:29.493,1.21376,3.0332,6.33231,-0.0202343,-0.0599394,-0.0894891,0
2024-12-13 15:24:29.495,1.16112,3.03799,6.32513,-0.0526092,-0.0593285,-0.0888783,0
2024-12-13 15:24:29.497,1.13001,3.03799,6.3347,-0.0862058,-0.0599394,-0.0839915,0
2024-12-13 15:24:29.500,1.11087,3.04038,6.35863,-0.114916,-0.0587177,-0.0839915,0
2024-12-13 15:24:29.502,1.09651,3.0332,6.38734,-0.144847,-0.0532201,-0.0827698,0
2024-12-13 15:24:29.504,1.08933,3.02602,6.41605,-0.17539,-0.0471116,-0.0766613,0
2024-12-13 15:24:29.507,1.08455,3.00688,6.44238,-0.202267,-0.0361163,-0.0742179,0
2024-12-13 15:24:29.509,1.09173,2.98535,6.50967,-0.229755,-0.0281753,-0.0736071,0
2024-12-13 15:24:29.511,1.10369,2.96381,6.58864,-0.257243,-0.0171801,-0.0717745,0
2024-12-13 15:24:29.514,1.11087,2.94227,6.66999,-0.281066,-0.00923906,-0.0681095,0
2024-12-13 15:24:29.516,1.11087,2.92552,6.7681,-0.303667,-0.00374144,-0.0668878,0
2024-12-13 15:24:29.519,1.10848,2.90399,6.88056,-0.325047,-0.000687203,-0.0662769,0
2024-12-13 15:24:29.521,1.11087,2.90638,7.0026,-0.342151,0.00358873,-0.0644444,0
2024-12-13 15:24:29.523,1.11326,2.89203,7.11775,-0.3562,0.00542127,-0.0626118,0
2024-12-13 15:24:29.526,1.10608,2.8657,7.24936,-0.373915,0.00419957,-0.0595576,0
2024-12-13 15:24:29.528,1.07019,2.87528,7.39292,-0.380634,0.00297788,-0.0601685,0
2024-12-13 15:24:29.530,1.0343,2.87767,7.54367,-0.387354,-0.00251974,-0.0571142,0
2024-12-13 15:24:29.533,1.02233,2.87767,7.70668,-0.391629,-0.00679568,-0.0546708,0
2024-12-13 15:24:29.535,1.02473,2.89442,7.87897,-0.39224,-0.0141258,-0.0528383,0
2024-12-13 15:24:29.537,1.07976,2.87528,8.05125,-0.387964,-0.0238994,-0.05406,0
2024-12-13 15:24:29.540,1.16112,2.82981,8.20708,-0.380023,-0.0287862,-0.0571142,0
2024-12-13 15:24:29.542,1.27358,2.80349,8.36022,-0.368417,-0.0330621,-0.0607793,0
2024-12-13 15:24:29.544,1.41984,2.78435,8.48944,-0.353757,-0.0306187,-0.0662769,0
2024-12-13 15:24:29.547,1.55862,2.75563,8.57797,-0.335431,-0.0220669,-0.0748288,0
2024-12-13 15:24:29.549,1.67587,2.71256,8.63779,-0.318939,-0.00862822,-0.085824,0
2024-12-13 15:24:29.551,1.75962,2.67189,8.65693,-0.301835,0.010308,-0.0955976,0
2024-12-13 15:24:29.554,1.79551,2.65035,8.65215,-0.285342,0.0347419,-0.108425,0
2024-12-13 15:24:29.556,1.76919,2.66231,8.65933,-0.268849,0.0591758,-0.116977,0
2024-12-13 15:24:29.559,1.70219,2.68624,8.65693,-0.252967,0.0860531,-0.124918,0
2024-12-13 15:24:29.561,1.5993,2.71017,8.6354,-0.241361,0.109265,-0.129805,0
2024-12-13 15:24:29.563,1.47966,2.73649,8.59951,-0.229755,0.132477,-0.131638,0
2024-12-13 15:24:29.566,1.37169,2.75324,8.55165,-0.223646,0.151414,-0.129194,0
2024-12-13 15:24:29.568,1.27358,2.77238,8.49183,-0.21876,0.168517,-0.125529,0
2024-12-13 15:24:29.570,1.1683,2.77238,8.44397,-0.215095,0.183178,-0.117588,0
2024-12-13 15:24:29.573,1.06301,2.76999,8.38176,-0.215705,0.196616,-0.105371,0
2024-12-13 15:24:29.575,0.988834,2.76521,8.3004,-0.215705,0.209444,-0.0919325,0
2024-12-13 15:24:29.577,0.931406,2.74606,8.2358,-0.219371,0.221661,-0.077883,0
2024-12-13 15:24:29.580,0.881157,2.72931,8.18315,-0.225479,0.231435,-0.0595576,0
2024-12-13 15:24:29.582,0.85005,2.71017,8.14726,-0.229144,0.238765,-0.0442864,0
2024-12-13 15:24:29.584,0.828216,2.70539,8.11586,-0.236474,0.244873,-0.025961,0
2024-12-13 15:24:29.587,0.80668,2.70778,8.09911,-0.241361,0.245484,-0.00702474,0
2024-12-13 15:24:29.589,0.789931,2.71017,8.08953,-0.247469,0.241208,0.00946813,0
2024-12-13 15:24:29.592,0.775574,2.7341,8.07518,-0.2548,0.2351,0.0265719,0
2024-12-13 15:24:29.594,0.754038,2.77238,8.08475,-0.261519,0.22044,0.041843,0
2024-12-13 15:24:29.596,0.737288,2.81306,8.11586,-0.26946,0.203336,0.0571142,0
2024-12-13 15:24:29.599,0.718146,2.8657,8.14248,-0.274347,0.185621,0.0711637,0
2024-12-13 15:24:29.601,0.722932,2.93988,8.1664,-0.283509,0.161187,0.0815481,0
2024-12-13 15:24:29.603,0.737288,2.99013,8.2334,-0.289618,0.134921,0.0937651,0
2024-12-13 15:24:29.606,0.73011,3.03081,8.31715,-0.295116,0.109265,0.103539,0
2024-12-13 15:24:29.608,0.734896,3.07627,8.39133,-0.297559,0.0787229,0.110258,0
2024-12-13 15:24:29.610,0.744467,3.11486,8.47986,-0.302446,0.0481806,0.114534,0
2024-12-13 15:24:29.613,0.758824,3.15075,8.58515,-0.302446,0.0206925,0.120642,0
2024-12-13 15:24:29.615,0.799502,3.17707,8.69043,-0.303057,-0.00862822,0.12614,0
2024-12-13 15:24:29.617,0.85005,3.19143,8.80798,-0.303667,-0.0379489,0.128583,0
2024-12-13 15:24:29.620,0.902692,3.17707,8.92523,-0.301224,-0.0636045,0.128583,0
2024-12-13 15:24:29.622,0.97687,3.15553,9.03051,-0.298781,-0.0843733,0.128583,0
2024-12-13 15:24:29.625,1.05823,3.15793,9.10948,-0.292061,-0.10331,0.127972,0
2024-12-13 15:24:29.627,1.12522,3.13161,9.17169,-0.288396,-0.116137,0.125529,0
2024-12-13 15:24:29.629,1.19462,3.1005,9.22433,-0.280455,-0.124078,0.123086,0
2024-12-13 15:24:29.632,1.26401,3.07627,9.28924,-0.272514,-0.127743,0.117588,0
2024-12-13 15:24:29.634,1.31665,3.04756,9.38495,-0.264573,-0.127133,0.113312,0
2024-12-13 15:24:29.636,1.37408,3.02124,9.44956,-0.252967,-0.121024,0.109647,0
2024-12-13 15:24:29.639,1.43659,2.97338,9.51177,-0.24075,-0.11064,0.107204,0
2024-12-13 15:24:29.641,1.47727,2.92074,9.54048,-0.226701,-0.0941468,0.102317,0
2024-12-13 15:24:29.643,1.48684,2.88485,9.56441,-0.212651,-0.0727672,0.0974301,0
2024-12-13 15:24:29.646,1.48445,2.86092,9.57159,-0.19738,-0.0452791,0.0937651,0
2024-12-13 15:24:29.648,1.47488,2.85853,9.54048,-0.180887,-0.013515,0.0907108,0
2024-12-13 15:24:29.650,1.45095,2.83938,9.49981,-0.163173,0.0243575,0.0888783,0
2024-12-13 15:24:29.653,1.39801,2.8011,9.43281,-0.143625,0.0646735,0.0888783,0
2024-12-13 15:24:29.655,1.33819,2.7676,9.36102,-0.124078,0.108654,0.0888783,0
2024-12-13 15:24:29.657,1.2999,2.73888,9.25544,-0.104531,0.154468,0.0919325,0
2024-12-13 15:24:29.660,1.23769,2.71735,9.12144,-0.0862058,0.200282,0.0962084,0
2024-12-13 15:24:29.662,1.15155,2.68146,8.98505,-0.0684913,0.247317,0.102317,0
2024-12-13 15:24:29.665,1.0678,2.64796,8.82712,-0.0458899,0.288244,0.11209,0
2024-12-13 15:24:29.667,0.974477,2.64317,8.65933,-0.0281753,0.328559,0.120031,0
2024-12-13 15:24:29.669,0.871586,2.64796,8.47508,-0.0122933,0.36521,0.131027,0
2024-12-13 15:24:29.672,0.785145,2.65992,8.29322,0.00114534,0.396364,0.144542,0
2024-12-13 15:24:29.674,0.699003,2.68146,8.135,0.014584,0.421408,0.15798,0
2024-12-13 15:24:29.676,0.600898,2.71496,7.97707,0.0261901,0.437901,0.175084,0
2024-12-13 15:24:29.679,0.495613,2.75085,7.82632,0.0329094,0.45134,0.189744,0
2024-12-13 15:24:29.681,0.397508,2.78674,7.68993,0.042683,0.459281,0.206237,0
2024-12-13 15:24:29.683,0.311366,2.84895,7.57478,0.0518457,0.461724,0.223341,0
2024-12-13 15:24:29.686,0.258425,2.90878,7.48146,0.0603975,0.461724,0.239834,0
2024-12-13 15:24:29.688,0.222533,2.94945,7.41925,0.066506,0.45867,0.255716,0
2024-12-13 15:24:29.690,0.196211,2.99492,7.37857,0.0781121,0.45134,0.269765,0
2024-12-13 15:24:29.693,0.189033,3.05713,7.32353,0.0872748,0.446453,0.283204,0
2024-12-13 15:24:29.695,0.20339,3.09571,7.25414,0.0982701,0.438512,0.293588,0
2024-12-13 15:24:29.698,0.227318,3.14118,7.19911,0.1056,0.428128,0.30214,0
2024-12-13 15:24:29.700,0.241675,3.20578,7.16561,0.11232,0.414689,0.307638,0
2024-12-13 15:24:29.702,0.265603,3.24885,7.13929,0.123926,0.400639,0.310692,0
2024-12-13 15:24:29.705,0.308973,3.29432,7.12254,0.131867,0.384147,0.311303,0
2024-12-13 15:24:29.707,0.378365,3.335,7.09382,0.139197,0.365821,0.309471,0
2024-12-13 15:24:29.709,0.440578,3.35175,7.06989,0.146527,0.343831,0.305195,0
2024-12-13 15:24:29.712,0.483649,3.3661,7.07468,0.151414,0.322451,0.297254,0
2024-12-13 15:24:29.714,0.531506,3.37807,7.07468,0.158133,0.302293,0.286258,0
2024-12-13 15:24:29.716,0.605683,3.38285,7.07468,0.163631,0.280303,0.275874,0
2024-12-13 15:24:29.719,0.651147,3.39482,7.08664,0.165463,0.254036,0.261824,0
2024-12-13 15:24:29.722,0.663111,3.38764,7.10818,0.17035,0.208223,0.233115,0
2024-12-13 15:24:29.723,0.689432,3.37567,7.11775,0.17035,0.208223,0.233115,0
2024-12-13 15:24:29.726,0.722932,3.36132,7.15604,0.174015,0.183178,0.218454,0
2024-12-13 15:24:29.728,0.742074,3.34457,7.22064,0.173404,0.164242,0.203794,0
2024-12-13 15:24:29.730,0.761217,3.34696,7.28286,0.174015,0.145916,0.187912,0
2024-12-13 15:24:29.734,0.775574,3.31825,7.35703,0.178902,0.120871,0.161035,0
2024-12-13 15:24:29.735,0.775574,3.2656,7.44557,0.178902,0.120871,0.161035,0
2024-12-13 15:24:29.738,0.777966,3.22971,7.54128,0.180124,0.11293,0.147596,0
2024-12-13 15:24:29.740,0.773181,3.20818,7.6349,0.185621,0.111709,0.13599,0
2024-12-13 15:24:29.742,0.742074,3.17946,7.72343,0.189897,0.111098,0.127362,0
2024-12-13 15:24:29.745,0.720539,3.14596,7.79043,0.194784,0.114152,0.116977,0
2024-12-13 15:24:29.747,0.710967,3.11246,7.82872,0.19906,0.119039,0.108425,0
2024-12-13 15:24:29.749,0.675075,3.07388,7.84547,0.203947,0.129423,0.101095,0
2024-12-13 15:24:29.752,0.632004,3.03799,7.89332,0.208833,0.138586,0.0955976,0
2024-12-13 15:24:29.754,0.569791,2.9997,7.98904,0.213109,0.147138,0.0913217,0
2024-12-13 15:24:29.756,0.521934,2.9662,8.06321,0.22044,0.158744,0.0894891,0
2024-12-13 15:24:29.759,0.488435,2.93988,8.13021,0.22777,0.17035,0.0907108,0
2024-12-13 15:24:29.761,0.45015,2.90638,8.17837,0.236932,0.185621,0.0925434,0
2024-12-13 15:24:29.763,0.404686,2.87528,8.20469,0.244263,0.200892,0.0955976,0
2024-12-13 15:24:29.766,0.34008,2.85613,8.24298,0.255258,0.217385,0.101706,0
2024-12-13 15:24:29.768,0.287438,2.82503,8.2669,0.265031,0.233267,0.107815,0
2024-12-13 15:24:29.771,0.212961,2.79392,8.28365,0.272362,0.247928,0.115756,0
2024-12-13 15:24:29.773,0.122034,2.78196,8.31476,0.282746,0.261366,0.127972,0
2024-12-13 15:24:29.775,0.0454636,2.78196,8.33869,0.289465,0.27114,0.142098,0
2024-12-13 15:24:29.778,-0.0167498,2.78674,8.3674,0.296185,0.275416,0.155537,0
2024-12-13 15:24:29.780,-0.0646062,2.78196,8.41765,0.303515,0.279692,0.170197,0
2024-12-13 15:24:29.782,-0.117248,2.78196,8.4679,0.309012,0.280913,0.186079,0
2024-12-13 15:24:29.785,-0.148355,2.79631,8.52054,0.31451,0.280913,0.203183,0
2024-12-13 15:24:29.787,-0.160319,2.81785,8.57797,0.32184,0.282746,0.219676,0
2024-12-13 15:24:29.792,-0.162712,2.88485,8.73141,0.337111,0.287022,0.250829,0
2024-12-13 15:24:29.792,-0.162712,2.88485,8.73141,0.337111,0.287022,0.250829,0
2024-12-13 15:24:29.794,-0.124427,2.92074,8.80798,0.341387,0.291909,0.265489,0
2024-12-13 15:24:29.796,-0.0933201,2.93988,8.9013,0.349328,0.294963,0.277096,0
2024-12-13 15:24:29.799,-0.0526421,2.95902,8.99462,0.359713,0.301682,0.290534,0
2024-12-13 15:24:29.801,0.0143569,2.99013,9.08555,0.36773,0.306569,0.301529,0
2024-12-13 15:24:29.804,0.0861416,3.02363,9.19083,0.379336,0.316953,0.307027,0
2024-12-13 15:24:29.806,0.174676,3.06431,9.30359,0.392775,0.326116,0.313136,0
2024-12-13 15:24:29.808,0.267996,3.07867,9.40409,0.404992,0.335279,0.316801,0
2024-12-13 15:24:29.811,0.371187,3.08584,9.48306,0.419041,0.348717,0.319244,0
2024-12-13 15:24:29.813,0.500399,3.11007,9.5668,0.433702,0.362767,0.318633,0
2024-12-13 15:24:29.815,0.63679,3.11007,9.65295,0.448973,0.377427,0.314968,0
2024-12-13 15:24:29.818,0.761217,3.10529,9.69362,0.463022,0.391477,0.309471,0
2024-12-13 15:24:29.820,0.876371,3.11725,9.72952,0.47585,0.407359,0.300919,0
2024-12-13 15:24:29.822,0.952942,3.12204,9.77737,0.489289,0.424462,0.291756,0
2024-12-13 15:24:29.825,1.01515,3.12682,9.81087,0.499673,0.441566,0.28015,0
2024-12-13 15:24:29.827,1.07019,3.15553,9.85185,0.507614,0.458059,0.266711,0
2024-12-13 15:24:29.829,1.10369,3.18425,9.87099,0.518609,0.474552,0.255716,0
