timestamp,accel_x,accel_y,accel_z,gyro_x,gyro_y,gyro_z,step_timestamp
2024-12-13 15:22:31.348,-0.691825,2.52592,8.21665,0.189897,0.247317,0.162867,0
2024-12-13 15:22:31.348,-0.660718,2.53071,8.18794,0.189897,0.247317,0.162867,0
2024-12-13 15:22:31.348,-0.660718,2.53071,8.18794,0.189897,0.247317,0.162867,0
2024-12-13 15:22:31.348,-0.660718,2.53071,8.18794,0.189897,0.247317,0.162867,0
2024-12-13 15:22:31.348,-0.660718,2.53071,8.18794,0.189897,0.247317,0.162867,0
2024-12-13 15:22:31.350,-0.622433,2.52084,8.16162,0.19906,0.247928,0.170808,0
2024-12-13 15:22:31.350,-0.622433,2.52084,8.16162,0.19906,0.247928,0.170808,0
2024-12-13 15:22:31.350,-0.622433,2.52084,8.16162,0.19906,0.247928,0.170808,0
2024-12-13 15:22:31.350,-0.622433,2.52084,8.16162,0.19906,0.247928,0.170808,0
2024-12-13 15:22:31.353,-0.572184,2.48255,8.11586,0.207001,0.248538,0.178138,0
2024-12-13 15:22:31.353,-0.572184,2.48255,8.11586,0.207001,0.248538,0.178138,0
2024-12-13 15:22:31.353,-0.572184,2.48255,8.11586,0.207001,0.248538,0.178138,0
2024-12-13 15:22:31.353,-0.572184,2.48255,8.11586,0.207001,0.248538,0.178138,0
2024-12-13 15:22:31.353,-0.572184,2.48255,8.11586,0.207001,0.248538,0.178138,0
2024-12-13 15:22:31.355,-0.519542,2.45863,8.07039,0.215553,0.251593,0.183025,0
2024-12-13 15:22:31.355,-0.519542,2.45863,8.07039,0.215553,0.251593,0.183025,0
2024-12-13 15:22:31.355,-0.519542,2.45863,8.07039,0.215553,0.251593,0.183025,0
2024-12-13 15:22:31.355,-0.519542,2.45863,8.07039,0.215553,0.251593,0.183025,0
2024-12-13 15:22:31.357,-0.462114,2.43948,8.02732,0.223494,0.253425,0.190355,0
2024-12-13 15:22:31.357,-0.462114,2.43948,8.02732,0.223494,0.253425,0.190355,0
2024-12-13 15:22:31.357,-0.462114,2.43948,8.02732,0.223494,0.253425,0.190355,0
2024-12-13 15:22:31.360,-0.411865,2.39641,7.9675,0.225937,0.253425,0.195242,0
2024-12-13 15:22:31.360,-0.411865,2.39641,7.9675,0.225937,0.253425,0.195242,0
2024-12-13 15:22:31.360,-0.411865,2.39641,7.9675,0.225937,0.253425,0.195242,0
2024-12-13 15:22:31.360,-0.411865,2.39641,7.9675,0.225937,0.253425,0.195242,0
2024-12-13 15:22:31.362,-0.371187,2.3677,7.90529,0.231435,0.254647,0.20074,0
2024-12-13 15:22:31.362,-0.371187,2.3677,7.90529,0.231435,0.254647,0.20074,0
2024-12-13 15:22:31.362,-0.371187,2.3677,7.90529,0.231435,0.254647,0.20074,0
2024-12-13 15:22:31.362,-0.371187,2.3677,7.90529,0.231435,0.254647,0.20074,0
2024-12-13 15:22:31.362,-0.371187,2.3677,7.90529,0.231435,0.254647,0.20074,0
2024-12-13 15:22:31.364,-0.34008,2.34616,7.85982,0.237543,0.254036,0.205626,0
2024-12-13 15:22:31.364,-0.34008,2.34616,7.85982,0.237543,0.254036,0.205626,0
2024-12-13 15:22:31.364,-0.34008,2.34616,7.85982,0.237543,0.254036,0.205626,0
2024-12-13 15:22:31.364,-0.34008,2.34616,7.85982,0.237543,0.254036,0.205626,0
2024-12-13 15:22:31.367,-0.311366,2.31745,7.82872,0.243041,0.254647,0.209902,0
2024-12-13 15:22:31.367,-0.311366,2.31745,7.82872,0.243041,0.254647,0.209902,0
2024-12-13 15:22:31.367,-0.311366,2.31745,7.82872,0.243041,0.254647,0.209902,0
2024-12-13 15:22:31.367,-0.311366,2.31745,7.82872,0.243041,0.254647,0.209902,0
2024-12-13 15:22:31.369,-0.285045,2.29591,7.8,0.247317,0.252204,0.213567,0
2024-12-13 15:22:31.369,-0.285045,2.29591,7.8,0.247317,0.252204,0.213567,0
2024-12-13 15:22:31.371,-0.246461,2.28156,7.7689,0.24976,0.252204,0.216011,0
2024-12-13 15:22:31.371,-0.246461,2.28156,7.7689,0.24976,0.252204,0.216011,0
2024-12-13 15:22:31.371,-0.246461,2.28156,7.7689,0.24976,0.252204,0.216011,0
2024-12-13 15:22:31.371,-0.246461,2.28156,7.7689,0.24976,0.252204,0.216011,0
2024-12-13 15:22:31.374,-0.224925,2.26481,7.74497,0.255258,0.254647,0.222119,0
2024-12-13 15:22:31.374,-0.224925,2.26481,7.74497,0.255258,0.254647,0.222119,0
2024-12-13 15:22:31.376,-0.22014,2.25524,7.7354,0.259534,0.25709,0.227006,0
2024-12-13 15:22:31.376,-0.22014,2.25524,7.7354,0.259534,0.25709,0.227006,0
2024-12-13 15:22:31.376,-0.22014,2.25524,7.7354,0.259534,0.25709,0.227006,0
2024-12-13 15:22:31.376,-0.22014,2.25524,7.7354,0.259534,0.25709,0.227006,0
2024-12-13 15:22:31.376,-0.22014,2.25524,7.7354,0.259534,0.25709,0.227006,0
2024-12-13 15:22:31.376,-0.22014,2.25524,7.7354,0.259534,0.25709,0.227006,0
2024-12-13 15:22:31.378,-0.205783,2.24327,7.71386,0.262588,0.260145,0.232504,0
2024-12-13 15:22:31.381,-0.189033,2.22413,7.69233,0.27114,0.264421,0.23678,0
2024-12-13 15:22:31.381,-0.189033,2.22413,7.69233,0.27114,0.264421,0.23678,0
2024-12-13 15:22:31.381,-0.189033,2.22413,7.69233,0.27114,0.264421,0.23678,0
2024-12-13 15:22:31.381,-0.189033,2.22413,7.69233,0.27114,0.264421,0.23678,0
2024-12-13 15:22:31.381,-0.189033,2.22413,7.69233,0.27114,0.264421,0.23678,0
2024-12-13 15:22:31.381,-0.189033,2.22413,7.69233,0.27114,0.264421,0.23678,0
2024-12-13 15:22:31.381,-0.189033,2.22413,7.69233,0.27114,0.264421,0.23678,0
2024-12-13 15:22:31.381,-0.189033,2.22413,7.69233,0.27114,0.264421,0.23678,0
2024-12-13 15:22:31.381,-0.189033,2.22413,7.69233,0.27114,0.264421,0.23678,0
2024-12-13 15:22:31.382,-0.205783,2.22413,7.69233,0.27114,0.264421,0.23678,0
2024-12-13 15:22:31.386,-0.136391,2.19302,7.65883,0.287022,0.279692,0.245942,0
2024-12-13 15:22:31.388,-0.112463,2.18106,7.62533,0.290076,0.2858,0.252051,0
2024-12-13 15:22:31.388,-0.112463,2.18106,7.62533,0.290076,0.2858,0.252051,0
2024-12-13 15:22:31.389,-0.112463,2.18106,7.62533,0.298628,0.294352,0.255105,0
2024-12-13 15:22:31.390,-0.107677,2.16192,7.6014,0.298628,0.294352,0.255105,0
2024-12-13 15:22:31.393,-0.11007,2.14756,7.56042,0.309012,0.305958,0.260603,0
2024-12-13 15:22:31.393,-0.11007,2.14756,7.56042,0.309012,0.305958,0.260603,0
2024-12-13 15:22:31.393,-0.11007,2.14756,7.56042,0.309012,0.305958,0.260603,0
2024-12-13 15:22:31.393,-0.11007,2.14756,7.56042,0.309012,0.305958,0.260603,0
2024-12-13 15:22:31.395,-0.107677,2.15234,7.52692,0.320008,0.318175,0.265489,0
2024-12-13 15:22:31.395,-0.107677,2.15234,7.52692,0.320008,0.318175,0.265489,0
2024-12-13 15:22:31.395,-0.107677,2.15234,7.52692,0.320008,0.318175,0.265489,0
2024-12-13 15:22:31.397,-0.0933201,2.15474,7.50299,0.332225,0.327338,0.269155,0
2024-12-13 15:22:31.397,-0.0933201,2.15474,7.50299,0.332225,0.327338,0.269155,0
2024-12-13 15:22:31.397,-0.0933201,2.15474,7.50299,0.332225,0.327338,0.269155,0
2024-12-13 15:22:31.400,-0.0909273,2.14995,7.45514,0.338944,0.340166,0.274652,0
2024-12-13 15:22:31.400,-0.0909273,2.14995,7.45514,0.338944,0.340166,0.274652,0
2024-12-13 15:22:31.400,-0.0909273,2.14995,7.45514,0.338944,0.340166,0.274652,0
2024-12-13 15:22:31.400,-0.0909273,2.14995,7.45514,0.338944,0.340166,0.274652,0
2024-12-13 15:22:31.400,-0.0909273,2.14995,7.45514,0.338944,0.340166,0.274652,0
2024-12-13 15:22:31.402,-0.0957129,2.14277,7.39771,0.35055,0.352383,0.278928,0
2024-12-13 15:22:31.402,-0.0957129,2.14277,7.39771,0.35055,0.352383,0.278928,0
2024-12-13 15:22:31.402,-0.0957129,2.14277,7.39771,0.35055,0.352383,0.278928,0
2024-12-13 15:22:31.402,-0.0957129,2.14277,7.39771,0.35055,0.352383,0.278928,0
2024-12-13 15:22:31.404,-0.11007,2.14277,7.34028,0.362767,0.363989,0.283204,0
2024-12-13 15:22:31.404,-0.11007,2.14277,7.34028,0.362767,0.363989,0.283204,0
2024-12-13 15:22:31.404,-0.11007,2.14277,7.34028,0.362767,0.363989,0.283204,0
2024-12-13 15:22:31.404,-0.11007,2.14277,7.34028,0.362767,0.363989,0.283204,0
2024-12-13 15:22:31.404,-0.11007,2.14277,7.34028,0.362767,0.363989,0.283204,0
2024-12-13 15:22:31.404,-0.11007,2.14277,7.34028,0.362767,0.363989,0.283204,0
2024-12-13 15:22:31.407,-0.114855,2.15713,7.27328,0.376282,0.376816,0.288702,0
2024-12-13 15:22:31.407,-0.114855,2.15713,7.27328,0.376282,0.376816,0.288702,0
2024-12-13 15:22:31.407,-0.114855,2.15713,7.27328,0.376282,0.376816,0.288702,0
2024-12-13 15:22:31.407,-0.114855,2.15713,7.27328,0.376282,0.376816,0.288702,0
2024-12-13 15:22:31.407,-0.114855,2.15713,7.27328,0.376282,0.376816,0.288702,0
2024-12-13 15:22:31.409,-0.107677,2.16192,7.21107,0.387888,0.387201,0.293588,0
2024-12-13 15:22:31.409,-0.107677,2.16192,7.21107,0.387888,0.387201,0.293588,0
2024-12-13 15:22:31.409,-0.107677,2.16192,7.21107,0.387888,0.387201,0.293588,0
2024-12-13 15:22:31.410,-0.107677,2.16192,7.21107,0.399494,0.400029,0.297254,0
2024-12-13 15:22:31.411,-0.117248,2.15234,7.14407,0.399494,0.400029,0.297254,0
2024-12-13 15:22:31.411,-0.117248,2.15234,7.14407,0.399494,0.400029,0.297254,0
2024-12-13 15:22:31.411,-0.117248,2.15234,7.14407,0.399494,0.400029,0.297254,0
2024-12-13 15:22:31.412,-0.117248,2.15234,7.14407,0.399494,0.400029,0.297254,0
2024-12-13 15:22:31.414,-0.136391,2.14277,7.04836,0.408046,0.412856,0.301529,0
2024-12-13 15:22:31.414,-0.136391,2.14277,7.04836,0.408046,0.412856,0.301529,0
2024-12-13 15:22:31.414,-0.136391,2.14277,7.04836,0.408046,0.412856,0.301529,0
2024-12-13 15:22:31.414,-0.136391,2.14277,7.04836,0.408046,0.412856,0.301529,0
2024-12-13 15:22:31.414,-0.136391,2.14277,7.04836,0.408046,0.412856,0.301529,0
2024-12-13 15:22:31.414,-0.136391,2.14277,7.04836,0.408046,0.412856,0.301529,0
2024-12-13 15:22:31.416,-0.148355,2.12842,6.95474,0.415987,0.426295,0.307027,0
2024-12-13 15:22:31.416,-0.148355,2.12842,6.95474,0.415987,0.426295,0.307027,0
2024-12-13 15:22:31.416,-0.148355,2.12842,6.95474,0.415987,0.426295,0.307027,0
2024-12-13 15:22:31.417,-0.148355,2.12842,6.95474,0.425761,0.440955,0.311914,0
2024-12-13 15:22:31.418,-0.145962,2.12842,6.87099,0.425761,0.440955,0.311914,0
2024-12-13 15:22:31.418,-0.145962,2.12842,6.87099,0.425761,0.440955,0.311914,0
2024-12-13 15:22:31.418,-0.145962,2.12842,6.87099,0.425761,0.440955,0.311914,0
2024-12-13 15:22:31.418,-0.145962,2.12842,6.87099,0.425761,0.440955,0.311914,0
2024-12-13 15:22:31.418,-0.145962,2.12842,6.87099,0.425761,0.440955,0.311914,0
2024-12-13 15:22:31.418,-0.145962,2.12842,6.87099,0.425761,0.440955,0.311914,0
2024-12-13 15:22:31.421,-0.165105,2.13799,6.78006,0.433702,0.448896,0.316801,0
2024-12-13 15:22:31.421,-0.165105,2.13799,6.78006,0.433702,0.448896,0.316801,0
2024-12-13 15:22:31.421,-0.165105,2.13799,6.78006,0.433702,0.448896,0.316801,0
2024-12-13 15:22:31.421,-0.165105,2.13799,6.78006,0.433702,0.448896,0.316801,0
2024-12-13 15:22:31.423,-0.193819,2.12602,6.67478,0.437977,0.459892,0.321687,0
2024-12-13 15:22:31.423,-0.193819,2.12602,6.67478,0.437977,0.459892,0.321687,0
2024-12-13 15:22:31.423,-0.193819,2.12602,6.67478,0.437977,0.459892,0.321687,0
2024-12-13 15:22:31.423,-0.193819,2.12602,6.67478,0.437977,0.459892,0.321687,0
2024-12-13 15:22:31.423,-0.193819,2.12602,6.67478,0.437977,0.459892,0.321687,0
2024-12-13 15:22:31.426,-0.210568,2.11167,6.57428,0.442253,0.469665,0.325963,0
2024-12-13 15:22:31.426,-0.210568,2.11167,6.57428,0.442253,0.469665,0.325963,0
2024-12-13 15:22:31.426,-0.210568,2.11167,6.57428,0.442253,0.469665,0.325963,0
2024-12-13 15:22:31.426,-0.210568,2.11167,6.57428,0.442253,0.469665,0.325963,0
2024-12-13 15:22:31.426,-0.210568,2.11167,6.57428,0.442253,0.469665,0.325963,0
2024-12-13 15:22:31.428,-0.227318,2.12124,6.48096,0.444086,0.478217,0.333294,0
2024-12-13 15:22:31.428,-0.227318,2.12124,6.48096,0.444086,0.478217,0.333294,0
2024-12-13 15:22:31.428,-0.227318,2.12124,6.48096,0.444086,0.478217,0.333294,0
2024-12-13 15:22:31.428,-0.227318,2.12124,6.48096,0.444086,0.478217,0.333294,0
2024-12-13 15:22:31.428,-0.227318,2.12124,6.48096,0.444086,0.478217,0.333294,0
2024-12-13 15:22:31.430,-0.227318,2.12602,6.39213,0.44714,0.482493,0.342456,0
2024-12-13 15:22:31.430,-0.227318,2.12602,6.39213,0.44714,0.482493,0.342456,0
2024-12-13 15:22:31.430,-0.227318,2.12602,6.39213,0.44714,0.482493,0.342456,0
2024-12-13 15:22:31.430,-0.227318,2.12602,6.39213,0.44714,0.482493,0.342456,0
2024-12-13 15:22:31.433,-0.22014,2.13081,6.31556,0.442864,0.485547,0.349176,0
2024-12-13 15:22:31.433,-0.22014,2.13081,6.31556,0.442864,0.485547,0.349176,0
2024-12-13 15:22:31.433,-0.22014,2.13081,6.31556,0.442864,0.485547,0.349176,0
2024-12-13 15:22:31.433,-0.22014,2.13081,6.31556,0.442864,0.485547,0.349176,0
2024-12-13 15:22:31.433,-0.22014,2.13081,6.31556,0.442864,0.485547,0.349176,0
2024-12-13 15:22:31.435,-0.210568,2.12602,6.22463,0.438588,0.488601,0.355895,0
2024-12-13 15:22:31.435,-0.210568,2.12602,6.22463,0.438588,0.488601,0.355895,0
2024-12-13 15:22:31.435,-0.210568,2.12602,6.22463,0.438588,0.488601,0.355895,0
2024-12-13 15:22:31.435,-0.210568,2.12602,6.22463,0.438588,0.488601,0.355895,0
2024-12-13 15:22:31.437,-0.191426,2.1332,6.13131,0.433091,0.486158,0.363836,0
2024-12-13 15:22:31.437,-0.191426,2.1332,6.13131,0.433091,0.486158,0.363836,0
2024-12-13 15:22:31.437,-0.191426,2.1332,6.13131,0.433091,0.486158,0.363836,0
2024-12-13 15:22:31.437,-0.191426,2.1332,6.13131,0.433091,0.486158,0.363836,0
2024-12-13 15:22:31.437,-0.191426,2.1332,6.13131,0.433091,0.486158,0.363836,0
2024-12-13 15:22:31.437,-0.191426,2.1332,6.13131,0.433091,0.486158,0.363836,0
2024-12-13 15:22:31.440,-0.155533,2.15234,6.04038,0.426982,0.484936,0.369334,0
2024-12-13 15:22:31.440,-0.155533,2.15234,6.04038,0.426982,0.484936,0.369334,0
2024-12-13 15:22:31.440,-0.155533,2.15234,6.04038,0.426982,0.484936,0.369334,0
2024-12-13 15:22:31.440,-0.155533,2.15234,6.04038,0.426982,0.484936,0.369334,0
2024-12-13 15:22:31.442,-0.114855,2.13559,5.9662,0.415376,0.479439,0.377275,0
2024-12-13 15:22:31.442,-0.114855,2.13559,5.9662,0.415376,0.479439,0.377275,0
2024-12-13 15:22:31.442,-0.114855,2.13559,5.9662,0.415376,0.479439,0.377275,0
2024-12-13 15:22:31.442,-0.114855,2.13559,5.9662,0.415376,0.479439,0.377275,0
2024-12-13 15:22:31.442,-0.114855,2.13559,5.9662,0.415376,0.479439,0.377275,0
2024-12-13 15:22:31.444,-0.0885344,2.12602,5.92074,0.406213,0.472109,0.382772,0
2024-12-13 15:22:31.444,-0.0885344,2.12602,5.92074,0.406213,0.472109,0.382772,0
2024-12-13 15:22:31.444,-0.0885344,2.12602,5.92074,0.406213,0.472109,0.382772,0
2024-12-13 15:22:31.444,-0.0885344,2.12602,5.92074,0.406213,0.472109,0.382772,0
2024-12-13 15:22:31.447,-0.0502493,2.14756,5.87737,0.390331,0.461724,0.385826,0
2024-12-13 15:22:31.447,-0.0502493,2.14756,5.87737,0.390331,0.461724,0.385826,0
2024-12-13 15:22:31.447,-0.0502493,2.14756,5.87737,0.390331,0.461724,0.385826,0
2024-12-13 15:22:31.447,-0.0502493,2.14756,5.87737,0.390331,0.461724,0.385826,0
2024-12-13 15:22:31.447,-0.0502493,2.14756,5.87737,0.390331,0.461724,0.385826,0
2024-12-13 15:22:31.447,-0.0502493,2.14756,5.87737,0.390331,0.461724,0.385826,0
2024-12-13 15:22:31.449,-0.0119641,2.15234,5.82473,0.376282,0.45134,0.390102,0
2024-12-13 15:22:31.449,-0.0119641,2.15234,5.82473,0.376282,0.45134,0.390102,0
2024-12-13 15:22:31.449,-0.0119641,2.15234,5.82473,0.376282,0.45134,0.390102,0
2024-12-13 15:22:31.451,0.0311067,2.17866,5.79362,0.359102,0.437901,0.391935,0
2024-12-13 15:22:31.451,0.0311067,2.17866,5.79362,0.359102,0.437901,0.391935,0
2024-12-13 15:22:31.451,0.0311067,2.17866,5.79362,0.359102,0.437901,0.391935,0
2024-12-13 15:22:31.451,0.0311067,2.17866,5.79362,0.359102,0.437901,0.391935,0
2024-12-13 15:22:31.451,0.0311067,2.17866,5.79362,0.359102,0.437901,0.391935,0
2024-12-13 15:22:31.451,0.0311067,2.17866,5.79362,0.359102,0.437901,0.391935,0
2024-12-13 15:22:31.454,0.0885344,2.2002,5.8008,0.340166,0.425073,0.394378,0
2024-12-13 15:22:31.454,0.0885344,2.2002,5.8008,0.340166,0.425073,0.394378,0
2024-12-13 15:22:31.454,0.0885344,2.2002,5.8008,0.340166,0.425073,0.394378,0
2024-12-13 15:22:31.456,0.157926,2.20499,5.81516,0.321229,0.411024,0.394989,0
2024-12-13 15:22:31.456,0.157926,2.20499,5.81516,0.321229,0.411024,0.394989,0
2024-12-13 15:22:31.456,0.157926,2.20499,5.81516,0.321229,0.411024,0.394989,0
2024-12-13 15:22:31.456,0.157926,2.20499,5.81516,0.321229,0.411024,0.394989,0
2024-12-13 15:22:31.456,0.157926,2.20499,5.81516,0.321229,0.411024,0.394989,0
2024-12-13 15:22:31.456,0.157926,2.20499,5.81516,0.321229,0.411024,0.394989,0
2024-12-13 15:22:31.456,0.157926,2.20499,5.81516,0.321229,0.411024,0.394989,0
2024-12-13 15:22:31.459,0.229711,2.22891,5.83669,0.301682,0.392088,0.392546,0
2024-12-13 15:22:31.459,0.229711,2.22891,5.83669,0.301682,0.392088,0.392546,0
2024-12-13 15:22:31.459,0.229711,2.22891,5.83669,0.301682,0.392088,0.392546,0
2024-12-13 15:22:31.459,0.229711,2.22891,5.83669,0.301682,0.392088,0.392546,0
2024-12-13 15:22:31.461,0.299402,2.23849,5.88216,0.282746,0.374984,0.387048,0
2024-12-13 15:22:31.461,0.299402,2.23849,5.88216,0.282746,0.374984,0.387048,0
2024-12-13 15:22:31.461,0.299402,2.23849,5.88216,0.282746,0.374984,0.387048,0
2024-12-13 15:22:31.461,0.299402,2.23849,5.88216,0.282746,0.374984,0.387048,0
2024-12-13 15:22:31.461,0.299402,2.23849,5.88216,0.282746,0.374984,0.387048,0
2024-12-13 15:22:31.461,0.299402,2.23849,5.88216,0.282746,0.374984,0.387048,0
2024-12-13 15:22:31.461,0.299402,2.23849,5.88216,0.282746,0.374984,0.387048,0
2024-12-13 15:22:31.461,0.299402,2.23849,5.88216,0.282746,0.374984,0.387048,0
2024-12-13 15:22:31.461,0.299402,2.23849,5.88216,0.282746,0.374984,0.387048,0
2024-12-13 15:22:31.461,0.299402,2.23849,5.88216,0.282746,0.374984,0.387048,0
2024-12-13 15:22:31.466,0.457328,2.27916,5.9997,0.239987,0.335279,0.376664,0
2024-12-13 15:22:31.466,0.457328,2.27916,5.9997,0.239987,0.335279,0.376664,0
2024-12-13 15:22:31.466,0.457328,2.27916,5.9997,0.239987,0.335279,0.376664,0
2024-12-13 15:22:31.466,0.457328,2.27916,5.9997,0.239987,0.335279,0.376664,0
2024-12-13 15:22:31.466,0.457328,2.27916,5.9997,0.239987,0.335279,0.376664,0
2024-12-13 15:22:31.467,0.457328,2.27916,5.9997,0.219829,0.31451,0.368723,0
2024-12-13 15:22:31.468,0.533899,2.3007,6.09063,0.219829,0.31451,0.368723,0
2024-12-13 15:22:31.468,0.533899,2.3007,6.09063,0.219829,0.31451,0.368723,0
2024-12-13 15:22:31.468,0.533899,2.3007,6.09063,0.219829,0.31451,0.368723,0
2024-12-13 15:22:31.470,0.615255,2.32702,6.22702,0.19906,0.290076,0.357727,0
2024-12-13 15:22:31.470,0.615255,2.32702,6.22702,0.19906,0.290076,0.357727,0
2024-12-13 15:22:31.470,0.615255,2.32702,6.22702,0.19906,0.290076,0.357727,0
2024-12-13 15:22:31.470,0.615255,2.32702,6.22702,0.19906,0.290076,0.357727,0
2024-12-13 15:22:31.470,0.615255,2.32702,6.22702,0.19906,0.290076,0.357727,0
2024-12-13 15:22:31.473,0.691825,2.34856,6.36581,0.17768,0.266253,0.346121,0
2024-12-13 15:22:31.473,0.691825,2.34856,6.36581,0.17768,0.266253,0.346121,0
2024-12-13 15:22:31.473,0.691825,2.34856,6.36581,0.17768,0.266253,0.346121,0
2024-12-13 15:22:31.473,0.691825,2.34856,6.36581,0.17768,0.266253,0.346121,0
2024-12-13 15:22:31.475,0.780359,2.35813,6.52164,0.156911,0.243652,0.332683,0
2024-12-13 15:22:31.475,0.780359,2.35813,6.52164,0.156911,0.243652,0.332683,0
2024-12-13 15:22:31.475,0.780359,2.35813,6.52164,0.156911,0.243652,0.332683,0
2024-12-13 15:22:31.475,0.780359,2.35813,6.52164,0.156911,0.243652,0.332683,0
2024-12-13 15:22:31.475,0.780359,2.35813,6.52164,0.156911,0.243652,0.332683,0
2024-12-13 15:22:31.477,0.854836,2.37488,6.68914,0.139808,0.221661,0.318022,0
2024-12-13 15:22:31.477,0.854836,2.37488,6.68914,0.139808,0.221661,0.318022,0
2024-12-13 15:22:31.477,0.854836,2.37488,6.68914,0.139808,0.221661,0.318022,0
2024-12-13 15:22:31.477,0.854836,2.37488,6.68914,0.139808,0.221661,0.318022,0
2024-12-13 15:22:31.480,0.907478,2.38923,6.87338,0.121482,0.199671,0.30214,0
2024-12-13 15:22:31.480,0.907478,2.38923,6.87338,0.121482,0.199671,0.30214,0
2024-12-13 15:22:31.480,0.907478,2.38923,6.87338,0.121482,0.199671,0.30214,0
2024-12-13 15:22:31.480,0.907478,2.38923,6.87338,0.121482,0.199671,0.30214,0
2024-12-13 15:22:31.480,0.907478,2.38923,6.87338,0.121482,0.199671,0.30214,0
2024-12-13 15:22:31.482,0.964906,2.37966,7.05314,0.108654,0.181956,0.285037,0
2024-12-13 15:22:31.482,0.964906,2.37966,7.05314,0.108654,0.181956,0.285037,0
2024-12-13 15:22:31.482,0.964906,2.37966,7.05314,0.108654,0.181956,0.285037,0
2024-12-13 15:22:31.482,0.964906,2.37966,7.05314,0.108654,0.181956,0.285037,0
2024-12-13 15:22:31.484,1.01994,2.38684,7.24936,0.0976592,0.165463,0.268544,0
2024-12-13 15:22:31.484,1.01994,2.38684,7.24936,0.0976592,0.165463,0.268544,0
2024-12-13 15:22:31.484,1.01994,2.38684,7.24936,0.0976592,0.165463,0.268544,0
2024-12-13 15:22:31.484,1.01994,2.38684,7.24936,0.0976592,0.165463,0.268544,0
2024-12-13 15:22:31.487,1.05583,2.40598,7.47907,0.0891073,0.155079,0.25144,0
2024-12-13 15:22:31.487,1.05583,2.40598,7.47907,0.0891073,0.155079,0.25144,0
2024-12-13 15:22:31.487,1.05583,2.40598,7.47907,0.0891073,0.155079,0.25144,0
2024-12-13 15:22:31.487,1.05583,2.40598,7.47907,0.0891073,0.155079,0.25144,0
2024-12-13 15:22:31.489,1.07976,2.4323,7.71386,0.0836097,0.143473,0.234947,0
2024-12-13 15:22:31.489,1.07976,2.4323,7.71386,0.0836097,0.143473,0.234947,0
2024-12-13 15:22:31.489,1.07976,2.4323,7.71386,0.0836097,0.143473,0.234947,0
2024-12-13 15:22:31.489,1.07976,2.4323,7.71386,0.0836097,0.143473,0.234947,0
2024-12-13 15:22:31.492,1.08933,2.45384,7.92443,0.0817772,0.136753,0.219676,0
2024-12-13 15:22:31.492,1.08933,2.45384,7.92443,0.0817772,0.136753,0.219676,0
2024-12-13 15:22:31.492,1.08933,2.45384,7.92443,0.0817772,0.136753,0.219676,0
2024-12-13 15:22:31.492,1.08933,2.45384,7.92443,0.0817772,0.136753,0.219676,0
2024-12-13 15:22:31.494,1.07976,2.46341,8.13261,0.0836097,0.133699,0.203794,0
2024-12-13 15:22:31.494,1.07976,2.46341,8.13261,0.0836097,0.133699,0.203794,0
2024-12-13 15:22:31.494,1.07976,2.46341,8.13261,0.0836097,0.133699,0.203794,0
2024-12-13 15:22:31.496,1.07737,2.48973,8.35304,0.0921616,0.135532,0.190355,0
2024-12-13 15:22:31.496,1.07737,2.48973,8.35304,0.0921616,0.135532,0.190355,0
2024-12-13 15:22:31.496,1.07737,2.48973,8.35304,0.0921616,0.135532,0.190355,0
2024-12-13 15:22:31.496,1.07737,2.48973,8.35304,0.0921616,0.135532,0.190355,0
2024-12-13 15:22:31.499,1.07498,2.51845,8.55165,0.1056,0.144084,0.176917,0
2024-12-13 15:22:31.499,1.07498,2.51845,8.55165,0.1056,0.144084,0.176917,0
2024-12-13 15:22:31.499,1.07498,2.51845,8.55165,0.1056,0.144084,0.176917,0
2024-12-13 15:22:31.499,1.07498,2.51845,8.55165,0.1056,0.144084,0.176917,0
2024-12-13 15:22:31.499,1.07498,2.51845,8.55165,0.1056,0.144084,0.176917,0
2024-12-13 15:22:31.499,1.07498,2.51845,8.55165,0.1056,0.144084,0.176917,0
2024-12-13 15:22:31.501,1.04626,2.51605,8.7338,0.123926,0.155079,0.163478,0
2024-12-13 15:22:31.501,1.04626,2.51605,8.7338,0.123926,0.155079,0.163478,0
2024-12-13 15:22:31.501,1.04626,2.51605,8.7338,0.123926,0.155079,0.163478,0
2024-12-13 15:22:31.503,1.00798,2.50887,8.9013,0.144694,0.17035,0.153704,0
2024-12-13 15:22:31.503,1.00798,2.50887,8.9013,0.144694,0.17035,0.153704,0
2024-12-13 15:22:31.503,1.00798,2.50887,8.9013,0.144694,0.17035,0.153704,0
2024-12-13 15:22:31.503,1.00798,2.50887,8.9013,0.144694,0.17035,0.153704,0
2024-12-13 15:22:31.506,0.967299,2.51845,9.03291,0.164242,0.188065,0.143931,0
2024-12-13 15:22:31.506,0.967299,2.51845,9.03291,0.164242,0.188065,0.143931,0
2024-12-13 15:22:31.506,0.967299,2.51845,9.03291,0.164242,0.188065,0.143931,0
2024-12-13 15:22:31.506,0.967299,2.51845,9.03291,0.164242,0.188065,0.143931,0
2024-12-13 15:22:31.506,0.967299,2.51845,9.03291,0.164242,0.188065,0.143931,0
2024-12-13 15:22:31.508,0.945763,2.52832,9.13819,0.194784,0.208223,0.137822,0
2024-12-13 15:22:31.508,0.945763,2.52832,9.13819,0.194784,0.208223,0.137822,0
2024-12-13 15:22:31.508,0.945763,2.52832,9.13819,0.194784,0.208223,0.137822,0
2024-12-13 15:22:31.508,0.945763,2.52832,9.13819,0.194784,0.208223,0.137822,0
2024-12-13 15:22:31.508,0.945763,2.52832,9.13819,0.194784,0.208223,0.137822,0
2024-12-13 15:22:31.510,0.914656,2.52323,9.22433,0.219829,0.228991,0.131027,0
2024-12-13 15:22:31.510,0.914656,2.52323,9.22433,0.219829,0.228991,0.131027,0
2024-12-13 15:22:31.510,0.914656,2.52323,9.22433,0.219829,0.228991,0.131027,0
2024-12-13 15:22:31.513,0.859622,2.52084,9.27727,0.251593,0.25648,0.125529,0
2024-12-13 15:22:31.513,0.859622,2.52084,9.27727,0.251593,0.25648,0.125529,0
2024-12-13 15:22:31.513,0.859622,2.52084,9.27727,0.251593,0.25648,0.125529,0
2024-12-13 15:22:31.513,0.859622,2.52084,9.27727,0.251593,0.25648,0.125529,0
2024-12-13 15:22:31.513,0.859622,2.52084,9.27727,0.251593,0.25648,0.125529,0
2024-12-13 15:22:31.513,0.859622,2.52084,9.27727,0.251593,0.25648,0.125529,0
2024-12-13 15:22:31.515,0.816252,2.5331,9.28684,0.276637,0.27847,0.122475,0
2024-12-13 15:22:31.515,0.816252,2.5331,9.28684,0.276637,0.27847,0.122475,0
2024-12-13 15:22:31.517,0.751645,2.52832,9.26292,0.305347,0.305347,0.120642,0
2024-12-13 15:22:31.517,0.751645,2.52832,9.26292,0.305347,0.305347,0.120642,0
2024-12-13 15:22:31.517,0.751645,2.52832,9.26292,0.305347,0.305347,0.120642,0
2024-12-13 15:22:31.517,0.751645,2.52832,9.26292,0.305347,0.305347,0.120642,0
2024-12-13 15:22:31.517,0.751645,2.52832,9.26292,0.305347,0.305347,0.120642,0
2024-12-13 15:22:31.517,0.751645,2.52832,9.26292,0.305347,0.305347,0.120642,0
2024-12-13 15:22:31.517,0.751645,2.52832,9.26292,0.305347,0.305347,0.120642,0
2024-12-13 15:22:31.520,0.667897,2.53789,9.22194,0.332225,0.329781,0.120031,0
2024-12-13 15:22:31.520,0.667897,2.53789,9.22194,0.332225,0.329781,0.120031,0
2024-12-13 15:22:31.520,0.667897,2.53789,9.22194,0.332225,0.329781,0.120031,0
2024-12-13 15:22:31.520,0.667897,2.53789,9.22194,0.332225,0.329781,0.120031,0
2024-12-13 15:22:31.522,0.565005,2.56182,9.15015,0.357269,0.351161,0.11881,0
2024-12-13 15:22:31.522,0.565005,2.56182,9.15015,0.357269,0.351161,0.11881,0
2024-12-13 15:22:31.522,0.565005,2.56182,9.15015,0.357269,0.351161,0.11881,0
2024-12-13 15:22:31.522,0.565005,2.56182,9.15015,0.357269,0.351161,0.11881,0
2024-12-13 15:22:31.524,0.459721,2.57139,9.05205,0.378725,0.374984,0.121864,0
2024-12-13 15:22:31.524,0.565005,2.56182,9.15015,0.378725,0.374984,0.121864,0
2024-12-13 15:22:31.524,0.459721,2.57139,9.05205,0.378725,0.374984,0.121864,0
2024-12-13 15:22:31.524,0.459721,2.57139,9.05205,0.378725,0.374984,0.121864,0
2024-12-13 15:22:31.525,0.459721,2.57139,9.05205,0.378725,0.374984,0.121864,0
2024-12-13 15:22:31.527,0.344866,2.6001,8.94198,0.394607,0.398196,0.127362,0
2024-12-13 15:22:31.527,0.344866,2.6001,8.94198,0.394607,0.398196,0.127362,0
2024-12-13 15:22:31.527,0.344866,2.6001,8.94198,0.394607,0.398196,0.127362,0
2024-12-13 15:22:31.527,0.344866,2.6001,8.94198,0.394607,0.398196,0.127362,0
2024-12-13 15:22:31.527,0.344866,2.6001,8.94198,0.394607,0.398196,0.127362,0
2024-12-13 15:22:31.528,0.344866,2.6001,8.94198,0.408046,0.415911,0.135379,0
2024-12-13 15:22:31.529,0.236889,2.63599,8.82473,0.408046,0.415911,0.135379,0
2024-12-13 15:22:31.529,0.236889,2.63599,8.82473,0.408046,0.415911,0.135379,0
2024-12-13 15:22:31.529,0.236889,2.63599,8.82473,0.408046,0.415911,0.135379,0
2024-12-13 15:22:31.532,0.148355,2.67667,8.7003,0.41782,0.427517,0.143931,0
2024-12-13 15:22:31.532,0.148355,2.67667,8.7003,0.41782,0.427517,0.143931,0
2024-12-13 15:22:31.532,0.148355,2.67667,8.7003,0.41782,0.427517,0.143931,0
2024-12-13 15:22:31.532,0.148355,2.67667,8.7003,0.41782,0.427517,0.143931,0
2024-12-13 15:22:31.532,0.148355,2.67667,8.7003,0.41782,0.427517,0.143931,0
2024-12-13 15:22:31.533,0.148355,2.67667,8.7003,0.423317,0.441566,0.155537,0
2024-12-13 15:22:31.534,0.0550349,2.71735,8.57797,0.423317,0.441566,0.155537,0
2024-12-13 15:22:31.534,0.0550349,2.71735,8.57797,0.423317,0.441566,0.155537,0
2024-12-13 15:22:31.534,0.0550349,2.71735,8.57797,0.423317,0.441566,0.155537,0
2024-12-13 15:22:31.534,0.0550349,2.71735,8.57797,0.423317,0.441566,0.155537,0
2024-12-13 15:22:31.536,-0.0167498,2.76281,8.45833,0.42515,0.446453,0.1647,0
2024-12-13 15:22:31.536,-0.0167498,2.76281,8.45833,0.42515,0.446453,0.1647,0
2024-12-13 15:22:31.536,-0.0167498,2.76281,8.45833,0.42515,0.446453,0.1647,0
2024-12-13 15:22:31.536,-0.0167498,2.76281,8.45833,0.42515,0.446453,0.1647,0
2024-12-13 15:22:31.536,-0.0167498,2.76281,8.45833,0.42515,0.446453,0.1647,0
2024-12-13 15:22:31.536,-0.0167498,2.76281,8.45833,0.42515,0.446453,0.1647,0
2024-12-13 15:22:31.539,-0.0693919,2.82263,8.36022,0.423317,0.453783,0.176306,0
2024-12-13 15:22:31.539,-0.0693919,2.82263,8.36022,0.423317,0.453783,0.176306,0
2024-12-13 15:22:31.539,-0.0693919,2.82263,8.36022,0.423317,0.453783,0.176306,0
2024-12-13 15:22:31.541,-0.114855,2.88006,8.2669,0.417209,0.457448,0.187301,0
2024-12-13 15:22:31.541,-0.114855,2.88006,8.2669,0.417209,0.457448,0.187301,0
2024-12-13 15:22:31.541,-0.114855,2.88006,8.2669,0.417209,0.457448,0.187301,0
2024-12-13 15:22:31.541,-0.114855,2.88006,8.2669,0.417209,0.457448,0.187301,0
2024-12-13 15:22:31.541,-0.114855,2.88006,8.2669,0.417209,0.457448,0.187301,0
2024-12-13 15:22:31.541,-0.114855,2.88006,8.2669,0.417209,0.457448,0.187301,0
2024-12-13 15:22:31.543,-0.145962,2.93749,8.17598,0.408046,0.459892,0.199518,0
2024-12-13 15:22:31.543,-0.145962,2.93749,8.17598,0.408046,0.459892,0.199518,0
2024-12-13 15:22:31.543,-0.145962,2.93749,8.17598,0.408046,0.459892,0.199518,0
2024-12-13 15:22:31.546,-0.162712,2.9997,8.11107,0.39644,0.461724,0.211124,0
2024-12-13 15:22:31.546,-0.162712,2.9997,8.11107,0.39644,0.461724,0.211124,0
2024-12-13 15:22:31.546,-0.162712,2.9997,8.11107,0.39644,0.461724,0.211124,0
2024-12-13 15:22:31.546,-0.162712,2.9997,8.11107,0.39644,0.461724,0.211124,0
2024-12-13 15:22:31.546,-0.162712,2.9997,8.11107,0.39644,0.461724,0.211124,0
2024-12-13 15:22:31.546,-0.162712,2.9997,8.11107,0.39644,0.461724,0.211124,0
2024-12-13 15:22:31.546,-0.162712,2.9997,8.11107,0.39644,0.461724,0.211124,0
2024-12-13 15:22:31.546,-0.162712,2.9997,8.11107,0.39644,0.461724,0.211124,0
2024-12-13 15:22:31.548,-0.160319,3.06431,8.06082,0.381169,0.461113,0.219065,0
2024-12-13 15:22:31.549,-0.160319,3.06431,8.06082,0.360324,0.457448,0.227006,0
2024-12-13 15:22:31.550,-0.138784,3.12443,8.02254,0.360324,0.457448,0.227006,0
2024-12-13 15:22:31.550,-0.138784,3.12443,8.02254,0.360324,0.457448,0.227006,0
2024-12-13 15:22:31.550,-0.138784,3.12443,8.02254,0.360324,0.457448,0.227006,0
2024-12-13 15:22:31.550,-0.138784,3.12443,8.02254,0.360324,0.457448,0.227006,0
2024-12-13 15:22:31.550,-0.138784,3.12443,8.02254,0.360324,0.457448,0.227006,0
2024-12-13 15:22:31.550,-0.138784,3.12443,8.02254,0.360324,0.457448,0.227006,0
2024-12-13 15:22:31.553,-0.11007,3.20339,8.02254,0.33589,0.449507,0.232504,0
2024-12-13 15:22:31.553,-0.11007,3.20339,8.02254,0.33589,0.449507,0.232504,0
2024-12-13 15:22:31.553,-0.11007,3.20339,8.02254,0.33589,0.449507,0.232504,0
2024-12-13 15:22:31.553,-0.11007,3.20339,8.02254,0.33589,0.449507,0.232504,0
2024-12-13 15:22:31.555,-0.0861416,3.28714,8.04646,0.309623,0.433625,0.23678,0
2024-12-13 15:22:31.555,-0.0861416,3.28714,8.04646,0.309623,0.433625,0.23678,0
2024-12-13 15:22:31.555,-0.0861416,3.28714,8.04646,0.309623,0.433625,0.23678,0
2024-12-13 15:22:31.555,-0.0861416,3.28714,8.04646,0.309623,0.433625,0.23678,0
2024-12-13 15:22:31.555,-0.0861416,3.28714,8.04646,0.309623,0.433625,0.23678,0
2024-12-13 15:22:31.557,-0.0765703,3.35653,8.07039,0.275416,0.402472,0.239223,0
2024-12-13 15:22:31.557,-0.0765703,3.35653,8.07039,0.275416,0.402472,0.239223,0
2024-12-13 15:22:31.557,-0.0765703,3.35653,8.07039,0.275416,0.402472,0.239223,0
2024-12-13 15:22:31.557,-0.0765703,3.35653,8.07039,0.275416,0.402472,0.239223,0
2024-12-13 15:22:31.560,-0.0885344,3.41635,8.08953,0.238154,0.362767,0.240445,0
2024-12-13 15:22:31.560,-0.0885344,3.41635,8.08953,0.238154,0.362767,0.240445,0
2024-12-13 15:22:31.560,-0.0885344,3.41635,8.08953,0.238154,0.362767,0.240445,0
2024-12-13 15:22:31.560,-0.0885344,3.41635,8.08953,0.238154,0.362767,0.240445,0
2024-12-13 15:22:31.561,-0.0885344,3.41635,8.08953,0.19173,0.315732,0.244721,0
2024-12-13 15:22:31.562,-0.102891,3.47617,8.13769,0.19173,0.315732,0.244721,0
2024-12-13 15:22:31.562,-0.102891,3.47617,8.13769,0.19173,0.315732,0.244721,0
2024-12-13 15:22:31.562,-0.102891,3.47617,8.13769,0.19173,0.315732,0.244721,0
2024-12-13 15:22:31.562,-0.102891,3.47617,8.13769,0.19173,0.315732,0.244721,0
2024-12-13 15:22:31.565,-0.0598206,3.54317,8.24776,0.142862,0.259534,0.244721,0
2024-12-13 15:22:31.565,-0.0598206,3.54317,8.24776,0.142862,0.259534,0.244721,0
2024-12-13 15:22:31.565,-0.0598206,3.54317,8.24776,0.142862,0.259534,0.244721,0
2024-12-13 15:22:31.565,-0.0598206,3.54317,8.24776,0.142862,0.259534,0.244721,0
2024-12-13 15:22:31.565,-0.0598206,3.54317,8.24776,0.142862,0.259534,0.244721,0
2024-12-13 15:22:31.565,-0.0598206,3.54317,8.24776,0.142862,0.259534,0.244721,0
2024-12-13 15:22:31.567,0.040678,3.61256,8.39612,0.0927724,0.195395,0.238612,0
2024-12-13 15:22:31.567,0.040678,3.61256,8.39612,0.0927724,0.195395,0.238612,0
2024-12-13 15:22:31.567,0.040678,3.61256,8.39612,0.0927724,0.195395,0.238612,0
2024-12-13 15:22:31.567,0.040678,3.61256,8.39612,0.0927724,0.195395,0.238612,0
2024-12-13 15:22:31.569,0.177069,3.67986,8.59711,0.0365745,0.123926,0.227006,0
2024-12-13 15:22:31.569,0.177069,3.67986,8.59711,0.0365745,0.123926,0.227006,0
2024-12-13 15:22:31.569,0.177069,3.67986,8.59711,0.0365745,0.123926,0.227006,0
2024-12-13 15:22:31.569,0.177069,3.67986,8.59711,0.0365745,0.123926,0.227006,0
2024-12-13 15:22:31.569,0.177069,3.67986,8.59711,0.0365745,0.123926,0.227006,0
2024-12-13 15:22:31.569,0.177069,3.67986,8.59711,0.0365745,0.123926,0.227006,0
2024-12-13 15:22:31.572,0.316152,3.73011,8.86062,-0.0184018,0.046348,0.210513,0
2024-12-13 15:22:31.572,0.316152,3.73011,8.86062,-0.0184018,0.046348,0.210513,0
2024-12-13 15:22:31.572,0.316152,3.73011,8.86062,-0.0184018,0.046348,0.210513,0
2024-12-13 15:22:31.574,0.442971,3.77557,9.18126,-0.0764323,-0.0361163,0.190966,0
2024-12-13 15:22:31.574,0.442971,3.77557,9.18126,-0.0764323,-0.0361163,0.190966,0
2024-12-13 15:22:31.574,0.442971,3.77557,9.18126,-0.0764323,-0.0361163,0.190966,0
2024-12-13 15:22:31.574,0.442971,3.77557,9.18126,-0.0764323,-0.0361163,0.190966,0
2024-12-13 15:22:31.574,0.442971,3.77557,9.18126,-0.0764323,-0.0361163,0.190966,0
2024-12-13 15:22:31.574,0.442971,3.77557,9.18126,-0.0764323,-0.0361163,0.190966,0
2024-12-13 15:22:31.576,0.567398,3.82582,9.5333,-0.130187,-0.121024,0.162867,0
2024-12-13 15:22:31.576,0.567398,3.82582,9.5333,-0.130187,-0.121024,0.162867,0
2024-12-13 15:22:31.577,0.567398,3.82582,9.5333,-0.183941,-0.205932,0.135379,0
2024-12-13 15:22:31.579,0.634397,3.89522,9.90928,-0.183941,-0.205932,0.135379,0
2024-12-13 15:22:31.583,0.722932,4.01486,10.8332,-0.278012,-0.378802,0.0711637,0
2024-12-13 15:22:31.583,0.722932,4.01486,10.8332,-0.278012,-0.378802,0.0711637,0
2024-12-13 15:22:31.586,0.766002,4.06271,11.3647,-0.317106,-0.461266,0.033902,0
2024-12-13 15:22:31.588,0.825823,4.08186,11.9058,-0.350092,-0.542509,-0.00335966,0
2024-12-13 15:22:31.590,0.897907,4.0675,12.4469,-0.376358,-0.617032,-0.0387888,0
2024-12-13 15:22:31.593,0.986441,4.01725,12.9975,-0.393462,-0.681782,-0.0815481,0
2024-12-13 15:22:31.598,1.15155,3.86172,14.0845,-0.408733,-0.781961,-0.165234,0
2024-12-13 15:22:31.598,1.15155,3.86172,14.0845,-0.408733,-0.781961,-0.165234,0
2024-12-13 15:22:31.600,1.21137,3.75165,14.604,-0.408733,-0.811282,-0.206772,0
2024-12-13 15:22:31.602,1.25204,3.64367,15.09,-0.400181,-0.828996,-0.247088,0
2024-12-13 15:22:31.607,1.21137,3.44746,15.9302,-0.365974,-0.814336,-0.317946,0
2024-12-13 15:22:31.607,1.21137,3.44746,15.9302,-0.365974,-0.814336,-0.317946,0
2024-12-13 15:22:31.609,1.16351,3.34696,16.2918,-0.339097,-0.788069,-0.349099,0
2024-12-13 15:22:31.612,0.912264,3.37089,16.3899,-0.312219,-0.742867,-0.370479,0
2024-12-13 15:22:31.614,0.675075,3.37328,16.4354,-0.289618,-0.675063,-0.37842,0
2024-12-13 15:22:31.616,0.701396,3.22732,16.6247,-0.271903,-0.595652,-0.391859,0
2024-12-13 15:22:31.621,0.725324,2.81067,17.0076,-0.235253,-0.455768,-0.412627,1
2024-12-13 15:22:31.621,0.725324,2.81067,17.0076,-0.235253,-0.455768,-0.412627,1
2024-12-13 15:22:31.623,0.675075,2.57617,17.1491,-0.212651,-0.403236,-0.413849,0
2024-12-13 15:22:31.626,0.646361,2.32702,17.2424,-0.18272,-0.350092,-0.410184,0
2024-12-13 15:22:31.628,0.617647,2.09013,17.2735,-0.147291,-0.293283,-0.399189,0
2024-12-13 15:22:31.630,0.531506,1.89362,17.2639,-0.108807,-0.230977,-0.381474,0
2024-12-13 15:22:31.633,0.395115,1.74048,17.2424,-0.0684913,-0.164394,-0.356429,0
2024-12-13 15:22:31.635,0.241675,1.63041,17.161,-0.0287862,-0.0904818,-0.32833,0
2024-12-13 15:22:31.638,0.0622134,1.56102,16.9884,0.00908635,-0.00435229,-0.29901,0
2024-12-13 15:22:31.640,-0.16989,1.55145,16.742,0.0475697,0.0970484,-0.260526,0
2024-12-13 15:22:31.642,-0.428614,1.58016,16.4354,0.0817772,0.199671,-0.218989,0
2024-12-13 15:22:31.645,-0.689432,1.6328,16.098,0.114763,0.30718,-0.168288,0
2024-12-13 15:22:31.649,-1.15394,1.8338,15.4373,0.166685,0.508149,-0.0467298,0
2024-12-13 15:22:31.649,-1.15394,1.8338,15.4373,0.166685,0.508149,-0.0467298,0
2024-12-13 15:22:31.652,-1.38126,1.9681,15.0853,0.166685,0.508149,-0.0467298,0
2024-12-13 15:22:31.654,-1.6017,2.13081,14.738,0.203336,0.687127,0.0876566,0
2024-12-13 15:22:31.656,-1.77637,2.2672,14.3886,0.217385,0.764781,0.162867,0
2024-12-13 15:22:31.659,-1.93191,2.37488,14.0294,0.225937,0.834417,0.234336,0
2024-12-13 15:22:31.661,-2.05663,2.4993,13.6511,0.230824,0.896724,0.299697,0
2024-12-13 15:22:31.663,-2.14517,2.62881,13.2634,0.229602,0.951089,0.368112,0
2024-12-13 15:22:31.666,-2.18584,2.75803,12.8755,0.229602,0.993849,0.43164,0
2024-12-13 15:22:31.668,-2.15474,2.88485,12.4971,0.219218,1.02134,0.486005,0
2024-12-13 15:22:31.671,-2.12363,3.01406,12.1358,0.204557,1.03172,0.534262,0
2024-12-13 15:22:31.673,-2.11167,3.15075,11.767,0.183789,1.02439,0.575189,0
2024-12-13 15:22:31.678,-2.12602,3.31825,11.3695,0.126369,0.966971,0.635663,0
2024-12-13 15:22:31.678,-2.14517,3.50489,10.9962,0.126369,0.966971,0.635663,0
2024-12-13 15:22:31.680,-2.13081,3.69183,10.6801,0.0848314,0.909552,0.657653,0
2024-12-13 15:22:31.682,-2.10209,3.89282,10.3807,0.0359636,0.831363,0.670481,0
2024-12-13 15:22:31.685,-2.02792,4.07229,10.1175,-0.0232886,0.727519,0.674146,0
2024-12-13 15:22:31.687,-1.90319,4.21615,9.91646,-0.0868167,0.601608,0.668038,0
2024-12-13 15:22:31.689,-1.71416,4.33819,9.77977,-0.158286,0.453172,0.653377,0
2024-12-13 15:22:31.692,-1.48205,4.44108,9.74148,-0.235253,0.287633,0.629554,0
2024-12-13 15:22:31.694,-1.23529,4.50808,9.77977,-0.314052,0.109265,0.594736,0
2024-12-13 15:22:31.696,-0.972084,4.53918,9.87578,-0.397127,-0.0764323,0.552588,0
2024-12-13 15:22:31.699,-0.682254,4.53679,10.0552,-0.480202,-0.261519,0.503109,0
2024-12-13 15:22:31.704,-0.0574277,4.3669,10.7064,-0.635357,-0.610924,0.380329,0
2024-12-13 15:22:31.704,-0.0574277,4.3669,10.7064,-0.635357,-0.610924,0.380329,0
2024-12-13 15:22:31.706,0.248854,4.18714,11.1637,-0.704994,-0.765468,0.314357,0
2024-12-13 15:22:31.711,0.555434,4.00529,11.6689,-0.810671,-1.02202,0.173252,0
2024-12-13 15:22:31.711,0.833001,3.85215,12.1765,-0.810671,-1.02202,0.173252,0
2024-12-13 15:22:31.715,1.2999,3.52642,13.2802,-0.810671,-1.02202,0.173252,0
2024-12-13 15:22:31.718,1.46291,3.35892,13.8739,-0.890081,-1.23949,-0.0332912,0
2024-12-13 15:22:31.720,1.59452,3.19382,14.4461,-0.890081,-1.2682,-0.0998735,0
2024-12-13 15:22:31.722,1.69023,3.00688,14.9824,-0.877864,-1.28102,-0.164623,0
2024-12-13 15:22:31.722,1.69023,3.00688,14.9824,-0.877864,-1.28102,-0.164623,0
2024-12-13 15:22:31.725,1.75244,2.81306,15.4923,-0.850376,-1.27614,-0.226319,0
2024-12-13 15:22:31.732,1.74287,2.41316,16.6367,-0.759359,-1.21078,-0.337493,0
2024-12-13 15:22:31.734,1.51555,2.11884,16.6798,-0.626195,-1.0825,-0.430342,0
2024-12-13 15:22:31.734,1.51555,2.11884,16.6798,-0.626195,-1.0825,-0.430342,0
2024-12-13 15:22:31.736,1.29751,2.05663,16.5625,-0.555947,-0.98354,-0.461495,0
2024-12-13 15:22:31.736,1.29751,2.05663,16.5625,-0.555947,-0.98354,-0.461495,0
2024-12-13 15:22:31.742,1.0678,1.84576,16.4474,-0.481424,-0.873588,-0.48654,0
2024-12-13 15:22:31.746,0.749253,1.5682,16.0573,-0.266406,-0.568164,-0.51586,0
2024-12-13 15:22:31.748,0.572184,1.40548,15.7938,-0.199823,-0.474705,-0.510974,0
2024-12-13 15:22:31.751,0.3999,1.25204,15.5019,-0.133852,-0.387354,-0.501811,0
2024-12-13 15:22:31.753,0.236889,1.11805,15.2145,-0.0721563,-0.297559,-0.487151,0
2024-12-13 15:22:31.753,0.236889,1.11805,15.2145,-0.0721563,-0.297559,-0.487151,0
2024-12-13 15:22:31.753,0.236889,1.11805,15.2145,-0.0721563,-0.297559,-0.487151,0
2024-12-13 15:22:31.755,0.0789631,1.02233,14.8747,-0.00862822,-0.21143,-0.468214,0
2024-12-13 15:22:31.758,-0.129212,0.991227,14.4652,0.0530674,-0.11797,-0.443781,0
2024-12-13 15:22:31.760,-0.344866,1.00798,14.0605,0.11232,-0.0177909,-0.410795,0
2024-12-13 15:22:31.762,-0.555434,1.04865,13.6439,0.168517,0.086664,-0.372311,0
2024-12-13 15:22:31.765,-0.799502,1.11565,13.218,0.224715,0.188675,-0.32772,0
2024-12-13 15:22:31.767,-1.06062,1.21615,12.7846,0.272972,0.282135,-0.279463,0
2024-12-13 15:22:31.769,-1.30708,1.33101,12.3272,0.316953,0.367043,-0.225097,0
2024-12-13 15:22:31.772,-1.50359,1.4342,11.8579,0.353604,0.442788,-0.170121,0
2024-12-13 15:22:31.774,-1.64716,1.54666,11.391,0.385445,0.506316,-0.110869,0
2024-12-13 15:22:31.777,-1.75244,1.64477,10.946,0.409268,0.55946,-0.0528383,0
2024-12-13 15:22:31.781,-1.77637,1.77398,10.1007,0.43981,0.63887,0.0552817,0
2024-12-13 15:22:31.781,-1.77637,1.77398,10.1007,0.43981,0.63887,0.0552817,0
2024-12-13 15:22:31.784,-1.72852,1.83141,9.69602,0.448362,0.662693,0.101706,0
2024-12-13 15:22:31.786,-1.65194,1.89841,9.29642,0.449584,0.687738,0.143931,0
2024-12-13 15:22:31.788,-1.58973,1.97528,8.91566,0.448973,0.705529,0.179971,0
2024-12-13 15:22:31.791,-1.52034,2.07099,8.56601,0.438588,0.719578,0.212957,0
2024-12-13 15:22:31.793,-1.41266,2.17388,8.25494,0.426982,0.731184,0.235558,0
2024-12-13 15:22:31.795,-1.29751,2.27677,7.98664,0.414154,0.737293,0.254494,0
2024-12-13 15:22:31.798,-1.18983,2.37488,7.74018,0.393996,0.740347,0.270987,0
2024-12-13 15:22:31.800,-1.08215,2.47298,7.49582,0.374449,0.740958,0.278928,0
2024-12-13 15:22:31.802,-0.974477,2.59292,7.28525,0.349939,0.737903,0.283815,0
2024-12-13 15:22:31.805,-0.876371,2.71017,7.12732,0.322451,0.728741,0.283815,0
2024-12-13 15:22:31.807,-0.773181,2.79392,6.9667,0.299239,0.723243,0.278928,0
2024-12-13 15:22:31.809,-0.665504,2.87288,6.82553,0.271751,0.714691,0.270987,0
2024-12-13 15:22:31.812,0.0191426,2.59771,7.2685,0.243652,0.694457,0.256327,0
2024-12-13 15:22:31.814,0.677468,2.23131,7.85504,0.241819,0.618101,0.207459,0
2024-12-13 15:22:31.817,0.066999,2.48734,7.18714,0.245484,0.585115,0.158591,0
2024-12-13 15:22:31.819,-0.569791,2.90878,6.34906,0.225326,0.637037,0.135379,0
2024-12-13 15:22:31.821,-0.136391,2.88006,6.82074,0.208833,0.666969,0.113923,0
2024-12-13 15:22:31.824,0.066999,2.84656,7.23261,0.215553,0.6462,0.0815481,0
2024-12-13 15:22:31.826,-0.419043,3.13161,6.82792,0.212498,0.6462,0.0552817,0
2024-12-13 15:22:31.828,-0.476471,3.23928,6.76331,0.202725,0.65353,0.0424539,0
2024-12-13 15:22:31.833,-0.610469,3.35414,6.54317,0.194784,0.622377,0.0064139,0
2024-12-13 15:22:31.833,-0.610469,3.35414,6.54317,0.194784,0.622377,0.0064139,0
2024-12-13 15:22:31.835,-0.675075,3.38285,6.35384,0.181956,0.619323,-0.00274881,0
2024-12-13 15:22:31.838,-0.658325,3.3661,6.28445,0.17035,0.603441,-0.0137441,0
2024-12-13 15:22:31.840,-0.744467,3.38525,6.11934,0.156301,0.58817,-0.0241285,0
2024-12-13 15:22:31.842,-0.703789,3.33978,6.04756,0.142251,0.567401,-0.0326803,0
2024-12-13 15:22:31.845,-0.605683,3.22971,6.05952,0.122704,0.533804,-0.0448973,0
2024-12-13 15:22:31.847,-0.524327,3.11007,6.05474,0.107433,0.491656,-0.0632227,0
2024-12-13 15:22:31.850,-0.438186,2.98295,6.02842,0.0933833,0.447675,-0.082159,0
2024-12-13 15:22:31.852,-0.373579,2.86331,6.04038,0.0762796,0.397585,-0.106593,0
2024-12-13 15:22:31.857,-0.313759,2.65274,6.10977,0.0494023,0.292519,-0.161569,0
2024-12-13 15:22:31.857,-0.275175,2.65274,6.10977,0.0494023,0.292519,-0.161569,0
2024-12-13 15:22:31.859,-0.289831,2.58096,6.16959,0.0445155,0.239987,-0.188446,0
2024-12-13 15:22:31.861,-0.330509,2.55464,6.2342,0.0365745,0.186843,-0.215324,0
2024-12-13 15:22:31.864,-0.41665,2.54507,6.28206,0.0298552,0.129423,-0.24159,0
2024-12-13 15:22:31.866,-0.517149,2.54028,6.34666,0.0243575,0.0732253,-0.262359,0
2024-12-13 15:22:31.871,-0.727717,2.55942,6.45942,0.0151948,-0.033673,-0.297788,0
2024-12-13 15:22:31.871,-0.727717,2.55942,6.45942,0.0151948,-0.033673,-0.297788,0
2024-12-13 15:22:31.873,-0.82343,2.56899,6.54796,0.0115297,-0.0819299,-0.311227,0
2024-12-13 15:22:31.875,-0.909871,2.55224,6.64128,0.00847551,-0.130798,-0.320389,0
2024-12-13 15:22:31.880,-1.04865,2.53789,6.87099,0.00725381,-0.176611,-0.325887,0
2024-12-13 15:22:31.880,-1.04865,2.53789,6.87099,0.00725381,-0.176611,-0.325887,0
2024-12-13 15:22:31.883,-1.10608,2.52592,6.98345,0.00725381,-0.2548,-0.333828,0
2024-12-13 15:22:31.886,-1.13958,2.50648,7.08186,0.00908635,-0.318328,-0.340547,0
2024-12-13 15:22:31.887,-1.15633,2.47537,7.17996,0.00908635,-0.318328,-0.340547,0
2024-12-13 15:22:31.890,-1.19701,2.43709,7.28286,0.0096972,-0.345205,-0.341158,0
2024-12-13 15:22:31.892,-1.23769,2.41555,7.38335,0.0096972,-0.345205,-0.341158,0
2024-12-13 15:22:31.894,-1.27837,2.39402,7.47907,0.0151948,-0.395905,-0.340547,0
2024-12-13 15:22:31.897,-1.31665,2.36052,7.56042,0.0194708,-0.415452,-0.340547,0
2024-12-13 15:22:31.899,-1.34776,2.33898,7.64447,0.0231358,-0.438054,-0.339326,0
2024-12-13 15:22:31.901,-1.37169,2.31506,7.73779,0.0286335,-0.455158,-0.336882,0
2024-12-13 15:22:31.904,-1.39322,2.29352,7.81436,0.0329094,-0.468596,-0.331995,0
2024-12-13 15:22:31.906,-1.40788,2.27677,7.87897,0.0353528,-0.483257,-0.326498,0
2024-12-13 15:22:31.908,-1.4004,2.26959,7.96511,0.0414613,-0.493641,-0.322222,0
2024-12-13 15:22:31.911,-1.39561,2.26241,8.05364,0.0414613,-0.493641,-0.322222,0
2024-12-13 15:22:31.913,-1.37886,2.25045,8.12303,0.0481806,-0.512577,-0.311227,0
2024-12-13 15:22:31.915,-1.36211,2.24566,8.19512,0.0500131,-0.518686,-0.303286,0
2024-12-13 15:22:31.919,-1.34297,2.22413,8.26212,0.0561216,-0.524794,-0.29168,0
2024-12-13 15:22:31.920,-1.32383,2.21216,8.32433,0.0561216,-0.524794,-0.29168,0
2024-12-13 15:22:31.923,-1.30229,2.20499,8.38654,0.0573433,-0.526016,-0.287404,0
2024-12-13 15:22:31.925,-1.25683,2.2002,8.44876,0.058565,-0.524183,-0.280684,0
2024-12-13 15:22:31.927,-1.21137,2.19063,8.51097,0.0610084,-0.521129,-0.275798,0
2024-12-13 15:22:31.930,-1.17308,2.17866,8.57318,0.0646735,-0.516242,-0.272132,0
2024-12-13 15:22:31.932,-1.10848,2.17627,8.62104,0.0671168,-0.510134,-0.267246,0
2024-12-13 15:22:31.934,-1.04626,2.1667,8.65693,0.0658951,-0.499139,-0.264802,0
2024-12-13 15:22:31.937,-0.998405,2.1332,8.69043,0.0640626,-0.492419,-0.26297,0
2024-12-13 15:22:31.942,-0.933799,2.0997,8.74577,0.0622301,-0.474705,-0.26297,0
2024-12-13 15:22:31.944,-0.873978,2.08056,8.75773,0.0591758,-0.465542,-0.26297,0
2024-12-13 15:22:31.944,-0.821037,2.08056,8.75773,0.0591758,-0.465542,-0.26297,0
2024-12-13 15:22:31.946,-0.754038,2.05185,8.77687,0.0548999,-0.458212,-0.264191,0
2024-12-13 15:22:31.948,-0.682254,2.02792,8.81037,0.0548999,-0.458212,-0.264191,0
2024-12-13 15:22:31.953,-0.550648,1.97767,8.87976,0.0322986,-0.444773,-0.269078,0
2024-12-13 15:22:31.953,-0.550648,1.97767,8.87976,0.0322986,-0.444773,-0.269078,0
2024-12-13 15:22:31.956,-0.481256,1.9681,8.92284,0.0243575,-0.44233,-0.276408,0
2024-12-13 15:22:31.958,-0.392722,1.96062,8.9683,0.0243575,-0.44233,-0.276408,0
2024-12-13 15:22:31.963,-0.478864,2.10209,8.83909,-0.0116825,-0.434389,-0.293512,0
2024-12-13 15:22:31.963,-0.478864,2.10209,8.83909,-0.0116825,-0.434389,-0.293512,0
2024-12-13 15:22:31.965,-0.407079,2.10927,8.91566,-0.0116825,-0.434389,-0.293512,0
2024-12-13 15:22:31.967,-0.304188,2.08774,9.05923,-0.0410031,-0.434389,-0.297788,0
2024-12-13 15:22:31.970,-0.222533,2.04706,9.17169,-0.057496,-0.44233,-0.302675,0
2024-12-13 15:22:31.974,-0.0622134,1.92473,9.3682,-0.0782648,-0.447827,-0.318557,0
2024-12-13 15:22:31.974,-0.0622134,1.92473,9.3682,-0.0782648,-0.447827,-0.318557,0
2024-12-13 15:22:31.979,0.117248,1.84337,9.62663,-0.0862058,-0.431945,-0.341769,0
2024-12-13 15:22:31.979,0.117248,1.84337,9.62663,-0.0862058,-0.431945,-0.341769,0
2024-12-13 15:22:31.981,0.174676,1.83141,9.73909,-0.085595,-0.414842,-0.354597,0
2024-12-13 15:22:31.984,0.208176,1.82901,9.86621,-0.0788757,-0.392851,-0.366203,0
2024-12-13 15:22:31.986,0.217747,1.82662,9.98824,-0.065437,-0.369639,-0.380863,0
2024-12-13 15:22:31.989,0.227318,1.81466,10.0887,-0.0519984,-0.339707,-0.394913,0
2024-12-13 15:22:31.991,0.198604,1.78834,10.1557,-0.037338,-0.310998,-0.407741,0
2024-12-13 15:22:31.993,0.179462,1.74766,10.1868,-0.0141258,-0.276179,-0.420568,0
2024-12-13 15:22:31.996,0.179462,1.70698,10.2108,0.00786466,-0.237696,-0.428509,0
2024-12-13 15:22:31.998,0.150748,1.66391,10.1845,0.0371853,-0.19738,-0.438283,0
2024-12-13 15:22:32.000,0.119641,1.62084,10.139,0.0640626,-0.151566,-0.445613,0
2024-12-13 15:22:32.003,0.100499,1.5658,10.0959,0.0915507,-0.106364,-0.451722,0
2024-12-13 15:22:32.006,0.0502493,1.50838,9.97628,0.152025,-0.0129041,-0.458441,0
2024-12-13 15:22:32.007,-0.0454636,1.47727,9.78216,0.152025,-0.0129041,-0.458441,0
2024-12-13 15:22:32.010,-0.145962,1.47488,9.57638,0.180124,0.0420721,-0.45783,0
2024-12-13 15:22:32.012,-0.256032,1.48205,9.36341,0.205779,0.0909399,-0.449889,0
2024-12-13 15:22:32.014,-0.397508,1.50359,9.13819,0.231435,0.139197,-0.440115,0
2024-12-13 15:22:32.017,-0.548256,1.5323,8.90848,0.251593,0.182567,-0.422401,0
2024-12-13 15:22:32.019,-0.691825,1.58973,8.69043,0.267475,0.219829,-0.403465,0
2024-12-13 15:22:32.021,-0.821037,1.64955,8.47747,0.281524,0.253425,-0.382696,0
2024-12-13 15:22:32.024,-0.914656,1.67348,8.26212,0.293741,0.282135,-0.358262,0
2024-12-13 15:22:32.026,-0.972084,1.69023,8.05604,0.304126,0.306569,-0.332606,0
2024-12-13 15:22:32.029,-0.974477,1.69741,7.88136,0.313288,0.328559,-0.306951,0
2024-12-13 15:22:32.031,-0.938585,1.69023,7.72104,0.320008,0.347496,-0.282517,0
2024-12-13 15:22:32.033,-0.885943,1.67348,7.54846,0.326727,0.36521,-0.258083,0
2024-12-13 15:22:32.036,-0.816252,1.67109,7.37139,0.331614,0.379871,-0.240368,0
2024-12-13 15:22:32.038,-0.761217,1.69262,7.18236,0.333446,0.392698,-0.225097,0
2024-12-13 15:22:32.040,-0.732503,1.70937,7.0002,0.331614,0.404305,-0.210437,0
2024-12-13 15:22:32.043,-0.71336,1.7333,6.81596,0.328559,0.411024,-0.196998,0
2024-12-13 15:22:32.045,-0.706182,1.77876,6.64367,0.323673,0.417132,-0.187225,0
2024-12-13 15:22:32.047,-0.706182,1.83859,6.49053,0.318175,0.423241,-0.179895,0
2024-12-13 15:22:32.050,-0.718146,1.91755,6.32752,0.310845,0.424462,-0.173175,0
2024-12-13 15:22:32.052,-0.725324,1.98245,6.16481,0.30046,0.428128,-0.166456,0
2024-12-13 15:22:32.054,-0.718146,2.04227,6.0356,0.289465,0.428738,-0.159737,0
2024-12-13 15:22:32.059,-0.703789,2.0997,5.92074,0.262588,0.426906,-0.154239,0
2024-12-13 15:22:32.059,-0.682254,2.14995,5.81516,0.262588,0.426906,-0.154239,0
2024-12-13 15:22:32.062,-0.670289,2.20259,5.70269,0.246095,0.423241,-0.152406,0
2024-12-13 15:22:32.064,-0.643968,2.24806,5.58305,0.230213,0.418965,-0.151796,0
2024-12-13 15:22:32.066,-0.600898,2.28395,5.49452,0.214942,0.411024,-0.156071,0
2024-12-13 15:22:32.069,-0.569791,2.30788,5.40598,0.196616,0.400029,-0.159737,0
2024-12-13 15:22:32.071,-0.545863,2.32702,5.32433,0.175848,0.385368,-0.167678,0
2024-12-13 15:22:32.073,-0.50997,2.34377,5.25733,0.154468,0.365821,-0.175008,0
2024-12-13 15:22:32.076,-0.474078,2.35813,5.1999,0.131256,0.343831,-0.187225,0
2024-12-13 15:22:32.078,-0.452543,2.37966,5.14487,0.109876,0.324284,-0.200663,0
2024-12-13 15:22:32.080,-0.244068,2.27677,5.24297,0.0817772,0.294963,-0.213491,0
2024-12-13 15:22:32.083,0.246461,1.98724,5.74816,0.0652843,0.239987,-0.245866,0
2024-12-13 15:22:32.087,-0.572184,2.34616,5.07069,0.0439046,0.189286,-0.306951,0
2024-12-13 15:22:32.087,-0.572184,2.34616,5.07069,0.0439046,0.189286,-0.306951,0
2024-12-13 15:22:32.090,-0.687039,2.51845,5.0348,0.0213033,0.200892,-0.317335,0
2024-12-13 15:22:32.092,-0.457328,2.45623,5.51366,0.00297788,0.181345,-0.328941,0
2024-12-13 15:22:32.097,-0.950549,2.72213,5.50409,-0.0153475,0.118428,-0.359484,0
2024-12-13 15:22:32.097,-0.950549,2.72213,5.50409,-0.0153475,0.118428,-0.359484,0
2024-12-13 15:22:32.099,-1.20658,2.89681,5.36291,-0.033673,0.108654,-0.358873,0
2024-12-13 15:22:32.102,-1.24487,2.95902,5.46341,-0.0519984,0.0915507,-0.35704,0
2024-12-13 15:22:32.104,-1.2999,2.97099,5.57109,-0.0519984,0.0915507,-0.35704,0
2024-12-13 15:22:32.106,-1.34536,2.95663,5.65723,-0.0862058,0.0451263,-0.348488,0
2024-12-13 15:22:32.111,-1.24726,2.81306,5.91596,-0.115526,-0.0129041,-0.346656,0
2024-12-13 15:22:32.111,-1.24726,2.81306,5.91596,-0.115526,-0.0129041,-0.346656,0
2024-12-13 15:22:32.113,-1.17787,2.71496,6.05235,-0.124689,-0.0403923,-0.34971,0
2024-12-13 15:22:32.116,-1.12762,2.61924,6.17677,-0.13263,-0.0660479,-0.357651,0
2024-12-13 15:22:32.118,-1.11326,2.56421,6.31316,-0.136906,-0.0892601,-0.368646,0
2024-12-13 15:22:32.120,-1.13719,2.55464,6.45942,-0.136906,-0.111251,-0.37842,0
2024-12-13 15:22:32.123,-1.19701,2.56182,6.61017,-0.136906,-0.111251,-0.37842,0
2024-12-13 15:22:32.125,-1.27597,2.56899,6.73221,-0.134463,-0.15401,-0.391859,0
2024-12-13 15:22:32.127,-1.37647,2.59532,6.82313,-0.134463,-0.15401,-0.391859,0
2024-12-13 15:22:32.130,-1.50359,2.65274,6.92602,-0.128965,-0.191272,-0.39308,0
2024-12-13 15:22:32.132,-1.62084,2.68864,7.02204,-0.124689,-0.207154,-0.387583,0
2024-12-13 15:22:32.135,-1.70698,2.71496,7.09621,-0.123468,-0.229144,-0.379031,0
2024-12-13 15:22:32.137,-1.77398,2.75563,7.17996,-0.116137,-0.249302,-0.365592,0
2024-12-13 15:22:32.139,-1.81944,2.76521,7.25893,-0.114916,-0.274347,-0.351543,0
2024-12-13 15:22:32.142,-1.81466,2.75085,7.33789,-0.116748,-0.29817,-0.336882,0
2024-12-13 15:22:32.144,-1.78355,2.74606,7.44317,-0.117359,-0.324436,-0.322222,0
2024-12-13 15:22:32.146,-1.75962,2.7341,7.56999,-0.121024,-0.354368,-0.307562,0
2024-12-13 15:22:32.149,-1.71894,2.71256,7.71386,-0.122246,-0.386132,-0.293512,0
2024-12-13 15:22:32.151,-1.65912,2.71496,7.87179,-0.123468,-0.416063,-0.283739,0
2024-12-13 15:22:32.153,-1.59212,2.73888,8.03929,-0.124689,-0.445995,-0.272132,0
2024-12-13 15:22:32.156,-1.54427,2.76999,8.22144,-0.124689,-0.475926,-0.264191,0
2024-12-13 15:22:32.158,-1.47248,2.78435,8.41526,-0.122246,-0.50708,-0.257472,0
2024-12-13 15:22:32.172,-0.996012,2.9686,9.56441,-0.093536,-0.621308,-0.251364,0
2024-12-13 15:22:32.172,-0.996012,2.9686,9.56441,-0.093536,-0.621308,-0.251364,0
2024-12-13 15:22:32.172,-0.996012,2.9686,9.56441,-0.093536,-0.621308,-0.251364,0
2024-12-13 15:22:32.179,-0.777966,3.04517,10.0481,-0.0794865,-0.634747,-0.259916,0
2024-12-13 15:22:32.182,-0.720539,3.08345,10.206,-0.0739889,-0.632303,-0.265413,0
2024-12-13 15:22:32.182,-0.720539,3.08345,10.206,-0.0739889,-0.632303,-0.265413,0
2024-12-13 15:22:32.184,-0.675075,3.12443,10.3687,-0.0709346,-0.623751,-0.271522,0
2024-12-13 15:22:32.186,-0.658325,3.1675,10.5389,-0.0636045,-0.613367,-0.27763,0
2024-12-13 15:22:32.186,-0.658325,3.1675,10.5389,-0.0636045,-0.613367,-0.27763,0
2024-12-13 15:22:32.189,-0.663111,3.22253,10.7207,-0.057496,-0.600539,-0.282517,0
2024-12-13 15:22:32.191,-0.672682,3.268,10.8906,-0.057496,-0.600539,-0.282517,0
2024-12-13 15:22:32.193,-0.703789,3.2991,11.0584,-0.0526092,-0.567553,-0.29229,0
2024-12-13 15:22:32.193,-0.703789,3.2991,11.0584,-0.0526092,-0.567553,-0.29229,0
2024-12-13 15:22:32.196,-0.74686,3.34218,11.2451,-0.049555,-0.545563,-0.294734,0
2024-12-13 15:22:32.196,-0.74686,3.34218,11.2451,-0.049555,-0.545563,-0.294734,0
2024-12-13 15:22:32.196,-0.74686,3.34218,11.2451,-0.049555,-0.545563,-0.294734,0
2024-12-13 15:22:32.198,-0.809073,3.3996,11.4102,-0.0465007,-0.519297,-0.294734,0
2024-12-13 15:22:32.200,-0.893121,3.46182,11.5493,-0.0422248,-0.487532,-0.29168,0
2024-12-13 15:22:32.203,-0.969691,3.5336,11.7,-0.0379489,-0.448438,-0.285571,0
2024-12-13 15:22:32.205,-1.05583,3.61496,11.8627,-0.0355055,-0.405068,-0.275187,0
2024-12-13 15:22:32.210,-1.24726,3.74925,12.1047,-0.0196235,-0.311608,-0.248309,0
2024-12-13 15:22:32.210,-1.24726,3.74925,12.1047,-0.0196235,-0.311608,-0.248309,0
2024-12-13 15:22:32.212,-1.34776,3.81865,12.2052,-0.013515,-0.267017,-0.229373,0
2024-12-13 15:22:32.217,-1.49163,3.91675,12.3248,-0.00801737,-0.184552,-0.190279,0
2024-12-13 15:22:32.217,-1.49163,3.91675,12.3248,-0.00801737,-0.184552,-0.190279,0
2024-12-13 15:22:32.219,-1.56102,3.96939,12.3607,-0.00679568,-0.150956,-0.16951,0
2024-12-13 15:22:32.222,-1.58973,4.00289,12.3799,-0.00984991,-0.127133,-0.148741,0
2024-12-13 15:22:32.224,-1.57777,4.03161,12.4182,-0.0165692,-0.107585,-0.127362,0
2024-12-13 15:22:32.226,-1.52752,4.04357,12.4636,-0.021456,-0.0978119,-0.108425,0
2024-12-13 15:22:32.229,-1.45813,4.05075,12.5019,-0.0361163,-0.0947577,-0.0919325,0
2024-12-13 15:22:32.231,-1.37886,4.07468,12.5617,-0.0471116,-0.0959794,-0.0791047,0
2024-12-13 15:22:32.233,-1.28076,4.09861,12.6314,-0.0611611,-0.102699,-0.0674986,0
2024-12-13 15:22:32.236,-1.18026,4.12493,12.708,-0.0745997,-0.110029,-0.0607793,0
2024-12-13 15:22:32.238,-1.06301,4.15843,12.8181,-0.0929251,-0.124689,-0.05406,0
2024-12-13 15:22:32.241,-0.931406,4.18953,12.9497,-0.108196,-0.136906,-0.0503949,0
2024-12-13 15:22:32.243,-0.794716,4.22333,13.086,-0.127133,-0.155232,-0.0491732,0
2024-12-13 15:22:32.245,-0.660718,4.2664,13.218,-0.143015,-0.174779,-0.0522274,0
2024-12-13 15:22:32.248,-0.531506,4.28794,13.3759,-0.158897,-0.198602,-0.0571142,0
2024-12-13 15:22:32.250,-0.385544,4.3023,13.5577,-0.172335,-0.21876,-0.0638335,0
2024-12-13 15:22:32.252,-0.232104,4.32144,13.7396,-0.186385,-0.238307,-0.0742179,0
2024-12-13 15:22:32.255,-0.0741775,4.33579,13.9241,-0.202267,-0.259076,-0.085824,0
2024-12-13 15:22:32.257,0.0646062,4.33579,14.1108,-0.217538,-0.278012,-0.101095,0
2024-12-13 15:22:32.259,0.193819,4.32862,14.2831,-0.230977,-0.292061,-0.118199,0
2024-12-13 15:22:32.262,0.308973,4.32862,14.4437,-0.240139,-0.301835,-0.137746,0
2024-12-13 15:22:32.264,0.395115,4.31187,14.6112,-0.248691,-0.307333,-0.157904,0
2024-12-13 15:22:32.266,0.478864,4.28555,14.793,-0.257854,-0.308554,-0.179284,0
2024-12-13 15:22:32.269,0.550648,4.27837,14.9824,-0.260908,-0.304278,-0.200663,0
2024-12-13 15:22:32.271,0.596112,4.24726,15.1523,-0.261519,-0.292672,-0.221432,0
2024-12-13 15:22:32.274,0.617647,4.21137,15.303,-0.261519,-0.292672,-0.221432,0
2024-12-13 15:22:32.276,0.62004,4.18953,15.4517,-0.259076,-0.267017,-0.265413,0
2024-12-13 15:22:32.278,0.608076,4.15125,15.6024,-0.251135,-0.24808,-0.283739,1
2024-12-13 15:22:32.281,0.567398,4.10339,15.746,-0.24075,-0.224868,-0.301453,0
2024-12-13 15:22:32.285,0.45015,3.97179,15.935,-0.212651,-0.166227,-0.330163,0
2024-12-13 15:22:32.285,0.45015,3.97179,15.935,-0.212651,-0.166227,-0.330163,0
2024-12-13 15:22:32.288,0.368794,3.89761,15.9709,-0.187606,-0.132019,-0.34238,0
2024-12-13 15:22:32.290,0.275175,3.84736,15.9685,-0.166227,-0.0929251,-0.346045,0
2024-12-13 15:22:32.292,0.165105,3.7995,15.9111,-0.143625,-0.049555,-0.349099,0
2024-12-13 15:22:32.295,0.0287139,3.76122,15.8249,-0.119192,-0.00251974,-0.347878,0
2024-12-13 15:22:32.297,-0.11007,3.72054,15.6861,-0.0984228,0.0414613,-0.34238,0
2024-12-13 15:22:32.299,-0.253639,3.68943,15.5091,-0.0739889,0.086664,-0.333828,0
2024-12-13 15:22:32.304,-0.538684,3.67029,15.1044,-0.0532201,0.167296,-0.299621,0
2024-12-13 15:22:32.304,-0.538684,3.67029,15.1044,-0.0532201,0.167296,-0.299621,0
2024-12-13 15:22:32.306,-0.675075,3.65354,14.8866,-0.0458899,0.200282,-0.280073,0
2024-12-13 15:22:32.309,-0.785145,3.66072,14.6758,-0.0410031,0.231435,-0.256861,0
2024-12-13 15:22:32.311,-0.852443,3.6679,14.4772,-0.0410031,0.252814,-0.23426,0
2024-12-13 15:22:32.314,-0.895514,3.66072,14.2902,-0.0422248,0.270529,-0.209215,0
2024-12-13 15:22:32.316,-0.912264,3.63889,14.1251,-0.0526092,0.27847,-0.18417,0
2024-12-13 15:22:32.318,-0.897907,3.62692,13.9792,-0.0629936,0.279692,-0.16218,0
2024-12-13 15:22:32.321,-0.873978,3.61017,13.85,-0.0819299,0.274805,-0.142022,0
2024-12-13 15:22:32.323,-0.847657,3.58864,13.742,-0.0947577,0.269307,-0.123086,0
2024-12-13 15:22:32.328,-0.756431,3.56471,13.608,-0.130187,0.241819,-0.0931542,0
2024-12-13 15:22:32.328,-0.756431,3.56471,13.608,-0.130187,0.241819,-0.0931542,0
2024-12-13 15:22:32.330,-0.679861,3.54796,13.5817,-0.148512,0.225326,-0.0815481,0
2024-12-13 15:22:32.332,-0.608076,3.52642,13.5769,-0.164394,0.205168,-0.0711637,0
2024-12-13 15:22:32.337,-0.457328,3.43071,13.5936,-0.195547,0.16302,-0.0589468,0
2024-12-13 15:22:32.339,-0.404686,3.38046,13.608,-0.207764,0.138586,-0.0546708,0
2024-12-13 15:22:32.339,-0.404686,3.38046,13.608,-0.207764,0.138586,-0.0546708,0
2024-12-13 15:22:32.342,-0.35683,3.33021,13.6176,-0.223036,0.115985,-0.0546708,0
2024-12-13 15:22:32.344,-0.34008,3.27518,13.6295,-0.231587,0.094605,-0.0528383,0
2024-12-13 15:22:32.347,-0.316152,3.21296,13.6558,-0.247469,0.0781121,-0.0485624,0
2024-12-13 15:22:32.349,-0.27996,3.14836,13.6989,-0.255411,0.0616192,-0.0424539,0
2024-12-13 15:22:32.351,-0.244068,3.06431,13.7348,-0.26213,0.0518457,-0.0369563,0
2024-12-13 15:22:32.354,-0.217747,2.99492,13.7686,-0.264573,0.0481806,-0.0277936,0
2024-12-13 15:22:32.356,-0.222533,2.93749,13.8045,-0.268849,0.0445155,-0.0174091,0
2024-12-13 15:22:32.361,-0.157926,2.79871,13.8188,-0.268238,0.0603975,0.00885729,0
2024-12-13 15:22:32.361,-0.157926,2.79871,13.8188,-0.268238,0.0603975,0.00885729,0
2024-12-13 15:22:32.365,-0.0861416,2.62881,13.8141,-0.260908,0.0884965,0.0351237,0
2024-12-13 15:22:32.365,-0.0861416,2.62881,13.8141,-0.260908,0.0884965,0.0351237,0
2024-12-13 15:22:32.368,-0.0598206,2.55464,13.7734,-0.251135,0.106211,0.0485624,0
2024-12-13 15:22:32.370,-0.0574277,2.49212,13.7204,-0.239528,0.12698,0.0626118,0
2024-12-13 15:22:32.372,-0.0765703,2.43709,13.6702,-0.239528,0.12698,0.0626118,0
2024-12-13 15:22:32.375,-0.102891,2.38684,13.608,-0.216316,0.172183,0.0943759,0
2024-12-13 15:22:32.377,-0.122034,2.35095,13.5362,-0.200434,0.196006,0.113312,0
2024-12-13 15:22:32.379,-0.136391,2.31266,13.4596,-0.184552,0.218607,0.129805,0
2024-12-13 15:22:32.384,-0.160319,2.2672,13.285,-0.148512,0.265642,0.170808,0
2024-12-13 15:22:32.384,-0.191426,2.2672,13.285,-0.148512,0.265642,0.170808,0
2024-12-13 15:22:32.387,-0.224925,2.25524,13.177,-0.127743,0.288854,0.19341,0
2024-12-13 15:22:32.389,-0.251246,2.23609,13.0549,-0.105142,0.310845,0.217843,0
2024-12-13 15:22:32.391,-0.270389,2.20259,12.9114,-0.0794865,0.334668,0.241056,0
2024-12-13 15:22:32.394,-0.27996,2.17388,12.7774,-0.0568851,0.356048,0.2661,0
2024-12-13 15:22:32.396,-0.292223,2.17149,12.6458,-0.0300079,0.378038,0.290534,0
2024-12-13 15:22:32.398,-0.294616,2.1667,12.4899,-0.00435229,0.398807,0.314968,0
2024-12-13 15:22:32.401,-0.289831,2.15713,12.332,0.0243575,0.417132,0.338791,0
2024-12-13 15:22:32.403,-0.285045,2.1667,12.1741,0.0500131,0.435458,0.360171,0
2024-12-13 15:22:32.405,-0.292223,2.17627,11.9919,0.0805555,0.454394,0.384605,0
2024-12-13 15:22:32.408,-0.30658,2.18824,11.7981,0.110487,0.470887,0.405374,0
2024-12-13 15:22:32.410,-0.299402,2.20499,11.6043,0.136753,0.481882,0.42431,0
2024-12-13 15:22:32.412,-0.301795,2.22652,11.3934,0.166074,0.493488,0.445079,0
2024-12-13 15:22:32.415,-0.299402,2.23849,11.1829,0.195395,0.506927,0.464626,0
2024-12-13 15:22:32.420,-0.282652,2.28395,10.7471,0.247928,0.524641,0.501887,0
2024-12-13 15:22:32.421,-0.289831,2.24806,10.9723,0.272972,0.527696,0.517769,0
2024-12-13 15:22:32.422,-0.258425,2.31984,10.5197,0.272972,0.527696,0.517769,0
2024-12-13 15:22:32.424,-0.239282,2.33898,10.2969,0.297406,0.532582,0.531208,0
2024-12-13 15:22:32.427,-0.22014,2.35813,10.0505,0.319397,0.533193,0.542814,0
2024-12-13 15:22:32.429,-0.196211,2.37009,9.80609,0.338333,0.530139,0.55442,0
2024-12-13 15:22:32.431,-0.167498,2.40838,9.57398,0.357269,0.529528,0.563583,0
2024-12-13 15:22:32.436,-0.0957129,2.45384,9.05205,0.384834,0.513035,0.576411,0
2024-12-13 15:22:32.436,-0.0957129,2.45384,9.05205,0.384834,0.513035,0.576411,0
2024-12-13 15:22:32.438,-0.066999,2.47298,8.81516,0.394607,0.499597,0.579465,0
2024-12-13 15:22:32.441,-0.0311067,2.48973,8.60668,0.401327,0.483715,0.582519,0
2024-12-13 15:22:32.443,0.00478565,2.48495,8.38176,0.40377,0.462946,0.582519,0
2024-12-13 15:22:32.445,0.0239282,2.48255,8.15683,0.404992,0.441566,0.582519,0
2024-12-13 15:22:32.448,0.0550349,2.49212,7.96511,0.404992,0.4153,0.579465,0
2024-12-13 15:22:32.450,0.0765703,2.50409,7.77368,0.402548,0.387812,0.5758,0
2024-12-13 15:22:32.455,0.0909273,2.53549,7.43121,0.387888,0.327338,0.562361,0
2024-12-13 15:22:32.455,0.119641,2.53549,7.43121,0.387888,0.327338,0.562361,0
2024-12-13 15:22:32.457,0.162712,2.52832,7.29482,0.379336,0.297406,0.555031,0
2024-12-13 15:22:32.460,0.193819,2.52832,7.18714,0.368341,0.26381,0.548312,0
2024-12-13 15:22:32.462,0.229711,2.54507,7.08664,0.359713,0.231435,0.536706,0
2024-12-13 15:22:32.464,0.285045,2.54985,6.99542,0.359713,0.231435,0.536706,0
2024-12-13 15:22:32.467,0.325723,2.54028,6.92363,0.335279,0.164852,0.513493,0
2024-12-13 15:22:32.469,0.361615,2.53549,6.84706,0.323673,0.129423,0.500666,0
2024-12-13 15:22:32.471,0.404686,2.5331,6.78006,0.311456,0.100713,0.488449,0
2024-12-13 15:22:32.474,0.426222,2.52084,6.75135,0.298017,0.0689494,0.473178,0
2024-12-13 15:22:32.476,0.452543,2.51605,6.74178,0.285189,0.0396287,0.46035,0
2024-12-13 15:22:32.478,0.495613,2.51127,6.73221,0.275416,0.014584,0.446911,0
2024-12-13 15:22:32.481,0.524327,2.48734,6.72024,0.264421,-0.00740652,0.432862,0
2024-12-13 15:22:32.483,0.521934,2.49691,6.71785,0.255258,-0.0281753,0.419423,0
2024-12-13 15:22:32.485,0.519542,2.51845,6.73939,0.244263,-0.0428357,0.407206,0
2024-12-13 15:22:32.488,0.524327,2.52832,6.74896,0.240597,-0.0519984,0.393157,0
2024-12-13 15:22:32.493,0.507577,2.55703,6.78963,0.228991,-0.065437,0.372388,0
2024-12-13 15:22:32.493,0.507577,2.55703,6.78963,0.228991,-0.065437,0.372388,0
2024-12-13 15:22:32.495,0.507577,2.55464,6.79681,0.226548,-0.0666587,0.361392,0
2024-12-13 15:22:32.497,0.495613,2.57139,6.79681,0.224105,-0.0678804,0.353451,0
2024-12-13 15:22:32.500,0.483649,2.57857,6.80878,0.22044,-0.0691021,0.3449,0
2024-12-13 15:22:32.502,0.481256,2.55703,6.79442,0.217385,-0.0666587,0.334515,0
2024-12-13 15:22:32.507,0.488435,2.52592,6.72024,0.212498,-0.0581068,0.319855,0
2024-12-13 15:22:32.507,0.514756,2.52592,6.72024,0.212498,-0.0581068,0.319855,0
2024-12-13 15:22:32.509,0.541077,2.52832,6.68674,0.208223,-0.0501658,0.310692,0
2024-12-13 15:22:32.511,0.550648,2.5331,6.65085,0.205168,-0.0422248,0.299697,0
2024-12-13 15:22:32.514,0.557827,2.54507,6.61017,0.199671,-0.0355055,0.288702,0
2024-12-13 15:22:32.516,0.545863,2.54028,6.57667,0.192341,-0.029397,0.276485,0
2024-12-13 15:22:32.518,0.514756,2.54267,6.54557,0.182567,-0.0232886,0.263657,0
2024-12-13 15:22:32.521,0.505185,2.57139,6.49532,0.17768,-0.0165692,0.253883,0
2024-12-13 15:22:32.523,0.500399,2.59053,6.46421,0.169128,-0.0104608,0.242888,0
2024-12-13 15:22:32.526,0.490828,2.59532,6.42084,0.158744,-0.00251974,0.229449,0
2024-12-13 15:22:32.530,0.476471,2.59771,6.35384,0.138586,0.00908635,0.202572,0
2024-12-13 15:22:32.530,0.476471,2.59771,6.35384,0.138586,0.00908635,0.202572,0
2024-12-13 15:22:32.533,0.478864,2.61207,6.33948,0.123315,0.014584,0.187912,0
2024-12-13 15:22:32.535,0.493221,2.60728,6.30359,0.11293,0.022525,0.17203,0
2024-12-13 15:22:32.540,0.483649,2.59771,6.20309,0.0799446,0.0341311,0.136601,0
2024-12-13 15:22:32.540,0.483649,2.59771,6.20309,0.0799446,0.0341311,0.136601,0
2024-12-13 15:22:32.544,0.419043,2.60728,6.14088,0.0469589,0.0494023,0.102317,0
2024-12-13 15:22:32.544,0.419043,2.60728,6.14088,0.0469589,0.0494023,0.102317,0
2024-12-13 15:22:32.547,0.366401,2.6001,6.12652,0.0249684,0.0555107,0.0864349,0
2024-12-13 15:22:32.549,0.330509,2.60967,6.11217,0.00481042,0.0652843,0.0729962,0
2024-12-13 15:22:32.551,0.282652,2.61207,6.08345,-0.0184018,0.0726145,0.0571142,0
2024-12-13 15:22:32.554,0.234497,2.60967,6.0667,-0.0422248,0.0799446,0.0430647,0
2024-12-13 15:22:32.556,0.196211,2.60249,6.05713,-0.065437,0.0836097,0.0314586,0
2024-12-13 15:22:32.559,0.162712,2.58335,6.06192,-0.0880384,0.0872748,0.0204634,0
2024-12-13 15:22:32.561,0.124427,2.55464,6.07149,-0.114305,0.0897182,0.00885729,0
2024-12-13 15:22:32.563,0.0765703,2.52323,6.09781,-0.140571,0.0897182,-0.00274881,0
2024-12-13 15:22:32.566,0.0287139,2.4993,6.15524,-0.165005,0.0939941,-0.0119115,0
2024-12-13 15:22:32.568,-0.00717847,2.48255,6.20788,-0.188828,0.0927724,-0.0216851,0
2024-12-13 15:22:32.573,-0.0430708,2.45384,6.35384,-0.236474,0.0952158,-0.0363454,0
2024-12-13 15:22:32.573,-0.0693919,2.41555,6.35384,-0.236474,0.0952158,-0.0363454,0
2024-12-13 15:22:32.575,-0.0909273,2.38445,6.46182,-0.256021,0.0964375,-0.041843,0
2024-12-13 15:22:32.577,-0.129212,2.34856,6.57667,-0.274958,0.0970484,-0.0442864,0
2024-12-13 15:22:32.580,-0.181855,2.31266,6.67478,-0.290229,0.0964375,-0.0485624,0
2024-12-13 15:22:32.582,-0.234497,2.28395,6.78724,-0.304889,0.0988809,-0.0503949,0
2024-12-13 15:22:32.584,-0.258425,2.25763,6.90449,-0.315274,0.0976592,-0.0485624,0
2024-12-13 15:22:32.587,-0.263211,2.2337,7.01725,-0.32688,0.100103,-0.0485624,0
2024-12-13 15:22:32.589,-0.285045,2.21695,7.12493,-0.33421,0.103157,-0.0467298,0
2024-12-13 15:22:32.591,-0.301795,2.20259,7.24936,-0.336653,0.109876,-0.0442864,0
2024-12-13 15:22:32.594,-0.304188,2.18824,7.35464,-0.337875,0.114763,-0.0393996,0
2024-12-13 15:22:32.596,-0.328116,2.16431,7.44078,-0.336653,0.119039,-0.0351237,0
2024-12-13 15:22:32.601,-0.385544,2.14277,7.61097,-0.329934,0.130645,-0.0253502,0
2024-12-13 15:22:32.601,-0.385544,2.14277,7.61097,-0.329934,0.130645,-0.0253502,0
2024-12-13 15:22:32.606,-0.447757,2.14517,7.76172,-0.317717,0.140419,-0.0125224,0
2024-12-13 15:22:32.606,-0.447757,2.14517,7.76172,-0.317717,0.140419,-0.0125224,0
2024-12-13 15:22:32.610,-0.519542,2.15952,7.85265,-0.304889,0.145305,0.00763559,0
2024-12-13 15:22:32.613,-0.538684,2.17866,7.88615,-0.293894,0.147138,0.0161875,0
2024-12-13 15:22:32.613,-0.538684,2.17866,7.88615,-0.293894,0.147138,0.0161875,0
2024-12-13 15:22:32.616,-0.565005,2.18345,7.89332,-0.279844,0.150192,0.0326803,0
2024-12-13 15:22:32.620,-0.600898,2.2002,7.92682,-0.271903,0.151414,0.0436756,0
2024-12-13 15:22:32.620,-0.600898,2.2002,7.92682,-0.271903,0.151414,0.0436756,0
2024-12-13 15:22:32.622,-0.608076,2.20738,7.934,-0.265795,0.149581,0.0552817,0
2024-12-13 15:22:32.624,-0.62004,2.21216,7.934,-0.258465,0.149581,0.0650552,0
2024-12-13 15:22:32.627,-0.639183,2.21216,7.934,-0.256021,0.147138,0.0772722,0
2024-12-13 15:22:32.629,-0.63679,2.22652,7.934,-0.250524,0.146527,0.085824,0
2024-12-13 15:22:32.632,-0.634397,2.22891,7.94357,-0.247469,0.144084,0.0943759,0
2024-12-13 15:22:32.634,-0.615255,2.22652,7.94357,-0.245026,0.141029,0.106593,0
2024-12-13 15:22:32.636,-0.576969,2.21934,7.94597,-0.243194,0.137975,0.116366,0
2024-12-13 15:22:32.639,-0.550648,2.21216,7.97468,-0.241361,0.133699,0.126751,0
2024-12-13 15:22:32.643,-0.519542,2.19781,8.04168,-0.239528,0.125147,0.142098,0
2024-12-13 15:22:32.643,-0.471685,2.19781,8.04168,-0.239528,0.125147,0.142098,0
2024-12-13 15:22:32.648,-0.366401,2.15713,8.09193,-0.240139,0.11293,0.156759,0
2024-12-13 15:22:32.648,-0.366401,2.15713,8.09193,-0.240139,0.11293,0.156759,0
2024-12-13 15:22:32.650,-0.313759,2.14038,8.13261,-0.240139,0.108044,0.159813,0
2024-12-13 15:22:32.653,-0.258425,2.1332,8.15683,-0.243194,0.100713,0.165921,0
2024-12-13 15:22:32.655,-0.232104,2.12124,8.18315,-0.245026,0.0927724,0.167754,0
2024-12-13 15:22:32.657,-0.191426,2.12124,8.24298,-0.247469,0.0878856,0.170808,0
2024-12-13 15:22:32.660,-0.136391,2.12124,8.31715,-0.246859,0.0829989,0.176306,0
2024-12-13 15:22:32.662,-0.0981057,2.11645,8.37937,-0.249302,0.0805555,0.17936,0
2024-12-13 15:22:32.665,-0.0622134,2.10449,8.44397,-0.249302,0.0775012,0.183025,0
2024-12-13 15:22:32.667,-0.0334995,2.09252,8.52772,-0.247469,0.0732253,0.185468,0
2024-12-13 15:22:32.669,0.00957129,2.07099,8.58754,-0.24808,0.0738362,0.186079,0
2024-12-13 15:22:32.672,0.0454636,2.04467,8.63301,-0.245026,0.0738362,0.187301,0
2024-12-13 15:22:32.676,0.0622134,2.02313,8.78405,-0.24075,0.0732253,0.192799,0
2024-12-13 15:22:32.676,0.0622134,2.02313,8.78405,-0.24075,0.0732253,0.192799,0
2024-12-13 15:22:32.679,0.066999,1.99681,8.85105,-0.230977,0.0750579,0.192188,0
2024-12-13 15:22:32.681,0.066999,1.98006,8.92284,-0.223646,0.0781121,0.19402,0
2024-12-13 15:22:32.683,0.0646062,1.97767,8.99941,-0.216927,0.082388,0.197075,0
2024-12-13 15:22:32.686,0.0574277,1.97049,9.07119,-0.205932,0.0878856,0.197685,0
2024-12-13 15:22:32.688,0.0430708,1.96301,9.12862,-0.192493,0.0964375,0.203794,0
2024-12-13 15:22:32.690,0.0143569,1.97049,9.19083,-0.179055,0.106211,0.20807,0
2024-12-13 15:22:32.693,-0.0191426,1.97288,9.25783,-0.165616,0.119039,0.214789,0
2024-12-13 15:22:32.695,-0.0574277,1.97528,9.30838,-0.144847,0.131256,0.224563,0
2024-12-13 15:22:32.697,-0.081356,1.96062,9.33709,-0.124689,0.145916,0.23006,0
2024-12-13 15:22:32.700,-0.100499,1.94626,9.34188,-0.10392,0.159966,0.239223,0
2024-12-13 15:22:32.702,-0.12682,1.93669,9.35145,-0.0819299,0.174015,0.253273,0
2024-12-13 15:22:32.705,-0.157926,1.92712,9.35624,-0.0605502,0.190508,0.264879,0
2024-12-13 15:22:32.707,-0.172283,1.91994,9.32034,-0.0403923,0.205168,0.278317,0
2024-12-13 15:22:32.709,-0.172283,1.89123,9.25783,-0.013515,0.22105,0.293588,0
2024-12-13 15:22:32.712,-0.181855,1.86491,9.20758,0.0096972,0.237543,0.311303,0
2024-12-13 15:22:32.714,-0.184247,1.86251,9.14537,0.0322986,0.253425,0.32352,0
2024-12-13 15:22:32.716,-0.18664,1.85294,9.07119,0.0530674,0.265642,0.340013,0
2024-12-13 15:22:32.719,-0.179462,1.85533,8.99223,0.0756687,0.275416,0.357117,0
2024-12-13 15:22:32.723,-0.119641,1.87208,8.79123,0.113541,0.289465,0.385216,0
2024-12-13 15:22:32.723,-0.119641,1.87208,8.79123,0.113541,0.289465,0.385216,0
2024-12-13 15:22:32.726,-0.0837488,1.90319,8.70748,0.128812,0.293741,0.396822,0
2024-12-13 15:22:32.728,-0.040678,1.91276,8.62583,0.144084,0.294352,0.407817,0
2024-12-13 15:22:32.733,0.0287139,1.91755,8.45833,0.172183,0.292519,0.423699,0
2024-12-13 15:22:32.733,0.0287139,1.91755,8.45833,0.172183,0.292519,0.423699,0
2024-12-13 15:22:32.738,0.0861416,1.98485,8.31715,0.194173,0.287633,0.435305,0
2024-12-13 15:22:32.740,0.102891,2.02313,8.27408,0.205168,0.283968,0.439581,0
2024-12-13 15:22:32.740,0.102891,2.02313,8.27408,0.205168,0.283968,0.439581,0
2024-12-13 15:22:32.742,0.124427,2.05663,8.25733,0.212498,0.281524,0.440803,0
2024-12-13 15:22:32.747,0.20339,2.15234,8.21187,0.232656,0.272362,0.440803,0
2024-12-13 15:22:32.747,0.20339,2.15234,8.21187,0.232656,0.272362,0.440803,0
2024-12-13 15:22:32.752,0.267996,2.22174,8.20469,0.253425,0.265031,0.435916,0
2024-12-13 15:22:32.752,0.267996,2.22174,8.20469,0.253425,0.265031,0.435916,0
2024-12-13 15:22:32.754,0.299402,2.2672,8.19512,0.264421,0.260145,0.432862,0
2024-12-13 15:22:32.756,0.325723,2.30548,8.17119,0.273583,0.258312,0.426142,0
2024-12-13 15:22:32.761,0.344866,2.37727,8.13261,0.296795,0.247317,0.411482,0
2024-12-13 15:22:32.761,0.344866,2.37727,8.13261,0.296795,0.247317,0.411482,0
2024-12-13 15:22:32.763,0.330509,2.41077,8.12543,0.307791,0.244263,0.40293,0
2024-12-13 15:22:32.766,0.34008,2.44905,8.12303,0.317564,0.237543,0.393157,0
2024-12-13 15:22:32.768,0.328116,2.48016,8.11346,0.328559,0.232656,0.382772,0
2024-12-13 15:22:32.770,0.297009,2.50887,8.09671,0.340166,0.22777,0.37422,0
2024-12-13 15:22:32.773,0.272782,2.55224,8.08953,0.354215,0.223494,0.36689,0
2024-12-13 15:22:32.775,0.251246,2.58096,8.07996,0.363989,0.214942,0.357117,0
2024-12-13 15:22:32.778,0.232104,2.59053,8.05125,0.37506,0.211277,0.350397,0
2024-12-13 15:22:32.780,0.236889,2.60728,8.01057,0.384834,0.202114,0.342456,0
2024-12-13 15:22:32.782,0.241675,2.61924,7.98186,0.393386,0.19173,0.332683,0
2024-12-13 15:22:32.785,0.234497,2.62881,7.9675,0.401937,0.180124,0.324131,0
2024-12-13 15:22:32.787,0.217747,2.62881,7.94357,0.409268,0.167907,0.317412,0
2024-12-13 15:22:32.790,0.189033,2.62881,7.92204,0.411711,0.154468,0.306416,0
2024-12-13 15:22:32.792,0.162712,2.63599,7.92443,0.411711,0.154468,0.306416,0
2024-12-13 15:22:32.794,0.12682,2.65274,7.93879,0.416598,0.120261,0.288091,0
2024-12-13 15:22:32.796,0.0837488,2.67428,7.96032,0.41782,0.103157,0.280761,0
2024-12-13 15:22:32.799,0.0526421,2.69103,8.01536,0.41843,0.082388,0.27282,0
2024-12-13 15:22:32.801,0.0358923,2.70778,8.09911,0.423317,0.0628409,0.264268,0
2024-12-13 15:22:32.803,0.026321,2.73888,8.19033,0.426371,0.0469589,0.25877,0
2024-12-13 15:22:32.806,0.0334995,2.76521,8.28605,0.429426,0.0286335,0.252051,0
2024-12-13 15:22:32.808,0.0550349,2.77956,8.38654,0.434923,0.0158057,0.243499,0
2024-12-13 15:22:32.811,0.0861416,2.77478,8.48226,0.441032,0.00664296,0.238001,0
2024-12-13 15:22:32.813,0.138784,2.77238,8.58754,0.452027,0.000534491,0.228839,0
2024-12-13 15:22:32.815,0.198604,2.7676,8.69522,0.458746,-0.00435229,0.219065,0
2024-12-13 15:22:32.818,0.256032,2.76999,8.77687,0.466687,-0.00618483,0.209902,0
2024-12-13 15:22:32.820,0.285045,2.79392,8.83669,0.478904,-0.000687203,0.195853,0
2024-12-13 15:22:32.822,0.297009,2.81067,8.88455,0.486845,0.00603212,0.183636,0
2024-12-13 15:22:32.825,0.294616,2.82503,8.92762,0.494175,0.0170274,0.17203,0
2024-12-13 15:22:32.827,0.277567,2.84895,8.96591,0.497841,0.030466,0.161035,0
2024-12-13 15:22:32.829,0.258425,2.8657,8.99223,0.501506,0.0408504,0.148818,0
2024-12-13 15:22:32.832,0.210568,2.8992,9.00898,0.500895,0.0561216,0.136601,0
2024-12-13 15:22:32.834,0.145962,2.94945,9.02094,0.502116,0.0701711,0.12614,0
2024-12-13 15:22:32.836,0.0885344,3.02124,9.01616,0.493565,0.0854423,0.116977,0
2024-12-13 15:22:32.839,0.026321,3.09571,9.00898,0.493565,0.109876,0.105371,0
2024-12-13 15:22:32.841,-0.0311067,3.16271,9.00898,0.48318,0.131867,0.0974301,0
2024-12-13 15:22:32.846,-0.251246,3.33739,8.98744,0.461801,0.186232,0.0784939,0
2024-12-13 15:22:32.847,-0.251246,3.33739,8.98744,0.442253,0.211277,0.069942,0
2024-12-13 15:22:32.848,-0.407079,3.43789,8.96112,0.442253,0.211277,0.069942,0
2024-12-13 15:22:32.851,-0.574577,3.54317,8.92523,0.425761,0.234489,0.0626118,0
2024-12-13 15:22:32.853,-0.766002,3.64606,8.89891,0.403159,0.249149,0.0565034,0
2024-12-13 15:22:32.855,-0.969691,3.75883,8.91087,0.375671,0.253425,0.0534491,0
2024-12-13 15:22:32.858,-1.13719,3.84497,8.96351,0.348107,0.254036,0.0522274,0
2024-12-13 15:22:32.860,-1.28076,3.90239,9.04487,0.312677,0.244263,0.0528383,0
2024-12-13 15:22:32.862,-1.38844,3.92154,9.16451,0.276637,0.22044,0.0558925,0
2024-12-13 15:22:32.865,-1.44616,3.90957,9.32034,0.243652,0.186843,0.0583359,0
2024-12-13 15:22:32.869,-1.47488,3.93829,9.67927,0.17035,0.102546,0.0565034,0
2024-12-13 15:22:32.869,-1.47488,3.93829,9.67927,0.17035,0.102546,0.0565034,0
2024-12-13 15:22:32.872,-1.46291,3.97657,9.88774,0.17035,0.102546,0.0565034,0
2024-12-13 15:22:32.874,-1.44377,4.0005,10.127,0.0988809,0.000534491,0.046119,0
2024-12-13 15:22:32.876,-1.4342,4.02443,10.4001,0.066506,-0.0556635,0.0357346,0
2024-12-13 15:22:32.879,-1.41266,4.05314,10.6657,0.0341311,-0.121635,0.0253502,0
2024-12-13 15:22:32.881,-1.38126,4.06511,10.9484,0.0341311,-0.121635,0.0253502,0
2024-12-13 15:22:32.884,-1.34058,4.05554,11.2546,-0.0257319,-0.260908,-0.00152712,0
2024-12-13 15:22:32.886,-1.24726,4.05075,11.5636,-0.0562743,-0.33421,-0.0149658,0
2024-12-13 15:22:32.891,-0.984048,3.93589,12.1837,-0.114916,-0.482646,-0.0479515,0
2024-12-13 15:22:32.891,-0.984048,3.93589,12.1837,-0.114916,-0.482646,-0.0479515,0
2024-12-13 15:22:32.902,-0.241675,3.51924,13.7495,-0.246859,-0.807006,-0.159126,0
2024-12-13 15:22:32.902,-0.241675,3.51924,13.7495,-0.246859,-0.807006,-0.159126,0
2024-12-13 15:22:32.902,-0.241675,3.51924,13.7495,-0.246859,-0.807006,-0.159126,0
2024-12-13 15:22:32.905,-0.117248,3.43789,14.1132,-0.272514,-0.85343,-0.18417,0
2024-12-13 15:22:32.907,-0.117248,3.43789,14.1132,-0.293283,-0.891913,-0.207383,0
2024-12-13 15:22:32.907,0.0,3.34935,14.4915,-0.293283,-0.891913,-0.207383,0
2024-12-13 15:22:32.909,0.107677,3.27278,14.8696,-0.309165,-0.918791,-0.22693,0
2024-12-13 15:22:32.909,0.107677,3.27278,14.8696,-0.309165,-0.918791,-0.22693,0
2024-12-13 15:22:32.912,0.205783,3.201,15.2575,-0.32016,-0.935283,-0.246477,0
2024-12-13 15:22:32.914,0.292223,3.12921,15.6526,-0.328101,-0.939559,-0.267246,0
2024-12-13 15:22:32.917,0.368794,3.04756,16.0502,-0.32749,-0.932229,-0.284349,0
2024-12-13 15:22:32.919,0.457328,2.95424,16.4593,-0.318939,-0.91146,-0.301453,0
2024-12-13 15:22:32.921,0.555434,2.85135,16.8497,-0.308554,-0.882751,-0.317946,0
2024-12-13 15:22:32.924,0.62004,2.75563,17.1706,-0.291451,-0.83877,-0.335661,0
2024-12-13 15:22:32.926,0.667897,2.65514,17.4338,-0.264573,-0.783793,-0.349099,0
2024-12-13 15:22:32.931,0.596112,2.52323,17.7547,-0.199823,-0.638412,-0.368646,0
2024-12-13 15:22:32.931,0.596112,2.52323,17.7547,-0.199823,-0.638412,-0.368646,0
2024-12-13 15:22:32.933,0.325723,2.59771,17.5989,-0.162562,-0.535789,-0.369257,1
2024-12-13 15:22:32.935,0.167498,2.62881,17.4888,-0.13263,-0.422172,-0.361316,0
2024-12-13 15:22:32.940,0.162712,2.37488,17.5415,-0.0721563,-0.229755,-0.339326,0
2024-12-13 15:22:32.942,0.129212,2.18106,17.3955,-0.041614,-0.143625,-0.327109,0
2024-12-13 15:22:32.942,0.129212,2.18106,17.3955,-0.041614,-0.143625,-0.327109,0
2024-12-13 15:22:32.945,0.0382852,2.01117,17.1275,-0.013515,-0.0538309,-0.314892,0
2024-12-13 15:22:32.947,-0.0693919,1.91037,16.7994,0.0109189,0.046348,-0.29901,0
2024-12-13 15:22:32.950,-0.191426,1.86251,16.4785,0.0353528,0.149581,-0.278241,0
2024-12-13 15:22:32.952,-0.352044,1.87208,16.1459,0.0561216,0.24976,-0.257472,0
2024-12-13 15:22:32.954,-0.548256,1.93669,15.7866,0.0707819,0.340776,-0.229373,0
2024-12-13 15:22:32.957,-0.782752,2.04467,15.3963,0.0793338,0.422019,-0.195777,0
2024-12-13 15:22:32.961,-1.24247,2.32463,14.6207,0.0787229,0.558238,-0.118199,0
2024-12-13 15:22:32.961,-1.24247,2.32463,14.6207,0.0787229,0.558238,-0.118199,0
2024-12-13 15:22:32.966,-1.47727,2.53071,13.9241,0.0603975,0.650476,-0.0363454,0
2024-12-13 15:22:32.966,-1.47727,2.53071,13.9241,0.0603975,0.650476,-0.0363454,0
2024-12-13 15:22:32.971,-1.53948,2.6671,13.328,0.0292443,0.698122,0.0357346,0
2024-12-13 15:22:32.971,-1.53948,2.6671,13.328,0.0292443,0.698122,0.0357346,0
2024-12-13 15:22:32.975,-1.52752,2.7676,12.83,-0.0104608,0.708583,0.0913217,0
2024-12-13 15:22:32.975,-1.52752,2.7676,12.83,-0.0104608,0.708583,0.0913217,0
2024-12-13 15:22:32.978,-1.46052,2.8346,12.612,-0.0306187,0.698733,0.11209,0
2024-12-13 15:22:32.980,-1.39322,2.89681,12.4229,-0.0544418,0.677964,0.127362,0
2024-12-13 15:22:32.982,-1.31186,2.96142,12.2578,-0.0764323,0.646811,0.137212,0
2024-12-13 15:22:32.987,-1.11087,3.08584,11.956,-0.122857,0.56679,0.142709,0
2024-12-13 15:22:32.987,-1.11087,3.08584,11.956,-0.122857,0.56679,0.142709,0
2024-12-13 15:22:32.991,-0.97687,3.14836,11.8579,-0.166838,0.463557,0.129805,0
2024-12-13 15:22:32.992,-0.8668,3.19382,11.767,-0.166838,0.463557,0.129805,0
2024-12-13 15:22:32.995,-0.732503,3.21536,11.6928,-0.21143,0.348717,0.098041,0
2024-12-13 15:22:32.997,-0.596112,3.25843,11.6665,-0.21143,0.348717,0.098041,0
2024-12-13 15:22:32.999,-0.478864,3.30628,11.6354,-0.232809,0.288854,0.0791047,0
2024-12-13 15:22:33.001,-0.347258,3.34457,11.6258,-0.251135,0.233267,0.0571142,0
2024-12-13 15:22:33.004,-0.224925,3.3661,11.6498,-0.265795,0.177069,0.0308478,0
2024-12-13 15:22:33.006,-0.12682,3.3661,11.6785,-0.278623,0.123926,0.0051922,0
2024-12-13 15:22:33.011,0.0598206,3.35653,11.7383,-0.297559,0.0365745,-0.0534491,0
2024-12-13 15:22:33.011,0.0598206,3.35653,11.7383,-0.297559,0.0365745,-0.0534491,0
2024-12-13 15:22:33.014,0.136391,3.33021,11.7503,-0.303667,-0.0300079,-0.117588,0
2024-12-13 15:22:33.015,0.200997,3.28953,11.7957,-0.303667,-0.0300079,-0.117588,0
2024-12-13 15:22:33.020,0.258425,3.19621,11.8484,-0.295116,-0.0764323,-0.17684,0
2024-12-13 15:22:33.020,0.258425,3.19621,11.8484,-0.295116,-0.0764323,-0.17684,0
2024-12-13 15:22:33.023,0.267996,3.12682,11.8579,-0.288396,-0.0910926,-0.20555,0
2024-12-13 15:22:33.025,0.272782,3.06192,11.8627,-0.279844,-0.100255,-0.231206,0
2024-12-13 15:22:33.027,0.253639,3.02124,11.834,-0.268849,-0.104531,-0.25564,0
2024-12-13 15:22:33.030,0.198604,2.97577,11.7694,-0.256021,-0.101477,-0.278241,0
2024-12-13 15:22:33.032,0.148355,2.92313,11.6904,-0.241361,-0.0941468,-0.297177,0
2024-12-13 15:22:33.034,0.0957129,2.85135,11.5756,-0.227922,-0.0819299,-0.31367,0
2024-12-13 15:22:33.037,0.0167498,2.79153,11.4341,-0.212651,-0.0660479,-0.32772,0
2024-12-13 15:22:33.039,-0.0741775,2.75803,11.2977,-0.199213,-0.0501658,-0.340547,0
2024-12-13 15:22:33.041,-0.174676,2.72931,11.1422,-0.186996,-0.0330621,-0.349099,0
2024-12-13 15:22:33.044,-0.272782,2.70299,10.9795,-0.177222,-0.0184018,-0.355208,0
2024-12-13 15:22:33.046,-0.380758,2.67428,10.8117,-0.165616,-0.00374144,-0.360705,0
2024-12-13 15:22:33.048,-0.481256,2.65035,10.625,-0.157675,0.010308,-0.36376,0
2024-12-13 15:22:33.051,-0.581755,2.63599,10.4312,-0.149734,0.0219141,-0.36376,0
2024-12-13 15:22:33.053,-0.665504,2.61207,10.2682,-0.142404,0.0341311,-0.363149,0
2024-12-13 15:22:33.055,-0.725324,2.59053,10.1055,-0.142404,0.0341311,-0.363149,0
2024-12-13 15:22:33.058,-0.789931,2.59771,9.94038,-0.13263,0.050624,-0.359484,0
2024-12-13 15:22:33.060,-0.85005,2.59292,9.78934,-0.127743,0.058565,-0.355819,0
2024-12-13 15:22:33.063,-0.88355,2.59292,9.6697,-0.126522,0.0628409,-0.351543,0
2024-12-13 15:22:33.065,-0.924228,2.61924,9.55484,-0.123468,0.0677277,-0.349099,0
2024-12-13 15:22:33.067,-0.967299,2.62403,9.41606,-0.120413,0.0738362,-0.346656,0
2024-12-13 15:22:33.070,-1.00319,2.61446,9.29881,-0.11797,0.0793338,-0.342991,0
2024-12-13 15:22:33.072,-1.04626,2.62881,9.17887,-0.115526,0.0836097,-0.337493,0
2024-12-13 15:22:33.074,-1.09173,2.64078,9.05683,-0.11064,0.0909399,-0.333217,0
2024-12-13 15:22:33.077,-1.14197,2.67189,8.93959,-0.108807,0.0976592,-0.329552,0
2024-12-13 15:22:33.081,-1.22572,2.71017,8.68325,-0.107585,0.109876,-0.319168,0
2024-12-13 15:22:33.081,-1.22572,2.71017,8.68325,-0.107585,0.109876,-0.319168,0
2024-12-13 15:22:33.084,-1.25444,2.72213,8.54447,-0.108196,0.11232,-0.313059,0
2024-12-13 15:22:33.086,-1.28794,2.74128,8.4344,-0.11064,0.113541,-0.311227,0
2024-12-13 15:22:33.091,-1.3669,2.77238,8.18794,-0.11797,0.119039,-0.300842,0
2024-12-13 15:22:33.091,-1.3669,2.77238,8.18794,-0.11797,0.119039,-0.300842,0
2024-12-13 15:22:33.093,-1.38844,2.77956,8.10629,-0.122857,0.122093,-0.299621,0
2024-12-13 15:22:33.096,-1.39561,2.78435,8.02732,-0.124689,0.124536,-0.297177,0
2024-12-13 15:22:33.098,-1.4004,2.79153,7.95075,-0.128965,0.125147,-0.293512,0
2024-12-13 15:22:33.100,-1.41266,2.78913,7.8694,-0.136906,0.122704,-0.29168,0
2024-12-13 15:22:33.103,-1.41984,2.78435,7.79283,-0.141182,0.118428,-0.290458,0
2024-12-13 15:22:33.105,-1.43898,2.78913,7.73061,-0.147901,0.114763,-0.291069,0
2024-12-13 15:22:33.107,-1.44616,2.77717,7.66601,-0.155842,0.111098,-0.289236,0
2024-12-13 15:22:33.110,-1.44138,2.76042,7.61815,-0.162562,0.102546,-0.290458,0
2024-12-13 15:22:33.112,-1.44616,2.74367,7.57986,-0.162562,0.102546,-0.290458,0
2024-12-13 15:22:33.114,-1.46291,2.72453,7.55803,-0.176611,0.086664,-0.29168,0
2024-12-13 15:22:33.119,-1.49641,2.68146,7.53171,-0.187606,0.0671168,-0.290458,0
2024-12-13 15:22:33.119,-1.49641,2.68146,7.53171,-0.187606,0.0671168,-0.290458,0
2024-12-13 15:22:33.124,-1.54188,2.66471,7.58465,-0.194937,0.046348,-0.288014,0
2024-12-13 15:22:33.124,-1.54188,2.66471,7.58465,-0.194937,0.046348,-0.288014,0
2024-12-13 15:22:33.126,-1.56341,2.64317,7.61097,-0.196769,0.0329094,-0.286793,0
2024-12-13 15:22:33.129,-1.59212,2.61446,7.64686,-0.199213,0.0206925,-0.28496,0
2024-12-13 15:22:33.131,-1.60409,2.59532,7.70429,-0.194326,0.00908635,-0.283739,0
2024-12-13 15:22:33.133,-1.6017,2.57617,7.76172,-0.189439,-0.00129805,-0.279463,0
2024-12-13 15:22:33.136,-1.60409,2.54028,7.81675,-0.183941,-0.0147367,-0.276408,0
2024-12-13 15:22:33.138,-1.60887,2.51366,7.87657,-0.176,-0.0226777,-0.272743,0
2024-12-13 15:22:33.141,-1.62323,2.48734,7.93879,-0.151566,-0.0403923,-0.268467,0
2024-12-13 15:22:33.143,-1.63041,2.45384,7.98664,-0.151566,-0.0403923,-0.268467,0
2024-12-13 15:22:33.145,-1.6352,2.42991,8.02732,-0.138739,-0.0471116,-0.263581,0
2024-12-13 15:22:33.148,-1.64955,2.40598,8.05604,-0.122246,-0.0538309,-0.258694,0
2024-12-13 15:22:33.150,-1.65673,2.38206,8.06561,-0.106364,-0.0617719,-0.251974,0
2024-12-13 15:22:33.152,-1.66152,2.35334,8.07279,-0.0886492,-0.0684913,-0.247699,0
2024-12-13 15:22:33.157,-1.65912,2.28634,8.08714,-0.0532201,-0.0904818,-0.237314,0
2024-12-13 15:22:33.157,-1.6663,2.28634,8.08714,-0.0532201,-0.0904818,-0.237314,0
2024-12-13 15:22:33.159,-1.69023,2.25524,8.08953,-0.0348946,-0.10392,-0.230595,0
2024-12-13 15:22:33.161,-1.69741,2.23131,8.07996,-0.0177909,-0.119802,-0.223265,0
2024-12-13 15:22:33.164,-1.69741,2.20738,8.07757,-0.00313059,-0.135684,-0.217156,0
2024-12-13 15:22:33.166,-1.70459,2.19302,8.05364,0.014584,-0.15401,-0.209826,0
2024-12-13 15:22:33.169,-1.71655,2.18345,8.02732,0.0298552,-0.171114,-0.200663,0
2024-12-13 15:22:33.171,-1.7333,2.15952,8.00579,0.0439046,-0.189439,-0.194555,0
2024-12-13 15:22:33.173,-1.73569,2.15713,7.98904,0.0597867,-0.20471,-0.185392,0
2024-12-13 15:22:33.176,-1.73809,2.17149,7.96989,0.0720036,-0.220592,-0.177451,0
2024-12-13 15:22:33.180,-1.74048,2.18584,7.9675,0.0964375,-0.253578,-0.161569,0
2024-12-13 15:22:33.180,-1.74048,2.18584,7.9675,0.0964375,-0.253578,-0.161569,0
2024-12-13 15:22:33.183,-1.74048,2.17149,7.96272,0.0964375,-0.253578,-0.161569,0
2024-12-13 15:22:33.185,-1.72612,2.15474,7.93639,0.118428,-0.282899,-0.146909,0
2024-12-13 15:22:33.187,-1.71416,2.13081,7.91247,0.129423,-0.296948,-0.139579,0
2024-12-13 15:22:33.190,-1.69502,2.12124,7.88615,0.135532,-0.309165,-0.129805,0
2024-12-13 15:22:33.192,-1.65673,2.12602,7.86222,0.135532,-0.309165,-0.129805,0
2024-12-13 15:22:33.194,-1.6352,2.12124,7.85504,0.145305,-0.32688,-0.116366,0
2024-12-13 15:22:33.197,-1.60409,2.11884,7.84547,0.151414,-0.333599,-0.108425,0
2024-12-13 15:22:33.199,-1.58255,2.11167,7.84307,0.156911,-0.336653,-0.102317,0
2024-12-13 15:22:33.202,-1.56102,2.08535,7.85743,0.156911,-0.336653,-0.102317,0
2024-12-13 15:22:33.204,-1.51555,2.07099,7.86461,0.158744,-0.345816,-0.0943759,0
2024-12-13 15:22:33.206,-1.48205,2.0686,7.88136,0.161187,-0.350092,-0.0907108,0
2024-12-13 15:22:33.209,-1.45095,2.0662,7.90529,0.163631,-0.354979,-0.0876566,0
2024-12-13 15:22:33.211,-1.41266,2.0662,7.91964,0.163631,-0.359865,-0.0870457,0
2024-12-13 15:22:33.216,-1.31665,2.07577,8.001,0.164852,-0.373915,-0.0852132,0
2024-12-13 15:22:33.218,-1.28315,2.07099,8.05364,0.166074,-0.379413,-0.0882674,0
2024-12-13 15:22:33.218,-1.28315,2.07099,8.05364,0.166074,-0.379413,-0.0882674,0
2024-12-13 15:22:33.220,-1.24008,2.06142,8.10389,0.166074,-0.384299,-0.0907108,0
2024-12-13 15:22:33.223,-1.20419,2.06381,8.14965,0.165463,-0.388575,-0.0943759,0
2024-12-13 15:22:33.225,-1.20419,2.0662,8.19751,0.167907,-0.390408,-0.0992627,0
2024-12-13 15:22:33.227,-1.19701,2.07817,8.25255,0.168517,-0.394073,-0.102317,0
2024-12-13 15:22:33.230,-1.17308,2.08535,8.30758,0.170961,-0.394073,-0.107204,0
2024-12-13 15:22:33.232,-1.16112,2.09013,8.37697,0.175848,-0.392851,-0.112701,0
2024-12-13 15:22:33.235,-1.16112,2.09731,8.43919,0.181956,-0.392851,-0.115756,0
2024-12-13 15:22:33.237,-1.14915,2.08535,8.48944,0.189286,-0.391019,-0.122475,0
2024-12-13 15:22:33.242,-1.1348,2.07577,8.58993,0.203336,-0.381856,-0.128583,0
2024-12-13 15:22:33.242,-1.1348,2.07577,8.58993,0.203336,-0.381856,-0.128583,0
2024-12-13 15:22:33.244,-1.14197,2.05185,8.65215,0.210055,-0.376969,-0.131027,0
2024-12-13 15:22:33.246,-1.14915,2.03988,8.7027,0.218607,-0.367196,-0.132248,0
2024-12-13 15:22:33.251,-1.08455,2.01835,8.80319,0.243041,-0.351924,-0.137135,0
2024-12-13 15:22:33.251,-1.08455,2.01835,8.80319,0.243041,-0.351924,-0.137135,0
2024-12-13 15:22:33.253,-1.04148,2.01117,8.8343,0.25709,-0.344594,-0.135303,0
2024-12-13 15:22:33.256,-1.00798,1.97767,8.85344,0.269307,-0.336042,-0.135303,0
2024-12-13 15:22:33.260,-0.921835,1.89123,8.88216,0.298017,-0.317106,-0.138968,0
2024-12-13 15:22:33.260,-0.921835,1.89123,8.88216,0.298017,-0.317106,-0.138968,0
2024-12-13 15:22:33.263,-0.878764,1.84337,8.87737,0.313899,-0.307943,-0.138968,0
2024-12-13 15:22:33.265,-0.84018,1.8003,8.87259,0.329781,-0.297559,-0.138968,0
2024-12-13 15:22:33.267,-0.801895,1.77876,8.84866,0.342609,-0.29084,-0.138357,0
2024-12-13 15:22:33.270,-0.758824,1.75005,8.82473,0.356658,-0.278012,-0.137746,0
2024-12-13 15:22:33.275,-0.701396,1.71655,8.78884,0.38911,-0.243804,-0.13347,0
2024-12-13 15:22:33.276,-0.701396,1.71655,8.78884,0.403159,-0.223646,-0.130416,0
2024-12-13 15:22:33.277,-0.663111,1.69502,8.75055,0.403159,-0.223646,-0.130416,0
2024-12-13 15:22:33.279,-0.641576,1.68784,8.7003,0.419041,-0.201656,-0.129805,0
2024-12-13 15:22:33.282,-0.634397,1.69502,8.65454,0.434923,-0.176,-0.124307,0
2024-12-13 15:22:33.284,-0.615255,1.69023,8.57558,0.450805,-0.147901,-0.120642,0
2024-12-13 15:22:33.286,-0.593719,1.68066,8.47747,0.46852,-0.119192,-0.115756,0
2024-12-13 15:22:33.289,-0.584148,1.69741,8.37937,0.486234,-0.0874275,-0.11148,0
2024-12-13 15:22:33.291,-0.567398,1.71894,8.25255,0.49723,-0.0556635,-0.107815,0
2024-12-13 15:22:33.293,-0.562612,1.72852,8.13769,0.513112,-0.0208452,-0.10476,0
2024-12-13 15:22:33.296,-0.569791,1.74527,8.00818,0.524718,0.010308,-0.101095,0
2024-12-13 15:22:33.298,-0.569791,1.77876,7.8335,0.532048,0.0414613,-0.0998735,0
2024-12-13 15:22:33.300,-0.565005,1.79791,7.67797,0.541822,0.0707819,-0.0974301,0
2024-12-13 15:22:33.303,-0.538684,1.81226,7.52932,0.546097,0.0964375,-0.0955976,0
2024-12-13 15:22:33.308,-0.459721,1.86251,7.23978,0.554038,0.133699,-0.0955976,0
2024-12-13 15:22:33.308,-0.459721,1.86251,7.23978,0.554038,0.133699,-0.0955976,0
2024-12-13 15:22:33.311,-0.438186,1.88405,7.10818,0.553428,0.167907,-0.103539,0
2024-12-13 15:22:33.312,-0.409472,1.89841,6.98106,0.553428,0.167907,-0.103539,0
2024-12-13 15:22:33.315,-0.371187,1.91516,6.83749,0.549763,0.182567,-0.108425,0
2024-12-13 15:22:33.317,-0.347258,1.92712,6.70828,0.544876,0.195395,-0.113312,0
2024-12-13 15:22:33.322,-0.282652,1.97049,6.40888,0.525329,0.218607,-0.127362,0
2024-12-13 15:22:33.322,-0.282652,1.97049,6.40888,0.525329,0.218607,-0.127362,0
2024-12-13 15:22:33.324,-0.272782,2.00877,6.28445,0.515555,0.226548,-0.136524,0
2024-12-13 15:22:33.326,-0.267996,2.05185,6.14806,0.500284,0.233878,-0.145687,0
2024-12-13 15:22:33.330,-0.270389,2.09492,6.03081,0.465466,0.246706,-0.165845,0
2024-12-13 15:22:33.331,-0.282652,2.14517,5.9351,0.465466,0.246706,-0.165845,0
2024-12-13 15:22:33.333,-0.292223,2.17866,5.83909,0.446529,0.250982,-0.175619,0
2024-12-13 15:22:33.336,-0.304188,2.21695,5.74098,0.423317,0.253425,-0.187225,0
2024-12-13 15:22:33.338,-0.328116,2.24327,5.6668,0.400105,0.25648,-0.197609,0
2024-12-13 15:22:33.341,-0.337687,2.27438,5.6022,0.376893,0.25648,-0.207993,0
2024-12-13 15:22:33.343,-0.342473,2.31266,5.54716,0.352383,0.254036,-0.218989,0
2024-12-13 15:22:33.345,-0.375972,2.35813,5.47059,0.323062,0.252204,-0.232427,0
2024-12-13 15:22:33.348,-0.4334,2.41795,5.38924,0.295574,0.250982,-0.246477,0
2024-12-13 15:22:33.350,-0.486042,2.46341,5.36531,0.266864,0.247317,-0.259305,0
2024-12-13 15:22:33.352,-0.538684,2.52084,5.34377,0.234489,0.24243,-0.270911,0
2024-12-13 15:22:33.355,-0.600898,2.57857,5.31476,0.20639,0.234489,-0.280684,0
2024-12-13 15:22:33.357,-0.665504,2.63599,5.31237,0.173404,0.225937,-0.292901,0
2024-12-13 15:22:33.359,-0.732503,2.7006,5.3342,0.142862,0.214331,-0.302064,0
2024-12-13 15:22:33.362,-0.792323,2.7676,5.35813,0.111709,0.198449,-0.312448,0
2024-12-13 15:22:33.364,-0.845265,2.82742,5.41077,0.0805555,0.182567,-0.322833,0
2024-12-13 15:22:33.366,-0.890728,2.87767,5.4682,0.0494023,0.161798,-0.332606,0
2024-12-13 15:22:33.369,-0.929013,2.92552,5.53998,0.0200816,0.141029,-0.34238,0
2024-12-13 15:22:33.371,-0.964906,2.95902,5.64048,-0.0116825,0.114763,-0.354597,0
2024-12-13 15:22:33.373,-0.99362,2.97817,5.75534,-0.0385597,0.0860531,-0.365592,0
2024-12-13 15:22:33.376,-1.01515,3.0021,5.87976,-0.0648262,0.0524565,-0.377198,0
2024-12-13 15:22:33.378,-1.04148,3.0332,6.01645,-0.0874275,0.0158057,-0.388804,0
2024-12-13 15:22:33.381,-1.0654,3.05713,6.16242,-0.111251,-0.0238994,-0.402243,0
2024-12-13 15:22:33.383,-1.07258,3.07627,6.30598,-0.131409,-0.0660479,-0.41446,0
2024-12-13 15:22:33.385,-1.0989,3.09093,6.45942,-0.152177,-0.111861,-0.427288,0
2024-12-13 15:22:33.388,-1.12522,3.08854,6.58864,-0.172335,-0.156453,-0.441948,0
2024-12-13 15:22:33.390,-1.12044,3.07388,6.69631,-0.188217,-0.202878,-0.452332,0
2024-12-13 15:22:33.392,-1.10608,3.05952,6.80638,-0.209597,-0.248691,-0.465771,0
2024-12-13 15:22:33.395,-1.07976,3.02842,6.94277,-0.232198,-0.296948,-0.474934,0
2024-12-13 15:22:33.397,-1.05823,2.99731,7.09382,-0.232198,-0.296948,-0.474934,0
2024-12-13 15:22:33.402,-1.01276,2.91595,7.43839,-0.296337,-0.429502,-0.503644,0
2024-12-13 15:22:33.402,-1.01276,2.91595,7.43839,-0.296337,-0.429502,-0.503644,0
2024-12-13 15:22:33.404,-0.996012,2.88485,7.61097,-0.32016,-0.469207,-0.512195,0
2024-12-13 15:22:33.406,-0.974477,2.8657,7.79761,-0.340318,-0.506469,-0.521969,0
2024-12-13 15:22:33.409,-0.945763,2.8346,8.02014,-0.364752,-0.539454,-0.529299,0
2024-12-13 15:22:33.411,-0.917049,2.79871,8.25972,-0.384299,-0.568164,-0.536018,0
2024-12-13 15:22:33.414,-0.873978,2.76999,8.52772,-0.403236,-0.590766,-0.543349,0
2024-12-13 15:22:33.416,-0.821037,2.75803,8.80319,-0.419728,-0.602372,-0.550068,0
2024-12-13 15:22:33.418,-0.782752,2.75324,9.08794,-0.430113,-0.611534,-0.558009,0
2024-12-13 15:22:33.421,-0.732503,2.74606,9.40888,-0.439276,-0.60848,-0.562896,0
2024-12-13 15:22:33.423,-0.694218,2.74128,9.73669,-0.44233,-0.597485,-0.569004,0
2024-12-13 15:22:33.425,-0.689432,2.74846,10.0385,-0.441108,-0.57977,-0.575113,0
2024-12-13 15:22:33.428,-0.691825,2.76281,10.328,-0.432556,-0.554115,-0.58061,0
2024-12-13 15:22:33.430,-0.694218,2.7676,10.6107,-0.423394,-0.522351,-0.584886,0
2024-12-13 15:22:33.432,-0.718146,2.75085,10.8787,-0.40629,-0.486922,-0.589162,0
2024-12-13 15:22:33.439,-0.828216,2.75563,11.5851,-0.366585,-0.396516,-0.588551,0
2024-12-13 15:22:33.439,-0.828216,2.75563,11.5851,-0.366585,-0.396516,-0.588551,0
2024-12-13 15:22:33.439,-0.828216,2.75563,11.5851,-0.366585,-0.396516,-0.588551,0
2024-12-13 15:22:33.442,-0.88355,2.77717,11.755,-0.310387,-0.293283,-0.578778,0
2024-12-13 15:22:33.444,-0.957727,2.78913,11.9106,-0.275568,-0.237085,-0.568393,0
2024-12-13 15:22:33.446,-1.04865,2.77956,12.0637,-0.241972,-0.178444,-0.555566,0
2024-12-13 15:22:33.449,-1.18505,2.80349,12.1621,-0.207764,-0.120413,-0.542738,0
2024-12-13 15:22:33.451,-1.35015,2.84895,12.2339,-0.171114,-0.0648262,-0.523191,0
2024-12-13 15:22:33.454,-1.52513,2.91356,12.2794,-0.133852,-0.00984991,-0.497535,0
2024-12-13 15:22:33.456,-1.69502,2.99252,12.2961,-0.0978119,0.0359636,-0.468825,0
2024-12-13 15:22:33.458,-1.85773,3.0667,12.3009,-0.0642153,0.0738362,-0.437061,0
2024-12-13 15:22:33.461,-2.01595,3.14836,12.2937,-0.0348946,0.1056,-0.403465,0
2024-12-13 15:22:33.463,-2.13559,3.24885,12.253,-0.00923906,0.127591,-0.367425,0
2024-12-13 15:22:33.465,-2.21695,3.32543,12.1932,0.0158057,0.137364,-0.330774,0
2024-12-13 15:22:33.469,-2.29831,3.40439,12.1454,0.046348,0.135532,-0.258694,0
2024-12-13 15:22:33.470,-2.37009,3.5001,12.1023,0.046348,0.135532,-0.258694,0
2024-12-13 15:22:33.473,-2.41077,3.5671,12.0565,0.0579541,0.117817,-0.222043,0
2024-12-13 15:22:33.475,-2.42991,3.61496,12.0374,0.0591758,0.0884965,-0.187225,0
2024-12-13 15:22:33.477,-2.42034,3.62692,12.0206,0.0597867,0.0591758,-0.151185,0
2024-12-13 15:22:33.479,-2.35813,3.66072,12.0063,0.0530674,0.0249684,-0.115756,0
2024-12-13 15:22:33.482,-2.25524,3.71815,12.0302,0.0390179,-0.0196235,-0.085824,0
2024-12-13 15:22:33.484,-2.13081,3.77797,12.0975,0.0219141,-0.0697129,-0.0583359,0
2024-12-13 15:22:33.488,-1.98006,3.86172,12.186,-0.0177909,-0.166838,-0.0210742,0
2024-12-13 15:22:33.489,-1.80269,3.9335,12.2889,-0.0177909,-0.166838,-0.0210742,0
2024-12-13 15:22:33.491,-1.61127,3.98614,12.4134,-0.0471116,-0.215705,-0.0113007,0
2024-12-13 15:22:33.494,-1.4004,4.03879,12.533,-0.0678804,-0.257854,-0.00580305,0
2024-12-13 15:22:33.496,-1.20419,4.08664,12.6793,-0.0984228,-0.296948,-0.0051922,0
2024-12-13 15:22:33.498,-1.01515,4.12014,12.8611,-0.128965,-0.334821,-0.0106898,0
2024-12-13 15:22:33.501,-0.828216,4.14407,13.0406,-0.16134,-0.367196,-0.0174091,0
2024-12-13 15:22:33.503,-0.65354,4.15603,13.2371,-0.190661,-0.395905,-0.0284044,0
2024-12-13 15:22:33.505,-0.464507,4.15125,13.4524,-0.224257,-0.420339,-0.041843,0
2024-12-13 15:22:33.508,-0.267996,4.12971,13.663,-0.2548,-0.438054,-0.0607793,0
2024-12-13 15:22:33.510,-0.100499,4.11775,13.8882,-0.284731,-0.450882,-0.0803264,0
2024-12-13 15:22:33.512,0.0550349,4.10339,14.1275,-0.317717,-0.460044,-0.100484,0
2024-12-13 15:22:33.515,0.184247,4.07707,14.3862,-0.34154,-0.460044,-0.12614,0
2024-12-13 15:22:33.517,0.292223,4.04357,14.6447,-0.367806,-0.458212,-0.148741,0
2024-12-13 15:22:33.520,0.385544,3.99332,14.8962,-0.388575,-0.447827,-0.170121,0
2024-12-13 15:22:33.522,0.464507,3.94068,15.1475,-0.405679,-0.429502,-0.190279,0
2024-12-13 15:22:33.524,0.519542,3.88564,15.4035,-0.419118,-0.408122,-0.210437,0
2024-12-13 15:22:33.527,0.569791,3.82104,15.6503,-0.430724,-0.381856,-0.226319,0
2024-12-13 15:22:33.529,0.629611,3.75404,15.8752,-0.43561,-0.345816,-0.240368,0
2024-12-13 15:22:33.531,0.65354,3.67747,16.0884,-0.438054,-0.307943,-0.254418,0
2024-12-13 15:22:33.534,0.663111,3.59821,16.2799,-0.436221,-0.263962,-0.265413,0
2024-12-13 15:22:33.536,0.665504,3.5336,16.4498,-0.428891,-0.218149,-0.274576,0
2024-12-13 15:22:33.538,0.648754,3.45942,16.5936,-0.416674,-0.167449,-0.280684,0
2024-12-13 15:22:33.541,0.598505,3.38046,16.6869,-0.403846,-0.11064,-0.283128,0
2024-12-13 15:22:33.543,0.519542,3.29193,16.7276,-0.385521,-0.0489441,-0.281906,1
2024-12-13 15:22:33.545,0.431007,3.20818,16.7252,-0.364752,0.0182491,-0.278852,0
2024-12-13 15:22:33.548,0.304188,3.12682,16.6654,-0.342762,0.0829989,-0.273965,0
2024-12-13 15:22:33.550,0.150748,3.05474,16.5553,-0.32016,0.155079,-0.262359,0
2024-12-13 15:22:33.552,-0.0287139,3.00688,16.3923,-0.293283,0.22777,-0.248309,0
2024-12-13 15:22:33.555,-0.236889,2.9662,16.1913,-0.268238,0.294963,-0.228762,0
2024-12-13 15:22:33.557,-0.452543,2.93988,15.9805,-0.24808,0.359713,-0.202496,0
2024-12-13 15:22:33.560,-0.65354,2.94227,15.7603,-0.22609,0.420187,-0.175008,0
2024-12-13 15:22:33.562,-0.864407,2.9662,15.533,-0.209597,0.47333,-0.140189,0
2024-12-13 15:22:33.564,-1.08694,3.01884,15.2958,-0.19005,0.519755,-0.105371,0
2024-12-13 15:22:33.567,-1.28794,3.08854,15.0422,-0.17539,0.563736,-0.0644444,0
2024-12-13 15:22:33.569,-1.47248,3.15553,14.7858,-0.165616,0.600387,-0.0216851,0
2024-12-13 15:22:33.571,-1.64955,3.22493,14.5179,-0.147901,0.627875,0.0222959,0
2024-12-13 15:22:33.574,-1.81466,3.27757,14.2352,-0.141182,0.651087,0.0668878,0
2024-12-13 15:22:33.576,-1.94148,3.31107,13.9624,-0.135074,0.663915,0.11209,0
2024-12-13 15:22:33.578,-2.02313,3.33021,13.7252,-0.13263,0.665136,0.159202,0
2024-12-13 15:22:33.581,-2.09731,3.34696,13.4907,-0.133852,0.656584,0.203183,0
2024-12-13 15:22:33.583,-2.13081,3.3661,13.2706,-0.135074,0.633372,0.245942,0
2024-12-13 15:22:33.585,-2.12363,3.37567,13.086,-0.143625,0.599776,0.286869,0
2024-12-13 15:22:33.588,-2.11167,3.39003,12.9162,-0.150345,0.557016,0.322909,0
2024-12-13 15:22:33.590,-2.08295,3.41635,12.775,-0.157675,0.505705,0.353451,0
2024-12-13 15:22:33.593,-2.02552,3.45942,12.6673,-0.167449,0.448896,0.382772,0
2024-12-13 15:22:33.595,-1.94626,3.50728,12.5833,-0.17539,0.382314,0.408428,0
2024-12-13 15:22:33.597,-1.86251,3.5336,12.5306,-0.187606,0.312067,0.430418,0
2024-12-13 15:22:33.600,-1.77398,3.55274,12.5067,-0.195547,0.237543,0.448133,0
2024-12-13 15:22:33.602,-1.67348,3.56471,12.4971,-0.202878,0.156301,0.462793,0
2024-12-13 15:22:33.604,-1.54905,3.57189,12.5234,-0.21204,0.0768904,0.475621,0
2024-12-13 15:22:33.607,-1.40788,3.57189,12.5928,-0.218149,-0.00679568,0.481729,0
2024-12-13 15:22:33.609,-1.25204,3.55274,12.696,-0.221203,-0.0923143,0.487227,0
2024-12-13 15:22:33.611,-1.08694,3.53121,12.8276,-0.221814,-0.171724,0.490892,0
2024-12-13 15:22:33.614,-0.924228,3.49292,12.9855,-0.216927,-0.243804,0.491503,0
2024-12-13 15:22:33.616,-0.777966,3.43789,13.1459,-0.210819,-0.307333,0.491503,0
2024-12-13 15:22:33.618,-0.639183,3.35892,13.3161,-0.198602,-0.362309,0.491503,0
2024-12-13 15:22:33.621,-0.490828,3.27278,13.4979,-0.185163,-0.407511,0.491503,0
2024-12-13 15:22:33.623,-0.35683,3.18664,13.6463,-0.166838,-0.440497,0.48906,0
2024-12-13 15:22:33.626,-0.248854,3.1005,13.7566,-0.141793,-0.461266,0.487227,0
2024-12-13 15:22:33.628,-0.157926,3.03559,13.8452,-0.116748,-0.477148,0.48967,0
2024-12-13 15:22:33.630,-0.0981057,2.98056,13.9098,-0.085595,-0.483257,0.492114,0
2024-12-13 15:22:33.633,-0.0358923,2.91595,13.9528,-0.0526092,-0.480202,0.493336,0
2024-12-13 15:22:33.635,0.0311067,2.83699,13.972,-0.0165692,-0.468596,0.497611,0
2024-12-13 15:22:33.637,0.0885344,2.74846,13.9672,0.0243575,-0.44966,0.504331,0
2024-12-13 15:22:33.640,0.165105,2.68385,13.9289,0.0658951,-0.427669,0.511661,0
2024-12-13 15:22:33.642,0.239282,2.65035,13.8643,0.109876,-0.395295,0.519602,0
2024-12-13 15:22:33.644,0.294616,2.61924,13.7495,0.156301,-0.353146,0.527543,0
2024-12-13 15:22:33.647,0.34008,2.57139,13.5912,0.200892,-0.307333,0.536706,0
2024-12-13 15:22:33.649,0.373579,2.52323,13.3974,0.246706,-0.254189,0.544036,0
2024-12-13 15:22:33.651,0.3999,2.49212,13.1674,0.294352,-0.197991,0.55442,0
2024-12-13 15:22:33.654,0.407079,2.47059,12.9066,0.33589,-0.138739,0.566637,0
2024-12-13 15:22:33.656,0.395115,2.45145,12.6,0.378114,-0.0764323,0.580076,0
2024-12-13 15:22:33.658,0.380758,2.44188,12.2865,0.413544,-0.0141258,0.593514,0
2024-12-13 15:22:33.661,0.361615,2.42991,11.9441,0.448362,0.0500131,0.608175,0
2024-12-13 15:22:33.663,0.347258,2.4323,11.5804,0.481958,0.111709,0.624057,0
2024-12-13 15:22:33.666,0.320937,2.45623,11.2164,0.508225,0.174626,0.636885,0
2024-12-13 15:22:33.668,0.27996,2.4658,10.8428,0.532048,0.232046,0.651545,0
2024-12-13 15:22:33.670,0.251246,2.48255,10.4982,0.553428,0.291298,0.666205,0
2024-12-13 15:22:33.673,0.232104,2.50648,10.1677,0.573586,0.344442,0.680866,0
2024-12-13 15:22:33.675,0.217747,2.53549,9.83988,0.590689,0.394531,0.693693,0
2024-12-13 15:22:33.677,0.224925,2.55703,9.5022,0.608404,0.441566,0.704689,0
2024-12-13 15:22:33.680,0.236889,2.58335,9.14776,0.619399,0.484936,0.718127,0
2024-12-13 15:22:33.682,0.246461,2.61207,8.8008,0.628562,0.524641,0.72729,0
2024-12-13 15:22:33.684,0.253639,2.62164,8.46072,0.634059,0.557627,0.732177,0
2024-12-13 15:22:33.687,0.270389,2.64556,8.11107,0.638335,0.586337,0.735842,0
2024-12-13 15:22:33.689,0.304188,2.6671,7.7689,0.638335,0.609549,0.740729,0
2024-12-13 15:22:33.691,0.361615,2.65514,7.4671,0.635892,0.625431,0.740118,0
2024-12-13 15:22:33.694,0.378365,2.66471,7.14168,0.629784,0.637648,0.736453,0
2024-12-13 15:22:33.696,1.04865,2.29113,7.4671,0.616956,0.630318,0.726068,0
2024-12-13 15:22:33.699,1.62802,1.89841,7.79043,0.634059,0.562514,0.681476,0
2024-12-13 15:22:33.701,0.996012,2.12124,6.91406,0.645055,0.54541,0.641771,0
2024-12-13 15:22:33.703,0.574577,2.38206,6.23899,0.639557,0.578396,0.619781,0
2024-12-13 15:22:33.706,0.600898,2.50409,6.22463,0.635892,0.5955,0.601456,0
2024-12-13 15:22:33.708,0.371187,2.71256,6.07627,0.636503,0.597332,0.584963,0
2024-12-13 15:22:33.710,0.119641,2.91835,5.87019,0.629784,0.590613,0.578243,0
2024-12-13 15:22:33.713,-0.0717847,3.10529,5.64766,0.616956,0.574731,0.575189,0
2024-12-13 15:22:33.715,-0.263211,3.268,5.34616,0.596798,0.547243,0.5758,0
2024-12-13 15:22:33.717,-0.402293,3.3661,5.04915,0.574196,0.517311,0.581298,0
2024-12-13 15:22:33.720,-0.481256,3.44267,4.78355,0.541211,0.486158,0.585573,0
2024-12-13 15:22:33.722,-0.500399,3.49292,4.57508,0.505171,0.450118,0.589849,0
2024-12-13 15:22:33.724,-0.531506,3.54796,4.33819,0.46852,0.40858,0.594125,0
2024-12-13 15:22:33.727,-0.54347,3.59103,4.12493,0.422095,0.370708,0.595958,0
2024-12-13 15:22:33.729,-0.423829,3.55274,4.08664,0.373839,0.323062,0.591071,0
2024-12-13 15:22:33.731,-0.292223,3.47617,4.12253,0.326727,0.266253,0.581908,0
2024-12-13 15:22:33.734,-0.196211,3.40917,4.17039,0.283357,0.207001,0.564194,0
2024-12-13 15:22:33.736,-0.0957129,3.35175,4.2329,0.238765,0.143473,0.540982,0
2024-12-13 15:22:33.739,0.0,3.3015,4.33819,0.199671,0.0781121,0.512883,0
2024-12-13 15:22:33.741,0.0717847,3.26082,4.47697,0.159355,0.0170274,0.482951,0
2024-12-13 15:22:33.743,0.100499,3.25843,4.6349,0.128202,-0.0410031,0.448744,0
2024-12-13 15:22:33.746,0.081356,3.29432,4.82902,0.0970484,-0.0947577,0.413925,0
2024-12-13 15:22:33.748,0.0287139,3.34218,5.0324,0.074447,-0.141793,0.380329,0
2024-12-13 15:22:33.750,-0.0454636,3.402,5.22144,0.0542891,-0.183941,0.351008,0
2024-12-13 15:22:33.753,-0.136391,3.45224,5.39881,0.0359636,-0.216316,0.322909,0
2024-12-13 15:22:33.755,-0.263211,3.48574,5.5687,0.0213033,-0.241972,0.299086,0
2024-12-13 15:22:33.757,-0.385544,3.50249,5.71466,0.0121406,-0.259076,0.281372,0
2024-12-13 15:22:33.760,-0.4669,3.50489,5.84626,0.00419957,-0.278012,0.269155,0
2024-12-13 15:22:33.763,-0.531506,3.48814,5.99253,-0.0110716,-0.303667,0.248386,0
2024-12-13 15:22:33.764,-0.56022,3.43789,6.12892,-0.0110716,-0.303667,0.248386,0
2024-12-13 15:22:33.767,-0.569791,3.35892,6.24377,-0.0122933,-0.313441,0.241056,0
2024-12-13 15:22:33.769,-0.553041,3.27278,6.35384,-0.0165692,-0.324436,0.235558,0
2024-12-13 15:22:33.772,-0.517149,3.19621,6.46182,-0.0184018,-0.332988,0.229449,0
2024-12-13 15:22:33.774,-0.483649,3.12443,6.5671,-0.0208452,-0.336042,0.222119,0
2024-12-13 15:22:33.776,-0.452543,3.08854,6.64846,-0.0232886,-0.337875,0.216622,0
2024-12-13 15:22:33.779,-0.435793,3.04995,6.71306,-0.021456,-0.339097,0.211124,0
2024-12-13 15:22:33.781,-0.440578,3.02842,6.77528,-0.0184018,-0.338486,0.204405,0
2024-12-13 15:22:33.783,-0.445364,3.01884,6.8351,-0.0202343,-0.337264,0.197075,0
2024-12-13 15:22:33.786,-0.440578,3.00449,6.87817,-0.0196235,-0.336042,0.191577,0
2024-12-13 15:22:33.788,-0.435793,3.0021,6.91167,-0.0171801,-0.333599,0.183636,0
2024-12-13 15:22:33.790,-0.442971,2.97817,6.94277,-0.0165692,-0.328712,0.176306,0
2024-12-13 15:22:33.793,-0.4334,2.94467,6.95235,-0.0184018,-0.32749,0.175084,0
2024-12-13 15:22:33.795,-0.411865,2.9016,6.93081,-0.0177909,-0.323215,0.169586,0
2024-12-13 15:22:33.797,-0.404686,2.85135,6.9021,-0.0269536,-0.318328,0.165311,0
2024-12-13 15:22:33.800,-0.390329,2.80828,6.87817,-0.0348946,-0.31283,0.161035,0
2024-12-13 15:22:33.802,-0.373579,2.7676,6.85185,-0.0422248,-0.309165,0.156759,0
2024-12-13 15:22:33.805,-0.35683,2.71256,6.83271,-0.0532201,-0.304889,0.152483,0
2024-12-13 15:22:33.807,-0.342473,2.64556,6.81117,-0.0660479,-0.298781,0.146374,0
2024-12-13 15:22:33.809,-0.342473,2.57857,6.79442,-0.0788757,-0.293283,0.142709,0
2024-12-13 15:22:33.812,-0.354437,2.52323,6.78006,-0.0984228,-0.284731,0.137212,0
2024-12-13 15:22:33.814,-0.371187,2.47298,6.77288,-0.113694,-0.278623,0.131027,0
2024-12-13 15:22:33.816,-0.390329,2.41795,6.77528,-0.133241,-0.272514,0.12614,0
2024-12-13 15:22:33.819,-0.404686,2.37727,6.77049,-0.152788,-0.26213,0.123086,0
2024-12-13 15:22:33.821,-0.419043,2.34138,6.77528,-0.171114,-0.254189,0.120031,0
2024-12-13 15:22:33.823,-0.452543,2.28873,6.79921,-0.190661,-0.250524,0.119421,0
2024-12-13 15:22:33.826,-0.483649,2.2337,6.83271,-0.208375,-0.241361,0.117588,0
2024-12-13 15:22:33.828,-0.548256,2.22891,6.84945,-0.226701,-0.235863,0.116977,0
2024-12-13 15:22:33.830,-0.734896,2.28395,6.7346,-0.247469,-0.224257,0.122475,0
2024-12-13 15:22:33.833,-0.833001,2.32223,6.71067,-0.272514,-0.208375,0.131027,0
2024-12-13 15:22:33.835,-0.816252,2.30548,6.81835,-0.293283,-0.204099,0.140266,0
2024-12-13 15:22:33.837,-0.833001,2.26002,6.87817,-0.318328,-0.207764,0.152483,0
2024-12-13 15:22:33.840,-0.825823,2.19063,6.95713,-0.340929,-0.214484,0.161035,0
2024-12-13 15:22:33.842,-0.801895,2.12363,7.04357,-0.361087,-0.224257,0.168976,0
2024-12-13 15:22:33.845,-0.775574,2.08056,7.14407,-0.378802,-0.230977,0.173862,0
2024-12-13 15:22:33.847,-0.74686,2.03031,7.25175,-0.39957,-0.239528,0.17936,0
2024-12-13 15:22:33.849,-0.718146,1.97767,7.35943,-0.413009,-0.241972,0.186079,0
2024-12-13 15:22:33.852,-0.708575,1.95344,7.45514,-0.425837,-0.240139,0.188523,0
2024-12-13 15:22:33.854,-0.691825,1.9343,7.56999,-0.434389,-0.237696,0.190355,0
2024-12-13 15:22:33.856,-0.675075,1.91994,7.71147,-0.438054,-0.234031,0.194631,0
2024-12-13 15:22:33.859,-0.679861,1.90798,7.8335,-0.444162,-0.229144,0.197075,0
2024-12-13 15:22:33.861,-0.679861,1.89123,7.934,-0.447217,-0.221203,0.20074,0
2024-12-13 15:22:33.863,-0.651147,1.88405,8.03929,-0.445384,-0.21204,0.205626,0
2024-12-13 15:22:33.866,-0.612862,1.86251,8.15683,-0.444162,-0.203488,0.210513,0
2024-12-13 15:22:33.868,-0.550648,1.8338,8.25255,-0.439886,-0.194326,0.214178,0
2024-12-13 15:22:33.870,-0.490828,1.81944,8.3339,-0.436221,-0.185774,0.216011,0
2024-12-13 15:22:33.873,-0.431007,1.79551,8.40808,-0.427059,-0.171724,0.220287,0
2024-12-13 15:22:33.875,-0.366401,1.77398,8.47269,-0.419118,-0.157675,0.222119,0
2024-12-13 15:22:33.878,-0.318545,1.74048,8.51815,-0.411177,-0.13996,0.225784,0
2024-12-13 15:22:33.880,-0.287438,1.70459,8.55883,-0.400181,-0.121024,0.228839,0
2024-12-13 15:22:33.882,-0.267996,1.69262,8.61147,-0.385521,-0.100255,0.230671,0
2024-12-13 15:22:33.885,-0.263211,1.66869,8.65215,-0.373304,-0.0819299,0.233725,0
2024-12-13 15:22:33.887,-0.258425,1.6328,8.67129,-0.359255,-0.0636045,0.23678,0
2024-12-13 15:22:33.889,-0.260818,1.58973,8.68565,-0.346427,-0.0489441,0.242888,0
2024-12-13 15:22:33.892,-0.275175,1.54666,8.67847,-0.329934,-0.0342838,0.247164,0
2024-12-13 15:22:33.894,-0.301795,1.50598,8.65454,-0.314663,-0.0196235,0.256327,0
2024-12-13 15:22:33.896,-0.325723,1.45813,8.62104,-0.296948,-0.00557398,0.266711,0
2024-12-13 15:22:33.899,-0.337687,1.40279,8.58515,-0.281066,0.00847551,0.279539,0
2024-12-13 15:22:33.901,-0.352044,1.36211,8.54926,-0.26213,0.022525,0.290534,0
2024-12-13 15:22:33.903,-0.368794,1.34058,8.51576,-0.245026,0.0365745,0.307638,0
2024-12-13 15:22:33.906,-0.397508,1.30469,8.47747,-0.225479,0.0512348,0.322909,0
2024-12-13 15:22:33.908,-0.4334,1.26401,8.42244,-0.207764,0.0652843,0.341845,0
2024-12-13 15:22:33.911,-0.462114,1.2329,8.37697,-0.186996,0.0811663,0.363225,0
2024-12-13 15:22:33.913,-0.486042,1.21615,8.35065,-0.168059,0.100713,0.387048,0
2024-12-13 15:22:33.915,-0.519542,1.18983,8.31954,-0.147901,0.116595,0.410871,0
2024-12-13 15:22:33.918,-0.548256,1.15633,8.27408,-0.129576,0.131867,0.439581,0
2024-12-13 15:22:33.920,-0.565005,1.13958,8.25015,-0.11064,0.145305,0.468902,0
2024-12-13 15:22:33.922,-0.572184,1.11326,8.24537,-0.0910926,0.159966,0.499444,0
2024-12-13 15:22:33.927,-0.584148,1.0989,8.21905,-0.0446682,0.186232,0.562361,0
2024-12-13 15:22:33.927,-0.584148,1.0989,8.21905,-0.0446682,0.186232,0.562361,0
2024-12-13 15:22:33.929,-0.567398,1.09173,8.21426,-0.0232886,0.196006,0.594125,0
2024-12-13 15:22:33.932,-0.533899,1.09651,8.22383,0.000534491,0.207612,0.627722,0
2024-12-13 15:22:33.934,-0.533899,1.10369,8.21905,0.0243575,0.221661,0.660097,0
2024-12-13 15:22:33.936,-0.529113,1.12044,8.2023,0.050624,0.238154,0.694915,0
2024-12-13 15:22:33.939,-0.519542,1.15155,8.19273,0.0768904,0.254647,0.727901,0
2024-12-13 15:22:33.941,-0.512363,1.17787,8.16401,0.102546,0.272972,0.760887,0
2024-12-13 15:22:33.943,-0.476471,1.1994,8.15923,0.129423,0.291909,0.793262,0
2024-12-13 15:22:33.946,-0.41665,1.22572,8.17358,0.157522,0.30718,0.819528,0
2024-12-13 15:22:33.948,-0.354437,1.25204,8.17358,0.183789,0.323062,0.85007,0
2024-12-13 15:22:33.951,-0.297009,1.27119,8.17358,0.213109,0.338333,0.875726,0
2024-12-13 15:22:33.953,-0.193819,1.29512,8.1688,0.238765,0.351161,0.90016,0
2024-12-13 15:22:33.955,-0.0861416,1.32861,8.13769,0.265642,0.364599,0.918485,0
2024-12-13 15:22:33.958,-0.00717847,1.36451,8.08714,0.291298,0.376206,0.938643,0
2024-12-13 15:22:33.960,0.0741775,1.4004,8.02732,0.313288,0.387812,0.956358,0
2024-12-13 15:22:33.962,0.133998,1.4342,7.96272,0.33589,0.400639,0.969186,0
2024-12-13 15:22:33.965,0.20339,1.47488,7.88854,0.353604,0.414078,0.97957,0
2024-12-13 15:22:33.967,0.265603,1.51077,7.80479,0.372617,0.428128,0.989954,0
2024-12-13 15:22:33.969,0.304188,1.55862,7.72583,0.390331,0.442788,0.998506,0
2024-12-13 15:22:33.972,0.335294,1.61845,7.65404,0.404381,0.45134,1.00461,0
2024-12-13 15:22:33.974,0.361615,1.6663,7.58944,0.417209,0.459892,1.00828,0
2024-12-13 15:22:33.976,0.383151,1.70459,7.51257,0.426371,0.462946,1.015,0
2024-12-13 15:22:33.979,0.395115,1.74527,7.4336,0.43981,0.467222,1.015,0
2024-12-13 15:22:33.981,0.395115,1.79073,7.34985,0.448362,0.466611,1.01683,0
2024-12-13 15:22:33.984,0.395115,1.82901,7.26132,0.455692,0.464168,1.01744,0
2024-12-13 15:22:33.986,0.383151,1.88883,7.18714,0.459968,0.457448,1.02111,0
2024-12-13 15:22:33.988,0.364008,1.92951,7.12493,0.463633,0.447064,1.02172,0
2024-12-13 15:22:33.991,0.342473,1.95105,7.06032,0.469131,0.435458,1.02416,0
2024-12-13 15:22:33.993,0.328116,1.98724,6.98585,0.465466,0.422019,1.02416,0
2024-12-13 15:22:33.995,0.318545,2.02074,6.94277,0.467909,0.409802,1.02355,0
2024-12-13 15:22:33.998,0.311366,2.0686,6.91885,0.469742,0.390866,1.02599,0
2024-12-13 15:22:34.000,0.320937,2.11884,6.89731,0.470352,0.368875,1.02844,0
2024-12-13 15:22:34.002,0.32333,2.16909,6.88774,0.467909,0.345663,1.02661,0
2024-12-13 15:22:34.005,0.316152,2.21456,6.89253,0.464855,0.318175,1.02661,0
2024-12-13 15:22:34.007,0.332901,2.25045,6.90928,0.460579,0.287633,1.02477,0
2024-12-13 15:22:34.009,0.349651,2.30309,6.92842,0.456303,0.253425,1.02355,0
2024-12-13 15:22:34.012,0.368794,2.35334,6.97867,0.452027,0.217996,1.01989,0
2024-12-13 15:22:34.014,0.421436,2.40838,7.06032,0.446529,0.183789,1.015,0
2024-12-13 15:22:34.019,0.576969,2.51845,7.28764,0.435534,0.116595,1.00156,0
2024-12-13 15:22:34.019,0.576969,2.51845,7.28764,0.435534,0.116595,1.00156,0
2024-12-13 15:22:34.021,0.641576,2.5666,7.41446,0.434923,0.086664,0.989343,0
2024-12-13 15:22:34.024,0.742074,2.62164,7.57239,0.434923,0.0603975,0.975905,0
2024-12-13 15:22:34.026,0.847657,2.67189,7.76411,0.431258,0.0353528,0.960023,0
2024-12-13 15:22:34.028,0.96012,2.71017,7.94118,0.434923,0.0170274,0.939254,0
2024-12-13 15:22:34.031,1.11326,2.74367,8.13021,0.436756,0.00481042,0.918485,0
2024-12-13 15:22:34.033,1.26162,2.77717,8.32433,0.441032,-7.63559e-05,0.89283,0
2024-12-13 15:22:34.035,1.41745,2.80828,8.50619,0.443475,0.00358873,0.862898,0
2024-12-13 15:22:34.038,1.57537,2.83699,8.68565,0.449584,0.0139731,0.833577,0
2024-12-13 15:22:34.040,1.70937,2.84895,8.84866,0.457525,0.0371853,0.797537,0
2024-12-13 15:22:34.042,1.81705,2.87288,8.97787,0.465466,0.0689494,0.763941,0
2024-12-13 15:22:34.045,1.89841,2.8992,9.07358,0.472185,0.108654,0.724847,0
2024-12-13 15:22:34.047,1.9681,2.91356,9.15494,0.480126,0.158744,0.689417,0
2024-12-13 15:22:34.049,2.00399,2.9327,9.22433,0.484402,0.217996,0.650934,0
2024-12-13 15:22:34.052,1.99681,2.96381,9.27249,0.488678,0.281524,0.614283,0
2024-12-13 15:22:34.054,1.93908,2.99013,9.29163,0.488067,0.347496,0.579465,0
2024-12-13 15:22:34.058,1.83141,3.03081,9.28924,0.476461,0.478217,0.514715,0
2024-12-13 15:22:34.059,1.67109,3.10289,9.28206,0.476461,0.478217,0.514715,0
2024-12-13 15:22:34.061,1.45334,3.17946,9.27009,0.463022,0.534415,0.490892,0
2024-12-13 15:22:34.064,1.2018,3.25603,9.25783,0.444697,0.580839,0.467069,0
2024-12-13 15:22:34.068,0.63679,3.42353,9.29163,0.390942,0.632151,0.437748,0
2024-12-13 15:22:34.068,0.63679,3.42353,9.29163,0.390942,0.632151,0.437748,0
2024-12-13 15:22:34.071,0.34008,3.50728,9.33231,0.354826,0.638259,0.432862,0
2024-12-13 15:22:34.073,0.0454636,3.58864,9.37777,0.315732,0.632151,0.431029,0
2024-12-13 15:22:34.075,-0.232104,3.67029,9.42802,0.267475,0.613214,0.434694,0
2024-12-13 15:22:34.078,-0.486042,3.75404,9.51177,0.216774,0.583894,0.443246,0
2024-12-13 15:22:34.080,-0.691825,3.81625,9.66252,0.158744,0.54541,0.457296,0
2024-12-13 15:22:34.082,-0.857229,3.86172,9.85664,0.101324,0.495321,0.474399,0
2024-12-13 15:22:34.085,-0.957727,3.88564,10.0911,0.0390179,0.43729,0.493336,0
2024-12-13 15:22:34.087,-0.984048,3.88325,10.3929,-0.0257319,0.37254,0.512272,0
2024-12-13 15:22:34.090,-0.986441,3.86172,10.7423,-0.0929251,0.297406,0.529986,0
2024-12-13 15:22:34.092,-0.964906,3.83061,11.1063,-0.161951,0.222883,0.548312,0
2024-12-13 15:22:34.094,-0.907478,3.81147,11.4844,-0.229755,0.147138,0.562972,0
2024-12-13 15:22:34.097,-0.828216,3.77079,11.9154,-0.296337,0.0732253,0.577022,0
2024-12-13 15:22:34.100,-0.727717,3.70618,12.3847,-0.432556,-0.0697129,0.592904,0
2024-12-13 15:22:34.101,-0.581755,3.66072,12.8922,-0.432556,-0.0697129,0.592904,0
2024-12-13 15:22:34.104,-0.411865,3.62931,13.4381,-0.495473,-0.129576,0.595347,0
2024-12-13 15:22:34.106,-0.229711,3.59103,14.0294,-0.551671,-0.176,0.594125,0
2024-12-13 15:22:34.108,-0.0358923,3.5671,14.6375,-0.597485,-0.205321,0.592904,0
2024-12-13 15:22:34.111,0.160319,3.54796,15.2456,-0.637801,-0.221814,0.584963,0
2024-12-13 15:22:34.113,0.366401,3.53599,15.856,-0.670176,-0.22609,0.572746,0
2024-12-13 15:22:34.115,0.555434,3.52403,16.4354,-0.692777,-0.219981,0.559918,0
2024-12-13 15:22:34.118,0.722932,3.49292,16.9837,-0.706216,-0.199823,0.543425,0
2024-12-13 15:22:34.121,0.869193,3.45942,17.5056,-0.712935,-0.129576,0.499444,0
