timestamp,accel_x,accel_y,accel_z,gyro_x,gyro_y,gyro_z,step_timestamp
2024-12-13 15:24:18.649,-0.229711,3.12921,8.77209,-0.0800973,0.11293,-0.16218,0
2024-12-13 15:24:18.650,-0.256032,3.12921,8.75294,-0.0800973,0.11293,-0.16218,0
2024-12-13 15:24:18.650,-0.256032,3.12921,8.75294,-0.0800973,0.11293,-0.16218,0
2024-12-13 15:24:18.650,-0.256032,3.12921,8.75294,-0.0800973,0.11293,-0.16218,0
2024-12-13 15:24:18.650,-0.256032,3.12921,8.75294,-0.0800973,0.11293,-0.16218,0
2024-12-13 15:24:18.650,-0.256032,3.12921,8.75294,-0.0800973,0.11293,-0.16218,0
2024-12-13 15:24:18.653,-0.27996,3.12682,8.7338,-0.0794865,0.108654,-0.171953,0
2024-12-13 15:24:18.653,-0.27996,3.12682,8.7338,-0.0794865,0.108654,-0.171953,0
2024-12-13 15:24:18.653,-0.27996,3.12682,8.7338,-0.0794865,0.108654,-0.171953,0
2024-12-13 15:24:18.653,-0.27996,3.12682,8.7338,-0.0794865,0.108654,-0.171953,0
2024-12-13 15:24:18.655,-0.289831,3.11007,8.71227,-0.0764323,0.100103,-0.182949,0
2024-12-13 15:24:18.655,-0.289831,3.11007,8.71227,-0.0764323,0.100103,-0.182949,0
2024-12-13 15:24:18.657,-0.30658,3.11007,8.69522,-0.0752106,0.0897182,-0.192111,0
2024-12-13 15:24:18.657,-0.30658,3.11007,8.69522,-0.0752106,0.0897182,-0.192111,0
2024-12-13 15:24:18.657,-0.30658,3.11007,8.69522,-0.0752106,0.0897182,-0.192111,0
2024-12-13 15:24:18.657,-0.30658,3.11007,8.69522,-0.0752106,0.0897182,-0.192111,0
2024-12-13 15:24:18.660,-0.318545,3.10768,8.68565,-0.0739889,0.0781121,-0.201885,0
2024-12-13 15:24:18.660,-0.318545,3.10768,8.68565,-0.0739889,0.0781121,-0.201885,0
2024-12-13 15:24:18.662,-0.335294,3.09571,8.69283,-0.0721563,0.0634518,-0.209826,0
2024-12-13 15:24:18.662,-0.335294,3.09571,8.69283,-0.0721563,0.0634518,-0.209826,0
2024-12-13 15:24:18.662,-0.335294,3.09571,8.69283,-0.0721563,0.0634518,-0.209826,0
2024-12-13 15:24:18.662,-0.335294,3.09571,8.69283,-0.0721563,0.0634518,-0.209826,0
2024-12-13 15:24:18.665,-0.349651,3.07627,8.68804,-0.0672696,0.046348,-0.220821,0
2024-12-13 15:24:18.667,-0.359223,3.04995,8.68565,-0.0672696,0.046348,-0.220821,0
2024-12-13 15:24:18.672,-0.352044,3.03559,8.74577,-0.0532201,-0.00679568,-0.250142,0
2024-12-13 15:24:18.672,-0.352044,3.03559,8.74577,-0.0532201,-0.00679568,-0.250142,0
2024-12-13 15:24:18.672,-0.352044,3.03559,8.74577,-0.0532201,-0.00679568,-0.250142,0
2024-12-13 15:24:18.674,-0.349651,3.02124,8.7697,-0.0446682,-0.0257319,-0.259305,0
2024-12-13 15:24:18.674,-0.349651,3.02124,8.7697,-0.0446682,-0.0257319,-0.259305,0
2024-12-13 15:24:18.674,-0.349651,3.02124,8.7697,-0.0446682,-0.0257319,-0.259305,0
2024-12-13 15:24:18.675,-0.349651,3.02124,8.7697,-0.037338,-0.0434465,-0.268467,0
2024-12-13 15:24:18.676,-0.344866,3.00688,8.79362,-0.037338,-0.0434465,-0.268467,0
2024-12-13 15:24:18.676,-0.344866,3.00688,8.79362,-0.037338,-0.0434465,-0.268467,0
2024-12-13 15:24:18.676,-0.344866,3.00688,8.79362,-0.037338,-0.0434465,-0.268467,0
2024-12-13 15:24:18.676,-0.344866,3.00688,8.79362,-0.037338,-0.0434465,-0.268467,0
2024-12-13 15:24:18.676,-0.344866,3.00688,8.79362,-0.037338,-0.0434465,-0.268467,0
2024-12-13 15:24:18.679,-0.347258,3.00449,8.82712,-0.0300079,-0.0581068,-0.27763,0
2024-12-13 15:24:18.679,-0.347258,3.00449,8.82712,-0.0300079,-0.0581068,-0.27763,0
2024-12-13 15:24:18.679,-0.347258,3.00449,8.82712,-0.0300079,-0.0581068,-0.27763,0
2024-12-13 15:24:18.681,-0.347258,3.00449,8.82712,-0.0202343,-0.0745997,-0.286793,0
2024-12-13 15:24:18.681,-0.354437,2.99252,8.87498,-0.0202343,-0.0745997,-0.286793,0
2024-12-13 15:24:18.681,-0.354437,2.99252,8.87498,-0.0202343,-0.0745997,-0.286793,0
2024-12-13 15:24:18.681,-0.354437,2.99252,8.87498,-0.0202343,-0.0745997,-0.286793,0
2024-12-13 15:24:18.681,-0.354437,2.99252,8.87498,-0.0202343,-0.0745997,-0.286793,0
2024-12-13 15:24:18.681,-0.354437,2.99252,8.87498,-0.0202343,-0.0745997,-0.286793,0
2024-12-13 15:24:18.683,-0.354437,2.98056,8.92762,-0.00801737,-0.085595,-0.295956,0
2024-12-13 15:24:18.683,-0.354437,2.98056,8.92762,-0.00801737,-0.085595,-0.295956,0
2024-12-13 15:24:18.683,-0.354437,2.98056,8.92762,-0.00801737,-0.085595,-0.295956,0
2024-12-13 15:24:18.686,-0.361615,2.97577,8.9683,0.00419957,-0.0972011,-0.302675,0
2024-12-13 15:24:18.686,-0.361615,2.97577,8.9683,0.00419957,-0.0972011,-0.302675,0
2024-12-13 15:24:18.686,-0.361615,2.97577,8.9683,0.00419957,-0.0972011,-0.302675,0
2024-12-13 15:24:18.686,-0.361615,2.97577,8.9683,0.00419957,-0.0972011,-0.302675,0
2024-12-13 15:24:18.686,-0.361615,2.97577,8.9683,0.00419957,-0.0972011,-0.302675,0
2024-12-13 15:24:18.686,-0.361615,2.97577,8.9683,0.00419957,-0.0972011,-0.302675,0
2024-12-13 15:24:18.688,-0.378365,2.95185,9.01137,0.0206925,-0.10392,-0.309394,0
2024-12-13 15:24:18.688,-0.378365,2.95185,9.01137,0.0206925,-0.10392,-0.309394,0
2024-12-13 15:24:18.688,-0.378365,2.95185,9.01137,0.0206925,-0.10392,-0.309394,0
2024-12-13 15:24:18.688,-0.378365,2.95185,9.01137,0.0206925,-0.10392,-0.309394,0
2024-12-13 15:24:18.688,-0.378365,2.95185,9.01137,0.0206925,-0.10392,-0.309394,0
2024-12-13 15:24:18.690,-0.3999,2.9351,9.04965,0.0365745,-0.109418,-0.317335,0
2024-12-13 15:24:18.690,-0.3999,2.9351,9.04965,0.0365745,-0.109418,-0.317335,0
2024-12-13 15:24:18.690,-0.3999,2.9351,9.04965,0.0365745,-0.109418,-0.317335,0
2024-12-13 15:24:18.690,-0.3999,2.9351,9.04965,0.0365745,-0.109418,-0.317335,0
2024-12-13 15:24:18.690,-0.3999,2.9351,9.04965,0.0365745,-0.109418,-0.317335,0
2024-12-13 15:24:18.690,-0.3999,2.9351,9.04965,0.0365745,-0.109418,-0.317335,0
2024-12-13 15:24:18.690,-0.3999,2.9351,9.04965,0.0365745,-0.109418,-0.317335,0
2024-12-13 15:24:18.693,-0.414257,2.90638,9.05923,0.0567324,-0.11064,-0.321611,0
2024-12-13 15:24:18.693,-0.414257,2.90638,9.05923,0.0567324,-0.11064,-0.321611,0
2024-12-13 15:24:18.693,-0.414257,2.90638,9.05923,0.0567324,-0.11064,-0.321611,0
2024-12-13 15:24:18.694,-0.414257,2.90638,9.05923,0.0768904,-0.11064,-0.325276,0
2024-12-13 15:24:18.695,-0.431007,2.87767,9.06401,0.0768904,-0.11064,-0.325276,0
2024-12-13 15:24:18.695,-0.431007,2.87767,9.06401,0.0768904,-0.11064,-0.325276,0
2024-12-13 15:24:18.695,-0.431007,2.87767,9.06401,0.0768904,-0.11064,-0.325276,0
2024-12-13 15:24:18.695,-0.431007,2.87767,9.06401,0.0768904,-0.11064,-0.325276,0
2024-12-13 15:24:18.695,-0.431007,2.87767,9.06401,0.0768904,-0.11064,-0.325276,0
2024-12-13 15:24:18.695,-0.431007,2.87767,9.06401,0.0768904,-0.11064,-0.325276,0
2024-12-13 15:24:18.698,-0.457328,2.85613,9.05205,0.0982701,-0.106975,-0.328941,0
2024-12-13 15:24:18.698,-0.457328,2.85613,9.05205,0.0982701,-0.106975,-0.328941,0
2024-12-13 15:24:18.698,-0.457328,2.85613,9.05205,0.0982701,-0.106975,-0.328941,0
2024-12-13 15:24:18.698,-0.457328,2.85613,9.05205,0.0982701,-0.106975,-0.328941,0
2024-12-13 15:24:18.698,-0.457328,2.85613,9.05205,0.0982701,-0.106975,-0.328941,0
2024-12-13 15:24:18.698,-0.457328,2.85613,9.05205,0.0982701,-0.106975,-0.328941,0
2024-12-13 15:24:18.700,-0.474078,2.81785,9.01616,0.121482,-0.101477,-0.333217,0
2024-12-13 15:24:18.700,-0.474078,2.81785,9.01616,0.121482,-0.101477,-0.333217,0
2024-12-13 15:24:18.700,-0.474078,2.81785,9.01616,0.121482,-0.101477,-0.333217,0
2024-12-13 15:24:18.700,-0.474078,2.81785,9.01616,0.121482,-0.101477,-0.333217,0
2024-12-13 15:24:18.701,-0.474078,2.81785,9.01616,0.145916,-0.0941468,-0.33505,0
2024-12-13 15:24:18.702,-0.486042,2.77238,8.95394,0.145916,-0.0941468,-0.33505,0
2024-12-13 15:24:18.702,-0.486042,2.77238,8.95394,0.145916,-0.0941468,-0.33505,0
2024-12-13 15:24:18.702,-0.486042,2.77238,8.95394,0.145916,-0.0941468,-0.33505,0
2024-12-13 15:24:18.702,-0.486042,2.77238,8.95394,0.145916,-0.0941468,-0.33505,0
2024-12-13 15:24:18.702,-0.486042,2.77238,8.95394,0.145916,-0.0941468,-0.33505,0
2024-12-13 15:24:18.705,-0.505185,2.71974,8.86541,0.167907,-0.0880384,-0.337493,0
2024-12-13 15:24:18.705,-0.505185,2.71974,8.86541,0.167907,-0.0880384,-0.337493,0
2024-12-13 15:24:18.705,-0.505185,2.71974,8.86541,0.167907,-0.0880384,-0.337493,0
2024-12-13 15:24:18.705,-0.505185,2.71974,8.86541,0.167907,-0.0880384,-0.337493,0
2024-12-13 15:24:18.705,-0.505185,2.71974,8.86541,0.167907,-0.0880384,-0.337493,0
2024-12-13 15:24:18.705,-0.505185,2.71974,8.86541,0.167907,-0.0880384,-0.337493,0
2024-12-13 15:24:18.705,-0.505185,2.71974,8.86541,0.167907,-0.0880384,-0.337493,0
2024-12-13 15:24:18.706,-0.505185,2.71974,8.86541,0.189286,-0.0770431,-0.339936,0
2024-12-13 15:24:18.707,-0.519542,2.68385,8.77448,0.189286,-0.0770431,-0.339936,0
2024-12-13 15:24:18.707,-0.519542,2.68385,8.77448,0.189286,-0.0770431,-0.339936,0
2024-12-13 15:24:18.707,-0.519542,2.68385,8.77448,0.189286,-0.0770431,-0.339936,0
2024-12-13 15:24:18.707,-0.519542,2.68385,8.77448,0.189286,-0.0770431,-0.339936,0
2024-12-13 15:24:18.709,-0.538684,2.64796,8.67368,0.210055,-0.0648262,-0.341158,0
2024-12-13 15:24:18.709,-0.538684,2.64796,8.67368,0.210055,-0.0648262,-0.341158,0
2024-12-13 15:24:18.709,-0.538684,2.64796,8.67368,0.210055,-0.0648262,-0.341158,0
2024-12-13 15:24:18.709,-0.538684,2.64796,8.67368,0.210055,-0.0648262,-0.341158,0
2024-12-13 15:24:18.709,-0.538684,2.64796,8.67368,0.210055,-0.0648262,-0.341158,0
2024-12-13 15:24:18.709,-0.538684,2.64796,8.67368,0.210055,-0.0648262,-0.341158,0
2024-12-13 15:24:18.712,-0.574577,2.61924,8.55404,0.226548,-0.0526092,-0.340547,0
2024-12-13 15:24:18.712,-0.574577,2.61924,8.55404,0.226548,-0.0526092,-0.340547,0
2024-12-13 15:24:18.712,-0.574577,2.61924,8.55404,0.226548,-0.0526092,-0.340547,0
2024-12-13 15:24:18.712,-0.574577,2.61924,8.55404,0.226548,-0.0526092,-0.340547,0
2024-12-13 15:24:18.714,-0.598505,2.60249,8.41765,0.244263,-0.0385597,-0.339326,0
2024-12-13 15:24:18.714,-0.598505,2.60249,8.41765,0.244263,-0.0385597,-0.339326,0
2024-12-13 15:24:18.714,-0.598505,2.60249,8.41765,0.244263,-0.0385597,-0.339326,0
2024-12-13 15:24:18.714,-0.598505,2.60249,8.41765,0.244263,-0.0385597,-0.339326,0
2024-12-13 15:24:18.714,-0.598505,2.60249,8.41765,0.244263,-0.0385597,-0.339326,0
2024-12-13 15:24:18.714,-0.598505,2.60249,8.41765,0.244263,-0.0385597,-0.339326,0
2024-12-13 15:24:18.714,-0.598505,2.60249,8.41765,0.244263,-0.0385597,-0.339326,0
2024-12-13 15:24:18.714,-0.598505,2.60249,8.41765,0.244263,-0.0385597,-0.339326,0
2024-12-13 15:24:18.716,-0.598505,2.60249,8.41765,0.263199,-0.0257319,-0.339936,0
2024-12-13 15:24:18.716,-0.629611,2.58335,8.2669,0.263199,-0.0257319,-0.339936,0
2024-12-13 15:24:18.716,-0.629611,2.58335,8.2669,0.263199,-0.0257319,-0.339936,0
2024-12-13 15:24:18.716,-0.629611,2.58335,8.2669,0.263199,-0.0257319,-0.339936,0
2024-12-13 15:24:18.719,-0.667897,2.5666,8.12064,0.274805,-0.0104608,-0.336271,0
2024-12-13 15:24:18.719,-0.667897,2.5666,8.12064,0.274805,-0.0104608,-0.336271,0
2024-12-13 15:24:18.719,-0.667897,2.5666,8.12064,0.274805,-0.0104608,-0.336271,0
2024-12-13 15:24:18.719,-0.667897,2.5666,8.12064,0.274805,-0.0104608,-0.336271,0
2024-12-13 15:24:18.719,-0.667897,2.5666,8.12064,0.274805,-0.0104608,-0.336271,0
2024-12-13 15:24:18.719,-0.667897,2.5666,8.12064,0.274805,-0.0104608,-0.336271,0
2024-12-13 15:24:18.719,-0.667897,2.5666,8.12064,0.274805,-0.0104608,-0.336271,0
2024-12-13 15:24:18.719,-0.667897,2.5666,8.12064,0.274805,-0.0104608,-0.336271,0
2024-12-13 15:24:18.720,-0.629611,2.58335,8.12064,0.2858,0.00603212,-0.332606,0
2024-12-13 15:24:18.721,-0.699003,2.54507,7.98425,0.2858,0.00603212,-0.332606,0
2024-12-13 15:24:18.721,-0.667897,2.5666,7.98425,0.2858,0.00603212,-0.332606,0
2024-12-13 15:24:18.721,-0.699003,2.54507,7.98425,0.2858,0.00603212,-0.332606,0
2024-12-13 15:24:18.723,-0.744467,2.53071,7.84068,0.296795,0.0213033,-0.32772,0
2024-12-13 15:24:18.723,-0.744467,2.53071,7.84068,0.296795,0.0213033,-0.32772,0
2024-12-13 15:24:18.723,-0.744467,2.53071,7.84068,0.296795,0.0213033,-0.32772,0
2024-12-13 15:24:18.723,-0.744467,2.53071,7.84068,0.296795,0.0213033,-0.32772,0
2024-12-13 15:24:18.723,-0.744467,2.53071,7.84068,0.296795,0.0213033,-0.32772,0
2024-12-13 15:24:18.723,-0.744467,2.53071,7.84068,0.296795,0.0213033,-0.32772,0
2024-12-13 15:24:18.723,-0.744467,2.53071,7.84068,0.296795,0.0213033,-0.32772,0
2024-12-13 15:24:18.724,-0.744467,2.53071,7.84068,0.296795,0.0213033,-0.32772,0
2024-12-13 15:24:18.726,-0.789931,2.51605,7.70668,0.305958,0.0353528,-0.323444,0
2024-12-13 15:24:18.726,-0.789931,2.51605,7.70668,0.305958,0.0353528,-0.323444,0
2024-12-13 15:24:18.728,-0.809073,2.50887,7.58465,0.318175,0.0500131,-0.317335,0
2024-12-13 15:24:18.728,-0.809073,2.50887,7.58465,0.318175,0.0500131,-0.317335,0
2024-12-13 15:24:18.728,-0.809073,2.50887,7.58465,0.318175,0.0500131,-0.317335,0
2024-12-13 15:24:18.728,-0.809073,2.50887,7.58465,0.318175,0.0500131,-0.317335,0
2024-12-13 15:24:18.728,-0.809073,2.50887,7.58465,0.318175,0.0500131,-0.317335,0
2024-12-13 15:24:18.728,-0.809073,2.50887,7.58465,0.318175,0.0500131,-0.317335,0
2024-12-13 15:24:18.728,-0.809073,2.50887,7.58465,0.318175,0.0500131,-0.317335,0
2024-12-13 15:24:18.728,-0.809073,2.50887,7.58465,0.318175,0.0500131,-0.317335,0
2024-12-13 15:24:18.730,-0.811466,2.52832,7.46232,0.326116,0.0640626,-0.310616,0
2024-12-13 15:24:18.730,-0.811466,2.52832,7.46232,0.326116,0.0640626,-0.310616,0
2024-12-13 15:24:18.730,-0.811466,2.52832,7.46232,0.326116,0.0640626,-0.310616,0
2024-12-13 15:24:18.730,-0.811466,2.52832,7.46232,0.326116,0.0640626,-0.310616,0
2024-12-13 15:24:18.733,-0.825823,2.53549,7.34746,0.332835,0.0775012,-0.308172,0
2024-12-13 15:24:18.733,-0.825823,2.53549,7.34746,0.332835,0.0775012,-0.308172,0
2024-12-13 15:24:18.733,-0.825823,2.53549,7.34746,0.332835,0.0775012,-0.308172,0
2024-12-13 15:24:18.733,-0.825823,2.53549,7.34746,0.332835,0.0775012,-0.308172,0
2024-12-13 15:24:18.733,-0.825823,2.53549,7.34746,0.332835,0.0775012,-0.308172,0
2024-12-13 15:24:18.733,-0.825823,2.53549,7.34746,0.332835,0.0775012,-0.308172,0
2024-12-13 15:24:18.735,-0.845265,2.52592,7.25893,0.341998,0.0927724,-0.302064,0
2024-12-13 15:24:18.735,-0.845265,2.52592,7.25893,0.341998,0.0927724,-0.302064,0
2024-12-13 15:24:18.735,-0.845265,2.52592,7.25893,0.341998,0.0927724,-0.302064,0
2024-12-13 15:24:18.735,-0.845265,2.52592,7.25893,0.341998,0.0927724,-0.302064,0
2024-12-13 15:24:18.735,-0.845265,2.52592,7.25893,0.341998,0.0927724,-0.302064,0
2024-12-13 15:24:18.735,-0.845265,2.52592,7.25893,0.341998,0.0927724,-0.302064,0
2024-12-13 15:24:18.738,-0.864407,2.50648,7.16082,0.349328,0.1056,-0.296566,0
2024-12-13 15:24:18.738,-0.864407,2.50648,7.16082,0.349328,0.1056,-0.296566,0
2024-12-13 15:24:18.738,-0.864407,2.50648,7.16082,0.349328,0.1056,-0.296566,0
2024-12-13 15:24:18.738,-0.864407,2.50648,7.16082,0.349328,0.1056,-0.296566,0
2024-12-13 15:24:18.738,-0.864407,2.50648,7.16082,0.349328,0.1056,-0.296566,0
2024-12-13 15:24:18.738,-0.864407,2.50648,7.16082,0.349328,0.1056,-0.296566,0
2024-12-13 15:24:18.740,-0.881157,2.4993,7.05554,0.355437,0.120261,-0.294123,0
2024-12-13 15:24:18.740,-0.881157,2.4993,7.05554,0.355437,0.120261,-0.294123,0
2024-12-13 15:24:18.740,-0.881157,2.4993,7.05554,0.355437,0.120261,-0.294123,0
2024-12-13 15:24:18.740,-0.881157,2.4993,7.05554,0.355437,0.120261,-0.294123,0
2024-12-13 15:24:18.742,-0.909871,2.5017,6.96431,0.363378,0.136143,-0.289847,0
2024-12-13 15:24:18.742,-0.909871,2.5017,6.96431,0.363378,0.136143,-0.289847,0
2024-12-13 15:24:18.742,-0.909871,2.5017,6.96431,0.363378,0.136143,-0.289847,0
2024-12-13 15:24:18.742,-0.909871,2.5017,6.96431,0.363378,0.136143,-0.289847,0
2024-12-13 15:24:18.742,-0.909871,2.5017,6.96431,0.363378,0.136143,-0.289847,0
2024-12-13 15:24:18.742,-0.909871,2.5017,6.96431,0.363378,0.136143,-0.289847,0
2024-12-13 15:24:18.745,-0.945763,2.5017,6.88295,0.372006,0.152635,-0.285571,0
2024-12-13 15:24:18.745,-0.945763,2.5017,6.88295,0.372006,0.152635,-0.285571,0
2024-12-13 15:24:18.745,-0.945763,2.5017,6.88295,0.372006,0.152635,-0.285571,0
2024-12-13 15:24:18.745,-0.945763,2.5017,6.88295,0.372006,0.152635,-0.285571,0
2024-12-13 15:24:18.745,-0.945763,2.5017,6.88295,0.372006,0.152635,-0.285571,0
2024-12-13 15:24:18.745,-0.945763,2.5017,6.88295,0.372006,0.152635,-0.285571,0
2024-12-13 15:24:18.747,-0.955334,2.4993,6.78006,0.376282,0.167296,-0.283739,0
2024-12-13 15:24:18.747,-0.955334,2.4993,6.78006,0.376282,0.167296,-0.283739,0
2024-12-13 15:24:18.747,-0.955334,2.4993,6.78006,0.376282,0.167296,-0.283739,0
2024-12-13 15:24:18.747,-0.955334,2.4993,6.78006,0.376282,0.167296,-0.283739,0
2024-12-13 15:24:18.747,-0.955334,2.4993,6.78006,0.376282,0.167296,-0.283739,0
2024-12-13 15:24:18.747,-0.955334,2.4993,6.78006,0.376282,0.167296,-0.283739,0
2024-12-13 15:24:18.749,-0.962513,2.50887,6.64606,0.383001,0.183789,-0.278852,0
2024-12-13 15:24:18.749,-0.962513,2.50887,6.64606,0.383001,0.183789,-0.278852,0
2024-12-13 15:24:18.749,-0.962513,2.50887,6.64606,0.383001,0.183789,-0.278852,0
2024-12-13 15:24:18.749,-0.962513,2.50887,6.64606,0.383001,0.183789,-0.278852,0
2024-12-13 15:24:18.752,-0.991227,2.52323,6.5025,0.387888,0.198449,-0.275187,0
2024-12-13 15:24:18.752,-0.991227,2.52323,6.5025,0.387888,0.198449,-0.275187,0
2024-12-13 15:24:18.752,-0.991227,2.52323,6.5025,0.387888,0.198449,-0.275187,0
2024-12-13 15:24:18.752,-0.991227,2.52323,6.5025,0.387888,0.198449,-0.275187,0
2024-12-13 15:24:18.752,-0.991227,2.52323,6.5025,0.387888,0.198449,-0.275187,0
2024-12-13 15:24:18.754,-1.0319,2.52323,6.34427,0.387888,0.213109,-0.270911,0
2024-12-13 15:24:18.754,-1.0319,2.52323,6.34427,0.387888,0.213109,-0.270911,0
2024-12-13 15:24:18.754,-1.0319,2.52323,6.34427,0.387888,0.213109,-0.270911,0
2024-12-13 15:24:18.754,-1.0319,2.52323,6.34427,0.387888,0.213109,-0.270911,0
2024-12-13 15:24:18.756,-1.07737,2.53071,6.18395,0.388499,0.222272,-0.267246,0
2024-12-13 15:24:18.756,-1.07737,2.53071,6.18395,0.388499,0.222272,-0.267246,0
2024-12-13 15:24:18.756,-1.07737,2.53071,6.18395,0.388499,0.222272,-0.267246,0
2024-12-13 15:24:18.756,-1.07737,2.53071,6.18395,0.388499,0.222272,-0.267246,0
2024-12-13 15:24:18.756,-1.07737,2.53071,6.18395,0.388499,0.222272,-0.267246,0
2024-12-13 15:24:18.756,-1.07737,2.53071,6.18395,0.388499,0.222272,-0.267246,0
2024-12-13 15:24:18.759,-1.11805,2.54985,6.0332,0.387277,0.22777,-0.261748,0
2024-12-13 15:24:18.759,-1.11805,2.54985,6.0332,0.387277,0.22777,-0.261748,0
2024-12-13 15:24:18.759,-1.11805,2.54985,6.0332,0.387277,0.22777,-0.261748,0
2024-12-13 15:24:18.761,-1.15155,2.54985,5.88455,0.381169,0.224105,-0.258083,0
2024-12-13 15:24:18.761,-1.15155,2.54985,5.88455,0.381169,0.224105,-0.258083,0
2024-12-13 15:24:18.761,-1.15155,2.54985,5.88455,0.381169,0.224105,-0.258083,0
2024-12-13 15:24:18.761,-1.15155,2.54985,5.88455,0.381169,0.224105,-0.258083,0
2024-12-13 15:24:18.761,-1.15155,2.54985,5.88455,0.381169,0.224105,-0.258083,0
2024-12-13 15:24:18.761,-1.15155,2.54985,5.88455,0.381169,0.224105,-0.258083,0
2024-12-13 15:24:18.763,-1.17308,2.54746,5.73859,0.368341,0.214331,-0.255029,0
2024-12-13 15:24:18.763,-1.17308,2.54746,5.73859,0.368341,0.214331,-0.255029,0
2024-12-13 15:24:18.766,-1.17308,2.54746,5.73859,0.356658,0.202114,-0.249531,0
2024-12-13 15:24:18.766,-1.18026,2.53789,5.59262,0.356658,0.202114,-0.249531,0
2024-12-13 15:24:18.766,-1.18026,2.53789,5.59262,0.356658,0.202114,-0.249531,0
2024-12-13 15:24:18.766,-1.18026,2.53789,5.59262,0.356658,0.202114,-0.249531,0
2024-12-13 15:24:18.766,-1.18026,2.53789,5.59262,0.356658,0.202114,-0.249531,0
2024-12-13 15:24:18.766,-1.18026,2.53789,5.59262,0.356658,0.202114,-0.249531,0
2024-12-13 15:24:18.768,-1.19462,2.52323,5.45145,0.341998,0.186232,-0.248309,0
2024-12-13 15:24:18.768,-1.19462,2.52323,5.45145,0.341998,0.186232,-0.248309,0
2024-12-13 15:24:18.768,-1.19462,2.52323,5.45145,0.341998,0.186232,-0.248309,0
2024-12-13 15:24:18.768,-1.19462,2.52323,5.45145,0.341998,0.186232,-0.248309,0
2024-12-13 15:24:18.771,-1.21137,2.52084,5.32433,0.320008,0.163631,-0.244644,0
2024-12-13 15:24:18.771,-1.21137,2.52084,5.32433,0.320008,0.163631,-0.244644,0
2024-12-13 15:24:18.771,-1.21137,2.52084,5.32433,0.320008,0.163631,-0.244644,0
2024-12-13 15:24:18.771,-1.21137,2.52084,5.32433,0.320008,0.163631,-0.244644,0
2024-12-13 15:24:18.771,-1.21137,2.52084,5.32433,0.320008,0.163631,-0.244644,0
2024-12-13 15:24:18.772,-1.21137,2.52084,5.32433,0.299239,0.139808,-0.242201,0
2024-12-13 15:24:18.773,-1.22333,2.52832,5.24058,0.299239,0.139808,-0.242201,0
2024-12-13 15:24:18.773,-1.22333,2.52832,5.24058,0.299239,0.139808,-0.242201,0
2024-12-13 15:24:18.773,-1.22333,2.52832,5.24058,0.299239,0.139808,-0.242201,0
2024-12-13 15:24:18.773,-1.22333,2.52832,5.24058,0.299239,0.139808,-0.242201,0
2024-12-13 15:24:18.775,-1.24726,2.53789,5.17119,0.277859,0.118428,-0.240979,0
2024-12-13 15:24:18.775,-1.24726,2.53789,5.17119,0.277859,0.118428,-0.240979,0
2024-12-13 15:24:18.775,-1.24726,2.53789,5.17119,0.277859,0.118428,-0.240979,0
2024-12-13 15:24:18.775,-1.24726,2.53789,5.17119,0.277859,0.118428,-0.240979,0
2024-12-13 15:24:18.775,-1.24726,2.53789,5.17119,0.277859,0.118428,-0.240979,0
2024-12-13 15:24:18.775,-1.24726,2.53789,5.17119,0.277859,0.118428,-0.240979,0
2024-12-13 15:24:18.778,-1.27597,2.53549,5.12094,0.250982,0.0909399,-0.23426,0
2024-12-13 15:24:18.778,-1.27597,2.53549,5.12094,0.250982,0.0909399,-0.23426,0
2024-12-13 15:24:18.778,-1.27597,2.53549,5.12094,0.250982,0.0909399,-0.23426,0
2024-12-13 15:24:18.778,-1.27597,2.53549,5.12094,0.250982,0.0909399,-0.23426,0
2024-12-13 15:24:18.778,-1.27597,2.53549,5.12094,0.250982,0.0909399,-0.23426,0
2024-12-13 15:24:18.780,-1.30229,2.54267,5.1018,0.225937,0.0634518,-0.230595,0
2024-12-13 15:24:18.780,-1.30229,2.54267,5.1018,0.225937,0.0634518,-0.230595,0
2024-12-13 15:24:18.780,-1.30229,2.54267,5.1018,0.225937,0.0634518,-0.230595,0
2024-12-13 15:24:18.780,-1.30229,2.54267,5.1018,0.225937,0.0634518,-0.230595,0
2024-12-13 15:24:18.780,-1.30229,2.54267,5.1018,0.225937,0.0634518,-0.230595,0
2024-12-13 15:24:18.780,-1.30229,2.54267,5.1018,0.225937,0.0634518,-0.230595,0
2024-12-13 15:24:18.780,-1.30229,2.54267,5.1018,0.225937,0.0634518,-0.230595,0
2024-12-13 15:24:18.782,-1.33819,2.57378,5.0994,0.201503,0.0377962,-0.225708,0
2024-12-13 15:24:18.782,-1.33819,2.57378,5.0994,0.201503,0.0377962,-0.225708,0
2024-12-13 15:24:18.782,-1.33819,2.57378,5.0994,0.201503,0.0377962,-0.225708,0
2024-12-13 15:24:18.782,-1.33819,2.57378,5.0994,0.201503,0.0377962,-0.225708,0
2024-12-13 15:24:18.782,-1.33819,2.57378,5.0994,0.201503,0.0377962,-0.225708,0
2024-12-13 15:24:18.785,-1.37647,2.58814,5.11615,0.173404,0.00603212,-0.220821,0
2024-12-13 15:24:18.785,-1.37647,2.58814,5.11615,0.173404,0.00603212,-0.220821,0
2024-12-13 15:24:18.785,-1.37647,2.58814,5.11615,0.173404,0.00603212,-0.220821,0
2024-12-13 15:24:18.785,-1.37647,2.58814,5.11615,0.173404,0.00603212,-0.220821,0
2024-12-13 15:24:18.785,-1.37647,2.58814,5.11615,0.173404,0.00603212,-0.220821,0
2024-12-13 15:24:18.785,-1.37647,2.58814,5.11615,0.173404,0.00603212,-0.220821,0
2024-12-13 15:24:18.787,-1.40548,2.59292,5.1688,0.147749,-0.0257319,-0.216545,0
2024-12-13 15:24:18.787,-1.40548,2.59292,5.1688,0.147749,-0.0257319,-0.216545,0
2024-12-13 15:24:18.787,-1.40548,2.59292,5.1688,0.147749,-0.0257319,-0.216545,0
2024-12-13 15:24:18.787,-1.40548,2.59292,5.1688,0.147749,-0.0257319,-0.216545,0
2024-12-13 15:24:18.787,-1.40548,2.59292,5.1688,0.147749,-0.0257319,-0.216545,0
2024-12-13 15:24:18.789,-1.41984,2.60967,5.24058,0.122704,-0.0550526,-0.209826,0
2024-12-13 15:24:18.789,-1.41984,2.60967,5.24058,0.122704,-0.0550526,-0.209826,0
2024-12-13 15:24:18.789,-1.41984,2.60967,5.24058,0.122704,-0.0550526,-0.209826,0
2024-12-13 15:24:18.789,-1.41984,2.60967,5.24058,0.122704,-0.0550526,-0.209826,0
2024-12-13 15:24:18.789,-1.41984,2.60967,5.24058,0.122704,-0.0550526,-0.209826,0
2024-12-13 15:24:18.789,-1.41984,2.60967,5.24058,0.122704,-0.0550526,-0.209826,0
2024-12-13 15:24:18.789,-1.41984,2.60967,5.24058,0.122704,-0.0550526,-0.209826,0
2024-12-13 15:24:18.792,-1.42223,2.62642,5.32911,0.0976592,-0.0886492,-0.203718,0
2024-12-13 15:24:18.792,-1.42223,2.62642,5.32911,0.0976592,-0.0886492,-0.203718,0
2024-12-13 15:24:18.792,-1.42223,2.62642,5.32911,0.0976592,-0.0886492,-0.203718,0
2024-12-13 15:24:18.792,-1.42223,2.62642,5.32911,0.0976592,-0.0886492,-0.203718,0
2024-12-13 15:24:18.792,-1.42223,2.62642,5.32911,0.0976592,-0.0886492,-0.203718,0
2024-12-13 15:24:18.794,-1.40788,2.64796,5.4347,0.0732253,-0.120413,-0.19822,0
2024-12-13 15:24:18.794,-1.40788,2.64796,5.4347,0.0732253,-0.120413,-0.19822,0
2024-12-13 15:24:18.794,-1.40788,2.64796,5.4347,0.0732253,-0.120413,-0.19822,0
2024-12-13 15:24:18.794,-1.40788,2.64796,5.4347,0.0732253,-0.120413,-0.19822,0
2024-12-13 15:24:18.794,-1.40788,2.64796,5.4347,0.0732253,-0.120413,-0.19822,0
2024-12-13 15:24:18.794,-1.40788,2.64796,5.4347,0.0732253,-0.120413,-0.19822,0
2024-12-13 15:24:18.796,-1.38126,2.64796,5.54955,0.0494023,-0.152788,-0.192111,0
2024-12-13 15:24:18.796,-1.38126,2.64796,5.54955,0.0494023,-0.152788,-0.192111,0
2024-12-13 15:24:18.796,-1.38126,2.64796,5.54955,0.0494023,-0.152788,-0.192111,0
2024-12-13 15:24:18.796,-1.38126,2.64796,5.54955,0.0494023,-0.152788,-0.192111,0
2024-12-13 15:24:18.796,-1.38126,2.64796,5.54955,0.0494023,-0.152788,-0.192111,0
2024-12-13 15:24:18.796,-1.38126,2.64796,5.54955,0.0494023,-0.152788,-0.192111,0
2024-12-13 15:24:18.799,-1.37169,2.64317,5.70269,0.0298552,-0.180887,-0.186003,0
2024-12-13 15:24:18.799,-1.37169,2.64317,5.70269,0.0298552,-0.180887,-0.186003,0
2024-12-13 15:24:18.799,-1.37169,2.64317,5.70269,0.0298552,-0.180887,-0.186003,0
2024-12-13 15:24:18.799,-1.37169,2.64317,5.70269,0.0298552,-0.180887,-0.186003,0
2024-12-13 15:24:18.799,-1.37169,2.64317,5.70269,0.0298552,-0.180887,-0.186003,0
2024-12-13 15:24:18.799,-1.37169,2.64317,5.70269,0.0298552,-0.180887,-0.186003,0
2024-12-13 15:24:18.801,-1.35494,2.65992,5.87737,0.0096972,-0.206543,-0.181727,0
2024-12-13 15:24:18.801,-1.35494,2.65992,5.87737,0.0096972,-0.206543,-0.181727,0
2024-12-13 15:24:18.801,-1.35494,2.65992,5.87737,0.0096972,-0.206543,-0.181727,0
2024-12-13 15:24:18.801,-1.35494,2.65992,5.87737,0.0096972,-0.206543,-0.181727,0
2024-12-13 15:24:18.801,-1.35494,2.65992,5.87737,0.0096972,-0.206543,-0.181727,0
2024-12-13 15:24:18.803,-1.33579,2.68864,6.0332,-0.00923906,-0.229144,-0.176229,0
2024-12-13 15:24:18.803,-1.33579,2.68864,6.0332,-0.00923906,-0.229144,-0.176229,0
2024-12-13 15:24:18.803,-1.33579,2.68864,6.0332,-0.00923906,-0.229144,-0.176229,0
2024-12-13 15:24:18.803,-1.33579,2.68864,6.0332,-0.00923906,-0.229144,-0.176229,0
2024-12-13 15:24:18.803,-1.33579,2.68864,6.0332,-0.00923906,-0.229144,-0.176229,0
2024-12-13 15:24:18.803,-1.33579,2.68864,6.0332,-0.00923906,-0.229144,-0.176229,0
2024-12-13 15:24:18.803,-1.33579,2.68864,6.0332,-0.00923906,-0.229144,-0.176229,0
2024-12-13 15:24:18.803,-1.33579,2.68864,6.0332,-0.00923906,-0.229144,-0.176229,0
2024-12-13 15:24:18.806,-1.32861,2.70778,6.20788,-0.0238994,-0.243804,-0.16951,0
2024-12-13 15:24:18.806,-1.32861,2.70778,6.20788,-0.0238994,-0.243804,-0.16951,0
2024-12-13 15:24:18.806,-1.32861,2.70778,6.20788,-0.0238994,-0.243804,-0.16951,0
2024-12-13 15:24:18.808,-1.31186,2.7341,6.40888,-0.0367272,-0.257243,-0.160958,0
2024-12-13 15:24:18.808,-1.31186,2.7341,6.40888,-0.0367272,-0.257243,-0.160958,0
2024-12-13 15:24:18.808,-1.31186,2.7341,6.40888,-0.0367272,-0.257243,-0.160958,0
2024-12-13 15:24:18.808,-1.31186,2.7341,6.40888,-0.0367272,-0.257243,-0.160958,0
2024-12-13 15:24:18.808,-1.31186,2.7341,6.40888,-0.0367272,-0.257243,-0.160958,0
2024-12-13 15:24:18.808,-1.31186,2.7341,6.40888,-0.0367272,-0.257243,-0.160958,0
2024-12-13 15:24:18.811,-1.30469,2.76999,6.58864,-0.0428357,-0.267627,-0.155461,0
2024-12-13 15:24:18.811,-1.30469,2.76999,6.58864,-0.0428357,-0.267627,-0.155461,0
2024-12-13 15:24:18.811,-1.30469,2.76999,6.58864,-0.0428357,-0.267627,-0.155461,0
2024-12-13 15:24:18.811,-1.30469,2.76999,6.58864,-0.0428357,-0.267627,-0.155461,0
2024-12-13 15:24:18.811,-1.30469,2.76999,6.58864,-0.0428357,-0.267627,-0.155461,0
2024-12-13 15:24:18.811,-1.30469,2.76999,6.58864,-0.0428357,-0.267627,-0.155461,0
2024-12-13 15:24:18.813,-1.28794,2.78196,6.76092,-0.0544418,-0.271903,-0.14752,0
2024-12-13 15:24:18.813,-1.28794,2.78196,6.76092,-0.0544418,-0.271903,-0.14752,0
2024-12-13 15:24:18.813,-1.28794,2.78196,6.76092,-0.0544418,-0.271903,-0.14752,0
2024-12-13 15:24:18.813,-1.28794,2.78196,6.76092,-0.0544418,-0.271903,-0.14752,0
2024-12-13 15:24:18.813,-1.28794,2.78196,6.76092,-0.0544418,-0.271903,-0.14752,0
2024-12-13 15:24:18.813,-1.28794,2.78196,6.76092,-0.0544418,-0.271903,-0.14752,0
2024-12-13 15:24:18.815,-1.25444,2.78913,6.92124,-0.0593285,-0.274347,-0.1408,0
2024-12-13 15:24:18.815,-1.25444,2.78913,6.92124,-0.0593285,-0.274347,-0.1408,0
2024-12-13 15:24:18.815,-1.25444,2.78913,6.92124,-0.0593285,-0.274347,-0.1408,0
2024-12-13 15:24:18.818,-1.23051,2.80349,7.06032,-0.0660479,-0.278623,-0.134081,0
2024-12-13 15:24:18.818,-1.23051,2.80349,7.06032,-0.0660479,-0.278623,-0.134081,0
2024-12-13 15:24:18.818,-1.23051,2.80349,7.06032,-0.0660479,-0.278623,-0.134081,0
2024-12-13 15:24:18.818,-1.23051,2.80349,7.06032,-0.0660479,-0.278623,-0.134081,0
2024-12-13 15:24:18.818,-1.23051,2.80349,7.06032,-0.0660479,-0.278623,-0.134081,0
2024-12-13 15:24:18.818,-1.23051,2.80349,7.06032,-0.0660479,-0.278623,-0.134081,0
2024-12-13 15:24:18.818,-1.23051,2.80349,7.06032,-0.0660479,-0.278623,-0.134081,0
2024-12-13 15:24:18.820,-1.21137,2.80588,7.17518,-0.0691021,-0.282899,-0.124918,0
2024-12-13 15:24:18.820,-1.21137,2.80588,7.17518,-0.0691021,-0.282899,-0.124918,0
2024-12-13 15:24:18.820,-1.21137,2.80588,7.17518,-0.0691021,-0.282899,-0.124918,0
2024-12-13 15:24:18.820,-1.21137,2.80588,7.17518,-0.0691021,-0.282899,-0.124918,0
2024-12-13 15:24:18.820,-1.21137,2.80588,7.17518,-0.0691021,-0.282899,-0.124918,0
2024-12-13 15:24:18.822,-1.1683,2.77717,7.25893,-0.0745997,-0.287175,-0.115756,0
2024-12-13 15:24:18.822,-1.1683,2.77717,7.25893,-0.0745997,-0.287175,-0.115756,0
2024-12-13 15:24:18.822,-1.1683,2.77717,7.25893,-0.0745997,-0.287175,-0.115756,0
2024-12-13 15:24:18.822,-1.1683,2.77717,7.25893,-0.0745997,-0.287175,-0.115756,0
2024-12-13 15:24:18.822,-1.1683,2.77717,7.25893,-0.0745997,-0.287175,-0.115756,0
2024-12-13 15:24:18.822,-1.1683,2.77717,7.25893,-0.0745997,-0.287175,-0.115756,0
2024-12-13 15:24:18.823,-1.1683,2.77717,7.25893,-0.0745997,-0.287175,-0.115756,0
2024-12-13 15:24:18.825,-1.12283,2.75563,7.31635,-0.0794865,-0.290229,-0.112701,0
2024-12-13 15:24:18.825,-1.12283,2.75563,7.31635,-0.0794865,-0.290229,-0.112701,0
2024-12-13 15:24:18.825,-1.12283,2.75563,7.31635,-0.0794865,-0.290229,-0.112701,0
2024-12-13 15:24:18.825,-1.12283,2.75563,7.31635,-0.0794865,-0.290229,-0.112701,0
2024-12-13 15:24:18.827,-1.09412,2.74367,7.37617,-0.0868167,-0.295726,-0.105982,0
2024-12-13 15:24:18.827,-1.09412,2.74367,7.37617,-0.0868167,-0.295726,-0.105982,0
2024-12-13 15:24:18.827,-1.09412,2.74367,7.37617,-0.0868167,-0.295726,-0.105982,0
2024-12-13 15:24:18.827,-1.09412,2.74367,7.37617,-0.0868167,-0.295726,-0.105982,0
2024-12-13 15:24:18.827,-1.09412,2.74367,7.37617,-0.0868167,-0.295726,-0.105982,0
2024-12-13 15:24:18.827,-1.09412,2.74367,7.37617,-0.0868167,-0.295726,-0.105982,0
2024-12-13 15:24:18.827,-1.09412,2.74367,7.37617,-0.0868167,-0.295726,-0.105982,0
2024-12-13 15:24:18.828,-1.09412,2.74367,7.37617,-0.0959794,-0.300613,-0.101706,0
2024-12-13 15:24:18.829,-1.07258,2.73888,7.47667,-0.0959794,-0.300613,-0.101706,0
2024-12-13 15:24:18.829,-1.07258,2.73888,7.47667,-0.0959794,-0.300613,-0.101706,0
2024-12-13 15:24:18.829,-1.07258,2.73888,7.47667,-0.0959794,-0.300613,-0.101706,0
2024-12-13 15:24:18.829,-1.07258,2.73888,7.47667,-0.0959794,-0.300613,-0.101706,0
2024-12-13 15:24:18.829,-1.07258,2.73888,7.47667,-0.0959794,-0.300613,-0.101706,0
2024-12-13 15:24:18.832,-1.04865,2.74128,7.60858,-0.104531,-0.309165,-0.0949868,0
2024-12-13 15:24:18.832,-1.04865,2.74128,7.60858,-0.104531,-0.309165,-0.0949868,0
2024-12-13 15:24:18.832,-1.04865,2.74128,7.60858,-0.104531,-0.309165,-0.0949868,0
2024-12-13 15:24:18.832,-1.04865,2.74128,7.60858,-0.104531,-0.309165,-0.0949868,0
2024-12-13 15:24:18.832,-1.04865,2.74128,7.60858,-0.104531,-0.309165,-0.0949868,0
2024-12-13 15:24:18.832,-1.04865,2.74128,7.60858,-0.104531,-0.309165,-0.0949868,0
2024-12-13 15:24:18.834,-1.01515,2.74846,7.74497,-0.114305,-0.316495,-0.0901,0
2024-12-13 15:24:18.834,-1.01515,2.74846,7.74497,-0.114305,-0.316495,-0.0901,0
2024-12-13 15:24:18.834,-1.01515,2.74846,7.74497,-0.114305,-0.316495,-0.0901,0
2024-12-13 15:24:18.834,-1.01515,2.74846,7.74497,-0.114305,-0.316495,-0.0901,0
2024-12-13 15:24:18.834,-1.01515,2.74846,7.74497,-0.114305,-0.316495,-0.0901,0
2024-12-13 15:24:18.836,-1.01515,2.74846,7.74497,-0.124689,-0.32688,-0.0846023,0
2024-12-13 15:24:18.836,-0.974477,2.76042,7.89093,-0.124689,-0.32688,-0.0846023,0
2024-12-13 15:24:18.836,-0.974477,2.76042,7.89093,-0.124689,-0.32688,-0.0846023,0
2024-12-13 15:24:18.836,-0.974477,2.76042,7.89093,-0.124689,-0.32688,-0.0846023,0
2024-12-13 15:24:18.836,-0.974477,2.76042,7.89093,-0.124689,-0.32688,-0.0846023,0
2024-12-13 15:24:18.836,-0.974477,2.76042,7.89093,-0.124689,-0.32688,-0.0846023,0
2024-12-13 15:24:18.839,-0.940978,2.75803,8.04886,-0.133241,-0.332988,-0.077883,0
2024-12-13 15:24:18.839,-0.940978,2.75803,8.04886,-0.133241,-0.332988,-0.077883,0
2024-12-13 15:24:18.839,-0.940978,2.75803,8.04886,-0.133241,-0.332988,-0.077883,0
2024-12-13 15:24:18.839,-0.940978,2.75803,8.04886,-0.133241,-0.332988,-0.077883,0
2024-12-13 15:24:18.839,-0.940978,2.75803,8.04886,-0.133241,-0.332988,-0.077883,0
2024-12-13 15:24:18.841,-0.914656,2.77478,8.20948,-0.138739,-0.339097,-0.0742179,0
2024-12-13 15:24:18.841,-0.914656,2.77478,8.20948,-0.138739,-0.339097,-0.0742179,0
2024-12-13 15:24:18.841,-0.914656,2.77478,8.20948,-0.138739,-0.339097,-0.0742179,0
2024-12-13 15:24:18.841,-0.914656,2.77478,8.20948,-0.138739,-0.339097,-0.0742179,0
2024-12-13 15:24:18.841,-0.914656,2.77478,8.20948,-0.138739,-0.339097,-0.0742179,0
2024-12-13 15:24:18.841,-0.914656,2.77478,8.20948,-0.138739,-0.339097,-0.0742179,0
2024-12-13 15:24:18.844,-0.9003,2.79871,8.39851,-0.144236,-0.342151,-0.0674986,0
2024-12-13 15:24:18.844,-0.9003,2.79871,8.39851,-0.144236,-0.342151,-0.0674986,0
2024-12-13 15:24:18.844,-0.9003,2.79871,8.39851,-0.144236,-0.342151,-0.0674986,0
2024-12-13 15:24:18.844,-0.9003,2.79871,8.39851,-0.144236,-0.342151,-0.0674986,0
2024-12-13 15:24:18.844,-0.9003,2.79871,8.39851,-0.144236,-0.342151,-0.0674986,0
2024-12-13 15:24:18.844,-0.9003,2.79871,8.39851,-0.144236,-0.342151,-0.0674986,0
2024-12-13 15:24:18.846,-0.895514,2.81306,8.6019,-0.151566,-0.345816,-0.0613902,0
2024-12-13 15:24:18.846,-0.895514,2.81306,8.6019,-0.151566,-0.345816,-0.0613902,0
2024-12-13 15:24:18.846,-0.895514,2.81306,8.6019,-0.151566,-0.345816,-0.0613902,0
2024-12-13 15:24:18.846,-0.895514,2.81306,8.6019,-0.151566,-0.345816,-0.0613902,0
2024-12-13 15:24:18.846,-0.895514,2.81306,8.6019,-0.151566,-0.345816,-0.0613902,0
2024-12-13 15:24:18.848,-0.895514,2.82263,8.80798,-0.152177,-0.348259,-0.0571142,0
2024-12-13 15:24:18.848,-0.895514,2.82263,8.80798,-0.152177,-0.348259,-0.0571142,0
2024-12-13 15:24:18.848,-0.895514,2.82263,8.80798,-0.152177,-0.348259,-0.0571142,0
2024-12-13 15:24:18.848,-0.895514,2.82263,8.80798,-0.152177,-0.348259,-0.0571142,0
2024-12-13 15:24:18.848,-0.895514,2.82263,8.80798,-0.152177,-0.348259,-0.0571142,0
2024-12-13 15:24:18.851,-0.869193,2.8322,9.03051,-0.150345,-0.351314,-0.0510057,0
2024-12-13 15:24:18.851,-0.869193,2.8322,9.03051,-0.150345,-0.351314,-0.0510057,0
2024-12-13 15:24:18.851,-0.869193,2.8322,9.03051,-0.150345,-0.351314,-0.0510057,0
2024-12-13 15:24:18.851,-0.869193,2.8322,9.03051,-0.150345,-0.351314,-0.0510057,0
2024-12-13 15:24:18.851,-0.869193,2.8322,9.03051,-0.150345,-0.351314,-0.0510057,0
2024-12-13 15:24:18.851,-0.869193,2.8322,9.03051,-0.150345,-0.351314,-0.0510057,0
2024-12-13 15:24:18.853,-0.869193,2.85135,9.27009,-0.14668,-0.351924,-0.0424539,0
2024-12-13 15:24:18.853,-0.837787,2.85135,9.27009,-0.14668,-0.351924,-0.0424539,0
2024-12-13 15:24:18.853,-0.837787,2.85135,9.27009,-0.14668,-0.351924,-0.0424539,0
2024-12-13 15:24:18.853,-0.837787,2.85135,9.27009,-0.14668,-0.351924,-0.0424539,0
2024-12-13 15:24:18.853,-0.837787,2.85135,9.27009,-0.14668,-0.351924,-0.0424539,0
2024-12-13 15:24:18.855,-0.84018,2.88245,9.51655,-0.13935,-0.351924,-0.0351237,0
2024-12-13 15:24:18.855,-0.84018,2.88245,9.51655,-0.13935,-0.351924,-0.0351237,0
2024-12-13 15:24:18.855,-0.84018,2.88245,9.51655,-0.13935,-0.351924,-0.0351237,0
2024-12-13 15:24:18.855,-0.84018,2.88245,9.51655,-0.13935,-0.351924,-0.0351237,0
2024-12-13 15:24:18.855,-0.84018,2.88245,9.51655,-0.13935,-0.351924,-0.0351237,0
2024-12-13 15:24:18.858,-0.818644,2.92313,9.75823,-0.127743,-0.351314,-0.0290152,0
2024-12-13 15:24:18.858,-0.818644,2.92313,9.75823,-0.127743,-0.351314,-0.0290152,0
2024-12-13 15:24:18.858,-0.818644,2.92313,9.75823,-0.127743,-0.351314,-0.0290152,0
2024-12-13 15:24:18.858,-0.818644,2.92313,9.75823,-0.127743,-0.351314,-0.0290152,0
2024-12-13 15:24:18.858,-0.818644,2.92313,9.75823,-0.127743,-0.351314,-0.0290152,0
2024-12-13 15:24:18.860,-0.782752,2.96381,9.99063,-0.114305,-0.350703,-0.0216851,0
2024-12-13 15:24:18.860,-0.782752,2.96381,9.99063,-0.114305,-0.350703,-0.0216851,0
2024-12-13 15:24:18.860,-0.782752,2.96381,9.99063,-0.114305,-0.350703,-0.0216851,0
2024-12-13 15:24:18.860,-0.782752,2.96381,9.99063,-0.114305,-0.350703,-0.0216851,0
2024-12-13 15:24:18.860,-0.782752,2.96381,9.99063,-0.114305,-0.350703,-0.0216851,0
2024-12-13 15:24:18.860,-0.782752,2.96381,9.99063,-0.114305,-0.350703,-0.0216851,0
2024-12-13 15:24:18.860,-0.782752,2.96381,9.99063,-0.114305,-0.350703,-0.0216851,0
2024-12-13 15:24:18.862,-0.76361,2.9997,10.2275,-0.0965902,-0.342762,-0.0155766,0
2024-12-13 15:24:18.862,-0.76361,2.9997,10.2275,-0.0965902,-0.342762,-0.0155766,0
2024-12-13 15:24:18.862,-0.76361,2.9997,10.2275,-0.0965902,-0.342762,-0.0155766,0
2024-12-13 15:24:18.865,-0.749253,3.0332,10.4432,-0.0745997,-0.332377,-0.010079,0
2024-12-13 15:24:18.865,-0.749253,3.0332,10.4432,-0.0745997,-0.332377,-0.010079,0
2024-12-13 15:24:18.865,-0.749253,3.0332,10.4432,-0.0745997,-0.332377,-0.010079,0
2024-12-13 15:24:18.865,-0.749253,3.0332,10.4432,-0.0745997,-0.332377,-0.010079,0
2024-12-13 15:24:18.865,-0.749253,3.0332,10.4432,-0.0745997,-0.332377,-0.010079,0
2024-12-13 15:24:18.867,-0.74686,3.07627,10.637,-0.0507767,-0.317717,-0.00458135,0
2024-12-13 15:24:18.867,-0.74686,3.07627,10.637,-0.0507767,-0.317717,-0.00458135,0
2024-12-13 15:24:18.867,-0.74686,3.07627,10.637,-0.0507767,-0.317717,-0.00458135,0
2024-12-13 15:24:18.869,-0.777966,3.14118,10.8236,-0.0251211,-0.300613,0.00213797,0
2024-12-13 15:24:18.869,-0.777966,3.14118,10.8236,-0.0251211,-0.300613,0.00213797,0
2024-12-13 15:24:18.869,-0.777966,3.14118,10.8236,-0.0251211,-0.300613,0.00213797,0
2024-12-13 15:24:18.869,-0.777966,3.14118,10.8236,-0.0251211,-0.300613,0.00213797,0
2024-12-13 15:24:18.869,-0.777966,3.14118,10.8236,-0.0251211,-0.300613,0.00213797,0
2024-12-13 15:24:18.872,-0.816252,3.21296,10.9843,0.00786466,-0.278623,0.00824644,0
2024-12-13 15:24:18.872,-0.816252,3.21296,10.9843,0.00786466,-0.278623,0.00824644,0
2024-12-13 15:24:18.872,-0.816252,3.21296,10.9843,0.00786466,-0.278623,0.00824644,0
2024-12-13 15:24:18.874,-0.871586,3.28235,11.1063,0.0371853,-0.255411,0.0167983,0
2024-12-13 15:24:18.874,-0.871586,3.28235,11.1063,0.0371853,-0.255411,0.0167983,0
2024-12-13 15:24:18.874,-0.871586,3.28235,11.1063,0.0371853,-0.255411,0.0167983,0
2024-12-13 15:24:18.874,-0.871586,3.28235,11.1063,0.0371853,-0.255411,0.0167983,0
2024-12-13 15:24:18.874,-0.871586,3.28235,11.1063,0.0371853,-0.255411,0.0167983,0
2024-12-13 15:24:18.874,-0.871586,3.28235,11.1063,0.0371853,-0.255411,0.0167983,0
2024-12-13 15:24:18.874,-0.871586,3.28235,11.1063,0.0371853,-0.255411,0.0167983,0
2024-12-13 15:24:18.877,-0.938585,3.3326,11.2068,0.0695602,-0.229755,0.0271827,0
2024-12-13 15:24:18.877,-0.938585,3.3326,11.2068,0.0695602,-0.229755,0.0271827,0
2024-12-13 15:24:18.877,-0.938585,3.3326,11.2068,0.0695602,-0.229755,0.0271827,0
2024-12-13 15:24:18.877,-0.938585,3.3326,11.2068,0.0695602,-0.229755,0.0271827,0
2024-12-13 15:24:18.877,-0.938585,3.3326,11.2068,0.0695602,-0.229755,0.0271827,0
2024-12-13 15:24:18.879,-0.998405,3.39003,11.2929,0.104989,-0.202267,0.0369563,0
2024-12-13 15:24:18.879,-0.998405,3.39003,11.2929,0.104989,-0.202267,0.0369563,0
2024-12-13 15:24:18.879,-0.998405,3.39003,11.2929,0.104989,-0.202267,0.0369563,0
2024-12-13 15:24:18.879,-0.998405,3.39003,11.2929,0.104989,-0.202267,0.0369563,0
2024-12-13 15:24:18.879,-0.998405,3.39003,11.2929,0.104989,-0.202267,0.0369563,0
2024-12-13 15:24:18.881,-1.08694,3.49053,11.348,0.139808,-0.171114,0.0516166,0
2024-12-13 15:24:18.881,-1.08694,3.49053,11.348,0.139808,-0.171114,0.0516166,0
2024-12-13 15:24:18.881,-1.08694,3.49053,11.348,0.139808,-0.171114,0.0516166,0
2024-12-13 15:24:18.881,-1.08694,3.49053,11.348,0.139808,-0.171114,0.0516166,0
2024-12-13 15:24:18.881,-1.08694,3.49053,11.348,0.139808,-0.171114,0.0516166,0
2024-12-13 15:24:18.881,-1.08694,3.49053,11.348,0.139808,-0.171114,0.0516166,0
2024-12-13 15:24:18.884,-1.18026,3.56949,11.3551,0.172793,-0.144847,0.0638335,0
2024-12-13 15:24:18.884,-1.18026,3.56949,11.3551,0.172793,-0.144847,0.0638335,0
2024-12-13 15:24:18.884,-1.18026,3.56949,11.3551,0.172793,-0.144847,0.0638335,0
2024-12-13 15:24:18.884,-1.18026,3.56949,11.3551,0.172793,-0.144847,0.0638335,0
2024-12-13 15:24:18.884,-1.18026,3.56949,11.3551,0.172793,-0.144847,0.0638335,0
2024-12-13 15:24:18.884,-1.18026,3.56949,11.3551,0.172793,-0.144847,0.0638335,0
2024-12-13 15:24:18.884,-1.18026,3.56949,11.3551,0.172793,-0.144847,0.0638335,0
2024-12-13 15:24:18.886,-1.26401,3.65115,11.3169,0.204557,-0.119802,0.0791047,0
2024-12-13 15:24:18.886,-1.26401,3.65115,11.3169,0.204557,-0.119802,0.0791047,0
2024-12-13 15:24:18.886,-1.26401,3.65115,11.3169,0.204557,-0.119802,0.0791047,0
2024-12-13 15:24:18.886,-1.26401,3.65115,11.3169,0.204557,-0.119802,0.0791047,0
2024-12-13 15:24:18.888,-1.33819,3.73729,11.2522,0.234489,-0.0978119,0.098041,0
2024-12-13 15:24:18.888,-1.33819,3.73729,11.2522,0.234489,-0.0978119,0.098041,0
2024-12-13 15:24:18.888,-1.33819,3.73729,11.2522,0.234489,-0.0978119,0.098041,0
2024-12-13 15:24:18.888,-1.33819,3.73729,11.2522,0.234489,-0.0978119,0.098041,0
2024-12-13 15:24:18.888,-1.33819,3.73729,11.2522,0.234489,-0.0978119,0.098041,0
2024-12-13 15:24:18.888,-1.33819,3.73729,11.2522,0.234489,-0.0978119,0.098041,0
2024-12-13 15:24:18.888,-1.33819,3.73729,11.2522,0.234489,-0.0978119,0.098041,0
2024-12-13 15:24:18.891,-1.41506,3.80429,11.1733,0.258923,-0.0819299,0.116977,0
2024-12-13 15:24:18.891,-1.41506,3.80429,11.1733,0.258923,-0.0819299,0.116977,0
2024-12-13 15:24:18.891,-1.41506,3.80429,11.1733,0.258923,-0.0819299,0.116977,0
2024-12-13 15:24:18.891,-1.41506,3.80429,11.1733,0.258923,-0.0819299,0.116977,0
2024-12-13 15:24:18.892,-1.41506,3.80429,11.1733,0.280913,-0.0672696,0.13599,0
2024-12-13 15:24:18.893,-1.48445,3.87129,11.0632,0.280913,-0.0672696,0.13599,0
2024-12-13 15:24:18.893,-1.48445,3.87129,11.0632,0.280913,-0.0672696,0.13599,0
2024-12-13 15:24:18.893,-1.48445,3.87129,11.0632,0.280913,-0.0672696,0.13599,0
2024-12-13 15:24:18.893,-1.48445,3.87129,11.0632,0.280913,-0.0672696,0.13599,0
2024-12-13 15:24:18.893,-1.48445,3.87129,11.0632,0.280913,-0.0672696,0.13599,0
2024-12-13 15:24:18.893,-1.48445,3.87129,11.0632,0.280913,-0.0672696,0.13599,0
2024-12-13 15:24:18.893,-1.48445,3.87129,11.0632,0.280913,-0.0672696,0.13599,0
2024-12-13 15:24:18.893,-1.48445,3.87129,11.0632,0.280913,-0.0672696,0.13599,0
2024-12-13 15:24:18.895,-1.55384,3.95982,10.9313,0.295574,-0.0556635,0.155537,0
2024-12-13 15:24:18.895,-1.55384,3.95982,10.9313,0.295574,-0.0556635,0.155537,0
2024-12-13 15:24:18.895,-1.55384,3.95982,10.9313,0.295574,-0.0556635,0.155537,0
2024-12-13 15:24:18.898,-1.55384,3.95982,10.8045,0.303515,-0.0513875,0.175084,0
2024-12-13 15:24:18.898,-1.61845,4.06511,10.8045,0.303515,-0.0513875,0.175084,0
2024-12-13 15:24:18.898,-1.61845,4.06511,10.8045,0.303515,-0.0513875,0.175084,0
2024-12-13 15:24:18.898,-1.61845,4.06511,10.8045,0.303515,-0.0513875,0.175084,0
2024-12-13 15:24:18.900,-1.67109,4.17757,10.6681,0.304736,-0.0507767,0.198907,0
2024-12-13 15:24:18.902,-1.73809,4.28315,10.5269,0.301682,-0.0519984,0.220287,0
2024-12-13 15:24:18.905,-1.77398,4.39562,10.4121,0.297406,-0.0593285,0.241666,0
2024-12-13 15:24:18.907,-1.77637,4.49133,10.3256,0.281524,-0.073378,0.264268,0
2024-12-13 15:24:18.909,-1.77159,4.56311,10.2562,0.261366,-0.0917034,0.285647,0
2024-12-13 15:24:18.912,-1.75005,4.60618,10.2012,0.239376,-0.111861,0.30886,0
2024-12-13 15:24:18.914,-1.66869,4.61336,10.1653,0.211277,-0.133241,0.329018,0
2024-12-13 15:24:18.917,-1.52991,4.61576,10.1438,0.174626,-0.160729,0.348565,0
2024-12-13 15:24:18.919,-1.38126,4.6349,10.1462,0.134921,-0.193104,0.36689,0
2024-12-13 15:24:18.921,-1.22572,4.6684,10.2084,0.0921616,-0.227312,0.379107,0
2024-12-13 15:24:18.924,-1.06062,4.71386,10.3232,0.046348,-0.265795,0.389491,0
2024-12-13 15:24:18.926,-0.881157,4.76411,10.4743,-0.00313059,-0.3055,0.3956,0
2024-12-13 15:24:18.928,-0.684646,4.79552,10.6681,-0.0507767,-0.345816,0.398043,0
2024-12-13 15:24:18.931,-0.474078,4.81227,10.8763,-0.0990336,-0.383688,0.396211,0
2024-12-13 15:24:18.933,-0.260818,4.79791,11.1087,-0.143625,-0.414231,0.392546,0
2024-12-13 15:24:18.935,-0.0502493,4.78355,11.3623,-0.186996,-0.443551,0.385216,0
2024-12-13 15:24:18.938,0.167498,4.78116,11.6234,-0.228533,-0.467375,0.376053,0
2024-12-13 15:24:18.940,0.387936,4.75454,11.8986,-0.270682,-0.486922,0.362614,0
2024-12-13 15:24:18.942,0.598505,4.71147,12.1765,-0.310387,-0.50036,0.349176,0
2024-12-13 15:24:18.945,0.816252,4.66361,12.4756,-0.346427,-0.515021,0.333904,0
2024-12-13 15:24:18.947,1.0678,4.62054,12.7702,-0.383688,-0.524794,0.31619,0
2024-12-13 15:24:18.950,1.29751,4.58465,13.0525,-0.41362,-0.522962,0.294199,0
2024-12-13 15:24:18.954,1.68544,4.52243,13.7324,-0.469207,-0.500971,0.242888,0
2024-12-13 15:24:18.954,1.68544,4.52243,13.7324,-0.469207,-0.500971,0.242888,0
2024-12-13 15:24:18.957,1.87448,4.5009,14.0653,-0.488143,-0.474094,0.216622,0
2024-12-13 15:24:18.959,2.04227,4.46261,14.3791,-0.504025,-0.436832,0.18669,0
2024-12-13 15:24:18.964,2.25763,4.38844,14.9058,-0.518686,-0.342151,0.127972,0
2024-12-13 15:24:18.965,2.25763,4.38844,14.9058,-0.518686,-0.342151,0.127972,0
2024-12-13 15:24:18.968,2.36291,4.27597,15.3652,-0.513799,-0.226701,0.0693312,0
2024-12-13 15:24:18.968,2.36291,4.27597,15.3652,-0.513799,-0.226701,0.0693312,0
2024-12-13 15:24:18.973,2.3342,4.1345,15.6526,-0.492419,-0.0910926,0.0125224,0
2024-12-13 15:24:18.975,2.3342,4.1345,15.746,-0.475316,-0.0208452,-0.00946813,1
2024-12-13 15:24:18.975,2.27916,4.07946,15.746,-0.475316,-0.0208452,-0.00946813,1
2024-12-13 15:24:18.978,2.17149,4.01007,15.7771,-0.456379,0.0512348,-0.0326803,0
2024-12-13 15:24:18.980,2.02313,3.9335,15.7436,-0.436221,0.122704,-0.0510057,0
2024-12-13 15:24:18.983,1.83859,3.87607,15.655,-0.414231,0.192951,-0.0613902,0
2024-12-13 15:24:18.985,1.62323,3.82104,15.5043,-0.39224,0.259534,-0.0705529,0
2024-12-13 15:24:18.987,1.38604,3.76122,15.2958,-0.371471,0.320618,-0.0736071,0
2024-12-13 15:24:18.992,0.952942,3.72054,14.7787,-0.335431,0.430571,-0.0638335,0
2024-12-13 15:24:18.992,0.952942,3.72054,14.7787,-0.335431,0.430571,-0.0638335,0
2024-12-13 15:24:18.997,0.54347,3.72772,14.2328,-0.314663,0.512424,-0.0412322,0
2024-12-13 15:24:18.997,0.54347,3.72772,14.2328,-0.314663,0.512424,-0.0412322,0
2024-12-13 15:24:18.999,0.308973,3.72054,13.9289,-0.307333,0.546632,-0.0253502,0
2024-12-13 15:24:19.001,0.0789631,3.74686,13.6534,-0.303057,0.574731,-0.00580305,0
2024-12-13 15:24:19.004,-0.148355,3.75883,13.4453,-0.301224,0.593056,0.0186308,0
2024-12-13 15:24:19.006,-0.332901,3.74447,13.2371,-0.302446,0.604662,0.0436756,0
2024-12-13 15:24:19.011,-0.469292,3.74925,12.8013,-0.308554,0.600997,0.0974301,0
2024-12-13 15:24:19.011,-0.598505,3.7684,12.8013,-0.308554,0.600997,0.0974301,0
2024-12-13 15:24:19.015,-0.852443,3.82343,12.4349,-0.323215,0.567401,0.154315,0
2024-12-13 15:24:19.015,-0.852443,3.82343,12.4349,-0.323215,0.567401,0.154315,0
2024-12-13 15:24:19.018,-0.945763,3.84975,12.3129,-0.331156,0.535637,0.178749,0
2024-12-13 15:24:19.020,-1.01994,3.90479,12.1741,-0.337875,0.496542,0.205626,0
2024-12-13 15:24:19.023,-1.0654,3.94786,12.0446,-0.350092,0.450729,0.230671,0
2024-12-13 15:24:19.025,-1.08933,3.98375,11.9536,-0.359255,0.395753,0.250829,0
2024-12-13 15:24:19.027,-1.10608,4.02921,11.8866,-0.372693,0.334668,0.269765,0
2024-12-13 15:24:19.030,-1.09173,4.0675,11.846,-0.38491,0.265642,0.285647,0
2024-12-13 15:24:19.032,-1.03669,4.0675,11.8149,-0.397738,0.190508,0.302751,0
2024-12-13 15:24:19.034,-0.988834,4.0675,11.8173,-0.411787,0.114152,0.314357,0
2024-12-13 15:24:19.037,-0.914656,4.07229,11.8531,-0.425226,0.0359636,0.322909,0
2024-12-13 15:24:19.039,-0.811466,4.07707,11.9249,-0.436221,-0.037338,0.327185,0
2024-12-13 15:24:19.041,-0.703789,4.06032,12.0135,-0.448438,-0.111251,0.331461,0
2024-12-13 15:24:19.044,-0.565005,4.01725,12.1238,-0.45699,-0.176611,0.332072,0
2024-12-13 15:24:19.048,-0.318545,3.88804,12.5163,-0.468596,-0.292672,0.326574,0
2024-12-13 15:24:19.048,-0.318545,3.88804,12.5163,-0.468596,-0.292672,0.326574,0
2024-12-13 15:24:19.051,-0.18664,3.78515,12.7343,-0.466153,-0.337875,0.322909,0
2024-12-13 15:24:19.053,-0.0622134,3.69183,12.9521,-0.461266,-0.374526,0.319244,0
2024-12-13 15:24:19.058,0.174676,3.5001,13.2945,-0.441108,-0.409955,0.31619,0
2024-12-13 15:24:19.060,0.292223,3.41875,13.4094,-0.427669,-0.414231,0.314968,0
2024-12-13 15:24:19.060,0.292223,3.41875,13.4094,-0.427669,-0.414231,0.314968,0
2024-12-13 15:24:19.063,0.395115,3.34218,13.5051,-0.409955,-0.410566,0.314357,0
2024-12-13 15:24:19.065,0.462114,3.27039,13.6104,-0.394073,-0.400792,0.313136,0
2024-12-13 15:24:19.067,0.517149,3.18425,13.7157,-0.371471,-0.386132,0.314357,0
2024-12-13 15:24:19.070,0.54347,3.09332,13.7949,-0.371471,-0.386132,0.314357,0
2024-12-13 15:24:19.072,0.576969,2.99731,13.838,-0.321382,-0.345205,0.320466,0
2024-12-13 15:24:19.074,0.624826,2.9016,13.8428,-0.321382,-0.345205,0.320466,0
2024-12-13 15:24:19.079,0.65354,2.7676,13.8117,-0.232809,-0.244415,0.339402,0
2024-12-13 15:24:19.080,0.65354,2.7676,13.8117,-0.198602,-0.203488,0.349786,0
2024-12-13 15:24:19.081,0.629611,2.71017,13.7566,-0.198602,-0.203488,0.349786,0
2024-12-13 15:24:19.084,0.579362,2.65992,13.663,-0.162562,-0.16134,0.365058,0
2024-12-13 15:24:19.086,0.502792,2.62164,13.5386,-0.127133,-0.114305,0.382772,0
2024-12-13 15:24:19.088,0.419043,2.60728,13.3663,-0.0910926,-0.0691021,0.404763,0
2024-12-13 15:24:19.091,0.342473,2.6001,13.1674,-0.0562743,-0.0202343,0.425531,0
2024-12-13 15:24:19.096,0.270389,2.62164,12.7558,0.0170274,0.0781121,0.481119,0
2024-12-13 15:24:19.096,0.20339,2.65753,12.7558,0.0170274,0.0781121,0.481119,0
2024-12-13 15:24:19.098,0.12682,2.7006,12.5498,0.0481806,0.127591,0.511661,0
2024-12-13 15:24:19.100,0.0550349,2.77717,12.3535,0.0842206,0.176459,0.540982,0
2024-12-13 15:24:19.103,0.0143569,2.84178,12.0999,0.117206,0.224105,0.572135,0
2024-12-13 15:24:19.105,-0.00239282,2.88006,11.8029,0.14897,0.266253,0.601456,0
2024-12-13 15:24:19.107,0.0,2.9327,11.5158,0.17768,0.308401,0.628944,0
2024-12-13 15:24:19.110,0.00478565,2.98295,11.2283,0.207001,0.348107,0.652767,0
2024-12-13 15:24:19.112,0.0382852,3.01645,10.9361,0.230213,0.380481,0.675979,0
2024-12-13 15:24:19.114,0.0933201,3.04756,10.6777,0.252204,0.404305,0.697969,0
2024-12-13 15:24:19.119,0.236889,3.08584,10.1175,0.292519,0.440345,0.730344,0
2024-12-13 15:24:19.119,0.236889,3.08584,10.1175,0.292519,0.440345,0.730344,0
2024-12-13 15:24:19.121,0.330509,3.12682,9.80369,0.305347,0.450118,0.740729,0
2024-12-13 15:24:19.124,0.404686,3.19861,9.49023,0.317564,0.456227,0.748059,0
2024-12-13 15:24:19.126,0.457328,3.25843,9.18365,0.317564,0.456227,0.748059,0
2024-12-13 15:24:19.129,0.505185,3.2991,8.90369,0.323062,0.44401,0.756,0
2024-12-13 15:24:19.133,0.643968,3.3996,8.40329,0.313899,0.410413,0.752335,0
2024-12-13 15:24:19.133,0.643968,3.3996,8.40329,0.313899,0.410413,0.752335,0
2024-12-13 15:24:19.136,0.725324,3.44507,8.17598,0.304126,0.387201,0.746837,0
2024-12-13 15:24:19.138,0.878764,3.43071,7.98904,0.288244,0.358491,0.738896,0
2024-12-13 15:24:19.140,1.51555,3.06192,8.32672,0.271751,0.312677,0.71996,0
2024-12-13 15:24:19.143,1.88166,2.82263,8.56601,0.276027,0.2351,0.675979,0
2024-12-13 15:24:19.145,1.4653,3.09571,8.00339,0.274805,0.207001,0.641771,0
2024-12-13 15:24:19.147,1.2018,3.3685,7.64447,0.266253,0.22105,0.616727,0
2024-12-13 15:24:19.150,1.15394,3.57189,7.74258,0.258923,0.22044,0.598401,0
2024-12-13 15:24:19.152,1.01994,3.78515,7.77368,0.254647,0.205779,0.584963,0
2024-12-13 15:24:19.157,0.8668,4.12971,7.56999,0.234489,0.173404,0.567248,0
2024-12-13 15:24:19.157,0.804287,4.12971,7.56999,0.234489,0.173404,0.567248,0
2024-12-13 15:24:19.159,0.821037,4.1991,7.46232,0.22105,0.155079,0.56114,0
2024-12-13 15:24:19.162,0.9003,4.23051,7.32593,0.207001,0.146527,0.551366,0
2024-12-13 15:24:19.164,1.01755,4.22333,7.235,0.186843,0.139197,0.537317,0
2024-12-13 15:24:19.166,1.15872,4.19193,7.168,0.168517,0.136753,0.521434,0
2024-12-13 15:24:19.169,1.30708,4.14886,7.12254,0.14897,0.133088,0.497001,0
2024-12-13 15:24:19.171,1.43898,4.09382,7.11775,0.131256,0.131256,0.466458,0
2024-12-13 15:24:19.173,1.55862,4.05075,7.14168,0.131256,0.131256,0.466458,0
2024-12-13 15:24:19.176,1.60887,4.01964,7.18475,0.0988809,0.125147,0.393767,0
2024-12-13 15:24:19.178,1.60648,3.99811,7.21346,0.0860531,0.123926,0.354062,0
2024-12-13 15:24:19.180,1.58973,3.99332,7.25653,0.0768904,0.123926,0.311914,0
2024-12-13 15:24:19.183,1.5347,4.00529,7.29721,0.0683385,0.121482,0.27343,0
2024-12-13 15:24:19.185,1.4677,4.01246,7.30439,0.0640626,0.122704,0.236169,0
2024-12-13 15:24:19.187,1.38604,4.01007,7.28286,0.0561216,0.126369,0.200129,0
2024-12-13 15:24:19.190,1.30229,4.00529,7.23261,0.0536782,0.130034,0.167143,0
2024-12-13 15:24:19.192,1.22094,4.00529,7.19432,0.0475697,0.13431,0.135379,0
2024-12-13 15:24:19.194,1.11805,3.98136,7.15125,0.0414613,0.139808,0.108425,0
2024-12-13 15:24:19.197,1.02712,3.9335,7.10818,0.0414613,0.139808,0.108425,0
2024-12-13 15:24:19.199,0.945763,3.87847,7.05314,0.0255792,0.156911,0.062001,0
2024-12-13 15:24:19.202,0.864407,3.82582,7.00977,0.0170274,0.163631,0.0424539,0
2024-12-13 15:24:19.204,0.794716,3.77318,6.99063,0.00847551,0.165463,0.025961,0
2024-12-13 15:24:19.209,0.634397,3.67747,6.9667,-0.00740652,0.169739,-0.00335966,0
2024-12-13 15:24:19.211,0.555434,3.62214,6.96192,-0.0165692,0.170961,-0.0143549,0
2024-12-13 15:24:19.211,0.555434,3.62214,6.96192,-0.0165692,0.170961,-0.0143549,0
2024-12-13 15:24:19.213,0.474078,3.57906,6.95235,-0.0269536,0.172183,-0.0222959,0
2024-12-13 15:24:19.218,0.397508,3.48574,6.98345,-0.0391706,0.171572,-0.038178,0
2024-12-13 15:24:19.218,0.325723,3.48574,6.98345,-0.0391706,0.171572,-0.038178,0
2024-12-13 15:24:19.223,0.177069,3.41396,7.04118,-0.0501658,0.166074,-0.0479515,0
2024-12-13 15:24:19.225,0.124427,3.38525,7.0675,-0.0526092,0.164242,-0.0497841,0
2024-12-13 15:24:19.227,0.0646062,3.35414,7.09143,-0.0568851,0.161187,-0.0516166,0
2024-12-13 15:24:19.227,0.0646062,3.35414,7.09143,-0.0568851,0.161187,-0.0516166,0
2024-12-13 15:24:19.230,0.00957129,3.31825,7.12732,-0.0568851,0.15569,-0.0528383,0
2024-12-13 15:24:19.232,-0.040678,3.27757,7.17039,-0.057496,0.151414,-0.0534491,0
2024-12-13 15:24:19.235,-0.0837488,3.22014,7.21346,-0.0550526,0.147138,-0.0522274,0
2024-12-13 15:24:19.237,-0.124427,3.16271,7.25653,-0.0550526,0.144694,-0.0491732,0
2024-12-13 15:24:19.242,-0.160319,3.1005,7.28525,-0.049555,0.144084,-0.0393996,0
2024-12-13 15:24:19.242,-0.184247,3.04995,7.302,-0.049555,0.144084,-0.0393996,0
2024-12-13 15:24:19.244,-0.22014,3.02124,7.3355,-0.0471116,0.147138,-0.033902,0
2024-12-13 15:24:19.246,-0.265603,2.98535,7.37617,-0.0410031,0.152635,-0.0265719,0
2024-12-13 15:24:19.249,-0.287438,2.94227,7.41446,-0.0355055,0.161798,-0.0198525,0
2024-12-13 15:24:19.251,-0.313759,2.92313,7.45275,-0.0287862,0.17035,-0.00946813,0
2024-12-13 15:24:19.256,-0.371187,2.90638,7.49342,-0.0226777,0.180124,-0.000916271,0
2024-12-13 15:24:19.256,-0.371187,2.90638,7.49342,-0.0226777,0.180124,-0.000916271,0
2024-12-13 15:24:19.258,-0.3999,2.88485,7.49342,-0.00557398,0.205168,0.0198525,0
2024-12-13 15:24:19.260,-0.426222,2.85853,7.49582,0.00419957,0.217385,0.0320695,0
2024-12-13 15:24:19.263,-0.454935,2.84178,7.49103,0.0139731,0.228381,0.0442864,0
2024-12-13 15:24:19.265,-0.483649,2.8346,7.48864,0.0268009,0.24243,0.0577251,0
2024-12-13 15:24:19.267,-0.488435,2.81545,7.48385,0.0359636,0.255258,0.0693312,0
2024-12-13 15:24:19.270,-0.50997,2.77478,7.48624,0.0481806,0.267475,0.0827698,0
2024-12-13 15:24:19.272,-0.531506,2.74846,7.46471,0.0567324,0.279692,0.0962084,0
2024-12-13 15:24:19.275,-0.541077,2.73649,7.41207,0.0677277,0.291909,0.110869,0
2024-12-13 15:24:19.279,-0.593719,2.72692,7.37378,0.0891073,0.313899,0.139655,0
2024-12-13 15:24:19.279,-0.593719,2.72692,7.37378,0.0891073,0.313899,0.139655,0
2024-12-13 15:24:19.282,-0.62004,2.71735,7.34507,0.0970484,0.323062,0.156759,0
2024-12-13 15:24:19.284,-0.658325,2.72931,7.31157,0.108654,0.333446,0.171419,0
2024-12-13 15:24:19.289,-0.725324,2.77238,7.22543,0.123315,0.354826,0.205626,0
2024-12-13 15:24:19.289,-0.725324,2.77238,7.22543,0.123315,0.354826,0.205626,0
2024-12-13 15:24:19.293,-0.797109,2.81306,7.15125,0.14164,0.37254,0.238001,0
2024-12-13 15:24:19.293,-0.797109,2.81306,7.15125,0.14164,0.37254,0.238001,0
2024-12-13 15:24:19.296,-0.816252,2.82503,7.08664,0.14164,0.37254,0.238001,0
2024-12-13 15:24:19.298,-0.830609,2.83938,7.02682,0.156911,0.382925,0.271598,0
2024-12-13 15:24:19.300,-0.852443,2.84895,6.95474,0.163631,0.384147,0.286869,0
2024-12-13 15:24:19.303,-0.864407,2.85853,6.87578,0.167296,0.382314,0.301529,0
2024-12-13 15:24:19.305,-0.854836,2.87288,6.80399,0.171572,0.378649,0.31619,0
2024-12-13 15:24:19.308,-0.862014,2.87049,6.72264,0.175237,0.37193,0.329628,0
2024-12-13 15:24:19.310,-0.864407,2.86092,6.66042,0.170961,0.359713,0.340013,0
2024-12-13 15:24:19.313,-0.857229,2.86092,6.61974,0.165463,0.325505,0.363836,0
2024-12-13 15:24:19.315,-0.854836,2.8657,6.58624,0.165463,0.325505,0.363836,0
2024-12-13 15:24:19.317,-0.830609,2.85374,6.56471,0.160576,0.301071,0.374831,0
2024-12-13 15:24:19.319,-0.804287,2.8322,6.52403,0.154468,0.275416,0.383994,0
2024-12-13 15:24:19.322,-0.758824,2.80588,6.49292,0.145916,0.244263,0.393767,0
2024-12-13 15:24:19.326,-0.675075,2.71974,6.50967,0.122093,0.175848,0.41026,0
2024-12-13 15:24:19.326,-0.675075,2.71974,6.50967,0.122093,0.175848,0.41026,0
2024-12-13 15:24:19.331,-0.550648,2.64317,6.62453,0.0958267,0.0988809,0.427975,0
2024-12-13 15:24:19.331,-0.550648,2.64317,6.62453,0.0958267,0.0988809,0.427975,0
2024-12-13 15:24:19.333,-0.483649,2.61685,6.72024,0.082388,0.0622301,0.435305,0
2024-12-13 15:24:19.336,-0.414257,2.57857,6.85903,0.0695602,0.0261901,0.442635,0
2024-12-13 15:24:19.341,-0.270389,2.51845,7.19911,0.0530674,-0.0379489,0.457296,0
2024-12-13 15:24:19.341,-0.270389,2.51845,7.19911,0.0530674,-0.0379489,0.457296,0
2024-12-13 15:24:19.343,-0.179462,2.48973,7.38814,0.0487914,-0.0611611,0.465237,0
2024-12-13 15:24:19.345,-0.0789631,2.45623,7.58944,0.0451263,-0.081319,0.471345,0
2024-12-13 15:24:19.348,0.0311067,2.39641,7.79283,0.0475697,-0.0972011,0.476843,0
2024-12-13 15:24:19.350,0.145962,2.32702,8.001,0.0542891,-0.108807,0.480508,0
2024-12-13 15:24:19.352,0.263211,2.26002,8.20469,0.0603975,-0.116137,0.483562,0
2024-12-13 15:24:19.355,0.383151,2.20259,8.39133,0.0689494,-0.120413,0.48234,0
2024-12-13 15:24:19.359,0.593719,2.13799,8.67129,0.0964375,-0.116137,0.482951,0
2024-12-13 15:24:19.359,0.593719,2.13799,8.67129,0.0964375,-0.116137,0.482951,0
2024-12-13 15:24:19.362,0.675075,2.12363,8.77448,0.111098,-0.108196,0.479897,0
2024-12-13 15:24:19.364,0.73011,2.11167,8.87976,0.128202,-0.0959794,0.476232,0
2024-12-13 15:24:19.366,0.74686,2.08535,9.00658,0.146527,-0.0788757,0.473178,0
2024-12-13 15:24:19.369,0.720539,2.1332,9.08555,0.165463,-0.0562743,0.472567,0
2024-12-13 15:24:19.371,0.646361,2.24088,9.0018,0.188675,-0.0184018,0.474399,0
2024-12-13 15:24:19.373,0.641576,2.2672,8.98744,0.211277,0.0347419,0.482951,0
2024-12-13 15:24:19.378,0.725324,2.14995,9.19083,0.257701,0.103157,0.492725,0
2024-12-13 15:24:19.381,0.710967,2.02313,9.15973,0.283968,0.135532,0.49639,0
2024-12-13 15:24:19.381,0.710967,2.02313,9.15973,0.283968,0.135532,0.49639,0
2024-12-13 15:24:19.383,0.737288,1.87687,9.14297,0.310845,0.170961,0.497001,0
2024-12-13 15:24:19.388,0.794716,1.65912,9.11905,0.374449,0.24976,0.500055,0
2024-12-13 15:24:19.388,0.873978,1.65912,9.11905,0.374449,0.24976,0.500055,0
2024-12-13 15:24:19.392,0.837787,1.57059,8.91087,0.444697,0.33589,0.507996,0
2024-12-13 15:24:19.392,0.837787,1.57059,8.91087,0.444697,0.33589,0.507996,0
2024-12-13 15:24:19.395,0.732503,1.58255,8.72184,0.480126,0.383536,0.515326,0
2024-12-13 15:24:19.397,0.584148,1.61127,8.50858,0.510668,0.431182,0.526932,0
2024-12-13 15:24:19.402,0.287438,1.74766,8.05843,0.559536,0.514868,0.566637,0
2024-12-13 15:24:19.402,0.287438,1.74766,8.05843,0.559536,0.514868,0.566637,0
2024-12-13 15:24:19.404,0.165105,1.81705,7.83829,0.574196,0.542967,0.592293,0
2024-12-13 15:24:19.406,0.0646062,1.87926,7.62293,0.586413,0.564957,0.61917,0
2024-12-13 15:24:19.409,0.00717847,1.94626,7.42882,0.586413,0.564957,0.61917,0
2024-12-13 15:24:19.411,-0.0191426,1.9992,7.28525,0.597409,0.583283,0.674146,0
2024-12-13 15:24:19.414,-0.0167498,2.04945,7.17278,0.598019,0.583894,0.699802,0
2024-12-13 15:24:19.416,0.0167498,2.09731,7.09143,0.600463,0.58145,0.719349,0
2024-12-13 15:24:19.418,0.0622134,2.12363,7.03639,0.599852,0.578396,0.737674,0
2024-12-13 15:24:19.422,0.0981057,2.15474,6.98106,0.604128,0.571677,0.765163,0
2024-12-13 15:24:19.423,0.145962,2.20499,6.93081,0.604128,0.571677,0.765163,0
2024-12-13 15:24:19.425,0.198604,2.28156,6.87817,0.607793,0.569233,0.773104,0
2024-12-13 15:24:19.428,0.224925,2.37009,6.81117,0.610847,0.563736,0.77799,0
2024-12-13 15:24:19.430,0.244068,2.4658,6.74178,0.613291,0.555795,0.781655,0
2024-12-13 15:24:19.432,0.263211,2.57139,6.68196,0.613291,0.541134,0.782266,0
2024-12-13 15:24:19.435,0.270389,2.65514,6.61735,0.611458,0.524641,0.782266,0
2024-12-13 15:24:19.439,0.287438,2.73171,6.47378,0.599241,0.476995,0.773104,0
2024-12-13 15:24:19.439,0.330509,2.81067,6.47378,0.599241,0.476995,0.773104,0
2024-12-13 15:24:19.444,0.383151,2.9686,6.35863,0.576029,0.423852,0.756,0
2024-12-13 15:24:19.444,0.442971,2.9686,6.35863,0.576029,0.423852,0.756,0
2024-12-13 15:24:19.447,0.50997,3.03081,6.31556,0.563201,0.394531,0.742561,0
2024-12-13 15:24:19.449,0.569791,3.10529,6.28445,0.544265,0.368875,0.729733,0
2024-12-13 15:24:19.454,0.610469,3.18903,6.27009,0.502116,0.312067,0.692472,0
2024-12-13 15:24:19.454,0.641576,3.28235,6.29402,0.502116,0.312067,0.692472,0
2024-12-13 15:24:19.456,0.672682,3.37089,6.34188,0.502116,0.312067,0.692472,0
2024-12-13 15:24:19.458,0.691825,3.44746,6.39691,0.452638,0.244873,0.653377,0
2024-12-13 15:24:19.463,0.766002,3.57667,6.5671,0.400716,0.178902,0.605121,0
2024-12-13 15:24:19.463,0.766002,3.57667,6.5671,0.400716,0.178902,0.605121,0
2024-12-13 15:24:19.468,0.873978,3.67986,6.79921,0.347496,0.11232,0.54709,0
2024-12-13 15:24:19.468,0.873978,3.67986,6.79921,0.347496,0.11232,0.54709,0
2024-12-13 15:24:19.475,1.05105,3.78275,7.25414,0.27114,0.042683,0.456685,0
2024-12-13 15:24:19.475,1.05105,3.78275,7.25414,0.27114,0.042683,0.456685,0
2024-12-13 15:24:19.477,1.1013,3.78275,7.4025,0.250371,0.0261901,0.425531,0
2024-12-13 15:24:19.477,1.1013,3.78275,7.4025,0.250371,0.0261901,0.425531,0
2024-12-13 15:24:19.479,1.14197,3.77797,7.55803,0.224105,0.0139731,0.390713,0
2024-12-13 15:24:19.482,1.18265,3.78036,7.71147,0.200892,0.00664296,0.360782,0
2024-12-13 15:24:19.484,1.21615,3.78754,7.85025,0.180124,0.00664296,0.328407,0
2024-12-13 15:24:19.487,1.24247,3.78993,7.94836,0.15569,0.0133623,0.298475,0
2024-12-13 15:24:19.489,1.25204,3.7995,8.02493,0.132477,0.0237467,0.270376,0
2024-12-13 15:24:19.491,1.23051,3.83061,8.12543,0.106822,0.0371853,0.242277,0
2024-12-13 15:24:19.496,1.10608,3.93589,8.30997,0.0530674,0.0750579,0.197075,0
2024-12-13 15:24:19.496,1.10608,3.93589,8.30997,0.0530674,0.0750579,0.197075,0
2024-12-13 15:24:19.498,0.99362,4.04596,8.38654,0.0249684,0.0988809,0.176306,0
2024-12-13 15:24:19.501,0.878764,4.15603,8.46311,-0.00496313,0.123926,0.159202,0
2024-12-13 15:24:19.503,0.782752,4.24487,8.53011,-0.0397814,0.14836,0.14332,0
2024-12-13 15:24:19.505,0.696611,4.31426,8.61386,-0.0697129,0.169739,0.127972,0
2024-12-13 15:24:19.508,0.629611,4.35972,8.7003,-0.101477,0.186232,0.112701,0
2024-12-13 15:24:19.510,0.574577,4.38844,8.79123,-0.136295,0.194784,0.098041,0
2024-12-13 15:24:19.512,0.557827,4.39562,8.88694,-0.174779,0.195395,0.0815481,0
2024-12-13 15:24:19.515,0.54347,4.4004,8.98026,-0.208986,0.186232,0.0650552,0
2024-12-13 15:24:19.517,0.521934,4.41715,9.09273,-0.247469,0.17035,0.0455081,0
2024-12-13 15:24:19.520,0.514756,4.41236,9.23151,-0.284731,0.14836,0.0241285,0
2024-12-13 15:24:19.524,0.502792,4.38126,9.58116,-0.361698,0.0891073,-0.0198525,0
2024-12-13 15:24:19.524,0.502792,4.38126,9.58116,-0.361698,0.0891073,-0.0198525,0
2024-12-13 15:24:19.529,0.498006,4.36212,9.99303,-0.429502,0.0164165,-0.0626118,0
2024-12-13 15:24:19.529,0.498006,4.36212,9.99303,-0.429502,0.0164165,-0.0626118,0
2024-12-13 15:24:19.531,0.452543,4.36212,10.2347,-0.463099,-0.0232886,-0.0852132,0
2024-12-13 15:24:19.535,0.407079,4.35972,10.491,-0.517464,-0.0892601,-0.11881,0
2024-12-13 15:24:19.538,0.297009,4.35254,11.0034,-0.540676,-0.11797,-0.134081,0
2024-12-13 15:24:19.538,0.297009,4.35254,11.0034,-0.540676,-0.11797,-0.134081,0
2024-12-13 15:24:19.541,0.246461,4.35015,11.2714,-0.559002,-0.143625,-0.14813,0
2024-12-13 15:24:19.543,0.191426,4.35254,11.5229,-0.575494,-0.166227,-0.157904,0
2024-12-13 15:24:19.545,0.157926,4.34537,11.7574,-0.590155,-0.186996,-0.165845,0
2024-12-13 15:24:19.548,0.148355,4.32862,11.9943,-0.599317,-0.205932,-0.173175,0
2024-12-13 15:24:19.552,0.174676,4.2688,12.4636,-0.613978,-0.24075,-0.18417,0
2024-12-13 15:24:19.552,0.174676,4.2688,12.4636,-0.613978,-0.24075,-0.18417,0
2024-12-13 15:24:19.555,0.198604,4.22812,12.7032,-0.617032,-0.255411,-0.187836,0
2024-12-13 15:24:19.557,0.217747,4.18235,12.9377,-0.618865,-0.270682,-0.193944,0
2024-12-13 15:24:19.560,0.253639,4.13928,13.1411,-0.618865,-0.270682,-0.193944,0
2024-12-13 15:24:19.562,0.294616,4.05554,13.3424,-0.617643,-0.29084,-0.20555,0
2024-12-13 15:24:19.564,0.32333,3.96939,13.5338,-0.613978,-0.300613,-0.213491,0
2024-12-13 15:24:19.567,0.359223,3.9,13.6941,-0.609702,-0.308554,-0.220821,0
2024-12-13 15:24:19.569,0.409472,3.80429,13.85,-0.603593,-0.320771,-0.22693,0
2024-12-13 15:24:19.571,0.438186,3.71575,13.9816,-0.597485,-0.331766,-0.234871,0
2024-12-13 15:24:19.574,0.366401,3.69661,14.0557,-0.589544,-0.337264,-0.243423,0
2024-12-13 15:24:19.576,0.102891,3.7995,13.9193,-0.587101,-0.335431,-0.242201,0
2024-12-13 15:24:19.581,0.260818,3.65354,14.1945,-0.595042,-0.334821,-0.227541,0
2024-12-13 15:24:19.581,0.260818,3.65354,14.1945,-0.595042,-0.334821,-0.227541,0
2024-12-13 15:24:19.585,0.486042,3.29193,14.3623,-0.598707,-0.357422,-0.227541,0
2024-12-13 15:24:19.585,0.486042,3.29193,14.3623,-0.598707,-0.357422,-0.227541,0
2024-12-13 15:24:19.588,0.550648,3.17468,14.391,-0.598096,-0.351314,-0.228151,0
2024-12-13 15:24:19.590,0.627219,3.05474,14.5083,-0.595652,-0.332988,-0.231817,0
2024-12-13 15:24:19.593,0.682254,2.95663,14.6638,-0.589544,-0.309776,-0.234871,0
2024-12-13 15:24:19.595,0.687039,2.90878,14.793,-0.582825,-0.280455,-0.237314,0
2024-12-13 15:24:19.597,0.646361,2.89203,14.8771,-0.569386,-0.244415,-0.237925,0
2024-12-13 15:24:19.600,0.555434,2.88724,14.9345,-0.556558,-0.201656,-0.235482,0
2024-12-13 15:24:19.602,0.387936,2.9016,14.9608,-0.538233,-0.151566,-0.229984,0
2024-12-13 15:24:19.604,0.155533,2.95424,14.9225,-0.521129,-0.0959794,-0.218989,0
2024-12-13 15:24:19.609,-0.294616,3.17946,14.6901,-0.508912,-0.037338,-0.203107,0
2024-12-13 15:24:19.611,-0.519542,3.30628,14.5107,-0.480813,0.0805555,-0.152406,0
2024-12-13 15:24:19.611,-0.519542,3.30628,14.5107,-0.480813,0.0805555,-0.152406,0
2024-12-13 15:24:19.614,-0.703789,3.42114,14.2639,-0.473483,0.131867,-0.121864,0
2024-12-13 15:24:19.618,-1.00319,3.6006,13.7348,-0.479591,0.205168,-0.0558925,0
2024-12-13 15:24:19.621,-1.07498,3.64606,13.4883,-0.492419,0.218607,-0.025961,0
2024-12-13 15:24:19.621,-1.07498,3.64606,13.4883,-0.492419,0.218607,-0.025961,0
2024-12-13 15:24:19.623,-1.09173,3.6679,13.2873,-0.511966,0.215553,0.000916271,0
2024-12-13 15:24:19.626,-1.05105,3.67986,13.1507,-0.534568,0.196616,0.0241285,0
2024-12-13 15:24:19.628,-0.97687,3.67508,13.0884,-0.562056,0.164242,0.0430647,0
2024-12-13 15:24:19.633,-0.777966,3.6679,13.0621,-0.617643,0.0775012,0.062001,0
2024-12-13 15:24:19.633,-0.777966,3.6679,13.0621,-0.617643,0.0775012,0.062001,0
2024-12-13 15:24:19.637,-0.533899,3.69661,13.098,-0.64452,0.0280226,0.0662769,0
2024-12-13 15:24:19.637,-0.533899,3.69661,13.098,-0.64452,0.0280226,0.0662769,0
2024-12-13 15:24:19.640,-0.407079,3.72533,13.2299,-0.701329,-0.081319,0.0626118,0
2024-12-13 15:24:19.642,-0.275175,3.766,13.4213,-0.72393,-0.133852,0.0558925,0
2024-12-13 15:24:19.644,-0.136391,3.77797,13.6511,-0.742867,-0.186385,0.0479515,0
2024-12-13 15:24:19.647,0.00717847,3.75883,13.9002,-0.754473,-0.230977,0.0363454,0
2024-12-13 15:24:19.649,0.157926,3.74925,14.161,-0.762414,-0.267017,0.0241285,0
2024-12-13 15:24:19.651,0.294616,3.73729,14.4245,-0.762414,-0.292061,0.00824644,0
2024-12-13 15:24:19.654,0.41665,3.70379,14.671,-0.762414,-0.292061,0.00824644,0
2024-12-13 15:24:19.656,0.545863,3.67508,14.8696,-0.744699,-0.307333,-0.0265719,0
2024-12-13 15:24:19.658,0.651147,3.62692,15.0015,-0.730039,-0.29817,-0.0448973,0
2024-12-13 15:24:19.661,0.725324,3.55035,15.0637,-0.70927,-0.282288,-0.0638335,0
2024-12-13 15:24:19.663,0.756431,3.47617,15.0733,-0.689112,-0.262741,-0.0791047,1
2024-12-13 15:24:19.666,0.739681,3.41875,15.0613,-0.666511,-0.238918,-0.0968193,0
2024-12-13 15:24:19.668,0.694218,3.36371,15.0541,-0.645742,-0.214484,-0.11209,0
2024-12-13 15:24:19.670,0.627219,3.32303,15.0302,-0.626195,-0.191272,-0.124918,0
2024-12-13 15:24:19.675,0.457328,3.26321,14.9082,-0.580992,-0.133241,-0.143855,0
2024-12-13 15:24:19.675,0.457328,3.26321,14.9082,-0.580992,-0.133241,-0.143855,0
2024-12-13 15:24:19.680,0.208176,3.16511,14.7069,-0.529681,-0.0611611,-0.146298,0
2024-12-13 15:24:19.680,0.208176,3.16511,14.7069,-0.529681,-0.0611611,-0.146298,0
2024-12-13 15:24:19.682,0.066999,3.11007,14.5705,-0.499139,-0.0220669,-0.143244,0
2024-12-13 15:24:19.684,-0.081356,3.05952,14.3815,-0.470429,0.0164165,-0.135914,0
2024-12-13 15:24:19.687,-0.224925,3.01167,14.1586,-0.442941,0.0561216,-0.123697,0
2024-12-13 15:24:19.689,-0.361615,2.95902,13.9361,-0.415452,0.0909399,-0.11148,0
2024-12-13 15:24:19.694,-0.588933,2.90878,13.4357,-0.361087,0.154468,-0.0748288,0
2024-12-13 15:24:19.694,-0.588933,2.90878,13.4357,-0.361087,0.154468,-0.0748288,0
2024-12-13 15:24:19.699,-0.76361,2.9016,12.9951,-0.310387,0.203947,-0.0296261,0
2024-12-13 15:24:19.699,-0.76361,2.9016,12.9951,-0.310387,0.203947,-0.0296261,0
2024-12-13 15:24:19.703,-0.847657,2.9351,12.7798,-0.256021,0.248538,0.0192417,0
2024-12-13 15:24:19.703,-0.921835,2.9686,12.5737,-0.256021,0.248538,0.0192417,0
2024-12-13 15:24:19.706,-0.984048,3.00927,12.4134,-0.228533,0.269918,0.0448973,0
2024-12-13 15:24:19.708,-1.00319,3.0332,12.2195,-0.199213,0.291298,0.069942,0
2024-12-13 15:24:19.710,-0.97687,3.04995,11.9848,-0.169892,0.313899,0.0949868,0
2024-12-13 15:24:19.713,-0.919442,3.08345,11.7335,-0.13935,0.337111,0.118199,0
2024-12-13 15:24:19.715,-0.854836,3.11725,11.4485,-0.108196,0.362156,0.137822,0
2024-12-13 15:24:19.717,-0.816252,3.12921,11.1541,-0.0807082,0.385979,0.156759,0
2024-12-13 15:24:19.724,-0.739681,3.22971,10.1964,-0.057496,0.403694,0.173252,0
2024-12-13 15:24:19.724,-0.696611,3.22971,10.1964,-0.057496,0.403694,0.173252,0
2024-12-13 15:24:19.727,-0.65354,3.24885,9.86621,-0.00923906,0.435458,0.203183,0
2024-12-13 15:24:19.729,-0.615255,3.28235,9.54527,-0.00557398,0.436679,0.20807,0
2024-12-13 15:24:19.729,-0.615255,3.28235,9.54527,-0.00557398,0.436679,0.20807,0
2024-12-13 15:24:19.732,-0.567398,3.32303,9.24587,-0.00374144,0.435458,0.209902,0
2024-12-13 15:24:19.734,-0.371187,3.21536,9.07358,-0.00679568,0.430571,0.206848,0
2024-12-13 15:24:19.736,-0.0741775,3.00927,9.14297,-0.0129041,0.402472,0.19341,0
2024-12-13 15:24:19.741,-0.117248,3.04995,8.88216,-0.0153475,0.391477,0.159202,0
2024-12-13 15:24:19.741,-0.375972,3.25603,8.30758,-0.0153475,0.391477,0.159202,0
2024-12-13 15:24:19.743,-0.3999,3.37328,8.15923,-0.0257319,0.405526,0.150039,0
2024-12-13 15:24:19.746,-0.373579,3.45942,8.16401,-0.0355055,0.400639,0.139044,0
2024-12-13 15:24:19.748,-0.505185,3.59103,7.92922,-0.0483333,0.391477,0.130416,0
2024-12-13 15:24:19.750,-0.634397,3.7014,7.64447,-0.0672696,0.390866,0.124307,0
2024-12-13 15:24:19.753,-0.684646,3.74686,7.46471,-0.0917034,0.384757,0.120031,0
2024-12-13 15:24:19.755,-0.694218,3.74925,7.31635,-0.115526,0.378038,0.11881,0
2024-12-13 15:24:19.757,-0.677468,3.7325,7.168,-0.141793,0.369486,0.110258,0
2024-12-13 15:24:19.760,-0.641576,3.70379,7.06989,-0.16867,0.356048,0.0986518,0
2024-12-13 15:24:19.762,-0.600898,3.66551,6.99781,-0.197991,0.344442,0.0864349,0
2024-12-13 15:24:19.764,-0.584148,3.62453,6.95474,-0.224868,0.331003,0.0723854,0
2024-12-13 15:24:19.767,-0.562612,3.58385,6.95952,-0.251745,0.315121,0.0565034,0
2024-12-13 15:24:19.769,-0.541077,3.52642,7.00738,-0.274347,0.298628,0.0387888,0
2024-12-13 15:24:19.774,-0.555434,3.40678,7.16082,-0.310387,0.25648,0.00397051,0
2024-12-13 15:24:19.774,-0.555434,3.40678,7.16082,-0.310387,0.25648,0.00397051,0
2024-12-13 15:24:19.779,-0.593719,3.28714,7.31875,-0.329323,0.214942,-0.0308478,0
2024-12-13 15:24:19.779,-0.593719,3.28714,7.31875,-0.329323,0.214942,-0.0308478,0
2024-12-13 15:24:19.781,-0.63679,3.22732,7.40489,-0.332377,0.190508,-0.0455081,0
2024-12-13 15:24:19.783,-0.679861,3.17228,7.48624,-0.333599,0.166074,-0.0607793,0
2024-12-13 15:24:19.786,-0.727717,3.10289,7.56999,-0.329934,0.14164,-0.0711637,0
2024-12-13 15:24:19.788,-0.775574,3.02842,7.65404,-0.32749,0.117206,-0.0809373,0
2024-12-13 15:24:19.790,-0.825823,2.96142,7.74497,-0.319549,0.0927724,-0.0870457,0
2024-12-13 15:24:19.794,-0.864407,2.89442,7.8359,-0.303667,0.038407,-0.0937651,0
2024-12-13 15:24:19.795,-0.907478,2.84656,7.92204,-0.303667,0.038407,-0.0937651,0
2024-12-13 15:24:19.797,-0.96012,2.78913,8.02014,-0.290229,0.0127514,-0.0955976,0
2024-12-13 15:24:19.800,-0.988834,2.71735,8.12303,-0.271903,-0.0110716,-0.0937651,0
2024-12-13 15:24:19.802,-1.00798,2.64796,8.22862,-0.257854,-0.0361163,-0.0907108,0
2024-12-13 15:24:19.805,-1.02473,2.59771,8.35065,-0.236474,-0.0593285,-0.0870457,0
2024-12-13 15:24:19.807,-1.0319,2.55464,8.47029,-0.216316,-0.0831516,-0.0846023,0
2024-12-13 15:24:19.809,-1.04148,2.51127,8.6019,-0.187606,-0.106364,-0.077883,0
2024-12-13 15:24:19.812,-1.04865,2.4658,8.72662,-0.163173,-0.130798,-0.0723854,0
2024-12-13 15:24:19.816,-1.06301,2.39402,8.91326,-0.102088,-0.179055,-0.0601685,0
2024-12-13 15:24:19.816,-1.06301,2.39402,8.91326,-0.102088,-0.179055,-0.0601685,0
2024-12-13 15:24:19.819,-1.04626,2.35095,8.99223,-0.0691021,-0.201045,-0.0558925,0
2024-12-13 15:24:19.821,-1.01037,2.31745,9.04248,-0.0367272,-0.226701,-0.0485624,0
2024-12-13 15:24:19.823,-0.97687,2.28873,9.05923,-0.00435229,-0.246248,-0.0442864,0
2024-12-13 15:24:19.826,-0.933799,2.25763,9.06641,0.0298552,-0.268238,-0.038178,0
2024-12-13 15:24:19.828,-0.881157,2.22652,9.08076,0.0603975,-0.289007,-0.0351237,0
2024-12-13 15:24:19.830,-0.818644,2.19781,9.10948,0.0915507,-0.306111,-0.033902,0
2024-12-13 15:24:19.833,-0.749253,2.17627,9.13101,0.121482,-0.319549,-0.0296261,0
2024-12-13 15:24:19.835,-0.691825,2.16431,9.12623,0.151414,-0.332988,-0.0277936,0
2024-12-13 15:24:19.837,-0.643968,2.14995,9.11665,0.178902,-0.343373,-0.0271827,0
2024-12-13 15:24:19.840,-0.588933,2.12363,9.1023,0.207001,-0.347038,-0.0265719,0
2024-12-13 15:24:19.845,-0.486042,2.05424,9.02812,0.258923,-0.343983,-0.0247393,0
2024-12-13 15:24:19.845,-0.486042,2.05424,9.02812,0.258923,-0.343983,-0.0247393,0
2024-12-13 15:24:19.849,-0.387936,1.9992,8.97548,0.30046,-0.328101,-0.0204634,0
2024-12-13 15:24:19.849,-0.387936,1.9992,8.97548,0.30046,-0.328101,-0.0204634,0
2024-12-13 15:24:19.852,-0.330509,1.97049,8.92523,0.30046,-0.328101,-0.0204634,0
2024-12-13 15:24:19.854,-0.275175,1.91994,8.87976,0.344442,-0.303667,-0.0149658,0
2024-12-13 15:24:19.859,-0.150748,1.8338,8.78405,0.383001,-0.272514,-0.0125224,0
2024-12-13 15:24:19.861,-0.0981057,1.79312,8.72662,0.400105,-0.252356,-0.0119115,0
2024-12-13 15:24:19.861,-0.0981057,1.79312,8.72662,0.400105,-0.252356,-0.0119115,0
2024-12-13 15:24:19.863,-0.066999,1.75244,8.65693,0.41843,-0.234031,-0.0131332,0
2024-12-13 15:24:19.866,-0.040678,1.71177,8.58515,0.436145,-0.215095,-0.0131332,0
2024-12-13 15:24:19.868,-0.00478565,1.70219,8.52054,0.451416,-0.196158,-0.0119115,0
2024-12-13 15:24:19.870,0.0119641,1.6998,8.46551,0.465466,-0.177833,-0.00885729,0
2024-12-13 15:24:19.873,0.00478565,1.69262,8.37697,0.481348,-0.157064,-0.00824644,0
2024-12-13 15:24:19.878,-0.00717847,1.68784,8.17119,0.508836,-0.116748,-0.00213797,0
2024-12-13 15:24:19.878,-0.00717847,1.68784,8.17119,0.508836,-0.116748,-0.00213797,0
2024-12-13 15:24:19.882,0.026321,1.69262,7.9675,0.518609,-0.0996445,0.00152712,0
2024-12-13 15:24:19.882,0.026321,1.69262,7.9675,0.518609,-0.0996445,0.00152712,0
2024-12-13 15:24:19.885,0.0430708,1.70698,7.87418,0.5406,-0.065437,0.00152712,0
2024-12-13 15:24:19.887,0.0526421,1.73091,7.78325,0.548541,-0.0507767,0.00274881,0
2024-12-13 15:24:19.889,0.0598206,1.76201,7.68515,0.558314,-0.0342838,0.00213797,0
2024-12-13 15:24:19.892,0.066999,1.79551,7.61576,0.56259,-0.0208452,-0.000305424,0
2024-12-13 15:24:19.894,0.0550349,1.82423,7.55085,0.56992,-0.00740652,-0.000305424,0
2024-12-13 15:24:19.896,0.0622134,1.85294,7.47189,0.577861,0.00358873,-0.00152712,0
2024-12-13 15:24:19.899,0.0933201,1.87926,7.38814,0.582748,0.0121406,-0.010079,0
2024-12-13 15:24:19.901,0.112463,1.87687,7.30918,0.586413,0.0206925,-0.0155766,0
2024-12-13 15:24:19.906,0.141177,1.88166,7.15364,0.597409,0.0341311,-0.0284044,0
2024-12-13 15:24:19.906,0.141177,1.88166,7.15364,0.597409,0.0341311,-0.0284044,0
2024-12-13 15:24:19.908,0.167498,1.89362,7.0675,0.599852,0.0353528,-0.0375671,0
2024-12-13 15:24:19.911,0.18664,1.91516,7.0002,0.603517,0.0377962,-0.0442864,0
2024-12-13 15:24:19.915,0.210568,1.9343,6.83031,0.606571,0.0335202,-0.0626118,0
2024-12-13 15:24:19.915,0.210568,1.9343,6.83031,0.606571,0.0335202,-0.0626118,0
2024-12-13 15:24:19.918,0.217747,1.93908,6.75613,0.609015,0.0292443,-0.0723854,0
2024-12-13 15:24:19.920,0.210568,1.94387,6.69153,0.609015,0.0249684,-0.0839915,0
2024-12-13 15:24:19.925,0.241675,1.97288,6.55274,0.601685,0.0109189,-0.10476,0
2024-12-13 15:24:19.925,0.241675,1.97288,6.55274,0.601685,0.0109189,-0.10476,0
2024-12-13 15:24:19.927,0.246461,1.97767,6.49053,0.599241,0.00358873,-0.115145,0
2024-12-13 15:24:19.929,0.263211,1.98485,6.4352,0.593744,-0.00313059,-0.123697,0
2024-12-13 15:24:19.932,0.263211,1.98485,6.38973,0.586413,-0.00740652,-0.135914,0
2024-12-13 15:24:19.934,0.244068,1.98724,6.35145,0.582137,-0.0116825,-0.146298,0
2024-12-13 15:24:19.939,0.232104,1.98724,6.28445,0.567477,-0.021456,-0.165234,0
2024-12-13 15:24:19.939,0.232104,1.98724,6.28445,0.567477,-0.021456,-0.165234,0
2024-12-13 15:24:19.941,0.229711,1.98963,6.25095,0.561979,-0.0251211,-0.173786,0
2024-12-13 15:24:19.943,0.227318,1.99681,6.21984,0.552817,-0.0324513,-0.182338,0
2024-12-13 15:24:19.946,0.217747,2.00399,6.20788,0.552817,-0.0324513,-0.182338,0
2024-12-13 15:24:19.951,0.212961,2.00877,6.17677,0.527161,-0.049555,-0.207383,0
2024-12-13 15:24:19.953,0.224925,2.01356,6.14806,0.516777,-0.057496,-0.215935,0
2024-12-13 15:24:19.953,0.244068,2.01595,6.14806,0.516777,-0.057496,-0.215935,0
2024-12-13 15:24:19.955,0.246461,2.01595,6.13609,0.507614,-0.0672696,-0.225708,0
2024-12-13 15:24:19.960,0.241675,2.02792,6.14567,0.4899,-0.081319,-0.246477,0
2024-12-13 15:24:19.962,0.227318,2.04227,6.16481,0.482569,-0.0904818,-0.255029,0
2024-12-13 15:24:19.962,0.227318,2.04227,6.16481,0.482569,-0.0904818,-0.255029,0
2024-12-13 15:24:19.966,0.212961,2.06142,6.18156,0.471574,-0.105142,-0.270911,0
2024-12-13 15:24:19.967,0.198604,2.08535,6.2007,0.471574,-0.105142,-0.270911,0
2024-12-13 15:24:19.972,0.155533,2.12842,6.2677,0.463022,-0.116748,-0.289847,0
2024-12-13 15:24:19.974,0.122034,2.14756,6.27727,0.459357,-0.122857,-0.300842,0
2024-12-13 15:24:19.974,0.122034,2.14756,6.27727,0.459357,-0.122857,-0.300842,0
2024-12-13 15:24:19.976,0.112463,2.17388,6.27966,0.456303,-0.125911,-0.308783,0
2024-12-13 15:24:19.979,0.11007,2.18584,6.26052,0.452638,-0.1253,-0.317335,0
2024-12-13 15:24:19.981,0.102891,2.18824,6.24138,0.450194,-0.127133,-0.327109,0
2024-12-13 15:24:19.985,0.0981057,2.18345,6.21267,0.441032,-0.122857,-0.347267,0
2024-12-13 15:24:19.986,0.0933201,2.19781,6.18156,0.441032,-0.122857,-0.347267,0
2024-12-13 15:24:19.988,0.0885344,2.23609,6.14567,0.433091,-0.121024,-0.355819,0
2024-12-13 15:24:19.991,0.0789631,2.26481,6.08824,0.423317,-0.114916,-0.366203,0
2024-12-13 15:24:19.993,0.0526421,2.28873,6.04277,0.414765,-0.111251,-0.376587,0
2024-12-13 15:24:19.995,0.026321,2.30548,6.01406,0.401937,-0.10331,-0.386972,0
2024-12-13 15:24:19.998,-0.00957129,2.32463,5.98056,0.390942,-0.0929251,-0.396134,0
2024-12-13 15:24:20.000,-0.0550349,2.35573,5.9327,0.376893,-0.0831516,-0.405908,0
2024-12-13 15:24:20.002,-0.102891,2.37248,5.87976,0.364599,-0.0721563,-0.413238,0
2024-12-13 15:24:20.005,-0.150748,2.39402,5.83669,0.344442,-0.0617719,-0.419957,0
2024-12-13 15:24:20.007,-0.20339,2.42034,5.79841,0.327338,-0.0519984,-0.42912,0
2024-12-13 15:24:20.009,-0.277567,2.43709,5.75055,0.307791,-0.0446682,-0.43584,0
2024-12-13 15:24:20.014,-0.442971,2.51366,5.68355,0.266864,-0.0324513,-0.444391,0
2024-12-13 15:24:20.014,-0.442971,2.51366,5.68355,0.266864,-0.0324513,-0.444391,0
2024-12-13 15:24:20.019,-0.629611,2.58096,5.70987,0.218607,-0.0202343,-0.445002,0
2024-12-13 15:24:20.019,-0.629611,2.58096,5.70987,0.218607,-0.0202343,-0.445002,0
2024-12-13 15:24:20.021,-0.720539,2.60728,5.72184,0.194173,-0.0171801,-0.442559,0
2024-12-13 15:24:20.024,-0.816252,2.65753,5.75534,0.168517,-0.0177909,-0.439505,0
2024-12-13 15:24:20.028,-0.996012,2.74846,5.86541,0.145916,-0.0177909,-0.435229,0
2024-12-13 15:24:20.028,-0.996012,2.74846,5.86541,0.145916,-0.0177909,-0.435229,0
2024-12-13 15:24:20.031,-1.04865,2.78674,5.93988,0.0994917,-0.0257319,-0.416903,0
2024-12-13 15:24:20.033,-1.09651,2.82503,6.01406,0.0781121,-0.0348946,-0.411406,0
2024-12-13 15:24:20.038,-1.15155,2.88963,6.23181,0.038407,-0.0617719,-0.388804,0
2024-12-13 15:24:20.038,-1.15155,2.88963,6.23181,0.038407,-0.0617719,-0.388804,0
2024-12-13 15:24:20.040,-1.15155,2.92552,6.34666,0.0158057,-0.0800973,-0.380863,0
2024-12-13 15:24:20.042,-1.12522,2.95424,6.44716,-0.00374144,-0.10392,-0.370479,0
2024-12-13 15:24:20.045,-1.08933,2.9662,6.57667,-0.021456,-0.127743,-0.36376,0
2024-12-13 15:24:20.047,-1.03669,2.98295,6.73221,-0.0403923,-0.155842,-0.357651,0
2024-12-13 15:24:20.049,-0.962513,2.9997,6.88535,-0.0581068,-0.184552,-0.353375,0
2024-12-13 15:24:20.052,-0.890728,3.01167,7.04836,-0.0739889,-0.212651,-0.350321,0
2024-12-13 15:24:20.054,-0.813859,3.03559,7.235,-0.0917034,-0.241361,-0.347878,0
2024-12-13 15:24:20.057,-0.74686,3.05713,7.42403,-0.105753,-0.271293,-0.348488,0
2024-12-13 15:24:20.059,-0.694218,3.07867,7.62293,-0.105753,-0.271293,-0.348488,0
2024-12-13 15:24:20.061,-0.624826,3.11246,7.85743,-0.131409,-0.323215,-0.348488,0
2024-12-13 15:24:20.064,-0.54347,3.15075,8.12303,-0.138128,-0.350703,-0.350321,0
2024-12-13 15:24:20.066,-0.471685,3.17707,8.4009,-0.143015,-0.376358,-0.352764,0
2024-12-13 15:24:20.068,-0.402293,3.19861,8.6665,-0.144847,-0.39957,-0.356429,0
2024-12-13 15:24:20.071,-0.344866,3.24168,8.93719,-0.142404,-0.417285,-0.361316,0
2024-12-13 15:24:20.075,-0.318545,3.34457,9.46631,-0.133241,-0.437443,-0.371701,0
2024-12-13 15:24:20.075,-0.318545,3.34457,9.46631,-0.133241,-0.437443,-0.371701,0
2024-12-13 15:24:20.078,-0.352044,3.42592,9.74866,-0.120413,-0.44233,-0.377198,0
2024-12-13 15:24:20.080,-0.3999,3.51685,10.017,-0.105142,-0.438665,-0.381474,0
2024-12-13 15:24:20.082,-0.478864,3.62453,10.2778,-0.105142,-0.438665,-0.381474,0
2024-12-13 15:24:20.085,-0.588933,3.74208,10.5078,-0.0623828,-0.424004,-0.390026,0
2024-12-13 15:24:20.087,-0.718146,3.86411,10.6896,-0.037338,-0.411177,-0.390026,0
2024-12-13 15:24:20.090,-0.842872,3.98854,10.826,-0.0122933,-0.396516,-0.388193,0
2024-12-13 15:24:20.092,-0.986441,4.10578,10.905,0.010308,-0.380023,-0.385139,0
2024-12-13 15:24:20.094,-1.1348,4.2015,10.9337,0.0371853,-0.366585,-0.382085,0
2024-12-13 15:24:20.097,-1.28076,4.28315,10.9385,0.0371853,-0.366585,-0.382085,0
2024-12-13 15:24:20.099,-1.43181,4.33579,10.9146,0.0689494,-0.336653,-0.365592,0
2024-12-13 15:24:20.101,-1.57059,4.36929,10.8619,0.0775012,-0.323825,-0.353986,0
2024-12-13 15:24:20.104,-1.68066,4.41476,10.7973,0.082388,-0.314663,-0.339936,0
2024-12-13 15:24:20.108,-1.78594,4.46022,10.6705,0.0652843,-0.314052,-0.312448,0
2024-12-13 15:24:20.108,-1.78594,4.46022,10.6705,0.0652843,-0.314052,-0.312448,0
2024-12-13 15:24:20.111,-1.80748,4.47458,10.6202,0.0457372,-0.321993,-0.300231,0
2024-12-13 15:24:20.113,-1.8338,4.49133,10.5628,0.0231358,-0.32749,-0.285571,0
2024-12-13 15:24:20.115,-1.87687,4.52243,10.5341,-0.00923906,-0.337264,-0.270911,0
2024-12-13 15:24:20.118,-1.92712,4.54876,10.5365,-0.0440574,-0.347038,-0.255029,0
2024-12-13 15:24:20.120,-1.95344,4.57029,10.5604,-0.0862058,-0.357422,-0.237314,0
2024-12-13 15:24:20.122,-1.94387,4.60379,10.6179,-0.130187,-0.367196,-0.215935,0
2024-12-13 15:24:20.125,-1.89841,4.62293,10.7088,-0.180276,-0.37758,-0.196387,0
2024-12-13 15:24:20.127,-1.79791,4.62054,10.8547,-0.231587,-0.383688,-0.178062,0
2024-12-13 15:24:20.130,-1.65912,4.6014,11.0441,-0.281066,-0.391019,-0.159737,0
2024-12-13 15:24:20.132,-1.48684,4.55593,11.2522,-0.333599,-0.397127,-0.143855,0
2024-12-13 15:24:20.137,-1.12522,4.43629,11.7718,-0.435,-0.397127,-0.124918,0
2024-12-13 15:24:20.137,-1.12522,4.43629,11.7718,-0.435,-0.397127,-0.124918,0
2024-12-13 15:24:20.139,-0.931406,4.38365,12.0637,-0.484478,-0.397738,-0.117588,0
2024-12-13 15:24:20.141,-0.744467,4.3334,12.387,-0.530903,-0.394684,-0.116977,0
2024-12-13 15:24:20.144,-0.569791,4.31426,12.7199,-0.575494,-0.385521,-0.115756,0
2024-12-13 15:24:20.146,-0.395115,4.30469,13.0502,-0.618865,-0.373915,-0.11881,0
2024-12-13 15:24:20.148,-0.212961,4.28794,13.3639,-0.659791,-0.360476,-0.122475,0
2024-12-13 15:24:20.151,-0.0574277,4.29751,13.6893,-0.696442,-0.343983,-0.130416,0
2024-12-13 15:24:20.155,0.191426,4.29751,14.4126,-0.764857,-0.296948,-0.146298,0
2024-12-13 15:24:20.155,0.191426,4.29751,14.4126,-0.764857,-0.296948,-0.146298,0
2024-12-13 15:24:20.158,0.301795,4.29033,14.7858,-0.794789,-0.265184,-0.153628,0
2024-12-13 15:24:20.160,0.41665,4.26401,15.1594,-0.816168,-0.229755,-0.164012,0
2024-12-13 15:24:20.163,0.541077,4.24008,15.5498,-0.835105,-0.188828,-0.173175,0
2024-12-13 15:24:20.165,0.646361,4.20897,15.9254,-0.845489,-0.143015,-0.18417,0
2024-12-13 15:24:20.170,0.715753,4.15843,16.5793,-0.850376,-0.0397814,-0.204328,0
2024-12-13 15:24:20.172,0.720539,4.12493,16.864,-0.843656,0.0121406,-0.212269,0
2024-12-13 15:24:20.172,0.720539,4.12493,16.864,-0.843656,0.0121406,-0.212269,0
2024-12-13 15:24:20.174,0.722932,4.07707,17.1395,-0.835105,0.0634518,-0.2196,0
2024-12-13 15:24:20.177,0.718146,4.02204,17.3572,-0.81739,0.11293,-0.224486,0
2024-12-13 15:24:20.180,0.684646,3.96461,17.496,-0.777074,0.202114,-0.233649,0
2024-12-13 15:24:20.181,0.639183,3.90718,17.5846,-0.777074,0.202114,-0.233649,1
2024-12-13 15:24:20.184,0.581755,3.84257,17.6492,-0.756916,0.237543,-0.232427,0
2024-12-13 15:24:20.188,0.454935,3.699,17.6013,-0.712935,0.294963,-0.230595,0
2024-12-13 15:24:20.188,0.454935,3.699,17.6013,-0.712935,0.294963,-0.230595,0
2024-12-13 15:24:20.191,0.390329,3.64876,17.4984,-0.693999,0.315121,-0.22693,0
2024-12-13 15:24:20.193,0.325723,3.6006,17.3907,-0.675063,0.331003,-0.222654,0
2024-12-13 15:24:20.196,0.251246,3.54556,17.2424,-0.661624,0.3365,-0.216545,0
2024-12-13 15:24:20.198,0.167498,3.48096,17.0746,-0.652461,0.342609,-0.204939,0
2024-12-13 15:24:20.203,0.0526421,3.37807,16.7659,-0.642077,0.3365,-0.18356,0
2024-12-13 15:24:20.203,0.0526421,3.37807,16.7659,-0.642077,0.3365,-0.18356,0
2024-12-13 15:24:20.205,-0.00957129,3.34696,16.6247,-0.639023,0.332835,-0.16951,0
2024-12-13 15:24:20.207,-0.0574277,3.30628,16.5,-0.642077,0.323673,-0.156071,0
2024-12-13 15:24:20.210,-0.11007,3.25843,16.4139,-0.642688,0.313288,-0.138357,0
2024-12-13 15:24:20.212,-0.157926,3.22253,16.3349,-0.642077,0.305347,-0.122475,0
2024-12-13 15:24:20.214,-0.189033,3.17946,16.2918,-0.640244,0.296185,-0.104149,0
2024-12-13 15:24:20.217,-0.217747,3.13161,16.287,-0.640244,0.291298,-0.0864349,0
2024-12-13 15:24:20.219,-0.232104,3.1005,16.2727,-0.633525,0.288854,-0.0656661,0
2024-12-13 15:24:20.221,-0.244068,3.07149,16.2583,-0.626806,0.287022,-0.0455081,0
2024-12-13 15:24:20.224,-0.263211,3.02363,16.2583,-0.6152,0.288854,-0.0247393,0
2024-12-13 15:24:20.226,-0.299402,2.97817,16.2512,-0.600539,0.295574,-0.0051922,0
2024-12-13 15:24:20.231,-0.3999,2.96142,16.1339,-0.563278,0.320618,0.0387888,0
2024-12-13 15:24:20.231,-0.3999,2.96142,16.1339,-0.563278,0.320618,0.0387888,0
2024-12-13 15:24:20.236,-0.507577,2.93031,15.9951,-0.515021,0.35788,0.0888783,0
2024-12-13 15:24:20.236,-0.507577,2.93031,15.9951,-0.515021,0.35788,0.0888783,0
2024-12-13 15:24:20.238,-0.584148,2.93749,15.8895,-0.487532,0.37926,0.114534,0
2024-12-13 15:24:20.240,-0.660718,2.95185,15.7316,-0.455158,0.403694,0.142709,0
2024-12-13 15:24:20.245,-0.782752,2.94945,15.3796,-0.426448,0.428128,0.170197,0
2024-12-13 15:24:20.247,-0.862014,2.96381,15.1953,-0.365363,0.473941,0.228228,0
2024-12-13 15:24:20.247,-0.862014,2.96381,15.1953,-0.365363,0.473941,0.228228,0
2024-12-13 15:24:20.250,-0.936192,2.95902,14.9943,-0.331156,0.492877,0.259381,0
2024-12-13 15:24:20.252,-1.00558,2.96142,14.7954,-0.300002,0.509981,0.290534,0
2024-12-13 15:24:20.254,-1.08215,2.9686,14.6303,-0.266406,0.524641,0.322298,0
2024-12-13 15:24:20.259,-1.18265,2.96142,14.2256,-0.200434,0.547243,0.387048,0
2024-12-13 15:24:20.259,-1.18265,2.96142,14.2256,-0.200434,0.547243,0.387048,0
2024-12-13 15:24:20.261,-1.20419,2.97577,13.9648,-0.165616,0.55274,0.418812,0
2024-12-13 15:24:20.264,-1.22333,2.98535,13.7013,-0.132019,0.557627,0.454241,0
2024-12-13 15:24:20.269,-1.2664,2.98056,13.194,-0.0691021,0.55274,0.518991,0
2024-12-13 15:24:20.270,-1.2664,2.98056,13.194,-0.0403923,0.543578,0.551977,0
2024-12-13 15:24:20.271,-1.27119,2.97577,12.9425,-0.0403923,0.543578,0.551977,0
2024-12-13 15:24:20.273,-1.2664,2.99013,12.6769,-0.0116825,0.528307,0.586184,0
2024-12-13 15:24:20.276,-1.24247,2.98295,12.4158,0.0164165,0.512424,0.618559,0
2024-12-13 15:24:20.278,-1.19462,2.97099,12.1669,0.042683,0.492267,0.649102,0
2024-12-13 15:24:20.280,-1.1659,2.98535,11.9369,0.0683385,0.468443,0.679033,0
2024-12-13 15:24:20.283,-1.13958,2.9997,11.7168,0.0939941,0.440955,0.707743,0
2024-12-13 15:24:20.285,-1.09173,2.99731,11.4987,0.115374,0.40858,0.734009,0
2024-12-13 15:24:20.287,-1.04148,3.00927,11.2857,0.141029,0.371319,0.759665,0
2024-12-13 15:24:20.290,-1.00319,3.04517,11.0608,0.16302,0.332225,0.785321,0
2024-12-13 15:24:20.292,-0.97687,3.05474,10.8428,0.186232,0.293741,0.807922,0
2024-12-13 15:24:20.294,-0.919442,3.05713,10.637,0.205779,0.249149,0.829302,0
2024-12-13 15:24:20.297,-0.835394,3.07388,10.4216,0.227159,0.203947,0.847627,0
2024-12-13 15:24:20.299,-0.742074,3.07627,10.2156,0.241208,0.157522,0.86412,0
2024-12-13 15:24:20.301,-0.660718,3.0667,10.017,0.25709,0.111098,0.880613,0
2024-12-13 15:24:20.304,-0.572184,3.06192,9.8351,0.270529,0.0603975,0.890997,0
2024-12-13 15:24:20.306,-0.469292,3.0667,9.68405,0.282135,0.0121406,0.903825,0
2024-12-13 15:24:20.311,-0.287438,3.09093,9.41127,0.306569,-0.0825407,0.916653,0
2024-12-13 15:24:20.311,-0.287438,3.09093,9.41127,0.306569,-0.0825407,0.916653,0
2024-12-13 15:24:20.316,-0.0526421,3.06431,9.17169,0.328559,-0.170503,0.921539,0
2024-12-13 15:24:20.316,-0.0526421,3.06431,9.17169,0.328559,-0.170503,0.921539,0
2024-12-13 15:24:20.318,0.0574277,3.04277,9.06401,0.338333,-0.21143,0.920929,0
2024-12-13 15:24:20.320,0.160319,3.02602,8.97548,0.349328,-0.245026,0.917264,0
2024-12-13 15:24:20.325,0.383151,2.97338,8.82952,0.374449,-0.306722,0.906268,0
2024-12-13 15:24:20.325,0.383151,2.97338,8.82952,0.374449,-0.306722,0.906268,0
2024-12-13 15:24:20.327,0.471685,2.95185,8.73859,0.386055,-0.331156,0.896495,0
2024-12-13 15:24:20.330,0.569791,2.92552,8.66172,0.399494,-0.353146,0.883667,0
2024-12-13 15:24:20.334,0.749253,2.88963,8.49661,0.42515,-0.381856,0.8574,0
2024-12-13 15:24:20.334,0.749253,2.88963,8.49661,0.42515,-0.381856,0.8574,0
2024-12-13 15:24:20.337,0.837787,2.8657,8.41765,0.437367,-0.391629,0.837853,0
2024-12-13 15:24:20.339,0.914656,2.82024,8.32433,0.449584,-0.398349,0.818306,0
2024-12-13 15:24:20.344,0.969691,2.7676,8.09193,0.472185,-0.400792,0.778601,0
2024-12-13 15:24:20.344,0.998405,2.7676,8.09193,0.472185,-0.400792,0.778601,0
2024-12-13 15:24:20.346,1.01755,2.72931,7.95075,0.482569,-0.398349,0.759665,0
2024-12-13 15:24:20.349,1.05344,2.68864,7.81436,0.489289,-0.395295,0.738896,0
2024-12-13 15:24:20.353,1.0678,2.63121,7.52692,0.498451,-0.381856,0.694915,0
2024-12-13 15:24:20.353,1.0678,2.63121,7.52692,0.498451,-0.381856,0.694915,0
2024-12-13 15:24:20.356,1.0654,2.6001,7.39053,0.500895,-0.371471,0.674757,0
2024-12-13 15:24:20.358,1.05105,2.57139,7.25175,0.498451,-0.362309,0.650934,0
2024-12-13 15:24:20.360,1.0319,2.54746,7.11536,0.495397,-0.350092,0.628333,0
2024-12-13 15:24:20.363,1.0008,2.52592,6.98585,0.491121,-0.337264,0.606953,0
2024-12-13 15:24:20.365,0.967299,2.49212,6.84467,0.485013,-0.321382,0.587406,0
2024-12-13 15:24:20.367,0.926621,2.46341,6.71785,0.477072,-0.304278,0.567248,0
2024-12-13 15:24:20.370,0.876371,2.45623,6.61257,0.46852,-0.285342,0.547701,0
2024-12-13 15:24:20.372,0.825823,2.4323,6.5025,0.458135,-0.267627,0.530597,0
2024-12-13 15:24:20.377,0.684646,2.34616,6.29163,0.437367,-0.227312,0.498833,0
2024-12-13 15:24:20.377,0.684646,2.34616,6.29163,0.437367,-0.227312,0.498833,0
2024-12-13 15:24:20.379,0.629611,2.31266,6.19113,0.425761,-0.207154,0.484173,0
2024-12-13 15:24:20.382,0.553041,2.28395,6.08585,0.411711,-0.188828,0.471956,0
2024-12-13 15:24:20.386,0.3999,2.23131,5.88933,0.38239,-0.153399,0.451187,0
2024-12-13 15:24:20.389,0.3999,2.23131,5.88933,0.36521,-0.138739,0.442024,0
2024-12-13 15:24:20.389,0.330509,2.21934,5.79362,0.36521,-0.138739,0.442024,0
2024-12-13 15:24:20.391,0.256032,2.18584,5.70748,0.347496,-0.123468,0.434083,0
2024-12-13 15:24:20.393,0.184247,2.14756,5.62612,0.326727,-0.108196,0.427975,0
2024-12-13 15:24:20.396,0.11007,2.12124,5.54477,0.305958,-0.0923143,0.42431,0
2024-12-13 15:24:20.398,0.0287139,2.11406,5.50409,0.287633,-0.0764323,0.421256,0
2024-12-13 15:24:20.400,-0.0454636,2.11167,5.47777,0.267475,-0.0636045,0.420034,0
2024-12-13 15:24:20.403,-0.117248,2.09252,5.42991,0.24976,-0.0465007,0.420034,0
2024-12-13 15:24:20.405,-0.193819,2.07817,5.4012,0.230824,-0.0312296,0.421866,0
2024-12-13 15:24:20.407,-0.260818,2.07577,5.39402,0.212498,-0.0190126,0.425531,0
2024-12-13 15:24:20.410,-0.313759,2.07099,5.39402,0.196616,-0.00435229,0.429197,0
2024-12-13 15:24:20.412,-0.344866,2.05185,5.38684,0.182567,0.00481042,0.432862,0
2024-12-13 15:24:20.415,-0.373579,2.0327,5.38206,0.167907,0.0151948,0.436527,0
2024-12-13 15:24:20.417,-0.402293,1.9992,5.38684,0.167907,0.0151948,0.436527,0
2024-12-13 15:24:20.419,-0.407079,1.95344,5.39163,0.145305,0.0286335,0.446911,0
2024-12-13 15:24:20.422,-0.426222,1.92473,5.38206,0.132477,0.0322986,0.451187,0
2024-12-13 15:24:20.424,-0.454935,1.90319,5.35813,0.11965,0.0359636,0.454241,0
2024-12-13 15:24:20.429,-0.469292,1.85533,5.33181,0.0970484,0.0377962,0.460961,0
2024-12-13 15:24:20.429,-0.469292,1.85533,5.33181,0.0970484,0.0377962,0.460961,0
2024-12-13 15:24:20.433,-0.474078,1.82423,5.32433,0.0695602,0.0359636,0.471345,0
2024-12-13 15:24:20.433,-0.474078,1.82423,5.32433,0.0695602,0.0359636,0.471345,0
2024-12-13 15:24:20.436,-0.464507,1.81705,5.31476,0.0695602,0.0359636,0.471345,0
2024-12-13 15:24:20.438,-0.457328,1.80987,5.28844,0.0420721,0.0286335,0.481119,0
2024-12-13 15:24:20.440,-0.440578,1.80748,5.27647,0.0261901,0.0255792,0.484173,0
2024-12-13 15:24:20.443,-0.426222,1.80509,5.28365,0.010308,0.0213033,0.48967,0
2024-12-13 15:24:20.445,-0.421436,1.79791,5.28365,-0.00679568,0.0164165,0.493946,0
2024-12-13 15:24:20.448,-0.414257,1.78355,5.29322,-0.0232886,0.0121406,0.498833,0
2024-12-13 15:24:20.452,-0.364008,1.75484,5.37966,-0.0629936,0.00419957,0.509218,0
2024-12-13 15:24:20.452,-0.364008,1.75484,5.37966,-0.0629936,0.00419957,0.509218,0
2024-12-13 15:24:20.455,-0.328116,1.74287,5.43231,-0.0629936,0.00419957,0.509218,0
2024-12-13 15:24:20.459,-0.215354,1.71655,5.58305,-0.114916,-0.0141258,0.522045,0
2024-12-13 15:24:20.459,-0.215354,1.71655,5.58305,-0.114916,-0.0141258,0.522045,0
2024-12-13 15:24:20.462,-0.162712,1.70698,5.65723,-0.131409,-0.0202343,0.52571,0
2024-12-13 15:24:20.464,-0.102891,1.70459,5.74816,-0.131409,-0.0202343,0.52571,0
2024-12-13 15:24:20.466,-0.0454636,1.70698,5.8343,-0.165005,-0.0324513,0.529986,0
2024-12-13 15:24:20.469,0.00957129,1.70937,5.92792,-0.181498,-0.0361163,0.528765,0
2024-12-13 15:24:20.471,0.0646062,1.70698,6.04277,-0.193715,-0.0385597,0.530597,0
2024-12-13 15:24:20.474,0.136391,1.71416,6.16481,-0.208986,-0.0410031,0.531819,0
2024-12-13 15:24:20.476,0.217747,1.73809,6.30359,-0.219371,-0.0428357,0.528154,0
2024-12-13 15:24:20.478,0.275175,1.75244,6.45464,-0.227922,-0.0465007,0.527543,0
2024-12-13 15:24:20.481,0.347258,1.7668,6.57667,-0.237085,-0.0489441,0.5251,0
2024-12-13 15:24:20.483,0.423829,1.79073,6.69392,-0.243194,-0.0519984,0.522045,0
2024-12-13 15:24:20.485,0.483649,1.8003,6.8351,-0.248691,-0.0532201,0.517159,0
2024-12-13 15:24:20.488,0.557827,1.79791,6.99781,-0.253578,-0.0556635,0.512272,0
2024-12-13 15:24:20.490,0.622433,1.78594,7.17996,-0.253578,-0.0593285,0.506774,0
2024-12-13 15:24:20.492,0.689432,1.7668,7.35943,-0.253578,-0.0636045,0.499444,0
2024-12-13 15:24:20.495,0.751645,1.7668,7.52214,-0.24808,-0.065437,0.492114,0
2024-12-13 15:24:20.499,0.902692,1.73091,7.8359,-0.231587,-0.0660479,0.476232,0
2024-12-13 15:24:20.500,0.902692,1.73091,7.8359,-0.231587,-0.0660479,0.476232,0
2024-12-13 15:24:20.504,1.08933,1.76201,8.02732,-0.202267,-0.0636045,0.456685,0
2024-12-13 15:24:20.504,1.08933,1.76201,8.02732,-0.202267,-0.0636045,0.456685,0
2024-12-13 15:24:20.509,1.05583,1.85294,7.934,-0.195547,-0.041614,0.449965,0
2024-12-13 15:24:20.509,1.05583,1.85294,7.934,-0.195547,-0.041614,0.449965,0
2024-12-13 15:24:20.511,1.12762,1.79791,8.17837,-0.188828,-0.0104608,0.43897,0
2024-12-13 15:24:20.513,1.13001,1.71894,8.31954,-0.180887,-0.0232886,0.429807,0
2024-12-13 15:24:20.517,1.09412,1.64477,8.40569,-0.16867,-0.0556635,0.414536,0
2024-12-13 15:24:20.518,1.12044,1.5993,8.54447,-0.16867,-0.0556635,0.414536,0
2024-12-13 15:24:20.521,1.18744,1.57537,8.69283,-0.157064,-0.0648262,0.405374,0
2024-12-13 15:24:20.523,1.25683,1.5682,8.81516,-0.143625,-0.0697129,0.396822,0
2024-12-13 15:24:20.528,1.34776,1.57537,9.00898,-0.108807,-0.0526092,0.378496,0
2024-12-13 15:24:20.528,1.34776,1.57537,9.00898,-0.108807,-0.0526092,0.378496,0
2024-12-13 15:24:20.530,1.32144,1.5682,9.07119,-0.0886492,-0.0342838,0.371166,0
2024-12-13 15:24:20.532,1.26401,1.57059,9.10469,-0.0678804,-0.0141258,0.365058,0
2024-12-13 15:24:20.535,1.19701,1.57777,9.11665,-0.0471116,0.00908635,0.363225,0
2024-12-13 15:24:20.537,1.11565,1.57537,9.14297,-0.0269536,0.0329094,0.363836,0
2024-12-13 15:24:20.542,1.01276,1.5658,9.1669,0.0139731,0.0707819,0.368723,0
2024-12-13 15:24:20.542,1.01276,1.5658,9.1669,0.0139731,0.0707819,0.368723,0
2024-12-13 15:24:20.544,0.988834,1.56341,9.14537,0.0322986,0.0848314,0.374831,0
2024-12-13 15:24:20.546,0.962513,1.5682,9.10708,0.0494023,0.0994917,0.382772,0
2024-12-13 15:24:20.550,0.905085,1.56102,9.05923,0.0854423,0.136143,0.403541,0
2024-12-13 15:24:20.551,0.825823,1.5658,8.99941,0.0854423,0.136143,0.403541,0
2024-12-13 15:24:20.554,0.758824,1.57537,8.96351,0.101324,0.150192,0.413925,0
2024-12-13 15:24:20.556,0.73011,1.58016,8.92284,0.114152,0.162409,0.429807,0
2024-12-13 15:24:20.558,0.71336,1.59452,8.86541,0.12698,0.175848,0.443857,0
2024-12-13 15:24:20.563,0.73011,1.64237,8.76012,0.152635,0.210055,0.472567,0
2024-12-13 15:24:20.565,0.749253,1.68066,8.67368,0.163631,0.228381,0.486616,0
2024-12-13 15:24:20.565,0.749253,1.68066,8.67368,0.163631,0.228381,0.486616,0
2024-12-13 15:24:20.570,0.797109,1.75244,8.55643,0.180734,0.266864,0.514104,0
2024-12-13 15:24:20.570,0.797109,1.75244,8.55643,0.180734,0.266864,0.514104,0
2024-12-13 15:24:20.572,0.794716,1.78594,8.5014,0.186843,0.2858,0.526321,0
2024-12-13 15:24:20.575,0.797109,1.82423,8.44397,0.19173,0.301071,0.538538,0
2024-12-13 15:24:20.579,0.825823,1.85055,8.38894,0.19906,0.329781,0.556864,0
2024-12-13 15:24:20.579,0.878764,1.87208,8.38894,0.19906,0.329781,0.556864,0
2024-12-13 15:24:20.586,1.18505,1.9657,8.50379,0.217996,0.367654,0.56847,0
2024-12-13 15:24:20.586,1.18505,1.9657,8.50379,0.217996,0.367654,0.56847,0
2024-12-13 15:24:20.586,1.18505,1.9657,8.50379,0.217996,0.367654,0.56847,0
2024-12-13 15:24:20.589,1.25204,2.00877,8.48226,0.225326,0.388422,0.56847,0
2024-12-13 15:24:20.591,1.27837,2.02792,8.42483,0.234489,0.417132,0.567248,0
2024-12-13 15:24:20.594,1.29512,2.05663,8.39133,0.241819,0.445231,0.562361,0
2024-12-13 15:24:20.598,1.30708,2.11645,8.36501,0.264421,0.503262,0.553199,0
2024-12-13 15:24:20.598,1.30708,2.11645,8.36501,0.264421,0.503262,0.553199,0
2024-12-13 15:24:20.601,1.28554,2.14038,8.35065,0.274194,0.529528,0.550144,0
2024-12-13 15:24:20.603,1.28315,2.15952,8.32672,0.287633,0.547854,0.543425,0
2024-12-13 15:24:20.605,1.29751,2.15952,8.30758,0.298628,0.564957,0.538538,0
2024-12-13 15:24:20.608,1.30708,2.15952,8.27647,0.310845,0.574731,0.533041,0
2024-12-13 15:24:20.612,1.32861,2.17388,8.17119,0.338333,0.591835,0.523878,0
2024-12-13 15:24:20.612,1.32861,2.17388,8.17119,0.338333,0.591835,0.523878,0
2024-12-13 15:24:20.617,1.32622,2.14995,7.98904,0.366432,0.60283,0.517159,0
2024-12-13 15:24:20.617,1.33101,2.14995,7.98904,0.366432,0.60283,0.517159,0
2024-12-13 15:24:20.619,1.3334,2.15474,7.91964,0.379947,0.604662,0.515937,0
2024-12-13 15:24:20.622,1.32861,2.16192,7.8359,0.394607,0.604662,0.512883,0
2024-12-13 15:24:20.624,1.31426,2.17149,7.74736,0.406824,0.600997,0.510439,0
2024-12-13 15:24:20.627,1.30947,2.16909,7.6684,0.420263,0.596111,0.508607,0
2024-12-13 15:24:20.631,1.27119,2.20977,7.49582,0.43981,0.579618,0.50372,0
2024-12-13 15:24:20.631,1.27119,2.20977,7.49582,0.43981,0.579618,0.50372,0
2024-12-13 15:24:20.636,1.24726,2.22413,7.35464,0.455692,0.558849,0.501277,0
2024-12-13 15:24:20.636,1.2329,2.25045,7.35464,0.455692,0.558849,0.501277,0
2024-12-13 15:24:20.638,1.21137,2.30309,7.28046,0.459968,0.548464,0.501887,0
2024-12-13 15:24:20.641,1.18265,2.33181,7.21107,0.46852,0.53808,0.498833,0
2024-12-13 15:24:20.645,1.15394,2.35334,7.09143,0.474628,0.518533,0.499444,0
2024-12-13 15:24:20.646,1.12522,2.39402,7.09143,0.474628,0.518533,0.499444,0
2024-12-13 15:24:20.648,1.10608,2.42034,7.02204,0.477072,0.508759,0.497001,0
2024-12-13 15:24:20.650,1.1013,2.45863,6.96192,0.474017,0.497764,0.494557,0
2024-12-13 15:24:20.652,1.10608,2.5017,6.88295,0.467298,0.486158,0.490281,0
2024-12-13 15:24:20.655,1.12044,2.51605,6.81596,0.463022,0.476385,0.488449,0
2024-12-13 15:24:20.657,1.1324,2.54507,6.77049,0.455692,0.467222,0.483562,0
2024-12-13 15:24:20.660,1.14197,2.59053,6.72024,0.442253,0.458059,0.476843,0
2024-12-13 15:24:20.662,1.14915,2.62881,6.7011,0.424539,0.451951,0.468291,0
2024-12-13 15:24:20.664,1.14915,2.67906,6.71785,0.406824,0.448896,0.460961,0
2024-12-13 15:24:20.669,1.09173,2.79871,6.77528,0.363378,0.448896,0.441413,0
2024-12-13 15:24:20.669,1.09173,2.79871,6.77528,0.363378,0.448896,0.441413,0
2024-12-13 15:24:20.671,1.05344,2.87288,6.82553,0.342609,0.456227,0.429807,0
2024-12-13 15:24:20.674,1.02473,2.94706,6.9021,0.318175,0.469665,0.419423,0
2024-12-13 15:24:20.676,0.972084,3.0332,6.99063,0.294352,0.484936,0.41026,0
2024-12-13 15:24:20.678,0.878764,3.134,7.07946,0.271751,0.505094,0.401708,0
2024-12-13 15:24:20.681,0.770788,3.25843,7.2015,0.249149,0.527696,0.391935,0
2024-12-13 15:24:20.683,0.655932,3.39003,7.35225,0.224715,0.546632,0.385216,0
2024-12-13 15:24:20.688,0.366401,3.63889,7.62533,0.176459,0.576563,0.373609,0
2024-12-13 15:24:20.688,0.366401,3.63889,7.62533,0.176459,0.576563,0.373609,0
2024-12-13 15:24:20.690,0.222533,3.75404,7.75693,0.151414,0.579007,0.370555,0
2024-12-13 15:24:20.692,0.0885344,3.87368,7.8694,0.125147,0.571066,0.367501,0
2024-12-13 15:24:20.695,-0.0646062,3.96939,7.98186,0.0958267,0.554573,0.363836,0
2024-12-13 15:24:20.697,-0.217747,4.02443,8.07757,0.0634518,0.524641,0.361392,0
2024-12-13 15:24:20.700,-0.344866,4.03879,8.17598,0.0231358,0.486769,0.358949,0
2024-12-13 15:24:20.702,-0.454935,4.05075,8.3004,-0.0226777,0.442177,0.358949,0
2024-12-13 15:24:20.707,-0.536291,4.10578,8.63301,-0.116137,0.324894,0.355284,0
2024-12-13 15:24:20.707,-0.536291,4.10578,8.63301,-0.116137,0.324894,0.355284,0
2024-12-13 15:24:20.709,-0.519542,4.10818,8.86541,-0.171724,0.254647,0.353451,0
2024-12-13 15:24:20.711,-0.481256,4.10339,9.16212,-0.229755,0.175237,0.349176,0
2024-12-13 15:24:20.714,-0.414257,4.08425,9.51655,-0.287785,0.0884965,0.339402,0
2024-12-13 15:24:20.716,-0.304188,4.04596,9.88535,-0.348259,-0.00496313,0.327796,0
2024-12-13 15:24:20.718,-0.172283,3.99093,10.2634,-0.413009,-0.105142,0.316801,0
2024-12-13 15:24:20.721,-0.0334995,3.93111,10.6801,-0.473483,-0.205932,0.301529,0
2024-12-13 15:24:20.723,0.114855,3.88564,11.123,-0.537011,-0.307333,0.285037,0
2024-12-13 15:24:20.725,0.265603,3.84257,11.6019,-0.599317,-0.403236,0.264268,0
2024-12-13 15:24:20.728,0.447757,3.79232,12.1095,-0.65857,-0.49303,0.242888,0
2024-12-13 15:24:20.730,0.665504,3.75883,12.6482,-0.715379,-0.573051,0.214789,0
2024-12-13 15:24:20.733,0.893121,3.72533,13.218,-0.768522,-0.640244,0.18669,0
2024-12-13 15:24:20.735,1.1324,3.67268,13.7782,-0.816779,-0.690334,0.154315,0
2024-12-13 15:24:20.737,1.38126,3.61735,14.3264,-0.861371,-0.722709,0.118199,0
2024-12-13 15:24:20.741,1.6017,3.57906,14.8576,-0.933451,-0.733093,0.038178,0
2024-12-13 15:24:20.742,1.79551,3.54317,15.3915,-0.933451,-0.733093,0.038178,0
2024-12-13 15:24:20.744,1.98963,3.49053,15.935,-0.959107,-0.709881,-0.0064139,0
2024-12-13 15:24:20.747,2.16431,3.41635,16.4498,-0.985984,-0.675673,-0.0503949,0
2024-12-13 15:24:20.749,2.31266,3.335,16.9478,-1.00736,-0.624362,-0.0986518,0
2024-12-13 15:24:20.754,2.50887,3.15075,17.8241,-1.02691,-0.489365,-0.194555,0
2024-12-13 15:24:20.754,2.50887,3.15075,17.8241,-1.02691,-0.489365,-0.194555,0
2024-12-13 15:24:20.758,2.53071,2.91835,18.5327,-1.02325,-0.307333,-0.286793,0
2024-12-13 15:24:20.758,2.53071,2.91835,18.5327,-1.02325,-0.307333,-0.286793,0
2024-12-13 15:24:20.761,2.45384,2.8011,18.801,-1.01592,-0.205932,-0.329552,0
2024-12-13 15:24:20.763,2.32463,2.69103,18.9853,-1.00064,-0.0929251,-0.367425,0
2024-12-13 15:24:20.765,2.14756,2.57139,19.1097,-0.979264,0.0188599,-0.399189,0
2024-12-13 15:24:20.768,1.89601,2.46102,19.1671,-0.958496,0.134921,-0.424844,1
2024-12-13 15:24:20.773,1.61605,2.24566,19.1264,-0.916347,0.345052,-0.453554,0
2024-12-13 15:24:20.773,1.35015,2.24566,19.1264,-0.916347,0.345052,-0.453554,0
2024-12-13 15:24:20.775,1.08455,2.17388,19.057,-0.891303,0.436679,-0.458441,0
2024-12-13 15:24:20.777,0.797109,2.13081,18.947,-0.868701,0.517922,-0.453554,0
2024-12-13 15:24:20.780,0.478864,2.09731,18.7768,-0.850987,0.587559,-0.44317,0
2024-12-13 15:24:20.782,0.177069,2.06381,18.583,-0.832661,0.643146,-0.427288,0
2024-12-13 15:24:20.787,-0.349651,2.06142,18.2237,-0.809449,0.704307,-0.379031,0
2024-12-13 15:24:20.787,-0.349651,2.06142,18.2237,-0.809449,0.704307,-0.379031,0
2024-12-13 15:24:20.789,-0.598505,2.0686,18.0443,-0.803951,0.709194,-0.350321,0
2024-12-13 15:24:20.791,-0.830609,2.08535,17.9103,-0.802119,0.695679,-0.318557,0
2024-12-13 15:24:20.796,-1.05823,2.08535,17.7476,-0.809449,0.629096,-0.248309,0
2024-12-13 15:24:20.797,-1.05823,2.08535,17.7476,-0.815557,0.582061,-0.213491,0
2024-12-13 15:24:20.798,-1.09651,2.08056,17.6758,-0.815557,0.582061,-0.213491,0
2024-12-13 15:24:20.801,-1.08455,2.0686,17.6492,-0.819833,0.526474,-0.179284,0
2024-12-13 15:24:20.803,-0.991227,2.05663,17.683,-0.823498,0.466,-0.148741,0
2024-12-13 15:24:20.806,-0.888335,2.03031,17.7476,-0.82472,0.404915,-0.123697,0
2024-12-13 15:24:20.808,-0.833001,2.04227,17.8122,-0.825331,0.341387,-0.0998735,0
2024-12-13 15:24:20.810,-0.761217,2.07338,17.8863,-0.826553,0.287022,-0.0815481,0
2024-12-13 15:24:20.813,-0.655932,2.08295,18.0012,-0.81739,0.239376,-0.0650552,0
2024-12-13 15:24:20.815,-0.533899,2.0997,18.1472,-0.807006,0.19906,-0.0522274,0
2024-12-13 15:24:20.817,-0.397508,2.11884,18.3006,-0.791124,0.166685,-0.0430647,0
2024-12-13 15:24:20.820,-0.265603,2.11884,18.4442,-0.768522,0.144694,-0.0375671,0
2024-12-13 15:24:20.824,0.0382852,2.04706,18.6165,-0.713546,0.12698,-0.0326803,0
2024-12-13 15:24:20.824,0.0382852,2.04706,18.6165,-0.713546,0.12698,-0.0326803,0
2024-12-13 15:24:20.829,0.349651,1.88883,18.6715,-0.635357,0.145916,-0.0357346,0
2024-12-13 15:24:20.829,0.349651,1.88883,18.6715,-0.635357,0.145916,-0.0357346,0
2024-12-13 15:24:20.831,0.478864,1.79791,18.638,-0.592598,0.166685,-0.0393996,0
2024-12-13 15:24:20.834,0.569791,1.70459,18.5303,-0.546785,0.192951,-0.0424539,0
2024-12-13 15:24:20.836,0.605683,1.61605,18.3006,-0.502804,0.211888,-0.0442864,0
2024-12-13 15:24:20.839,0.610469,1.54188,18.0084,-0.465542,0.228991,-0.0406213,0
2024-12-13 15:24:20.841,0.576969,1.48923,17.7093,-0.424615,0.25648,-0.038178,0
2024-12-13 15:24:20.843,0.521934,1.44616,17.4123,-0.382467,0.29985,-0.0308478,0
2024-12-13 15:24:20.848,0.366401,1.47488,16.8616,-0.294505,0.396974,-0.0131332,0
2024-12-13 15:24:20.848,0.366401,1.47488,16.8616,-0.294505,0.396974,-0.0131332,0
2024-12-13 15:24:20.850,0.246461,1.50838,16.596,-0.247469,0.43729,0.000916271,0
2024-12-13 15:24:20.853,0.0981057,1.55384,16.3349,-0.201045,0.471498,0.0174091,0
2024-12-13 15:24:20.855,-0.0693919,1.60409,16.0693,-0.155232,0.498986,0.0345129,0
2024-12-13 15:24:20.857,-0.246461,1.66869,15.7675,-0.105753,0.522198,0.05406,0
2024-12-13 15:24:20.860,-0.3999,1.72134,15.425,-0.057496,0.543578,0.0772722,0
2024-12-13 15:24:20.862,-0.548256,1.75962,15.0709,-0.00862822,0.56679,0.102317,0
2024-12-13 15:24:20.864,-0.672682,1.79073,14.7308,0.042683,0.593667,0.129805,0
2024-12-13 15:24:20.867,-0.756431,1.81705,14.3862,0.0952158,0.61749,0.160424,0
2024-12-13 15:24:20.869,-0.816252,1.8673,14.0175,0.147138,0.640092,0.190355,0
2024-12-13 15:24:20.871,-0.869193,1.93191,13.6534,0.197838,0.661471,0.219065,0
2024-12-13 15:24:20.874,-0.924228,1.97528,13.3185,0.197838,0.661471,0.219065,0
2024-12-13 15:24:20.876,-0.955334,2.00638,13.0023,0.305347,0.708583,0.281372,0
2024-12-13 15:24:20.879,-0.955334,2.05185,12.6888,0.358491,0.731184,0.309471,0
2024-12-13 15:24:20.881,-0.940978,2.10927,12.387,0.412933,0.75684,0.336348,0
2024-12-13 15:24:20.883,-0.914656,2.14995,12.0688,0.46852,0.777609,0.360782,0
2024-12-13 15:24:20.886,-0.895514,2.18345,11.7263,0.521053,0.793491,0.382772,0
2024-12-13 15:24:20.888,-0.873978,2.22891,11.3575,0.56992,0.796545,0.398654,0
2024-12-13 15:24:20.891,-0.845265,2.27199,10.9651,0.61268,0.795934,0.413925,0
2024-12-13 15:24:20.895,-0.775574,2.33659,10.1366,0.682927,0.775165,0.431029,0
2024-12-13 15:24:20.895,-0.775574,2.33659,10.1366,0.682927,0.775165,0.431029,0
2024-12-13 15:24:20.897,-0.725324,2.37727,9.71994,0.707972,0.758061,0.434083,0
2024-12-13 15:24:20.900,-0.691825,2.42513,9.31556,0.728741,0.738514,0.434694,0
2024-12-13 15:24:20.902,-0.655932,2.48734,8.91805,0.741569,0.71408,0.434083,0
2024-12-13 15:24:20.904,-0.608076,2.53789,8.52054,0.750731,0.685905,0.427364,0
2024-12-13 15:24:20.907,-0.56022,2.59532,8.15683,0.751342,0.655974,0.420034,0
2024-12-13 15:24:20.909,-0.519542,2.66949,7.8335,0.745844,0.623599,0.407817,0
2024-12-13 15:24:20.912,-0.4669,2.72213,7.5341,0.739736,0.591835,0.393157,0
2024-12-13 15:24:20.914,-0.428614,2.77717,7.26132,0.725076,0.558849,0.376053,0
2024-12-13 15:24:20.919,-0.397508,2.89442,6.75374,0.707361,0.52342,0.357727,0
2024-12-13 15:24:20.921,-0.301795,2.94945,6.536,0.656661,0.448896,0.311914,0
2024-12-13 15:24:20.921,-0.301795,2.94945,6.536,0.656661,0.448896,0.311914,0
2024-12-13 15:24:20.923,-0.263211,2.98056,6.36581,0.626118,0.409191,0.286869,0
2024-12-13 15:24:20.928,-0.253639,3.04277,6.0667,0.558314,0.329781,0.233115,0
2024-12-13 15:24:20.930,-0.258425,3.05474,5.95903,0.522885,0.286411,0.203183,0
2024-12-13 15:24:20.930,-0.258425,3.05474,5.95903,0.522885,0.286411,0.203183,0
2024-12-13 15:24:20.933,-0.263211,3.04756,5.88933,0.483791,0.244263,0.173252,0
2024-12-13 15:24:20.935,-0.275175,3.06192,5.87258,0.447751,0.202725,0.14332,0
2024-12-13 15:24:20.937,-0.304188,3.07867,5.87976,0.409879,0.158744,0.112701,0
2024-12-13 15:24:20.940,-0.34008,3.08106,5.92553,0.372617,0.118428,0.0833807,0
2024-12-13 15:24:20.942,-0.378365,3.07867,6.00449,0.338944,0.0775012,0.0546708,0
2024-12-13 15:24:20.945,-0.435793,3.0667,6.11217,0.305958,0.0347419,0.0235176,0
2024-12-13 15:24:20.947,-0.486042,3.02842,6.24856,0.277248,-0.00435229,-0.0064139,0
2024-12-13 15:24:20.949,-0.533899,2.99492,6.39691,0.25648,-0.0403923,-0.0332912,0
2024-12-13 15:24:20.952,-0.593719,2.95185,6.55992,0.233267,-0.0721563,-0.0583359,0
2024-12-13 15:24:20.956,-0.696611,2.79153,6.95235,0.208223,-0.122857,-0.10476,0
2024-12-13 15:24:20.956,-0.696611,2.79153,6.95235,0.208223,-0.122857,-0.10476,0
2024-12-13 15:24:20.959,-0.770788,2.71017,7.14407,0.202725,-0.141182,-0.121253,0
2024-12-13 15:24:20.961,-0.842872,2.6336,7.31875,0.19906,-0.150345,-0.137746,0
2024-12-13 15:24:20.963,-0.912264,2.54985,7.48146,0.203336,-0.155842,-0.146909,0
2024-12-13 15:24:20.966,-0.97687,2.45145,7.60858,0.212498,-0.154621,-0.15485,0
2024-12-13 15:24:20.968,-1.05344,2.37966,7.68754,0.224715,-0.148512,-0.159126,0
2024-12-13 15:24:20.973,-1.21137,2.25045,7.81436,0.248538,-0.1253,-0.158515,0
2024-12-13 15:24:20.973,-1.21137,2.25045,7.81436,0.248538,-0.1253,-0.158515,0
2024-12-13 15:24:20.975,-1.29272,2.2002,7.90289,0.26381,-0.112472,-0.153017,0
2024-12-13 15:24:20.977,-1.37169,2.14756,7.98664,0.280913,-0.101477,-0.145076,0
2024-12-13 15:24:20.980,-1.40548,2.09731,8.02254,0.30046,-0.0837624,-0.135914,0
2024-12-13 15:24:20.982,-1.41506,2.04706,8.02732,0.318175,-0.0666587,-0.124307,0
2024-12-13 15:24:20.985,-1.43898,1.9992,8.01775,0.339555,-0.0452791,-0.11209,0
2024-12-13 15:24:20.989,-1.48923,1.92473,7.98186,0.379336,0.00603212,-0.0797156,0
2024-12-13 15:24:20.989,-1.48923,1.92473,7.98186,0.379336,0.00603212,-0.0797156,0
2024-12-13 15:24:20.992,-1.49641,1.91037,7.95554,0.397051,0.0329094,-0.0595576,0
2024-12-13 15:24:20.994,-1.49402,1.88883,7.92443,0.414765,0.0616192,-0.0442864,0
2024-12-13 15:24:20.999,-1.4677,1.91037,7.78804,0.444697,0.109265,-0.00885729,0
2024-12-13 15:24:21.001,-1.44616,1.91276,7.70908,0.458135,0.133088,0.0113007,0
2024-12-13 15:24:21.001,-1.44616,1.91276,7.70908,0.458135,0.133088,0.0113007,0
2024-12-13 15:24:21.003,-1.43898,1.93908,7.61336,0.466687,0.154468,0.0290152,0
2024-12-13 15:24:21.008,-1.41984,2.00638,7.38096,0.469131,0.176459,0.0473407,0
2024-12-13 15:24:21.010,-1.42941,2.03988,7.25653,0.469742,0.212498,0.0809373,0
2024-12-13 15:24:21.010,-1.42941,2.03988,7.25653,0.469742,0.212498,0.0809373,0
2024-12-13 15:24:21.013,-1.41266,2.07817,7.14168,0.463633,0.226548,0.0968193,0
2024-12-13 15:24:21.018,-1.43181,2.18345,6.98106,0.444697,0.236932,0.12614,0
2024-12-13 15:24:21.018,-1.43181,2.18345,6.98106,0.444697,0.236932,0.12614,0
2024-12-13 15:24:21.020,-1.42941,2.23849,6.94517,0.431869,0.236932,0.140266,0
2024-12-13 15:24:21.022,-1.41506,2.28873,6.93799,0.41782,0.229602,0.155537,0
2024-12-13 15:24:21.025,-1.4004,2.34377,6.92124,0.401937,0.218607,0.168365,0
2024-12-13 15:24:21.027,-1.4004,2.39163,6.8997,0.386666,0.203947,0.177527,0
2024-12-13 15:24:21.029,-1.39083,2.44905,6.86142,0.369563,0.189897,0.186079,0
2024-12-13 15:24:21.032,-1.36929,2.50887,6.84228,0.355437,0.169739,0.195242,0
2024-12-13 15:24:21.036,-1.30708,2.62642,6.8686,0.317564,0.125147,0.206848,0
2024-12-13 15:24:21.036,-1.30708,2.62642,6.8686,0.317564,0.125147,0.206848,0
2024-12-13 15:24:21.039,-1.25922,2.6671,6.87338,0.299239,0.0994917,0.208681,0
2024-12-13 15:24:21.041,-1.19701,2.72453,6.87817,0.279081,0.0738362,0.207459,0
2024-12-13 15:24:21.043,-1.11805,2.76999,6.8997,0.259534,0.0475697,0.205016,0
2024-12-13 15:24:21.046,-1.0343,2.79392,6.9332,0.238765,0.0219141,0.20074,0
2024-12-13 15:24:21.050,-0.905085,2.85613,6.98824,0.196616,-0.0226777,0.190966,0
2024-12-13 15:24:21.050,-0.905085,2.85613,6.98824,0.196616,-0.0226777,0.190966,0
2024-12-13 15:24:21.053,-0.835394,2.88724,7.01964,0.174015,-0.0446682,0.17936,0
2024-12-13 15:24:21.055,-0.787538,2.92792,7.06989,0.150192,-0.0672696,0.170197,0
2024-12-13 15:24:21.058,-0.742074,2.94467,7.12732,0.12698,-0.0910926,0.160424,0
2024-12-13 15:24:21.060,-0.701396,2.94227,7.19671,0.102546,-0.111861,0.150039,0
2024-12-13 15:24:21.062,-0.655932,2.94467,7.28286,0.0775012,-0.13263,0.136601,0
2024-12-13 15:24:21.065,-0.596112,2.96381,7.37617,0.050624,-0.151566,0.123086,0
2024-12-13 15:24:21.067,-0.533899,2.95902,7.47907,0.0286335,-0.16867,0.11148,0
2024-12-13 15:24:21.069,-0.471685,2.9327,7.57747,0.00603212,-0.183941,0.0955976,0
2024-12-13 15:24:21.072,-0.3999,2.92074,7.67797,-0.0147367,-0.198602,0.0809373,0
2024-12-13 15:24:21.074,-0.330509,2.9016,7.78804,-0.0330621,-0.212651,0.0650552,0
2024-12-13 15:24:21.076,-0.253639,2.87049,7.87179,-0.0562743,-0.226701,0.0479515,0
2024-12-13 15:24:21.079,-0.157926,2.84895,7.93161,-0.0764323,-0.237085,0.0296261,0
2024-12-13 15:24:21.081,-0.0550349,2.82263,7.97707,-0.0984228,-0.249913,0.010079,0
2024-12-13 15:24:21.083,0.0334995,2.78674,8.00339,-0.119802,-0.258465,-0.0106898,0
2024-12-13 15:24:21.086,0.119641,2.75803,8.02254,-0.143625,-0.268849,-0.0326803,0
2024-12-13 15:24:21.088,0.18664,2.7341,8.04168,-0.168059,-0.27679,-0.0577251,0
2024-12-13 15:24:21.091,0.229711,2.70778,8.07996,-0.196769,-0.283509,-0.0827698,0
2024-12-13 15:24:21.093,0.270389,2.66949,7.97947,-0.225479,-0.291451,-0.108425,0
2024-12-13 15:24:21.095,0.275175,2.6336,7.81436,-0.259076,-0.29817,-0.135303,0
2024-12-13 15:24:21.098,0.265603,2.62164,7.80479,-0.296948,-0.309165,-0.161569,0
2024-12-13 15:24:21.107,0.114855,2.65274,8.3028,-0.45699,-0.378802,-0.263581,0
2024-12-13 15:24:21.107,0.114855,2.65274,8.3028,-0.45699,-0.378802,-0.263581,0
2024-12-13 15:24:21.107,0.114855,2.65274,8.3028,-0.45699,-0.378802,-0.263581,0
2024-12-13 15:24:21.107,0.114855,2.65274,8.3028,-0.45699,-0.378802,-0.263581,0
2024-12-13 15:24:21.112,0.131605,2.69342,8.62822,-0.540065,-0.422783,-0.308783,0
2024-12-13 15:24:21.112,0.131605,2.69342,8.62822,-0.540065,-0.422783,-0.308783,0
2024-12-13 15:24:21.114,0.205783,2.68146,8.78405,-0.57916,-0.435,-0.334439,0
2024-12-13 15:24:21.116,0.294616,2.66471,8.9013,-0.613978,-0.438054,-0.361316,0
2024-12-13 15:24:21.119,0.361615,2.63599,9.04487,-0.646964,-0.433167,-0.386972,0
2024-12-13 15:24:21.121,0.419043,2.59292,9.24108,-0.675673,-0.416674,-0.41446,0
2024-12-13 15:24:21.124,0.464507,2.55224,9.45195,-0.701329,-0.394684,-0.443781,0
2024-12-13 15:24:21.126,0.486042,2.51605,9.6697,-0.722709,-0.370861,-0.470047,0
2024-12-13 15:24:21.128,0.474078,2.4682,9.88774,-0.739812,-0.34887,-0.496924,0
2024-12-13 15:24:21.131,0.447757,2.41555,10.1079,-0.753251,-0.329934,-0.523191,0
2024-12-13 15:24:21.133,0.409472,2.37248,10.3376,-0.760581,-0.313441,-0.549457,0
2024-12-13 15:24:21.135,0.344866,2.31745,10.5485,-0.764246,-0.293894,-0.576334,0
2024-12-13 15:24:21.138,0.287438,2.27438,10.7638,-0.761803,-0.278012,-0.600157,0
2024-12-13 15:24:21.140,0.224925,2.24566,10.9651,-0.758749,-0.257243,-0.62398,0
2024-12-13 15:24:21.142,0.12682,2.20499,11.135,-0.747753,-0.232198,-0.64536,0
2024-12-13 15:24:21.145,0.0191426,2.17149,11.2977,-0.731261,-0.210819,-0.664907,0
2024-12-13 15:24:21.147,-0.0765703,2.15234,11.4532,-0.70927,-0.180276,-0.6814,0
2024-12-13 15:24:21.149,-0.208176,2.13081,11.6163,-0.686058,-0.154621,-0.694228,0
2024-12-13 15:24:21.152,-0.347258,2.10688,11.767,-0.659791,-0.124078,-0.705834,0
