timestamp,accel_x,accel_y,accel_z,gyro_x,gyro_y,gyro_z,step_timestamp
2024-11-29 17:54:48.347,-0.193819,2.53071,9.75584,0.0129041,-0.0488678,-0.0737598,0
2024-11-29 17:54:48.347,-0.193819,2.53071,9.75584,0.0129041,-0.0488678,-0.0737598,0
2024-11-29 17:54:48.347,-0.193819,2.53071,9.75584,0.0129041,-0.0488678,-0.0737598,0
2024-11-29 17:54:48.347,-0.193819,2.53071,9.75584,0.0129041,-0.0488678,-0.0737598,0
2024-11-29 17:54:48.347,-0.193819,2.53071,9.75584,0.0129041,-0.0488678,-0.0737598,0
2024-11-29 17:54:48.347,-0.193819,2.53071,9.75584,0.0129041,-0.0488678,-0.0737598,0
2024-11-29 17:54:48.347,-0.193819,2.53071,9.75584,0.0129041,-0.0488678,-0.0737598,0
2024-11-29 17:54:48.347,-0.193819,2.53071,9.75584,0.0129041,-0.0488678,-0.0737598,0
2024-11-29 17:54:48.347,-0.193819,2.53071,9.75584,0.0129041,-0.0488678,-0.0737598,0
2024-11-29 17:54:48.347,-0.193819,2.53071,9.75584,0.0129041,-0.0488678,-0.0737598,0
2024-11-29 17:54:48.347,-0.193819,2.53071,9.75584,0.0129041,-0.0488678,-0.0737598,0
2024-11-29 17:54:48.347,-0.193819,2.53071,9.75584,0.0129041,-0.0488678,-0.0737598,0
2024-11-29 17:54:48.347,-0.193819,2.53071,9.75584,0.0129041,-0.0488678,-0.0737598,0
2024-11-29 17:54:48.347,-0.193819,2.53071,9.75584,0.0129041,-0.0488678,-0.0737598,0
2024-11-29 17:54:48.347,-0.193819,2.53071,9.75584,0.0129041,-0.0488678,-0.0737598,0
2024-11-29 17:54:48.347,-0.193819,2.53071,9.75584,0.0129041,-0.0488678,-0.0737598,0
2024-11-29 17:54:48.347,-0.193819,2.53071,9.75584,0.0129041,-0.0488678,-0.0737598,0
2024-11-29 17:54:48.347,-0.193819,2.53071,9.75584,0.0129041,-0.0488678,-0.0737598,0
2024-11-29 17:54:48.347,-0.193819,2.53071,9.75584,0.0129041,-0.0488678,-0.0737598,0
2024-11-29 17:54:48.347,-0.193819,2.53071,9.75584,0.0129041,-0.0488678,-0.0737598,0
2024-11-29 17:54:48.347,-0.193819,2.53071,9.75584,0.0129041,-0.0488678,-0.0737598,0
2024-11-29 17:54:48.347,-0.193819,2.53071,9.75584,0.0129041,-0.0488678,-0.0737598,0
2024-11-29 17:54:48.347,-0.193819,2.53071,9.75584,0.0129041,-0.0488678,-0.0737598,0
2024-11-29 17:54:48.347,-0.193819,2.53071,9.75584,0.0129041,-0.0488678,-0.0737598,0
2024-11-29 17:54:48.347,-0.193819,2.53071,9.75584,0.0129041,-0.0488678,-0.0737598,0
2024-11-29 17:54:48.347,-0.193819,2.53071,9.75584,0.0129041,-0.0488678,-0.0737598,0
2024-11-29 17:54:48.347,-0.193819,2.53071,9.75584,0.0129041,-0.0488678,-0.0737598,0
2024-11-29 17:54:48.347,-0.193819,2.53071,9.75584,0.0129041,-0.0488678,-0.0737598,0
2024-11-29 17:54:48.347,-0.193819,2.53071,9.75584,0.0129041,-0.0488678,-0.0737598,0
2024-11-29 17:54:48.348,-0.193819,2.53071,9.75584,0.0129041,-0.0488678,-0.0737598,0
2024-11-29 17:54:48.348,-0.193819,2.53071,9.75584,0.0129041,-0.0488678,-0.0737598,0
2024-11-29 17:54:48.348,-0.193819,2.53071,9.75584,0.0129041,-0.0488678,-0.0737598,0
2024-11-29 17:54:48.348,-0.193819,2.53071,9.75584,0.0129041,-0.0488678,-0.0737598,0
2024-11-29 17:54:48.348,-0.193819,2.53071,9.75584,0.0129041,-0.0488678,-0.0737598,0
2024-11-29 17:54:48.348,-0.193819,2.53071,9.75584,0.0129041,-0.0488678,-0.0737598,0
2024-11-29 17:54:48.348,-0.193819,2.53071,9.75584,0.0129041,-0.0488678,-0.0737598,0
2024-11-29 17:54:48.348,-0.193819,2.53071,9.75584,0.0129041,-0.0488678,-0.0737598,0
2024-11-29 17:54:48.348,-0.193819,2.53071,9.75584,0.0129041,-0.0488678,-0.0737598,0
2024-11-29 17:54:48.348,-0.193819,2.53071,9.75584,0.0129041,-0.0488678,-0.0737598,0
2024-11-29 17:54:48.348,-0.193819,2.53071,9.75584,0.0129041,-0.0488678,-0.0737598,0
2024-11-29 17:54:48.348,-0.193819,2.53071,9.75584,0.0129041,-0.0488678,-0.0737598,0
2024-11-29 17:54:48.348,-0.193819,2.53071,9.75584,0.0129041,-0.0488678,-0.0737598,0
2024-11-29 17:54:48.348,-0.193819,2.53071,9.75584,0.0129041,-0.0488678,-0.0737598,0
2024-11-29 17:54:48.348,-0.193819,2.53071,9.75584,0.0129041,-0.0488678,-0.0737598,0
2024-11-29 17:54:48.348,-0.193819,2.53071,9.75584,0.0129041,-0.0488678,-0.0737598,0
2024-11-29 17:54:48.348,-0.193819,2.53071,9.75584,0.0129041,-0.0488678,-0.0737598,0
2024-11-29 17:54:48.348,-0.193819,2.53071,9.75584,0.0129041,-0.0488678,-0.0737598,0
2024-11-29 17:54:48.348,-0.193819,2.53071,9.75584,0.0129041,-0.0488678,-0.0737598,0
2024-11-29 17:54:48.348,-0.193819,2.53071,9.75584,0.0129041,-0.0488678,-0.0737598,0
2024-11-29 17:54:48.348,-0.193819,2.53071,9.75584,0.0129041,-0.0488678,-0.0737598,0
2024-11-29 17:54:48.348,-0.193819,2.53071,9.75584,0.0129041,-0.0488678,-0.0737598,0
2024-11-29 17:54:48.348,-0.193819,2.53071,9.75584,0.0129041,-0.0488678,-0.0737598,0
2024-11-29 17:54:48.348,-0.193819,2.53071,9.75584,0.0129041,-0.0488678,-0.0737598,0
2024-11-29 17:54:48.348,-0.193819,2.53071,9.75584,0.0129041,-0.0488678,-0.0737598,0
2024-11-29 17:54:48.348,-0.193819,2.53071,9.75584,0.0129041,-0.0488678,-0.0737598,0
2024-11-29 17:54:48.348,-0.193819,2.53071,9.75584,0.0129041,-0.0488678,-0.0737598,0
2024-11-29 17:54:48.348,-0.193819,2.53071,9.75584,0.0129041,-0.0488678,-0.0737598,0
2024-11-29 17:54:48.348,-0.193819,2.53071,9.75584,0.0129041,-0.0488678,-0.0737598,0
2024-11-29 17:54:48.348,-0.193819,2.53071,9.75584,0.0129041,-0.0488678,-0.0737598,0
2024-11-29 17:54:48.356,-0.217747,2.51845,9.5357,0.0129041,-0.0488678,-0.0737598,0
2024-11-29 17:54:48.368,-0.177069,2.5666,9.38974,-0.0194708,-0.0128278,-0.0468825,0
2024-11-29 17:54:48.368,-0.177069,2.5666,9.38974,-0.0194708,-0.0128278,-0.0468825,0
2024-11-29 17:54:48.368,-0.177069,2.5666,9.38974,-0.0194708,-0.0128278,-0.0468825,0
2024-11-29 17:54:48.368,-0.177069,2.5666,9.38974,-0.0194708,-0.0128278,-0.0468825,0
2024-11-29 17:54:48.368,-0.177069,2.5666,9.38974,-0.0194708,-0.0128278,-0.0468825,0
2024-11-29 17:54:48.369,-0.177069,2.5666,9.38974,-0.0194708,-0.0128278,-0.0468825,0
2024-11-29 17:54:48.373,-0.114855,2.59771,9.38974,-0.0310769,-0.0128278,-0.0511585,0
2024-11-29 17:54:48.373,-0.114855,2.59771,9.38974,-0.0310769,-0.0128278,-0.0511585,0
2024-11-29 17:54:48.374,-0.114855,2.59771,9.38974,-0.0365745,-0.0152712,-0.0505476,0
2024-11-29 17:54:48.374,-0.114855,2.59771,9.38974,-0.0365745,-0.0152712,-0.0505476,0
2024-11-29 17:54:48.375,-0.105284,2.61685,9.39691,-0.0365745,-0.0152712,-0.0505476,0
2024-11-29 17:54:48.375,-0.105284,2.61685,9.39691,-0.0365745,-0.0152712,-0.0505476,0
2024-11-29 17:54:48.376,-0.105284,2.61685,9.39691,-0.0365745,-0.0152712,-0.0505476,0
2024-11-29 17:54:48.376,-0.105284,2.61685,9.39691,-0.0365745,-0.0152712,-0.0505476,0
2024-11-29 17:54:48.376,-0.105284,2.61685,9.39691,-0.0365745,-0.0152712,-0.0505476,0
2024-11-29 17:54:48.377,-0.0981057,2.60967,9.41845,-0.0365745,-0.0152712,-0.0505476,0
2024-11-29 17:54:48.380,-0.0765703,2.61207,9.42563,-0.042683,-0.0183254,-0.0554344,0
2024-11-29 17:54:48.380,-0.0765703,2.61207,9.42563,-0.042683,-0.0183254,-0.0554344,0
2024-11-29 17:54:48.381,-0.0765703,2.61207,9.42563,-0.042683,-0.0183254,-0.0554344,0
2024-11-29 17:54:48.381,-0.0765703,2.61207,9.42563,-0.042683,-0.0183254,-0.0554344,0
2024-11-29 17:54:48.381,-0.0765703,2.61207,9.42563,-0.042683,-0.0183254,-0.0554344,0
2024-11-29 17:54:48.381,-0.0765703,2.61207,9.42563,-0.042683,-0.0183254,-0.0554344,0
2024-11-29 17:54:48.381,-0.0765703,2.61207,9.42563,-0.042683,-0.0183254,-0.0554344,0
2024-11-29 17:54:48.381,-0.0765703,2.61207,9.42563,-0.042683,-0.0183254,-0.0554344,0
2024-11-29 17:54:48.384,-0.0334995,2.61207,9.48066,-0.0494023,-0.0256556,-0.0633754,0
2024-11-29 17:54:48.384,-0.0334995,2.61207,9.48066,-0.0494023,-0.0256556,-0.0633754,0
2024-11-29 17:54:48.385,-0.0334995,2.61207,9.48066,-0.0494023,-0.0256556,-0.0633754,0
2024-11-29 17:54:48.385,-0.0334995,2.61207,9.48066,-0.0494023,-0.0256556,-0.0633754,0
2024-11-29 17:54:48.389,-0.0143569,2.61924,9.52852,-0.0536782,-0.0335966,-0.076814,0
2024-11-29 17:54:48.389,-0.0143569,2.61924,9.52852,-0.0536782,-0.0335966,-0.076814,0
2024-11-29 17:54:48.390,-0.0143569,2.61924,9.52852,-0.0530674,-0.0354291,-0.0792574,0
2024-11-29 17:54:48.390,-0.0143569,2.61924,9.52852,-0.0530674,-0.0354291,-0.0792574,0
2024-11-29 17:54:48.390,-0.0143569,2.61924,9.52852,-0.0530674,-0.0354291,-0.0792574,0
2024-11-29 17:54:48.390,-0.0143569,2.61924,9.52852,-0.0530674,-0.0354291,-0.0792574,0
2024-11-29 17:54:48.391,-0.0167498,2.62164,9.54288,-0.0530674,-0.0354291,-0.0792574,0
2024-11-29 17:54:48.391,-0.0167498,2.62164,9.54288,-0.0530674,-0.0354291,-0.0792574,0
2024-11-29 17:54:48.391,-0.0167498,2.62164,9.54288,-0.0530674,-0.0354291,-0.0792574,0
2024-11-29 17:54:48.392,-0.0167498,2.62164,9.54288,-0.0530674,-0.0354291,-0.0792574,0
2024-11-29 17:54:48.394,-0.0239282,2.62403,9.56202,-0.0530674,-0.0397051,-0.0835334,0
2024-11-29 17:54:48.395,-0.0239282,2.62403,9.56202,-0.0536782,-0.043981,-0.0884201,0
2024-11-29 17:54:48.395,-0.0239282,2.62403,9.56202,-0.0536782,-0.043981,-0.0884201,0
2024-11-29 17:54:48.397,-0.0215354,2.63121,9.58834,-0.0536782,-0.043981,-0.0884201,0
2024-11-29 17:54:48.400,-0.0239282,2.62164,9.6003,-0.0530674,-0.0555871,-0.096972,0
2024-11-29 17:54:48.401,-0.0454636,2.61207,9.62184,-0.0530674,-0.0555871,-0.096972,0
2024-11-29 17:54:48.403,-0.0622134,2.60728,9.64577,-0.0500131,-0.0629173,-0.0994154,0
2024-11-29 17:54:48.407,-0.0598206,2.57857,9.65534,-0.050624,-0.0696366,-0.104913,0
2024-11-29 17:54:48.408,-0.066999,2.57378,9.67209,-0.0475697,-0.0775776,-0.104913,0
2024-11-29 17:54:48.410,-0.0933201,2.57139,9.69123,-0.0457372,-0.0849078,-0.105524,0
2024-11-29 17:54:48.413,-0.117248,2.56182,9.71994,-0.0469589,-0.0946813,-0.108578,0
2024-11-29 17:54:48.415,-0.138784,2.55703,9.73669,-0.0451263,-0.100179,-0.111021,0
2024-11-29 17:54:48.418,-0.172283,2.55464,9.75105,-0.0432938,-0.106287,-0.110411,0
2024-11-29 17:54:48.421,-0.200997,2.55942,9.77498,-0.038407,-0.120337,-0.111021,0
2024-11-29 17:54:48.423,-0.215354,2.56421,9.78934,-0.038407,-0.120337,-0.111021,0
2024-11-29 17:54:48.424,-0.222533,2.55224,9.81805,-0.0371853,-0.125224,-0.108578,0
2024-11-29 17:54:48.428,-0.222533,2.54985,9.8351,-0.0359636,-0.1295,-0.107967,0
2024-11-29 17:54:48.430,-0.227318,2.54746,9.83031,-0.0329094,-0.134386,-0.106746,0
2024-11-29 17:54:48.431,-0.229711,2.53549,9.83749,-0.0329094,-0.136219,-0.106135,0
2024-11-29 17:54:48.435,-0.217747,2.53549,9.86142,-0.030466,-0.138662,-0.101859,0
2024-11-29 17:54:48.436,-0.198604,2.53071,9.87817,-0.030466,-0.138662,-0.101859,0
2024-11-29 17:54:48.440,-0.196211,2.52323,9.88056,-0.0322986,-0.133776,-0.0963612,0
2024-11-29 17:54:48.442,-0.198604,2.52084,9.89013,-0.0316877,-0.131332,-0.0939178,0
2024-11-29 17:54:48.443,-0.189033,2.52084,9.88774,-0.0316877,-0.131332,-0.0939178,0
2024-11-29 17:54:48.446,-0.167498,2.51366,9.88296,-0.0335202,-0.13011,-0.0939178,0
2024-11-29 17:54:48.449,-0.155533,2.49452,9.90449,-0.0335202,-0.13011,-0.0939178,0
2024-11-29 17:54:48.451,-0.148355,2.48495,9.92124,-0.0341311,-0.125224,-0.089031,0
2024-11-29 17:54:48.454,-0.138784,2.47777,9.91885,-0.0414613,-0.120337,-0.0865876,0
2024-11-29 17:54:48.456,-0.122034,2.47537,9.92842,-0.0414613,-0.120337,-0.0865876,0
2024-11-29 17:54:48.461,-0.0765703,2.46102,9.96192,-0.0475697,-0.106287,-0.0792574,0
2024-11-29 17:54:48.461,-0.0765703,2.46102,9.96192,-0.0475697,-0.106287,-0.0792574,0
2024-11-29 17:54:48.462,-0.0693919,2.46102,9.97149,-0.0475697,-0.106287,-0.0792574,0
2024-11-29 17:54:48.465,-0.0526421,2.4682,9.98106,-0.0494023,-0.0995681,-0.0780357,0
2024-11-29 17:54:48.470,-0.0215354,2.46102,10.0026,-0.0536782,-0.0745234,-0.0713164,0
2024-11-29 17:54:48.470,-0.0215354,2.46102,10.0026,-0.0536782,-0.0745234,-0.0713164,0
2024-11-29 17:54:48.473,-0.0119641,2.4658,10.0122,-0.0536782,-0.0745234,-0.0713164,0
2024-11-29 17:54:48.475,-0.00478565,2.46102,10.0146,-0.0548999,-0.0537546,-0.068873,0
2024-11-29 17:54:48.477,0.0,2.46341,10.0122,-0.0555107,-0.0464244,-0.0670405,0
2024-11-29 17:54:48.480,0.00957129,2.47298,10.0098,-0.0555107,-0.0464244,-0.0670405,0
2024-11-29 17:54:48.482,0.0287139,2.49691,10.0026,-0.0555107,-0.0384834,-0.0676513,0
2024-11-29 17:54:48.483,0.0334995,2.50887,9.99542,-0.0573433,-0.0305424,-0.0670405,0
2024-11-29 17:54:48.486,0.0287139,2.50887,9.98585,-0.058565,-0.0232122,-0.0676513,0
2024-11-29 17:54:48.489,0.0430708,2.51845,9.98345,-0.0597867,-0.0109953,-0.0694839,0
2024-11-29 17:54:48.491,0.0598206,2.52832,9.98106,-0.0597867,-0.0109953,-0.0694839,0
2024-11-29 17:54:48.494,0.040678,2.54267,9.97388,-0.0616192,-0.00244339,-0.0725381,0
2024-11-29 17:54:48.496,0.0334995,2.56421,9.96192,-0.0616192,0.000610847,-0.0743707,0
2024-11-29 17:54:48.498,0.0311067,2.57378,9.95713,-0.0616192,0.000610847,-0.0743707,0
2024-11-29 17:54:48.501,0.0167498,2.57139,9.95953,-0.0591758,0.00671932,-0.0762032,0
2024-11-29 17:54:48.503,-0.00478565,2.56421,9.95953,-0.0573433,0.00610847,-0.0774249,0
2024-11-29 17:54:48.506,-0.0239282,2.56182,9.97149,-0.0573433,0.00610847,-0.0774249,0
2024-11-29 17:54:48.508,-0.0334995,2.57617,9.97149,-0.0542891,0.00733017,-0.0804791,0
2024-11-29 17:54:48.509,-0.0382852,2.58096,9.9691,-0.0512348,0.00488678,-0.0792574,0
2024-11-29 17:54:48.512,-0.0430708,2.56899,9.96192,-0.0451263,0.00366508,-0.0817008,0
2024-11-29 17:54:48.514,-0.0502493,2.56182,9.95953,-0.042683,0.00122169,-0.0835334,0
2024-11-29 17:54:48.516,-0.0478565,2.55703,9.95235,-0.0359636,-0.00183254,-0.0841442,0
2024-11-29 17:54:48.519,-0.0430708,2.53789,9.93081,-0.0310769,-0.00671932,-0.0847551,0
2024-11-29 17:54:48.522,-0.0334995,2.51845,9.91406,-0.0206925,-0.015882,-0.0841442,0
2024-11-29 17:54:48.523,-0.0358923,2.5017,9.89492,-0.0206925,-0.015882,-0.0841442,0
2024-11-29 17:54:48.527,-0.0430708,2.47059,9.87338,-0.0164165,-0.0219905,-0.0853659,0
2024-11-29 17:54:48.528,-0.0550349,2.46341,9.84706,-0.0139731,-0.0274881,-0.0847551,0
2024-11-29 17:54:48.530,-0.0598206,2.47298,9.82553,-0.00725381,-0.0323749,-0.0853659,0
2024-11-29 17:54:48.533,-0.0693919,2.47298,9.81326,-0.00236703,-0.0335966,-0.0841442,0
2024-11-29 17:54:48.535,-0.081356,2.48016,9.79891,0.000687203,-0.0378725,-0.0823117,0
2024-11-29 17:54:48.537,-0.0981057,2.49212,9.7678,0.00557398,-0.0372617,-0.0823117,0
2024-11-29 17:54:48.540,-0.117248,2.4993,9.74627,0.0116825,-0.0384834,-0.0798683,0
2024-11-29 17:54:48.543,-0.136391,2.5017,9.72473,0.0190126,-0.03604,-0.0743707,0
2024-11-29 17:54:48.546,-0.12682,2.5017,9.69841,0.0257319,-0.0317641,-0.0664296,0
2024-11-29 17:54:48.548,-0.11007,2.50648,9.66012,0.0257319,-0.0317641,-0.0664296,0
2024-11-29 17:54:48.550,-0.114855,2.51366,9.61227,0.0318404,-0.023823,-0.0597103,0
2024-11-29 17:54:48.553,-0.0957129,2.51605,9.57638,0.033673,-0.0171037,-0.0554344,0
2024-11-29 17:54:48.555,-0.0789631,2.52592,9.52613,0.0348946,-0.0140495,-0.0523802,0
2024-11-29 17:54:48.559,-0.0239282,2.52592,9.38495,0.0324513,-0.00733017,-0.0493259,0
2024-11-29 17:54:48.559,-0.0239282,2.52592,9.38495,0.0324513,-0.00733017,-0.0493259,0
2024-11-29 17:54:48.563,-0.00957129,2.53071,9.28684,0.0275645,0.00671932,-0.0462717,0
2024-11-29 17:54:48.564,0.0119641,2.53071,9.28684,0.0275645,0.00671932,-0.0462717,0
2024-11-29 17:54:48.567,0.040678,2.55464,9.23151,0.021456,0.0116061,-0.0462717,0
2024-11-29 17:54:48.568,0.066999,2.55224,9.17169,0.0165692,0.0177146,-0.0462717,0
2024-11-29 17:54:48.571,0.0837488,2.56182,9.12144,0.00801737,0.0262664,-0.0432174,0
2024-11-29 17:54:48.574,0.102891,2.59292,9.08315,-0.00847551,0.0421485,-0.0456608,0
2024-11-29 17:54:48.575,0.122034,2.61207,9.03769,-0.00847551,0.0421485,-0.0456608,0
2024-11-29 17:54:48.578,0.136391,2.60728,9.0018,-0.0158057,0.0452027,-0.0456608,0
2024-11-29 17:54:48.582,0.141177,2.61207,8.9683,-0.0359636,0.0549763,-0.0499368,0
2024-11-29 17:54:48.583,0.138784,2.61685,8.93959,-0.0359636,0.0549763,-0.0499368,0
2024-11-29 17:54:48.588,0.136391,2.61207,8.89891,-0.0677277,0.0592522,-0.0548235,0
2024-11-29 17:54:48.588,0.129212,2.61207,8.89891,-0.0677277,0.0592522,-0.0548235,0
2024-11-29 17:54:48.590,0.12682,2.61207,8.87737,-0.0775012,0.0586413,-0.0554344,0
2024-11-29 17:54:48.593,0.11007,2.61685,8.88216,-0.090329,0.0549763,-0.0554344,0
2024-11-29 17:54:48.596,0.0837488,2.59053,8.89891,-0.0988809,0.0488678,-0.0560452,0
2024-11-29 17:54:48.596,0.0837488,2.59053,8.89891,-0.0988809,0.0488678,-0.0560452,0
2024-11-29 17:54:48.600,0.0837488,2.60728,8.91805,-0.117817,0.03604,-0.0566561,0
2024-11-29 17:54:48.602,0.0765703,2.60728,8.94676,-0.117817,0.03604,-0.0566561,0
2024-11-29 17:54:48.603,0.0693919,2.59771,8.97548,-0.125147,0.0274881,-0.0566561,0
2024-11-29 17:54:48.607,0.0861416,2.60489,8.99462,-0.144084,0.0128278,-0.0572669,0
2024-11-29 17:54:48.609,0.153141,2.60489,9.03291,-0.154468,0.00305424,-0.0590995,0
2024-11-29 17:54:48.611,0.208176,2.6001,9.08794,-0.154468,0.00305424,-0.0590995,0
2024-11-29 17:54:48.614,0.267996,2.60249,9.15733,-0.159966,-0.00366508,-0.0627646,0
2024-11-29 17:54:48.615,0.320937,2.62642,9.21476,-0.166074,-0.0116061,-0.0664296,0
2024-11-29 17:54:48.619,0.359223,2.65992,9.25305,-0.175237,-0.0207688,-0.0774249,0
2024-11-29 17:54:48.621,0.380758,2.68864,9.32513,-0.175237,-0.0207688,-0.0774249,0
2024-11-29 17:54:48.622,0.3999,2.71496,9.39931,-0.176459,-0.0262664,-0.0847551,0
2024-11-29 17:54:48.626,0.442971,2.71496,9.44716,-0.17768,-0.03604,-0.0975828,0
2024-11-29 17:54:48.628,0.464507,2.70299,9.5022,-0.179513,-0.0409268,-0.106746,0
2024-11-29 17:54:48.630,0.483649,2.70299,9.55005,-0.179513,-0.0409268,-0.106746,0
2024-11-29 17:54:48.634,0.500399,2.65514,9.61945,-0.17768,-0.0549763,-0.12446,0
2024-11-29 17:54:48.636,0.519542,2.64317,9.65534,-0.175848,-0.0623064,-0.134234,0
2024-11-29 17:54:48.637,0.519542,2.64317,9.65534,-0.175848,-0.0623064,-0.134234,0
2024-11-29 17:54:48.639,0.548256,2.61685,9.66252,-0.176459,-0.0696366,-0.144618,0
2024-11-29 17:54:48.642,0.567398,2.58814,9.67209,-0.17768,-0.0775776,-0.154392,0
2024-11-29 17:54:48.643,0.569791,2.5666,9.69602,-0.17768,-0.0836861,-0.163554,0
2024-11-29 17:54:48.648,0.519542,2.5331,9.72234,-0.180124,-0.0946813,-0.18188,0
2024-11-29 17:54:48.649,0.519542,2.5331,9.72234,-0.183178,-0.0989573,-0.187377,0
2024-11-29 17:54:48.652,0.469292,2.52323,9.74148,-0.183178,-0.0989573,-0.187377,0
2024-11-29 17:54:48.653,0.426222,2.5017,9.7678,-0.182567,-0.0995681,-0.192264,0
2024-11-29 17:54:48.656,0.385544,2.48016,9.77977,-0.183178,-0.10079,-0.197762,0
2024-11-29 17:54:48.659,0.342473,2.4658,9.79412,-0.183178,-0.10079,-0.197762,0
2024-11-29 17:54:48.660,0.304188,2.45863,9.82553,-0.183789,-0.0983464,-0.19654,0
2024-11-29 17:54:48.663,0.263211,2.44188,9.84706,-0.186232,-0.0952922,-0.194708,0
2024-11-29 17:54:48.665,0.224925,2.41555,9.87338,-0.186843,-0.0904054,-0.191042,0
2024-11-29 17:54:48.667,0.198604,2.4012,9.90688,-0.18501,-0.0842969,-0.186767,0
2024-11-29 17:54:48.669,0.174676,2.37966,9.92842,-0.186232,-0.0751342,-0.182491,0
2024-11-29 17:54:48.673,0.155533,2.34856,9.92363,-0.186843,-0.0555871,-0.169052,0
2024-11-29 17:54:48.675,0.133998,2.3342,9.92124,-0.185621,-0.043981,-0.161722,0
2024-11-29 17:54:48.677,0.112463,2.3342,9.9356,-0.185621,-0.043981,-0.161722,0
2024-11-29 17:54:48.680,0.102891,2.3342,9.9356,-0.187454,-0.0177146,-0.146451,0
2024-11-29 17:54:48.681,0.0885344,2.32223,9.91646,-0.187454,-0.0177146,-0.146451,0
2024-11-29 17:54:48.685,0.0789631,2.31745,9.91406,-0.189897,0.00488678,-0.126293,0
2024-11-29 17:54:48.686,0.0717847,2.32223,9.91646,-0.189897,0.00488678,-0.126293,0
2024-11-29 17:54:48.688,0.0741775,2.33898,9.9021,-0.193562,0.0183254,-0.117741,0
2024-11-29 17:54:48.692,0.0693919,2.35573,9.89013,-0.196616,0.0299315,-0.106746,0
2024-11-29 17:54:48.693,0.0550349,2.36531,9.88296,-0.196616,0.0299315,-0.106746,0
2024-11-29 17:54:48.695,0.0622134,2.37488,9.87338,-0.203336,0.0513112,-0.0859767,0
2024-11-29 17:54:48.699,0.0741775,2.39402,9.85424,-0.208223,0.0623064,-0.076814,0
2024-11-29 17:54:48.700,0.0933201,2.42991,9.84228,-0.214331,0.0726908,-0.0652079,0
2024-11-29 17:54:48.702,0.117248,2.45384,9.8351,-0.218607,0.0794101,-0.0536018,0
2024-11-29 17:54:48.706,0.143569,2.47298,9.83271,-0.222883,0.0885729,-0.04505,0
2024-11-29 17:54:48.707,0.181855,2.48495,9.83031,-0.229602,0.0934596,-0.037109,0
2024-11-29 17:54:48.710,0.222533,2.4993,9.83749,-0.238154,0.0971247,-0.029168,0
2024-11-29 17:54:48.713,0.267996,2.5331,9.84946,-0.243652,0.102011,-0.0230595,0
2024-11-29 17:54:48.714,0.318545,2.55464,9.84946,-0.247928,0.103844,-0.0163402,0
2024-11-29 17:54:48.717,0.344866,2.5666,9.86621,-0.252204,0.103233,-0.0114534,0
2024-11-29 17:54:48.720,0.361615,2.59771,9.89013,-0.257701,0.103844,-0.00167983,0
2024-11-29 17:54:48.722,0.383151,2.63599,9.90928,-0.262588,0.102622,0.00137441,0
2024-11-29 17:54:48.725,0.409472,2.67428,9.9356,-0.262588,0.102622,0.00137441,0
2024-11-29 17:54:48.726,0.438186,2.70299,9.94038,-0.262588,0.0995681,0.00626118,0
2024-11-29 17:54:48.729,0.483649,2.71974,9.94278,-0.264421,0.0916271,0.00687203,0
2024-11-29 17:54:48.732,0.529113,2.71974,9.95474,-0.26381,0.0696366,0.011148,0
2024-11-29 17:54:48.733,0.562612,2.72453,9.9667,-0.26381,0.0696366,0.011148,0
2024-11-29 17:54:48.736,0.600898,2.72692,9.97388,-0.266253,0.0543654,0.0117588,0
2024-11-29 17:54:48.739,0.629611,2.71496,9.97628,-0.269918,0.0348183,0.0105371,0
2024-11-29 17:54:48.743,0.65354,2.72931,9.99542,-0.271751,-0.000610847,0.0105371,0
2024-11-29 17:54:48.743,0.65354,2.72931,9.99542,-0.271751,-0.000610847,0.0105371,0
2024-11-29 17:54:48.745,0.639183,2.74367,10.0337,-0.273583,-0.0195471,0.00809373,0
2024-11-29 17:54:48.747,0.624826,2.75803,10.0792,-0.274805,-0.0390942,0.00626118,0
2024-11-29 17:54:48.750,0.612862,2.79631,10.1366,-0.276637,-0.0580305,0.00748288,0
2024-11-29 17:54:48.752,0.593719,2.81785,10.1868,-0.276637,-0.0763559,0.00870457,0
2024-11-29 17:54:48.755,0.586541,2.82263,10.2491,-0.271751,-0.106287,0.00931542,0
2024-11-29 17:54:48.757,0.600898,2.83699,10.3161,-0.271751,-0.106287,0.00931542,0
2024-11-29 17:54:48.760,0.605683,2.87049,10.3953,-0.264421,-0.12278,0.0129805,0
2024-11-29 17:54:48.762,0.624826,2.89681,10.4743,-0.264421,-0.12278,0.0129805,0
2024-11-29 17:54:48.765,0.663111,2.92552,10.5437,-0.25709,-0.127056,0.0135914,0
2024-11-29 17:54:48.767,0.689432,2.9662,10.6179,-0.239376,-0.125835,0.0142022,0
2024-11-29 17:54:48.769,0.701396,2.99013,10.6825,-0.228381,-0.121559,0.0142022,0
2024-11-29 17:54:48.772,0.71336,3.01167,10.7207,-0.216164,-0.114839,0.0160347,0
2024-11-29 17:54:48.775,0.703789,3.01406,10.7423,-0.203947,-0.107509,0.0123697,0
2024-11-29 17:54:48.775,0.703789,3.01406,10.7423,-0.203947,-0.107509,0.0123697,0
2024-11-29 17:54:48.778,0.71336,3.04038,10.7447,-0.191119,-0.0965139,0.0129805,0
2024-11-29 17:54:48.780,0.737288,3.05474,10.7495,-0.179513,-0.0873512,0.0123697,0
2024-11-29 17:54:48.786,0.758824,3.06909,10.6896,-0.156911,-0.0616956,0.00931542,0
2024-11-29 17:54:48.786,0.758824,3.06909,10.6896,-0.156911,-0.0616956,0.00931542,0
2024-11-29 17:54:48.790,0.744467,3.11246,10.6107,-0.137975,-0.0335966,0.0025961,0
2024-11-29 17:54:48.790,0.744467,3.11246,10.6107,-0.137975,-0.0335966,0.0025961,0
2024-11-29 17:54:48.793,0.718146,3.12921,10.5461,-0.119039,-0.000610847,-0.00595576,0
2024-11-29 17:54:48.795,0.670289,3.13639,10.4719,-0.111709,0.0109953,-0.00901,0
2024-11-29 17:54:48.798,0.632004,3.14836,10.3905,-0.1056,0.0268773,-0.0114534,0
2024-11-29 17:54:48.799,0.605683,3.16032,10.3089,-0.1056,0.0268773,-0.0114534,0
2024-11-29 17:54:48.802,0.576969,3.16511,10.2275,-0.101935,0.0397051,-0.0126751,0
2024-11-29 17:54:48.805,0.555434,3.17228,10.127,-0.0988809,0.0513112,-0.016951,0
2024-11-29 17:54:48.806,0.514756,3.17468,10.0313,-0.0970484,0.0623064,-0.016951,0
2024-11-29 17:54:48.809,0.474078,3.17228,9.94756,-0.094605,0.0702474,-0.0193944,0
2024-11-29 17:54:48.812,0.452543,3.1675,9.86381,-0.0964375,0.0812427,-0.0230595,0
2024-11-29 17:54:48.814,0.411865,3.17946,9.78455,-0.0964375,0.0812427,-0.0230595,0
2024-11-29 17:54:48.821,0.32333,3.19143,9.58834,-0.103157,0.0855186,-0.0261137,0
2024-11-29 17:54:48.822,0.30658,3.19621,9.56441,-0.103157,0.0855186,-0.0261137,0
2024-11-29 17:54:48.822,0.30658,3.19621,9.56441,-0.103157,0.0855186,-0.0261137,0
2024-11-29 17:54:48.825,0.289831,3.20818,9.51895,-0.104989,0.0836861,-0.0255029,0
2024-11-29 17:54:48.826,0.289831,3.20818,9.51895,-0.104989,0.0836861,-0.0255029,0
2024-11-29 17:54:48.828,0.260818,3.21775,9.49023,-0.106211,0.0733017,-0.0285571,0
2024-11-29 17:54:48.832,0.232104,3.23689,9.48545,-0.1056,0.0690257,-0.0316113,0
2024-11-29 17:54:48.833,0.232104,3.23689,9.48545,-0.1056,0.0690257,-0.0316113,0
2024-11-29 17:54:48.834,0.236889,3.24407,9.47827,-0.102546,0.0629173,-0.0352764,0
2024-11-29 17:54:48.837,0.232104,3.23689,9.48545,-0.0982701,0.0561979,-0.0358873,0
2024-11-29 17:54:48.840,0.227318,3.23928,9.47827,-0.094605,0.03604,-0.0432174,0
2024-11-29 17:54:48.841,0.234497,3.23211,9.4687,-0.094605,0.03604,-0.0432174,0
2024-11-29 17:54:48.844,0.251246,3.22971,9.48066,-0.0878856,0.0268773,-0.0474934,0
2024-11-29 17:54:48.847,0.265603,3.23211,9.49741,-0.0829989,0.0183254,-0.0517693,0
2024-11-29 17:54:48.848,0.260818,3.21775,9.51416,-0.0768904,0.0103844,-0.0584886,0
2024-11-29 17:54:48.851,0.263211,3.21296,9.5333,-0.0695602,-0.00183254,-0.0633754,0
2024-11-29 17:54:48.855,0.282652,3.17946,9.49981,-0.0542891,-0.0207688,-0.076814,0
2024-11-29 17:54:48.856,0.282652,3.17946,9.49981,-0.0542891,-0.0207688,-0.076814,0
2024-11-29 17:54:48.860,0.311366,3.16271,9.48784,-0.0371853,-0.0390942,-0.089031,0
2024-11-29 17:54:48.861,0.311366,3.16271,9.48784,-0.0371853,-0.0390942,-0.089031,0
2024-11-29 17:54:48.863,0.32333,3.14118,9.47109,-0.0268009,-0.0464244,-0.0963612,0
2024-11-29 17:54:48.865,0.328116,3.134,9.44716,-0.0206925,-0.0525329,-0.101859,0
2024-11-29 17:54:48.868,0.347258,3.11486,9.41845,-0.00603212,-0.0623064,-0.118352,0
2024-11-29 17:54:48.870,0.378365,3.08345,9.38734,-0.00603212,-0.0623064,-0.118352,0
2024-11-29 17:54:48.873,0.392722,3.05474,9.35624,0.00251974,-0.0751342,-0.133012,0
2024-11-29 17:54:48.875,0.402293,3.01645,9.32034,0.00679568,-0.0787993,-0.140342,0
2024-11-29 17:54:48.878,0.41665,2.98295,9.27727,0.00679568,-0.0836861,-0.150727,0
2024-11-29 17:54:48.879,0.426222,2.96142,9.24108,0.00679568,-0.0836861,-0.150727,0
2024-11-29 17:54:48.881,0.435793,2.94467,9.21237,0.00984991,-0.0849078,-0.159889,0
2024-11-29 17:54:48.885,0.435793,2.91835,9.16451,0.00618483,-0.0855186,-0.178215,0
2024-11-29 17:54:48.887,0.428614,2.88724,9.11426,0.00313059,-0.0818535,-0.186156,0
2024-11-29 17:54:48.889,0.426222,2.88006,9.09273,0.00313059,-0.0818535,-0.186156,0
2024-11-29 17:54:48.894,0.395115,2.88245,9.04248,-0.00419957,-0.0739125,-0.202649,0
2024-11-29 17:54:48.894,0.395115,2.88245,9.04248,-0.00419957,-0.0739125,-0.202649,0
2024-11-29 17:54:48.896,0.35683,2.87049,9.01855,-0.00847551,-0.0671932,-0.209368,0
2024-11-29 17:54:48.898,0.337687,2.85613,8.99941,-0.0121406,-0.059863,-0.219141,0
2024-11-29 17:54:48.900,0.320937,2.82981,8.97069,-0.0182491,-0.0513112,-0.227082,0
2024-11-29 17:54:48.903,0.294616,2.80828,8.94437,-0.0286335,-0.0427593,-0.230137,0
2024-11-29 17:54:48.906,0.27996,2.78913,8.92523,-0.0439046,-0.0250447,-0.24724,0
2024-11-29 17:54:48.908,0.275175,2.76999,8.89173,-0.0518457,-0.0146603,-0.252738,0
2024-11-29 17:54:48.912,0.246461,2.73649,8.83669,-0.0628409,-0.00549763,-0.262512,0
2024-11-29 17:54:48.913,0.246461,2.73649,8.83669,-0.0628409,-0.00549763,-0.262512,0
2024-11-29 17:54:48.915,0.232104,2.71496,8.81755,-0.0732253,0.00488678,-0.266177,0
2024-11-29 17:54:48.918,0.205783,2.68146,8.81516,-0.0842206,0.0128278,-0.274118,0
2024-11-29 17:54:48.919,0.179462,2.64796,8.82234,-0.0952158,0.0213797,-0.279615,0
2024-11-29 17:54:48.922,0.145962,2.61446,8.81755,-0.107433,0.0299315,-0.286335,0
2024-11-29 17:54:48.925,0.119641,2.60489,8.81516,-0.118428,0.0397051,-0.289389,0
2024-11-29 17:54:48.927,0.0981057,2.58574,8.83669,-0.14164,0.051922,-0.296719,0
2024-11-29 17:54:48.929,0.0909273,2.54985,8.84626,-0.14164,0.051922,-0.296719,0
2024-11-29 17:54:48.932,0.0933201,2.52832,8.84866,-0.14164,0.051922,-0.296719,0
2024-11-29 17:54:48.934,0.0765703,2.51366,8.87737,-0.161187,0.0586413,-0.300995,0
2024-11-29 17:54:48.937,0.0550349,2.48016,8.90848,-0.170961,0.0635281,-0.304049,0
2024-11-29 17:54:48.938,0.066999,2.45145,8.9348,-0.180734,0.0647498,-0.307714,0
2024-11-29 17:54:48.940,0.0765703,2.42991,8.95634,-0.188675,0.067804,-0.308936,0
2024-11-29 17:54:48.943,0.0646062,2.40838,8.98505,-0.194784,0.0684149,-0.310158,0
2024-11-29 17:54:48.946,0.066999,2.3988,9.02094,-0.209444,0.0714691,-0.313212,0
2024-11-29 17:54:48.947,0.0622134,2.39163,9.07119,-0.209444,0.0714691,-0.313212,0
2024-11-29 17:54:48.950,0.0502493,2.39163,9.12623,-0.21372,0.0745234,-0.315044,0
2024-11-29 17:54:48.952,0.0526421,2.38684,9.16451,-0.217996,0.0757451,-0.315044,0
2024-11-29 17:54:48.955,0.0574277,2.37248,9.22194,-0.22044,0.0757451,-0.316266,0
2024-11-29 17:54:48.959,0.0646062,2.34856,9.34666,-0.224105,0.07208,-0.316266,0
2024-11-29 17:54:48.960,0.0646062,2.34856,9.34666,-0.222272,0.07208,-0.317488,0
2024-11-29 17:54:48.961,0.0693919,2.34377,9.38256,-0.222272,0.07208,-0.317488,0
2024-11-29 17:54:48.965,0.0837488,2.34856,9.41845,-0.221661,0.0708583,-0.320542,0
2024-11-29 17:54:48.966,0.0789631,2.34856,9.45434,-0.219829,0.0702474,-0.31871,0
2024-11-29 17:54:48.970,0.081356,2.34138,9.47827,-0.214331,0.0714691,-0.31932,0
2024-11-29 17:54:48.972,0.0981057,2.33659,9.51177,-0.213109,0.0696366,-0.320542,0
2024-11-29 17:54:48.974,0.0909273,2.32702,9.54766,-0.208833,0.0690257,-0.320542,0
2024-11-29 17:54:48.979,0.0885344,2.30309,9.5668,-0.198449,0.0684149,-0.318099,0
2024-11-29 17:54:48.979,0.102891,2.30309,9.5668,-0.198449,0.0684149,-0.318099,0
2024-11-29 17:54:48.983,0.131605,2.28873,9.6003,-0.190508,0.0684149,-0.31932,0
2024-11-29 17:54:48.983,0.131605,2.28873,9.6003,-0.190508,0.0684149,-0.31932,0
2024-11-29 17:54:48.986,0.143569,2.26481,9.61705,-0.185621,0.0665824,-0.317488,0
2024-11-29 17:54:48.987,0.145962,2.26959,9.61705,-0.179513,0.064139,-0.317488,0
2024-11-29 17:54:48.991,0.138784,2.2672,9.61705,-0.175237,0.0629173,-0.31871,0
2024-11-29 17:54:48.993,0.143569,2.24327,9.62184,-0.17035,0.0659715,-0.316877,0
2024-11-29 17:54:48.995,0.148355,2.2337,9.61705,-0.17035,0.0659715,-0.316877,0
2024-11-29 17:54:48.998,0.145962,2.23849,9.62663,-0.166685,0.0684149,-0.316266,0
2024-11-29 17:54:49.002,0.133998,2.23131,9.60748,-0.159355,0.0787993,-0.316266,0
2024-11-29 17:54:49.003,0.133998,2.23131,9.60748,-0.159355,0.0787993,-0.316266,0
2024-11-29 17:54:49.004,0.112463,2.22413,9.59313,-0.156911,0.0836861,-0.313212,0
2024-11-29 17:54:49.006,0.0933201,2.22174,9.57398,-0.155079,0.0904054,-0.310158,0
2024-11-29 17:54:49.010,0.0885344,2.20977,9.5692,-0.150803,0.0995681,-0.308936,0
2024-11-29 17:54:49.012,0.0861416,2.19781,9.55723,-0.147749,0.107509,-0.30466,0
2024-11-29 17:54:49.014,0.0765703,2.20259,9.5333,-0.142862,0.124613,-0.296108,0
2024-11-29 17:54:49.017,0.0574277,2.20977,9.51416,-0.142862,0.124613,-0.296108,0
2024-11-29 17:54:49.021,0.0526421,2.20738,9.45195,-0.136143,0.147214,-0.289389,0
2024-11-29 17:54:49.021,0.0526421,2.20738,9.45195,-0.136143,0.147214,-0.289389,0
2024-11-29 17:54:49.023,0.040678,2.20499,9.41845,-0.133699,0.161875,-0.284502,0
2024-11-29 17:54:49.025,0.0239282,2.20259,9.38016,-0.131867,0.173481,-0.279615,0
2024-11-29 17:54:49.031,-0.0143569,2.22891,9.26531,-0.13431,0.206466,-0.266177,0
2024-11-29 17:54:49.031,-0.0143569,2.22891,9.26531,-0.13431,0.206466,-0.266177,0
2024-11-29 17:54:49.033,-0.00717847,2.21456,9.21715,-0.13431,0.206466,-0.266177,0
2024-11-29 17:54:49.035,0.00717847,2.20738,9.15494,-0.135532,0.211353,-0.261901,0
2024-11-29 17:54:49.038,0.0119641,2.21216,9.0999,-0.149581,0.221127,-0.256403,0
2024-11-29 17:54:49.040,0.00957129,2.22652,9.05444,-0.149581,0.221127,-0.256403,0
2024-11-29 17:54:49.042,-0.00957129,2.25045,9.01376,-0.156301,0.224181,-0.25396,0
2024-11-29 17:54:49.045,-0.0382852,2.28156,8.97548,-0.161798,0.226013,-0.249684,0
2024-11-29 17:54:49.046,-0.0717847,2.30788,8.94676,-0.169128,0.231511,-0.246019,0
2024-11-29 17:54:49.050,-0.100499,2.33898,8.94916,-0.176459,0.233955,-0.241132,0
2024-11-29 17:54:49.051,-0.136391,2.35095,8.97548,-0.181345,0.233955,-0.238078,0
2024-11-29 17:54:49.053,-0.155533,2.35813,8.99223,-0.189286,0.235176,-0.233191,0
2024-11-29 17:54:49.056,-0.165105,2.38923,9.00658,-0.194173,0.231511,-0.230137,0
2024-11-29 17:54:49.059,-0.18664,2.40598,9.04008,-0.200892,0.222959,-0.221585,0
2024-11-29 17:54:49.061,-0.18664,2.41555,9.07119,-0.200892,0.222959,-0.221585,0
2024-11-29 17:54:49.063,-0.191426,2.4323,9.09273,-0.203336,0.218072,-0.21792,0
2024-11-29 17:54:49.065,-0.212961,2.45145,9.12144,-0.205779,0.210131,-0.214255,0
2024-11-29 17:54:49.068,-0.217747,2.4658,9.15494,-0.20639,0.200969,-0.2112,0
2024-11-29 17:54:49.070,-0.208176,2.47298,9.19562,-0.20639,0.191195,-0.205703,0
2024-11-29 17:54:49.072,-0.212961,2.47537,9.2339,-0.205779,0.178367,-0.203259,0
2024-11-29 17:54:49.075,-0.22014,2.48016,9.27727,-0.203947,0.16554,-0.200205,0
2024-11-29 17:54:49.078,-0.246461,2.5017,9.33949,-0.204557,0.150268,-0.194708,0
2024-11-29 17:54:49.079,-0.272782,2.52832,9.41127,-0.202725,0.132554,-0.190432,0
2024-11-29 17:54:49.083,-0.287438,2.55464,9.49502,-0.193562,0.0983464,-0.182491,0
2024-11-29 17:54:49.085,-0.30658,2.57857,9.58834,-0.188675,0.0812427,-0.177604,0
2024-11-29 17:54:49.087,-0.313759,2.59292,9.69602,-0.188675,0.0812427,-0.177604,0
2024-11-29 17:54:49.089,-0.325723,2.58814,9.79173,-0.181345,0.0592522,-0.170885,0
2024-11-29 17:54:49.091,-0.325723,2.59292,9.88056,-0.173404,0.03604,-0.165998,0
2024-11-29 17:54:49.094,-0.301795,2.60967,9.97149,-0.173404,0.03604,-0.165998,0
2024-11-29 17:54:49.097,-0.289831,2.60728,10.0648,-0.158744,-0.00733017,-0.157446,0
2024-11-29 17:54:49.098,-0.258425,2.57857,10.1653,-0.158744,-0.00733017,-0.157446,0
2024-11-29 17:54:49.101,-0.215354,2.55942,10.2634,-0.136753,-0.0488678,-0.146451,0
2024-11-29 17:54:49.103,-0.184247,2.55464,10.3591,-0.128812,-0.0671932,-0.141564,0
2024-11-29 17:54:49.105,-0.145962,2.56182,10.4527,-0.119039,-0.0861295,-0.137899,0
2024-11-29 17:54:49.108,-0.141177,2.57378,10.5413,-0.111098,-0.0983464,-0.135455,0
2024-11-29 17:54:49.111,-0.157926,2.6001,10.625,-0.094605,-0.116672,-0.122017,0
2024-11-29 17:54:49.113,-0.181855,2.65274,10.7136,-0.0854423,-0.120337,-0.115297,0
2024-11-29 17:54:49.116,-0.22014,2.68624,10.8021,-0.0756687,-0.117283,-0.105524,0
2024-11-29 17:54:49.118,-0.258425,2.71974,10.8858,-0.0683385,-0.114839,-0.0975828,0
2024-11-29 17:54:49.119,-0.292223,2.75324,10.9627,-0.0683385,-0.114839,-0.0975828,0
2024-11-29 17:54:49.123,-0.311366,2.77956,11.0273,-0.0494023,-0.0977356,-0.0798683,0
2024-11-29 17:54:49.125,-0.349651,2.82024,11.0824,-0.0432938,-0.0861295,-0.0694839,0
2024-11-29 17:54:49.127,-0.397508,2.84656,11.1374,-0.0432938,-0.0861295,-0.0694839,0
2024-11-29 17:54:49.130,-0.41665,2.8681,11.1876,-0.0359636,-0.0757451,-0.0584886,0
2024-11-29 17:54:49.131,-0.4334,2.89203,11.2283,-0.0274118,-0.0647498,-0.0487151,0
2024-11-29 17:54:49.134,-0.478864,2.92792,11.2666,-0.0219141,-0.0500895,-0.0377198,0
2024-11-29 17:54:49.136,-0.517149,2.97577,11.3025,-0.0151948,-0.03604,-0.0279463,0
2024-11-29 17:54:49.139,-0.52672,3.02363,11.3192,-0.0096972,-0.0219905,-0.0175619,0
2024-11-29 17:54:49.143,-0.505185,3.10768,11.336,-0.00236703,0.0152712,-0.000458135,0
2024-11-29 17:54:49.143,-0.505185,3.10768,11.336,-0.00236703,0.0152712,-0.000458135,0
2024-11-29 17:54:49.146,-0.476471,3.134,11.3623,0.000687203,0.0317641,0.00748288,0
2024-11-29 17:54:49.148,-0.464507,3.10289,11.348,0.00313059,0.0647498,0.019089,0
2024-11-29 17:54:49.150,-0.512363,3.10289,11.2762,7.63559e-05,0.0965139,0.0313059,0
2024-11-29 17:54:49.153,-0.555434,3.14357,11.2355,-0.000534491,0.123391,0.0416903,0
2024-11-29 17:54:49.156,-0.565005,3.19861,11.2044,-0.00114534,0.147214,0.0502422,0
2024-11-29 17:54:49.157,-0.565005,3.25603,11.1613,-0.00786466,0.167372,0.0563507,0
2024-11-29 17:54:49.159,-0.584148,3.27757,11.1278,-0.0139731,0.180811,0.0618483,0
2024-11-29 17:54:49.162,-0.593719,3.28475,11.1183,-0.022525,0.186919,0.0685676,0
2024-11-29 17:54:49.165,-0.598505,3.29432,11.1206,-0.0420721,0.18753,0.0807846,0
2024-11-29 17:54:49.167,-0.62004,3.28714,11.135,-0.0420721,0.18753,0.0807846,0
2024-11-29 17:54:49.170,-0.63679,3.28953,11.1565,-0.0518457,0.183254,0.0887256,0
2024-11-29 17:54:49.172,-0.617647,3.29671,11.1924,-0.0707819,0.164929,0.0978883,0
2024-11-29 17:54:49.174,-0.579362,3.28953,11.2475,-0.0707819,0.164929,0.0978883,0
2024-11-29 17:54:49.176,-0.538684,3.30628,11.3432,-0.0811663,0.153323,0.102775,0
2024-11-29 17:54:49.179,-0.50997,3.31825,11.4509,-0.0878856,0.141106,0.107662,0
2024-11-29 17:54:49.181,-0.481256,3.31585,11.5397,-0.0891073,0.13011,0.111327,0
2024-11-29 17:54:49.183,-0.462114,3.32543,11.6474,-0.0891073,0.13011,0.111327,0
2024-11-29 17:54:49.185,-0.438186,3.32782,11.7861,-0.0939941,0.0989573,0.119268,0
2024-11-29 17:54:49.191,-0.359223,3.33021,12.0135,-0.0799446,0.0513112,0.123544,0
2024-11-29 17:54:49.191,-0.359223,3.33021,12.0135,-0.0799446,0.0513112,0.123544,0
2024-11-29 17:54:49.193,-0.311366,3.32543,12.1238,-0.0799446,0.0513112,0.123544,0
2024-11-29 17:54:49.196,-0.260818,3.31825,12.2291,-0.0610084,0.015882,0.123544,0
2024-11-29 17:54:49.198,-0.215354,3.32543,12.3224,-0.0512348,-0.000610847,0.122933,0
2024-11-29 17:54:49.200,-0.189033,3.33021,12.4062,-0.0512348,-0.000610847,0.122933,0
2024-11-29 17:54:49.203,-0.167498,3.33978,12.4828,-0.0396287,-0.0146603,0.123544,0
2024-11-29 17:54:49.204,-0.143569,3.36371,12.5617,-0.0268009,-0.0268773,0.123544,0
2024-11-29 17:54:49.207,-0.112463,3.38285,12.6482,-0.0139731,-0.0348183,0.1211,0
2024-11-29 17:54:49.209,-0.081356,3.402,12.7367,-0.00114534,-0.0421485,0.119268,0
2024-11-29 17:54:49.215,-0.0454636,3.43071,12.8492,0.0458899,-0.0470352,0.107662,0
2024-11-29 17:54:49.215,-0.0454636,3.43071,12.8492,0.0458899,-0.0470352,0.107662,0
2024-11-29 17:54:49.217,-0.0287139,3.43071,12.8922,0.0458899,-0.0470352,0.107662,0
2024-11-29 17:54:49.219,-0.0311067,3.44267,12.9209,0.0636045,-0.0421485,0.105218,0
2024-11-29 17:54:49.222,-0.0502493,3.46182,12.9186,0.0794865,-0.0354291,0.102164,0
2024-11-29 17:54:49.223,-0.0741775,3.46182,12.8922,0.0953685,-0.0244339,0.0972774,0
2024-11-29 17:54:49.229,-0.184247,3.50967,12.8181,0.122246,0.00549763,0.0936123,0
2024-11-29 17:54:49.229,-0.184247,3.50967,12.8181,0.122246,0.00549763,0.0936123,0
2024-11-29 17:54:49.231,-0.253639,3.53121,12.7534,0.132019,0.0226013,0.0923906,0
2024-11-29 17:54:49.233,-0.301795,3.53839,12.6817,0.140571,0.0415376,0.091169,0
2024-11-29 17:54:49.235,-0.347258,3.56949,12.5904,0.146069,0.0561979,0.0905581,0
2024-11-29 17:54:49.237,-0.404686,3.58624,12.4923,0.150956,0.0714691,0.0905581,0
2024-11-29 17:54:49.240,-0.454935,3.55992,12.4158,0.153399,0.0867403,0.0923906,0
2024-11-29 17:54:49.242,-0.498006,3.52882,12.3296,0.149123,0.0952922,0.0936123,0
2024-11-29 17:54:49.245,-0.52672,3.52403,12.2363,0.138739,0.106287,0.094834,0
2024-11-29 17:54:49.247,-0.545863,3.50728,12.1454,0.138739,0.106287,0.094834,0
2024-11-29 17:54:49.250,-0.538684,3.46899,12.0688,0.131409,0.108731,0.0960557,0
2024-11-29 17:54:49.252,-0.524327,3.41635,11.9943,0.104531,0.104455,0.0954449,0
2024-11-29 17:54:49.255,-0.519542,3.35175,11.9154,0.104531,0.104455,0.0954449,0
2024-11-29 17:54:49.256,-0.500399,3.29193,11.8627,0.0898709,0.10079,0.094834,0
2024-11-29 17:54:49.258,-0.474078,3.2345,11.8292,0.0721563,0.0940705,0.0972774,0
2024-11-29 17:54:49.262,-0.45015,3.16989,11.7885,0.0361163,0.0763559,0.0942232,0
2024-11-29 17:54:49.266,-0.409472,3.11007,11.7957,0.0171801,0.0671932,0.0917798,0
2024-11-29 17:54:49.266,-0.409472,3.11007,11.7957,0.0171801,0.0671932,0.0917798,0
2024-11-29 17:54:49.268,-0.3999,3.07388,11.8196,-0.00236703,0.0568088,0.0899473,0
2024-11-29 17:54:49.271,-0.390329,3.02363,11.8508,-0.0194708,0.0445919,0.0893364,0
2024-11-29 17:54:49.272,-0.368794,3.00688,11.8795,-0.0365745,0.0299315,0.0875039,0
2024-11-29 17:54:49.275,-0.344866,2.98774,11.9297,-0.0548999,0.0171037,0.0887256,0
2024-11-29 17:54:49.277,-0.30658,2.92552,11.98,-0.0713928,-0.00122169,0.0881147,0
2024-11-29 17:54:49.279,-0.265603,2.85613,12.035,-0.0878856,-0.0219905,0.0850605,0
2024-11-29 17:54:49.282,-0.210568,2.80349,12.0832,-0.103157,-0.0452027,0.0832279,0
2024-11-29 17:54:49.285,-0.155533,2.75563,12.131,-0.120261,-0.0739125,0.0801737,0
2024-11-29 17:54:49.287,-0.105284,2.69581,12.1956,-0.139197,-0.103844,0.0765086,0
2024-11-29 17:54:49.290,-0.0382852,2.6336,12.2674,-0.174626,-0.170426,0.0661242,0
2024-11-29 17:54:49.292,0.040678,2.58096,12.3464,-0.193562,-0.208299,0.06307,0
2024-11-29 17:54:49.295,0.0981057,2.53549,12.4373,-0.211888,-0.246782,0.0545181,0
2024-11-29 17:54:49.297,0.150748,2.49212,12.5498,-0.211888,-0.246782,0.0545181,0
2024-11-29 17:54:49.298,0.229711,2.44188,12.6864,-0.227159,-0.281601,0.0477988,0
2024-11-29 17:54:49.301,0.316152,2.39402,12.8324,-0.240597,-0.317641,0.0404686,0
2024-11-29 17:54:49.303,0.366401,2.3342,12.9855,-0.25709,-0.359178,0.0319168,0
2024-11-29 17:54:49.305,0.395115,2.26959,13.1339,-0.271751,-0.400105,0.0264191,0
2024-11-29 17:54:49.309,0.3999,2.21695,13.2586,-0.281524,-0.435534,0.0227541,0
2024-11-29 17:54:49.311,0.390329,2.17866,13.3854,-0.302904,-0.478904,0.0178673,0
2024-11-29 17:54:49.313,0.387936,2.16909,13.5123,-0.302904,-0.478904,0.0178673,0
2024-11-29 17:54:49.315,0.426222,2.15952,13.6247,-0.308401,-0.49051,0.0172564,0
2024-11-29 17:54:49.317,0.517149,2.11645,13.7444,-0.313899,-0.492954,0.0129805,0
2024-11-29 17:54:49.320,0.605683,2.0686,13.8643,-0.315732,-0.492343,0.0117588,0
2024-11-29 17:54:49.323,0.658325,2.00877,13.9959,-0.318786,-0.49051,0.0123697,0
2024-11-29 17:54:49.327,0.672682,1.91516,14.228,-0.316953,-0.471574,0.0117588,0
2024-11-29 17:54:49.328,0.672682,1.91516,14.228,-0.316953,-0.471574,0.0117588,0
2024-11-29 17:54:49.330,0.667897,1.85294,14.3288,-0.304126,-0.458746,0.0142022,0
2024-11-29 17:54:49.332,0.677468,1.80509,14.4054,-0.279081,-0.423317,0.0221432,0
2024-11-29 17:54:49.336,0.751645,1.68066,14.4963,-0.263199,-0.401327,0.02703,0
2024-11-29 17:54:49.337,0.751645,1.68066,14.4963,-0.263199,-0.401327,0.02703,0
2024-11-29 17:54:49.339,0.797109,1.59212,14.4963,-0.241208,-0.37506,0.0294734,3
2024-11-29 17:54:49.342,0.799502,1.47488,14.3719,-0.204557,-0.32436,0.0386361,0
2024-11-29 17:54:49.344,0.804287,1.39322,14.1658,-0.188065,-0.309089,0.0392469,0
2024-11-29 17:54:49.345,0.8668,1.32383,14.0677,-0.188065,-0.309089,0.0392469,0
2024-11-29 17:54:49.350,0.936192,1.07498,14.0988,-0.150192,-0.28099,0.0423012,0
2024-11-29 17:54:49.350,0.936192,1.07498,14.0988,-0.150192,-0.28099,0.0423012,0
2024-11-29 17:54:49.353,1.02951,0.969691,14.0127,-0.130645,-0.268773,0.0447446,0
2024-11-29 17:54:49.355,1.11805,0.885943,13.8284,-0.106822,-0.249226,0.0441337,0
2024-11-29 17:54:49.358,1.16351,0.799502,13.6415,-0.0701711,-0.199747,0.0441337,0
2024-11-29 17:54:49.361,1.1683,0.737288,13.5099,-0.0548999,-0.169816,0.0435229,0
2024-11-29 17:54:49.364,1.15633,0.682254,13.2993,-0.0347419,-0.140495,0.0435229,0
2024-11-29 17:54:49.364,1.15633,0.682254,13.2993,-0.0347419,-0.140495,0.0435229,0
2024-11-29 17:54:49.370,1.14197,0.667897,13.0454,0.0220669,-0.0342074,0.0465771,0
2024-11-29 17:54:49.370,1.14197,0.667897,13.0454,0.0220669,-0.0342074,0.0465771,0
2024-11-29 17:54:49.372,1.13958,0.670289,12.9186,0.0220669,-0.0342074,0.0465771,0
2024-11-29 17:54:49.374,1.11565,0.663111,12.7822,0.0397814,0.0109953,0.0490205,0
2024-11-29 17:54:49.376,1.08215,0.660718,12.641,0.0623828,0.059863,0.0490205,0
2024-11-29 17:54:49.381,1.00558,0.65354,12.3392,0.10331,0.161875,0.0465771,0
2024-11-29 17:54:49.382,1.00558,0.65354,12.3392,0.10331,0.161875,0.0465771,0
2024-11-29 17:54:49.383,0.945763,0.691825,12.1932,0.122857,0.214407,0.0447446,0
2024-11-29 17:54:49.385,0.842872,0.744467,12.035,0.145458,0.269384,0.0410795,0
2024-11-29 17:54:49.389,0.742074,0.789931,11.8555,0.193104,0.384223,0.0368035,0
2024-11-29 17:54:49.391,0.648754,0.842872,11.6593,0.193104,0.384223,0.0368035,0
2024-11-29 17:54:49.394,0.541077,0.888335,11.4532,0.21876,0.442253,0.0331385,0
2024-11-29 17:54:49.396,0.395115,0.938585,11.2475,0.245026,0.499062,0.0306951,0
2024-11-29 17:54:49.397,0.236889,0.991227,11.0417,0.272514,0.552817,0.0276408,0
2024-11-29 17:54:49.400,0.0837488,1.05105,10.8452,0.300002,0.602295,0.0276408,0
2024-11-29 17:54:49.403,-0.066999,1.1013,10.6466,0.3562,0.681095,0.0258083,0
2024-11-29 17:54:49.405,-0.193819,1.11326,10.4551,0.384299,0.714691,0.0264191,0
2024-11-29 17:54:49.407,-0.304188,1.11087,10.2299,0.384299,0.714691,0.0264191,0
2024-11-29 17:54:49.410,-0.414257,1.11326,9.95474,0.411787,0.746455,0.0288625,0
2024-11-29 17:54:49.412,-0.533899,1.13001,9.64577,0.434389,0.773333,0.0300842,0
2024-11-29 17:54:49.415,-0.675075,1.14915,9.35145,0.472261,0.803264,0.0368035,0
2024-11-29 17:54:49.416,-0.845265,1.16112,9.08315,0.472261,0.803264,0.0368035,0
2024-11-29 17:54:49.418,-0.981655,1.1659,8.83909,0.472261,0.803264,0.0368035,0
2024-11-29 17:54:49.421,-1.06301,1.14437,8.61625,0.497306,0.809983,0.0484096,0
2024-11-29 17:54:49.423,-1.1348,1.13958,8.37937,0.504025,0.800821,0.0545181,0
2024-11-29 17:54:49.425,-1.20419,1.15155,8.12782,0.509523,0.783717,0.0600157,0
2024-11-29 17:54:49.431,-1.30708,1.17787,7.68276,0.505247,0.691479,0.0826171,0
2024-11-29 17:54:49.431,-1.42941,1.17787,7.68276,0.505247,0.691479,0.0826171,0
2024-11-29 17:54:49.433,-1.52752,1.21854,7.50778,0.505247,0.691479,0.0826171,0
2024-11-29 17:54:49.435,-1.61127,1.27358,7.35464,0.495473,0.649331,0.0936123,0
2024-11-29 17:54:49.438,-1.68544,1.30708,7.21825,0.467375,0.547319,0.116214,0
2024-11-29 17:54:49.441,-1.75484,1.35015,7.10339,0.448438,0.487456,0.129652,0
2024-11-29 17:54:49.443,-1.82184,1.41266,7.0026,0.430724,0.421485,0.14248,0
2024-11-29 17:54:49.444,-1.87448,1.47248,6.94277,0.430724,0.421485,0.14248,0
2024-11-29 17:54:49.448,-1.89841,1.5323,6.91885,0.389186,0.281601,0.162027,0
2024-11-29 17:54:49.450,-1.89601,1.60887,6.92602,0.369028,0.207077,0.17119,0
2024-11-29 17:54:49.452,-1.89123,1.68305,6.95952,0.369028,0.207077,0.17119,0
2024-11-29 17:54:49.454,-1.85533,1.73569,7.01725,0.347038,0.13011,0.179131,0
2024-11-29 17:54:49.456,-1.78355,1.77398,7.11536,0.329934,0.051922,0.185239,0
2024-11-29 17:54:49.458,-1.67587,1.79791,7.24936,0.312219,-0.0274881,0.187072,0
2024-11-29 17:54:49.463,-1.37169,1.87926,7.57986,0.282899,-0.184476,0.179742,0
2024-11-29 17:54:49.464,-1.37169,1.87926,7.57986,0.275568,-0.256556,0.168136,0
2024-11-29 17:54:49.467,-1.15633,1.89123,7.78086,0.275568,-0.256556,0.168136,0
2024-11-29 17:54:49.469,-0.950549,1.87687,7.99143,0.271293,-0.320695,0.152254,0
2024-11-29 17:54:49.471,-0.758824,1.86491,8.1999,0.270071,-0.377504,0.131485,0
2024-11-29 17:54:49.474,-0.569791,1.82662,8.37697,0.273125,-0.424539,0.108273,0
2024-11-29 17:54:49.476,-0.4334,1.79073,8.53251,0.277401,-0.464855,0.0850605,0
2024-11-29 17:54:49.478,-0.308973,1.76919,8.67129,0.28412,-0.496008,0.0581832,0
2024-11-29 17:54:49.480,-0.191426,1.74287,8.79602,0.292061,-0.522274,0.0325276,0
2024-11-29 17:54:49.483,-0.100499,1.71655,8.9013,0.309165,-0.557704,-0.0187836,0
2024-11-29 17:54:49.485,-0.0287139,1.68066,8.98744,0.309165,-0.557704,-0.0187836,0
2024-11-29 17:54:49.488,0.0311067,1.64237,9.03769,0.315884,-0.566255,-0.0419957,0
2024-11-29 17:54:49.489,0.0957129,1.60409,9.04487,0.321382,-0.571142,-0.0676513,0
2024-11-29 17:54:49.491,0.143569,1.5658,9.00658,0.324436,-0.565645,-0.0896418,0
2024-11-29 17:54:49.497,0.241675,1.51316,8.98026,0.328101,-0.545487,-0.139731,0
2024-11-29 17:54:49.497,0.241675,1.51316,8.98026,0.328101,-0.545487,-0.139731,0
2024-11-29 17:54:49.500,0.270389,1.45813,9.01137,0.324436,-0.52655,-0.163554,0
2024-11-29 17:54:49.502,0.287438,1.42223,9.01616,0.321993,-0.507614,-0.18921,0
2024-11-29 17:54:49.504,0.330509,1.37647,8.99941,0.310998,-0.456914,-0.239299,0
2024-11-29 17:54:49.507,0.378365,1.31426,8.97069,0.310998,-0.456914,-0.239299,0
2024-11-29 17:54:49.508,0.385544,1.28554,8.92523,0.301835,-0.423928,-0.267398,0
2024-11-29 17:54:49.510,0.34008,1.24965,8.86302,0.293894,-0.387888,-0.293665,0
2024-11-29 17:54:49.513,0.272782,1.20658,8.78884,0.293894,-0.387888,-0.293665,0
2024-11-29 17:54:49.515,0.200997,1.16351,8.71945,0.265795,-0.31031,-0.3407,0
2024-11-29 17:54:49.518,0.114855,1.11087,8.65933,0.249302,-0.268773,-0.360858,0
2024-11-29 17:54:49.520,0.0191426,1.07258,8.59711,0.230366,-0.230289,-0.380405,0
2024-11-29 17:54:49.523,-0.0957129,1.05583,8.54447,0.193104,-0.147214,-0.403617,0
2024-11-29 17:54:49.525,-0.229711,1.04387,8.51815,0.193104,-0.147214,-0.403617,0
2024-11-29 17:54:49.529,-0.352044,1.01755,8.49661,0.155232,-0.0733017,-0.422554,0
2024-11-29 17:54:49.530,-0.45015,1.00558,8.49661,0.155232,-0.0733017,-0.422554,0
2024-11-29 17:54:49.531,-0.545863,1.00798,8.50619,0.136906,-0.0348183,-0.423775,0
2024-11-29 17:54:49.535,-0.62004,1.00319,8.50858,0.122246,0.00488678,-0.425608,0
2024-11-29 17:54:49.539,-0.74686,0.96012,8.49422,0.0953685,0.0824644,-0.428051,0
2024-11-29 17:54:49.540,-0.74686,0.96012,8.49422,0.0953685,0.0824644,-0.428051,0
2024-11-29 17:54:49.543,-0.801895,0.905085,8.46311,0.0727672,0.147825,-0.42744,0
2024-11-29 17:54:49.544,-0.801895,0.905085,8.46311,0.0727672,0.147825,-0.42744,0
2024-11-29 17:54:49.547,-0.857229,0.871586,8.4344,0.0629936,0.177757,-0.423164,0
2024-11-29 17:54:49.548,-0.917049,0.85005,8.39133,0.0526092,0.205856,-0.423164,0
2024-11-29 17:54:49.551,-0.972084,0.837787,8.34108,0.0403923,0.229068,-0.42011,0
2024-11-29 17:54:49.554,-1.05583,0.842872,8.3004,0.0324513,0.253502,-0.416445,0
2024-11-29 17:54:49.556,-1.15633,0.878764,8.27408,0.0190126,0.297483,-0.403617,0
2024-11-29 17:54:49.558,-1.25444,0.909871,8.25733,0.0190126,0.297483,-0.403617,0
2024-11-29 17:54:49.561,-1.32861,0.940978,8.24298,0.00557398,0.330468,-0.38407,0
2024-11-29 17:54:49.563,-1.37886,0.972084,8.22383,0.00129805,0.344518,-0.372464,0
2024-11-29 17:54:49.564,-1.41984,0.998405,8.2023,0.00129805,0.344518,-0.372464,0
2024-11-29 17:54:49.568,-1.45095,1.01037,8.18794,-0.00481042,0.365287,-0.349863,0
2024-11-29 17:54:49.569,-1.47248,1.01515,8.17119,-0.00481042,0.365287,-0.349863,0
2024-11-29 17:54:49.573,-1.48923,1.0319,8.14248,-0.00603212,0.372006,-0.339478,0
2024-11-29 17:54:49.574,-1.50359,1.02951,8.12543,-0.00847551,0.378114,-0.329094,0
2024-11-29 17:54:49.577,-1.4988,1.0343,8.11346,-0.00847551,0.384223,-0.31932,0
2024-11-29 17:54:49.580,-1.47966,1.04626,8.08236,-0.00786466,0.386666,-0.300384,0
2024-11-29 17:54:49.582,-1.45813,1.05583,8.05843,-0.00786466,0.386666,-0.300384,0
2024-11-29 17:54:49.584,-1.44377,1.07498,8.04646,-0.00358873,0.384834,-0.280837,0
2024-11-29 17:54:49.587,-1.42223,1.08694,8.04646,-0.00358873,0.384834,-0.280837,0
2024-11-29 17:54:49.589,-1.39801,1.08455,8.04646,-0.00114534,0.380558,-0.272285,0
2024-11-29 17:54:49.590,-1.38365,1.09651,8.02732,0.000687203,0.372006,-0.263122,0
2024-11-29 17:54:49.593,-1.35972,1.10369,8.02254,0.00435229,0.364065,-0.257014,0
2024-11-29 17:54:49.596,-1.32861,1.12762,8.03211,0.00801737,0.354902,-0.249073,0
2024-11-29 17:54:49.597,-1.28794,1.14676,8.04168,0.0153475,0.342685,-0.243575,0
2024-11-29 17:54:49.601,-1.25204,1.14676,8.05604,0.0190126,0.332912,-0.238078,0
2024-11-29 17:54:49.602,-1.23051,1.15633,8.04886,0.021456,0.323138,-0.231358,0
2024-11-29 17:54:49.605,-1.20419,1.18265,8.03211,0.0300079,0.312754,-0.227693,0
2024-11-29 17:54:49.609,-1.14915,1.23051,8.03211,0.041614,0.29565,-0.219141,0
2024-11-29 17:54:49.609,-1.14915,1.23051,8.03211,0.041614,0.29565,-0.219141,0
2024-11-29 17:54:49.613,-1.12522,1.26401,8.00818,0.0507767,0.28832,-0.216698,0
2024-11-29 17:54:49.619,-1.0678,1.31665,7.95075,0.0745997,0.263275,-0.208757,0
2024-11-29 17:54:49.620,-1.08694,1.31665,7.95075,0.0745997,0.263275,-0.208757,0
2024-11-29 17:54:49.620,-1.0678,1.31665,7.95075,0.0745997,0.263275,-0.208757,0
2024-11-29 17:54:49.623,-1.02712,1.32861,7.87897,0.0880384,0.247393,-0.207535,0
2024-11-29 17:54:49.624,-1.02712,1.32861,7.87897,0.0880384,0.247393,-0.207535,0
2024-11-29 17:54:49.626,-1.01994,1.3334,7.85025,0.0923143,0.238841,-0.205703,0
2024-11-29 17:54:49.629,-1.01994,1.34058,7.8024,0.100866,0.227235,-0.205092,0
2024-11-29 17:54:49.630,-1.02233,1.35254,7.75454,0.100866,0.227235,-0.205092,0
2024-11-29 17:54:49.633,-1.04387,1.36451,7.71147,0.105142,0.218072,-0.205092,0
2024-11-29 17:54:49.642,-1.08694,1.41984,7.56042,0.113694,0.207688,-0.201427,0
2024-11-29 17:54:49.642,-1.08694,1.41984,7.56042,0.113694,0.207688,-0.201427,0
2024-11-29 17:54:49.646,-1.08694,1.41266,7.52453,0.116748,0.178978,-0.192264,0
2024-11-29 17:54:49.646,-1.07019,1.41266,7.52453,0.116748,0.178978,-0.192264,0
2024-11-29 17:54:49.646,-1.07019,1.41266,7.52453,0.116748,0.178978,-0.192264,0
2024-11-29 17:54:49.648,-1.07019,1.40788,7.49582,0.116748,0.178978,-0.192264,0
2024-11-29 17:54:49.649,-1.08215,1.4004,7.45035,0.114305,0.170426,-0.191042,0
2024-11-29 17:54:49.652,-1.10369,1.40279,7.39292,0.113694,0.162485,-0.187377,0
2024-11-29 17:54:49.656,-1.10848,1.38604,7.31635,0.10392,0.149658,-0.183712,0
2024-11-29 17:54:49.656,-1.10848,1.38604,7.31635,0.10392,0.149658,-0.183712,0
2024-11-29 17:54:49.661,-1.10369,1.4004,7.24457,0.0892601,0.140495,-0.177604,0
2024-11-29 17:54:49.662,-1.10369,1.4004,7.24457,0.0807082,0.13683,-0.17455,0
2024-11-29 17:54:49.664,-1.12762,1.40548,7.23978,0.0807082,0.13683,-0.17455,0
2024-11-29 17:54:49.666,-1.14437,1.41266,7.23261,0.0715455,0.132554,-0.172106,0
2024-11-29 17:54:49.669,-1.16351,1.41984,7.24218,0.0605502,0.128889,-0.167219,0
2024-11-29 17:54:49.670,-1.18983,1.42463,7.2685,0.0489441,0.125835,-0.162944,0
2024-11-29 17:54:49.673,-1.2018,1.43181,7.29243,0.0391706,0.121559,-0.159278,0
2024-11-29 17:54:49.676,-1.18983,1.45813,7.31875,0.021456,0.117894,-0.148283,0
2024-11-29 17:54:49.679,-1.19222,1.47727,7.35225,0.021456,0.117894,-0.148283,0
2024-11-29 17:54:49.680,-1.19462,1.48923,7.39292,0.0129041,0.116672,-0.144618,0
2024-11-29 17:54:49.682,-1.18026,1.48445,7.4336,0.0129041,0.116672,-0.144618,0
2024-11-29 17:54:49.686,-1.17069,1.47727,7.48385,-0.0096972,0.105677,-0.13851,0
2024-11-29 17:54:49.688,-1.1683,1.48684,7.52692,-0.0096972,0.105677,-0.13851,0
2024-11-29 17:54:49.689,-1.1659,1.48445,7.58226,-0.0176382,0.102622,-0.13912,0
2024-11-29 17:54:49.693,-1.15872,1.48205,7.63729,-0.0292443,0.0910162,-0.136066,0
2024-11-29 17:54:49.695,-1.14437,1.49163,7.67797,-0.0292443,0.0910162,-0.136066,0
2024-11-29 17:54:49.696,-1.14437,1.48923,7.72583,-0.0359636,0.0849078,-0.137899,0
2024-11-29 17:54:49.700,-1.14915,1.48923,7.78086,-0.0402396,0.0787993,-0.139731,0
2024-11-29 17:54:49.702,-1.14915,1.49402,7.8359,-0.0469589,0.0702474,-0.13912,0
2024-11-29 17:54:49.704,-1.15633,1.49163,7.87897,-0.0469589,0.0702474,-0.13912,0
2024-11-29 17:54:49.706,-1.16112,1.48684,7.91486,-0.0518457,0.0647498,-0.137288,0
2024-11-29 17:54:49.709,-1.16112,1.49402,7.97229,-0.0561216,0.0568088,-0.135455,0
2024-11-29 17:54:49.712,-1.17308,1.50359,8.02971,-0.0573433,0.0531437,-0.133012,0
2024-11-29 17:54:49.713,-1.18744,1.50838,8.08236,-0.0573433,0.0531437,-0.133012,0
2024-11-29 17:54:49.716,-1.21376,1.50598,8.14487,-0.0591758,0.0494786,-0.132401,0
2024-11-29 17:54:49.718,-1.24726,1.48923,8.18315,-0.0597867,0.0458135,-0.125682,0
2024-11-29 17:54:49.720,-1.2664,1.49402,8.23101,-0.0610084,0.0433702,-0.121406,0
2024-11-29 17:54:49.722,-1.30229,1.50598,8.29083,-0.0597867,0.0415376,-0.115297,0
2024-11-29 17:54:49.726,-1.33101,1.4988,8.3339,-0.0603975,0.0378725,-0.1098,0
2024-11-29 17:54:49.728,-1.35254,1.50359,8.37697,-0.0591758,0.0317641,-0.0951395,0
2024-11-29 17:54:49.729,-1.39083,1.51077,8.42483,-0.0591758,0.0317641,-0.0951395,0
2024-11-29 17:54:49.732,-1.41984,1.52034,8.48226,-0.0561216,0.0299315,-0.0865876,0
2024-11-29 17:54:49.735,-1.44138,1.53709,8.5349,-0.0494023,0.0262664,-0.0664296,0
2024-11-29 17:54:49.737,-1.4677,1.55145,8.57558,-0.0494023,0.0262664,-0.0664296,0
2024-11-29 17:54:49.739,-1.47488,1.5658,8.61386,-0.0451263,0.0262664,-0.0578778,0
2024-11-29 17:54:49.743,-1.4677,1.5993,8.67368,-0.0341311,0.0219905,-0.0395524,0
2024-11-29 17:54:49.744,-1.4677,1.5993,8.67368,-0.0341311,0.0219905,-0.0395524,0
2024-11-29 17:54:49.747,-1.4653,1.5993,8.69043,-0.0310769,0.0189363,-0.0297788,0
2024-11-29 17:54:49.748,-1.45813,1.60648,8.68565,-0.0286335,0.0152712,-0.0218378,0
2024-11-29 17:54:49.752,-1.46052,1.61605,8.67847,-0.0286335,0.0103844,-0.00473407,0
2024-11-29 17:54:49.754,-1.47488,1.63041,8.67129,-0.0286335,0.0103844,-0.00473407,0
2024-11-29 17:54:49.756,-1.48205,1.63759,8.6689,-0.0310769,0.00427593,0.00565034,0
2024-11-29 17:54:49.760,-1.47248,1.70459,8.7003,-0.0310769,0.00427593,0.00565034,0
2024-11-29 17:54:49.762,-1.48205,1.75244,8.72184,-0.0542891,-0.0183254,0.0313059,0
2024-11-29 17:54:49.763,-1.48205,1.75244,8.72184,-0.0542891,-0.0183254,0.0313059,0
2024-11-29 17:54:49.765,-1.47727,1.79073,8.75773,-0.0622301,-0.0262664,0.0404686,0
2024-11-29 17:54:49.769,-1.42463,1.88405,8.84387,-0.0891073,-0.0397051,0.0569615,0
2024-11-29 17:54:49.770,-1.42463,1.88405,8.84387,-0.0891073,-0.0397051,0.0569615,0
2024-11-29 17:54:49.772,-1.37647,1.91516,8.88694,-0.0994917,-0.043981,0.0636808,0
2024-11-29 17:54:49.775,-1.29751,1.94387,8.93241,-0.12698,-0.0433702,0.0722327,0
2024-11-29 17:54:49.777,-1.21137,1.96062,8.97308,-0.12698,-0.0433702,0.0722327,0
2024-11-29 17:54:49.779,-1.15394,1.97288,9.01137,-0.14164,-0.0390942,0.0765086,0
2024-11-29 17:54:49.782,-1.10848,1.98724,9.04726,-0.156911,-0.0354291,0.0752869,0
2024-11-29 17:54:49.784,-1.05823,2.00877,9.10469,-0.174626,-0.0354291,0.0777303,0
2024-11-29 17:54:49.787,-1.00558,2.03749,9.2004,-0.209444,-0.0335966,0.0722327,0
2024-11-29 17:54:49.789,-0.955334,2.07099,9.26292,-0.209444,-0.0335966,0.0722327,0
2024-11-29 17:54:49.792,-0.902692,2.09252,9.31795,-0.246095,-0.0372617,0.0581832,0
2024-11-29 17:54:49.793,-0.842872,2.10688,9.40888,-0.246095,-0.0372617,0.0581832,0
2024-11-29 17:54:49.796,-0.818644,2.12842,9.51177,-0.262588,-0.0433702,0.050853,0
2024-11-29 17:54:49.798,-0.80668,2.15234,9.61945,-0.277859,-0.0476461,0.0441337,0
2024-11-29 17:54:49.800,-0.777966,2.16431,9.71516,-0.292519,-0.0543654,0.034971,0
2024-11-29 17:54:49.803,-0.734896,2.16909,9.80848,-0.308401,-0.059863,0.0251975,0
2024-11-29 17:54:49.805,-0.71336,2.17627,9.91885,-0.322451,-0.064139,0.0160347,0
2024-11-29 17:54:49.808,-0.703789,2.18106,10.0409,-0.345052,-0.0739125,-0.00229068,0
2024-11-29 17:54:49.809,-0.682254,2.18345,10.1605,-0.345052,-0.0739125,-0.00229068,0
2024-11-29 17:54:49.812,-0.672682,2.19541,10.2682,-0.352993,-0.0733017,-0.0157293,0
2024-11-29 17:54:49.815,-0.667897,2.20499,10.3783,-0.363378,-0.0702474,-0.0212269,0
2024-11-29 17:54:49.817,-0.65354,2.20259,10.4982,-0.368265,-0.0659715,-0.0303897,0
2024-11-29 17:54:49.820,-0.639183,2.19302,10.6226,-0.373151,-0.0561979,-0.0493259,0
2024-11-29 17:54:49.822,-0.632004,2.19541,10.7399,-0.373151,-0.0561979,-0.0493259,0
2024-11-29 17:54:49.825,-0.641576,2.21216,10.8547,-0.37193,-0.0537546,-0.0597103,0
2024-11-29 17:54:49.827,-0.651147,2.21934,10.9675,-0.368265,-0.0427593,-0.0786466,0
2024-11-29 17:54:49.829,-0.677468,2.22413,11.068,-0.368265,-0.0427593,-0.0786466,0
2024-11-29 17:54:49.831,-0.73011,2.22652,11.1805,-0.363378,-0.0403159,-0.0853659,0
2024-11-29 17:54:49.833,-0.76361,2.22413,11.2857,-0.356048,-0.0366508,-0.0926961,0
2024-11-29 17:54:49.835,-0.789931,2.22891,11.3695,-0.347496,-0.0329858,-0.0988045,0
2024-11-29 17:54:49.839,-0.835394,2.22413,11.4509,-0.340166,-0.0256556,-0.101859,0
2024-11-29 17:54:49.840,-0.902692,2.22413,11.511,-0.329781,-0.0244339,-0.106746,0
2024-11-29 17:54:49.842,-0.957727,2.21934,11.566,-0.320008,-0.0250447,-0.111021,0
2024-11-29 17:54:49.845,-1.00558,2.21456,11.621,-0.310845,-0.028099,-0.113465,0
2024-11-29 17:54:49.849,-1.0989,2.22174,11.7024,-0.290076,-0.0354291,-0.11713,0
2024-11-29 17:54:49.850,-1.0989,2.22174,11.7024,-0.290076,-0.0354291,-0.11713,0
2024-11-29 17:54:49.853,-1.15155,2.23131,11.7646,-0.272362,-0.0525329,-0.11713,0
2024-11-29 17:54:49.855,-1.1994,2.24088,11.8268,-0.259534,-0.0580305,-0.114687,0
2024-11-29 17:54:49.858,-1.25204,2.25045,11.8843,-0.246095,-0.0659715,-0.112854,0
2024-11-29 17:54:49.860,-1.31426,2.26959,11.9536,-0.246095,-0.0659715,-0.112854,0
2024-11-29 17:54:49.861,-1.35494,2.29831,12.0254,-0.233267,-0.0763559,-0.107356,0
2024-11-29 17:54:49.865,-1.38126,2.31027,12.1167,-0.218607,-0.0873512,-0.10247,0
2024-11-29 17:54:49.866,-1.41506,2.30788,12.2052,-0.203947,-0.0977356,-0.096972,0
2024-11-29 17:54:49.868,-1.45573,2.32702,12.277,-0.186232,-0.10812,-0.0902527,0
2024-11-29 17:54:49.871,-1.49163,2.34856,12.3296,-0.17035,-0.116061,-0.0841442,0
2024-11-29 17:54:49.874,-1.52034,2.34856,12.3607,-0.137975,-0.125835,-0.0645971,0
2024-11-29 17:54:49.876,-1.54188,2.3677,12.4014,-0.137975,-0.125835,-0.0645971,0
2024-11-29 17:54:49.878,-1.54427,2.40359,12.4517,-0.137975,-0.125835,-0.0645971,0
2024-11-29 17:54:49.880,-1.52513,2.44905,12.5019,-0.104989,-0.134997,-0.04505,0
2024-11-29 17:54:49.883,-1.49641,2.48973,12.5498,-0.0860531,-0.139884,-0.0389415,0
2024-11-29 17:54:49.886,-1.47248,2.51845,12.5785,-0.0683385,-0.145992,-0.032833,0
2024-11-29 17:54:49.887,-1.43659,2.54028,12.588,-0.0481806,-0.15149,-0.0267246,0
2024-11-29 17:54:49.892,-1.38365,2.5666,12.588,-0.0151948,-0.167983,-0.0187836,0
2024-11-29 17:54:49.893,-1.32861,2.60249,12.5809,-0.0151948,-0.167983,-0.0187836,0
2024-11-29 17:54:49.894,-1.26879,2.63121,12.5761,0.000687203,-0.173481,-0.0187836,0
2024-11-29 17:54:49.897,-1.21137,2.65035,12.5498,0.0110716,-0.176535,-0.0151185,0
2024-11-29 17:54:49.900,-1.15872,2.67189,12.5258,0.0318404,-0.181422,-0.0187836,0
2024-11-29 17:54:49.902,-1.0989,2.69342,12.4947,0.0318404,-0.181422,-0.0187836,0
2024-11-29 17:54:49.905,-1.05105,2.72453,12.4445,0.0410031,-0.183254,-0.0224486,0
2024-11-29 17:54:49.907,-1.00798,2.73649,12.3894,0.0440574,-0.181422,-0.024892,0
2024-11-29 17:54:49.908,-0.972084,2.73888,12.332,0.0477224,-0.180811,-0.0279463,0
2024-11-29 17:54:49.912,-0.945763,2.75324,12.277,0.0452791,-0.175313,-0.0279463,0
2024-11-29 17:54:49.914,-0.919442,2.75563,12.2291,0.0355055,-0.166761,-0.029168,0
2024-11-29 17:54:49.916,-0.888335,2.78674,12.1932,0.0355055,-0.166761,-0.029168,0
2024-11-29 17:54:49.919,-0.869193,2.8322,12.1645,0.0287862,-0.163707,-0.0340547,0
2024-11-29 17:54:49.920,-0.82343,2.87528,12.1334,0.0208452,-0.159431,-0.0389415,0
2024-11-29 17:54:49.924,-0.785145,2.92552,12.1286,0.013515,-0.156988,-0.0456608,0
2024-11-29 17:54:49.925,-0.76361,2.95902,12.1382,-0.000534491,-0.155766,-0.0542127,0
2024-11-29 17:54:49.928,-0.727717,2.9997,12.119,-0.0109189,-0.15882,-0.0639862,0
2024-11-29 17:54:49.931,-0.710967,3.03081,12.1167,-0.0396287,-0.175924,-0.0841442,0
2024-11-29 17:54:49.932,-0.694218,3.03081,12.143,-0.0396287,-0.175924,-0.0841442,0
2024-11-29 17:54:49.934,-0.679861,3.03799,12.1693,-0.0548999,-0.186308,-0.0939178,0
2024-11-29 17:54:49.937,-0.670289,3.06431,12.2004,-0.0707819,-0.197304,-0.10308,0
2024-11-29 17:54:49.939,-0.658325,3.0667,12.2339,-0.0897182,-0.206466,-0.111021,0
2024-11-29 17:54:49.941,-0.627219,3.06431,12.2842,-0.106211,-0.218683,-0.117741,0
2024-11-29 17:54:49.945,-0.562612,3.07627,12.3535,-0.138586,-0.243728,-0.140953,0
2024-11-29 17:54:49.947,-0.488435,3.06192,12.4301,-0.152635,-0.256556,-0.156224,0
2024-11-29 17:54:49.948,-0.419043,3.05234,12.521,-0.152635,-0.256556,-0.156224,0
2024-11-29 17:54:49.951,-0.347258,3.0667,12.6191,-0.166074,-0.271827,-0.172717,0
2024-11-29 17:54:49.953,-0.294616,3.09332,12.7247,-0.181345,-0.287709,-0.185545,0
2024-11-29 17:54:49.956,-0.258425,3.09571,12.8492,-0.192951,-0.304813,-0.202649,0
2024-11-29 17:54:49.959,-0.224925,3.08345,12.9808,-0.214331,-0.342685,-0.230748,0
2024-11-29 17:54:49.961,-0.184247,3.07149,13.0932,-0.214331,-0.342685,-0.230748,0
2024-11-29 17:54:49.963,-0.117248,3.04995,13.1892,-0.221661,-0.361622,-0.242964,0
2024-11-29 17:54:49.966,-0.0358923,3.02363,13.2802,-0.236322,-0.397051,-0.272896,0
2024-11-29 17:54:49.967,0.0430708,2.97817,13.3735,-0.236322,-0.397051,-0.272896,0
2024-11-29 17:54:49.971,0.131605,2.9327,13.462,-0.244873,-0.413544,-0.288167,0
2024-11-29 17:54:49.973,0.22014,2.86092,13.5338,-0.260145,-0.448362,-0.320542,0
2024-11-29 17:54:49.974,0.311366,2.78913,13.6104,-0.260145,-0.448362,-0.320542,0
2024-11-29 17:54:49.978,0.407079,2.74367,13.6989,-0.269307,-0.464855,-0.335813,0
2024-11-29 17:54:49.980,0.500399,2.68624,13.7782,-0.2858,-0.499062,-0.372464,0
2024-11-29 17:54:49.982,0.598505,2.62881,13.8643,-0.2858,-0.499062,-0.372464,0
2024-11-29 17:54:49.984,0.682254,2.57617,13.96,-0.2858,-0.499062,-0.372464,0
2024-11-29 17:54:49.986,0.768395,2.50648,14.0246,-0.29985,-0.530215,-0.409726,0
2024-11-29 17:54:49.989,0.847657,2.44427,14.0845,-0.304126,-0.541822,-0.431105,0
2024-11-29 17:54:49.991,0.905085,2.38684,14.1586,-0.30718,-0.551595,-0.451263,0
2024-11-29 17:54:49.994,0.962513,2.32223,14.24,-0.312067,-0.563201,-0.471421,0
2024-11-29 17:54:49.996,1.01276,2.26002,14.336,-0.316343,-0.573586,-0.491579,0
2024-11-29 17:54:49.999,1.01994,2.20499,14.4174,-0.312067,-0.587024,-0.534339,0
2024-11-29 17:54:50.001,1.0319,2.15952,14.4796,-0.305347,-0.591911,-0.553886,0
2024-11-29 17:54:50.003,1.04626,2.10209,14.5346,-0.305347,-0.591911,-0.553886,0
2024-11-29 17:54:50.006,1.04626,2.02074,14.5896,-0.301682,-0.598019,-0.573433,0
2024-11-29 17:54:50.007,1.04626,1.94148,14.6447,-0.29313,-0.601074,-0.593591,0
2024-11-29 17:54:50.011,1.03908,1.86251,14.7021,-0.268086,-0.607793,-0.627187,0
2024-11-29 17:54:50.013,1.00558,1.76441,14.7308,-0.268086,-0.607793,-0.627187,0
2024-11-29 17:54:50.015,0.952942,1.66391,14.7356,-0.252204,-0.60535,-0.64368,3
2024-11-29 17:54:50.017,0.929013,1.56102,14.7356,-0.236932,-0.602906,-0.657119,0
2024-11-29 17:54:50.019,0.919442,1.44855,14.7069,-0.214331,-0.596798,-0.669947,0
2024-11-29 17:54:50.021,0.902692,1.35254,14.683,-0.192341,-0.585192,-0.680331,0
2024-11-29 17:54:50.025,0.885943,1.26401,14.6542,-0.171572,-0.571142,-0.688272,0
2024-11-29 17:54:50.026,0.876371,1.18505,14.592,-0.149581,-0.554649,-0.694381,0
2024-11-29 17:54:50.030,0.885943,1.11326,14.5226,-0.0988809,-0.505782,-0.707208,0
2024-11-29 17:54:50.032,0.881157,1.04148,14.4628,-0.0738362,-0.47585,-0.712095,0
2024-11-29 17:54:50.034,0.837787,0.986441,14.3862,-0.0738362,-0.47585,-0.712095,0
2024-11-29 17:54:50.038,0.710967,0.897907,14.1371,-0.0219141,-0.397662,-0.713928,0
2024-11-29 17:54:50.038,0.710967,0.897907,14.1371,-0.0219141,-0.397662,-0.713928,0
2024-11-29 17:54:50.044,0.581755,0.837787,13.9361,0.0342838,-0.306645,-0.709652,0
2024-11-29 17:54:50.044,0.581755,0.837787,13.9361,0.0342838,-0.306645,-0.709652,0
2024-11-29 17:54:50.046,0.531506,0.804287,13.8212,0.0959794,-0.207077,-0.695602,0
2024-11-29 17:54:50.048,0.454935,0.797109,13.7013,0.0959794,-0.207077,-0.695602,0
2024-11-29 17:54:50.051,0.366401,0.787538,13.5697,0.168059,-0.101401,-0.674834,0
2024-11-29 17:54:50.053,0.272782,0.773181,13.4381,0.208986,-0.043981,-0.662617,0
2024-11-29 17:54:50.054,0.184247,0.766002,13.2754,0.208986,-0.043981,-0.662617,0
2024-11-29 17:54:50.057,0.124427,0.76361,13.0884,0.251135,0.0140495,-0.647956,0
2024-11-29 17:54:50.060,0.0574277,0.758824,12.8731,0.294505,0.07208,-0.631463,0
2024-11-29 17:54:50.062,-0.0191426,0.749253,12.6314,0.339707,0.128889,-0.613749,0
2024-11-29 17:54:50.065,-0.0837488,0.727717,12.3799,0.385521,0.185698,-0.599088,0
2024-11-29 17:54:50.067,-0.143569,0.706182,12.1119,0.468596,0.28832,-0.558162,0
2024-11-29 17:54:50.069,-0.198604,0.715753,11.8101,0.468596,0.28832,-0.558162,0
2024-11-29 17:54:50.071,-0.263211,0.725324,11.4987,0.50769,0.332301,-0.541669,0
2024-11-29 17:54:50.073,-0.328116,0.722932,11.2092,0.547396,0.372617,-0.519067,0
2024-11-29 17:54:50.077,-0.375972,0.722932,10.8978,0.610924,0.444697,-0.476308,0
2024-11-29 17:54:50.078,-0.464507,0.73011,10.5485,0.610924,0.444697,-0.476308,0
2024-11-29 17:54:50.081,-0.553041,0.754038,10.1773,0.640244,0.477683,-0.451263,0
2024-11-29 17:54:50.084,-0.617647,0.797109,9.81087,0.683004,0.529605,-0.403617,0
2024-11-29 17:54:50.085,-0.706182,0.854836,9.47348,0.683004,0.529605,-0.403617,0
2024-11-29 17:54:50.088,-0.799502,0.919442,9.15494,0.683004,0.529605,-0.403617,0
2024-11-29 17:54:50.090,-0.864407,0.99362,8.84387,0.703772,0.553428,-0.351695,0
2024-11-29 17:54:50.093,-0.907478,1.0654,8.5349,0.708048,0.558925,-0.324207,0
2024-11-29 17:54:50.094,-0.952942,1.12283,8.25015,0.709881,0.55526,-0.296108,0
2024-11-29 17:54:50.098,-0.991227,1.18505,7.97707,0.696442,0.522885,-0.23991,0
2024-11-29 17:54:50.099,-1.02233,1.24247,7.71625,0.696442,0.522885,-0.23991,0
2024-11-29 17:54:50.104,-0.979263,1.31904,7.2996,0.667732,0.466687,-0.197151,0
2024-11-29 17:54:50.105,-0.979263,1.31904,7.2996,0.647574,0.431258,-0.176993,0
2024-11-29 17:54:50.106,-0.926621,1.36929,7.12732,0.647574,0.431258,-0.176993,0
2024-11-29 17:54:50.109,-0.885943,1.45095,6.97388,0.623751,0.389721,-0.161722,0
2024-11-29 17:54:50.111,-0.852443,1.52513,6.8351,0.598096,0.348183,-0.149505,0
2024-11-29 17:54:50.113,-0.799502,1.58255,6.72024,0.573662,0.301148,-0.13912,0
2024-11-29 17:54:50.116,-0.739681,1.64955,6.64367,0.544952,0.253502,-0.131179,0
2024-11-29 17:54:50.119,-0.670289,1.70937,6.58146,0.512577,0.202801,-0.126904,0
2024-11-29 17:54:50.120,-0.591326,1.76441,6.56232,0.483867,0.149047,-0.125682,0
2024-11-29 17:54:50.124,-0.521934,1.84816,6.57907,0.452714,0.0940705,-0.125071,0
2024-11-29 17:54:50.125,-0.447757,1.93191,6.59582,0.419728,0.0415376,-0.126904,0
2024-11-29 17:54:50.128,-0.375972,2.0016,6.64606,0.389797,-0.0134386,-0.131179,0
2024-11-29 17:54:50.130,-0.311366,2.06142,6.70589,0.36292,-0.0671932,-0.136677,0
2024-11-29 17:54:50.132,-0.227318,2.11406,6.77528,0.338486,-0.122169,-0.146451,0
2024-11-29 17:54:50.136,-0.124427,2.14995,6.88535,0.289618,-0.236398,-0.169052,0
2024-11-29 17:54:50.137,-0.026321,2.16192,7.0002,0.289618,-0.236398,-0.169052,0
2024-11-29 17:54:50.140,0.0789631,2.15713,7.08904,0.268238,-0.291374,-0.184323,0
2024-11-29 17:54:50.142,0.215354,2.12363,7.18714,0.247469,-0.346961,-0.202649,0
2024-11-29 17:54:50.145,0.352044,2.06142,7.29482,0.209597,-0.459357,-0.244186,0
2024-11-29 17:54:50.147,0.481256,2.00877,7.42164,0.193715,-0.512501,-0.272896,0
2024-11-29 17:54:50.149,0.586541,1.9681,7.55085,0.193715,-0.512501,-0.272896,0
2024-11-29 17:54:50.151,0.675075,1.91994,7.65404,0.183331,-0.563201,-0.299773,0
2024-11-29 17:54:50.154,0.74686,1.85294,7.76172,0.16867,-0.611458,-0.32604,0
2024-11-29 17:54:50.157,0.782752,1.79312,7.87897,0.146069,-0.696366,-0.379183,0
2024-11-29 17:54:50.159,0.794716,1.74287,7.98904,0.146069,-0.696366,-0.379183,0
2024-11-29 17:54:50.160,0.792323,1.67827,8.09432,0.134463,-0.736682,-0.400563,0
2024-11-29 17:54:50.164,0.775574,1.62802,8.20708,0.116748,-0.800821,-0.439657,0
2024-11-29 17:54:50.166,0.739681,1.57537,8.33151,0.116748,-0.800821,-0.439657,0
2024-11-29 17:54:50.167,0.701396,1.51316,8.45594,0.111251,-0.827698,-0.454318,0
2024-11-29 17:54:50.170,0.663111,1.4653,8.55404,0.106975,-0.850299,-0.466535,0
2024-11-29 17:54:50.173,0.624826,1.40548,8.63779,0.10331,-0.869847,-0.476919,0
2024-11-29 17:54:50.176,0.567398,1.34776,8.71945,0.100255,-0.880231,-0.48486,0
2024-11-29 17:54:50.177,0.512363,1.31665,8.78405,0.0978119,-0.891226,-0.49219,0
2024-11-29 17:54:50.180,0.481256,1.28794,8.86541,0.0929251,-0.903443,-0.503796,0
2024-11-29 17:54:50.182,0.435793,1.24726,8.97069,0.0929251,-0.903443,-0.503796,0
2024-11-29 17:54:50.184,0.371187,1.2018,9.10708,0.0953685,-0.905276,-0.504407,0
2024-11-29 17:54:50.187,0.297009,1.17547,9.22194,0.0996445,-0.900389,-0.507461,0
2024-11-29 17:54:50.189,0.236889,1.15633,9.29881,0.10392,-0.891226,-0.505018,0
2024-11-29 17:54:50.192,0.193819,1.1348,9.38974,0.113083,-0.877788,-0.502575,0
2024-11-29 17:54:50.193,0.138784,1.1348,9.46152,0.125911,-0.861905,-0.501353,0
2024-11-29 17:54:50.196,0.066999,1.12762,9.5022,0.137517,-0.841137,-0.494023,0
2024-11-29 17:54:50.199,-0.0191426,1.10848,9.53091,0.148512,-0.813038,-0.486082,0
2024-11-29 17:54:50.201,-0.117248,1.08215,9.54288,0.163783,-0.781884,-0.473254,0
2024-11-29 17:54:50.203,-0.196211,1.0343,9.54766,0.178444,-0.747677,-0.456761,0
2024-11-29 17:54:50.206,-0.258425,1.00558,9.53091,0.195547,-0.709805,-0.437825,0
2024-11-29 17:54:50.208,-0.34008,0.99362,9.50698,0.21143,-0.669489,-0.417667,0
2024-11-29 17:54:50.210,-0.404686,0.96012,9.4687,0.227922,-0.626118,-0.396287,0
2024-11-29 17:54:50.212,-0.454935,0.921835,9.40888,0.242583,-0.581527,-0.370632,0
2024-11-29 17:54:50.219,-0.617647,0.835394,9.14058,0.278012,-0.444086,-0.28267,0
2024-11-29 17:54:50.223,-0.648754,0.833001,9.02333,0.301224,-0.354902,-0.217309,0
2024-11-29 17:54:50.223,-0.648754,0.833001,9.02333,0.301224,-0.354902,-0.217309,0
2024-11-29 17:54:50.223,-0.648754,0.833001,9.02333,0.301224,-0.354902,-0.217309,0
2024-11-29 17:54:50.224,-0.677468,0.830609,8.92523,0.301224,-0.354902,-0.217309,0
2024-11-29 17:54:50.227,-0.696611,0.830609,8.80798,0.307333,-0.312143,-0.184323,0
2024-11-29 17:54:50.229,-0.715753,0.833001,8.68565,0.311608,-0.271216,-0.150116,0
2024-11-29 17:54:50.232,-0.727717,0.85005,8.55404,0.313441,-0.233955,-0.115908,0
2024-11-29 17:54:50.234,-0.718146,0.873978,8.43919,0.315274,-0.198525,-0.0823117,0
2024-11-29 17:54:50.237,-0.703789,0.902692,8.33151,0.315274,-0.138662,-0.0200052,0
2024-11-29 17:54:50.239,-0.679861,0.940978,8.20469,0.310387,-0.111174,0.00748288,0
2024-11-29 17:54:50.242,-0.655932,1.0008,8.09911,0.310387,-0.111174,0.00748288,0
2024-11-29 17:54:50.243,-0.629611,1.06301,8.02254,0.309776,-0.0867403,0.0331385,0
2024-11-29 17:54:50.245,-0.574577,1.10848,7.934,0.307333,-0.064139,0.0545181,0
2024-11-29 17:54:50.249,-0.507577,1.17308,7.84547,0.3055,-0.0433702,0.0746761,0
2024-11-29 17:54:50.250,-0.457328,1.23769,7.77608,0.302446,-0.0256556,0.0917798,0
2024-11-29 17:54:50.253,-0.404686,1.28315,7.71386,0.299392,-0.0134386,0.103386,0
2024-11-29 17:54:50.256,-0.335294,1.31665,7.65404,0.300613,-0.00305424,0.115603,0
2024-11-29 17:54:50.258,-0.260818,1.35494,7.58944,0.296948,0.00366508,0.122933,0
2024-11-29 17:54:50.260,-0.179462,1.37886,7.51017,0.294505,0.00671932,0.12782,0
2024-11-29 17:54:50.262,-0.0981057,1.40788,7.44557,0.293894,0.0109953,0.130263,0
2024-11-29 17:54:50.264,-0.0478565,1.43898,7.38575,0.289618,0.0128278,0.132096,0
2024-11-29 17:54:50.266,-0.00717847,1.46291,7.32353,0.287785,0.0134386,0.129652,0
2024-11-29 17:54:50.270,0.0287139,1.50359,7.28046,0.28412,0.0146603,0.124766,0
2024-11-29 17:54:50.272,0.0478565,1.5323,7.24936,0.28412,0.0146603,0.124766,0
2024-11-29 17:54:50.274,0.0693919,1.55145,7.22782,0.283509,0.0140495,0.1211,0
2024-11-29 17:54:50.277,0.081356,1.58734,7.17518,0.282899,0.0128278,0.116825,0
2024-11-29 17:54:50.279,0.0861416,1.62323,7.09861,0.281066,0.00366508,0.108884,0
2024-11-29 17:54:50.282,0.0885344,1.63041,7.03639,0.279234,-0.00610847,0.102775,0
2024-11-29 17:54:50.283,0.0957129,1.61605,6.99063,0.279234,-0.00610847,0.102775,0
2024-11-29 17:54:50.286,0.11007,1.61605,6.94517,0.278623,-0.015882,0.094834,0
2024-11-29 17:54:50.289,0.112463,1.62084,6.89253,0.271293,-0.0452027,0.0838388,0
2024-11-29 17:54:50.291,0.0909273,1.6328,6.84228,0.271293,-0.0452027,0.0838388,0
2024-11-29 17:54:50.293,0.0550349,1.63041,6.81596,0.267627,-0.059863,0.0752869,0
2024-11-29 17:54:50.296,0.026321,1.6328,6.81117,0.260908,-0.0849078,0.0649025,0
2024-11-29 17:54:50.298,0.00239282,1.64237,6.79921,0.260908,-0.0849078,0.0649025,0
2024-11-29 17:54:50.300,-0.0358923,1.66869,6.78246,0.259686,-0.0965139,0.0600157,0
2024-11-29 17:54:50.302,-0.0765703,1.70219,6.77767,0.257854,-0.106898,0.0569615,0
2024-11-29 17:54:50.305,-0.105284,1.70698,6.76571,0.256632,-0.120337,0.0545181,0
2024-11-29 17:54:50.306,-0.133998,1.70937,6.75613,0.256632,-0.130721,0.0514639,0
2024-11-29 17:54:50.309,-0.174676,1.71177,6.74896,0.256632,-0.142938,0.0514639,0
2024-11-29 17:54:50.311,-0.215354,1.70937,6.7346,0.2548,-0.153934,0.0465771,0
2024-11-29 17:54:50.314,-0.248854,1.70698,6.71067,0.253578,-0.161875,0.047188,0
2024-11-29 17:54:50.316,-0.270389,1.70219,6.66999,0.253578,-0.167372,0.047188,0
2024-11-29 17:54:50.319,-0.328116,1.70219,6.62692,0.250524,-0.17287,0.0490205,0
2024-11-29 17:54:50.321,-0.395115,1.72134,6.61496,0.247469,-0.172259,0.0502422,0
2024-11-29 17:54:50.324,-0.452543,1.73809,6.60778,0.24808,-0.169816,0.050853,0
2024-11-29 17:54:50.326,-0.50997,1.75244,6.58624,0.242583,-0.169205,0.0618483,0
2024-11-29 17:54:50.328,-0.569791,1.78355,6.56232,0.242583,-0.169205,0.0618483,0
2024-11-29 17:54:50.330,-0.629611,1.8003,6.55035,0.241361,-0.16615,0.0691785,0
2024-11-29 17:54:50.333,-0.675075,1.81466,6.52403,0.237696,-0.164929,0.0752869,0
2024-11-29 17:54:50.335,-0.715753,1.84576,6.48814,0.237696,-0.161264,0.0813954,0
2024-11-29 17:54:50.337,-0.756431,1.86491,6.47857,0.232809,-0.159431,0.0917798,0
2024-11-29 17:54:50.340,-0.801895,1.87926,6.44955,0.229144,-0.156988,0.0984991,0
2024-11-29 17:54:50.343,-0.842872,1.89362,6.40648,0.21876,-0.15149,0.116825,0
2024-11-29 17:54:50.344,-0.854836,1.91755,6.35145,0.21876,-0.15149,0.116825,0
2024-11-29 17:54:50.347,-0.847657,1.93191,6.28445,0.21204,-0.147214,0.125376,0
2024-11-29 17:54:50.350,-0.854836,1.92951,6.22702,0.188828,-0.145992,0.143702,0
2024-11-29 17:54:50.352,-0.857229,1.95105,6.1672,0.188828,-0.145992,0.143702,0
2024-11-29 17:54:50.355,-0.85005,1.9681,6.11934,0.173557,-0.150879,0.152254,0
2024-11-29 17:54:50.356,-0.845265,1.98245,6.08585,0.155842,-0.157599,0.15714,0
2024-11-29 17:54:50.358,-0.830609,2.01356,6.07867,0.138128,-0.164929,0.164471,0
2024-11-29 17:54:50.361,-0.809073,2.0351,6.07867,0.120413,-0.17287,0.170579,0
2024-11-29 17:54:50.364,-0.785145,2.06381,6.09063,0.0788757,-0.196693,0.176688,0
2024-11-29 17:54:50.366,-0.749253,2.09731,6.1337,0.0788757,-0.196693,0.176688,0
2024-11-29 17:54:50.368,-0.715753,2.1332,6.2007,0.0562743,-0.206466,0.180353,0
2024-11-29 17:54:50.371,-0.677468,2.17866,6.27249,0.0361163,-0.216851,0.183407,0
2024-11-29 17:54:50.373,-0.627219,2.22652,6.33709,0.0171801,-0.227235,0.182185,0
2024-11-29 17:54:50.375,-0.588933,2.27199,6.4352,-0.00358873,-0.237009,0.177909,0
2024-11-29 17:54:50.377,-0.555434,2.31745,6.55035,-0.0213033,-0.244339,0.177298,0
2024-11-29 17:54:50.379,-0.521934,2.36291,6.66521,-0.0377962,-0.255334,0.175466,0
2024-11-29 17:54:50.382,-0.478864,2.39402,6.78485,-0.0530674,-0.265108,0.169968,0
2024-11-29 17:54:50.385,-0.445364,2.42273,6.88535,-0.066506,-0.273049,0.164471,0
2024-11-29 17:54:50.388,-0.409472,2.45384,6.97867,-0.0933833,-0.285266,0.151032,0
2024-11-29 17:54:50.389,-0.352044,2.48016,7.08664,-0.0933833,-0.285266,0.151032,0
2024-11-29 17:54:50.391,-0.301795,2.49691,7.18236,-0.106822,-0.289542,0.140648,0
2024-11-29 17:54:50.394,-0.241675,2.50409,7.2685,-0.117817,-0.293818,0.132096,0
2024-11-29 17:54:50.397,-0.193819,2.51605,7.37617,-0.128812,-0.298093,0.122933,0
2024-11-29 17:54:50.398,-0.174676,2.52084,7.48385,-0.139808,-0.302369,0.111938,0
2024-11-29 17:54:50.401,-0.165105,2.5331,7.58944,-0.153857,-0.309089,0.100943,0
2024-11-29 17:54:50.403,-0.150748,2.54985,7.70908,-0.164852,-0.316419,0.0917798,0
2024-11-29 17:54:50.406,-0.157926,2.5666,7.8335,-0.174626,-0.321306,0.0832279,0
2024-11-29 17:54:50.409,-0.184247,2.59532,7.96032,-0.196616,-0.326192,0.0661242,0
2024-11-29 17:54:50.411,-0.196211,2.61207,8.08714,-0.196616,-0.326192,0.0661242,0
2024-11-29 17:54:50.413,-0.179462,2.62403,8.21187,-0.204557,-0.326803,0.058794,0
2024-11-29 17:54:50.415,-0.136391,2.64556,8.33869,-0.214331,-0.323749,0.0526856,0
2024-11-29 17:54:50.417,-0.0981057,2.64556,8.44876,-0.224715,-0.319473,0.0447446,0
2024-11-29 17:54:50.421,-0.081356,2.64317,8.56361,-0.244873,-0.308478,0.034971,0
2024-11-29 17:54:50.422,-0.0741775,2.64317,8.69761,-0.244873,-0.308478,0.034971,0
2024-11-29 17:54:50.424,-0.0765703,2.65992,8.82473,-0.254036,-0.302369,0.0331385,0
2024-11-29 17:54:50.428,-0.0741775,2.67906,8.96112,-0.262588,-0.298704,0.0288625,0
2024-11-29 17:54:50.429,-0.0741775,2.69342,9.1334,-0.27114,-0.298093,0.0288625,0
2024-11-29 17:54:50.432,-0.0550349,2.69821,9.31077,-0.274805,-0.293818,0.0300842,0
2024-11-29 17:54:50.435,-0.00957129,2.71017,9.49023,-0.280913,-0.276103,0.0288625,0
2024-11-29 17:54:50.437,0.0382852,2.70778,9.64577,-0.280913,-0.276103,0.0288625,0
2024-11-29 17:54:50.438,0.0765703,2.7006,9.7678,-0.280913,-0.261443,0.0300842,0
2024-11-29 17:54:50.441,0.124427,2.70299,9.87817,-0.279081,-0.241896,0.0331385,0
2024-11-29 17:54:50.443,0.165105,2.70539,9.99063,-0.277859,-0.219905,0.0294734,0
2024-11-29 17:54:50.446,0.198604,2.7006,10.1198,-0.275416,-0.196082,0.0288625,0
2024-11-29 17:54:50.449,0.253639,2.69821,10.2419,-0.268696,-0.148436,0.0331385,0
2024-11-29 17:54:50.451,0.287438,2.69821,10.34,-0.268696,-0.148436,0.0331385,0
2024-11-29 17:54:50.453,0.32333,2.69342,10.4169,-0.265031,-0.12278,0.0319168,0
2024-11-29 17:54:50.455,0.378365,2.69581,10.4647,-0.261366,-0.0952922,0.0306951,0
2024-11-29 17:54:50.458,0.409472,2.70539,10.4958,-0.258312,-0.0665824,0.0313059,0
2024-11-29 17:54:50.460,0.435793,2.70778,10.5221,-0.254647,-0.0403159,0.0294734,0
2024-11-29 17:54:50.462,0.474078,2.7006,10.5509,-0.252814,-0.0122169,0.02703,0
2024-11-29 17:54:50.465,0.512363,2.69821,10.5676,-0.250982,0.0415376,0.0227541,0
2024-11-29 17:54:50.468,0.536291,2.69581,10.57,-0.253425,0.0659715,0.0172564,0
2024-11-29 17:54:50.469,0.54347,2.69342,10.5628,-0.253425,0.0659715,0.0172564,0
2024-11-29 17:54:50.471,0.545863,2.7006,10.5509,-0.25709,0.0916271,0.0117588,0
2024-11-29 17:54:50.474,0.54347,2.7006,10.5413,-0.261977,0.117283,0.00931542,0
2024-11-29 17:54:50.476,0.545863,2.69581,10.5269,-0.266253,0.140495,0.00442864,0
2024-11-29 17:54:50.478,0.529113,2.71974,10.503,-0.272362,0.163707,0.000763559,0
2024-11-29 17:54:50.481,0.512363,2.72453,10.4815,-0.279692,0.186919,0.000152712,0
2024-11-29 17:54:50.483,0.517149,2.71735,10.4671,-0.288854,0.208299,-0.00473407,0
2024-11-29 17:54:50.486,0.500399,2.71496,10.4815,-0.30046,0.230289,-0.00656661,0
2024-11-29 17:54:50.489,0.488435,2.71256,10.5197,-0.321229,0.269384,-0.0077883,0
2024-11-29 17:54:50.491,0.471685,2.71017,10.5293,-0.321229,0.269384,-0.0077883,0
2024-11-29 17:54:50.493,0.452543,2.70539,10.5437,-0.32917,0.287709,-0.00962084,0
2024-11-29 17:54:50.495,0.459721,2.71017,10.5772,-0.340776,0.304813,-0.0126751,0
2024-11-29 17:54:50.497,0.454935,2.72453,10.6155,-0.352383,0.322527,-0.0120642,0
2024-11-29 17:54:50.501,0.431007,2.74606,10.6705,-0.369486,0.355513,-0.0132859,0
2024-11-29 17:54:50.503,0.411865,2.76999,10.7351,-0.369486,0.355513,-0.0132859,0
2024-11-29 17:54:50.504,0.392722,2.78913,10.8069,-0.376206,0.370173,-0.0151185,0
2024-11-29 17:54:50.508,0.364008,2.79153,10.8787,-0.38659,0.405603,-0.0102317,0
2024-11-29 17:54:50.509,0.332901,2.79153,10.9313,-0.38659,0.405603,-0.0102317,0
2024-11-29 17:54:50.512,0.299402,2.80588,10.9962,-0.388422,0.422095,-0.00717746,0
2024-11-29 17:54:50.515,0.27996,2.82263,11.0776,-0.391477,0.448362,-0.00167983,0
2024-11-29 17:54:50.517,0.27996,2.83938,11.1422,-0.390866,0.461801,0.00198525,0
2024-11-29 17:54:50.519,0.270389,2.83938,11.2044,-0.390866,0.461801,0.00198525,0
2024-11-29 17:54:50.521,0.260818,2.8322,11.2762,-0.387201,0.472185,0.00809373,0
2024-11-29 17:54:50.523,0.256032,2.82981,11.3312,-0.38659,0.480126,0.0135914,0
2024-11-29 17:54:50.527,0.256032,2.82742,11.3886,-0.375595,0.496008,0.0239758,0
2024-11-29 17:54:50.528,0.248854,2.82503,11.4485,-0.375595,0.496008,0.0239758,0
2024-11-29 17:54:50.531,0.229711,2.8322,11.511,-0.370097,0.503338,0.0306951,0
2024-11-29 17:54:50.534,0.224925,2.85613,11.5923,-0.362156,0.507003,0.0361927,0
2024-11-29 17:54:50.536,0.229711,2.87767,11.645,-0.352993,0.510057,0.0423012,0
2024-11-29 17:54:50.540,0.236889,2.91835,11.7431,-0.331003,0.50456,0.0539073,0
2024-11-29 17:54:50.541,0.236889,2.91835,11.7431,-0.331003,0.50456,0.0539073,0
2024-11-29 17:54:50.542,0.236889,2.93749,11.8053,-0.315121,0.502727,0.0575724,0
2024-11-29 17:54:50.545,0.241675,2.95185,11.8508,-0.298017,0.501506,0.0649025,0
2024-11-29 17:54:50.548,0.239282,2.9662,11.8914,-0.264421,0.496008,0.0777303,0
2024-11-29 17:54:50.550,0.234497,2.98535,11.9178,-0.246095,0.49051,0.0881147,0
2024-11-29 17:54:50.552,0.224925,3.00688,11.9321,-0.246095,0.49051,0.0881147,0
2024-11-29 17:54:50.555,0.212961,3.02124,11.9536,-0.228991,0.483791,0.0972774,0
2024-11-29 17:54:50.557,0.20339,3.04756,11.956,-0.192341,0.467298,0.114992,0
2024-11-29 17:54:50.559,0.205783,3.07627,11.9632,-0.192341,0.467298,0.114992,0
2024-11-29 17:54:50.561,0.208176,3.10529,11.9776,-0.173404,0.456914,0.124766,0
2024-11-29 17:54:50.563,0.198604,3.14357,11.9848,-0.152635,0.442253,0.13515,0
2024-11-29 17:54:50.567,0.200997,3.1675,11.9871,-0.13431,0.426371,0.146145,0
2024-11-29 17:54:50.568,0.208176,3.19382,11.9489,-0.117817,0.414154,0.158362,0
2024-11-29 17:54:50.570,0.232104,3.22493,11.913,-0.101324,0.401937,0.169357,0
2024-11-29 17:54:50.573,0.282652,3.24646,11.9201,-0.0860531,0.390331,0.181574,0
2024-11-29 17:54:50.575,0.316152,3.28475,11.9345,-0.0720036,0.375671,0.188905,0
2024-11-29 17:54:50.578,0.342473,3.33978,11.9321,-0.0567324,0.361011,0.19318,0
2024-11-29 17:54:50.581,0.395115,3.39242,11.9225,-0.0310769,0.322527,0.196846,0
2024-11-29 17:54:50.582,0.440578,3.4331,11.9225,-0.0310769,0.322527,0.196846,0
2024-11-29 17:54:50.584,0.459721,3.47857,11.9178,-0.0231358,0.298704,0.195624,0
2024-11-29 17:54:50.588,0.469292,3.50489,11.8819,-0.0170274,0.260832,0.195624,0
2024-11-29 17:54:50.589,0.486042,3.54078,11.8244,-0.0170274,0.260832,0.195624,0
2024-11-29 17:54:50.592,0.517149,3.58624,11.7861,-0.0127514,0.24495,0.194402,0
2024-11-29 17:54:50.595,0.550648,3.63171,11.7766,-0.0133623,0.228457,0.190737,0
2024-11-29 17:54:50.597,0.576969,3.69183,11.7909,-0.0231358,0.19486,0.174855,0
2024-11-29 17:54:50.600,0.60329,3.75165,11.8316,-0.0231358,0.19486,0.174855,0
2024-11-29 17:54:50.601,0.632004,3.80429,11.8508,-0.0274118,0.181422,0.166303,0
2024-11-29 17:54:50.603,0.63679,3.84257,11.8627,-0.0335202,0.167372,0.15714,0
2024-11-29 17:54:50.606,0.634397,3.88086,11.8938,-0.0390179,0.156988,0.147367,0
2024-11-29 17:54:50.608,0.632004,3.91675,11.9345,-0.0469589,0.145992,0.136983,0
2024-11-29 17:54:50.611,0.634397,3.93111,11.9895,-0.0542891,0.134997,0.127209,0
2024-11-29 17:54:50.614,0.655932,3.92632,12.0302,-0.0732253,0.133165,0.111938,0
2024-11-29 17:54:50.615,0.670289,3.91914,12.0565,-0.0732253,0.133165,0.111938,0
2024-11-29 17:54:50.618,0.699003,3.90718,12.0951,-0.0836097,0.13011,0.107051,0
2024-11-29 17:54:50.621,0.74686,3.90479,12.1286,-0.101935,0.134386,0.0862822,0
2024-11-29 17:54:50.623,0.780359,3.89761,12.1502,-0.101935,0.134386,0.0862822,0
2024-11-29 17:54:50.625,0.797109,3.88804,12.1789,-0.11232,0.138662,0.0728435,0
2024-11-29 17:54:50.628,0.797109,3.87847,12.2195,-0.125758,0.142327,0.0636808,0
2024-11-29 17:54:50.630,0.770788,3.8689,12.2602,-0.137364,0.147214,0.0514639,0
2024-11-29 17:54:50.633,0.725324,3.8689,12.2913,-0.162409,0.157599,0.0313059,0
2024-11-29 17:54:50.634,0.667897,3.88325,12.3081,-0.162409,0.157599,0.0313059,0
2024-11-29 17:54:50.636,0.615255,3.89522,12.3296,-0.17768,0.160653,0.0239758,0
2024-11-29 17:54:50.639,0.579362,3.89522,12.3464,-0.190508,0.164929,0.0184781,0
2024-11-29 17:54:50.641,0.557827,3.87129,12.3583,-0.204557,0.163096,0.0123697,0
2024-11-29 17:54:50.644,0.553041,3.82582,12.3727,-0.219829,0.157599,0.00748288,0
2024-11-29 17:54:50.647,0.591326,3.75883,12.3751,-0.237543,0.142938,0.00320695,0
2024-11-29 17:54:50.648,0.65354,3.67268,12.3918,-0.258923,0.124613,-0.00412322,0
2024-11-29 17:54:50.651,0.703789,3.59103,12.4373,-0.279692,0.0977356,-0.0132859,0
2024-11-29 17:54:50.653,0.782752,3.5001,12.5043,-0.302904,0.0653607,-0.0212269,0
2024-11-29 17:54:50.656,0.890728,3.402,12.5952,-0.329781,0.0262664,-0.0340547,0
2024-11-29 17:54:50.658,0.972084,3.33021,12.7056,-0.354215,-0.0177146,-0.0499368,0
2024-11-29 17:54:50.660,1.01515,3.24168,12.8324,-0.381092,-0.0629173,-0.0670405,0
2024-11-29 17:54:50.662,1.07498,3.15075,12.964,-0.40858,-0.107509,-0.0865876,0
2024-11-29 17:54:50.665,1.16112,3.06192,13.11,-0.435458,-0.152712,-0.10247,0
2024-11-29 17:54:50.668,1.25204,2.95424,13.2945,-0.484936,-0.236398,-0.142786,0
2024-11-29 17:54:50.670,1.33101,2.85613,13.5027,-0.484936,-0.236398,-0.142786,0
2024-11-29 17:54:50.672,1.39322,2.76521,13.7252,-0.505094,-0.271827,-0.162333,0
2024-11-29 17:54:50.674,1.44377,2.68385,13.9672,-0.525252,-0.302369,-0.184934,0
2024-11-29 17:54:50.677,1.48445,2.61446,14.2185,-0.542356,-0.32436,-0.205092,0
2024-11-29 17:54:50.680,1.52034,2.5331,14.4844,-0.56679,-0.363454,-0.244186,0
2024-11-29 17:54:50.682,1.54666,2.44666,14.7571,-0.569233,-0.373839,-0.263733,0
2024-11-29 17:54:50.684,1.57537,2.38684,15.0206,-0.569233,-0.373839,-0.263733,0
2024-11-29 17:54:50.687,1.59212,2.33181,15.2934,-0.558849,-0.384834,-0.302217,0
2024-11-29 17:54:50.688,1.59452,2.24327,15.5785,-0.558849,-0.384834,-0.302217,0
2024-11-29 17:54:50.690,1.60887,2.1332,15.8249,-0.546632,-0.373228,-0.321764,0
2024-11-29 17:54:50.694,1.64716,2.04227,16.0143,-0.50204,-0.342074,-0.361469,0
2024-11-29 17:54:50.696,1.68784,1.9681,16.2272,-0.471498,-0.323749,-0.381016,0
2024-11-29 17:54:50.697,1.6663,1.8673,16.488,-0.471498,-0.323749,-0.381016,0
2024-11-29 17:54:50.700,1.5993,1.75723,16.7157,-0.432404,-0.29565,-0.396287,0
2024-11-29 17:54:50.702,1.52991,1.65434,16.8592,-0.38659,-0.25961,-0.41278,0
2024-11-29 17:54:50.706,1.45813,1.54427,16.9382,-0.277859,-0.161264,-0.433549,3
2024-11-29 17:54:50.707,1.34536,1.44377,16.9741,-0.277859,-0.161264,-0.433549,0
2024-11-29 17:54:50.710,1.2018,1.34776,16.9549,-0.21372,-0.095903,-0.435992,0
2024-11-29 17:54:50.713,1.04626,1.2329,16.8688,-0.0836097,0.0543654,-0.429273,0
2024-11-29 17:54:50.715,0.881157,1.11565,16.7061,-0.0836097,0.0543654,-0.429273,0
2024-11-29 17:54:50.716,0.73011,1.01755,16.4857,-0.0151948,0.138662,-0.417667,0
2024-11-29 17:54:50.720,0.584148,0.931406,16.2177,0.0501658,0.225403,-0.403006,0
2024-11-29 17:54:50.721,0.435793,0.842872,15.9159,0.119192,0.314586,-0.386514,0
2024-11-29 17:54:50.724,0.294616,0.766002,15.6048,0.183331,0.4111,-0.360858,0
2024-11-29 17:54:50.726,0.129212,0.725324,15.2575,0.24808,0.507614,-0.33337,0
2024-11-29 17:54:50.728,-0.0622134,0.710967,14.8914,0.312219,0.601685,-0.300995,0
2024-11-29 17:54:50.731,-0.244068,0.71336,14.5083,0.375747,0.693922,-0.268009,0
2024-11-29 17:54:50.733,-0.426222,0.722932,14.0868,0.43561,0.77883,-0.228915,0
2024-11-29 17:54:50.735,-0.605683,0.722932,13.6558,0.495473,0.860073,-0.191653,0
2024-11-29 17:54:50.738,-0.732503,0.71336,13.2395,0.55045,0.933375,-0.151337,0
2024-11-29 17:54:50.741,-0.835394,0.699003,12.8252,0.65857,1.05921,-0.073149,0
2024-11-29 17:54:50.743,-0.912264,0.677468,12.3894,0.65857,1.05921,-0.073149,0
2024-11-29 17:54:50.746,-0.974477,0.667897,11.9106,0.752029,1.1545,-0.00167983,0
2024-11-29 17:54:50.748,-1.04865,0.682254,11.4174,0.752029,1.1545,-0.00167983,0
2024-11-29 17:54:50.750,-1.1324,0.706182,10.9409,0.791124,1.19482,0.0331385,0
2024-11-29 17:54:50.752,-1.24008,0.744467,10.4671,0.824109,1.22414,0.0667351,0
2024-11-29 17:54:50.754,-1.35015,0.797109,9.98824,0.85343,1.24735,0.0978883,0
2024-11-29 17:54:50.757,-1.43181,0.85005,9.52134,0.873588,1.25896,0.130874,0
2024-11-29 17:54:50.760,-1.49163,0.88355,9.0688,0.899244,1.25835,0.187683,0
2024-11-29 17:54:50.762,-1.52513,0.914656,8.64258,0.899244,1.25835,0.187683,0
2024-11-29 17:54:50.764,-1.56102,0.94337,8.25733,0.903519,1.23941,0.212117,0
2024-11-29 17:54:50.767,-1.61605,0.996012,7.88375,0.888859,1.17527,0.256098,0
2024-11-29 17:54:50.769,-1.6663,1.07976,7.51974,0.872366,1.1319,0.275034,0
2024-11-29 17:54:50.771,-1.71177,1.16351,7.17518,0.872366,1.1319,0.275034,0
2024-11-29 17:54:50.773,-1.74766,1.23769,6.85903,0.849765,1.08059,0.290305,0
2024-11-29 17:54:50.775,-1.78594,1.31186,6.60299,0.824109,1.01828,0.303744,0
2024-11-29 17:54:50.779,-1.77637,1.38844,6.39452,0.791734,0.952922,0.31535,0
2024-11-29 17:54:50.780,-1.73569,1.46052,6.21027,0.755084,0.880231,0.324513,0
2024-11-29 17:54:50.782,-1.71894,1.5323,6.05235,0.717211,0.804486,0.331232,0
2024-11-29 17:54:50.785,-1.70698,1.61845,5.92313,0.67323,0.722632,0.332454,0
2024-11-29 17:54:50.788,-1.70459,1.69502,5.82712,0.631692,0.637114,0.333675,0
2024-11-29 17:54:50.790,-1.69262,1.75244,5.79123,0.585268,0.546708,0.33001,0
2024-11-29 17:54:50.793,-1.68544,1.80987,5.78644,0.483867,0.365287,0.320237,0
2024-11-29 17:54:50.795,-1.64477,1.86969,5.84626,0.439886,0.270605,0.308631,0
2024-11-29 17:54:50.797,-1.55623,1.95344,5.97099,0.439886,0.270605,0.308631,0
2024-11-29 17:54:50.799,-1.48923,2.0351,6.1337,0.395905,0.175924,0.294581,0
2024-11-29 17:54:50.801,-1.40279,2.10688,6.34427,0.353757,0.0824644,0.27931,0
2024-11-29 17:54:50.804,-1.29033,2.17149,6.57667,0.318328,-0.00977356,0.260374,0
2024-11-29 17:54:50.807,-1.19701,2.21216,6.83749,0.256632,-0.180811,0.21456,0
2024-11-29 17:54:50.809,-1.10369,2.21456,7.10818,0.239528,-0.25961,0.190737,0
2024-11-29 17:54:50.811,-0.991227,2.18106,7.38096,0.239528,-0.25961,0.190737,0
2024-11-29 17:54:50.814,-0.890728,2.11167,7.66601,0.221814,-0.330468,0.164471,0
2024-11-29 17:54:50.815,-0.804287,2.00399,7.92204,0.215705,-0.393996,0.140037,0
2024-11-29 17:54:50.818,-0.73011,1.88883,8.14965,0.210819,-0.452027,0.116214,0
2024-11-29 17:54:50.821,-0.641576,1.78116,8.35783,0.207154,-0.502116,0.0936123,0
2024-11-29 17:54:50.823,-0.562612,1.68784,8.53251,0.208986,-0.545487,0.0704001,0
2024-11-29 17:54:50.826,-0.50997,1.6017,8.69043,0.205321,-0.586413,0.0526856,0
2024-11-29 17:54:50.828,-0.442971,1.51795,8.83669,0.21143,-0.623064,0.0319168,0
2024-11-29 17:54:50.830,-0.383151,1.44138,8.99223,0.215705,-0.654828,0.0117588,0
2024-11-29 17:54:50.833,-0.344866,1.35254,9.1669,0.223646,-0.679873,-0.00595576,0
2024-11-29 17:54:50.834,-0.282652,1.26401,9.32992,0.234031,-0.700642,-0.0242812,0
2024-11-29 17:54:50.837,-0.189033,1.18265,9.42563,0.247469,-0.712859,-0.0432174,0
2024-11-29 17:54:50.840,-0.114855,1.11565,9.49502,0.26946,-0.718356,-0.0798683,0
2024-11-29 17:54:50.841,-0.0909273,1.07019,9.55963,0.26946,-0.718356,-0.0798683,0
2024-11-29 17:54:50.845,-0.0981057,1.02712,9.63141,0.282899,-0.715913,-0.0988045,0
2024-11-29 17:54:50.846,-0.105284,0.991227,9.69123,0.295726,-0.714691,-0.115297,0
2024-11-29 17:54:50.848,-0.119641,0.957727,9.72473,0.306111,-0.706139,-0.133623,0
2024-11-29 17:54:50.851,-0.138784,0.902692,9.74387,0.316495,-0.692701,-0.147061,0
2024-11-29 17:54:50.853,-0.150748,0.854836,9.7343,0.328712,-0.67743,-0.159889,0
2024-11-29 17:54:50.856,-0.18664,0.801895,9.72234,0.336042,-0.656661,-0.172106,0
2024-11-29 17:54:50.858,-0.248854,0.754038,9.70559,0.342762,-0.627951,-0.181269,0
2024-11-29 17:54:50.860,-0.318545,0.708575,9.67927,0.348259,-0.598019,-0.187377,0
2024-11-29 17:54:50.863,-0.392722,0.663111,9.65055,0.354979,-0.564423,-0.194097,0
2024-11-29 17:54:50.866,-0.471685,0.622433,9.6027,0.361087,-0.492343,-0.202038,0
2024-11-29 17:54:50.867,-0.557827,0.584148,9.54527,0.361087,-0.492343,-0.202038,0
2024-11-29 17:54:50.870,-0.655932,0.54347,9.5022,0.36292,-0.453249,-0.200816,0
2024-11-29 17:54:50.873,-0.751645,0.507577,9.44956,0.359865,-0.38178,-0.189821,0
2024-11-29 17:54:50.875,-0.85005,0.476471,9.37059,0.359865,-0.38178,-0.189821,0
2024-11-29 17:54:50.877,-0.94337,0.440578,9.30359,0.358033,-0.346961,-0.182491,0
2024-11-29 17:54:50.880,-1.0343,0.407079,9.24826,0.353757,-0.309089,-0.172106,0
2024-11-29 17:54:50.881,-1.11565,0.373579,9.18365,0.347038,-0.271827,-0.155002,0
2024-11-29 17:54:50.885,-1.19222,0.373579,9.14776,0.339097,-0.202801,-0.123849,0
2024-11-29 17:54:50.887,-1.24965,0.385544,9.12383,0.334821,-0.164929,-0.10308,0
2024-11-29 17:54:50.889,-1.2999,0.385544,9.08076,0.334821,-0.164929,-0.10308,0
2024-11-29 17:54:50.892,-1.34776,0.383151,9.04248,0.32749,-0.0861295,-0.0633754,0
2024-11-29 17:54:50.894,-1.37169,0.375972,8.99462,0.32749,-0.0861295,-0.0633754,0
2024-11-29 17:54:50.895,-1.39083,0.366401,8.93959,0.32688,-0.0476461,-0.0419957,0
2024-11-29 17:54:50.899,-1.41506,0.364008,8.87737,0.32016,0.0342074,0.00198525,0
2024-11-29 17:54:50.900,-1.44855,0.35683,8.81755,0.32016,0.0342074,0.00198525,0
2024-11-29 17:54:50.902,-1.48684,0.354437,8.75534,0.315884,0.07208,0.0221432,0
2024-11-29 17:54:50.906,-1.49163,0.378365,8.67368,0.311608,0.139884,0.0624591,0
2024-11-29 17:54:50.908,-1.49402,0.419043,8.61386,0.309165,0.171037,0.0820062,0
2024-11-29 17:54:50.910,-1.49163,0.440578,8.55643,0.309165,0.171037,0.0820062,0
2024-11-29 17:54:50.912,-1.48684,0.45015,8.49183,0.307333,0.20158,0.100332,0
2024-11-29 17:54:50.914,-1.49641,0.469292,8.42483,0.304889,0.2309,0.117435,0
2024-11-29 17:54:50.917,-1.49641,0.505185,8.34108,0.304278,0.25961,0.134539,0
2024-11-29 17:54:50.920,-1.48205,0.533899,8.25015,0.303057,0.313975,0.169357,0
2024-11-29 17:54:50.922,-1.47248,0.553041,8.14008,0.303057,0.313975,0.169357,0
2024-11-29 17:54:50.925,-1.45813,0.569791,8.03211,0.300613,0.362843,0.201121,0
2024-11-29 17:54:50.926,-1.42463,0.574577,7.93161,0.300613,0.362843,0.201121,0
2024-11-29 17:54:50.928,-1.38126,0.593719,7.81915,0.299392,0.386055,0.212728,0
2024-11-29 17:54:50.931,-1.32861,0.612862,7.68993,0.296948,0.406824,0.224945,0
2024-11-29 17:54:50.934,-1.28794,0.610469,7.56282,0.289618,0.448973,0.246324,0
2024-11-29 17:54:50.936,-1.23529,0.612862,7.44796,0.289618,0.448973,0.246324,0
2024-11-29 17:54:50.938,-1.18265,0.605683,7.31396,0.282899,0.464855,0.254876,0
2024-11-29 17:54:50.941,-1.15872,0.605683,7.17757,0.274347,0.481958,0.261595,0
2024-11-29 17:54:50.942,-1.13719,0.622433,7.05075,0.266406,0.49723,0.268926,0
2024-11-29 17:54:50.945,-1.1013,0.643968,6.9332,0.257854,0.510668,0.277477,0
2024-11-29 17:54:50.948,-1.0654,0.670289,6.82074,0.246859,0.524718,0.282975,0
2024-11-29 17:54:50.950,-1.04865,0.687039,6.72024,0.232198,0.536324,0.288473,0
2024-11-29 17:54:50.952,-1.01994,0.710967,6.62692,0.218149,0.543654,0.292749,0
2024-11-29 17:54:50.955,-0.991227,0.73011,6.54557,0.204099,0.554038,0.295803,0
2024-11-29 17:54:50.958,-0.986441,0.734896,6.48096,0.190661,0.566255,0.30069,0
2024-11-29 17:54:50.959,-0.979263,0.756431,6.39213,0.176,0.578472,0.306187,0
2024-11-29 17:54:50.961,-0.991227,0.787538,6.28445,0.159507,0.587024,0.310463,0
2024-11-29 17:54:50.964,-1.01515,0.813859,6.19831,0.143625,0.594354,0.314739,0
2024-11-29 17:54:50.966,-1.03669,0.828216,6.1337,0.128354,0.600463,0.317793,0
2024-11-29 17:54:50.969,-1.0678,0.852443,6.09781,0.114916,0.602295,0.322069,0
2024-11-29 17:54:50.972,-1.09412,0.878764,6.08345,0.0978119,0.599241,0.328789,0
2024-11-29 17:54:50.973,-1.10369,0.905085,6.04995,0.0807082,0.596798,0.331843,0
2024-11-29 17:54:50.976,-1.09412,0.924228,6.01885,0.0691021,0.591911,0.335508,0
2024-11-29 17:54:50.978,-1.09173,0.931406,5.99492,0.0544418,0.584581,0.340395,0
2024-11-29 17:54:50.980,-1.08694,0.945763,5.96381,0.041614,0.574196,0.343449,0
2024-11-29 17:54:50.982,-1.08694,0.964906,5.94706,0.0251211,0.563812,0.347725,0
2024-11-29 17:54:50.985,-1.10369,0.972084,5.93031,0.0104608,0.550984,0.350168,0
2024-11-29 17:54:50.988,-1.12522,0.97687,5.9351,-0.00114534,0.538156,0.353222,0
2024-11-29 17:54:50.991,-1.15633,1.00319,5.92313,-0.0176382,0.524718,0.355666,0
2024-11-29 17:54:50.992,-1.17547,1.04626,5.88694,-0.030466,0.506392,0.356888,0
2024-11-29 17:54:50.994,-1.2018,1.05583,5.87737,-0.0439046,0.489289,0.361774,0
2024-11-29 17:54:50.998,-1.23051,1.0654,5.88694,-0.0677277,0.450805,0.369715,0
2024-11-29 17:54:50.999,-1.25444,1.09651,5.91835,-0.0677277,0.450805,0.369715,0
2024-11-29 17:54:51.002,-1.28554,1.1348,5.95185,-0.0775012,0.429426,0.375213,0
2024-11-29 17:54:51.005,-1.29751,1.15872,5.98535,-0.0982701,0.383001,0.384376,0
2024-11-29 17:54:51.007,-1.29512,1.1683,6.02842,-0.0982701,0.383001,0.384376,0
2024-11-29 17:54:51.008,-1.30229,1.18983,6.07149,-0.108044,0.357956,0.391095,0
2024-11-29 17:54:51.012,-1.31665,1.2018,6.12652,-0.11965,0.3097,0.403923,0
2024-11-29 17:54:51.014,-1.32383,1.21137,6.16959,-0.11965,0.3097,0.403923,0
2024-11-29 17:54:51.016,-1.31904,1.23769,6.19831,-0.123926,0.284655,0.410031,0
2024-11-29 17:54:51.019,-1.31186,1.24487,6.24138,-0.131867,0.262664,0.414307,0
2024-11-29 17:54:51.020,-1.30947,1.24965,6.29881,-0.136753,0.239452,0.42347,0
2024-11-29 17:54:51.024,-1.2999,1.27119,6.35623,-0.142862,0.191806,0.432633,0
2024-11-29 17:54:51.025,-1.29272,1.30469,6.41127,-0.142862,0.191806,0.432633,0
2024-11-29 17:54:51.028,-1.28076,1.32861,6.4666,-0.147749,0.167983,0.43813,0
2024-11-29 17:54:51.031,-1.27358,1.35015,6.52642,-0.152635,0.131332,0.448515,0
2024-11-29 17:54:51.033,-1.28076,1.38604,6.60539,-0.152635,0.131332,0.448515,0
2024-11-29 17:54:51.035,-1.28076,1.42223,6.66281,-0.156911,0.111174,0.45218,0
2024-11-29 17:54:51.037,-1.27597,1.45095,6.70589,-0.159355,0.0934596,0.457066,0
2024-11-29 17:54:51.040,-1.27358,1.47727,6.7681,-0.160576,0.0775776,0.462564,0
2024-11-29 17:54:51.041,-1.27358,1.50359,6.82553,-0.158744,0.0665824,0.468062,0
2024-11-29 17:54:51.044,-1.26401,1.51555,6.86142,-0.164242,0.051922,0.471727,0
2024-11-29 17:54:51.046,-1.22812,1.52273,6.88535,-0.166074,0.0378725,0.47417,0
2024-11-29 17:54:51.048,-1.19462,1.52513,6.92842,-0.17035,0.0226013,0.479057,0
2024-11-29 17:54:51.052,-1.18265,1.52513,6.97149,-0.177069,-0.00855186,0.485165,0
2024-11-29 17:54:51.054,-1.1659,1.51555,7.01217,-0.181956,-0.0250447,0.486387,0
2024-11-29 17:54:51.057,-1.1348,1.52273,7.06511,-0.181956,-0.0250447,0.486387,0
2024-11-29 17:54:51.058,-1.11805,1.55623,7.12014,-0.188675,-0.0397051,0.489441,0
2024-11-29 17:54:51.060,-1.11326,1.58495,7.17278,-0.194784,-0.0549763,0.491885,0
2024-11-29 17:54:51.063,-1.10848,1.61605,7.22064,-0.200892,-0.0659715,0.493106,0
2024-11-29 17:54:51.066,-1.0989,1.64955,7.27568,-0.214942,-0.0849078,0.496772,0
2024-11-29 17:54:51.068,-1.08694,1.68544,7.3355,-0.214942,-0.0849078,0.496772,0
2024-11-29 17:54:51.071,-1.07498,1.71177,7.40728,-0.232656,-0.100179,0.496161,0
2024-11-29 17:54:51.073,-1.07498,1.73569,7.47907,-0.238765,-0.107509,0.498604,0
2024-11-29 17:54:51.075,-1.09173,1.77159,7.52692,-0.238765,-0.107509,0.498604,0
2024-11-29 17:54:51.077,-1.09651,1.79073,7.59901,-0.247928,-0.113618,0.497993,0
2024-11-29 17:54:51.079,-1.07976,1.82662,7.68515,-0.25709,-0.116061,0.497382,0
2024-11-29 17:54:51.082,-1.04387,1.85294,7.75215,-0.266253,-0.117894,0.49555,0
2024-11-29 17:54:51.085,-1.00319,1.85773,7.8024,-0.277248,-0.116061,0.49555,0
2024-11-29 17:54:51.086,-0.97687,1.90319,7.85982,-0.286411,-0.111785,0.493106,0
2024-11-29 17:54:51.089,-0.952942,1.93669,7.92922,-0.302293,-0.10812,0.490052,0
2024-11-29 17:54:51.091,-0.936192,1.93908,8.00339,-0.313288,-0.100179,0.485776,0
2024-11-29 17:54:51.093,-0.914656,1.94626,8.068,-0.323062,-0.0940705,0.4815,0
2024-11-29 17:54:51.097,-0.876371,1.97288,8.135,-0.337111,-0.0904054,0.475392,0
2024-11-29 17:54:51.098,-0.85005,2.0016,8.20708,-0.352383,-0.0855186,0.469894,0
2024-11-29 17:54:51.100,-0.830609,2.01835,8.27887,-0.369486,-0.0769668,0.463175,0
2024-11-29 17:54:51.104,-0.804287,2.02552,8.37219,-0.404305,-0.0549763,0.450958,0
2024-11-29 17:54:51.106,-0.782752,2.02792,8.47269,-0.404305,-0.0549763,0.450958,0
2024-11-29 17:54:51.108,-0.756431,2.04227,8.57079,-0.421408,-0.0409268,0.443017,0
2024-11-29 17:54:51.111,-0.725324,2.0662,8.67368,-0.448896,-0.000610847,0.424692,0
2024-11-29 17:54:51.112,-0.696611,2.09252,8.77687,-0.448896,-0.000610847,0.424692,0
2024-11-29 17:54:51.115,-0.687039,2.10688,8.85584,-0.465389,0.0250447,0.417361,0
2024-11-29 17:54:51.118,-0.691825,2.12124,8.93959,-0.491045,0.0751342,0.398425,0
2024-11-29 17:54:51.120,-0.699003,2.14517,9.04965,-0.491045,0.0751342,0.398425,0
2024-11-29 17:54:51.122,-0.727717,2.18106,9.15973,-0.503262,0.102622,0.389873,0
2024-11-29 17:54:51.125,-0.732503,2.20977,9.24587,-0.52342,0.158209,0.373991,0
2024-11-29 17:54:51.126,-0.73011,2.2337,9.35384,-0.52342,0.158209,0.373991,0
2024-11-29 17:54:51.129,-0.758824,2.26002,9.47109,-0.53075,0.188141,0.367883,0
2024-11-29 17:54:51.132,-0.766002,2.28873,9.57398,-0.53808,0.218072,0.359942,0
2024-11-29 17:54:51.134,-0.766002,2.3007,9.66252,-0.546632,0.27427,0.343449,0
2024-11-29 17:54:51.136,-0.797109,2.30548,9.71755,-0.546632,0.27427,0.343449,0
2024-11-29 17:54:51.138,-0.816252,2.33181,9.77498,-0.55274,0.302369,0.336119,0
2024-11-29 17:54:51.141,-0.82343,2.34856,9.82792,-0.555795,0.328636,0.330621,0
2024-11-29 17:54:51.143,-0.85005,2.34616,9.88535,-0.556405,0.356124,0.32268,0
2024-11-29 17:54:51.146,-0.888335,2.34856,9.94756,-0.563125,0.403159,0.311685,0
2024-11-29 17:54:51.148,-0.929013,2.35573,9.98345,-0.563125,0.403159,0.311685,0
2024-11-29 17:54:51.150,-0.974477,2.36531,10.0193,-0.562514,0.423317,0.304965,0
2024-11-29 17:54:51.153,-1.02233,2.39163,10.0672,-0.562514,0.439199,0.298246,0
2024-11-29 17:54:51.155,-1.0678,2.42752,10.1175,-0.563125,0.453249,0.295803,0
2024-11-29 17:54:51.157,-1.10848,2.44188,10.1629,-0.563736,0.462411,0.292138,0
2024-11-29 17:54:51.159,-1.12522,2.46102,10.218,-0.561903,0.467909,0.289694,0
2024-11-29 17:54:51.162,-1.14676,2.48016,10.2921,-0.55946,0.473407,0.28664,0
2024-11-29 17:54:51.165,-1.17547,2.48495,10.3567,-0.555795,0.476461,0.285418,0
2024-11-29 17:54:51.166,-1.2018,2.49691,10.4169,-0.555795,0.476461,0.285418,0
2024-11-29 17:54:51.169,-1.23769,2.50648,10.4934,-0.548464,0.478904,0.283586,0
2024-11-29 17:54:51.171,-1.2664,2.51845,10.5915,-0.540523,0.47585,0.287251,0
2024-11-29 17:54:51.174,-1.29033,2.53549,10.6657,-0.533804,0.476461,0.288473,0
2024-11-29 17:54:51.176,-1.30229,2.55703,10.7303,-0.524031,0.47585,0.290916,0
2024-11-29 17:54:51.178,-1.32383,2.58335,10.8165,-0.514868,0.472796,0.29397,0
2024-11-29 17:54:51.181,-1.34776,2.60967,10.905,-0.50204,0.464855,0.295803,0
2024-11-29 17:54:51.184,-1.35254,2.6336,11.001,-0.474552,0.435534,0.298246,0
2024-11-29 17:54:51.186,-1.35015,2.66471,11.0871,-0.474552,0.435534,0.298246,0
2024-11-29 17:54:51.187,-1.34058,2.70778,11.1589,-0.459892,0.414154,0.297635,0
2024-11-29 17:54:51.191,-1.33101,2.71735,11.2211,-0.446453,0.389721,0.296414,0
2024-11-29 17:54:51.193,-1.33101,2.72453,11.2642,-0.434236,0.362232,0.29397,0
2024-11-29 17:54:51.195,-1.35015,2.74128,11.3121,-0.420797,0.33169,0.293359,0
2024-11-29 17:54:51.197,-1.35254,2.75324,11.3623,-0.407359,0.307256,0.294581,0
2024-11-29 17:54:51.199,-1.32144,2.76521,11.4078,-0.396974,0.281601,0.295192,0
2024-11-29 17:54:51.202,-1.29751,2.76999,11.4676,-0.385979,0.258388,0.294581,0
2024-11-29 17:54:51.205,-1.28076,2.79871,11.5493,-0.363989,0.203412,0.29397,0
2024-11-29 17:54:51.206,-1.2664,2.8322,11.6306,-0.363989,0.203412,0.29397,0
2024-11-29 17:54:51.210,-1.23529,2.84895,11.7,-0.356658,0.175924,0.290916,0
2024-11-29 17:54:51.211,-1.20419,2.8657,11.7838,-0.348717,0.149047,0.289083,0
2024-11-29 17:54:51.213,-1.18265,2.8992,11.8795,-0.338944,0.122169,0.285418,0
2024-11-29 17:54:51.217,-1.16351,2.91835,11.9776,-0.331003,0.0971247,0.282364,0
2024-11-29 17:54:51.218,-1.12762,2.90878,12.0903,-0.322451,0.07208,0.282364,0
2024-11-29 17:54:51.220,-1.08215,2.8992,12.2076,-0.313899,0.0507003,0.280532,0
2024-11-29 17:54:51.223,-1.04865,2.90878,12.3344,-0.305347,0.0311532,0.277477,0
2024-11-29 17:54:51.226,-1.00798,2.91356,12.4732,-0.282135,-0.00488678,0.274423,0
2024-11-29 17:54:51.227,-0.940978,2.90878,12.6096,-0.282135,-0.00488678,0.274423,0
2024-11-29 17:54:51.231,-0.885943,2.89442,12.7511,-0.269307,-0.020158,0.272591,0
2024-11-29 17:54:51.232,-0.833001,2.85613,12.8851,-0.255869,-0.0299315,0.272591,0
2024-11-29 17:54:51.235,-0.775574,2.82263,12.9975,-0.240597,-0.0384834,0.272591,0
2024-11-29 17:54:51.240,-0.682254,2.81067,13.2012,-0.198449,-0.0372617,0.272591,0
2024-11-29 17:54:51.240,-0.682254,2.81067,13.2012,-0.198449,-0.0372617,0.272591,0
2024-11-29 17:54:51.243,-0.658325,2.81785,13.2945,-0.178902,-0.0323749,0.27198,0
2024-11-29 17:54:51.245,-0.646361,2.8346,13.3854,-0.164242,-0.0244339,0.273812,0
2024-11-29 17:54:51.247,-0.615255,2.85853,13.4764,-0.147138,-0.0164929,0.273201,0
2024-11-29 17:54:51.249,-0.576969,2.87528,13.5577,-0.147138,-0.0164929,0.273201,0
2024-11-29 17:54:51.251,-0.565005,2.88724,13.6271,-0.130034,-0.00549763,0.277477,0
2024-11-29 17:54:51.253,-0.553041,2.91117,13.6893,-0.110487,0.00671932,0.278699,0
2024-11-29 17:54:51.259,-0.488435,2.96381,13.7519,-0.0536782,0.064139,0.277477,0
2024-11-29 17:54:51.259,-0.488435,2.96381,13.7519,-0.0536782,0.064139,0.277477,0
2024-11-29 17:54:51.261,-0.457328,2.99252,13.7519,-0.0536782,0.064139,0.277477,0
2024-11-29 17:54:51.263,-0.457328,3.01645,13.7324,-0.038407,0.0849078,0.276256,0
2024-11-29 17:54:51.266,-0.486042,3.03799,13.675,-0.0231358,0.107509,0.277477,0
2024-11-29 17:54:51.268,-0.495613,3.07627,13.5817,-0.0096972,0.131943,0.276256,0
2024-11-29 17:54:51.272,-0.502792,3.134,13.3831,0.00618483,0.171648,0.277477,0
2024-11-29 17:54:51.273,-0.502792,3.134,13.3831,0.00923906,0.188752,0.275034,0
2024-11-29 17:54:51.275,-0.514756,3.17228,13.2658,0.00923906,0.188752,0.275034,0
2024-11-29 17:54:51.277,-0.54347,3.201,13.1387,0.0104608,0.199747,0.273201,0
2024-11-29 17:54:51.279,-0.574577,3.21057,13.0119,0.00740652,0.207688,0.275034,0
2024-11-29 17:54:51.282,-0.569791,3.20339,12.8707,-0.000534491,0.215018,0.276256,0
2024-11-29 17:54:51.285,-0.545863,3.18903,12.7367,-0.0127514,0.226624,0.278699,0
2024-11-29 17:54:51.286,-0.538684,3.18186,12.6266,-0.0268009,0.233344,0.279921,0
2024-11-29 17:54:51.290,-0.533899,3.18903,12.5402,-0.0432938,0.237009,0.278699,0
2024-11-29 17:54:51.291,-0.538684,3.21536,12.478,-0.0597867,0.238841,0.276256,0
2024-11-29 17:54:51.294,-0.550648,3.268,12.4277,-0.0799446,0.2309,0.273812,0
2024-11-29 17:54:51.297,-0.553041,3.31825,12.411,-0.102546,0.221738,0.270147,0
2024-11-29 17:54:51.298,-0.538684,3.33978,12.4038,-0.125147,0.208299,0.267093,0
2024-11-29 17:54:51.300,-0.512363,3.35653,12.3966,-0.147749,0.191195,0.264039,0
2024-11-29 17:54:51.304,-0.483649,3.35892,12.4277,-0.17035,0.170426,0.259763,0
2024-11-29 17:54:51.305,-0.462114,3.35414,12.4684,-0.194784,0.147214,0.254876,0
2024-11-29 17:54:51.309,-0.423829,3.35653,12.478,-0.24243,0.0855186,0.235329,0
2024-11-29 17:54:51.311,-0.387936,3.38285,12.4995,-0.24243,0.0855186,0.235329,0
2024-11-29 17:54:51.313,-0.349651,3.3996,12.5426,-0.293741,0.00305424,0.204787,0
2024-11-29 17:54:51.316,-0.287438,3.38046,12.6144,-0.293741,0.00305424,0.204787,0
2024-11-29 17:54:51.317,-0.222533,3.35892,12.7056,-0.318175,-0.0470352,0.187072,0
2024-11-29 17:54:51.320,-0.167498,3.3326,12.7774,-0.345052,-0.103233,0.167525,0
2024-11-29 17:54:51.324,-0.0191426,3.2656,12.9473,-0.400029,-0.220516,0.1211,0
2024-11-29 17:54:51.325,-0.0191426,3.2656,12.9473,-0.400029,-0.220516,0.1211,0
2024-11-29 17:54:51.329,0.138784,3.16032,13.1892,-0.455005,-0.34635,0.0704001,0
2024-11-29 17:54:51.330,0.138784,3.16032,13.1892,-0.455005,-0.34635,0.0704001,0
2024-11-29 17:54:51.332,0.234497,3.08854,13.352,-0.455005,-0.34635,0.0704001,0
2024-11-29 17:54:51.334,0.337687,3.0021,13.5529,-0.509981,-0.476461,0.0172564,0
2024-11-29 17:54:51.336,0.435793,2.89442,13.7542,-0.533804,-0.539989,-0.00962084,0
2024-11-29 17:54:51.338,0.550648,2.77717,13.972,-0.557016,-0.596798,-0.0383307,0
2024-11-29 17:54:51.342,0.660718,2.66231,14.2041,-0.579007,-0.652996,-0.0645971,0
2024-11-29 17:54:51.344,0.74686,2.54267,14.4269,-0.616269,-0.75012,-0.115297,0
2024-11-29 17:54:51.348,0.895514,2.35095,14.913,-0.630318,-0.794101,-0.142175,0
2024-11-29 17:54:51.349,0.895514,2.35095,14.913,-0.630318,-0.794101,-0.142175,0
2024-11-29 17:54:51.350,0.94337,2.27438,15.1403,-0.640168,-0.83625,-0.165998,0
2024-11-29 17:54:51.352,0.981655,2.19063,15.37,-0.645666,-0.869847,-0.194097,0
2024-11-29 17:54:51.355,1.06062,2.09492,15.6144,-0.647498,-0.898556,-0.219752,0
2024-11-29 17:54:51.357,1.12044,1.9992,15.9015,-0.648109,-0.923601,-0.245408,0
2024-11-29 17:54:51.360,1.11805,1.90798,16.22,-0.64139,-0.943148,-0.270453,0
2024-11-29 17:54:51.362,1.11326,1.81226,16.5191,-0.626042,-0.957808,-0.291832,0
2024-11-29 17:54:51.367,1.0654,1.65434,16.9765,-0.576563,-0.952311,-0.329705,0
2024-11-29 17:54:51.367,1.0654,1.65434,16.9765,-0.576563,-0.952311,-0.329705,0
2024-11-29 17:54:51.369,1.0008,1.58734,17.1299,-0.539302,-0.935207,-0.343754,0
2024-11-29 17:54:51.372,0.938585,1.49641,17.2807,-0.450729,-0.871679,-0.359636,0
2024-11-29 17:54:51.373,0.888335,1.40548,17.4147,-0.450729,-0.871679,-0.359636,0
2024-11-29 17:54:51.377,0.845265,1.30469,17.4936,-0.398807,-0.831363,-0.362691,0
2024-11-29 17:54:51.381,0.744467,1.09651,17.4673,-0.279692,-0.723854,-0.36208,0
2024-11-29 17:54:51.382,0.744467,1.09651,17.4673,-0.279692,-0.723854,-0.36208,3
2024-11-29 17:54:51.384,0.663111,0.97687,17.3525,-0.150192,-0.600463,-0.351084,0
2024-11-29 17:54:51.385,0.586541,0.859622,17.1802,-0.150192,-0.600463,-0.351084,0
2024-11-29 17:54:51.388,0.519542,0.734896,16.931,-0.0842206,-0.537546,-0.340089,0
2024-11-29 17:54:51.390,0.481256,0.605683,16.6223,-0.022525,-0.472796,-0.327261,0
2024-11-29 17:54:51.393,0.452543,0.507577,16.3014,0.0379489,-0.408657,-0.312601,0
2024-11-29 17:54:51.396,0.421436,0.407079,15.9805,0.0929251,-0.34635,-0.295497,0
2024-11-29 17:54:51.398,0.397508,0.308973,15.6024,0.188828,-0.232733,-0.250906,0
2024-11-29 17:54:51.400,0.352044,0.234497,15.1858,0.188828,-0.232733,-0.250906,0
2024-11-29 17:54:51.402,0.289831,0.191426,14.793,0.228533,-0.179589,-0.228915,0
2024-11-29 17:54:51.405,0.236889,0.172283,14.4197,0.263352,-0.128278,-0.203259,0
2024-11-29 17:54:51.406,0.177069,0.165105,14.0438,0.295116,-0.0812427,-0.177604,0
2024-11-29 17:54:51.409,0.117248,0.184247,13.6822,0.323215,-0.0342074,-0.150727,0
2024-11-29 17:54:51.412,0.066999,0.210568,13.328,0.369028,0.0476461,-0.101248,0
2024-11-29 17:54:51.414,0.0502493,0.248854,12.9832,0.369028,0.0476461,-0.101248,0
2024-11-29 17:54:51.417,0.0454636,0.294616,12.6697,0.40629,0.118504,-0.0597103,0
2024-11-29 17:54:51.418,0.040678,0.328116,12.387,0.40629,0.118504,-0.0597103,0
2024-11-29 17:54:51.422,0.0622134,0.368794,12.1358,0.424004,0.149047,-0.0444391,0
2024-11-29 17:54:51.424,0.0909273,0.409472,11.8747,0.441108,0.175924,-0.032833,0
2024-11-29 17:54:51.425,0.0933201,0.469292,11.6139,0.441108,0.175924,-0.032833,0
2024-11-29 17:54:51.428,0.0765703,0.538684,11.3504,0.472261,0.227235,-0.0193944,0
2024-11-29 17:54:51.431,0.0789631,0.60329,11.0871,0.485089,0.248615,-0.016951,0
2024-11-29 17:54:51.433,0.0765703,0.675075,10.8428,0.497306,0.271216,-0.0181727,0
2024-11-29 17:54:51.436,0.0622134,0.742074,10.6083,0.509523,0.290763,-0.0193944,0
2024-11-29 17:54:51.437,0.040678,0.799502,10.3711,0.521129,0.307256,-0.0224486,0
2024-11-29 17:54:51.440,0.0191426,0.845265,10.1318,0.530292,0.320695,-0.0273354,0
2024-11-29 17:54:51.442,0.00239282,0.88355,9.89013,0.537011,0.333523,-0.0316113,0
2024-11-29 17:54:51.444,-0.00957129,0.917049,9.65773,0.54373,0.343296,-0.0401632,0
2024-11-29 17:54:51.447,-0.00717847,0.950549,9.41606,0.546174,0.350015,-0.0493259,0
2024-11-29 17:54:51.450,-0.0167498,0.984048,9.18126,0.542509,0.354291,-0.0682622,0
2024-11-29 17:54:51.451,-0.040678,0.986441,8.96351,0.542509,0.354291,-0.0682622,0
2024-11-29 17:54:51.456,-0.0646062,0.99362,8.52772,0.532735,0.343907,-0.0884201,0
2024-11-29 17:54:51.457,-0.0933201,1.02233,8.52772,0.525405,0.336577,-0.0975828,0
2024-11-29 17:54:51.459,-0.136391,1.0343,8.3363,0.525405,0.336577,-0.0975828,0
2024-11-29 17:54:51.461,-0.165105,1.02712,8.17358,0.513188,0.32436,-0.105524,0
2024-11-29 17:54:51.463,-0.191426,1.04626,8.00818,0.50036,0.309089,-0.112243,0
2024-11-29 17:54:51.465,-0.227318,1.08694,7.87418,0.483867,0.289542,-0.117741,0
2024-11-29 17:54:51.470,-0.304188,1.11326,7.68754,0.456379,0.251669,-0.126293,0
2024-11-29 17:54:51.471,-0.304188,1.11326,7.68754,0.456379,0.251669,-0.126293,0
2024-11-29 17:54:51.473,-0.325723,1.12283,7.60618,0.439886,0.226013,-0.129958,0
2024-11-29 17:54:51.476,-0.320937,1.12044,7.55803,0.40629,0.171648,-0.134234,0
2024-11-29 17:54:51.478,-0.318545,1.11565,7.51974,0.39224,0.138051,-0.137288,0
2024-11-29 17:54:51.480,-0.313759,1.10848,7.5006,0.39224,0.138051,-0.137288,0
2024-11-29 17:54:51.482,-0.301795,1.1013,7.49103,0.376969,0.104455,-0.137899,0
2024-11-29 17:54:51.485,-0.270389,1.08933,7.50778,0.361698,0.0702474,-0.140342,0
2024-11-29 17:54:51.488,-0.229711,1.06301,7.55324,0.34887,0.0372617,-0.142786,0
2024-11-29 17:54:51.489,-0.20339,1.04626,7.58944,0.340318,0.00366508,-0.142786,0
2024-11-29 17:54:51.494,-0.129212,1.01515,7.68036,0.319549,-0.0561979,-0.14584,0
2024-11-29 17:54:51.495,-0.129212,1.01515,7.68036,0.319549,-0.0561979,-0.14584,0
2024-11-29 17:54:51.496,-0.0741775,1.03669,7.74018,0.310998,-0.0842969,-0.147061,0
2024-11-29 17:54:51.499,-0.0382852,1.0343,7.8024,0.301835,-0.10812,-0.148283,0
2024-11-29 17:54:51.502,0.00239282,1.0319,7.87897,0.297559,-0.128889,-0.150727,0
2024-11-29 17:54:51.503,0.0502493,1.0654,7.95554,0.295116,-0.15149,-0.15317,0
2024-11-29 17:54:51.506,0.100499,1.09173,8.02732,0.293283,-0.171037,-0.156835,0
2024-11-29 17:54:51.508,0.162712,1.11087,8.09432,0.292061,-0.189363,-0.161111,0
2024-11-29 17:54:51.511,0.208176,1.12522,8.15444,0.291451,-0.204634,-0.163554,0
2024-11-29 17:54:51.513,0.258425,1.14676,8.20469,0.289618,-0.218683,-0.165998,0
2024-11-29 17:54:51.515,0.318545,1.14437,8.24298,0.29084,-0.229068,-0.171495,0
2024-11-29 17:54:51.518,0.366401,1.13719,8.27887,0.29084,-0.240063,-0.175771,0
2024-11-29 17:54:51.521,0.409472,1.15394,8.29322,0.29084,-0.249226,-0.182491,0
2024-11-29 17:54:51.522,0.452543,1.1659,8.31476,0.293283,-0.256556,-0.189821,0
2024-11-29 17:54:51.525,0.486042,1.17308,8.34347,0.296948,-0.265108,-0.205092,0
2024-11-29 17:54:51.527,0.488435,1.18026,8.36022,0.296948,-0.265108,-0.205092,0
2024-11-29 17:54:51.529,0.481256,1.19701,8.35065,0.29817,-0.271216,-0.2112,0
2024-11-29 17:54:51.531,0.481256,1.21137,8.31954,0.298781,-0.27427,-0.216698,0
2024-11-29 17:54:51.535,0.4669,1.1994,8.29322,0.295116,-0.282822,-0.233802,0
2024-11-29 17:54:51.537,0.459721,1.1994,8.2669,0.293894,-0.288931,-0.242354,0
2024-11-29 17:54:51.538,0.469292,1.22812,8.25733,0.293894,-0.288931,-0.242354,0
2024-11-29 17:54:51.541,0.469292,1.24247,8.2669,0.294505,-0.298093,-0.253349,0
2024-11-29 17:54:51.543,0.469292,1.24008,8.24298,0.295726,-0.307256,-0.264955,0
2024-11-29 17:54:51.545,0.476471,1.23769,8.17837,0.296948,-0.316419,-0.274118,0
2024-11-29 17:54:51.549,0.452543,1.24008,8.09193,0.292061,-0.325582,-0.278394,0
2024-11-29 17:54:51.550,0.411865,1.22572,8.02493,0.28412,-0.331079,-0.28328,0
2024-11-29 17:54:51.554,0.395115,1.21376,7.97707,0.278623,-0.334744,-0.286335,0
2024-11-29 17:54:51.556,0.390329,1.22572,7.96272,0.26946,-0.341464,-0.290611,0
2024-11-29 17:54:51.558,0.390329,1.21615,7.97707,0.26213,-0.34574,-0.295497,0
2024-11-29 17:54:51.560,0.407079,1.20897,7.96032,0.256021,-0.348794,-0.29733,0
2024-11-29 17:54:51.563,0.428614,1.21137,7.934,0.246859,-0.348183,-0.298552,0
2024-11-29 17:54:51.564,0.431007,1.19222,7.934,0.238918,-0.343907,-0.300384,0
2024-11-29 17:54:51.567,0.423829,1.19222,7.91964,0.228533,-0.33902,-0.301606,0
2024-11-29 17:54:51.569,0.409472,1.18744,7.91486,0.221203,-0.332301,-0.300995,0
2024-11-29 17:54:51.572,0.387936,1.20419,7.93161,0.21204,-0.321306,-0.300384,0
2024-11-29 17:54:51.574,0.366401,1.21137,7.93161,0.206543,-0.31031,-0.298552,0
2024-11-29 17:54:51.576,0.347258,1.2018,7.94836,0.199823,-0.295039,-0.294276,0
2024-11-29 17:54:51.578,0.308973,1.22572,7.96032,0.194937,-0.278546,-0.290611,0
2024-11-29 17:54:51.581,0.258425,1.26401,7.94118,0.188217,-0.258388,-0.284502,0
2024-11-29 17:54:51.583,0.20339,1.28794,7.94597,0.185774,-0.235787,-0.279615,0
2024-11-29 17:54:51.585,0.148355,1.30229,7.95554,0.18272,-0.210742,-0.271063,0
2024-11-29 17:54:51.588,0.11007,1.32861,7.94836,0.18272,-0.186308,-0.260679,0
2024-11-29 17:54:51.591,0.0789631,1.3334,7.93161,0.181498,-0.161875,-0.251516,0
2024-11-29 17:54:51.595,0.0454636,1.33819,7.91725,0.186996,-0.111174,-0.230748,0
2024-11-29 17:54:51.596,0.0454636,1.33819,7.91725,0.186996,-0.111174,-0.230748,0
2024-11-29 17:54:51.597,0.0239282,1.34776,7.89332,0.193715,-0.0849078,-0.219752,0
2024-11-29 17:54:51.600,-0.00239282,1.35733,7.85982,0.196769,-0.0623064,-0.207535,0
2024-11-29 17:54:51.603,-0.0239282,1.38604,7.82632,0.202878,-0.0403159,-0.195318,0
2024-11-29 17:54:51.604,-0.0478565,1.40279,7.8,0.209597,-0.0183254,-0.183712,0
2024-11-29 17:54:51.607,-0.0717847,1.40548,7.7665,0.214484,0.00183254,-0.172717,0
2024-11-29 17:54:51.610,-0.081356,1.43898,7.71865,0.224868,0.020158,-0.1605,0
2024-11-29 17:54:51.611,-0.0789631,1.4677,7.66122,0.230366,0.0390942,-0.150116,0
2024-11-29 17:54:51.614,-0.0885344,1.4677,7.59901,0.238918,0.0549763,-0.141564,0
2024-11-29 17:54:51.617,-0.102891,1.47488,7.52692,0.245637,0.0690257,-0.132401,0
2024-11-29 17:54:51.619,-0.12682,1.51555,7.4336,0.254189,0.0812427,-0.123238,0
2024-11-29 17:54:51.621,-0.145962,1.54905,7.34985,0.260908,0.0934596,-0.114687,0
2024-11-29 17:54:51.623,-0.155533,1.56341,7.27807,0.268238,0.101401,-0.1098,0
2024-11-29 17:54:51.627,-0.167498,1.58973,7.21346,0.281677,0.108731,-0.0951395,0
2024-11-29 17:54:51.630,-0.193819,1.66869,7.07707,0.286564,0.108731,-0.0878093,0
2024-11-29 17:54:51.630,-0.193819,1.66869,7.07707,0.286564,0.108731,-0.0878093,0
2024-11-29 17:54:51.633,-0.205783,1.71416,7.00738,0.286564,0.108731,-0.0878093,0
2024-11-29 17:54:51.636,-0.193819,1.73569,6.93799,0.303667,0.107509,-0.068873,0
2024-11-29 17:54:51.638,-0.165105,1.76201,6.87099,0.303667,0.107509,-0.068873,0
2024-11-29 17:54:51.640,-0.155533,1.77398,6.79681,0.3055,0.107509,-0.0639862,0
2024-11-29 17:54:51.642,-0.129212,1.76919,6.72503,0.3055,0.107509,-0.0639862,0
