timestamp,accel_x,accel_y,accel_z,gyro_x,gyro_y,gyro_z,step_timestamp
2024-11-29 17:57:03.002,0.287438,2.24566,9.82314,-0.00419957,0.00244339,-0.037109,0
2024-11-29 17:57:03.003,0.27996,2.2672,9.82314,-0.00419957,0.00244339,-0.037109,0
2024-11-29 17:57:03.003,0.27996,2.2672,9.82314,-0.00419957,0.00244339,-0.037109,0
2024-11-29 17:57:03.003,0.27996,2.2672,9.82314,-0.00419957,0.00244339,-0.037109,0
2024-11-29 17:57:03.003,0.27996,2.2672,9.82314,-0.00419957,0.00244339,-0.037109,0
2024-11-29 17:57:03.003,0.27996,2.2672,9.82314,-0.00419957,0.00244339,-0.037109,0
2024-11-29 17:57:03.003,0.27996,2.2672,9.82314,-0.00419957,0.00244339,-0.037109,0
2024-11-29 17:57:03.003,0.27996,2.2672,9.82314,-0.00419957,0.00244339,-0.037109,0
2024-11-29 17:57:03.003,0.27996,2.2672,9.82314,-0.00419957,0.00244339,-0.037109,0
2024-11-29 17:57:03.003,0.27996,2.2672,9.82314,-0.00419957,0.00244339,-0.037109,0
2024-11-29 17:57:03.003,0.27996,2.2672,9.82314,-0.00419957,0.00244339,-0.037109,0
2024-11-29 17:57:03.003,0.27996,2.2672,9.82314,-0.00419957,0.00244339,-0.037109,0
2024-11-29 17:57:03.003,0.27996,2.2672,9.82314,-0.00419957,0.00244339,-0.037109,0
2024-11-29 17:57:03.003,0.27996,2.2672,9.82314,-0.00419957,0.00244339,-0.037109,0
2024-11-29 17:57:03.003,0.27996,2.2672,9.82314,-0.00419957,0.00244339,-0.037109,0
2024-11-29 17:57:03.003,0.27996,2.2672,9.82314,-0.00419957,0.00244339,-0.037109,0
2024-11-29 17:57:03.003,0.27996,2.2672,9.82314,-0.00419957,0.00244339,-0.037109,0
2024-11-29 17:57:03.003,0.27996,2.2672,9.82314,-0.00419957,0.00244339,-0.037109,0
2024-11-29 17:57:03.003,0.27996,2.2672,9.82314,-0.00419957,0.00244339,-0.037109,0
2024-11-29 17:57:03.003,0.27996,2.2672,9.82314,-0.00419957,0.00244339,-0.037109,0
2024-11-29 17:57:03.003,0.27996,2.2672,9.82314,-0.00419957,0.00244339,-0.037109,0
2024-11-29 17:57:03.003,0.27996,2.2672,9.82314,-0.00419957,0.00244339,-0.037109,0
2024-11-29 17:57:03.003,0.27996,2.2672,9.82314,-0.00419957,0.00244339,-0.037109,0
2024-11-29 17:57:03.003,0.27996,2.2672,9.82314,-0.00419957,0.00244339,-0.037109,0
2024-11-29 17:57:03.003,0.27996,2.2672,9.82314,-0.00419957,0.00244339,-0.037109,0
2024-11-29 17:57:03.003,0.27996,2.2672,9.82314,-0.00419957,0.00244339,-0.037109,0
2024-11-29 17:57:03.003,0.27996,2.2672,9.82314,-0.00419957,0.00244339,-0.037109,0
2024-11-29 17:57:03.003,0.27996,2.2672,9.82314,-0.00419957,0.00244339,-0.037109,0
2024-11-29 17:57:03.003,0.27996,2.2672,9.82314,-0.00419957,0.00244339,-0.037109,0
2024-11-29 17:57:03.003,0.27996,2.2672,9.82314,-0.00419957,0.00244339,-0.037109,0
2024-11-29 17:57:03.004,0.27996,2.2672,9.82314,-0.00419957,0.00244339,-0.037109,0
2024-11-29 17:57:03.004,0.27996,2.2672,9.82314,-0.00419957,0.00244339,-0.037109,0
2024-11-29 17:57:03.004,0.27996,2.2672,9.82314,-0.00419957,0.00244339,-0.037109,0
2024-11-29 17:57:03.004,0.27996,2.2672,9.82314,-0.00419957,0.00244339,-0.037109,0
2024-11-29 17:57:03.004,0.27996,2.2672,9.82314,-0.00419957,0.00244339,-0.037109,0
2024-11-29 17:57:03.004,0.27996,2.2672,9.82314,-0.00419957,0.00244339,-0.037109,0
2024-11-29 17:57:03.004,0.27996,2.2672,9.82314,-0.00419957,0.00244339,-0.037109,0
2024-11-29 17:57:03.004,0.27996,2.2672,9.82314,-0.00419957,0.00244339,-0.037109,0
2024-11-29 17:57:03.004,0.27996,2.2672,9.82314,-0.00419957,0.00244339,-0.037109,0
2024-11-29 17:57:03.004,0.27996,2.2672,9.82314,-0.00419957,0.00244339,-0.037109,0
2024-11-29 17:57:03.004,0.27996,2.2672,9.82314,-0.00419957,0.00244339,-0.037109,0
2024-11-29 17:57:03.004,0.27996,2.2672,9.82314,-0.00419957,0.00244339,-0.037109,0
2024-11-29 17:57:03.004,0.27996,2.2672,9.82314,-0.00419957,0.00244339,-0.037109,0
2024-11-29 17:57:03.004,0.27996,2.2672,9.82314,-0.00419957,0.00244339,-0.037109,0
2024-11-29 17:57:03.004,0.27996,2.2672,9.82314,-0.00419957,0.00244339,-0.037109,0
2024-11-29 17:57:03.004,0.27996,2.2672,9.82314,-0.00419957,0.00244339,-0.037109,0
2024-11-29 17:57:03.004,0.27996,2.2672,9.82314,-0.00419957,0.00244339,-0.037109,0
2024-11-29 17:57:03.004,0.27996,2.2672,9.82314,-0.00419957,0.00244339,-0.037109,0
2024-11-29 17:57:03.004,0.27996,2.2672,9.82314,-0.00419957,0.00244339,-0.037109,0
2024-11-29 17:57:03.004,0.27996,2.2672,9.82314,-0.00419957,0.00244339,-0.037109,0
2024-11-29 17:57:03.004,0.27996,2.2672,9.82314,-0.00419957,0.00244339,-0.037109,0
2024-11-29 17:57:03.004,0.27996,2.2672,9.82314,-0.00419957,0.00244339,-0.037109,0
2024-11-29 17:57:03.004,0.27996,2.2672,9.82314,-0.00419957,0.00244339,-0.037109,0
2024-11-29 17:57:03.004,0.27996,2.2672,9.82314,-0.00419957,0.00244339,-0.037109,0
2024-11-29 17:57:03.004,0.27996,2.2672,9.82314,-0.00419957,0.00244339,-0.037109,0
2024-11-29 17:57:03.004,0.27996,2.2672,9.82314,-0.00419957,0.00244339,-0.037109,0
2024-11-29 17:57:03.004,0.27996,2.2672,9.82314,-0.00419957,0.00244339,-0.037109,0
2024-11-29 17:57:03.004,0.27996,2.2672,9.82314,-0.00419957,0.00244339,-0.037109,0
2024-11-29 17:57:03.004,0.27996,2.2672,9.82314,-0.00419957,0.00244339,-0.037109,0
2024-11-29 17:57:03.004,0.27996,2.2672,9.82314,-0.00419957,0.00244339,-0.037109,0
2024-11-29 17:57:03.004,0.27996,2.2672,9.82314,-0.00419957,0.00244339,-0.037109,0
2024-11-29 17:57:03.004,0.27996,2.2672,9.82314,-0.00419957,0.00244339,-0.037109,0
2024-11-29 17:57:03.004,0.27996,2.2672,9.82314,-0.00419957,0.00244339,-0.037109,0
2024-11-29 17:57:03.004,0.27996,2.2672,9.82314,-0.00419957,0.00244339,-0.037109,0
2024-11-29 17:57:03.004,0.27996,2.2672,9.82314,-0.00419957,0.00244339,-0.037109,0
2024-11-29 17:57:03.004,0.27996,2.2672,9.82314,-0.00419957,0.00244339,-0.037109,0
2024-11-29 17:57:03.025,0.361615,2.29591,9.75823,-0.000534491,0.0103844,-0.0407741,0
2024-11-29 17:57:03.025,0.361615,2.29591,9.75823,-0.000534491,0.0103844,-0.0407741,0
2024-11-29 17:57:03.026,0.27996,2.29591,9.75823,0.000687203,0.0122169,-0.0432174,0
2024-11-29 17:57:03.027,0.373579,2.29113,9.73191,0.000687203,0.0122169,-0.0432174,0
2024-11-29 17:57:03.027,0.373579,2.29113,9.73191,0.000687203,0.0122169,-0.0432174,0
2024-11-29 17:57:03.027,0.373579,2.29113,9.73191,0.000687203,0.0122169,-0.0432174,0
2024-11-29 17:57:03.027,0.373579,2.29113,9.73191,0.000687203,0.0122169,-0.0432174,0
2024-11-29 17:57:03.027,0.373579,2.29113,9.73191,0.000687203,0.0122169,-0.0432174,0
2024-11-29 17:57:03.027,0.373579,2.29113,9.73191,0.000687203,0.0122169,-0.0432174,0
2024-11-29 17:57:03.027,0.373579,2.29113,9.73191,0.000687203,0.0122169,-0.0432174,0
2024-11-29 17:57:03.028,0.373579,2.29113,9.73191,0.000687203,0.0122169,-0.0432174,0
2024-11-29 17:57:03.028,0.373579,2.29113,9.73191,0.000687203,0.0122169,-0.0432174,0
2024-11-29 17:57:03.028,0.373579,2.29113,9.73191,0.000687203,0.0122169,-0.0432174,0
2024-11-29 17:57:03.028,0.373579,2.29113,9.73191,0.000687203,0.0122169,-0.0432174,0
2024-11-29 17:57:03.036,0.328116,2.30548,9.6338,-0.0096972,0.0226013,-0.0468825,0
2024-11-29 17:57:03.037,0.328116,2.30548,9.6338,-0.0096972,0.0226013,-0.0468825,0
2024-11-29 17:57:03.037,0.328116,2.30548,9.6338,-0.0096972,0.0226013,-0.0468825,0
2024-11-29 17:57:03.039,0.265603,2.32702,9.59552,-0.0109189,0.0323749,-0.0462717,0
2024-11-29 17:57:03.040,0.265603,2.32702,9.59552,-0.0109189,0.0323749,-0.0462717,0
2024-11-29 17:57:03.040,0.328116,2.32702,9.59552,-0.0109189,0.0323749,-0.0462717,0
2024-11-29 17:57:03.040,0.265603,2.32702,9.59552,-0.0109189,0.0323749,-0.0462717,0
2024-11-29 17:57:03.040,0.265603,2.32702,9.59552,-0.0109189,0.0323749,-0.0462717,0
2024-11-29 17:57:03.040,0.265603,2.32702,9.59552,-0.0109189,0.0323749,-0.0462717,0
2024-11-29 17:57:03.040,0.265603,2.32702,9.59552,-0.0109189,0.0323749,-0.0462717,0
2024-11-29 17:57:03.041,0.256032,2.30548,9.51895,-0.0219141,0.0415376,-0.0474934,0
2024-11-29 17:57:03.042,0.256032,2.30548,9.51895,-0.0274118,0.0525329,-0.0474934,0
2024-11-29 17:57:03.044,0.337687,2.24566,9.45673,-0.0274118,0.0525329,-0.0474934,0
2024-11-29 17:57:03.046,0.41665,2.19063,9.43998,-0.0359636,0.0555871,-0.0456608,0
2024-11-29 17:57:03.048,0.438186,2.1667,9.45434,-0.0469589,0.0568088,-0.0462717,0
2024-11-29 17:57:03.052,0.41665,2.17388,9.47827,-0.0561216,0.0568088,-0.0493259,0
2024-11-29 17:57:03.053,0.366401,2.17627,9.5022,-0.0640626,0.0543654,-0.0499368,0
2024-11-29 17:57:03.056,0.311366,2.19781,9.54766,-0.0768904,0.0452027,-0.0456608,0
2024-11-29 17:57:03.059,0.285045,2.21934,9.6362,-0.0768904,0.0452027,-0.0456608,0
2024-11-29 17:57:03.060,0.282652,2.2337,9.72952,-0.0775012,0.0397051,-0.0419957,0
2024-11-29 17:57:03.062,0.285045,2.25763,9.79652,-0.0775012,0.0348183,-0.0389415,0
2024-11-29 17:57:03.065,0.282652,2.2672,9.85424,-0.0750579,0.028099,-0.0352764,0
2024-11-29 17:57:03.067,0.275175,2.27199,9.89971,-0.0683385,0.023823,-0.0346656,0
2024-11-29 17:57:03.070,0.277567,2.26481,9.94756,-0.0603975,0.0195471,-0.0303897,0
2024-11-29 17:57:03.072,0.299402,2.25763,9.97867,-0.0518457,0.0116061,-0.0285571,0
2024-11-29 17:57:03.076,0.316152,2.26002,10.005,-0.0335202,-0.00183254,-0.0279463,0
2024-11-29 17:57:03.077,0.316152,2.26002,10.005,-0.0335202,-0.00183254,-0.0279463,0
2024-11-29 17:57:03.079,0.328116,2.2672,10.0098,-0.022525,-0.00733017,-0.0285571,0
2024-11-29 17:57:03.081,0.330509,2.27199,10.0074,-0.014584,-0.0134386,-0.0279463,0
2024-11-29 17:57:03.084,0.325723,2.28873,9.98824,-0.00603212,-0.0213797,-0.0285571,0
2024-11-29 17:57:03.086,0.32333,2.30309,9.96192,0.00435229,-0.0287098,-0.0285571,0
2024-11-29 17:57:03.088,0.316152,2.31506,9.9356,0.0110716,-0.0354291,-0.029168,0
2024-11-29 17:57:03.091,0.304188,2.31984,9.91167,0.0165692,-0.0421485,-0.0303897,0
2024-11-29 17:57:03.094,0.308973,2.32463,9.87338,0.0245102,-0.0586413,-0.029168,0
2024-11-29 17:57:03.096,0.32333,2.32941,9.84228,0.0245102,-0.0586413,-0.029168,0
2024-11-29 17:57:03.098,0.332901,2.32702,9.83271,0.0312296,-0.0635281,-0.029168,0
2024-11-29 17:57:03.100,0.337687,2.31506,9.81566,0.0306187,-0.0708583,-0.0303897,0
2024-11-29 17:57:03.103,0.344866,2.31745,9.77977,0.0318404,-0.0775776,-0.0316113,0
2024-11-29 17:57:03.106,0.366401,2.30788,9.74627,0.0312296,-0.0812427,-0.0334439,0
2024-11-29 17:57:03.108,0.392722,2.29591,9.74627,0.0312296,-0.0812427,-0.0389415,0
2024-11-29 17:57:03.110,0.404686,2.29831,9.74627,0.0312296,-0.0812427,-0.0389415,0
2024-11-29 17:57:03.113,0.402293,2.32223,9.71277,0.0275645,-0.0769668,-0.0432174,0
2024-11-29 17:57:03.115,0.397508,2.35334,9.69602,0.0275645,-0.0769668,-0.0432174,0
2024-11-29 17:57:03.117,0.385544,2.36052,9.7008,0.0251211,-0.0702474,-0.0444391,0
2024-11-29 17:57:03.120,0.378365,2.36531,9.69362,0.0184018,-0.0592522,-0.0462717,0
2024-11-29 17:57:03.122,0.385544,2.37488,9.68645,0.0184018,-0.0592522,-0.0462717,0
2024-11-29 17:57:03.124,0.373579,2.37248,9.67687,0.0147367,-0.0513112,-0.0481042,0
2024-11-29 17:57:03.127,0.371187,2.35813,9.66012,0.00679568,-0.0366508,-0.0505476,0
2024-11-29 17:57:03.129,0.390329,2.35573,9.65055,0.00679568,-0.0366508,-0.0505476,0
2024-11-29 17:57:03.132,0.397508,2.35095,9.64337,7.63559e-05,-0.028099,-0.0523802,0
2024-11-29 17:57:03.134,0.383151,2.32702,9.6362,-0.00542127,-0.0226013,-0.0542127,0
2024-11-29 17:57:03.135,0.383151,2.32223,9.64098,-0.00847551,-0.0146603,-0.0554344,0
2024-11-29 17:57:03.138,0.402293,2.32702,9.65295,-0.0133623,-0.00610847,-0.0572669,0
2024-11-29 17:57:03.141,0.411865,2.31984,9.65773,-0.0243575,0.00610847,-0.0590995,0
2024-11-29 17:57:03.143,0.409472,2.31984,9.6673,-0.0243575,0.00610847,-0.0590995,0
2024-11-29 17:57:03.146,0.402293,2.31745,9.66491,-0.0322986,0.0213797,-0.0615429,0
2024-11-29 17:57:03.148,0.392722,2.30548,9.6673,-0.0322986,0.0213797,-0.0615429,0
2024-11-29 17:57:03.149,0.383151,2.29591,9.69602,-0.0329094,0.0274881,-0.0615429,0
2024-11-29 17:57:03.153,0.392722,2.28395,9.70798,-0.0341311,0.0335966,-0.0639862,0
2024-11-29 17:57:03.155,0.380758,2.27199,9.71994,-0.0359636,0.0366508,-0.0633754,0
2024-11-29 17:57:03.157,0.361615,2.27916,9.75344,-0.038407,0.0397051,-0.0633754,0
2024-11-29 17:57:03.159,0.347258,2.26959,9.76541,-0.0359636,0.0403159,-0.0603212,0
2024-11-29 17:57:03.161,0.344866,2.25045,9.76541,-0.0347419,0.0366508,-0.0597103,0
2024-11-29 17:57:03.165,0.35683,2.23849,9.78455,-0.0341311,0.03604,-0.0584886,0
2024-11-29 17:57:03.166,0.35683,2.22891,9.80369,-0.0322986,0.0299315,-0.0584886,0
2024-11-29 17:57:03.168,0.352044,2.21934,9.81326,-0.0322986,0.0226013,-0.0560452,0
2024-11-29 17:57:03.172,0.354437,2.21695,9.83749,-0.030466,0.0152712,-0.052991,0
2024-11-29 17:57:03.176,0.364008,2.2337,9.88056,-0.0249684,-0.00244339,-0.0505476,0
2024-11-29 17:57:03.176,0.364008,2.2337,9.88056,-0.0249684,-0.00244339,-0.0505476,0
2024-11-29 17:57:03.179,0.361615,2.23849,9.91167,-0.0170274,-0.0232122,-0.0468825,0
2024-11-29 17:57:03.181,0.366401,2.24566,9.94995,-0.0170274,-0.0232122,-0.0468825,0
2024-11-29 17:57:03.182,0.373579,2.25524,10.0026,-0.0121406,-0.028099,-0.0438283,0
2024-11-29 17:57:03.185,0.375972,2.26241,10.0505,-0.00664296,-0.0366508,-0.0407741,0
2024-11-29 17:57:03.188,0.402293,2.2672,10.0624,-0.000534491,-0.0476461,-0.0377198,0
2024-11-29 17:57:03.190,0.447757,2.2672,10.0744,0.00618483,-0.0574196,-0.037109,0
2024-11-29 17:57:03.192,0.488435,2.26241,10.0935,0.0122933,-0.067804,-0.0389415,0
2024-11-29 17:57:03.195,0.536291,2.26002,10.0983,0.0196235,-0.0757451,-0.0364981,0
2024-11-29 17:57:03.198,0.576969,2.25045,10.1151,0.0342838,-0.087962,-0.0401632,0
2024-11-29 17:57:03.199,0.610469,2.23849,10.1103,0.0342838,-0.087962,-0.0401632,0
2024-11-29 17:57:03.201,0.648754,2.24806,10.084,0.0379489,-0.0946813,-0.04505,0
2024-11-29 17:57:03.205,0.675075,2.25763,10.0935,0.0410031,-0.0995681,-0.0499368,0
2024-11-29 17:57:03.207,0.687039,2.26481,10.0863,0.0477224,-0.102011,-0.0603212,0
2024-11-29 17:57:03.208,0.701396,2.27677,10.0528,0.0477224,-0.102011,-0.0603212,0
2024-11-29 17:57:03.211,0.706182,2.27916,10.0217,0.049555,-0.102622,-0.0652079,0
2024-11-29 17:57:03.214,0.706182,2.28395,9.99542,0.0501658,-0.104455,-0.0749815,0
2024-11-29 17:57:03.216,0.71336,2.28395,9.98106,0.0501658,-0.104455,-0.0749815,0
2024-11-29 17:57:03.219,0.722932,2.28156,9.96431,0.0483333,-0.105677,-0.0792574,0
2024-11-29 17:57:03.220,0.734896,2.2672,9.94038,0.0446682,-0.106287,-0.0853659,0
2024-11-29 17:57:03.224,0.751645,2.24566,9.92124,0.0367272,-0.104455,-0.0957503,0
2024-11-29 17:57:03.226,0.756431,2.22891,9.9021,0.0300079,-0.102622,-0.10247,0
2024-11-29 17:57:03.228,0.768395,2.21456,9.88056,0.0251211,-0.0983464,-0.1098,0
2024-11-29 17:57:03.230,0.775574,2.20977,9.8686,0.0251211,-0.0983464,-0.1098,0
2024-11-29 17:57:03.232,0.770788,2.20977,9.85664,0.0208452,-0.0922379,-0.114687,0
2024-11-29 17:57:03.235,0.751645,2.2002,9.85185,0.013515,-0.0836861,-0.118963,0
2024-11-29 17:57:03.237,0.737288,2.19781,9.83988,0.00923906,-0.0751342,-0.12446,0
2024-11-29 17:57:03.240,0.725324,2.20738,9.82792,-0.00419957,-0.0549763,-0.134234,0
2024-11-29 17:57:03.242,0.699003,2.22174,9.83271,-0.00419957,-0.0549763,-0.134234,0
2024-11-29 17:57:03.244,0.682254,2.22652,9.83031,-0.00908635,-0.0433702,-0.137288,0
2024-11-29 17:57:03.246,0.646361,2.21456,9.82074,-0.0127514,-0.0311532,-0.139731,0
2024-11-29 17:57:03.248,0.612862,2.20499,9.80848,-0.0164165,-0.0207688,-0.142175,0
2024-11-29 17:57:03.252,0.584148,2.17627,9.8013,-0.0182491,-0.0116061,-0.142786,0
2024-11-29 17:57:03.253,0.56022,2.17149,9.78216,-0.0231358,0.000610847,-0.145229,0
2024-11-29 17:57:03.256,0.531506,2.17388,9.7678,-0.0249684,0.00977356,-0.148894,0
2024-11-29 17:57:03.258,0.488435,2.15952,9.76062,-0.0298552,0.0189363,-0.148283,0
2024-11-29 17:57:03.261,0.464507,2.15952,9.74387,-0.0316877,0.0274881,-0.147672,0
2024-11-29 17:57:03.263,0.442971,2.15952,9.72234,-0.0335202,0.0390942,-0.147672,0
2024-11-29 17:57:03.265,0.402293,2.16192,9.71277,-0.0365745,0.0433702,-0.144618,0
2024-11-29 17:57:03.268,0.378365,2.1667,9.70559,-0.0371853,0.0507003,-0.144007,0
2024-11-29 17:57:03.270,0.35683,2.17627,9.67927,-0.0371853,0.0568088,-0.140953,0
2024-11-29 17:57:03.273,0.328116,2.16909,9.65295,-0.0371853,0.0623064,-0.137288,0
2024-11-29 17:57:03.274,0.316152,2.16192,9.63859,-0.0371853,0.067804,-0.132401,0
2024-11-29 17:57:03.278,0.304188,2.1667,9.61466,-0.0353528,0.0702474,-0.126904,0
2024-11-29 17:57:03.280,0.294616,2.17627,9.58834,-0.0353528,0.0702474,-0.126904,0
2024-11-29 17:57:03.281,0.311366,2.17866,9.5692,-0.0341311,0.0708583,-0.123849,0
2024-11-29 17:57:03.285,0.318545,2.17627,9.55005,-0.030466,0.0671932,-0.11713,0
2024-11-29 17:57:03.287,0.318545,2.18584,9.51177,-0.030466,0.0671932,-0.11713,0
2024-11-29 17:57:03.289,0.335294,2.19063,9.47827,-0.0310769,0.0616956,-0.115908,0
2024-11-29 17:57:03.292,0.359223,2.20499,9.46152,-0.0298552,0.0525329,-0.114076,0
2024-11-29 17:57:03.293,0.387936,2.22891,9.43281,-0.0322986,0.0470352,-0.111021,0
2024-11-29 17:57:03.298,0.431007,2.25045,9.38495,-0.030466,0.0384834,-0.111632,0
2024-11-29 17:57:03.299,0.431007,2.25045,9.38495,-0.030466,0.0384834,-0.111632,0
2024-11-29 17:57:03.301,0.462114,2.27199,9.35384,-0.0322986,0.00366508,-0.112854,0
2024-11-29 17:57:03.303,0.488435,2.29591,9.34188,-0.0322986,0.00366508,-0.112854,0
2024-11-29 17:57:03.305,0.524327,2.3007,9.3347,-0.0347419,-0.0103844,-0.115908,0
2024-11-29 17:57:03.308,0.565005,2.30788,9.32274,-0.0371853,-0.0244339,-0.120184,0
2024-11-29 17:57:03.310,0.600898,2.31984,9.32513,-0.038407,-0.0397051,-0.12446,0
2024-11-29 17:57:03.312,0.639183,2.32941,9.32034,-0.0408504,-0.0555871,-0.129347,0
2024-11-29 17:57:03.315,0.682254,2.33659,9.32513,-0.0439046,-0.0702474,-0.136066,0
2024-11-29 17:57:03.318,0.720539,2.33181,9.33231,-0.0469589,-0.0849078,-0.144007,0
2024-11-29 17:57:03.319,0.775574,2.33659,9.3347,-0.0518457,-0.10079,-0.150727,0
2024-11-29 17:57:03.322,0.830609,2.34856,9.33949,-0.0561216,-0.116061,-0.1605,0
2024-11-29 17:57:03.324,0.864407,2.36531,9.34666,-0.0603975,-0.128278,-0.16783,0
2024-11-29 17:57:03.327,0.893121,2.35813,9.36102,-0.0652843,-0.139884,-0.178826,0
2024-11-29 17:57:03.329,0.929013,2.34856,9.38016,-0.0689494,-0.149047,-0.188599,0
2024-11-29 17:57:03.331,0.940978,2.36531,9.40409,-0.0768904,-0.15882,-0.201427,0
2024-11-29 17:57:03.333,0.94337,2.36052,9.42802,-0.0829989,-0.164929,-0.213644,0
2024-11-29 17:57:03.336,0.938585,2.36052,9.46631,-0.0884965,-0.171037,-0.220363,0
2024-11-29 17:57:03.338,0.924228,2.36052,9.51177,-0.0939941,-0.174702,-0.228915,0
2024-11-29 17:57:03.341,0.912264,2.34856,9.52613,-0.104379,-0.179589,-0.24724,0
2024-11-29 17:57:03.344,0.885943,2.33659,9.54766,-0.104379,-0.179589,-0.24724,0
2024-11-29 17:57:03.345,0.864407,2.32223,9.57159,-0.109265,-0.179589,-0.25396,0
2024-11-29 17:57:03.347,0.852443,2.31027,9.57398,-0.116595,-0.176535,-0.263122,0
2024-11-29 17:57:03.351,0.825823,2.29352,9.58834,-0.120261,-0.174091,-0.267398,0
2024-11-29 17:57:03.352,0.797109,2.27677,9.6027,-0.125758,-0.17287,-0.270453,0
2024-11-29 17:57:03.355,0.768395,2.26241,9.60987,-0.130034,-0.169816,-0.274118,0
2024-11-29 17:57:03.358,0.744467,2.24327,9.61945,-0.136753,-0.163096,-0.278394,0
2024-11-29 17:57:03.361,0.708575,2.20738,9.62423,-0.150803,-0.15882,-0.282059,0
2024-11-29 17:57:03.362,0.73011,2.20738,9.62423,-0.150803,-0.15882,-0.282059,0
2024-11-29 17:57:03.365,0.694218,2.19541,9.6362,-0.164852,-0.155155,-0.28328,0
2024-11-29 17:57:03.367,0.667897,2.1667,9.65773,-0.164852,-0.155155,-0.28328,0
2024-11-29 17:57:03.369,0.658325,2.15234,9.69362,-0.170961,-0.153323,-0.281448,0
2024-11-29 17:57:03.372,0.667897,2.14517,9.73191,-0.176459,-0.150268,-0.281448,0
2024-11-29 17:57:03.373,0.675075,2.14277,9.7678,-0.180124,-0.150268,-0.280226,0
2024-11-29 17:57:03.377,0.689432,2.14038,9.80609,-0.19173,-0.146603,-0.279004,0
2024-11-29 17:57:03.378,0.701396,2.13081,9.84228,-0.19173,-0.146603,-0.279004,0
2024-11-29 17:57:03.380,0.720539,2.11406,9.88535,-0.194173,-0.144771,-0.277783,0
2024-11-29 17:57:03.383,0.74686,2.10688,9.93799,-0.197838,-0.146603,-0.279615,0
2024-11-29 17:57:03.386,0.770788,2.11406,9.98106,-0.19906,-0.144771,-0.280226,0
2024-11-29 17:57:03.388,0.794716,2.11645,10.0217,-0.197227,-0.145382,-0.280837,0
2024-11-29 17:57:03.390,0.811466,2.11884,10.0696,-0.195395,-0.144771,-0.282059,0
2024-11-29 17:57:03.393,0.816252,2.11884,10.1151,-0.192951,-0.141717,-0.284502,0
2024-11-29 17:57:03.394,0.825823,2.13081,10.1581,-0.191119,-0.140495,-0.286945,0
2024-11-29 17:57:03.397,0.837787,2.14277,10.1916,-0.18501,-0.137441,-0.288778,0
2024-11-29 17:57:03.400,0.845265,2.14995,10.218,-0.172183,-0.124613,-0.291832,0
2024-11-29 17:57:03.403,0.84018,2.15713,10.2347,-0.172183,-0.124613,-0.291832,0
2024-11-29 17:57:03.405,0.835394,2.1667,10.2467,-0.166074,-0.117283,-0.293665,0
2024-11-29 17:57:03.406,0.82343,2.19302,10.2323,-0.158133,-0.106287,-0.296108,0
2024-11-29 17:57:03.409,0.801895,2.20259,10.2108,-0.150192,-0.0983464,-0.294886,0
2024-11-29 17:57:03.412,0.792323,2.20738,10.1868,-0.14164,-0.0861295,-0.294886,0
2024-11-29 17:57:03.413,0.787538,2.21216,10.1342,-0.135532,-0.0757451,-0.29733,0
2024-11-29 17:57:03.417,0.782752,2.21695,10.0744,-0.128812,-0.0647498,-0.296108,0
2024-11-29 17:57:03.419,0.787538,2.20499,10.0122,-0.117817,-0.043981,-0.297941,0
2024-11-29 17:57:03.421,0.770788,2.20259,9.94038,-0.117817,-0.043981,-0.297941,0
2024-11-29 17:57:03.423,0.737288,2.23131,9.85664,-0.113541,-0.0329858,-0.296719,0
2024-11-29 17:57:03.426,0.720539,2.25045,9.7678,-0.113541,-0.00916271,-0.296719,0
2024-11-29 17:57:03.428,0.706182,2.26481,9.67209,-0.113541,-0.00916271,-0.296719,0
2024-11-29 17:57:03.432,0.639183,2.28634,9.49263,-0.118428,0.0116061,-0.29,0
2024-11-29 17:57:03.433,0.639183,2.28634,9.49263,-0.118428,0.0116061,-0.29,0
2024-11-29 17:57:03.436,0.648754,2.30548,9.40888,-0.128812,0.0244339,-0.291221,0
2024-11-29 17:57:03.437,0.655932,2.31745,9.3347,-0.128812,0.0244339,-0.291221,0
2024-11-29 17:57:03.439,0.665504,2.33181,9.25783,-0.137975,0.0287098,-0.290611,0
2024-11-29 17:57:03.443,0.672682,2.36291,9.19083,-0.147749,0.0317641,-0.288167,0
2024-11-29 17:57:03.444,0.660718,2.38445,9.14776,-0.157522,0.03604,-0.288167,0
2024-11-29 17:57:03.446,0.646361,2.42034,9.12144,-0.169128,0.0390942,-0.288778,0
2024-11-29 17:57:03.449,0.632004,2.46341,9.1023,-0.178291,0.0433702,-0.287556,0
2024-11-29 17:57:03.452,0.62004,2.49212,9.10469,-0.19173,0.0482569,-0.288167,0
2024-11-29 17:57:03.454,0.629611,2.53549,9.12144,-0.202725,0.0537546,-0.290611,0
2024-11-29 17:57:03.457,0.643968,2.57378,9.12862,-0.209444,0.0574196,-0.291221,0
2024-11-29 17:57:03.458,0.646361,2.58096,9.1334,-0.218607,0.0604739,-0.292443,0
2024-11-29 17:57:03.465,0.646361,2.62403,9.1334,-0.238154,0.0702474,-0.303438,0
2024-11-29 17:57:03.466,0.646361,2.62403,9.1334,-0.243041,0.0708583,-0.307103,0
2024-11-29 17:57:03.467,0.646361,2.61685,9.12623,-0.243041,0.0708583,-0.307103,0
2024-11-29 17:57:03.467,0.646361,2.61685,9.12623,-0.243041,0.0708583,-0.307103,0
2024-11-29 17:57:03.470,0.651147,2.61446,9.11665,-0.251593,0.0684149,-0.308325,0
2024-11-29 17:57:03.472,0.639183,2.59771,9.10708,-0.258312,0.0653607,-0.312601,0
2024-11-29 17:57:03.475,0.617647,2.57139,9.09033,-0.265031,0.0616956,-0.316877,0
2024-11-29 17:57:03.478,0.605683,2.55464,9.08076,-0.272972,0.0525329,-0.319931,0
2024-11-29 17:57:03.479,0.593719,2.55464,9.08555,-0.280303,0.0445919,-0.321764,0
2024-11-29 17:57:03.482,0.565005,2.55703,9.09273,-0.288244,0.0305424,-0.322986,0
2024-11-29 17:57:03.485,0.538684,2.53789,9.10708,-0.295574,0.015882,-0.321153,0
2024-11-29 17:57:03.487,0.538684,2.51845,9.12862,-0.303515,-0.00122169,-0.320542,0
2024-11-29 17:57:03.489,0.519542,2.51605,9.1669,-0.309623,-0.0189363,-0.31932,0
2024-11-29 17:57:03.492,0.500399,2.52084,9.22194,-0.316953,-0.0397051,-0.31932,0
2024-11-29 17:57:03.493,0.493221,2.51127,9.27488,-0.324284,-0.0629173,-0.317488,0
2024-11-29 17:57:03.497,0.469292,2.49452,9.32992,-0.331614,-0.105066,-0.310769,0
2024-11-29 17:57:03.499,0.452543,2.49452,9.39452,-0.331614,-0.105066,-0.310769,0
2024-11-29 17:57:03.501,0.440578,2.4993,9.45913,-0.334057,-0.13011,-0.308936,0
2024-11-29 17:57:03.504,0.435793,2.4993,9.52373,-0.339555,-0.176535,-0.300995,0
2024-11-29 17:57:03.506,0.442971,2.49212,9.60987,-0.339555,-0.176535,-0.300995,0
2024-11-29 17:57:03.508,0.459721,2.47298,9.69602,-0.340166,-0.196693,-0.298552,0
2024-11-29 17:57:03.510,0.488435,2.45384,9.78216,-0.341387,-0.219294,-0.295497,0
2024-11-29 17:57:03.515,0.512363,2.45145,9.94995,-0.341998,-0.260832,-0.29,0
2024-11-29 17:57:03.516,0.512363,2.45145,9.94995,-0.338944,-0.278546,-0.286335,0
2024-11-29 17:57:03.518,0.529113,2.4323,10.0457,-0.338944,-0.278546,-0.286335,0
2024-11-29 17:57:03.519,0.545863,2.43948,10.127,-0.339555,-0.291985,-0.28267,0
2024-11-29 17:57:03.523,0.555434,2.44905,10.2132,-0.337111,-0.304202,-0.279004,0
2024-11-29 17:57:03.526,0.586541,2.45384,10.3977,-0.32917,-0.320695,-0.272285,0
2024-11-29 17:57:03.526,0.586541,2.45384,10.3977,-0.32917,-0.320695,-0.272285,0
2024-11-29 17:57:03.529,0.596112,2.44427,10.4862,-0.324284,-0.326192,-0.26862,0
2024-11-29 17:57:03.532,0.605683,2.4347,10.5628,-0.321229,-0.326803,-0.261901,0
2024-11-29 17:57:03.533,0.60329,2.43948,10.6394,-0.321229,-0.326803,-0.261901,0
2024-11-29 17:57:03.537,0.612862,2.43948,10.7112,-0.306569,-0.317641,-0.245408,0
2024-11-29 17:57:03.539,0.612862,2.4323,10.7566,-0.306569,-0.317641,-0.245408,0
2024-11-29 17:57:03.542,0.598505,2.42273,10.8117,-0.306569,-0.317641,-0.245408,0
2024-11-29 17:57:03.544,0.581755,2.41795,10.8643,-0.295574,-0.299926,-0.233191,0
2024-11-29 17:57:03.546,0.56022,2.41795,10.893,-0.289465,-0.287098,-0.227082,0
2024-11-29 17:57:03.548,0.550648,2.42513,10.9074,-0.282135,-0.273049,-0.218531,0
2024-11-29 17:57:03.550,0.521934,2.44427,10.917,-0.275416,-0.256556,-0.209368,0
2024-11-29 17:57:03.552,0.4669,2.45623,10.9337,-0.270529,-0.23823,-0.199594,0
2024-11-29 17:57:03.555,0.431007,2.46341,10.9289,-0.265031,-0.216851,-0.189821,0
2024-11-29 17:57:03.558,0.390329,2.4682,10.9193,-0.258312,-0.195471,-0.180047,0
2024-11-29 17:57:03.559,0.364008,2.48734,10.9146,-0.258312,-0.195471,-0.180047,0
2024-11-29 17:57:03.563,0.347258,2.51366,10.8811,-0.243652,-0.123391,-0.143396,0
2024-11-29 17:57:03.565,0.318545,2.52592,10.85,-0.243652,-0.123391,-0.143396,0
2024-11-29 17:57:03.566,0.299402,2.55224,10.8284,-0.236932,-0.0995681,-0.133012,0
2024-11-29 17:57:03.569,0.282652,2.57857,10.7949,-0.233267,-0.0769668,-0.120795,0
2024-11-29 17:57:03.572,0.267996,2.59053,10.7518,-0.228991,-0.0561979,-0.107967,0
2024-11-29 17:57:03.574,0.272782,2.60728,10.7016,-0.228991,-0.0561979,-0.107967,0
2024-11-29 17:57:03.576,0.282652,2.63121,10.6514,-0.22105,-0.0146603,-0.0878093,0
2024-11-29 17:57:03.579,0.292223,2.65514,10.5891,-0.21372,0.0207688,-0.0707056,0
2024-11-29 17:57:03.582,0.294616,2.67189,10.5317,-0.209444,0.03604,-0.0633754,0
2024-11-29 17:57:03.584,0.289831,2.69103,10.491,-0.209444,0.03604,-0.0633754,0
2024-11-29 17:57:03.586,0.282652,2.72692,10.4336,-0.207001,0.0476461,-0.0554344,0
2024-11-29 17:57:03.589,0.282652,2.76042,10.3639,-0.197227,0.0671932,-0.0456608,0
2024-11-29 17:57:03.591,0.297009,2.78674,10.3089,-0.192951,0.07208,-0.0389415,0
2024-11-29 17:57:03.593,0.313759,2.81785,10.285,-0.192951,0.07208,-0.0389415,0
2024-11-29 17:57:03.595,0.328116,2.84656,10.2371,-0.188065,0.0745234,-0.0352764,0
2024-11-29 17:57:03.598,0.32333,2.8657,10.1821,-0.178902,0.0812427,-0.0310005,0
2024-11-29 17:57:03.600,0.316152,2.88006,10.1342,-0.178902,0.0812427,-0.0310005,0
2024-11-29 17:57:03.603,0.313759,2.89442,10.0887,-0.164242,0.0787993,-0.0273354,0
2024-11-29 17:57:03.605,0.304188,2.92074,10.0528,-0.164242,0.0787993,-0.0273354,0
2024-11-29 17:57:03.607,0.289831,2.93988,10.0026,-0.158133,0.0763559,-0.0267246,0
2024-11-29 17:57:03.609,0.270389,2.96381,9.94517,-0.149581,0.0714691,-0.0285571,0
2024-11-29 17:57:03.612,0.244068,2.98774,9.89731,-0.14164,0.0659715,-0.0273354,0
2024-11-29 17:57:03.614,0.227318,2.99492,9.86621,-0.131867,0.0568088,-0.0285571,0
2024-11-29 17:57:03.617,0.210568,2.98774,9.83031,-0.117817,0.0317641,-0.0255029,0
2024-11-29 17:57:03.619,0.208176,2.99252,9.78455,-0.114152,0.0103844,-0.0267246,0
2024-11-29 17:57:03.622,0.222533,3.0021,9.75105,-0.106822,-0.0122169,-0.0267246,0
2024-11-29 17:57:03.624,0.217747,2.99252,9.71994,-0.101324,-0.0354291,-0.029168,0
2024-11-29 17:57:03.626,0.198604,2.97577,9.7008,-0.101324,-0.0354291,-0.029168,0
2024-11-29 17:57:03.629,0.181855,2.97338,9.69841,-0.0952158,-0.0568088,-0.0310005,0
2024-11-29 17:57:03.630,0.153141,2.98774,9.7008,-0.0878856,-0.0757451,-0.032833,0
2024-11-29 17:57:03.632,0.11007,3.01645,9.71516,-0.0848314,-0.0934596,-0.0334439,0
2024-11-29 17:57:03.636,0.081356,3.04995,9.74148,-0.0756687,-0.108731,-0.032833,0
2024-11-29 17:57:03.637,0.0741775,3.05952,9.77737,-0.066506,-0.124613,-0.0340547,0
2024-11-29 17:57:03.639,0.0765703,3.04277,9.81087,-0.0555107,-0.139884,-0.0303897,0
2024-11-29 17:57:03.642,0.0909273,3.02602,9.83271,-0.0439046,-0.156988,-0.0316113,0
2024-11-29 17:57:03.648,0.129212,2.97817,9.84467,-0.0096972,-0.19486,-0.0334439,0
2024-11-29 17:57:03.648,0.129212,2.97817,9.84467,-0.0096972,-0.19486,-0.0334439,0
2024-11-29 17:57:03.649,0.145962,2.95185,9.85664,-0.0096972,-0.19486,-0.0334439,0
2024-11-29 17:57:03.652,0.165105,2.90638,9.85903,0.0116825,-0.204023,-0.0346656,0
2024-11-29 17:57:03.655,0.210568,2.87049,9.8686,0.0226777,-0.200969,-0.0340547,0
2024-11-29 17:57:03.656,0.244068,2.83699,9.84467,0.0226777,-0.200969,-0.0340547,0
2024-11-29 17:57:03.658,0.217747,2.81785,9.79173,0.0324513,-0.194249,-0.0316113,0
2024-11-29 17:57:03.661,0.200997,2.80588,9.75823,0.0385597,-0.188141,-0.0303897,0
2024-11-29 17:57:03.663,0.224925,2.79392,9.72712,0.0458899,-0.180811,-0.0303897,0
2024-11-29 17:57:03.666,0.260818,2.78913,9.71037,0.049555,-0.178367,-0.0303897,0
2024-11-29 17:57:03.668,0.275175,2.78674,9.71037,0.0532201,-0.177757,-0.032833,0
2024-11-29 17:57:03.671,0.285045,2.76281,9.7008,0.057496,-0.177757,-0.0426066,0
2024-11-29 17:57:03.673,0.316152,2.71735,9.67448,0.057496,-0.177757,-0.0426066,0
2024-11-29 17:57:03.676,0.342473,2.68385,9.62663,0.057496,-0.175313,-0.0456608,0
2024-11-29 17:57:03.678,0.373579,2.66471,9.57398,0.0513875,-0.171037,-0.0566561,0
2024-11-29 17:57:03.680,0.402293,2.65274,9.5357,0.0513875,-0.171037,-0.0566561,0
2024-11-29 17:57:03.683,0.407079,2.62164,9.51895,0.0471116,-0.164929,-0.0639862,0
2024-11-29 17:57:03.684,0.41665,2.59292,9.51416,0.0422248,-0.162485,-0.0682622,0
2024-11-29 17:57:03.688,0.440578,2.56182,9.5333,0.0367272,-0.158209,-0.0755923,0
2024-11-29 17:57:03.689,0.4669,2.53789,9.54766,0.0330621,-0.149658,-0.0792574,0
2024-11-29 17:57:03.692,0.490828,2.5331,9.54766,0.0226777,-0.131332,-0.089031,0
2024-11-29 17:57:03.695,0.500399,2.50409,9.55963,0.0226777,-0.131332,-0.089031,0
2024-11-29 17:57:03.696,0.521934,2.46102,9.58355,0.0165692,-0.119115,-0.0926961,0
2024-11-29 17:57:03.698,0.550648,2.44188,9.6027,0.013515,-0.105677,-0.0957503,0
2024-11-29 17:57:03.701,0.555434,2.42034,9.63141,0.00862822,-0.0934596,-0.100637,0
2024-11-29 17:57:03.703,0.541077,2.39402,9.64577,0.00618483,-0.0794101,-0.104302,0
2024-11-29 17:57:03.706,0.553041,2.37009,9.64577,0.00313059,-0.0653607,-0.106135,0
2024-11-29 17:57:03.709,0.576969,2.34377,9.64816,0.000687203,-0.051922,-0.109189,0
2024-11-29 17:57:03.710,0.586541,2.31745,9.64098,-0.00481042,-0.0384834,-0.114076,0
2024-11-29 17:57:03.713,0.586541,2.29113,9.64337,-0.00542127,-0.0274881,-0.115297,0
2024-11-29 17:57:03.715,0.579362,2.28395,9.65055,-0.00664296,-0.0152712,-0.118352,0
2024-11-29 17:57:03.718,0.588933,2.2672,9.64577,-0.00603212,-0.00610847,-0.122628,0
2024-11-29 17:57:03.720,0.591326,2.23609,9.64816,-0.0096972,0.0,-0.125682,0
2024-11-29 17:57:03.723,0.591326,2.22652,9.66491,-0.0170274,0.0128278,-0.132401,0
2024-11-29 17:57:03.725,0.593719,2.22413,9.67927,-0.0170274,0.0128278,-0.132401,0
2024-11-29 17:57:03.728,0.584148,2.19781,9.67687,-0.0164165,0.0189363,-0.134845,0
2024-11-29 17:57:03.729,0.591326,2.17627,9.68405,-0.0176382,0.0268773,-0.140342,0
2024-11-29 17:57:03.731,0.584148,2.16431,9.7008,-0.0188599,0.0323749,-0.140953,0
2024-11-29 17:57:03.735,0.569791,2.15952,9.72712,-0.0170274,0.0372617,-0.14584,0
2024-11-29 17:57:03.737,0.565005,2.14995,9.76062,-0.0133623,0.0500895,-0.149505,0
2024-11-29 17:57:03.739,0.555434,2.12602,9.77019,-0.0133623,0.0500895,-0.149505,0
2024-11-29 17:57:03.742,0.567398,2.10449,9.75823,-0.0127514,0.0568088,-0.150727,0
2024-11-29 17:57:03.744,0.576969,2.08535,9.75823,-0.00725381,0.0629173,-0.15317,0
2024-11-29 17:57:03.745,0.581755,2.05185,9.76062,-0.00664296,0.0696366,-0.151337,0
2024-11-29 17:57:03.748,0.584148,2.02313,9.7343,-0.000534491,0.0751342,-0.153781,0
2024-11-29 17:57:03.751,0.586541,2.00399,9.71516,0.0019089,0.0781884,-0.15317,0
2024-11-29 17:57:03.753,0.591326,1.97049,9.70319,0.00251974,0.0794101,-0.153781,0
2024-11-29 17:57:03.755,0.586541,1.94865,9.68166,0.0019089,0.0818535,-0.155613,0
2024-11-29 17:57:03.757,0.586541,1.93669,9.66252,0.00557398,0.0824644,-0.156224,0
2024-11-29 17:57:03.761,0.588933,1.91994,9.63859,0.00679568,0.0855186,-0.154392,0
2024-11-29 17:57:03.763,0.593719,1.91276,9.61705,0.00679568,0.0861295,-0.15317,0
2024-11-29 17:57:03.765,0.588933,1.89123,9.60987,0.00679568,0.0861295,-0.15317,0
2024-11-29 17:57:03.767,0.593719,1.87926,9.60509,0.00984991,0.0861295,-0.153781,0
2024-11-29 17:57:03.769,0.610469,1.87926,9.60748,0.00923906,0.0867403,-0.151948,0
2024-11-29 17:57:03.772,0.608076,1.8673,9.60748,0.00984991,0.0885729,-0.151337,0
2024-11-29 17:57:03.774,0.612862,1.85294,9.60987,0.0104608,0.0910162,-0.151337,0
2024-11-29 17:57:03.776,0.62004,1.84816,9.59073,0.0116825,0.095903,-0.150727,0
2024-11-29 17:57:03.782,0.629611,1.81944,9.55245,0.0104608,0.103233,-0.148283,0
2024-11-29 17:57:03.782,0.629611,1.81944,9.55245,0.0104608,0.103233,-0.148283,0
2024-11-29 17:57:03.783,0.62004,1.81226,9.55005,0.0116825,0.110563,-0.147061,0
2024-11-29 17:57:03.786,0.612862,1.80748,9.54766,0.00923906,0.117283,-0.145229,0
2024-11-29 17:57:03.788,0.608076,1.80748,9.51655,0.00984991,0.125224,-0.142786,0
2024-11-29 17:57:03.791,0.605683,1.80509,9.47588,0.00740652,0.131943,-0.140953,0
2024-11-29 17:57:03.793,0.608076,1.80269,9.43998,0.00557398,0.140495,-0.137288,0
2024-11-29 17:57:03.795,0.600898,1.79312,9.42084,0.0019089,0.149658,-0.136066,0
2024-11-29 17:57:03.797,0.598505,1.79073,9.38974,-0.000534491,0.158209,-0.130569,0
2024-11-29 17:57:03.800,0.596112,1.79551,9.32752,-0.00603212,0.167372,-0.125682,0
2024-11-29 17:57:03.802,0.588933,1.79073,9.27727,-0.0096972,0.175924,-0.123238,0
2024-11-29 17:57:03.805,0.60329,1.8003,9.22912,-0.014584,0.182643,-0.118963,0
2024-11-29 17:57:03.807,0.627219,1.80748,9.18605,-0.022525,0.191806,-0.115297,0
2024-11-29 17:57:03.810,0.624826,1.80509,9.15255,-0.0329094,0.198525,-0.110411,0
2024-11-29 17:57:03.812,0.615255,1.80509,9.10708,-0.0390179,0.203412,-0.104913,0
2024-11-29 17:57:03.815,0.617647,1.80987,9.08315,-0.0494023,0.207688,-0.0951395,0
2024-11-29 17:57:03.816,0.627219,1.82901,9.0688,-0.058565,0.207688,-0.0951395,0
2024-11-29 17:57:03.818,0.646361,1.85294,9.05923,-0.0677277,0.210131,-0.089031,0
2024-11-29 17:57:03.822,0.682254,1.87208,9.06641,-0.0781121,0.211964,-0.0859767,0
2024-11-29 17:57:03.823,0.71336,1.88405,9.06162,-0.0860531,0.210742,-0.0798683,0
2024-11-29 17:57:03.827,0.734896,1.90319,9.05923,-0.104379,0.211964,-0.0700947,0
2024-11-29 17:57:03.829,0.773181,1.93908,9.06401,-0.11232,0.210742,-0.0676513,0
2024-11-29 17:57:03.831,0.82343,1.97528,9.09273,-0.11965,0.208299,-0.0670405,0
2024-11-29 17:57:03.833,0.852443,1.99681,9.1334,-0.11965,0.208299,-0.0670405,0
2024-11-29 17:57:03.835,0.862014,2.02313,9.16212,-0.123926,0.208299,-0.0627646,0
2024-11-29 17:57:03.838,0.869193,2.05902,9.18844,-0.13431,0.204634,-0.0578778,0
2024-11-29 17:57:03.841,0.881157,2.09252,9.21237,-0.13431,0.204634,-0.0578778,0
2024-11-29 17:57:03.842,0.890728,2.12363,9.23151,-0.137364,0.203412,-0.0554344,0
2024-11-29 17:57:03.844,0.893121,2.13799,9.25305,-0.138586,0.197915,-0.0536018,0
2024-11-29 17:57:03.847,0.890728,2.15474,9.28684,-0.140419,0.192417,-0.0505476,0
2024-11-29 17:57:03.849,0.88355,2.17149,9.31795,-0.141029,0.186308,-0.0517693,0
2024-11-29 17:57:03.852,0.871586,2.20738,9.33231,-0.139808,0.179589,-0.0487151,0
2024-11-29 17:57:03.854,0.869193,2.2337,9.33709,-0.137975,0.176535,-0.0468825,0
2024-11-29 17:57:03.856,0.888335,2.24806,9.33709,-0.136753,0.169816,-0.0456608,0
2024-11-29 17:57:03.860,0.885943,2.28634,9.32992,-0.133088,0.15882,-0.04505,0
2024-11-29 17:57:03.861,0.873978,2.31984,9.33949,-0.133088,0.15882,-0.04505,0
2024-11-29 17:57:03.863,0.864407,2.33659,9.33709,-0.128812,0.152101,-0.0426066,0
2024-11-29 17:57:03.866,0.847657,2.34138,9.31556,-0.126369,0.143549,-0.0407741,0
2024-11-29 17:57:03.868,0.833001,2.36052,9.29642,-0.126369,0.133776,-0.0419957,0
2024-11-29 17:57:03.871,0.82343,2.39402,9.29402,-0.127591,0.122169,-0.0395524,0
2024-11-29 17:57:03.873,0.830609,2.42513,9.29402,-0.127591,0.108731,-0.0395524,0
2024-11-29 17:57:03.876,0.830609,2.45623,9.28684,-0.133088,0.0806318,-0.0352764,0
2024-11-29 17:57:03.878,0.821037,2.49212,9.29163,-0.133088,0.0806318,-0.0352764,0
2024-11-29 17:57:03.881,0.816252,2.54028,9.32034,-0.134921,0.064139,-0.037109,0
2024-11-29 17:57:03.882,0.811466,2.56421,9.35863,-0.140419,0.0482569,-0.037109,0
2024-11-29 17:57:03.884,0.813859,2.58096,9.41127,-0.144694,0.0274881,-0.0364981,0
2024-11-29 17:57:03.887,0.830609,2.60249,9.49741,-0.147749,0.00671932,-0.0383307,0
2024-11-29 17:57:03.890,0.859622,2.61924,9.58595,-0.150192,-0.015882,-0.0401632,0
2024-11-29 17:57:03.892,0.885943,2.64078,9.68645,-0.152635,-0.0409268,-0.0438283,0
2024-11-29 17:57:03.895,0.912264,2.66949,9.80609,-0.159966,-0.0916271,-0.0499368,0
2024-11-29 17:57:03.897,0.940978,2.68624,9.91885,-0.161798,-0.119115,-0.0536018,0
2024-11-29 17:57:03.900,0.967299,2.70299,10.0361,-0.162409,-0.146603,-0.0584886,0
2024-11-29 17:57:03.902,0.991227,2.7341,10.1821,-0.160576,-0.175313,-0.0639862,0
2024-11-29 17:57:03.904,1.02473,2.7676,10.3424,-0.158133,-0.20158,-0.0694839,0
2024-11-29 17:57:03.907,1.04626,2.78196,10.5006,-0.15569,-0.227235,-0.0743707,0
2024-11-29 17:57:03.909,1.05583,2.79631,10.6681,-0.150192,-0.249837,-0.0798683,0
2024-11-29 17:57:03.911,1.0654,2.82024,10.8236,-0.150192,-0.249837,-0.0798683,0
2024-11-29 17:57:03.913,1.08215,2.8322,10.9747,-0.142862,-0.269994,-0.0835334,0
2024-11-29 17:57:03.916,1.07737,2.83699,11.1422,-0.139808,-0.292596,-0.0871984,0
2024-11-29 17:57:03.917,1.05344,2.83699,11.3025,-0.128202,-0.3097,-0.0896418,0
2024-11-29 17:57:03.920,1.02233,2.85374,11.4485,-0.120261,-0.328636,-0.0914744,0
2024-11-29 17:57:03.923,0.97687,2.88006,11.6043,-0.101935,-0.361011,-0.089031,0
2024-11-29 17:57:03.924,0.919442,2.90399,11.7646,-0.101935,-0.361011,-0.089031,0
2024-11-29 17:57:03.928,0.85005,2.93988,11.9154,-0.0927724,-0.373839,-0.0878093,0
2024-11-29 17:57:03.930,0.789931,2.9686,12.0494,-0.0781121,-0.380558,-0.0823117,0
2024-11-29 17:57:03.932,0.720539,3.00688,12.1884,-0.0646735,-0.385445,-0.076814,0
2024-11-29 17:57:03.936,0.667897,3.08106,12.4229,-0.0286335,-0.384834,-0.0627646,0
2024-11-29 17:57:03.937,0.667897,3.08106,12.4229,-0.0121406,-0.378114,-0.0542127,0
2024-11-29 17:57:03.940,0.682254,3.09571,12.5378,-0.0121406,-0.378114,-0.0542127,0
2024-11-29 17:57:03.941,0.722932,3.09093,12.641,0.00679568,-0.369563,-0.0468825,0
2024-11-29 17:57:03.943,0.773181,3.07388,12.7247,0.0269536,-0.359178,-0.0395524,0
2024-11-29 17:57:03.947,0.809073,3.07149,12.7654,0.0422248,-0.345129,-0.0334439,0
2024-11-29 17:57:03.949,0.818644,3.06431,12.7702,0.0593285,-0.324971,-0.0279463,0
2024-11-29 17:57:03.950,0.794716,3.05713,12.7487,0.0764323,-0.304202,-0.0200052,0
2024-11-29 17:57:03.954,0.768395,3.06192,12.7247,0.0874275,-0.279157,-0.0114534,0
2024-11-29 17:57:03.955,0.739681,3.08106,12.6841,0.0953685,-0.257167,0.000152712,0
2024-11-29 17:57:03.957,0.718146,3.11007,12.6434,0.102088,-0.232733,0.00931542,0
2024-11-29 17:57:03.960,0.720539,3.11964,12.5856,0.108196,-0.209521,0.0209215,0
2024-11-29 17:57:03.963,0.739681,3.12921,12.5043,0.108807,-0.174702,0.0392469,0
2024-11-29 17:57:03.967,0.770788,3.16032,12.4325,0.106975,-0.153323,0.0441337,0
2024-11-29 17:57:03.968,0.845265,3.19143,12.4325,0.106975,-0.153323,0.0441337,0
2024-11-29 17:57:03.970,0.948156,3.18903,12.3918,0.0972011,-0.135608,0.0484096,0
2024-11-29 17:57:03.973,0.99362,3.19861,12.3631,0.0764323,-0.117894,0.0532964,0
2024-11-29 17:57:03.975,0.981655,3.22253,12.3464,0.0764323,-0.117894,0.0532964,0
2024-11-29 17:57:03.976,0.96012,3.22493,12.3224,0.0648262,-0.106898,0.0526856,0
2024-11-29 17:57:03.979,0.964906,3.22493,12.32,0.0519984,-0.0952922,0.0520747,0
2024-11-29 17:57:03.981,1.01276,3.26082,12.3512,0.0379489,-0.0867403,0.0520747,0
2024-11-29 17:57:03.983,1.05583,3.29432,12.3775,0.0245102,-0.0733017,0.0502422,0
2024-11-29 17:57:03.986,1.08694,3.30389,12.4038,0.0116825,-0.0592522,0.0441337,0
2024-11-29 17:57:03.988,1.10848,3.31585,12.4325,-0.00175619,-0.0452027,0.0374144,0
2024-11-29 17:57:03.991,1.10848,3.31585,12.466,-0.014584,-0.0311532,0.0319168,0
2024-11-29 17:57:03.993,1.09412,3.32064,12.4995,-0.0261901,-0.0164929,0.0239758,0
2024-11-29 17:57:03.996,1.08455,3.34457,12.5234,-0.0414613,0.00122169,0.0154239,0
2024-11-29 17:57:03.997,1.07737,3.36132,12.545,-0.0530674,0.020158,0.00748288,0
2024-11-29 17:57:04.000,1.03669,3.3685,12.5809,-0.066506,0.0397051,-0.00167983,0
2024-11-29 17:57:04.002,0.979263,3.38525,12.629,-0.0787229,0.0592522,-0.0102317,0
2024-11-29 17:57:04.005,0.924228,3.41396,12.6817,-0.086664,0.0787993,-0.0175619,0
2024-11-29 17:57:04.008,0.88355,3.4355,12.7223,-0.108044,0.114228,-0.0273354,0
2024-11-29 17:57:04.010,0.845265,3.42592,12.7606,-0.117817,0.132554,-0.032833,0
2024-11-29 17:57:04.013,0.799502,3.40917,12.8109,-0.126369,0.147825,-0.037109,0
2024-11-29 17:57:04.015,0.742074,3.40439,12.8468,-0.126369,0.147825,-0.037109,0
2024-11-29 17:57:04.016,0.694218,3.38525,12.8563,-0.135532,0.162485,-0.0377198,0
2024-11-29 17:57:04.020,0.648754,3.35653,12.8755,-0.144084,0.177757,-0.0407741,0
2024-11-29 17:57:04.021,0.605683,3.33021,12.8994,-0.152635,0.190584,-0.0432174,0
2024-11-29 17:57:04.023,0.565005,3.30628,12.9186,-0.158744,0.20158,-0.0438283,0
2024-11-29 17:57:04.027,0.519542,3.27518,12.9233,-0.174626,0.219294,-0.0468825,0
2024-11-29 17:57:04.028,0.476471,3.25364,12.9329,-0.174626,0.219294,-0.0468825,0
2024-11-29 17:57:04.031,0.435793,3.2345,12.964,-0.183178,0.22357,-0.0481042,0
2024-11-29 17:57:04.034,0.392722,3.20578,12.9903,-0.19173,0.222348,-0.0474934,0
2024-11-29 17:57:04.035,0.349651,3.17468,13.0119,-0.197838,0.221738,-0.0511585,0
2024-11-29 17:57:04.039,0.30658,3.14118,13.0406,-0.202725,0.215018,-0.0517693,0
2024-11-29 17:57:04.040,0.287438,3.10289,13.0789,-0.209444,0.205856,-0.0505476,0
2024-11-29 17:57:04.043,0.263211,3.07627,13.1243,-0.216164,0.194249,-0.052991,0
2024-11-29 17:57:04.045,0.236889,3.03559,13.1698,-0.222272,0.181422,-0.052991,0
2024-11-29 17:57:04.047,0.224925,2.97099,13.2299,-0.225326,0.166761,-0.0554344,0
2024-11-29 17:57:04.052,0.210568,2.92074,13.2897,-0.230824,0.127056,-0.0572669,0
2024-11-29 17:57:04.053,0.210568,2.87528,13.34,-0.230824,0.127056,-0.0572669,0
2024-11-29 17:57:04.056,0.253639,2.73888,13.4357,-0.233878,0.0763559,-0.0597103,0
2024-11-29 17:57:04.056,0.253639,2.73888,13.4357,-0.233878,0.0763559,-0.0597103,0
2024-11-29 17:57:04.059,0.301795,2.64317,13.5051,-0.234489,0.0458135,-0.0621537,0
2024-11-29 17:57:04.062,0.34008,2.55224,13.5864,-0.235711,0.00855186,-0.0645971,0
2024-11-29 17:57:04.063,0.395115,2.45863,13.6678,-0.235711,-0.0329858,-0.0670405,0
2024-11-29 17:57:04.067,0.464507,2.33898,13.7566,-0.237543,-0.0787993,-0.0700947,0
2024-11-29 17:57:04.068,0.536291,2.20977,13.8619,-0.238765,-0.125835,-0.0749815,0
2024-11-29 17:57:04.072,0.634397,2.10927,13.9816,-0.239376,-0.174091,-0.0780357,0
2024-11-29 17:57:04.074,0.710967,1.9992,14.1132,-0.239376,-0.222348,-0.0817008,0
2024-11-29 17:57:04.075,0.775574,1.89601,14.2567,-0.234489,-0.26694,-0.0841442,0
2024-11-29 17:57:04.079,0.859622,1.81705,14.4174,-0.230213,-0.308478,-0.0871984,0
2024-11-29 17:57:04.080,0.938585,1.72373,14.5849,-0.223494,-0.349405,-0.0865876,0
2024-11-29 17:57:04.083,1.00558,1.65673,14.7236,-0.20639,-0.423928,-0.0884201,0
2024-11-29 17:57:04.085,1.07498,1.60887,14.8457,-0.20639,-0.423928,-0.0884201,0
2024-11-29 17:57:04.088,1.1683,1.52752,15.023,-0.189897,-0.45386,-0.0933069,0
2024-11-29 17:57:04.089,1.28315,1.43898,15.2145,-0.174015,-0.475239,-0.0975828,0
2024-11-29 17:57:04.092,1.37647,1.35733,15.37,-0.153246,-0.49723,-0.100026,0
2024-11-29 17:57:04.095,1.41027,1.27597,15.5019,-0.129423,-0.507003,-0.10247,0
2024-11-29 17:57:04.097,1.41745,1.20897,15.6168,-0.0994917,-0.507003,-0.10308,0
2024-11-29 17:57:04.100,1.43898,1.12762,15.6957,-0.066506,-0.496619,-0.101248,0
2024-11-29 17:57:04.102,1.48445,1.05344,15.7508,-0.0322986,-0.477072,-0.100637,3
2024-11-29 17:57:04.103,1.5323,0.984048,15.7866,0.00435229,-0.451416,-0.100026,0
2024-11-29 17:57:04.106,1.56341,0.88355,15.7747,0.0465007,-0.417209,-0.0957503,0
2024-11-29 17:57:04.109,1.59212,0.770788,15.7125,0.0886492,-0.373839,-0.0926961,0
2024-11-29 17:57:04.112,1.59212,0.675075,15.6048,0.130187,-0.323138,-0.0835334,0
2024-11-29 17:57:04.113,1.57298,0.588933,15.466,0.173557,-0.263275,-0.0743707,0
2024-11-29 17:57:04.115,1.55862,0.502792,15.2958,0.216927,-0.194249,-0.0639862,0
2024-11-29 17:57:04.119,1.54666,0.423829,15.0757,0.261519,-0.11545,-0.0499368,0
2024-11-29 17:57:04.121,1.56102,0.344866,14.8217,0.345816,0.064139,-0.0187836,0
2024-11-29 17:57:04.123,1.59212,0.272782,14.549,0.345816,0.064139,-0.0187836,0
2024-11-29 17:57:04.126,1.57537,0.239282,14.2759,0.385521,0.15882,-0.00351237,0
2024-11-29 17:57:04.127,1.48445,0.251246,13.9887,0.425837,0.258388,0.0154239,0
2024-11-29 17:57:04.129,1.34297,0.299402,13.6654,0.468596,0.359178,0.034971,0
2024-11-29 17:57:04.133,1.17547,0.368794,13.3232,0.505247,0.464244,0.0563507,0
2024-11-29 17:57:04.135,1.02712,0.435793,12.9544,0.581603,0.665824,0.101553,0
2024-11-29 17:57:04.137,0.9003,0.507577,12.5737,0.581603,0.665824,0.101553,0
2024-11-29 17:57:04.139,0.804287,0.569791,12.1789,0.617032,0.761727,0.122322,0
2024-11-29 17:57:04.142,0.699003,0.610469,11.7574,0.68789,0.941316,0.163249,0
2024-11-29 17:57:04.145,0.576969,0.641576,11.3216,0.68789,0.941316,0.163249,0
2024-11-29 17:57:04.146,0.474078,0.663111,10.8643,0.715989,1.02011,0.181574,0
2024-11-29 17:57:04.149,0.395115,0.691825,10.3759,0.735536,1.09036,0.199289,0
2024-11-29 17:57:04.152,0.318545,0.715753,9.87817,0.754473,1.14839,0.217614,0
2024-11-29 17:57:04.154,0.198604,0.732503,9.38256,0.764857,1.22902,0.248157,0
2024-11-29 17:57:04.156,0.0885344,0.725324,8.88455,0.764857,1.22902,0.248157,0
2024-11-29 17:57:04.158,0.0215354,0.720539,8.40808,0.757527,1.25224,0.26526,0
2024-11-29 17:57:04.160,-0.0311067,0.727717,7.97229,0.747753,1.26384,0.276256,0
2024-11-29 17:57:04.163,-0.066999,0.737288,7.60379,0.728817,1.26445,0.289083,0
2024-11-29 17:57:04.166,-0.100499,0.761217,7.25893,0.70927,1.25835,0.297024,0
2024-11-29 17:57:04.167,0.299402,0.490828,7.42642,0.682393,1.2388,0.300079,0
2024-11-29 17:57:04.170,0.909871,0.107677,7.98425,0.676284,1.15694,0.27931,0
2024-11-29 17:57:04.172,0.694218,0.138784,7.74497,0.683004,1.08792,0.246935,0
2024-11-29 17:57:04.174,0.0574277,0.411865,7.02682,0.679949,1.07204,0.231053,0
2024-11-29 17:57:04.177,-0.208176,0.651147,6.7681,0.67323,1.06898,0.223723,0
2024-11-29 17:57:04.179,-0.359223,0.8668,6.74896,0.669565,1.05554,0.223723,0
2024-11-29 17:57:04.182,-0.651147,1.11565,6.65324,0.666511,1.02378,0.227999,0
2024-11-29 17:57:04.184,-0.909871,1.34058,6.52164,0.654905,0.976134,0.240216,0
2024-11-29 17:57:04.187,-1.05105,1.50598,6.37777,0.612756,0.831974,0.280532,0
2024-11-29 17:57:04.189,-1.14197,1.60648,6.22463,0.585879,0.74951,0.299468,0
2024-11-29 17:57:04.191,-1.2018,1.65912,6.0691,0.585879,0.74951,0.299468,0
2024-11-29 17:57:04.194,-1.21854,1.70698,5.88455,0.554726,0.668267,0.319626,0
2024-11-29 17:57:04.195,-1.16351,1.73091,5.76252,0.516853,0.588246,0.342227,0
2024-11-29 17:57:04.199,-1.01994,1.72852,5.70748,0.479591,0.509447,0.355055,0
2024-11-29 17:57:04.200,-0.830609,1.73569,5.69312,0.442941,0.434312,0.363607,0
2024-11-29 17:57:04.203,-0.598505,1.71655,5.76012,0.402625,0.354291,0.364218,0
2024-11-29 17:57:04.206,-0.342473,1.68784,5.85823,0.331766,0.19486,0.344671,0
2024-11-29 17:57:04.207,-0.119641,1.67827,5.97338,0.331766,0.19486,0.344671,0
2024-11-29 17:57:04.210,0.100499,1.66391,6.13849,0.299392,0.113618,0.322069,0
2024-11-29 17:57:04.212,0.330509,1.63041,6.35623,0.26946,0.0305424,0.296414,0
2024-11-29 17:57:04.215,0.529113,1.57777,6.60299,0.245637,-0.0482569,0.26465,0
2024-11-29 17:57:04.217,0.699003,1.53948,6.83749,0.227312,-0.127056,0.227388,0
2024-11-29 17:57:04.219,0.8668,1.5323,7.03161,0.214484,-0.193639,0.182185,0
2024-11-29 17:57:04.221,0.988834,1.4988,7.20628,0.205321,-0.255334,0.138815,0
2024-11-29 17:57:04.227,1.11805,1.43659,7.47907,0.196158,-0.346961,0.0477988,0
2024-11-29 17:57:04.227,1.11805,1.43659,7.47907,0.196158,-0.346961,0.0477988,0
2024-11-29 17:57:04.228,1.1324,1.37886,7.56999,0.193715,-0.38239,0.0038178,0
2024-11-29 17:57:04.232,1.1013,1.32144,7.63011,0.183331,-0.440421,-0.0749815,0
2024-11-29 17:57:04.233,1.03908,1.27837,7.67797,0.183331,-0.440421,-0.0749815,0
2024-11-29 17:57:04.236,0.967299,1.24008,7.72343,0.177222,-0.461801,-0.1098,0
2024-11-29 17:57:04.238,0.897907,1.2018,7.7665,0.16867,-0.480126,-0.139731,0
2024-11-29 17:57:04.241,0.837787,1.1659,7.81675,0.144236,-0.503949,-0.186767,0
2024-11-29 17:57:04.243,0.773181,1.12762,7.85743,0.144236,-0.503949,-0.186767,0
2024-11-29 17:57:04.245,0.703789,1.10369,7.89811,0.130798,-0.506392,-0.208146,0
2024-11-29 17:57:04.248,0.639183,1.0654,7.95793,0.109418,-0.496008,-0.241743,0
2024-11-29 17:57:04.250,0.579362,1.00319,8.02971,0.109418,-0.496008,-0.241743,0
2024-11-29 17:57:04.252,0.519542,0.940978,8.09432,0.0978119,-0.483791,-0.256403,0
2024-11-29 17:57:04.255,0.469292,0.871586,8.14008,0.0770431,-0.452027,-0.279615,0
2024-11-29 17:57:04.258,0.431007,0.821037,8.17358,0.0770431,-0.452027,-0.279615,0
2024-11-29 17:57:04.260,0.371187,0.785145,8.2023,0.057496,-0.406824,-0.299162,0
2024-11-29 17:57:04.262,0.292223,0.737288,8.23819,0.0483333,-0.377504,-0.304049,0
2024-11-29 17:57:04.264,0.215354,0.71336,8.26212,0.0483333,-0.377504,-0.304049,0
2024-11-29 17:57:04.266,0.141177,0.689432,8.25972,0.0379489,-0.34635,-0.308325,0
2024-11-29 17:57:04.268,0.0526421,0.665504,8.24776,0.0269536,-0.309089,-0.310158,0
2024-11-29 17:57:04.272,-0.040678,0.679861,8.22383,0.0141258,-0.268773,-0.309547,0
2024-11-29 17:57:04.273,-0.0981057,0.672682,8.2334,0.00251974,-0.226013,-0.30466,0
2024-11-29 17:57:04.275,-0.138784,0.639183,8.25494,-0.00786466,-0.186919,-0.298552,0
2024-11-29 17:57:04.279,-0.191426,0.610469,8.25015,-0.0292443,-0.104455,-0.285724,0
2024-11-29 17:57:04.281,-0.253639,0.569791,8.25015,-0.0292443,-0.104455,-0.285724,0
2024-11-29 17:57:04.283,-0.311366,0.548256,8.24776,-0.0396287,-0.0629173,-0.276561,0
2024-11-29 17:57:04.286,-0.35683,0.52672,8.24776,-0.0573433,0.015882,-0.260068,0
2024-11-29 17:57:04.288,-0.411865,0.50997,8.24298,-0.0683385,0.051922,-0.250295,0
2024-11-29 17:57:04.291,-0.471685,0.507577,8.22144,-0.0683385,0.051922,-0.250295,0
2024-11-29 17:57:04.293,-0.514756,0.490828,8.2023,-0.0768904,0.0855186,-0.23991,0
2024-11-29 17:57:04.295,-0.565005,0.476471,8.18794,-0.082388,0.118504,-0.227082,0
2024-11-29 17:57:04.298,-0.65354,0.498006,8.1664,-0.0970484,0.175313,-0.201427,0
2024-11-29 17:57:04.300,-0.742074,0.529113,8.14487,-0.103768,0.20219,-0.186767,0
2024-11-29 17:57:04.302,-0.809073,0.553041,8.11825,-0.103768,0.20219,-0.186767,0
2024-11-29 17:57:04.304,-0.878764,0.581755,8.07996,-0.111098,0.221738,-0.173328,0
2024-11-29 17:57:04.306,-0.924228,0.598505,8.04646,-0.117817,0.241285,-0.158668,0
2024-11-29 17:57:04.309,-0.957727,0.608076,8.02971,-0.123926,0.256556,-0.142786,0
2024-11-29 17:57:04.312,-0.996012,0.615255,8.0345,-0.131256,0.272438,-0.110411,0
2024-11-29 17:57:04.313,-0.998405,0.634397,8.03929,-0.131256,0.272438,-0.110411,0
2024-11-29 17:57:04.315,-0.99362,0.639183,8.02732,-0.13431,0.273049,-0.0981937,0
2024-11-29 17:57:04.319,-0.988834,0.627219,8.00818,-0.142862,0.269994,-0.0719273,0
2024-11-29 17:57:04.321,-0.981655,0.634397,7.98425,-0.144694,0.26694,-0.0621537,0
2024-11-29 17:57:04.324,-0.986441,0.655932,7.98664,-0.14836,0.268773,-0.0499368,0
2024-11-29 17:57:04.325,-0.986441,0.691825,8.00579,-0.14836,0.268773,-0.0499368,0
2024-11-29 17:57:04.328,-0.991227,0.742074,8.03211,-0.143473,0.27366,-0.0273354,0
2024-11-29 17:57:04.331,-1.00798,0.792323,8.03929,-0.141029,0.275492,-0.0151185,0
2024-11-29 17:57:04.333,-1.01037,0.852443,8.03689,-0.141029,0.275492,-0.0151185,0
2024-11-29 17:57:04.334,-1.01755,0.890728,8.05843,-0.134921,0.278546,-0.00412322,0
2024-11-29 17:57:04.338,-1.02233,0.919442,8.07757,-0.12698,0.282822,0.0160347,0
2024-11-29 17:57:04.339,-1.01037,0.952942,8.07279,-0.12698,0.282822,0.0160347,0
2024-11-29 17:57:04.342,-0.986441,0.974477,8.05125,-0.117817,0.282211,0.0239758,0
2024-11-29 17:57:04.344,-0.969691,0.99362,8.04646,-0.109876,0.280379,0.0306951,0
2024-11-29 17:57:04.347,-0.957727,1.01994,8.04886,-0.102546,0.277936,0.0361927,0
2024-11-29 17:57:04.348,-0.945763,1.03908,8.03211,-0.0964375,0.275492,0.0416903,0
2024-11-29 17:57:04.351,-0.948156,1.04626,8.001,-0.090329,0.271216,0.0447446,0
2024-11-29 17:57:04.353,-0.945763,1.06301,7.97468,-0.0829989,0.267551,0.0490205,0
2024-11-29 17:57:04.357,-0.952942,1.07737,7.9675,-0.0793338,0.262053,0.0526856,0
2024-11-29 17:57:04.358,-0.964906,1.09173,7.94118,-0.074447,0.255945,0.0545181,0
2024-11-29 17:57:04.361,-0.97687,1.11087,7.89572,-0.0707819,0.251058,0.0545181,0
2024-11-29 17:57:04.364,-1.00319,1.12522,7.87179,-0.0652843,0.243117,0.0594049,0
2024-11-29 17:57:04.366,-1.02712,1.13958,7.85743,-0.0622301,0.235176,0.0612374,0
2024-11-29 17:57:04.367,-1.04626,1.14437,7.84307,-0.058565,0.22357,0.0655134,0
2024-11-29 17:57:04.371,-1.07498,1.13001,7.8335,-0.0542891,0.204023,0.0734544,0
2024-11-29 17:57:04.372,-1.10608,1.12522,7.80958,-0.0542891,0.204023,0.0734544,0
2024-11-29 17:57:04.374,-1.12762,1.14197,7.79043,-0.0524565,0.194249,0.0783412,0
2024-11-29 17:57:04.378,-1.14437,1.14437,7.79283,-0.0512348,0.177757,0.091169,0
2024-11-29 17:57:04.379,-1.17787,1.14197,7.79522,-0.050624,0.177757,0.091169,0
2024-11-29 17:57:04.382,-1.19701,1.14197,7.8,-0.0487914,0.169205,0.0984991,0
2024-11-29 17:57:04.385,-1.22094,1.15633,7.80958,-0.046348,0.155766,0.111327,0
2024-11-29 17:57:04.387,-1.25922,1.17069,7.82632,-0.046348,0.155766,0.111327,0
2024-11-29 17:57:04.389,-1.28076,1.18026,7.85743,-0.0451263,0.147825,0.12049,0
2024-11-29 17:57:04.392,-1.28794,1.19222,7.88136,-0.0414613,0.141106,0.130874,0
2024-11-29 17:57:04.396,-1.30229,1.21376,7.92682,-0.0377962,0.128889,0.147367,0
2024-11-29 17:57:04.397,-1.30229,1.21376,7.92682,-0.0377962,0.128889,0.147367,0
2024-11-29 17:57:04.399,-1.30229,1.21615,7.94118,-0.0347419,0.125835,0.15653,0
2024-11-29 17:57:04.401,-1.31426,1.21137,7.95075,-0.0280226,0.123391,0.172412,0
2024-11-29 17:57:04.403,-1.29512,1.22333,7.96032,-0.0280226,0.123391,0.172412,0
2024-11-29 17:57:04.405,-1.27358,1.23529,7.97468,-0.0243575,0.120948,0.179742,0
2024-11-29 17:57:04.408,-1.26879,1.23769,7.96989,-0.0213033,0.122169,0.188905,0
2024-11-29 17:57:04.410,-1.26401,1.23529,7.97468,-0.0188599,0.120948,0.195013,0
2024-11-29 17:57:04.413,-1.2664,1.24487,7.96989,-0.0139731,0.121559,0.209673,0
2024-11-29 17:57:04.414,-1.25922,1.26879,7.94597,-0.0139731,0.121559,0.209673,0
2024-11-29 17:57:04.417,-1.25204,1.28554,7.934,-0.0151948,0.119726,0.217003,0
2024-11-29 17:57:04.420,-1.24247,1.29512,7.93161,-0.0151948,0.120337,0.224334,0
2024-11-29 17:57:04.421,-1.21137,1.2999,7.92922,-0.0170274,0.114228,0.230442,0
2024-11-29 17:57:04.425,-1.20658,1.31426,7.92443,-0.0237467,0.109342,0.241437,0
2024-11-29 17:57:04.426,-1.21137,1.32622,7.92682,-0.0237467,0.109342,0.241437,0
2024-11-29 17:57:04.430,-1.1994,1.35254,7.91964,-0.0292443,0.107509,0.245102,0
2024-11-29 17:57:04.431,-1.20419,1.4004,7.92204,-0.0329094,0.106287,0.251211,0
2024-11-29 17:57:04.433,-1.22812,1.43181,7.95075,-0.0359636,0.108731,0.25793,0
2024-11-29 17:57:04.437,-1.24008,1.45813,7.97947,-0.0396287,0.111785,0.262206,0
2024-11-29 17:57:04.439,-1.24008,1.48923,8.00339,-0.0445155,0.113007,0.266482,0
2024-11-29 17:57:04.440,-1.24726,1.4988,8.02254,-0.0494023,0.116061,0.274423,0
2024-11-29 17:57:04.444,-1.23769,1.52273,8.04646,-0.0518457,0.116672,0.277477,0
2024-11-29 17:57:04.445,-1.22094,1.5682,8.07279,-0.0555107,0.119115,0.282364,0
2024-11-29 17:57:04.447,-1.2018,1.59212,8.09193,-0.058565,0.12278,0.28664,0
2024-11-29 17:57:04.450,-1.17308,1.61605,8.11346,-0.0634518,0.12278,0.291527,0
2024-11-29 17:57:04.452,-1.16351,1.64716,8.11346,-0.0683385,0.127667,0.294581,0
2024-11-29 17:57:04.455,-1.17308,1.67587,8.12064,-0.0732253,0.131943,0.297635,0
2024-11-29 17:57:04.458,-1.1683,1.70937,8.12303,-0.0793338,0.138051,0.299468,0
2024-11-29 17:57:04.460,-1.1348,1.7333,8.11107,-0.0958267,0.145992,0.303744,0
2024-11-29 17:57:04.462,-1.09412,1.73809,8.11107,-0.0958267,0.145992,0.303744,0
2024-11-29 17:57:04.465,-1.06301,1.75005,8.10629,-0.104989,0.148436,0.305576,0
2024-11-29 17:57:04.466,-1.05823,1.77637,8.11825,-0.11293,0.149658,0.306187,0
2024-11-29 17:57:04.470,-1.0678,1.80987,8.14487,-0.12698,0.15149,0.306798,0
2024-11-29 17:57:04.471,-1.08215,1.84098,8.18794,-0.137975,0.150268,0.306187,0
2024-11-29 17:57:04.473,-1.07737,1.87448,8.22383,-0.149581,0.150879,0.306187,0
2024-11-29 17:57:04.476,-1.04626,1.90558,8.26451,-0.160576,0.147214,0.306798,0
2024-11-29 17:57:04.478,-1.01755,1.92951,8.30997,-0.171572,0.147214,0.307409,0
2024-11-29 17:57:04.481,-0.984048,1.92951,8.37219,-0.183789,0.145382,0.306798,0
2024-11-29 17:57:04.484,-0.957727,1.93669,8.44636,-0.193562,0.142938,0.307409,0
2024-11-29 17:57:04.485,-0.94337,1.96301,8.50858,-0.205168,0.138662,0.303744,0
2024-11-29 17:57:04.488,-0.917049,1.98963,8.59233,-0.213109,0.136219,0.302522,0
2024-11-29 17:57:04.490,-0.895514,2.01356,8.67847,-0.223494,0.131332,0.299468,0
2024-11-29 17:57:04.493,-0.881157,2.02552,8.75534,-0.233267,0.126445,0.296414,0
2024-11-29 17:57:04.496,-0.869193,2.04706,8.85344,-0.247317,0.117894,0.291527,0
2024-11-29 17:57:04.498,-0.85005,2.07577,8.95873,-0.251593,0.110563,0.287862,0
2024-11-29 17:57:04.499,-0.842872,2.10449,9.05683,-0.251593,0.110563,0.287862,0
2024-11-29 17:57:04.503,-0.85005,2.13081,9.15733,-0.25709,0.103844,0.28664,0
2024-11-29 17:57:04.505,-0.857229,2.14517,9.25065,-0.259534,0.0971247,0.281753,0
2024-11-29 17:57:04.507,-0.8668,2.15952,9.34188,-0.260145,0.0910162,0.280532,0
2024-11-29 17:57:04.510,-0.859622,2.16909,9.43998,-0.260145,0.0855186,0.278699,0
2024-11-29 17:57:04.512,-0.857229,2.18106,9.52134,-0.263199,0.0775776,0.277477,0
2024-11-29 17:57:04.514,-0.8668,2.20977,9.61227,-0.259534,0.0739125,0.273812,0
2024-11-29 17:57:04.517,-0.854836,2.23131,9.71037,-0.25709,0.0671932,0.272591,0
2024-11-29 17:57:04.518,-0.84018,2.21695,9.77977,-0.254647,0.0604739,0.27198,0
2024-11-29 17:57:04.520,-0.825823,2.20499,9.84467,-0.250371,0.0531437,0.270147,0
2024-11-29 17:57:04.523,-0.809073,2.21695,9.91646,-0.246706,0.0476461,0.267704,0
2024-11-29 17:57:04.525,-0.782752,2.22413,9.98106,-0.244263,0.0378725,0.267704,0
2024-11-29 17:57:04.528,-0.751645,2.20977,10.0337,-0.241819,0.0329858,0.264039,0
2024-11-29 17:57:04.530,-0.732503,2.19063,10.0911,-0.238154,0.0250447,0.260984,0
2024-11-29 17:57:04.532,-0.725324,2.20259,10.1605,-0.236322,0.0171037,0.261595,0
2024-11-29 17:57:04.535,-0.71336,2.20499,10.2299,-0.236322,0.0171037,0.261595,0
2024-11-29 17:57:04.537,-0.703789,2.20499,10.2945,-0.230824,0.00549763,0.25793,0
2024-11-29 17:57:04.540,-0.694218,2.21934,10.3615,-0.228991,-0.000610847,0.257319,0
2024-11-29 17:57:04.543,-0.660718,2.23131,10.4408,-0.224715,-0.00549763,0.25793,0
2024-11-29 17:57:04.544,-0.632004,2.24088,10.515,-0.219829,-0.00855186,0.259763,0
2024-11-29 17:57:04.547,-0.593719,2.24327,10.6083,-0.217385,-0.0116061,0.25793,0
2024-11-29 17:57:04.550,-0.548256,2.25045,10.7064,-0.212498,-0.0146603,0.255487,0
2024-11-29 17:57:04.551,-0.514756,2.26959,10.7806,-0.209444,-0.0207688,0.25793,0
2024-11-29 17:57:04.554,-0.464507,2.26481,10.8763,-0.203336,-0.0244339,0.258541,0
2024-11-29 17:57:04.556,-0.402293,2.2672,10.9819,-0.198449,-0.0256556,0.255487,0
2024-11-29 17:57:04.559,-0.347258,2.27438,11.0656,-0.186232,-0.0299315,0.248157,0
2024-11-29 17:57:04.561,-0.299402,2.27199,11.147,-0.186232,-0.0299315,0.248157,0
2024-11-29 17:57:04.564,-0.251246,2.30309,11.2451,-0.175237,-0.0287098,0.240216,0
2024-11-29 17:57:04.565,-0.208176,2.32941,11.3312,-0.175237,-0.0287098,0.240216,0
2024-11-29 17:57:04.568,-0.18664,2.33898,11.4054,-0.167296,-0.028099,0.237161,0
2024-11-29 17:57:04.571,-0.157926,2.35334,11.4796,-0.159966,-0.0250447,0.234107,0
2024-11-29 17:57:04.573,-0.131605,2.38684,11.5493,-0.150803,-0.020158,0.22861,0
2024-11-29 17:57:04.575,-0.12682,2.42752,11.6282,-0.150803,-0.020158,0.22861,0
2024-11-29 17:57:04.577,-0.102891,2.45145,11.688,-0.137364,-0.00977356,0.218836,0
2024-11-29 17:57:04.580,-0.0598206,2.47777,11.7407,-0.125758,-0.00305424,0.213949,0
2024-11-29 17:57:04.582,-0.026321,2.49452,11.8005,-0.115985,0.00305424,0.20723,0
2024-11-29 17:57:04.585,0.00478565,2.49452,11.8484,-0.108044,0.00916271,0.201732,0
2024-11-29 17:57:04.586,0.0478565,2.50887,11.8771,-0.100103,0.0171037,0.195624,0
2024-11-29 17:57:04.589,0.081356,2.51366,11.9106,-0.0909399,0.023823,0.189515,0
2024-11-29 17:57:04.592,0.100499,2.50648,11.9536,-0.0775012,0.0390942,0.174855,0
2024-11-29 17:57:04.594,0.124427,2.50887,11.9919,-0.0775012,0.0390942,0.174855,0
2024-11-29 17:57:04.596,0.141177,2.5017,12.0015,-0.0732253,0.0470352,0.168136,0
2024-11-29 17:57:04.598,0.136391,2.51366,12.0015,-0.066506,0.0549763,0.161416,0
2024-11-29 17:57:04.601,0.143569,2.51845,12.0063,-0.0610084,0.0653607,0.153475,0
2024-11-29 17:57:04.603,0.143569,2.50409,12.0278,-0.0573433,0.0757451,0.148589,0
2024-11-29 17:57:04.605,0.12682,2.51366,12.0446,-0.0555107,0.0855186,0.143091,0
2024-11-29 17:57:04.609,0.119641,2.52084,12.0494,-0.0512348,0.0952922,0.138815,0
2024-11-29 17:57:04.612,0.0861416,2.51605,12.0808,-0.0457372,0.111785,0.132096,0
2024-11-29 17:57:04.613,0.0861416,2.51605,12.0808,-0.0451263,0.118504,0.131485,0
2024-11-29 17:57:04.615,0.0885344,2.50409,12.0903,-0.0451263,0.118504,0.131485,0
2024-11-29 17:57:04.617,0.081356,2.48495,12.1023,-0.0457372,0.126445,0.128431,0
2024-11-29 17:57:04.619,0.0622134,2.47537,12.1262,-0.0451263,0.131332,0.12782,0
2024-11-29 17:57:04.623,0.0646062,2.48495,12.143,-0.0432938,0.141717,0.126598,0
2024-11-29 17:57:04.625,0.0741775,2.4658,12.1597,-0.0439046,0.145992,0.126598,0
2024-11-29 17:57:04.627,0.0741775,2.43709,12.1932,-0.0439046,0.145992,0.126598,0
2024-11-29 17:57:04.630,0.0693919,2.4347,12.2411,-0.0439046,0.148436,0.129041,0
2024-11-29 17:57:04.632,0.0622134,2.4347,12.2913,-0.0432938,0.149658,0.130263,0
2024-11-29 17:57:04.634,0.0717847,2.42273,12.3296,-0.0414613,0.153934,0.129652,0
2024-11-29 17:57:04.637,0.0837488,2.42034,12.3823,-0.0408504,0.154544,0.130874,0
2024-11-29 17:57:04.639,0.0861416,2.43948,12.4349,-0.0377962,0.155155,0.132707,0
2024-11-29 17:57:04.642,0.0789631,2.46102,12.4828,-0.0329094,0.157599,0.134539,0
2024-11-29 17:57:04.643,0.0717847,2.47537,12.5378,-0.0286335,0.158209,0.135761,0
2024-11-29 17:57:04.646,0.0717847,2.48495,12.5785,-0.0158057,0.158209,0.140037,0
2024-11-29 17:57:04.649,0.0717847,2.48495,12.6191,-0.00786466,0.156988,0.140037,0
2024-11-29 17:57:04.651,0.0646062,2.48973,12.6577,-0.00786466,0.156988,0.140037,0
2024-11-29 17:57:04.653,0.0693919,2.50887,12.6912,0.00129805,0.155766,0.143091,0
2024-11-29 17:57:04.656,0.0789631,2.51366,12.7199,0.0190126,0.152712,0.146145,0
2024-11-29 17:57:04.658,0.0765703,2.51845,12.7319,0.0190126,0.152712,0.146145,0
2024-11-29 17:57:04.659,0.0765703,2.5331,12.7415,0.0287862,0.146603,0.146145,0
2024-11-29 17:57:04.662,0.0765703,2.54746,12.7415,0.0379489,0.141106,0.148589,0
2024-11-29 17:57:04.665,0.0741775,2.56182,12.7176,0.0581068,0.128278,0.149199,0
2024-11-29 17:57:04.667,0.0741775,2.56899,12.7104,0.0581068,0.128278,0.149199,0
2024-11-29 17:57:04.670,0.0837488,2.58335,12.7008,0.077654,0.106287,0.152254,0
2024-11-29 17:57:04.671,0.0933201,2.57857,12.6721,0.077654,0.106287,0.152254,0
2024-11-29 17:57:04.674,0.0957129,2.57617,12.6482,0.081319,0.0910162,0.152254,0
2024-11-29 17:57:04.676,0.102891,2.59292,12.6314,0.0898709,0.0775776,0.151032,0
2024-11-29 17:57:04.679,0.117248,2.6001,12.612,0.0990336,0.0409268,0.14981,0
2024-11-29 17:57:04.682,0.150748,2.60728,12.5952,0.10331,0.0207688,0.149199,0
2024-11-29 17:57:04.684,0.189033,2.62164,12.5761,0.105753,0.00122169,0.148589,0
2024-11-29 17:57:04.686,0.229711,2.62403,12.5521,0.108196,-0.020158,0.146145,0
2024-11-29 17:57:04.689,0.263211,2.61924,12.533,0.108196,-0.020158,0.146145,0
2024-11-29 17:57:04.690,0.297009,2.64078,12.5067,0.109418,-0.0397051,0.143091,0
2024-11-29 17:57:04.693,0.344866,2.64796,12.478,0.112472,-0.0616956,0.138204,0
2024-11-29 17:57:04.696,0.402293,2.63839,12.466,0.113083,-0.0861295,0.135761,0
2024-11-29 17:57:04.698,0.454935,2.62642,12.454,0.106364,-0.132554,0.124766,0
2024-11-29 17:57:04.700,0.50997,2.61685,12.4373,0.106364,-0.132554,0.124766,0
2024-11-29 17:57:04.702,0.562612,2.63121,12.4277,0.102699,-0.155766,0.117435,0
2024-11-29 17:57:04.705,0.608076,2.64317,12.4158,0.0959794,-0.178978,0.113159,0
2024-11-29 17:57:04.707,0.65354,2.67428,12.4038,0.0904818,-0.197304,0.105829,0
2024-11-29 17:57:04.709,0.684646,2.71974,12.4038,0.0837624,-0.212575,0.09911,0
2024-11-29 17:57:04.712,0.718146,2.74606,12.4014,0.0770431,-0.222348,0.0923906,0
2024-11-29 17:57:04.715,0.749253,2.7676,12.387,0.0593285,-0.244339,0.0758978,0
2024-11-29 17:57:04.717,0.787538,2.78674,12.387,0.0513875,-0.251058,0.0667351,0
2024-11-29 17:57:04.719,0.835394,2.8011,12.3727,0.0513875,-0.251058,0.0667351,0
2024-11-29 17:57:04.722,0.876371,2.80588,12.3464,0.0287862,-0.271827,0.0496313,0
2024-11-29 17:57:04.724,0.914656,2.80349,12.3296,0.0287862,-0.271827,0.0496313,0
2024-11-29 17:57:04.725,0.950549,2.80588,12.3224,0.0153475,-0.282211,0.0368035,0
2024-11-29 17:57:04.728,0.972084,2.81785,12.3081,0.00435229,-0.293207,0.0245866,0
2024-11-29 17:57:04.730,1.00319,2.8322,12.2818,-0.0109189,-0.304202,0.0105371,0
2024-11-29 17:57:04.733,1.04626,2.82024,12.2674,-0.0280226,-0.314586,-0.00229068,0
2024-11-29 17:57:04.736,1.07019,2.81067,12.2411,-0.0469589,-0.326803,-0.0193944,0
2024-11-29 17:57:04.738,1.10848,2.8011,12.21,-0.0817772,-0.348794,-0.0468825,0
2024-11-29 17:57:04.740,1.15633,2.78196,12.1932,-0.0817772,-0.348794,-0.0468825,0
2024-11-29 17:57:04.743,1.19462,2.77238,12.1837,-0.124536,-0.376893,-0.0798683,0
2024-11-29 17:57:04.745,1.23769,2.74846,12.1789,-0.124536,-0.376893,-0.0798683,0
2024-11-29 17:57:04.747,1.29512,2.7006,12.1813,-0.147138,-0.393386,-0.0975828,0
2024-11-29 17:57:04.750,1.35733,2.65514,12.2004,-0.192341,-0.427593,-0.133623,0
2024-11-29 17:57:04.752,1.41745,2.62164,12.2267,-0.214331,-0.442253,-0.155613,0
2024-11-29 17:57:04.754,1.47488,2.56899,12.253,-0.214331,-0.442253,-0.155613,0
2024-11-29 17:57:04.757,1.52273,2.48495,12.2937,-0.236932,-0.460579,-0.17455,0
2024-11-29 17:57:04.758,1.57537,2.4347,12.3512,-0.260145,-0.477072,-0.19654,0
2024-11-29 17:57:04.761,1.6328,2.3988,12.4349,-0.280913,-0.491732,-0.216087,0
2024-11-29 17:57:04.764,1.66869,2.33659,12.5115,-0.299239,-0.507003,-0.235634,0
2024-11-29 17:57:04.766,1.69741,2.28156,12.5904,-0.316343,-0.522274,-0.258847,0
2024-11-29 17:57:04.768,1.71416,2.22891,12.6984,-0.329781,-0.534491,-0.280226,0
2024-11-29 17:57:04.771,1.70937,2.17627,12.8037,-0.34322,-0.546097,-0.301606,0
2024-11-29 17:57:04.773,1.69741,2.12602,12.9114,-0.351161,-0.555871,-0.324207,0
2024-11-29 17:57:04.776,1.70937,2.06142,13.019,-0.360934,-0.563201,-0.368799,0
2024-11-29 17:57:04.777,1.72852,1.9992,13.1148,-0.360934,-0.563201,-0.368799,0
2024-11-29 17:57:04.783,1.71416,1.86969,13.3017,-0.356658,-0.567477,-0.42744,0
2024-11-29 17:57:04.783,1.71416,1.86969,13.3017,-0.356658,-0.567477,-0.42744,0
2024-11-29 17:57:04.785,1.67348,1.79312,13.3807,-0.348107,-0.561979,-0.445155,0
2024-11-29 17:57:04.788,1.61366,1.70459,13.4309,-0.337722,-0.555871,-0.462259,0
2024-11-29 17:57:04.790,1.55145,1.62084,13.4812,-0.324284,-0.544265,-0.476308,0
2024-11-29 17:57:04.791,1.5012,1.55145,13.5506,-0.324284,-0.544265,-0.476308,0
2024-11-29 17:57:04.795,1.46052,1.48205,13.6271,-0.282135,-0.502727,-0.501353,0
2024-11-29 17:57:04.797,1.42702,1.39322,13.6798,-0.257701,-0.475239,-0.511737,3
2024-11-29 17:57:04.799,1.37169,1.30708,13.6965,-0.257701,-0.475239,-0.511737,0
2024-11-29 17:57:04.802,1.28554,1.2329,13.6917,-0.194784,-0.400716,-0.523954,0
2024-11-29 17:57:04.804,1.19462,1.15394,13.6558,-0.161187,-0.355513,-0.526398,0
2024-11-29 17:57:04.806,1.11087,1.0654,13.5912,-0.161187,-0.355513,-0.526398,0
2024-11-29 17:57:04.808,1.0343,0.986441,13.5147,-0.123315,-0.306645,-0.526398,0
2024-11-29 17:57:04.811,0.984048,0.929013,13.4237,-0.0475697,-0.188752,-0.519678,0
2024-11-29 17:57:04.814,0.945763,0.876371,13.3041,-0.0475697,-0.188752,-0.519678,0
2024-11-29 17:57:04.815,0.919442,0.82343,13.1363,-0.00542127,-0.124002,-0.514792,0
2024-11-29 17:57:04.817,0.881157,0.770788,12.9544,0.0324513,-0.0568088,-0.509294,0
2024-11-29 17:57:04.820,0.780359,0.744467,12.7606,0.0739889,0.0134386,-0.503185,0
2024-11-29 17:57:04.823,0.617647,0.751645,12.5545,0.155232,0.158209,-0.482417,0
2024-11-29 17:57:04.825,0.428614,0.773181,12.3153,0.194937,0.227846,-0.467145,0
2024-11-29 17:57:04.828,0.272782,0.789931,12.047,0.232198,0.296261,-0.453707,0
2024-11-29 17:57:04.830,0.155533,0.797109,11.7622,0.267017,0.358567,-0.436603,0
2024-11-29 17:57:04.832,0.040678,0.809073,11.4676,0.267017,0.358567,-0.436603,0
2024-11-29 17:57:04.834,-0.0646062,0.818644,11.1685,0.301835,0.415376,-0.419499,0
2024-11-29 17:57:04.837,-0.174676,0.811466,10.85,0.361698,0.51922,-0.385292,0
2024-11-29 17:57:04.838,-0.27996,0.799502,10.5413,0.361698,0.51922,-0.385292,0
2024-11-29 17:57:04.841,-0.349651,0.789931,10.2203,0.386132,0.561979,-0.366356,0
2024-11-29 17:57:04.844,-0.409472,0.789931,9.8686,0.40629,0.597409,-0.347419,0
2024-11-29 17:57:04.845,-0.4669,0.768395,9.51177,0.421561,0.630394,-0.329705,0
2024-11-29 17:57:04.848,-0.519542,0.751645,9.1669,0.431335,0.653607,-0.311379,0
2024-11-29 17:57:04.851,-0.579362,0.76361,8.8343,0.43561,0.670099,-0.294276,0
2024-11-29 17:57:04.854,-0.646361,0.761217,8.50379,0.429502,0.685371,-0.256403,0
2024-11-29 17:57:04.856,-0.699003,0.76361,8.21187,0.417285,0.682316,-0.238078,0
2024-11-29 17:57:04.857,-0.749253,0.782752,7.93879,0.417285,0.682316,-0.238078,0
2024-11-29 17:57:04.860,-0.768395,0.801895,7.68276,0.403846,0.674375,-0.220363,0
2024-11-29 17:57:04.862,-0.780359,0.825823,7.46232,0.386743,0.657883,-0.201427,0
2024-11-29 17:57:04.865,-0.777966,0.854836,7.27328,0.386743,0.657883,-0.201427,0
2024-11-29 17:57:04.868,-0.761217,0.852443,7.11057,0.313441,0.581527,-0.151948,0
2024-11-29 17:57:04.870,-0.739681,0.845265,6.98345,0.284731,0.543043,-0.13912,0
2024-11-29 17:57:04.872,-0.687039,0.854836,6.89731,0.284731,0.543043,-0.13912,0
2024-11-29 17:57:04.875,-0.608076,0.852443,6.83988,0.257243,0.499062,-0.12446,0
2024-11-29 17:57:04.877,-0.347258,0.777966,6.96192,0.208986,0.378114,-0.118963,0
2024-11-29 17:57:04.878,0.0909273,0.596112,7.29003,0.208986,0.378114,-0.118963,0
2024-11-29 17:57:04.882,0.426222,0.440578,7.60858,0.19005,0.227235,-0.155002,0
2024-11-29 17:57:04.883,0.275175,0.50997,7.52214,0.19005,0.227235,-0.155002,0
2024-11-29 17:57:04.886,-0.0143569,0.691825,7.29243,0.177833,0.185698,-0.163554,0
2024-11-29 17:57:04.889,-0.00239282,0.847657,7.36182,0.166838,0.0989573,-0.171495,0
2024-11-29 17:57:04.890,0.0167498,0.998405,7.52214,0.166838,0.0989573,-0.171495,0
2024-11-29 17:57:04.893,-0.0191426,1.11805,7.66122,0.162562,0.0482569,-0.172106,0
2024-11-29 17:57:04.895,-0.0334995,1.22094,7.74975,0.155842,-0.0122169,-0.170274,0
2024-11-29 17:57:04.897,-0.0454636,1.30469,7.78086,0.149734,-0.07208,-0.166609,0
2024-11-29 17:57:04.900,-0.0311067,1.33819,7.78325,0.143015,-0.127667,-0.161111,0
2024-11-29 17:57:04.902,0.026321,1.32622,7.84068,0.136906,-0.177146,-0.155613,0
2024-11-29 17:57:04.904,0.153141,1.2664,7.95793,0.130798,-0.226013,-0.150727,0
2024-11-29 17:57:04.908,0.325723,1.17069,8.09671,0.128354,-0.270605,-0.151337,0
2024-11-29 17:57:04.909,0.493221,1.07258,8.24776,0.130187,-0.313975,-0.154392,0
2024-11-29 17:57:04.912,0.627219,0.969691,8.38654,0.131409,-0.352459,-0.164165,0
2024-11-29 17:57:04.915,0.734896,0.869193,8.51097,0.143625,-0.410489,-0.183712,0
2024-11-29 17:57:04.917,0.813859,0.809073,8.61147,0.143625,-0.410489,-0.183712,0
2024-11-29 17:57:04.920,0.842872,0.785145,8.67368,0.159507,-0.451416,-0.202649,0
2024-11-29 17:57:04.922,0.830609,0.751645,8.7338,0.166838,-0.467298,-0.21059,0
2024-11-29 17:57:04.924,0.818644,0.722932,8.78644,0.166838,-0.467298,-0.21059,0
2024-11-29 17:57:04.926,0.801895,0.708575,8.81037,0.172946,-0.480126,-0.216087,0
2024-11-29 17:57:04.928,0.761217,0.701396,8.79362,0.178444,-0.491121,-0.220363,0
2024-11-29 17:57:04.930,0.720539,0.684646,8.77448,0.180887,-0.498451,-0.222196,0
2024-11-29 17:57:04.933,0.684646,0.675075,8.7338,0.180887,-0.500895,-0.218531,0
2024-11-29 17:57:04.935,0.648754,0.677468,8.70509,0.180276,-0.499673,-0.216087,0
2024-11-29 17:57:04.937,0.62004,0.672682,8.70509,0.177222,-0.495397,-0.2112,0
2024-11-29 17:57:04.941,0.617647,0.651147,8.71466,0.171114,-0.4899,-0.20387,0
2024-11-29 17:57:04.943,0.62004,0.634397,8.71705,0.165005,-0.48318,-0.194708,0
2024-11-29 17:57:04.945,0.608076,0.627219,8.71227,0.159507,-0.472185,-0.188599,0
2024-11-29 17:57:04.948,0.586541,0.622433,8.71466,0.151566,-0.46119,-0.180047,0
2024-11-29 17:57:04.949,0.586541,0.615255,8.72423,0.144847,-0.447751,-0.172106,0
2024-11-29 17:57:04.952,0.586541,0.615255,8.75773,0.136295,-0.430647,-0.163554,0
2024-11-29 17:57:04.955,0.584148,0.632004,8.78166,0.128965,-0.412933,-0.156224,0
2024-11-29 17:57:04.956,0.588933,0.63679,8.81994,0.121024,-0.389721,-0.14584,0
2024-11-29 17:57:04.959,0.596112,0.667897,8.85105,0.117359,-0.364676,-0.135455,0
2024-11-29 17:57:04.962,0.605683,0.699003,8.86062,0.108807,-0.304813,-0.114687,0
2024-11-29 17:57:04.964,0.617647,0.701396,8.88455,0.108807,-0.304813,-0.114687,0
2024-11-29 17:57:04.966,0.632004,0.71336,8.91566,0.108196,-0.271827,-0.107356,0
2024-11-29 17:57:04.969,0.663111,0.718146,8.94198,0.10392,-0.20219,-0.0878093,0
2024-11-29 17:57:04.971,0.689432,0.722932,8.9348,0.10392,-0.20219,-0.0878093,0
2024-11-29 17:57:04.974,0.679861,0.744467,8.92284,0.102088,-0.131943,-0.0737598,0
2024-11-29 17:57:04.975,0.682254,0.761217,8.90848,0.102088,-0.131943,-0.0737598,0
2024-11-29 17:57:04.978,0.682254,0.770788,8.87737,0.100866,-0.0965139,-0.0645971,0
2024-11-29 17:57:04.980,0.665504,0.789931,8.85105,0.10331,-0.0623064,-0.0578778,0
2024-11-29 17:57:04.983,0.660718,0.811466,8.82473,0.102699,-0.0293207,-0.0499368,0
2024-11-29 17:57:04.984,0.634397,0.825823,8.78644,0.102699,0.00366508,-0.0413849,0
2024-11-29 17:57:04.988,0.600898,0.852443,8.7362,0.106364,0.0335966,-0.032833,0
2024-11-29 17:57:04.989,0.567398,0.885943,8.67847,0.108807,0.0592522,-0.0236703,0
2024-11-29 17:57:04.992,0.538684,0.917049,8.62583,0.110029,0.0836861,-0.0151185,0
2024-11-29 17:57:04.996,0.50997,0.955334,8.51815,0.11797,0.119115,0.00565034,0
2024-11-29 17:57:04.997,0.50997,0.955334,8.51815,0.121024,0.131332,0.0135914,0
2024-11-29 17:57:04.999,0.519542,0.972084,8.46551,0.121024,0.131332,0.0135914,0
2024-11-29 17:57:05.002,0.52672,0.996012,8.40569,0.122857,0.141106,0.0221432,0
2024-11-29 17:57:05.004,0.531506,1.01755,8.32672,0.126522,0.149658,0.0319168,0
2024-11-29 17:57:05.006,0.553041,1.04148,8.27408,0.130798,0.153934,0.0404686,0
2024-11-29 17:57:05.009,0.569791,1.06301,8.21426,0.140571,0.161875,0.0520747,0
2024-11-29 17:57:05.010,0.572184,1.09173,8.15205,0.140571,0.161875,0.0520747,0
2024-11-29 17:57:05.014,0.586541,1.1324,8.11586,0.145458,0.162485,0.058794,0
2024-11-29 17:57:05.016,0.600898,1.16351,8.07518,0.152177,0.166761,0.0636808,0
2024-11-29 17:57:05.018,0.60329,1.19701,8.03689,0.160118,0.166761,0.0661242,0
2024-11-29 17:57:05.020,0.624826,1.24965,8.00339,0.165616,0.16615,0.071011,0
2024-11-29 17:57:05.022,0.65354,1.29512,7.94836,0.172946,0.16554,0.0783412,0
2024-11-29 17:57:05.025,0.672682,1.30469,7.88854,0.179665,0.163707,0.0795629,0
2024-11-29 17:57:05.027,0.696611,1.31665,7.84068,0.188217,0.160653,0.0813954,0
2024-11-29 17:57:05.029,0.715753,1.34776,7.79043,0.193715,0.155155,0.0826171,0
2024-11-29 17:57:05.033,0.742074,1.37647,7.74497,0.205321,0.137441,0.0820062,0
2024-11-29 17:57:05.034,0.780359,1.37647,7.69233,0.205321,0.137441,0.0820062,0
2024-11-29 17:57:05.036,0.799502,1.39083,7.64447,0.21143,0.125224,0.0832279,0
2024-11-29 17:57:05.039,0.828216,1.40788,7.59183,0.216316,0.113618,0.0820062,0
2024-11-29 17:57:05.042,0.85005,1.41506,7.54367,0.21876,0.101401,0.078952,0
2024-11-29 17:57:05.043,0.85005,1.45095,7.49821,0.224257,0.0885729,0.0758978,0
2024-11-29 17:57:05.047,0.862014,1.47966,7.4336,0.227312,0.0751342,0.0722327,0
2024-11-29 17:57:05.048,0.8668,1.50359,7.38096,0.23342,0.0623064,0.071011,0
2024-11-29 17:57:05.050,0.8668,1.53709,7.34985,0.234642,0.0500895,0.0661242,0
2024-11-29 17:57:05.054,0.869193,1.57537,7.31635,0.232809,0.0378725,0.0606266,0
2024-11-29 17:57:05.055,0.871586,1.61845,7.28286,0.232809,0.0250447,0.0563507,0
2024-11-29 17:57:05.057,0.878764,1.64955,7.27568,0.234642,0.0122169,0.0514639,0
2024-11-29 17:57:05.061,0.890728,1.68784,7.25893,0.237696,-0.0177146,0.0398578,0
2024-11-29 17:57:05.063,0.909871,1.71894,7.21825,0.237696,-0.0177146,0.0398578,0
2024-11-29 17:57:05.065,0.929013,1.7333,7.17039,0.235253,-0.0305424,0.0313059,0
2024-11-29 17:57:05.068,0.940978,1.74048,7.12732,0.23342,-0.0403159,0.0221432,0
2024-11-29 17:57:05.069,0.948156,1.74048,7.08186,0.234031,-0.051922,0.011148,0
2024-11-29 17:57:05.073,0.964906,1.75962,7.03639,0.230366,-0.0623064,0.00442864,0
2024-11-29 17:57:05.076,0.97687,1.79312,6.92363,0.216927,-0.0861295,-0.0218378,0
2024-11-29 17:57:05.077,0.97687,1.79312,6.92363,0.216927,-0.0861295,-0.0218378,0
2024-11-29 17:57:05.080,0.972084,1.80509,6.87099,0.210208,-0.0971247,-0.032833,0
2024-11-29 17:57:05.081,0.950549,1.82423,6.83749,0.199823,-0.108731,-0.0432174,0
2024-11-29 17:57:05.086,0.878764,1.86969,6.77767,0.177222,-0.132554,-0.0652079,0
2024-11-29 17:57:05.086,0.878764,1.86969,6.77767,0.177222,-0.132554,-0.0652079,0
2024-11-29 17:57:05.088,0.82343,1.89841,6.77767,0.163783,-0.142938,-0.076814,0
2024-11-29 17:57:05.091,0.775574,1.93669,6.78246,0.152177,-0.153323,-0.0859767,0
2024-11-29 17:57:05.094,0.732503,1.95823,6.79442,0.13996,-0.161875,-0.0945286,0
2024-11-29 17:57:05.095,0.689432,1.97528,6.81596,0.127743,-0.169205,-0.10247,0
2024-11-29 17:57:05.099,0.655932,1.99681,6.85185,0.114916,-0.1802,-0.110411,0
2024-11-29 17:57:05.101,0.612862,2.00399,6.9021,0.093536,-0.193639,-0.123238,0
2024-11-29 17:57:05.102,0.576969,2.02552,6.94756,0.093536,-0.193639,-0.123238,0
2024-11-29 17:57:05.105,0.557827,2.02792,6.99063,0.0843733,-0.20158,-0.128736,0
2024-11-29 17:57:05.108,0.52672,2.00877,7.03639,0.0666587,-0.211353,-0.13851,0
2024-11-29 17:57:05.109,0.505185,1.9992,7.08664,0.0666587,-0.211353,-0.13851,0
2024-11-29 17:57:05.113,0.493221,1.98485,7.13211,0.0519984,-0.219905,-0.144007,0
2024-11-29 17:57:05.115,0.481256,1.97288,7.17039,0.0440574,-0.225403,-0.148283,0
2024-11-29 17:57:05.116,0.462114,1.97288,7.22782,0.0440574,-0.225403,-0.148283,0
2024-11-29 17:57:05.120,0.435793,1.98006,7.29482,0.0287862,-0.240063,-0.150727,0
2024-11-29 17:57:05.122,0.419043,1.98724,7.35943,0.0287862,-0.240063,-0.150727,0
2024-11-29 17:57:05.124,0.3999,1.98485,7.41925,0.0257319,-0.246171,-0.15317,0
2024-11-29 17:57:05.126,0.364008,1.98006,7.47667,0.0196235,-0.252891,-0.152559,0
2024-11-29 17:57:05.128,0.332901,1.98485,7.54846,0.0116825,-0.25961,-0.152559,0
2024-11-29 17:57:05.132,0.330509,2.01356,7.61815,0.00313059,-0.273049,-0.151948,0
2024-11-29 17:57:05.134,0.311366,2.03988,7.68993,-0.00114534,-0.279768,-0.150116,0
2024-11-29 17:57:05.135,0.294616,2.04706,7.77368,-0.00114534,-0.279768,-0.150116,0
2024-11-29 17:57:05.139,0.313759,2.05902,7.86461,-0.00603212,-0.289542,-0.147061,0
2024-11-29 17:57:05.141,0.32333,2.07577,7.95075,-0.0096972,-0.296261,-0.145229,0
2024-11-29 17:57:05.142,0.34008,2.0997,8.03211,-0.0096972,-0.296261,-0.145229,0
2024-11-29 17:57:05.146,0.344866,2.11645,8.12064,-0.0096972,-0.305424,-0.146451,0
2024-11-29 17:57:05.148,0.344866,2.14038,8.19512,-0.0096972,-0.305424,-0.146451,0
2024-11-29 17:57:05.149,0.344866,2.17627,8.24298,-0.0096972,-0.31031,-0.146451,0
2024-11-29 17:57:05.152,0.349651,2.20977,8.3004,-0.00908635,-0.313975,-0.148894,0
2024-11-29 17:57:05.156,0.375972,2.25045,8.44397,-0.00542127,-0.314586,-0.151948,0
2024-11-29 17:57:05.157,0.375972,2.25045,8.44397,-0.00542127,-0.314586,-0.151948,0
2024-11-29 17:57:05.160,0.378365,2.28156,8.50379,-0.00419957,-0.312754,-0.155002,0
2024-11-29 17:57:05.162,0.385544,2.31266,8.54208,-0.00419957,-0.312754,-0.155002,0
2024-11-29 17:57:05.164,0.395115,2.33898,8.57558,-0.00297788,-0.312754,-0.155613,0
2024-11-29 17:57:05.166,0.411865,2.37009,8.62343,-0.00481042,-0.3097,-0.158668,0
2024-11-29 17:57:05.168,0.41665,2.40598,8.69043,-0.00481042,-0.308478,-0.1605,0
2024-11-29 17:57:05.172,0.409472,2.4347,8.74098,-0.00664296,-0.307256,-0.163554,0
2024-11-29 17:57:05.173,0.423829,2.45384,8.7697,-0.00847551,-0.301759,-0.164776,0
2024-11-29 17:57:05.176,0.464507,2.45623,8.78884,-0.0121406,-0.296872,-0.165998,0
2024-11-29 17:57:05.178,0.500399,2.44666,8.81994,-0.0170274,-0.290763,-0.170885,0
2024-11-29 17:57:05.182,0.536291,2.45145,8.95873,-0.0261901,-0.281601,-0.177604,0
2024-11-29 17:57:05.183,0.567398,2.45145,8.95873,-0.0261901,-0.281601,-0.177604,0
2024-11-29 17:57:05.186,0.584148,2.47059,9.04726,-0.030466,-0.274881,-0.181269,0
2024-11-29 17:57:05.188,0.584148,2.49452,9.14537,-0.038407,-0.277936,-0.187988,0
2024-11-29 17:57:05.189,0.56022,2.52832,9.24587,-0.038407,-0.277936,-0.187988,0
2024-11-29 17:57:05.192,0.553041,2.55942,9.3347,-0.0402396,-0.279157,-0.191653,0
2024-11-29 17:57:05.195,0.553041,2.6001,9.4017,-0.0408504,-0.284044,-0.197151,0
2024-11-29 17:57:05.197,0.550648,2.63839,9.47827,-0.0420721,-0.282211,-0.197151,0
2024-11-29 17:57:05.199,0.565005,2.64317,9.55723,-0.0390179,-0.280379,-0.199594,0
2024-11-29 17:57:05.202,0.591326,2.62881,9.62663,-0.0371853,-0.28099,-0.203259,0
2024-11-29 17:57:05.204,0.608076,2.62642,9.68645,-0.0377962,-0.279157,-0.206314,0
2024-11-29 17:57:05.207,0.622433,2.62164,9.74627,-0.0371853,-0.278546,-0.2112,0
2024-11-29 17:57:05.208,0.663111,2.61924,9.77498,-0.0353528,-0.277325,-0.213644,0
2024-11-29 17:57:05.211,0.873978,2.60967,9.60509,-0.0359636,-0.263886,-0.222196,0
2024-11-29 17:57:05.214,1.05105,2.60489,9.48066,-0.0524565,-0.211353,-0.242964,0
2024-11-29 17:57:05.216,1.01755,2.63839,9.54527,-0.0524565,-0.211353,-0.242964,0
2024-11-29 17:57:05.219,0.938585,2.68385,9.61945,-0.0781121,-0.19486,-0.266177,0
2024-11-29 17:57:05.221,0.792323,2.73171,9.69362,-0.090329,-0.205245,-0.274729,0
2024-11-29 17:57:05.223,0.600898,2.79392,9.77737,-0.090329,-0.205245,-0.274729,0
2024-11-29 17:57:05.225,0.440578,2.83699,9.88535,-0.1056,-0.221127,-0.278394,0
2024-11-29 17:57:05.228,0.349651,2.86092,9.97867,-0.118428,-0.240674,-0.280837,0
2024-11-29 17:57:05.233,0.423829,2.87528,10.2395,-0.136753,-0.258999,-0.283891,0
2024-11-29 17:57:05.233,0.423829,2.87528,10.2395,-0.136753,-0.258999,-0.283891,0
2024-11-29 17:57:05.234,0.545863,2.83938,10.3639,-0.14164,-0.256556,-0.287556,0
2024-11-29 17:57:05.238,0.679861,2.80349,10.4719,-0.147138,-0.22357,-0.302217,0
2024-11-29 17:57:05.240,0.797109,2.76281,10.5413,-0.147138,-0.22357,-0.302217,0
2024-11-29 17:57:05.241,0.869193,2.71256,10.5939,-0.146527,-0.196082,-0.311379,0
2024-11-29 17:57:05.244,0.878764,2.6336,10.6322,-0.14836,-0.164318,-0.322375,0
2024-11-29 17:57:05.247,0.85005,2.5666,10.6705,-0.151414,-0.132554,-0.332148,0
2024-11-29 17:57:05.249,0.780359,2.51845,10.704,-0.154468,-0.100179,-0.341311,0
2024-11-29 17:57:05.251,0.689432,2.50648,10.7471,-0.159966,-0.0708583,-0.34803,0
2024-11-29 17:57:05.254,0.572184,2.52832,10.8212,-0.171572,-0.0195471,-0.351084,0
2024-11-29 17:57:05.256,0.442971,2.54028,10.8906,-0.171572,-0.0195471,-0.351084,0
2024-11-29 17:57:05.258,0.328116,2.56182,10.9699,-0.175237,0.00610847,-0.34803,0
2024-11-29 17:57:05.260,0.222533,2.58574,11.0656,-0.178902,0.0287098,-0.340089,0
2024-11-29 17:57:05.262,0.12682,2.60728,11.1565,-0.177069,0.0537546,-0.329094,0
2024-11-29 17:57:05.265,0.0358923,2.61924,11.214,-0.179513,0.0775776,-0.316877,0
2024-11-29 17:57:05.268,-0.040678,2.62403,11.2522,-0.178291,0.103844,-0.301606,0
2024-11-29 17:57:05.270,-0.102891,2.62164,11.2953,-0.175848,0.1295,-0.283891,0
2024-11-29 17:57:05.272,-0.145962,2.60728,11.3192,-0.175237,0.15149,-0.268009,0
2024-11-29 17:57:05.274,-0.177069,2.58096,11.3192,-0.175237,0.176535,-0.249684,0
2024-11-29 17:57:05.277,-0.210568,2.54267,11.3408,-0.172793,0.19486,-0.231358,0
2024-11-29 17:57:05.280,-0.224925,2.51845,11.3647,-0.173404,0.218683,-0.195929,0
2024-11-29 17:57:05.281,-0.217747,2.4993,11.3791,-0.173404,0.218683,-0.195929,0
2024-11-29 17:57:05.285,-0.212961,2.5017,11.4054,-0.175848,0.227235,-0.180658,0
2024-11-29 17:57:05.286,-0.224925,2.51366,11.4556,-0.178291,0.232122,-0.161111,0
2024-11-29 17:57:05.289,-0.227318,2.51127,11.511,-0.179513,0.233955,-0.143396,0
2024-11-29 17:57:05.291,-0.208176,2.5331,11.5493,-0.180124,0.235176,-0.125071,0
2024-11-29 17:57:05.294,-0.181855,2.57378,11.5971,-0.1844,0.236398,-0.0926961,0
2024-11-29 17:57:05.296,-0.141177,2.59771,11.6617,-0.1844,0.236398,-0.0926961,0
2024-11-29 17:57:05.299,-0.0957129,2.61446,11.7359,-0.188065,0.236398,-0.0798683,0
2024-11-29 17:57:05.301,-0.0454636,2.65274,11.8077,-0.194784,0.240063,-0.0536018,0
2024-11-29 17:57:05.302,0.00478565,2.69342,11.8962,-0.194784,0.240063,-0.0536018,0
2024-11-29 17:57:05.306,0.040678,2.71017,11.9895,-0.197227,0.249837,-0.032833,0
2024-11-29 17:57:05.308,0.066999,2.73171,12.0999,-0.197227,0.249837,-0.032833,0
2024-11-29 17:57:05.311,0.107677,2.75803,12.2172,-0.193562,0.260832,-0.0151185,0
2024-11-29 17:57:05.312,0.155533,2.79871,12.3512,-0.193562,0.260832,-0.0151185,0
2024-11-29 17:57:05.314,0.165105,2.82981,12.4899,-0.188675,0.266329,-0.0077883,0
2024-11-29 17:57:05.319,0.210568,2.87288,12.7319,-0.172793,0.282211,0.00626118,0
2024-11-29 17:57:05.320,0.210568,2.87288,12.7319,-0.160576,0.291985,0.0142022,0
2024-11-29 17:57:05.322,0.222533,2.89203,12.8539,-0.145916,0.303591,0.0215324,0
2024-11-29 17:57:05.324,0.217747,2.91356,12.9425,-0.145916,0.303591,0.0215324,0
2024-11-29 17:57:05.327,0.20339,2.9016,13.0262,-0.114763,0.334133,0.0331385,0
2024-11-29 17:57:05.329,0.193819,2.89203,13.0956,-0.114763,0.334133,0.0331385,0
2024-11-29 17:57:05.331,0.174676,2.90638,13.1315,-0.0982701,0.349405,0.0368035,0
2024-11-29 17:57:05.336,0.124427,2.90399,13.194,-0.058565,0.38178,0.0520747,0
2024-11-29 17:57:05.336,0.124427,2.90399,13.194,-0.058565,0.38178,0.0520747,0
2024-11-29 17:57:05.339,0.0741775,2.90638,13.2108,-0.038407,0.395829,0.0594049,0
2024-11-29 17:57:05.340,0.0119641,2.91117,13.2108,-0.0170274,0.407435,0.0642917,0
2024-11-29 17:57:05.344,-0.0502493,2.88724,13.1818,0.0196235,0.422095,0.0795629,0
2024-11-29 17:57:05.345,-0.105284,2.87049,13.1507,0.0196235,0.422095,0.0795629,0
2024-11-29 17:57:05.348,-0.177069,2.88245,13.11,0.0532201,0.431258,0.0984991,0
2024-11-29 17:57:05.350,-0.251246,2.88485,13.031,0.0532201,0.431258,0.0984991,0
2024-11-29 17:57:05.353,-0.32333,2.87288,12.9449,0.0819299,0.436756,0.117435,0
2024-11-29 17:57:05.355,-0.387936,2.8681,12.8683,0.0819299,0.436756,0.117435,0
2024-11-29 17:57:05.357,-0.447757,2.8681,12.7822,0.0917034,0.434312,0.129041,0
2024-11-29 17:57:05.360,-0.493221,2.86331,12.6888,0.100255,0.43248,0.141869,0
2024-11-29 17:57:05.361,-0.519542,2.85613,12.6024,0.102699,0.428204,0.152865,0
2024-11-29 17:57:05.365,-0.550648,2.86331,12.5306,0.10392,0.420874,0.164471,0
2024-11-29 17:57:05.367,-0.593719,2.88006,12.4517,0.0947577,0.399494,0.188905,0
2024-11-29 17:57:05.369,-0.62004,2.89681,12.3703,0.0947577,0.399494,0.188905,0
2024-11-29 17:57:05.372,-0.629611,2.92552,12.3057,0.0849841,0.385445,0.201121,0
2024-11-29 17:57:05.373,-0.646361,2.9351,12.2507,0.0721563,0.368952,0.213949,0
2024-11-29 17:57:05.375,-0.648754,2.95424,12.2363,0.0550526,0.350626,0.223112,0
2024-11-29 17:57:05.378,-0.627219,2.99731,12.2387,0.0391706,0.329858,0.232886,0
2024-11-29 17:57:05.381,-0.579362,3.01645,12.2124,0.0196235,0.306645,0.242659,0
2024-11-29 17:57:05.384,-0.536291,3.01406,12.1813,-0.00297788,0.285266,0.2506,0
2024-11-29 17:57:05.385,-0.490828,3.01645,12.1884,-0.0268009,0.260221,0.256098,0
2024-11-29 17:57:05.387,-0.414257,3.02124,12.2219,-0.0542891,0.2309,0.260984,0
2024-11-29 17:57:05.390,-0.289831,3.00927,12.2985,-0.0811663,0.200969,0.261595,0
2024-11-29 17:57:05.392,-0.143569,2.97817,12.3942,-0.110487,0.166761,0.259763,0
2024-11-29 17:57:05.394,0.00239282,2.92792,12.4708,-0.137364,0.132554,0.251822,0
2024-11-29 17:57:05.398,0.172283,2.8322,12.5593,-0.169128,0.0983464,0.24327,0
2024-11-29 17:57:05.399,0.335294,2.72692,12.6793,-0.200892,0.0604739,0.229831,0
2024-11-29 17:57:05.401,0.474078,2.64556,12.8157,-0.233878,0.0262664,0.217003,0
2024-11-29 17:57:05.405,0.596112,2.54985,12.9401,-0.266253,-0.00733017,0.202343,0
2024-11-29 17:57:05.406,0.689432,2.42752,13.0645,-0.298017,-0.0397051,0.187072,0
2024-11-29 17:57:05.409,0.775574,2.30788,13.2108,-0.328559,-0.0684149,0.173022,0
2024-11-29 17:57:05.411,0.847657,2.21216,13.3615,-0.359713,-0.0946813,0.158973,0
2024-11-29 17:57:05.414,0.905085,2.12842,13.5194,-0.387201,-0.119115,0.144924,0
2024-11-29 17:57:05.417,0.945763,2.05185,13.6846,-0.412246,-0.141106,0.133928,0
2024-11-29 17:57:05.418,0.945763,1.98006,13.8835,-0.435458,-0.16615,0.12049,0
2024-11-29 17:57:05.420,0.945763,1.91037,14.118,-0.451951,-0.178978,0.111938,0
2024-11-29 17:57:05.424,1.0008,1.82423,14.348,-0.463557,-0.186919,0.100332,0
2024-11-29 17:57:05.426,1.04626,1.71655,14.5753,-0.466611,-0.200358,0.0893364,0
2024-11-29 17:57:05.428,1.03669,1.62084,14.8002,-0.466611,-0.200358,0.0893364,0
2024-11-29 17:57:05.430,1.01994,1.52513,14.9919,-0.457448,-0.197915,0.0850605,0
2024-11-29 17:57:05.433,1.0008,1.42463,15.1786,-0.421408,-0.177757,0.0795629,0
2024-11-29 17:57:05.434,0.972084,1.31426,15.3604,-0.421408,-0.177757,0.0795629,0
2024-11-29 17:57:05.437,0.950549,1.20897,15.5163,-0.393309,-0.160042,0.0783412,0
2024-11-29 17:57:05.440,0.919442,1.1013,15.6479,-0.355437,-0.137441,0.0783412,0
2024-11-29 17:57:05.441,0.885943,1.01037,15.7579,-0.315121,-0.110563,0.078952,0
2024-11-29 17:57:05.445,0.833001,0.921835,15.8178,-0.268086,-0.0763559,0.0820062,0
2024-11-29 17:57:05.447,0.766002,0.835394,15.8178,-0.217996,-0.0378725,0.0844496,3
2024-11-29 17:57:05.449,0.691825,0.751645,15.7627,-0.160576,0.00549763,0.0899473,0
2024-11-29 17:57:05.452,0.591326,0.660718,15.6622,-0.103157,0.0531437,0.0960557,0
2024-11-29 17:57:05.453,0.474078,0.591326,15.5306,-0.0396287,0.106898,0.105218,0
2024-11-29 17:57:05.456,0.35683,0.536291,15.3748,0.0245102,0.160653,0.115603,0
2024-11-29 17:57:05.458,0.246461,0.462114,15.2121,0.0892601,0.217462,0.129041,0
2024-11-29 17:57:05.460,0.143569,0.3999,15.0135,0.155232,0.278546,0.144924,0
2024-11-29 17:57:05.464,0.0334995,0.368794,14.7811,0.287175,0.400716,0.180353,0
2024-11-29 17:57:05.466,-0.0717847,0.354437,14.5226,0.287175,0.400716,0.180353,0
2024-11-29 17:57:05.468,-0.162712,0.359223,14.2472,0.352535,0.458135,0.200511,0
2024-11-29 17:57:05.471,-0.248854,0.383151,13.9576,0.480813,0.56931,0.24327,0
2024-11-29 17:57:05.473,-0.344866,0.419043,13.6463,0.542509,0.622453,0.26526,0
2024-11-29 17:57:05.475,-0.431007,0.452543,13.2826,0.542509,0.622453,0.26526,0
2024-11-29 17:57:05.477,-0.502792,0.493221,12.8946,0.600539,0.668267,0.284808,0
2024-11-29 17:57:05.480,-0.598505,0.519542,12.5067,0.70927,0.75012,0.323291,0
2024-11-29 17:57:05.482,-0.675075,0.536291,12.1167,0.70927,0.75012,0.323291,0
2024-11-29 17:57:05.485,-0.720539,0.545863,11.7311,0.794789,0.80754,0.359331,0
2024-11-29 17:57:05.487,-0.756431,0.550648,11.3216,0.828996,0.825255,0.375824,0
2024-11-29 17:57:05.490,-0.777966,0.565005,10.8906,0.858317,0.83625,0.391706,0
2024-11-29 17:57:05.492,-0.809073,0.593719,10.4575,0.858317,0.83625,0.391706,0
2024-11-29 17:57:05.494,-0.852443,0.629611,10.0361,0.877864,0.83625,0.403312,0
2024-11-29 17:57:05.496,-0.885943,0.65354,9.64577,0.890081,0.831363,0.414307,0
2024-11-29 17:57:05.499,-0.890728,0.682254,9.26531,0.900465,0.819146,0.425913,0
2024-11-29 17:57:05.500,-0.893121,0.725324,8.9013,0.899244,0.795934,0.435076,0
2024-11-29 17:57:05.503,-0.881157,0.775574,8.6019,0.893135,0.767224,0.43813,0
2024-11-29 17:57:05.505,-0.8668,0.842872,8.33869,0.88214,0.730573,0.443017,0
2024-11-29 17:57:05.507,-0.864407,0.924228,8.09193,0.866869,0.691479,0.444239,0
2024-11-29 17:57:05.511,-0.845265,0.998405,7.8694,0.823498,0.590078,0.441795,0
2024-11-29 17:57:05.513,-0.82343,1.07737,7.68276,0.823498,0.590078,0.441795,0
2024-11-29 17:57:05.515,-0.799502,1.16112,7.5341,0.796621,0.532659,0.437519,0
2024-11-29 17:57:05.517,-0.782752,1.24247,7.40967,0.764857,0.470963,0.429578,0
2024-11-29 17:57:05.520,-0.744467,1.33579,7.3355,0.733093,0.404992,0.420416,0
2024-11-29 17:57:05.522,-0.694218,1.41984,7.28046,0.697053,0.338409,0.40881,0
2024-11-29 17:57:05.524,-0.634397,1.4988,7.25653,0.663456,0.267551,0.39476,0
2024-11-29 17:57:05.526,-0.56022,1.57537,7.2685,0.626195,0.197304,0.379489,0
2024-11-29 17:57:05.531,-0.383151,1.67109,7.34028,0.552282,0.0604739,0.33734,0
2024-11-29 17:57:05.531,-0.383151,1.67109,7.34028,0.552282,0.0604739,0.33734,0
2024-11-29 17:57:05.534,-0.27996,1.70937,7.41925,0.485089,-0.0623064,0.290916,0
2024-11-29 17:57:05.537,-0.160319,1.72612,7.51017,0.452714,-0.117894,0.26465,0
2024-11-29 17:57:05.539,-0.0191426,1.70698,7.61097,0.452714,-0.117894,0.26465,0
2024-11-29 17:57:05.540,0.117248,1.67348,7.72583,0.423394,-0.166761,0.238383,0
2024-11-29 17:57:05.543,0.232104,1.63759,7.86461,0.395905,-0.208299,0.212117,0
2024-11-29 17:57:05.545,0.32333,1.60409,8.02971,0.373304,-0.244339,0.184018,0
2024-11-29 17:57:05.548,0.397508,1.57537,8.17119,0.351314,-0.271827,0.158362,0
2024-11-29 17:57:05.550,0.476471,1.52991,8.28605,0.33421,-0.291985,0.132096,0
2024-11-29 17:57:05.552,0.562612,1.48205,8.39612,0.317106,-0.306034,0.105218,0
2024-11-29 17:57:05.556,0.632004,1.45095,8.47029,0.303057,-0.313365,0.0758978,0
2024-11-29 17:57:05.558,0.684646,1.42463,8.5014,0.288396,-0.317641,0.050853,0
2024-11-29 17:57:05.560,0.708575,1.37647,8.55165,0.264573,-0.314586,-0.00717746,0
2024-11-29 17:57:05.563,0.734896,1.31426,8.6354,0.264573,-0.314586,-0.00717746,0
2024-11-29 17:57:05.564,0.744467,1.25922,8.7362,0.253578,-0.307256,-0.0364981,0
2024-11-29 17:57:05.567,0.725324,1.24487,8.82234,0.249302,-0.297483,-0.0639862,0
2024-11-29 17:57:05.570,0.689432,1.2329,8.86541,0.241361,-0.26694,-0.115908,0
2024-11-29 17:57:05.572,0.646361,1.2018,8.88694,0.241361,-0.26694,-0.115908,0
2024-11-29 17:57:05.573,0.596112,1.17787,8.88694,0.240139,-0.244339,-0.142175,0
2024-11-29 17:57:05.577,0.524327,1.15155,8.87498,0.237696,-0.221738,-0.163554,0
2024-11-29 17:57:05.579,0.431007,1.10608,8.8678,0.238918,-0.169816,-0.200205,0
2024-11-29 17:57:05.581,0.328116,1.08215,8.84626,0.238918,-0.169816,-0.200205,0
2024-11-29 17:57:05.583,0.205783,1.07737,8.81277,0.240139,-0.143549,-0.214866,0
2024-11-29 17:57:05.586,0.0861416,1.05823,8.7362,0.238918,-0.0855186,-0.235023,0
2024-11-29 17:57:05.588,-0.0311067,1.03669,8.63061,0.238918,-0.0855186,-0.235023,0
2024-11-29 17:57:05.591,-0.157926,1.01994,8.53251,0.235253,-0.0561979,-0.239299,0
2024-11-29 17:57:05.592,-0.277567,1.00558,8.43201,0.231587,-0.0268773,-0.244186,0
2024-11-29 17:57:05.596,-0.397508,0.996012,8.32672,0.217538,0.0287098,-0.243575,0
2024-11-29 17:57:05.597,-0.500399,0.991227,8.2023,0.217538,0.0287098,-0.243575,0
2024-11-29 17:57:05.600,-0.591326,0.984048,8.08236,0.198602,0.0769668,-0.236856,0
2024-11-29 17:57:05.602,-0.665504,0.996012,7.97947,0.198602,0.0769668,-0.236856,0
2024-11-29 17:57:05.604,-0.720539,1.02473,7.88136,0.183941,0.0989573,-0.23258,0
2024-11-29 17:57:05.606,-0.768395,1.04626,7.79283,0.169281,0.120337,-0.225861,0
2024-11-29 17:57:05.610,-0.794716,1.0678,7.6995,0.154621,0.139884,-0.218531,0
2024-11-29 17:57:05.612,-0.833001,1.09412,7.61097,0.13996,0.156988,-0.212422,0
2024-11-29 17:57:05.614,-0.881157,1.12044,7.52692,0.13996,0.156988,-0.212422,0
2024-11-29 17:57:05.617,-0.909871,1.1659,7.45035,0.10392,0.185698,-0.20387,0
2024-11-29 17:57:05.619,-0.929013,1.21615,7.39053,0.0837624,0.196082,-0.195929,0
2024-11-29 17:57:05.620,-0.945763,1.25444,7.34268,0.0636045,0.202801,-0.192264,0
2024-11-29 17:57:05.623,-0.974477,1.27597,7.29482,0.0446682,0.208299,-0.189821,0
2024-11-29 17:57:05.625,-0.984048,1.29272,7.24696,0.0245102,0.208299,-0.188599,0
2024-11-29 17:57:05.629,-0.991227,1.30947,7.20628,0.00374144,0.208299,-0.184934,0
2024-11-29 17:57:05.630,-1.00558,1.33579,7.17996,-0.014584,0.204023,-0.183712,0
2024-11-29 17:57:05.633,-1.01037,1.37169,7.16561,-0.0573433,0.191195,-0.180047,0
2024-11-29 17:57:05.635,-1.02473,1.37408,7.16561,-0.0573433,0.191195,-0.180047,0
2024-11-29 17:57:05.638,-1.03908,1.36929,7.168,-0.0750579,0.182032,-0.177604,0
2024-11-29 17:57:05.639,-1.05583,1.38844,7.16561,-0.0933833,0.169816,-0.176382,0
2024-11-29 17:57:05.643,-1.07737,1.41027,7.19671,-0.128202,0.144771,-0.17455,0
2024-11-29 17:57:05.644,-1.09412,1.42941,7.235,-0.128202,0.144771,-0.17455,0
2024-11-29 17:57:05.647,-1.11565,1.45095,7.27089,-0.144084,0.131332,-0.171495,0
2024-11-29 17:57:05.650,-1.1324,1.44616,7.32832,-0.164852,0.108731,-0.164165,0
2024-11-29 17:57:05.651,-1.14197,1.44855,7.39771,-0.164852,0.108731,-0.164165,0
2024-11-29 17:57:05.654,-1.15872,1.47488,7.4671,-0.174015,0.100179,-0.158668,0
2024-11-29 17:57:05.657,-1.1683,1.49402,7.54128,-0.177069,0.0922379,-0.15317,0
2024-11-29 17:57:05.659,-1.15872,1.51077,7.61815,-0.179513,0.0775776,-0.148894,0
2024-11-29 17:57:05.662,-1.14676,1.5323,7.68754,-0.179513,0.0775776,-0.148894,0
2024-11-29 17:57:05.663,-1.11087,1.5323,7.75215,-0.175848,0.0684149,-0.145229,0
2024-11-29 17:57:05.665,-1.07737,1.52034,7.80718,-0.171572,0.0586413,-0.142175,0
2024-11-29 17:57:05.669,-1.07258,1.51795,7.83111,-0.156911,0.0384834,-0.140342,0
2024-11-29 17:57:05.671,-1.05823,1.50359,7.81915,-0.156911,0.0384834,-0.140342,0
2024-11-29 17:57:05.672,-1.05105,1.47966,7.80718,-0.150192,0.0274881,-0.137899,0
2024-11-29 17:57:05.676,-1.07019,1.48205,7.80718,-0.133699,0.00610847,-0.133623,0
2024-11-29 17:57:05.678,-1.07019,1.48205,7.8335,-0.133699,0.00610847,-0.133623,0
2024-11-29 17:57:05.680,-1.05344,1.47009,7.86461,-0.125147,-0.00549763,-0.133012,0
2024-11-29 17:57:05.682,-1.03669,1.47488,7.87657,-0.11293,-0.0122169,-0.129347,0
2024-11-29 17:57:05.685,-1.02233,1.47248,7.87179,-0.0927724,-0.0329858,-0.121406,0
2024-11-29 17:57:05.687,-1.01037,1.45095,7.86222,-0.0927724,-0.0329858,-0.121406,0
2024-11-29 17:57:05.690,-1.01037,1.44377,7.84307,-0.0732253,-0.0476461,-0.108578,0
2024-11-29 17:57:05.692,-1.01994,1.44616,7.82154,-0.0732253,-0.0476461,-0.108578,0
2024-11-29 17:57:05.693,-1.0343,1.45813,7.80958,-0.0652843,-0.0507003,-0.10247,0
2024-11-29 17:57:05.696,-1.05583,1.46052,7.79283,-0.0567324,-0.051922,-0.0945286,0
2024-11-29 17:57:05.699,-1.0654,1.45813,7.78086,-0.0475697,-0.0525329,-0.0859767,0
2024-11-29 17:57:05.701,-1.05823,1.4677,7.78086,-0.0371853,-0.0488678,-0.0743707,0
2024-11-29 17:57:05.704,-1.04626,1.46291,7.77129,-0.0298552,-0.0415376,-0.0639862,0
2024-11-29 17:57:05.705,-1.05105,1.47727,7.76172,-0.0182491,-0.0378725,-0.0542127,0
2024-11-29 17:57:05.708,-1.03908,1.48684,7.75454,-0.00908635,-0.0305424,-0.0395524,0
2024-11-29 17:57:05.710,-1.03908,1.48445,7.74497,-0.000534491,-0.0244339,-0.029168,0
2024-11-29 17:57:05.712,-1.04387,1.49163,7.733,0.00557398,-0.0195471,-0.016951,0
2024-11-29 17:57:05.715,-1.03669,1.49641,7.70668,0.0153475,-0.0116061,-0.00473407,0
2024-11-29 17:57:05.718,-1.04387,1.50598,7.68754,0.0232886,-0.00488678,0.00870457,0
2024-11-29 17:57:05.719,-1.04626,1.52273,7.68515,0.0257319,0.00488678,0.0196998,0
2024-11-29 17:57:05.723,-1.04626,1.54188,7.68036,0.033673,0.0171037,0.0306951,0
2024-11-29 17:57:05.724,-1.05105,1.55623,7.67797,0.0397814,0.0287098,0.0416903,0
2024-11-29 17:57:05.727,-1.07258,1.58495,7.67318,0.0489441,0.0409268,0.0545181,0
2024-11-29 17:57:05.729,-1.07976,1.60887,7.66361,0.0538309,0.0543654,0.0673459,0
2024-11-29 17:57:05.732,-1.07019,1.62562,7.63011,0.0587177,0.067804,0.0795629,0
2024-11-29 17:57:05.737,-1.05823,1.69262,7.57747,0.0721563,0.101401,0.111327,0
2024-11-29 17:57:05.737,-1.05823,1.69262,7.57747,0.0721563,0.101401,0.111327,0
2024-11-29 17:57:05.738,-1.03908,1.71655,7.55085,0.0721563,0.101401,0.111327,0
2024-11-29 17:57:05.742,-1.01994,1.73809,7.53171,0.0794865,0.118504,0.130263,0
2024-11-29 17:57:05.744,-1.01755,1.76201,7.49342,0.0794865,0.118504,0.130263,0
2024-11-29 17:57:05.745,-1.00319,1.7668,7.45992,0.0807082,0.124613,0.138204,0
2024-11-29 17:57:05.748,-0.974477,1.79551,7.44557,0.0794865,0.128278,0.146756,0
2024-11-29 17:57:05.750,-0.955334,1.82662,7.41446,0.0788757,0.130721,0.151032,0
2024-11-29 17:57:05.752,-0.938585,1.83859,7.37378,0.0782648,0.127667,0.154697,0
2024-11-29 17:57:05.756,-0.921835,1.85533,7.35703,0.0752106,0.125835,0.159584,0
2024-11-29 17:57:05.758,-0.912264,1.88883,7.35464,0.0727672,0.124002,0.163249,0
2024-11-29 17:57:05.760,-0.885943,1.91755,7.34268,0.0678804,0.119726,0.166914,0
2024-11-29 17:57:05.763,-0.862014,1.91994,7.33071,0.0617719,0.106898,0.172412,0
2024-11-29 17:57:05.765,-0.854836,1.92951,7.34268,0.0562743,0.0989573,0.173022,0
2024-11-29 17:57:05.768,-0.830609,1.97049,7.35464,0.0562743,0.0989573,0.173022,0
2024-11-29 17:57:05.770,-0.80668,1.98724,7.35943,0.0519984,0.0891837,0.176077,0
2024-11-29 17:57:05.771,-0.804287,1.98245,7.369,0.0465007,0.0775776,0.17852,0
2024-11-29 17:57:05.775,-0.797109,2.0016,7.4001,0.0361163,0.0543654,0.183407,0
2024-11-29 17:57:05.777,-0.785145,2.0351,7.44317,0.0361163,0.0543654,0.183407,0
2024-11-29 17:57:05.781,-0.758824,2.07817,7.52692,0.0269536,0.0329858,0.188294,0
2024-11-29 17:57:05.781,-0.758824,2.07817,7.52692,0.0269536,0.0329858,0.188294,0
2024-11-29 17:57:05.784,-0.749253,2.0997,7.57478,0.0238994,0.0219905,0.190737,0
2024-11-29 17:57:05.785,-0.737288,2.11645,7.63251,0.0202343,0.0134386,0.19318,0
2024-11-29 17:57:05.789,-0.710967,2.14038,7.68515,0.0171801,0.00366508,0.19318,0
2024-11-29 17:57:05.791,-0.684646,2.1667,7.733,0.0153475,-0.00488678,0.194402,0
2024-11-29 17:57:05.792,-0.646361,2.15713,7.79043,0.0116825,-0.0152712,0.195624,0
2024-11-29 17:57:05.796,-0.605683,2.13799,7.8335,0.00251974,-0.0366508,0.195013,0
2024-11-29 17:57:05.797,-0.565005,2.12602,7.867,0.00251974,-0.0366508,0.195013,0
2024-11-29 17:57:05.800,-0.521934,2.12602,7.91725,-0.00114534,-0.0476461,0.193791,0
2024-11-29 17:57:05.802,-0.486042,2.14517,7.99143,-0.00725381,-0.059863,0.190737,0
2024-11-29 17:57:05.805,-0.442971,2.16909,8.05843,-0.0127514,-0.0787993,0.188905,0
2024-11-29 17:57:05.807,-0.407079,2.18345,8.12782,-0.0127514,-0.0787993,0.188905,0
2024-11-29 17:57:05.810,-0.375972,2.20738,8.17837,-0.0213033,-0.0910162,0.182796,0
2024-11-29 17:57:05.812,-0.344866,2.2337,8.20708,-0.0213033,-0.0910162,0.182796,0
2024-11-29 17:57:05.815,-0.318545,2.24327,8.23101,-0.0286335,-0.102011,0.179742,0
2024-11-29 17:57:05.816,-0.289831,2.25763,8.28844,-0.0286335,-0.102011,0.179742,0
2024-11-29 17:57:05.818,-0.275175,2.27438,8.36022,-0.0310769,-0.103844,0.177298,0
2024-11-29 17:57:05.821,-0.267996,2.29591,8.41047,-0.0365745,-0.110563,0.174244,0
2024-11-29 17:57:05.823,-0.253639,2.31506,8.48465,-0.0408504,-0.113618,0.171801,0
2024-11-29 17:57:05.826,-0.234497,2.34138,8.55643,-0.0439046,-0.116061,0.170579,0
2024-11-29 17:57:05.828,-0.208176,2.37248,8.60429,-0.0512348,-0.11545,0.167525,0
2024-11-29 17:57:05.831,-0.179462,2.38923,8.65933,-0.0548999,-0.116672,0.165081,0
2024-11-29 17:57:05.832,-0.141177,2.39163,8.72902,-0.0628409,-0.117894,0.162638,0
2024-11-29 17:57:05.835,-0.12682,2.40359,8.79362,-0.0671168,-0.117894,0.157751,0
2024-11-29 17:57:05.837,-0.122034,2.42513,8.86062,-0.0713928,-0.11545,0.154697,0
2024-11-29 17:57:05.841,-0.0885344,2.43948,8.9348,-0.0829989,-0.105677,0.144924,0
2024-11-29 17:57:05.843,-0.0526421,2.45145,9.0018,-0.0829989,-0.105677,0.144924,0
2024-11-29 17:57:05.844,-0.0311067,2.47537,9.0688,-0.0891073,-0.103233,0.140037,0
2024-11-29 17:57:05.847,-0.0215354,2.49212,9.1334,-0.0952158,-0.0977356,0.132096,0
2024-11-29 17:57:05.850,-0.0167498,2.50648,9.17408,-0.103157,-0.0928488,0.124155,0
2024-11-29 17:57:05.851,-0.0143569,2.51845,9.22433,-0.106211,-0.0885729,0.118657,0
2024-11-29 17:57:05.855,0.0167498,2.51366,9.28684,-0.11965,-0.0855186,0.103386,0
2024-11-29 17:57:05.857,0.0598206,2.51605,9.32752,-0.125758,-0.0861295,0.0960557,0
2024-11-29 17:57:05.858,0.0885344,2.52592,9.36341,-0.125758,-0.0861295,0.0960557,0
2024-11-29 17:57:05.862,0.112463,2.51845,9.41127,-0.142862,-0.0897945,0.0765086,0
2024-11-29 17:57:05.863,0.138784,2.51366,9.45673,-0.142862,-0.0897945,0.0765086,0
2024-11-29 17:57:05.866,0.160319,2.52832,9.49023,-0.150192,-0.0940705,0.0655134,0
2024-11-29 17:57:05.869,0.165105,2.54267,9.52134,-0.168517,-0.095903,0.0484096,0
2024-11-29 17:57:05.871,0.174676,2.53549,9.55723,-0.178291,-0.0989573,0.0386361,0
2024-11-29 17:57:05.873,0.18664,2.53071,9.60748,-0.178291,-0.0989573,0.0386361,0
2024-11-29 17:57:05.875,0.179462,2.53549,9.6673,-0.188065,-0.100179,0.0300842,0
2024-11-29 17:57:05.878,0.174676,2.54746,9.71516,-0.209444,-0.103233,0.0129805,0
2024-11-29 17:57:05.881,0.162712,2.57139,9.76541,-0.217385,-0.105677,0.0038178,0
2024-11-29 17:57:05.883,0.133998,2.57857,9.84467,-0.227159,-0.111785,-0.00106898,0
2024-11-29 17:57:05.885,0.107677,2.59532,9.92603,-0.227159,-0.111785,-0.00106898,0
2024-11-29 17:57:05.888,0.0885344,2.61207,10.0122,-0.236322,-0.112396,-0.00717746,0
2024-11-29 17:57:05.889,0.0789631,2.62642,10.0983,-0.241819,-0.111785,-0.0138968,0
2024-11-29 17:57:05.892,0.0693919,2.63839,10.1845,-0.249149,-0.111174,-0.0175619,0
2024-11-29 17:57:05.896,0.026321,2.65992,10.3591,-0.254036,-0.104455,-0.0267246,0
2024-11-29 17:57:05.896,0.026321,2.65992,10.3591,-0.254036,-0.104455,-0.0267246,0
2024-11-29 17:57:05.898,-0.00957129,2.66949,10.4432,-0.255258,-0.0983464,-0.029168,0
2024-11-29 17:57:05.902,-0.0382852,2.69821,10.5365,-0.255258,-0.0916271,-0.0303897,0
2024-11-29 17:57:05.903,-0.066999,2.69821,10.6514,-0.250982,-0.0849078,-0.0352764,0
2024-11-29 17:57:05.906,-0.0957129,2.67667,10.759,-0.243652,-0.0769668,-0.0389415,0
2024-11-29 17:57:05.908,-0.119641,2.67189,10.8452,-0.235711,-0.0671932,-0.0389415,0
2024-11-29 17:57:05.911,-0.141177,2.66949,10.9146,-0.227159,-0.0568088,-0.0401632,0
2024-11-29 17:57:05.913,-0.174676,2.66231,10.9866,-0.216774,-0.0445919,-0.0438283,0
2024-11-29 17:57:05.916,-0.217747,2.65753,11.0441,-0.201503,-0.0317641,-0.04505,0
2024-11-29 17:57:05.918,-0.258425,2.63839,11.0895,-0.172793,0.0,-0.0426066,0
2024-11-29 17:57:05.921,-0.299402,2.61924,11.1206,-0.172793,0.0,-0.0426066,0
2024-11-29 17:57:05.922,-0.349651,2.61446,11.1302,-0.155079,0.0207688,-0.0395524,0
2024-11-29 17:57:05.925,-0.414257,2.60728,11.135,-0.136753,0.0427593,-0.0340547,0
2024-11-29 17:57:05.927,-0.454935,2.59532,11.1494,-0.11965,0.0635281,-0.0285571,0
2024-11-29 17:57:05.930,-0.498006,2.58574,11.1374,-0.0829989,0.111785,-0.0114534,0
2024-11-29 17:57:05.932,-0.56022,2.57617,11.1063,-0.0829989,0.111785,-0.0114534,0
2024-11-29 17:57:05.935,-0.60329,2.57139,11.08,-0.0652843,0.133776,-0.00106898,0
2024-11-29 17:57:05.936,-0.63679,2.57139,11.0225,-0.046348,0.156377,0.011148,0
2024-11-29 17:57:05.939,-0.672682,2.57857,10.9531,-0.0322986,0.175313,0.0215324,0
2024-11-29 17:57:05.942,-0.699003,2.60249,10.8882,-0.0176382,0.193028,0.034971,0
2024-11-29 17:57:05.943,-0.715753,2.60728,10.8141,-0.00542127,0.207077,0.047188,0
2024-11-29 17:57:05.946,-0.722932,2.61924,10.7231,0.00618483,0.220516,0.058794,0
2024-11-29 17:57:05.948,-0.732503,2.65753,10.649,0.0171801,0.235176,0.0704001,0
2024-11-29 17:57:05.951,-0.732503,2.68624,10.5915,0.0251211,0.245561,0.0807846,0
2024-11-29 17:57:05.953,-0.727717,2.72213,10.5221,0.033673,0.255945,0.0905581,0
2024-11-29 17:57:05.956,-0.739681,2.76281,10.4671,0.0452791,0.271827,0.107662,0
2024-11-29 17:57:05.958,-0.727717,2.79631,10.4336,0.0526092,0.280379,0.116214,0
2024-11-29 17:57:05.961,-0.701396,2.82742,10.4001,0.0581068,0.290152,0.1211,0
2024-11-29 17:57:05.962,-0.677468,2.83938,10.3783,0.0581068,0.290152,0.1211,0
2024-11-29 17:57:05.964,-0.665504,2.85613,10.3328,0.0636045,0.293207,0.126598,0
2024-11-29 17:57:05.968,-0.646361,2.90399,10.2706,0.0691021,0.296872,0.130263,0
2024-11-29 17:57:05.970,-0.627219,2.9351,10.2275,0.0764323,0.294428,0.131485,0
2024-11-29 17:57:05.972,-0.615255,2.97817,10.1892,0.0764323,0.294428,0.131485,0
2024-11-29 17:57:05.974,-0.615255,3.01406,10.1414,0.0788757,0.290152,0.130263,0
2024-11-29 17:57:05.977,-0.624826,3.03081,10.0935,0.0782648,0.273049,0.123544,0
2024-11-29 17:57:05.980,-0.612862,3.06431,10.0624,0.0782648,0.273049,0.123544,0
2024-11-29 17:57:05.982,-0.60329,3.09571,10.0385,0.0788757,0.262664,0.118046,0
2024-11-29 17:57:05.984,-0.617647,3.13161,10.0002,0.0745997,0.232733,0.107662,0
2024-11-29 17:57:05.987,-0.643968,3.18186,9.98106,0.0745997,0.232733,0.107662,0
2024-11-29 17:57:05.988,-0.667897,3.2345,9.98585,0.073378,0.217462,0.09911,0
2024-11-29 17:57:05.991,-0.694218,3.27757,10.0026,0.0660479,0.176535,0.0844496,0
2024-11-29 17:57:05.994,-0.734896,3.3015,10.0313,0.0660479,0.176535,0.0844496,0
2024-11-29 17:57:05.995,-0.761217,3.32303,10.0505,0.0629936,0.153323,0.0765086,0
2024-11-29 17:57:05.998,-0.782752,3.34935,10.0911,0.057496,0.127667,0.0691785,0
2024-11-29 17:57:06.000,-0.811466,3.36132,10.1294,0.0532201,0.102622,0.0612374,0
2024-11-29 17:57:06.003,-0.828216,3.37089,10.1701,0.049555,0.0745234,0.0557398,0
2024-11-29 17:57:06.005,-0.833001,3.37807,10.2156,0.0428357,0.0482569,0.047188,0
2024-11-29 17:57:06.008,-0.833001,3.3661,10.2658,0.0342838,0.020158,0.0416903,0
2024-11-29 17:57:06.010,-0.845265,3.34935,10.3304,0.0287862,-0.00488678,0.0355819,0
2024-11-29 17:57:06.012,-0.857229,3.34696,10.4097,0.0220669,-0.0342074,0.0288625,0
2024-11-29 17:57:06.014,-0.864407,3.34696,10.5126,0.0171801,-0.059863,0.0227541,0
2024-11-29 17:57:06.017,-0.888335,3.33978,10.6202,0.00984991,-0.0812427,0.0203107,0
2024-11-29 17:57:06.020,-0.914656,3.32064,10.7327,0.00313059,-0.107509,0.0166456,0
2024-11-29 17:57:06.021,-0.933799,3.29432,10.8476,-0.00297788,-0.127667,0.014813,0
2024-11-29 17:57:06.024,-0.96012,3.27996,10.9699,-0.00664296,-0.148436,0.0135914,0
2024-11-29 17:57:06.027,-0.996012,3.27757,11.1063,-0.0170274,-0.189974,0.014813,0
2024-11-29 17:57:06.028,-1.01515,3.25843,11.2403,-0.0170274,-0.189974,0.014813,0
2024-11-29 17:57:06.031,-1.02473,3.21536,11.3647,-0.0170274,-0.207688,0.0160347,0
2024-11-29 17:57:06.033,-1.03669,3.18186,11.4915,-0.0213033,-0.224792,0.0209215,0
2024-11-29 17:57:06.035,-1.05823,3.15075,11.6067,-0.0237467,-0.240674,0.0276408,0
2024-11-29 17:57:06.038,-1.07258,3.12204,11.7359,-0.0255792,-0.255334,0.0343602,0
2024-11-29 17:57:06.040,-1.0654,3.08106,11.889,-0.0268009,-0.269384,0.0410795,0
2024-11-29 17:57:06.043,-1.06062,3.05234,12.047,-0.0243575,-0.28832,0.0612374,0
2024-11-29 17:57:06.045,-1.0654,3.04517,12.1932,-0.0243575,-0.28832,0.0612374,0
2024-11-29 17:57:06.047,-1.07019,3.04517,12.3416,-0.0231358,-0.298704,0.0722327,0
2024-11-29 17:57:06.050,-1.07498,3.04756,12.4899,-0.0200816,-0.3097,0.0838388,0
2024-11-29 17:57:06.052,-1.05583,3.03799,12.6434,-0.0176382,-0.320695,0.0966666,0
2024-11-29 17:57:06.055,-1.01994,3.03799,12.8013,-0.00786466,-0.346961,0.118046,0
2024-11-29 17:57:06.056,-0.981655,3.04756,12.9616,-0.00786466,-0.346961,0.118046,0
2024-11-29 17:57:06.059,-0.936192,3.05713,13.1172,-0.00114534,-0.357346,0.128431,0
2024-11-29 17:57:06.062,-0.864407,3.0667,13.2491,0.00557398,-0.366508,0.137593,0
2024-11-29 17:57:06.063,-0.777966,3.06431,13.3735,0.0147367,-0.376282,0.145534,0
2024-11-29 17:57:06.067,-0.679861,3.03799,13.4668,0.0220669,-0.38239,0.148589,0
2024-11-29 17:57:06.068,-0.579362,3.01645,13.5386,0.029397,-0.38911,0.151643,0
2024-11-29 17:57:06.070,-0.493221,3.01645,13.6271,0.0361163,-0.401327,0.154086,0
2024-11-29 17:57:06.073,-0.409472,3.00927,13.7252,0.0397814,-0.4111,0.155308,0
2024-11-29 17:57:06.075,-0.332901,3.00927,13.8165,0.0446682,-0.424539,0.155919,0
2024-11-29 17:57:06.077,-0.256032,3.01406,13.9074,0.0507767,-0.434923,0.154086,0
2024-11-29 17:57:06.081,-0.160319,3.00449,13.9935,0.0562743,-0.448362,0.154086,0
2024-11-29 17:57:06.083,-0.0717847,2.9997,14.051,0.0629936,-0.464855,0.151032,0
2024-11-29 17:57:06.086,0.00957129,3.00688,14.0964,0.0709346,-0.471574,0.14981,0
2024-11-29 17:57:06.088,0.0981057,3.01167,14.1275,0.0745997,-0.477683,0.147367,0
2024-11-29 17:57:06.090,0.191426,3.01406,14.1634,0.0745997,-0.477683,0.147367,0
2024-11-29 17:57:06.093,0.285045,3.00449,14.1969,0.077654,-0.486845,0.140648,0
2024-11-29 17:57:06.094,0.373579,2.98535,14.2161,0.077654,-0.486845,0.140648,0
2024-11-29 17:57:06.097,0.464507,2.97338,14.2376,0.0794865,-0.496619,0.133928,0
2024-11-29 17:57:06.099,0.555434,2.95902,14.2472,0.0764323,-0.50456,0.131485,0
2024-11-29 17:57:06.102,0.643968,2.95424,14.2376,0.0709346,-0.517998,0.116825,0
2024-11-29 17:57:06.104,0.720539,2.95424,14.2161,0.0709346,-0.517998,0.116825,3
2024-11-29 17:57:06.107,0.794716,2.93749,14.2352,0.0629936,-0.52655,0.100332,0
2024-11-29 17:57:06.109,0.873978,2.92552,14.228,0.0556635,-0.527161,0.0899473,0
2024-11-29 17:57:06.111,0.931406,2.92552,14.185,0.0556635,-0.527161,0.0899473,0
2024-11-29 17:57:06.114,0.988834,2.91117,14.161,0.0434465,-0.528383,0.0716218,0
2024-11-29 17:57:06.116,1.06062,2.92074,14.1491,0.037338,-0.524107,0.0606266,0
2024-11-29 17:57:06.118,1.13001,2.93749,14.1347,0.037338,-0.524107,0.0606266,0
2024-11-29 17:57:06.120,1.17308,2.9351,14.1156,0.0257319,-0.518609,0.0490205,0
2024-11-29 17:57:06.123,1.21376,2.9327,14.0892,0.00740652,-0.505171,0.0203107,0
2024-11-29 17:57:06.126,1.2664,2.92313,14.0581,-0.00542127,-0.496619,0.00626118,0
2024-11-29 17:57:06.128,1.30947,2.92313,14.0079,-0.0151948,-0.485013,-0.0102317,0
2024-11-29 17:57:06.130,1.34536,2.92313,13.9576,-0.0151948,-0.485013,-0.0102317,0
2024-11-29 17:57:06.133,1.38126,2.91595,13.9002,-0.0249684,-0.47585,-0.0255029,0
2024-11-29 17:57:06.134,1.41266,2.90399,13.826,-0.0402396,-0.464244,-0.0432174,0
2024-11-29 17:57:06.137,1.45095,2.89203,13.7324,-0.0494023,-0.44714,-0.0621537,0
2024-11-29 17:57:06.140,1.47488,2.88006,13.6463,-0.0603975,-0.43248,-0.08109,0
2024-11-29 17:57:06.141,1.48684,2.85135,13.5577,-0.0732253,-0.41782,-0.10247,0
2024-11-29 17:57:06.146,1.51316,2.74846,13.352,-0.100713,-0.379947,-0.146451,0
2024-11-29 17:57:06.147,1.51316,2.74846,13.352,-0.117206,-0.364065,-0.170274,0
2024-11-29 17:57:06.149,1.50838,2.68864,13.2538,-0.117206,-0.364065,-0.170274,0
2024-11-29 17:57:06.150,1.49402,2.62164,13.153,-0.132477,-0.343907,-0.192875,0
2024-11-29 17:57:06.153,1.46291,2.57378,13.0549,-0.144694,-0.327414,-0.21792,0
2024-11-29 17:57:06.156,1.41266,2.52592,12.9712,-0.169128,-0.284044,-0.260679,0
2024-11-29 17:57:06.159,1.34058,2.48495,12.897,-0.177069,-0.258388,-0.282059,0
2024-11-29 17:57:06.161,1.25444,2.43709,12.8133,-0.177069,-0.258388,-0.282059,0
2024-11-29 17:57:06.163,1.17069,2.37966,12.7343,-0.196616,-0.203412,-0.322986,0
2024-11-29 17:57:06.166,1.07737,2.31984,12.6697,-0.196616,-0.203412,-0.322986,0
2024-11-29 17:57:06.168,0.969691,2.25524,12.6024,-0.200282,-0.145382,-0.353528,0
2024-11-29 17:57:06.170,0.862014,2.20259,12.5306,-0.201503,-0.113618,-0.366966,0
2024-11-29 17:57:06.173,0.780359,2.14038,12.466,-0.201503,-0.0824644,-0.375518,0
2024-11-29 17:57:06.175,0.710967,2.05185,12.3942,-0.197227,-0.0531437,-0.388957,0
2024-11-29 17:57:06.177,0.643968,1.9681,12.3129,-0.197227,-0.0531437,-0.388957,0
2024-11-29 17:57:06.180,0.591326,1.89841,12.2076,-0.19173,-0.020158,-0.399952,0
2024-11-29 17:57:06.181,0.541077,1.83619,12.1262,-0.186232,0.0122169,-0.407893,0
2024-11-29 17:57:06.186,0.409472,1.74287,11.9704,-0.166074,0.0763559,-0.422554,0
2024-11-29 17:57:06.187,0.409472,1.74287,11.9704,-0.166074,0.0763559,-0.422554,0
2024-11-29 17:57:06.188,0.330509,1.67348,11.8795,-0.151414,0.108731,-0.428051,0
2024-11-29 17:57:06.192,0.256032,1.61605,11.7766,-0.134921,0.144771,-0.430495,0
2024-11-29 17:57:06.193,0.172283,1.55862,11.6569,-0.115985,0.1802,-0.430495,0
2024-11-29 17:57:06.196,0.0933201,1.4988,11.511,-0.0976592,0.212575,-0.431105,0
2024-11-29 17:57:06.199,0.0167498,1.44138,11.3767,-0.0781121,0.248004,-0.429884,0
2024-11-29 17:57:06.200,-0.0646062,1.38365,11.2331,-0.0548999,0.279768,-0.424997,0
2024-11-29 17:57:06.202,-0.143569,1.33101,11.08,-0.0316877,0.307256,-0.422554,0
2024-11-29 17:57:06.206,-0.234497,1.28794,10.9289,-0.0121406,0.332912,-0.415834,0
2024-11-29 17:57:06.209,-0.325723,1.24965,10.6298,0.0348946,0.379947,-0.394455,0
2024-11-29 17:57:06.210,-0.431007,1.22572,10.6298,0.0348946,0.379947,-0.394455,0
2024-11-29 17:57:06.213,-0.538684,1.21615,10.4575,0.0593285,0.398883,-0.382849,0
2024-11-29 17:57:06.214,-0.629611,1.21854,10.3017,0.0593285,0.398883,-0.382849,0
2024-11-29 17:57:06.217,-0.710967,1.22572,10.1605,0.112472,0.433702,-0.352306,0
2024-11-29 17:57:06.220,-0.792323,1.20658,10.0074,0.164394,0.456914,-0.316266,0
2024-11-29 17:57:06.222,-0.876371,1.19462,9.84467,0.189439,0.461801,-0.297941,0
2024-11-29 17:57:06.223,-0.948156,1.21376,9.68645,0.189439,0.461801,-0.297941,0
2024-11-29 17:57:06.227,-1.0008,1.21854,9.53809,0.242583,0.463633,-0.255181,0
2024-11-29 17:57:06.228,-1.05105,1.21137,9.39213,0.242583,0.463633,-0.255181,0
2024-11-29 17:57:06.231,-1.09412,1.20658,9.2339,0.26213,0.456914,-0.235634,0
2024-11-29 17:57:06.233,-1.10608,1.20419,9.06162,0.285953,0.44714,-0.214866,0
2024-11-29 17:57:06.236,-1.10848,1.21376,8.91087,0.308554,0.43248,-0.193486,0
2024-11-29 17:57:06.239,-1.11087,1.21854,8.75773,0.328101,0.414154,-0.173939,0
2024-11-29 17:57:06.240,-1.10369,1.20897,8.61625,0.343983,0.392164,-0.154392,0
2024-11-29 17:57:06.242,-1.0989,1.21376,8.49183,0.359865,0.369563,-0.136066,0
2024-11-29 17:57:06.245,-1.08933,1.22572,8.36979,0.373915,0.339631,-0.117741,0
2024-11-29 17:57:06.247,-1.07258,1.24965,8.24537,0.383078,0.307256,-0.0994154,0
2024-11-29 17:57:06.250,-1.04865,1.27597,8.11586,0.396516,0.27366,-0.0841442,0
2024-11-29 17:57:06.252,-1.01276,1.30469,7.99382,0.405068,0.23762,-0.0676513,0
2024-11-29 17:57:06.254,-0.952942,1.32383,7.88854,0.409344,0.200969,-0.0554344,0
2024-11-29 17:57:06.257,-0.881157,1.34058,7.79043,0.413009,0.15882,-0.0413849,0
2024-11-29 17:57:06.260,-0.804287,1.35733,7.68276,0.413009,0.0671932,-0.0236703,0
2024-11-29 17:57:06.262,-0.710967,1.35733,7.59183,0.410566,0.0195471,-0.0163402,0
2024-11-29 17:57:06.265,-0.612862,1.35733,7.53171,0.402625,-0.0268773,-0.0114534,0
2024-11-29 17:57:06.266,-0.517149,1.35733,7.45753,0.402625,-0.0268773,-0.0114534,0
2024-11-29 17:57:06.269,-0.390329,1.35733,7.37378,0.386743,-0.120337,-0.00534491,0
2024-11-29 17:57:06.272,-0.272782,1.34058,7.31875,0.373915,-0.162485,-0.00656661,0
2024-11-29 17:57:06.274,-0.155533,1.33101,7.29243,0.359255,-0.202801,-0.00839915,0
2024-11-29 17:57:06.276,-0.0215354,1.34776,7.28764,0.359255,-0.202801,-0.00839915,0
2024-11-29 17:57:06.278,0.0957129,1.35254,7.29003,0.346427,-0.241285,-0.0108425,0
2024-11-29 17:57:06.280,0.196211,1.34297,7.28286,0.329934,-0.27366,-0.0157293,0
2024-11-29 17:57:06.283,0.289831,1.32861,7.28764,0.317717,-0.304202,-0.0218378,0
2024-11-29 17:57:06.285,0.375972,1.34058,7.302,0.304278,-0.326803,-0.0303897,0
2024-11-29 17:57:06.288,0.435793,1.36451,7.32114,0.271293,-0.370173,-0.0456608,0
2024-11-29 17:57:06.290,0.476471,1.3669,7.34985,0.271293,-0.370173,-0.0456608,0
2024-11-29 17:57:06.293,0.52672,1.36929,7.37139,0.257854,-0.387888,-0.0578778,0
2024-11-29 17:57:06.294,0.576969,1.37408,7.4001,0.243804,-0.404381,-0.0682622,0
2024-11-29 17:57:06.297,0.608076,1.38365,7.42403,0.229755,-0.420263,-0.0804791,0
2024-11-29 17:57:06.299,0.643968,1.37408,7.436,0.213873,-0.434923,-0.0920852,0
2024-11-29 17:57:06.302,0.667897,1.36211,7.45035,0.194937,-0.445308,-0.104302,0
2024-11-29 17:57:06.304,0.679861,1.36451,7.46232,0.178444,-0.450805,-0.114076,0
2024-11-29 17:57:06.307,0.679861,1.35972,7.49342,0.163783,-0.457525,-0.12446,0
2024-11-29 17:57:06.308,0.648754,1.35733,7.53171,0.147291,-0.460579,-0.133623,0
2024-11-29 17:57:06.311,0.598505,1.36451,7.56042,0.130798,-0.46119,-0.13912,0
2024-11-29 17:57:06.314,0.557827,1.3669,7.57986,0.114916,-0.458746,-0.140953,0
2024-11-29 17:57:06.316,0.519542,1.35254,7.61576,0.0990336,-0.450194,-0.142786,0
2024-11-29 17:57:06.318,0.486042,1.35254,7.6684,0.0837624,-0.443475,-0.140953,0
2024-11-29 17:57:06.320,0.471685,1.35254,7.72822,0.0709346,-0.431258,-0.13912,0
