timestamp,accel_x,accel_y,accel_z,gyro_x,gyro_y,gyro_z,step_timestamp
2024-11-29 17:55:33.721,0.160319,2.30548,9.51655,-0.0445155,0.00610847,-0.0908635,0
2024-11-29 17:55:33.721,0.160319,2.30548,9.51655,-0.0445155,0.00610847,-0.0908635,0
2024-11-29 17:55:33.721,0.160319,2.30548,9.51655,-0.0445155,0.00610847,-0.0908635,0
2024-11-29 17:55:33.721,0.160319,2.30548,9.51655,-0.0445155,0.00610847,-0.0908635,0
2024-11-29 17:55:33.721,0.160319,2.30548,9.51655,-0.0445155,0.00610847,-0.0908635,0
2024-11-29 17:55:33.721,0.160319,2.30548,9.51655,-0.0445155,0.00610847,-0.0908635,0
2024-11-29 17:55:33.721,0.160319,2.30548,9.51655,-0.0445155,0.00610847,-0.0908635,0
2024-11-29 17:55:33.721,0.160319,2.30548,9.51655,-0.0445155,0.00610847,-0.0908635,0
2024-11-29 17:55:33.721,0.160319,2.30548,9.51655,-0.0445155,0.00610847,-0.0908635,0
2024-11-29 17:55:33.721,0.160319,2.30548,9.51655,-0.0445155,0.00610847,-0.0908635,0
2024-11-29 17:55:33.721,0.160319,2.30548,9.51655,-0.0445155,0.00610847,-0.0908635,0
2024-11-29 17:55:33.721,0.160319,2.30548,9.51655,-0.0445155,0.00610847,-0.0908635,0
2024-11-29 17:55:33.721,0.160319,2.30548,9.51655,-0.0445155,0.00610847,-0.0908635,0
2024-11-29 17:55:33.721,0.160319,2.30548,9.51655,-0.0445155,0.00610847,-0.0908635,0
2024-11-29 17:55:33.721,0.160319,2.30548,9.51655,-0.0445155,0.00610847,-0.0908635,0
2024-11-29 17:55:33.721,0.160319,2.30548,9.51655,-0.0445155,0.00610847,-0.0908635,0
2024-11-29 17:55:33.721,0.160319,2.30548,9.51655,-0.0445155,0.00610847,-0.0908635,0
2024-11-29 17:55:33.721,0.160319,2.30548,9.51655,-0.0445155,0.00610847,-0.0908635,0
2024-11-29 17:55:33.721,0.160319,2.30548,9.51655,-0.0445155,0.00610847,-0.0908635,0
2024-11-29 17:55:33.721,0.160319,2.30548,9.51655,-0.0445155,0.00610847,-0.0908635,0
2024-11-29 17:55:33.721,0.160319,2.30548,9.51655,-0.0445155,0.00610847,-0.0908635,0
2024-11-29 17:55:33.721,0.160319,2.30548,9.51655,-0.0445155,0.00610847,-0.0908635,0
2024-11-29 17:55:33.721,0.160319,2.30548,9.51655,-0.0445155,0.00610847,-0.0908635,0
2024-11-29 17:55:33.721,0.160319,2.30548,9.51655,-0.0445155,0.00610847,-0.0908635,0
2024-11-29 17:55:33.721,0.160319,2.30548,9.51655,-0.0445155,0.00610847,-0.0908635,0
2024-11-29 17:55:33.721,0.160319,2.30548,9.51655,-0.0445155,0.00610847,-0.0908635,0
2024-11-29 17:55:33.721,0.160319,2.30548,9.51655,-0.0445155,0.00610847,-0.0908635,0
2024-11-29 17:55:33.721,0.160319,2.30548,9.51655,-0.0445155,0.00610847,-0.0908635,0
2024-11-29 17:55:33.721,0.160319,2.30548,9.51655,-0.0445155,0.00610847,-0.0908635,0
2024-11-29 17:55:33.721,0.160319,2.30548,9.51655,-0.0445155,0.00610847,-0.0908635,0
2024-11-29 17:55:33.722,0.160319,2.30548,9.51655,-0.0445155,0.00610847,-0.0908635,0
2024-11-29 17:55:33.722,0.160319,2.30548,9.51655,-0.0445155,0.00610847,-0.0908635,0
2024-11-29 17:55:33.722,0.160319,2.30548,9.51655,-0.0445155,0.00610847,-0.0908635,0
2024-11-29 17:55:33.722,0.160319,2.30548,9.51655,-0.0445155,0.00610847,-0.0908635,0
2024-11-29 17:55:33.722,0.160319,2.30548,9.51655,-0.0445155,0.00610847,-0.0908635,0
2024-11-29 17:55:33.722,0.160319,2.30548,9.51655,-0.0445155,0.00610847,-0.0908635,0
2024-11-29 17:55:33.722,0.160319,2.30548,9.51655,-0.0445155,0.00610847,-0.0908635,0
2024-11-29 17:55:33.722,0.160319,2.30548,9.51655,-0.0445155,0.00610847,-0.0908635,0
2024-11-29 17:55:33.722,0.160319,2.30548,9.51655,-0.0445155,0.00610847,-0.0908635,0
2024-11-29 17:55:33.722,0.160319,2.30548,9.51655,-0.0445155,0.00610847,-0.0908635,0
2024-11-29 17:55:33.722,0.160319,2.30548,9.51655,-0.0445155,0.00610847,-0.0908635,0
2024-11-29 17:55:33.722,0.160319,2.30548,9.51655,-0.0445155,0.00610847,-0.0908635,0
2024-11-29 17:55:33.722,0.160319,2.30548,9.51655,-0.0445155,0.00610847,-0.0908635,0
2024-11-29 17:55:33.722,0.160319,2.30548,9.51655,-0.0445155,0.00610847,-0.0908635,0
2024-11-29 17:55:33.722,0.160319,2.30548,9.51655,-0.0445155,0.00610847,-0.0908635,0
2024-11-29 17:55:33.722,0.160319,2.30548,9.51655,-0.0445155,0.00610847,-0.0908635,0
2024-11-29 17:55:33.722,0.160319,2.30548,9.51655,-0.0445155,0.00610847,-0.0908635,0
2024-11-29 17:55:33.722,0.160319,2.30548,9.51655,-0.0445155,0.00610847,-0.0908635,0
2024-11-29 17:55:33.722,0.160319,2.30548,9.51655,-0.0445155,0.00610847,-0.0908635,0
2024-11-29 17:55:33.722,0.160319,2.30548,9.51655,-0.0445155,0.00610847,-0.0908635,0
2024-11-29 17:55:33.722,0.160319,2.30548,9.51655,-0.0445155,0.00610847,-0.0908635,0
2024-11-29 17:55:33.722,0.160319,2.30548,9.51655,-0.0445155,0.00610847,-0.0908635,0
2024-11-29 17:55:33.722,0.160319,2.30548,9.51655,-0.0445155,0.00610847,-0.0908635,0
2024-11-29 17:55:33.722,0.160319,2.30548,9.51655,-0.0445155,0.00610847,-0.0908635,0
2024-11-29 17:55:33.722,0.160319,2.30548,9.51655,-0.0445155,0.00610847,-0.0908635,0
2024-11-29 17:55:33.722,0.160319,2.30548,9.51655,-0.0445155,0.00610847,-0.0908635,0
2024-11-29 17:55:33.722,0.160319,2.30548,9.51655,-0.0445155,0.00610847,-0.0908635,0
2024-11-29 17:55:33.722,0.160319,2.30548,9.51655,-0.0445155,0.00610847,-0.0908635,0
2024-11-29 17:55:33.722,0.160319,2.30548,9.51655,-0.0445155,0.00610847,-0.0908635,0
2024-11-29 17:55:33.735,0.0981057,2.30548,9.57877,-0.0567324,-0.0128278,-0.100026,0
2024-11-29 17:55:33.740,0.0933201,2.31266,9.66491,-0.0610084,-0.0445919,-0.104302,0
2024-11-29 17:55:33.740,0.0933201,2.31266,9.66491,-0.0610084,-0.0445919,-0.104302,0
2024-11-29 17:55:33.740,0.0933201,2.31266,9.66491,-0.0610084,-0.0445919,-0.104302,0
2024-11-29 17:55:33.741,0.0933201,2.31266,9.66491,-0.058565,-0.0500895,-0.1098,0
2024-11-29 17:55:33.741,0.0933201,2.31266,9.66491,-0.058565,-0.0500895,-0.1098,0
2024-11-29 17:55:33.741,0.0933201,2.31266,9.66491,-0.058565,-0.0500895,-0.1098,0
2024-11-29 17:55:33.741,0.0933201,2.31266,9.66491,-0.058565,-0.0500895,-0.1098,0
2024-11-29 17:55:33.741,0.0933201,2.31266,9.66491,-0.058565,-0.0500895,-0.1098,0
2024-11-29 17:55:33.741,0.0933201,2.31266,9.66491,-0.058565,-0.0500895,-0.1098,0
2024-11-29 17:55:33.742,0.0885344,2.30548,9.69123,-0.058565,-0.0500895,-0.1098,0
2024-11-29 17:55:33.742,0.0885344,2.30548,9.69123,-0.058565,-0.0500895,-0.1098,0
2024-11-29 17:55:33.742,0.0885344,2.30548,9.69123,-0.058565,-0.0500895,-0.1098,0
2024-11-29 17:55:33.742,0.0885344,2.30548,9.69123,-0.058565,-0.0500895,-0.1098,0
2024-11-29 17:55:33.743,0.0885344,2.30548,9.69123,-0.058565,-0.0500895,-0.1098,0
2024-11-29 17:55:33.743,0.0885344,2.30548,9.69123,-0.058565,-0.0500895,-0.1098,0
2024-11-29 17:55:33.746,0.081356,2.3007,9.71516,-0.058565,-0.0500895,-0.1098,0
2024-11-29 17:55:33.749,0.0646062,2.29591,9.78694,-0.0487914,-0.0684149,-0.1098,0
2024-11-29 17:55:33.749,0.0646062,2.29591,9.78694,-0.0487914,-0.0684149,-0.1098,0
2024-11-29 17:55:33.750,0.0646062,2.29591,9.78694,-0.0487914,-0.0684149,-0.1098,0
2024-11-29 17:55:33.753,0.0598206,2.29113,9.77259,-0.038407,-0.0769668,-0.1098,0
2024-11-29 17:55:33.753,0.0646062,2.29113,9.77259,-0.038407,-0.0769668,-0.1098,0
2024-11-29 17:55:33.753,0.0598206,2.29113,9.77259,-0.038407,-0.0769668,-0.1098,0
2024-11-29 17:55:33.753,0.0598206,2.29113,9.77259,-0.038407,-0.0769668,-0.1098,0
2024-11-29 17:55:33.754,0.0598206,2.29591,9.79412,-0.038407,-0.0769668,-0.1098,0
2024-11-29 17:55:33.754,0.0598206,2.29591,9.79412,-0.038407,-0.0769668,-0.1098,0
2024-11-29 17:55:33.755,0.0598206,2.29591,9.79412,-0.0347419,-0.0812427,-0.108578,0
2024-11-29 17:55:33.755,0.0598206,2.29591,9.79412,-0.0347419,-0.0812427,-0.108578,0
2024-11-29 17:55:33.755,0.0598206,2.29591,9.79412,-0.0347419,-0.0812427,-0.108578,0
2024-11-29 17:55:33.758,0.0550349,2.29352,9.81805,-0.0292443,-0.0830752,-0.1098,0
2024-11-29 17:55:33.758,0.0550349,2.29352,9.81805,-0.0292443,-0.0830752,-0.1098,0
2024-11-29 17:55:33.758,0.0550349,2.29352,9.81805,-0.0292443,-0.0830752,-0.1098,0
2024-11-29 17:55:33.758,0.0550349,2.29352,9.81805,-0.0292443,-0.0830752,-0.1098,0
2024-11-29 17:55:33.758,0.0550349,2.29352,9.81805,-0.0292443,-0.0830752,-0.1098,0
2024-11-29 17:55:33.759,0.0382852,2.3007,9.80609,-0.0292443,-0.0830752,-0.1098,0
2024-11-29 17:55:33.760,0.0382852,2.3007,9.80609,-0.022525,-0.0849078,-0.107967,0
2024-11-29 17:55:33.760,0.0382852,2.3007,9.80609,-0.022525,-0.0849078,-0.107967,0
2024-11-29 17:55:33.760,0.0382852,2.3007,9.80609,-0.022525,-0.0849078,-0.107967,0
2024-11-29 17:55:33.761,0.026321,2.29591,9.79412,-0.022525,-0.0849078,-0.107967,0
2024-11-29 17:55:33.762,0.0382852,2.29591,9.79412,-0.0182491,-0.0861295,-0.107356,0
2024-11-29 17:55:33.762,0.026321,2.29591,9.79412,-0.0182491,-0.0861295,-0.107356,0
2024-11-29 17:55:33.762,0.026321,2.29591,9.79412,-0.0182491,-0.0861295,-0.107356,0
2024-11-29 17:55:33.764,0.0167498,2.27199,9.79412,-0.0182491,-0.0861295,-0.107356,0
2024-11-29 17:55:33.765,0.0167498,2.27199,9.79412,-0.0182491,-0.0861295,-0.107356,0
2024-11-29 17:55:33.765,0.0167498,2.27199,9.79412,-0.0182491,-0.0861295,-0.107356,0
2024-11-29 17:55:33.765,0.0167498,2.27199,9.79412,-0.0182491,-0.0861295,-0.107356,0
2024-11-29 17:55:33.765,0.0167498,2.27199,9.79412,-0.0182491,-0.0861295,-0.107356,0
2024-11-29 17:55:33.767,0.0,2.27438,9.77977,-0.010308,-0.0885729,-0.10308,0
2024-11-29 17:55:33.769,-0.00478565,2.28395,9.77737,-0.00603212,-0.087962,-0.100026,0
2024-11-29 17:55:33.771,-0.0167498,2.28634,9.77977,-0.00603212,-0.087962,-0.100026,0
2024-11-29 17:55:33.774,-0.0191426,2.29352,9.75584,-0.00419957,-0.0873512,-0.0981937,0
2024-11-29 17:55:33.775,-0.0167498,2.29831,9.72952,7.63559e-05,-0.0873512,-0.096972,0
2024-11-29 17:55:33.778,-0.0215354,2.29352,9.70798,0.00129805,-0.0885729,-0.0963612,0
2024-11-29 17:55:33.781,-0.0239282,2.28634,9.68645,0.00129805,-0.087962,-0.0920852,0
2024-11-29 17:55:33.786,-0.00957129,2.28395,9.64098,-0.000534491,-0.0873512,-0.089031,0
2024-11-29 17:55:33.786,0.00957129,2.28395,9.64098,-0.000534491,-0.0873512,-0.089031,0
2024-11-29 17:55:33.788,0.0191426,2.29591,9.61705,7.63559e-05,-0.0891837,-0.0859767,0
2024-11-29 17:55:33.790,0.026321,2.30548,9.6027,-0.00236703,-0.0885729,-0.0859767,0
2024-11-29 17:55:33.792,0.0454636,2.31266,9.59552,-0.00664296,-0.0891837,-0.0853659,0
2024-11-29 17:55:33.795,0.0574277,2.31027,9.59313,-0.010308,-0.0897945,-0.0841442,0
2024-11-29 17:55:33.798,0.066999,2.30788,9.58834,-0.0194708,-0.0891837,-0.0835334,0
2024-11-29 17:55:33.799,0.0837488,2.31266,9.57877,-0.0194708,-0.0891837,-0.0835334,0
2024-11-29 17:55:33.804,0.131605,2.32463,9.60509,-0.0310769,-0.0891837,-0.089031,0
2024-11-29 17:55:33.805,0.131605,2.32463,9.60509,-0.0310769,-0.0891837,-0.089031,0
2024-11-29 17:55:33.808,0.155533,2.34616,9.64577,-0.0396287,-0.0885729,-0.0933069,0
2024-11-29 17:55:33.812,0.153141,2.35334,9.66252,-0.0439046,-0.0897945,-0.0945286,0
2024-11-29 17:55:33.812,0.153141,2.35334,9.66252,-0.0439046,-0.0897945,-0.0945286,0
2024-11-29 17:55:33.813,0.150748,2.34856,9.68166,-0.0475697,-0.0873512,-0.0963612,0
2024-11-29 17:55:33.816,0.172283,2.34377,9.7008,-0.0536782,-0.0873512,-0.0994154,0
2024-11-29 17:55:33.819,0.18664,2.33659,9.72952,-0.0567324,-0.0842969,-0.104302,0
2024-11-29 17:55:33.821,0.179462,2.33659,9.75823,-0.0567324,-0.0842969,-0.104302,0
2024-11-29 17:55:33.823,0.167498,2.33898,9.78216,-0.0597867,-0.0818535,-0.104913,0
2024-11-29 17:55:33.826,0.162712,2.34377,9.79412,-0.0597867,-0.0769668,-0.107967,0
2024-11-29 17:55:33.827,0.160319,2.35813,9.80369,-0.0597867,-0.0714691,-0.109189,0
2024-11-29 17:55:33.831,0.162712,2.35095,9.81326,-0.0591758,-0.0671932,-0.108578,0
2024-11-29 17:55:33.832,0.155533,2.34616,9.81326,-0.0591758,-0.0629173,-0.109189,0
2024-11-29 17:55:33.835,0.143569,2.35095,9.83031,-0.058565,-0.0555871,-0.108578,0
2024-11-29 17:55:33.837,0.138784,2.33659,9.82314,-0.0555107,-0.0500895,-0.108578,0
2024-11-29 17:55:33.840,0.138784,2.32702,9.81566,-0.0567324,-0.0488678,-0.108578,0
2024-11-29 17:55:33.841,0.138784,2.33659,9.81805,-0.0555107,-0.0452027,-0.104913,0
2024-11-29 17:55:33.845,0.138784,2.33181,9.8013,-0.0530674,-0.0415376,-0.101248,0
2024-11-29 17:55:33.847,0.148355,2.32463,9.78216,-0.0518457,-0.0427593,-0.096972,0
2024-11-29 17:55:33.849,0.162712,2.31745,9.77498,-0.0518457,-0.0427593,-0.096972,0
2024-11-29 17:55:33.851,0.177069,2.31027,9.77259,-0.0518457,-0.0409268,-0.0957503,0
2024-11-29 17:55:33.854,0.18664,2.31745,9.76541,-0.050624,-0.0427593,-0.0939178,0
2024-11-29 17:55:33.856,0.200997,2.31266,9.76062,-0.050624,-0.0427593,-0.0939178,0
2024-11-29 17:55:33.859,0.208176,2.3007,9.75823,-0.050624,-0.0513112,-0.0933069,0
2024-11-29 17:55:33.861,0.229711,2.31027,9.74148,-0.0512348,-0.0586413,-0.0920852,0
2024-11-29 17:55:33.864,0.248854,2.32223,9.73191,-0.0536782,-0.064139,-0.0926961,0
2024-11-29 17:55:33.866,0.260818,2.32463,9.72712,-0.0536782,-0.064139,-0.0926961,0
2024-11-29 17:55:33.867,0.294616,2.32223,9.71994,-0.0518457,-0.0696366,-0.0945286,0
2024-11-29 17:55:33.871,0.320937,2.32463,9.71516,-0.0567324,-0.0787993,-0.0975828,0
2024-11-29 17:55:33.873,0.347258,2.31984,9.71516,-0.0591758,-0.0946813,-0.100637,0
2024-11-29 17:55:33.874,0.368794,2.32223,9.72234,-0.0591758,-0.0946813,-0.100637,0
2024-11-29 17:55:33.878,0.392722,2.32223,9.74148,-0.0622301,-0.103233,-0.103691,0
2024-11-29 17:55:33.879,0.442971,2.32223,9.74627,-0.0640626,-0.111174,-0.110411,0
2024-11-29 17:55:33.881,0.481256,2.32463,9.77019,-0.0683385,-0.121559,-0.112854,0
2024-11-29 17:55:33.884,0.500399,2.31266,9.80609,-0.0701711,-0.130721,-0.117741,0
2024-11-29 17:55:33.886,0.529113,2.31506,9.81805,-0.0707819,-0.139273,-0.121406,0
2024-11-29 17:55:33.889,0.545863,2.31506,9.84946,-0.074447,-0.146603,-0.127514,0
2024-11-29 17:55:33.892,0.550648,2.31027,9.9021,-0.0768904,-0.163096,-0.13912,0
2024-11-29 17:55:33.894,0.56022,2.30788,9.94038,-0.0768904,-0.163096,-0.13912,0
2024-11-29 17:55:33.896,0.565005,2.30548,9.98345,-0.0756687,-0.167372,-0.143396,0
2024-11-29 17:55:33.899,0.565005,2.31266,10.0457,-0.0738362,-0.17287,-0.148283,0
2024-11-29 17:55:33.900,0.565005,2.31027,10.0935,-0.0738362,-0.175313,-0.152559,0
2024-11-29 17:55:33.904,0.562612,2.30309,10.127,-0.0701711,-0.175924,-0.157446,0
2024-11-29 17:55:33.905,0.567398,2.28873,10.1605,-0.0671168,-0.175313,-0.161111,0
2024-11-29 17:55:33.907,0.581755,2.26002,10.1868,-0.0610084,-0.173481,-0.165387,0
2024-11-29 17:55:33.911,0.579362,2.24088,10.2036,-0.0512348,-0.164929,-0.170885,0
2024-11-29 17:55:33.913,0.569791,2.21695,10.2132,-0.0512348,-0.164929,-0.170885,0
2024-11-29 17:55:33.914,0.574577,2.18584,10.2227,-0.0451263,-0.160653,-0.172717,0
2024-11-29 17:55:33.917,0.555434,2.17627,10.218,-0.0414613,-0.15149,-0.173328,0
2024-11-29 17:55:33.919,0.519542,2.16431,10.1845,-0.0359636,-0.141717,-0.17455,0
2024-11-29 17:55:33.921,0.493221,2.14995,10.1605,-0.030466,-0.133165,-0.172717,0
2024-11-29 17:55:33.924,0.476471,2.14277,10.1366,-0.0243575,-0.121559,-0.171495,0
2024-11-29 17:55:33.927,0.454935,2.14277,10.1007,-0.0182491,-0.109342,-0.169052,0
2024-11-29 17:55:33.928,0.440578,2.13081,10.0648,-0.0115297,-0.0928488,-0.165998,0
2024-11-29 17:55:33.932,0.428614,2.13559,10.0026,-0.00664296,-0.0806318,-0.162944,0
2024-11-29 17:55:33.933,0.407079,2.15234,9.94038,-0.00297788,-0.0647498,-0.158668,0
2024-11-29 17:55:33.936,0.385544,2.14756,9.88296,0.00129805,-0.0488678,-0.156835,0
2024-11-29 17:55:33.939,0.378365,2.14277,9.81087,0.000687203,-0.0335966,-0.151337,0
2024-11-29 17:55:33.940,0.375972,2.14756,9.7343,0.00374144,-0.0226013,-0.147061,0
2024-11-29 17:55:33.944,0.364008,2.14995,9.65534,0.00129805,0.00427593,-0.13851,0
2024-11-29 17:55:33.946,0.361615,2.1667,9.58355,-0.00175619,0.0152712,-0.134845,0
2024-11-29 17:55:33.948,0.361615,2.20499,9.51655,-0.00175619,0.0152712,-0.134845,0
2024-11-29 17:55:33.950,0.35683,2.21934,9.44477,-0.00542127,0.0256556,-0.13179,0
2024-11-29 17:55:33.953,0.361615,2.23131,9.37538,-0.0158057,0.0427593,-0.125682,0
2024-11-29 17:55:33.954,0.371187,2.25045,9.32752,-0.0158057,0.0427593,-0.125682,0
2024-11-29 17:55:33.957,0.390329,2.27438,9.28206,-0.0206925,0.0500895,-0.122628,0
2024-11-29 17:55:33.959,0.404686,2.29831,9.2339,-0.0274118,0.0568088,-0.122017,0
2024-11-29 17:55:33.962,0.414257,2.3342,9.18605,-0.0347419,0.0623064,-0.120795,0
2024-11-29 17:55:33.965,0.438186,2.3677,9.14776,-0.0377962,0.067804,-0.120184,0
2024-11-29 17:55:33.967,0.476471,2.38923,9.11665,-0.0555107,0.0726908,-0.120184,0
2024-11-29 17:55:33.970,0.50997,2.40838,9.08315,-0.0634518,0.0745234,-0.121406,0
2024-11-29 17:55:33.972,0.541077,2.44427,9.07358,-0.0634518,0.0745234,-0.121406,0
2024-11-29 17:55:33.973,0.562612,2.47537,9.05923,-0.0713928,0.0714691,-0.123849,0
2024-11-29 17:55:33.977,0.576969,2.5017,9.04726,-0.0793338,0.0690257,-0.128125,0
2024-11-29 17:55:33.978,0.629611,2.54028,9.04726,-0.0872748,0.064139,-0.133012,0
2024-11-29 17:55:33.980,0.672682,2.55942,9.05205,-0.094605,0.059863,-0.135455,0
2024-11-29 17:55:33.983,0.687039,2.59532,9.06641,-0.101324,0.0531437,-0.142175,0
2024-11-29 17:55:33.987,0.744467,2.65992,9.09751,-0.119039,0.0366508,-0.152559,0
2024-11-29 17:55:33.988,0.744467,2.65992,9.09751,-0.119039,0.0366508,-0.152559,0
2024-11-29 17:55:33.991,0.754038,2.68385,9.1334,-0.130034,0.0183254,-0.164776,0
2024-11-29 17:55:33.992,0.777966,2.70778,9.15494,-0.130034,0.0183254,-0.164776,0
2024-11-29 17:55:33.997,0.859622,2.72453,9.22433,-0.140419,-0.000610847,-0.181269,0
2024-11-29 17:55:33.997,0.859622,2.72453,9.22433,-0.140419,-0.000610847,-0.181269,0
2024-11-29 17:55:33.999,0.909871,2.72213,9.25783,-0.142251,-0.0103844,-0.191042,0
2024-11-29 17:55:34.001,0.957727,2.7341,9.29163,-0.144694,-0.020158,-0.200816,0
2024-11-29 17:55:34.005,0.981655,2.72692,9.31077,-0.147749,-0.0299315,-0.21059,0
2024-11-29 17:55:34.007,1.00319,2.70778,9.32992,-0.153246,-0.0384834,-0.222196,0
2024-11-29 17:55:34.010,1.0343,2.70539,9.35384,-0.157522,-0.0525329,-0.241132,0
2024-11-29 17:55:34.012,1.07976,2.69821,9.38734,-0.160576,-0.0586413,-0.25396,0
2024-11-29 17:55:34.013,1.09412,2.68624,9.41606,-0.160576,-0.0586413,-0.25396,0
2024-11-29 17:55:34.017,1.07737,2.69103,9.4352,-0.163631,-0.0635281,-0.262512,0
2024-11-29 17:55:34.019,1.07019,2.69103,9.45434,-0.17035,-0.0665824,-0.28267,0
2024-11-29 17:55:34.021,1.04626,2.68624,9.46631,-0.17035,-0.0665824,-0.28267,0
2024-11-29 17:55:34.023,1.01755,2.68146,9.49263,-0.174015,-0.0647498,-0.290611,0
2024-11-29 17:55:34.026,1.0008,2.67906,9.51177,-0.180734,-0.0574196,-0.301606,0
2024-11-29 17:55:34.028,0.981655,2.67667,9.51895,-0.180734,-0.0574196,-0.301606,0
2024-11-29 17:55:34.030,0.940978,2.67428,9.51177,-0.185621,-0.0507003,-0.308325,0
2024-11-29 17:55:34.032,0.897907,2.67428,9.50938,-0.19173,-0.0445919,-0.310769,0
2024-11-29 17:55:34.035,0.864407,2.67667,9.52134,-0.196006,-0.0378725,-0.312601,0
2024-11-29 17:55:34.037,0.830609,2.65753,9.50938,-0.202114,-0.0311532,-0.315655,0
2024-11-29 17:55:34.040,0.804287,2.63599,9.48306,-0.209444,-0.0226013,-0.314434,0
2024-11-29 17:55:34.043,0.782752,2.62164,9.4352,-0.218607,-0.0140495,-0.316266,0
2024-11-29 17:55:34.044,0.76361,2.61685,9.38974,-0.229602,-0.00671932,-0.313212,0
2024-11-29 17:55:34.046,0.727717,2.61924,9.38495,-0.24243,0.0,-0.313212,0
2024-11-29 17:55:34.050,0.703789,2.60489,9.38734,-0.255869,0.00610847,-0.31199,0
2024-11-29 17:55:34.051,0.687039,2.59053,9.38016,-0.269918,0.00977356,-0.308936,0
2024-11-29 17:55:34.053,0.660718,2.59532,9.38974,-0.284578,0.0128278,-0.305882,0
2024-11-29 17:55:34.056,0.646361,2.61207,9.40409,-0.298628,0.0134386,-0.30466,0
2024-11-29 17:55:34.059,0.643968,2.62164,9.41845,-0.313288,0.0134386,-0.300384,0
2024-11-29 17:55:34.060,0.63679,2.63599,9.44477,-0.330392,0.015882,-0.29733,0
2024-11-29 17:55:34.064,0.634397,2.66231,9.48784,-0.345052,0.0146603,-0.294276,0
2024-11-29 17:55:34.066,0.639183,2.68864,9.54048,-0.359713,0.0134386,-0.29,0
2024-11-29 17:55:34.068,0.655932,2.71017,9.59073,-0.373762,0.0146603,-0.286945,0
2024-11-29 17:55:34.071,0.665504,2.72453,9.65534,-0.38659,0.0134386,-0.28267,0
2024-11-29 17:55:34.072,0.675075,2.75803,9.71994,-0.399418,0.0140495,-0.283891,0
2024-11-29 17:55:34.075,0.703789,2.77956,9.7678,-0.409802,0.0128278,-0.28267,0
2024-11-29 17:55:34.078,0.708575,2.79631,9.84228,-0.418354,0.0103844,-0.282059,0
2024-11-29 17:55:34.079,0.708575,2.81306,9.93081,-0.428738,0.00610847,-0.28267,0
2024-11-29 17:55:34.082,0.720539,2.82503,10.0193,-0.435458,0.00366508,-0.28328,0
2024-11-29 17:55:34.084,0.710967,2.84656,10.0959,-0.439734,-0.00122169,-0.28328,0
2024-11-29 17:55:34.087,0.684646,2.8681,10.1629,-0.443399,-0.00671932,-0.287556,0
2024-11-29 17:55:34.090,0.665504,2.89203,10.2371,-0.445231,-0.00977356,-0.287556,0
2024-11-29 17:55:34.092,0.658325,2.89442,10.3017,-0.445231,-0.00977356,-0.287556,0
2024-11-29 17:55:34.094,0.655932,2.87288,10.3905,-0.443399,-0.0146603,-0.288167,0
2024-11-29 17:55:34.096,0.634397,2.8346,10.4527,-0.435458,-0.00733017,-0.284502,0
2024-11-29 17:55:34.098,0.572184,2.81545,10.4791,-0.431182,0.0,-0.279004,0
2024-11-29 17:55:34.101,0.519542,2.8346,10.5389,-0.424462,0.00427593,-0.276561,0
2024-11-29 17:55:34.103,0.498006,2.85853,10.6131,-0.413467,0.00855186,-0.275339,0
2024-11-29 17:55:34.106,0.493221,2.89442,10.6681,-0.392088,0.0134386,-0.272896,0
2024-11-29 17:55:34.111,0.464507,2.88724,10.692,-0.365821,0.0164929,-0.274729,0
2024-11-29 17:55:34.111,0.464507,2.88724,10.692,-0.365821,0.0164929,-0.274729,0
2024-11-29 17:55:34.112,0.435793,2.86092,10.692,-0.365821,0.0164929,-0.274729,0
2024-11-29 17:55:34.115,0.41665,2.84656,10.6753,-0.354215,0.0171037,-0.27595,0
2024-11-29 17:55:34.118,0.383151,2.8322,10.6442,-0.342609,0.015882,-0.275339,0
2024-11-29 17:55:34.120,0.335294,2.82024,10.625,-0.331003,0.0177146,-0.272285,0
2024-11-29 17:55:34.123,0.297009,2.81545,10.6202,-0.316953,0.0213797,-0.271063,0
2024-11-29 17:55:34.125,0.253639,2.82024,10.5963,-0.304126,0.0219905,-0.268009,0
2024-11-29 17:55:34.126,0.200997,2.82503,10.5532,-0.29313,0.0250447,-0.265566,0
2024-11-29 17:55:34.129,0.138784,2.8346,10.5245,-0.276637,0.0323749,-0.257625,0
2024-11-29 17:55:34.132,0.0981057,2.84656,10.503,-0.252204,0.043981,-0.246019,0
2024-11-29 17:55:34.134,0.0598206,2.84178,10.4527,-0.252204,0.043981,-0.246019,0
2024-11-29 17:55:34.137,0.0143569,2.82742,10.4145,-0.238154,0.0482569,-0.235634,0
2024-11-29 17:55:34.141,-0.0358923,2.82263,10.3232,-0.225937,0.0549763,-0.225861,0
2024-11-29 17:55:34.143,-0.0526421,2.81785,10.261,-0.199671,0.0696366,-0.208146,0
2024-11-29 17:55:34.145,-0.0574277,2.80828,10.206,-0.185621,0.0806318,-0.198983,0
2024-11-29 17:55:34.146,-0.0574277,2.80828,10.206,-0.185621,0.0806318,-0.198983,0
2024-11-29 17:55:34.149,-0.0622134,2.8011,10.1629,-0.175237,0.087962,-0.188599,0
2024-11-29 17:55:34.150,-0.0741775,2.80349,10.1151,-0.164242,0.0971247,-0.180658,0
2024-11-29 17:55:34.152,-0.0933201,2.80588,10.0528,-0.150192,0.105066,-0.171495,0
2024-11-29 17:55:34.155,-0.11007,2.8011,9.95713,-0.140419,0.112396,-0.162944,0
2024-11-29 17:55:34.157,-0.141177,2.81067,9.85424,-0.13431,0.118504,-0.150727,0
2024-11-29 17:55:34.159,-0.165105,2.81785,9.77259,-0.12698,0.128278,-0.139731,0
2024-11-29 17:55:34.162,-0.181855,2.82503,9.70798,-0.122093,0.136219,-0.132401,0
2024-11-29 17:55:34.165,-0.208176,2.85613,9.64577,-0.118428,0.143549,-0.121406,0
2024-11-29 17:55:34.167,-0.215354,2.88963,9.58595,-0.113541,0.148436,-0.114076,0
2024-11-29 17:55:34.169,-0.208176,2.90878,9.52613,-0.110487,0.155155,-0.109189,0
2024-11-29 17:55:34.172,-0.212961,2.91835,9.47348,-0.110487,0.156377,-0.0975828,0
2024-11-29 17:55:34.174,-0.241675,2.95424,9.42084,-0.110487,0.156377,-0.0975828,0
2024-11-29 17:55:34.177,-0.256032,2.98774,9.38016,-0.111709,0.153323,-0.0951395,0
2024-11-29 17:55:34.179,-0.253639,3.00688,9.34666,-0.11293,0.149047,-0.0926961,0
2024-11-29 17:55:34.182,-0.272782,3.04277,9.31556,-0.118428,0.143549,-0.0908635,0
2024-11-29 17:55:34.184,-0.270389,3.0667,9.28684,-0.118428,0.138051,-0.0926961,0
2024-11-29 17:55:34.186,-0.267996,3.07627,9.25783,-0.121482,0.1295,-0.0926961,0
2024-11-29 17:55:34.188,-0.267996,3.08854,9.24826,-0.127591,0.120337,-0.096972,0
2024-11-29 17:55:34.191,-0.246461,3.09811,9.24108,-0.130645,0.110563,-0.0975828,0
2024-11-29 17:55:34.193,-0.234497,3.10529,9.24108,-0.133088,0.10079,-0.10247,0
2024-11-29 17:55:34.195,-0.222533,3.11007,9.27009,-0.138586,0.0910162,-0.106135,0
2024-11-29 17:55:34.197,-0.215354,3.11486,9.29163,-0.143473,0.0787993,-0.110411,0
2024-11-29 17:55:34.200,-0.198604,3.11007,9.30599,-0.143473,0.0635281,-0.118352,0
2024-11-29 17:55:34.203,-0.172283,3.10529,9.32513,-0.146527,0.0482569,-0.125682,0
2024-11-29 17:55:34.204,-0.165105,3.1005,9.36102,-0.14836,0.0335966,-0.133623,0
2024-11-29 17:55:34.206,-0.16989,3.08854,9.4017,-0.152635,0.0177146,-0.140953,0
2024-11-29 17:55:34.209,-0.160319,3.08106,9.42563,-0.153857,0.00244339,-0.150116,0
2024-11-29 17:55:34.212,-0.150748,3.07388,9.45434,-0.149581,-0.0268773,-0.169052,0
2024-11-29 17:55:34.214,-0.162712,3.05474,9.49741,-0.149581,-0.0268773,-0.169052,0
2024-11-29 17:55:34.217,-0.162712,3.02842,9.53091,-0.143473,-0.051922,-0.187988,0
2024-11-29 17:55:34.218,-0.150748,3.02363,9.56202,-0.143473,-0.051922,-0.187988,0
2024-11-29 17:55:34.222,-0.162712,3.01167,9.58595,-0.136753,-0.0763559,-0.20387,0
2024-11-29 17:55:34.223,-0.179462,2.97817,9.6027,-0.136753,-0.0763559,-0.20387,0
2024-11-29 17:55:34.226,-0.184247,2.97577,9.62902,-0.132477,-0.0904054,-0.213033,0
2024-11-29 17:55:34.228,-0.196211,2.9686,9.65773,-0.128202,-0.100179,-0.220363,0
2024-11-29 17:55:34.230,-0.20339,2.94706,9.67448,-0.122704,-0.110563,-0.22525,0
2024-11-29 17:55:34.233,-0.212961,2.91356,9.69123,-0.113541,-0.116672,-0.231358,0
2024-11-29 17:55:34.235,-0.229711,2.87767,9.69841,-0.110487,-0.125224,-0.234413,0
2024-11-29 17:55:34.237,-0.232104,2.8346,9.70559,-0.104379,-0.130721,-0.237467,0
2024-11-29 17:55:34.239,-0.251246,2.78674,9.70559,-0.0982701,-0.133165,-0.238689,0
2024-11-29 17:55:34.242,-0.267996,2.77956,9.69602,-0.0933833,-0.137441,-0.240521,0
2024-11-29 17:55:34.244,-0.275175,2.76521,9.7008,-0.0891073,-0.141106,-0.241132,0
2024-11-29 17:55:34.247,-0.27996,2.72931,9.69362,-0.0842206,-0.142938,-0.241743,0
2024-11-29 17:55:34.250,-0.287438,2.69821,9.68884,-0.0762796,-0.145992,-0.242964,0
2024-11-29 17:55:34.252,-0.292223,2.68146,9.69362,-0.074447,-0.145992,-0.241132,0
2024-11-29 17:55:34.255,-0.292223,2.65992,9.69602,-0.074447,-0.145992,-0.241132,0
2024-11-29 17:55:34.256,-0.308973,2.64317,9.69602,-0.0732253,-0.144771,-0.23991,0
2024-11-29 17:55:34.259,-0.311366,2.6336,9.69123,-0.0701711,-0.143549,-0.241132,0
2024-11-29 17:55:34.262,-0.301795,2.62403,9.67448,-0.0701711,-0.143549,-0.241132,0
2024-11-29 17:55:34.263,-0.308973,2.60489,9.65534,-0.0695602,-0.139884,-0.236856,0
2024-11-29 17:55:34.266,-0.304188,2.58814,9.65295,-0.0701711,-0.13683,-0.234413,0
2024-11-29 17:55:34.268,-0.27996,2.58335,9.64337,-0.0683385,-0.128889,-0.231358,0
2024-11-29 17:55:34.271,-0.267996,2.57139,9.63859,-0.0701711,-0.11545,-0.224639,0
2024-11-29 17:55:34.273,-0.270389,2.56182,9.64337,-0.0701711,-0.11545,-0.224639,0
2024-11-29 17:55:34.275,-0.246461,2.55703,9.65534,-0.0713928,-0.107509,-0.221585,0
2024-11-29 17:55:34.278,-0.208176,2.55942,9.65295,-0.0726145,-0.087962,-0.219752,0
2024-11-29 17:55:34.280,-0.193819,2.55703,9.6362,-0.0726145,-0.087962,-0.219752,0
2024-11-29 17:55:34.283,-0.16989,2.53789,9.61945,-0.0768904,-0.0769668,-0.216087,0
2024-11-29 17:55:34.285,-0.133998,2.54028,9.6027,-0.0811663,-0.0531437,-0.213644,0
2024-11-29 17:55:34.288,-0.119641,2.55703,9.6027,-0.0854423,-0.0390942,-0.212422,0
2024-11-29 17:55:34.290,-0.119641,2.56182,9.61466,-0.0884965,-0.0262664,-0.213033,0
2024-11-29 17:55:34.292,-0.112463,2.55942,9.61227,-0.0884965,-0.0262664,-0.213033,0
2024-11-29 17:55:34.294,-0.102891,2.56421,9.59791,-0.0921616,-0.0128278,-0.2112,0
2024-11-29 17:55:34.296,-0.102891,2.57617,9.59073,-0.0933833,0.00122169,-0.209979,0
2024-11-29 17:55:34.299,-0.102891,2.58335,9.57877,-0.101324,0.0232122,-0.207535,0
2024-11-29 17:55:34.302,-0.0981057,2.59771,9.55484,-0.101324,0.0232122,-0.207535,0
2024-11-29 17:55:34.304,-0.100499,2.60489,9.5333,-0.106211,0.0305424,-0.206925,0
2024-11-29 17:55:34.305,-0.0933201,2.60967,9.52373,-0.11232,0.0384834,-0.205703,0
2024-11-29 17:55:34.309,-0.0861416,2.60967,9.5022,-0.123315,0.0531437,-0.20387,0
2024-11-29 17:55:34.311,-0.0765703,2.6001,9.48784,-0.127591,0.0568088,-0.204481,0
2024-11-29 17:55:34.312,-0.0646062,2.61924,9.48306,-0.127591,0.0568088,-0.204481,0
2024-11-29 17:55:34.316,-0.0622134,2.63599,9.47827,-0.142862,0.0629173,-0.203259,0
2024-11-29 17:55:34.317,-0.0693919,2.63839,9.48784,-0.142862,0.0629173,-0.203259,0
2024-11-29 17:55:34.320,-0.0717847,2.64796,9.49263,-0.150192,0.0653607,-0.202649,0
2024-11-29 17:55:34.323,-0.0574277,2.6671,9.50459,-0.150192,0.0653607,-0.202649,0
2024-11-29 17:55:34.324,-0.0478565,2.68624,9.52373,-0.161187,0.067804,-0.200205,0
2024-11-29 17:55:34.327,-0.0454636,2.7006,9.55005,-0.166074,0.0684149,-0.200205,0
2024-11-29 17:55:34.330,-0.0358923,2.71017,9.5668,-0.172183,0.067804,-0.200816,0
2024-11-29 17:55:34.331,-0.00717847,2.70778,9.59073,-0.172793,0.0684149,-0.200205,0
2024-11-29 17:55:34.335,0.00478565,2.72453,9.63141,-0.176459,0.0665824,-0.200816,0
2024-11-29 17:55:34.336,0.00717847,2.7341,9.6697,-0.17768,0.067804,-0.197762,0
2024-11-29 17:55:34.338,0.0167498,2.73649,9.69362,-0.180124,0.0684149,-0.199594,0
2024-11-29 17:55:34.341,0.0239282,2.75085,9.71277,-0.181345,0.0690257,-0.198983,0
2024-11-29 17:55:34.344,0.0239282,2.75803,9.72712,-0.180124,0.07208,-0.197762,0
2024-11-29 17:55:34.345,-0.00478565,2.76281,9.75584,-0.178902,0.07208,-0.198373,0
2024-11-29 17:55:34.349,-0.026321,2.77717,9.78694,-0.174015,0.0708583,-0.198373,0
2024-11-29 17:55:34.350,-0.0358923,2.78196,9.81087,-0.174015,0.0708583,-0.198373,0
2024-11-29 17:55:34.353,-0.0550349,2.79392,9.8351,-0.169739,0.0696366,-0.192264,0
2024-11-29 17:55:34.355,-0.0837488,2.80349,9.84467,-0.166074,0.067804,-0.190432,0
2024-11-29 17:55:34.358,-0.107677,2.80588,9.8686,-0.162409,0.0647498,-0.187988,0
2024-11-29 17:55:34.360,-0.124427,2.81067,9.89492,-0.156301,0.0647498,-0.184323,0
2024-11-29 17:55:34.363,-0.122034,2.81067,9.90688,-0.14836,0.059863,-0.175771,0
2024-11-29 17:55:34.364,-0.12682,2.81545,9.89971,-0.14836,0.059863,-0.175771,0
2024-11-29 17:55:34.367,-0.145962,2.82263,9.89013,-0.14164,0.0555871,-0.172106,0
2024-11-29 17:55:34.370,-0.167498,2.8346,9.89492,-0.137364,0.0555871,-0.165387,0
2024-11-29 17:55:34.371,-0.191426,2.84178,9.89731,-0.133088,0.0580305,-0.161111,0
2024-11-29 17:55:34.375,-0.200997,2.86092,9.89013,-0.12698,0.0568088,-0.155613,0
2024-11-29 17:55:34.376,-0.22014,2.88006,9.88296,-0.123315,0.0561979,-0.147672,0
2024-11-29 17:55:34.379,-0.234497,2.89681,9.87817,-0.120261,0.0568088,-0.140342,0
2024-11-29 17:55:34.382,-0.234497,2.9016,9.87099,-0.11293,0.0543654,-0.12446,0
2024-11-29 17:55:34.383,-0.239282,2.91356,9.87338,-0.11293,0.0543654,-0.12446,0
2024-11-29 17:55:34.386,-0.232104,2.9327,9.87578,-0.114763,0.0470352,-0.118352,0
2024-11-29 17:55:34.389,-0.224925,2.9351,9.89013,-0.114763,0.0421485,-0.1098,0
2024-11-29 17:55:34.390,-0.222533,2.95902,9.92124,-0.111098,0.0354291,-0.104302,0
2024-11-29 17:55:34.394,-0.20339,2.98535,9.95235,-0.11232,0.0207688,-0.0896418,0
2024-11-29 17:55:34.396,-0.184247,2.98535,9.97388,-0.116595,0.0116061,-0.0841442,0
2024-11-29 17:55:34.397,-0.153141,2.99492,9.98585,-0.116595,0.0116061,-0.0841442,0
2024-11-29 17:55:34.400,-0.119641,3.02842,10.0002,-0.118428,0.00366508,-0.0780357,0
2024-11-29 17:55:34.404,-0.0909273,3.08345,10.0983,-0.12698,-0.0207688,-0.0682622,0
2024-11-29 17:55:34.405,-0.0909273,3.08345,10.0983,-0.12698,-0.0207688,-0.0682622,0
2024-11-29 17:55:34.408,-0.0837488,3.09332,10.1533,-0.135532,-0.0445919,-0.0584886,0
2024-11-29 17:55:34.409,-0.0885344,3.11964,10.2156,-0.135532,-0.0445919,-0.0584886,0
2024-11-29 17:55:34.412,-0.0957129,3.15553,10.3065,-0.139808,-0.0592522,-0.0548235,0
2024-11-29 17:55:34.414,-0.0861416,3.18425,10.4001,-0.143473,-0.0739125,-0.0517693,0
2024-11-29 17:55:34.417,-0.066999,3.21775,10.491,-0.146527,-0.0922379,-0.0481042,0
2024-11-29 17:55:34.418,-0.0550349,3.24407,10.582,-0.149581,-0.113618,-0.0462717,0
2024-11-29 17:55:34.421,-0.0598206,3.25364,10.6896,-0.154468,-0.131943,-0.0456608,0
2024-11-29 17:55:34.424,-0.0526421,3.24885,10.7973,-0.153857,-0.150268,-0.0413849,0
2024-11-29 17:55:34.425,-0.0358923,3.24646,10.893,-0.156301,-0.172259,-0.0401632,0
2024-11-29 17:55:34.429,-0.00239282,3.24407,11.0154,-0.160576,-0.207688,-0.0316113,0
2024-11-29 17:55:34.431,0.0454636,3.24168,11.1446,-0.160576,-0.207688,-0.0316113,0
2024-11-29 17:55:34.433,0.081356,3.24646,11.2738,-0.162409,-0.218072,-0.0279463,0
2024-11-29 17:55:34.435,0.12682,3.24168,11.4197,-0.161798,-0.226013,-0.0261137,0
2024-11-29 17:55:34.437,0.167498,3.24407,11.5732,-0.156301,-0.231511,-0.0261137,0
2024-11-29 17:55:34.440,0.179462,3.26321,11.7215,-0.153857,-0.240674,-0.0218378,0
2024-11-29 17:55:34.443,0.174676,3.28235,11.8843,-0.137975,-0.254723,-0.0200052,0
2024-11-29 17:55:34.445,0.179462,3.3015,12.047,-0.137975,-0.254723,-0.0200052,0
2024-11-29 17:55:34.448,0.198604,3.32543,12.2052,-0.127591,-0.260221,-0.0187836,0
2024-11-29 17:55:34.450,0.215354,3.35653,12.3655,-0.0982701,-0.271216,-0.016951,0
2024-11-29 17:55:34.452,0.184247,3.37807,12.5043,-0.0982701,-0.271216,-0.016951,0
2024-11-29 17:55:34.454,0.112463,3.38764,12.6314,-0.0829989,-0.272438,-0.0138968,0
2024-11-29 17:55:34.457,0.0478565,3.39003,12.7511,-0.0469589,-0.273049,-0.00106898,0
2024-11-29 17:55:34.458,0.00239282,3.40678,12.8659,-0.0469589,-0.273049,-0.00106898,0
2024-11-29 17:55:34.461,-0.0191426,3.42114,12.9832,-0.0280226,-0.268162,0.00809373,0
2024-11-29 17:55:34.464,-0.0287139,3.42832,13.086,0.0196235,-0.254112,0.0264191,0
2024-11-29 17:55:34.467,-0.0502493,3.4355,13.1578,0.0196235,-0.254112,0.0264191,0
2024-11-29 17:55:34.468,-0.0789631,3.44028,13.2156,0.0434465,-0.242506,0.0368035,0
2024-11-29 17:55:34.471,-0.0741775,3.44028,13.2778,0.0672696,-0.228457,0.0465771,0
2024-11-29 17:55:34.474,-0.0454636,3.42832,13.3232,0.117359,-0.191195,0.0649025,0
2024-11-29 17:55:34.476,-0.0334995,3.43789,13.3376,0.117359,-0.191195,0.0649025,0
2024-11-29 17:55:34.477,-0.026321,3.45464,13.3376,0.141182,-0.164929,0.0740652,0
2024-11-29 17:55:34.480,-0.0454636,3.46421,13.3304,0.165616,-0.136219,0.0838388,0
2024-11-29 17:55:34.483,-0.0550349,3.46899,13.2754,0.186996,-0.105066,0.0930015,0
2024-11-29 17:55:34.484,-0.0430708,3.46899,13.206,0.207764,-0.07208,0.103997,0
2024-11-29 17:55:34.487,-0.0550349,3.46421,13.1315,0.22609,-0.0372617,0.112549,0
2024-11-29 17:55:34.489,-0.0717847,3.47378,13.0454,0.242583,-0.00366508,0.124155,0
2024-11-29 17:55:34.491,-0.0693919,3.45703,12.9497,0.2548,0.0305424,0.134539,0
2024-11-29 17:55:34.494,-0.066999,3.44028,12.8468,0.264573,0.0629173,0.143702,0
2024-11-29 17:55:34.497,-0.0741775,3.4355,12.7415,0.271903,0.137441,0.167525,0
2024-11-29 17:55:34.498,-0.0837488,3.40678,12.6386,0.271903,0.137441,0.167525,0
2024-11-29 17:55:34.501,-0.0909273,3.35175,12.5856,0.274347,0.178367,0.180353,0
2024-11-29 17:55:34.503,-0.0885344,3.31585,12.5306,0.271903,0.220516,0.191348,0
2024-11-29 17:55:34.506,-0.0933201,3.30628,12.4277,0.26946,0.263275,0.205397,0
2024-11-29 17:55:34.509,-0.12682,3.29671,12.3129,0.262741,0.301148,0.217003,0
2024-11-29 17:55:34.510,-0.179462,3.29193,12.2291,0.252967,0.337188,0.227388,0
2024-11-29 17:55:34.513,-0.227318,3.27996,12.186,0.238307,0.370173,0.238994,0
2024-11-29 17:55:34.515,-0.256032,3.268,12.1525,0.22609,0.39644,0.2506,0
2024-11-29 17:55:34.517,-0.260818,3.27039,12.1119,0.210819,0.422095,0.259152,0
2024-11-29 17:55:34.521,-0.234497,3.268,12.0637,0.171114,0.464244,0.274423,0
2024-11-29 17:55:34.523,-0.191426,3.24407,12.0278,0.147901,0.476461,0.276867,0
2024-11-29 17:55:34.525,-0.148355,3.22014,12.0135,0.147901,0.476461,0.276867,0
2024-11-29 17:55:34.527,-0.107677,3.19621,12.0039,0.125911,0.48318,0.278699,0
2024-11-29 17:55:34.529,-0.124427,3.19382,11.9584,0.102699,0.4899,0.278088,0
2024-11-29 17:55:34.532,-0.174676,3.21536,11.9154,0.073378,0.491121,0.277477,0
2024-11-29 17:55:34.535,-0.193819,3.22493,11.9369,0.0465007,0.49051,0.275034,0
2024-11-29 17:55:34.537,-0.18664,3.21775,12.0039,0.0196235,0.488067,0.273201,0
2024-11-29 17:55:34.540,-0.153141,3.21536,12.0975,-0.0316877,0.466687,0.262817,0
2024-11-29 17:55:34.544,-0.107677,3.20339,12.198,-0.0542891,0.449584,0.254265,0
2024-11-29 17:55:34.544,-0.0454636,3.16511,12.2818,-0.0542891,0.449584,0.254265,0
2024-11-29 17:55:34.548,0.0646062,3.08345,12.4301,-0.0976592,0.404381,0.22861,0
2024-11-29 17:55:34.549,0.0646062,3.08345,12.4301,-0.115985,0.380558,0.215782,0
2024-11-29 17:55:34.551,0.0933201,3.03081,12.5043,-0.115985,0.380558,0.215782,0
2024-11-29 17:55:34.554,0.136391,2.97338,12.6024,-0.131867,0.352459,0.200511,0
2024-11-29 17:55:34.556,0.179462,2.91835,12.708,-0.160576,0.291374,0.164471,0
2024-11-29 17:55:34.558,0.241675,2.85135,12.8252,-0.160576,0.291374,0.164471,0
2024-11-29 17:55:34.560,0.294616,2.78913,12.9257,-0.160576,0.291374,0.164471,0
2024-11-29 17:55:34.562,0.328116,2.72453,12.9975,-0.183789,0.218683,0.129041,0
2024-11-29 17:55:34.564,0.354437,2.65753,13.0765,-0.195395,0.179589,0.108273,0
2024-11-29 17:55:34.568,0.354437,2.58814,13.1916,-0.21372,0.095903,0.071011,0
2024-11-29 17:55:34.570,0.35683,2.51127,13.3161,-0.222883,0.0525329,0.0532964,0
2024-11-29 17:55:34.573,0.361615,2.43709,13.4237,-0.222883,0.0525329,0.0532964,0
2024-11-29 17:55:34.574,0.342473,2.37248,13.5266,-0.22777,0.00916271,0.0392469,0
2024-11-29 17:55:34.577,0.337687,2.30788,13.6391,-0.234489,-0.0739125,0.0160347,0
2024-11-29 17:55:34.580,0.344866,2.2337,13.7495,-0.234489,-0.0739125,0.0160347,0
2024-11-29 17:55:34.582,0.344866,2.1667,13.8547,-0.237543,-0.112396,0.00565034,0
2024-11-29 17:55:34.583,0.373579,2.08295,13.9481,-0.239987,-0.147825,-0.00473407,0
2024-11-29 17:55:34.586,0.397508,1.98963,14.0414,-0.239376,-0.179589,-0.00962084,0
2024-11-29 17:55:34.589,0.404686,1.90319,14.1467,-0.237543,-0.204634,-0.0145076,0
2024-11-29 17:55:34.590,0.426222,1.81226,14.2711,-0.235711,-0.230289,-0.0212269,0
2024-11-29 17:55:34.594,0.457328,1.7333,14.4078,-0.217385,-0.268773,-0.0297788,0
2024-11-29 17:55:34.596,0.476471,1.6663,14.5346,-0.203336,-0.281601,-0.0303897,0
2024-11-29 17:55:34.598,0.493221,1.59452,14.6423,-0.203336,-0.281601,-0.0303897,0
2024-11-29 17:55:34.601,0.521934,1.52034,14.7523,-0.186232,-0.292596,-0.0322222,0
2024-11-29 17:55:34.602,0.541077,1.46291,14.8457,-0.164852,-0.297483,-0.0340547,0
2024-11-29 17:55:34.605,0.562612,1.38844,14.9106,-0.14164,-0.296261,-0.0352764,3
2024-11-29 17:55:34.608,0.600898,1.30708,14.9393,-0.0842206,-0.280379,-0.0377198,0
2024-11-29 17:55:34.610,0.627219,1.21615,14.9321,-0.0518457,-0.261443,-0.0377198,0
2024-11-29 17:55:34.615,0.641576,1.01037,14.8457,-0.0182491,-0.23762,-0.0364981,0
2024-11-29 17:55:34.615,0.641576,1.01037,14.8457,-0.0182491,-0.23762,-0.0364981,0
2024-11-29 17:55:34.616,0.632004,0.936192,14.7476,0.0177909,-0.210131,-0.0340547,0
2024-11-29 17:55:34.619,0.624826,0.852443,14.6375,0.0507767,-0.175924,-0.0310005,0
2024-11-29 17:55:34.621,0.617647,0.773181,14.5083,0.0831516,-0.138051,-0.0236703,0
2024-11-29 17:55:34.624,0.579362,0.734896,14.3886,0.115526,-0.0934596,-0.0151185,0
2024-11-29 17:55:34.627,0.524327,0.703789,14.2567,0.185774,0.00794101,0.00687203,0
2024-11-29 17:55:34.629,0.481256,0.655932,14.094,0.185774,0.00794101,0.00687203,0
2024-11-29 17:55:34.630,0.423829,0.629611,13.9002,0.21876,0.067804,0.0196998,0
2024-11-29 17:55:34.634,0.35683,0.617647,13.6965,0.252967,0.127056,0.034971,0
2024-11-29 17:55:34.637,0.270389,0.598505,13.3161,0.323825,0.257778,0.071011,0
2024-11-29 17:55:34.638,0.16989,0.588933,13.3161,0.323825,0.257778,0.071011,0
2024-11-29 17:55:34.641,0.0693919,0.579362,13.1004,0.39957,0.386055,0.114381,0
2024-11-29 17:55:34.643,-0.0430708,0.596112,12.8803,0.438054,0.452027,0.136983,0
2024-11-29 17:55:34.646,-0.148355,0.617647,12.6338,0.438054,0.452027,0.136983,0
2024-11-29 17:55:34.647,-0.239282,0.627219,12.3799,0.475926,0.517998,0.160195,0
2024-11-29 17:55:34.649,-0.349651,0.63679,12.143,0.518075,0.58397,0.179131,0
2024-11-29 17:55:34.653,-0.462114,0.641576,11.8747,0.557169,0.64872,0.200511,0
2024-11-29 17:55:34.654,-0.550648,0.663111,11.578,0.593209,0.712248,0.224945,0
2024-11-29 17:55:34.657,-0.632004,0.672682,11.2714,0.668343,0.8222,0.26526,0
2024-11-29 17:55:34.660,-0.744467,0.682254,10.9579,0.697664,0.868625,0.285418,0
2024-11-29 17:55:34.663,-0.972084,0.684646,10.2682,0.725152,0.909552,0.305576,0
2024-11-29 17:55:34.664,-0.972084,0.684646,10.2682,0.725152,0.909552,0.305576,0
2024-11-29 17:55:34.666,-1.07258,0.689432,9.90449,0.748364,0.945592,0.323902,0
2024-11-29 17:55:34.669,-1.16351,0.687039,9.54048,0.777074,1.00118,0.364218,0
2024-11-29 17:55:34.671,-1.25444,0.682254,9.17887,0.777074,1.00118,0.364218,0
2024-11-29 17:55:34.674,-1.32861,0.687039,8.83191,0.780739,1.03172,0.406366,0
2024-11-29 17:55:34.676,-1.39083,0.687039,8.50379,0.780739,1.03172,0.406366,0
2024-11-29 17:55:34.678,-1.44138,0.684646,8.18794,0.772187,1.03478,0.426524,0
2024-11-29 17:55:34.680,-1.49641,0.696611,7.91964,0.757527,1.0305,0.444239,0
2024-11-29 17:55:34.683,-1.55623,0.722932,7.67318,0.739812,1.01706,0.458899,0
2024-11-29 17:55:34.686,-1.59691,0.756431,7.4671,0.68728,0.972469,0.491274,0
2024-11-29 17:55:34.688,-1.6352,0.801895,7.302,0.655515,0.939483,0.504713,0
2024-11-29 17:55:34.690,-1.66391,0.854836,7.14886,0.655515,0.939483,0.504713,0
2024-11-29 17:55:34.693,-1.69741,0.914656,7.04118,0.621308,0.899778,0.516319,0
2024-11-29 17:55:34.694,-1.74766,0.981655,6.97149,0.585879,0.853964,0.527314,0
2024-11-29 17:55:34.696,-1.79312,1.06062,6.9356,0.55045,0.798988,0.539531,0
2024-11-29 17:55:34.699,-1.81705,1.14197,6.9332,0.513799,0.744623,0.552969,0
2024-11-29 17:55:34.702,-1.71177,1.1659,7.11536,0.480813,0.682316,0.562132,0
2024-11-29 17:55:34.703,-0.986441,0.921835,8.04646,0.458823,0.571142,0.559078,0
2024-11-29 17:55:34.707,-0.71336,0.780359,8.65693,0.453325,0.433091,0.534033,0
2024-11-29 17:55:34.708,-1.24726,0.981655,8.30519,0.453936,0.342685,0.515708,0
2024-11-29 17:55:34.710,-1.32622,1.15872,8.08475,0.452103,0.296261,0.505323,0
2024-11-29 17:55:34.713,-1.19462,1.3334,8.12543,0.457601,0.26694,0.494939,0
2024-11-29 17:55:34.716,-1.18983,1.54188,8.2023,0.468596,0.222348,0.480279,0
2024-11-29 17:55:34.719,-1.23529,1.73569,8.25972,0.469207,0.180811,0.477835,0
2024-11-29 17:55:34.721,-1.28076,1.87926,8.32912,0.464931,0.117894,0.476003,0
2024-11-29 17:55:34.722,-1.30708,1.96301,8.39133,0.464931,0.117894,0.476003,0
2024-11-29 17:55:34.726,-1.28554,1.99202,8.43201,0.45699,0.0409268,0.471727,0
2024-11-29 17:55:34.727,-1.21854,1.95823,8.44158,0.444162,-0.0397051,0.467451,0
2024-11-29 17:55:34.729,-1.09651,1.88883,8.4344,0.42828,-0.124002,0.462564,0
2024-11-29 17:55:34.733,-0.893121,1.82901,8.43201,0.413009,-0.199136,0.452791,0
2024-11-29 17:55:34.735,-0.615255,1.75484,8.49422,0.384299,-0.331079,0.416751,0
2024-11-29 17:55:34.737,-0.330509,1.66869,8.64497,0.384299,-0.331079,0.416751,0
2024-11-29 17:55:34.739,-0.0837488,1.5658,8.82234,0.375137,-0.38911,0.389873,0
2024-11-29 17:55:34.742,0.100499,1.46052,8.9683,0.365363,-0.439199,0.358109,0
2024-11-29 17:55:34.746,0.320937,1.34058,9.19562,0.358644,-0.511279,0.289694,0
2024-11-29 17:55:34.746,0.320937,1.34058,9.19562,0.358644,-0.511279,0.289694,0
2024-11-29 17:55:34.748,0.409472,1.29512,9.29881,0.354368,-0.533881,0.255487,0
2024-11-29 17:55:34.752,0.471685,1.26401,9.39691,0.354979,-0.560758,0.184018,0
2024-11-29 17:55:34.753,0.519542,1.24487,9.45434,0.354979,-0.560758,0.184018,0
2024-11-29 17:55:34.756,0.529113,1.24965,9.47348,0.354368,-0.570531,0.114381,0
2024-11-29 17:55:34.758,0.507577,1.24247,9.49981,0.354368,-0.570531,0.114381,0
2024-11-29 17:55:34.761,0.469292,1.21376,9.53091,0.349481,-0.556482,0.0539073,0
2024-11-29 17:55:34.762,0.421436,1.17308,9.5333,0.349481,-0.556482,0.0539073,0
2024-11-29 17:55:34.766,0.366401,1.13958,9.50459,0.339707,-0.521664,0.00198525,0
2024-11-29 17:55:34.768,0.311366,1.12762,9.46391,0.339707,-0.521664,0.00198525,0
2024-11-29 17:55:34.770,0.251246,1.08933,9.41366,0.331766,-0.49723,-0.0218378,0
2024-11-29 17:55:34.772,0.174676,1.04865,9.36581,0.322604,-0.470963,-0.0456608,0
2024-11-29 17:55:34.775,0.0885344,1.02473,9.33949,0.313441,-0.44714,-0.0664296,0
2024-11-29 17:55:34.776,-0.00478565,0.991227,9.29881,0.299392,-0.423317,-0.0865876,0
2024-11-29 17:55:34.779,-0.105284,0.945763,9.23869,0.285953,-0.397051,-0.101859,0
2024-11-29 17:55:34.781,-0.212961,0.897907,9.2004,0.267627,-0.37506,-0.114076,0
2024-11-29 17:55:34.785,-0.301795,0.869193,9.1693,0.249913,-0.350015,-0.123238,0
2024-11-29 17:55:34.786,-0.385544,0.845265,9.14058,0.232198,-0.32436,-0.128736,0
2024-11-29 17:55:34.788,-0.478864,0.809073,9.12862,0.21204,-0.299926,-0.132401,0
2024-11-29 17:55:34.792,-0.553041,0.773181,9.11905,0.181498,-0.236398,-0.136066,0
2024-11-29 17:55:34.794,-0.610469,0.754038,9.12862,0.181498,-0.236398,-0.136066,0
2024-11-29 17:55:34.795,-0.665504,0.73011,9.15015,0.167449,-0.20219,-0.134845,0
2024-11-29 17:55:34.798,-0.727717,0.703789,9.15973,0.155842,-0.16615,-0.128736,0
2024-11-29 17:55:34.801,-0.792323,0.684646,9.16451,0.145458,-0.126445,-0.123849,0
2024-11-29 17:55:34.803,-0.842872,0.670289,9.17647,0.138739,-0.0849078,-0.116519,0
2024-11-29 17:55:34.806,-0.9003,0.651147,9.17647,0.134463,-0.0433702,-0.1098,0
2024-11-29 17:55:34.807,-0.972084,0.617647,9.17169,0.13263,0.0,-0.100026,0
2024-11-29 17:55:34.809,-1.02712,0.593719,9.17169,0.13263,0.0421485,-0.0884201,0
2024-11-29 17:55:34.813,-1.07737,0.588933,9.14537,0.13263,0.0421485,-0.0884201,0
2024-11-29 17:55:34.814,-1.1348,0.576969,9.09512,0.13935,0.127667,-0.0621537,0
2024-11-29 17:55:34.817,-1.18026,0.569791,9.05205,0.142404,0.170426,-0.0462717,0
2024-11-29 17:55:34.819,-1.22572,0.567398,9.0018,0.147901,0.213186,-0.0279463,0
2024-11-29 17:55:34.821,-1.26879,0.565005,8.92762,0.15401,0.256556,-0.0120642,0
2024-11-29 17:55:34.825,-1.32383,0.574577,8.84148,0.16867,0.336577,0.0245866,0
2024-11-29 17:55:34.827,-1.37408,0.581755,8.74337,0.174779,0.371395,0.047188,0
2024-11-29 17:55:34.829,-1.39561,0.593719,8.62104,0.174779,0.371395,0.047188,0
2024-11-29 17:55:34.832,-1.40788,0.588933,8.49422,0.183941,0.434312,0.0844496,0
2024-11-29 17:55:34.834,-1.40548,0.581755,8.36501,0.183941,0.434312,0.0844496,0
2024-11-29 17:55:34.836,-1.38844,0.591326,8.26212,0.186996,0.459357,0.101553,0
2024-11-29 17:55:34.839,-1.38604,0.617647,8.15444,0.188828,0.481348,0.116825,0
2024-11-29 17:55:34.840,-1.38126,0.641576,8.02971,0.191272,0.499673,0.131485,0
2024-11-29 17:55:34.843,-1.35972,0.65354,7.90529,0.191272,0.515555,0.144313,0
2024-11-29 17:55:34.846,-1.35015,0.670289,7.77368,0.188828,0.541211,0.165692,0
2024-11-29 17:55:34.847,-1.3334,0.682254,7.66361,0.188828,0.541211,0.165692,0
2024-11-29 17:55:34.850,-1.30947,0.708575,7.54846,0.188217,0.549763,0.175466,0
2024-11-29 17:55:34.853,-1.28794,0.737288,7.44317,0.182109,0.554649,0.183407,0
2024-11-29 17:55:34.854,-1.25683,0.756431,7.37617,0.179055,0.557093,0.19257,0
2024-11-29 17:55:34.857,-1.23051,0.787538,7.32353,0.176611,0.557704,0.198067,0
2024-11-29 17:55:34.859,-1.20897,0.799502,7.24936,0.171114,0.55526,0.202954,0
2024-11-29 17:55:34.861,-1.18505,0.813859,7.15843,0.171114,0.55526,0.202954,0
2024-11-29 17:55:34.864,-1.17787,0.845265,7.07946,0.16134,0.545487,0.212728,0
2024-11-29 17:55:34.867,-1.17308,0.871586,7.034,0.149734,0.524107,0.217614,0
2024-11-29 17:55:34.868,-1.17069,0.902692,6.98585,0.149734,0.524107,0.217614,0
2024-11-29 17:55:34.872,-1.16112,0.926621,6.94756,0.136906,0.492954,0.221279,0
2024-11-29 17:55:34.874,-1.1348,0.94337,6.92602,0.132019,0.472796,0.219447,0
2024-11-29 17:55:34.876,-1.11326,0.967299,6.89731,0.132019,0.472796,0.219447,0
2024-11-29 17:55:34.879,-1.10369,0.988834,6.87578,0.124078,0.437367,0.219447,0
2024-11-29 17:55:34.883,-1.09651,1.01515,6.84945,0.121635,0.420874,0.217003,0
2024-11-29 17:55:34.883,-1.09651,1.01515,6.84945,0.121635,0.420874,0.217003,0
2024-11-29 17:55:34.886,-1.0989,1.02712,6.82553,0.117359,0.40377,0.216393,0
2024-11-29 17:55:34.887,-1.09412,1.04626,6.82074,0.116748,0.386666,0.213338,0
2024-11-29 17:55:34.890,-1.09651,1.06062,6.82313,0.113083,0.371395,0.212728,0
2024-11-29 17:55:34.893,-1.0989,1.07737,6.81596,0.112472,0.336577,0.207841,0
2024-11-29 17:55:34.895,-1.10848,1.08933,6.81356,0.11064,0.318862,0.20723,0
2024-11-29 17:55:34.898,-1.11326,1.08694,6.83031,0.110029,0.299926,0.206008,0
2024-11-29 17:55:34.900,-1.11326,1.07976,6.83988,0.110029,0.299926,0.206008,0
2024-11-29 17:55:34.904,-1.12283,1.0678,6.82792,0.106975,0.260221,0.206619,0
2024-11-29 17:55:34.905,-1.12283,1.0678,6.82792,0.106975,0.260221,0.206619,0
2024-11-29 17:55:34.907,-1.11326,1.0654,6.82553,0.106975,0.240063,0.208452,0
2024-11-29 17:55:34.908,-1.10848,1.07976,6.83031,0.10331,0.219294,0.206619,0
2024-11-29 17:55:34.912,-1.1013,1.07258,6.83749,0.100255,0.198525,0.20723,0
2024-11-29 17:55:34.913,-1.1013,1.06301,6.83271,0.0953685,0.177757,0.209673,0
2024-11-29 17:55:34.916,-1.10369,1.07737,6.84228,0.0917034,0.156988,0.209673,0
2024-11-29 17:55:34.918,-1.08933,1.0989,6.87817,0.0862058,0.134997,0.210284,0
2024-11-29 17:55:34.921,-1.07737,1.12283,6.92124,0.0727672,0.0940705,0.212117,0
2024-11-29 17:55:34.925,-1.06062,1.13958,7.03161,0.0672696,0.0757451,0.211506,0
2024-11-29 17:55:34.926,-1.06062,1.13958,7.03161,0.0648262,0.0561979,0.212728,0
2024-11-29 17:55:34.928,-1.04626,1.15155,7.101,0.0648262,0.0561979,0.212728,0
2024-11-29 17:55:34.930,-1.03669,1.1659,7.168,0.0605502,0.0409268,0.213949,0
2024-11-29 17:55:34.933,-1.02951,1.1683,7.23261,0.0501658,0.0122169,0.213338,0
2024-11-29 17:55:34.934,-1.01994,1.18505,7.29003,0.0501658,0.0122169,0.213338,0
2024-11-29 17:55:34.937,-1.01515,1.20419,7.36182,0.049555,0.00305424,0.21456,0
2024-11-29 17:55:34.939,-1.01037,1.23051,7.43839,0.0483333,-0.00427593,0.215782,0
2024-11-29 17:55:34.942,-0.991227,1.26162,7.49582,0.0483333,-0.0109953,0.217003,0
2024-11-29 17:55:34.944,-0.972084,1.25922,7.54846,0.0465007,-0.0146603,0.217003,0
2024-11-29 17:55:34.947,-0.964906,1.2664,7.59183,0.0465007,-0.015882,0.220058,0
2024-11-29 17:55:34.948,-0.957727,1.29751,7.61815,0.0465007,-0.0146603,0.22189,0
2024-11-29 17:55:34.951,-0.96012,1.31426,7.64686,0.0428357,-0.0128278,0.223723,0
2024-11-29 17:55:34.954,-0.96012,1.3334,7.67079,0.0422248,-0.00366508,0.229831,0
2024-11-29 17:55:34.956,-0.952942,1.34776,7.69472,0.0422248,-0.00366508,0.229831,0
2024-11-29 17:55:34.960,-0.933799,1.37886,7.72343,0.0391706,0.00794101,0.237772,0
2024-11-29 17:55:34.961,-0.933799,1.37886,7.72343,0.0391706,0.00794101,0.237772,0
2024-11-29 17:55:34.963,-0.905085,1.38844,7.74975,0.0348946,0.0171037,0.241437,0
2024-11-29 17:55:34.966,-0.876371,1.41027,7.76411,0.0287862,0.0335966,0.247546,0
2024-11-29 17:55:34.968,-0.862014,1.42941,7.77368,0.0287862,0.0335966,0.247546,0
2024-11-29 17:55:34.970,-0.837787,1.44138,7.78565,0.0245102,0.0427593,0.251211,0
2024-11-29 17:55:34.972,-0.799502,1.45573,7.78565,0.0177909,0.0513112,0.253043,0
2024-11-29 17:55:34.975,-0.761217,1.47727,7.77847,0.00984991,0.0623064,0.255487,0
2024-11-29 17:55:34.977,-0.739681,1.50838,7.78804,0.00496313,0.0739125,0.257319,0
2024-11-29 17:55:34.980,-0.71336,1.54666,7.80479,-0.00481042,0.0842969,0.259152,0
2024-11-29 17:55:34.982,-0.665504,1.58016,7.82632,-0.0133623,0.0989573,0.259763,0
2024-11-29 17:55:34.985,-0.639183,1.62084,7.84547,-0.022525,0.110563,0.260374,0
2024-11-29 17:55:34.987,-0.627219,1.6663,7.86461,-0.0316877,0.124002,0.259763,0
2024-11-29 17:55:34.989,-0.610469,1.70459,7.87179,-0.0390179,0.138051,0.261595,0
2024-11-29 17:55:34.992,-0.584148,1.74766,7.87657,-0.050624,0.149658,0.260984,0
2024-11-29 17:55:34.993,-0.567398,1.78355,7.89572,-0.0628409,0.163096,0.259763,0
2024-11-29 17:55:34.997,-0.565005,1.81226,7.91964,-0.0829989,0.189363,0.255487,0
2024-11-29 17:55:34.999,-0.565005,1.85294,7.93161,-0.0952158,0.20219,0.251822,0
2024-11-29 17:55:35.001,-0.565005,1.88644,7.95554,-0.106822,0.212575,0.248768,0
2024-11-29 17:55:35.004,-0.565005,1.94148,8.00818,-0.11965,0.219294,0.245102,0
2024-11-29 17:55:35.006,-0.581755,1.99681,8.05604,-0.11965,0.219294,0.245102,0
2024-11-29 17:55:35.008,-0.598505,2.03031,8.09432,-0.131256,0.229068,0.241437,0
2024-11-29 17:55:35.011,-0.612862,2.09492,8.1688,-0.141029,0.235787,0.237161,0
2024-11-29 17:55:35.012,-0.610469,2.15474,8.22383,-0.14836,0.242506,0.234107,0
2024-11-29 17:55:35.014,-0.600898,2.19781,8.25972,-0.158133,0.249837,0.22922,0
2024-11-29 17:55:35.018,-0.588933,2.25524,8.31476,-0.167907,0.255945,0.224945,0
2024-11-29 17:55:35.019,-0.56022,2.29352,8.35065,-0.176459,0.262053,0.219447,0
2024-11-29 17:55:35.022,-0.531506,2.3007,8.39133,-0.1844,0.263886,0.213338,0
2024-11-29 17:55:35.025,-0.514756,2.32463,8.44636,-0.193562,0.26694,0.206619,0
2024-11-29 17:55:35.026,-0.498006,2.36291,8.49901,-0.203336,0.268773,0.199289,0
2024-11-29 17:55:35.029,-0.481256,2.38923,8.54447,-0.212498,0.268162,0.188905,0
2024-11-29 17:55:35.032,-0.471685,2.42034,8.58036,-0.222883,0.265719,0.179131,0
2024-11-29 17:55:35.033,-0.459721,2.45623,8.61865,-0.232046,0.262053,0.169357,0
2024-11-29 17:55:35.036,-0.45015,2.48734,8.65933,-0.24243,0.257167,0.157751,0
2024-11-29 17:55:35.039,-0.469292,2.52084,8.72184,-0.250371,0.250447,0.144924,0
2024-11-29 17:55:35.040,-0.498006,2.55703,8.79123,-0.261366,0.242506,0.134539,0
2024-11-29 17:55:35.043,-0.521934,2.58574,8.87019,-0.272362,0.235787,0.122322,0
2024-11-29 17:55:35.046,-0.548256,2.61207,8.96112,-0.279692,0.225403,0.112549,0
2024-11-29 17:55:35.047,-0.572184,2.65035,9.04248,-0.287633,0.211964,0.102164,0
2024-11-29 17:55:35.051,-0.598505,2.66231,9.12144,-0.301071,0.186308,0.0807846,0
2024-11-29 17:55:35.052,-0.634397,2.65514,9.21476,-0.301071,0.186308,0.0807846,0
2024-11-29 17:55:35.054,-0.663111,2.66949,9.30838,-0.308401,0.171648,0.0704001,0
2024-11-29 17:55:35.057,-0.675075,2.67667,9.39452,-0.313899,0.157599,0.0600157,0
2024-11-29 17:55:35.060,-0.706182,2.69581,9.48784,-0.320008,0.143549,0.050853,0
2024-11-29 17:55:35.062,-0.758824,2.71735,9.59791,-0.326116,0.127667,0.0410795,0
2024-11-29 17:55:35.064,-0.804287,2.72692,9.70798,-0.330392,0.109953,0.0325276,0
2024-11-29 17:55:35.067,-0.842872,2.74128,9.81087,-0.332835,0.0916271,0.0239758,0
2024-11-29 17:55:35.069,-0.893121,2.74606,9.93081,-0.335279,0.0708583,0.0166456,0
2024-11-29 17:55:35.072,-0.950549,2.74606,10.06,-0.338944,0.0305424,0.00626118,0
2024-11-29 17:55:35.073,-1.00558,2.75085,10.1868,-0.338944,0.0305424,0.00626118,0
2024-11-29 17:55:35.076,-1.05583,2.73888,10.3137,-0.340776,0.00733017,0.00137441,0
2024-11-29 17:55:35.079,-1.09412,2.7341,10.4527,-0.341387,-0.0189363,-0.00106898,0
2024-11-29 17:55:35.081,-1.11565,2.72692,10.5963,-0.341387,-0.0464244,-0.00167983,0
2024-11-29 17:55:35.083,-1.1348,2.70539,10.7566,-0.343831,-0.0769668,-0.00106898,0
2024-11-29 17:55:35.086,-1.14437,2.69103,10.9098,-0.343831,-0.108731,-0.00106898,0
2024-11-29 17:55:35.087,-1.17308,2.66471,11.0752,-0.345052,-0.141106,0.00198525,0
2024-11-29 17:55:35.090,-1.18026,2.64078,11.2642,-0.345663,-0.175924,0.00442864,0
2024-11-29 17:55:35.092,-1.16112,2.63839,11.4676,-0.340776,-0.209521,0.00565034,0
2024-11-29 17:55:35.095,-1.14197,2.65035,11.6856,-0.338333,-0.239452,0.00809373,0
2024-11-29 17:55:35.097,-1.1013,2.66471,11.9106,-0.334057,-0.268162,0.0105371,0
2024-11-29 17:55:35.100,-1.07976,2.67428,12.1525,-0.325505,-0.292596,0.0135914,0
2024-11-29 17:55:35.103,-1.05583,2.68864,12.3727,-0.304736,-0.339631,0.0166456,0
2024-11-29 17:55:35.105,-1.01276,2.7006,12.5904,-0.304736,-0.339631,0.0166456,0
2024-11-29 17:55:35.107,-0.962513,2.71017,12.8109,-0.290687,-0.355513,0.019089,0
2024-11-29 17:55:35.110,-0.905085,2.73649,13.0119,-0.272972,-0.369563,0.0203107,0
2024-11-29 17:55:35.111,-0.833001,2.75085,13.177,-0.253425,-0.378725,0.0227541,0
2024-11-29 17:55:35.113,-0.756431,2.75324,13.3208,-0.234489,-0.387888,0.0203107,0
2024-11-29 17:55:35.117,-0.684646,2.74846,13.4644,-0.215553,-0.391553,0.0215324,0
2024-11-29 17:55:35.119,-0.612862,2.75324,13.5936,-0.175237,-0.389721,0.0166456,0
2024-11-29 17:55:35.121,-0.541077,2.75085,13.7061,-0.175237,-0.389721,0.0166456,0
2024-11-29 17:55:35.123,-0.478864,2.75803,13.7973,-0.155079,-0.384223,0.0117588,0
2024-11-29 17:55:35.126,-0.431007,2.77238,13.8715,-0.136753,-0.373228,0.00931542,0
2024-11-29 17:55:35.127,-0.404686,2.79631,13.9337,-0.117817,-0.3604,0.00565034,0
2024-11-29 17:55:35.131,-0.375972,2.82503,13.9816,-0.0988809,-0.346961,0.00137441,3
2024-11-29 17:55:35.132,-0.337687,2.8346,14.0079,-0.0842206,-0.329858,-0.00167983,0
2024-11-29 17:55:35.135,-0.320937,2.85613,14.0246,-0.0683385,-0.313975,-0.00412322,0
2024-11-29 17:55:35.137,-0.299402,2.87767,14.0294,-0.0561216,-0.298704,-0.00595576,0
2024-11-29 17:55:35.140,-0.260818,2.88485,14.0151,-0.0439046,-0.283433,-0.0108425,0
2024-11-29 17:55:35.144,-0.174676,2.90878,13.9265,-0.0316877,-0.255334,-0.016951,0
2024-11-29 17:55:35.145,-0.174676,2.90878,13.9265,-0.0268009,-0.244339,-0.0218378,0
2024-11-29 17:55:35.146,-0.12682,2.91835,13.8811,-0.0268009,-0.244339,-0.0218378,0
2024-11-29 17:55:35.150,-0.0789631,2.91595,13.8236,-0.0292443,-0.233344,-0.024892,0
2024-11-29 17:55:35.151,-0.0382852,2.92074,13.7686,-0.0316877,-0.224181,-0.0316113,0
2024-11-29 17:55:35.154,0.0119641,2.92552,13.7228,-0.038407,-0.218072,-0.0407741,0
2024-11-29 17:55:35.157,0.0550349,2.91835,13.6654,-0.0573433,-0.203412,-0.0554344,0
2024-11-29 17:55:35.159,0.0837488,2.92313,13.6223,-0.0573433,-0.203412,-0.0554344,0
2024-11-29 17:55:35.161,0.114855,2.93988,13.5888,-0.0726145,-0.200358,-0.0658188,0
2024-11-29 17:55:35.164,0.141177,2.96142,13.5625,-0.101935,-0.189974,-0.0853659,0
2024-11-29 17:55:35.165,0.148355,2.98774,13.5386,-0.101935,-0.189974,-0.0853659,0
2024-11-29 17:55:35.168,0.153141,3.01645,13.5218,-0.117206,-0.184476,-0.0945286,0
2024-11-29 17:55:35.170,0.177069,3.03559,13.5075,-0.135532,-0.180811,-0.103691,0
2024-11-29 17:55:35.173,0.22014,3.04756,13.4907,-0.15569,-0.175313,-0.114076,0
2024-11-29 17:55:35.176,0.263211,3.05952,13.4764,-0.194784,-0.159431,-0.135455,0
2024-11-29 17:55:35.178,0.30658,3.05234,13.4764,-0.216164,-0.153323,-0.147061,0
2024-11-29 17:55:35.179,0.335294,3.04277,13.4931,-0.216164,-0.153323,-0.147061,0
2024-11-29 17:55:35.183,0.366401,3.04038,13.5194,-0.2351,-0.147214,-0.158057,0
2024-11-29 17:55:35.184,0.409472,3.05234,13.5577,-0.252814,-0.141106,-0.169052,0
2024-11-29 17:55:35.187,0.438186,3.05234,13.6008,-0.285189,-0.133776,-0.199594,0
2024-11-29 17:55:35.190,0.474078,3.04517,13.6319,-0.299239,-0.133165,-0.213644,0
2024-11-29 17:55:35.192,0.507577,3.04517,13.6534,-0.31451,-0.130721,-0.228915,0
2024-11-29 17:55:35.194,0.524327,3.02842,13.6654,-0.31451,-0.130721,-0.228915,0
2024-11-29 17:55:35.196,0.555434,3.01645,13.6558,-0.326116,-0.128889,-0.245408,0
2024-11-29 17:55:35.199,0.576969,3.0021,13.6415,-0.338333,-0.130721,-0.263733,0
2024-11-29 17:55:35.201,0.591326,2.97099,13.6271,-0.347496,-0.128278,-0.278394,0
2024-11-29 17:55:35.204,0.591326,2.93988,13.5984,-0.370097,-0.127667,-0.31199,0
2024-11-29 17:55:35.206,0.593719,2.90399,13.5482,-0.370097,-0.127667,-0.31199,0
2024-11-29 17:55:35.208,0.608076,2.8657,13.5051,-0.382314,-0.128889,-0.330316,0
2024-11-29 17:55:35.210,0.617647,2.8322,13.4764,-0.393309,-0.131943,-0.346198,0
2024-11-29 17:55:35.213,0.634397,2.78674,13.4429,-0.406137,-0.141106,-0.363301,0
2024-11-29 17:55:35.216,0.639183,2.7341,13.407,-0.430571,-0.16554,-0.390179,0
2024-11-29 17:55:35.217,0.641576,2.68385,13.395,-0.430571,-0.16554,-0.390179,0
2024-11-29 17:55:35.220,0.648754,2.62881,13.3902,-0.442788,-0.180811,-0.403617,0
2024-11-29 17:55:35.223,0.672682,2.56899,13.3711,-0.456227,-0.195471,-0.417056,0
2024-11-29 17:55:35.225,0.71336,2.50648,13.3639,-0.479439,-0.221738,-0.442712,0
2024-11-29 17:55:35.226,0.744467,2.45623,13.3902,-0.479439,-0.221738,-0.442712,0
2024-11-29 17:55:35.230,0.785145,2.42273,13.4357,-0.486769,-0.233955,-0.453096,0
2024-11-29 17:55:35.231,0.811466,2.36531,13.4859,-0.491656,-0.24495,-0.465313,0
2024-11-29 17:55:35.233,0.835394,2.3007,13.5338,-0.49471,-0.253502,-0.47753,0
2024-11-29 17:55:35.236,0.876371,2.24088,13.596,-0.495932,-0.262053,-0.489136,0
2024-11-29 17:55:35.238,0.907478,2.17866,13.6702,-0.491045,-0.269384,-0.500742,0
2024-11-29 17:55:35.240,0.940978,2.11884,13.7348,-0.486769,-0.275492,-0.512348,0
2024-11-29 17:55:35.244,0.964906,2.04706,13.8141,-0.472719,-0.279157,-0.523343,0
2024-11-29 17:55:35.245,0.981655,1.99202,13.9002,-0.472719,-0.279157,-0.523343,0
2024-11-29 17:55:35.249,0.979263,1.91994,13.9672,-0.417743,-0.281601,-0.555107,0
2024-11-29 17:55:35.250,0.969691,1.84098,14.0079,-0.417743,-0.281601,-0.555107,0
2024-11-29 17:55:35.252,0.957727,1.79312,14.0438,-0.388422,-0.271827,-0.565492,0
2024-11-29 17:55:35.256,0.933799,1.73809,14.0581,-0.321229,-0.243728,-0.577709,0
2024-11-29 17:55:35.257,0.888335,1.69023,14.0486,-0.321229,-0.243728,-0.577709,0
2024-11-29 17:55:35.259,0.862014,1.64477,14.0127,-0.280913,-0.218683,-0.583817,0
2024-11-29 17:55:35.263,0.830609,1.60409,13.9361,-0.19906,-0.160042,-0.597256,0
2024-11-29 17:55:35.264,0.794716,1.55862,13.8595,-0.19906,-0.160042,-0.597256,0
2024-11-29 17:55:35.266,0.761217,1.51077,13.7614,-0.153857,-0.124613,-0.599088,0
2024-11-29 17:55:35.269,0.703789,1.46052,13.6271,-0.107433,-0.0867403,-0.599699,0
2024-11-29 17:55:35.271,0.634397,1.41984,13.4668,-0.0616192,-0.0470352,-0.597867,0
2024-11-29 17:55:35.273,0.569791,1.37647,13.2826,-0.0121406,-0.00183254,-0.594813,0
2024-11-29 17:55:35.277,0.507577,1.34297,13.0884,0.0385597,0.0464244,-0.588704,0
2024-11-29 17:55:35.279,0.419043,1.32622,12.8779,0.0831516,0.0940705,-0.582596,0
2024-11-29 17:55:35.281,0.320937,1.31186,12.629,0.128354,0.141717,-0.570379,0
2024-11-29 17:55:35.283,0.234497,1.30229,12.3655,0.17539,0.192417,-0.559383,0
2024-11-29 17:55:35.286,0.162712,1.29751,12.0855,0.26213,0.28832,-0.533117,0
2024-11-29 17:55:35.289,0.0837488,1.28554,11.7909,0.26213,0.28832,-0.533117,0
2024-11-29 17:55:35.291,0.0,1.2664,11.4987,0.300613,0.335355,-0.514792,0
2024-11-29 17:55:35.292,-0.0741775,1.24726,11.1829,0.335431,0.376893,-0.49952,0
2024-11-29 17:55:35.296,-0.143569,1.24726,10.8547,0.366585,0.417209,-0.48486,0
2024-11-29 17:55:35.297,-0.193819,1.24487,10.5461,0.397127,0.452027,-0.467145,0
2024-11-29 17:55:35.299,-0.224925,1.2329,10.2562,0.419728,0.480737,-0.449431,0
2024-11-29 17:55:35.304,-0.246461,1.21615,9.68405,0.456379,0.528994,-0.418278,0
2024-11-29 17:55:35.305,-0.246461,1.21615,9.68405,0.456379,0.528994,-0.418278,0
2024-11-29 17:55:35.306,-0.263211,1.22094,9.37538,0.469818,0.546708,-0.404228,0
2024-11-29 17:55:35.309,-0.301795,1.24247,9.0688,0.475926,0.560147,-0.3914,0
2024-11-29 17:55:35.312,-0.337687,1.27358,8.78405,0.477148,0.571142,-0.364523,0
2024-11-29 17:55:35.315,-0.364008,1.30229,8.51336,0.477148,0.571142,-0.364523,0
2024-11-29 17:55:35.316,-0.387936,1.33101,8.2693,0.470429,0.566255,-0.35536,0
2024-11-29 17:55:35.319,-0.409472,1.36451,8.05843,0.45699,0.56259,-0.341922,0
2024-11-29 17:55:35.321,-0.419043,1.39561,7.867,0.443551,0.551595,-0.329094,0
2024-11-29 17:55:35.323,-0.423829,1.41984,7.68754,0.425837,0.536324,-0.318099,0
2024-11-29 17:55:35.325,-0.438186,1.45095,7.53649,0.408122,0.51922,-0.308936,0
2024-11-29 17:55:35.328,-0.438186,1.48684,7.42403,0.385521,0.495397,-0.299162,0
2024-11-29 17:55:35.331,-0.407079,1.52513,7.3355,0.362309,0.469131,-0.290611,0
2024-11-29 17:55:35.332,-0.371187,1.5658,7.27807,0.339707,0.438588,-0.283891,0
2024-11-29 17:55:35.335,-0.337687,1.6017,7.25893,0.317106,0.404381,-0.279004,0
2024-11-29 17:55:35.337,-0.282652,1.64237,7.25893,0.295726,0.36773,-0.276561,0
2024-11-29 17:55:35.340,-0.217747,1.68066,7.28525,0.274958,0.328025,-0.275339,0
2024-11-29 17:55:35.342,-0.138784,1.69262,7.32353,0.258465,0.285266,-0.277783,0
2024-11-29 17:55:35.344,-0.0526421,1.69502,7.38335,0.241972,0.237009,-0.280837,0
2024-11-29 17:55:35.347,0.0311067,1.68305,7.46471,0.226701,0.18753,-0.285724,0
2024-11-29 17:55:35.349,0.11007,1.68305,7.54128,0.213873,0.138662,-0.294886,0
2024-11-29 17:55:35.352,0.196211,1.69262,7.62533,0.196158,0.03604,-0.315044,0
2024-11-29 17:55:35.354,0.285045,1.68544,7.71386,0.196158,0.03604,-0.315044,0
2024-11-29 17:55:35.357,0.364008,1.67348,7.78804,0.189439,-0.064139,-0.349252,0
2024-11-29 17:55:35.359,0.438186,1.65194,7.84547,0.189439,-0.064139,-0.349252,0
2024-11-29 17:55:35.361,0.500399,1.62802,7.92204,0.186385,-0.114228,-0.365745,0
2024-11-29 17:55:35.363,0.550648,1.61605,8.001,0.184552,-0.161264,-0.38407,0
2024-11-29 17:55:35.365,0.591326,1.59691,8.068,0.188217,-0.211964,-0.401785,0
2024-11-29 17:55:35.368,0.624826,1.55145,8.12303,0.187606,-0.258388,-0.418278,0
2024-11-29 17:55:35.371,0.639183,1.51555,8.1664,0.194937,-0.348794,-0.449431,0
2024-11-29 17:55:35.373,0.646361,1.47488,8.21187,0.194937,-0.348794,-0.449431,0
2024-11-29 17:55:35.375,0.672682,1.41745,8.24058,0.195547,-0.389721,-0.461648,0
2024-11-29 17:55:35.378,0.691825,1.36929,8.25972,0.200434,-0.463633,-0.484249,0
2024-11-29 17:55:35.380,0.689432,1.29751,8.27647,0.200434,-0.463633,-0.484249,0
2024-11-29 17:55:35.382,0.687039,1.23529,8.29562,0.20471,-0.496008,-0.494634,0
2024-11-29 17:55:35.384,0.684646,1.20419,8.32194,0.206543,-0.525329,-0.500742,0
2024-11-29 17:55:35.388,0.675075,1.1659,8.33869,0.209597,-0.576029,-0.510516,0
2024-11-29 17:55:35.390,0.658325,1.10848,8.3363,0.209597,-0.576029,-0.510516,0
2024-11-29 17:55:35.392,0.63679,1.05823,8.32672,0.21204,-0.616345,-0.516624,0
2024-11-29 17:55:35.395,0.608076,1.0343,8.30997,0.21204,-0.616345,-0.516624,0
2024-11-29 17:55:35.397,0.588933,1.01994,8.3004,0.210819,-0.632838,-0.5209,0
2024-11-29 17:55:35.398,0.591326,1.0008,8.32912,0.210208,-0.646887,-0.521511,0
2024-11-29 17:55:35.402,0.596112,0.984048,8.36979,0.210208,-0.646887,-0.521511,0
2024-11-29 17:55:35.404,0.593719,0.967299,8.39133,0.213262,-0.678651,-0.527008,0
2024-11-29 17:55:35.405,0.576969,0.945763,8.40569,0.213262,-0.678651,-0.527008,0
2024-11-29 17:55:35.409,0.557827,0.921835,8.40329,0.216927,-0.67743,-0.530063,0
2024-11-29 17:55:35.411,0.531506,0.902692,8.38415,0.221203,-0.671932,-0.530063,0
2024-11-29 17:55:35.412,0.495613,0.905085,8.36979,0.221203,-0.671932,-0.530063,0
2024-11-29 17:55:35.416,0.462114,0.912264,8.35304,0.225479,-0.644444,-0.525176,0
2024-11-29 17:55:35.418,0.414257,0.897907,8.3339,0.225479,-0.644444,-0.525176,0
2024-11-29 17:55:35.421,0.375972,0.88355,8.31237,0.234031,-0.599241,-0.514792,0
2024-11-29 17:55:35.423,0.361615,0.873978,8.27887,0.234031,-0.599241,-0.514792,0
2024-11-29 17:55:35.425,0.347258,0.878764,8.2358,0.236474,-0.571753,-0.506851,0
2024-11-29 17:55:35.427,0.320937,0.897907,8.20948,0.242583,-0.537546,-0.498299,0
2024-11-29 17:55:35.429,0.294616,0.893121,8.17358,0.246248,-0.503338,-0.487914,0
2024-11-29 17:55:35.435,0.193819,0.893121,8.04168,0.259686,-0.390331,-0.451874,0
2024-11-29 17:55:35.435,0.193819,0.893121,8.04168,0.259686,-0.390331,-0.451874,0
2024-11-29 17:55:35.437,0.11007,0.876371,7.97947,0.262741,-0.351848,-0.437214,0
2024-11-29 17:55:35.438,0.0646062,0.862014,7.90529,0.262741,-0.351848,-0.437214,0
2024-11-29 17:55:35.441,0.0287139,0.864407,7.84786,0.267627,-0.315197,-0.420721,0
2024-11-29 17:55:35.443,-0.0382852,0.876371,7.79522,0.273125,-0.279768,-0.40545,0
2024-11-29 17:55:35.445,-0.112463,0.888335,7.72822,0.27679,-0.248004,-0.390179,0
2024-11-29 17:55:35.448,-0.184247,0.909871,7.67079,0.281066,-0.217462,-0.372464,0
2024-11-29 17:55:35.450,-0.244068,0.938585,7.60858,0.287175,-0.191195,-0.35475,0
2024-11-29 17:55:35.452,-0.299402,0.974477,7.55803,0.292061,-0.167983,-0.337646,0
2024-11-29 17:55:35.456,-0.35683,0.996012,7.50539,0.29817,-0.146603,-0.321764,0
2024-11-29 17:55:35.458,-0.397508,1.01994,7.4336,0.306111,-0.109953,-0.283891,0
2024-11-29 17:55:35.460,-0.41665,1.05105,7.35703,0.306111,-0.109953,-0.283891,0
2024-11-29 17:55:35.463,-0.459721,1.07019,7.2685,0.313441,-0.0940705,-0.269231,0
2024-11-29 17:55:35.464,-0.476471,1.08455,7.2015,0.317717,-0.0794101,-0.250906,0
2024-11-29 17:55:35.467,-0.4669,1.11326,7.12732,0.322604,-0.0665824,-0.235634,0
2024-11-29 17:55:35.470,-0.459721,1.14197,7.04357,0.329934,-0.0537546,-0.218531,0
2024-11-29 17:55:35.472,-0.438186,1.1659,6.97388,0.329934,-0.0537546,-0.218531,0
2024-11-29 17:55:35.474,-0.41665,1.19462,6.8997,0.336653,-0.0287098,-0.188599,0
2024-11-29 17:55:35.477,-0.387936,1.22572,6.81596,0.34154,-0.0195471,-0.17455,0
2024-11-29 17:55:35.479,-0.359223,1.25204,6.74178,0.342762,-0.0122169,-0.162333,0
2024-11-29 17:55:35.482,-0.325723,1.27119,6.66042,0.344594,-0.00183254,-0.151337,0
2024-11-29 17:55:35.483,-0.277567,1.27597,6.56232,0.343983,0.00794101,-0.140953,0
2024-11-29 17:55:35.488,-0.196211,1.30708,6.38973,0.343983,0.00794101,-0.140953,0
2024-11-29 17:55:35.490,-0.148355,1.32861,6.29402,0.339707,0.0232122,-0.118352,0
2024-11-29 17:55:35.491,-0.148355,1.32861,6.29402,0.334821,0.0262664,-0.112243,0
2024-11-29 17:55:35.494,-0.0981057,1.35254,6.2007,0.334821,0.0262664,-0.112243,0
2024-11-29 17:55:35.495,-0.0502493,1.37886,6.12892,0.334821,0.0262664,-0.112243,0
2024-11-29 17:55:35.497,-0.0167498,1.41506,6.0691,0.316495,0.0244339,-0.105524,0
2024-11-29 17:55:35.507,0.026321,1.57059,6.01645,0.274958,-0.00305424,-0.101859,0
2024-11-29 17:55:35.508,0.026321,1.57059,6.01645,0.265795,-0.0116061,-0.104302,0
2024-11-29 17:55:35.509,0.0239282,1.5993,6.01645,0.265795,-0.0116061,-0.104302,0
2024-11-29 17:55:35.509,0.0239282,1.5993,6.01645,0.265795,-0.0116061,-0.104302,0
2024-11-29 17:55:35.509,0.0239282,1.5993,6.01645,0.265795,-0.0116061,-0.104302,0
2024-11-29 17:55:35.511,0.00957129,1.61845,5.99013,0.259076,-0.0189363,-0.104913,0
2024-11-29 17:55:35.514,-0.0119641,1.64955,5.98295,0.249302,-0.0262664,-0.107967,0
2024-11-29 17:55:35.517,-0.0143569,1.69262,5.99492,0.238307,-0.0384834,-0.109189,0
2024-11-29 17:55:35.518,-0.0287139,1.70459,6.03081,0.230366,-0.0525329,-0.112243,0
2024-11-29 17:55:35.521,-0.0478565,1.70937,6.07149,0.222425,-0.0684149,-0.115908,0
2024-11-29 17:55:35.524,-0.0741775,1.73569,6.1002,0.209597,-0.105066,-0.120184,0
2024-11-29 17:55:35.527,-0.112463,1.76201,6.1337,0.209597,-0.105066,-0.120184,0
2024-11-29 17:55:35.528,-0.145962,1.78355,6.16959,0.20471,-0.124613,-0.126293,0
2024-11-29 17:55:35.530,-0.16989,1.81705,6.21027,0.199823,-0.147214,-0.128736,0
2024-11-29 17:55:35.533,-0.196211,1.84816,6.2342,0.193715,-0.16554,-0.133012,0
2024-11-29 17:55:35.535,-0.239282,1.85773,6.25095,0.188828,-0.185698,-0.136066,0
2024-11-29 17:55:35.538,-0.27996,1.87208,6.25813,0.177222,-0.222348,-0.140342,0
2024-11-29 17:55:35.541,-0.311366,1.89841,6.27488,0.174168,-0.23823,-0.144618,0
2024-11-29 17:55:35.542,-0.328116,1.91276,6.29402,0.174168,-0.23823,-0.144618,0
2024-11-29 17:55:35.545,-0.364008,1.92233,6.30598,0.170503,-0.256556,-0.145229,0
2024-11-29 17:55:35.548,-0.41665,1.94387,6.32991,0.159507,-0.293207,-0.147672,0
2024-11-29 17:55:35.550,-0.459721,1.9681,6.35145,0.152788,-0.31031,-0.148894,0
2024-11-29 17:55:35.552,-0.498006,1.99681,6.36341,0.152788,-0.31031,-0.148894,0
2024-11-29 17:55:35.554,-0.519542,2.02074,6.39213,0.145458,-0.327414,-0.148283,0
2024-11-29 17:55:35.557,-0.531506,2.03031,6.41845,0.125911,-0.362843,-0.149505,0
2024-11-29 17:55:35.559,-0.54347,2.04227,6.43998,0.125911,-0.362843,-0.149505,0
2024-11-29 17:55:35.561,-0.548256,2.0686,6.46182,0.116137,-0.378725,-0.150116,0
2024-11-29 17:55:35.564,-0.553041,2.09492,6.49771,0.0947577,-0.407435,-0.151337,0
2024-11-29 17:55:35.567,-0.553041,2.10927,6.51446,0.0947577,-0.407435,-0.151337,0
2024-11-29 17:55:35.568,-0.545863,2.12842,6.51446,0.0831516,-0.421485,-0.152559,0
2024-11-29 17:55:35.571,-0.553041,2.14517,6.54078,0.0721563,-0.431258,-0.154392,0
2024-11-29 17:55:35.573,-0.56022,2.15474,6.57428,0.0556635,-0.442253,-0.156835,0
2024-11-29 17:55:35.575,-0.555434,2.17388,6.60778,0.0403923,-0.45386,-0.159278,0
2024-11-29 17:55:35.578,-0.567398,2.19302,6.64846,0.0257319,-0.463022,-0.162333,0
2024-11-29 17:55:35.580,-0.572184,2.19541,6.69392,0.00923906,-0.474628,-0.163554,0
2024-11-29 17:55:35.583,-0.584148,2.18584,6.76331,-0.00725381,-0.48318,-0.164776,0
2024-11-29 17:55:35.585,-0.617647,2.19541,6.84706,-0.0255792,-0.494786,-0.168441,0
2024-11-29 17:55:35.588,-0.655932,2.22174,6.9021,-0.0420721,-0.503338,-0.16783,0
2024-11-29 17:55:35.589,-0.691825,2.23849,6.97149,-0.058565,-0.510668,-0.166609,0
2024-11-29 17:55:35.591,-0.722932,2.24327,7.06032,-0.0781121,-0.519831,-0.166609,0
2024-11-29 17:55:35.594,-0.751645,2.25045,7.15125,-0.0988809,-0.52655,-0.164776,0
2024-11-29 17:55:35.597,-0.775574,2.26959,7.23978,-0.11293,-0.530826,-0.1605,0
2024-11-29 17:55:35.599,-0.785145,2.27438,7.3355,-0.130645,-0.536324,-0.156835,0
2024-11-29 17:55:35.602,-0.782752,2.26959,7.44078,-0.16302,-0.541822,-0.14584,0
2024-11-29 17:55:35.604,-0.773181,2.27438,7.53649,-0.16302,-0.541822,-0.14584,0
2024-11-29 17:55:35.606,-0.76361,2.29352,7.63729,-0.17768,-0.546097,-0.13851,0
2024-11-29 17:55:35.608,-0.74686,2.30309,7.72343,-0.193562,-0.546097,-0.132401,0
2024-11-29 17:55:35.610,-0.725324,2.29591,7.80718,-0.208833,-0.544876,-0.128736,0
2024-11-29 17:55:35.613,-0.706182,2.29113,7.90289,-0.228381,-0.5406,-0.122628,0
2024-11-29 17:55:35.616,-0.687039,2.30309,7.99143,-0.24243,-0.53327,-0.11713,0
2024-11-29 17:55:35.617,-0.694218,2.31984,8.07996,-0.260755,-0.527772,-0.111021,0
2024-11-29 17:55:35.620,-0.675075,2.31745,8.18555,-0.276027,-0.521664,-0.107356,0
2024-11-29 17:55:35.622,-0.641576,2.3342,8.30997,-0.29313,-0.513723,-0.104913,0
2024-11-29 17:55:35.624,-0.639183,2.36291,8.43679,-0.312067,-0.508836,-0.0988045,0
2024-11-29 17:55:35.628,-0.634397,2.39163,8.57797,-0.324894,-0.50456,-0.0945286,0
2024-11-29 17:55:35.629,-0.62004,2.41555,8.72902,-0.338944,-0.499673,-0.0920852,0
2024-11-29 17:55:35.632,-0.600898,2.44666,8.85584,-0.358491,-0.491732,-0.0878093,0
2024-11-29 17:55:35.635,-0.576969,2.48255,9.00419,-0.379871,-0.480126,-0.0804791,0
2024-11-29 17:55:35.636,-0.557827,2.49452,9.16212,-0.379871,-0.480126,-0.0804791,0
2024-11-29 17:55:35.640,-0.52672,2.5017,9.32513,-0.404915,-0.46852,-0.0743707,0
2024-11-29 17:55:35.641,-0.476471,2.51127,9.48545,-0.404915,-0.46852,-0.0743707,0
2024-11-29 17:55:35.643,-0.442971,2.51845,9.62663,-0.412856,-0.463633,-0.0762032,0
2024-11-29 17:55:35.646,-0.409472,2.5331,9.78216,-0.42263,-0.458135,-0.0792574,0
2024-11-29 17:55:35.648,-0.344866,2.53789,9.95235,-0.428128,-0.456914,-0.0829225,0
2024-11-29 17:55:35.650,-0.282652,2.54028,10.127,-0.435458,-0.455692,-0.0884201,0
2024-11-29 17:55:35.654,-0.258425,2.53789,10.2945,-0.440955,-0.45386,-0.0945286,0
2024-11-29 17:55:35.656,-0.244068,2.5331,10.4671,-0.446453,-0.446529,-0.110411,0
2024-11-29 17:55:35.657,-0.236889,2.52832,10.6466,-0.446453,-0.446529,-0.110411,0
2024-11-29 17:55:35.661,-0.246461,2.52592,10.826,-0.447675,-0.444086,-0.115297,0
2024-11-29 17:55:35.663,-0.267996,2.52592,10.9986,-0.445231,-0.437367,-0.121406,0
2024-11-29 17:55:35.665,-0.287438,2.52323,11.1781,-0.445231,-0.433702,-0.123238,0
2024-11-29 17:55:35.668,-0.311366,2.53071,11.3599,-0.437901,-0.420263,-0.125071,0
2024-11-29 17:55:35.669,-0.344866,2.54028,11.5349,-0.437901,-0.420263,-0.125071,0
2024-11-29 17:55:35.672,-0.361615,2.54746,11.7263,-0.431793,-0.411711,-0.123238,0
2024-11-29 17:55:35.675,-0.378365,2.55942,11.9034,-0.420187,-0.40377,-0.122628,0
2024-11-29 17:55:35.676,-0.402293,2.55942,12.0518,-0.409802,-0.390942,-0.121406,0
2024-11-29 17:55:35.679,-0.414257,2.54985,12.21,-0.398196,-0.377504,-0.118352,0
2024-11-29 17:55:35.682,-0.435793,2.55224,12.3583,-0.384147,-0.362843,-0.114076,0
2024-11-29 17:55:35.684,-0.452543,2.55703,12.5091,-0.369486,-0.345129,-0.108578,0
2024-11-29 17:55:35.687,-0.462114,2.5666,12.6314,-0.352993,-0.326192,-0.101859,0
2024-11-29 17:55:35.688,-0.483649,2.56899,12.7343,-0.335279,-0.306645,-0.096972,0
2024-11-29 17:55:35.691,-0.483649,2.57378,12.8516,-0.318786,-0.282822,-0.0884201,0
2024-11-29 17:55:35.694,-0.486042,2.57378,12.9329,-0.298628,-0.258388,-0.0792574,0
2024-11-29 17:55:35.696,-0.500399,2.58335,12.9879,-0.281524,-0.233955,-0.0682622,0
2024-11-29 17:55:35.698,-0.507577,2.60728,13.0549,-0.26381,-0.206466,-0.0597103,0
2024-11-29 17:55:35.701,-0.521934,2.62403,13.11,-0.228991,-0.148436,-0.0377198,0
2024-11-29 17:55:35.703,-0.541077,2.63839,13.1507,-0.228991,-0.148436,-0.0377198,0
2024-11-29 17:55:35.706,-0.553041,2.66471,13.1842,-0.197838,-0.0830752,-0.0145076,0
2024-11-29 17:55:35.707,-0.565005,2.69342,13.206,-0.197838,-0.0830752,-0.0145076,0
2024-11-29 17:55:35.710,-0.555434,2.7006,13.2203,-0.168517,-0.0195471,0.0123697,0
2024-11-29 17:55:35.713,-0.545863,2.71256,13.2275,-0.168517,-0.0195471,0.0123697,0
2024-11-29 17:55:35.714,-0.531506,2.73171,13.2275,-0.154468,0.0152712,0.0251975,0
2024-11-29 17:55:35.719,-0.469292,2.74846,13.218,-0.136753,0.0787993,0.0514639,0
2024-11-29 17:55:35.720,-0.469292,2.74846,13.218,-0.136753,0.0787993,0.0514639,0
2024-11-29 17:55:35.724,-0.41665,2.79153,13.1794,-0.136753,0.0787993,0.0514639,0
2024-11-29 17:55:35.726,-0.368794,2.81785,13.153,-0.123315,0.171648,0.086893,0
2024-11-29 17:55:35.727,-0.368794,2.81785,13.153,-0.120261,0.202801,0.0997208,0
2024-11-29 17:55:35.728,-0.32333,2.85135,13.1243,-0.120261,0.202801,0.0997208,0
2024-11-29 17:55:35.730,-0.267996,2.88245,13.1052,-0.119039,0.231511,0.109494,0
2024-11-29 17:55:35.734,-0.215354,2.91595,13.0884,-0.123926,0.290152,0.129041,0
2024-11-29 17:55:35.736,-0.179462,2.9351,13.0717,-0.12698,0.320084,0.138815,0
2024-11-29 17:55:35.738,-0.138784,2.9686,13.0502,-0.12698,0.320084,0.138815,0
2024-11-29 17:55:35.740,-0.0837488,3.00449,13.0454,-0.132477,0.349405,0.146145,0
2024-11-29 17:55:35.743,-0.026321,3.02602,13.0454,-0.137364,0.378725,0.154086,0
2024-11-29 17:55:35.746,0.0358923,3.05234,13.0502,-0.146527,0.435534,0.164471,0
2024-11-29 17:55:35.749,0.138784,3.09332,13.0597,-0.151414,0.461801,0.165692,0
2024-11-29 17:55:35.750,0.138784,3.09332,13.0597,-0.151414,0.461801,0.165692,0
2024-11-29 17:55:35.752,0.18664,3.13639,13.0693,-0.155079,0.48318,0.168136,0
2024-11-29 17:55:35.754,0.210568,3.15553,13.1028,-0.159966,0.50456,0.168747,0
2024-11-29 17:55:35.757,0.20339,3.18186,13.1195,-0.164852,0.525329,0.169357,0
2024-11-29 17:55:35.760,0.193819,3.21536,13.1483,-0.169739,0.563812,0.171801,0
2024-11-29 17:55:35.762,0.198604,3.23211,13.1842,-0.169739,0.563812,0.171801,0
2024-11-29 17:55:35.764,0.191426,3.25125,13.1916,-0.169128,0.58397,0.17119,0
2024-11-29 17:55:35.767,0.160319,3.28235,13.1842,-0.167296,0.615734,0.170579,0
2024-11-29 17:55:35.769,0.119641,3.30628,13.177,-0.168517,0.62734,0.176077,0
2024-11-29 17:55:35.770,0.0861416,3.31825,13.1794,-0.168517,0.62734,0.176077,0
2024-11-29 17:55:35.774,0.0550349,3.35175,13.1868,-0.166685,0.63467,0.177909,0
2024-11-29 17:55:35.776,0.0430708,3.38285,13.194,-0.164242,0.640779,0.176688,0
2024-11-29 17:55:35.779,0.0382852,3.38764,13.1892,-0.163631,0.644444,0.180964,0
2024-11-29 17:55:35.781,0.0167498,3.39242,13.1674,-0.162409,0.643222,0.182185,0
2024-11-29 17:55:35.783,-0.00957129,3.41875,13.1363,-0.161187,0.642611,0.182796,0
2024-11-29 17:55:35.786,-0.0454636,3.4331,13.1195,-0.15569,0.637114,0.184018,0
2024-11-29 17:55:35.788,-0.0741775,3.44028,13.098,-0.15569,0.637114,0.184018,0
2024-11-29 17:55:35.789,-0.0789631,3.45464,13.0837,-0.156301,0.632227,0.187072,0
2024-11-29 17:55:35.792,-0.0885344,3.45942,13.0837,-0.156911,0.623675,0.189515,0
2024-11-29 17:55:35.795,-0.0957129,3.46421,13.0693,-0.151414,0.61268,0.189515,0
2024-11-29 17:55:35.797,-0.114855,3.45942,13.0334,-0.149581,0.602906,0.191959,0
2024-11-29 17:55:35.800,-0.131605,3.46899,12.9951,-0.147749,0.588246,0.193791,0
2024-11-29 17:55:35.802,-0.131605,3.49053,12.9712,-0.145305,0.570531,0.191959,0
2024-11-29 17:55:35.803,-0.133998,3.48574,12.9401,-0.145305,0.554038,0.191348,0
2024-11-29 17:55:35.808,-0.138784,3.48574,12.8946,-0.145305,0.515555,0.191959,0
2024-11-29 17:55:35.809,-0.138784,3.48574,12.8946,-0.145305,0.515555,0.191959,0
2024-11-29 17:55:35.813,-0.162712,3.49771,12.8157,-0.14897,0.477072,0.187683,0
2024-11-29 17:55:35.814,-0.162712,3.49771,12.8157,-0.14897,0.477072,0.187683,0
2024-11-29 17:55:35.816,-0.160319,3.50728,12.7869,-0.153246,0.431258,0.18585,0
2024-11-29 17:55:35.819,-0.162712,3.49292,12.775,-0.157522,0.406213,0.183407,0
2024-11-29 17:55:35.820,-0.157926,3.49532,12.7487,-0.157522,0.406213,0.183407,0
2024-11-29 17:55:35.823,-0.145962,3.48574,12.7152,-0.162409,0.378725,0.180353,0
2024-11-29 17:55:35.825,-0.131605,3.4666,12.7056,-0.166685,0.348183,0.177298,0
2024-11-29 17:55:35.828,-0.107677,3.45464,12.696,-0.182567,0.280379,0.16386,0
2024-11-29 17:55:35.829,-0.0741775,3.43071,12.6697,-0.182567,0.280379,0.16386,0
2024-11-29 17:55:35.833,-0.0215354,3.39721,12.6434,-0.192951,0.244339,0.155308,0
2024-11-29 17:55:35.834,0.0382852,3.33739,12.6266,-0.203947,0.207688,0.146756,0
2024-11-29 17:55:35.837,0.114855,3.268,12.6266,-0.221661,0.167372,0.13515,0
2024-11-29 17:55:35.840,0.18664,3.201,12.6362,-0.236932,0.125835,0.122322,0
2024-11-29 17:55:35.841,0.263211,3.10768,12.6769,-0.257701,0.0812427,0.10644,0
2024-11-29 17:55:35.844,0.347258,3.00449,12.7271,-0.274805,0.0384834,0.0905581,0
2024-11-29 17:55:35.846,0.421436,2.91117,12.8013,-0.293741,-0.00794101,0.0740652,0
2024-11-29 17:55:35.848,0.476471,2.81306,12.9066,-0.311456,-0.0555871,0.0563507,0
2024-11-29 17:55:35.851,0.538684,2.71735,13.0286,-0.333446,-0.102011,0.0380252,0
2024-11-29 17:55:35.853,0.62004,2.61207,13.1722,-0.35055,-0.146603,0.0203107,0
2024-11-29 17:55:35.858,0.722932,2.37966,13.4644,-0.364599,-0.191195,0.00198525,0
2024-11-29 17:55:35.859,0.722932,2.37966,13.4644,-0.364599,-0.191195,0.00198525,0
2024-11-29 17:55:35.861,0.773181,2.26241,13.6199,-0.389033,-0.269994,-0.0352764,0
2024-11-29 17:55:35.863,0.780359,2.13559,13.783,-0.39392,-0.306034,-0.0505476,0
2024-11-29 17:55:35.865,0.785145,2.03988,13.9457,-0.395142,-0.340242,-0.0658188,0
2024-11-29 17:55:35.868,0.789931,1.95583,14.1419,-0.380481,-0.398883,-0.0994154,0
2024-11-29 17:55:35.869,0.799502,1.84816,14.3695,-0.380481,-0.398883,-0.0994154,0
2024-11-29 17:55:35.872,0.789931,1.77876,14.5801,-0.362156,-0.41782,-0.112854,0
2024-11-29 17:55:35.874,0.780359,1.69023,14.7643,-0.338333,-0.427593,-0.125682,0
2024-11-29 17:55:35.877,0.770788,1.57777,14.9321,-0.306569,-0.431869,-0.13912,0
2024-11-29 17:55:35.879,0.739681,1.48923,15.0829,-0.27114,-0.431258,-0.146451,0
2024-11-29 17:55:35.881,0.710967,1.39322,15.1881,-0.224105,-0.425761,-0.152559,3
2024-11-29 17:55:35.884,0.701396,1.29033,15.2575,-0.177069,-0.408657,-0.155613,0
2024-11-29 17:55:35.887,0.694218,1.19462,15.3006,-0.119039,-0.384223,-0.156224,0
2024-11-29 17:55:35.889,0.215354,1.31904,14.7978,-0.0170274,-0.249837,-0.122017,0
2024-11-29 17:55:35.891,-0.157926,1.45095,14.2304,-0.0170274,-0.249837,-0.122017,0
2024-11-29 17:55:35.894,0.0765703,1.32622,14.2208,0.0251211,-0.175313,-0.0939178,0
2024-11-29 17:55:35.895,0.256032,1.12044,14.2711,0.0691021,-0.123391,-0.0725381,0
2024-11-29 17:55:35.898,0.337687,0.8668,14.2137,0.117359,-0.080021,-0.0523802,0
2024-11-29 17:55:35.901,0.426222,0.593719,14.0701,0.163173,-0.0397051,-0.0340547,0
2024-11-29 17:55:35.902,0.529113,0.337687,13.917,0.21204,0.00794101,-0.0224486,0
2024-11-29 17:55:35.905,0.624826,0.150748,13.7566,0.268849,0.0757451,-0.0126751,0
2024-11-29 17:55:35.908,0.675075,0.0287139,13.5888,0.400181,0.251669,-0.00106898,0
2024-11-29 17:55:35.909,0.658325,-0.0382852,13.4189,0.400181,0.251669,-0.00106898,0
2024-11-29 17:55:35.913,0.557827,-0.0478565,13.206,0.470429,0.355513,0.00687203,0
2024-11-29 17:55:35.915,0.342473,-0.00478565,12.8994,0.546174,0.456914,0.0166456,0
2024-11-29 17:55:35.917,0.0646062,0.0478565,12.5163,0.618254,0.563812,0.0355819,0
2024-11-29 17:55:35.919,-0.239282,0.11007,12.0927,0.686058,0.663991,0.058794,0
2024-11-29 17:55:35.921,-0.54347,0.193819,11.6378,0.749586,0.753175,0.0862822,0
2024-11-29 17:55:35.924,-0.813859,0.272782,11.1709,0.80273,0.828309,0.118657,0
2024-11-29 17:55:35.927,-1.05105,0.34008,10.7016,0.888859,0.947424,0.195013,0
2024-11-29 17:55:35.929,-1.22572,0.395115,10.218,0.918791,0.990183,0.234107,0
2024-11-29 17:55:35.931,-1.34058,0.438186,9.70559,0.918791,0.990183,0.234107,0
2024-11-29 17:55:35.934,-1.42702,0.469292,9.17408,0.945057,1.03966,0.309852,0
2024-11-29 17:55:35.935,-1.35015,0.404686,8.85823,0.945057,1.03966,0.309852,0
2024-11-29 17:55:35.938,-1.05105,0.222533,8.8343,0.951776,1.02011,0.332454,0
2024-11-29 17:55:35.941,-1.00319,0.12682,8.6354,0.959107,0.987129,0.347725,0
2024-11-29 17:55:35.943,-1.14437,0.155533,8.20948,0.960328,0.961474,0.361774,0
2024-11-29 17:55:35.945,-1.18744,0.224925,7.83111,0.958496,0.945592,0.374602,0
2024-11-29 17:55:35.948,-1.27358,0.347258,7.48385,0.950555,0.933985,0.386819,0
2024-11-29 17:55:35.950,-1.34297,0.493221,7.18953,0.938338,0.923601,0.399647,0
2024-11-29 17:55:35.953,-1.41506,0.651147,6.95474,0.916347,0.897945,0.414307,0
2024-11-29 17:55:35.955,-1.51077,0.828216,6.78485,0.893135,0.859462,0.431411,0
2024-11-29 17:55:35.958,-1.58255,1.00558,6.69153,0.824109,0.72813,0.468673,0
2024-11-29 17:55:35.960,-1.66152,1.16112,6.56471,0.780128,0.649942,0.486998,0
2024-11-29 17:55:35.961,-1.74287,1.29033,6.35145,0.780128,0.649942,0.486998,0
2024-11-29 17:55:35.964,-1.72373,1.41266,6.19113,0.731871,0.572364,0.505323,0
2024-11-29 17:55:35.967,-1.64237,1.5323,6.11217,0.678117,0.492343,0.520595,0
2024-11-29 17:55:35.968,-1.5658,1.65194,6.05235,0.624973,0.415376,0.534033,0
2024-11-29 17:55:35.971,-1.46052,1.76919,6.05713,0.568775,0.337188,0.543807,0
2024-11-29 17:55:35.974,-1.33819,1.89841,6.13609,0.515631,0.260832,0.550526,0
2024-11-29 17:55:35.975,-1.21854,2.02074,6.24616,0.461266,0.179589,0.55358,0
2024-11-29 17:55:35.978,-1.05583,2.09492,6.42084,0.40629,0.0983464,0.549915,0
2024-11-29 17:55:35.980,-0.857229,2.09731,6.66281,0.359865,0.0122169,0.541974,0
2024-11-29 17:55:35.983,-0.651147,2.06381,6.93799,0.318939,-0.0769668,0.527314,0
2024-11-29 17:55:35.986,-0.428614,2.02313,7.22543,0.281066,-0.161264,0.506545,0
2024-11-29 17:55:35.988,-0.165105,1.96301,7.52214,0.252967,-0.241896,0.480279,0
2024-11-29 17:55:35.990,0.112463,1.90558,7.82872,0.23342,-0.315197,0.447293,0
2024-11-29 17:55:35.993,0.342473,1.8673,8.10389,0.221814,-0.38239,0.408199,0
2024-11-29 17:55:35.995,0.529113,1.85055,8.32194,0.214484,-0.444697,0.368494,0
2024-11-29 17:55:35.998,0.684646,1.82184,8.53011,0.216927,-0.549152,0.276867,0
2024-11-29 17:55:36.000,0.799502,1.78834,8.71466,0.216927,-0.549152,0.276867,0
2024-11-29 17:55:36.001,0.905085,1.7668,8.87259,0.220592,-0.588246,0.22922,0
2024-11-29 17:55:36.004,1.00798,1.73809,9.02094,0.227922,-0.616956,0.182185,0
2024-11-29 17:55:36.007,1.11326,1.70219,9.11665,0.249913,-0.65605,0.0862822,0
2024-11-29 17:55:36.009,1.19701,1.68305,9.19801,0.249913,-0.65605,0.0862822,0
2024-11-29 17:55:36.011,1.26401,1.66869,9.26052,0.258465,-0.665824,0.0386361,0
2024-11-29 17:55:36.013,1.31186,1.65194,9.29642,0.267627,-0.667656,-0.00717746,0
2024-11-29 17:55:36.015,1.31904,1.64237,9.32274,0.274958,-0.664602,-0.0548235,0
2024-11-29 17:55:36.018,1.29272,1.62562,9.32513,0.282288,-0.654217,-0.0994154,0
2024-11-29 17:55:36.021,1.25922,1.57537,9.29402,0.287785,-0.616956,-0.178826,0
2024-11-29 17:55:36.023,1.20897,1.5323,9.24826,0.287785,-0.616956,-0.178826,0
2024-11-29 17:55:36.026,1.14437,1.49402,9.21237,0.292061,-0.589468,-0.214866,0
2024-11-29 17:55:36.027,1.05823,1.43659,9.15494,0.291451,-0.55526,-0.250906,0
2024-11-29 17:55:36.031,0.917049,1.36929,9.1023,0.287175,-0.475239,-0.307714,0
2024-11-29 17:55:36.033,0.770788,1.30229,9.04487,0.287175,-0.475239,-0.307714,0
2024-11-29 17:55:36.034,0.617647,1.25204,8.95873,0.281677,-0.430036,-0.332148,0
2024-11-29 17:55:36.037,0.45015,1.20658,8.88216,0.278012,-0.384223,-0.34803,0
2024-11-29 17:55:36.040,0.275175,1.14437,8.81037,0.270682,-0.342685,-0.36208,0
2024-11-29 17:55:36.041,0.0933201,1.07976,8.72902,0.261519,-0.298093,-0.370632,0
2024-11-29 17:55:36.045,-0.0526421,1.0343,8.64736,0.24075,-0.210742,-0.375518,0
2024-11-29 17:55:36.047,-0.165105,0.996012,8.57797,0.231587,-0.163707,-0.372464,0
2024-11-29 17:55:36.049,-0.27996,0.962513,8.52533,0.231587,-0.163707,-0.372464,0
2024-11-29 17:55:36.052,-0.395115,0.948156,8.46551,0.209597,-0.0684149,-0.355971,0
2024-11-29 17:55:36.053,-0.50997,0.931406,8.39372,0.209597,-0.0684149,-0.355971,0
2024-11-29 17:55:36.057,-0.641576,0.914656,8.30758,0.189439,0.0348183,-0.327261,0
2024-11-29 17:55:36.059,-0.76361,0.9003,8.24298,0.178444,0.087962,-0.31199,0
2024-11-29 17:55:36.061,-0.845265,0.88355,8.18555,0.166838,0.139884,-0.292443,0
2024-11-29 17:55:36.063,-0.902692,0.854836,8.11107,0.166838,0.139884,-0.292443,0
2024-11-29 17:55:36.066,-0.957727,0.84018,8.03211,0.159507,0.189363,-0.273507,0
2024-11-29 17:55:36.067,-1.01515,0.837787,7.98186,0.149123,0.237009,-0.25396,0
2024-11-29 17:55:36.070,-1.08215,0.84018,7.93639,0.138739,0.281601,-0.234413,0
2024-11-29 17:55:36.072,-1.13719,0.871586,7.85743,0.135074,0.323749,-0.213644,0
2024-11-29 17:55:36.075,-1.18265,0.895514,7.78086,0.1253,0.358567,-0.194097,0
2024-11-29 17:55:36.077,-1.21854,0.905085,7.6995,0.117359,0.393386,-0.173328,0
2024-11-29 17:55:36.080,-1.2329,0.924228,7.61336,0.109418,0.424539,-0.156224,0
2024-11-29 17:55:36.081,-1.24487,0.96012,7.5341,0.100866,0.453249,-0.13851,0
2024-11-29 17:55:36.085,-1.25204,0.979263,7.44796,0.0941468,0.479515,-0.122628,0
2024-11-29 17:55:36.087,-1.25444,0.996012,7.38096,0.0868167,0.500895,-0.107356,0
2024-11-29 17:55:36.089,-1.24247,1.0319,7.31635,0.0782648,0.520442,-0.0914744,0
2024-11-29 17:55:36.092,-1.19462,1.05344,7.235,0.0629936,0.552206,-0.0676513,0
2024-11-29 17:55:36.094,-1.14676,1.06062,7.16321,0.0550526,0.568088,-0.0560452,0
2024-11-29 17:55:36.096,-1.10608,1.06301,7.11296,0.0550526,0.568088,-0.0560452,0
2024-11-29 17:55:36.099,-1.07019,1.07976,7.05554,0.0465007,0.580916,-0.0462717,0
2024-11-29 17:55:36.101,-1.03669,1.09412,6.99302,0.0318404,0.596187,-0.0310005,0
2024-11-29 17:55:36.104,-0.984048,1.10608,6.92602,0.0196235,0.603517,-0.0267246,0
2024-11-29 17:55:36.106,-0.938585,1.12522,6.84228,0.0196235,0.603517,-0.0267246,0
2024-11-29 17:55:36.107,-0.902692,1.13958,6.77767,0.0110716,0.607182,-0.0206161,0
2024-11-29 17:55:36.111,-0.881157,1.16112,6.73939,-0.00542127,0.609015,-0.0120642,0
2024-11-29 17:55:36.112,-0.869193,1.1683,6.70589,-0.00542127,0.609015,-0.0120642,0
2024-11-29 17:55:36.115,-0.835394,1.17308,6.66999,-0.0151948,0.60535,-0.0108425,0
2024-11-29 17:55:36.117,-0.799502,1.19222,6.64846,-0.022525,0.598019,-0.00962084,0
2024-11-29 17:55:36.120,-0.782752,1.21615,6.6341,-0.0310769,0.588857,-0.00656661,0
2024-11-29 17:55:36.121,-0.76361,1.23529,6.61735,-0.0371853,0.582137,-0.00412322,0
2024-11-29 17:55:36.124,-0.742074,1.24487,6.58624,-0.042683,0.570531,-0.00473407,0
2024-11-29 17:55:36.127,-0.73011,1.26162,6.57667,-0.0500131,0.558925,-0.00412322,0
2024-11-29 17:55:36.129,-0.722932,1.27119,6.56232,-0.0542891,0.545487,-0.00595576,0
2024-11-29 17:55:36.132,-0.715753,1.27837,6.54078,-0.0579541,0.529605,-0.00412322,0
2024-11-29 17:55:36.133,-0.727717,1.29512,6.53121,-0.0603975,0.515555,-0.00717746,0
2024-11-29 17:55:36.136,-0.739681,1.30708,6.50967,-0.0634518,0.496619,-0.0077883,0
2024-11-29 17:55:36.139,-0.74686,1.31186,6.50489,-0.066506,0.456303,-0.0102317,0
2024-11-29 17:55:36.141,-0.758824,1.31904,6.5001,-0.0689494,0.433091,-0.0108425,0
2024-11-29 17:55:36.143,-0.756431,1.33579,6.48575,-0.0689494,0.433091,-0.0108425,0
2024-11-29 17:55:36.146,-0.754038,1.34297,6.4666,-0.0713928,0.407435,-0.0102317,0
2024-11-29 17:55:36.147,-0.76361,1.34776,6.45464,-0.0713928,0.379947,-0.0138968,0
2024-11-29 17:55:36.151,-0.766002,1.35972,6.44238,-0.0750579,0.351237,-0.0145076,0
2024-11-29 17:55:36.153,-0.761217,1.35972,6.43041,-0.0775012,0.322527,-0.016951,0
2024-11-29 17:55:36.154,-0.754038,1.37886,6.41845,-0.0805555,0.293818,-0.0193944,0
2024-11-29 17:55:36.158,-0.742074,1.39561,6.40648,-0.0884965,0.231511,-0.0236703,0
2024-11-29 17:55:36.160,-0.732503,1.38844,6.39691,-0.0927724,0.199136,-0.029168,0
2024-11-29 17:55:36.163,-0.74686,1.39322,6.41605,-0.0988809,0.170426,-0.0334439,0
2024-11-29 17:55:36.164,-0.782752,1.40788,6.44477,-0.0988809,0.170426,-0.0334439,0
2024-11-29 17:55:36.166,-0.804287,1.41984,6.4666,-0.106211,0.13683,-0.0358873,0
2024-11-29 17:55:36.170,-0.825823,1.43659,6.50489,-0.109265,0.102622,-0.0395524,0
2024-11-29 17:55:36.172,-0.869193,1.43659,6.56949,-0.114152,0.0751342,-0.0413849,0
2024-11-29 17:55:36.174,-0.914656,1.42941,6.65803,-0.122093,0.020158,-0.0462717,0
2024-11-29 17:55:36.176,-0.952942,1.43898,6.7346,-0.122093,0.020158,-0.0462717,0
2024-11-29 17:55:36.179,-0.981655,1.44855,6.82792,-0.125147,-0.00488678,-0.0468825,0
2024-11-29 17:55:36.180,-1.02473,1.4653,6.92602,-0.120871,-0.0213797,-0.0468825,0
2024-11-29 17:55:36.183,-1.07737,1.47966,6.99781,-0.117206,-0.0354291,-0.0444391,0
2024-11-29 17:55:36.186,-1.10369,1.47488,7.07229,-0.11293,-0.0482569,-0.0407741,0
2024-11-29 17:55:36.187,-1.12283,1.46052,7.14646,-0.106822,-0.0568088,-0.0383307,0
2024-11-29 17:55:36.191,-1.15633,1.45813,7.18714,-0.0927724,-0.0635281,-0.0297788,0
2024-11-29 17:55:36.193,-1.21376,1.44377,7.2015,-0.0927724,-0.0635281,-0.0297788,0
2024-11-29 17:55:36.195,-1.25444,1.43898,7.22543,-0.0878856,-0.0586413,-0.0224486,0
2024-11-29 17:55:36.197,-1.29272,1.43181,7.235,-0.0811663,-0.0525329,-0.0145076,0
2024-11-29 17:55:36.199,-1.35733,1.41745,7.21586,-0.074447,-0.0464244,-0.00351237,0
2024-11-29 17:55:36.203,-1.42463,1.4342,7.18236,-0.0677277,-0.0268773,0.0172564,0
2024-11-29 17:55:36.204,-1.48445,1.45095,7.14407,-0.0677277,-0.0268773,0.0172564,0
2024-11-29 17:55:36.207,-1.53948,1.47966,7.09382,-0.0677277,-0.0152712,0.0313059,0
2024-11-29 17:55:36.209,-1.58255,1.50598,7.05793,-0.0677277,-0.00488678,0.047188,0
2024-11-29 17:55:36.211,-1.61845,1.52513,7.01964,-0.0720036,0.00366508,0.0624591,0
2024-11-29 17:55:36.214,-1.64955,1.54905,6.95952,-0.0775012,0.0103844,0.0777303,0
2024-11-29 17:55:36.216,-1.66869,1.5658,6.8997,-0.0884965,0.0146603,0.0930015,0
2024-11-29 17:55:36.219,-1.68544,1.60887,6.85185,-0.101935,0.015882,0.109494,0
2024-11-29 17:55:36.220,-1.6998,1.65673,6.81356,-0.116595,0.0140495,0.125376,0
2024-11-29 17:55:36.223,-1.70219,1.69023,6.79203,-0.135532,0.00977356,0.138815,0
2024-11-29 17:55:36.225,-1.68784,1.73809,6.78246,-0.153246,0.00427593,0.148589,0
2024-11-29 17:55:36.227,-1.67348,1.81226,6.77288,-0.176459,-0.000610847,0.160806,0
2024-11-29 17:55:36.230,-1.65434,1.87208,6.78485,-0.197838,-0.00916271,0.169968,0
2024-11-29 17:55:36.232,-1.62084,1.93191,6.81117,-0.222272,-0.0164929,0.179131,0
2024-11-29 17:55:36.235,-1.58495,2.01595,6.84945,-0.249149,-0.0250447,0.184629,0
2024-11-29 17:55:36.238,-1.55145,2.08295,6.90688,-0.274805,-0.0354291,0.189515,0
2024-11-29 17:55:36.240,-1.51795,2.13081,6.97627,-0.322451,-0.0580305,0.196846,0
2024-11-29 17:55:36.243,-1.48205,2.17149,7.05314,-0.322451,-0.0580305,0.196846,0
2024-11-29 17:55:36.244,-1.42941,2.21934,7.13929,-0.322451,-0.0580305,0.196846,0
2024-11-29 17:55:36.246,-1.37647,2.27438,7.22064,-0.370708,-0.0812427,0.195624,0
2024-11-29 17:55:36.250,-1.31904,2.31745,7.31635,-0.420187,-0.109342,0.187683,0
2024-11-29 17:55:36.252,-1.26401,2.35334,7.41446,-0.420187,-0.109342,0.187683,0
2024-11-29 17:55:36.253,-1.23529,2.38445,7.52214,-0.44462,-0.12278,0.180353,0
2024-11-29 17:55:36.256,-1.23051,2.42034,7.65643,-0.465389,-0.137441,0.173633,0
2024-11-29 17:55:36.258,-1.22572,2.44666,7.78565,-0.485547,-0.15149,0.165692,0
2024-11-29 17:55:36.261,-1.20658,2.48016,7.91247,-0.507538,-0.16554,0.158362,0
2024-11-29 17:55:36.263,-1.18505,2.51605,8.05125,-0.525252,-0.182643,0.150421,0
2024-11-29 17:55:36.266,-1.15633,2.5331,8.18555,-0.542356,-0.199136,0.141258,0
2024-11-29 17:55:36.268,-1.12283,2.54746,8.31237,-0.558849,-0.215629,0.130874,0
2024-11-29 17:55:36.270,-1.09412,2.55464,8.4679,-0.573509,-0.233955,0.119879,0
2024-11-29 17:55:36.272,-1.05823,2.58096,8.64497,-0.587559,-0.253502,0.107051,0
2024-11-29 17:55:36.275,-1.01994,2.58335,8.82473,-0.599776,-0.275492,0.0936123,0
2024-11-29 17:55:36.277,-0.979263,2.56899,9.00898,-0.609549,-0.298704,0.0801737,0
2024-11-29 17:55:36.280,-0.940978,2.57617,9.19322,-0.619323,-0.320695,0.0667351,0
2024-11-29 17:55:36.283,-0.909871,2.57857,9.37777,-0.635281,-0.3604,0.0392469,0
2024-11-29 17:55:36.285,-0.881157,2.5666,9.55963,-0.635281,-0.3604,0.0392469,0
2024-11-29 17:55:36.286,-0.864407,2.54746,9.75823,-0.639557,-0.37506,0.0233649,0
2024-11-29 17:55:36.290,-0.859622,2.54746,9.9667,-0.640168,-0.399494,-0.00106898,0
2024-11-29 17:55:36.292,-0.859622,2.54507,10.1677,-0.640168,-0.399494,-0.00106898,0
2024-11-29 17:55:36.293,-0.857229,2.52832,10.3615,-0.636503,-0.402548,-0.0108425,0
2024-11-29 17:55:36.296,-0.847657,2.51605,10.5461,-0.629707,-0.40377,-0.0218378,0
2024-11-29 17:55:36.299,-0.842872,2.4993,10.7279,-0.622988,-0.402548,-0.0322222,0
2024-11-29 17:55:36.300,-0.859622,2.49452,10.8978,-0.613825,-0.398272,-0.0389415,0
2024-11-29 17:55:36.303,-0.895514,2.49691,11.0489,-0.600387,-0.390942,-0.0462717,0
2024-11-29 17:55:36.306,-0.931406,2.49691,11.2068,-0.587559,-0.38239,-0.0487151,0
2024-11-29 17:55:36.308,-0.97687,2.48734,11.3504,-0.573509,-0.370173,-0.0511585,0
2024-11-29 17:55:36.310,-1.02473,2.48495,11.4628,-0.558849,-0.356735,-0.0523802,0
2024-11-29 17:55:36.312,-1.08455,2.5017,11.5684,-0.541134,-0.342685,-0.052991,0
2024-11-29 17:55:36.315,-1.16351,2.5331,11.6641,-0.525863,-0.323138,-0.0499368,0
2024-11-29 17:55:36.318,-1.23769,2.54985,11.7479,-0.510592,-0.307256,-0.0444391,0
2024-11-29 17:55:36.319,-1.31186,2.55224,11.8173,-0.492877,-0.285266,-0.0377198,0
2024-11-29 17:55:36.323,-1.37169,2.56421,11.8866,-0.475774,-0.260221,-0.0273354,0
2024-11-29 17:55:36.325,-1.41506,2.57378,11.9656,-0.455005,-0.233955,-0.0193944,0
2024-11-29 17:55:36.326,-1.45095,2.57617,12.0302,-0.43729,-0.207688,-0.00839915,0
2024-11-29 17:55:36.329,-1.47727,2.57378,12.0808,-0.4153,-0.177146,0.00442864,0
2024-11-29 17:55:36.331,-1.61127,2.65274,11.9465,-0.39392,-0.144771,0.0166456,0
2024-11-29 17:55:36.333,-2.05902,2.87528,11.4102,-0.37926,-0.0763559,0.0380252,0
2024-11-29 17:55:36.337,-2.14038,2.99013,11.1183,-0.387812,0.000610847,0.0746761,0
2024-11-29 17:55:36.339,-1.8673,2.92552,11.2929,-0.393309,0.0458135,0.105829,0
2024-11-29 17:55:36.341,-1.78355,2.81785,11.4485,-0.399418,0.0635281,0.12782,0
2024-11-29 17:55:36.344,-1.64716,2.67189,11.5421,-0.409802,0.0665824,0.146756,0
2024-11-29 17:55:36.345,-1.49641,2.52084,11.5971,-0.417743,0.067804,0.159584,0
2024-11-29 17:55:36.348,-1.33819,2.39402,11.6282,-0.423852,0.07208,0.166914,0
2024-11-29 17:55:36.351,-1.19462,2.31266,11.6809,-0.425073,0.087962,0.168136,0
2024-11-29 17:55:36.352,-1.11565,2.28156,11.7455,-0.42263,0.113007,0.164471,0
2024-11-29 17:55:36.356,-1.11326,2.31745,11.7933,-0.415911,0.141106,0.162027,0
2024-11-29 17:55:36.358,-1.18265,2.38923,11.8627,-0.409802,0.16615,0.157751,0
2024-11-29 17:55:36.359,-1.30229,2.45863,11.9249,-0.400029,0.189363,0.155308,0
2024-11-29 17:55:36.362,-1.43659,2.51605,11.9608,-0.389644,0.20158,0.157751,0
2024-11-29 17:55:36.365,-1.55623,2.58574,11.9991,-0.384147,0.200969,0.162027,0
2024-11-29 17:55:36.366,-1.6663,2.6336,12.0374,-0.377427,0.196082,0.169968,0
2024-11-29 17:55:36.370,-1.73569,2.66949,12.035,-0.363378,0.174091,0.194402,0
2024-11-29 17:55:36.371,-1.75005,2.70778,11.9824,-0.363378,0.174091,0.194402,0
2024-11-29 17:55:36.374,-1.73569,2.74606,11.9369,-0.360324,0.16615,0.206619,0
2024-11-29 17:55:36.376,-1.69502,2.77238,11.9369,-0.356048,0.154544,0.219447,0
2024-11-29 17:55:36.379,-1.59452,2.74606,11.9824,-0.352383,0.141106,0.232275,0
2024-11-29 17:55:36.381,-1.44855,2.70539,12.0422,-0.349939,0.124613,0.239605,0
2024-11-29 17:55:36.384,-1.37408,2.7006,12.0541,-0.347496,0.105066,0.245713,0
2024-11-29 17:55:36.385,-1.37169,2.72453,12.0206,-0.346274,0.0891837,0.2506,0
2024-11-29 17:55:36.388,-1.36211,2.74606,12.0326,-0.343831,0.0726908,0.253043,0
2024-11-29 17:55:36.390,-1.32144,2.74846,12.1502,-0.34322,0.051922,0.256709,0
2024-11-29 17:55:36.392,-1.27358,2.75324,12.2746,-0.337722,0.0293207,0.259152,0
2024-11-29 17:55:36.395,-1.24965,2.78435,12.3057,-0.332835,0.00488678,0.262817,0
2024-11-29 17:55:36.398,-1.23051,2.81306,12.2913,-0.326727,-0.0207688,0.263428,0
2024-11-29 17:55:36.399,-1.20897,2.82981,12.3177,-0.320618,-0.0415376,0.26465,0
2024-11-29 17:55:36.403,-1.2018,2.8322,12.3847,-0.301682,-0.0812427,0.266482,0
2024-11-29 17:55:36.405,-1.17547,2.81545,12.4828,-0.288854,-0.102622,0.265871,0
2024-11-29 17:55:36.406,-1.14676,2.80349,12.5689,-0.288854,-0.102622,0.265871,0
2024-11-29 17:55:36.410,-1.13001,2.78435,12.6529,-0.262588,-0.145992,0.270147,0
2024-11-29 17:55:36.412,-1.08455,2.74846,12.7606,-0.262588,-0.145992,0.270147,0
2024-11-29 17:55:36.415,-1.01994,2.69342,12.8635,-0.246706,-0.16554,0.272591,0
2024-11-29 17:55:36.416,-0.988834,2.63839,12.9736,-0.228381,-0.185087,0.275645,0
2024-11-29 17:55:36.419,-0.979263,2.59053,13.0669,-0.187454,-0.219905,0.287251,0
2024-11-29 17:55:36.422,-0.967299,2.5331,13.1243,-0.187454,-0.219905,0.287251,0
2024-11-29 17:55:36.423,-0.945763,2.4993,13.1507,-0.168517,-0.226624,0.295192,0
2024-11-29 17:55:36.426,-0.912264,2.47537,13.1459,-0.145916,-0.2309,0.304965,0
2024-11-29 17:55:36.429,-0.88355,2.4347,13.1363,-0.125147,-0.234565,0.314128,0
2024-11-29 17:55:36.431,-0.852443,2.40598,13.1554,-0.086664,-0.235787,0.33734,0
2024-11-29 17:55:36.433,-0.825823,2.40598,13.1794,-0.086664,-0.235787,0.33734,0
2024-11-29 17:55:36.435,-0.804287,2.39641,13.218,-0.066506,-0.239452,0.348336,0
2024-11-29 17:55:36.437,-0.777966,2.38684,13.2491,-0.050624,-0.245561,0.359942,0
2024-11-29 17:55:36.439,-0.758824,2.38923,13.2515,-0.0335202,-0.254112,0.372159,0
2024-11-29 17:55:36.442,-0.722932,2.38684,13.2036,-0.0200816,-0.269384,0.383154,0
2024-11-29 17:55:36.445,-0.646361,2.34377,13.0047,-0.0200816,-0.306645,0.396593,0
2024-11-29 17:55:36.447,-0.555434,2.34138,12.7893,-0.038407,-0.37506,0.411864,0
2024-11-29 17:55:36.449,-0.402293,2.40598,12.6434,-0.0524565,-0.406824,0.421026,0
2024-11-29 17:55:36.452,-0.208176,2.48734,12.5187,-0.066506,-0.398883,0.427746,0
2024-11-29 17:55:36.454,-0.0574277,2.58335,12.4517,-0.0726145,-0.365898,0.427746,0
2024-11-29 17:55:36.456,0.0478565,2.65274,12.4684,-0.0805555,-0.324971,0.421026,0
2024-11-29 17:55:36.459,0.114855,2.69581,12.5785,-0.0891073,-0.286487,0.413696,0
2024-11-29 17:55:36.461,0.193819,2.72213,12.7439,-0.0970484,-0.260832,0.403312,0
2024-11-29 17:55:36.464,0.294616,2.74846,12.9066,-0.113541,-0.263275,0.37277,0
2024-11-29 17:55:36.466,0.371187,2.75803,13.0334,-0.113541,-0.263275,0.37277,0
2024-11-29 17:55:36.468,0.4334,2.7676,13.1363,-0.123315,-0.282211,0.354444,0
2024-11-29 17:55:36.471,0.215354,2.82024,13.2227,-0.133088,-0.304202,0.334286,0
2024-11-29 17:55:36.472,-0.584148,2.92313,13.4285,-0.142862,-0.307256,0.324513,0
2024-11-29 17:55:36.476,-0.816252,2.98774,13.6893,-0.139197,-0.255945,0.338562,0
2024-11-29 17:55:36.478,-0.335294,2.99252,13.4812,-0.139197,-0.255945,0.338562,0
2024-11-29 17:55:36.480,0.0167498,2.97577,13.0502,-0.153857,-0.233344,0.341616,0
2024-11-29 17:55:36.483,0.371187,2.88724,12.9473,-0.199671,-0.240674,0.33734,0
2024-11-29 17:55:36.485,0.73011,2.72692,12.964,-0.199671,-0.240674,0.33734,0
2024-11-29 17:55:36.487,1.1013,2.51127,12.9855,-0.233878,-0.271216,0.328789,0
2024-11-29 17:55:36.490,1.44616,2.27438,13.0334,-0.269307,-0.317641,0.304965,0
2024-11-29 17:55:36.491,1.76201,2.01356,13.086,-0.305347,-0.371395,0.275645,0
2024-11-29 17:55:36.494,2.00638,1.77876,13.1507,-0.341387,-0.420263,0.236551,0
2024-11-29 17:55:36.496,2.14756,1.60409,13.2227,-0.375595,-0.462411,0.188905,0
2024-11-29 17:55:36.498,2.15234,1.49641,13.2802,-0.406748,-0.503338,0.137593,0
2024-11-29 17:55:36.501,2.06142,1.44855,13.3208,-0.443399,-0.547319,0.0887256,0
2024-11-29 17:55:36.504,1.98485,1.41506,13.3591,-0.510592,-0.61268,-0.00106898,0
2024-11-29 17:55:36.505,1.90798,1.40788,13.3878,-0.510592,-0.61268,-0.00106898,0
2024-11-29 17:55:36.509,1.81466,1.44138,13.4166,-0.562514,-0.618177,-0.076814,0
2024-11-29 17:55:36.511,1.71655,1.48923,13.4524,-0.585726,-0.607182,-0.106746,0
2024-11-29 17:55:36.512,1.61605,1.52752,13.5362,-0.585726,-0.607182,-0.106746,0
2024-11-29 17:55:36.516,1.51077,1.54666,13.6558,-0.618101,-0.576029,-0.155002,0
2024-11-29 17:55:36.517,1.41266,1.52034,13.7758,-0.618101,-0.576029,-0.155002,0
2024-11-29 17:55:36.520,1.30469,1.49641,13.8882,-0.634059,-0.566866,-0.171495,0
2024-11-29 17:55:36.522,1.21376,1.4677,13.9959,-0.644444,-0.560147,-0.186767,0
2024-11-29 17:55:36.525,1.15633,1.39561,14.0749,-0.658493,-0.559536,-0.198373,0
2024-11-29 17:55:36.527,1.11087,1.31665,14.1419,-0.664602,-0.556482,-0.206925,0
2024-11-29 17:55:36.530,1.0678,1.21376,14.2041,-0.673765,-0.564423,-0.214255,0
2024-11-29 17:55:36.532,1.06062,1.1013,14.2448,-0.681095,-0.563812,-0.219141,0
2024-11-29 17:55:36.535,1.0654,1.01037,14.2926,-0.68476,-0.546708,-0.227693,0
2024-11-29 17:55:36.537,1.07019,0.902692,14.3527,-0.68476,-0.546708,-0.227693,0
2024-11-29 17:55:36.538,1.07498,0.782752,14.4269,-0.685371,-0.534491,-0.230748,0
2024-11-29 17:55:36.541,1.09412,0.675075,14.5107,-0.681706,-0.524107,-0.235023,0
2024-11-29 17:55:36.544,1.11087,0.579362,14.5825,-0.673765,-0.511279,-0.236245,0
2024-11-29 17:55:36.545,1.12044,0.490828,14.6566,-0.666434,-0.497841,-0.241132,0
2024-11-29 17:55:36.548,1.11805,0.404686,14.7404,-0.652385,-0.484402,-0.242964,0
2024-11-29 17:55:36.551,1.08215,0.311366,14.7835,-0.615658,-0.458135,-0.245408,0
2024-11-29 17:55:36.553,1.05105,0.222533,14.8146,-0.615658,-0.458135,-0.245408,0
2024-11-29 17:55:36.555,1.01276,0.148355,14.8624,-0.594278,-0.441643,-0.245408,0
2024-11-29 17:55:36.558,0.972084,0.0957129,14.8866,-0.569233,-0.420263,-0.241132,0
2024-11-29 17:55:36.561,0.924228,0.040678,14.9034,-0.540523,-0.393996,-0.238078,0
2024-11-29 17:55:36.562,0.878764,-0.0191426,14.913,-0.508759,-0.364065,-0.233191,3
2024-11-29 17:55:36.565,0.84018,-0.0574277,14.8938,-0.431793,-0.285877,-0.222196,0
2024-11-29 17:55:36.568,0.787538,-0.0837488,14.8552,-0.389033,-0.237009,-0.213644,0
2024-11-29 17:55:36.569,0.749253,-0.12682,14.8098,-0.389033,-0.237009,-0.213644,0
2024-11-29 17:55:36.572,0.732503,-0.167498,14.7643,-0.342609,-0.180811,-0.203259,0
2024-11-29 17:55:36.575,0.710967,-0.198604,14.6806,-0.238765,-0.0604739,-0.184934,0
2024-11-29 17:55:36.577,0.679861,-0.227318,14.5705,-0.186232,0.00733017,-0.172106,0
2024-11-29 17:55:36.579,0.643968,-0.275175,14.458,-0.186232,0.00733017,-0.172106,0
2024-11-29 17:55:36.582,0.600898,-0.313759,14.3216,-0.0713928,0.146603,-0.147061,0
2024-11-29 17:55:36.584,0.553041,-0.34008,14.1419,-0.0713928,0.146603,-0.147061,0
2024-11-29 17:55:36.586,0.495613,-0.383151,13.9433,-0.0127514,0.218683,-0.134234,0
2024-11-29 17:55:36.589,0.440578,-0.411865,13.7519,0.0465007,0.288931,-0.117741,0
2024-11-29 17:55:36.590,0.411865,-0.411865,13.529,0.105142,0.358567,-0.10308,0
2024-11-29 17:55:36.594,0.373579,-0.404686,13.2658,0.163173,0.424539,-0.0884201,0
2024-11-29 17:55:36.595,0.337687,-0.404686,12.9808,0.219981,0.487456,-0.0743707,0
2024-11-29 17:55:36.597,0.316152,-0.402293,12.6864,0.276179,0.548541,-0.0590995,0
2024-11-29 17:55:36.601,0.272782,-0.383151,12.3966,0.383078,0.654217,-0.037109,0
2024-11-29 17:55:36.604,0.20339,-0.366401,11.846,0.433167,0.702474,-0.024892,0
2024-11-29 17:55:36.605,0.20339,-0.366401,11.846,0.433167,0.702474,-0.024892,0
2024-11-29 17:55:36.607,0.184247,-0.368794,11.5612,0.482646,0.747677,-0.0138968,0
2024-11-29 17:55:36.610,0.177069,-0.364008,11.2642,0.526627,0.790436,-0.00656661,0
2024-11-29 17:55:36.611,0.155533,-0.352044,10.9938,0.568775,0.828309,0.000152712,0
2024-11-29 17:55:36.614,0.141177,-0.318545,10.7327,0.610924,0.864349,0.00809373,0
2024-11-29 17:55:36.617,0.12682,-0.299402,10.4647,0.679949,0.92299,0.019089,0
2024-11-29 17:55:36.619,0.0909273,-0.282652,10.1988,0.679949,0.92299,0.019089,0
2024-11-29 17:55:36.621,0.0598206,-0.251246,9.94517,0.709881,0.946813,0.0227541,0
2024-11-29 17:55:36.624,0.040678,-0.217747,9.71037,0.734926,0.96575,0.0288625,0
2024-11-29 17:55:36.627,0.0119641,-0.181855,9.48545,0.757527,0.974912,0.0325276,0
2024-11-29 17:55:36.628,-0.026321,-0.150748,9.26052,0.775852,0.981632,0.0368035,0
2024-11-29 17:55:36.631,-0.0717847,-0.107677,9.05923,0.790513,0.978577,0.0410795,0
2024-11-29 17:55:36.633,-0.102891,-0.040678,8.8678,0.801508,0.966971,0.0447446,0
2024-11-29 17:55:36.636,-0.129212,0.026321,8.68086,0.814336,0.933375,0.0545181,0
2024-11-29 17:55:36.637,-0.145962,0.0861416,8.52054,0.814336,0.933375,0.0545181,0
2024-11-29 17:55:36.640,-0.145962,0.148355,8.37219,0.813114,0.904665,0.0594049,0
2024-11-29 17:55:36.643,-0.143569,0.200997,8.2358,0.812503,0.872901,0.0618483,0
2024-11-29 17:55:36.645,-0.162712,0.239282,8.1015,0.809449,0.838693,0.0661242,0
2024-11-29 17:55:36.647,-0.184247,0.289831,7.97707,0.800897,0.801432,0.0691785,0
2024-11-29 17:55:36.650,-0.179462,0.359223,7.85504,0.792345,0.762337,0.0746761,0
2024-11-29 17:55:36.651,-0.177069,0.397508,7.733,0.781961,0.716524,0.0765086,0
2024-11-29 17:55:36.655,-0.172283,0.428614,7.62293,0.769133,0.674375,0.0777303,0
2024-11-29 17:55:36.657,-0.150748,0.452543,7.51974,0.756305,0.629173,0.0801737,0
2024-11-29 17:55:36.659,-0.11007,0.474078,7.43121,0.742256,0.582748,0.078952,0
2024-11-29 17:55:36.662,-0.066999,0.483649,7.37617,0.708048,0.491732,0.0734544,0
2024-11-29 17:55:36.664,-0.0215354,0.495613,7.33071,0.708048,0.491732,0.0734544,0
2024-11-29 17:55:36.666,0.0287139,0.50997,7.30439,0.690945,0.43981,0.0661242,0
2024-11-29 17:55:36.669,0.0837488,0.512363,7.29003,0.675673,0.393996,0.0594049,0
2024-11-29 17:55:36.670,0.148355,0.521934,7.27089,0.656737,0.342685,0.0520747,0
2024-11-29 17:55:36.673,0.224925,0.495613,7.25893,0.639633,0.292596,0.0404686,0
2024-11-29 17:55:36.676,0.287438,0.462114,7.24696,0.599317,0.193028,0.014813,0
2024-11-29 17:55:36.678,0.335294,0.454935,7.23021,0.599317,0.193028,0.014813,0
2024-11-29 17:55:36.680,0.390329,0.445364,7.22064,0.582214,0.14416,0.00198525,0
2024-11-29 17:55:36.683,0.423829,0.435793,7.21586,0.563278,0.0965139,-0.0126751,0
2024-11-29 17:55:36.685,0.442971,0.426222,7.22543,0.54373,0.0568088,-0.0261137,0
2024-11-29 17:55:36.688,0.454935,0.409472,7.24457,0.523572,0.0171037,-0.037109,0
2024-11-29 17:55:36.690,0.464507,0.409472,7.25653,0.50769,-0.0171037,-0.0468825,0
2024-11-29 17:55:36.693,0.462114,0.426222,7.27568,0.46432,-0.0733017,-0.060932,0
2024-11-29 17:55:36.694,0.471685,0.440578,7.302,0.46432,-0.0733017,-0.060932,0
2024-11-29 17:55:36.697,0.502792,0.438186,7.32593,0.448438,-0.0971247,-0.0658188,0
2024-11-29 17:55:36.699,0.519542,0.440578,7.35943,0.431945,-0.117894,-0.0664296,0
2024-11-29 17:55:36.701,0.531506,0.457328,7.40489,0.416674,-0.133165,-0.0682622,0
2024-11-29 17:55:36.704,0.553041,0.474078,7.44078,0.401403,-0.14416,-0.0670405,0
2024-11-29 17:55:36.706,0.572184,0.478864,7.47428,0.386132,-0.150879,-0.0658188,0
2024-11-29 17:55:36.709,0.593719,0.483649,7.51017,0.373304,-0.155766,-0.0633754,0
2024-11-29 17:55:36.710,0.634397,0.495613,7.54607,0.358644,-0.154544,-0.0597103,0
2024-11-29 17:55:36.713,0.672682,0.50997,7.59183,0.348259,-0.149658,-0.0560452,0
2024-11-29 17:55:36.715,0.71336,0.533899,7.63251,0.336653,-0.138662,-0.0548235,0
2024-11-29 17:55:36.717,0.751645,0.548256,7.65643,0.331156,-0.125835,-0.0548235,0
2024-11-29 17:55:36.721,0.792323,0.567398,7.67318,0.321382,-0.110563,-0.0536018,0
2024-11-29 17:55:36.722,0.837787,0.600898,7.69233,0.314663,-0.0940705,-0.0560452,0
2024-11-29 17:55:36.725,0.864407,0.627219,7.6995,0.307333,-0.0806318,-0.0584886,0
2024-11-29 17:55:36.728,0.876371,0.655932,7.68993,0.287175,-0.0531437,-0.0652079,0
2024-11-29 17:55:36.730,0.890728,0.679861,7.65883,0.287175,-0.0531437,-0.0652079,0
2024-11-29 17:55:36.732,0.895514,0.71336,7.59901,0.274347,-0.0397051,-0.068873,0
2024-11-29 17:55:36.735,0.881157,0.768395,7.54128,0.260908,-0.0232122,-0.0737598,0
2024-11-29 17:55:36.737,0.862014,0.801895,7.49821,0.236474,0.00733017,-0.0847551,0
2024-11-29 17:55:36.740,0.84018,0.828216,7.46471,0.236474,0.00733017,-0.0847551,0
2024-11-29 17:55:36.742,0.801895,0.878764,7.42403,0.210819,0.0317641,-0.0963612,0
2024-11-29 17:55:36.743,0.754038,0.936192,7.38814,0.210819,0.0317641,-0.0963612,0
2024-11-29 17:55:36.746,0.715753,0.99362,7.35943,0.191882,0.0384834,-0.101248,0
2024-11-29 17:55:36.748,0.670289,1.04387,7.32353,0.176,0.0403159,-0.104913,0
2024-11-29 17:55:36.750,0.600898,1.09173,7.30918,0.157675,0.0372617,-0.111021,0
2024-11-29 17:55:36.753,0.52672,1.14197,7.30678,0.141182,0.0293207,-0.114076,0
2024-11-29 17:55:36.756,0.4669,1.18265,7.29482,0.122857,0.0164929,-0.116519,0
2024-11-29 17:55:36.757,0.419043,1.22812,7.28525,0.10331,0.00244339,-0.122017,0
2024-11-29 17:55:36.760,0.411865,1.25204,7.27089,0.0837624,-0.0152712,-0.125071,0
2024-11-29 17:55:36.762,0.404686,1.25683,7.25653,0.0666587,-0.0317641,-0.126904,0
2024-11-29 17:55:36.766,0.373579,1.27597,7.25414,0.0458899,-0.0500895,-0.130569,0
2024-11-29 17:55:36.767,0.35683,1.29751,7.24936,0.0312296,-0.0629173,-0.134845,0
2024-11-29 17:55:36.770,0.364008,1.29751,7.27807,-0.00114534,-0.0885729,-0.140953,0
2024-11-29 17:55:36.773,0.373579,1.29272,7.31635,-0.00114534,-0.0885729,-0.140953,0
2024-11-29 17:55:36.775,0.359223,1.27837,7.34746,-0.0274118,-0.109342,-0.146451,0
2024-11-29 17:55:36.777,0.349651,1.26879,7.38096,-0.0274118,-0.109342,-0.146451,0
2024-11-29 17:55:36.780,0.34008,1.26162,7.41925,-0.038407,-0.117283,-0.149505,0
2024-11-29 17:55:36.781,0.304188,1.24247,7.47667,-0.0475697,-0.127667,-0.150116,0
2024-11-29 17:55:36.783,0.258425,1.24008,7.5341,-0.0591758,-0.134997,-0.151337,0
2024-11-29 17:55:36.787,0.224925,1.24726,7.58944,-0.0603975,-0.145382,-0.150116,0
2024-11-29 17:55:36.788,0.181855,1.26401,7.6349,-0.0634518,-0.153934,-0.150116,0
2024-11-29 17:55:36.791,0.141177,1.28794,7.68754,-0.0658951,-0.156988,-0.147061,0
2024-11-29 17:55:36.794,0.12682,1.30947,7.73779,-0.0640626,-0.160042,-0.144007,0
2024-11-29 17:55:36.796,0.114855,1.33101,7.75693,-0.0542891,-0.157599,-0.132401,0
2024-11-29 17:55:36.798,0.0933201,1.35254,7.7665,-0.0542891,-0.157599,-0.132401,0
2024-11-29 17:55:36.800,0.0717847,1.36211,7.8,-0.046348,-0.155766,-0.123238,0
2024-11-29 17:55:36.803,0.0502493,1.36211,7.81675,-0.0292443,-0.14416,-0.103691,0
2024-11-29 17:55:36.806,0.0119641,1.37647,7.80958,-0.0292443,-0.14416,-0.103691,0
2024-11-29 17:55:36.807,-0.0311067,1.40548,7.8,-0.0176382,-0.139884,-0.0902527,0
2024-11-29 17:55:36.810,-0.0789631,1.43181,7.77129,-0.0115297,-0.138662,-0.0755923,0
2024-11-29 17:55:36.812,-0.119641,1.43898,7.72343,-0.00236703,-0.13683,-0.0590995,0
2024-11-29 17:55:36.814,-0.131605,1.46291,7.67797,0.00740652,-0.131943,-0.0407741,0
2024-11-29 17:55:36.816,-0.145962,1.48923,7.6349,0.0171801,-0.121559,-0.0242812,0
2024-11-29 17:55:36.819,-0.157926,1.50838,7.59901,0.0300079,-0.103233,-0.00717746,0
2024-11-29 17:55:36.822,-0.150748,1.5323,7.58704,0.0544418,-0.0671932,0.0282517,0
2024-11-29 17:55:36.824,-0.143569,1.55384,7.58465,0.0544418,-0.0671932,0.0282517,0
2024-11-29 17:55:36.827,-0.150748,1.59691,7.60858,0.0709346,-0.0494786,0.0441337,0
2024-11-29 17:55:36.829,-0.162712,1.6352,7.6349,0.10392,-0.0250447,0.0716218,0
2024-11-29 17:55:36.830,-0.155533,1.67348,7.66361,0.10392,-0.0250447,0.0716218,0
2024-11-29 17:55:36.833,-0.145962,1.71894,7.67318,0.119802,-0.0146603,0.0862822,0
2024-11-29 17:55:36.835,-0.138784,1.75484,7.6684,0.141182,-0.00794101,0.0954449,0
2024-11-29 17:55:36.839,-0.136391,1.79312,7.68036,0.157675,-0.00549763,0.103997,0
2024-11-29 17:55:36.840,-0.143569,1.82662,7.68036,0.177222,0.00122169,0.110716,0
2024-11-29 17:55:36.843,-0.131605,1.85533,7.68515,0.212651,-0.00549763,0.116825,0
2024-11-29 17:55:36.846,-0.105284,1.88883,7.69472,0.212651,-0.00549763,0.116825,0
2024-11-29 17:55:36.847,-0.100499,1.92233,7.68754,0.230366,-0.00794101,0.118657,0
2024-11-29 17:55:36.850,-0.105284,1.95344,7.68754,0.252356,-0.0177146,0.118046,0
2024-11-29 17:55:36.855,-0.12682,2.01117,7.64926,0.299392,-0.0452027,0.10644,0
2024-11-29 17:55:36.855,-0.12682,2.01117,7.64926,0.299392,-0.0452027,0.10644,0
2024-11-29 17:55:36.857,-0.153141,2.03988,7.60858,0.299392,-0.0452027,0.10644,0
2024-11-29 17:55:36.860,-0.157926,2.0662,7.58226,0.310998,-0.0555871,0.103386,0
2024-11-29 17:55:36.862,-0.172283,2.09252,7.56521,0.339707,-0.0751342,0.0960557,0
2024-11-29 17:55:36.863,-0.18664,2.1332,7.55085,0.339707,-0.0751342,0.0960557,0
2024-11-29 17:55:36.866,-0.193819,2.17388,7.52692,0.350703,-0.0855186,0.0905581,0
2024-11-29 17:55:36.869,-0.217747,2.21456,7.48385,0.369639,-0.101401,0.0838388,0
2024-11-29 17:55:36.871,-0.232104,2.25763,7.44078,0.369639,-0.101401,0.0838388,0
2024-11-29 17:55:36.873,-0.258425,2.28395,7.41207,0.376358,-0.113618,0.0801737,0
2024-11-29 17:55:36.875,-0.287438,2.30548,7.369,0.381856,-0.12278,0.078952,0
2024-11-29 17:55:36.879,-0.301795,2.32223,7.32832,0.382467,-0.141106,0.0783412,0
2024-11-29 17:55:36.880,-0.32333,2.3342,7.2996,0.382467,-0.141106,0.0783412,0
2024-11-29 17:55:36.882,-0.35683,2.35573,7.2685,0.379413,-0.152101,0.078952,0
2024-11-29 17:55:36.886,-0.380758,2.38445,7.24696,0.371471,-0.161875,0.0826171,0
2024-11-29 17:55:36.887,-0.390329,2.40838,7.23978,0.365363,-0.171037,0.0807846,0
2024-11-29 17:55:36.890,-0.402293,2.43709,7.27089,0.358644,-0.184476,0.0832279,0
2024-11-29 17:55:36.893,-0.423829,2.4658,7.302,0.339707,-0.211353,0.0820062,0
2024-11-29 17:55:36.895,-0.45015,2.49452,7.34028,0.339707,-0.211353,0.0820062,0
2024-11-29 17:55:36.896,-0.459721,2.50887,7.41446,0.328101,-0.231511,0.0826171,0
2024-11-29 17:55:36.900,-0.457328,2.52084,7.49582,0.318939,-0.25228,0.0838388,0
2024-11-29 17:55:36.902,-0.471685,2.5331,7.58944,0.29817,-0.288931,0.0936123,0
2024-11-29 17:55:36.904,-0.474078,2.52832,7.68276,0.29817,-0.288931,0.0936123,0
2024-11-29 17:55:36.907,-0.454935,2.5331,7.78086,0.285953,-0.304813,0.0954449,0
2024-11-29 17:55:36.909,-0.431007,2.54028,7.88854,0.270682,-0.316419,0.105829,0
2024-11-29 17:55:36.912,-0.368794,2.54985,8.00579,0.270682,-0.316419,0.105829,0
2024-11-29 17:55:36.914,-0.275175,2.55224,8.14008,0.265795,-0.313975,0.110716,0
2024-11-29 17:55:36.915,-0.200997,2.54267,8.28605,0.260297,-0.305424,0.115603,0
2024-11-29 17:55:36.919,-0.129212,2.51845,8.43201,0.257854,-0.292596,0.118046,0
2024-11-29 17:55:36.920,-0.0430708,2.4993,8.58754,0.257854,-0.292596,0.118046,0
2024-11-29 17:55:36.922,0.00478565,2.47059,8.74577,0.254189,-0.256556,0.125376,0
2024-11-29 17:55:36.926,0.0311067,2.43709,8.91566,0.255411,-0.214407,0.133317,0
2024-11-29 17:55:36.928,0.0382852,2.42273,9.09751,0.255411,-0.214407,0.133317,0
2024-11-29 17:55:36.930,0.0239282,2.4012,9.27009,0.260297,-0.188141,0.138815,0
2024-11-29 17:55:36.932,-0.00239282,2.38206,9.45195,0.266406,-0.164318,0.144313,0
2024-11-29 17:55:36.935,-0.0358923,2.37488,9.6362,0.276179,-0.142327,0.148589,0
2024-11-29 17:55:36.936,-0.0574277,2.35334,9.81087,0.276179,-0.142327,0.148589,0
2024-11-29 17:55:36.939,-0.0933201,2.32463,9.98106,0.302446,-0.0965139,0.166303,0
2024-11-29 17:55:36.942,-0.143569,2.29352,10.1629,0.339097,-0.051922,0.18585,0
2024-11-29 17:55:36.945,-0.16989,2.25763,10.3232,0.359865,-0.0287098,0.199289,0
2024-11-29 17:55:36.947,-0.208176,2.23131,10.4623,0.385521,-0.00794101,0.212117,0
2024-11-29 17:55:36.949,-0.236889,2.20738,10.5891,0.412398,0.0171037,0.223723,0
2024-11-29 17:55:36.952,-0.265603,2.17866,10.7064,0.445384,0.0415376,0.237772,0
2024-11-29 17:55:36.954,-0.32333,2.15952,10.8236,0.475926,0.059863,0.249989,0
2024-11-29 17:55:36.956,-0.359223,2.15713,10.9074,0.475926,0.059863,0.249989,0
2024-11-29 17:55:36.959,-0.3999,2.16431,10.9651,0.506469,0.0818535,0.262817,0
2024-11-29 17:55:36.960,-0.452543,2.17149,11.0106,0.538844,0.102622,0.272591,0
2024-11-29 17:55:36.962,-0.519542,2.18345,11.0297,0.571829,0.11545,0.281142,0
2024-11-29 17:55:36.966,-0.586541,2.20259,11.0225,0.602372,0.1295,0.291527,0
2024-11-29 17:55:36.968,-0.63679,2.22413,11.0034,0.659181,0.142938,0.30802,0
2024-11-29 17:55:36.970,-0.684646,2.24806,10.9651,0.659181,0.142938,0.30802,0
2024-11-29 17:55:36.973,-0.71336,2.27438,10.9122,0.683614,0.150268,0.319015,0
2024-11-29 17:55:36.974,-0.720539,2.30309,10.8308,0.706827,0.156988,0.323902,0
2024-11-29 17:55:36.978,-0.715753,2.32702,10.7375,0.746532,0.173481,0.334286,0
2024-11-29 17:55:36.979,-0.699003,2.35573,10.6442,0.746532,0.173481,0.334286,0
2024-11-29 17:55:36.981,-0.687039,2.37966,10.5293,0.762414,0.1802,0.336119,0
2024-11-29 17:55:36.984,-0.667897,2.41077,10.4121,0.772187,0.188141,0.33734,0
2024-11-29 17:55:36.989,-0.643968,2.48734,10.1725,0.777685,0.198525,0.339173,0
2024-11-29 17:55:36.989,-0.643968,2.48734,10.1725,0.777685,0.198525,0.339173,0
2024-11-29 17:55:36.992,-0.639183,2.52832,10.0528,0.771576,0.211964,0.337951,0
2024-11-29 17:55:36.993,-0.632004,2.57617,9.91885,0.771576,0.211964,0.337951,0
2024-11-29 17:55:36.999,-0.617647,2.66231,9.68405,0.734926,0.2309,0.335508,0
2024-11-29 17:55:36.999,-0.617647,2.66231,9.68405,0.734926,0.2309,0.335508,0
2024-11-29 17:55:37.001,-0.591326,2.70539,9.57159,0.714157,0.23823,0.334897,0
2024-11-29 17:55:37.003,-0.567398,2.74128,9.46631,0.714157,0.23823,0.334897,0
2024-11-29 17:55:37.006,-0.545863,2.78196,9.36102,0.671398,0.253502,0.332454,0
