timestamp,accel_x,accel_y,accel_z,gyro_x,gyro_y,gyro_z,step_timestamp
2024-11-29 17:58:10.149,0.275175,2.71017,9.8686,-0.030466,-0.0146603,0.0142022,0
2024-11-29 17:58:10.149,0.275175,2.71017,9.8686,-0.030466,-0.0146603,0.0142022,0
2024-11-29 17:58:10.149,0.275175,2.71017,9.8686,-0.030466,-0.0146603,0.0142022,0
2024-11-29 17:58:10.149,0.275175,2.71017,9.8686,-0.030466,-0.0146603,0.0142022,0
2024-11-29 17:58:10.149,0.275175,2.71017,9.8686,-0.030466,-0.0146603,0.0142022,0
2024-11-29 17:58:10.149,0.275175,2.71017,9.8686,-0.030466,-0.0146603,0.0142022,0
2024-11-29 17:58:10.149,0.275175,2.71017,9.8686,-0.030466,-0.0146603,0.0142022,0
2024-11-29 17:58:10.149,0.275175,2.71017,9.8686,-0.030466,-0.0146603,0.0142022,0
2024-11-29 17:58:10.149,0.275175,2.71017,9.8686,-0.030466,-0.0146603,0.0142022,0
2024-11-29 17:58:10.149,0.275175,2.71017,9.8686,-0.030466,-0.0146603,0.0142022,0
2024-11-29 17:58:10.149,0.275175,2.71017,9.8686,-0.030466,-0.0146603,0.0142022,0
2024-11-29 17:58:10.149,0.275175,2.71017,9.8686,-0.030466,-0.0146603,0.0142022,0
2024-11-29 17:58:10.149,0.275175,2.71017,9.8686,-0.030466,-0.0146603,0.0142022,0
2024-11-29 17:58:10.149,0.275175,2.71017,9.8686,-0.030466,-0.0146603,0.0142022,0
2024-11-29 17:58:10.149,0.275175,2.71017,9.8686,-0.030466,-0.0146603,0.0142022,0
2024-11-29 17:58:10.149,0.275175,2.71017,9.8686,-0.030466,-0.0146603,0.0142022,0
2024-11-29 17:58:10.149,0.275175,2.71017,9.8686,-0.030466,-0.0146603,0.0142022,0
2024-11-29 17:58:10.149,0.275175,2.71017,9.8686,-0.030466,-0.0146603,0.0142022,0
2024-11-29 17:58:10.149,0.275175,2.71017,9.8686,-0.030466,-0.0146603,0.0142022,0
2024-11-29 17:58:10.149,0.275175,2.71017,9.8686,-0.030466,-0.0146603,0.0142022,0
2024-11-29 17:58:10.149,0.275175,2.71017,9.8686,-0.030466,-0.0146603,0.0142022,0
2024-11-29 17:58:10.149,0.275175,2.71017,9.8686,-0.030466,-0.0146603,0.0142022,0
2024-11-29 17:58:10.149,0.275175,2.71017,9.8686,-0.030466,-0.0146603,0.0142022,0
2024-11-29 17:58:10.149,0.275175,2.71017,9.8686,-0.030466,-0.0146603,0.0142022,0
2024-11-29 17:58:10.149,0.275175,2.71017,9.8686,-0.030466,-0.0146603,0.0142022,0
2024-11-29 17:58:10.149,0.275175,2.71017,9.8686,-0.030466,-0.0146603,0.0142022,0
2024-11-29 17:58:10.149,0.275175,2.71017,9.8686,-0.030466,-0.0146603,0.0142022,0
2024-11-29 17:58:10.149,0.275175,2.71017,9.8686,-0.030466,-0.0146603,0.0142022,0
2024-11-29 17:58:10.149,0.275175,2.71017,9.8686,-0.030466,-0.0146603,0.0142022,0
2024-11-29 17:58:10.150,0.275175,2.71017,9.8686,-0.030466,-0.0146603,0.0142022,0
2024-11-29 17:58:10.150,0.275175,2.71017,9.8686,-0.030466,-0.0146603,0.0142022,0
2024-11-29 17:58:10.150,0.275175,2.71017,9.8686,-0.030466,-0.0146603,0.0142022,0
2024-11-29 17:58:10.150,0.275175,2.71017,9.8686,-0.030466,-0.0146603,0.0142022,0
2024-11-29 17:58:10.150,0.275175,2.71017,9.8686,-0.030466,-0.0146603,0.0142022,0
2024-11-29 17:58:10.150,0.275175,2.71017,9.8686,-0.030466,-0.0146603,0.0142022,0
2024-11-29 17:58:10.150,0.275175,2.71017,9.8686,-0.030466,-0.0146603,0.0142022,0
2024-11-29 17:58:10.150,0.275175,2.71017,9.8686,-0.030466,-0.0146603,0.0142022,0
2024-11-29 17:58:10.150,0.275175,2.71017,9.8686,-0.030466,-0.0146603,0.0142022,0
2024-11-29 17:58:10.150,0.275175,2.71017,9.8686,-0.030466,-0.0146603,0.0142022,0
2024-11-29 17:58:10.150,0.275175,2.71017,9.8686,-0.030466,-0.0146603,0.0142022,0
2024-11-29 17:58:10.150,0.275175,2.71017,9.8686,-0.030466,-0.0146603,0.0142022,0
2024-11-29 17:58:10.150,0.275175,2.71017,9.8686,-0.030466,-0.0146603,0.0142022,0
2024-11-29 17:58:10.150,0.275175,2.71017,9.8686,-0.030466,-0.0146603,0.0142022,0
2024-11-29 17:58:10.150,0.275175,2.71017,9.8686,-0.030466,-0.0146603,0.0142022,0
2024-11-29 17:58:10.150,0.275175,2.71017,9.8686,-0.030466,-0.0146603,0.0142022,0
2024-11-29 17:58:10.150,0.275175,2.71017,9.8686,-0.030466,-0.0146603,0.0142022,0
2024-11-29 17:58:10.150,0.275175,2.71017,9.8686,-0.030466,-0.0146603,0.0142022,0
2024-11-29 17:58:10.150,0.275175,2.71017,9.8686,-0.030466,-0.0146603,0.0142022,0
2024-11-29 17:58:10.150,0.275175,2.71017,9.8686,-0.030466,-0.0146603,0.0142022,0
2024-11-29 17:58:10.150,0.275175,2.71017,9.8686,-0.030466,-0.0146603,0.0142022,0
2024-11-29 17:58:10.150,0.275175,2.71017,9.8686,-0.030466,-0.0146603,0.0142022,0
2024-11-29 17:58:10.150,0.275175,2.71017,9.8686,-0.030466,-0.0146603,0.0142022,0
2024-11-29 17:58:10.150,0.275175,2.71017,9.8686,-0.030466,-0.0146603,0.0142022,0
2024-11-29 17:58:10.150,0.275175,2.71017,9.8686,-0.030466,-0.0146603,0.0142022,0
2024-11-29 17:58:10.150,0.275175,2.71017,9.8686,-0.030466,-0.0146603,0.0142022,0
2024-11-29 17:58:10.150,0.275175,2.71017,9.8686,-0.030466,-0.0146603,0.0142022,0
2024-11-29 17:58:10.150,0.275175,2.71017,9.8686,-0.030466,-0.0146603,0.0142022,0
2024-11-29 17:58:10.150,0.275175,2.71017,9.8686,-0.030466,-0.0146603,0.0142022,0
2024-11-29 17:58:10.150,0.275175,2.71017,9.8686,-0.030466,-0.0146603,0.0142022,0
2024-11-29 17:58:10.150,0.275175,2.71017,9.8686,-0.030466,-0.0146603,0.0142022,0
2024-11-29 17:58:10.150,0.275175,2.71017,9.8686,-0.030466,-0.0146603,0.0142022,0
2024-11-29 17:58:10.150,0.275175,2.71017,9.8686,-0.030466,-0.0146603,0.0142022,0
2024-11-29 17:58:10.150,0.275175,2.71017,9.8686,-0.030466,-0.0146603,0.0142022,0
2024-11-29 17:58:10.153,0.275175,2.71496,9.9021,-0.0274118,-0.0134386,0.011148,0
2024-11-29 17:58:10.157,0.246461,2.72453,9.92842,-0.0274118,-0.0134386,0.011148,0
2024-11-29 17:58:10.163,0.148355,2.70299,9.9021,-0.0158057,-0.00549763,0.011148,0
2024-11-29 17:58:10.169,0.107677,2.69581,9.87338,0.00923906,0.0177146,0.0196998,0
2024-11-29 17:58:10.170,0.0933201,2.67667,9.84467,0.00923906,0.0177146,0.0196998,0
2024-11-29 17:58:10.170,0.0933201,2.67667,9.84467,0.00923906,0.0177146,0.0196998,0
2024-11-29 17:58:10.170,0.0933201,2.67667,9.84467,0.00923906,0.0177146,0.0196998,0
2024-11-29 17:58:10.170,0.0933201,2.67667,9.84467,0.00923906,0.0177146,0.0196998,0
2024-11-29 17:58:10.171,0.0933201,2.67667,9.84467,0.00923906,0.0177146,0.0196998,0
2024-11-29 17:58:10.171,0.0933201,2.67667,9.84467,0.00923906,0.0177146,0.0196998,0
2024-11-29 17:58:10.171,0.0933201,2.67667,9.84467,0.00923906,0.0177146,0.0196998,0
2024-11-29 17:58:10.171,0.0933201,2.67667,9.84467,0.00923906,0.0177146,0.0196998,0
2024-11-29 17:58:10.171,0.0933201,2.67667,9.84467,0.00923906,0.0177146,0.0196998,0
2024-11-29 17:58:10.171,0.0933201,2.67667,9.84467,0.00923906,0.0177146,0.0196998,0
2024-11-29 17:58:10.180,0.0358923,2.6336,9.67927,0.0184018,0.0256556,0.0337493,0
2024-11-29 17:58:10.180,0.0358923,2.6336,9.67927,0.0184018,0.0256556,0.0337493,0
2024-11-29 17:58:10.181,0.0358923,2.6336,9.67927,0.0202343,0.0299315,0.0392469,0
2024-11-29 17:58:10.181,0.0358923,2.6336,9.67927,0.0202343,0.0299315,0.0392469,0
2024-11-29 17:58:10.182,0.0143569,2.64796,9.64098,0.0202343,0.0299315,0.0392469,0
2024-11-29 17:58:10.182,0.0143569,2.64796,9.64098,0.0202343,0.0299315,0.0392469,0
2024-11-29 17:58:10.182,0.0143569,2.64796,9.64098,0.0202343,0.0299315,0.0392469,0
2024-11-29 17:58:10.182,0.0143569,2.64796,9.64098,0.0202343,0.0299315,0.0392469,0
2024-11-29 17:58:10.183,0.0143569,2.64796,9.64098,0.0190126,0.0299315,0.0435229,0
2024-11-29 17:58:10.183,0.0143569,2.64796,9.64098,0.0190126,0.0299315,0.0435229,0
2024-11-29 17:58:10.183,0.0143569,2.64796,9.64098,0.0190126,0.0299315,0.0435229,0
2024-11-29 17:58:10.185,0.0,2.64078,9.61466,0.0190126,0.0299315,0.0435229,0
2024-11-29 17:58:10.186,0.0,2.64078,9.61466,0.0184018,0.028099,0.047188,0
2024-11-29 17:58:10.186,0.0,2.64078,9.61466,0.0184018,0.028099,0.047188,0
2024-11-29 17:58:10.187,-0.0119641,2.65035,9.5692,0.0184018,0.028099,0.047188,0
2024-11-29 17:58:10.188,-0.0119641,2.65035,9.5692,0.0165692,0.028099,0.0514639,0
2024-11-29 17:58:10.189,-0.00717847,2.66471,9.54527,0.0165692,0.028099,0.0514639,0
2024-11-29 17:58:10.189,-0.00717847,2.66471,9.54527,0.0165692,0.028099,0.0514639,0
2024-11-29 17:58:10.190,-0.00717847,2.66471,9.54527,0.0129041,0.0262664,0.0563507,0
2024-11-29 17:58:10.190,-0.00717847,2.66471,9.54527,0.0129041,0.0262664,0.0563507,0
2024-11-29 17:58:10.190,-0.00717847,2.66471,9.54527,0.0129041,0.0262664,0.0563507,0
2024-11-29 17:58:10.190,-0.00717847,2.66471,9.54527,0.0129041,0.0262664,0.0563507,0
2024-11-29 17:58:10.190,-0.00717847,2.66471,9.54527,0.0129041,0.0262664,0.0563507,0
2024-11-29 17:58:10.192,0.00717847,2.65035,9.51416,0.0129041,0.0262664,0.0563507,0
2024-11-29 17:58:10.192,0.00717847,2.65035,9.51416,0.0129041,0.0262664,0.0563507,0
2024-11-29 17:58:10.193,0.00717847,2.65035,9.51416,0.0129041,0.0262664,0.0563507,0
2024-11-29 17:58:10.193,0.00717847,2.65035,9.51416,0.0129041,0.0262664,0.0563507,0
2024-11-29 17:58:10.193,0.00717847,2.65035,9.51416,0.0129041,0.0262664,0.0563507,0
2024-11-29 17:58:10.195,0.026321,2.65035,9.48066,0.0110716,0.0226013,0.0594049,0
2024-11-29 17:58:10.197,0.040678,2.65274,9.47588,0.00679568,0.0177146,0.0624591,0
2024-11-29 17:58:10.200,0.0478565,2.66231,9.46631,0.00313059,0.0140495,0.0673459,0
2024-11-29 17:58:10.201,0.0765703,2.68385,9.4687,-0.00175619,0.0116061,0.0685676,0
2024-11-29 17:58:10.204,0.107677,2.70299,9.48066,-0.00542127,0.00671932,0.0691785,0
2024-11-29 17:58:10.207,0.124427,2.72213,9.49263,-0.00786466,-0.000610847,0.0734544,0
2024-11-29 17:58:10.209,0.143569,2.72692,9.51895,-0.00786466,-0.000610847,0.0734544,0
2024-11-29 17:58:10.211,0.18664,2.7341,9.55723,-0.0115297,-0.00671932,0.0758978,0
2024-11-29 17:58:10.213,0.236889,2.74128,9.58595,-0.014584,-0.0103844,0.0734544,0
2024-11-29 17:58:10.216,0.275175,2.75324,9.60987,-0.014584,-0.0140495,0.0728435,0
2024-11-29 17:58:10.226,0.41665,2.7676,9.72473,-0.0096972,-0.0250447,0.055129,0
2024-11-29 17:58:10.227,0.407079,2.79871,9.74866,-0.0096972,-0.0250447,0.055129,0
2024-11-29 17:58:10.227,0.407079,2.79871,9.74866,-0.0096972,-0.0250447,0.055129,0
2024-11-29 17:58:10.227,0.407079,2.79871,9.74866,-0.0096972,-0.0250447,0.055129,0
2024-11-29 17:58:10.227,0.407079,2.79871,9.74866,-0.0096972,-0.0250447,0.055129,0
2024-11-29 17:58:10.229,0.423829,2.79871,9.7678,-0.00908635,-0.0274881,0.0526856,0
2024-11-29 17:58:10.233,0.452543,2.79631,9.77498,-0.00481042,-0.0299315,0.0441337,0
2024-11-29 17:58:10.235,0.471685,2.79631,9.77977,-0.00481042,-0.0299315,0.0441337,0
2024-11-29 17:58:10.237,0.476471,2.77956,9.78694,-0.00175619,-0.0299315,0.0416903,0
2024-11-29 17:58:10.240,0.457328,2.76521,9.79173,-0.00358873,-0.0378725,0.0325276,0
2024-11-29 17:58:10.241,0.440578,2.76999,9.78934,-0.00358873,-0.0378725,0.0325276,0
2024-11-29 17:58:10.244,0.431007,2.76521,9.78694,7.63559e-05,-0.0372617,0.0306951,0
2024-11-29 17:58:10.247,0.440578,2.75803,9.80369,-0.00419957,-0.0372617,0.0294734,0
2024-11-29 17:58:10.249,0.435793,2.75803,9.80848,-0.000534491,-0.0372617,0.02703,0
2024-11-29 17:58:10.251,0.411865,2.76281,9.81087,7.63559e-05,-0.0378725,0.0245866,0
2024-11-29 17:58:10.253,0.402293,2.75324,9.81566,-0.00114534,-0.03604,0.0233649,0
2024-11-29 17:58:10.256,0.404686,2.72692,9.82074,7.63559e-05,-0.0329858,0.0203107,0
2024-11-29 17:58:10.259,0.392722,2.72213,9.81087,0.00251974,-0.028099,0.0209215,0
2024-11-29 17:58:10.261,0.387936,2.72931,9.81087,0.00251974,-0.023823,0.0215324,0
2024-11-29 17:58:10.263,0.390329,2.74846,9.82553,0.00251974,-0.023823,0.0215324,0
2024-11-29 17:58:10.266,0.371187,2.7676,9.82314,0.00313059,-0.020158,0.0209215,0
2024-11-29 17:58:10.267,0.35683,2.75324,9.81326,0.00679568,-0.015882,0.0209215,0
2024-11-29 17:58:10.270,0.359223,2.75085,9.82553,0.00557398,-0.00916271,0.0221432,0
2024-11-29 17:58:10.272,0.337687,2.76042,9.81566,0.00740652,-0.00305424,0.0209215,0
2024-11-29 17:58:10.274,0.311366,2.75803,9.78216,0.0104608,0.00244339,0.0203107,0
2024-11-29 17:58:10.276,0.316152,2.74846,9.7678,0.00984991,0.00610847,0.0221432,0
2024-11-29 17:58:10.279,0.311366,2.74846,9.73909,0.0122933,0.00733017,0.0203107,0
2024-11-29 17:58:10.282,0.30658,2.7676,9.71037,0.00984991,0.0103844,0.0209215,0
2024-11-29 17:58:10.285,0.308973,2.76281,9.69123,0.00862822,0.0122169,0.0196998,0
2024-11-29 17:58:10.286,0.308973,2.75803,9.66491,0.00862822,0.0122169,0.0196998,0
2024-11-29 17:58:10.288,0.311366,2.76999,9.63141,0.00618483,0.0109953,0.0184781,0
2024-11-29 17:58:10.292,0.316152,2.76999,9.61227,0.000687203,0.00916271,0.014813,0
2024-11-29 17:58:10.294,0.308973,2.77478,9.61227,0.000687203,0.00916271,0.014813,0
2024-11-29 17:58:10.300,0.301795,2.81067,9.6027,-0.00847551,0.00488678,0.0129805,0
2024-11-29 17:58:10.301,0.301795,2.81067,9.6027,-0.0121406,0.00305424,0.0105371,0
2024-11-29 17:58:10.301,0.301795,2.81067,9.6027,-0.0121406,0.00305424,0.0105371,0
2024-11-29 17:58:10.303,0.301795,2.82981,9.60748,-0.0121406,0.00305424,0.0105371,0
2024-11-29 17:58:10.306,0.297009,2.83938,9.60748,-0.0133623,0.00122169,0.00931542,0
2024-11-29 17:58:10.307,0.292223,2.83938,9.60987,-0.0139731,0.00244339,0.00870457,0
2024-11-29 17:58:10.309,0.299402,2.83938,9.61945,-0.0151948,0.00244339,0.00565034,0
2024-11-29 17:58:10.312,0.301795,2.84417,9.63141,-0.0151948,0.00183254,0.00320695,0
2024-11-29 17:58:10.314,0.304188,2.8322,9.65295,-0.0164165,-0.000610847,0.00137441,0
2024-11-29 17:58:10.318,0.316152,2.82503,9.66252,-0.0194708,-0.00488678,-0.00534491,0
2024-11-29 17:58:10.319,0.316152,2.81545,9.66252,-0.0194708,-0.00488678,-0.00534491,0
2024-11-29 17:58:10.322,0.311366,2.79871,9.67209,-0.0182491,-0.0103844,-0.0077883,0
2024-11-29 17:58:10.324,0.304188,2.78674,9.67927,-0.0170274,-0.0134386,-0.00839915,0
2024-11-29 17:58:10.326,0.301795,2.78674,9.68405,-0.0164165,-0.0177146,-0.0114534,0
2024-11-29 17:58:10.329,0.301795,2.79631,9.69841,-0.0164165,-0.0207688,-0.0157293,0
2024-11-29 17:58:10.332,0.297009,2.79153,9.71037,-0.0170274,-0.0226013,-0.0157293,0
2024-11-29 17:58:10.333,0.275175,2.79631,9.71516,-0.0170274,-0.0226013,-0.0157293,0
2024-11-29 17:58:10.335,0.246461,2.80349,9.72473,-0.0158057,-0.0244339,-0.0163402,0
2024-11-29 17:58:10.339,0.229711,2.79153,9.72473,-0.014584,-0.0262664,-0.0187836,0
2024-11-29 17:58:10.341,0.224925,2.77717,9.7343,-0.014584,-0.0262664,-0.0187836,0
2024-11-29 17:58:10.343,0.222533,2.76521,9.74148,-0.0133623,-0.0256556,-0.016951,0
2024-11-29 17:58:10.346,0.22014,2.75324,9.74627,-0.0127514,-0.0274881,-0.0181727,0
2024-11-29 17:58:10.348,0.212961,2.74606,9.73669,-0.00786466,-0.0274881,-0.0212269,0
2024-11-29 17:58:10.349,0.212961,2.73888,9.72712,-0.00786466,-0.0274881,-0.0212269,0
2024-11-29 17:58:10.353,0.210568,2.72931,9.73669,-0.00786466,-0.028099,-0.0175619,0
2024-11-29 17:58:10.355,0.198604,2.70539,9.73909,-0.00786466,-0.028099,-0.0175619,0
2024-11-29 17:58:10.357,0.191426,2.69581,9.74866,-0.00725381,-0.0262664,-0.0163402,0
2024-11-29 17:58:10.359,0.193819,2.70778,9.73909,-0.00603212,-0.023823,-0.0132859,0
2024-11-29 17:58:10.362,0.189033,2.7006,9.72712,-0.00725381,-0.0207688,-0.0138968,0
2024-11-29 17:58:10.365,0.184247,2.69821,9.72952,-0.00725381,-0.0177146,-0.0126751,0
2024-11-29 17:58:10.367,0.198604,2.70778,9.73191,-0.00603212,-0.0103844,-0.00901,0
2024-11-29 17:58:10.369,0.210568,2.70299,9.72952,-0.00603212,-0.0103844,-0.00901,0
2024-11-29 17:58:10.372,0.210568,2.7006,9.72952,-0.00664296,-0.00610847,-0.0102317,0
2024-11-29 17:58:10.374,0.208176,2.71496,9.72712,-0.00664296,-0.00610847,-0.0102317,0
2024-11-29 17:58:10.375,0.208176,2.71017,9.72473,-0.00603212,-0.00305424,-0.00839915,0
2024-11-29 17:58:10.379,0.22014,2.7006,9.71277,-0.00847551,0.00549763,-0.00717746,0
2024-11-29 17:58:10.381,0.222533,2.71256,9.7008,-0.00847551,0.00549763,-0.00717746,0
2024-11-29 17:58:10.382,0.208176,2.70539,9.7008,-0.00786466,0.00916271,-0.00839915,0
2024-11-29 17:58:10.386,0.191426,2.70539,9.69602,-0.00847551,0.0122169,-0.0077883,0
2024-11-29 17:58:10.387,0.179462,2.71735,9.69123,-0.0096972,0.0177146,-0.00901,0
2024-11-29 17:58:10.390,0.177069,2.71735,9.67927,-0.00847551,0.0213797,-0.0077883,0
2024-11-29 17:58:10.393,0.165105,2.72453,9.66252,-0.00786466,0.0268773,-0.00839915,0
2024-11-29 17:58:10.394,0.148355,2.72692,9.64098,-0.00786466,0.0268773,-0.00839915,0
2024-11-29 17:58:10.398,0.12682,2.73649,9.61227,-0.010308,0.0287098,-0.0077883,0
2024-11-29 17:58:10.400,0.114855,2.74128,9.59313,-0.010308,0.0287098,-0.0077883,0
2024-11-29 17:58:10.404,0.11007,2.7341,9.53809,-0.0121406,0.0305424,-0.00595576,0
2024-11-29 17:58:10.405,0.0909273,2.7341,9.53809,-0.014584,0.0293207,-0.00595576,0
2024-11-29 17:58:10.406,0.0693919,2.74606,9.53091,-0.014584,0.0293207,-0.00595576,0
2024-11-29 17:58:10.408,0.0526421,2.74846,9.51655,-0.0158057,0.0293207,-0.00412322,0
2024-11-29 17:58:10.412,0.0526421,2.73888,9.49502,-0.0200816,0.0293207,-0.00229068,0
2024-11-29 17:58:10.414,0.0478565,2.7341,9.47109,-0.0219141,0.0268773,-0.00106898,0
2024-11-29 17:58:10.415,0.0287139,2.73171,9.45434,-0.0237467,0.0268773,0.000763559,0
2024-11-29 17:58:10.419,0.026321,2.73888,9.44477,-0.0249684,0.0250447,0.0038178,0
2024-11-29 17:58:10.421,0.0334995,2.73171,9.44238,-0.0292443,0.0189363,0.00565034,0
2024-11-29 17:58:10.423,0.0311067,2.71256,9.4352,-0.0292443,0.0189363,0.00565034,0
2024-11-29 17:58:10.426,0.0334995,2.69581,9.43759,-0.0335202,0.0146603,0.00748288,0
2024-11-29 17:58:10.427,0.0502493,2.69342,9.44238,-0.0371853,0.00855186,0.00809373,0
2024-11-29 17:58:10.431,0.0717847,2.7006,9.43281,-0.042683,-0.00427593,0.00870457,0
2024-11-29 17:58:10.433,0.0885344,2.70778,9.44477,-0.0481806,-0.0146603,0.00687203,0
2024-11-29 17:58:10.435,0.0957129,2.71496,9.45913,-0.0481806,-0.0146603,0.00687203,0
2024-11-29 17:58:10.437,0.0885344,2.70778,9.4687,-0.0494023,-0.020158,0.00687203,0
2024-11-29 17:58:10.440,0.0957129,2.70299,9.49502,-0.0524565,-0.0274881,0.00565034,0
2024-11-29 17:58:10.441,0.112463,2.71496,9.5333,-0.0536782,-0.0342074,0.00503949,0
2024-11-29 17:58:10.445,0.107677,2.72213,9.58355,-0.0561216,-0.0384834,0.0038178,0
2024-11-29 17:58:10.455,0.129212,2.72453,9.77977,-0.0555107,-0.0580305,-0.00106898,0
2024-11-29 17:58:10.455,0.129212,2.72453,9.77977,-0.0555107,-0.0580305,-0.00106898,0
2024-11-29 17:58:10.455,0.129212,2.72453,9.77977,-0.0555107,-0.0580305,-0.00106898,0
2024-11-29 17:58:10.456,0.129212,2.72453,9.77977,-0.0555107,-0.0580305,-0.00106898,0
2024-11-29 17:58:10.458,0.133998,2.71496,9.81566,-0.0518457,-0.0586413,-0.00351237,0
2024-11-29 17:58:10.459,0.133998,2.71496,9.81566,-0.0518457,-0.0586413,-0.00351237,0
2024-11-29 17:58:10.460,0.11007,2.69581,9.85185,-0.0487914,-0.0580305,-0.00473407,0
2024-11-29 17:58:10.464,0.11007,2.68624,9.87817,-0.0451263,-0.0574196,-0.00412322,0
2024-11-29 17:58:10.468,0.0885344,2.68385,9.91885,-0.0329094,-0.0537546,-0.00229068,0
2024-11-29 17:58:10.470,0.0574277,2.66949,9.92603,-0.0329094,-0.0537546,-0.00229068,0
2024-11-29 17:58:10.471,0.0574277,2.66949,9.92603,-0.0329094,-0.0537546,-0.00229068,0
2024-11-29 17:58:10.472,0.0454636,2.66949,9.94038,-0.0286335,-0.0525329,0.000152712,0
2024-11-29 17:58:10.475,0.0454636,2.66231,9.93081,-0.0237467,-0.0500895,0.00137441,0
2024-11-29 17:58:10.478,0.0215354,2.64796,9.92363,-0.022525,-0.0488678,0.00442864,0
2024-11-29 17:58:10.479,0.00957129,2.64556,9.93081,-0.0164165,-0.0476461,0.00870457,0
2024-11-29 17:58:10.482,-0.00717847,2.64556,9.92363,-0.0139731,-0.0452027,0.0129805,0
2024-11-29 17:58:10.485,-0.026321,2.64796,9.90688,-0.010308,-0.043981,0.0142022,0
2024-11-29 17:58:10.487,-0.0167498,2.64556,9.88056,-0.00847551,-0.0415376,0.0239758,0
2024-11-29 17:58:10.489,-0.0143569,2.64078,9.8686,-0.00847551,-0.0415376,0.0239758,0
2024-11-29 17:58:10.491,-0.00957129,2.63121,9.85185,-0.00664296,-0.0415376,0.0282517,0
2024-11-29 17:58:10.494,0.00239282,2.62403,9.83749,-0.00725381,-0.0403159,0.0306951,0
2024-11-29 17:58:10.497,0.0119641,2.62403,9.8351,-0.00786466,-0.0403159,0.0361927,0
2024-11-29 17:58:10.498,0.0239282,2.61685,9.81805,-0.00664296,-0.0384834,0.0386361,0
2024-11-29 17:58:10.500,0.040678,2.61207,9.82074,-0.0096972,-0.0354291,0.0404686,0
2024-11-29 17:58:10.504,0.066999,2.62164,9.82074,-0.0096972,-0.0293207,0.0459663,0
2024-11-29 17:58:10.506,0.0861416,2.62642,9.82074,-0.0109189,-0.0262664,0.0477988,0
2024-11-29 17:58:10.508,0.0981057,2.63121,9.83749,-0.0109189,-0.0262664,0.0477988,0
2024-11-29 17:58:10.510,0.112463,2.64317,9.84467,-0.0121406,-0.0195471,0.0496313,0
2024-11-29 17:58:10.512,0.131605,2.65274,9.83031,-0.00908635,-0.0109953,0.050853,0
2024-11-29 17:58:10.515,0.150748,2.66949,9.82553,-0.0096972,-0.00366508,0.0514639,0
2024-11-29 17:58:10.517,0.172283,2.6671,9.82792,-0.0121406,-0.000610847,0.0539073,0
2024-11-29 17:58:10.520,0.205783,2.6671,9.82074,-0.0096972,0.00549763,0.0526856,0
2024-11-29 17:58:10.521,0.234497,2.66949,9.81805,-0.00725381,0.0103844,0.0520747,0
2024-11-29 17:58:10.525,0.236889,2.66231,9.79891,-0.00786466,0.0128278,0.050853,0
2024-11-29 17:58:10.527,0.253639,2.65753,9.77019,-0.00847551,0.015882,0.0490205,0
2024-11-29 17:58:10.530,0.27996,2.65753,9.75105,-0.00786466,0.015882,0.0484096,0
2024-11-29 17:58:10.532,0.304188,2.66471,9.74387,-0.00786466,0.015882,0.0484096,0
2024-11-29 17:58:10.533,0.32333,2.66949,9.71755,-0.010308,0.0152712,0.0477988,0
2024-11-29 17:58:10.537,0.337687,2.66471,9.68166,-0.0121406,0.0134386,0.0416903,0
2024-11-29 17:58:10.539,0.344866,2.6671,9.6697,-0.0127514,0.0122169,0.0380252,0
2024-11-29 17:58:10.541,0.352044,2.66949,9.66252,-0.0127514,0.0122169,0.0380252,0
2024-11-29 17:58:10.543,0.35683,2.67428,9.6362,-0.0139731,0.00977356,0.0355819,0
2024-11-29 17:58:10.545,0.354437,2.67906,9.62902,-0.0164165,0.00733017,0.0319168,0
2024-11-29 17:58:10.547,0.366401,2.71017,9.61705,-0.0151948,0.00610847,0.0276408,0
2024-11-29 17:58:10.551,0.368794,2.73649,9.59791,-0.0170274,0.00549763,0.0251975,0
2024-11-29 17:58:10.552,0.366401,2.73649,9.58834,-0.0158057,0.00488678,0.0233649,0
2024-11-29 17:58:10.555,0.368794,2.74367,9.5668,-0.0158057,0.00549763,0.0215324,0
2024-11-29 17:58:10.557,0.359223,2.74367,9.54048,-0.0158057,0.00488678,0.019089,0
2024-11-29 17:58:10.560,0.35683,2.74128,9.51416,-0.0164165,0.00305424,0.0142022,0
2024-11-29 17:58:10.561,0.371187,2.72692,9.49263,-0.0151948,0.00427593,0.0129805,0
2024-11-29 17:58:10.565,0.375972,2.71017,9.45673,-0.0200816,0.0,0.00809373,0
2024-11-29 17:58:10.567,0.368794,2.70778,9.41366,-0.0200816,0.0,0.00809373,0
2024-11-29 17:58:10.569,0.368794,2.70539,9.37777,-0.0237467,-0.00610847,0.00320695,0
2024-11-29 17:58:10.572,0.371187,2.70778,9.32752,-0.0310769,-0.015882,-0.00412322,0
2024-11-29 17:58:10.574,0.378365,2.71496,9.29881,-0.0310769,-0.015882,-0.00412322,0
2024-11-29 17:58:10.576,0.390329,2.70778,9.27727,-0.0377962,-0.023823,-0.00717746,0
2024-11-29 17:58:10.578,0.392722,2.71256,9.24826,-0.0451263,-0.0342074,-0.0102317,0
2024-11-29 17:58:10.580,0.383151,2.72692,9.24587,-0.0475697,-0.0427593,-0.0126751,0
2024-11-29 17:58:10.583,0.387936,2.71974,9.25544,-0.0524565,-0.0500895,-0.0181727,0
2024-11-29 17:58:10.585,0.407079,2.7341,9.2677,-0.0591758,-0.0580305,-0.0218378,0
2024-11-29 17:58:10.588,0.411865,2.73888,9.28445,-0.0658951,-0.0684149,-0.024892,0
2024-11-29 17:58:10.591,0.411865,2.72931,9.31077,-0.0732253,-0.0818535,-0.0322222,0
2024-11-29 17:58:10.593,0.426222,2.73649,9.33709,-0.0799446,-0.0891837,-0.0352764,0
2024-11-29 17:58:10.595,0.445364,2.72931,9.36102,-0.0799446,-0.0891837,-0.0352764,0
2024-11-29 17:58:10.599,0.474078,2.72931,9.41366,-0.0836097,-0.0995681,-0.0438283,0
2024-11-29 17:58:10.600,0.474078,2.72931,9.41366,-0.0860531,-0.104455,-0.0487151,0
2024-11-29 17:58:10.603,0.483649,2.71496,9.44477,-0.0860531,-0.104455,-0.0487151,0
2024-11-29 17:58:10.605,0.505185,2.71017,9.48545,-0.0891073,-0.110563,-0.0566561,0
2024-11-29 17:58:10.607,0.521934,2.70299,9.51655,-0.0891073,-0.110563,-0.0566561,0
2024-11-29 17:58:10.609,0.538684,2.70778,9.54288,-0.0909399,-0.114839,-0.060932,0
2024-11-29 17:58:10.611,0.555434,2.70299,9.56202,-0.0897182,-0.11545,-0.0652079,0
2024-11-29 17:58:10.614,0.557827,2.69103,9.57398,-0.086664,-0.114839,-0.0676513,0
2024-11-29 17:58:10.617,0.574577,2.68624,9.57877,-0.0891073,-0.116061,-0.0725381,0
2024-11-29 17:58:10.618,0.593719,2.68864,9.58355,-0.0891073,-0.117283,-0.0774249,0
2024-11-29 17:58:10.621,0.600898,2.67906,9.59552,-0.0854423,-0.117894,-0.0817008,0
2024-11-29 17:58:10.624,0.622433,2.66949,9.61227,-0.0836097,-0.116672,-0.0902527,0
2024-11-29 17:58:10.626,0.641576,2.66949,9.61466,-0.0836097,-0.116672,-0.0902527,0
2024-11-29 17:58:10.627,0.646361,2.6671,9.6027,-0.0829989,-0.116061,-0.0951395,0
2024-11-29 17:58:10.631,0.658325,2.67189,9.6027,-0.0829989,-0.116061,-0.0994154,0
2024-11-29 17:58:10.633,0.672682,2.67189,9.60509,-0.082388,-0.113007,-0.1098,0
2024-11-29 17:58:10.636,0.672682,2.65992,9.59552,-0.082388,-0.114228,-0.114076,0
2024-11-29 17:58:10.638,0.672682,2.64078,9.5668,-0.0836097,-0.114228,-0.119573,0
2024-11-29 17:58:10.640,0.689432,2.63121,9.5333,-0.0836097,-0.114228,-0.119573,0
2024-11-29 17:58:10.642,0.710967,2.62642,9.51655,-0.0860531,-0.117894,-0.123849,0
2024-11-29 17:58:10.644,0.703789,2.61207,9.50938,-0.0878856,-0.120948,-0.130569,0
2024-11-29 17:58:10.647,0.694218,2.60728,9.49502,-0.0915507,-0.12278,-0.13851,0
2024-11-29 17:58:10.650,0.706182,2.60728,9.48545,-0.101324,-0.119115,-0.150116,0
2024-11-29 17:58:10.651,0.701396,2.60249,9.50459,-0.101324,-0.119115,-0.150116,0
2024-11-29 17:58:10.653,0.682254,2.61685,9.53091,-0.101935,-0.109342,-0.156224,0
2024-11-29 17:58:10.656,0.651147,2.64078,9.54288,-0.101935,-0.0989573,-0.161111,0
2024-11-29 17:58:10.659,0.639183,2.66471,9.54527,-0.101935,-0.0897945,-0.166609,0
2024-11-29 17:58:10.660,0.622433,2.67428,9.54288,-0.0982701,-0.0806318,-0.170274,0
2024-11-29 17:58:10.664,0.586541,2.66949,9.5357,-0.0952158,-0.067804,-0.173939,0
2024-11-29 17:58:10.665,0.576969,2.65514,9.51895,-0.0970484,-0.0561979,-0.177604,0
2024-11-29 17:58:10.669,0.555434,2.63839,9.48306,-0.094605,-0.0458135,-0.180658,0
2024-11-29 17:58:10.670,0.50997,2.64317,9.43998,-0.0927724,-0.0354291,-0.186156,0
2024-11-29 17:58:10.672,0.483649,2.64317,9.37777,-0.0891073,-0.0250447,-0.189821,0
2024-11-29 17:58:10.675,0.45015,2.64078,9.30599,-0.090329,-0.0152712,-0.190432,0
2024-11-29 17:58:10.678,0.402293,2.65035,9.24587,-0.0939941,-0.00794101,-0.195929,0
2024-11-29 17:58:10.680,0.361615,2.6671,9.17647,-0.0982701,-0.00794101,-0.19654,0
2024-11-29 17:58:10.683,0.320937,2.68146,9.11905,-0.0982701,-0.00794101,-0.19654,0
2024-11-29 17:58:10.684,0.282652,2.69581,9.08315,-0.104989,-0.0109953,-0.197762,0
2024-11-29 17:58:10.686,0.260818,2.69821,9.05205,-0.109265,-0.0164929,-0.19654,0
2024-11-29 17:58:10.690,0.248854,2.68146,9.04008,-0.116595,-0.0256556,-0.195318,0
2024-11-29 17:58:10.692,0.234497,2.69821,9.02573,-0.120871,-0.0397051,-0.197151,0
2024-11-29 17:58:10.694,0.224925,2.72453,9.02812,-0.128202,-0.0555871,-0.195318,0
2024-11-29 17:58:10.697,0.248854,2.71974,9.05444,-0.138586,-0.0824644,-0.194097,0
2024-11-29 17:58:10.699,0.27996,2.71496,9.07358,-0.138586,-0.0824644,-0.194097,0
2024-11-29 17:58:10.703,0.368794,2.71256,9.14537,-0.146527,-0.11545,-0.197151,0
2024-11-29 17:58:10.703,0.368794,2.71256,9.14537,-0.146527,-0.11545,-0.197151,0
2024-11-29 17:58:10.706,0.404686,2.71017,9.19322,-0.153857,-0.141717,-0.199594,0
2024-11-29 17:58:10.709,0.442971,2.71017,9.24587,-0.155079,-0.152101,-0.202649,0
2024-11-29 17:58:10.711,0.481256,2.71017,9.30359,-0.155079,-0.152101,-0.202649,0
2024-11-29 17:58:10.712,0.519542,2.71735,9.36102,-0.153857,-0.162485,-0.206314,0
2024-11-29 17:58:10.716,0.553041,2.73171,9.40888,-0.153857,-0.166761,-0.208757,0
2024-11-29 17:58:10.717,0.579362,2.74367,9.46391,-0.152635,-0.171037,-0.214255,0
2024-11-29 17:58:10.719,0.600898,2.74846,9.51895,-0.150192,-0.169816,-0.218531,0
2024-11-29 17:58:10.723,0.62004,2.7676,9.55723,-0.145305,-0.16615,-0.220363,0
2024-11-29 17:58:10.724,0.641576,2.77956,9.59073,-0.143473,-0.159431,-0.222807,0
2024-11-29 17:58:10.726,0.663111,2.77238,9.60987,-0.140419,-0.148436,-0.225861,0
2024-11-29 17:58:10.730,0.665504,2.77956,9.60987,-0.13431,-0.11545,-0.229526,0
2024-11-29 17:58:10.732,0.655932,2.79871,9.6027,-0.13431,-0.11545,-0.229526,0
2024-11-29 17:58:10.733,0.648754,2.81306,9.58595,-0.133088,-0.0946813,-0.230748,0
2024-11-29 17:58:10.737,0.646361,2.82981,9.56202,-0.13431,-0.0445919,-0.23258,0
2024-11-29 17:58:10.738,0.646361,2.83938,9.52852,-0.13431,-0.0445919,-0.23258,0
2024-11-29 17:58:10.741,0.624826,2.84656,9.47827,-0.135532,-0.0195471,-0.233802,0
2024-11-29 17:58:10.744,0.598505,2.84417,9.42323,-0.138586,0.0116061,-0.23258,0
2024-11-29 17:58:10.746,0.588933,2.84895,9.34188,-0.140419,0.0378725,-0.230137,0
2024-11-29 17:58:10.749,0.572184,2.86092,9.25305,-0.147138,0.0653607,-0.231358,0
2024-11-29 17:58:10.750,0.553041,2.8681,9.18365,-0.156301,0.0928488,-0.228915,0
2024-11-29 17:58:10.753,0.524327,2.87767,9.10469,-0.175237,0.147214,-0.224639,0
2024-11-29 17:58:10.755,0.483649,2.88724,9.00419,-0.175237,0.147214,-0.224639,0
2024-11-29 17:58:10.757,0.457328,2.90638,8.88934,-0.188065,0.170426,-0.22525,0
2024-11-29 17:58:10.760,0.442971,2.92552,8.78644,-0.202725,0.188752,-0.223417,0
2024-11-29 17:58:10.763,0.404686,2.9351,8.69522,-0.238765,0.21624,-0.219141,0
2024-11-29 17:58:10.764,0.375972,2.95424,8.61625,-0.238765,0.21624,-0.219141,0
2024-11-29 17:58:10.767,0.361615,2.98535,8.5349,-0.258312,0.22357,-0.217309,0
2024-11-29 17:58:10.769,0.344866,2.99252,8.48704,-0.279692,0.226624,-0.214255,0
2024-11-29 17:58:10.771,0.337687,3.01884,8.46311,-0.302293,0.225403,-0.212422,0
2024-11-29 17:58:10.774,0.337687,3.05234,8.42962,-0.326727,0.222348,-0.209368,0
2024-11-29 17:58:10.776,0.344866,3.06192,8.41047,-0.355437,0.218683,-0.206314,0
2024-11-29 17:58:10.779,0.359223,3.07867,8.41526,-0.405526,0.200358,-0.202649,0
2024-11-29 17:58:10.781,0.375972,3.10289,8.42962,-0.405526,0.200358,-0.202649,0
2024-11-29 17:58:10.784,0.392722,3.13639,8.45594,-0.456227,0.166761,-0.202038,0
2024-11-29 17:58:10.785,0.411865,3.16032,8.5014,-0.456227,0.166761,-0.202038,0
2024-11-29 17:58:10.790,0.478864,3.16989,8.63779,-0.508149,0.121559,-0.203259,0
2024-11-29 17:58:10.791,0.478864,3.16989,8.63779,-0.532582,0.0928488,-0.20387,0
2024-11-29 17:58:10.793,0.529113,3.17946,8.72662,-0.532582,0.0928488,-0.20387,0
2024-11-29 17:58:10.796,0.596112,3.18664,8.83669,-0.55946,0.064139,-0.206925,0
2024-11-29 17:58:10.798,0.663111,3.18186,8.97787,-0.582061,0.0317641,-0.213033,0
2024-11-29 17:58:10.799,0.737288,3.1675,9.10948,-0.604662,0.0,-0.220363,0
2024-11-29 17:58:10.803,0.804287,3.15553,9.2363,-0.645055,-0.0592522,-0.23258,0
2024-11-29 17:58:10.805,0.862014,3.13639,9.39931,-0.660937,-0.087962,-0.238689,0
2024-11-29 17:58:10.806,0.938585,3.09811,9.5668,-0.660937,-0.087962,-0.238689,0
2024-11-29 17:58:10.810,1.01037,3.06431,9.72473,-0.674986,-0.112396,-0.249684,0
2024-11-29 17:58:10.811,1.04387,3.01884,9.9021,-0.687203,-0.138051,-0.256403,0
2024-11-29 17:58:10.815,1.08933,2.97338,10.0935,-0.697588,-0.159431,-0.261901,0
2024-11-29 17:58:10.816,1.13719,2.93988,10.285,-0.703085,-0.178978,-0.269842,0
2024-11-29 17:58:10.818,1.16351,2.90638,10.4695,-0.707972,-0.193639,-0.27595,0
2024-11-29 17:58:10.821,1.18505,2.87288,10.6466,-0.712248,-0.204023,-0.280226,0
2024-11-29 17:58:10.824,1.19222,2.84178,10.8188,-0.710415,-0.20891,-0.285113,0
2024-11-29 17:58:10.825,1.18983,2.82024,10.9938,-0.707361,-0.211353,-0.288778,0
2024-11-29 17:58:10.829,1.1683,2.80349,11.1661,-0.69209,-0.195471,-0.288778,0
2024-11-29 17:58:10.831,1.14676,2.79153,11.3288,-0.69209,-0.195471,-0.288778,0
2024-11-29 17:58:10.833,1.13719,2.78674,11.482,-0.679262,-0.181422,-0.29,0
2024-11-29 17:58:10.835,1.09412,2.78674,11.6067,-0.66338,-0.155766,-0.291832,0
2024-11-29 17:58:10.838,1.04626,2.79631,11.7191,-0.644444,-0.127667,-0.292443,0
2024-11-29 17:58:10.839,1.00798,2.8011,11.8196,-0.622377,-0.0952922,-0.290611,0
2024-11-29 17:58:10.843,0.94337,2.82981,11.8986,-0.596721,-0.0561979,-0.29,0
2024-11-29 17:58:10.844,0.842872,2.86331,11.9967,-0.566179,-0.0128278,-0.285113,0
2024-11-29 17:58:10.848,0.720539,2.88963,12.0927,-0.533193,0.0287098,-0.281448,0
2024-11-29 17:58:10.851,0.447757,2.94467,12.143,-0.461113,0.117894,-0.262512,0
2024-11-29 17:58:10.852,0.447757,2.94467,12.143,-0.418965,0.161875,-0.248462,0
2024-11-29 17:58:10.855,0.297009,2.9686,12.0975,-0.376206,0.206466,-0.233802,0
2024-11-29 17:58:10.857,0.153141,2.98056,12.0135,-0.33589,0.249226,-0.215476,0
2024-11-29 17:58:10.858,0.0215354,2.98774,11.8771,-0.33589,0.249226,-0.215476,0
2024-11-29 17:58:10.862,-0.0789631,2.97577,11.7096,-0.25709,0.326192,-0.173939,0
2024-11-29 17:58:10.864,-0.16989,2.95185,11.5086,-0.25709,0.326192,-0.173939,0
2024-11-29 17:58:10.866,-0.246461,2.93988,11.2857,-0.222883,0.356124,-0.149505,0
2024-11-29 17:58:10.868,-0.292223,2.95185,11.0393,-0.190508,0.380558,-0.129347,0
2024-11-29 17:58:10.871,-0.344866,2.93749,10.771,-0.16302,0.398883,-0.107356,0
2024-11-29 17:58:10.873,-0.3999,2.92552,10.5126,-0.136753,0.412322,-0.0859767,0
2024-11-29 17:58:10.875,-0.440578,2.94467,10.2538,-0.117817,0.422706,-0.0658188,0
2024-11-29 17:58:10.878,-0.478864,2.97099,10.0313,-0.100103,0.424539,-0.0468825,0
2024-11-29 17:58:10.881,-0.505185,2.99492,9.82074,-0.0768904,0.421485,-0.0108425,0
2024-11-29 17:58:10.882,-0.505185,3.01884,9.6362,-0.0768904,0.421485,-0.0108425,0
2024-11-29 17:58:10.885,-0.505185,3.06431,9.48784,-0.0683385,0.414154,0.00687203,0
2024-11-29 17:58:10.888,-0.517149,3.11007,9.32034,-0.0597867,0.406213,0.0227541,0
2024-11-29 17:58:10.889,-0.512363,3.14118,9.15255,-0.0530674,0.393996,0.0386361,0
2024-11-29 17:58:10.891,-0.486042,3.17468,8.99701,-0.0487914,0.38239,0.0514639,0
2024-11-29 17:58:10.894,-0.464507,3.201,8.85344,-0.0451263,0.36773,0.0655134,0
2024-11-29 17:58:10.896,-0.454935,3.23928,8.73141,-0.046348,0.348794,0.0758978,0
2024-11-29 17:58:10.899,-0.426222,3.28714,8.63301,-0.046348,0.325582,0.0832279,0
2024-11-29 17:58:10.901,-0.375972,3.32303,8.55883,-0.0481806,0.300537,0.0887256,0
2024-11-29 17:58:10.904,-0.32333,3.34696,8.50379,-0.0561216,0.237009,0.094834,0
2024-11-29 17:58:10.906,-0.270389,3.37089,8.45354,-0.0561216,0.237009,0.094834,0
2024-11-29 17:58:10.909,-0.217747,3.41157,8.43679,-0.0640626,0.16554,0.0923906,0
2024-11-29 17:58:10.911,-0.193819,3.43071,8.44158,-0.0677277,0.131332,0.0887256,0
2024-11-29 17:58:10.913,-0.177069,3.42832,8.43919,-0.0677277,0.131332,0.0887256,0
2024-11-29 17:58:10.915,-0.141177,3.44028,8.45833,-0.0720036,0.105066,0.0875039,0
2024-11-29 17:58:10.918,-0.114855,3.47617,8.49901,-0.074447,0.0647498,0.0758978,0
2024-11-29 17:58:10.920,-0.0885344,3.52164,8.55643,-0.074447,0.0647498,0.0758978,0
2024-11-29 17:58:10.922,-0.0574277,3.55514,8.64258,-0.0707819,0.0452027,0.0691785,0
2024-11-29 17:58:10.925,-0.0239282,3.58146,8.70748,-0.0695602,0.028099,0.0563507,0
2024-11-29 17:58:10.928,0.026321,3.60299,8.74816,-0.0646735,0.00733017,0.042912,0
2024-11-29 17:58:10.930,0.0502493,3.61256,8.80559,-0.0603975,-0.0152712,0.0282517,0
2024-11-29 17:58:10.931,0.0502493,3.59821,8.86302,-0.0518457,-0.0397051,0.0142022,0
2024-11-29 17:58:10.934,0.0526421,3.5671,8.90369,-0.0481806,-0.0665824,-0.00290152,0
2024-11-29 17:58:10.937,0.0430708,3.55514,8.92762,-0.042683,-0.0910162,-0.0175619,0
2024-11-29 17:58:10.939,0.040678,3.53839,8.93241,-0.0347419,-0.112396,-0.0310005,0
2024-11-29 17:58:10.941,0.040678,3.49292,8.93959,-0.0322986,-0.1295,-0.0456608,0
2024-11-29 17:58:10.944,0.0358923,3.44746,8.94676,-0.0268009,-0.162485,-0.0682622,0
2024-11-29 17:58:10.946,0.0167498,3.39242,8.94916,-0.0268009,-0.162485,-0.0682622,0
2024-11-29 17:58:10.948,-0.0119641,3.335,8.94676,-0.0249684,-0.177757,-0.0786466,0
2024-11-29 17:58:10.951,-0.0334995,3.28475,8.92523,-0.0249684,-0.191806,-0.0871984,0
2024-11-29 17:58:10.960,-0.00478565,3.04756,9.03291,-0.0481806,-0.248004,-0.096972,0
2024-11-29 17:58:10.960,-0.00478565,3.04756,9.03291,-0.0481806,-0.248004,-0.096972,0
2024-11-29 17:58:10.960,-0.00478565,3.04756,9.03291,-0.0481806,-0.248004,-0.096972,0
2024-11-29 17:58:10.961,-0.00478565,3.04756,9.03291,-0.0567324,-0.256556,-0.096972,0
2024-11-29 17:58:10.962,0.0167498,2.97817,9.09273,-0.0567324,-0.256556,-0.096972,0
2024-11-29 17:58:10.965,0.0454636,2.9327,9.14537,-0.0732253,-0.269384,-0.0975828,0
2024-11-29 17:58:10.967,0.081356,2.8992,9.22912,-0.0732253,-0.269384,-0.0975828,0
2024-11-29 17:58:10.970,0.102891,2.85374,9.31556,-0.0860531,-0.269384,-0.0951395,0
2024-11-29 17:58:10.972,0.112463,2.82742,9.42802,-0.0958267,-0.269994,-0.0933069,0
2024-11-29 17:58:10.974,0.136391,2.81785,9.54527,-0.102546,-0.262664,-0.0920852,0
2024-11-29 17:58:10.976,0.160319,2.81306,9.65055,-0.107433,-0.256556,-0.089031,0
2024-11-29 17:58:10.979,0.191426,2.79631,9.77498,-0.115374,-0.246171,-0.0871984,0
2024-11-29 17:58:10.982,0.239282,2.77717,9.89971,-0.11965,-0.22357,-0.0859767,0
2024-11-29 17:58:10.983,0.265603,2.77956,10.0146,-0.11965,-0.22357,-0.0859767,0
2024-11-29 17:58:10.987,0.282652,2.77717,10.1246,-0.121482,-0.211353,-0.0841442,0
2024-11-29 17:58:10.988,0.32333,2.76521,10.218,-0.122704,-0.196693,-0.0853659,0
2024-11-29 17:58:10.991,0.368794,2.76281,10.3161,-0.124536,-0.182032,-0.0884201,0
2024-11-29 17:58:10.993,0.414257,2.74128,10.4121,-0.120871,-0.163096,-0.0908635,0
2024-11-29 17:58:10.996,0.459721,2.71017,10.4647,-0.115985,-0.130721,-0.0957503,0
2024-11-29 17:58:10.998,0.498006,2.69581,10.515,-0.115985,-0.130721,-0.0957503,0
2024-11-29 17:58:11.001,0.524327,2.67428,10.5748,-0.111709,-0.095903,-0.103691,0
2024-11-29 17:58:11.002,0.545863,2.65274,10.6298,-0.111709,-0.095903,-0.103691,0
2024-11-29 17:58:11.005,0.562612,2.65035,10.6753,-0.109265,-0.0775776,-0.109189,0
2024-11-29 17:58:11.007,0.584148,2.62881,10.7016,-0.107433,-0.0592522,-0.113465,0
2024-11-29 17:58:11.009,0.586541,2.59532,10.7136,-0.104379,-0.0415376,-0.116519,0
2024-11-29 17:58:11.012,0.579362,2.57139,10.7303,-0.101935,-0.0226013,-0.120795,0
2024-11-29 17:58:11.015,0.591326,2.55703,10.7471,-0.0976592,0.0116061,-0.125071,0
2024-11-29 17:58:11.017,0.581755,2.54507,10.7423,-0.0976592,0.0116061,-0.125071,0
2024-11-29 17:58:11.019,0.562612,2.51845,10.7183,-0.0964375,0.0287098,-0.127514,0
2024-11-29 17:58:11.021,0.557827,2.5017,10.6968,-0.0976592,0.0433702,-0.128125,0
2024-11-29 17:58:11.023,0.550648,2.49452,10.6872,-0.0958267,0.0561979,-0.126904,0
2024-11-29 17:58:11.027,0.533899,2.47298,10.6681,-0.0976592,0.0824644,-0.127514,0
2024-11-29 17:58:11.029,0.521934,2.45863,10.649,-0.101324,0.0916271,-0.128125,0
2024-11-29 17:58:11.031,0.507577,2.44666,10.6561,-0.101324,0.0916271,-0.128125,0
2024-11-29 17:58:11.034,0.486042,2.44188,10.649,-0.1056,0.105677,-0.12446,0
2024-11-29 17:58:11.036,0.478864,2.45145,10.6179,-0.1056,0.105677,-0.12446,0
2024-11-29 17:58:11.038,0.471685,2.43948,10.6202,-0.109876,0.113007,-0.123238,0
2024-11-29 17:58:11.040,0.445364,2.44666,10.637,-0.113541,0.119115,-0.120795,0
2024-11-29 17:58:11.042,0.411865,2.46102,10.6514,-0.116595,0.124613,-0.120795,0
2024-11-29 17:58:11.044,0.392722,2.4682,10.6729,-0.118428,0.131332,-0.118963,0
2024-11-29 17:58:11.047,0.364008,2.48016,10.692,-0.121482,0.139273,-0.115297,0
2024-11-29 17:58:11.049,0.332901,2.48495,10.716,-0.122704,0.145992,-0.113465,0
2024-11-29 17:58:11.051,0.299402,2.49212,10.7231,-0.11965,0.15149,-0.111021,0
2024-11-29 17:58:11.055,0.263211,2.5017,10.7351,-0.116595,0.16554,-0.0994154,0
2024-11-29 17:58:11.057,0.244068,2.49691,10.759,-0.116595,0.16554,-0.0994154,0
2024-11-29 17:58:11.059,0.222533,2.48973,10.7853,-0.115374,0.171648,-0.0957503,0
2024-11-29 17:58:11.061,0.184247,2.48973,10.7973,-0.11232,0.178367,-0.0896418,0
2024-11-29 17:58:11.064,0.155533,2.48495,10.7949,-0.110487,0.183865,-0.0829225,0
2024-11-29 17:58:11.067,0.131605,2.4682,10.7973,-0.103768,0.189974,-0.073149,0
2024-11-29 17:58:11.068,0.112463,2.46341,10.7949,-0.100713,0.195471,-0.0682622,0
2024-11-29 17:58:11.071,0.0981057,2.47298,10.783,-0.0952158,0.20219,-0.0603212,0
2024-11-29 17:58:11.073,0.0765703,2.44905,10.7542,-0.0884965,0.204634,-0.0505476,0
2024-11-29 17:58:11.076,0.0574277,2.4347,10.7231,-0.0860531,0.205856,-0.0401632,0
2024-11-29 17:58:11.078,0.0382852,2.44905,10.7064,-0.0811663,0.207688,-0.029168,0
2024-11-29 17:58:11.080,0.00957129,2.46341,10.6849,-0.0768904,0.20891,-0.016951,0
2024-11-29 17:58:11.082,-0.0143569,2.4658,10.6753,-0.0750579,0.207077,-0.00473407,0
2024-11-29 17:58:11.085,-0.0382852,2.46341,10.6681,-0.0701711,0.205856,0.00870457,0
2024-11-29 17:58:11.088,-0.0502493,2.47059,10.6585,-0.066506,0.206466,0.0203107,0
2024-11-29 17:58:11.089,-0.0550349,2.48255,10.6633,-0.0634518,0.20219,0.0337493,0
2024-11-29 17:58:11.093,-0.0574277,2.50887,10.6729,-0.0530674,0.193639,0.0618483,0
2024-11-29 17:58:11.094,-0.0693919,2.52084,10.6681,-0.0530674,0.193639,0.0618483,0
2024-11-29 17:58:11.097,-0.0741775,2.54267,10.6705,-0.046348,0.193028,0.0758978,0
2024-11-29 17:58:11.100,-0.0550349,2.58335,10.692,-0.0445155,0.188752,0.0887256,0
2024-11-29 17:58:11.101,-0.040678,2.61207,10.7255,-0.0347419,0.18753,0.103997,0
2024-11-29 17:58:11.103,-0.0358923,2.63839,10.7447,-0.0280226,0.185087,0.116825,0
2024-11-29 17:58:11.106,-0.0311067,2.66949,10.7614,-0.0206925,0.184476,0.12782,0
2024-11-29 17:58:11.109,-0.0334995,2.7006,10.7782,-0.010308,0.182643,0.141258,0
2024-11-29 17:58:11.110,-0.0382852,2.71735,10.7925,-0.00236703,0.182032,0.152254,0
2024-11-29 17:58:11.114,-0.040678,2.72453,10.8093,0.0159584,0.182032,0.171801,0
2024-11-29 17:58:11.115,-0.0287139,2.74367,10.8188,0.0159584,0.182032,0.171801,0
2024-11-29 17:58:11.118,-0.0454636,2.78196,10.8356,0.0275645,0.183865,0.184629,0
2024-11-29 17:58:11.120,-0.0765703,2.80828,10.8308,0.0361163,0.182643,0.194402,0
2024-11-29 17:58:11.122,-0.105284,2.82024,10.8165,0.0428357,0.183254,0.206619,0
2024-11-29 17:58:11.124,-0.124427,2.83699,10.8093,0.0513875,0.185087,0.218225,0
2024-11-29 17:58:11.127,-0.145962,2.84895,10.7997,0.0568851,0.182643,0.231053,0
2024-11-29 17:58:11.130,-0.16989,2.85853,10.7758,0.065437,0.181422,0.243881,0
2024-11-29 17:58:11.133,-0.179462,2.87767,10.759,0.0697129,0.168594,0.267704,0
2024-11-29 17:58:11.134,-0.181855,2.9016,10.7495,0.0697129,0.168594,0.267704,0
2024-11-29 17:58:11.137,-0.198604,2.9351,10.7423,0.0697129,0.161264,0.280532,0
2024-11-29 17:58:11.139,-0.224925,2.95424,10.7566,0.0691021,0.152712,0.296414,0
2024-11-29 17:58:11.141,-0.222533,2.95185,10.759,0.0715455,0.145382,0.311074,0
2024-11-29 17:58:11.144,-0.232104,2.96142,10.7471,0.0660479,0.137441,0.326956,0
2024-11-29 17:58:11.147,-0.241675,2.97577,10.7758,0.0599394,0.116061,0.356277,0
2024-11-29 17:58:11.149,-0.227318,3.01167,10.8332,0.0599394,0.116061,0.356277,0
2024-11-29 17:58:11.151,-0.200997,3.05474,10.8858,0.0519984,0.102622,0.369715,0
2024-11-29 17:58:11.153,-0.18664,3.07627,10.9555,0.0452791,0.087962,0.381932,0
2024-11-29 17:58:11.156,-0.18664,3.11246,11.0584,0.0300079,0.0470352,0.405755,0
2024-11-29 17:58:11.158,-0.193819,3.15075,11.1637,0.0300079,0.0470352,0.405755,0
2024-11-29 17:58:11.160,-0.208176,3.15793,11.2642,0.0232886,0.023823,0.418583,0
2024-11-29 17:58:11.162,-0.229711,3.1675,11.3886,0.0147367,0.00427593,0.432022,0
2024-11-29 17:58:11.166,-0.232104,3.17946,11.5517,0.00923906,-0.0164929,0.446071,0
2024-11-29 17:58:11.167,-0.196211,3.18664,11.7311,0.00557398,-0.0348183,0.45951,0
2024-11-29 17:58:11.169,-0.143569,3.201,11.9201,0.0019089,-0.0513112,0.472948,0
2024-11-29 17:58:11.173,-0.0909273,3.23211,12.1262,0.00557398,-0.0757451,0.496161,0
2024-11-29 17:58:11.174,-0.0550349,3.26321,12.332,0.00557398,-0.0757451,0.496161,0
2024-11-29 17:58:11.177,-0.0215354,3.27757,12.5306,0.0245102,-0.0757451,0.519373,0
2024-11-29 17:58:11.180,0.0119641,3.29432,12.7247,0.0342838,-0.0714691,0.529146,0
2024-11-29 17:58:11.182,0.0358923,3.30868,12.9209,0.0342838,-0.0714691,0.529146,0
2024-11-29 17:58:11.184,0.0598206,3.29671,13.1148,0.0501658,-0.0671932,0.539531,0
2024-11-29 17:58:11.186,0.081356,3.28953,13.2778,0.0666587,-0.0610847,0.547472,0
2024-11-29 17:58:11.188,0.0957129,3.29432,13.4166,0.085595,-0.0500895,0.557245,0
2024-11-29 17:58:11.190,0.112463,3.27518,13.5242,0.10392,-0.0366508,0.567019,0
2024-11-29 17:58:11.193,0.12682,3.25603,13.596,0.122246,-0.0232122,0.576182,0
2024-11-29 17:58:11.196,0.136391,3.25364,13.6582,0.141793,-0.0103844,0.583512,0
2024-11-29 17:58:11.199,0.148355,3.24646,13.6965,0.160729,0.00794101,0.589009,0
2024-11-29 17:58:11.200,0.148355,3.2345,13.7085,0.176,0.0262664,0.597561,0
2024-11-29 17:58:11.202,0.133998,3.22493,13.6917,0.192493,0.0470352,0.606113,0
2024-11-29 17:58:11.206,0.131605,3.21775,13.6606,0.214484,0.0891837,0.617108,0
2024-11-29 17:58:11.207,0.119641,3.21057,13.6032,0.214484,0.0891837,0.617108,0
2024-11-29 17:58:11.210,0.100499,3.20578,13.5386,0.226701,0.127667,0.628104,0
2024-11-29 17:58:11.213,0.0933201,3.20818,13.4716,0.229144,0.141717,0.63299,0
2024-11-29 17:58:11.215,0.0909273,3.21536,13.3998,0.229144,0.141717,0.63299,0
2024-11-29 17:58:11.216,0.0861416,3.21775,13.328,0.226701,0.154544,0.639099,0
2024-11-29 17:58:11.219,0.0693919,3.22732,13.2538,0.220592,0.16554,0.639099,0
2024-11-29 17:58:11.221,0.0430708,3.22493,13.1842,0.212651,0.175924,0.642764,0
2024-11-29 17:58:11.224,0.040678,3.22493,13.1124,0.204099,0.18753,0.64704,0
2024-11-29 17:58:11.227,0.0717847,3.24168,13.0454,0.179055,0.19486,0.651316,0
2024-11-29 17:58:11.228,0.0933201,3.24646,12.9879,0.179055,0.19486,0.651316,0
2024-11-29 17:58:11.231,0.0909273,3.25364,12.9616,0.163783,0.191806,0.648872,0
2024-11-29 17:58:11.234,0.11007,3.25125,12.9473,0.146069,0.182643,0.648262,0
2024-11-29 17:58:11.236,0.157926,3.21775,12.9377,0.126522,0.166761,0.645818,0
2024-11-29 17:58:11.238,0.212961,3.18903,12.9521,0.102699,0.143549,0.642153,0
2024-11-29 17:58:11.240,0.277567,3.16032,12.9712,0.0819299,0.11545,0.635434,0
2024-11-29 17:58:11.243,0.354437,3.11486,13.0071,0.0587177,0.0812427,0.626882,0
2024-11-29 17:58:11.245,0.445364,3.08106,13.0645,0.0361163,0.043981,0.615276,0
2024-11-29 17:58:11.247,0.521934,3.05952,13.1339,0.0122933,0.00671932,0.603059,0
2024-11-29 17:58:11.250,0.596112,3.01884,13.2347,-0.00603212,-0.0293207,0.588399,0
2024-11-29 17:58:11.252,0.670289,2.97817,13.3663,-0.0249684,-0.0653607,0.573738,0
2024-11-29 17:58:11.254,0.734896,2.95902,13.5051,-0.0390179,-0.100179,0.559689,0
2024-11-29 17:58:11.256,0.80668,2.9016,13.6439,-0.0518457,-0.136219,0.542585,0
2024-11-29 17:58:11.259,0.885943,2.81306,13.7997,-0.0597867,-0.163707,0.528536,0
2024-11-29 17:58:11.262,0.97687,2.74367,13.9457,-0.0658951,-0.193639,0.514486,0
2024-11-29 17:58:11.264,1.07498,2.67428,14.0892,-0.0640626,-0.220516,0.498604,0
2024-11-29 17:58:11.267,1.15872,2.58814,14.2448,-0.0622301,-0.242506,0.482111,0
2024-11-29 17:58:11.268,1.23769,2.49691,14.3791,-0.0561216,-0.262053,0.464397,0
2024-11-29 17:58:11.271,1.33101,2.4012,14.47,-0.046348,-0.276103,0.446682,0
2024-11-29 17:58:11.273,1.42702,2.29352,14.5346,-0.0341311,-0.287709,0.429578,0
2024-11-29 17:58:11.276,1.51316,2.18106,14.6136,-0.000534491,-0.312143,0.388041,0
2024-11-29 17:58:11.279,1.58255,2.0662,14.6734,-0.000534491,-0.312143,0.388041,0
2024-11-29 17:58:11.281,1.6352,1.94626,14.7045,0.0159584,-0.322527,0.366661,0
2024-11-29 17:58:11.283,1.67348,1.83141,14.7284,0.037338,-0.332301,0.34406,0
2024-11-29 17:58:11.286,1.70459,1.74048,14.738,0.0831516,-0.351848,0.297024,3
2024-11-29 17:58:11.287,1.71655,1.64477,14.7619,0.0831516,-0.351848,0.297024,0
2024-11-29 17:58:11.290,1.70219,1.54666,14.7595,0.108807,-0.357956,0.273201,0
2024-11-29 17:58:11.293,1.67827,1.45813,14.738,0.170503,-0.353681,0.231664,0
2024-11-29 17:58:11.295,1.63759,1.38604,14.7069,0.170503,-0.353681,0.231664,0
2024-11-29 17:58:11.297,1.58495,1.32144,14.6471,0.205321,-0.340242,0.213338,0
2024-11-29 17:58:11.299,1.51555,1.25204,14.5705,0.237696,-0.319473,0.1999,0
2024-11-29 17:58:11.301,1.43659,1.18505,14.4867,0.276179,-0.289542,0.187683,0
2024-11-29 17:58:11.304,1.35972,1.12283,14.3719,0.314663,-0.251058,0.179131,0
2024-11-29 17:58:11.306,1.29272,1.05344,14.2208,0.358644,-0.204023,0.171801,0
2024-11-29 17:58:11.309,1.23051,1.01037,14.0653,0.39896,-0.146603,0.17119,0
2024-11-29 17:58:11.312,1.16112,0.96012,13.8882,0.4857,-0.00916271,0.17119,0
2024-11-29 17:58:11.314,1.08694,0.905085,13.6846,0.4857,-0.00916271,0.17119,0
2024-11-29 17:58:11.316,1.01994,0.885943,13.4764,0.532735,0.0733017,0.174855,0
2024-11-29 17:58:11.318,0.948156,0.857229,13.2203,0.580381,0.158209,0.179742,0
2024-11-29 17:58:11.320,0.857229,0.845265,12.9209,0.626195,0.248615,0.18585,0
2024-11-29 17:58:11.323,0.754038,0.859622,12.6191,0.67323,0.340242,0.19257,0
2024-11-29 17:58:11.325,0.639183,0.871586,12.2985,0.719044,0.428204,0.198678,0
2024-11-29 17:58:11.328,0.531506,0.88355,11.9345,0.803951,0.58397,0.212117,0
2024-11-29 17:58:11.330,0.428614,0.902692,11.5588,0.803951,0.58397,0.212117,0
2024-11-29 17:58:11.332,0.330509,0.902692,11.1781,0.840602,0.650552,0.215171,0
2024-11-29 17:58:11.334,0.227318,0.902692,10.759,0.869923,0.703085,0.218225,0
2024-11-29 17:58:11.336,0.138784,0.914656,10.3184,0.898633,0.751953,0.222501,0
2024-11-29 17:58:11.339,0.0478565,0.917049,9.85185,0.916347,0.789825,0.223112,0
2024-11-29 17:58:11.342,-0.0622134,0.938585,9.37299,0.929786,0.822811,0.225555,0
2024-11-29 17:58:11.345,-0.155533,0.957727,8.93241,0.935894,0.844191,0.225555,0
2024-11-29 17:58:11.346,-0.241675,0.945763,8.54208,0.937727,0.861295,0.224334,0
2024-11-29 17:58:11.349,-0.330509,0.948156,8.14248,0.930397,0.862516,0.223723,0
2024-11-29 17:58:11.352,-0.419043,0.986441,7.72822,0.894968,0.840526,0.218836,0
2024-11-29 17:58:11.353,-0.521934,1.02712,7.32832,0.894968,0.840526,0.218836,0
2024-11-29 17:58:11.356,-0.624826,1.0678,6.95713,0.869923,0.81487,0.218836,0
2024-11-29 17:58:11.358,-0.710967,1.11565,6.63889,0.836937,0.783106,0.215171,0
2024-11-29 17:58:11.360,-0.799502,1.1683,6.34427,0.795399,0.740347,0.213338,0
2024-11-29 17:58:11.363,-0.862014,1.22094,6.09063,0.750197,0.691479,0.211506,0
2024-11-29 17:58:11.366,-0.907478,1.29272,5.87976,0.648185,0.574196,0.202954,0
2024-11-29 17:58:11.368,-0.938585,1.35972,5.7003,0.648185,0.574196,0.202954,0
2024-11-29 17:58:11.370,-0.94337,1.42463,5.57348,0.591987,0.507614,0.200511,0
2024-11-29 17:58:11.372,-0.919442,1.48923,5.48973,0.529681,0.437367,0.196235,0
2024-11-29 17:58:11.375,-0.871586,1.52034,5.44666,0.473483,0.361622,0.187683,0
2024-11-29 17:58:11.378,-0.821037,1.54188,5.44906,0.411177,0.282822,0.179131,0
2024-11-29 17:58:11.379,-0.761217,1.57537,5.49452,0.350092,0.204634,0.167525,0
2024-11-29 17:58:11.382,-0.670289,1.60648,5.57109,0.293283,0.124002,0.155308,0
2024-11-29 17:58:11.384,-0.557827,1.64237,5.70748,0.239528,0.0445919,0.138204,0
2024-11-29 17:58:11.386,-0.440578,1.66869,5.91596,0.186385,-0.0335966,0.122322,0
2024-11-29 17:58:11.388,-0.299402,1.68066,6.14567,0.141182,-0.106287,0.100332,0
2024-11-29 17:58:11.392,-0.138784,1.69023,6.40888,0.100255,-0.174702,0.0777303,0
2024-11-29 17:58:11.393,0.00239282,1.68784,6.67717,0.0642153,-0.236398,0.0539073,0
2024-11-29 17:58:11.396,0.117248,1.66869,6.9356,0.0385597,-0.288931,0.0294734,0
2024-11-29 17:58:11.399,0.244068,1.64955,7.19671,0.00251974,-0.368341,-0.0236703,0
2024-11-29 17:58:11.400,0.354437,1.61366,7.42403,0.00251974,-0.368341,-0.0236703,0
2024-11-29 17:58:11.403,0.431007,1.57298,7.63729,-0.00847551,-0.393996,-0.0505476,0
2024-11-29 17:58:11.405,0.514756,1.55145,7.81436,-0.0139731,-0.414154,-0.0762032,0
2024-11-29 17:58:11.407,0.588933,1.53948,7.97229,-0.0194708,-0.429426,-0.104913,0
2024-11-29 17:58:11.411,0.629611,1.5347,8.12782,-0.0194708,-0.440421,-0.135455,0
2024-11-29 17:58:11.412,0.658325,1.52513,8.27169,-0.0139731,-0.451416,-0.165387,0
2024-11-29 17:58:11.415,0.687039,1.50598,8.38415,-0.0109189,-0.458746,-0.192264,0
2024-11-29 17:58:11.418,0.699003,1.49163,8.47029,0.0019089,-0.463633,-0.250295,0
2024-11-29 17:58:11.419,0.701396,1.47488,8.54686,0.0019089,-0.463633,-0.250295,0
2024-11-29 17:58:11.422,0.708575,1.43181,8.59472,0.00740652,-0.459357,-0.275339,0
2024-11-29 17:58:11.425,0.71336,1.38126,8.62343,0.0159584,-0.448362,-0.299162,0
2024-11-29 17:58:11.427,0.706182,1.35733,8.62104,0.0226777,-0.43248,-0.324207,0
2024-11-29 17:58:11.429,0.670289,1.3334,8.6019,0.0312296,-0.412322,-0.347419,0
2024-11-29 17:58:11.432,0.622433,1.2999,8.56601,0.0403923,-0.355513,-0.392011,0
2024-11-29 17:58:11.433,0.572184,1.2664,8.49661,0.0403923,-0.355513,-0.392011,0
2024-11-29 17:58:11.436,0.486042,1.20897,8.43201,0.0391706,-0.323749,-0.410337,0
2024-11-29 17:58:11.438,0.380758,1.15155,8.34347,0.0385597,-0.289542,-0.42683,0
2024-11-29 17:58:11.440,0.265603,1.11565,8.23819,0.0348946,-0.254112,-0.442101,0
2024-11-29 17:58:11.444,0.157926,1.08933,8.13769,0.0251211,-0.219905,-0.45615,0
2024-11-29 17:58:11.445,0.0430708,1.05823,8.02732,0.0165692,-0.185087,-0.465313,0
2024-11-29 17:58:11.447,-0.0909273,1.05344,7.93639,0.00374144,-0.153323,-0.470811,0
2024-11-29 17:58:11.451,-0.217747,1.03908,7.87657,-0.0109189,-0.120337,-0.474476,0
2024-11-29 17:58:11.452,-0.342473,1.01276,7.81675,-0.0274118,-0.0885729,-0.47753,0
2024-11-29 17:58:11.455,-0.454935,1.01515,7.76411,-0.0445155,-0.0537546,-0.476308,0
2024-11-29 17:58:11.458,-0.533899,1.00319,7.733,-0.0799446,0.00427593,-0.468367,0
2024-11-29 17:58:11.459,-0.596112,0.981655,7.74497,-0.0799446,0.00427593,-0.468367,0
2024-11-29 17:58:11.461,-0.682254,1.00558,7.77129,-0.0939941,0.0329858,-0.462259,0
2024-11-29 17:58:11.464,-0.782752,1.05344,7.8,-0.106822,0.0616956,-0.455539,0
2024-11-29 17:58:11.467,-0.905085,1.09412,7.83829,-0.115985,0.0904054,-0.447598,0
2024-11-29 17:58:11.469,-1.02233,1.13719,7.85025,-0.123926,0.120337,-0.439657,0
2024-11-29 17:58:11.472,-1.11326,1.1659,7.87179,-0.131867,0.171648,-0.419499,0
2024-11-29 17:58:11.473,-1.19701,1.17787,7.88615,-0.131867,0.171648,-0.419499,0
2024-11-29 17:58:11.475,-1.27358,1.2018,7.86461,-0.133699,0.194249,-0.409115,0
2024-11-29 17:58:11.478,-1.35015,1.21854,7.84307,-0.133088,0.212575,-0.401174,0
2024-11-29 17:58:11.480,-1.41266,1.22333,7.81915,-0.131867,0.230289,-0.389568,0
2024-11-29 17:58:11.484,-1.47727,1.2329,7.78086,-0.130645,0.252891,-0.365745,0
2024-11-29 17:58:11.486,-1.55145,1.24965,7.74975,-0.130645,0.252891,-0.365745,0
2024-11-29 17:58:11.488,-1.6328,1.26879,7.71386,-0.128812,0.258999,-0.352917,0
2024-11-29 17:58:11.491,-1.71416,1.29033,7.67797,-0.129423,0.262664,-0.339478,0
2024-11-29 17:58:11.492,-1.77876,1.30229,7.64447,-0.128812,0.262664,-0.321764,0
2024-11-29 17:58:11.495,-1.85294,1.31904,7.59183,-0.129423,0.257778,-0.303438,0
2024-11-29 17:58:11.497,-1.92473,1.33579,7.54846,-0.128202,0.253502,-0.28267,0
2024-11-29 17:58:11.499,-1.97767,1.35972,7.52214,-0.127591,0.247393,-0.259457,0
2024-11-29 17:58:11.501,-2.0327,1.37886,7.49103,-0.12698,0.238841,-0.236856,0
2024-11-29 17:58:11.505,-2.06142,1.39083,7.48624,-0.127591,0.221127,-0.187377,0
2024-11-29 17:58:11.507,-2.08535,1.41506,7.48624,-0.127591,0.221127,-0.187377,0
2024-11-29 17:58:11.509,-2.09492,1.44138,7.47907,-0.124536,0.20891,-0.1605,0
2024-11-29 17:58:11.511,-2.09252,1.45573,7.48385,-0.125147,0.195471,-0.133623,0
2024-11-29 17:58:11.514,-2.09492,1.47488,7.48624,-0.123926,0.179589,-0.108578,0
2024-11-29 17:58:11.517,-2.06381,1.50598,7.49821,-0.11965,0.161264,-0.0823117,0
2024-11-29 17:58:11.518,-2.01595,1.52273,7.5341,-0.118428,0.142327,-0.0597103,0
2024-11-29 17:58:11.521,-1.97288,1.56341,7.56282,-0.113541,0.125835,-0.0364981,0
2024-11-29 17:58:11.523,-1.92712,1.62323,7.59183,-0.110487,0.109953,-0.0145076,0
2024-11-29 17:58:11.526,-1.87208,1.67109,7.61815,-0.0988809,0.0763559,0.0264191,0
2024-11-29 17:58:11.528,-1.81466,1.71655,7.63729,-0.0988809,0.0763559,0.0264191,0
2024-11-29 17:58:11.530,-1.73569,1.74766,7.68036,-0.0897182,0.0616956,0.0453554,0
2024-11-29 17:58:11.533,-1.64477,1.77398,7.70429,-0.0793338,0.0274881,0.0722327,0
2024-11-29 17:58:11.534,-1.57298,1.81705,7.73779,-0.0793338,0.0274881,0.0722327,0
2024-11-29 17:58:11.537,-1.48923,1.85294,7.77608,-0.0713928,0.0103844,0.0832279,0
2024-11-29 17:58:11.539,-1.4004,1.87448,7.78804,-0.0671168,-0.00610847,0.0923906,0
2024-11-29 17:58:11.542,-1.31665,1.90319,7.79522,-0.0610084,-0.020158,0.09911,0
2024-11-29 17:58:11.544,-1.22094,1.93908,7.8,-0.0561216,-0.03604,0.104608,0
2024-11-29 17:58:11.547,-1.13719,1.97528,7.79283,-0.0494023,-0.051922,0.107051,0
2024-11-29 17:58:11.550,-1.05105,1.9992,7.80479,-0.0432938,-0.0769668,0.108884,0
2024-11-29 17:58:11.552,-0.967299,2.01595,7.81915,-0.0432938,-0.0769668,0.108884,0
2024-11-29 17:58:11.554,-0.9003,2.02552,7.81197,-0.042683,-0.0891837,0.10644,0
2024-11-29 17:58:11.557,-0.842872,2.03749,7.8024,-0.046348,-0.111174,0.0997208,0
2024-11-29 17:58:11.559,-0.785145,2.04945,7.81436,-0.046348,-0.111174,0.0997208,0
2024-11-29 17:58:11.561,-0.720539,2.05424,7.84547,-0.0481806,-0.120948,0.0972774,0
2024-11-29 17:58:11.563,-0.665504,2.06381,7.89572,-0.0487914,-0.127667,0.0942232,0
2024-11-29 17:58:11.565,-0.612862,2.08056,7.91964,-0.0536782,-0.136219,0.086893,0
2024-11-29 17:58:11.568,-0.567398,2.08295,7.92922,-0.0561216,-0.139273,0.0826171,0
2024-11-29 17:58:11.570,-0.538684,2.06381,7.97468,-0.0597867,-0.140495,0.0758978,0
2024-11-29 17:58:11.572,-0.514756,2.07577,8.01297,-0.0616192,-0.138051,0.0716218,0
2024-11-29 17:58:11.575,-0.483649,2.10209,8.05843,-0.0677277,-0.133165,0.0624591,0
2024-11-29 17:58:11.577,-0.464507,2.09013,8.11107,-0.0713928,-0.127667,0.058794,0
2024-11-29 17:58:11.580,-0.457328,2.08774,8.14726,-0.0713928,-0.120337,0.0514639,0
2024-11-29 17:58:11.581,-0.452543,2.09731,8.19512,-0.0732253,-0.112396,0.0441337,0
2024-11-29 17:58:11.584,-0.459721,2.08056,8.24058,-0.074447,-0.102622,0.0392469,0
2024-11-29 17:58:11.586,-0.4669,2.07817,8.28126,-0.0756687,-0.0922379,0.0337493,0
2024-11-29 17:58:11.590,-0.486042,2.07577,8.32672,-0.0781121,-0.080021,0.0306951,0
2024-11-29 17:58:11.592,-0.502792,2.06142,8.3674,-0.0781121,-0.0549763,0.0227541,0
2024-11-29 17:58:11.594,-0.514756,2.07099,8.39851,-0.0781121,-0.0549763,0.0227541,0
2024-11-29 17:58:11.597,-0.529113,2.07817,8.42483,-0.0805555,-0.0268773,0.0178673,0
2024-11-29 17:58:11.598,-0.545863,2.08056,8.45115,-0.0805555,-0.0268773,0.0178673,0
2024-11-29 17:58:11.601,-0.569791,2.08295,8.45594,-0.0787229,-0.0134386,0.0172564,0
2024-11-29 17:58:11.603,-0.581755,2.07099,8.46311,-0.0781121,0.00244339,0.0178673,0
2024-11-29 17:58:11.606,-0.593719,2.06142,8.48465,-0.0768904,0.0164929,0.019089,0
2024-11-29 17:58:11.608,-0.62004,2.0662,8.47986,-0.0775012,0.0317641,0.019089,0
2024-11-29 17:58:11.610,-0.634397,2.07817,8.46311,-0.0787229,0.043981,0.0215324,0
2024-11-29 17:58:11.613,-0.643968,2.07099,8.45354,-0.0817772,0.0568088,0.0227541,0
2024-11-29 17:58:11.614,-0.648754,2.05663,8.46072,-0.0811663,0.0665824,0.0264191,0
2024-11-29 17:58:11.618,-0.651147,2.05902,8.46072,-0.0842206,0.0757451,0.0288625,0
2024-11-29 17:58:11.620,-0.665504,2.07099,8.42722,-0.0872748,0.0836861,0.0325276,0
2024-11-29 17:58:11.623,-0.682254,2.08056,8.41526,-0.0921616,0.0928488,0.034971,0
2024-11-29 17:58:11.624,-0.689432,2.09492,8.43201,-0.094605,0.0971247,0.0404686,0
2024-11-29 17:58:11.626,-0.689432,2.12124,8.43201,-0.0988809,0.103844,0.0447446,0
2024-11-29 17:58:11.629,-0.710967,2.16431,8.42244,-0.101935,0.111174,0.0465771,0
2024-11-29 17:58:11.631,-0.727717,2.18584,8.42004,-0.109265,0.120948,0.0514639,0
2024-11-29 17:58:11.633,-0.708575,2.19781,8.41526,-0.114152,0.128278,0.0575724,0
2024-11-29 17:58:11.636,-0.684646,2.20738,8.39612,-0.120261,0.132554,0.0606266,0
2024-11-29 17:58:11.638,-0.658325,2.19781,8.39612,-0.128812,0.136219,0.06307,0
2024-11-29 17:58:11.641,-0.627219,2.19781,8.42004,-0.135532,0.141106,0.0685676,0
2024-11-29 17:58:11.644,-0.60329,2.20499,8.4344,-0.151414,0.145992,0.071011,0
2024-11-29 17:58:11.645,-0.596112,2.21934,8.44636,-0.151414,0.145992,0.071011,0
2024-11-29 17:58:11.648,-0.581755,2.24566,8.47269,-0.158744,0.148436,0.0740652,0
2024-11-29 17:58:11.650,-0.56022,2.26959,8.51097,-0.166685,0.149658,0.0771195,0
2024-11-29 17:58:11.653,-0.562612,2.29831,8.54926,-0.172793,0.152101,0.0777303,0
2024-11-29 17:58:11.655,-0.557827,2.30788,8.57797,-0.176459,0.15149,0.078952,0
2024-11-29 17:58:11.658,-0.512363,2.30548,8.59711,-0.192951,0.149047,0.0801737,0
2024-11-29 17:58:11.660,-0.462114,2.31745,8.61147,-0.192951,0.149047,0.0801737,0
2024-11-29 17:58:11.662,-0.421436,2.31984,8.64736,-0.197227,0.144771,0.0801737,0
2024-11-29 17:58:11.664,-0.397508,2.32463,8.68565,-0.203947,0.143549,0.078952,0
2024-11-29 17:58:11.667,-0.383151,2.33898,8.73141,-0.210666,0.13683,0.0777303,0
2024-11-29 17:58:11.669,-0.385544,2.35573,8.79123,-0.217385,0.133776,0.0777303,0
2024-11-29 17:58:11.672,-0.409472,2.4012,8.8343,-0.221661,0.128278,0.0783412,0
2024-11-29 17:58:11.674,-0.4334,2.44188,8.89651,-0.227159,0.121559,0.0777303,0
2024-11-29 17:58:11.676,-0.447757,2.47298,8.97308,-0.230824,0.11545,0.0765086,0
2024-11-29 17:58:11.678,-0.440578,2.50887,9.03769,-0.233878,0.107509,0.0807846,0
2024-11-29 17:58:11.681,-0.423829,2.51845,9.09273,-0.235711,0.101401,0.0820062,0
2024-11-29 17:58:11.684,-0.419043,2.53071,9.15015,-0.236322,0.0855186,0.0820062,0
2024-11-29 17:58:11.686,-0.397508,2.55942,9.2028,-0.236322,0.0855186,0.0820062,0
2024-11-29 17:58:11.688,-0.387936,2.58814,9.27009,-0.238154,0.0794101,0.0838388,0
2024-11-29 17:58:11.690,-0.3999,2.60967,9.33949,-0.238765,0.07208,0.0875039,0
2024-11-29 17:58:11.692,-0.411865,2.64796,9.41366,-0.2351,0.0653607,0.0875039,0
2024-11-29 17:58:11.695,-0.421436,2.67667,9.48545,-0.233878,0.0568088,0.0893364,0
2024-11-29 17:58:11.697,-0.409472,2.68385,9.53809,-0.228381,0.0476461,0.0893364,0
2024-11-29 17:58:11.700,-0.383151,2.71017,9.58355,-0.221661,0.0335966,0.0923906,0
2024-11-29 17:58:11.703,-0.352044,2.72453,9.64098,-0.221661,0.0335966,0.0923906,0
2024-11-29 17:58:11.704,-0.30658,2.71735,9.68645,-0.22044,0.0256556,0.0930015,0
2024-11-29 17:58:11.707,-0.270389,2.71256,9.71755,-0.218607,0.0164929,0.091169,0
2024-11-29 17:58:11.709,-0.232104,2.7006,9.76302,-0.215553,0.00733017,0.0905581,0
2024-11-29 17:58:11.712,-0.181855,2.68864,9.81326,-0.213109,-0.0103844,0.086893,0
2024-11-29 17:58:11.714,-0.167498,2.69342,9.85664,-0.213109,-0.0103844,0.086893,0
2024-11-29 17:58:11.717,-0.143569,2.7006,9.89971,-0.209444,-0.0305424,0.0807846,0
2024-11-29 17:58:11.718,-0.114855,2.71256,9.95953,-0.209444,-0.0305424,0.0807846,0
2024-11-29 17:58:11.721,-0.0885344,2.72931,10.0289,-0.207001,-0.0403159,0.0807846,0
2024-11-29 17:58:11.724,-0.0502493,2.73888,10.084,-0.20639,-0.0507003,0.0765086,0
2024-11-29 17:58:11.725,-0.026321,2.75803,10.1294,-0.205168,-0.0604739,0.0728435,0
2024-11-29 17:58:11.728,0.00717847,2.76999,10.1749,-0.201503,-0.0665824,0.0673459,0
2024-11-29 17:58:11.730,0.0646062,2.75563,10.2203,-0.198449,-0.0714691,0.0612374,0
2024-11-29 17:58:11.733,0.114855,2.75803,10.2586,-0.196006,-0.0751342,0.0563507,0
2024-11-29 17:58:11.735,0.133998,2.7676,10.3065,-0.196006,-0.0781884,0.0502422,0
2024-11-29 17:58:11.737,0.157926,2.77238,10.3567,-0.193562,-0.080021,0.0447446,0
2024-11-29 17:58:11.740,0.167498,2.78435,10.4049,-0.1844,-0.0812427,0.02703,0
2024-11-29 17:58:11.742,0.136391,2.8011,10.4695,-0.1844,-0.0812427,0.02703,0
2024-11-29 17:58:11.744,0.119641,2.82263,10.5317,-0.181345,-0.0794101,0.0221432,0
2024-11-29 17:58:11.747,0.117248,2.84178,10.5963,-0.178902,-0.0769668,0.0135914,0
2024-11-29 17:58:11.749,0.0861416,2.85853,10.6585,-0.173404,-0.0708583,0.00565034,0
2024-11-29 17:58:11.751,0.040678,2.89681,10.692,-0.17035,-0.0653607,-0.000458135,0
2024-11-29 17:58:11.754,0.0382852,2.91356,10.7303,-0.161798,-0.0574196,-0.00534491,0
2024-11-29 17:58:11.756,0.040678,2.88963,10.7782,-0.158744,-0.0488678,-0.0132859,0
2024-11-29 17:58:11.758,0.0167498,2.89681,10.8308,-0.153246,-0.0403159,-0.0175619,0
2024-11-29 17:58:11.762,-0.0239282,2.91595,10.8787,-0.144694,-0.028099,-0.0236703,0
2024-11-29 17:58:11.763,-0.0741775,2.92552,10.9098,-0.137364,-0.0152712,-0.0255029,0
2024-11-29 17:58:11.768,-0.20339,2.95185,11.0082,-0.125758,0.00610847,-0.0316113,0
2024-11-29 17:58:11.769,-0.20339,2.95185,11.0082,-0.115374,0.0183254,-0.0346656,0
2024-11-29 17:58:11.770,-0.260818,2.95424,11.0297,-0.115374,0.0183254,-0.0346656,0
2024-11-29 17:58:11.773,-0.316152,2.94227,11.0632,-0.106211,0.0244339,-0.032833,0
2024-11-29 17:58:11.775,-0.368794,2.94706,11.1015,-0.0976592,0.028099,-0.0316113,0
2024-11-29 17:58:11.777,-0.423829,2.9686,11.1302,-0.090329,0.0329858,-0.029168,0
2024-11-29 17:58:11.780,-0.483649,2.98295,11.1565,-0.0811663,0.0348183,-0.0273354,0
2024-11-29 17:58:11.782,-0.555434,2.99013,11.1852,-0.0738362,0.03604,-0.0242812,0
2024-11-29 17:58:11.785,-0.622433,2.99252,11.2092,-0.0658951,0.0348183,-0.0181727,0
2024-11-29 17:58:11.787,-0.684646,2.98774,11.2451,-0.0597867,0.0348183,-0.0157293,0
2024-11-29 17:58:11.789,-0.749253,2.99731,11.2881,-0.0500131,0.0329858,-0.0102317,0
2024-11-29 17:58:11.791,-0.809073,3.01406,11.3192,-0.0451263,0.0293207,-0.000458135,0
2024-11-29 17:58:11.793,-0.837787,3.01167,11.3551,-0.0341311,0.0262664,0.00626118,0
2024-11-29 17:58:11.797,-0.85005,3.01884,11.3982,-0.0176382,0.00855186,0.0233649,0
2024-11-29 17:58:11.799,-0.852443,3.02363,11.4509,-0.0176382,0.00855186,0.0233649,0
2024-11-29 17:58:11.802,-0.847657,3.01645,11.4987,-0.00114534,-0.0146603,0.0416903,0
2024-11-29 17:58:11.804,-0.85005,3.00449,11.5277,-0.00114534,-0.0146603,0.0416903,0
2024-11-29 17:58:11.806,-0.813859,3.0021,11.5493,0.00557398,-0.0299315,0.0496313,0
2024-11-29 17:58:11.808,-0.761217,3.01406,11.5732,0.0110716,-0.0445919,0.0581832,0
2024-11-29 17:58:11.810,-0.744467,3.02124,11.5899,0.0153475,-0.0574196,0.0655134,0
2024-11-29 17:58:11.813,-0.718146,3.01645,11.5851,0.0184018,-0.0708583,0.0722327,0
2024-11-29 17:58:11.815,-0.655932,2.98774,11.5804,0.0184018,-0.0818535,0.0771195,0
2024-11-29 17:58:11.818,-0.579362,2.95424,11.6115,0.0171801,-0.0946813,0.0820062,0
2024-11-29 17:58:11.820,-0.514756,2.95185,11.6617,0.0141258,-0.109342,0.0850605,0
2024-11-29 17:58:11.822,-0.481256,2.98295,11.7096,0.00862822,-0.120948,0.0881147,0
2024-11-29 17:58:11.824,-0.483649,3.02363,11.7718,0.0019089,-0.131332,0.0899473,0
2024-11-29 17:58:11.827,-0.490828,3.05474,11.8484,-0.00114534,-0.134997,0.0923906,0
2024-11-29 17:58:11.829,-0.462114,3.09093,11.956,-0.00358873,-0.137441,0.0942232,0
2024-11-29 17:58:11.831,-0.426222,3.134,12.0927,-0.0115297,-0.140495,0.0978883,0
2024-11-29 17:58:11.834,-0.395115,3.17707,12.2076,-0.0139731,-0.138051,0.0978883,0
2024-11-29 17:58:11.837,-0.34008,3.21775,12.3224,-0.0121406,-0.137441,0.100943,0
2024-11-29 17:58:11.839,-0.292223,3.26082,12.4349,-0.0109189,-0.130721,0.09911,0
2024-11-29 17:58:11.842,-0.265603,3.30389,12.521,-0.00603212,-0.111174,0.094834,0
2024-11-29 17:58:11.843,-0.227318,3.3326,12.6168,-0.00603212,-0.111174,0.094834,0
2024-11-29 17:58:11.845,-0.179462,3.35653,12.7056,7.63559e-05,-0.10079,0.0899473,0
2024-11-29 17:58:11.849,-0.136391,3.39482,12.7798,0.0153475,-0.0787993,0.0752869,0
2024-11-29 17:58:11.850,-0.0981057,3.4331,12.8587,0.0153475,-0.0787993,0.0752869,0
2024-11-29 17:58:11.853,-0.0741775,3.44746,12.9209,0.0208452,-0.0659715,0.0673459,0
2024-11-29 17:58:11.856,-0.0717847,3.47378,12.9616,0.0397814,-0.0452027,0.042912,0
2024-11-29 17:58:11.858,-0.0765703,3.50489,12.9879,0.0397814,-0.0452027,0.042912,0
2024-11-29 17:58:11.859,-0.0574277,3.51446,12.9951,0.0501658,-0.0390942,0.034971,0
2024-11-29 17:58:11.863,-0.0526421,3.52642,12.9975,0.0599394,-0.0342074,0.0233649,0
2024-11-29 17:58:11.864,-0.0717847,3.51924,13.0095,0.0672696,-0.0342074,0.0117588,0
2024-11-29 17:58:11.867,-0.0933201,3.50489,13.0023,0.0752106,-0.0329858,0.00198525,0
2024-11-29 17:58:11.870,-0.11007,3.50489,12.9808,0.0831516,-0.0378725,-0.00656661,0
2024-11-29 17:58:11.871,-0.131605,3.5001,12.9616,0.0917034,-0.043981,-0.0151185,0
2024-11-29 17:58:11.875,-0.162712,3.49771,12.9281,0.0990336,-0.0616956,-0.0310005,0
2024-11-29 17:58:11.877,-0.198604,3.49292,12.8851,0.10392,-0.0745234,-0.0377198,0
2024-11-29 17:58:11.878,-0.215354,3.48096,12.8324,0.10392,-0.0745234,-0.0377198,0
2024-11-29 17:58:11.881,-0.227318,3.46182,12.7893,0.102699,-0.0885729,-0.0426066,0
2024-11-29 17:58:11.883,-0.229711,3.44267,12.7582,0.10331,-0.105677,-0.0474934,0
2024-11-29 17:58:11.885,-0.222533,3.42832,12.7247,0.100255,-0.126445,-0.0517693,0
2024-11-29 17:58:11.888,-0.234497,3.42114,12.696,0.0996445,-0.147214,-0.0554344,0
2024-11-29 17:58:11.890,-0.224925,3.40678,12.6793,0.0947577,-0.171037,-0.0603212,0
2024-11-29 17:58:11.892,-0.193819,3.39003,12.6601,0.0868167,-0.195471,-0.0627646,0
2024-11-29 17:58:11.895,-0.172283,3.38046,12.6601,0.0825407,-0.218683,-0.0670405,0
2024-11-29 17:58:11.897,-0.141177,3.37328,12.6673,0.0752106,-0.241896,-0.0719273,0
2024-11-29 17:58:11.900,-0.0933201,3.35653,12.6793,0.0678804,-0.265719,-0.076814,0
2024-11-29 17:58:11.902,-0.0646062,3.33978,12.7032,0.0611611,-0.287098,-0.0804791,0
2024-11-29 17:58:11.905,-0.0311067,3.32782,12.7247,0.0501658,-0.306034,-0.0859767,0
2024-11-29 17:58:11.908,0.026321,3.30868,12.7534,0.041614,-0.326803,-0.0902527,0
2024-11-29 17:58:11.909,0.0861416,3.28953,12.7774,0.0324513,-0.345129,-0.096972,0
2024-11-29 17:58:11.912,0.150748,3.27039,12.7941,0.0141258,-0.376893,-0.107356,0
2024-11-29 17:58:11.915,0.205783,3.25125,12.8157,0.0141258,-0.376893,-0.107356,0
2024-11-29 17:58:11.917,0.248854,3.22493,12.8324,-0.0121406,-0.398272,-0.121406,0
2024-11-29 17:58:11.919,0.308973,3.18186,12.8372,-0.0121406,-0.398272,-0.121406,0
2024-11-29 17:58:11.921,0.373579,3.15075,12.8372,-0.0255792,-0.404381,-0.127514,0
2024-11-29 17:58:11.923,0.445364,3.11725,12.8396,-0.0353528,-0.410489,-0.136066,0
2024-11-29 17:58:11.925,0.517149,3.06192,12.8587,-0.0487914,-0.413544,-0.142786,0
2024-11-29 17:58:11.928,0.588933,3.02124,12.8827,-0.066506,-0.416598,-0.151948,0
2024-11-29 17:58:11.931,0.658325,2.99013,12.8827,-0.0829989,-0.420874,-0.164165,0
2024-11-29 17:58:11.933,0.722932,2.96381,12.8874,-0.0988809,-0.424539,-0.17455,0
2024-11-29 17:58:11.935,0.801895,2.94227,12.9042,-0.117206,-0.430036,-0.186767,0
2024-11-29 17:58:11.937,0.88355,2.88963,12.9257,-0.134921,-0.437977,-0.19654,0
2024-11-29 17:58:11.940,0.962513,2.8346,12.9497,-0.153246,-0.445308,-0.209979,0
2024-11-29 17:58:11.942,1.0343,2.79153,12.9688,-0.171572,-0.451416,-0.226472,0
2024-11-29 17:58:11.945,1.11326,2.72931,13.0095,-0.189286,-0.458135,-0.23991,0
2024-11-29 17:58:11.948,1.18983,2.65753,13.0645,-0.208223,-0.463022,-0.256403,0
2024-11-29 17:58:11.950,1.2664,2.59532,13.098,-0.245484,-0.466687,-0.290611,0
2024-11-29 17:58:11.952,1.33579,2.55464,13.1243,-0.245484,-0.466687,-0.290611,0
2024-11-29 17:58:11.955,1.38844,2.51127,13.1554,-0.276637,-0.464855,-0.327872,0
2024-11-29 17:58:11.956,1.44616,2.43948,13.2084,-0.276637,-0.464855,-0.327872,0
2024-11-29 17:58:11.959,1.4988,2.38445,13.2802,-0.292519,-0.463022,-0.346809,0
2024-11-29 17:58:11.961,1.56102,2.34138,13.3448,-0.303515,-0.459968,-0.370021,0
2024-11-29 17:58:11.964,1.61127,2.28156,13.4237,-0.315121,-0.458746,-0.388957,0
2024-11-29 17:58:11.966,1.64716,2.21934,13.5314,-0.323673,-0.456303,-0.411558,0
2024-11-29 17:58:11.968,1.70459,2.15474,13.6271,-0.326116,-0.452027,-0.433549,0
2024-11-29 17:58:11.971,1.75244,2.08774,13.7157,-0.330392,-0.450194,-0.457372,0
2024-11-29 17:58:11.974,1.77159,2.02313,13.8069,-0.318175,-0.430647,-0.502575,0
2024-11-29 17:58:11.975,1.77637,1.96301,13.8978,-0.318175,-0.430647,-0.502575,0
2024-11-29 17:58:11.978,1.77876,1.89841,13.9887,-0.306569,-0.41843,-0.525787,0
2024-11-29 17:58:11.981,1.7668,1.83141,14.0581,-0.292519,-0.401327,-0.546556,0
2024-11-29 17:58:11.982,1.7333,1.75723,14.1323,-0.271751,-0.383612,-0.569768,0
2024-11-29 17:58:11.985,1.68784,1.67587,14.1873,-0.247317,-0.361622,-0.589315,0
2024-11-29 17:58:11.987,1.6328,1.60648,14.2185,-0.219829,-0.334133,-0.608251,3
2024-11-29 17:58:11.990,1.57298,1.5323,14.2472,-0.150192,-0.263886,-0.638794,0
2024-11-29 17:58:11.992,1.48923,1.46052,14.2304,-0.150192,-0.263886,-0.638794,0
2024-11-29 17:58:11.995,1.40279,1.39801,14.1969,-0.107433,-0.218683,-0.652843,0
2024-11-29 17:58:11.997,1.3334,1.31904,14.1467,-0.0158057,-0.109953,-0.673001,0
2024-11-29 17:58:11.999,1.23769,1.24247,14.0533,-0.0158057,-0.109953,-0.673001,0
2024-11-29 17:58:12.002,1.12762,1.18026,13.917,0.0880384,0.0274881,-0.684607,0
2024-11-29 17:58:12.004,1.02473,1.1013,13.7614,0.141793,0.102011,-0.687661,0
2024-11-29 17:58:12.005,0.931406,1.02712,13.5721,0.141793,0.102011,-0.687661,0
2024-11-29 17:58:12.008,0.85005,0.962513,13.3448,0.194326,0.175313,-0.683385,0
2024-11-29 17:58:12.011,0.751645,0.919442,13.098,0.249302,0.249837,-0.67972,0
2024-11-29 17:58:12.013,0.617647,0.890728,12.8324,0.303057,0.323138,-0.674223,0
2024-11-29 17:58:12.016,0.459721,0.862014,12.5187,0.354979,0.395829,-0.66506,0
2024-11-29 17:58:12.018,0.297009,0.859622,12.1837,0.454547,0.527161,-0.640626,0
2024-11-29 17:58:12.021,0.136391,0.852443,11.8531,0.454547,0.527161,-0.640626,0
2024-11-29 17:58:12.022,-0.00717847,0.825823,11.5035,0.50036,0.585802,-0.625966,0
2024-11-29 17:58:12.024,-0.131605,0.80668,11.1278,0.542509,0.635892,-0.608862,0
2024-11-29 17:58:12.027,-0.246461,0.782752,10.7518,0.578549,0.67743,-0.587482,0
2024-11-29 17:58:12.030,-0.35683,0.766002,10.3663,0.610924,0.715913,-0.567935,0
2024-11-29 17:58:12.031,-0.4669,0.74686,9.97149,0.639633,0.744623,-0.545945,0
2024-11-29 17:58:12.034,-0.574577,0.71336,9.59552,0.662846,0.767224,-0.521511,0
2024-11-29 17:58:12.037,-0.677468,0.699003,9.24826,0.695831,0.791047,-0.475086,0
2024-11-29 17:58:12.039,-0.76361,0.703789,8.92523,0.695831,0.791047,-0.475086,0
2024-11-29 17:58:12.041,-0.84018,0.703789,8.61625,0.704994,0.791047,-0.450653,0
2024-11-29 17:58:12.043,-0.94337,0.720539,8.30997,0.710492,0.78555,-0.424997,0
2024-11-29 17:58:12.047,-1.02233,0.74686,8.00339,0.712935,0.773333,-0.401785,0
2024-11-29 17:58:12.048,-1.09412,0.780359,7.733,0.710492,0.758672,-0.375518,0
2024-11-29 17:58:12.050,-1.1683,0.804287,7.48385,0.706216,0.73546,-0.348641,0
2024-11-29 17:58:12.053,-1.21854,0.842872,7.24696,0.697053,0.707361,-0.321764,0
2024-11-29 17:58:12.056,-1.25204,0.888335,7.02443,0.683004,0.673765,-0.297941,0
2024-11-29 17:58:12.058,-1.27358,0.938585,6.83031,0.668343,0.633449,-0.272896,0
2024-11-29 17:58:12.061,-1.28794,0.988834,6.65324,0.624362,0.541211,-0.226472,0
2024-11-29 17:58:12.063,-1.30229,1.01994,6.50489,0.624362,0.541211,-0.226472,0
2024-11-29 17:58:12.064,-1.29512,1.06301,6.37298,0.599928,0.489289,-0.203259,0
2024-11-29 17:58:12.067,-1.2664,1.1013,6.26291,0.570608,0.434923,-0.180047,0
2024-11-29 17:58:12.069,-1.21615,1.14437,6.18156,0.54373,0.376893,-0.161111,0
2024-11-29 17:58:12.071,-1.15155,1.17547,6.11217,0.512577,0.318251,-0.14584,0
2024-11-29 17:58:12.075,-1.07737,1.19701,6.0667,0.445384,0.194249,-0.115297,0
2024-11-29 17:58:12.077,-0.981655,1.22572,6.02842,0.411787,0.132554,-0.105524,0
2024-11-29 17:58:12.079,-0.878764,1.25204,6.0021,0.411787,0.132554,-0.105524,0
2024-11-29 17:58:12.082,-0.768395,1.27119,6.01167,0.375747,0.0702474,-0.0988045,0
2024-11-29 17:58:12.084,-0.641576,1.29033,6.05474,0.340318,0.00855186,-0.0951395,0
2024-11-29 17:58:12.086,-0.512363,1.30708,6.12652,0.3055,-0.051922,-0.0914744,0
2024-11-29 17:58:12.089,-0.387936,1.31665,6.21506,0.271293,-0.106287,-0.0878093,0
2024-11-29 17:58:12.091,-0.256032,1.33579,6.31795,0.210208,-0.206466,-0.0920852,0
2024-11-29 17:58:12.094,-0.119641,1.34536,6.45195,0.210208,-0.206466,-0.0920852,0
2024-11-29 17:58:12.096,-0.00239282,1.33819,6.60539,0.158286,-0.285266,-0.0926961,0
2024-11-29 17:58:12.098,0.124427,1.32383,6.75853,0.158286,-0.285266,-0.0926961,0
2024-11-29 17:58:12.101,0.248854,1.29512,6.8997,0.136906,-0.318862,-0.101248,0
2024-11-29 17:58:12.103,0.347258,1.25683,7.03639,0.116137,-0.348183,-0.101248,0
2024-11-29 17:58:12.104,0.447757,1.23051,7.17518,0.0978119,-0.373839,-0.104302,0
2024-11-29 17:58:12.108,0.548256,1.18983,7.302,0.0807082,-0.39644,-0.107356,0
2024-11-29 17:58:12.109,0.634397,1.15872,7.42642,0.0636045,-0.412322,-0.112243,0
2024-11-29 17:58:12.111,0.720539,1.14676,7.54607,0.0507767,-0.425761,-0.115908,0
2024-11-29 17:58:12.115,0.794716,1.12522,7.65643,0.0300079,-0.444697,-0.125071,0
2024-11-29 17:58:12.116,0.862014,1.12522,7.75693,0.0300079,-0.444697,-0.125071,0
2024-11-29 17:58:12.120,0.921835,1.1324,7.84547,0.013515,-0.455081,-0.136677,0
2024-11-29 17:58:12.121,0.979263,1.1324,7.95554,0.013515,-0.455081,-0.136677,0
2024-11-29 17:58:12.124,1.03908,1.14437,8.07039,0.00251974,-0.457525,-0.149505,0
2024-11-29 17:58:12.126,1.09412,1.14676,8.17358,0.00251974,-0.457525,-0.149505,0
2024-11-29 17:58:12.129,1.13719,1.14676,8.28126,-0.000534491,-0.456303,-0.155002,0
2024-11-29 17:58:12.130,1.15633,1.15872,8.36022,-0.00419957,-0.451416,-0.161722,0
2024-11-29 17:58:12.133,1.18505,1.16351,8.42483,-0.00419957,-0.451416,-0.161722,0
2024-11-29 17:58:12.135,1.21615,1.17069,8.48465,-0.00419957,-0.427593,-0.176993,0
2024-11-29 17:58:12.138,1.22333,1.18983,8.5349,0.000687203,-0.409879,-0.182491,0
2024-11-29 17:58:12.141,1.22572,1.18505,8.57079,0.00496313,-0.36773,-0.199594,0
2024-11-29 17:58:12.143,1.22572,1.17069,8.60429,0.00679568,-0.340853,-0.205703,0
2024-11-29 17:58:12.144,1.20897,1.18265,8.61625,0.00679568,-0.340853,-0.205703,0
2024-11-29 17:58:12.148,1.17308,1.18744,8.60668,0.0129041,-0.284044,-0.216698,0
2024-11-29 17:58:12.149,1.12044,1.17069,8.6019,0.0129041,-0.284044,-0.216698,0
2024-11-29 17:58:12.153,1.07498,1.17547,8.59472,0.013515,-0.225403,-0.224028,0
2024-11-29 17:58:12.155,1.01994,1.1994,8.58036,0.013515,-0.225403,-0.224028,0
2024-11-29 17:58:12.156,0.94337,1.20419,8.54926,0.0147367,-0.196082,-0.226472,0
2024-11-29 17:58:12.160,0.878764,1.19701,8.51097,0.0104608,-0.136219,-0.222196,0
2024-11-29 17:58:12.162,0.80668,1.20419,8.47269,0.00923906,-0.103844,-0.21792,0
2024-11-29 17:58:12.164,0.718146,1.21376,8.42483,0.00923906,-0.103844,-0.21792,0
2024-11-29 17:58:12.167,0.648754,1.21615,8.37458,0.00496313,-0.0708583,-0.211811,0
2024-11-29 17:58:12.169,0.598505,1.2329,8.32672,-0.00236703,-0.00610847,-0.19654,0
2024-11-29 17:58:12.171,0.533899,1.23769,8.27169,-0.00236703,-0.00610847,-0.19654,0
2024-11-29 17:58:12.173,0.464507,1.24008,8.21905,-0.00725381,0.028099,-0.184934,0
2024-11-29 17:58:12.175,0.419043,1.25204,8.17358,-0.0121406,0.0616956,-0.173328,0
2024-11-29 17:58:12.178,0.390329,1.26162,8.12064,-0.014584,0.0952922,-0.161722,0
2024-11-29 17:58:12.181,0.371187,1.26162,8.068,-0.0200816,0.127056,-0.148894,0
2024-11-29 17:58:12.183,0.35683,1.26401,8.02493,-0.0219141,0.158209,-0.136677,0
2024-11-29 17:58:12.185,0.325723,1.27837,7.98904,-0.0274118,0.191195,-0.122017,0
2024-11-29 17:58:12.188,0.297009,1.30229,7.95554,-0.0316877,0.258388,-0.0957503,0
2024-11-29 17:58:12.190,0.285045,1.34058,7.91725,-0.0316877,0.258388,-0.0957503,0
2024-11-29 17:58:12.193,0.270389,1.36929,7.87657,-0.0298552,0.323749,-0.0670405,0
2024-11-29 17:58:12.194,0.251246,1.39083,7.84307,-0.0298552,0.323749,-0.0670405,0
2024-11-29 17:58:12.197,0.246461,1.43181,7.8024,-0.0219141,0.383612,-0.0419957,0
2024-11-29 17:58:12.199,0.232104,1.48445,7.74018,-0.0219141,0.383612,-0.0419957,0
2024-11-29 17:58:12.201,0.205783,1.53709,7.68276,-0.0176382,0.408046,-0.0303897,0
2024-11-29 17:58:12.204,0.215354,1.57777,7.62054,-0.0133623,0.427593,-0.0206161,0
2024-11-29 17:58:12.206,0.234497,1.5993,7.55085,-0.00603212,0.44714,-0.0102317,0
2024-11-29 17:58:12.208,0.256032,1.61605,7.47667,-0.00114534,0.458746,-0.00106898,0
2024-11-29 17:58:12.210,0.277567,1.64716,7.39771,0.00313059,0.463633,0.00565034,0
2024-11-29 17:58:12.213,0.297009,1.68305,7.34028,0.00923906,0.467298,0.0117588,0
2024-11-29 17:58:12.216,0.328116,1.70937,7.27807,0.0141258,0.464855,0.0178673,0
2024-11-29 17:58:12.218,0.361615,1.7333,7.21346,0.0171801,0.458746,0.0196998,0
2024-11-29 17:58:12.221,0.378365,1.75244,7.14646,0.0251211,0.433702,0.0233649,0
2024-11-29 17:58:12.222,0.3999,1.78594,7.08186,0.0251211,0.433702,0.0233649,0
2024-11-29 17:58:12.226,0.426222,1.80987,7.03639,0.0318404,0.419652,0.0264191,0
2024-11-29 17:58:12.227,0.438186,1.83859,7.00977,0.0397814,0.398272,0.0264191,0
2024-11-29 17:58:12.229,0.440578,1.86969,6.99542,0.0422248,0.370784,0.0264191,0
2024-11-29 17:58:12.232,0.4334,1.89123,6.97627,0.0519984,0.337799,0.0276408,0
2024-11-29 17:58:12.235,0.421436,1.93191,6.96431,0.0605502,0.299926,0.0288625,0
2024-11-29 17:58:12.237,0.411865,1.97049,6.94756,0.0672696,0.260221,0.0294734,0
2024-11-29 17:58:12.239,0.395115,2.0016,6.94277,0.077654,0.217462,0.0276408,0
2024-11-29 17:58:12.242,0.375972,2.03988,6.95713,0.0972011,0.117283,0.0264191,0
2024-11-29 17:58:12.244,0.366401,2.08056,6.97867,0.0972011,0.117283,0.0264191,0
2024-11-29 17:58:12.246,0.359223,2.12124,7.0002,0.108807,0.0665824,0.0245866,0
2024-11-29 17:58:12.249,0.359223,2.14995,7.00738,0.121024,0.0171037,0.0215324,0
2024-11-29 17:58:12.251,0.364008,2.19063,7.01486,0.136295,-0.0366508,0.0166456,0
2024-11-29 17:58:12.253,0.380758,2.23131,6.99781,0.152177,-0.087962,0.0142022,0
2024-11-29 17:58:12.255,0.3999,2.26959,6.97388,0.162562,-0.135608,0.00626118,0
2024-11-29 17:58:12.258,0.41665,2.28156,6.95235,0.17539,-0.185698,-0.00229068,0
2024-11-29 17:58:12.260,0.426222,2.29352,6.91406,0.185774,-0.233344,-0.0120642,0
2024-11-29 17:58:12.262,0.411865,2.32223,6.87338,0.193104,-0.279768,-0.0236703,0
2024-11-29 17:58:12.265,0.402293,2.34377,6.83988,0.201045,-0.32436,-0.032833,0
2024-11-29 17:58:12.268,0.392722,2.37009,6.80638,0.210208,-0.397051,-0.0578778,0
2024-11-29 17:58:12.270,0.352044,2.39641,6.76092,0.210208,-0.397051,-0.0578778,0
2024-11-29 17:58:12.272,0.304188,2.4347,6.74178,0.210819,-0.427593,-0.0700947,0
2024-11-29 17:58:12.274,0.263211,2.46341,6.72024,0.210819,-0.427593,-0.0700947,0
2024-11-29 17:58:12.276,0.229711,2.48495,6.70349,0.212651,-0.480126,-0.0920852,0
2024-11-29 17:58:12.280,0.18664,2.51845,6.69153,0.205932,-0.524718,-0.112243,0
2024-11-29 17:58:12.281,0.148355,2.54985,6.66042,0.205932,-0.524718,-0.112243,0
2024-11-29 17:58:12.284,0.112463,2.54985,6.63889,0.201045,-0.544265,-0.119573,0
2024-11-29 17:58:12.287,0.0741775,2.53071,6.61735,0.185774,-0.57664,-0.137288,0
2024-11-29 17:58:12.288,0.0526421,2.53789,6.59342,0.185774,-0.57664,-0.137288,0
2024-11-29 17:58:12.292,0.0167498,2.53071,6.57428,0.177222,-0.593133,-0.144007,0
2024-11-29 17:58:12.293,-0.00478565,2.50648,6.54317,0.166838,-0.602906,-0.148894,0
2024-11-29 17:58:12.298,-0.0167498,2.47537,6.52642,0.134463,-0.616345,-0.158057,0
2024-11-29 17:58:12.298,-0.040678,2.47537,6.52642,0.134463,-0.616345,-0.158057,0
2024-11-29 17:58:12.301,-0.0693919,2.46102,6.51685,0.119192,-0.621232,-0.161722,0
2024-11-29 17:58:12.302,-0.0933201,2.4347,6.5025,0.102699,-0.624286,-0.164776,0
2024-11-29 17:58:12.306,-0.122034,2.41795,6.52403,0.0593285,-0.624897,-0.166609,0
2024-11-29 17:58:12.308,-0.150748,2.40598,6.5671,0.0593285,-0.624897,-0.166609,0
2024-11-29 17:58:12.309,-0.184247,2.39641,6.61257,0.0355055,-0.621232,-0.165387,0
2024-11-29 17:58:12.312,-0.215354,2.40598,6.66042,0.0171801,-0.614512,-0.164165,0
2024-11-29 17:58:12.315,-0.244068,2.41077,6.71067,-0.00725381,-0.607182,-0.162333,0
2024-11-29 17:58:12.317,-0.282652,2.41316,6.78246,-0.0292443,-0.594965,-0.158057,0
2024-11-29 17:58:12.320,-0.308973,2.42273,6.8686,-0.0500131,-0.583359,-0.154392,0
2024-11-29 17:58:12.322,-0.316152,2.44666,6.95952,-0.0952158,-0.554649,-0.139731,0
2024-11-29 17:58:12.325,-0.332901,2.46341,7.05314,-0.115985,-0.536935,-0.132401,0
2024-11-29 17:58:12.327,-0.34008,2.47537,7.14646,-0.135532,-0.521664,-0.125682,0
2024-11-29 17:58:12.329,-0.328116,2.48973,7.25414,-0.135532,-0.521664,-0.125682,0
2024-11-29 17:58:12.332,-0.32333,2.50409,7.37139,-0.175237,-0.485624,-0.113465,0
2024-11-29 17:58:12.334,-0.330509,2.52832,7.48385,-0.175237,-0.485624,-0.113465,0
2024-11-29 17:58:12.336,-0.325723,2.53789,7.60379,-0.208223,-0.450194,-0.10247,0
2024-11-29 17:58:12.339,-0.297009,2.55224,7.74497,-0.22044,-0.434312,-0.0975828,0
2024-11-29 17:58:12.340,-0.260818,2.58096,7.88375,-0.22044,-0.434312,-0.0975828,0
2024-11-29 17:58:12.343,-0.227318,2.60489,8.02732,-0.236322,-0.417209,-0.0902527,0
2024-11-29 17:58:12.345,-0.200997,2.61924,8.17358,-0.246706,-0.398272,-0.0878093,0
2024-11-29 17:58:12.348,-0.148355,2.62403,8.28605,-0.25709,-0.379947,-0.0865876,0
2024-11-29 17:58:12.349,-0.0957129,2.6336,8.38654,-0.261977,-0.3604,-0.0853659,0
2024-11-29 17:58:12.353,-0.0598206,2.65274,8.48704,-0.270529,-0.341464,-0.0841442,0
2024-11-29 17:58:12.354,-0.0239282,2.65992,8.57797,-0.272972,-0.321306,-0.0847551,0
2024-11-29 17:58:12.357,0.00957129,2.65753,8.68804,-0.277248,-0.305424,-0.0871984,0
2024-11-29 17:58:12.359,0.0550349,2.65753,8.78884,-0.27847,-0.289542,-0.0884201,0
2024-11-29 17:58:12.362,0.0861416,2.64078,8.85584,-0.282135,-0.274881,-0.0896418,0
2024-11-29 17:58:12.365,0.117248,2.61924,8.91326,-0.284578,-0.260221,-0.0920852,0
2024-11-29 17:58:12.367,0.160319,2.59532,8.97308,-0.286411,-0.248004,-0.0963612,0
2024-11-29 17:58:12.368,0.181855,2.57617,9.01616,-0.288854,-0.240674,-0.0994154,0
2024-11-29 17:58:12.372,0.205783,2.57857,9.06641,-0.298017,-0.222348,-0.105524,0
2024-11-29 17:58:12.374,0.224925,2.56421,9.13101,-0.298017,-0.222348,-0.105524,0
2024-11-29 17:58:12.375,0.224925,2.55464,9.19322,-0.30046,-0.215018,-0.107967,0
2024-11-29 17:58:12.379,0.227318,2.55942,9.2677,-0.306569,-0.204023,-0.112243,0
2024-11-29 17:58:12.381,0.232104,2.56182,9.34427,-0.308401,-0.199747,-0.113465,0
2024-11-29 17:58:12.383,0.224925,2.55942,9.40888,-0.308401,-0.199747,-0.113465,0
2024-11-29 17:58:12.386,0.229711,2.55703,9.49263,-0.312067,-0.198525,-0.11713,0
2024-11-29 17:58:12.387,0.236889,2.54746,9.58116,-0.312067,-0.198525,-0.11713,0
2024-11-29 17:58:12.390,0.248854,2.54746,9.66491,-0.312067,-0.200969,-0.117741,0
2024-11-29 17:58:12.392,0.263211,2.53789,9.75344,-0.312067,-0.200969,-0.117741,0
2024-11-29 17:58:12.395,0.258425,2.54028,9.84946,-0.315121,-0.207688,-0.121406,0
2024-11-29 17:58:12.397,0.229711,2.55464,9.95235,-0.316953,-0.205856,-0.125071,0
2024-11-29 17:58:12.401,0.224925,2.56421,10.1127,-0.312677,-0.197915,-0.128736,0
2024-11-29 17:58:12.401,0.224925,2.56421,10.1127,-0.312677,-0.197915,-0.128736,0
2024-11-29 17:58:12.404,0.205783,2.56182,10.1988,-0.312067,-0.191806,-0.129347,0
2024-11-29 17:58:12.406,0.191426,2.56899,10.2945,-0.309012,-0.181422,-0.132401,0
2024-11-29 17:58:12.408,0.172283,2.56899,10.3905,-0.304736,-0.169816,-0.130569,0
2024-11-29 17:58:12.411,0.148355,2.57617,10.4886,-0.298628,-0.155155,-0.132401,0
2024-11-29 17:58:12.413,0.114855,2.58574,10.5772,-0.290076,-0.138662,-0.13179,0
2024-11-29 17:58:12.416,0.0741775,2.58335,10.6537,-0.280303,-0.119726,-0.128736,0
2024-11-29 17:58:12.419,0.0574277,2.58096,10.7183,-0.271751,-0.102622,-0.125071,0
2024-11-29 17:58:12.420,0.0478565,2.58335,10.7566,-0.271751,-0.102622,-0.125071,0
2024-11-29 17:58:12.422,0.026321,2.58335,10.783,-0.252814,-0.067804,-0.11713,0
2024-11-29 17:58:12.426,0.0,2.57378,10.7997,-0.244873,-0.0476461,-0.113465,0
2024-11-29 17:58:12.428,-0.0334995,2.56899,10.8093,-0.233878,-0.0287098,-0.1098,0
2024-11-29 17:58:12.430,-0.0622134,2.57617,10.8093,-0.225326,-0.00977356,-0.104302,0
2024-11-29 17:58:12.432,-0.0837488,2.56421,10.7853,-0.218607,0.0109953,-0.100026,0
2024-11-29 17:58:12.435,-0.124427,2.56182,10.759,-0.213109,0.0268773,-0.0945286,0
2024-11-29 17:58:12.438,-0.184247,2.57378,10.7399,-0.208223,0.0458135,-0.089031,0
2024-11-29 17:58:12.439,-0.234497,2.58574,10.7279,-0.205168,0.064139,-0.0817008,0
2024-11-29 17:58:12.441,-0.27996,2.59292,10.7016,-0.204557,0.0818535,-0.0743707,0
2024-11-29 17:58:12.445,-0.325723,2.6001,10.6705,-0.202114,0.116061,-0.0536018,0
2024-11-29 17:58:12.446,-0.342473,2.59053,10.6609,-0.202114,0.116061,-0.0536018,0
2024-11-29 17:58:12.449,-0.344866,2.59292,10.6609,-0.203336,0.13011,-0.04505,0
2024-11-29 17:58:12.451,-0.347258,2.60489,10.6514,-0.204557,0.140495,-0.0340547,0
2024-11-29 17:58:12.454,-0.364008,2.59292,10.6394,-0.205168,0.150268,-0.0230595,0
2024-11-29 17:58:12.456,-0.373579,2.59771,10.6561,-0.208223,0.157599,-0.0138968,0
2024-11-29 17:58:12.458,-0.397508,2.61207,10.6896,-0.211277,0.164318,-0.00534491,0
2024-11-29 17:58:12.461,-0.423829,2.63121,10.7231,-0.212498,0.17287,0.00687203,0
2024-11-29 17:58:12.462,-0.407079,2.63839,10.7638,-0.211277,0.183254,0.0160347,0
2024-11-29 17:58:12.465,-0.375972,2.63599,10.8236,-0.214331,0.189363,0.02703,0
2024-11-29 17:58:12.468,-0.344866,2.65992,10.893,-0.213109,0.196693,0.0380252,0
2024-11-29 17:58:12.471,-0.330509,2.68864,10.9555,-0.210666,0.20219,0.0465771,0
2024-11-29 17:58:12.473,-0.318545,2.72213,11.0225,-0.200892,0.21624,0.0667351,0
2024-11-29 17:58:12.475,-0.32333,2.74367,11.0871,-0.196006,0.221127,0.0752869,0
2024-11-29 17:58:12.478,-0.330509,2.75803,11.1494,-0.196006,0.221127,0.0752869,0
2024-11-29 17:58:12.479,-0.308973,2.76281,11.214,-0.189286,0.229068,0.0875039,0
2024-11-29 17:58:12.481,-0.248854,2.76999,11.257,-0.181345,0.233344,0.0954449,0
2024-11-29 17:58:12.485,-0.184247,2.77238,11.2881,-0.16302,0.248004,0.114992,0
2024-11-29 17:58:12.487,-0.143569,2.78674,11.3121,-0.153246,0.254723,0.123544,0
2024-11-29 17:58:12.489,-0.119641,2.81785,11.3312,-0.153246,0.254723,0.123544,0
2024-11-29 17:58:12.491,-0.105284,2.84178,11.3551,-0.147138,0.260832,0.131485,0
2024-11-29 17:58:12.494,-0.112463,2.87049,11.3719,-0.137364,0.26694,0.136983,0
2024-11-29 17:58:12.495,-0.0957129,2.88724,11.3767,-0.131867,0.271216,0.144313,0
2024-11-29 17:58:12.499,-0.0526421,2.89681,11.3719,-0.126369,0.272438,0.151032,0
2024-11-29 17:58:12.500,-0.00957129,2.93031,11.3791,-0.122093,0.27366,0.15653,0
2024-11-29 17:58:12.503,0.026321,2.97338,11.3934,-0.115985,0.272438,0.160806,0
2024-11-29 17:58:12.506,0.0382852,3.03081,11.4078,-0.115374,0.27366,0.163249,0
2024-11-29 17:58:12.508,0.0334995,3.07627,11.4197,-0.111098,0.277325,0.166303,0
2024-11-29 17:58:12.511,0.0239282,3.09332,11.4437,-0.110487,0.279157,0.168136,0
2024-11-29 17:58:12.513,0.0119641,3.12682,11.4939,-0.109265,0.278546,0.17119,0
2024-11-29 17:58:12.517,-0.00239282,3.21536,11.5875,-0.0988809,0.277936,0.179131,0
2024-11-29 17:58:12.518,-0.00239282,3.21536,11.5875,-0.0964375,0.277325,0.182796,0
2024-11-29 17:58:12.520,-0.00957129,3.22971,11.6354,-0.0964375,0.277325,0.182796,0
2024-11-29 17:58:12.521,-0.00239282,3.25603,11.6689,-0.0933833,0.273049,0.184629,0
2024-11-29 17:58:12.525,-0.0119641,3.29432,11.712,-0.0878856,0.263886,0.190126,0
2024-11-29 17:58:12.527,-0.0191426,3.31346,11.7694,-0.0878856,0.263886,0.190126,0
2024-11-29 17:58:12.529,-0.0119641,3.3326,11.822,-0.0829989,0.256556,0.19257,0
2024-11-29 17:58:12.531,-0.0143569,3.35892,11.8651,-0.0805555,0.248004,0.195624,0
2024-11-29 17:58:12.534,-0.0215354,3.37807,11.913,-0.0768904,0.23823,0.198678,0
2024-11-29 17:58:12.536,-0.026321,3.3996,11.9728,-0.0756687,0.230289,0.201732,0
2024-11-29 17:58:12.538,-0.0358923,3.42114,12.0278,-0.0701711,0.221127,0.203565,0
2024-11-29 17:58:12.541,-0.0478565,3.44985,12.076,-0.0677277,0.212575,0.206619,0
2024-11-29 17:58:12.543,-0.0550349,3.47139,12.1238,-0.0622301,0.204634,0.210895,0
2024-11-29 17:58:12.545,-0.0646062,3.49292,12.1717,-0.0561216,0.196082,0.21456,0
2024-11-29 17:58:12.548,-0.0622134,3.52642,12.2267,-0.0481806,0.182643,0.223112,0
2024-11-29 17:58:12.551,-0.0454636,3.54078,12.2722,-0.0445155,0.177146,0.226777,0
2024-11-29 17:58:12.553,-0.0478565,3.55035,12.2985,-0.0408504,0.171648,0.231664,0
2024-11-29 17:58:12.555,-0.0334995,3.55992,12.3129,-0.0408504,0.171648,0.231664,0
2024-11-29 17:58:12.557,0.0,3.55514,12.3153,-0.0402396,0.16615,0.238994,0
2024-11-29 17:58:12.560,0.0358923,3.54078,12.3224,-0.0414613,0.15882,0.243881,0
2024-11-29 17:58:12.561,0.0837488,3.53121,12.3392,-0.0439046,0.150879,0.246935,0
2024-11-29 17:58:12.564,0.119641,3.52882,12.3488,-0.0481806,0.143549,0.251822,0
2024-11-29 17:58:12.567,0.136391,3.53599,12.3799,-0.0542891,0.13683,0.256709,0
2024-11-29 17:58:12.568,0.167498,3.55274,12.4301,-0.0591758,0.134386,0.25793,0
2024-11-29 17:58:12.572,0.198604,3.56231,12.4756,-0.0658951,0.13011,0.261595,0
2024-11-29 17:58:12.573,0.22014,3.58385,12.5234,-0.0738362,0.127667,0.26526,0
2024-11-29 17:58:12.577,0.248854,3.61256,12.5833,-0.0872748,0.125224,0.267704,0
2024-11-29 17:58:12.578,0.285045,3.63171,12.6482,-0.0872748,0.125224,0.267704,0
2024-11-29 17:58:12.581,0.337687,3.63649,12.6936,-0.0952158,0.125224,0.267704,0
2024-11-29 17:58:12.584,0.3999,3.62931,12.7367,-0.103768,0.125224,0.268315,0
2024-11-29 17:58:12.586,0.447757,3.62692,12.7869,-0.121482,0.128889,0.259763,0
2024-11-29 17:58:12.588,0.476471,3.63649,12.8276,-0.121482,0.128889,0.259763,0
2024-11-29 17:58:12.590,0.512363,3.64128,12.8707,-0.128812,0.131943,0.251822,0
2024-11-29 17:58:12.593,0.548256,3.64606,12.9257,-0.139197,0.135608,0.246324,0
2024-11-29 17:58:12.595,0.567398,3.65354,12.964,-0.152025,0.139884,0.238994,0
2024-11-29 17:58:12.597,0.581755,3.64367,13.0119,-0.164242,0.145382,0.229831,0
2024-11-29 17:58:12.599,0.598505,3.6341,13.0597,-0.178902,0.149658,0.219447,0
2024-11-29 17:58:12.602,0.612862,3.6341,13.0837,-0.189897,0.152712,0.20723,0
2024-11-29 17:58:12.606,0.627219,3.56949,13.2084,-0.217996,0.15149,0.184018,0
2024-11-29 17:58:12.607,0.627219,3.56949,13.2084,-0.217996,0.15149,0.184018,0
2024-11-29 17:58:12.610,0.639183,3.50489,13.2658,-0.2351,0.144771,0.173022,0
2024-11-29 17:58:12.611,0.660718,3.4355,13.3137,-0.252204,0.133776,0.158973,0
2024-11-29 17:58:12.613,0.684646,3.3685,13.3926,-0.269307,0.124002,0.143702,0
2024-11-29 17:58:12.617,0.706182,3.28235,13.4644,-0.284578,0.106287,0.130874,0
2024-11-29 17:58:12.619,0.718146,3.18186,13.5434,-0.302293,0.0842969,0.116214,0
2024-11-29 17:58:12.621,0.725324,3.07867,13.6367,-0.322451,0.0629173,0.101553,0
2024-11-29 17:58:12.624,0.751645,2.97577,13.7372,-0.352993,0.0152712,0.0704001,0
2024-11-29 17:58:12.626,0.775574,2.8681,13.8428,-0.352993,0.0152712,0.0704001,0
2024-11-29 17:58:12.627,0.787538,2.76042,13.9648,-0.368875,-0.0103844,0.0557398,0
2024-11-29 17:58:12.631,0.80668,2.65274,14.1084,-0.382314,-0.0348183,0.0416903,0
2024-11-29 17:58:12.632,0.825823,2.53549,14.2615,-0.394531,-0.0610847,0.0276408,0
2024-11-29 17:58:12.634,0.830609,2.40838,14.4389,-0.403083,-0.0861295,0.0154239,0
2024-11-29 17:58:12.638,0.825823,2.31027,14.6375,-0.406137,-0.108731,0.00565034,0
2024-11-29 17:58:12.639,0.813859,2.22413,14.8313,-0.40797,-0.131943,-0.00656661,0
2024-11-29 17:58:12.643,0.811466,2.11645,15.023,-0.396974,-0.168594,-0.0181727,0
2024-11-29 17:58:12.645,0.804287,2.04467,15.2192,-0.383536,-0.176535,-0.0236703,0
2024-11-29 17:58:12.646,0.780359,1.97767,15.4083,-0.383536,-0.176535,-0.0236703,0
2024-11-29 17:58:12.649,0.744467,1.90319,15.5857,-0.363378,-0.1802,-0.0255029,0
2024-11-29 17:58:12.652,0.701396,1.83619,15.7555,-0.338333,-0.181422,-0.0261137,0
2024-11-29 17:58:12.654,0.675075,1.74287,15.9183,-0.30718,-0.179589,-0.0261137,0
2024-11-29 17:58:12.656,0.629611,1.66869,16.0717,-0.269918,-0.169816,-0.024892,3
2024-11-29 17:58:12.658,0.297009,1.76441,15.8393,-0.233267,-0.149047,-0.0145076,0
2024-11-29 17:58:12.661,0.105284,1.78834,15.6479,-0.188065,-0.105066,0.00503949,0
2024-11-29 17:58:12.664,0.330509,1.60409,15.8513,-0.145305,-0.0763559,0.0251975,0
2024-11-29 17:58:12.666,0.457328,1.44855,15.8967,-0.0500131,-0.0445919,0.0618483,0
2024-11-29 17:58:12.668,0.474078,1.29272,15.7962,-0.0500131,-0.0445919,0.0618483,0
2024-11-29 17:58:12.670,0.488435,1.14676,15.6383,0.0019089,-0.0189363,0.0771195,0
2024-11-29 17:58:12.672,0.481256,1.01515,15.4684,0.0550526,0.015882,0.0930015,0
2024-11-29 17:58:12.675,0.495613,0.852443,15.3509,0.112472,0.0561979,0.108884,0
2024-11-29 17:58:12.677,0.584148,0.658325,15.2695,0.172335,0.095903,0.123544,0
2024-11-29 17:58:12.679,0.691825,0.462114,15.1618,0.234642,0.128889,0.13515,0
2024-11-29 17:58:12.683,0.756431,0.294616,14.9919,0.299392,0.16554,0.143091,0
2024-11-29 17:58:12.685,0.780359,0.16989,14.793,0.437443,0.248615,0.157751,0
2024-11-29 17:58:12.687,0.770788,0.0765703,14.5729,0.437443,0.248615,0.157751,0
2024-11-29 17:58:12.690,0.708575,0.026321,14.3169,0.508301,0.29565,0.166914,0
2024-11-29 17:58:12.691,0.593719,0.0287139,13.9959,0.57977,0.343296,0.180353,0
2024-11-29 17:58:12.693,0.447757,0.0574277,13.5936,0.647574,0.395218,0.195624,0
2024-11-29 17:58:12.697,0.282652,0.124427,13.1602,0.711103,0.452638,0.215782,0
2024-11-29 17:58:12.699,0.124427,0.210568,12.7176,0.822888,0.557093,0.26465,0
2024-11-29 17:58:12.701,-0.0287139,0.297009,12.265,0.822888,0.557093,0.26465,0
2024-11-29 17:58:12.703,-0.174676,0.375972,11.8173,0.868701,0.596798,0.291527,0
2024-11-29 17:58:12.706,-0.313759,0.459721,11.3695,0.937116,0.658493,0.350779,0
2024-11-29 17:58:12.708,-0.431007,0.538684,10.905,0.937116,0.658493,0.350779,0
2024-11-29 17:58:12.710,-0.514756,0.610469,10.4288,0.963993,0.679262,0.377656,0
2024-11-29 17:58:12.712,-0.569791,0.675075,9.99303,0.981097,0.687203,0.405144,0
2024-11-29 17:58:12.715,-0.579362,0.722932,9.60748,0.991481,0.689036,0.428967,0
2024-11-29 17:58:12.717,-0.493221,0.710967,9.29881,0.992092,0.683538,0.447293,0
2024-11-29 17:58:12.720,-0.32333,0.641576,9.0999,0.995757,0.627951,0.458899,0
2024-11-29 17:58:12.722,-0.131605,0.565005,8.97069,0.995757,0.627951,0.458899,0
2024-11-29 17:58:12.725,-0.00478565,0.524327,8.84626,0.998201,0.548541,0.435687,0
2024-11-29 17:58:12.727,-0.153141,0.62004,8.53251,0.998201,0.548541,0.435687,0
2024-11-29 17:58:12.730,-0.41665,0.794716,8.135,0.993314,0.52655,0.425302,0
2024-11-29 17:58:12.731,-0.514756,0.924228,7.90529,0.984151,0.502727,0.419805,0
2024-11-29 17:58:12.733,-0.593719,1.0654,7.69233,0.972545,0.466076,0.412475,0
2024-11-29 17:58:12.737,-0.756431,1.25922,7.38814,0.923677,0.375671,0.404534,0
2024-11-29 17:58:12.738,-0.895514,1.45334,7.09621,0.923677,0.375671,0.404534,0
2024-11-29 17:58:12.741,-0.938585,1.60648,6.87578,0.888248,0.318251,0.405144,0
2024-11-29 17:58:12.743,-0.926621,1.72612,6.69871,0.843046,0.246782,0.405144,0
2024-11-29 17:58:12.745,-0.933799,1.80509,6.54317,0.793567,0.171648,0.402701,0
2024-11-29 17:58:12.748,-0.924228,1.86491,6.42323,0.739812,0.0952922,0.398425,0
2024-11-29 17:58:12.751,-0.854836,1.90319,6.36341,0.626806,-0.0507003,0.382543,0
2024-11-29 17:58:12.753,-0.73011,1.91276,6.37059,0.626806,-0.0507003,0.382543,0
2024-11-29 17:58:12.756,-0.574577,1.91037,6.42323,0.571829,-0.114228,0.366661,0
2024-11-29 17:58:12.757,-0.404686,1.89362,6.53121,0.518075,-0.177757,0.347114,0
2024-11-29 17:58:12.759,-0.222533,1.87926,6.7011,0.467375,-0.232122,0.324513,0
2024-11-29 17:58:12.762,-0.0430708,1.84576,6.90928,0.419728,-0.286487,0.298857,0
2024-11-29 17:58:12.765,0.122034,1.79551,7.13929,0.380023,-0.337799,0.269536,0
2024-11-29 17:58:12.766,0.265603,1.74766,7.36182,0.340929,-0.38178,0.237772,0
2024-11-29 17:58:12.770,0.383151,1.69262,7.57478,0.281066,-0.44714,0.174855,0
2024-11-29 17:58:12.772,0.486042,1.64955,7.77608,0.281066,-0.44714,0.174855,0
2024-11-29 17:58:12.776,0.672682,1.58495,8.12303,0.237696,-0.478904,0.110716,0
2024-11-29 17:58:12.777,0.672682,1.58495,8.12303,0.221814,-0.481958,0.0795629,0
2024-11-29 17:58:12.780,0.821037,1.53709,8.38176,0.208375,-0.482569,0.0490205,0
2024-11-29 17:58:12.781,0.821037,1.53709,8.38176,0.208375,-0.482569,0.0490205,0
2024-11-29 17:58:12.784,0.878764,1.52513,8.5349,0.187606,-0.474017,-0.0175619,0
2024-11-29 17:58:12.786,0.924228,1.49641,8.65454,0.181498,-0.465466,-0.0481042,0
2024-11-29 17:58:12.789,0.955334,1.48205,8.75055,0.174779,-0.45447,-0.0774249,0
2024-11-29 17:58:12.791,0.967299,1.46291,8.81037,0.169892,-0.435534,-0.10247,0
2024-11-29 17:58:12.793,0.964906,1.4342,8.85584,0.168059,-0.414765,-0.129347,0
2024-11-29 17:58:12.796,0.974477,1.39801,8.89412,0.168059,-0.414765,-0.129347,0
2024-11-29 17:58:12.797,0.991227,1.37408,8.91087,0.168059,-0.390942,-0.156224,0
2024-11-29 17:58:12.800,0.998405,1.3669,8.92523,0.165616,-0.365287,-0.179436,0
2024-11-29 17:58:12.803,1.00558,1.32622,8.91326,0.161951,-0.302369,-0.227693,0
2024-11-29 17:58:12.804,0.99362,1.27597,8.88694,0.161951,-0.302369,-0.227693,0
2024-11-29 17:58:12.806,0.955334,1.24247,8.84387,0.16134,-0.268162,-0.249684,0
2024-11-29 17:58:12.809,0.926621,1.20658,8.77687,0.160729,-0.233955,-0.269842,0
2024-11-29 17:58:12.811,0.871586,1.17547,8.70748,0.160118,-0.199136,-0.290611,0
2024-11-29 17:58:12.814,0.797109,1.1324,8.63779,0.157675,-0.164318,-0.308325,0
2024-11-29 17:58:12.816,0.720539,1.09412,8.53969,0.15401,-0.127056,-0.32604,0
2024-11-29 17:58:12.819,0.615255,1.0654,8.45115,0.149123,-0.0940705,-0.3407,0
2024-11-29 17:58:12.822,0.505185,1.03908,8.37937,0.142404,-0.0610847,-0.352306,0
2024-11-29 17:58:12.823,0.380758,1.02712,8.28126,0.137517,-0.0305424,-0.363301,0
2024-11-29 17:58:12.826,0.258425,1.0319,8.19033,0.119192,0.0317641,-0.373686,0
2024-11-29 17:58:12.829,0.133998,1.02473,8.09911,0.112472,0.059863,-0.375518,0
2024-11-29 17:58:12.831,0.0167498,1.0008,8.01775,0.104531,0.0867403,-0.376129,0
2024-11-29 17:58:12.832,-0.081356,0.99362,7.95554,0.104531,0.0867403,-0.376129,0
2024-11-29 17:58:12.837,-0.184247,1.01755,7.84786,0.0868167,0.134997,-0.371242,0
2024-11-29 17:58:12.838,-0.30658,1.01755,7.84786,0.0868167,0.134997,-0.371242,0
2024-11-29 17:58:12.839,-0.423829,1.04148,7.83111,0.0807082,0.155155,-0.368799,0
2024-11-29 17:58:12.842,-0.533899,1.06062,7.80718,0.0739889,0.174702,-0.362691,0
2024-11-29 17:58:12.845,-0.646361,1.08694,7.7689,0.0703238,0.191195,-0.355971,0
2024-11-29 17:58:12.846,-0.742074,1.11805,7.75693,0.0678804,0.204634,-0.348641,0
2024-11-29 17:58:12.849,-0.80668,1.15872,7.75693,0.0642153,0.215018,-0.341922,0
2024-11-29 17:58:12.852,-0.837787,1.18026,7.76172,0.0636045,0.224792,-0.327872,0
2024-11-29 17:58:12.854,-0.890728,1.24247,7.69472,0.0636045,0.224792,-0.327872,0
2024-11-29 17:58:12.856,-1.01515,1.37169,7.44317,0.0611611,0.23823,-0.318099,0
2024-11-29 17:58:12.858,-1.10369,1.44616,7.26132,0.0587177,0.260832,-0.307103,0
2024-11-29 17:58:12.862,-1.0319,1.45095,7.28525,0.0526092,0.269384,-0.297941,0
2024-11-29 17:58:12.864,-0.936192,1.44616,7.28286,0.0324513,0.257778,-0.285724,0
2024-11-29 17:58:12.866,-0.888335,1.41984,7.25414,0.0324513,0.257778,-0.285724,0
2024-11-29 17:58:12.869,-0.842872,1.41506,7.235,0.0232886,0.24495,-0.286945,0
2024-11-29 17:58:12.871,-0.780359,1.41506,7.24218,0.00801737,0.218683,-0.296719,0
2024-11-29 17:58:12.873,-0.737288,1.41506,7.26371,0.00801737,0.218683,-0.296719,0
2024-11-29 17:58:12.875,-0.715753,1.43898,7.28046,0.00251974,0.207077,-0.30466,0
2024-11-29 17:58:12.878,-0.701396,1.4677,7.31157,-0.00481042,0.188752,-0.324207,0
2024-11-29 17:58:12.879,-0.703789,1.4988,7.3331,-0.00481042,0.188752,-0.324207,0
2024-11-29 17:58:12.883,-0.706182,1.52273,7.33789,-0.00114534,0.173481,-0.341922,0
2024-11-29 17:58:12.885,-0.701396,1.54666,7.36421,-0.00114534,0.173481,-0.341922,0
2024-11-29 17:58:12.886,-0.725324,1.58255,7.369,0.00313059,0.164318,-0.350474,0
2024-11-29 17:58:12.889,-0.775574,1.59212,7.31635,0.00740652,0.158209,-0.355971,0
2024-11-29 17:58:12.892,-0.835394,1.59452,7.27328,0.0104608,0.152101,-0.359025,0
2024-11-29 17:58:12.894,-0.897907,1.59452,7.23021,0.0122933,0.139884,-0.362691,0
2024-11-29 17:58:12.897,-0.940978,1.57777,7.15843,0.0147367,0.128278,-0.362691,0
2024-11-29 17:58:12.899,-0.957727,1.55862,7.11057,0.0129041,0.0946813,-0.359025,0
2024-11-29 17:58:12.902,-0.97687,1.54666,7.06511,0.0129041,0.0946813,-0.359025,0
2024-11-29 17:58:12.903,-1.02473,1.53948,7.034,0.0122933,0.0769668,-0.355971,0
2024-11-29 17:58:12.906,-1.08215,1.55862,6.99302,0.00740652,0.059863,-0.349252,0
2024-11-29 17:58:12.908,-1.13719,1.58016,6.92602,0.00496313,0.0464244,-0.343143,0
2024-11-29 17:58:12.910,-1.19462,1.58255,6.87817,0.00129805,0.0305424,-0.331537,0
2024-11-29 17:58:12.913,-1.25204,1.58973,6.83988,-0.00297788,0.0171037,-0.322375,0
2024-11-29 17:58:12.916,-1.31426,1.60409,6.80878,-0.00847551,0.00427593,-0.310158,0
2024-11-29 17:58:12.918,-1.35254,1.62562,6.80878,-0.0170274,-0.00977356,-0.294276,0
2024-11-29 17:58:12.920,-1.37647,1.6328,6.81596,-0.0188599,-0.0226013,-0.279615,0
2024-11-29 17:58:12.923,-1.4004,1.6352,6.81356,-0.0243575,-0.0354291,-0.262512,0
2024-11-29 17:58:12.924,-1.41984,1.64477,6.81835,-0.0292443,-0.0488678,-0.244797,0
2024-11-29 17:58:12.928,-1.42702,1.63759,6.82792,-0.0341311,-0.0629173,-0.225861,0
2024-11-29 17:58:12.929,-1.4342,1.63759,6.82074,-0.0390179,-0.0757451,-0.204481,0
2024-11-29 17:58:12.931,-1.44138,1.65673,6.81835,-0.042683,-0.0867403,-0.18188,0
2024-11-29 17:58:12.935,-1.43898,1.67827,6.83031,-0.046348,-0.095903,-0.164165,0
2024-11-29 17:58:12.936,-1.43898,1.67827,6.8351,-0.0487914,-0.105677,-0.144618,0
2024-11-29 17:58:12.938,-1.44377,1.66152,6.8351,-0.0524565,-0.114839,-0.123849,0
2024-11-29 17:58:12.942,-1.4342,1.67109,6.83749,-0.0561216,-0.124002,-0.10247,0
2024-11-29 17:58:12.944,-1.41745,1.69502,6.85424,-0.0640626,-0.138051,-0.0633754,0
2024-11-29 17:58:12.945,-1.4004,1.71177,6.87817,-0.0640626,-0.138051,-0.0633754,0
2024-11-29 17:58:12.948,-1.37886,1.72134,6.89731,-0.0671168,-0.142327,-0.0456608,0
2024-11-29 17:58:12.951,-1.33819,1.7333,6.9332,-0.0720036,-0.147825,-0.0273354,0
2024-11-29 17:58:12.953,-1.28554,1.75005,6.98824,-0.0750579,-0.155155,-0.0120642,0
2024-11-29 17:58:12.957,-1.15394,1.78355,7.11057,-0.0811663,-0.15882,0.00442864,0
2024-11-29 17:58:12.958,-1.15394,1.78355,7.11057,-0.0872748,-0.163707,0.0294734,0
2024-11-29 17:58:12.960,-1.08455,1.80269,7.17757,-0.0872748,-0.163707,0.0294734,0
2024-11-29 17:58:12.963,-1.00319,1.80987,7.23739,-0.0964375,-0.162485,0.0490205,0
2024-11-29 17:58:12.964,-0.914656,1.81944,7.29482,-0.0964375,-0.162485,0.0490205,0
2024-11-29 17:58:12.968,-0.825823,1.82662,7.369,-0.100103,-0.156988,0.0563507,0
2024-11-29 17:58:12.969,-0.739681,1.84576,7.42164,-0.103768,-0.15149,0.0606266,0
2024-11-29 17:58:12.971,-0.660718,1.87687,7.46949,-0.106211,-0.14416,0.0642917,0
2024-11-29 17:58:12.975,-0.581755,1.87926,7.52932,-0.108044,-0.119115,0.0691785,0
2024-11-29 17:58:12.977,-0.493221,1.88644,7.58465,-0.108044,-0.119115,0.0691785,0
2024-11-29 17:58:12.979,-0.409472,1.9008,7.63011,-0.110487,-0.104455,0.0667351,0
2024-11-29 17:58:12.981,-0.354437,1.90558,7.67318,-0.110487,-0.0885729,0.0673459,0
2024-11-29 17:58:12.984,-0.297009,1.91276,7.72104,-0.114763,-0.0537546,0.06307,0
2024-11-29 17:58:12.985,-0.241675,1.93669,7.77129,-0.114763,-0.0537546,0.06307,0
2024-11-29 17:58:12.989,-0.193819,1.95105,7.82632,-0.115985,-0.0372617,0.0606266,0
2024-11-29 17:58:12.991,-0.165105,1.96301,7.88615,-0.115374,-0.015882,0.0594049,0
2024-11-29 17:58:12.993,-0.157926,1.98724,7.94118,-0.115985,0.00549763,0.0569615,0
2024-11-29 17:58:12.996,-0.133998,2.0016,7.98425,-0.114763,0.0274881,0.0569615,0
2024-11-29 17:58:12.998,-0.131605,2.00638,8.02732,-0.114763,0.0781884,0.0569615,0
2024-11-29 17:58:13.000,-0.133998,2.01356,8.08475,-0.114763,0.0781884,0.0569615,0
2024-11-29 17:58:13.003,-0.136391,2.0327,8.14008,-0.113541,0.128889,0.058794,0
2024-11-29 17:58:13.004,-0.145962,2.05663,8.17598,-0.113541,0.128889,0.058794,0
2024-11-29 17:58:13.008,-0.153141,2.05663,8.1999,-0.113541,0.175313,0.0636808,0
2024-11-29 17:58:13.009,-0.165105,2.05902,8.21905,-0.113541,0.175313,0.0636808,0
2024-11-29 17:58:13.011,-0.179462,2.10449,8.24298,-0.114763,0.197915,0.0673459,0
2024-11-29 17:58:13.014,-0.200997,2.13799,8.25733,-0.115985,0.216851,0.0704001,0
2024-11-29 17:58:13.016,-0.236889,2.15713,8.2693,-0.117817,0.235787,0.0740652,0
2024-11-29 17:58:13.019,-0.270389,2.18345,8.27408,-0.118428,0.25228,0.0771195,0
2024-11-29 17:58:13.022,-0.292223,2.22174,8.28126,-0.123926,0.275492,0.0850605,0
2024-11-29 17:58:13.024,-0.313759,2.26959,8.3028,-0.123926,0.275492,0.0850605,0
2024-11-29 17:58:13.026,-0.320937,2.31027,8.31954,-0.129423,0.28099,0.0905581,0
2024-11-29 17:58:13.028,-0.313759,2.33181,8.34587,-0.131867,0.282822,0.0936123,0
2024-11-29 17:58:13.031,-0.30658,2.35095,8.39851,-0.137364,0.280379,0.0966666,0
2024-11-29 17:58:13.034,-0.30658,2.37009,8.45354,-0.142251,0.272438,0.0978883,0
2024-11-29 17:58:13.035,-0.311366,2.39641,8.49661,-0.146527,0.26694,0.100943,0
2024-11-29 17:58:13.038,-0.320937,2.42991,8.54686,-0.156911,0.251669,0.101553,0
2024-11-29 17:58:13.041,-0.330509,2.47298,8.59711,-0.159355,0.246782,0.102164,0
2024-11-29 17:58:13.043,-0.320937,2.5017,8.65215,-0.159355,0.246782,0.102164,0
2024-11-29 17:58:13.044,-0.287438,2.51845,8.70748,-0.163631,0.241896,0.101553,0
2024-11-29 17:58:13.047,-0.244068,2.53789,8.75773,-0.168517,0.238841,0.100332,0
2024-11-29 17:58:13.050,-0.224925,2.55224,8.81994,-0.175848,0.239452,0.0960557,0
2024-11-29 17:58:13.052,-0.205783,2.5666,8.87976,-0.175848,0.239452,0.0960557,0
2024-11-29 17:58:13.054,-0.193819,2.59532,8.94198,-0.180124,0.240063,0.094834,0
2024-11-29 17:58:13.057,-0.177069,2.6336,9.0018,-0.182567,0.243728,0.0899473,0
2024-11-29 17:58:13.058,-0.157926,2.65753,9.05205,-0.187454,0.246782,0.086893,0
2024-11-29 17:58:13.062,-0.153141,2.69103,9.08794,-0.190508,0.252891,0.0832279,0
2024-11-29 17:58:13.063,-0.155533,2.72692,9.1023,-0.192951,0.258999,0.078952,0
2024-11-29 17:58:13.067,-0.143569,2.74367,9.11426,-0.202114,0.263275,0.0746761,0
2024-11-29 17:58:13.069,-0.136391,2.73888,9.1334,-0.208223,0.270605,0.0685676,0
2024-11-29 17:58:13.071,-0.138784,2.74846,9.1693,-0.217385,0.272438,0.06307,0
2024-11-29 17:58:13.074,-0.145962,2.76521,9.18605,-0.227159,0.272438,0.0569615,0
2024-11-29 17:58:13.077,-0.174676,2.79871,9.22912,-0.227159,0.272438,0.0569615,0
2024-11-29 17:58:13.083,-0.181855,2.78674,9.2677,-0.274805,0.274881,0.034971,0
2024-11-29 17:58:13.083,-0.181855,2.78674,9.2677,-0.274805,0.274881,0.034971,0
2024-11-29 17:58:13.084,-0.172283,2.78674,9.32274,-0.290687,0.269384,0.0276408,0
2024-11-29 17:58:13.084,-0.172283,2.78674,9.32274,-0.290687,0.269384,0.0276408,0
2024-11-29 17:58:13.088,-0.167498,2.78435,9.38256,-0.304736,0.261443,0.0221432,0
2024-11-29 17:58:13.089,-0.167498,2.77238,9.44956,-0.318786,0.251669,0.0160347,0
2024-11-29 17:58:13.091,-0.172283,2.78913,9.51895,-0.334057,0.242506,0.00931542,0
2024-11-29 17:58:13.095,-0.160319,2.79871,9.6003,-0.346274,0.234565,0.00442864,0
2024-11-29 17:58:13.097,-0.153141,2.79392,9.71037,-0.368875,0.219905,-0.0102317,0
2024-11-29 17:58:13.099,-0.138784,2.79153,9.79412,-0.368875,0.219905,-0.0102317,0
2024-11-29 17:58:13.102,-0.122034,2.77956,9.89013,-0.378649,0.214407,-0.0187836,0
2024-11-29 17:58:13.104,-0.102891,2.7676,10.0098,-0.385979,0.210742,-0.0273354,0
2024-11-29 17:58:13.107,-0.0837488,2.75563,10.1246,-0.391477,0.207077,-0.0334439,0
2024-11-29 17:58:13.108,-0.081356,2.75085,10.2323,-0.394531,0.205245,-0.0401632,0
2024-11-29 17:58:13.111,-0.102891,2.73888,10.3615,-0.397585,0.202801,-0.0468825,0
2024-11-29 17:58:13.113,-0.122034,2.73171,10.4982,-0.396974,0.200969,-0.0554344,0
2024-11-29 17:58:13.116,-0.138784,2.71735,10.6322,-0.393309,0.200969,-0.0621537,0
2024-11-29 17:58:13.118,-0.179462,2.69821,10.7638,-0.38659,0.204634,-0.068873,0
2024-11-29 17:58:13.120,-0.20339,2.69821,10.8954,-0.37926,0.20891,-0.0725381,0
2024-11-29 17:58:13.125,-0.275175,2.70539,11.1326,-0.352993,0.228457,-0.08109,0
2024-11-29 17:58:13.125,-0.275175,2.70539,11.1326,-0.352993,0.228457,-0.08109,0
2024-11-29 17:58:13.128,-0.330509,2.68385,11.2355,-0.334057,0.240063,-0.0853659,0
2024-11-29 17:58:13.129,-0.380758,2.65753,11.3336,-0.316343,0.251669,-0.0884201,0
2024-11-29 17:58:13.131,-0.428614,2.63839,11.4126,-0.316343,0.251669,-0.0884201,0
2024-11-29 17:58:13.135,-0.498006,2.62642,11.47,-0.245484,0.288931,-0.0871984,0
2024-11-29 17:58:13.136,-0.565005,2.61685,11.5086,-0.245484,0.288931,-0.0871984,0
2024-11-29 17:58:13.139,-0.62004,2.59771,11.5421,-0.22105,0.299315,-0.0865876,0
2024-11-29 17:58:13.141,-0.682254,2.59053,11.5588,-0.194173,0.307867,-0.0835334,0
2024-11-29 17:58:13.143,-0.734896,2.57139,11.5564,-0.167296,0.31703,-0.0804791,0
2024-11-29 17:58:13.147,-0.773181,2.54507,11.5397,-0.116595,0.326803,-0.0713164,0
2024-11-29 17:58:13.149,-0.804287,2.52592,11.5062,-0.0915507,0.33169,-0.0658188,0
2024-11-29 17:58:13.151,-0.857229,2.50887,11.4676,-0.0915507,0.33169,-0.0658188,0
2024-11-29 17:58:13.153,-0.929013,2.52084,11.4245,-0.0658951,0.336577,-0.0584886,0
2024-11-29 17:58:13.155,-1.0008,2.54028,11.3456,-0.0420721,0.342685,-0.0511585,0
2024-11-29 17:58:13.158,-1.06062,2.54507,11.2594,-0.0200816,0.349405,-0.0401632,0
2024-11-29 17:58:13.160,-1.11087,2.55464,11.1948,0.00313059,0.356735,-0.032833,0
2024-11-29 17:58:13.163,-1.14676,2.57378,11.1254,0.0202343,0.363454,-0.0212269,0
2024-11-29 17:58:13.164,-1.18983,2.59771,11.0608,0.0397814,0.370784,-0.0108425,0
2024-11-29 17:58:13.167,-1.25444,2.63839,10.9795,0.0599394,0.377504,0.0025961,0
2024-11-29 17:58:13.169,-1.31904,2.6671,10.8906,0.0752106,0.384223,0.014813,0
2024-11-29 17:58:13.172,-1.36211,2.69342,10.8308,0.0917034,0.390942,0.0294734,0
2024-11-29 17:58:13.175,-1.40788,2.72692,10.771,0.113083,0.395829,0.0618483,0
2024-11-29 17:58:13.177,-1.43898,2.74606,10.692,0.122857,0.395218,0.0777303,0
2024-11-29 17:58:13.180,-1.45573,2.77238,10.6179,0.122857,0.395218,0.0777303,0
2024-11-29 17:58:13.182,-1.48205,2.80349,10.5604,0.130798,0.393386,0.0942232,0
2024-11-29 17:58:13.183,-1.4988,2.81545,10.5197,0.136906,0.38911,0.111327,0
2024-11-29 17:58:13.186,-1.49641,2.82503,10.4671,0.141182,0.383001,0.125987,0
2024-11-29 17:58:13.189,-1.47248,2.86092,10.4097,0.147901,0.379336,0.141258,0
2024-11-29 17:58:13.190,-1.45334,2.9016,10.3759,0.149123,0.370173,0.154086,0
2024-11-29 17:58:13.193,-1.42463,2.9351,10.3615,0.151566,0.3604,0.168136,0
2024-11-29 17:58:13.196,-1.39322,2.96381,10.3424,0.15401,0.337799,0.188905,0
2024-11-29 17:58:13.198,-1.35494,2.98535,10.3184,0.15401,0.337799,0.188905,0
2024-11-29 17:58:13.201,-1.2999,3.03081,10.3113,0.152788,0.32436,0.198067,0
2024-11-29 17:58:13.203,-1.26879,3.0667,10.3232,0.150956,0.293818,0.20723,0
2024-11-29 17:58:13.205,-1.23051,3.10529,10.3472,0.150956,0.293818,0.20723,0
2024-11-29 17:58:13.208,-1.18744,3.15793,10.3834,0.148512,0.276714,0.210895,0
2024-11-29 17:58:13.210,-1.15872,3.201,10.4408,0.148512,0.254723,0.213338,0
2024-11-29 17:58:13.212,-1.11805,3.25125,10.4982,0.146069,0.233955,0.215782,0
2024-11-29 17:58:13.214,-1.07498,3.29432,10.5604,0.144847,0.214407,0.215171,0
2024-11-29 17:58:13.216,-1.03908,3.33978,10.6346,0.145458,0.194249,0.213949,0
2024-11-29 17:58:13.220,-1.01276,3.38046,10.7064,0.147291,0.177146,0.209673,0
2024-11-29 17:58:13.221,-1.0008,3.42114,10.759,0.146069,0.161875,0.206008,0
2024-11-29 17:58:13.223,-0.986441,3.46182,10.8117,0.149734,0.14416,0.200511,0
2024-11-29 17:58:13.227,-0.967299,3.48574,10.8811,0.152177,0.127667,0.197456,0
2024-11-29 17:58:13.228,-0.945763,3.50489,10.9385,0.15401,0.109342,0.190737,0
2024-11-29 17:58:13.231,-0.924228,3.51924,10.9866,0.155842,0.0916271,0.186461,0
2024-11-29 17:58:13.234,-0.914656,3.53121,11.0369,0.158286,0.0470352,0.171801,0
2024-11-29 17:58:13.237,-0.897907,3.57906,11.1111,0.160118,0.0262664,0.165692,0
2024-11-29 17:58:13.237,-0.897907,3.57906,11.1111,0.160118,0.0262664,0.165692,0
2024-11-29 17:58:13.240,-0.878764,3.59581,11.1661,0.16134,0.00488678,0.15653,0
2024-11-29 17:58:13.243,-0.862014,3.60539,11.2355,0.159507,-0.0177146,0.14981,0
2024-11-29 17:58:13.246,-0.837787,3.61017,11.3001,0.158286,-0.0372617,0.14248,0
2024-11-29 17:58:13.248,-0.828216,3.62931,11.3527,0.160118,-0.0745234,0.12782,0
2024-11-29 17:58:13.249,-0.825823,3.65833,11.3958,0.160118,-0.0745234,0.12782,0
2024-11-29 17:58:13.255,-0.80668,3.7014,11.5325,0.158286,-0.105677,0.115603,0
2024-11-29 17:58:13.255,-0.80668,3.7014,11.5325,0.158286,-0.105677,0.115603,0
2024-11-29 17:58:13.257,-0.785145,3.7325,11.5947,0.154621,-0.121559,0.108884,0
2024-11-29 17:58:13.259,-0.777966,3.74447,11.6474,0.154621,-0.138051,0.102775,0
2024-11-29 17:58:13.261,-0.777966,3.74447,11.7048,0.150345,-0.154544,0.0972774,0
2024-11-29 17:58:13.264,-0.758824,3.74686,11.7598,0.143015,-0.174091,0.0923906,0
2024-11-29 17:58:13.267,-0.727717,3.75883,11.7933,0.138128,-0.188752,0.0862822,0
2024-11-29 17:58:13.269,-0.710967,3.74925,11.8125,0.130187,-0.203412,0.0795629,0
2024-11-29 17:58:13.271,-0.689432,3.7349,11.822,0.118581,-0.21624,0.0746761,0
2024-11-29 17:58:13.274,-0.646361,3.71336,11.8723,0.0904818,-0.23823,0.06307,0
2024-11-29 17:58:13.275,-0.608076,3.70379,11.956,0.0904818,-0.23823,0.06307,0
2024-11-29 17:58:13.279,-0.593719,3.71575,12.0541,0.0727672,-0.246171,0.0575724,0
2024-11-29 17:58:13.280,-0.562612,3.72533,12.1645,0.0544418,-0.25228,0.0532964,0
2024-11-29 17:58:13.282,-0.531506,3.7325,12.2626,0.0410031,-0.254112,0.0453554,0
2024-11-29 17:58:13.286,-0.505185,3.73968,12.3559,0.00923906,-0.249226,0.0343602,0
2024-11-29 17:58:13.288,-0.488435,3.74447,12.4564,-0.00419957,-0.248615,0.0306951,0
2024-11-29 17:58:13.290,-0.490828,3.73968,12.5713,-0.0194708,-0.245561,0.0258083,0
2024-11-29 17:58:13.293,-0.483649,3.74447,12.6745,-0.0310769,-0.243728,0.0215324,0
2024-11-29 17:58:13.295,-0.471685,3.76122,12.7726,-0.0310769,-0.243728,0.0215324,0
2024-11-29 17:58:13.296,-0.452543,3.75883,12.8779,-0.0439046,-0.246171,0.0160347,0
2024-11-29 17:58:13.299,-0.435793,3.74686,12.9879,-0.0567324,-0.250447,0.00992627,0
2024-11-29 17:58:13.302,-0.409472,3.7349,13.0884,-0.0689494,-0.255945,0.00565034,0
2024-11-29 17:58:13.303,-0.368794,3.71815,13.165,-0.0787229,-0.263275,-0.000458135,0
2024-11-29 17:58:13.306,-0.335294,3.699,13.2347,-0.0878856,-0.271827,-0.0077883,0
2024-11-29 17:58:13.309,-0.297009,3.65833,13.2993,-0.094605,-0.279768,-0.0163402,0
2024-11-29 17:58:13.311,-0.253639,3.62453,13.3711,-0.104989,-0.291985,-0.0236703,0
2024-11-29 17:58:13.314,-0.217747,3.60299,13.4405,-0.110487,-0.306034,-0.0334439,0
2024-11-29 17:58:13.315,-0.172283,3.57428,13.474,-0.115985,-0.316419,-0.0468825,0
2024-11-29 17:58:13.318,-0.122034,3.52882,13.4931,-0.125758,-0.330468,-0.0584886,0
2024-11-29 17:58:13.321,-0.0717847,3.47139,13.5314,-0.132477,-0.3604,-0.0865876,0
2024-11-29 17:58:13.322,-0.0239282,3.41875,13.5529,-0.132477,-0.3604,-0.0865876,0
2024-11-29 17:58:13.326,-0.00478565,3.37089,13.5529,-0.14164,-0.378725,-0.100637,0
2024-11-29 17:58:13.328,0.00717847,3.30868,13.5506,-0.146527,-0.398883,-0.114687,0
2024-11-29 17:58:13.329,0.0239282,3.24168,13.541,-0.15569,-0.420874,-0.126293,0
2024-11-29 17:58:13.332,0.0334995,3.18186,13.5314,-0.163631,-0.445308,-0.140342,0
2024-11-29 17:58:13.336,0.0502493,3.04517,13.5242,-0.18501,-0.499062,-0.162944,0
2024-11-29 17:58:13.337,0.0502493,3.04517,13.5242,-0.18501,-0.499062,-0.162944,0
2024-11-29 17:58:13.342,0.0789631,2.97099,13.5434,-0.211277,-0.560147,-0.185545,0
2024-11-29 17:58:13.342,0.131605,2.89442,13.5673,-0.211277,-0.560147,-0.185545,0
2024-11-29 17:58:13.343,0.18664,2.82024,13.6104,-0.222272,-0.590689,-0.198373,0
2024-11-29 17:58:13.347,0.229711,2.74606,13.6439,-0.235711,-0.618177,-0.21059,0
2024-11-29 17:58:13.348,0.265603,2.65992,13.6917,-0.250982,-0.642611,-0.223417,0
2024-11-29 17:58:13.352,0.304188,2.58814,13.7495,-0.260755,-0.664602,-0.236245,0
2024-11-29 17:58:13.353,0.35683,2.51845,13.7997,-0.272362,-0.681706,-0.249073,0
2024-11-29 17:58:13.355,0.397508,2.4323,13.8643,-0.282135,-0.696977,-0.264344,0
2024-11-29 17:58:13.359,0.428614,2.34377,13.9385,-0.290076,-0.70675,-0.278394,0
2024-11-29 17:58:13.360,0.462114,2.27199,14.0222,-0.298017,-0.71408,-0.290611,0
2024-11-29 17:58:13.362,0.488435,2.19302,14.106,-0.304126,-0.715913,-0.306493,0
2024-11-29 17:58:13.366,0.502792,2.12602,14.1873,-0.305958,-0.701253,-0.334592,0
2024-11-29 17:58:13.367,0.498006,2.08295,14.2639,-0.305958,-0.701253,-0.334592,0
2024-11-29 17:58:13.369,0.495613,2.02074,14.3264,-0.305347,-0.68476,-0.349252,0
2024-11-29 17:58:13.372,0.462114,1.95583,14.3839,-0.296795,-0.661548,-0.363301,0
2024-11-29 17:58:13.374,0.407079,1.90558,14.4317,-0.284578,-0.63467,-0.374297,0
2024-11-29 17:58:13.377,0.352044,1.84816,14.482,-0.269918,-0.604128,-0.385292,3
2024-11-29 17:58:13.379,0.287438,1.7668,14.5202,-0.252204,-0.568699,-0.396898,0
2024-11-29 17:58:13.381,0.229711,1.67348,14.5274,-0.228991,-0.531437,-0.40545,0
2024-11-29 17:58:13.384,0.181855,1.58016,14.5083,-0.203947,-0.491732,-0.410948,0
2024-11-29 17:58:13.386,0.12682,1.4988,14.47,-0.174626,-0.447751,-0.415834,0
2024-11-29 17:58:13.388,0.0861416,1.38604,14.4078,-0.144084,-0.401327,-0.421943,0
2024-11-29 17:58:13.391,0.0502493,1.25444,14.3312,-0.106211,-0.356124,-0.423164,0
2024-11-29 17:58:13.393,0.00239282,1.15394,14.2567,-0.0689494,-0.3097,-0.424997,0
2024-11-29 17:58:13.395,-0.0454636,1.0678,14.173,-0.0274118,-0.263275,-0.424997,0
2024-11-29 17:58:13.399,-0.105284,0.964906,14.0629,0.0642153,-0.167372,-0.418278,0
2024-11-29 17:58:13.400,-0.174676,0.8668,13.9241,0.0642153,-0.167372,-0.418278,0
2024-11-29 17:58:13.403,-0.239282,0.785145,13.7542,0.114305,-0.117894,-0.411558,0
2024-11-29 17:58:13.405,-0.304188,0.706182,13.5625,0.165005,-0.0665824,-0.401174,0
2024-11-29 17:58:13.408,-0.380758,0.63679,13.3591,0.218149,-0.0109953,-0.388957,0
2024-11-29 17:58:13.409,-0.459721,0.567398,13.1172,0.271293,0.0445919,-0.373686,0
2024-11-29 17:58:13.412,-0.531506,0.500399,12.8587,0.32688,0.0989573,-0.360858,0
2024-11-29 17:58:13.414,-0.600898,0.469292,12.5928,0.378802,0.152712,-0.341922,0
2024-11-29 17:58:13.418,-0.665504,0.464507,12.3009,0.430113,0.204023,-0.323596,0
2024-11-29 17:58:13.420,-0.737288,0.454935,11.9967,0.531513,0.293818,-0.288167,0
2024-11-29 17:58:13.422,-0.794716,0.445364,11.6928,0.531513,0.293818,-0.288167,0
2024-11-29 17:58:13.425,-0.833001,0.4334,11.403,0.618865,0.361622,-0.248462,0
2024-11-29 17:58:13.427,-0.864407,0.426222,11.0967,0.659181,0.389721,-0.230137,0
