timestamp,accel_x,accel_y,accel_z,gyro_x,gyro_y,gyro_z,step_timestamp
2024-11-29 17:58:36.855,0.514756,2.75324,9.01855,-0.0817772,0.125224,0.0374144,0
2024-11-29 17:58:36.855,0.514756,2.75324,9.01855,-0.0817772,0.125224,0.0374144,0
2024-11-29 17:58:36.855,0.514756,2.75324,9.01855,-0.0817772,0.125224,0.0374144,0
2024-11-29 17:58:36.855,0.514756,2.75324,9.01855,-0.0817772,0.125224,0.0374144,0
2024-11-29 17:58:36.856,0.514756,2.75324,9.01855,-0.0897182,0.11545,0.0374144,0
2024-11-29 17:58:36.856,0.514756,2.75324,9.01855,-0.0897182,0.11545,0.0374144,0
2024-11-29 17:58:36.856,0.514756,2.75324,9.01855,-0.0897182,0.11545,0.0374144,0
2024-11-29 17:58:36.856,0.514756,2.75324,9.01855,-0.0897182,0.11545,0.0374144,0
2024-11-29 17:58:36.857,0.531506,2.75324,9.00419,-0.0897182,0.11545,0.0374144,0
2024-11-29 17:58:36.857,0.531506,2.75324,9.00419,-0.0897182,0.11545,0.0374144,0
2024-11-29 17:58:36.857,0.531506,2.75324,9.00419,-0.0897182,0.11545,0.0374144,0
2024-11-29 17:58:36.858,0.531506,2.75324,9.00419,-0.0976592,0.103844,0.0343602,0
2024-11-29 17:58:36.858,0.531506,2.75324,9.00419,-0.0976592,0.103844,0.0343602,0
2024-11-29 17:58:36.858,0.531506,2.75324,9.00419,-0.0976592,0.103844,0.0343602,0
2024-11-29 17:58:36.858,0.531506,2.75324,9.00419,-0.0976592,0.103844,0.0343602,0
2024-11-29 17:58:36.858,0.531506,2.75324,9.00419,-0.0976592,0.103844,0.0343602,0
2024-11-29 17:58:36.859,0.555434,2.76521,8.99941,-0.0976592,0.103844,0.0343602,0
2024-11-29 17:58:36.859,0.555434,2.76521,8.99941,-0.0976592,0.103844,0.0343602,0
2024-11-29 17:58:36.860,0.555434,2.76521,8.99941,-0.0976592,0.103844,0.0343602,0
2024-11-29 17:58:36.860,0.555434,2.76521,8.99941,-0.0976592,0.103844,0.0343602,0
2024-11-29 17:58:36.860,0.555434,2.76521,8.99941,-0.0976592,0.103844,0.0343602,0
2024-11-29 17:58:36.862,0.579362,2.78435,9.02094,-0.103157,0.095903,0.0325276,0
2024-11-29 17:58:36.862,0.579362,2.78435,9.02094,-0.103157,0.095903,0.0325276,0
2024-11-29 17:58:36.863,0.579362,2.78435,9.02094,-0.11232,0.0849078,0.0331385,0
2024-11-29 17:58:36.864,0.608076,2.79153,9.04008,-0.11232,0.0849078,0.0331385,0
2024-11-29 17:58:36.865,0.608076,2.79153,9.04008,-0.120261,0.0739125,0.0300842,0
2024-11-29 17:58:36.865,0.608076,2.79153,9.04008,-0.120261,0.0739125,0.0300842,0
2024-11-29 17:58:36.865,0.608076,2.79153,9.04008,-0.120261,0.0739125,0.0300842,0
2024-11-29 17:58:36.865,0.608076,2.79153,9.04008,-0.120261,0.0739125,0.0300842,0
2024-11-29 17:58:36.866,0.63679,2.77956,9.06401,-0.120261,0.0739125,0.0300842,0
2024-11-29 17:58:36.866,0.63679,2.77956,9.06401,-0.120261,0.0739125,0.0300842,0
2024-11-29 17:58:36.867,0.63679,2.77956,9.06401,-0.120261,0.0739125,0.0300842,0
2024-11-29 17:58:36.869,0.660718,2.78674,9.08555,-0.128812,0.0610847,0.0264191,0
2024-11-29 17:58:36.871,0.670289,2.78913,9.10708,-0.136143,0.0494786,0.0258083,0
2024-11-29 17:58:36.872,0.670289,2.78913,9.10708,-0.143473,0.03604,0.0227541,0
2024-11-29 17:58:36.872,0.670289,2.78913,9.10708,-0.143473,0.03604,0.0227541,0
2024-11-29 17:58:36.874,0.675075,2.79153,9.14058,-0.143473,0.03604,0.0227541,0
2024-11-29 17:58:36.874,0.675075,2.79153,9.14058,-0.143473,0.03604,0.0227541,0
2024-11-29 17:58:36.874,0.675075,2.79153,9.14058,-0.143473,0.03604,0.0227541,0
2024-11-29 17:58:36.874,0.675075,2.79153,9.14058,-0.143473,0.03604,0.0227541,0
2024-11-29 17:58:36.874,0.675075,2.79153,9.14058,-0.143473,0.03604,0.0227541,0
2024-11-29 17:58:36.875,0.675075,2.79153,9.14058,-0.150803,0.0256556,0.0203107,0
2024-11-29 17:58:36.876,0.691825,2.81306,9.17408,-0.150803,0.0256556,0.0203107,0
2024-11-29 17:58:36.876,0.691825,2.81306,9.17408,-0.150803,0.0256556,0.0203107,0
2024-11-29 17:58:36.877,0.691825,2.81306,9.17408,-0.158133,0.0122169,0.0160347,0
2024-11-29 17:58:36.877,0.691825,2.81306,9.17408,-0.158133,0.0122169,0.0160347,0
2024-11-29 17:58:36.878,0.715753,2.81545,9.21237,-0.158133,0.0122169,0.0160347,0
2024-11-29 17:58:36.878,0.715753,2.81545,9.21237,-0.158133,0.0122169,0.0160347,0
2024-11-29 17:58:36.879,0.715753,2.81545,9.21237,-0.165463,0.000610847,0.0129805,0
2024-11-29 17:58:36.879,0.715753,2.81545,9.21237,-0.165463,0.000610847,0.0129805,0
2024-11-29 17:58:36.879,0.715753,2.81545,9.21237,-0.165463,0.000610847,0.0129805,0
2024-11-29 17:58:36.879,0.715753,2.81545,9.21237,-0.165463,0.000610847,0.0129805,0
2024-11-29 17:58:36.882,0.742074,2.81545,9.26052,-0.172183,-0.0140495,0.0123697,0
2024-11-29 17:58:36.882,0.742074,2.81545,9.26052,-0.172183,-0.0140495,0.0123697,0
2024-11-29 17:58:36.882,0.742074,2.81545,9.26052,-0.172183,-0.0140495,0.0123697,0
2024-11-29 17:58:36.882,0.742074,2.81545,9.26052,-0.172183,-0.0140495,0.0123697,0
2024-11-29 17:58:36.883,0.756431,2.82503,9.31556,-0.172183,-0.0140495,0.0123697,0
2024-11-29 17:58:36.883,0.756431,2.82503,9.31556,-0.172183,-0.0140495,0.0123697,0
2024-11-29 17:58:36.883,0.756431,2.82503,9.31556,-0.172183,-0.0140495,0.0123697,0
2024-11-29 17:58:36.884,0.756431,2.82503,9.31556,-0.178291,-0.0244339,0.00992627,0
2024-11-29 17:58:36.884,0.756431,2.82503,9.31556,-0.178291,-0.0244339,0.00992627,0
2024-11-29 17:58:36.884,0.756431,2.82503,9.31556,-0.178291,-0.0244339,0.00992627,0
2024-11-29 17:58:36.885,0.775574,2.84178,9.35863,-0.178291,-0.0244339,0.00992627,0
2024-11-29 17:58:36.885,0.775574,2.84178,9.35863,-0.178291,-0.0244339,0.00992627,0
2024-11-29 17:58:36.886,0.775574,2.84178,9.35863,-0.178291,-0.0244339,0.00992627,0
2024-11-29 17:58:36.886,0.775574,2.84178,9.35863,-0.178291,-0.0244339,0.00992627,0
2024-11-29 17:58:36.886,0.775574,2.84178,9.35863,-0.178291,-0.0244339,0.00992627,0
2024-11-29 17:58:36.886,0.775574,2.84178,9.35863,-0.178291,-0.0244339,0.00992627,0
2024-11-29 17:58:36.888,0.809073,2.86092,9.39452,-0.1844,-0.0348183,0.00565034,0
2024-11-29 17:58:36.888,0.809073,2.86092,9.39452,-0.1844,-0.0348183,0.00565034,0
2024-11-29 17:58:36.888,0.809073,2.86092,9.39452,-0.1844,-0.0348183,0.00565034,0
2024-11-29 17:58:36.888,0.809073,2.86092,9.39452,-0.1844,-0.0348183,0.00565034,0
2024-11-29 17:58:36.889,0.809073,2.86092,9.39452,-0.188675,-0.043981,0.00137441,0
2024-11-29 17:58:36.889,0.809073,2.86092,9.39452,-0.188675,-0.043981,0.00137441,0
2024-11-29 17:58:36.889,0.809073,2.86092,9.39452,-0.188675,-0.043981,0.00137441,0
2024-11-29 17:58:36.889,0.809073,2.86092,9.39452,-0.188675,-0.043981,0.00137441,0
2024-11-29 17:58:36.890,0.818644,2.88245,9.44477,-0.188675,-0.043981,0.00137441,0
2024-11-29 17:58:36.890,0.818644,2.88245,9.44477,-0.188675,-0.043981,0.00137441,0
2024-11-29 17:58:36.890,0.818644,2.88245,9.44477,-0.188675,-0.043981,0.00137441,0
2024-11-29 17:58:36.890,0.818644,2.88245,9.44477,-0.188675,-0.043981,0.00137441,0
2024-11-29 17:58:36.891,0.818644,2.88245,9.44477,-0.192341,-0.0531437,0.000152712,0
2024-11-29 17:58:36.892,0.835394,2.9016,9.50698,-0.192341,-0.0531437,0.000152712,0
2024-11-29 17:58:36.892,0.835394,2.9016,9.50698,-0.192341,-0.0531437,0.000152712,0
2024-11-29 17:58:36.892,0.835394,2.9016,9.50698,-0.192341,-0.0531437,0.000152712,0
2024-11-29 17:58:36.893,0.835394,2.9016,9.50698,-0.192341,-0.0531437,0.000152712,0
2024-11-29 17:58:36.895,0.857229,2.92552,9.56441,-0.197227,-0.0586413,-0.00534491,0
2024-11-29 17:58:36.895,0.857229,2.92552,9.56441,-0.197227,-0.0586413,-0.00534491,0
2024-11-29 17:58:36.896,0.857229,2.92552,9.56441,-0.202725,-0.0665824,-0.00839915,0
2024-11-29 17:58:36.896,0.857229,2.92552,9.56441,-0.202725,-0.0665824,-0.00839915,0
2024-11-29 17:58:36.896,0.857229,2.92552,9.56441,-0.202725,-0.0665824,-0.00839915,0
2024-11-29 17:58:36.896,0.835394,2.9016,9.56441,-0.202725,-0.0665824,-0.00839915,0
2024-11-29 17:58:36.897,0.862014,2.93749,9.60509,-0.202725,-0.0665824,-0.00839915,0
2024-11-29 17:58:36.897,0.862014,2.93749,9.60509,-0.202725,-0.0665824,-0.00839915,0
2024-11-29 17:58:36.897,0.862014,2.93749,9.60509,-0.202725,-0.0665824,-0.00839915,0
2024-11-29 17:58:36.897,0.862014,2.93749,9.60509,-0.202725,-0.0665824,-0.00839915,0
2024-11-29 17:58:36.898,0.862014,2.93749,9.60509,-0.207001,-0.0714691,-0.0114534,0
2024-11-29 17:58:36.898,0.862014,2.93749,9.60509,-0.207001,-0.0714691,-0.0114534,0
2024-11-29 17:58:36.898,0.862014,2.93749,9.60509,-0.207001,-0.0714691,-0.0114534,0
2024-11-29 17:58:36.898,0.862014,2.93749,9.60509,-0.207001,-0.0714691,-0.0114534,0
2024-11-29 17:58:36.899,0.871586,2.94945,9.65534,-0.207001,-0.0714691,-0.0114534,0
2024-11-29 17:58:36.899,0.871586,2.94945,9.65534,-0.207001,-0.0714691,-0.0114534,0
2024-11-29 17:58:36.899,0.871586,2.94945,9.65534,-0.207001,-0.0714691,-0.0114534,0
2024-11-29 17:58:36.899,0.871586,2.94945,9.65534,-0.207001,-0.0714691,-0.0114534,0
2024-11-29 17:58:36.900,0.862014,2.93749,9.60509,-0.207001,-0.0714691,-0.0114534,0
2024-11-29 17:58:36.900,0.871586,2.94945,9.65534,-0.207001,-0.0714691,-0.0114534,0
2024-11-29 17:58:36.900,0.871586,2.94945,9.65534,-0.207001,-0.0714691,-0.0114534,0
2024-11-29 17:58:36.902,0.888335,2.96142,9.69602,-0.210055,-0.0751342,-0.0120642,0
2024-11-29 17:58:36.902,0.888335,2.96142,9.69602,-0.210055,-0.0751342,-0.0120642,0
2024-11-29 17:58:36.902,0.888335,2.96142,9.69602,-0.210055,-0.0751342,-0.0120642,0
2024-11-29 17:58:36.902,0.888335,2.96142,9.69602,-0.210055,-0.0751342,-0.0120642,0
2024-11-29 17:58:36.903,0.888335,2.96142,9.69602,-0.211888,-0.0787993,-0.0157293,0
2024-11-29 17:58:36.903,0.888335,2.96142,9.69602,-0.211888,-0.0787993,-0.0157293,0
2024-11-29 17:58:36.904,0.921835,2.95424,9.71277,-0.211888,-0.0787993,-0.0157293,0
2024-11-29 17:58:36.904,0.921835,2.95424,9.71277,-0.211888,-0.0787993,-0.0157293,0
2024-11-29 17:58:36.904,0.921835,2.95424,9.71277,-0.211888,-0.0787993,-0.0157293,0
2024-11-29 17:58:36.905,0.921835,2.95424,9.71277,-0.216774,-0.0836861,-0.0206161,0
2024-11-29 17:58:36.905,0.921835,2.95424,9.71277,-0.216774,-0.0836861,-0.0206161,0
2024-11-29 17:58:36.905,0.921835,2.95424,9.71277,-0.216774,-0.0836861,-0.0206161,0
2024-11-29 17:58:36.905,0.921835,2.95424,9.71277,-0.216774,-0.0836861,-0.0206161,0
2024-11-29 17:58:36.905,0.921835,2.95424,9.71277,-0.216774,-0.0836861,-0.0206161,0
2024-11-29 17:58:36.907,0.945763,2.95185,9.75344,-0.216774,-0.0836861,-0.0206161,0
2024-11-29 17:58:36.907,0.945763,2.95185,9.75344,-0.216774,-0.0836861,-0.0206161,0
2024-11-29 17:58:36.907,0.945763,2.95185,9.75344,-0.216774,-0.0836861,-0.0206161,0
2024-11-29 17:58:36.907,0.945763,2.95185,9.75344,-0.216774,-0.0836861,-0.0206161,0
2024-11-29 17:58:36.907,0.945763,2.95185,9.75344,-0.216774,-0.0836861,-0.0206161,0
2024-11-29 17:58:36.908,0.945763,2.95185,9.75344,-0.22044,-0.0867403,-0.0236703,0
2024-11-29 17:58:36.908,0.945763,2.95185,9.75344,-0.22044,-0.0867403,-0.0236703,0
2024-11-29 17:58:36.908,0.945763,2.95185,9.75344,-0.22044,-0.0867403,-0.0236703,0
2024-11-29 17:58:36.909,0.962513,2.95663,9.80369,-0.22044,-0.0867403,-0.0236703,0
2024-11-29 17:58:36.909,0.962513,2.95663,9.80369,-0.22044,-0.0867403,-0.0236703,0
2024-11-29 17:58:36.909,0.962513,2.95663,9.80369,-0.22044,-0.0867403,-0.0236703,0
2024-11-29 17:58:36.909,0.962513,2.95663,9.80369,-0.22044,-0.0867403,-0.0236703,0
2024-11-29 17:58:36.909,0.962513,2.95663,9.80369,-0.22044,-0.0867403,-0.0236703,0
2024-11-29 17:58:36.910,0.962513,2.95663,9.80369,-0.224105,-0.0904054,-0.0273354,0
2024-11-29 17:58:36.910,0.962513,2.95663,9.80369,-0.224105,-0.0904054,-0.0273354,0
2024-11-29 17:58:36.910,0.962513,2.95663,9.80369,-0.224105,-0.0904054,-0.0273354,0
2024-11-29 17:58:36.910,0.962513,2.95663,9.80369,-0.224105,-0.0904054,-0.0273354,0
2024-11-29 17:58:36.910,0.962513,2.95663,9.80369,-0.224105,-0.0904054,-0.0273354,0
2024-11-29 17:58:36.911,0.996012,2.9662,9.83271,-0.224105,-0.0904054,-0.0273354,0
2024-11-29 17:58:36.912,0.996012,2.9662,9.83271,-0.227159,-0.0934596,-0.0316113,0
2024-11-29 17:58:36.912,0.996012,2.9662,9.83271,-0.227159,-0.0934596,-0.0316113,0
2024-11-29 17:58:36.912,0.996012,2.9662,9.83271,-0.227159,-0.0934596,-0.0316113,0
2024-11-29 17:58:36.912,0.996012,2.9662,9.83271,-0.227159,-0.0934596,-0.0316113,0
2024-11-29 17:58:36.914,1.02473,2.97338,9.87338,-0.227159,-0.0934596,-0.0316113,0
2024-11-29 17:58:36.914,1.02473,2.97338,9.87338,-0.227159,-0.0934596,-0.0316113,0
2024-11-29 17:58:36.914,1.02473,2.97338,9.87338,-0.227159,-0.0934596,-0.0316113,0
2024-11-29 17:58:36.914,1.02473,2.97338,9.87338,-0.227159,-0.0934596,-0.0316113,0
2024-11-29 17:58:36.915,1.02473,2.97338,9.87338,-0.232656,-0.0940705,-0.0358873,0
2024-11-29 17:58:36.915,1.02473,2.97338,9.87338,-0.232656,-0.0940705,-0.0358873,0
2024-11-29 17:58:36.915,1.02473,2.97338,9.87338,-0.232656,-0.0940705,-0.0358873,0
2024-11-29 17:58:36.915,1.02473,2.97338,9.87338,-0.232656,-0.0940705,-0.0358873,0
2024-11-29 17:58:36.916,1.05105,2.9662,9.89492,-0.232656,-0.0940705,-0.0358873,0
2024-11-29 17:58:36.916,1.05105,2.9662,9.89492,-0.232656,-0.0940705,-0.0358873,0
2024-11-29 17:58:36.916,1.05105,2.9662,9.89492,-0.232656,-0.0940705,-0.0358873,0
2024-11-29 17:58:36.916,1.05105,2.9662,9.89492,-0.232656,-0.0940705,-0.0358873,0
2024-11-29 17:58:36.917,1.05105,2.9662,9.89492,-0.239987,-0.0971247,-0.0395524,0
2024-11-29 17:58:36.917,1.05105,2.9662,9.89492,-0.239987,-0.0971247,-0.0395524,0
2024-11-29 17:58:36.917,1.05105,2.9662,9.89492,-0.239987,-0.0971247,-0.0395524,0
2024-11-29 17:58:36.917,1.05105,2.9662,9.89492,-0.239987,-0.0971247,-0.0395524,0
2024-11-29 17:58:36.917,1.05105,2.9662,9.89492,-0.239987,-0.0971247,-0.0395524,0
2024-11-29 17:58:36.918,1.07498,2.97817,9.91885,-0.239987,-0.0971247,-0.0395524,0
2024-11-29 17:58:36.918,1.07498,2.97817,9.91885,-0.239987,-0.0971247,-0.0395524,0
2024-11-29 17:58:36.918,1.07498,2.97817,9.91885,-0.239987,-0.0971247,-0.0395524,0
2024-11-29 17:58:36.919,1.07498,2.97817,9.91885,-0.244263,-0.0977356,-0.0456608,0
2024-11-29 17:58:36.919,1.07498,2.97817,9.91885,-0.244263,-0.0977356,-0.0456608,0
2024-11-29 17:58:36.919,1.07498,2.97817,9.91885,-0.244263,-0.0977356,-0.0456608,0
2024-11-29 17:58:36.921,1.09412,2.99013,9.94517,-0.244263,-0.0977356,-0.0456608,0
2024-11-29 17:58:36.921,1.09412,2.99013,9.94517,-0.244263,-0.0977356,-0.0456608,0
2024-11-29 17:58:36.921,1.09412,2.99013,9.94517,-0.244263,-0.0977356,-0.0456608,0
2024-11-29 17:58:36.921,1.09412,2.99013,9.94517,-0.244263,-0.0977356,-0.0456608,0
2024-11-29 17:58:36.921,1.09412,2.99013,9.94517,-0.244263,-0.0977356,-0.0456608,0
2024-11-29 17:58:36.922,1.09412,2.99013,9.94517,-0.247928,-0.0965139,-0.0517693,0
2024-11-29 17:58:36.922,1.09412,2.99013,9.94517,-0.247928,-0.0965139,-0.0517693,0
2024-11-29 17:58:36.922,1.09412,2.99013,9.94517,-0.247928,-0.0965139,-0.0517693,0
2024-11-29 17:58:36.923,1.09651,2.99731,9.97867,-0.247928,-0.0965139,-0.0517693,0
2024-11-29 17:58:36.923,1.09651,2.99731,9.97867,-0.247928,-0.0965139,-0.0517693,0
2024-11-29 17:58:36.923,1.09651,2.99731,9.97867,-0.247928,-0.0965139,-0.0517693,0
2024-11-29 17:58:36.924,1.09651,2.99731,9.97867,-0.251593,-0.0946813,-0.0554344,0
2024-11-29 17:58:36.924,1.09651,2.99731,9.97867,-0.251593,-0.0946813,-0.0554344,0
2024-11-29 17:58:36.924,1.09651,2.99731,9.97867,-0.251593,-0.0946813,-0.0554344,0
2024-11-29 17:58:36.924,1.09651,2.99731,9.97867,-0.251593,-0.0946813,-0.0554344,0
2024-11-29 17:58:36.924,1.09651,2.99731,9.97867,-0.251593,-0.0946813,-0.0554344,0
2024-11-29 17:58:36.925,1.08455,3.02124,10.0265,-0.251593,-0.0946813,-0.0554344,0
2024-11-29 17:58:36.925,1.08455,3.02124,10.0265,-0.251593,-0.0946813,-0.0554344,0
2024-11-29 17:58:36.925,1.08455,3.02124,10.0265,-0.251593,-0.0946813,-0.0554344,0
2024-11-29 17:58:36.925,1.08455,3.02124,10.0265,-0.251593,-0.0946813,-0.0554344,0
2024-11-29 17:58:36.925,1.08455,3.02124,10.0265,-0.251593,-0.0946813,-0.0554344,0
2024-11-29 17:58:36.926,1.08455,3.02124,10.0265,-0.251593,-0.0946813,-0.0554344,0
2024-11-29 17:58:36.926,1.08455,3.02124,10.0265,-0.251593,-0.0946813,-0.0554344,0
2024-11-29 17:58:36.926,1.08455,3.02124,10.0265,-0.251593,-0.0946813,-0.0554344,0
2024-11-29 17:58:36.926,1.08455,3.02124,10.0265,-0.251593,-0.0946813,-0.0554344,0
2024-11-29 17:58:36.926,1.08455,3.02124,10.0265,-0.251593,-0.0946813,-0.0554344,0
2024-11-29 17:58:36.928,1.0678,3.04277,10.0624,-0.25648,-0.0916271,-0.060932,0
2024-11-29 17:58:36.928,1.0678,3.04277,10.0624,-0.25648,-0.0916271,-0.060932,0
2024-11-29 17:58:36.929,1.0678,3.04277,10.0624,-0.258923,-0.0861295,-0.0639862,0
2024-11-29 17:58:36.929,1.0678,3.04277,10.0624,-0.258923,-0.0861295,-0.0639862,0
2024-11-29 17:58:36.929,1.0678,3.04277,10.0624,-0.258923,-0.0861295,-0.0639862,0
2024-11-29 17:58:36.929,1.0678,3.04277,10.0624,-0.258923,-0.0861295,-0.0639862,0
2024-11-29 17:58:36.929,1.0678,3.04277,10.0624,-0.258923,-0.0861295,-0.0639862,0
2024-11-29 17:58:36.930,1.04626,3.08106,10.1175,-0.258923,-0.0861295,-0.0639862,0
2024-11-29 17:58:36.930,1.04626,3.08106,10.1175,-0.258923,-0.0861295,-0.0639862,0
2024-11-29 17:58:36.930,1.04626,3.08106,10.1175,-0.258923,-0.0861295,-0.0639862,0
2024-11-29 17:58:36.931,1.04626,3.08106,10.1175,-0.26381,-0.080021,-0.0664296,0
2024-11-29 17:58:36.931,1.0678,3.04277,10.0624,-0.26381,-0.080021,-0.0664296,0
2024-11-29 17:58:36.931,1.04626,3.08106,10.1175,-0.26381,-0.080021,-0.0664296,0
2024-11-29 17:58:36.931,1.04626,3.08106,10.1175,-0.26381,-0.080021,-0.0664296,0
2024-11-29 17:58:36.931,1.04626,3.08106,10.1175,-0.26381,-0.080021,-0.0664296,0
2024-11-29 17:58:36.931,1.04626,3.08106,10.1175,-0.26381,-0.080021,-0.0664296,0
2024-11-29 17:58:36.932,1.01276,3.11725,10.1557,-0.26381,-0.080021,-0.0664296,0
2024-11-29 17:58:36.932,1.01276,3.11725,10.1557,-0.26381,-0.080021,-0.0664296,0
2024-11-29 17:58:36.932,1.01276,3.11725,10.1557,-0.26381,-0.080021,-0.0664296,0
2024-11-29 17:58:36.932,1.01276,3.11725,10.1557,-0.26381,-0.080021,-0.0664296,0
2024-11-29 17:58:36.933,1.01276,3.11725,10.1557,-0.26381,-0.080021,-0.0664296,0
2024-11-29 17:58:36.933,1.01276,3.11725,10.1557,-0.26381,-0.080021,-0.0664296,0
2024-11-29 17:58:36.933,1.01276,3.11725,10.1557,-0.26381,-0.080021,-0.0664296,0
2024-11-29 17:58:36.933,1.01276,3.11725,10.1557,-0.26381,-0.080021,-0.0664296,0
2024-11-29 17:58:36.935,0.97687,3.15793,10.1821,-0.264421,-0.0714691,-0.0725381,0
2024-11-29 17:58:36.935,0.97687,3.15793,10.1821,-0.264421,-0.0714691,-0.0725381,0
2024-11-29 17:58:36.936,0.97687,3.15793,10.1821,-0.264421,-0.0714691,-0.0725381,0
2024-11-29 17:58:36.936,0.97687,3.15793,10.1821,-0.264421,-0.0714691,-0.0725381,0
2024-11-29 17:58:36.936,0.97687,3.15793,10.1821,-0.264421,-0.0714691,-0.0725381,0
2024-11-29 17:58:36.936,0.97687,3.15793,10.1821,-0.264421,-0.0714691,-0.0725381,0
2024-11-29 17:58:36.938,0.933799,3.18425,10.2299,-0.26381,-0.0476461,-0.073149,0
2024-11-29 17:58:36.941,0.909871,3.21536,10.2826,-0.259534,-0.0335966,-0.0755923,0
2024-11-29 17:58:36.942,0.873978,3.25125,10.3137,-0.259534,-0.0335966,-0.0755923,0
2024-11-29 17:58:36.945,0.821037,3.28235,10.3448,-0.250982,0.00122169,-0.0755923,0
2024-11-29 17:58:36.947,0.789931,3.31107,10.3783,-0.250982,0.00122169,-0.0755923,0
2024-11-29 17:58:36.950,0.758824,3.33739,10.3857,-0.244873,0.020158,-0.0762032,0
2024-11-29 17:58:36.952,0.725324,3.3661,10.3807,-0.228381,0.0586413,-0.0743707,0
2024-11-29 17:58:36.955,0.696611,3.38525,10.3711,-0.228381,0.0586413,-0.0743707,0
2024-11-29 17:58:36.957,0.663111,3.40439,10.34,-0.22044,0.0781884,-0.0725381,0
2024-11-29 17:58:36.962,0.584148,3.4355,10.2586,-0.196006,0.130721,-0.0694839,0
2024-11-29 17:58:36.962,0.584148,3.4355,10.2586,-0.196006,0.130721,-0.0694839,0
2024-11-29 17:58:36.964,0.548256,3.45703,10.1964,-0.196006,0.130721,-0.0694839,0
2024-11-29 17:58:36.965,0.512363,3.48335,10.1222,-0.187454,0.145992,-0.0676513,0
2024-11-29 17:58:36.969,0.474078,3.48574,10.0528,-0.180124,0.15882,-0.0676513,0
2024-11-29 17:58:36.971,0.438186,3.50728,9.98106,-0.168517,0.177757,-0.0615429,0
2024-11-29 17:58:36.973,0.407079,3.54556,9.89731,-0.168517,0.177757,-0.0615429,0
2024-11-29 17:58:36.975,0.364008,3.56231,9.81566,-0.164242,0.183254,-0.0578778,0
2024-11-29 17:58:36.978,0.330509,3.5671,9.74387,-0.159355,0.185698,-0.0548235,0
2024-11-29 17:58:36.981,0.301795,3.58624,9.67448,-0.154468,0.18753,-0.0511585,0
2024-11-29 17:58:36.982,0.258425,3.6006,9.62184,-0.152635,0.186919,-0.0474934,0
2024-11-29 17:58:36.985,0.236889,3.60778,9.58595,-0.14897,0.182032,-0.0438283,0
2024-11-29 17:58:36.987,0.236889,3.62453,9.55005,-0.144694,0.178367,-0.0389415,0
2024-11-29 17:58:36.989,0.227318,3.63171,9.51177,-0.144084,0.170426,-0.0352764,0
2024-11-29 17:58:36.994,0.234497,3.66551,9.43998,-0.14164,0.152712,-0.0297788,0
2024-11-29 17:58:36.994,0.234497,3.66551,9.43998,-0.14164,0.152712,-0.0297788,0
2024-11-29 17:58:36.997,0.251246,3.67747,9.42802,-0.137975,0.131332,-0.0267246,0
2024-11-29 17:58:36.998,0.253639,3.70379,9.41606,-0.137975,0.131332,-0.0267246,0
2024-11-29 17:58:37.002,0.260818,3.73729,9.42563,-0.135532,0.117283,-0.0279463,0
2024-11-29 17:58:37.003,0.27996,3.74208,9.4352,-0.133088,0.105677,-0.0303897,0
2024-11-29 17:58:37.005,0.27996,3.74686,9.44477,-0.131256,0.0910162,-0.0316113,0
2024-11-29 17:58:37.008,0.270389,3.78515,9.47827,-0.131256,0.0910162,-0.0316113,0
2024-11-29 17:58:37.010,0.275175,3.8354,9.49741,-0.123315,0.0647498,-0.0383307,0
2024-11-29 17:58:37.013,0.27996,3.85693,9.51895,-0.11965,0.0513112,-0.0432174,0
2024-11-29 17:58:37.015,0.289831,3.86172,9.55484,-0.11293,0.0397051,-0.0474934,0
2024-11-29 17:58:37.017,0.297009,3.88086,9.5692,-0.107433,0.0262664,-0.0554344,0
2024-11-29 17:58:37.024,0.335294,3.89522,9.63141,-0.090329,-0.0116061,-0.0762032,0
2024-11-29 17:58:37.025,0.335294,3.89522,9.63141,-0.090329,-0.0116061,-0.0762032,0
2024-11-29 17:58:37.027,0.34008,3.89282,9.64337,-0.082388,-0.0219905,-0.0853659,0
2024-11-29 17:58:37.027,0.34008,3.89282,9.64337,-0.082388,-0.0219905,-0.0853659,0
2024-11-29 17:58:37.030,0.347258,3.87368,9.6362,-0.0781121,-0.0342074,-0.0957503,0
2024-11-29 17:58:37.031,0.364008,3.86411,9.64098,-0.0707819,-0.0452027,-0.105524,0
2024-11-29 17:58:37.034,0.366401,3.84975,9.64816,-0.0640626,-0.0549763,-0.115297,0
2024-11-29 17:58:37.036,0.359223,3.81865,9.65295,-0.0591758,-0.0629173,-0.125682,0
2024-11-29 17:58:37.038,0.354437,3.79472,9.63859,-0.0542891,-0.0708583,-0.133012,0
2024-11-29 17:58:37.041,0.347258,3.766,9.60748,-0.0457372,-0.0781884,-0.143396,0
2024-11-29 17:58:37.046,0.342473,3.69183,9.59313,-0.0377962,-0.0891837,-0.161111,0
2024-11-29 17:58:37.047,0.342473,3.69183,9.59313,-0.0377962,-0.0891837,-0.161111,0
2024-11-29 17:58:37.049,0.342473,3.64606,9.56441,-0.0322986,-0.0904054,-0.167219,0
2024-11-29 17:58:37.053,0.318545,3.56231,9.52134,-0.0255792,-0.0952922,-0.18188,0
2024-11-29 17:58:37.053,0.318545,3.56231,9.52134,-0.0255792,-0.0952922,-0.18188,0
2024-11-29 17:58:37.056,0.325723,3.5336,9.50698,-0.0261901,-0.095903,-0.192264,0
2024-11-29 17:58:37.057,0.311366,3.51924,9.48306,-0.0261901,-0.095903,-0.192264,0
2024-11-29 17:58:37.060,0.292223,3.49532,9.46152,-0.0243575,-0.0928488,-0.195929,0
2024-11-29 17:58:37.063,0.285045,3.46421,9.43041,-0.0219141,-0.087962,-0.200816,0
2024-11-29 17:58:37.065,0.265603,3.44028,9.4017,-0.0219141,-0.080021,-0.204481,0
2024-11-29 17:58:37.067,0.260818,3.42114,9.38734,-0.022525,-0.07208,-0.206314,0
2024-11-29 17:58:37.070,0.258425,3.40678,9.37777,-0.022525,-0.059863,-0.21059,0
2024-11-29 17:58:37.071,0.244068,3.39003,9.36102,-0.022525,-0.0494786,-0.213033,0
2024-11-29 17:58:37.075,0.227318,3.3685,9.32513,-0.0243575,-0.0378725,-0.216698,0
2024-11-29 17:58:37.076,0.212961,3.36132,9.28445,-0.0261901,-0.0256556,-0.219752,0
2024-11-29 17:58:37.079,0.208176,3.34935,9.2677,-0.0280226,-0.0146603,-0.221585,0
2024-11-29 17:58:37.082,0.196211,3.33021,9.24108,-0.030466,-0.00183254,-0.225861,0
2024-11-29 17:58:37.083,0.174676,3.32064,9.2004,-0.0335202,0.0116061,-0.229526,0
2024-11-29 17:58:37.087,0.155533,3.29671,9.15255,-0.0371853,0.0342074,-0.237467,0
2024-11-29 17:58:37.089,0.136391,3.28953,9.11426,-0.0402396,0.0427593,-0.241132,0
2024-11-29 17:58:37.091,0.117248,3.28235,9.09033,-0.0402396,0.0427593,-0.241132,0
2024-11-29 17:58:37.093,0.0981057,3.25843,9.05923,-0.0445155,0.0488678,-0.242964,0
2024-11-29 17:58:37.096,0.081356,3.24407,9.02333,-0.0494023,0.0561979,-0.24724,0
2024-11-29 17:58:37.098,0.0646062,3.22971,8.97787,-0.0494023,0.0561979,-0.24724,0
2024-11-29 17:58:37.100,0.0430708,3.21775,8.93959,-0.0610084,0.0610847,-0.254571,0
2024-11-29 17:58:37.102,0.0239282,3.19143,8.92523,-0.0683385,0.0629173,-0.258236,0
2024-11-29 17:58:37.104,0.00239282,3.18425,8.91805,-0.0738362,0.0616956,-0.260679,0
2024-11-29 17:58:37.108,-0.0215354,3.16511,8.91326,-0.0805555,0.0580305,-0.263733,0
2024-11-29 17:58:37.109,-0.0526421,3.14357,8.92044,-0.0848314,0.0555871,-0.266177,0
2024-11-29 17:58:37.114,-0.0837488,3.12204,8.94916,-0.0964375,0.0470352,-0.269842,0
2024-11-29 17:58:37.115,-0.0837488,3.12204,8.94916,-0.0964375,0.0470352,-0.269842,0
2024-11-29 17:58:37.116,-0.114855,3.11246,8.94676,-0.100713,0.0421485,-0.271063,0
2024-11-29 17:58:37.119,-0.131605,3.08854,8.94916,-0.103157,0.0378725,-0.271063,0
2024-11-29 17:58:37.122,-0.133998,3.05474,8.97787,-0.109876,0.0293207,-0.271063,0
2024-11-29 17:58:37.123,-0.145962,3.02602,9.00419,-0.11293,0.0219905,-0.272285,0
2024-11-29 17:58:37.126,-0.155533,3.01167,9.01376,-0.117206,0.0164929,-0.271674,0
2024-11-29 17:58:37.128,-0.165105,2.99252,9.03291,-0.120261,0.00977356,-0.271063,0
2024-11-29 17:58:37.131,-0.160319,2.9662,9.07358,-0.12698,-0.00610847,-0.269842,0
2024-11-29 17:58:37.133,-0.16989,2.94945,9.0999,-0.12698,-0.00610847,-0.269842,0
2024-11-29 17:58:37.136,-0.191426,2.93749,9.11905,-0.128202,-0.0207688,-0.265566,0
2024-11-29 17:58:37.138,-0.196211,2.93749,9.15255,-0.128202,-0.0207688,-0.265566,0
2024-11-29 17:58:37.141,-0.191426,2.92792,9.18844,-0.131256,-0.0268773,-0.261901,0
2024-11-29 17:58:37.142,-0.191426,2.91356,9.22672,-0.133088,-0.0335966,-0.260068,0
2024-11-29 17:58:37.144,-0.205783,2.9016,9.25783,-0.133088,-0.0415376,-0.255792,0
2024-11-29 17:58:37.148,-0.20339,2.89681,9.32274,-0.133088,-0.0482569,-0.248462,0
2024-11-29 17:58:37.150,-0.217747,2.89681,9.36341,-0.133088,-0.0482569,-0.248462,0
2024-11-29 17:58:37.152,-0.244068,2.89203,9.38495,-0.131867,-0.0488678,-0.246019,0
2024-11-29 17:58:37.155,-0.258425,2.88485,9.42563,-0.129423,-0.0507003,-0.236245,0
2024-11-29 17:58:37.157,-0.267996,2.87049,9.46391,-0.129423,-0.0507003,-0.236245,0
2024-11-29 17:58:37.159,-0.270389,2.8681,9.49502,-0.128202,-0.0482569,-0.230137,0
2024-11-29 17:58:37.162,-0.292223,2.88245,9.51177,-0.123315,-0.043981,-0.217309,0
2024-11-29 17:58:37.164,-0.32333,2.88963,9.53091,-0.123315,-0.043981,-0.217309,0
2024-11-29 17:58:37.166,-0.34008,2.87767,9.55723,-0.121482,-0.0421485,-0.213033,0
2024-11-29 17:58:37.169,-0.364008,2.8657,9.56202,-0.120871,-0.0354291,-0.205092,0
2024-11-29 17:58:37.170,-0.380758,2.86092,9.55963,-0.119039,-0.0268773,-0.200205,0
2024-11-29 17:58:37.174,-0.3999,2.86092,9.55245,-0.115985,-0.0213797,-0.191042,0
2024-11-29 17:58:37.176,-0.431007,2.8681,9.5357,-0.116595,-0.00427593,-0.17516,0
2024-11-29 17:58:37.178,-0.454935,2.87049,9.51177,-0.116595,-0.00427593,-0.17516,0
2024-11-29 17:58:37.181,-0.476471,2.8657,9.49263,-0.118428,0.00427593,-0.164165,0
2024-11-29 17:58:37.183,-0.490828,2.85853,9.47827,-0.123315,0.0177146,-0.145229,0
2024-11-29 17:58:37.185,-0.50997,2.86331,9.46391,-0.123315,0.0177146,-0.145229,0
2024-11-29 17:58:37.187,-0.529113,2.87528,9.45434,-0.127591,0.0219905,-0.133623,0
2024-11-29 17:58:37.190,-0.548256,2.88245,9.44956,-0.131867,0.0256556,-0.122628,0
2024-11-29 17:58:37.193,-0.555434,2.88245,9.45195,-0.134921,0.0305424,-0.111632,0
2024-11-29 17:58:37.195,-0.56022,2.88963,9.46152,-0.14164,0.0342074,-0.0981937,0
2024-11-29 17:58:37.197,-0.569791,2.90638,9.47827,-0.144694,0.03604,-0.0859767,0
2024-11-29 17:58:37.200,-0.569791,2.93031,9.48784,-0.147749,0.0366508,-0.0743707,0
2024-11-29 17:58:37.201,-0.562612,2.94945,9.50698,-0.155079,0.0409268,-0.0627646,0
2024-11-29 17:58:37.204,-0.553041,2.97577,9.53091,-0.159355,0.0433702,-0.0517693,0
2024-11-29 17:58:37.206,-0.524327,2.99731,9.55963,-0.161187,0.043981,-0.0395524,0
2024-11-29 17:58:37.209,-0.493221,3.00927,9.59791,-0.164242,0.043981,-0.0316113,0
2024-11-29 17:58:37.210,-0.4669,3.01645,9.64098,-0.167296,0.043981,-0.0224486,0
2024-11-29 17:58:37.213,-0.440578,3.01884,9.68884,-0.168517,0.0427593,-0.0132859,0
2024-11-29 17:58:37.216,-0.414257,3.04517,9.71994,-0.169128,0.0409268,-0.00473407,0
2024-11-29 17:58:37.217,-0.397508,3.07149,9.74387,-0.170961,0.03604,0.00442864,0
2024-11-29 17:58:37.220,-0.395115,3.09571,9.77498,-0.17035,0.0354291,0.0105371,0
2024-11-29 17:58:37.223,-0.390329,3.11725,9.81087,-0.167907,0.0293207,0.0239758,0
2024-11-29 17:58:37.226,-0.392722,3.13639,9.85424,-0.166074,0.0299315,0.0306951,0
2024-11-29 17:58:37.227,-0.414257,3.17228,9.89971,-0.166074,0.0299315,0.0306951,0
2024-11-29 17:58:37.229,-0.426222,3.20818,9.94756,-0.16302,0.0287098,0.0374144,0
2024-11-29 17:58:37.232,-0.419043,3.25603,9.99303,-0.159966,0.0287098,0.0447446,0
2024-11-29 17:58:37.235,-0.426222,3.28953,10.0409,-0.154468,0.0268773,0.0532964,0
2024-11-29 17:58:37.237,-0.428614,3.31107,10.0935,-0.142251,0.0262664,0.0673459,0
2024-11-29 17:58:37.239,-0.426222,3.33978,10.1198,-0.142251,0.0262664,0.0673459,0
2024-11-29 17:58:37.243,-0.454935,3.39003,10.1629,-0.129423,0.0244339,0.0844496,0
2024-11-29 17:58:37.243,-0.454935,3.39003,10.1629,-0.129423,0.0244339,0.0844496,0
2024-11-29 17:58:37.246,-0.4669,3.402,10.1916,-0.123315,0.023823,0.0936123,0
2024-11-29 17:58:37.249,-0.476471,3.41635,10.2084,-0.108044,0.0256556,0.109494,0
2024-11-29 17:58:37.251,-0.478864,3.44985,10.2036,-0.108044,0.0256556,0.109494,0
2024-11-29 17:58:37.253,-0.483649,3.47857,10.194,-0.103157,0.0244339,0.118046,0
2024-11-29 17:58:37.256,-0.505185,3.49771,10.1988,-0.0933833,0.0213797,0.136372,0
2024-11-29 17:58:37.259,-0.521934,3.5336,10.2036,-0.0897182,0.0189363,0.144924,0
2024-11-29 17:58:37.261,-0.533899,3.57667,10.206,-0.0897182,0.0189363,0.144924,0
2024-11-29 17:58:37.263,-0.555434,3.60778,10.2108,-0.0811663,0.00794101,0.165692,0
2024-11-29 17:58:37.265,-0.565005,3.63171,10.2132,-0.0811663,0.00794101,0.165692,0
2024-11-29 17:58:37.267,-0.569791,3.64876,10.2275,-0.0793338,0.000610847,0.177298,0
2024-11-29 17:58:37.270,-0.557827,3.67986,10.2562,-0.0768904,-0.00610847,0.187683,0
2024-11-29 17:58:37.273,-0.517149,3.72054,10.273,-0.0756687,-0.0287098,0.206008,0
2024-11-29 17:58:37.275,-0.478864,3.7325,10.2873,-0.0768904,-0.0433702,0.213338,0
2024-11-29 17:58:37.277,-0.438186,3.73729,10.3161,-0.0768904,-0.0433702,0.213338,0
2024-11-29 17:58:37.280,-0.397508,3.7349,10.3591,-0.0793338,-0.0769668,0.226166,0
2024-11-29 17:58:37.282,-0.337687,3.7325,10.3929,-0.0793338,-0.0769668,0.226166,0
2024-11-29 17:58:37.284,-0.265603,3.75883,10.4504,-0.0836097,-0.0952922,0.231053,0
2024-11-29 17:58:37.287,-0.20339,3.76361,10.5269,-0.0897182,-0.142327,0.238994,0
2024-11-29 17:58:37.289,-0.143569,3.75883,10.6083,-0.0964375,-0.16554,0.238994,0
2024-11-29 17:58:37.291,-0.0789631,3.77797,10.7231,-0.0964375,-0.16554,0.238994,0
2024-11-29 17:58:37.294,-0.0287139,3.78993,10.8452,-0.104379,-0.205245,0.240216,0
2024-11-29 17:58:37.296,0.0,3.7995,10.9675,-0.106822,-0.224792,0.240827,0
2024-11-29 17:58:37.299,0.0334995,3.82822,11.1039,-0.106822,-0.224792,0.240827,0
2024-11-29 17:58:37.301,0.0717847,3.85454,11.2666,-0.104379,-0.25228,0.240827,0
2024-11-29 17:58:37.302,0.0981057,3.86172,11.4389,-0.104379,-0.25228,0.240827,0
2024-11-29 17:58:37.305,0.112463,3.88325,11.6019,-0.100713,-0.262053,0.24327,0
2024-11-29 17:58:37.308,0.124427,3.9,11.7598,-0.0939941,-0.267551,0.243881,0
2024-11-29 17:58:37.310,0.155533,3.90718,11.9273,-0.0939941,-0.267551,0.243881,0
2024-11-29 17:58:37.313,0.184247,3.92393,12.1095,-0.0781121,-0.267551,0.243881,0
2024-11-29 17:58:37.314,0.160319,3.93829,12.2865,-0.0628409,-0.261443,0.245102,0
2024-11-29 17:58:37.316,0.167498,3.93111,12.4445,-0.0469589,-0.249226,0.246324,0
2024-11-29 17:58:37.320,0.208176,3.91436,12.6048,-0.0109189,-0.213797,0.252433,0
2024-11-29 17:58:37.323,0.181855,3.89522,12.8516,0.0116825,-0.193028,0.254876,0
2024-11-29 17:58:37.323,0.181855,3.89522,12.8516,0.0116825,-0.193028,0.254876,0
2024-11-29 17:58:37.327,0.136391,3.88325,12.9377,0.0556635,-0.135608,0.262817,0
2024-11-29 17:58:37.329,0.0909273,3.87129,13.0167,0.0782648,-0.104455,0.268926,0
2024-11-29 17:58:37.332,0.0574277,3.86411,13.0406,0.0782648,-0.104455,0.268926,0
2024-11-29 17:58:37.333,0.0358923,3.85693,13.0262,0.0996445,-0.0708583,0.276256,0
2024-11-29 17:58:37.336,-0.00239282,3.83779,12.9951,0.120413,-0.0329858,0.282364,0
2024-11-29 17:58:37.339,-0.0334995,3.81147,12.9521,0.13935,0.00427593,0.293359,0
2024-11-29 17:58:37.340,-0.0526421,3.80907,12.8851,0.15401,0.0384834,0.30069,0
2024-11-29 17:58:37.342,-0.0909273,3.79711,12.7989,0.16867,0.0726908,0.310463,0
2024-11-29 17:58:37.345,-0.133998,3.77557,12.6936,0.179055,0.104455,0.323291,0
2024-11-29 17:58:37.347,-0.162712,3.75883,12.5856,0.183941,0.133165,0.333675,0
2024-11-29 17:58:37.349,-0.18664,3.75165,12.4852,0.185163,0.158209,0.345281,0
2024-11-29 17:58:37.352,-0.212961,3.74686,12.3847,0.184552,0.184476,0.358109,0
2024-11-29 17:58:37.355,-0.236889,3.74925,12.2961,0.176611,0.235787,0.386819,0
2024-11-29 17:58:37.357,-0.251246,3.77557,12.2291,0.176611,0.235787,0.386819,0
2024-11-29 17:58:37.360,-0.270389,3.78754,12.1908,0.157064,0.281601,0.417361,0
2024-11-29 17:58:37.362,-0.287438,3.7684,12.1525,0.157064,0.281601,0.417361,0
2024-11-29 17:58:37.364,-0.289831,3.76361,12.1238,0.144236,0.302369,0.435076,0
2024-11-29 17:58:37.366,-0.285045,3.77557,12.1167,0.132019,0.321306,0.451569,0
2024-11-29 17:58:37.368,-0.260818,3.77797,12.1071,0.11797,0.336577,0.467451,0
2024-11-29 17:58:37.372,-0.227318,3.78754,12.1023,0.0904818,0.364676,0.494328,0
2024-11-29 17:58:37.374,-0.18664,3.80668,12.1262,0.077654,0.374449,0.505934,0
2024-11-29 17:58:37.375,-0.131605,3.83061,12.1478,0.077654,0.374449,0.505934,0
2024-11-29 17:58:37.378,-0.0693919,3.84018,12.1908,0.0636045,0.378725,0.511432,0
2024-11-29 17:58:37.381,0.00239282,3.83061,12.2483,0.0361163,0.373228,0.515708,0
2024-11-29 17:58:37.383,0.066999,3.833,12.2985,0.0361163,0.373228,0.515708,0
2024-11-29 17:58:37.385,0.112463,3.84736,12.3416,0.0226777,0.364065,0.516319,0
2024-11-29 17:58:37.387,0.155533,3.84497,12.3966,0.0116825,0.350015,0.511432,0
2024-11-29 17:58:37.390,0.200997,3.84257,12.4636,-0.00175619,0.33169,0.507156,0
2024-11-29 17:58:37.393,0.244068,3.83779,12.521,-0.0127514,0.307867,0.499826,0
2024-11-29 17:58:37.394,0.292223,3.81865,12.5928,-0.0237467,0.282822,0.491274,0
2024-11-29 17:58:37.397,0.330509,3.81147,12.6673,-0.0335202,0.251058,0.480279,0
2024-11-29 17:58:37.399,0.364008,3.78754,12.7391,-0.0432938,0.215629,0.467451,0
2024-11-29 17:58:37.402,0.419043,3.73011,12.8204,-0.0542891,0.175313,0.45218,0
2024-11-29 17:58:37.405,0.471685,3.68465,12.8994,-0.0634518,0.126445,0.43813,0
2024-11-29 17:58:37.406,0.490828,3.65115,12.9784,-0.0750579,0.0745234,0.420416,0
2024-11-29 17:58:37.409,0.493221,3.61496,13.0262,-0.0854423,0.0250447,0.400258,0
2024-11-29 17:58:37.411,0.531506,3.53599,13.031,-0.0976592,-0.0213797,0.381321,0
2024-11-29 17:58:37.414,0.655932,3.39003,13.0382,-0.132477,-0.117283,0.339784,0
2024-11-29 17:58:37.416,0.837787,3.21536,13.0525,-0.132477,-0.117283,0.339784,0
2024-11-29 17:58:37.419,0.998405,3.04517,13.0932,-0.178291,-0.204023,0.291527,0
2024-11-29 17:58:37.421,1.12283,2.89203,13.1411,-0.203336,-0.240063,0.267093,0
2024-11-29 17:58:37.423,1.19701,2.77238,13.218,-0.203336,-0.240063,0.267093,0
2024-11-29 17:58:37.425,1.20419,2.68385,13.3448,-0.225937,-0.271827,0.248157,0
2024-11-29 17:58:37.427,1.21137,2.60489,13.5027,-0.249149,-0.297483,0.229831,0
2024-11-29 17:58:37.429,1.25204,2.54028,13.6869,-0.269307,-0.323138,0.21456,0
2024-11-29 17:58:37.432,1.31665,2.47298,13.9098,-0.288244,-0.346961,0.200511,0
2024-11-29 17:58:37.435,1.38844,2.3988,14.1395,-0.308401,-0.395829,0.172412,0
2024-11-29 17:58:37.438,1.45573,2.30309,14.3623,-0.308401,-0.395829,0.172412,0
2024-11-29 17:58:37.439,1.52513,2.18824,14.5753,-0.311456,-0.416598,0.158362,0
2024-11-29 17:58:37.441,1.59212,2.10449,14.7691,-0.309012,-0.433091,0.146145,0
2024-11-29 17:58:37.444,1.62562,1.99681,14.9536,-0.301682,-0.443475,0.134539,0
2024-11-29 17:58:37.447,1.64477,1.88405,15.1427,-0.272362,-0.439199,0.111327,0
2024-11-29 17:58:37.449,1.65194,1.81944,15.2958,-0.272362,-0.439199,0.111327,0
2024-11-29 17:58:37.451,1.65194,1.72852,15.4202,-0.247928,-0.425761,0.102775,0
2024-11-29 17:58:37.454,1.67348,1.62084,15.5378,-0.187454,-0.383001,0.0930015,0
2024-11-29 17:58:37.456,1.67348,1.53709,15.6144,-0.187454,-0.383001,0.0930015,0
2024-11-29 17:58:37.458,1.65194,1.45573,15.6455,-0.151414,-0.356735,0.0899473,0
2024-11-29 17:58:37.461,1.62802,1.35015,15.6646,-0.11293,-0.325582,0.0905581,0
2024-11-29 17:58:37.463,1.61605,1.23769,15.6718,-0.0720036,-0.293818,0.0930015,3
2024-11-29 17:58:37.466,1.60409,1.13719,15.6383,-0.0298552,-0.261443,0.0954449,0
2024-11-29 17:58:37.467,1.57059,1.0319,15.5761,0.0171801,-0.224792,0.100943,0
2024-11-29 17:58:37.471,1.51795,0.933799,15.4852,0.0636045,-0.183254,0.109494,0
2024-11-29 17:58:37.472,1.47009,0.864407,15.3724,0.111861,-0.13683,0.119268,0
2024-11-29 17:58:37.474,1.41027,0.801895,15.224,0.160729,-0.0849078,0.130263,0
2024-11-29 17:58:37.478,1.34536,0.761217,15.0518,0.257243,0.0335966,0.158973,0
2024-11-29 17:58:37.480,1.27358,0.74686,14.8819,0.257243,0.0335966,0.158973,0
2024-11-29 17:58:37.481,1.19701,0.737288,14.6758,0.306111,0.105066,0.175466,0
2024-11-29 17:58:37.485,1.11805,0.744467,14.4293,0.407511,0.271827,0.213949,0
2024-11-29 17:58:37.487,1.03669,0.768395,14.1562,0.407511,0.271827,0.213949,0
2024-11-29 17:58:37.489,0.96012,0.787538,13.8595,0.456379,0.3604,0.232886,0
2024-11-29 17:58:37.491,0.902692,0.797109,13.5362,0.505858,0.451416,0.254265,0
2024-11-29 17:58:37.493,0.82343,0.82343,13.2227,0.553504,0.539989,0.271369,0
2024-11-29 17:58:37.496,0.699003,0.88355,12.9162,0.598096,0.624897,0.290916,0
2024-11-29 17:58:37.498,0.56022,0.948156,12.5856,0.64452,0.704307,0.309241,0
2024-11-29 17:58:37.501,0.426222,0.984048,12.2172,0.731871,0.84358,0.347114,0
2024-11-29 17:58:37.504,0.316152,1.00319,11.8268,0.769133,0.902221,0.365439,0
2024-11-29 17:58:37.506,0.224925,1.02951,11.4269,0.769133,0.902221,0.365439,0
2024-11-29 17:58:37.508,0.155533,1.04626,11.0058,0.803951,0.955365,0.384376,0
2024-11-29 17:58:37.510,0.0909273,1.03908,10.5844,0.835715,1.00057,0.400869,0
2024-11-29 17:58:37.512,0.0239282,1.02473,10.1557,0.861982,1.03966,0.417361,0
2024-11-29 17:58:37.515,-0.0287139,1.00558,9.72473,0.897411,1.0983,0.440574,0
2024-11-29 17:58:37.518,-0.0622134,0.988834,9.31556,0.91146,1.1148,0.450347,0
2024-11-29 17:58:37.520,-0.105284,0.97687,8.92044,0.912682,1.12457,0.45951,0
2024-11-29 17:58:37.522,-0.177069,0.962513,8.53251,0.912682,1.12457,0.45951,0
2024-11-29 17:58:37.524,-0.248854,0.972084,8.13769,0.915736,1.12396,0.46684,0
2024-11-29 17:58:37.526,-0.311366,1.0008,7.7665,0.91146,1.11846,0.475392,0
2024-11-29 17:58:37.529,-0.392722,1.02951,7.41925,0.900465,1.1038,0.4815,0
2024-11-29 17:58:37.532,-0.493221,1.07019,7.07229,0.864425,1.0476,0.493106,0
2024-11-29 17:58:37.533,-0.557827,1.12522,6.77288,0.864425,1.0476,0.493106,0
2024-11-29 17:58:37.536,-0.612862,1.17547,6.48814,0.836937,1.00545,0.499826,0
2024-11-29 17:58:37.538,-0.679861,1.22812,6.20549,0.806395,0.955976,0.505934,0
2024-11-29 17:58:37.541,-0.720539,1.29751,5.97099,0.768522,0.901,0.508988,0
2024-11-29 17:58:37.546,0.426222,0.732503,7.0026,0.695221,0.53327,0.446682,0
2024-11-29 17:58:37.546,0.426222,0.732503,7.0026,0.695221,0.53327,0.446682,0
2024-11-29 17:58:37.548,0.588933,0.60329,7.168,0.682393,0.448973,0.410031,0
2024-11-29 17:58:37.551,-0.0287139,0.811466,6.59582,0.668343,0.409879,0.383154,0
2024-11-29 17:58:37.552,-0.30658,0.991227,6.32752,0.668343,0.409879,0.383154,0
2024-11-29 17:58:37.555,-0.464507,1.20658,6.14567,0.657348,0.384834,0.365439,0
2024-11-29 17:58:37.557,-0.600898,1.42463,5.9662,0.63719,0.362232,0.355055,0
2024-11-29 17:58:37.560,-0.593719,1.57777,5.94945,0.580381,0.246782,0.344671,0
2024-11-29 17:58:37.564,-0.500399,1.80748,6.11217,0.540065,0.144771,0.337951,0
2024-11-29 17:58:37.564,-0.500399,1.80748,6.11217,0.540065,0.144771,0.337951,0
2024-11-29 17:58:37.567,-0.529113,1.90798,6.02602,0.447827,-0.0635281,0.329399,0
2024-11-29 17:58:37.569,-0.581755,2.01835,5.88933,0.447827,-0.0635281,0.329399,0
2024-11-29 17:58:37.571,-0.591326,2.0997,5.81276,0.396516,-0.145992,0.325734,0
2024-11-29 17:58:37.573,-0.502792,2.14995,5.82473,0.34154,-0.215629,0.321458,0
2024-11-29 17:58:37.576,-0.352044,2.19781,5.88455,0.29084,-0.277936,0.315961,0
2024-11-29 17:58:37.578,-0.167498,2.22174,6.01645,0.24075,-0.338409,0.307409,0
2024-11-29 17:58:37.580,0.0741775,2.17866,6.25095,0.192493,-0.398272,0.292749,0
2024-11-29 17:58:37.583,0.335294,2.08774,6.53121,0.148512,-0.46119,0.273812,0
2024-11-29 17:58:37.586,0.56022,1.98485,6.80399,0.0727672,-0.587024,0.215782,0
2024-11-29 17:58:37.588,0.758824,1.86251,7.06511,0.0727672,-0.587024,0.215782,0
2024-11-29 17:58:37.590,0.952942,1.75005,7.31875,0.0465007,-0.638335,0.182185,0
2024-11-29 17:58:37.593,1.10848,1.66869,7.56042,0.00862822,-0.704918,0.0960557,0
2024-11-29 17:58:37.595,1.24247,1.60648,7.78804,0.00862822,-0.704918,0.0960557,0
2024-11-29 17:58:37.598,1.39561,1.55145,8.00818,-0.00175619,-0.729962,-0.00351237,0
2024-11-29 17:58:37.600,1.51795,1.49641,8.19512,-0.00175619,-0.729962,-0.00351237,0
2024-11-29 17:58:37.604,1.55145,1.41027,8.46551,-0.00114534,-0.7208,-0.103691,0
2024-11-29 17:58:37.605,1.55145,1.41027,8.46551,0.00251974,-0.698809,-0.151948,0
2024-11-29 17:58:37.606,1.48923,1.39322,8.53729,0.00251974,-0.698809,-0.151948,0
2024-11-29 17:58:37.609,1.40548,1.37408,8.57797,0.00801737,-0.673765,-0.195929,0
2024-11-29 17:58:37.611,1.29272,1.36451,8.57318,0.0141258,-0.639557,-0.236856,0
2024-11-29 17:58:37.613,1.14437,1.36211,8.55165,0.0184018,-0.602295,-0.273507,0
2024-11-29 17:58:37.617,0.952942,1.35494,8.51097,0.0202343,-0.561979,-0.302828,0
2024-11-29 17:58:37.619,0.744467,1.36929,8.43679,0.0202343,-0.470352,-0.347419,0
2024-11-29 17:58:37.621,0.565005,1.37169,8.35783,0.0147367,-0.426982,-0.361469,0
2024-11-29 17:58:37.623,0.368794,1.35015,8.28126,0.0147367,-0.426982,-0.361469,0
2024-11-29 17:58:37.626,0.179462,1.34297,8.19751,0.00740652,-0.386055,-0.370632,0
2024-11-29 17:58:37.628,0.0311067,1.33819,8.11107,0.00740652,-0.386055,-0.370632,0
2024-11-29 17:58:37.631,-0.117248,1.31665,8.03929,-0.0139731,-0.3097,-0.377962,0
2024-11-29 17:58:37.632,-0.285045,1.30708,7.98425,-0.0274118,-0.271216,-0.373686,0
2024-11-29 17:58:37.634,-0.431007,1.30469,7.92443,-0.0402396,-0.230289,-0.366356,0
2024-11-29 17:58:37.637,-0.507577,1.29272,7.88615,-0.0548999,-0.193028,-0.357804,0
2024-11-29 17:58:37.639,-0.569791,1.28315,7.867,-0.0683385,-0.153323,-0.34803,0
2024-11-29 17:58:37.642,-0.670289,1.28554,7.83111,-0.0829989,-0.113618,-0.334592,0
2024-11-29 17:58:37.645,-0.749253,1.27597,7.78325,-0.108044,-0.0354291,-0.31199,0
2024-11-29 17:58:37.646,-0.804287,1.26162,7.7354,-0.108044,-0.0354291,-0.31199,0
2024-11-29 17:58:37.649,-0.88355,1.24726,7.69233,-0.11965,0.00183254,-0.299773,0
2024-11-29 17:58:37.654,-1.02233,1.25922,7.68036,-0.143473,0.0647498,-0.27595,0
2024-11-29 17:58:37.654,-1.02233,1.25922,7.68036,-0.143473,0.0647498,-0.27595,0
2024-11-29 17:58:37.656,-1.10848,1.29751,7.6684,-0.155079,0.0928488,-0.266177,0
2024-11-29 17:58:37.658,-1.18265,1.32144,7.64208,-0.164242,0.116061,-0.254571,0
2024-11-29 17:58:37.661,-1.24965,1.35254,7.63011,-0.172793,0.138051,-0.243575,0
2024-11-29 17:58:37.664,-1.31665,1.39561,7.62293,-0.181345,0.156377,-0.233802,0
2024-11-29 17:58:37.665,-1.37886,1.42223,7.60618,-0.191119,0.175924,-0.220974,0
2024-11-29 17:58:37.668,-1.43898,1.45334,7.58944,-0.19906,0.190584,-0.21059,0
2024-11-29 17:58:37.670,-1.49641,1.49163,7.56999,-0.20639,0.207688,-0.198373,0
2024-11-29 17:58:37.672,-1.54427,1.52273,7.54607,-0.215553,0.222348,-0.184934,0
2024-11-29 17:58:37.674,-1.60409,1.55145,7.54367,-0.221661,0.233344,-0.172717,0
2024-11-29 17:58:37.678,-1.66152,1.57537,7.54367,-0.228381,0.241896,-0.155613,0
2024-11-29 17:58:37.679,-1.68305,1.59452,7.54367,-0.234489,0.249837,-0.140953,0
2024-11-29 17:58:37.683,-1.70937,1.60887,7.55564,-0.241208,0.258388,-0.125071,0
2024-11-29 17:58:37.684,-1.75484,1.62323,7.56042,-0.241208,0.258388,-0.125071,0
2024-11-29 17:58:37.686,-1.77398,1.6328,7.5676,-0.248538,0.269994,-0.0926961,0
2024-11-29 17:58:37.690,-1.77637,1.65194,7.57478,-0.250371,0.276103,-0.0749815,0
2024-11-29 17:58:37.692,-1.75723,1.66869,7.59422,-0.247317,0.291374,-0.0413849,0
2024-11-29 17:58:37.693,-1.73569,1.67587,7.63011,-0.247317,0.291374,-0.0413849,0
2024-11-29 17:58:37.697,-1.72852,1.66869,7.65643,-0.245484,0.298093,-0.0230595,0
2024-11-29 17:58:37.699,-1.70698,1.65434,7.68276,-0.2351,0.310921,0.00687203,0
2024-11-29 17:58:37.701,-1.67348,1.64955,7.70429,-0.2351,0.310921,0.00687203,0
2024-11-29 17:58:37.704,-1.65673,1.66152,7.6995,-0.22777,0.312754,0.0233649,0
2024-11-29 17:58:37.706,-1.64237,1.67587,7.6995,-0.222272,0.315808,0.0386361,0
2024-11-29 17:58:37.708,-1.6328,1.68305,7.71625,-0.214942,0.319473,0.0532964,0
2024-11-29 17:58:37.710,-1.62323,1.69741,7.71865,-0.205779,0.323138,0.0661242,0
2024-11-29 17:58:37.712,-1.60887,1.72852,7.6995,-0.194173,0.321306,0.0807846,0
2024-11-29 17:58:37.715,-1.59452,1.74766,7.68276,-0.185621,0.320084,0.0966666,0
2024-11-29 17:58:37.718,-1.57777,1.76919,7.66361,-0.168517,0.312754,0.121711,0
2024-11-29 17:58:37.720,-1.57059,1.80269,7.63968,-0.168517,0.312754,0.121711,0
2024-11-29 17:58:37.722,-1.55623,1.82662,7.61815,-0.161187,0.306645,0.134539,0
2024-11-29 17:58:37.724,-1.54188,1.84576,7.59901,-0.155079,0.300537,0.144313,0
2024-11-29 17:58:37.726,-1.52513,1.87448,7.57747,-0.14836,0.291374,0.155308,0
2024-11-29 17:58:37.729,-1.48684,1.91276,7.55803,-0.142251,0.283433,0.165081,0
2024-11-29 17:58:37.733,-1.41266,1.95344,7.51257,-0.133088,0.266329,0.181574,0
2024-11-29 17:58:37.734,-1.45813,1.9343,7.51257,-0.133088,0.266329,0.181574,0
2024-11-29 17:58:37.737,-1.36929,1.96301,7.50539,-0.126369,0.257167,0.188294,0
2024-11-29 17:58:37.739,-1.33819,1.97288,7.5006,-0.125758,0.249226,0.19318,0
2024-11-29 17:58:37.740,-1.29751,1.99442,7.49821,-0.122093,0.236398,0.199289,0
2024-11-29 17:58:37.744,-1.26401,2.01835,7.51017,-0.11965,0.226624,0.201732,0
2024-11-29 17:58:37.746,-1.22812,2.01835,7.52214,-0.120261,0.216851,0.203565,0
2024-11-29 17:58:37.747,-1.19222,2.02313,7.52692,-0.117817,0.207077,0.206619,0
2024-11-29 17:58:37.751,-1.1659,2.03749,7.53649,-0.109876,0.195471,0.208452,0
2024-11-29 17:58:37.752,-1.15155,2.04227,7.54128,-0.109876,0.195471,0.208452,0
2024-11-29 17:58:37.756,-1.15872,2.05185,7.54128,-0.109265,0.185087,0.211506,0
2024-11-29 17:58:37.757,-1.16112,2.06381,7.55803,-0.109265,0.185087,0.211506,0
2024-11-29 17:58:37.760,-1.14915,2.07577,7.56999,-0.110487,0.181422,0.212117,0
2024-11-29 17:58:37.762,-1.14676,2.08056,7.5676,-0.111098,0.177757,0.213338,0
2024-11-29 17:58:37.764,-1.13958,2.08056,7.57986,-0.108044,0.170426,0.217614,0
2024-11-29 17:58:37.767,-1.14437,2.07577,7.59661,-0.109876,0.167372,0.218836,0
2024-11-29 17:58:37.769,-1.15633,2.08774,7.59183,-0.111098,0.164318,0.220669,0
2024-11-29 17:58:37.771,-1.16351,2.09252,7.60618,-0.11293,0.161264,0.222501,0
2024-11-29 17:58:37.773,-1.18505,2.08535,7.63011,-0.118428,0.160042,0.227999,0
2024-11-29 17:58:37.776,-1.20419,2.10688,7.64686,-0.117206,0.160653,0.232275,0
2024-11-29 17:58:37.779,-1.21615,2.12363,7.67797,-0.121482,0.159431,0.23594,0
2024-11-29 17:58:37.780,-1.24008,2.12842,7.70668,-0.122704,0.158209,0.241437,0
2024-11-29 17:58:37.783,-1.26162,2.12842,7.733,-0.12698,0.156988,0.246935,0
2024-11-29 17:58:37.786,-1.26879,2.13559,7.7689,-0.130645,0.154544,0.253043,0
2024-11-29 17:58:37.789,-1.2664,2.14995,7.80958,-0.134921,0.150879,0.260374,0
2024-11-29 17:58:37.790,-1.25444,2.14756,7.84786,-0.138586,0.144771,0.268926,0
2024-11-29 17:58:37.793,-1.25683,2.13799,7.88615,-0.142251,0.139273,0.276256,0
2024-11-29 17:58:37.796,-1.25922,2.14756,7.94836,-0.146527,0.134386,0.281753,0
2024-11-29 17:58:37.797,-1.25683,2.16431,8.001,-0.150803,0.13011,0.288473,0
2024-11-29 17:58:37.800,-1.24726,2.16431,8.05125,-0.154468,0.119115,0.304965,0
2024-11-29 17:58:37.803,-1.22333,2.15952,8.13021,-0.154468,0.119115,0.304965,0
2024-11-29 17:58:37.804,-1.22094,2.1667,8.2023,-0.156911,0.111785,0.311685,0
2024-11-29 17:58:37.807,-1.22812,2.18106,8.2693,-0.160576,0.104455,0.319626,0
2024-11-29 17:58:37.810,-1.2018,2.19302,8.35544,-0.164242,0.0952922,0.325734,0
2024-11-29 17:58:37.811,-1.17069,2.20499,8.42483,-0.164242,0.0873512,0.334897,0
2024-11-29 17:58:37.814,-1.15155,2.20977,8.48704,-0.164852,0.0794101,0.34406,0
2024-11-29 17:58:37.817,-1.12762,2.22174,8.57318,-0.163631,0.0702474,0.349557,0
2024-11-29 17:58:37.819,-1.10608,2.24088,8.64975,-0.16302,0.0616956,0.356888,0
2024-11-29 17:58:37.822,-1.07976,2.25284,8.71466,-0.16302,0.0531437,0.364218,0
2024-11-29 17:58:37.824,-1.05344,2.25524,8.80319,-0.158133,0.0452027,0.377045,0
2024-11-29 17:58:37.826,-1.00319,2.25763,8.87976,-0.154468,0.0421485,0.384376,0
2024-11-29 17:58:37.829,-0.94337,2.26241,8.92284,-0.150192,0.0403159,0.38743,0
2024-11-29 17:58:37.831,-0.878764,2.26002,8.98744,-0.150192,0.0403159,0.38743,0
2024-11-29 17:58:37.832,-0.821037,2.25284,9.05205,-0.14897,0.0366508,0.389873,0
2024-11-29 17:58:37.835,-0.787538,2.25763,9.10469,-0.145305,0.0348183,0.393538,0
2024-11-29 17:58:37.838,-0.758824,2.27438,9.1693,-0.137364,0.0323749,0.40209,0
2024-11-29 17:58:37.840,-0.727717,2.30309,9.24826,-0.137364,0.0323749,0.40209,0
2024-11-29 17:58:37.842,-0.71336,2.33181,9.33231,-0.131256,0.0335966,0.406366,0
2024-11-29 17:58:37.844,-0.710967,2.35334,9.39931,-0.123315,0.0342074,0.410031,0
2024-11-29 17:58:37.846,-0.679861,2.37727,9.44716,-0.116595,0.0372617,0.414307,0
2024-11-29 17:58:37.850,-0.639183,2.39163,9.50938,-0.0994917,0.0421485,0.421637,0
2024-11-29 17:58:37.852,-0.610469,2.39641,9.5692,-0.0994917,0.0421485,0.421637,0
2024-11-29 17:58:37.853,-0.557827,2.38684,9.6027,-0.094605,0.0470352,0.428357,0
2024-11-29 17:58:37.856,-0.478864,2.38206,9.61945,-0.0836097,0.0543654,0.429578,0
2024-11-29 17:58:37.859,-0.407079,2.38206,9.63141,-0.0781121,0.0623064,0.433854,0
2024-11-29 17:58:37.861,-0.366401,2.37966,9.65773,-0.0713928,0.0702474,0.434465,0
2024-11-29 17:58:37.864,-0.342473,2.38684,9.68645,-0.0610084,0.0867403,0.436909,0
2024-11-29 17:58:37.866,-0.330509,2.41077,9.71037,-0.0610084,0.0867403,0.436909,0
2024-11-29 17:58:37.868,-0.325723,2.43948,9.72473,-0.0579541,0.0989573,0.43813,0
2024-11-29 17:58:37.871,-0.337687,2.48255,9.74627,-0.046348,0.127667,0.43813,0
2024-11-29 17:58:37.872,-0.335294,2.52323,9.77259,-0.046348,0.127667,0.43813,0
2024-11-29 17:58:37.876,-0.299402,2.55464,9.79412,-0.0353528,0.154544,0.44485,0
2024-11-29 17:58:37.878,-0.263211,2.58574,9.79652,-0.0353528,0.154544,0.44485,0
2024-11-29 17:58:37.879,-0.229711,2.60728,9.79412,-0.0292443,0.166761,0.44546,0
2024-11-29 17:58:37.883,-0.205783,2.61685,9.79652,-0.0243575,0.181422,0.44485,0
2024-11-29 17:58:37.885,-0.181855,2.61446,9.77977,-0.0219141,0.19486,0.446071,0
2024-11-29 17:58:37.886,-0.136391,2.62164,9.75105,-0.0194708,0.204634,0.446071,0
2024-11-29 17:58:37.890,-0.0909273,2.64796,9.72234,-0.0164165,0.217462,0.441184,0
2024-11-29 17:58:37.892,-0.0622134,2.66471,9.70798,-0.0164165,0.233344,0.433243,0
2024-11-29 17:58:37.895,-0.0382852,2.69821,9.68645,-0.0164165,0.233344,0.433243,0
2024-11-29 17:58:37.896,-0.0311067,2.74367,9.66252,-0.0158057,0.242506,0.427135,0
2024-11-29 17:58:37.898,-0.0287139,2.76999,9.65055,-0.0194708,0.248615,0.420416,0
2024-11-29 17:58:37.901,-0.0311067,2.81306,9.6338,-0.022525,0.254112,0.416751,0
2024-11-29 17:58:37.904,-0.0311067,2.85374,9.61227,-0.0249684,0.257778,0.411864,0
2024-11-29 17:58:37.906,-0.0215354,2.88006,9.59313,-0.0280226,0.260832,0.405144,0
2024-11-29 17:58:37.908,-0.00239282,2.90638,9.58355,-0.0322986,0.261443,0.399036,0
2024-11-29 17:58:37.910,0.0311067,2.92074,9.57877,-0.0377962,0.264497,0.392317,0
2024-11-29 17:58:37.912,0.0574277,2.93749,9.5668,-0.0445155,0.262664,0.384986,0
2024-11-29 17:58:37.915,0.0741775,2.95902,9.55963,-0.0445155,0.262664,0.384986,0
2024-11-29 17:58:37.917,0.0981057,2.99252,9.5668,-0.0603975,0.258388,0.37277,0
2024-11-29 17:58:37.920,0.114855,3.0332,9.58116,-0.0677277,0.255334,0.363607,0
2024-11-29 17:58:37.922,0.143569,3.07627,9.58595,-0.0756687,0.254723,0.35139,0
2024-11-29 17:58:37.925,0.200997,3.10529,9.57398,-0.0829989,0.254723,0.341616,0
2024-11-29 17:58:37.928,0.263211,3.10529,9.56441,-0.094605,0.254112,0.33001,0
2024-11-29 17:58:37.929,0.318545,3.10529,9.57398,-0.104989,0.254723,0.315961,0
2024-11-29 17:58:37.931,0.349651,3.134,9.59313,-0.115985,0.254112,0.300079,0
2024-11-29 17:58:37.934,0.349651,3.18664,9.62902,-0.126369,0.25228,0.287251,0
2024-11-29 17:58:37.937,0.328116,3.22971,9.6673,-0.150803,0.247393,0.259152,0
2024-11-29 17:58:37.938,0.308973,3.27039,9.71994,-0.150803,0.247393,0.259152,0
2024-11-29 17:58:37.943,0.256032,3.402,9.85903,-0.166685,0.241285,0.234718,0
2024-11-29 17:58:37.943,0.256032,3.402,9.85903,-0.166685,0.241285,0.234718,0
2024-11-29 17:58:37.946,0.272782,3.44507,9.90449,-0.174626,0.239452,0.220669,0
2024-11-29 17:58:37.949,0.308973,3.45464,9.96192,-0.183178,0.23762,0.208452,0
2024-11-29 17:58:37.950,0.330509,3.45942,10.017,-0.189897,0.233344,0.19318,0
2024-11-29 17:58:37.953,0.342473,3.47857,10.0744,-0.195395,0.232122,0.17852,0
2024-11-29 17:58:37.955,0.325723,3.49292,10.1246,-0.200282,0.230289,0.163249,0
2024-11-29 17:58:37.958,0.292223,3.51207,10.2084,-0.205168,0.224792,0.146756,0
2024-11-29 17:58:37.960,0.265603,3.54078,10.3208,-0.209444,0.218072,0.133317,0
2024-11-29 17:58:37.963,0.229711,3.57428,10.4121,-0.211888,0.200969,0.103997,0
2024-11-29 17:58:37.965,0.208176,3.60539,10.4862,-0.211888,0.200969,0.103997,0
2024-11-29 17:58:37.967,0.222533,3.61256,10.5437,-0.214942,0.191195,0.0899473,0
2024-11-29 17:58:37.970,0.267996,3.59342,10.6059,-0.217385,0.161875,0.0624591,0
2024-11-29 17:58:37.972,0.299402,3.5671,10.6753,-0.217385,0.161875,0.0624591,0
2024-11-29 17:58:37.974,0.299402,3.55992,10.7375,-0.219829,0.144771,0.0496313,0
2024-11-29 17:58:37.976,0.282652,3.56471,10.7949,-0.222883,0.132554,0.0361927,0
2024-11-29 17:58:37.978,0.234497,3.57189,10.8691,-0.225326,0.120337,0.0227541,0
2024-11-29 17:58:37.981,0.198604,3.5671,10.9603,-0.227159,0.109953,0.0129805,0
2024-11-29 17:58:37.983,0.200997,3.55753,11.0513,-0.226548,0.0971247,0.0025961,0
2024-11-29 17:58:37.985,0.22014,3.55514,11.1613,-0.22777,0.0836861,-0.00656661,0
2024-11-29 17:58:37.989,0.244068,3.56231,11.281,-0.228991,0.067804,-0.0163402,0
2024-11-29 17:58:37.990,0.244068,3.55514,11.3862,-0.228381,0.0525329,-0.0255029,0
2024-11-29 17:58:37.993,0.234497,3.53839,11.5011,-0.227159,0.0378725,-0.0322222,0
2024-11-29 17:58:37.995,0.234497,3.54078,11.633,-0.226548,0.0213797,-0.0389415,0
2024-11-29 17:58:37.997,0.244068,3.53121,11.7718,-0.224105,0.00794101,-0.0456608,0
2024-11-29 17:58:38.000,0.275175,3.51207,11.913,-0.22105,-0.00610847,-0.0536018,0
2024-11-29 17:58:38.003,0.294616,3.50249,12.0589,-0.20639,-0.0274881,-0.0670405,0
2024-11-29 17:58:38.005,0.30658,3.49532,12.21,-0.20639,-0.0274881,-0.0670405,0
2024-11-29 17:58:38.007,0.304188,3.50728,12.3512,-0.197227,-0.0329858,-0.0713164,0
2024-11-29 17:58:38.010,0.297009,3.5336,12.4923,-0.169128,-0.0244339,-0.0786466,0
2024-11-29 17:58:38.012,0.299402,3.55992,12.6239,-0.149581,-0.0152712,-0.0798683,0
2024-11-29 17:58:38.015,0.27996,3.58624,12.7534,-0.129423,0.00183254,-0.08109,0
2024-11-29 17:58:38.016,0.260818,3.61735,12.8659,-0.129423,0.00183254,-0.08109,0
2024-11-29 17:58:38.019,0.248854,3.65115,12.9497,-0.104989,0.0213797,-0.0829225,0
2024-11-29 17:58:38.022,0.234497,3.68465,13.0143,-0.0512348,0.0763559,-0.0829225,0
2024-11-29 17:58:38.023,0.229711,3.69661,13.0693,-0.0512348,0.0763559,-0.0829225,0
2024-11-29 17:58:38.026,0.253639,3.69661,13.0932,-0.0243575,0.10812,-0.0853659,0
2024-11-29 17:58:38.028,0.275175,3.70618,13.0669,0.00618483,0.140495,-0.0853659,0
2024-11-29 17:58:38.031,0.272782,3.699,13.019,0.0581068,0.204023,-0.0926961,0
2024-11-29 17:58:38.034,0.256032,3.68226,12.9209,0.0581068,0.204023,-0.0926961,0
2024-11-29 17:58:38.035,0.22014,3.69422,12.7941,0.0831516,0.236398,-0.0981937,0
2024-11-29 17:58:38.038,0.184247,3.71815,12.6458,0.106364,0.271827,-0.101248,0
2024-11-29 17:58:38.040,0.112463,3.7325,12.4684,0.126522,0.30298,-0.107356,0
2024-11-29 17:58:38.042,0.0334995,3.75165,12.2698,0.140571,0.332912,-0.107967,0
2024-11-29 17:58:38.045,-0.0334995,3.7684,12.0565,0.158897,0.380558,-0.111021,0
2024-11-29 17:58:38.048,-0.117248,3.78754,11.8531,0.158897,0.380558,-0.111021,0
2024-11-29 17:58:38.050,-0.208176,3.80429,11.6617,0.154621,0.404992,-0.105524,0
2024-11-29 17:58:38.052,-0.287438,3.81386,11.4867,0.154621,0.404992,-0.105524,0
2024-11-29 17:58:38.054,-0.35683,3.82822,11.3216,0.146069,0.414154,-0.0988045,0
2024-11-29 17:58:38.057,-0.397508,3.84018,11.1805,0.124689,0.41782,-0.0878093,0
2024-11-29 17:58:38.058,-0.409472,3.84018,11.0489,0.124689,0.41782,-0.0878093,0
2024-11-29 17:58:38.062,-0.447757,3.84736,10.9193,0.108807,0.415987,-0.08109,0
2024-11-29 17:58:38.063,-0.474078,3.86172,10.8404,0.0929251,0.411711,-0.0755923,0
2024-11-29 17:58:38.065,-0.464507,3.8665,10.8093,0.0752106,0.400105,-0.0694839,0
2024-11-29 17:58:38.069,-0.4669,3.8689,10.783,0.0568851,0.384223,-0.0658188,0
2024-11-29 17:58:38.070,-0.471685,3.88804,10.771,0.0361163,0.362843,-0.0621537,0
2024-11-29 17:58:38.073,-0.457328,3.90957,10.7901,0.0171801,0.335355,-0.0615429,0
2024-11-29 17:58:38.075,-0.419043,3.93829,10.8165,-0.00236703,0.304202,-0.0615429,0
2024-11-29 17:58:38.077,-0.359223,3.96939,10.8643,-0.0219141,0.268773,-0.0645971,0
2024-11-29 17:58:38.081,-0.297009,3.967,10.9361,-0.0591758,0.178978,-0.0743707,0
2024-11-29 17:58:38.082,-0.239282,3.98854,11.0082,-0.0591758,0.178978,-0.0743707,0
2024-11-29 17:58:38.084,-0.179462,4.03879,11.0991,-0.0738362,0.127056,-0.0865876,0
2024-11-29 17:58:38.088,-0.112463,4.05314,11.2068,-0.0891073,0.0690257,-0.0981937,0
2024-11-29 17:58:38.089,-0.0478565,4.05075,11.3121,-0.103768,0.00855186,-0.112243,0
2024-11-29 17:58:38.091,0.0143569,4.05554,11.4485,-0.117206,-0.0537546,-0.129958,0
2024-11-29 17:58:38.095,0.0717847,4.07707,11.5971,-0.138586,-0.185087,-0.17455,0
2024-11-29 17:58:38.097,0.138784,4.08425,11.7335,-0.138586,-0.185087,-0.17455,0
2024-11-29 17:58:38.099,0.217747,4.07468,11.8675,-0.146527,-0.254723,-0.197762,0
2024-11-29 17:58:38.101,0.275175,4.06271,12.0159,-0.15569,-0.320695,-0.222807,0
2024-11-29 17:58:38.104,0.335294,4.05075,12.1669,-0.162409,-0.443475,-0.275339,0
2024-11-29 17:58:38.107,0.397508,4.01486,12.2937,-0.162409,-0.443475,-0.275339,0
2024-11-29 17:58:38.108,0.454935,3.94068,12.3966,-0.167907,-0.499673,-0.301606,0
2024-11-29 17:58:38.111,0.52672,3.87129,12.4923,-0.173404,-0.55526,-0.325429,0
2024-11-29 17:58:38.114,0.596112,3.78993,12.5833,-0.17768,-0.60596,-0.351084,0
2024-11-29 17:58:38.116,0.672682,3.68226,12.6745,-0.194173,-0.701253,-0.396287,0
2024-11-29 17:58:38.118,0.751645,3.55274,12.7582,-0.194173,-0.701253,-0.396287,0
2024-11-29 17:58:38.120,0.816252,3.41875,12.8276,-0.201503,-0.744623,-0.42011,0
2024-11-29 17:58:38.123,0.893121,3.30868,12.9377,-0.213109,-0.787382,-0.442101,0
2024-11-29 17:58:38.124,0.991227,3.21057,13.0789,-0.222272,-0.828309,-0.464091,0
2024-11-29 17:58:38.128,1.05823,3.09811,13.2203,-0.232046,-0.86496,-0.486082,0
2024-11-29 17:58:38.129,1.11326,3.00688,13.3591,-0.246706,-0.900389,-0.506851,0
2024-11-29 17:58:38.132,1.15633,2.94227,13.5075,-0.25709,-0.927266,-0.523954,0
2024-11-29 17:58:38.134,1.16351,2.87528,13.6511,-0.264421,-0.949867,-0.543501,0
2024-11-29 17:58:38.137,1.17547,2.81785,13.7925,-0.269918,-0.965139,-0.559994,0
2024-11-29 17:58:38.140,1.20658,2.76999,13.9385,-0.273583,-0.97308,-0.574655,0
2024-11-29 17:58:38.143,1.07258,2.72931,14.094,-0.283968,-0.966971,-0.597867,0
2024-11-29 17:58:38.144,1.07258,2.72931,14.094,-0.283968,-0.966971,-0.597867,0
2024-11-29 17:58:38.146,0.751645,2.84895,13.9002,-0.282135,-0.943759,-0.60031,0
2024-11-29 17:58:38.149,0.663111,2.86092,13.8523,-0.289465,-0.90833,-0.589926,0
2024-11-29 17:58:38.150,0.878764,2.74846,14.0127,-0.298628,-0.886339,-0.584428,0
2024-11-29 17:58:38.153,1.07498,2.60967,14.1299,-0.30718,-0.874122,-0.582596,0
2024-11-29 17:58:38.156,1.2329,2.4347,14.2017,-0.315121,-0.860073,-0.58565,0
2024-11-29 17:58:38.157,1.35015,2.25284,14.2304,-0.322451,-0.844191,-0.593591,0
2024-11-29 17:58:38.160,1.41984,2.08056,14.2065,-0.324284,-0.816092,-0.603975,0
2024-11-29 17:58:38.162,1.49641,1.89362,14.1921,-0.324284,-0.781274,-0.617414,0
2024-11-29 17:58:38.164,1.59691,1.71416,14.2185,-0.322451,-0.739736,-0.632685,0
2024-11-29 17:58:38.168,1.67348,1.55384,14.252,-0.318175,-0.695755,-0.651621,3
2024-11-29 17:58:38.170,1.71177,1.42463,14.2687,-0.313899,-0.651774,-0.673001,0
2024-11-29 17:58:38.171,1.70219,1.30469,14.2687,-0.306569,-0.604739,-0.690105,0
2024-11-29 17:58:38.174,1.65194,1.19222,14.2567,-0.298628,-0.558925,-0.710263,0
2024-11-29 17:58:38.176,1.57059,1.12044,14.2161,-0.291298,-0.508225,-0.727977,0
2024-11-29 17:58:38.180,1.43898,1.07258,14.1682,-0.279692,-0.455692,-0.742638,0
2024-11-29 17:58:38.181,1.27597,1.0319,14.1251,-0.269918,-0.395829,-0.753022,0
2024-11-29 17:58:38.183,1.10848,1.00798,14.0892,-0.258923,-0.330468,-0.760352,0
2024-11-29 17:58:38.188,0.833001,0.998405,14.0151,-0.22105,-0.186308,-0.762796,0
2024-11-29 17:58:38.189,0.833001,0.998405,14.0151,-0.22105,-0.186308,-0.762796,0
2024-11-29 17:58:38.190,0.684646,1.00558,13.9481,-0.196006,-0.106898,-0.756687,0
2024-11-29 17:58:38.193,0.541077,1.00558,13.8739,-0.175237,-0.0250447,-0.749968,0
2024-11-29 17:58:38.195,0.397508,0.981655,13.7973,-0.146527,0.0592522,-0.738972,0
2024-11-29 17:58:38.198,0.251246,0.967299,13.6941,-0.11293,0.146603,-0.726755,0
2024-11-29 17:58:38.201,0.081356,0.967299,13.5506,-0.0469589,0.320084,-0.698046,0
2024-11-29 17:58:38.203,-0.0789631,0.952942,13.3687,-0.00847551,0.401937,-0.680331,0
2024-11-29 17:58:38.205,-0.210568,0.919442,13.165,-0.00847551,0.401937,-0.680331,0
2024-11-29 17:58:38.208,-0.328116,0.881157,12.9521,0.0648262,0.556482,-0.642459,0
2024-11-29 17:58:38.209,-0.45015,0.857229,12.7223,0.0648262,0.556482,-0.642459,0
2024-11-29 17:58:38.213,-0.576969,0.825823,12.4636,0.133852,0.681706,-0.599699,0
2024-11-29 17:58:38.215,-0.699003,0.797109,12.198,0.166227,0.737903,-0.576487,0
2024-11-29 17:58:38.217,-0.804287,0.758824,11.9178,0.197991,0.790436,-0.552053,0
2024-11-29 17:58:38.220,-0.897907,0.718146,11.6163,0.197991,0.790436,-0.552053,0
2024-11-29 17:58:38.222,-0.979263,0.699003,11.3097,0.252967,0.877788,-0.503796,0
2024-11-29 17:58:38.224,-1.04865,0.670289,11.0034,0.252967,0.877788,-0.503796,0
2024-11-29 17:58:38.226,-1.12044,0.643968,10.7064,0.27679,0.909552,-0.479973,0
2024-11-29 17:58:38.229,-1.19701,0.622433,10.4073,0.296948,0.936429,-0.456761,0
2024-11-29 17:58:38.230,-1.25922,0.610469,10.1151,0.317106,0.954754,-0.432938,0
2024-11-29 17:58:38.234,-1.31904,0.615255,9.83988,0.34887,0.974912,-0.383459,0
2024-11-29 17:58:38.236,-1.38365,0.617647,9.5668,0.359255,0.976134,-0.360858,0
2024-11-29 17:58:38.238,-1.45095,0.627219,9.3012,0.359255,0.976134,-0.360858,0
2024-11-29 17:58:38.240,-1.50838,0.655932,9.05683,0.369028,0.968804,-0.334592,0
2024-11-29 17:58:38.242,-1.55145,0.677468,8.82473,0.376969,0.955976,-0.311379,0
2024-11-29 17:58:38.245,-1.59452,0.708575,8.60908,0.380023,0.936429,-0.29,0
2024-11-29 17:58:38.248,-1.63041,0.751645,8.39372,0.382467,0.911995,-0.26862,0
2024-11-29 17:58:38.250,-1.63998,0.766002,8.19512,0.381245,0.879009,-0.246019,0
2024-11-29 17:58:38.252,-1.62084,0.777966,8.01775,0.379413,0.838082,-0.224639,0
2024-11-29 17:58:38.255,-1.60887,0.811466,7.86461,0.370861,0.744012,-0.187988,0
2024-11-29 17:58:38.257,-1.58734,0.842872,7.70668,0.370861,0.744012,-0.187988,0
2024-11-29 17:58:38.260,-1.54427,0.871586,7.5676,0.364141,0.687814,-0.170885,0
2024-11-29 17:58:38.263,-1.44855,0.895514,7.37857,0.342762,0.565645,-0.147672,0
2024-11-29 17:58:38.264,-1.44855,0.895514,7.37857,0.342762,0.565645,-0.147672,0
2024-11-29 17:58:38.266,-1.37408,0.907478,7.2996,0.331766,0.497841,-0.137288,0
2024-11-29 17:58:38.268,-1.31186,0.933799,7.23978,0.318328,0.426982,-0.130569,0
2024-11-29 17:58:38.271,-1.24726,0.96012,7.18236,0.306722,0.353681,-0.125682,0
2024-11-29 17:58:38.273,-1.17308,0.967299,7.14407,0.293894,0.278546,-0.123238,0
2024-11-29 17:58:38.276,-1.09412,0.991227,7.12493,0.268238,0.128889,-0.122017,0
2024-11-29 17:58:38.278,-1.01755,1.01276,7.13929,0.268238,0.128889,-0.122017,0
2024-11-29 17:58:38.280,-0.940978,1.04148,7.16561,0.255411,0.0525329,-0.122017,0
2024-11-29 17:58:38.282,-0.871586,1.05823,7.19193,0.244415,-0.0207688,-0.125682,0
2024-11-29 17:58:38.286,-0.804287,1.05583,7.23739,0.234642,-0.0916271,-0.130569,0
2024-11-29 17:58:38.288,-0.720539,1.0654,7.29243,0.215705,-0.218683,-0.136066,0
2024-11-29 17:58:38.289,-0.65354,1.09412,7.3666,0.215705,-0.218683,-0.136066,0
2024-11-29 17:58:38.292,-0.598505,1.09412,7.44317,0.21204,-0.276103,-0.13912,0
2024-11-29 17:58:38.294,-0.538684,1.08215,7.51257,0.208375,-0.325582,-0.142786,0
2024-11-29 17:58:38.297,-0.493221,1.07258,7.5676,0.205321,-0.370173,-0.142175,0
2024-11-29 17:58:38.300,-0.452543,1.04148,7.60618,0.202267,-0.407435,-0.140342,0
2024-11-29 17:58:38.301,-0.387936,1.00319,7.65165,0.200434,-0.436756,-0.141564,0
2024-11-29 17:58:38.304,-0.32333,0.969691,7.69233,0.198602,-0.459357,-0.137288,0
2024-11-29 17:58:38.306,-0.256032,0.938585,7.71865,0.198602,-0.481348,-0.136677,0
2024-11-29 17:58:38.309,-0.189033,0.917049,7.74018,0.196769,-0.498451,-0.135455,0
2024-11-29 17:58:38.310,-0.129212,0.909871,7.77368,0.196769,-0.510668,-0.136677,0
2024-11-29 17:58:38.314,-0.0837488,0.902692,7.8024,0.196158,-0.524718,-0.134845,0
2024-11-29 17:58:38.316,-0.0334995,0.885943,7.82154,0.196769,-0.535102,-0.135455,0
2024-11-29 17:58:38.318,0.0215354,0.8668,7.82154,0.194326,-0.544265,-0.134234,0
2024-11-29 17:58:38.320,0.066999,0.85005,7.81436,0.192493,-0.552817,-0.13179,0
2024-11-29 17:58:38.323,0.107677,0.84018,7.8,0.191882,-0.554649,-0.128736,0
2024-11-29 17:58:38.326,0.150748,0.818644,7.78086,0.182109,-0.557093,-0.126904,0
2024-11-29 17:58:38.328,0.208176,0.80668,7.75933,0.182109,-0.557093,-0.126904,0
2024-11-29 17:58:38.329,0.248854,0.809073,7.7354,0.179055,-0.554649,-0.127514,0
2024-11-29 17:58:38.333,0.272782,0.797109,7.70429,0.174168,-0.552206,-0.12446,0
2024-11-29 17:58:38.334,0.297009,0.787538,7.67318,0.164394,-0.550373,-0.125682,0
2024-11-29 17:58:38.337,0.318545,0.780359,7.65404,0.155232,-0.545487,-0.125071,0
2024-11-29 17:58:38.339,0.342473,0.789931,7.63011,0.144847,-0.543654,-0.122628,0
2024-11-29 17:58:38.341,0.349651,0.813859,7.61815,0.133241,-0.5406,-0.12446,0
2024-11-29 17:58:38.344,0.35683,0.82343,7.61576,0.121024,-0.538767,-0.123849,0
2024-11-29 17:58:38.347,0.359223,0.842872,7.60618,0.0947577,-0.527772,-0.125071,0
2024-11-29 17:58:38.349,0.349651,0.871586,7.60858,0.0843733,-0.522885,-0.12446,0
2024-11-29 17:58:38.352,0.335294,0.885943,7.63011,0.0709346,-0.514333,-0.123849,0
2024-11-29 17:58:38.354,0.308973,0.9003,7.65643,0.0581068,-0.502727,-0.122628,0
2024-11-29 17:58:38.356,0.294616,0.921835,7.67079,0.0581068,-0.502727,-0.122628,0
2024-11-29 17:58:38.359,0.285045,0.945763,7.69711,0.0397814,-0.483791,-0.11713,0
2024-11-29 17:58:38.361,0.246461,0.979263,7.76172,0.033673,-0.46852,-0.112854,0
2024-11-29 17:58:38.363,0.165105,1.02233,7.83111,0.0300079,-0.455081,-0.106746,0
2024-11-29 17:58:38.366,0.0861416,1.07737,7.88136,0.0300079,-0.455081,-0.106746,0
2024-11-29 17:58:38.368,0.0287139,1.12762,7.92443,0.0275645,-0.441643,-0.100637,0
2024-11-29 17:58:38.370,-0.0167498,1.1659,7.97707,0.0287862,-0.423928,-0.0939178,0
2024-11-29 17:58:38.373,-0.0454636,1.18744,8.02254,0.0330621,-0.38911,-0.0755923,0
2024-11-29 17:58:38.374,-0.0598206,1.18983,8.04168,0.0330621,-0.38911,-0.0755923,0
2024-11-29 17:58:38.377,-0.0717847,1.19462,8.03929,0.0379489,-0.36773,-0.0682622,0
2024-11-29 17:58:38.379,-0.107677,1.20897,8.03689,0.0422248,-0.344518,-0.0572669,0
2024-11-29 17:58:38.382,-0.129212,1.21854,8.03689,0.0550526,-0.296872,-0.037109,0
2024-11-29 17:58:38.383,-0.143569,1.2329,8.00818,0.0550526,-0.296872,-0.037109,0
2024-11-29 17:58:38.386,-0.16989,1.23051,7.97707,0.0611611,-0.272438,-0.0261137,0
2024-11-29 17:58:38.388,-0.193819,1.22572,7.93639,0.0672696,-0.246782,-0.0145076,0
2024-11-29 17:58:38.391,-0.212961,1.2329,7.88375,0.0721563,-0.221127,-0.00229068,0
2024-11-29 17:58:38.394,-0.229711,1.24487,7.81915,0.0843733,-0.171037,0.0245866,0
2024-11-29 17:58:38.396,-0.256032,1.27837,7.74497,0.0843733,-0.171037,0.0245866,0
2024-11-29 17:58:38.399,-0.275175,1.31665,7.68036,0.0892601,-0.146603,0.0392469,0
2024-11-29 17:58:38.403,-0.275175,1.37886,7.54607,0.0965902,-0.10079,0.0679568,0
2024-11-29 17:58:38.403,-0.275175,1.37886,7.54607,0.0965902,-0.10079,0.0679568,0
2024-11-29 17:58:38.405,-0.265603,1.40788,7.4671,0.0990336,-0.0787993,0.0850605,0
2024-11-29 17:58:38.407,-0.244068,1.4342,7.39532,0.101477,-0.0580305,0.0984991,0
2024-11-29 17:58:38.410,-0.215354,1.45095,7.32593,0.105753,-0.0403159,0.112549,0
2024-11-29 17:58:38.412,-0.174676,1.47248,7.26611,0.10331,-0.0232122,0.125376,0
2024-11-29 17:58:38.414,-0.12682,1.49402,7.21586,0.104531,-0.0116061,0.134539,0
2024-11-29 17:58:38.417,-0.0741775,1.51795,7.16082,0.101477,-0.000610847,0.144924,0
2024-11-29 17:58:38.419,-0.0191426,1.54427,7.101,0.0996445,0.00244339,0.151643,0
2024-11-29 17:58:38.422,0.026321,1.56341,7.04597,0.0941468,0.00427593,0.160806,0
2024-11-29 17:58:38.425,0.0789631,1.58255,6.99542,0.0898709,-0.00183254,0.162027,0
2024-11-29 17:58:38.426,0.133998,1.5993,6.95474,0.0898709,-0.00183254,0.162027,0
2024-11-29 17:58:38.428,0.179462,1.62323,6.92602,0.085595,-0.00977356,0.162027,0
2024-11-29 17:58:38.431,0.222533,1.65434,6.90449,0.0800973,-0.020158,0.160195,0
2024-11-29 17:58:38.434,0.256032,1.70459,6.88535,0.0745997,-0.0335966,0.160195,0
2024-11-29 17:58:38.435,0.272782,1.74766,6.87817,0.0678804,-0.0470352,0.15653,0
2024-11-29 17:58:38.439,0.285045,1.78116,6.89253,0.065437,-0.0629173,0.152865,0
2024-11-29 17:58:38.441,0.297009,1.82662,6.91406,0.0599394,-0.0745234,0.147367,0
2024-11-29 17:58:38.443,0.316152,1.86969,6.94277,0.0593285,-0.0885729,0.14248,0
2024-11-29 17:58:38.446,0.335294,1.90558,6.98345,0.0562743,-0.10079,0.136983,0
2024-11-29 17:58:38.447,0.328116,1.95344,7.01486,0.0556635,-0.110563,0.130263,0
2024-11-29 17:58:38.449,0.325723,1.98006,7.05554,0.0550526,-0.121559,0.124766,0
2024-11-29 17:58:38.452,0.328116,2.01117,7.101,0.0593285,-0.1295,0.118046,0
2024-11-29 17:58:38.455,0.335294,2.04467,7.12971,0.0636045,-0.135608,0.112549,0
2024-11-29 17:58:38.457,0.344866,2.05902,7.15125,0.0672696,-0.14416,0.104608,0
2024-11-29 17:58:38.459,0.337687,2.06142,7.17996,0.0721563,-0.150879,0.0978883,0
2024-11-29 17:58:38.462,0.318545,2.07099,7.20628,0.077654,-0.155155,0.0899473,0
2024-11-29 17:58:38.464,0.297009,2.09731,7.21586,0.0837624,-0.160042,0.0832279,0
2024-11-29 17:58:38.467,0.267996,2.10449,7.21346,0.0892601,-0.164318,0.0777303,0
2024-11-29 17:58:38.468,0.227318,2.11645,7.20868,0.0929251,-0.169205,0.071011,0
2024-11-29 17:58:38.471,0.189033,2.1332,7.19432,0.0990336,-0.17287,0.0655134,0
2024-11-29 17:58:38.474,0.155533,2.13559,7.17757,0.104531,-0.184476,0.0545181,0
2024-11-29 17:58:38.478,0.0622134,2.15952,7.12014,0.105753,-0.188752,0.050853,0
2024-11-29 17:58:38.479,0.0622134,2.15952,7.12014,0.105753,-0.188752,0.050853,0
2024-11-29 17:58:38.481,0.00239282,2.19063,7.08904,0.107585,-0.190584,0.0459663,0
2024-11-29 17:58:38.483,-0.0454636,2.21934,7.04836,0.107585,-0.190584,0.0459663,0
2024-11-29 17:58:38.486,-0.0765703,2.23849,7.01964,0.102088,-0.192417,0.0435229,0
2024-11-29 17:58:38.488,-0.107677,2.26241,7.00977,0.0965902,-0.191806,0.0435229,0
2024-11-29 17:58:38.491,-0.148355,2.28156,6.98824,0.0965902,-0.191806,0.0435229,0
2024-11-29 17:58:38.492,-0.189033,2.30548,6.97149,0.0923143,-0.192417,0.0416903,0
2024-11-29 17:58:38.495,-0.227318,2.32223,6.94517,0.0764323,-0.190584,0.0435229,0
2024-11-29 17:58:38.498,-0.246461,2.32702,6.94277,0.0764323,-0.190584,0.0435229,0
2024-11-29 17:58:38.499,-0.260818,2.34616,6.95713,0.0697129,-0.188141,0.042912,0
2024-11-29 17:58:38.502,-0.275175,2.37488,6.9667,0.0617719,-0.188141,0.0435229,0
2024-11-29 17:58:38.505,-0.289831,2.39641,6.97867,0.0513875,-0.188141,0.0441337,0
2024-11-29 17:58:38.507,-0.311366,2.42034,6.98824,0.0348946,-0.18753,0.0447446,0
2024-11-29 17:58:38.508,-0.320937,2.44666,6.99063,0.0348946,-0.18753,0.0447446,0
2024-11-29 17:58:38.512,-0.330509,2.46341,7.00977,0.0129041,-0.194249,0.042912,0
2024-11-29 17:58:38.513,-0.337687,2.47298,7.03639,0.0129041,-0.194249,0.042912,0
2024-11-29 17:58:38.515,-0.32333,2.47537,7.04118,0.00313059,-0.199747,0.042912,0
2024-11-29 17:58:38.519,-0.297009,2.49212,7.04357,-0.0243575,-0.214407,0.0398578,0
2024-11-29 17:58:38.521,-0.277567,2.49691,7.06511,-0.0243575,-0.214407,0.0398578,0
2024-11-29 17:58:38.522,-0.246461,2.49212,7.09382,-0.0396287,-0.222348,0.0368035,0
2024-11-29 17:58:38.525,-0.224925,2.49452,7.12493,-0.0567324,-0.232122,0.0331385,0
2024-11-29 17:58:38.528,-0.210568,2.49691,7.168,-0.0726145,-0.241896,0.0294734,0
2024-11-29 17:58:38.530,-0.179462,2.51605,7.22064,-0.0897182,-0.255945,0.0258083,0
2024-11-29 17:58:38.533,-0.153141,2.53549,7.28046,-0.107433,-0.266329,0.0209215,0
2024-11-29 17:58:38.535,-0.122034,2.55224,7.34985,-0.125758,-0.280379,0.0160347,0
2024-11-29 17:58:38.538,-0.0861416,2.55942,7.42164,-0.146527,-0.293818,0.0117588,0
2024-11-29 17:58:38.539,-0.0502493,2.5666,7.51017,-0.163631,-0.309089,0.00931542,0
2024-11-29 17:58:38.541,-0.0167498,2.57378,7.62054,-0.181345,-0.323749,0.00320695,0
2024-11-29 17:58:38.545,0.040678,2.58335,7.7354,-0.198449,-0.341464,-0.00229068,0
2024-11-29 17:58:38.546,0.102891,2.58814,7.84786,-0.216774,-0.359789,-0.0077883,0
2024-11-29 17:58:38.549,0.153141,2.58335,7.97229,-0.236932,-0.376282,-0.0120642,0
2024-11-29 17:58:38.552,0.20339,2.58096,8.09671,-0.265642,-0.4111,-0.024892,0
2024-11-29 17:58:38.553,0.260818,2.5666,8.22862,-0.265642,-0.4111,-0.024892,0
2024-11-29 17:58:38.556,0.30658,2.56899,8.3674,-0.281524,-0.426371,-0.0316113,0
2024-11-29 17:58:38.559,0.359223,2.57139,8.51097,-0.295574,-0.438588,-0.037109,0
2024-11-29 17:58:38.560,0.41665,2.56182,8.66411,-0.30718,-0.451416,-0.0432174,0
2024-11-29 17:58:38.563,0.452543,2.57378,8.8343,-0.318786,-0.466076,-0.0505476,0
2024-11-29 17:58:38.565,0.505185,2.58814,9.01855,-0.32917,-0.478904,-0.0578778,0
2024-11-29 17:58:38.568,0.555434,2.6001,9.19562,-0.343831,-0.497841,-0.0749815,0
2024-11-29 17:58:38.571,0.572184,2.61924,9.36581,-0.35055,-0.500895,-0.0847551,0
2024-11-29 17:58:38.572,0.584148,2.63839,9.54527,-0.35055,-0.500895,-0.0847551,0
2024-11-29 17:58:38.574,0.608076,2.65035,9.71755,-0.354215,-0.500284,-0.0902527,0
2024-11-29 17:58:38.578,0.632004,2.65992,9.87099,-0.353604,-0.49723,-0.0988045,0
2024-11-29 17:58:38.580,0.65354,2.66949,10.0289,-0.354215,-0.476461,-0.112243,0
2024-11-29 17:58:38.582,0.679861,2.67667,10.1845,-0.354215,-0.476461,-0.112243,0
2024-11-29 17:58:38.585,0.710967,2.65992,10.3232,-0.351161,-0.463633,-0.120795,0
2024-11-29 17:58:38.587,0.708575,2.65992,10.4647,-0.348107,-0.447751,-0.128736,0
2024-11-29 17:58:38.588,0.687039,2.68624,10.5939,-0.346274,-0.428815,-0.136066,0
2024-11-29 17:58:38.591,0.672682,2.71256,10.7231,-0.338333,-0.406824,-0.139731,0
2024-11-29 17:58:38.593,0.651147,2.72453,10.8523,-0.333446,-0.387277,-0.146451,0
2024-11-29 17:58:38.598,0.63679,2.71735,11.0536,-0.315732,-0.337188,-0.153781,0
2024-11-29 17:58:38.599,0.63679,2.71735,11.0536,-0.306569,-0.312143,-0.156835,0
2024-11-29 17:58:38.601,0.627219,2.71735,11.1254,-0.296795,-0.284655,-0.156224,0
2024-11-29 17:58:38.603,0.629611,2.71735,11.1876,-0.296795,-0.284655,-0.156224,0
2024-11-29 17:58:38.605,0.612862,2.71256,11.2331,-0.288244,-0.254112,-0.159889,0
2024-11-29 17:58:38.607,0.596112,2.69103,11.2618,-0.281524,-0.222959,-0.161111,0
2024-11-29 17:58:38.610,0.581755,2.65992,11.2857,-0.272972,-0.191195,-0.161722,0
2024-11-29 17:58:38.612,0.565005,2.63839,11.2929,-0.261366,-0.157599,-0.162333,0
2024-11-29 17:58:38.615,0.54347,2.62642,11.2857,-0.255869,-0.12278,-0.1605,0
2024-11-29 17:58:38.618,0.512363,2.60249,11.2666,-0.245484,-0.0561979,-0.154392,0
2024-11-29 17:58:38.620,0.483649,2.57617,11.2475,-0.245484,-0.0561979,-0.154392,0
2024-11-29 17:58:38.622,0.454935,2.54507,11.2427,-0.238765,-0.0219905,-0.148894,0
2024-11-29 17:58:38.625,0.41665,2.52323,11.2211,-0.234489,0.0384834,-0.136677,0
2024-11-29 17:58:38.626,0.385544,2.51366,11.19,-0.234489,0.0384834,-0.136677,0
2024-11-29 17:58:38.629,0.354437,2.51127,11.1541,-0.236932,0.0696366,-0.129347,0
2024-11-29 17:58:38.632,0.311366,2.51605,11.1135,-0.236322,0.124613,-0.111632,0
2024-11-29 17:58:38.634,0.270389,2.51366,11.0824,-0.236322,0.124613,-0.111632,0
2024-11-29 17:58:38.639,0.18664,2.53071,11.0752,-0.245484,0.191195,-0.0823117,0
2024-11-29 17:58:38.639,0.18664,2.53071,11.0752,-0.245484,0.191195,-0.0823117,0
2024-11-29 17:58:38.641,0.148355,2.55464,11.08,-0.245484,0.191195,-0.0823117,0
2024-11-29 17:58:38.644,0.119641,2.57139,11.0967,-0.24976,0.221127,-0.0584886,0
2024-11-29 17:58:38.646,0.107677,2.58814,11.1206,-0.24976,0.221127,-0.0584886,0
2024-11-29 17:58:38.647,0.0981057,2.60489,11.1637,-0.250371,0.233344,-0.0481042,0
2024-11-29 17:58:38.651,0.0861416,2.64078,11.2092,-0.251593,0.239452,-0.0389415,0
2024-11-29 17:58:38.652,0.0837488,2.6671,11.2546,-0.247928,0.251669,-0.0267246,0
2024-11-29 17:58:38.655,0.0837488,2.68385,11.3049,-0.246706,0.258999,-0.0181727,0
2024-11-29 17:58:38.658,0.0765703,2.71735,11.3647,-0.236932,0.272438,-0.000458135,0
2024-11-29 17:58:38.659,0.0598206,2.75563,11.4269,-0.236932,0.272438,-0.000458135,0
2024-11-29 17:58:38.665,0.0311067,2.82263,11.5277,-0.219218,0.288931,0.0184781,0
2024-11-29 17:58:38.665,0.0311067,2.82263,11.5277,-0.219218,0.288931,0.0184781,0
2024-11-29 17:58:38.666,0.0167498,2.85374,11.5732,-0.207612,0.29565,0.0276408,0
2024-11-29 17:58:38.669,0.00239282,2.88245,11.6258,-0.195395,0.299926,0.0374144,0
2024-11-29 17:58:38.671,-0.0215354,2.91356,11.6737,-0.182567,0.305424,0.0496313,0
2024-11-29 17:58:38.674,-0.0334995,2.94945,11.7,-0.14836,0.323138,0.0697893,0
2024-11-29 17:58:38.677,-0.040678,2.97099,11.7048,-0.14836,0.323138,0.0697893,0
2024-11-29 17:58:38.678,-0.0382852,2.98295,11.7048,-0.133699,0.326803,0.0795629,0
2024-11-29 17:58:38.681,-0.00478565,2.98774,11.6928,-0.115985,0.334133,0.0881147,0
2024-11-29 17:58:38.684,0.0143569,2.99013,11.6737,-0.102546,0.33169,0.0966666,0
2024-11-29 17:58:38.685,0.0287139,3.0021,11.6713,-0.090329,0.327414,0.107051,0
2024-11-29 17:58:38.687,0.0382852,3.0332,11.6569,-0.0756687,0.323138,0.11377,0
2024-11-29 17:58:38.690,0.0,3.08106,11.6569,-0.0622301,0.315197,0.122322,0
2024-11-29 17:58:38.692,-0.0358923,3.12443,11.6761,-0.0500131,0.310921,0.133317,0
2024-11-29 17:58:38.695,-0.0478565,3.14836,11.6809,-0.0365745,0.304202,0.143702,0
2024-11-29 17:58:38.698,-0.0478565,3.18425,11.688,-0.0249684,0.291374,0.154697,0
2024-11-29 17:58:38.700,-0.0622134,3.24646,11.712,-0.0139731,0.282211,0.166303,0
2024-11-29 17:58:38.703,-0.0885344,3.2991,11.7335,0.00801737,0.268162,0.190737,0
2024-11-29 17:58:38.705,-0.107677,3.335,11.7383,0.00801737,0.268162,0.190737,0
2024-11-29 17:58:38.706,-0.102891,3.35414,11.7479,0.0171801,0.263275,0.202343,0
2024-11-29 17:58:38.710,-0.0717847,3.36371,11.767,0.0342838,0.247393,0.225555,0
2024-11-29 17:58:38.711,-0.0430708,3.39003,11.7981,0.0342838,0.247393,0.225555,0
2024-11-29 17:58:38.714,-0.0334995,3.40678,11.8268,0.0391706,0.239452,0.233496,0
2024-11-29 17:58:38.716,-0.0334995,3.42353,11.8508,0.0477224,0.227846,0.240827,0
2024-11-29 17:58:38.718,-0.0334995,3.45942,11.8819,0.0532201,0.216851,0.249378,0
2024-11-29 17:58:38.721,-0.0598206,3.52164,11.9273,0.0636045,0.203412,0.25793,0
2024-11-29 17:58:38.724,-0.0789631,3.56949,11.9919,0.0672696,0.189363,0.268926,0
2024-11-29 17:58:38.725,-0.0717847,3.60539,12.0565,0.0727672,0.172259,0.276867,0
2024-11-29 17:58:38.728,-0.0478565,3.64367,12.1262,0.0800973,0.155155,0.283586,0
2024-11-29 17:58:38.731,-0.00239282,3.66072,12.186,0.0910926,0.119726,0.297024,0
2024-11-29 17:58:38.732,0.0358923,3.7014,12.2291,0.0910926,0.119726,0.297024,0
2024-11-29 17:58:38.735,0.0837488,3.74925,12.277,0.0965902,0.10079,0.302522,0
2024-11-29 17:58:38.738,0.129212,3.78036,12.3392,0.101477,0.087962,0.306798,0
2024-11-29 17:58:38.740,0.184247,3.83779,12.3894,0.101477,0.087962,0.306798,0
2024-11-29 17:58:38.742,0.253639,3.87847,12.4205,0.112472,0.0623064,0.309241,0
2024-11-29 17:58:38.744,0.349651,3.89282,12.4588,0.114916,0.0531437,0.307409,0
2024-11-29 17:58:38.747,0.457328,3.90239,12.4947,0.116748,0.0268773,0.298246,0
2024-11-29 17:58:38.749,0.536291,3.91436,12.5354,0.116748,0.0268773,0.298246,0
2024-11-29 17:58:38.752,0.591326,3.9335,12.5856,0.116137,0.0171037,0.292749,0
2024-11-29 17:58:38.753,0.63679,3.93829,12.6362,0.114305,0.00671932,0.286029,0
2024-11-29 17:58:38.757,0.679861,3.97179,12.6984,0.109418,-0.00122169,0.277477,0
2024-11-29 17:58:38.761,0.775574,4.05075,12.8037,0.102699,-0.0128278,0.257319,0
2024-11-29 17:58:38.761,0.775574,4.05075,12.8037,0.102699,-0.0128278,0.257319,0
2024-11-29 17:58:38.763,0.797109,4.09861,12.8779,0.100255,-0.0128278,0.247546,0
2024-11-29 17:58:38.765,0.854836,4.12253,12.964,0.0978119,-0.00855186,0.237161,0
2024-11-29 17:58:38.768,0.912264,4.12493,13.0334,0.0917034,-0.00427593,0.224945,0
2024-11-29 17:58:38.770,0.967299,4.12493,13.0884,0.0874275,0.00610847,0.212728,0
2024-11-29 17:58:38.773,1.02712,4.11296,13.1507,0.0764323,0.0250447,0.182796,0
2024-11-29 17:58:38.776,1.07737,4.09382,13.218,0.0709346,0.0372617,0.165692,0
2024-11-29 17:58:38.778,1.07498,4.07707,13.2634,0.065437,0.0470352,0.150421,0
2024-11-29 17:58:38.780,1.06301,4.05554,13.2993,0.0581068,0.0574196,0.133317,0
2024-11-29 17:58:38.782,1.05344,4.05554,13.3735,0.0581068,0.0574196,0.133317,0
2024-11-29 17:58:38.784,1.0343,4.03879,13.4381,0.0532201,0.0690257,0.116825,0
2024-11-29 17:58:38.786,1.02951,4.02443,13.4955,0.0477224,0.0781884,0.102164,0
2024-11-29 17:58:38.790,0.996012,4.02204,13.5506,0.0348946,0.0995681,0.0697893,0
2024-11-29 17:58:38.791,0.940978,3.99332,13.5817,0.0348946,0.0995681,0.0697893,0
2024-11-29 17:58:38.794,0.888335,3.96461,13.6104,0.0287862,0.111174,0.0563507,0
2024-11-29 17:58:38.796,0.847657,3.94068,13.6295,0.0238994,0.122169,0.0398578,0
2024-11-29 17:58:38.798,0.775574,3.90957,13.6415,0.0153475,0.13011,0.0288625,0
2024-11-29 17:58:38.800,0.708575,3.84497,13.6487,0.00740652,0.133165,0.0166456,0
2024-11-29 17:58:38.804,0.651147,3.76361,13.6654,-0.014584,0.125224,-0.00839915,0
2024-11-29 17:58:38.806,0.579362,3.699,13.6678,-0.014584,0.125224,-0.00839915,0
2024-11-29 17:58:38.809,0.538684,3.60539,13.663,-0.0280226,0.111785,-0.0187836,0
2024-11-29 17:58:38.810,0.524327,3.50249,13.6869,-0.0402396,0.0916271,-0.0303897,0
2024-11-29 17:58:38.812,0.519542,3.39242,13.73,-0.0573433,0.0659715,-0.0389415,0
2024-11-29 17:58:38.816,0.517149,3.28714,13.7901,-0.0872748,0.0,-0.0584886,0
2024-11-29 17:58:38.818,0.519542,3.19382,13.8595,-0.0872748,0.0,-0.0584886,0
2024-11-29 17:58:38.819,0.548256,3.07388,13.9481,-0.102546,-0.0348183,-0.0682622,0
2024-11-29 17:58:38.823,0.581755,2.95663,14.0701,-0.130645,-0.103233,-0.0823117,0
2024-11-29 17:58:38.824,0.615255,2.84895,14.2137,-0.130645,-0.103233,-0.0823117,0
2024-11-29 17:58:38.827,0.667897,2.75324,14.3767,-0.139808,-0.132554,-0.0878093,0
2024-11-29 17:58:38.830,0.718146,2.67428,14.5346,-0.145916,-0.160653,-0.0939178,0
2024-11-29 17:58:38.832,0.758824,2.60728,14.6901,-0.149581,-0.199136,-0.100637,0
2024-11-29 17:58:38.834,0.797109,2.53789,14.8795,-0.149581,-0.199136,-0.100637,0
2024-11-29 17:58:38.836,0.833001,2.47059,15.0781,-0.142862,-0.212575,-0.104913,0
2024-11-29 17:58:38.839,0.88355,2.39641,15.2647,-0.132477,-0.221738,-0.107967,0
2024-11-29 17:58:38.843,0.967299,2.24806,15.6311,-0.0939941,-0.235176,-0.112243,0
2024-11-29 17:58:38.844,0.967299,2.24806,15.6311,-0.0939941,-0.235176,-0.112243,0
2024-11-29 17:58:38.846,0.998405,2.18106,15.7651,-0.030466,-0.229679,-0.118352,0
2024-11-29 17:58:38.848,0.981655,2.12363,15.8608,-0.030466,-0.229679,-0.118352,3
2024-11-29 17:58:38.855,0.986441,1.89123,15.9326,0.0874275,-0.176535,-0.111021,0
2024-11-29 17:58:38.856,0.986441,1.89123,15.9326,0.132019,-0.147214,-0.107356,0
2024-11-29 17:58:38.856,0.986441,1.89123,15.9326,0.132019,-0.147214,-0.107356,0
2024-11-29 17:58:38.857,0.99362,1.79312,15.8991,0.132019,-0.147214,-0.107356,0
2024-11-29 17:58:38.860,0.859622,1.78355,15.6957,0.179055,-0.108731,-0.10308,0
2024-11-29 17:58:38.862,0.533899,1.86491,15.224,0.221814,-0.0452027,-0.089031,0
2024-11-29 17:58:38.864,0.486042,1.84098,14.9632,0.260297,0.0305424,-0.0670405,0
2024-11-29 17:58:38.866,0.722932,1.70698,14.9728,0.301224,0.0812427,-0.0493259,0
2024-11-29 17:58:38.870,0.857229,1.56102,14.8819,0.340929,0.12278,-0.0352764,0
2024-11-29 17:58:38.871,0.926621,1.4004,14.7284,0.378802,0.163707,-0.0255029,0
2024-11-29 17:58:38.874,0.936192,1.27597,14.525,0.422172,0.213797,-0.0157293,0
2024-11-29 17:58:38.876,0.924228,1.1683,14.3216,0.467985,0.275492,-0.0126751,0
2024-11-29 17:58:38.879,0.948156,1.08455,14.1467,0.576105,0.435534,-0.00656661,0
2024-11-29 17:58:38.882,0.962513,1.03669,13.9552,0.635357,0.52655,-0.00351237,0
2024-11-29 17:58:38.883,0.881157,1.04865,13.6869,0.635357,0.52655,-0.00351237,0
2024-11-29 17:58:38.886,0.742074,1.11565,13.3615,0.695831,0.623064,0.00198525,0
2024-11-29 17:58:38.888,0.579362,1.17308,13.0071,0.761192,0.718356,0.00931542,0
2024-11-29 17:58:38.890,0.414257,1.23529,12.612,0.819223,0.809373,0.0196998,0
2024-11-29 17:58:38.893,0.260818,1.28554,12.1837,0.877253,0.889394,0.0331385,0
2024-11-29 17:58:38.895,0.11007,1.30708,11.7215,0.927953,0.957808,0.0465771,0
2024-11-29 17:58:38.898,-0.00957129,1.32144,11.2092,0.972545,1.01462,0.06307,0
2024-11-29 17:58:38.900,-0.11007,1.31186,10.6753,1.00797,1.06104,0.0795629,0
2024-11-29 17:58:38.903,-0.200997,1.29751,10.1486,1.05501,1.12029,0.110105,0
2024-11-29 17:58:38.905,-0.282652,1.29033,9.65534,1.06662,1.1319,0.121711,0
2024-11-29 17:58:38.907,-0.311366,1.27119,9.19083,1.06662,1.1319,0.121711,0
2024-11-29 17:58:38.910,-0.328116,1.24965,8.74577,1.07028,1.13312,0.133317,0
2024-11-29 17:58:38.911,-0.359223,1.24487,8.31954,1.0715,1.1264,0.138815,0
2024-11-29 17:58:38.915,-0.378365,1.24008,7.94357,1.05806,1.0641,0.140648,0
2024-11-29 17:58:38.917,0.153141,0.950549,8.22144,1.05806,1.0641,0.140648,0
2024-11-29 17:58:38.918,0.500399,0.73011,8.38415,1.06662,0.972469,0.112549,0
2024-11-29 17:58:38.921,-0.0526421,0.893121,7.6995,1.06967,0.915049,0.0899473,0
2024-11-29 17:58:38.924,-0.45015,1.05823,7.2015,1.06784,0.89367,0.0746761,0
2024-11-29 17:58:38.925,-0.519542,1.18744,7.05793,1.06723,0.871679,0.0649025,0
2024-11-29 17:58:38.929,-0.610469,1.30469,6.90928,1.0544,0.781274,0.0490205,0
2024-11-29 17:58:38.931,-0.758824,1.44377,6.67717,1.0544,0.781274,0.0490205,0
2024-11-29 17:58:38.933,-0.938585,1.61605,6.41127,1.04157,0.7208,0.0447446,0
2024-11-29 17:58:38.936,-1.10608,1.77876,6.15284,1.01653,0.642,0.0465771,0
2024-11-29 17:58:38.938,-1.24726,1.91516,5.89921,0.984762,0.556482,0.0496313,0
2024-11-29 17:58:38.939,-1.39561,2.03031,5.65245,0.94689,0.461801,0.0532964,0
2024-11-29 17:58:38.942,-1.52273,2.12842,5.40359,0.903519,0.367119,0.0594049,0
2024-11-29 17:58:38.944,-1.5323,2.19063,5.24297,0.852208,0.268773,0.0661242,0
2024-11-29 17:58:38.947,-1.47248,2.22174,5.1664,0.796621,0.163096,0.0691785,0
2024-11-29 17:58:38.949,-1.40548,2.25045,5.11376,0.738591,0.0592522,0.0679568,0
2024-11-29 17:58:38.952,-1.29751,2.28156,5.11376,0.621919,-0.14416,0.058794,0
2024-11-29 17:58:38.955,-1.15394,2.28873,5.15922,0.621919,-0.14416,0.058794,0
2024-11-29 17:58:38.956,-0.964906,2.27199,5.29322,0.563888,-0.240674,0.0477988,0
2024-11-29 17:58:38.959,-0.742074,2.22652,5.5017,0.512577,-0.333523,0.0319168,0
2024-11-29 17:58:38.961,-0.52672,2.15474,5.74337,0.459433,-0.426371,0.00870457,0
2024-11-29 17:58:38.963,-0.316152,2.08295,5.99492,0.417285,-0.509447,-0.0163402,0
2024-11-29 17:58:38.966,-0.100499,2.01356,6.24138,0.381245,-0.585192,-0.0481042,0
2024-11-29 17:58:38.969,0.124427,1.94626,6.49292,0.350092,-0.652996,-0.0847551,0
2024-11-29 17:58:38.971,0.330509,1.89123,6.73221,0.323825,-0.710415,-0.125071,0
2024-11-29 17:58:38.973,0.481256,1.85055,6.95474,0.307943,-0.758672,-0.167219,0
2024-11-29 17:58:38.975,0.584148,1.82423,7.16561,0.293283,-0.794101,-0.212422,0
2024-11-29 17:58:38.977,0.665504,1.78834,7.36182,0.282899,-0.824644,-0.253349,0
2024-11-29 17:58:38.980,0.708575,1.75962,7.50299,0.278623,-0.848467,-0.300384,0
2024-11-29 17:58:38.982,0.715753,1.74766,7.61576,0.274958,-0.866792,-0.3407,0
2024-11-29 17:58:38.985,0.701396,1.74287,7.69711,0.270071,-0.87962,-0.379183,0
2024-11-29 17:58:38.987,0.663111,1.73569,7.70908,0.266406,-0.883896,-0.414002,0
2024-11-29 17:58:38.989,0.612862,1.74527,7.68036,0.262741,-0.884507,-0.445155,0
2024-11-29 17:58:38.991,0.464507,1.78594,7.56042,0.258465,-0.874733,-0.472643,0
2024-11-29 17:58:38.994,0.332901,1.79312,7.48864,0.247469,-0.860073,-0.490358,0
2024-11-29 17:58:38.996,0.32333,1.7668,7.52214,0.234642,-0.85091,-0.505018,0
2024-11-29 17:58:38.998,0.299402,1.70698,7.53649,0.220592,-0.844802,-0.518457,0
2024-11-29 17:58:39.002,0.251246,1.62323,7.49103,0.18272,-0.835028,-0.541669,0
2024-11-29 17:58:39.004,0.236889,1.5347,7.42882,0.18272,-0.835028,-0.541669,0
2024-11-29 17:58:39.006,0.234497,1.43181,7.38096,0.163173,-0.829531,-0.551442,0
2024-11-29 17:58:39.009,0.229711,1.33579,7.3331,0.141182,-0.823422,-0.561216,0
2024-11-29 17:58:39.010,0.229711,1.24487,7.2685,0.118581,-0.812427,-0.572211,0
2024-11-29 17:58:39.013,0.232104,1.13958,7.2015,0.093536,-0.800821,-0.581374,0
2024-11-29 17:58:39.016,0.227318,1.04626,7.18475,0.0452791,-0.776998,-0.599699,0
2024-11-29 17:58:39.017,0.198604,0.991227,7.2015,0.0452791,-0.776998,-0.599699,0
2024-11-29 17:58:39.021,0.138784,0.972084,7.19432,0.0196235,-0.761727,-0.605808,0
2024-11-29 17:58:39.022,0.0765703,0.969691,7.17039,-0.00175619,-0.740958,-0.610695,0
2024-11-29 17:58:39.025,0.0526421,0.950549,7.168,-0.0445155,-0.701253,-0.618025,0
2024-11-29 17:58:39.028,0.0454636,0.936192,7.16321,-0.0652843,-0.680484,-0.621079,0
2024-11-29 17:58:39.030,0.0526421,0.912264,7.17757,-0.0860531,-0.660937,-0.625966,0
2024-11-29 17:58:39.034,0.026321,0.893121,7.26371,-0.101935,-0.64139,-0.62902,0
2024-11-29 17:58:39.035,0.026321,0.893121,7.26371,-0.101935,-0.64139,-0.62902,0
2024-11-29 17:58:39.036,-0.0430708,0.905085,7.2685,-0.123315,-0.621843,-0.633296,0
2024-11-29 17:58:39.039,-0.131605,0.938585,7.17996,-0.136143,-0.596187,-0.633907,0
2024-11-29 17:58:39.042,-0.148355,0.952942,7.06511,-0.153857,-0.561369,-0.635739,0
2024-11-29 17:58:39.046,-0.179462,0.919442,7.10579,-0.189897,-0.493565,-0.636961,0
2024-11-29 17:58:39.046,-0.179462,0.919442,7.10579,-0.189897,-0.493565,-0.636961,0
2024-11-29 17:58:39.048,-0.265603,0.948156,7.07229,-0.210055,-0.467298,-0.638183,0
2024-11-29 17:58:39.051,-0.320937,0.996012,7.03639,-0.247317,-0.41782,-0.636961,0
2024-11-29 17:58:39.053,-0.328116,1.02712,7.04118,-0.247317,-0.41782,-0.636961,0
2024-11-29 17:58:39.056,-0.342473,1.05105,7.09143,-0.265642,-0.395829,-0.633907,0
2024-11-29 17:58:39.057,-0.368794,1.07019,7.16561,-0.282135,-0.374449,-0.630853,0
2024-11-29 17:58:39.061,-0.378365,1.0654,7.23739,-0.298017,-0.361011,-0.627187,0
2024-11-29 17:58:39.062,-0.411865,1.06301,7.2685,-0.310234,-0.342074,-0.625966,0
2024-11-29 17:58:39.065,-0.440578,1.06062,7.31875,-0.32184,-0.323138,-0.619857,0
2024-11-29 17:58:39.067,-0.464507,1.05344,7.37617,-0.331003,-0.296261,-0.616803,0
2024-11-29 17:58:39.070,-0.481256,1.04626,7.42164,-0.340776,-0.218683,-0.606419,0
2024-11-29 17:58:39.072,-0.435793,1.02951,7.49342,-0.340776,-0.218683,-0.606419,0
2024-11-29 17:58:39.074,-0.34008,0.998405,7.55564,-0.338944,-0.16554,-0.601532,0
2024-11-29 17:58:39.076,-0.239282,0.964906,7.62054,-0.340776,-0.11545,-0.596645,0
2024-11-29 17:58:39.078,-0.177069,0.94337,7.67079,-0.340166,-0.0623064,-0.59298,0
2024-11-29 17:58:39.081,-0.193819,0.926621,7.68754,-0.338333,-0.00610847,-0.588093,0
2024-11-29 17:58:39.084,-0.251246,0.905085,7.68993,-0.33589,0.0500895,-0.582596,0
2024-11-29 17:58:39.085,-0.304188,0.895514,7.68754,-0.335279,0.108731,-0.575876,0
2024-11-29 17:58:39.089,-0.349651,0.893121,7.69472,-0.332835,0.160653,-0.566714,0
2024-11-29 17:58:39.090,-0.404686,0.885943,7.72822,-0.331614,0.210131,-0.557551,0
2024-11-29 17:58:39.094,-0.454935,0.9003,7.77129,-0.330392,0.255334,-0.54289,0
2024-11-29 17:58:39.096,-0.483649,0.926621,7.80479,-0.327949,0.295039,-0.52823,0
2024-11-29 17:58:39.097,-0.507577,0.94337,7.83111,-0.322451,0.330468,-0.514792,0
2024-11-29 17:58:39.101,-0.512363,0.945763,7.86222,-0.309012,0.386666,-0.480584,0
2024-11-29 17:58:39.103,-0.531506,0.938585,7.88375,-0.309012,0.386666,-0.480584,0
2024-11-29 17:58:39.104,-0.572184,0.945763,7.89093,-0.303515,0.410489,-0.461648,0
2024-11-29 17:58:39.108,-0.617647,0.955334,7.88136,-0.286411,0.45447,-0.421943,0
2024-11-29 17:58:39.110,-0.677468,0.957727,7.85743,-0.286411,0.45447,-0.421943,0
2024-11-29 17:58:39.112,-0.737288,0.967299,7.84307,-0.274805,0.474628,-0.400563,0
2024-11-29 17:58:39.115,-0.801895,0.986441,7.81675,-0.266253,0.493565,-0.376129,0
2024-11-29 17:58:39.116,-0.876371,1.00319,7.78325,-0.255869,0.514944,-0.353528,0
2024-11-29 17:58:39.118,-0.940978,1.01994,7.75693,-0.244873,0.534491,-0.329094,0
2024-11-29 17:58:39.122,-1.01276,1.05823,7.74258,-0.22105,0.568088,-0.277783,0
2024-11-29 17:58:39.123,-1.08455,1.11326,7.74018,-0.22105,0.568088,-0.277783,0
2024-11-29 17:58:39.127,-1.14437,1.14676,7.72822,-0.191119,0.587024,-0.221585,0
2024-11-29 17:58:39.129,-1.2018,1.17308,7.71386,-0.191119,0.587024,-0.221585,0
2024-11-29 17:58:39.131,-1.26879,1.24008,7.69711,-0.178902,0.589468,-0.19654,0
2024-11-29 17:58:39.133,-1.32144,1.30947,7.65643,-0.16302,0.587024,-0.170885,0
2024-11-29 17:58:39.136,-1.37408,1.36451,7.61576,-0.150803,0.579083,-0.14584,0
2024-11-29 17:58:39.138,-1.41506,1.41984,7.58226,-0.139808,0.56992,-0.122628,0
2024-11-29 17:58:39.140,-1.44616,1.47727,7.52692,-0.128202,0.558314,-0.0975828,0
2024-11-29 17:58:39.142,-1.46052,1.5347,7.49342,-0.117817,0.543654,-0.0755923,0
2024-11-29 17:58:39.145,-1.47488,1.57777,7.46232,-0.109265,0.52655,-0.0536018,0
2024-11-29 17:58:39.148,-1.4988,1.62562,7.4336,-0.0988809,0.507003,-0.0322222,0
2024-11-29 17:58:39.150,-1.49163,1.68784,7.41685,-0.0848314,0.46852,0.00748288,0
2024-11-29 17:58:39.151,-1.47488,1.75723,7.39532,-0.0848314,0.46852,0.00748288,0
2024-11-29 17:58:39.154,-1.48445,1.80987,7.37617,-0.0793338,0.450194,0.0251975,0
2024-11-29 17:58:39.157,-1.49163,1.85294,7.36421,-0.0726145,0.427593,0.0416903,0
2024-11-29 17:58:39.159,-1.48205,1.91037,7.37378,-0.0658951,0.406213,0.0581832,0
2024-11-29 17:58:39.162,-1.4677,1.95823,7.39292,-0.0555107,0.358567,0.091169,0
2024-11-29 17:58:39.164,-1.45095,2.00638,7.41925,-0.0555107,0.358567,0.091169,0
2024-11-29 17:58:39.166,-1.42223,2.05902,7.44796,-0.0500131,0.33169,0.104608,0
2024-11-29 17:58:39.169,-1.39801,2.10449,7.48385,-0.0365745,0.281601,0.129652,0
2024-11-29 17:58:39.171,-1.37886,2.15234,7.51496,-0.0365745,0.281601,0.129652,0
2024-11-29 17:58:39.174,-1.34776,2.20259,7.53889,-0.0298552,0.254723,0.14248,0
2024-11-29 17:58:39.175,-1.33101,2.24806,7.5676,-0.0261901,0.227235,0.152254,0
2024-11-29 17:58:39.178,-1.3334,2.28873,7.60379,-0.0200816,0.204023,0.162638,0
2024-11-29 17:58:39.181,-1.32383,2.32702,7.63729,-0.014584,0.179589,0.173633,0
2024-11-29 17:58:39.183,-1.29751,2.37009,7.67318,-0.0096972,0.155766,0.180964,0
2024-11-29 17:58:39.185,-1.26879,2.40598,7.72104,-0.00419957,0.132554,0.188905,0
2024-11-29 17:58:39.188,-1.25204,2.42273,7.75693,0.00557398,0.0861295,0.206008,0
2024-11-29 17:58:39.190,-1.22812,2.44427,7.78086,0.00557398,0.0861295,0.206008,0
2024-11-29 17:58:39.192,-1.21137,2.45863,7.81436,0.0116825,0.0659715,0.213338,0
2024-11-29 17:58:39.195,-1.17547,2.44905,7.84786,0.0165692,0.028099,0.226777,0
2024-11-29 17:58:39.197,-1.14197,2.46341,7.87179,0.0165692,0.028099,0.226777,0
2024-11-29 17:58:39.199,-1.12044,2.48973,7.88615,0.0171801,0.0116061,0.235329,0
2024-11-29 17:58:39.203,-1.05105,2.5017,7.92443,0.0190126,-0.0183254,0.249989,0
2024-11-29 17:58:39.203,-1.05105,2.5017,7.92443,0.0190126,-0.0183254,0.249989,0
2024-11-29 17:58:39.207,-1.0008,2.50409,7.95793,0.0190126,-0.0317641,0.255487,0
2024-11-29 17:58:39.208,-0.94337,2.51366,7.97707,0.0141258,-0.0452027,0.260984,0
2024-11-29 17:58:39.210,-0.893121,2.53549,7.99861,0.00923906,-0.0580305,0.266482,0
2024-11-29 17:58:39.214,-0.842872,2.55224,8.02254,0.00618483,-0.0671932,0.27198,0
2024-11-29 17:58:39.216,-0.792323,2.56899,8.03929,-0.000534491,-0.0763559,0.275645,0
2024-11-29 17:58:39.220,-0.701396,2.6336,8.12543,-0.0206925,-0.0824644,0.27931,0
2024-11-29 17:58:39.221,-0.701396,2.6336,8.12543,-0.0206925,-0.0824644,0.27931,0
2024-11-29 17:58:39.223,-0.648754,2.66231,8.17119,-0.0322986,-0.0824644,0.282975,0
2024-11-29 17:58:39.224,-0.60329,2.69103,8.22622,-0.0420721,-0.0806318,0.283586,0
2024-11-29 17:58:39.227,-0.553041,2.72692,8.29083,-0.0561216,-0.0745234,0.282364,0
2024-11-29 17:58:39.230,-0.498006,2.77478,8.38176,-0.0897182,-0.0592522,0.280532,0
2024-11-29 17:58:39.232,-0.459721,2.82742,8.48465,-0.0897182,-0.0592522,0.280532,0
2024-11-29 17:58:39.234,-0.428614,2.87049,8.58754,-0.104379,-0.0464244,0.276256,0
2024-11-29 17:58:39.236,-0.387936,2.89681,8.67608,-0.11965,-0.0299315,0.270758,0
2024-11-29 17:58:39.239,-0.330509,2.9327,8.75294,-0.137364,-0.0109953,0.26465,0
2024-11-29 17:58:39.242,-0.277567,2.9686,8.83191,-0.174626,0.0329858,0.253043,0
2024-11-29 17:58:39.244,-0.236889,3.00688,8.9348,-0.191119,0.0574196,0.242048,0
2024-11-29 17:58:39.247,-0.198604,3.03799,9.05923,-0.210055,0.0824644,0.234718,0
2024-11-29 17:58:39.248,-0.157926,3.04756,9.18605,-0.210055,0.0824644,0.234718,0
2024-11-29 17:58:39.251,-0.136391,3.08854,9.31316,-0.223494,0.108731,0.224945,0
2024-11-29 17:58:39.254,-0.105284,3.12682,9.4352,-0.241208,0.134997,0.215782,0
2024-11-29 17:58:39.256,-0.0622134,3.14596,9.53809,-0.255258,0.164929,0.204787,0
2024-11-29 17:58:39.258,-0.0191426,3.16989,9.6362,-0.267475,0.19486,0.19318,0
2024-11-29 17:58:39.261,0.0311067,3.17228,9.71994,-0.292519,0.256556,0.165081,0
2024-11-29 17:58:39.263,0.0789631,3.15314,9.78216,-0.303515,0.287098,0.151643,0
2024-11-29 17:58:39.264,0.112463,3.134,9.84706,-0.303515,0.287098,0.151643,0
2024-11-29 17:58:39.267,0.131605,3.13879,9.92363,-0.316953,0.313975,0.136983,0
2024-11-29 17:58:39.269,0.129212,3.14357,9.98345,-0.327338,0.342074,0.117435,0
2024-11-29 17:58:39.275,0.0693919,3.15314,10.1366,-0.345663,0.393996,0.086893,0
2024-11-29 17:58:39.275,0.0693919,3.15314,10.1366,-0.345663,0.393996,0.086893,0
2024-11-29 17:58:39.276,0.0526421,3.1675,10.1653,-0.354826,0.41782,0.0661242,0
2024-11-29 17:58:39.279,0.0382852,3.16271,10.194,-0.359102,0.437977,0.0502422,0
2024-11-29 17:58:39.282,-0.00239282,3.15075,10.2251,-0.37193,0.469131,0.0184781,0
2024-11-29 17:58:39.284,-0.0622134,3.13879,10.2682,-0.37193,0.469131,0.0184781,0
2024-11-29 17:58:39.287,-0.117248,3.12443,10.3376,-0.374984,0.477683,0.00442864,0
2024-11-29 17:58:39.289,-0.174676,3.12921,10.3953,-0.37926,0.486845,-0.0206161,0
2024-11-29 17:58:39.290,-0.256032,3.134,10.436,-0.37926,0.486845,-0.0206161,0
2024-11-29 17:58:39.295,-0.421436,3.11486,10.5293,-0.370097,0.486845,-0.0383307,0
2024-11-29 17:58:39.295,-0.421436,3.11486,10.5293,-0.370097,0.486845,-0.0383307,0
2024-11-29 17:58:39.297,-0.505185,3.10529,10.5796,-0.367043,0.481348,-0.0419957,0
2024-11-29 17:58:39.301,-0.588933,3.10768,10.6179,-0.35055,0.470352,-0.0481042,0
2024-11-29 17:58:39.303,-0.665504,3.10289,10.6442,-0.340776,0.46119,-0.0499368,0
2024-11-29 17:58:39.306,-0.715753,3.10289,10.6705,-0.340776,0.46119,-0.0499368,0
2024-11-29 17:58:39.307,-0.76361,3.11007,10.6729,-0.328559,0.449584,-0.0499368,0
2024-11-29 17:58:39.310,-0.813859,3.10289,10.6968,-0.318175,0.436145,-0.0517693,0
2024-11-29 17:58:39.313,-0.845265,3.09332,10.7279,-0.305347,0.422706,-0.0517693,0
2024-11-29 17:58:39.315,-0.869193,3.08106,10.7303,-0.274805,0.390331,-0.0505476,0
2024-11-29 17:58:39.316,-0.893121,3.06192,10.7423,-0.274805,0.390331,-0.0505476,0
2024-11-29 17:58:39.320,-0.912264,3.06192,10.7351,-0.244263,0.35307,-0.0505476,0
2024-11-29 17:58:39.322,-0.931406,3.05713,10.7136,-0.244263,0.35307,-0.0505476,0
2024-11-29 17:58:39.323,-0.964906,3.05474,10.704,-0.228991,0.333523,-0.052991,0
2024-11-29 17:58:39.326,-1.00319,3.05713,10.7016,-0.213109,0.316419,-0.0517693,0
2024-11-29 17:58:39.329,-1.05105,3.05713,10.6968,-0.182567,0.276103,-0.0481042,0
2024-11-29 17:58:39.331,-1.0989,3.06431,10.704,-0.182567,0.276103,-0.0481042,0
2024-11-29 17:58:39.334,-1.15155,3.08106,10.6968,-0.167907,0.251058,-0.0456608,0
2024-11-29 17:58:39.336,-1.1994,3.10289,10.6801,-0.154468,0.229068,-0.0395524,0
2024-11-29 17:58:39.338,-1.2329,3.11486,10.6681,-0.140419,0.204634,-0.0352764,0
2024-11-29 17:58:39.341,-1.26401,3.11725,10.6537,-0.115374,0.153934,-0.0236703,0
2024-11-29 17:58:39.343,-1.26162,3.12204,10.6442,-0.115374,0.153934,-0.0236703,0
2024-11-29 17:58:39.345,-1.25922,3.12921,10.6298,-0.104379,0.130721,-0.0181727,0
2024-11-29 17:58:39.350,-1.2664,3.14596,10.6059,-0.0829989,0.0891837,-0.00167983,0
2024-11-29 17:58:39.350,-1.2664,3.14596,10.6059,-0.0829989,0.0891837,-0.00167983,0
2024-11-29 17:58:39.352,-1.23769,3.13879,10.5987,-0.0750579,0.0696366,0.00687203,0
2024-11-29 17:58:39.355,-1.18983,3.13161,10.6035,-0.0658951,0.0525329,0.014813,0
2024-11-29 17:58:39.357,-1.15872,3.13639,10.6107,-0.0573433,0.0390942,0.0221432,0
2024-11-29 17:58:39.360,-1.12762,3.14836,10.6179,-0.0475697,0.0128278,0.0368035,0
2024-11-29 17:58:39.362,-1.07976,3.15793,10.6083,-0.0432938,0.00305424,0.0447446,0
2024-11-29 17:58:39.363,-1.03908,3.15314,10.5963,-0.0432938,0.00305424,0.0447446,0
2024-11-29 17:58:39.366,-1.00319,3.15793,10.6107,-0.0396287,-0.00183254,0.050853,0
2024-11-29 17:58:39.369,-0.955334,3.16989,10.6394,-0.0365745,-0.00794101,0.0569615,0
2024-11-29 17:58:39.371,-0.924228,3.18903,10.6537,-0.0329094,-0.0128278,0.06307,0
2024-11-29 17:58:39.373,-0.890728,3.20578,10.6561,-0.0329094,-0.0146603,0.0691785,0
2024-11-29 17:58:39.375,-0.862014,3.22014,10.6825,-0.0298552,-0.0152712,0.0722327,0
2024-11-29 17:58:39.378,-0.837787,3.23928,10.7231,-0.0292443,-0.0128278,0.0740652,0
2024-11-29 17:58:39.380,-0.816252,3.26082,10.7566,-0.030466,-0.0109953,0.0795629,0
2024-11-29 17:58:39.383,-0.809073,3.28475,10.7997,-0.0280226,-0.00916271,0.0905581,0
2024-11-29 17:58:39.387,-0.780359,3.3015,10.8882,-0.0292443,-0.0116061,0.0930015,0
2024-11-29 17:58:39.388,-0.780359,3.3015,10.8882,-0.0292443,-0.0116061,0.0930015,0
2024-11-29 17:58:39.389,-0.761217,3.32782,10.9289,-0.0298552,-0.0134386,0.0966666,0
2024-11-29 17:58:39.393,-0.739681,3.34696,10.9555,-0.0322986,-0.0226013,0.100943,0
2024-11-29 17:58:39.395,-0.710967,3.3326,10.989,-0.0353528,-0.0244339,0.102164,0
2024-11-29 17:58:39.396,-0.689432,3.3326,11.0321,-0.0353528,-0.0244339,0.102164,0
2024-11-29 17:58:39.400,-0.672682,3.34696,11.0728,-0.0365745,-0.023823,0.10644,0
2024-11-29 17:58:39.401,-0.655932,3.35653,11.1015,-0.0365745,-0.023823,0.10644,0
2024-11-29 17:58:39.404,-0.639183,3.36371,11.1517,-0.0396287,-0.0232122,0.108273,0
2024-11-29 17:58:39.406,-0.624826,3.36132,11.2355,-0.0402396,-0.0195471,0.111938,0
2024-11-29 17:58:39.409,-0.62004,3.38285,11.3145,-0.0439046,-0.0122169,0.11377,0
2024-11-29 17:58:39.412,-0.624826,3.42353,11.4078,-0.0408504,-0.0103844,0.113159,0
2024-11-29 17:58:39.414,-0.627219,3.44985,11.4987,-0.0408504,-0.0103844,0.113159,0
2024-11-29 17:58:39.416,-0.634397,3.47378,11.5828,-0.0371853,-0.00916271,0.119268,0
2024-11-29 17:58:39.418,-0.639183,3.50967,11.6737,-0.0371853,-0.00916271,0.119268,0
2024-11-29 17:58:39.421,-0.639183,3.52642,11.7622,-0.0335202,-0.00977356,0.121711,0
2024-11-29 17:58:39.422,-0.627219,3.54556,11.8603,-0.0310769,-0.0140495,0.122322,0
2024-11-29 17:58:39.426,-0.593719,3.56949,11.956,-0.0231358,-0.0262664,0.124766,0
2024-11-29 17:58:39.428,-0.567398,3.59103,12.0278,-0.0231358,-0.0262664,0.124766,0
2024-11-29 17:58:39.430,-0.533899,3.61496,12.1023,-0.0200816,-0.0342074,0.123544,0
2024-11-29 17:58:39.432,-0.493221,3.63649,12.1837,-0.0115297,-0.0421485,0.12049,0
2024-11-29 17:58:39.435,-0.459721,3.66311,12.265,0.00251974,-0.0580305,0.111327,0
2024-11-29 17:58:39.436,-0.41665,3.68704,12.3272,0.00251974,-0.0580305,0.111327,0
2024-11-29 17:58:39.439,-0.378365,3.70858,12.3847,0.0104608,-0.064139,0.103997,0
2024-11-29 17:58:39.442,-0.352044,3.73968,12.4564,0.021456,-0.0714691,0.0905581,0
2024-11-29 17:58:39.444,-0.328116,3.74925,12.4947,0.021456,-0.0714691,0.0905581,0
2024-11-29 17:58:39.447,-0.292223,3.73968,12.521,0.0257319,-0.0739125,0.0813954,0
2024-11-29 17:58:39.448,-0.246461,3.73729,12.5785,0.0300079,-0.080021,0.0691785,0
2024-11-29 17:58:39.451,-0.208176,3.73968,12.6458,0.0324513,-0.0806318,0.0606266,0
2024-11-29 17:58:39.454,-0.20339,3.75165,12.7199,0.0361163,-0.0861295,0.0465771,0
2024-11-29 17:58:39.455,-0.208176,3.77079,12.7893,0.0385597,-0.0904054,0.0361927,0
2024-11-29 17:58:39.458,-0.227318,3.80429,12.8396,0.041614,-0.0934596,0.02703,0
2024-11-29 17:58:39.461,-0.253639,3.833,12.8851,0.0471116,-0.0971247,0.0154239,0
2024-11-29 17:58:39.463,-0.265603,3.84257,12.9162,0.0483333,-0.100179,0.00748288,0
2024-11-29 17:58:39.466,-0.292223,3.83061,12.9377,0.0526092,-0.105677,-0.000458135,0
2024-11-29 17:58:39.468,-0.311366,3.80907,12.9808,0.0556635,-0.125224,-0.0132859,0
2024-11-29 17:58:39.469,-0.316152,3.81147,13.0214,0.0556635,-0.125224,-0.0132859,0
2024-11-29 17:58:39.473,-0.328116,3.82104,13.0502,0.0556635,-0.134997,-0.0181727,0
2024-11-29 17:58:39.474,-0.337687,3.80907,13.0621,0.0550526,-0.146603,-0.0242812,0
2024-11-29 17:58:39.477,-0.347258,3.78515,13.0549,0.0519984,-0.157599,-0.0285571,0
2024-11-29 17:58:39.479,-0.364008,3.76122,13.0573,0.0501658,-0.171648,-0.032833,0
2024-11-29 17:58:39.481,-0.375972,3.74208,13.0597,0.0458899,-0.186308,-0.032833,0
2024-11-29 17:58:39.484,-0.383151,3.73729,13.0549,0.0452791,-0.198525,-0.0364981,0
2024-11-29 17:58:39.487,-0.371187,3.70858,13.0478,0.0397814,-0.214407,-0.0383307,0
2024-11-29 17:58:39.489,-0.378365,3.67029,13.0334,0.0245102,-0.250447,-0.0419957,0
2024-11-29 17:58:39.492,-0.387936,3.66072,13.0286,0.0245102,-0.250447,-0.0419957,0
2024-11-29 17:58:39.494,-0.380758,3.63171,13.0382,0.0153475,-0.27427,-0.0444391,0
2024-11-29 17:58:39.496,-0.371187,3.60539,13.0286,0.00496313,-0.298093,-0.04505,0
2024-11-29 17:58:39.499,-0.371187,3.57906,13.0286,-0.0182491,-0.343907,-0.0487151,0
2024-11-29 17:58:39.501,-0.352044,3.55274,13.0502,-0.0182491,-0.343907,-0.0487151,0
2024-11-29 17:58:39.502,-0.32333,3.5336,13.0525,-0.0322986,-0.368341,-0.0511585,0
2024-11-29 17:58:39.506,-0.299402,3.51207,13.0454,-0.058565,-0.412322,-0.0554344,0
2024-11-29 17:58:39.508,-0.248854,3.48574,13.0645,-0.0732253,-0.435534,-0.0590995,0
2024-11-29 17:58:39.509,-0.189033,3.4355,13.0837,-0.0732253,-0.435534,-0.0590995,0
2024-11-29 17:58:39.513,-0.124427,3.3996,13.0956,-0.101324,-0.482569,-0.0682622,0
2024-11-29 17:58:39.515,-0.0502493,3.35892,13.1148,-0.101324,-0.482569,-0.0682622,0
2024-11-29 17:58:39.517,0.0430708,3.30389,13.1363,-0.118428,-0.507003,-0.0755923,0
2024-11-29 17:58:39.520,0.136391,3.25843,13.1554,-0.131256,-0.525329,-0.0853659,0
2024-11-29 17:58:39.522,0.208176,3.20578,13.1746,-0.154468,-0.559536,-0.108578,0
2024-11-29 17:58:39.524,0.282652,3.15793,13.1988,-0.154468,-0.559536,-0.108578,0
2024-11-29 17:58:39.526,0.34008,3.10768,13.2275,-0.167296,-0.570531,-0.123238,0
2024-11-29 17:58:39.528,0.397508,3.05474,13.2802,-0.175848,-0.580916,-0.13851,0
2024-11-29 17:58:39.532,0.4669,2.98056,13.3496,-0.183178,-0.587635,-0.15317,0
2024-11-29 17:58:39.534,0.519542,2.89442,13.4261,-0.189286,-0.594965,-0.170274,0
2024-11-29 17:58:39.536,0.565005,2.82263,13.4931,-0.191119,-0.599241,-0.187377,0
2024-11-29 17:58:39.538,0.605683,2.75085,13.5506,-0.191119,-0.601685,-0.206314,0
2024-11-29 17:58:39.541,0.632004,2.65992,13.6199,-0.189286,-0.600463,-0.225861,0
2024-11-29 17:58:39.542,0.646361,2.57617,13.6654,-0.183789,-0.595576,-0.244797,0
2024-11-29 17:58:39.545,0.658325,2.49691,13.6822,-0.173404,-0.585192,-0.263122,0
2024-11-29 17:58:39.548,0.658325,2.39402,13.7109,-0.151414,-0.549152,-0.300995,0
2024-11-29 17:58:39.551,0.632004,2.3007,13.742,-0.151414,-0.549152,-0.300995,3
2024-11-29 17:58:39.553,0.593719,2.21456,13.7638,-0.115985,-0.499062,-0.337035,0
2024-11-29 17:58:39.555,0.548256,2.11645,13.7782,-0.0909399,-0.467298,-0.351695,0
2024-11-29 17:58:39.557,0.498006,2.02074,13.759,-0.0909399,-0.467298,-0.351695,0
2024-11-29 17:58:39.559,0.428614,1.94387,13.7181,-0.0671168,-0.43248,-0.366356,0
2024-11-29 17:58:39.561,0.35683,1.87448,13.6726,-0.0414613,-0.395218,-0.377962,0
2024-11-29 17:58:39.564,0.289831,1.79073,13.6223,-0.014584,-0.354902,-0.3914,0
2024-11-29 17:58:39.567,0.210568,1.71177,13.5601,0.0171801,-0.315197,-0.401785,0
2024-11-29 17:58:39.569,0.155533,1.66152,13.4955,0.0483333,-0.272438,-0.412169,0
2024-11-29 17:58:39.571,0.0741775,1.60887,13.4333,0.0843733,-0.228457,-0.417056,0
2024-11-29 17:58:39.574,-0.0287139,1.54666,13.3496,0.124078,-0.183254,-0.42011,0
2024-11-29 17:58:39.575,-0.143569,1.49402,13.2586,0.16134,-0.13683,-0.423775,0
2024-11-29 17:58:39.578,-0.263211,1.45334,13.1507,0.210208,-0.0891837,-0.42011,0
2024-11-29 17:58:39.581,-0.364008,1.41984,13.0167,0.303057,0.0152712,-0.410948,0
2024-11-29 17:58:39.584,-0.490828,1.3669,12.8635,0.303057,0.0152712,-0.410948,0
2024-11-29 17:58:39.586,-0.62004,1.31186,12.6864,0.350092,0.0684149,-0.403006,0
2024-11-29 17:58:39.587,-0.732503,1.27597,12.4923,0.400792,0.120948,-0.393233,0
2024-11-29 17:58:39.590,-0.84018,1.22572,12.3105,0.451492,0.170426,-0.379183,0
2024-11-29 17:58:39.593,-0.936192,1.17787,12.0951,0.499749,0.217462,-0.363912,0
2024-11-29 17:58:39.595,-1.03908,1.1324,11.8531,0.597485,0.296261,-0.329094,0
2024-11-29 17:58:39.598,-1.14197,1.0989,11.621,0.642688,0.328636,-0.308936,0
2024-11-29 17:58:39.600,-1.22094,1.0678,11.3647,0.642688,0.328636,-0.308936,0
2024-11-29 17:58:39.601,-1.2999,1.0319,11.0848,0.684836,0.354902,-0.288167,0
2024-11-29 17:58:39.604,-1.38365,1.01037,10.7973,0.724541,0.374449,-0.264344,0
2024-11-29 17:58:39.607,-1.4677,0.974477,10.5054,0.796621,0.398883,-0.216698,0
2024-11-29 17:58:39.609,-1.54666,0.952942,10.2275,0.796621,0.398883,-0.216698,0
2024-11-29 17:58:39.612,-1.6017,0.957727,9.95953,0.854652,0.400716,-0.164165,0
2024-11-29 17:58:39.614,-1.65673,0.955334,9.67687,0.854652,0.400716,-0.164165,0
2024-11-29 17:58:39.615,-1.72373,0.955334,9.40648,0.87542,0.395218,-0.135455,0
2024-11-29 17:58:39.618,-1.77159,0.969691,9.14297,0.894357,0.386666,-0.109189,0
2024-11-29 17:58:39.621,-1.82184,1.0008,8.88216,0.919401,0.351237,-0.0499368,0
2024-11-29 17:58:39.623,-1.86251,1.02951,8.64975,0.919401,0.351237,-0.0499368,0
2024-11-29 17:58:39.626,-1.87926,1.04865,8.42483,0.927953,0.298704,0.00992627,0
2024-11-29 17:58:39.628,-1.87448,1.08455,8.19512,0.927953,0.298704,0.00992627,0
2024-11-29 17:58:39.630,-1.84576,1.13958,7.99382,0.923677,0.267551,0.0386361,0
2024-11-29 17:58:39.632,-1.81944,1.17547,7.8,0.920012,0.237009,0.0642917,0
2024-11-29 17:58:39.635,-1.76919,1.20658,7.62054,0.91146,0.205856,0.0905581,0
2024-11-29 17:58:39.638,-1.68544,1.25683,7.46471,0.897411,0.171037,0.114992,0
2024-11-29 17:58:39.640,-1.59212,1.30229,7.32114,0.867479,0.101401,0.15714,0
2024-11-29 17:58:39.641,-1.48923,1.35015,7.18714,0.867479,0.101401,0.15714,0
2024-11-29 17:58:39.645,-1.36929,1.40279,7.07707,0.847322,0.0690257,0.173633,0
2024-11-29 17:58:39.646,-1.24008,1.45095,6.97867,0.82472,0.0335966,0.18585,0
2024-11-29 17:58:39.648,-1.11326,1.47727,6.87099,0.797843,-0.00183254,0.196846,0
2024-11-29 17:58:39.652,-0.979263,1.4988,6.76571,0.769133,-0.0366508,0.204787,0
2024-11-29 17:58:39.654,-0.845265,1.52513,6.67478,0.742256,-0.0684149,0.209062,0
2024-11-29 17:58:39.656,-0.708575,1.54905,6.60539,0.707437,-0.100179,0.211506,0
2024-11-29 17:58:39.659,-0.576969,1.55862,6.53839,0.672619,-0.132554,0.209062,0
2024-11-29 17:58:39.660,-0.445364,1.56102,6.48096,0.636579,-0.160042,0.208452,0
2024-11-29 17:58:39.664,-0.299402,1.55623,6.43041,0.596874,-0.188752,0.202954,0
2024-11-29 17:58:39.666,-0.174676,1.55145,6.4017,0.55778,-0.215018,0.195624,0
2024-11-29 17:58:39.668,-0.0454636,1.54905,6.38495,0.477759,-0.254112,0.177298,0
2024-11-29 17:58:39.670,0.0789631,1.5323,6.37777,0.477759,-0.254112,0.177298,0
2024-11-29 17:58:39.673,0.193819,1.52034,6.38495,0.397127,-0.282822,0.157751,0
2024-11-29 17:58:39.675,0.311366,1.52034,6.40888,0.397127,-0.282822,0.157751,0
2024-11-29 17:58:39.677,0.426222,1.50598,6.43998,0.358033,-0.292596,0.145534,0
2024-11-29 17:58:39.680,0.54347,1.49163,6.48575,0.317106,-0.300537,0.130874,0
2024-11-29 17:58:39.681,0.65354,1.47966,6.55274,0.282288,-0.307256,0.116825,0
2024-11-29 17:58:39.685,0.74686,1.46052,6.62214,0.245637,-0.315197,0.100332,0
2024-11-29 17:58:39.687,0.852443,1.45334,6.7011,0.210819,-0.320084,0.0826171,0
2024-11-29 17:58:39.689,0.964906,1.44616,6.78485,0.180276,-0.325582,0.0618483,0
2024-11-29 17:58:39.692,1.06062,1.44616,6.8686,0.150345,-0.331079,0.0416903,0
2024-11-29 17:58:39.694,1.12762,1.44616,6.95235,0.122246,-0.333523,0.0215324,0
2024-11-29 17:58:39.696,1.1683,1.43898,7.03879,0.0972011,-0.332912,-0.00412322,0
2024-11-29 17:58:39.699,1.1994,1.43898,7.13211,0.0739889,-0.328636,-0.0279463,0
2024-11-29 17:58:39.700,1.22812,1.44855,7.22064,0.0538309,-0.319473,-0.0505476,0
2024-11-29 17:58:39.703,1.23769,1.4653,7.30918,0.033673,-0.308478,-0.0737598,0
2024-11-29 17:58:39.706,1.22812,1.47248,7.39053,0.0190126,-0.294428,-0.0975828,0
2024-11-29 17:58:39.708,1.21137,1.4677,7.4671,0.00618483,-0.276103,-0.119573,0
2024-11-29 17:58:39.711,1.16112,1.45334,7.54367,-0.0121406,-0.232733,-0.159278,0
2024-11-29 17:58:39.712,1.09651,1.45095,7.61336,-0.0121406,-0.232733,-0.159278,0
2024-11-29 17:58:39.714,1.02233,1.4653,7.67797,-0.0182491,-0.207077,-0.176993,0
2024-11-29 17:58:39.718,0.929013,1.44855,7.74258,-0.0268009,-0.16615,-0.20387,0
2024-11-29 17:58:39.720,0.825823,1.43181,7.79283,-0.0280226,-0.149047,-0.213644,0
2024-11-29 17:58:39.721,0.703789,1.42702,7.8359,-0.0280226,-0.149047,-0.213644,0
2024-11-29 17:58:39.724,0.586541,1.4342,7.87657,-0.0255792,-0.128889,-0.218531,0
2024-11-29 17:58:39.727,0.454935,1.44616,7.90768,-0.0200816,-0.0928488,-0.222196,0
2024-11-29 17:58:39.730,0.313759,1.45334,7.90529,-0.0200816,-0.0928488,-0.222196,0
2024-11-29 17:58:39.732,0.196211,1.46052,7.8694,-0.0139731,-0.0757451,-0.221585,0
2024-11-29 17:58:39.734,0.081356,1.47248,7.85025,-0.00908635,-0.0568088,-0.218531,0
2024-11-29 17:58:39.737,-0.0239282,1.47009,7.81915,0.00251974,-0.0250447,-0.205092,0
2024-11-29 17:58:39.738,-0.131605,1.4677,7.76411,0.00251974,-0.0250447,-0.205092,0
2024-11-29 17:58:39.740,-0.227318,1.5012,7.71386,0.00618483,-0.0109953,-0.195929,0
2024-11-29 17:58:39.745,-0.359223,1.52991,7.58704,0.00862822,0.000610847,-0.183712,0
2024-11-29 17:58:39.751,-0.488435,1.58734,7.46232,0.0159584,0.0213797,-0.142786,0
2024-11-29 17:58:39.752,-0.550648,1.62323,7.4001,0.0165692,0.023823,-0.129958,0
2024-11-29 17:58:39.753,-0.550648,1.62323,7.4001,0.0165692,0.023823,-0.129958,0
2024-11-29 17:58:39.753,-0.550648,1.62323,7.4001,0.0165692,0.023823,-0.129958,0
2024-11-29 17:58:39.755,-0.598505,1.63759,7.34507,0.0141258,0.0226013,-0.115297,0
2024-11-29 17:58:39.758,-0.643968,1.67348,7.2996,0.013515,0.0189363,-0.0981937,0
2024-11-29 17:58:39.760,-0.682254,1.73569,7.26371,0.00801737,0.0122169,-0.0804791,0
2024-11-29 17:58:39.762,-0.699003,1.8003,7.235,0.00557398,0.00366508,-0.0645971,0
2024-11-29 17:58:39.764,-0.706182,1.84576,7.2015,0.0019089,-0.00671932,-0.0505476,0
2024-11-29 17:58:39.766,-0.710967,1.88166,7.18236,-0.00236703,-0.0177146,-0.0334439,0
2024-11-29 17:58:39.770,-0.701396,1.92473,7.17518,-0.00725381,-0.0311532,-0.0181727,0
2024-11-29 17:58:39.772,-0.696611,1.97767,7.16561,-0.0133623,-0.0452027,-0.00473407,0
2024-11-29 17:58:39.774,-0.675075,2.0327,7.168,-0.0170274,-0.0610847,0.00748288,0
2024-11-29 17:58:39.776,-0.624826,2.0662,7.18236,-0.0188599,-0.0775776,0.0196998,0
2024-11-29 17:58:39.778,-0.567398,2.10688,7.20628,-0.0243575,-0.0928488,0.0288625,0
2024-11-29 17:58:39.780,-0.50997,2.14517,7.21107,-0.0316877,-0.112396,0.0355819,0
2024-11-29 17:58:39.783,-0.454935,2.16431,7.23021,-0.0371853,-0.128889,0.0410795,0
2024-11-29 17:58:39.786,-0.392722,2.19541,7.29243,-0.0481806,-0.161875,0.0490205,0
2024-11-29 17:58:39.787,-0.313759,2.23609,7.34028,-0.0481806,-0.161875,0.0490205,0
2024-11-29 17:58:39.791,-0.251246,2.2672,7.39292,-0.0573433,-0.188141,0.0502422,0
2024-11-29 17:58:39.793,-0.198604,2.29352,7.45753,-0.0573433,-0.196082,0.0465771,0
2024-11-29 17:58:39.795,-0.148355,2.31984,7.53649,-0.0573433,-0.196082,0.0465771,0
2024-11-29 17:58:39.798,-0.11007,2.35813,7.62293,-0.0603975,-0.208299,0.0404686,0
2024-11-29 17:58:39.799,-0.0765703,2.39163,7.70429,-0.0603975,-0.208299,0.0404686,0
2024-11-29 17:58:39.803,-0.0574277,2.40838,7.77368,-0.0573433,-0.217462,0.034971,0
2024-11-29 17:58:39.810,0.0119641,2.42752,7.97468,-0.0414613,-0.224181,0.0215324,0
2024-11-29 17:58:39.811,0.0119641,2.42752,8.03689,-0.0414613,-0.224181,0.0215324,0
2024-11-29 17:58:39.812,0.026321,2.4323,8.03689,-0.0414613,-0.224181,0.0215324,0
2024-11-29 17:58:39.812,0.026321,2.4323,8.03689,-0.0414613,-0.224181,0.0215324,0
2024-11-29 17:58:39.814,0.0239282,2.42752,8.09671,-0.0347419,-0.221738,0.0166456,0
2024-11-29 17:58:39.816,0.026321,2.41316,8.14248,-0.030466,-0.219294,0.011148,0
2024-11-29 17:58:39.819,0.0311067,2.41077,8.18315,-0.0213033,-0.215629,0.00565034,0
2024-11-29 17:58:39.821,0.0119641,2.41555,8.22144,-0.0133623,-0.207077,0.0038178,0
2024-11-29 17:58:39.823,-0.00957129,2.40838,8.26212,-0.00542127,-0.196693,0.000152712,0
2024-11-29 17:58:39.826,-0.0334995,2.40598,8.28365,0.00496313,-0.183865,-0.00351237,0
2024-11-29 17:58:39.827,-0.0765703,2.40598,8.29562,0.013515,-0.170426,-0.00412322,0
2024-11-29 17:58:39.831,-0.112463,2.38923,8.31476,0.0226777,-0.156988,-0.00290152,0
2024-11-29 17:58:39.833,-0.138784,2.37966,8.32194,0.0391706,-0.124613,-0.00167983,0
2024-11-29 17:58:39.836,-0.177069,2.37488,8.31715,0.0391706,-0.124613,-0.00167983,0
2024-11-29 17:58:39.837,-0.205783,2.37009,8.30519,0.0465007,-0.109342,-0.000458135,0
2024-11-29 17:58:39.840,-0.239282,2.37009,8.27647,0.0550526,-0.0806318,0.00687203,0
2024-11-29 17:58:39.842,-0.282652,2.37248,8.24776,0.0550526,-0.0806318,0.00687203,0
2024-11-29 17:58:39.845,-0.330509,2.37727,8.20708,0.057496,-0.0653607,0.0105371,0
2024-11-29 17:58:39.847,-0.385544,2.40359,8.17358,0.0617719,-0.0500895,0.0172564,0
2024-11-29 17:58:39.849,-0.445364,2.4347,8.15205,0.0636045,-0.0329858,0.0215324,0
2024-11-29 17:58:39.851,-0.512363,2.45145,8.12064,0.0623828,-0.0177146,0.02703,0
2024-11-29 17:58:39.853,-0.576969,2.47059,8.1015,0.0623828,-0.00122169,0.0355819,0
2024-11-29 17:58:39.856,-0.629611,2.5017,8.09193,0.0593285,0.0128278,0.0447446,0
2024-11-29 17:58:39.859,-0.672682,2.52592,8.08953,0.0556635,0.0342074,0.0667351,0
2024-11-29 17:58:39.861,-0.720539,2.53789,8.08714,0.0556635,0.0342074,0.0667351,0
2024-11-29 17:58:39.863,-0.775574,2.57378,8.09432,0.0519984,0.0409268,0.0795629,0
2024-11-29 17:58:39.866,-0.821037,2.61207,8.1015,0.0452791,0.0586413,0.103997,0
2024-11-29 17:58:39.868,-0.871586,2.61685,8.11346,0.0452791,0.0586413,0.103997,0
2024-11-29 17:58:39.870,-0.912264,2.63839,8.13021,0.041614,0.0671932,0.118046,0
2024-11-29 17:58:39.873,-0.938585,2.67906,8.14248,0.0361163,0.0751342,0.133928,0
2024-11-29 17:58:39.876,-0.955334,2.68864,8.15923,0.0318404,0.0885729,0.161416,0
2024-11-29 17:58:39.878,-0.955334,2.70299,8.17598,0.0318404,0.0885729,0.161416,0
2024-11-29 17:58:39.880,-0.96012,2.72692,8.19512,0.021456,0.0916271,0.190126,0
2024-11-29 17:58:39.883,-0.955334,2.72692,8.21426,0.0165692,0.0885729,0.202343,0
2024-11-29 17:58:39.885,-0.917049,2.74128,8.2358,0.0165692,0.0885729,0.202343,0
2024-11-29 17:58:39.886,-0.859622,2.75803,8.27169,0.0129041,0.0824644,0.215782,0
2024-11-29 17:58:39.890,-0.825823,2.74606,8.31237,0.00862822,0.0726908,0.226777,0
2024-11-29 17:58:39.891,-0.787538,2.75563,8.34826,0.00435229,0.0647498,0.237161,0
2024-11-29 17:58:39.893,-0.725324,2.77238,8.38654,0.000687203,0.0561979,0.245713,0
2024-11-29 17:58:39.896,-0.643968,2.7676,8.43679,-0.00236703,0.0464244,0.253654,0
2024-11-29 17:58:39.899,-0.557827,2.76281,8.49422,-0.00908635,0.0262664,0.264039,0
2024-11-29 17:58:39.902,-0.478864,2.76281,8.53251,-0.010308,0.0195471,0.26465,0
2024-11-29 17:58:39.904,-0.404686,2.77956,8.58515,-0.010308,0.00733017,0.267704,0
2024-11-29 17:58:39.906,-0.335294,2.79871,8.65693,-0.0121406,-0.00305424,0.265871,0
2024-11-29 17:58:39.909,-0.270389,2.79871,8.70987,-0.0121406,-0.00305424,0.265871,0
