timestamp,accel_x,accel_y,accel_z,gyro_x,gyro_y,gyro_z,step_timestamp
2024-11-29 17:59:02.053,0.0646062,2.64317,9.7343,-0.0793338,-0.064139,-0.133623,0
2024-11-29 17:59:02.053,0.0646062,2.64317,9.7343,-0.0793338,-0.064139,-0.133623,0
2024-11-29 17:59:02.053,0.0646062,2.64317,9.7343,-0.0793338,-0.064139,-0.133623,0
2024-11-29 17:59:02.054,0.0550349,2.65274,9.71516,-0.0793338,-0.064139,-0.133623,0
2024-11-29 17:59:02.054,0.0550349,2.65274,9.71516,-0.0793338,-0.064139,-0.133623,0
2024-11-29 17:59:02.054,0.0550349,2.65274,9.71516,-0.0793338,-0.064139,-0.133623,0
2024-11-29 17:59:02.055,0.0646062,2.64317,9.7343,-0.0793338,-0.0543654,-0.13179,0
2024-11-29 17:59:02.055,0.0550349,2.65274,9.71516,-0.0793338,-0.0543654,-0.13179,0
2024-11-29 17:59:02.055,0.0550349,2.65274,9.71516,-0.0793338,-0.0543654,-0.13179,0
2024-11-29 17:59:02.055,0.0550349,2.65274,9.71516,-0.0793338,-0.0543654,-0.13179,0
2024-11-29 17:59:02.056,0.0550349,2.64556,9.69123,-0.0793338,-0.0543654,-0.13179,0
2024-11-29 17:59:02.056,0.0550349,2.64556,9.69123,-0.0793338,-0.0543654,-0.13179,0
2024-11-29 17:59:02.056,0.0550349,2.64556,9.69123,-0.0793338,-0.0543654,-0.13179,0
2024-11-29 17:59:02.057,0.0550349,2.64556,9.69123,-0.0793338,-0.0543654,-0.13179,0
2024-11-29 17:59:02.057,0.0550349,2.64556,9.69123,-0.0793338,-0.0543654,-0.13179,0
2024-11-29 17:59:02.057,0.0550349,2.64556,9.69123,-0.0793338,-0.0543654,-0.13179,0
2024-11-29 17:59:02.057,0.0550349,2.64556,9.69123,-0.0793338,-0.0543654,-0.13179,0
2024-11-29 17:59:02.059,0.0574277,2.63839,9.65295,-0.0811663,-0.0433702,-0.13179,0
2024-11-29 17:59:02.059,0.0574277,2.63839,9.65295,-0.0811663,-0.0433702,-0.13179,0
2024-11-29 17:59:02.059,0.0574277,2.63839,9.65295,-0.0811663,-0.0433702,-0.13179,0
2024-11-29 17:59:02.060,0.0574277,2.63839,9.65295,-0.0787229,-0.03604,-0.130569,0
2024-11-29 17:59:02.060,0.0574277,2.63839,9.65295,-0.0787229,-0.03604,-0.130569,0
2024-11-29 17:59:02.060,0.0574277,2.63839,9.65295,-0.0787229,-0.03604,-0.130569,0
2024-11-29 17:59:02.060,0.0574277,2.63839,9.65295,-0.0787229,-0.03604,-0.130569,0
2024-11-29 17:59:02.061,0.0430708,2.63121,9.6027,-0.0787229,-0.03604,-0.130569,0
2024-11-29 17:59:02.061,0.0430708,2.63121,9.6027,-0.0787229,-0.03604,-0.130569,0
2024-11-29 17:59:02.061,0.0430708,2.63121,9.6027,-0.0787229,-0.03604,-0.130569,0
2024-11-29 17:59:02.062,0.0430708,2.63121,9.6027,-0.0829989,-0.0293207,-0.129347,0
2024-11-29 17:59:02.062,0.0430708,2.63121,9.6027,-0.0829989,-0.0293207,-0.129347,0
2024-11-29 17:59:02.062,0.0430708,2.63121,9.6027,-0.0829989,-0.0293207,-0.129347,0
2024-11-29 17:59:02.063,0.0334995,2.61207,9.55245,-0.0829989,-0.0293207,-0.129347,0
2024-11-29 17:59:02.063,0.0334995,2.61207,9.55245,-0.0829989,-0.0293207,-0.129347,0
2024-11-29 17:59:02.063,0.0334995,2.61207,9.55245,-0.0829989,-0.0293207,-0.129347,0
2024-11-29 17:59:02.064,0.0334995,2.61207,9.55245,-0.0829989,-0.0293207,-0.129347,0
2024-11-29 17:59:02.066,0.0287139,2.60249,9.51895,-0.0848314,-0.0226013,-0.126904,0
2024-11-29 17:59:02.066,0.0287139,2.60249,9.51895,-0.0848314,-0.0226013,-0.126904,0
2024-11-29 17:59:02.066,0.0287139,2.60249,9.51895,-0.0848314,-0.0226013,-0.126904,0
2024-11-29 17:59:02.066,0.0287139,2.60249,9.51895,-0.0848314,-0.0226013,-0.126904,0
2024-11-29 17:59:02.067,0.0287139,2.60249,9.51895,-0.0872748,-0.0189363,-0.127514,0
2024-11-29 17:59:02.067,0.0287139,2.60249,9.51895,-0.0872748,-0.0189363,-0.127514,0
2024-11-29 17:59:02.068,0.0382852,2.60967,9.48066,-0.0872748,-0.0189363,-0.127514,0
2024-11-29 17:59:02.069,0.0382852,2.60967,9.48066,-0.0897182,-0.015882,-0.127514,0
2024-11-29 17:59:02.070,0.0382852,2.6001,9.42802,-0.0897182,-0.015882,-0.127514,0
2024-11-29 17:59:02.070,0.0382852,2.60967,9.48066,-0.0897182,-0.015882,-0.127514,0
2024-11-29 17:59:02.070,0.0382852,2.6001,9.42802,-0.0897182,-0.015882,-0.127514,0
2024-11-29 17:59:02.071,0.0382852,2.6001,9.42802,-0.0897182,-0.015882,-0.127514,0
2024-11-29 17:59:02.071,0.0382852,2.6001,9.42802,-0.0897182,-0.015882,-0.127514,0
2024-11-29 17:59:02.073,0.026321,2.59771,9.38256,-0.0921616,-0.0122169,-0.125071,0
2024-11-29 17:59:02.073,0.026321,2.59771,9.38256,-0.0921616,-0.0122169,-0.125071,0
2024-11-29 17:59:02.075,0.026321,2.61446,9.35384,-0.0964375,-0.0103844,-0.125682,0
2024-11-29 17:59:02.075,0.026321,2.61446,9.35384,-0.0964375,-0.0103844,-0.125682,0
2024-11-29 17:59:02.076,0.026321,2.61446,9.35384,-0.100713,-0.00977356,-0.122628,0
2024-11-29 17:59:02.076,0.026321,2.59771,9.38256,-0.100713,-0.00977356,-0.122628,0
2024-11-29 17:59:02.076,0.026321,2.61446,9.35384,-0.100713,-0.00977356,-0.122628,0
2024-11-29 17:59:02.078,0.0191426,2.61685,9.32274,-0.100713,-0.00977356,-0.122628,0
2024-11-29 17:59:02.078,0.0191426,2.61685,9.32274,-0.100713,-0.00977356,-0.122628,0
2024-11-29 17:59:02.079,0.0191426,2.61685,9.32274,-0.100713,-0.00977356,-0.122628,0
2024-11-29 17:59:02.079,0.0191426,2.61685,9.32274,-0.100713,-0.00977356,-0.122628,0
2024-11-29 17:59:02.079,0.0191426,2.61685,9.32274,-0.100713,-0.00977356,-0.122628,0
2024-11-29 17:59:02.080,0.0167498,2.60967,9.28684,-0.106822,-0.00977356,-0.120795,0
2024-11-29 17:59:02.080,0.0167498,2.60967,9.28684,-0.106822,-0.00977356,-0.120795,0
2024-11-29 17:59:02.081,0.0191426,2.61685,9.32274,-0.109265,-0.0109953,-0.122017,0
2024-11-29 17:59:02.081,0.0167498,2.60967,9.28684,-0.109265,-0.0109953,-0.122017,0
2024-11-29 17:59:02.081,0.0167498,2.60967,9.28684,-0.109265,-0.0109953,-0.122017,0
2024-11-29 17:59:02.083,0.0287139,2.60249,9.27249,-0.114152,-0.0140495,-0.122017,0
2024-11-29 17:59:02.083,0.0287139,2.60249,9.27249,-0.114152,-0.0140495,-0.122017,0
2024-11-29 17:59:02.083,0.0287139,2.60249,9.27249,-0.114152,-0.0140495,-0.122017,0
2024-11-29 17:59:02.083,0.0287139,2.60249,9.27249,-0.114152,-0.0140495,-0.122017,0
2024-11-29 17:59:02.083,0.0287139,2.60249,9.27249,-0.114152,-0.0140495,-0.122017,0
2024-11-29 17:59:02.085,0.0430708,2.59053,9.2677,-0.114152,-0.0140495,-0.122017,0
2024-11-29 17:59:02.085,0.0430708,2.59053,9.2677,-0.114152,-0.0140495,-0.122017,0
2024-11-29 17:59:02.085,0.0430708,2.59053,9.2677,-0.114152,-0.0140495,-0.122017,0
2024-11-29 17:59:02.086,0.0430708,2.59053,9.2677,-0.11965,-0.020158,-0.119573,0
2024-11-29 17:59:02.086,0.0430708,2.59053,9.2677,-0.11965,-0.020158,-0.119573,0
2024-11-29 17:59:02.087,0.066999,2.57857,9.25305,-0.11965,-0.020158,-0.119573,0
2024-11-29 17:59:02.087,0.066999,2.57857,9.25305,-0.11965,-0.020158,-0.119573,0
2024-11-29 17:59:02.087,0.066999,2.57857,9.25305,-0.11965,-0.020158,-0.119573,0
2024-11-29 17:59:02.087,0.066999,2.57857,9.25305,-0.11965,-0.020158,-0.119573,0
2024-11-29 17:59:02.088,0.066999,2.57857,9.25305,-0.125758,-0.0226013,-0.118352,0
2024-11-29 17:59:02.088,0.066999,2.57857,9.25305,-0.125758,-0.0226013,-0.118352,0
2024-11-29 17:59:02.088,0.066999,2.57857,9.25305,-0.125758,-0.0226013,-0.118352,0
2024-11-29 17:59:02.089,0.0909273,2.57617,9.24826,-0.125758,-0.0226013,-0.118352,0
2024-11-29 17:59:02.090,0.0909273,2.57617,9.24826,-0.125758,-0.0226013,-0.118352,0
2024-11-29 17:59:02.092,0.0885344,2.58335,9.24347,-0.129423,-0.0262664,-0.11713,0
2024-11-29 17:59:02.092,0.0885344,2.58335,9.24347,-0.129423,-0.0262664,-0.11713,0
2024-11-29 17:59:02.092,0.0909273,2.58335,9.24347,-0.129423,-0.0262664,-0.11713,0
2024-11-29 17:59:02.093,0.0885344,2.58335,9.24347,-0.132477,-0.0299315,-0.116519,0
2024-11-29 17:59:02.093,0.0885344,2.58335,9.24347,-0.132477,-0.0299315,-0.116519,0
2024-11-29 17:59:02.093,0.0885344,2.58335,9.24347,-0.132477,-0.0299315,-0.116519,0
2024-11-29 17:59:02.094,0.0957129,2.58814,9.2363,-0.132477,-0.0299315,-0.116519,0
2024-11-29 17:59:02.094,0.0957129,2.58814,9.2363,-0.132477,-0.0299315,-0.116519,0
2024-11-29 17:59:02.095,0.0957129,2.58814,9.2363,-0.137364,-0.03604,-0.114687,0
2024-11-29 17:59:02.095,0.0957129,2.58814,9.2363,-0.137364,-0.03604,-0.114687,0
2024-11-29 17:59:02.096,0.105284,2.59292,9.2339,-0.137364,-0.03604,-0.114687,0
2024-11-29 17:59:02.096,0.105284,2.59292,9.2339,-0.137364,-0.03604,-0.114687,0
2024-11-29 17:59:02.096,0.105284,2.59292,9.2339,-0.137364,-0.03604,-0.114687,0
2024-11-29 17:59:02.096,0.105284,2.59292,9.2339,-0.137364,-0.03604,-0.114687,0
2024-11-29 17:59:02.097,0.105284,2.59292,9.2339,-0.137364,-0.03604,-0.114687,0
2024-11-29 17:59:02.097,0.105284,2.59292,9.2339,-0.137364,-0.03604,-0.114687,0
2024-11-29 17:59:02.097,0.105284,2.59292,9.2339,-0.137364,-0.03604,-0.114687,0
2024-11-29 17:59:02.097,0.105284,2.59292,9.2339,-0.137364,-0.03604,-0.114687,0
2024-11-29 17:59:02.097,0.105284,2.59292,9.2339,-0.137364,-0.03604,-0.114687,0
2024-11-29 17:59:02.097,0.105284,2.59292,9.2339,-0.137364,-0.03604,-0.114687,0
2024-11-29 17:59:02.099,0.112463,2.61207,9.24347,-0.141029,-0.0384834,-0.113465,0
2024-11-29 17:59:02.099,0.112463,2.61207,9.24347,-0.141029,-0.0384834,-0.113465,0
2024-11-29 17:59:02.100,0.112463,2.61207,9.24347,-0.144694,-0.0427593,-0.109189,0
2024-11-29 17:59:02.100,0.112463,2.61207,9.24347,-0.144694,-0.0427593,-0.109189,0
2024-11-29 17:59:02.100,0.112463,2.61207,9.24347,-0.144694,-0.0427593,-0.109189,0
2024-11-29 17:59:02.100,0.112463,2.61207,9.24347,-0.144694,-0.0427593,-0.109189,0
2024-11-29 17:59:02.101,0.124427,2.64556,9.26292,-0.144694,-0.0427593,-0.109189,0
2024-11-29 17:59:02.101,0.124427,2.64556,9.26292,-0.144694,-0.0427593,-0.109189,0
2024-11-29 17:59:02.101,0.124427,2.64556,9.26292,-0.144694,-0.0427593,-0.109189,0
2024-11-29 17:59:02.101,0.124427,2.64556,9.26292,-0.144694,-0.0427593,-0.109189,0
2024-11-29 17:59:02.102,0.124427,2.64556,9.26292,-0.14836,-0.0476461,-0.110411,0
2024-11-29 17:59:02.102,0.124427,2.64556,9.26292,-0.14836,-0.0476461,-0.110411,0
2024-11-29 17:59:02.102,0.124427,2.64556,9.26292,-0.14836,-0.0476461,-0.110411,0
2024-11-29 17:59:02.103,0.129212,2.65753,9.27488,-0.14836,-0.0476461,-0.110411,0
2024-11-29 17:59:02.103,0.129212,2.65753,9.27488,-0.14836,-0.0476461,-0.110411,0
2024-11-29 17:59:02.103,0.129212,2.65753,9.27488,-0.14836,-0.0476461,-0.110411,0
2024-11-29 17:59:02.104,0.129212,2.65753,9.27488,-0.14836,-0.0476461,-0.110411,0
2024-11-29 17:59:02.104,0.129212,2.65753,9.27488,-0.14836,-0.0476461,-0.110411,0
2024-11-29 17:59:02.104,0.129212,2.65753,9.27488,-0.14836,-0.0476461,-0.110411,0
2024-11-29 17:59:02.104,0.129212,2.65753,9.27488,-0.14836,-0.0476461,-0.110411,0
2024-11-29 17:59:02.106,0.157926,2.65514,9.29163,-0.149581,-0.051922,-0.1098,0
2024-11-29 17:59:02.106,0.157926,2.65514,9.29163,-0.149581,-0.051922,-0.1098,0
2024-11-29 17:59:02.106,0.157926,2.65514,9.29163,-0.149581,-0.051922,-0.1098,0
2024-11-29 17:59:02.106,0.157926,2.65514,9.29163,-0.149581,-0.051922,-0.1098,0
2024-11-29 17:59:02.107,0.157926,2.65514,9.29163,-0.152635,-0.0561979,-0.107356,0
2024-11-29 17:59:02.107,0.157926,2.65514,9.29163,-0.152635,-0.0561979,-0.107356,0
2024-11-29 17:59:02.107,0.157926,2.65514,9.29163,-0.152635,-0.0561979,-0.107356,0
2024-11-29 17:59:02.108,0.191426,2.67189,9.32034,-0.152635,-0.0561979,-0.107356,0
2024-11-29 17:59:02.108,0.191426,2.67189,9.32034,-0.152635,-0.0561979,-0.107356,0
2024-11-29 17:59:02.108,0.191426,2.67189,9.32034,-0.152635,-0.0561979,-0.107356,0
2024-11-29 17:59:02.109,0.191426,2.67189,9.32034,-0.153857,-0.0586413,-0.107356,0
2024-11-29 17:59:02.109,0.191426,2.67189,9.32034,-0.153857,-0.0586413,-0.107356,0
2024-11-29 17:59:02.109,0.191426,2.67189,9.32034,-0.153857,-0.0586413,-0.107356,0
2024-11-29 17:59:02.109,0.191426,2.67189,9.32034,-0.153857,-0.0586413,-0.107356,0
2024-11-29 17:59:02.109,0.191426,2.67189,9.32034,-0.153857,-0.0586413,-0.107356,0
2024-11-29 17:59:02.109,0.191426,2.67189,9.32034,-0.153857,-0.0586413,-0.107356,0
2024-11-29 17:59:02.111,0.217747,2.68864,9.32752,-0.153857,-0.0586413,-0.107356,0
2024-11-29 17:59:02.111,0.217747,2.68864,9.32752,-0.153857,-0.0586413,-0.107356,0
2024-11-29 17:59:02.111,0.217747,2.68864,9.32752,-0.153857,-0.0586413,-0.107356,0
2024-11-29 17:59:02.111,0.217747,2.68864,9.32752,-0.153857,-0.0586413,-0.107356,0
2024-11-29 17:59:02.111,0.217747,2.68864,9.32752,-0.153857,-0.0586413,-0.107356,0
2024-11-29 17:59:02.112,0.217747,2.68864,9.32752,-0.15569,-0.0610847,-0.106746,0
2024-11-29 17:59:02.112,0.217747,2.68864,9.32752,-0.15569,-0.0610847,-0.106746,0
2024-11-29 17:59:02.112,0.217747,2.68864,9.32752,-0.15569,-0.0610847,-0.106746,0
2024-11-29 17:59:02.112,0.217747,2.68864,9.32752,-0.15569,-0.0610847,-0.106746,0
2024-11-29 17:59:02.113,0.246461,2.69342,9.32513,-0.15569,-0.0610847,-0.106746,0
2024-11-29 17:59:02.114,0.246461,2.69342,9.32513,-0.158744,-0.0671932,-0.107967,0
2024-11-29 17:59:02.116,0.267996,2.71256,9.34427,-0.163631,-0.07208,-0.109189,0
2024-11-29 17:59:02.118,0.297009,2.7341,9.37059,-0.163631,-0.07208,-0.109189,0
2024-11-29 17:59:02.120,0.320937,2.74606,9.39452,-0.164852,-0.0714691,-0.111021,0
2024-11-29 17:59:02.123,0.32333,2.77956,9.43041,-0.169739,-0.0616956,-0.113465,0
2024-11-29 17:59:02.128,0.297009,2.85135,9.52134,-0.166074,-0.0415376,-0.115908,0
2024-11-29 17:59:02.129,0.297009,2.85135,9.52134,-0.166074,-0.0415376,-0.115908,0
2024-11-29 17:59:02.130,0.265603,2.87767,9.5333,-0.166074,-0.0415376,-0.115908,0
2024-11-29 17:59:02.132,0.253639,2.88963,9.54288,-0.163631,-0.0262664,-0.115908,0
2024-11-29 17:59:02.134,0.265603,2.87288,9.5357,-0.157522,-0.0116061,-0.115297,0
2024-11-29 17:59:02.137,0.285045,2.84895,9.51177,-0.157522,-0.00122169,-0.115297,0
2024-11-29 17:59:02.139,0.297009,2.82503,9.47827,-0.154468,0.00733017,-0.115297,0
2024-11-29 17:59:02.141,0.313759,2.78674,9.42323,-0.15569,0.0140495,-0.116519,0
2024-11-29 17:59:02.145,0.325723,2.75563,9.35624,-0.159355,0.0183254,-0.120184,0
2024-11-29 17:59:02.147,0.299402,2.75085,9.30599,-0.162409,0.0250447,-0.119573,0
2024-11-29 17:59:02.148,0.256032,2.74846,9.26531,-0.164242,0.0348183,-0.117741,0
2024-11-29 17:59:02.151,0.217747,2.75085,9.22433,-0.17035,0.0433702,-0.118963,0
2024-11-29 17:59:02.154,0.198604,2.75563,9.19322,-0.175237,0.0500895,-0.116519,0
2024-11-29 17:59:02.156,0.167498,2.75803,9.17408,-0.180124,0.0568088,-0.114687,0
2024-11-29 17:59:02.159,0.131605,2.77238,9.18126,-0.189897,0.0696366,-0.105524,0
2024-11-29 17:59:02.161,0.117248,2.76042,9.18605,-0.194784,0.0690257,-0.0988045,0
2024-11-29 17:59:02.162,0.124427,2.73888,9.19083,-0.194784,0.0690257,-0.0988045,0
2024-11-29 17:59:02.165,0.138784,2.72213,9.18844,-0.199671,0.0690257,-0.0933069,0
2024-11-29 17:59:02.168,0.145962,2.69821,9.17887,-0.201503,0.0671932,-0.0817008,0
2024-11-29 17:59:02.170,0.172283,2.68385,9.18605,-0.201503,0.0671932,-0.0817008,0
2024-11-29 17:59:02.173,0.193819,2.67906,9.2028,-0.20639,0.0684149,-0.0780357,0
2024-11-29 17:59:02.174,0.196211,2.68146,9.20997,-0.20639,0.0684149,-0.0780357,0
2024-11-29 17:59:02.176,0.179462,2.69103,9.22194,-0.210666,0.0714691,-0.0737598,0
2024-11-29 17:59:02.180,0.177069,2.7006,9.24826,-0.210666,0.0775776,-0.0627646,0
2024-11-29 17:59:02.182,0.174676,2.71017,9.25544,-0.208223,0.0787993,-0.0578778,0
2024-11-29 17:59:02.184,0.174676,2.73171,9.26531,-0.208223,0.0787993,-0.0578778,0
2024-11-29 17:59:02.186,0.179462,2.74606,9.28206,-0.207001,0.0787993,-0.0511585,0
2024-11-29 17:59:02.188,0.177069,2.74846,9.27727,-0.204557,0.0787993,-0.0456608,0
2024-11-29 17:59:02.191,0.184247,2.75563,9.26292,-0.202725,0.0745234,-0.0395524,0
2024-11-29 17:59:02.194,0.193819,2.75324,9.25305,-0.205168,0.0659715,-0.0273354,0
2024-11-29 17:59:02.196,0.222533,2.74606,9.2363,-0.205168,0.0659715,-0.0273354,0
2024-11-29 17:59:02.198,0.258425,2.74846,9.21715,-0.204557,0.0623064,-0.0218378,0
2024-11-29 17:59:02.201,0.27996,2.76281,9.19322,-0.208223,0.051922,-0.0151185,0
2024-11-29 17:59:02.203,0.294616,2.76281,9.1669,-0.208223,0.0458135,-0.00962084,0
2024-11-29 17:59:02.205,0.313759,2.7676,9.15015,-0.210055,0.0354291,-0.00656661,0
2024-11-29 17:59:02.207,0.344866,2.79631,9.14537,-0.217385,0.0244339,-0.00167983,0
2024-11-29 17:59:02.210,0.368794,2.82024,9.15015,-0.222883,0.0140495,0.00320695,0
2024-11-29 17:59:02.213,0.387936,2.84417,9.15494,-0.229602,0.00183254,0.00809373,0
2024-11-29 17:59:02.217,0.452543,2.85374,9.15973,-0.243652,-0.023823,0.014813,0
2024-11-29 17:59:02.217,0.452543,2.85374,9.15973,-0.243652,-0.023823,0.014813,0
2024-11-29 17:59:02.220,0.490828,2.8681,9.18365,-0.263199,-0.0543654,0.0209215,0
2024-11-29 17:59:02.221,0.536291,2.8681,9.2004,-0.263199,-0.0543654,0.0209215,0
2024-11-29 17:59:02.226,0.651147,2.87528,9.28206,-0.282135,-0.0830752,0.0258083,0
2024-11-29 17:59:02.227,0.651147,2.87528,9.28206,-0.282135,-0.0830752,0.0258083,0
2024-11-29 17:59:02.228,0.71336,2.88963,9.34427,-0.294352,-0.102622,0.0276408,0
2024-11-29 17:59:02.232,0.773181,2.9016,9.40648,-0.304126,-0.117283,0.0245866,0
2024-11-29 17:59:02.235,0.859622,2.95424,9.5692,-0.323673,-0.142938,0.0233649,0
2024-11-29 17:59:02.236,0.818644,2.95424,9.5692,-0.323673,-0.142938,0.0233649,0
2024-11-29 17:59:02.238,0.895514,2.97817,9.65534,-0.332225,-0.152101,0.0209215,0
2024-11-29 17:59:02.241,0.909871,3.00449,9.73909,-0.347496,-0.163096,0.0178673,0
2024-11-29 17:59:02.243,0.924228,3.03799,9.82792,-0.347496,-0.163096,0.0178673,0
2024-11-29 17:59:02.246,0.929013,3.05952,9.92603,-0.354215,-0.167983,0.0160347,0
2024-11-29 17:59:02.248,0.926621,3.07627,9.99781,-0.365821,-0.175924,0.0135914,0
2024-11-29 17:59:02.251,0.921835,3.09332,10.0792,-0.365821,-0.175924,0.0135914,0
2024-11-29 17:59:02.257,0.945763,3.13161,10.2467,-0.374984,-0.178367,0.0105371,0
2024-11-29 17:59:02.257,0.979263,3.15553,10.34,-0.374984,-0.178367,0.0105371,0
2024-11-29 17:59:02.258,0.979263,3.15553,10.34,-0.374984,-0.178367,0.0105371,0
2024-11-29 17:59:02.260,0.998405,3.17946,10.4384,-0.378038,-0.176535,0.00931542,0
2024-11-29 17:59:02.262,0.996012,3.21775,10.5413,-0.378649,-0.171037,0.00442864,0
2024-11-29 17:59:02.265,0.988834,3.24885,10.6322,-0.378649,-0.171037,0.00442864,0
2024-11-29 17:59:02.266,0.979263,3.27278,10.7112,-0.37193,-0.162485,0.0025961,0
2024-11-29 17:59:02.268,0.969691,3.31107,10.7901,-0.368875,-0.150268,0.000152712,0
2024-11-29 17:59:02.271,0.96012,3.33739,10.8571,-0.361545,-0.139273,-0.00167983,0
2024-11-29 17:59:02.274,0.96012,3.3685,10.9436,-0.34322,-0.111174,-0.00351237,0
2024-11-29 17:59:02.275,0.94337,3.40917,11.0154,-0.34322,-0.111174,-0.00351237,0
2024-11-29 17:59:02.279,0.921835,3.46421,11.0489,-0.318175,-0.0745234,-0.00962084,0
2024-11-29 17:59:02.281,0.890728,3.50489,11.068,-0.318175,-0.0745234,-0.00962084,0
2024-11-29 17:59:02.282,0.84018,3.51685,11.0489,-0.305958,-0.0555871,-0.0145076,0
2024-11-29 17:59:02.285,0.818644,3.52164,10.9723,-0.29313,-0.0299315,-0.0163402,0
2024-11-29 17:59:02.288,0.813859,3.51685,10.8906,-0.280913,-0.00549763,-0.0212269,0
2024-11-29 17:59:02.291,0.801895,3.50249,10.8236,-0.269918,0.020158,-0.024892,0
2024-11-29 17:59:02.293,0.770788,3.49292,10.7471,-0.255869,0.0665824,-0.0322222,0
2024-11-29 17:59:02.294,0.708575,3.51924,10.6633,-0.255869,0.0665824,-0.0322222,0
2024-11-29 17:59:02.297,0.617647,3.54556,10.5867,-0.249149,0.0849078,-0.0340547,0
2024-11-29 17:59:02.299,0.507577,3.55514,10.5197,-0.243652,0.0989573,-0.0352764,0
2024-11-29 17:59:02.302,0.409472,3.57667,10.4527,-0.237543,0.10812,-0.0310005,0
2024-11-29 17:59:02.304,0.344866,3.58624,10.3881,-0.231435,0.11545,-0.0267246,0
2024-11-29 17:59:02.307,0.297009,3.58146,10.3232,-0.226548,0.117894,-0.0224486,0
2024-11-29 17:59:02.308,0.253639,3.57189,10.2682,-0.222272,0.117894,-0.0187836,0
2024-11-29 17:59:02.311,0.205783,3.56471,10.2275,-0.214331,0.11545,-0.0138968,0
2024-11-29 17:59:02.313,0.16989,3.58146,10.1749,-0.208833,0.109953,-0.0114534,0
2024-11-29 17:59:02.316,0.145962,3.59103,10.127,-0.202114,0.105677,-0.00717746,0
2024-11-29 17:59:02.319,0.117248,3.59581,10.0911,-0.196616,0.101401,-0.00290152,0
2024-11-29 17:59:02.320,0.0789631,3.61256,10.0648,-0.189286,0.0940705,-0.00106898,0
2024-11-29 17:59:02.323,0.0478565,3.62931,10.0433,-0.178902,0.0861295,0.00442864,0
2024-11-29 17:59:02.326,0.026321,3.64367,10.017,-0.157522,0.067804,0.0123697,0
2024-11-29 17:59:02.328,0.00717847,3.67747,9.99781,-0.157522,0.067804,0.0123697,0
2024-11-29 17:59:02.330,-0.00957129,3.71097,9.97628,-0.146527,0.0561979,0.0142022,0
2024-11-29 17:59:02.332,-0.0239282,3.71815,9.94756,-0.136753,0.0415376,0.0166456,0
2024-11-29 17:59:02.334,-0.0358923,3.72772,9.92124,-0.122093,0.0287098,0.0172564,0
2024-11-29 17:59:02.338,-0.0358923,3.73729,9.88056,-0.109876,0.0164929,0.0184781,0
2024-11-29 17:59:02.339,-0.0287139,3.7325,9.83988,-0.0988809,0.00183254,0.0203107,0
2024-11-29 17:59:02.342,-0.0215354,3.72293,9.80369,-0.0878856,-0.00916271,0.0203107,0
2024-11-29 17:59:02.344,-0.00239282,3.71336,9.76062,-0.0768904,-0.023823,0.019089,0
2024-11-29 17:59:02.346,0.0358923,3.70618,9.70559,-0.0695602,-0.0372617,0.0172564,0
2024-11-29 17:59:02.349,0.0598206,3.69661,9.65773,-0.058565,-0.0513112,0.0166456,0
2024-11-29 17:59:02.352,0.066999,3.68465,9.61466,-0.0500131,-0.0635281,0.0154239,0
2024-11-29 17:59:02.353,0.0789631,3.68704,9.57638,-0.0445155,-0.0757451,0.00992627,0
2024-11-29 17:59:02.356,0.102891,3.67508,9.54527,-0.0390179,-0.0885729,0.00809373,0
2024-11-29 17:59:02.359,0.129212,3.66311,9.50938,-0.0359636,-0.0983464,0.00442864,0
2024-11-29 17:59:02.361,0.157926,3.67508,9.48784,-0.0280226,-0.10812,-0.00106898,0
2024-11-29 17:59:02.363,0.181855,3.6679,9.47348,-0.0249684,-0.116672,-0.00473407,0
2024-11-29 17:59:02.366,0.196211,3.65833,9.46391,-0.022525,-0.123391,-0.00962084,0
2024-11-29 17:59:02.368,0.224925,3.65115,9.46391,-0.0182491,-0.1295,-0.024892,0
2024-11-29 17:59:02.371,0.256032,3.62692,9.44716,-0.0170274,-0.13011,-0.0310005,0
2024-11-29 17:59:02.373,0.289831,3.61017,9.41845,-0.0164165,-0.128278,-0.037109,0
2024-11-29 17:59:02.375,0.316152,3.59103,9.41845,-0.0164165,-0.128278,-0.037109,0
2024-11-29 17:59:02.378,0.32333,3.56949,9.40648,-0.014584,-0.119115,-0.0572669,0
2024-11-29 17:59:02.379,0.342473,3.5336,9.39213,-0.014584,-0.119115,-0.0572669,0
2024-11-29 17:59:02.381,0.378365,3.49053,9.39452,-0.0151948,-0.113618,-0.0664296,0
2024-11-29 17:59:02.385,0.402293,3.44746,9.38734,-0.0164165,-0.102011,-0.0841442,0
2024-11-29 17:59:02.386,0.414257,3.40439,9.3682,-0.0164165,-0.102011,-0.0841442,0
2024-11-29 17:59:02.388,0.419043,3.37089,9.34666,-0.0188599,-0.0928488,-0.096972,0
2024-11-29 17:59:02.391,0.41665,3.335,9.32992,-0.0219141,-0.0861295,-0.104913,0
2024-11-29 17:59:02.393,0.409472,3.29432,9.31316,-0.0268009,-0.0775776,-0.114076,0
2024-11-29 17:59:02.397,0.392722,3.25603,9.30359,-0.030466,-0.0690257,-0.122628,0
2024-11-29 17:59:02.398,0.383151,3.22493,9.29642,-0.0347419,-0.0580305,-0.129347,0
2024-11-29 17:59:02.400,0.387936,3.18425,9.28924,-0.0402396,-0.0476461,-0.137288,0
2024-11-29 17:59:02.404,0.361615,3.15075,9.29402,-0.0487914,-0.023823,-0.150116,0
2024-11-29 17:59:02.405,0.325723,3.11246,9.29642,-0.0487914,-0.023823,-0.150116,0
2024-11-29 17:59:02.408,0.330509,3.06431,9.30359,-0.0536782,-0.015882,-0.15317,0
2024-11-29 17:59:02.411,0.325723,3.01406,9.32513,-0.0597867,-0.00671932,-0.159278,0
2024-11-29 17:59:02.412,0.308973,2.98295,9.35384,-0.0622301,0.00183254,-0.164165,0
2024-11-29 17:59:02.415,0.301795,2.95902,9.37059,-0.0628409,0.0109953,-0.165998,0
2024-11-29 17:59:02.417,0.299402,2.91595,9.39213,-0.0677277,0.0183254,-0.170274,0
2024-11-29 17:59:02.420,0.304188,2.88963,9.40409,-0.0683385,0.0256556,-0.172717,0
2024-11-29 17:59:02.421,0.297009,2.85613,9.40648,-0.0695602,0.0354291,-0.175771,0
2024-11-29 17:59:02.425,0.272782,2.81306,9.42084,-0.0713928,0.0525329,-0.179436,0
2024-11-29 17:59:02.427,0.248854,2.79871,9.43281,-0.0695602,0.0610847,-0.184323,0
2024-11-29 17:59:02.430,0.232104,2.79871,9.44238,-0.0695602,0.0610847,-0.184323,0
2024-11-29 17:59:02.431,0.222533,2.77956,9.44477,-0.0689494,0.0671932,-0.185545,0
2024-11-29 17:59:02.433,0.20339,2.74606,9.4352,-0.0689494,0.0745234,-0.187377,0
2024-11-29 17:59:02.436,0.181855,2.72931,9.42802,-0.066506,0.0812427,-0.187988,0
2024-11-29 17:59:02.439,0.16989,2.73171,9.42323,-0.0646735,0.0855186,-0.186156,0
2024-11-29 17:59:02.440,0.160319,2.70539,9.39452,-0.0622301,0.0891837,-0.186767,0
2024-11-29 17:59:02.443,0.155533,2.67667,9.35863,-0.0634518,0.0934596,-0.185545,0
2024-11-29 17:59:02.445,0.155533,2.65514,9.3347,-0.0622301,0.0940705,-0.186156,0
2024-11-29 17:59:02.448,0.160319,2.62642,9.29642,-0.0622301,0.095903,-0.184934,0
2024-11-29 17:59:02.450,0.153141,2.59771,9.25544,-0.0622301,0.095903,-0.184934,0
2024-11-29 17:59:02.452,0.145962,2.56182,9.22433,-0.0634518,0.0983464,-0.183712,0
2024-11-29 17:59:02.454,0.150748,2.54028,9.19801,-0.066506,0.0989573,-0.184934,0
2024-11-29 17:59:02.458,0.150748,2.52084,9.1669,-0.0701711,0.0965139,-0.182491,0
2024-11-29 17:59:02.459,0.150748,2.50648,9.1334,-0.0732253,0.0952922,-0.183712,0
2024-11-29 17:59:02.463,0.150748,2.49452,9.10948,-0.082388,0.0897945,-0.180047,0
2024-11-29 17:59:02.464,0.162712,2.47777,9.09751,-0.082388,0.0897945,-0.180047,0
2024-11-29 17:59:02.466,0.177069,2.4682,9.08794,-0.0897182,0.0849078,-0.179436,0
2024-11-29 17:59:02.469,0.172283,2.44905,9.07598,-0.094605,0.0812427,-0.179436,0
2024-11-29 17:59:02.471,0.181855,2.42991,9.07119,-0.101324,0.0763559,-0.178215,0
2024-11-29 17:59:02.473,0.191426,2.42273,9.08315,-0.108044,0.0708583,-0.175771,0
2024-11-29 17:59:02.477,0.20339,2.42991,9.0999,-0.120871,0.0616956,-0.172106,0
2024-11-29 17:59:02.479,0.215354,2.42273,9.12383,-0.120871,0.0616956,-0.172106,0
2024-11-29 17:59:02.480,0.227318,2.41316,9.15255,-0.126369,0.0586413,-0.169052,0
2024-11-29 17:59:02.484,0.236889,2.40359,9.19083,-0.133088,0.0555871,-0.16783,0
2024-11-29 17:59:02.485,0.265603,2.4012,9.23151,-0.139197,0.0513112,-0.166609,0
2024-11-29 17:59:02.488,0.299402,2.40838,9.28445,-0.143473,0.0507003,-0.166609,0
2024-11-29 17:59:02.491,0.30658,2.40359,9.3347,-0.147138,0.0500895,-0.163554,0
2024-11-29 17:59:02.492,0.328116,2.40838,9.37777,-0.152635,0.0482569,-0.1605,0
2024-11-29 17:59:02.494,0.34008,2.41555,9.42802,-0.152025,0.0494786,-0.159889,0
2024-11-29 17:59:02.498,0.349651,2.41555,9.47109,-0.152635,0.0500895,-0.158057,0
2024-11-29 17:59:02.500,0.366401,2.42513,9.49502,-0.152025,0.0525329,-0.155002,0
2024-11-29 17:59:02.503,0.383151,2.41795,9.52134,-0.151414,0.0574196,-0.155002,0
2024-11-29 17:59:02.505,0.387936,2.4012,9.54048,-0.150192,0.0647498,-0.149505,0
2024-11-29 17:59:02.507,0.385544,2.40598,9.55245,-0.150192,0.0690257,-0.148283,0
2024-11-29 17:59:02.509,0.375972,2.41316,9.5692,-0.150192,0.0690257,-0.148283,0
2024-11-29 17:59:02.511,0.368794,2.4012,9.58116,-0.149581,0.07208,-0.145229,0
2024-11-29 17:59:02.514,0.373579,2.39402,9.58355,-0.150192,0.0794101,-0.142175,0
2024-11-29 17:59:02.517,0.359223,2.4012,9.56202,-0.14836,0.0830752,-0.13851,0
2024-11-29 17:59:02.518,0.342473,2.40359,9.5357,-0.147749,0.0885729,-0.132401,0
2024-11-29 17:59:02.520,0.328116,2.40838,9.51895,-0.146527,0.0946813,-0.126293,0
2024-11-29 17:59:02.524,0.304188,2.42752,9.49981,-0.150192,0.105677,-0.115297,0
2024-11-29 17:59:02.526,0.294616,2.44905,9.47109,-0.150803,0.111785,-0.107967,0
2024-11-29 17:59:02.528,0.287438,2.45863,9.43281,-0.150803,0.111785,-0.107967,0
2024-11-29 17:59:02.531,0.256032,2.4682,9.4017,-0.159966,0.118504,-0.0902527,0
2024-11-29 17:59:02.532,0.222533,2.50648,9.35624,-0.159966,0.118504,-0.0902527,0
2024-11-29 17:59:02.536,0.212961,2.54028,9.33709,-0.164852,0.121559,-0.0823117,0
2024-11-29 17:59:02.540,0.205783,2.59532,9.31077,-0.17768,0.125224,-0.0603212,0
2024-11-29 17:59:02.540,0.193819,2.59532,9.31077,-0.17768,0.125224,-0.0603212,0
2024-11-29 17:59:02.542,0.184247,2.63121,9.31077,-0.17768,0.125224,-0.0603212,0
2024-11-29 17:59:02.545,0.172283,2.67906,9.30599,-0.183178,0.122169,-0.0536018,0
2024-11-29 17:59:02.553,0.162712,2.89681,9.38495,-0.19906,0.102622,-0.0261137,0
2024-11-29 17:59:02.553,0.162712,2.89681,9.38495,-0.19906,0.102622,-0.0261137,0
2024-11-29 17:59:02.557,0.162712,2.95424,9.41845,-0.204557,0.0855186,-0.0163402,0
2024-11-29 17:59:02.557,0.162712,2.95424,9.41845,-0.204557,0.0855186,-0.0163402,0
2024-11-29 17:59:02.557,0.162712,2.95424,9.41845,-0.204557,0.0855186,-0.0163402,0
2024-11-29 17:59:02.559,0.157926,3.00449,9.4352,-0.204557,0.0855186,-0.0163402,0
2024-11-29 17:59:02.560,0.155533,3.04995,9.46631,-0.20639,0.0769668,-0.0114534,0
2024-11-29 17:59:02.564,0.162712,3.09093,9.51655,-0.207001,0.0592522,-0.00412322,0
2024-11-29 17:59:02.565,0.172283,3.12921,9.55723,-0.207001,0.0592522,-0.00412322,0
2024-11-29 17:59:02.568,0.189033,3.16511,9.6027,-0.208223,0.0488678,-0.000458135,0
2024-11-29 17:59:02.570,0.215354,3.18664,9.6362,-0.208833,0.0397051,0.00137441,0
2024-11-29 17:59:02.572,0.232104,3.21536,9.6697,-0.205168,0.0256556,0.00442864,0
2024-11-29 17:59:02.576,0.256032,3.24407,9.71516,-0.204557,0.0122169,0.00442864,0
2024-11-29 17:59:02.577,0.275175,3.25843,9.75344,-0.203947,-0.00122169,0.00687203,0
2024-11-29 17:59:02.580,0.292223,3.28235,9.79891,-0.202114,-0.0329858,0.00992627,0
2024-11-29 17:59:02.583,0.316152,3.30868,9.84946,-0.203336,-0.0482569,0.00931542,0
2024-11-29 17:59:02.585,0.325723,3.3326,9.90688,-0.203336,-0.0482569,0.00931542,0
2024-11-29 17:59:02.587,0.35683,3.335,9.9667,-0.198449,-0.064139,0.00992627,0
2024-11-29 17:59:02.590,0.380758,3.34457,10.0385,-0.196616,-0.0965139,0.0135914,0
2024-11-29 17:59:02.591,0.385544,3.35892,10.1151,-0.196616,-0.0965139,0.0135914,0
2024-11-29 17:59:02.593,0.409472,3.36371,10.1964,-0.196616,-0.114839,0.0142022,0
2024-11-29 17:59:02.596,0.435793,3.38525,10.2945,-0.195395,-0.137441,0.014813,0
2024-11-29 17:59:02.598,0.452543,3.40439,10.3953,-0.192951,-0.156988,0.0160347,0
2024-11-29 17:59:02.601,0.452543,3.42114,10.5054,-0.189286,-0.176535,0.0166456,0
2024-11-29 17:59:02.604,0.45015,3.43071,10.6322,-0.176459,-0.206466,0.0184781,0
2024-11-29 17:59:02.605,0.452543,3.46899,10.759,-0.176459,-0.206466,0.0184781,0
2024-11-29 17:59:02.608,0.454935,3.50728,10.8882,-0.170961,-0.216851,0.0196998,0
2024-11-29 17:59:02.611,0.471685,3.52403,11.013,-0.150192,-0.227235,0.0215324,0
2024-11-29 17:59:02.613,0.488435,3.54796,11.1446,-0.150192,-0.227235,0.0215324,0
2024-11-29 17:59:02.616,0.490828,3.56949,11.2666,-0.139197,-0.2309,0.0233649,0
2024-11-29 17:59:02.617,0.490828,3.59342,11.3719,-0.126369,-0.229068,0.0209215,0
2024-11-29 17:59:02.619,0.471685,3.61256,11.458,-0.110487,-0.222959,0.0239758,0
2024-11-29 17:59:02.622,0.440578,3.63889,11.5325,-0.0927724,-0.215018,0.0251975,0
2024-11-29 17:59:02.625,0.423829,3.6679,11.6091,-0.0756687,-0.205856,0.02703,0
2024-11-29 17:59:02.627,0.402293,3.68943,11.6665,-0.058565,-0.19486,0.0288625,0
2024-11-29 17:59:02.630,0.373579,3.69661,11.6976,-0.0420721,-0.179589,0.0306951,0
2024-11-29 17:59:02.632,0.344866,3.7014,11.7072,-0.0255792,-0.166761,0.0343602,0
2024-11-29 17:59:02.633,0.316152,3.71575,11.7072,-0.0139731,-0.153934,0.0380252,0
2024-11-29 17:59:02.636,0.301795,3.72533,11.7024,0.00129805,-0.138051,0.0416903,0
2024-11-29 17:59:02.639,0.27996,3.71575,11.6785,0.0116825,-0.124002,0.0435229,0
2024-11-29 17:59:02.641,0.251246,3.71336,11.6378,0.0232886,-0.112396,0.0477988,0
2024-11-29 17:59:02.644,0.234497,3.72293,11.6139,0.0361163,-0.087962,0.058794,0
2024-11-29 17:59:02.646,0.239282,3.71815,11.5971,0.0385597,-0.080021,0.0636808,0
2024-11-29 17:59:02.648,0.244068,3.73011,11.566,0.0385597,-0.080021,0.0636808,0
2024-11-29 17:59:02.651,0.234497,3.74208,11.5445,0.041614,-0.0635281,0.0758978,0
2024-11-29 17:59:02.653,0.234497,3.74925,11.5469,0.041614,-0.0635281,0.0758978,0
2024-11-29 17:59:02.655,0.227318,3.75883,11.554,0.0403923,-0.0555871,0.0826171,0
2024-11-29 17:59:02.657,0.229711,3.77557,11.5636,0.0397814,-0.0458135,0.0905581,0
2024-11-29 17:59:02.659,0.246461,3.79232,11.5756,0.0367272,-0.0403159,0.0972774,0
2024-11-29 17:59:02.662,0.265603,3.80668,11.5995,0.033673,-0.0311532,0.102775,0
2024-11-29 17:59:02.664,0.282652,3.81625,11.6426,0.0318404,-0.0256556,0.107662,0
2024-11-29 17:59:02.667,0.311366,3.83061,11.688,0.0312296,-0.020158,0.111938,0
2024-11-29 17:59:02.670,0.359223,3.84257,11.7335,0.029397,-0.015882,0.118046,0
2024-11-29 17:59:02.671,0.392722,3.82582,11.7838,0.029397,-0.015882,0.119268,0
2024-11-29 17:59:02.674,0.419043,3.82104,11.822,0.0275645,-0.0183254,0.1211,0
2024-11-29 17:59:02.676,0.459721,3.84018,11.8627,0.0269536,-0.020158,0.124766,0
2024-11-29 17:59:02.678,0.498006,3.86172,11.913,0.0251211,-0.0250447,0.123544,0
2024-11-29 17:59:02.681,0.536291,3.85693,11.956,0.0245102,-0.0293207,0.119879,0
2024-11-29 17:59:02.683,0.593719,3.85693,12.0015,0.0245102,-0.0323749,0.116825,0
2024-11-29 17:59:02.686,0.639183,3.87129,12.0613,0.0220669,-0.0354291,0.112549,0
2024-11-29 17:59:02.688,0.655932,3.88325,12.1119,0.0251211,-0.0354291,0.108273,0
2024-11-29 17:59:02.691,0.667897,3.90479,12.1645,0.0226777,-0.03604,0.0978883,0
2024-11-29 17:59:02.693,0.670289,3.91675,12.2363,0.0226777,-0.03604,0.0978883,0
2024-11-29 17:59:02.696,0.665504,3.91914,12.2842,0.0238994,-0.0348183,0.0844496,0
2024-11-29 17:59:02.697,0.679861,3.92632,12.3296,0.0238994,-0.0348183,0.0844496,0
2024-11-29 17:59:02.700,0.696611,3.92154,12.3799,0.0226777,-0.0317641,0.0801737,0
2024-11-29 17:59:02.703,0.708575,3.90479,12.4038,0.0238994,-0.0299315,0.0716218,0
2024-11-29 17:59:02.705,0.715753,3.88564,12.4253,0.0208452,-0.0293207,0.0569615,0
2024-11-29 17:59:02.708,0.694218,3.8689,12.4588,0.0208452,-0.0293207,0.0569615,0
2024-11-29 17:59:02.709,0.65354,3.8689,12.4923,0.021456,-0.028099,0.0496313,0
2024-11-29 17:59:02.712,0.62004,3.87368,12.5282,0.0153475,-0.0274881,0.0368035,0
2024-11-29 17:59:02.715,0.598505,3.87847,12.5545,0.0153475,-0.0274881,0.0368035,0
2024-11-29 17:59:02.717,0.567398,3.85454,12.5737,0.0122933,-0.0305424,0.0313059,0
2024-11-29 17:59:02.718,0.524327,3.81625,12.6048,0.00679568,-0.0354291,0.0251975,0
2024-11-29 17:59:02.721,0.493221,3.79711,12.6239,0.00251974,-0.0397051,0.0209215,0
2024-11-29 17:59:02.723,0.469292,3.7684,12.6386,-0.00358873,-0.0482569,0.0172564,0
2024-11-29 17:59:02.725,0.447757,3.72772,12.6506,-0.0127514,-0.0525329,0.0160347,0
2024-11-29 17:59:02.729,0.41665,3.69661,12.6482,-0.0347419,-0.0507003,0.0105371,0
2024-11-29 17:59:02.731,0.375972,3.67986,12.6386,-0.0347419,-0.0507003,0.0105371,0
2024-11-29 17:59:02.732,0.347258,3.63649,12.6096,-0.0469589,-0.0433702,0.00992627,0
2024-11-29 17:59:02.735,0.371187,3.56949,12.5928,-0.0652843,-0.03604,0.00565034,0
2024-11-29 17:59:02.738,0.402293,3.52403,12.6144,-0.0829989,-0.0305424,0.00320695,0
2024-11-29 17:59:02.740,0.407079,3.48096,12.6529,-0.106211,-0.0268773,0.00198525,0
2024-11-29 17:59:02.743,0.404686,3.45464,12.7128,-0.125758,-0.0268773,-0.00106898,0
2024-11-29 17:59:02.745,0.385544,3.4331,12.7965,-0.172793,-0.0390942,0.00137441,0
2024-11-29 17:59:02.748,0.375972,3.40439,12.8922,-0.192951,-0.0494786,0.00198525,0
2024-11-29 17:59:02.750,0.392722,3.36371,13.0071,-0.211888,-0.0616956,0.00137441,0
2024-11-29 17:59:02.752,0.438186,3.2991,13.1411,-0.233878,-0.0739125,0.00320695,0
2024-11-29 17:59:02.755,0.512363,3.21296,13.2706,-0.233878,-0.0739125,0.00320695,0
2024-11-29 17:59:02.756,0.605683,3.14836,13.4046,-0.252814,-0.0867403,0.00442864,0
2024-11-29 17:59:02.758,0.699003,3.07627,13.5434,-0.268696,-0.0952922,0.00442864,0
2024-11-29 17:59:02.762,0.801895,2.99492,13.6869,-0.284578,-0.104455,0.000152712,0
2024-11-29 17:59:02.763,0.902692,2.9351,13.8428,-0.30046,-0.111785,-0.00351237,0
2024-11-29 17:59:02.765,0.979263,2.88245,13.9887,-0.312677,-0.116672,-0.0077883,0
2024-11-29 17:59:02.769,1.05344,2.82263,14.1251,-0.326727,-0.12278,-0.0218378,0
2024-11-29 17:59:02.771,1.09412,2.77478,14.2687,-0.326727,-0.12278,-0.0218378,0
2024-11-29 17:59:02.773,1.12522,2.72931,14.4341,-0.333446,-0.125224,-0.0267246,0
2024-11-29 17:59:02.775,1.16112,2.67189,14.5992,-0.33589,-0.127056,-0.0340547,0
2024-11-29 17:59:02.778,1.1994,2.61446,14.7595,-0.327338,-0.118504,-0.0481042,0
2024-11-29 17:59:02.781,1.24487,2.55942,14.9058,-0.327338,-0.118504,-0.0481042,0
2024-11-29 17:59:02.783,1.27358,2.50409,15.0518,-0.317564,-0.112396,-0.0578778,0
2024-11-29 17:59:02.785,1.28554,2.42034,15.1929,-0.303515,-0.101401,-0.0664296,0
2024-11-29 17:59:02.787,1.2664,2.35573,15.2958,-0.288244,-0.0873512,-0.0743707,0
2024-11-29 17:59:02.789,1.21854,2.31506,15.3604,-0.268086,-0.0671932,-0.0786466,3
2024-11-29 17:59:02.792,1.17787,2.24806,15.3844,-0.243652,-0.043981,-0.0847551,0
2024-11-29 17:59:02.795,1.18744,2.1332,15.4107,-0.186843,0.00305424,-0.0933069,0
2024-11-29 17:59:02.797,1.22333,1.99681,15.4445,-0.186843,0.00305424,-0.0933069,0
2024-11-29 17:59:02.799,1.21376,1.89601,15.4298,-0.156301,0.0262664,-0.0988045,0
2024-11-29 17:59:02.802,1.14676,1.79312,15.3652,-0.121482,0.0525329,-0.103691,0
2024-11-29 17:59:02.804,1.07498,1.68544,15.2982,-0.0860531,0.0818535,-0.105524,0
2024-11-29 17:59:02.806,0.988834,1.60887,15.2001,-0.0487914,0.113618,-0.104913,0
2024-11-29 17:59:02.808,0.88355,1.54666,15.0661,-0.0121406,0.149047,-0.101859,0
2024-11-29 17:59:02.810,0.789931,1.4677,14.9273,0.0300079,0.186308,-0.100026,0
2024-11-29 17:59:02.814,0.694218,1.38844,14.7739,0.0697129,0.221738,-0.0920852,0
2024-11-29 17:59:02.816,0.598505,1.32622,14.592,0.110029,0.257167,-0.08109,0
2024-11-29 17:59:02.817,0.536291,1.26401,14.3695,0.147291,0.290763,-0.0713164,0
2024-11-29 17:59:02.821,0.476471,1.19462,14.1395,0.184552,0.321306,-0.0603212,0
2024-11-29 17:59:02.823,0.404686,1.12044,13.9122,0.255411,0.376893,-0.0389415,0
2024-11-29 17:59:02.825,0.335294,1.07498,13.6702,0.288396,0.405603,-0.0236703,0
2024-11-29 17:59:02.828,0.258425,1.03669,13.4333,0.288396,0.405603,-0.0236703,0
2024-11-29 17:59:02.830,0.18664,0.979263,13.2084,0.320771,0.433702,-0.00839915,0
2024-11-29 17:59:02.831,0.131605,0.950549,12.9879,0.350092,0.463022,0.00503949,0
2024-11-29 17:59:02.835,0.0622134,0.94337,12.7702,0.417285,0.519831,0.0361927,0
2024-11-29 17:59:02.837,-0.0167498,0.940978,12.5665,0.417285,0.519831,0.0361927,0
2024-11-29 17:59:02.838,-0.131605,0.969691,12.3799,0.452714,0.552206,0.0526856,0
2024-11-29 17:59:02.842,-0.263211,1.01515,12.1908,0.489976,0.582137,0.071011,0
2024-11-29 17:59:02.843,-0.371187,1.05344,11.9848,0.52907,0.615123,0.091169,0
2024-11-29 17:59:02.846,-0.462114,1.09412,11.7718,0.568164,0.642611,0.111938,0
2024-11-29 17:59:02.848,-0.533899,1.09412,11.5517,0.609091,0.66338,0.132096,0
2024-11-29 17:59:02.851,-0.569791,1.07976,11.3049,0.68789,0.697588,0.173022,0
2024-11-29 17:59:02.854,-0.591326,1.08215,11.0178,0.724541,0.703696,0.187683,0
2024-11-29 17:59:02.856,-0.641576,1.07258,10.7231,0.75997,0.709194,0.202954,0
2024-11-29 17:59:02.858,-0.691825,1.06062,10.4169,0.789902,0.70675,0.215171,0
2024-11-29 17:59:02.861,-0.734896,1.05344,10.0983,0.789902,0.70675,0.215171,0
2024-11-29 17:59:02.863,-0.777966,1.0654,9.78694,0.816168,0.700642,0.227388,0
2024-11-29 17:59:02.865,-0.818644,1.05344,9.47588,0.839991,0.686592,0.237772,0
2024-11-29 17:59:02.867,-0.859622,1.03669,9.16212,0.856484,0.665213,0.247546,0
2024-11-29 17:59:02.870,-0.888335,1.05105,8.85584,0.876642,0.606571,0.265871,0
2024-11-29 17:59:02.872,-0.895514,1.04387,8.57558,0.876642,0.606571,0.265871,0
2024-11-29 17:59:02.874,-0.926621,1.04387,8.32672,0.880307,0.568088,0.273812,0
2024-11-29 17:59:02.877,-0.979263,1.07737,8.08953,0.877253,0.483791,0.282975,0
2024-11-29 17:59:02.879,-1.02473,1.11087,7.85265,0.877253,0.483791,0.282975,0
2024-11-29 17:59:02.881,-1.06062,1.14197,7.61815,0.870534,0.439199,0.289694,0
2024-11-29 17:59:02.884,-1.08694,1.18505,7.42164,0.845489,0.334133,0.300079,0
2024-11-29 17:59:02.887,-1.12283,1.23769,7.26371,0.829607,0.276103,0.306798,0
2024-11-29 17:59:02.889,-1.13958,1.27358,7.09621,0.829607,0.276103,0.306798,0
2024-11-29 17:59:02.891,-1.1348,1.2999,6.94756,0.806395,0.218072,0.311685,0
2024-11-29 17:59:02.893,-1.11326,1.33579,6.82792,0.780739,0.156988,0.315961,0
2024-11-29 17:59:02.896,-1.05583,1.3669,6.72981,0.722709,0.0299315,0.320237,0
2024-11-29 17:59:02.898,-1.0008,1.39083,6.64846,0.722709,0.0299315,0.320237,0
2024-11-29 17:59:02.901,-0.948156,1.41745,6.61017,0.657959,-0.0928488,0.317793,0
2024-11-29 17:59:02.903,-0.859622,1.43181,6.60778,0.657959,-0.0928488,0.317793,0
2024-11-29 17:59:02.904,-0.744467,1.46291,6.62692,0.625584,-0.153934,0.313517,0
2024-11-29 17:59:02.908,-0.608076,1.49402,6.67956,0.555947,-0.263275,0.298246,0
2024-11-29 17:59:02.910,-0.464507,1.50359,6.74896,0.555947,-0.263275,0.298246,0
2024-11-29 17:59:02.911,-0.318545,1.51316,6.85663,0.52174,-0.312754,0.282975,0
2024-11-29 17:59:02.915,-0.174676,1.52273,6.97867,0.489365,-0.350626,0.267093,0
2024-11-29 17:59:02.916,-0.0358923,1.53709,7.11057,0.460655,-0.38178,0.248157,0
2024-11-29 17:59:02.920,0.081356,1.54666,7.25893,0.431945,-0.406213,0.22922,0
2024-11-29 17:59:02.921,0.177069,1.55145,7.38814,0.403846,-0.420874,0.20723,0
2024-11-29 17:59:02.924,0.27996,1.54666,7.52453,0.376969,-0.431869,0.184629,0
2024-11-29 17:59:02.926,0.385544,1.54427,7.67318,0.354368,-0.43981,0.160806,0
2024-11-29 17:59:02.928,0.474078,1.53948,7.80479,0.333599,-0.43981,0.136983,0
2024-11-29 17:59:02.933,0.617647,1.55145,8.01536,0.296948,-0.428815,0.0856713,0
2024-11-29 17:59:02.933,0.617647,1.55145,8.01536,0.296948,-0.428815,0.0856713,0
2024-11-29 17:59:02.936,0.660718,1.56102,8.10629,0.261519,-0.397051,0.02703,0
2024-11-29 17:59:02.938,0.691825,1.54905,8.1999,0.261519,-0.397051,0.02703,0
2024-11-29 17:59:02.940,0.710967,1.54427,8.29083,0.248691,-0.376282,-0.00412322,0
2024-11-29 17:59:02.942,0.727717,1.56102,8.36979,0.234642,-0.35307,-0.0334439,0
2024-11-29 17:59:02.944,0.734896,1.57777,8.45115,0.221814,-0.323749,-0.0645971,0
2024-11-29 17:59:02.947,0.699003,1.6017,8.51815,0.21204,-0.294428,-0.0957503,0
2024-11-29 17:59:02.949,0.627219,1.60887,8.55643,0.201656,-0.260221,-0.125071,0
2024-11-29 17:59:02.951,0.569791,1.58734,8.57797,0.193104,-0.224792,-0.150116,0
2024-11-29 17:59:02.955,0.495613,1.56102,8.59472,0.17539,-0.149047,-0.204481,0
2024-11-29 17:59:02.957,0.395115,1.54666,8.59233,0.17539,-0.149047,-0.204481,0
2024-11-29 17:59:02.960,0.297009,1.51795,8.5684,0.165616,-0.114228,-0.228304,0
2024-11-29 17:59:02.962,0.16989,1.4653,8.52772,0.148512,-0.0415376,-0.26862,0
2024-11-29 17:59:02.964,0.0454636,1.41745,8.47269,0.137517,-0.0116061,-0.286945,0
2024-11-29 17:59:02.967,-0.0765703,1.37408,8.42004,0.137517,-0.0116061,-0.286945,0
2024-11-29 17:59:02.968,-0.20339,1.32861,8.39612,0.1253,0.0177146,-0.302217,0
2024-11-29 17:59:02.970,-0.335294,1.28554,8.39372,0.116137,0.0427593,-0.313212,0
2024-11-29 17:59:02.974,-0.481256,1.25444,8.35783,0.106364,0.0629173,-0.324207,0
2024-11-29 17:59:02.975,-0.615255,1.2329,8.33151,0.0965902,0.0824644,-0.330316,0
2024-11-29 17:59:02.977,-0.720539,1.22333,8.34347,0.0910926,0.095903,-0.336424,0
2024-11-29 17:59:02.981,-0.835394,1.22094,8.34347,0.0880384,0.104455,-0.338257,0
2024-11-29 17:59:02.982,-0.972084,1.20897,8.32194,0.0843733,0.114228,-0.337646,0
2024-11-29 17:59:02.985,-1.0989,1.19701,8.30997,0.0788757,0.120337,-0.337035,0
2024-11-29 17:59:02.988,-1.20897,1.17308,8.29083,0.0721563,0.128278,-0.329094,0
2024-11-29 17:59:02.990,-1.30947,1.13958,8.24058,0.0684913,0.127056,-0.323596,0
2024-11-29 17:59:02.992,-1.40279,1.10369,8.19033,0.0684913,0.127056,-0.323596,0
2024-11-29 17:59:02.994,-1.48205,1.06062,8.16162,0.0666587,0.121559,-0.315655,0
2024-11-29 17:59:02.997,-1.56341,1.04865,8.14965,0.0617719,0.11545,-0.307103,0
2024-11-29 17:59:02.999,-1.65194,1.0343,8.14965,0.0611611,0.107509,-0.296108,0
2024-11-29 17:59:03.001,-1.75484,1.02712,8.14726,0.0593285,0.100179,-0.28267,0
2024-11-29 17:59:03.004,-1.85533,1.03908,8.14726,0.0556635,0.0952922,-0.268009,0
2024-11-29 17:59:03.006,-1.93191,1.03669,8.16162,0.0544418,0.0910162,-0.252738,0
2024-11-29 17:59:03.009,-1.99442,1.02473,8.18315,0.0556635,0.0836861,-0.23258,0
2024-11-29 17:59:03.010,-2.05424,1.02712,8.1999,0.0538309,0.0806318,-0.214255,0
2024-11-29 17:59:03.013,-2.11884,1.02951,8.21665,0.0568851,0.0787993,-0.192875,0
2024-11-29 17:59:03.015,-2.17627,1.02233,8.24776,0.0587177,0.0794101,-0.171495,0
2024-11-29 17:59:03.018,-2.22652,1.01994,8.27887,0.0629936,0.0824644,-0.147672,0
2024-11-29 17:59:03.021,-2.26002,1.02712,8.30519,0.0678804,0.0849078,-0.122628,0
2024-11-29 17:59:03.023,-2.29113,1.04148,8.3339,0.0739889,0.0922379,-0.0963612,0
2024-11-29 17:59:03.025,-2.31745,1.04865,8.35065,0.081319,0.0971247,-0.0694839,0
2024-11-29 17:59:03.027,-2.34377,1.04626,8.35304,0.0886492,0.102622,-0.0432174,0
2024-11-29 17:59:03.030,-2.35813,1.04626,8.36501,0.108807,0.121559,0.0117588,0
2024-11-29 17:59:03.033,-2.36291,1.05105,8.36979,0.108807,0.121559,0.0117588,0
2024-11-29 17:59:03.034,-2.37248,1.05105,8.35304,0.114916,0.1295,0.0392469,0
2024-11-29 17:59:03.037,-2.36531,1.05583,8.31715,0.127133,0.138051,0.0661242,0
2024-11-29 17:59:03.039,-2.35573,1.08215,8.28605,0.135684,0.148436,0.0936123,0
2024-11-29 17:59:03.042,-2.33898,1.10848,8.25972,0.143625,0.153934,0.118657,0
2024-11-29 17:59:03.043,-2.31506,1.11565,8.21426,0.153399,0.163096,0.143702,0
2024-11-29 17:59:03.047,-2.27916,1.12283,8.17119,0.166227,0.174702,0.195013,0
2024-11-29 17:59:03.049,-2.24806,1.1324,8.13769,0.158897,0.169205,0.195013,0
2024-11-29 17:59:03.051,-2.21456,1.15872,8.09671,0.171114,0.177146,0.217614,0
2024-11-29 17:59:03.054,-2.17627,1.17069,8.04886,0.177222,0.180811,0.240216,0
2024-11-29 17:59:03.056,-2.13799,1.18265,8.00818,0.179055,0.182643,0.262817,0
2024-11-29 17:59:03.058,-2.07577,1.2018,7.97947,0.180887,0.182643,0.283586,0
2024-11-29 17:59:03.060,-2.02074,1.21615,7.94357,0.185774,0.185087,0.301911,0
2024-11-29 17:59:03.063,-1.96062,1.23769,7.91007,0.185774,0.184476,0.339784,0
2024-11-29 17:59:03.066,-1.89123,1.25922,7.87179,0.188217,0.188752,0.354444,0
2024-11-29 17:59:03.067,-1.82901,1.2664,7.84307,0.188217,0.188752,0.354444,0
2024-11-29 17:59:03.069,-1.76441,1.27597,7.81675,0.188217,0.193028,0.369104,0
2024-11-29 17:59:03.072,-1.70937,1.29512,7.77608,0.189439,0.197304,0.383154,0
2024-11-29 17:59:03.075,-1.66152,1.31904,7.75693,0.190661,0.200358,0.395982,0
2024-11-29 17:59:03.077,-1.60648,1.34058,7.73779,0.188828,0.205245,0.407588,0
2024-11-29 17:59:03.079,-1.54188,1.36211,7.69472,0.19005,0.20891,0.418583,0
2024-11-29 17:59:03.083,-1.41984,1.4004,7.61336,0.188217,0.215018,0.43813,0
2024-11-29 17:59:03.084,-1.41984,1.4004,7.61336,0.188217,0.215018,0.43813,0
2024-11-29 17:59:03.086,-1.35972,1.39322,7.55564,0.18272,0.215629,0.446071,0
2024-11-29 17:59:03.089,-1.29512,1.39083,7.50539,0.171114,0.210742,0.453401,0
2024-11-29 17:59:03.091,-1.24726,1.4004,7.45275,0.171114,0.210742,0.453401,0
2024-11-29 17:59:03.093,-1.19462,1.41027,7.39532,0.160118,0.204634,0.458899,0
2024-11-29 17:59:03.096,-1.16351,1.42702,7.34028,0.150956,0.200969,0.461953,0
2024-11-29 17:59:03.099,-1.14676,1.44855,7.30439,0.137517,0.193028,0.464397,0
2024-11-29 17:59:03.100,-1.09651,1.47488,7.28764,0.122246,0.186919,0.467451,0
2024-11-29 17:59:03.102,-1.06301,1.50838,7.27568,0.109418,0.178978,0.469894,0
2024-11-29 17:59:03.106,-1.06062,1.53709,7.28764,0.0770431,0.15882,0.470505,0
2024-11-29 17:59:03.107,-1.04387,1.56341,7.31157,0.0770431,0.15882,0.470505,0
2024-11-29 17:59:03.110,-1.01755,1.61127,7.34268,0.0611611,0.150268,0.471727,0
2024-11-29 17:59:03.113,-1.0008,1.65194,7.39292,0.0477224,0.138662,0.475392,0
2024-11-29 17:59:03.114,-0.99362,1.69023,7.4336,0.0306187,0.130721,0.476003,0
2024-11-29 17:59:03.116,-0.991227,1.72852,7.48864,0.0159584,0.121559,0.475392,0
2024-11-29 17:59:03.119,-0.988834,1.75244,7.56521,0.00313059,0.109953,0.475392,0
2024-11-29 17:59:03.121,-0.97687,1.76441,7.6349,-0.0115297,0.0983464,0.476003,0
2024-11-29 17:59:03.124,-0.964906,1.79791,7.7019,-0.0237467,0.0855186,0.475392,0
2024-11-29 17:59:03.126,-0.952942,1.82901,7.77608,-0.0347419,0.07208,0.471727,0
2024-11-29 17:59:03.129,-0.921835,1.85055,7.84307,-0.0475697,0.0574196,0.472948,0
2024-11-29 17:59:03.132,-0.885943,1.87448,7.91964,-0.0720036,0.0207688,0.469283,0
2024-11-29 17:59:03.133,-0.876371,1.88166,8.001,-0.0720036,0.0207688,0.469283,0
2024-11-29 17:59:03.136,-0.862014,1.90319,8.07518,-0.0848314,0.00122169,0.467451,0
2024-11-29 17:59:03.139,-0.833001,1.92473,8.17119,-0.104989,-0.0384834,0.461342,0
2024-11-29 17:59:03.140,-0.804287,1.9343,8.2669,-0.104989,-0.0384834,0.461342,0
2024-11-29 17:59:03.143,-0.782752,1.94148,8.37458,-0.114763,-0.0574196,0.460732,0
2024-11-29 17:59:03.146,-0.770788,1.96301,8.48944,-0.123926,-0.0739125,0.458288,0
2024-11-29 17:59:03.148,-0.73011,1.99202,8.59951,-0.13431,-0.0873512,0.457066,0
2024-11-29 17:59:03.150,-0.684646,2.00399,8.7003,-0.142862,-0.0977356,0.457066,0
2024-11-29 17:59:03.152,-0.639183,2.01356,8.81516,-0.147749,-0.104455,0.454623,0
2024-11-29 17:59:03.155,-0.598505,2.01835,8.94916,-0.153857,-0.109953,0.45218,0
2024-11-29 17:59:03.156,-0.555434,2.03031,9.04726,-0.158744,-0.11545,0.450347,0
2024-11-29 17:59:03.160,-0.493221,2.04227,9.1334,-0.163631,-0.119726,0.439352,0
2024-11-29 17:59:03.162,-0.4334,2.05663,9.24826,-0.163631,-0.119726,0.439352,0
2024-11-29 17:59:03.163,-0.392722,2.08535,9.36581,-0.166685,-0.120337,0.433854,0
2024-11-29 17:59:03.166,-0.361615,2.0997,9.47827,-0.167296,-0.121559,0.428967,0
2024-11-29 17:59:03.168,-0.330509,2.10688,9.57877,-0.167296,-0.122169,0.422859,0
2024-11-29 17:59:03.172,-0.304188,2.11884,9.65534,-0.164852,-0.111174,0.410031,0
2024-11-29 17:59:03.173,-0.263211,2.12363,9.73191,-0.164852,-0.111174,0.410031,0
2024-11-29 17:59:03.175,-0.217747,2.13559,9.79412,-0.166685,-0.10079,0.408199,0
2024-11-29 17:59:03.179,-0.181855,2.16909,9.86381,-0.164852,-0.0861295,0.403923,0
2024-11-29 17:59:03.180,-0.153141,2.17388,9.95953,-0.16302,-0.0684149,0.400258,0
2024-11-29 17:59:03.183,-0.122034,2.17627,10.0313,-0.159355,-0.0488678,0.397203,0
2024-11-29 17:59:03.185,-0.0789631,2.22174,10.1175,-0.155079,-0.0244339,0.396593,0
2024-11-29 17:59:03.187,-0.0646062,2.26002,10.2036,-0.149581,-0.00305424,0.394149,0
2024-11-29 17:59:03.189,-0.0622134,2.27916,10.2658,-0.146527,0.0219905,0.392927,0
2024-11-29 17:59:03.193,-0.0358923,2.29113,10.3113,-0.139197,0.0482569,0.392317,0
2024-11-29 17:59:03.195,-0.026321,2.31506,10.3448,-0.130645,0.0769668,0.391706,0
2024-11-29 17:59:03.197,-0.00717847,2.33181,10.3711,-0.126369,0.103844,0.392317,0
2024-11-29 17:59:03.199,0.040678,2.33659,10.3759,-0.117206,0.131943,0.392927,0
2024-11-29 17:59:03.202,0.0909273,2.33898,10.3881,-0.108654,0.160042,0.391706,0
2024-11-29 17:59:03.204,0.12682,2.33898,10.3929,-0.101935,0.188752,0.388652,0
2024-11-29 17:59:03.206,0.160319,2.3677,10.3711,-0.0964375,0.21624,0.384376,0
2024-11-29 17:59:03.209,0.189033,2.41316,10.3448,-0.0891073,0.241285,0.380711,0
2024-11-29 17:59:03.212,0.200997,2.4347,10.3161,-0.0842206,0.268773,0.379489,0
2024-11-29 17:59:03.214,0.200997,2.4658,10.2993,-0.0701711,0.31703,0.371548,0
2024-11-29 17:59:03.216,0.191426,2.51127,10.2706,-0.0701711,0.31703,0.371548,0
2024-11-29 17:59:03.219,0.193819,2.56421,10.218,-0.0646735,0.33902,0.367883,0
2024-11-29 17:59:03.220,0.189033,2.62164,10.151,-0.0610084,0.357956,0.361774,0
2024-11-29 17:59:03.223,0.177069,2.66471,10.0648,-0.0555107,0.37506,0.356888,0
2024-11-29 17:59:03.225,0.165105,2.7006,9.98824,-0.050624,0.393996,0.350779,0
2024-11-29 17:59:03.227,0.155533,2.74367,9.91646,-0.046348,0.404381,0.34406,0
2024-11-29 17:59:03.230,0.153141,2.78435,9.84467,-0.046348,0.413544,0.33673,0
2024-11-29 17:59:03.232,0.150748,2.81306,9.7678,-0.0420721,0.420874,0.326956,0
2024-11-29 17:59:03.235,0.150748,2.84417,9.69362,-0.0439046,0.423928,0.319015,0
2024-11-29 17:59:03.238,0.133998,2.89203,9.61945,-0.050624,0.421485,0.297635,0
2024-11-29 17:59:03.240,0.114855,2.93988,9.5668,-0.0530674,0.416598,0.28664,0
2024-11-29 17:59:03.242,0.12682,2.97577,9.52373,-0.0530674,0.416598,0.28664,0
2024-11-29 17:59:03.244,0.124427,3.00688,9.47109,-0.0567324,0.414154,0.275645,0
2024-11-29 17:59:03.246,0.0981057,3.04995,9.42802,-0.058565,0.414154,0.26465,0
2024-11-29 17:59:03.249,0.0837488,3.08854,9.38974,-0.0610084,0.408046,0.254876,0
2024-11-29 17:59:03.252,0.0909273,3.11486,9.37299,-0.0671168,0.400105,0.234718,0
2024-11-29 17:59:03.253,0.105284,3.14596,9.35384,-0.0671168,0.400105,0.234718,0
2024-11-29 17:59:03.256,0.122034,3.14836,9.33231,-0.0713928,0.393386,0.224334,0
2024-11-29 17:59:03.259,0.124427,3.13879,9.32992,-0.0787229,0.376893,0.201121,0
2024-11-29 17:59:03.261,0.119641,3.13879,9.31795,-0.0787229,0.376893,0.201121,0
2024-11-29 17:59:03.263,0.138784,3.12443,9.3012,-0.0817772,0.36773,0.190737,0
2024-11-29 17:59:03.266,0.160319,3.13639,9.30359,-0.0897182,0.352459,0.167525,0
2024-11-29 17:59:03.268,0.153141,3.17468,9.30599,-0.0897182,0.352459,0.167525,0
2024-11-29 17:59:03.269,0.141177,3.19621,9.29402,-0.0933833,0.347572,0.15714,0
2024-11-29 17:59:03.272,0.136391,3.20578,9.30599,-0.0958267,0.343296,0.149199,0
2024-11-29 17:59:03.275,0.133998,3.21775,9.3347,-0.0964375,0.33902,0.138815,0
2024-11-29 17:59:03.277,0.133998,3.22014,9.33709,-0.100103,0.332301,0.127209,0
2024-11-29 17:59:03.279,0.12682,3.23211,9.33709,-0.102546,0.325582,0.119268,0
2024-11-29 17:59:03.282,0.122034,3.24646,9.34906,-0.1056,0.318862,0.111938,0
2024-11-29 17:59:03.284,0.122034,3.25364,9.35384,-0.109265,0.3097,0.103997,0
2024-11-29 17:59:03.286,0.117248,3.268,9.35863,-0.111709,0.299926,0.0954449,0
2024-11-29 17:59:03.289,0.119641,3.27039,9.3682,-0.11293,0.290763,0.0856713,0
2024-11-29 17:59:03.292,0.112463,3.28235,9.38016,-0.118428,0.277936,0.0771195,0
2024-11-29 17:59:03.293,0.11007,3.2991,9.38974,-0.125147,0.267551,0.0685676,0
2024-11-29 17:59:03.296,0.131605,3.29193,9.38016,-0.130034,0.257167,0.0575724,0
2024-11-29 17:59:03.298,0.160319,3.28953,9.37538,-0.136143,0.244339,0.0453554,0
2024-11-29 17:59:03.301,0.181855,3.29432,9.38256,-0.147138,0.230289,0.0361927,0
2024-11-29 17:59:03.303,0.177069,3.29193,9.40409,-0.156301,0.218072,0.02703,0
2024-11-29 17:59:03.306,0.148355,3.3015,9.44956,-0.172793,0.189974,0.00687203,0
2024-11-29 17:59:03.307,0.119641,3.33978,9.5022,-0.172793,0.189974,0.00687203,0
2024-11-29 17:59:03.310,0.0885344,3.37328,9.56441,-0.183789,0.174091,0.000152712,0
2024-11-29 17:59:03.312,0.0765703,3.39242,9.63141,-0.190508,0.158209,-0.00717746,0
2024-11-29 17:59:03.315,0.0741775,3.40917,9.68166,-0.19906,0.141717,-0.0145076,0
2024-11-29 17:59:03.317,0.0526421,3.402,9.72234,-0.210666,0.122169,-0.0224486,0
2024-11-29 17:59:03.319,0.0598206,3.38285,9.76302,-0.22105,0.106287,-0.0285571,0
2024-11-29 17:59:03.321,0.100499,3.35414,9.78694,-0.233878,0.0891837,-0.0395524,0
2024-11-29 17:59:03.324,0.153141,3.31825,9.84228,-0.249149,0.0690257,-0.0505476,0
2024-11-29 17:59:03.327,0.191426,3.29671,9.9332,-0.264421,0.0476461,-0.0597103,0
2024-11-29 17:59:03.329,0.181855,3.3015,9.99781,-0.280913,0.028099,-0.0700947,0
2024-11-29 17:59:03.331,0.133998,3.31346,10.0648,-0.298017,0.00916271,-0.0823117,0
2024-11-29 17:59:03.333,0.0933201,3.34218,10.1821,-0.315732,-0.00671932,-0.0896418,0
2024-11-29 17:59:03.335,0.081356,3.35892,10.3232,-0.332835,-0.0256556,-0.0963612,0
2024-11-29 17:59:03.338,0.0789631,3.36371,10.4695,-0.35055,-0.0427593,-0.10247,0
2024-11-29 17:59:03.341,0.0885344,3.3685,10.6274,-0.363989,-0.0592522,-0.107356,0
2024-11-29 17:59:03.344,0.0957129,3.37567,10.7782,-0.393309,-0.0867403,-0.114687,0
2024-11-29 17:59:03.346,0.0957129,3.39242,10.9265,-0.405526,-0.0965139,-0.121406,0
2024-11-29 17:59:03.348,0.122034,3.402,11.0871,-0.405526,-0.0965139,-0.121406,0
2024-11-29 17:59:03.350,0.155533,3.41635,11.2642,-0.415911,-0.103844,-0.127514,0
2024-11-29 17:59:03.352,0.16989,3.42832,11.4485,-0.423852,-0.10812,-0.132401,0
2024-11-29 17:59:03.355,0.189033,3.44267,11.6234,-0.431793,-0.110563,-0.139731,0
2024-11-29 17:59:03.358,0.205783,3.4666,11.8149,-0.436679,-0.116672,-0.147672,0
2024-11-29 17:59:03.359,0.205783,3.48096,12.0183,-0.437901,-0.123391,-0.155002,0
2024-11-29 17:59:03.362,0.20339,3.50489,12.2148,-0.438512,-0.127667,-0.161111,0
2024-11-29 17:59:03.364,0.222533,3.51685,12.4062,-0.433014,-0.135608,-0.171495,0
2024-11-29 17:59:03.366,0.239282,3.52403,12.5904,-0.426295,-0.140495,-0.179436,0
2024-11-29 17:59:03.369,0.234497,3.53839,12.7702,-0.420187,-0.147214,-0.185545,0
2024-11-29 17:59:03.372,0.229711,3.55035,12.9233,-0.40797,-0.152712,-0.194097,0
2024-11-29 17:59:03.374,0.22014,3.55992,13.0741,-0.39392,-0.15882,-0.201427,0
2024-11-29 17:59:03.376,0.20339,3.5671,13.2275,-0.379871,-0.161875,-0.208146,0
2024-11-29 17:59:03.378,0.177069,3.57189,13.3615,-0.362767,-0.161875,-0.211811,0
2024-11-29 17:59:03.380,0.167498,3.55992,13.4788,-0.341998,-0.160653,-0.21792,0
2024-11-29 17:59:03.384,0.153141,3.54796,13.5912,-0.32184,-0.161264,-0.220974,0
2024-11-29 17:59:03.385,0.133998,3.54078,13.6846,-0.30046,-0.15882,-0.224639,0
2024-11-29 17:59:03.388,0.119641,3.52164,13.7468,-0.276027,-0.158209,-0.224028,0
2024-11-29 17:59:03.390,0.0885344,3.50489,13.7854,-0.250982,-0.157599,-0.222807,0
2024-11-29 17:59:03.392,0.0765703,3.48096,13.8021,-0.228991,-0.159431,-0.219752,0
2024-11-29 17:59:03.394,0.0717847,3.4666,13.7973,-0.207001,-0.162485,-0.217309,0
2024-11-29 17:59:03.397,0.0622134,3.45942,13.7806,-0.18501,-0.163096,-0.214255,0
2024-11-29 17:59:03.400,0.066999,3.43789,13.7324,-0.167296,-0.167372,-0.213033,0
2024-11-29 17:59:03.401,0.0909273,3.42353,13.6606,-0.150803,-0.171037,-0.21059,0
2024-11-29 17:59:03.404,0.122034,3.40678,13.5793,-0.136753,-0.175924,-0.208757,0
2024-11-29 17:59:03.407,0.157926,3.39003,13.4907,-0.127591,-0.182643,-0.206925,0
2024-11-29 17:59:03.409,0.198604,3.38046,13.3926,-0.121482,-0.191806,-0.204481,0
2024-11-29 17:59:03.411,0.239282,3.37089,13.3113,-0.11965,-0.20891,-0.205703,0
2024-11-29 17:59:03.414,0.304188,3.36371,13.2323,-0.120871,-0.226013,-0.206314,0
2024-11-29 17:59:03.417,0.375972,3.33978,13.1483,-0.136143,-0.28099,-0.217309,0
2024-11-29 17:59:03.419,0.462114,3.30389,13.0956,-0.136143,-0.28099,-0.217309,0
2024-11-29 17:59:03.421,0.572184,3.29193,13.0669,-0.14897,-0.312143,-0.225861,0
2024-11-29 17:59:03.424,0.682254,3.268,13.0621,-0.182567,-0.376282,-0.247851,0
2024-11-29 17:59:03.425,0.794716,3.22493,13.1004,-0.182567,-0.376282,-0.247851,0
2024-11-29 17:59:03.427,0.895514,3.19621,13.1578,-0.197838,-0.408657,-0.261901,0
2024-11-29 17:59:03.430,0.991227,3.15314,13.2395,-0.215553,-0.436756,-0.277172,0
2024-11-29 17:59:03.432,1.09651,3.10768,13.3448,-0.233878,-0.464244,-0.293665,0
2024-11-29 17:59:03.434,1.20658,3.06431,13.4477,-0.248538,-0.486234,-0.312601,0
2024-11-29 17:59:03.438,1.30469,3.02124,13.5577,-0.272362,-0.510668,-0.35475,0
2024-11-29 17:59:03.440,1.38844,2.98535,13.6965,-0.272362,-0.510668,-0.35475,0
2024-11-29 17:59:03.442,1.44138,2.95185,13.8332,-0.280303,-0.519831,-0.376129,0
2024-11-29 17:59:03.445,1.5012,2.90638,13.972,-0.2858,-0.520442,-0.399952,0
2024-11-29 17:59:03.447,1.54905,2.85613,14.118,-0.290687,-0.514333,-0.424386,0
2024-11-29 17:59:03.449,1.5682,2.81067,14.2783,-0.290687,-0.507614,-0.446377,0
2024-11-29 17:59:03.451,1.57059,2.76281,14.4341,-0.283968,-0.492954,-0.469589,0
2024-11-29 17:59:03.453,1.54905,2.7006,14.5585,-0.272362,-0.470963,-0.491579,0
2024-11-29 17:59:03.457,1.50838,2.62642,14.6662,-0.25648,-0.444697,-0.51357,0
2024-11-29 17:59:03.459,1.44616,2.55942,14.7476,-0.209444,-0.367119,-0.546556,0
2024-11-29 17:59:03.461,1.35494,2.5017,14.8193,-0.209444,-0.367119,-0.546556,0
2024-11-29 17:59:03.464,1.26879,2.41077,14.8552,-0.14164,-0.265719,-0.572822,3
2024-11-29 17:59:03.465,1.17069,2.29831,14.8481,-0.14164,-0.265719,-0.572822,0
2024-11-29 17:59:03.468,1.05344,2.20499,14.8026,-0.103768,-0.204634,-0.579541,0
2024-11-29 17:59:03.470,0.929013,2.10449,14.7141,-0.0640626,-0.142327,-0.584428,0
2024-11-29 17:59:03.473,0.794716,1.98006,14.5896,0.0232886,-0.00427593,-0.583817,0
2024-11-29 17:59:03.475,0.660718,1.87448,14.4389,0.0232886,-0.00427593,-0.583817,0
2024-11-29 17:59:03.477,0.529113,1.80748,14.2424,0.0691021,0.0684149,-0.57893,0
2024-11-29 17:59:03.479,0.375972,1.72852,14.0127,0.112472,0.145992,-0.572211,0
2024-11-29 17:59:03.482,0.200997,1.65434,13.7638,0.15401,0.221127,-0.561216,0
2024-11-29 17:59:03.485,0.0526421,1.61605,13.4907,0.199823,0.293818,-0.545334,0
2024-11-29 17:59:03.487,-0.0981057,1.59691,13.1964,0.243194,0.365898,-0.530674,0
2024-11-29 17:59:03.490,-0.253639,1.57059,12.909,0.322604,0.488678,-0.488525,0
2024-11-29 17:59:03.492,-0.392722,1.54666,12.6215,0.322604,0.488678,-0.488525,0
2024-11-29 17:59:03.494,-0.514756,1.52034,12.3224,0.360476,0.541211,-0.464091,0
2024-11-29 17:59:03.496,-0.648754,1.49641,12.0159,0.395295,0.586413,-0.442101,0
2024-11-29 17:59:03.498,-0.789931,1.48684,11.6904,0.427059,0.623675,-0.415223,0
2024-11-29 17:59:03.501,-0.926621,1.4653,11.3504,0.457601,0.652996,-0.385903,0
2024-11-29 17:59:03.504,-1.05105,1.43181,11.0369,0.512577,0.695755,-0.327261,0
2024-11-29 17:59:03.506,-1.1324,1.42223,10.7566,0.512577,0.695755,-0.327261,0
2024-11-29 17:59:03.508,-1.1994,1.4004,10.4719,0.535179,0.704307,-0.296108,0
2024-11-29 17:59:03.511,-1.26879,1.36929,10.1916,0.577938,0.700031,-0.239299,0
2024-11-29 17:59:03.512,-1.31665,1.34058,9.94038,0.577938,0.700031,-0.239299,0
2024-11-29 17:59:03.515,-1.35733,1.30469,9.71277,0.594431,0.687814,-0.209368,0
2024-11-29 17:59:03.517,-1.40279,1.26879,9.49981,0.612756,0.665824,-0.178215,0
2024-11-29 17:59:03.520,-1.4342,1.24487,9.30838,0.629249,0.639557,-0.150727,0
2024-11-29 17:59:03.523,-1.45334,1.26401,9.12383,0.662846,0.56931,-0.0945286,0
2024-11-29 17:59:03.525,-1.47966,1.27358,8.94198,0.678728,0.527161,-0.0652079,0
2024-11-29 17:59:03.527,-1.49641,1.26162,8.75534,0.678728,0.527161,-0.0652079,0
2024-11-29 17:59:03.530,-1.48205,1.26401,8.59233,0.704383,0.426982,-0.0132859,0
2024-11-29 17:59:03.531,-1.44377,1.2664,8.44876,0.704383,0.426982,-0.0132859,0
2024-11-29 17:59:03.533,-1.40548,1.25444,8.30997,0.717211,0.370173,0.0117588,0
2024-11-29 17:59:03.537,-1.36451,1.25204,8.16162,0.732482,0.241285,0.0569615,0
2024-11-29 17:59:03.541,-1.31665,1.21376,7.90289,0.737369,0.175313,0.0765086,0
2024-11-29 17:59:03.541,-1.25922,1.21376,7.90289,0.737369,0.175313,0.0765086,0
2024-11-29 17:59:03.543,-1.18265,1.23051,7.78325,0.743477,0.10812,0.0930015,0
2024-11-29 17:59:03.545,-1.10369,1.24247,7.68515,0.747753,0.0415376,0.108884,0
2024-11-29 17:59:03.548,-1.0319,1.25204,7.59661,0.748364,-0.0250447,0.124155,0
2024-11-29 17:59:03.550,-0.96012,1.26879,7.50778,0.747753,-0.0904054,0.138815,0
2024-11-29 17:59:03.553,-0.873978,1.29272,7.436,0.748364,-0.153934,0.14981,0
2024-11-29 17:59:03.556,-0.785145,1.30708,7.40967,0.746532,-0.213186,0.162027,0
2024-11-29 17:59:03.557,-0.703789,1.31186,7.39771,0.744088,-0.271827,0.174244,0
2024-11-29 17:59:03.559,-0.632004,1.32861,7.35703,0.741645,-0.323749,0.184629,0
2024-11-29 17:59:03.563,-0.550648,1.35015,7.32114,0.732482,-0.41843,0.201121,0
2024-11-29 17:59:03.565,-0.45015,1.35015,7.28046,0.732482,-0.41843,0.201121,0
2024-11-29 17:59:03.567,-0.344866,1.33819,7.23978,0.72393,-0.460579,0.210284,0
2024-11-29 17:59:03.569,-0.227318,1.34058,7.23021,0.719654,-0.494175,0.218225,0
2024-11-29 17:59:03.571,-0.0957129,1.3334,7.235,0.711103,-0.52655,0.223723,0
2024-11-29 17:59:03.574,0.0334995,1.31426,7.22064,0.701329,-0.552206,0.22922,0
2024-11-29 17:59:03.576,0.177069,1.31665,7.19671,0.690334,-0.571142,0.229831,0
2024-11-29 17:59:03.579,0.318545,1.32144,7.17518,0.676284,-0.585802,0.231053,0
2024-11-29 17:59:03.580,0.435793,1.31426,7.13929,0.6659,-0.594354,0.227999,0
2024-11-29 17:59:03.584,0.557827,1.32383,7.10579,0.631082,-0.60596,0.215171,0
2024-11-29 17:59:03.586,0.687039,1.33101,7.07946,0.631082,-0.60596,0.215171,0
2024-11-29 17:59:03.588,0.804287,1.32861,7.04357,0.612145,-0.604739,0.204787,0
2024-11-29 17:59:03.590,0.9003,1.35254,6.99781,0.591376,-0.602295,0.193791,0
2024-11-29 17:59:03.593,0.988834,1.37169,6.97388,0.569386,-0.598019,0.17852,0
2024-11-29 17:59:03.596,1.09412,1.38365,6.95235,0.518686,-0.591911,0.143702,0
2024-11-29 17:59:03.597,1.18265,1.42223,6.92363,0.518686,-0.591911,0.143702,0
2024-11-29 17:59:03.600,1.24965,1.45095,6.92363,0.494863,-0.585192,0.124155,0
2024-11-29 17:59:03.602,1.30469,1.45095,6.89731,0.466153,-0.578472,0.103386,0
2024-11-29 17:59:03.604,1.36929,1.44616,6.85903,0.438665,-0.571142,0.0807846,0
2024-11-29 17:59:03.607,1.43898,1.45334,6.82792,0.406901,-0.559536,0.0581832,0
2024-11-29 17:59:03.610,1.47727,1.45095,6.78963,0.342151,-0.530215,0.0117588,0
2024-11-29 17:59:03.611,1.50838,1.45095,6.77288,0.342151,-0.530215,0.0117588,0
2024-11-29 17:59:03.614,1.53948,1.46291,6.74178,0.306111,-0.513112,-0.0126751,0
2024-11-29 17:59:03.617,1.55384,1.45334,6.71306,0.236474,-0.477683,-0.0621537,0
2024-11-29 17:59:03.618,1.5682,1.44138,6.71306,0.236474,-0.477683,-0.0621537,0
2024-11-29 17:59:03.621,1.5658,1.42702,6.7011,0.198602,-0.458135,-0.0853659,0
2024-11-29 17:59:03.623,1.53709,1.4342,6.69392,0.160118,-0.436145,-0.109189,0
2024-11-29 17:59:03.625,1.50598,1.43898,6.70589,0.120413,-0.415376,-0.131179,0
2024-11-29 17:59:03.629,1.47009,1.42463,6.72742,0.0446682,-0.370173,-0.169052,0
2024-11-29 17:59:03.630,1.43181,1.41266,6.75853,0.0446682,-0.370173,-0.169052,0
2024-11-29 17:59:03.633,1.37647,1.4004,6.78963,-0.0310769,-0.323749,-0.202038,0
2024-11-29 17:59:03.636,1.31186,1.39322,6.82553,-0.0658951,-0.299315,-0.21792,0
2024-11-29 17:59:03.637,1.24247,1.4004,6.88056,-0.0658951,-0.299315,-0.21792,0
2024-11-29 17:59:03.640,1.15633,1.41027,6.95952,-0.0976592,-0.274881,-0.228915,0
2024-11-29 17:59:03.643,1.05823,1.40788,7.04118,-0.130645,-0.251669,-0.238078,0
2024-11-29 17:59:03.645,0.974477,1.40788,7.12493,-0.160576,-0.226624,-0.246019,0
2024-11-29 17:59:03.647,0.897907,1.39083,7.22064,-0.185621,-0.20219,-0.249684,0
2024-11-29 17:59:03.649,0.813859,1.38126,7.32353,-0.20639,-0.177757,-0.250906,0
2024-11-29 17:59:03.651,0.73011,1.39083,7.41685,-0.225937,-0.156377,-0.252738,0
2024-11-29 17:59:03.654,0.641576,1.38844,7.51017,-0.241208,-0.134386,-0.250295,0
2024-11-29 17:59:03.656,0.567398,1.39561,7.59422,-0.253425,-0.114839,-0.247851,0
2024-11-29 17:59:03.658,0.488435,1.39561,7.67797,-0.260145,-0.0952922,-0.244186,0
2024-11-29 17:59:03.662,0.423829,1.39801,7.75933,-0.269918,-0.0592522,-0.230748,0
2024-11-29 17:59:03.663,0.368794,1.39801,7.82393,-0.269918,-0.0592522,-0.230748,0
2024-11-29 17:59:03.666,0.301795,1.40788,7.87179,-0.268696,-0.0458135,-0.220363,0
2024-11-29 17:59:03.669,0.232104,1.41984,7.92443,-0.260145,-0.0189363,-0.197151,0
2024-11-29 17:59:03.670,0.165105,1.4342,7.97947,-0.260145,-0.0189363,-0.197151,0
2024-11-29 17:59:03.672,0.11007,1.46291,8.00579,-0.254036,-0.00671932,-0.186767,0
2024-11-29 17:59:03.676,0.0502493,1.48923,8.01057,-0.233267,0.0103844,-0.157446,0
2024-11-29 17:59:03.677,0.00717847,1.52513,8.00818,-0.233267,0.0103844,-0.157446,0
2024-11-29 17:59:03.680,-0.0167498,1.55145,8.001,-0.221661,0.0140495,-0.142175,0
2024-11-29 17:59:03.682,-0.0502493,1.55384,7.97229,-0.209444,0.015882,-0.127514,0
2024-11-29 17:59:03.685,-0.0789631,1.57537,7.934,-0.196006,0.0189363,-0.112243,0
2024-11-29 17:59:03.687,-0.0957129,1.60887,7.88136,-0.183178,0.015882,-0.0951395,0
2024-11-29 17:59:03.689,-0.102891,1.62802,7.82154,-0.171572,0.0116061,-0.08109,0
2024-11-29 17:59:03.692,-0.117248,1.65434,7.7665,-0.147138,0.000610847,-0.0554344,0
2024-11-29 17:59:03.693,-0.12682,1.69262,7.70429,-0.147138,0.000610847,-0.0554344,0
2024-11-29 17:59:03.696,-0.122034,1.73091,7.64208,-0.137364,-0.00794101,-0.0407741,0
2024-11-29 17:59:03.699,-0.11007,1.7668,7.57986,-0.124536,-0.0171037,-0.0297788,0
2024-11-29 17:59:03.702,-0.0885344,1.80748,7.49582,-0.113541,-0.028099,-0.0187836,0
2024-11-29 17:59:03.703,-0.0574277,1.8338,7.4025,-0.104379,-0.0421485,-0.00717746,0
2024-11-29 17:59:03.706,-0.0311067,1.84337,7.3331,-0.0970484,-0.0543654,0.0025961,0
2024-11-29 17:59:03.709,-0.00717847,1.87208,7.27089,-0.0891073,-0.0824644,0.0154239,0
2024-11-29 17:59:03.710,0.0334995,1.90798,7.19911,-0.0891073,-0.0824644,0.0154239,0
2024-11-29 17:59:03.713,0.0598206,1.92951,7.10818,-0.0842206,-0.0952922,0.019089,0
2024-11-29 17:59:03.716,0.081356,1.97049,7.04118,-0.0836097,-0.119115,0.0276408,0
2024-11-29 17:59:03.718,0.100499,2.01356,6.98824,-0.0836097,-0.119115,0.0276408,0
2024-11-29 17:59:03.720,0.102891,2.02552,6.91885,-0.0842206,-0.131943,0.0306951,0
2024-11-29 17:59:03.722,0.11007,2.04706,6.85903,-0.086664,-0.142327,0.0313059,0
2024-11-29 17:59:03.724,0.136391,2.08056,6.8016,-0.0891073,-0.155766,0.0319168,0
2024-11-29 17:59:03.727,0.148355,2.09492,6.7346,-0.0958267,-0.168594,0.0325276,0
2024-11-29 17:59:03.729,0.160319,2.10927,6.67717,-0.101324,-0.178367,0.0325276,0
2024-11-29 17:59:03.732,0.16989,2.15713,6.64128,-0.120871,-0.205856,0.0319168,0
2024-11-29 17:59:03.735,0.177069,2.18345,6.60299,-0.120871,-0.205856,0.0319168,0
2024-11-29 17:59:03.736,0.18664,2.19302,6.56471,-0.133088,-0.218683,0.0282517,0
2024-11-29 17:59:03.739,0.191426,2.21216,6.55035,-0.146527,-0.2309,0.0264191,0
2024-11-29 17:59:03.741,0.177069,2.22891,6.55035,-0.158133,-0.246171,0.0215324,0
2024-11-29 17:59:03.743,0.174676,2.25045,6.56471,-0.177069,-0.258999,0.0172564,0
2024-11-29 17:59:03.746,0.179462,2.27199,6.58624,-0.203947,-0.282211,0.00931542,0
2024-11-29 17:59:03.749,0.157926,2.30548,6.63171,-0.219829,-0.294428,0.00809373,0
2024-11-29 17:59:03.751,0.136391,2.32463,6.68435,-0.219829,-0.294428,0.00809373,0
2024-11-29 17:59:03.753,0.117248,2.35573,6.75374,-0.231435,-0.302369,0.00320695,0
2024-11-29 17:59:03.755,0.0957129,2.38445,6.83988,-0.245484,-0.31031,0.00320695,0
2024-11-29 17:59:03.757,0.0693919,2.42034,6.94038,-0.25648,-0.315197,0.000152712,0
2024-11-29 17:59:03.759,0.0239282,2.4682,7.03879,-0.262588,-0.318251,-0.00106898,0
2024-11-29 17:59:03.762,-0.0239282,2.48973,7.12254,-0.270529,-0.316419,-0.00167983,0
2024-11-29 17:59:03.764,-0.0646062,2.50887,7.21346,-0.279081,-0.314586,-0.00167983,0
2024-11-29 17:59:03.768,-0.112463,2.53549,7.30678,-0.279081,-0.308478,0.00137441,0
2024-11-29 17:59:03.769,-0.138784,2.53789,7.39292,-0.279081,-0.308478,0.00137441,0
2024-11-29 17:59:03.771,-0.153141,2.52832,7.44557,-0.280913,-0.305424,0.00442864,0
2024-11-29 17:59:03.774,-0.16989,2.51845,7.49582,-0.279692,-0.304813,0.00931542,0
2024-11-29 17:59:03.776,-0.189033,2.51127,7.55085,-0.280303,-0.303591,0.0135914,0
2024-11-29 17:59:03.779,-0.22014,2.51605,7.57747,-0.281524,-0.304813,0.0160347,0
2024-11-29 17:59:03.782,-0.256032,2.51127,7.59422,-0.284578,-0.309089,0.02703,0
2024-11-29 17:59:03.784,-0.275175,2.51605,7.61097,-0.282746,-0.313365,0.0319168,0
2024-11-29 17:59:03.786,-0.27996,2.51366,7.64447,-0.282746,-0.313365,0.0319168,0
2024-11-29 17:59:03.789,-0.289831,2.51605,7.67558,-0.2858,-0.319473,0.0392469,0
2024-11-29 17:59:03.790,-0.308973,2.55224,7.68754,-0.290687,-0.326803,0.047188,0
2024-11-29 17:59:03.793,-0.316152,2.56899,7.7354,-0.294352,-0.334133,0.0557398,0
2024-11-29 17:59:03.796,-0.316152,2.57139,7.79283,-0.301682,-0.343907,0.0606266,0
2024-11-29 17:59:03.798,-0.30658,2.58574,7.85025,-0.30718,-0.352459,0.0697893,0
2024-11-29 17:59:03.800,-0.270389,2.59292,7.91007,-0.313288,-0.361622,0.0758978,0
2024-11-29 17:59:03.802,-0.236889,2.61446,7.97707,-0.318175,-0.370784,0.0832279,0
2024-11-29 17:59:03.805,-0.217747,2.63839,8.05843,-0.324894,-0.380558,0.0899473,0
2024-11-29 17:59:03.808,-0.193819,2.65035,8.14248,-0.333446,-0.400105,0.101553,0
2024-11-29 17:59:03.809,-0.153141,2.6671,8.23819,-0.333446,-0.400105,0.101553,0
2024-11-29 17:59:03.812,-0.122034,2.69581,8.33151,-0.340776,-0.421485,0.113159,0
2024-11-29 17:59:03.814,-0.0933201,2.71974,8.43679,-0.340776,-0.421485,0.113159,0
2024-11-29 17:59:03.816,-0.0358923,2.73888,8.54926,-0.34322,-0.431869,0.114381,0
2024-11-29 17:59:03.819,0.0287139,2.76521,8.6354,-0.345052,-0.442864,0.118657,0
2024-11-29 17:59:03.822,0.081356,2.78674,8.72902,-0.351161,-0.458135,0.116214,0
2024-11-29 17:59:03.824,0.122034,2.80349,8.83191,-0.349328,-0.464244,0.117435,0
2024-11-29 17:59:03.826,0.157926,2.82981,8.92284,-0.349328,-0.464244,0.117435,0
2024-11-29 17:59:03.829,0.196211,2.87528,9.02094,-0.352993,-0.46852,0.116214,0
2024-11-29 17:59:03.830,0.215354,2.92074,9.13819,-0.352993,-0.46852,0.116214,0
2024-11-29 17:59:03.833,0.212961,2.96381,9.25305,-0.352383,-0.466076,0.116825,0
2024-11-29 17:59:03.835,0.208176,3.01406,9.36102,-0.349939,-0.463022,0.113159,0
2024-11-29 17:59:03.837,0.22014,3.05713,9.45673,-0.349939,-0.455692,0.110105,0
2024-11-29 17:59:03.841,0.272782,3.06431,9.54288,-0.346274,-0.435534,0.100943,0
2024-11-29 17:59:03.842,0.328116,3.05952,9.64337,-0.346274,-0.435534,0.100943,0
2024-11-29 17:59:03.845,0.366401,3.08345,9.73191,-0.34322,-0.409268,0.0881147,0
2024-11-29 17:59:03.848,0.397508,3.09571,9.81087,-0.340776,-0.394607,0.0826171,0
2024-11-29 17:59:03.849,0.41665,3.11486,9.90928,-0.340776,-0.394607,0.0826171,0
2024-11-29 17:59:03.852,0.419043,3.15075,10.0074,-0.33589,-0.37506,0.0746761,0
2024-11-29 17:59:03.854,0.409472,3.18186,10.1103,-0.333446,-0.357346,0.0697893,0
2024-11-29 17:59:03.856,0.3999,3.19382,10.2036,-0.327338,-0.337799,0.0661242,0
2024-11-29 17:59:03.859,0.397508,3.20818,10.2802,-0.322451,-0.317641,0.0624591,0
2024-11-29 17:59:03.861,0.387936,3.22253,10.3448,-0.315732,-0.297483,0.0563507,0
2024-11-29 17:59:03.863,0.371187,3.22493,10.3905,-0.30718,-0.27427,0.0526856,0
2024-11-29 17:59:03.866,0.366401,3.21536,10.4192,-0.302293,-0.249226,0.0490205,0
2024-11-29 17:59:03.869,0.404686,3.17946,10.436,-0.296185,-0.226013,0.0447446,0
2024-11-29 17:59:03.870,0.442971,3.134,10.4456,-0.290076,-0.206466,0.0410795,0
2024-11-29 17:59:03.874,0.459721,3.09571,10.4384,-0.287022,-0.183254,0.0361927,0
2024-11-29 17:59:03.875,0.469292,3.06192,10.4456,-0.286411,-0.164929,0.0331385,0
2024-11-29 17:59:03.877,0.440578,3.04517,10.4647,-0.2858,-0.146603,0.0300842,0
2024-11-29 17:59:03.881,0.390329,3.04995,10.4767,-0.2858,-0.109342,0.0282517,0
2024-11-29 17:59:03.882,0.320937,3.08345,10.5078,-0.2858,-0.109342,0.0282517,0
2024-11-29 17:59:03.885,0.244068,3.11246,10.5509,-0.290076,-0.0934596,0.0325276,0
2024-11-29 17:59:03.888,0.200997,3.11725,10.57,-0.291909,-0.0635281,0.0398578,0
2024-11-29 17:59:03.889,0.212961,3.11725,10.6011,-0.291909,-0.0635281,0.0398578,0
2024-11-29 17:59:03.892,0.253639,3.11486,10.6466,-0.294352,-0.0470352,0.0447446,0
2024-11-29 17:59:03.894,0.265603,3.10289,10.704,-0.294963,-0.0342074,0.0477988,0
2024-11-29 17:59:03.896,0.256032,3.08345,10.783,-0.299239,-0.0213797,0.0526856,0
2024-11-29 17:59:03.899,0.241675,3.09811,10.8547,-0.298628,-0.00916271,0.055129,0
2024-11-29 17:59:03.902,0.212961,3.12921,10.9241,-0.29985,0.00427593,0.0618483,0
2024-11-29 17:59:03.903,0.179462,3.15793,11.0154,-0.295574,0.0177146,0.0673459,0
2024-11-29 17:59:03.907,0.160319,3.19621,11.123,-0.290076,0.0293207,0.0722327,0
2024-11-29 17:59:03.908,0.148355,3.22014,11.2235,-0.283968,0.0427593,0.078952,0
2024-11-29 17:59:03.910,0.145962,3.22971,11.2953,-0.277248,0.0531437,0.0832279,0
2024-11-29 17:59:03.916,0.260818,3.19382,11.415,-0.257701,0.0739125,0.0905581,0
2024-11-29 17:59:03.916,0.260818,3.19382,11.415,-0.257701,0.0739125,0.0905581,0
2024-11-29 17:59:03.917,0.318545,3.19382,11.4724,-0.248538,0.0836861,0.0899473,0
2024-11-29 17:59:03.921,0.359223,3.19861,11.5134,-0.226548,0.103844,0.0905581,0
2024-11-29 17:59:03.922,0.366401,3.21057,11.554,-0.226548,0.103844,0.0905581,0
2024-11-29 17:59:03.924,0.359223,3.23689,11.5923,-0.21372,0.114228,0.091169,0
2024-11-29 17:59:03.927,0.337687,3.24407,11.6163,-0.202725,0.123391,0.0917798,0
2024-11-29 17:59:03.930,0.311366,3.25125,11.6474,-0.189286,0.131943,0.0936123,0
2024-11-29 17:59:03.932,0.32333,3.24885,11.6785,-0.179513,0.138662,0.091169,0
2024-11-29 17:59:03.937,0.387936,3.20818,11.712,-0.147749,0.160653,0.0930015,0
2024-11-29 17:59:03.938,0.387936,3.20818,11.712,-0.147749,0.160653,0.0930015,0
2024-11-29 17:59:03.939,0.397508,3.21775,11.7287,-0.147749,0.160653,0.0930015,0
2024-11-29 17:59:03.948,0.292223,3.27757,11.901,-0.0860531,0.221738,0.102775,0
2024-11-29 17:59:03.949,0.292223,3.27757,11.901,-0.0652843,0.235176,0.109494,0
2024-11-29 17:59:03.949,0.292223,3.27757,11.901,-0.0652843,0.235176,0.109494,0
2024-11-29 17:59:03.949,0.292223,3.27757,11.901,-0.0652843,0.235176,0.109494,0
2024-11-29 17:59:03.951,0.277567,3.27996,11.9369,-0.0652843,0.235176,0.109494,0
2024-11-29 17:59:03.953,0.260818,3.2656,11.9489,-0.0457372,0.245561,0.116214,0
2024-11-29 17:59:03.955,0.253639,3.25603,11.9513,-0.0249684,0.256556,0.122322,0
2024-11-29 17:59:03.958,0.256032,3.24646,11.9345,-0.00114534,0.261443,0.12782,0
2024-11-29 17:59:03.961,0.265603,3.21057,11.901,0.0410031,0.276714,0.138815,0
2024-11-29 17:59:03.963,0.265603,3.17707,11.8484,0.0410031,0.276714,0.138815,0
2024-11-29 17:59:03.965,0.263211,3.16032,11.7814,0.0617719,0.282822,0.143702,0
2024-11-29 17:59:03.967,0.265603,3.15553,11.7144,0.0807082,0.28832,0.149199,0
2024-11-29 17:59:03.969,0.267996,3.16032,11.645,0.0972011,0.290763,0.154697,0
2024-11-29 17:59:03.972,0.265603,3.15553,11.5612,0.111861,0.291374,0.160806,0
2024-11-29 17:59:03.974,0.251246,3.17228,11.4844,0.1253,0.291985,0.165692,0
2024-11-29 17:59:03.976,0.241675,3.201,11.415,0.135074,0.290763,0.172412,0
2024-11-29 17:59:03.979,0.251246,3.20818,11.3551,0.146069,0.290763,0.177909,0
2024-11-29 17:59:03.982,0.272782,3.21296,11.2881,0.153399,0.289542,0.184018,0
2024-11-29 17:59:03.984,0.294616,3.22493,11.2307,0.165005,0.291374,0.195013,0
2024-11-29 17:59:03.986,0.313759,3.24168,11.1948,0.165005,0.291374,0.195013,0
2024-11-29 17:59:03.988,0.335294,3.25603,11.1517,0.16867,0.291985,0.198678,0
2024-11-29 17:59:03.991,0.373579,3.2656,11.1326,0.171724,0.290152,0.202343,0
2024-11-29 17:59:03.994,0.414257,3.27039,11.1111,0.173557,0.290152,0.206008,0
2024-11-29 17:59:03.996,0.452543,3.27518,11.0943,0.176,0.289542,0.206619,0
2024-11-29 17:59:03.998,0.50997,3.28235,11.1111,0.176,0.289542,0.206619,0
2024-11-29 17:59:04.000,0.557827,3.2991,11.123,0.177222,0.287709,0.206619,0
2024-11-29 17:59:04.003,0.579362,3.32303,11.1254,0.178444,0.284655,0.204176,0
2024-11-29 17:59:04.004,0.598505,3.35653,11.1326,0.178444,0.284655,0.204176,0
2024-11-29 17:59:04.008,0.622433,3.37328,11.1517,0.174779,0.284044,0.202954,0
2024-11-29 17:59:04.010,0.651147,3.37567,11.1805,0.174168,0.280379,0.201732,0
2024-11-29 17:59:04.012,0.670289,3.3996,11.202,0.172946,0.282211,0.198678,0
2024-11-29 17:59:04.015,0.679861,3.41875,11.2403,0.171114,0.283433,0.196235,0
2024-11-29 17:59:04.016,0.706182,3.44028,11.2881,0.169281,0.281601,0.19318,0
2024-11-29 17:59:04.019,0.732503,3.44985,11.3216,0.168059,0.28099,0.190126,0
2024-11-29 17:59:04.021,0.742074,3.44985,11.3575,0.166838,0.28099,0.187683,0
2024-11-29 17:59:04.023,0.751645,3.46182,11.4054,0.165616,0.280379,0.183407,0
2024-11-29 17:59:04.027,0.756431,3.45942,11.4509,0.16867,0.283433,0.179742,0
2024-11-29 17:59:04.029,0.782752,3.4666,11.4796,0.168059,0.284044,0.177298,0
2024-11-29 17:59:04.031,0.816252,3.47378,11.511,0.169281,0.287098,0.173022,0
2024-11-29 17:59:04.034,0.816252,3.46899,11.5373,0.172335,0.287709,0.165692,0
2024-11-29 17:59:04.036,0.818644,3.47139,11.5588,0.172335,0.287709,0.165692,0
2024-11-29 17:59:04.037,0.837787,3.47139,11.578,0.174779,0.286487,0.162638,0
2024-11-29 17:59:04.041,0.818644,3.47139,11.5923,0.17539,0.289542,0.158362,0
2024-11-29 17:59:04.043,0.80668,3.47617,11.6019,0.180887,0.297483,0.155308,0
2024-11-29 17:59:04.044,0.825823,3.47139,11.6139,0.180887,0.297483,0.155308,0
2024-11-29 17:59:04.047,0.830609,3.47617,11.6115,0.180276,0.301759,0.152254,0
2024-11-29 17:59:04.050,0.82343,3.48335,11.5947,0.18272,0.305424,0.145534,0
2024-11-29 17:59:04.052,0.816252,3.4666,11.5732,0.18272,0.305424,0.145534,0
2024-11-29 17:59:04.054,0.818644,3.45224,11.5349,0.183331,0.307867,0.145534,0
2024-11-29 17:59:04.056,0.821037,3.44746,11.5035,0.183941,0.309089,0.144924,0
2024-11-29 17:59:04.059,0.816252,3.44746,11.4748,0.179665,0.306645,0.144313,0
2024-11-29 17:59:04.061,0.816252,3.44985,11.4245,0.177222,0.304813,0.143702,0
2024-11-29 17:59:04.063,0.816252,3.45942,11.3934,0.171114,0.303591,0.14248,0
2024-11-29 17:59:04.066,0.809073,3.46182,11.3719,0.165616,0.299926,0.140037,0
2024-11-29 17:59:04.069,0.794716,3.45703,11.324,0.159507,0.296872,0.140037,0
2024-11-29 17:59:04.070,0.782752,3.45224,11.2929,0.151566,0.295039,0.141258,0
2024-11-29 17:59:04.074,0.787538,3.45224,11.2905,0.131409,0.277936,0.139426,0
2024-11-29 17:59:04.075,0.811466,3.45703,11.2834,0.131409,0.277936,0.139426,0
2024-11-29 17:59:04.078,0.828216,3.45703,11.2857,0.122246,0.270605,0.138815,0
2024-11-29 17:59:04.081,0.835394,3.44985,11.2953,0.11064,0.261443,0.137593,0
2024-11-29 17:59:04.082,0.859622,3.45703,11.3073,0.100255,0.251669,0.135761,0
2024-11-29 17:59:04.085,0.88355,3.46182,11.3312,0.0862058,0.241896,0.133928,0
2024-11-29 17:59:04.088,0.893121,3.47857,11.3527,0.0758214,0.232733,0.130263,0
2024-11-29 17:59:04.089,0.917049,3.50728,11.3791,0.0623828,0.226013,0.125987,0
2024-11-29 17:59:04.093,0.952942,3.49053,11.4174,0.0410031,0.211353,0.114992,0
2024-11-29 17:59:04.094,0.962513,3.48335,11.4532,0.0410031,0.211353,0.114992,0
2024-11-29 17:59:04.096,0.974477,3.50249,11.4915,0.0269536,0.20219,0.108884,0
2024-11-29 17:59:04.099,0.996012,3.50967,11.5205,0.0165692,0.192417,0.100943,0
2024-11-29 17:59:04.102,1.0008,3.50728,11.5445,-0.00908635,0.17287,0.0832279,0
2024-11-29 17:59:04.103,1.00798,3.49053,11.5828,-0.00908635,0.17287,0.0832279,0
2024-11-29 17:59:04.106,1.01755,3.48335,11.6163,-0.0249684,0.161264,0.0722327,0
2024-11-29 17:59:04.108,1.01755,3.48335,11.6402,-0.0390179,0.147825,0.0618483,0
2024-11-29 17:59:04.110,0.998405,3.48096,11.6689,-0.0518457,0.134997,0.050853,0
2024-11-29 17:59:04.113,0.974477,3.46421,11.688,-0.0689494,0.120337,0.0398578,0
2024-11-29 17:59:04.115,0.96012,3.42592,11.7072,-0.0860531,0.105677,0.0264191,0
2024-11-29 17:59:04.119,0.955334,3.34696,11.7072,-0.103157,0.0861295,0.0142022,0
2024-11-29 17:59:04.120,0.979263,3.26082,11.7215,-0.124536,0.0629173,-0.000458135,0
2024-11-29 17:59:04.122,1.02473,3.20339,11.7814,-0.145916,0.0348183,-0.0126751,0
2024-11-29 17:59:04.126,1.04148,3.12204,11.846,-0.196006,-0.0342074,-0.0426066,0
2024-11-29 17:59:04.128,1.05583,3.01884,11.9106,-0.222883,-0.0739125,-0.0542127,0
2024-11-29 17:59:04.130,1.07498,2.92074,12.0063,-0.222883,-0.0739125,-0.0542127,0
2024-11-29 17:59:04.132,1.08933,2.81306,12.1382,-0.247317,-0.11545,-0.0645971,0
2024-11-29 17:59:04.134,1.11565,2.71735,12.2746,-0.275416,-0.153323,-0.076814,0
2024-11-29 17:59:04.137,1.15155,2.62642,12.4373,-0.301071,-0.191806,-0.0859767,0
2024-11-29 17:59:04.139,1.18744,2.53071,12.6096,-0.325505,-0.229679,-0.0933069,0
2024-11-29 17:59:04.142,1.22333,2.44905,12.775,-0.366432,-0.290763,-0.1098,0
2024-11-29 17:59:04.144,1.27597,2.3988,12.9808,-0.366432,-0.290763,-0.1098,0
2024-11-29 17:59:04.147,1.33579,2.34856,13.2227,-0.382925,-0.317641,-0.118352,0
2024-11-29 17:59:04.148,1.4004,2.29591,13.4883,-0.394531,-0.339631,-0.126293,0
2024-11-29 17:59:04.150,1.44616,2.23849,13.7662,-0.402472,-0.357346,-0.131179,0
2024-11-29 17:59:04.154,1.47727,2.20259,14.039,-0.405526,-0.368341,-0.137288,0
2024-11-29 17:59:04.156,1.52273,2.16192,14.3169,-0.400639,-0.370784,-0.143396,0
2024-11-29 17:59:04.158,1.5682,2.11167,14.5753,-0.389033,-0.366508,-0.148894,0
2024-11-29 17:59:04.161,1.58495,2.07338,14.805,-0.368265,-0.356124,-0.155613,0
2024-11-29 17:59:04.162,1.58016,2.03988,14.9943,-0.341998,-0.335355,-0.161111,0
2024-11-29 17:59:04.165,1.59212,1.97288,15.1666,-0.309012,-0.307867,-0.161722,0
2024-11-29 17:59:04.167,1.6352,1.86969,15.3437,-0.271751,-0.279768,-0.162944,0
2024-11-29 17:59:04.170,1.65673,1.75962,15.4899,-0.231435,-0.249837,-0.165387,3
2024-11-29 17:59:04.172,1.63041,1.66152,15.5474,-0.183789,-0.222348,-0.165387,0
2024-11-29 17:59:04.174,1.54427,1.58734,15.5282,-0.13431,-0.183254,-0.162333,0
2024-11-29 17:59:04.177,1.34776,1.60648,15.3126,-0.0829989,-0.134997,-0.156835,0
2024-11-29 17:59:04.179,1.12762,1.62323,15.0183,-0.0347419,-0.0665824,-0.142175,0
2024-11-29 17:59:04.181,1.08933,1.52273,14.98,0.0129041,0.0,-0.122017,0
2024-11-29 17:59:04.184,1.1683,1.39801,15.0135,0.0629936,0.0482569,-0.106746,0
2024-11-29 17:59:04.187,1.1683,1.25683,14.9058,0.115526,0.0916271,-0.0908635,0
2024-11-29 17:59:04.189,1.11805,1.12044,14.75,0.115526,0.0916271,-0.0908635,0
2024-11-29 17:59:04.191,1.07737,0.998405,14.6255,0.225479,0.202801,-0.0627646,0
2024-11-29 17:59:04.194,1.02712,0.917049,14.4509,0.285953,0.272438,-0.0499368,0
2024-11-29 17:59:04.196,0.950549,0.893121,14.173,0.350703,0.350626,-0.0395524,0
2024-11-29 17:59:04.198,0.857229,0.902692,13.8523,0.415452,0.441643,-0.0224486,0
2024-11-29 17:59:04.200,0.751645,0.955334,13.541,0.483257,0.530826,-0.0077883,0
2024-11-29 17:59:04.202,0.605683,1.04387,13.2012,0.546174,0.614512,0.011148,0
2024-11-29 17:59:04.206,0.392722,1.1348,12.8061,0.606648,0.691479,0.0337493,0
2024-11-29 17:59:04.207,0.155533,1.21376,12.3751,0.661013,0.758061,0.0545181,0
2024-11-29 17:59:04.209,-0.0287139,1.27597,11.901,0.712324,0.814259,0.0801737,0
2024-11-29 17:59:04.213,-0.181855,1.32622,11.415,0.756916,0.863738,0.105829,0
2024-11-29 17:59:04.215,-0.301795,1.35494,10.9508,0.794178,0.902832,0.129652,0
2024-11-29 17:59:04.216,-0.364008,1.36451,10.4743,0.822888,0.933375,0.157751,0
2024-11-29 17:59:04.220,-0.395115,1.3669,10.005,0.862593,0.964528,0.1999,0
2024-11-29 17:59:04.222,-0.397508,1.35015,9.59791,0.862593,0.964528,0.1999,0
2024-11-29 17:59:04.224,-0.385544,1.33101,9.21476,0.876031,0.965139,0.216393,0
2024-11-29 17:59:04.226,-0.404686,1.32383,8.81516,0.882751,0.958419,0.227388,0
2024-11-29 17:59:04.228,-0.442971,1.32383,8.4344,0.886416,0.947424,0.23594,0
2024-11-29 17:59:04.232,-0.474078,1.36211,8.09193,0.881529,0.929099,0.242659,0
2024-11-29 17:59:04.233,-0.507577,1.41984,7.75933,0.87542,0.904054,0.245102,0
2024-11-29 17:59:04.238,-0.407079,1.41745,7.2996,0.848543,0.829531,0.245713,0
2024-11-29 17:59:04.239,-0.407079,1.41745,7.2996,0.848543,0.829531,0.245713,0
2024-11-29 17:59:04.240,0.368794,1.04148,7.84547,0.837548,0.747677,0.224945,0
2024-11-29 17:59:04.243,0.648754,0.897907,8.0345,0.842435,0.642,0.179742,0
2024-11-29 17:59:04.245,-0.100499,1.22333,7.23739,0.841824,0.587635,0.146145,0
2024-11-29 17:59:04.248,-0.596112,1.49402,6.75374,0.821666,0.553428,0.116214,0
2024-11-29 17:59:04.250,-0.749253,1.68305,6.71785,0.821666,0.553428,0.116214,0
2024-11-29 17:59:04.253,-0.94337,1.8673,6.62453,0.809449,0.514333,0.107662,0
2024-11-29 17:59:04.254,-1.17547,2.05902,6.41605,0.786848,0.458746,0.107662,0
2024-11-29 17:59:04.256,-1.33101,2.2337,6.24377,0.757527,0.38911,0.107662,0
2024-11-29 17:59:04.259,-1.46291,2.38445,6.04277,0.719654,0.306645,0.112549,0
2024-11-29 17:59:04.262,-1.58016,2.51845,5.80319,0.669565,0.226013,0.124155,0
2024-11-29 17:59:04.264,-1.58973,2.60489,5.65005,0.616421,0.145992,0.132096,0
2024-11-29 17:59:04.267,-1.51555,2.6336,5.58305,0.560223,0.0671932,0.14248,0
2024-11-29 17:59:04.269,-1.41027,2.61685,5.54477,0.503415,-0.00733017,0.148589,0
2024-11-29 17:59:04.271,-1.27597,2.58574,5.56391,0.444162,-0.0775776,0.147978,0
2024-11-29 17:59:04.274,-1.04865,2.51845,5.73141,0.337264,-0.213186,0.131485,0
2024-11-29 17:59:04.276,-0.749253,2.40598,6.01406,0.337264,-0.213186,0.131485,0
2024-11-29 17:59:04.279,-0.452543,2.27199,6.32273,0.252356,-0.349405,0.0856713,0
2024-11-29 17:59:04.281,-0.193819,2.11884,6.64846,0.252356,-0.349405,0.0856713,0
2024-11-29 17:59:04.283,0.0167498,1.99202,6.99302,0.252356,-0.349405,0.0856713,0
2024-11-29 17:59:04.286,0.196211,1.88166,7.32114,0.19738,-0.45447,0.0233649,0
2024-11-29 17:59:04.289,0.383151,1.7333,7.85265,0.17539,-0.513723,-0.0407741,0
2024-11-29 17:59:04.289,0.383151,1.7333,7.85265,0.17539,-0.513723,-0.0407741,0
2024-11-29 17:59:04.293,0.380758,1.70219,8.01775,0.171114,-0.534491,-0.10247,0
2024-11-29 17:59:04.294,0.380758,1.67109,8.1688,0.171114,-0.534491,-0.10247,0
2024-11-29 17:59:04.297,0.387936,1.64716,8.30997,0.169892,-0.535102,-0.126904,0
2024-11-29 17:59:04.300,0.385544,1.62323,8.42483,0.168059,-0.536935,-0.152559,0
2024-11-29 17:59:04.301,0.361615,1.59452,8.53251,0.169281,-0.536324,-0.176993,0
2024-11-29 17:59:04.304,0.308973,1.57537,8.63061,0.171114,-0.535102,-0.198983,0
2024-11-29 17:59:04.307,0.260818,1.57537,8.71227,0.174779,-0.514333,-0.231969,0
2024-11-29 17:59:04.309,0.215354,1.55623,8.76252,0.177222,-0.49723,-0.24663,0
2024-11-29 17:59:04.311,0.155533,1.51077,8.79123,0.177222,-0.49723,-0.24663,0
2024-11-29 17:59:04.314,0.0430708,1.50598,8.7697,0.177222,-0.449584,-0.261901,0
2024-11-29 17:59:04.315,-0.0454636,1.50359,8.77927,0.177222,-0.449584,-0.261901,0
2024-11-29 17:59:04.318,-0.0574277,1.47248,8.88216,0.178444,-0.423317,-0.265566,0
2024-11-29 17:59:04.321,-0.0981057,1.42463,8.95873,0.182109,-0.372006,-0.272896,0
2024-11-29 17:59:04.323,-0.181855,1.38365,8.94437,0.182109,-0.372006,-0.272896,0
2024-11-29 17:59:04.326,-0.32333,1.39561,8.79123,0.182109,-0.33902,-0.272285,0
2024-11-29 17:59:04.327,-0.397508,1.37647,8.67608,0.177833,-0.298093,-0.271674,0
2024-11-29 17:59:04.331,-0.32333,1.31426,8.70987,0.169892,-0.265108,-0.266788,0
2024-11-29 17:59:04.333,-0.258425,1.24726,8.72184,0.165005,-0.23762,-0.268009,0
2024-11-29 17:59:04.334,-0.224925,1.14676,8.70748,0.155842,-0.210742,-0.269842,0
2024-11-29 17:59:04.338,-0.181855,1.05583,8.69043,0.144847,-0.185698,-0.274118,0
2024-11-29 17:59:04.339,-0.167498,1.01276,8.68804,0.137517,-0.161875,-0.279004,0
2024-11-29 17:59:04.341,-0.239282,1.01276,8.68086,0.132019,-0.1295,-0.283891,0
2024-11-29 17:59:04.345,-0.35683,1.04387,8.65215,0.126522,-0.0934596,-0.286945,0
2024-11-29 17:59:04.346,-0.486042,1.09651,8.61865,0.119802,-0.0574196,-0.288778,0
2024-11-29 17:59:04.349,-0.60329,1.13958,8.57797,0.115526,-0.0244339,-0.286945,0
2024-11-29 17:59:04.352,-0.682254,1.17547,8.52533,0.0965902,0.0335966,-0.274729,0
2024-11-29 17:59:04.354,-0.756431,1.20419,8.45115,0.0965902,0.0335966,-0.274729,0
2024-11-29 17:59:04.356,-0.825823,1.2329,8.35065,0.0849841,0.0549763,-0.269231,0
2024-11-29 17:59:04.359,-0.881157,1.2329,8.27169,0.0703238,0.0726908,-0.261901,0
2024-11-29 17:59:04.360,-0.905085,1.20419,8.21187,0.0562743,0.0891837,-0.255181,0
2024-11-29 17:59:04.363,-0.931406,1.1994,8.17119,0.0379489,0.105677,-0.24663,0
2024-11-29 17:59:04.365,-0.955334,1.20897,8.15444,0.0226777,0.117283,-0.239299,0
2024-11-29 17:59:04.368,-0.998405,1.22572,8.14965,0.00557398,0.131332,-0.230748,0
2024-11-29 17:59:04.370,-1.04626,1.24965,8.15923,-0.0109189,0.144771,-0.221585,0
2024-11-29 17:59:04.373,-1.07019,1.2664,8.18555,-0.0213033,0.155766,-0.211811,0
2024-11-29 17:59:04.375,-1.0989,1.25683,8.22144,-0.0316877,0.169205,-0.202038,0
2024-11-29 17:59:04.377,-1.12044,1.24965,8.25494,-0.0408504,0.180811,-0.193486,0
2024-11-29 17:59:04.380,-1.13001,1.25922,8.29801,-0.046348,0.191806,-0.183712,0
2024-11-29 17:59:04.382,-1.13719,1.25683,8.32672,-0.0518457,0.204023,-0.175771,0
2024-11-29 17:59:04.384,-1.16112,1.2664,8.33151,-0.0536782,0.217462,-0.164165,0
2024-11-29 17:59:04.386,-1.18026,1.28794,8.34347,-0.0542891,0.228457,-0.15317,0
2024-11-29 17:59:04.389,-1.18983,1.29512,8.34826,-0.0530674,0.241896,-0.141564,0
2024-11-29 17:59:04.392,-1.20658,1.2999,8.32912,-0.0530674,0.256556,-0.129958,0
2024-11-29 17:59:04.394,-1.22572,1.31665,8.3004,-0.050624,0.267551,-0.11713,0
2024-11-29 17:59:04.396,-1.23051,1.3334,8.26451,-0.0475697,0.279768,-0.104302,0
2024-11-29 17:59:04.398,-1.22812,1.35015,8.24058,-0.0451263,0.288931,-0.0914744,0
2024-11-29 17:59:04.401,-1.23529,1.36451,8.21426,-0.0420721,0.297483,-0.0792574,0
2024-11-29 17:59:04.404,-1.24487,1.37647,8.16401,-0.0371853,0.305424,-0.0652079,0
2024-11-29 17:59:04.406,-1.24247,1.38844,8.10868,-0.0341311,0.310921,-0.0548235,0
2024-11-29 17:59:04.407,-1.23529,1.41745,8.04646,-0.030466,0.316419,-0.0432174,0
2024-11-29 17:59:04.411,-1.23769,1.43898,7.98425,-0.0274118,0.31703,-0.0322222,0
2024-11-29 17:59:04.413,-1.21854,1.44616,7.934,-0.0213033,0.313975,-0.0108425,0
2024-11-29 17:59:04.415,-1.2018,1.45813,7.88136,-0.0188599,0.307867,-0.00106898,0
2024-11-29 17:59:04.418,-1.19701,1.47248,7.8335,-0.0176382,0.299926,0.00809373,0
2024-11-29 17:59:04.420,-1.17787,1.48445,7.78325,-0.0170274,0.287709,0.0154239,0
2024-11-29 17:59:04.421,-1.18026,1.4988,7.72822,-0.0170274,0.287709,0.0154239,0
2024-11-29 17:59:04.425,-1.17547,1.51077,7.6684,-0.0170274,0.27427,0.0215324,0
2024-11-29 17:59:04.426,-1.15633,1.52752,7.62054,-0.0182491,0.261443,0.0300842,0
2024-11-29 17:59:04.429,-1.16351,1.55862,7.59183,-0.0164165,0.249226,0.0374144,0
2024-11-29 17:59:04.431,-1.16112,1.58734,7.56521,-0.0194708,0.23823,0.042912,0
2024-11-29 17:59:04.434,-1.15633,1.62084,7.5341,-0.0200816,0.226013,0.0484096,0
2024-11-29 17:59:04.436,-1.15633,1.65434,7.50299,-0.0206925,0.213797,0.0563507,0
2024-11-29 17:59:04.439,-1.15155,1.67348,7.47667,-0.0219141,0.202801,0.0612374,0
2024-11-29 17:59:04.441,-1.1348,1.68066,7.45514,-0.0231358,0.194249,0.0673459,0
2024-11-29 17:59:04.443,-1.11805,1.69262,7.44317,-0.0231358,0.183254,0.0752869,0
2024-11-29 17:59:04.445,-1.10608,1.70698,7.43121,-0.0206925,0.170426,0.0777303,0
2024-11-29 17:59:04.447,-1.08215,1.70219,7.41925,-0.0237467,0.157599,0.0826171,0
2024-11-29 17:59:04.451,-1.06301,1.71177,7.4001,-0.0249684,0.145382,0.0875039,0
2024-11-29 17:59:04.453,-1.04387,1.73569,7.37857,-0.0268009,0.125835,0.0972774,0
2024-11-29 17:59:04.455,-1.03669,1.75484,7.35703,-0.0268009,0.125835,0.0972774,0
2024-11-29 17:59:04.457,-1.04148,1.77398,7.3355,-0.0286335,0.117283,0.100943,0
2024-11-29 17:59:04.460,-1.04148,1.79791,7.32593,-0.030466,0.113007,0.105218,0
2024-11-29 17:59:04.461,-1.02951,1.82184,7.31396,-0.0335202,0.106898,0.109494,0
2024-11-29 17:59:04.465,-1.02951,1.84098,7.28764,-0.0390179,0.0934596,0.119268,0
2024-11-29 17:59:04.467,-1.02233,1.8673,7.26611,-0.0390179,0.0934596,0.119268,0
2024-11-29 17:59:04.468,-0.988834,1.89123,7.24936,-0.046348,0.0897945,0.122322,0
2024-11-29 17:59:04.472,-0.940978,1.90319,7.22303,-0.0591758,0.0751342,0.129041,0
2024-11-29 17:59:04.473,-0.909871,1.91516,7.19911,-0.0591758,0.0751342,0.129041,0
2024-11-29 17:59:04.477,-0.897907,1.93191,7.17278,-0.0787229,0.0629173,0.130874,0
2024-11-29 17:59:04.478,-0.869193,1.93191,7.17518,-0.0787229,0.0629173,0.130874,0
2024-11-29 17:59:04.481,-0.857229,1.94626,7.21346,-0.0970484,0.0574196,0.132707,0
2024-11-29 17:59:04.484,-0.847657,1.98963,7.235,-0.103768,0.0561979,0.132096,0
2024-11-29 17:59:04.485,-0.821037,2.01835,7.24457,-0.103768,0.0561979,0.132096,0
2024-11-29 17:59:04.488,-0.809073,2.05185,7.28286,-0.115374,0.0555871,0.133317,0
2024-11-29 17:59:04.491,-0.809073,2.08774,7.32353,-0.122704,0.0568088,0.13515,0
2024-11-29 17:59:04.492,-0.80668,2.11406,7.35703,-0.122704,0.0568088,0.13515,0
2024-11-29 17:59:04.494,-0.797109,2.13799,7.38814,-0.14164,0.0549763,0.134539,0
2024-11-29 17:59:04.497,-0.76361,2.15952,7.42642,-0.150192,0.051922,0.133928,0
2024-11-29 17:59:04.499,-0.722932,2.18106,7.47189,-0.155079,0.0500895,0.134539,0
2024-11-29 17:59:04.501,-0.706182,2.20738,7.51496,-0.164852,0.0452027,0.131485,0
2024-11-29 17:59:04.505,-0.696611,2.22413,7.54846,-0.17768,0.0354291,0.124766,0
2024-11-29 17:59:04.506,-0.682254,2.22174,7.59183,-0.17768,0.0354291,0.124766,0
2024-11-29 17:59:04.510,-0.665504,2.2337,7.63968,-0.19173,0.0226013,0.118657,0
2024-11-29 17:59:04.511,-0.639183,2.26241,7.68515,-0.19173,0.0226013,0.118657,0
2024-11-29 17:59:04.513,-0.610469,2.27677,7.74018,-0.196006,0.0152712,0.114992,0
2024-11-29 17:59:04.516,-0.60329,2.28156,7.8,-0.200892,0.00916271,0.114992,0
2024-11-29 17:59:04.518,-0.600898,2.3007,7.867,-0.205779,0.00183254,0.112549,0
2024-11-29 17:59:04.520,-0.605683,2.32702,7.92682,-0.213109,-0.00733017,0.109494,0
2024-11-29 17:59:04.524,-0.60329,2.33898,7.98425,-0.214331,-0.0122169,0.108884,0
2024-11-29 17:59:04.525,-0.593719,2.33898,8.04646,-0.218607,-0.0195471,0.108273,0
2024-11-29 17:59:04.528,-0.610469,2.35573,8.11825,-0.222272,-0.0293207,0.108273,0
2024-11-29 17:59:04.531,-0.60329,2.37009,8.2023,-0.224715,-0.0378725,0.107051,0
2024-11-29 17:59:04.533,-0.591326,2.39163,8.27887,-0.225937,-0.0458135,0.108273,0
2024-11-29 17:59:04.534,-0.586541,2.42034,8.35783,-0.224715,-0.0549763,0.110105,0
2024-11-29 17:59:04.537,-0.567398,2.43948,8.43679,-0.227159,-0.0647498,0.110105,0
2024-11-29 17:59:04.540,-0.555434,2.44666,8.50858,-0.224715,-0.0861295,0.111327,0
2024-11-29 17:59:04.542,-0.550648,2.45863,8.57797,-0.224715,-0.0861295,0.111327,0
2024-11-29 17:59:04.545,-0.533899,2.47298,8.66172,-0.226548,-0.0965139,0.111938,0
2024-11-29 17:59:04.546,-0.507577,2.49452,8.73141,-0.225937,-0.110563,0.112549,0
2024-11-29 17:59:04.550,-0.495613,2.52832,8.78644,-0.224105,-0.121559,0.11377,0
2024-11-29 17:59:04.552,-0.488435,2.55224,8.85105,-0.22105,-0.144771,0.11377,0
2024-11-29 17:59:04.554,-0.483649,2.59532,8.92762,-0.22044,-0.150879,0.11377,0
2024-11-29 17:59:04.557,-0.486042,2.64796,8.98744,-0.219829,-0.155155,0.114381,0
2024-11-29 17:59:04.559,-0.476471,2.68146,9.03051,-0.219829,-0.155155,0.114381,0
2024-11-29 17:59:04.560,-0.419043,2.69581,9.06162,-0.216774,-0.159431,0.113159,0
2024-11-29 17:59:04.563,-0.361615,2.69821,9.1023,-0.217996,-0.161264,0.110716,0
2024-11-29 17:59:04.566,-0.313759,2.69342,9.14297,-0.22105,-0.16554,0.104608,0
2024-11-29 17:59:04.568,-0.265603,2.70539,9.15973,-0.22105,-0.16554,0.104608,0
2024-11-29 17:59:04.571,-0.241675,2.7341,9.19322,-0.225326,-0.162485,0.0984991,0
2024-11-29 17:59:04.573,-0.30658,2.80349,9.2004,-0.225326,-0.162485,0.0984991,0
2024-11-29 17:59:04.574,-0.361615,2.87288,9.22194,-0.229602,-0.160653,0.100332,0
2024-11-29 17:59:04.577,-0.335294,2.91356,9.32034,-0.231435,-0.160653,0.09911,0
2024-11-29 17:59:04.579,-0.32333,2.96142,9.41845,-0.233878,-0.163707,0.100332,0
2024-11-29 17:59:04.583,-0.316152,2.99252,9.49023,-0.237543,-0.16615,0.100943,0
2024-11-29 17:59:04.585,-0.277567,2.99252,9.52852,-0.240597,-0.161264,0.102164,0
2024-11-29 17:59:04.587,-0.387936,3.08106,9.38495,-0.240597,-0.161264,0.102164,0
2024-11-29 17:59:04.589,-0.519542,3.16989,9.21237,-0.250371,-0.144771,0.110105,0
2024-11-29 17:59:04.592,-0.385544,3.13879,9.30599,-0.270529,-0.141717,0.121711,0
2024-11-29 17:59:04.594,-0.212961,3.11486,9.46631,-0.270529,-0.141717,0.121711,0
2024-11-29 17:59:04.596,-0.105284,3.09571,9.56441,-0.280303,-0.153323,0.121711,0
2024-11-29 17:59:04.598,0.00478565,3.06192,9.64577,-0.289465,-0.168594,0.118046,0
2024-11-29 17:59:04.601,0.0981057,3.01884,9.73669,-0.298628,-0.183254,0.111327,0
2024-11-29 17:59:04.604,0.18664,2.99492,9.82792,-0.310234,-0.193639,0.0893364,0
2024-11-29 17:59:04.606,0.263211,2.97577,9.88296,-0.310234,-0.193639,0.0893364,0
2024-11-29 17:59:04.608,0.337687,2.96142,9.95235,-0.313288,-0.191195,0.0771195,0
2024-11-29 17:59:04.611,0.402293,2.95663,10.0337,-0.311456,-0.183865,0.0642917,0
2024-11-29 17:59:04.613,0.428614,2.96142,10.1175,-0.312677,-0.16615,0.0355819,0
2024-11-29 17:59:04.615,0.457328,2.97577,10.2084,-0.312677,-0.16615,0.0355819,0
2024-11-29 17:59:04.618,0.481256,3.00449,10.3017,-0.309623,-0.158209,0.0233649,0
2024-11-29 17:59:04.620,0.502792,3.03799,10.3929,-0.302904,-0.146603,-0.00106898,0
2024-11-29 17:59:04.623,0.50997,3.06431,10.4695,-0.30046,-0.137441,-0.0114534,0
2024-11-29 17:59:04.625,0.500399,3.08854,10.5365,-0.297406,-0.124002,-0.0193944,0
2024-11-29 17:59:04.627,0.486042,3.11007,10.5676,-0.297406,-0.124002,-0.0193944,0
2024-11-29 17:59:04.629,0.474078,3.13161,10.5867,-0.291909,-0.104455,-0.0285571,0
2024-11-29 17:59:04.631,0.462114,3.13879,10.5963,-0.284578,-0.0830752,-0.0352764,0
2024-11-29 17:59:04.634,0.435793,3.12443,10.6131,-0.282746,-0.059863,-0.0438283,0
2024-11-29 17:59:04.637,0.3999,3.11486,10.6466,-0.270529,-0.015882,-0.0548235,0
2024-11-29 17:59:04.639,0.349651,3.12443,10.6777,-0.270529,-0.015882,-0.0548235,0
2024-11-29 17:59:04.641,0.313759,3.12921,10.7303,-0.264421,0.00244339,-0.0584886,0
2024-11-29 17:59:04.644,0.270389,3.14357,10.783,-0.25648,0.0189363,-0.0615429,0
2024-11-29 17:59:04.645,0.210568,3.15793,10.8284,-0.248538,0.0335966,-0.0639862,0
2024-11-29 17:59:04.649,0.16989,3.16511,10.8739,-0.230213,0.0635281,-0.0645971,0
2024-11-29 17:59:04.651,0.129212,3.16989,10.9098,-0.217996,0.0794101,-0.0639862,0
2024-11-29 17:59:04.653,0.0717847,3.16989,10.917,-0.203947,0.0983464,-0.0633754,0
2024-11-29 17:59:04.655,0.0311067,3.15314,10.9122,-0.203947,0.0983464,-0.0633754,0
2024-11-29 17:59:04.657,0.0,3.13879,10.917,-0.190508,0.11545,-0.0627646,0
2024-11-29 17:59:04.660,-0.0287139,3.14596,10.9146,-0.176459,0.131332,-0.0584886,0
2024-11-29 17:59:04.662,-0.0550349,3.15075,10.8954,-0.161187,0.148436,-0.0603212,0
2024-11-29 17:59:04.665,-0.0789631,3.13639,10.8787,-0.136143,0.173481,-0.0584886,0
2024-11-29 17:59:04.667,-0.112463,3.13639,10.8547,-0.136143,0.173481,-0.0584886,0
2024-11-29 17:59:04.670,-0.148355,3.15314,10.8212,-0.109265,0.188141,-0.0590995,0
2024-11-29 17:59:04.672,-0.18664,3.17468,10.7949,-0.109265,0.188141,-0.0590995,0
2024-11-29 17:59:04.673,-0.236889,3.19861,10.7638,-0.0976592,0.190584,-0.0603212,0
2024-11-29 17:59:04.677,-0.289831,3.21536,10.7207,-0.0811663,0.188141,-0.0597103,0
2024-11-29 17:59:04.679,-0.337687,3.24646,10.6849,-0.0811663,0.188141,-0.0597103,0
2024-11-29 17:59:04.680,-0.368794,3.29193,10.6633,-0.0713928,0.183865,-0.0578778,0
2024-11-29 17:59:04.683,-0.3999,3.335,10.6442,-0.066506,0.177757,-0.0572669,0
2024-11-29 17:59:04.685,-0.438186,3.37567,10.6035,-0.0622301,0.171037,-0.0548235,0
2024-11-29 17:59:04.689,-0.445364,3.39242,10.5341,-0.058565,0.155766,-0.0511585,0
2024-11-29 17:59:04.690,-0.454935,3.40439,10.4767,-0.058565,0.155766,-0.0511585,0
2024-11-29 17:59:04.693,-0.445364,3.41875,10.4456,-0.0597867,0.145992,-0.0499368,0
2024-11-29 17:59:04.695,-0.423829,3.41875,10.4145,-0.0671168,0.132554,-0.0487151,0
2024-11-29 17:59:04.697,-0.409472,3.42832,10.4073,-0.0756687,0.120948,-0.0468825,0
2024-11-29 17:59:04.700,-0.373579,3.44507,10.4169,-0.0836097,0.110563,-0.0444391,0
2024-11-29 17:59:04.703,-0.342473,3.44746,10.4169,-0.0952158,0.10079,-0.0438283,0
2024-11-29 17:59:04.705,-0.30658,3.4331,10.4216,-0.1056,0.0965139,-0.0432174,0
2024-11-29 17:59:04.706,-0.265603,3.41635,10.4216,-0.119039,0.0897945,-0.0426066,0
2024-11-29 17:59:04.710,-0.224925,3.3996,10.4216,-0.147138,0.0806318,-0.0401632,0
2024-11-29 17:59:04.711,-0.181855,3.38046,10.4384,-0.147138,0.0806318,-0.0401632,0
2024-11-29 17:59:04.713,-0.143569,3.37328,10.4743,-0.165463,0.0745234,-0.0426066,0
2024-11-29 17:59:04.717,-0.107677,3.3685,10.5126,-0.183789,0.0708583,-0.0407741,0
2024-11-29 17:59:04.719,-0.0765703,3.35653,10.5532,-0.200892,0.0684149,-0.0389415,0
2024-11-29 17:59:04.721,-0.040678,3.34696,10.6011,-0.217385,0.0647498,-0.0407741,0
2024-11-29 17:59:04.723,-0.0143569,3.35414,10.6633,-0.234489,0.059863,-0.0419957,0
2024-11-29 17:59:04.725,-0.0119641,3.3685,10.7423,-0.251593,0.0568088,-0.0426066,0
2024-11-29 17:59:04.729,-0.00717847,3.37328,10.8165,-0.27847,0.0470352,-0.0426066,0
2024-11-29 17:59:04.730,-0.00239282,3.37328,10.9026,-0.27847,0.0470352,-0.0426066,0
2024-11-29 17:59:04.733,0.0215354,3.38046,11.013,-0.302293,0.0366508,-0.0419957,0
2024-11-29 17:59:04.735,0.040678,3.38525,11.1446,-0.302293,0.0366508,-0.0419957,0
2024-11-29 17:59:04.737,0.0526421,3.37567,11.2834,-0.309012,0.0317641,-0.0407741,0
2024-11-29 17:59:04.740,0.081356,3.35892,11.4174,-0.313288,0.0256556,-0.0383307,0
2024-11-29 17:59:04.742,0.11007,3.34218,11.554,-0.31451,0.0207688,-0.0377198,0
2024-11-29 17:59:04.744,0.124427,3.32543,11.7072,-0.31451,0.0171037,-0.0364981,0
2024-11-29 17:59:04.747,0.124427,3.30628,11.8555,-0.310234,0.0146603,-0.0346656,0
2024-11-29 17:59:04.750,0.131605,3.28475,11.9776,-0.295574,0.00733017,-0.0279463,0
2024-11-29 17:59:04.752,0.145962,3.27278,12.1119,-0.295574,0.00733017,-0.0279463,0
2024-11-29 17:59:04.754,0.157926,3.26082,12.2483,-0.284578,0.00427593,-0.0267246,0
2024-11-29 17:59:04.757,0.165105,3.23689,12.3679,-0.253425,-0.00244339,-0.0206161,0
2024-11-29 17:59:04.759,0.18664,3.22732,12.4899,-0.253425,-0.00244339,-0.0206161,0
2024-11-29 17:59:04.761,0.217747,3.21775,12.6048,-0.238765,-0.00733017,-0.0181727,0
2024-11-29 17:59:04.763,0.244068,3.20339,12.7128,-0.22044,-0.0103844,-0.0181727,0
2024-11-29 17:59:04.765,0.263211,3.19861,12.7917,-0.200892,-0.00916271,-0.0175619,0
2024-11-29 17:59:04.768,0.272782,3.18186,12.8539,-0.178291,-0.0103844,-0.0193944,0
2024-11-29 17:59:04.770,0.263211,3.16989,12.9281,-0.156301,-0.00794101,-0.0193944,0
2024-11-29 17:59:04.773,0.236889,3.1675,12.9951,-0.13431,-0.00549763,-0.0206161,0
2024-11-29 17:59:04.776,0.208176,3.1675,13.0478,-0.109265,-0.00244339,-0.0187836,0
2024-11-29 17:59:04.777,0.165105,3.17946,13.0813,-0.0884965,-0.00305424,-0.0175619,0
2024-11-29 17:59:04.780,0.124427,3.18425,13.1243,-0.0634518,-0.00244339,-0.0163402,0
2024-11-29 17:59:04.783,0.0837488,3.18664,13.1578,-0.0408504,-0.00366508,-0.0108425,0
2024-11-29 17:59:04.784,0.0358923,3.201,13.1794,-0.0170274,-0.00244339,-0.00717746,0
2024-11-29 17:59:04.787,0.00717847,3.23211,13.1842,0.00435229,0.0,0.00137441,0
2024-11-29 17:59:04.790,0.0119641,3.268,13.1746,0.0263428,0.00244339,0.00809373,0
2024-11-29 17:59:04.791,0.0143569,3.27996,13.1698,0.0526092,0.00671932,0.0129805,0
2024-11-29 17:59:04.795,0.00957129,3.27757,13.1459,0.0721563,0.0109953,0.0172564,0
2024-11-29 17:59:04.797,0.0239282,3.268,13.1148,0.116137,0.0219905,0.0239758,0
2024-11-29 17:59:04.799,0.0358923,3.268,13.0693,0.116137,0.0219905,0.0239758,0
2024-11-29 17:59:04.801,0.0502493,3.27039,13.019,0.133241,0.0207688,0.0251975,0
2024-11-29 17:59:04.804,0.0430708,3.26082,12.9401,0.150956,0.0189363,0.0245866,0
2024-11-29 17:59:04.805,0.026321,3.25364,12.8324,0.163173,0.0152712,0.0227541,0
2024-11-29 17:59:04.808,0.0239282,3.24885,12.7152,0.171724,0.00977356,0.019089,0
2024-11-29 17:59:04.810,0.0215354,3.25843,12.5833,0.177222,0.00549763,0.0166456,0
2024-11-29 17:59:04.813,0.0119641,3.26321,12.4445,0.179665,-0.00427593,0.014813,0
2024-11-29 17:59:04.816,-0.0143569,3.26082,12.3081,0.177833,-0.0183254,0.00992627,0
2024-11-29 17:59:04.818,-0.0334995,3.27039,12.186,0.171114,-0.0342074,0.00565034,0
2024-11-29 17:59:04.819,-0.0287139,3.27518,12.0664,0.159507,-0.0580305,0.00137441,0
2024-11-29 17:59:04.822,-0.0119641,3.27996,11.9513,0.142404,-0.0842969,-0.00290152,0
2024-11-29 17:59:04.824,0.00717847,3.27518,11.846,0.121635,-0.11545,-0.00962084,0
2024-11-29 17:59:04.827,0.0311067,3.2656,11.755,0.0965902,-0.152101,-0.0151185,0
2024-11-29 17:59:04.829,0.0717847,3.24407,11.6665,0.0697129,-0.189974,-0.0206161,0
2024-11-29 17:59:04.831,0.133998,3.21296,11.6091,0.0385597,-0.2309,-0.0310005,0
2024-11-29 17:59:04.835,0.215354,3.19621,11.5804,0.00313059,-0.275492,-0.0389415,0
2024-11-29 17:59:04.836,0.299402,3.1675,11.5851,-0.0335202,-0.323138,-0.0493259,0
2024-11-29 17:59:04.839,0.392722,3.12921,11.621,-0.115374,-0.426371,-0.076814,0
2024-11-29 17:59:04.842,0.498006,3.09811,11.6713,-0.115374,-0.426371,-0.076814,0
2024-11-29 17:59:04.844,0.608076,3.07149,11.7598,-0.155079,-0.477072,-0.0939178,0
2024-11-29 17:59:04.846,0.715753,3.03559,11.8675,-0.197838,-0.527772,-0.111632,0
2024-11-29 17:59:04.849,0.816252,2.99731,11.9776,-0.239987,-0.571142,-0.130569,0
2024-11-29 17:59:04.851,0.929013,2.94706,12.0951,-0.317564,-0.643222,-0.17455,0
2024-11-29 17:59:04.853,1.0654,2.87767,12.2554,-0.317564,-0.643222,-0.17455,0
2024-11-29 17:59:04.856,1.18983,2.78674,12.4469,-0.385979,-0.693922,-0.228915,0
2024-11-29 17:59:04.858,1.29751,2.71256,12.6529,-0.412856,-0.707972,-0.257014,0
2024-11-29 17:59:04.861,1.40279,2.65035,12.8563,-0.412856,-0.707972,-0.257014,0
2024-11-29 17:59:04.863,1.48923,2.5666,13.0549,-0.437901,-0.71408,-0.284502,0
2024-11-29 17:59:04.865,1.55384,2.48255,13.2538,-0.478217,-0.704307,-0.338257,0
2024-11-29 17:59:04.868,1.58734,2.41077,13.4405,-0.478217,-0.704307,-0.338257,0
2024-11-29 17:59:04.869,1.6017,2.33181,13.6367,-0.492877,-0.689036,-0.364523,0
2024-11-29 17:59:04.872,1.60409,2.25524,13.8284,-0.498986,-0.668878,-0.392011,0
2024-11-29 17:59:04.874,1.58016,2.17149,14.0294,-0.50204,-0.646276,-0.418278,0
2024-11-29 17:59:04.876,1.52991,2.07577,14.2208,-0.498375,-0.616345,-0.44149,0
2024-11-29 17:59:04.878,1.45813,1.98245,14.3791,-0.486769,-0.582137,-0.464702,0
2024-11-29 17:59:04.881,1.38365,1.89362,14.525,-0.47333,-0.543654,-0.485471,0
2024-11-29 17:59:04.883,1.28076,1.80987,14.6471,-0.451951,-0.494175,-0.504407,0
2024-11-29 17:59:04.885,1.17547,1.7333,14.7404,-0.425073,-0.43981,-0.518457,0
2024-11-29 17:59:04.889,1.09651,1.6328,14.8122,-0.356048,-0.312143,-0.548999,3
2024-11-29 17:59:04.891,1.01037,1.51795,14.8505,-0.356048,-0.312143,-0.548999,0
2024-11-29 17:59:04.892,0.909871,1.41984,14.8481,-0.312677,-0.241896,-0.559994,0
2024-11-29 17:59:04.896,0.809073,1.31665,14.817,-0.218607,-0.0867403,-0.577098,0
2024-11-29 17:59:04.898,0.689432,1.21376,14.7763,-0.218607,-0.0867403,-0.577098,0
2024-11-29 17:59:04.901,0.548256,1.12044,14.6901,-0.110487,0.0769668,-0.581985,0
2024-11-29 17:59:04.903,0.390329,1.04387,14.5585,-0.0512348,0.15882,-0.57893,0
2024-11-29 17:59:04.904,0.22014,0.974477,14.4174,-0.0512348,0.15882,-0.57893,0
2024-11-29 17:59:04.908,0.0550349,0.924228,14.2591,0.00923906,0.23762,-0.573433,0
2024-11-29 17:59:04.910,-0.112463,0.902692,14.0629,0.0709346,0.31703,-0.564881,0
2024-11-29 17:59:04.912,-0.277567,0.8668,13.8332,0.135074,0.392164,-0.553275,0
2024-11-29 17:59:04.915,-0.440578,0.828216,13.596,0.259076,0.528994,-0.519067,0
2024-11-29 17:59:04.917,-0.591326,0.787538,13.3304,0.259076,0.528994,-0.519067,0
2024-11-29 17:59:04.919,-0.73011,0.73011,13.0478,0.321382,0.589468,-0.497688,0
2024-11-29 17:59:04.921,-0.869193,0.701396,12.7439,0.380634,0.643833,-0.473865,0
2024-11-29 17:59:04.923,-1.0008,0.675075,12.4134,0.439276,0.693312,-0.448209,0
2024-11-29 17:59:04.926,-1.12762,0.65354,12.0664,0.493641,0.73546,-0.421332,0
2024-11-29 17:59:04.928,-1.24726,0.63679,11.6976,0.542509,0.7715,-0.392622,0
2024-11-29 17:59:04.931,-1.35254,0.612862,11.3312,0.628638,0.817314,-0.330316,0
2024-11-29 17:59:04.934,-1.45573,0.610469,10.9675,0.662846,0.82892,-0.296108,0
2024-11-29 17:59:04.936,-1.56102,0.608076,10.5987,0.695221,0.831974,-0.261901,0
2024-11-29 17:59:04.938,-1.66391,0.608076,10.2491,0.720876,0.825255,-0.227082,0
2024-11-29 17:59:04.941,-1.74527,0.624826,9.91646,0.720876,0.825255,-0.227082,0
2024-11-29 17:59:04.942,-1.80987,0.663111,9.6003,0.742256,0.810594,-0.191042,0
2024-11-29 17:59:04.945,-1.8673,0.691825,9.29642,0.760581,0.791658,-0.156224,0
2024-11-29 17:59:04.947,-1.89841,0.720539,8.99941,0.769744,0.766002,-0.119573,0
2024-11-29 17:59:04.949,-1.90319,0.761217,8.74098,0.779517,0.734238,-0.0841442,0
2024-11-29 17:59:04.952,-1.90798,0.801895,8.49183,0.785015,0.698198,-0.0505476,0
2024-11-29 17:59:04.955,-1.89123,0.837787,8.25972,0.783793,0.61268,0.011148,0
2024-11-29 17:59:04.957,-1.84816,0.876371,8.05604,0.777685,0.565034,0.0423012,0
2024-11-29 17:59:04.958,-1.78355,0.929013,7.85982,0.777685,0.565034,0.0423012,0
2024-11-29 17:59:04.962,-1.70459,0.969691,7.68276,0.770966,0.513723,0.0691785,0
2024-11-29 17:59:04.964,-1.6352,1.01515,7.54128,0.759359,0.460579,0.0923906,0
2024-11-29 17:59:04.966,-1.54188,1.08694,7.41685,0.746532,0.406824,0.114381,0
2024-11-29 17:59:04.968,-1.43181,1.1348,7.29243,0.73065,0.351237,0.132707,0
2024-11-29 17:59:04.971,-1.3334,1.17547,7.18236,0.713546,0.292596,0.147978,0
2024-11-29 17:59:04.973,-1.2329,1.24247,7.12254,0.693388,0.233955,0.160195,0
2024-11-29 17:59:04.976,-1.10608,1.29512,7.07707,0.67323,0.17287,0.170579,0
2024-11-29 17:59:04.978,-0.974477,1.31665,7.02443,0.65124,0.109953,0.179131,0
2024-11-29 17:59:04.981,-0.852443,1.3334,7.0002,0.628027,0.0476461,0.182185,0
2024-11-29 17:59:04.982,-0.727717,1.36451,6.98345,0.604204,-0.0152712,0.18585,0
2024-11-29 17:59:04.985,-0.598505,1.39801,6.96431,0.578549,-0.0745234,0.186461,0
2024-11-29 17:59:04.987,-0.4669,1.40548,6.9691,0.554115,-0.130721,0.184629,0
2024-11-29 17:59:04.990,-0.330509,1.41266,6.97867,0.530292,-0.182032,0.183407,0
2024-11-29 17:59:04.991,-0.200997,1.41745,7.02204,0.503415,-0.225403,0.17852,0
2024-11-29 17:59:04.995,-0.0741775,1.41266,7.07707,0.480813,-0.25961,0.175466,0
2024-11-29 17:59:04.997,0.0741775,1.40279,7.1345,0.436832,-0.309089,0.166303,0
2024-11-29 17:59:04.999,0.210568,1.38844,7.19432,0.436832,-0.309089,0.166303,0
2024-11-29 17:59:05.002,0.337687,1.37886,7.26611,0.398349,-0.332912,0.152865,0
2024-11-29 17:59:05.004,0.464507,1.37408,7.32593,0.398349,-0.332912,0.152865,0
2024-11-29 17:59:05.007,0.574577,1.35494,7.37617,0.381245,-0.337188,0.143091,0
2024-11-29 17:59:05.009,0.699003,1.3334,7.42882,0.351924,-0.339631,0.12049,0
2024-11-29 17:59:05.011,0.828216,1.33579,7.45992,0.351924,-0.339631,0.12049,0
2024-11-29 17:59:05.013,0.929013,1.32144,7.50299,0.337264,-0.338409,0.104608,0
2024-11-29 17:59:05.016,0.988834,1.31665,7.54367,0.314663,-0.328636,0.0728435,0
2024-11-29 17:59:05.018,1.05823,1.3334,7.57239,0.314663,-0.328636,0.0728435,0
2024-11-29 17:59:05.020,1.13001,1.33819,7.60618,0.304278,-0.323138,0.0557398,0
2024-11-29 17:59:05.023,1.17069,1.34776,7.63968,0.287175,-0.301148,0.0215324,0
2024-11-29 17:59:05.024,1.20897,1.37408,7.65883,0.287175,-0.301148,0.0215324,0
2024-11-29 17:59:05.027,1.23769,1.40548,7.6684,0.281066,-0.287709,0.00442864,0
2024-11-29 17:59:05.030,1.26162,1.4342,7.6684,0.272514,-0.275492,-0.0138968,0
2024-11-29 17:59:05.032,1.26401,1.44616,7.66601,0.262741,-0.260221,-0.0358873,0
2024-11-29 17:59:05.034,1.25922,1.45573,7.64447,0.258465,-0.245561,-0.0505476,0
2024-11-29 17:59:05.037,1.24487,1.47966,7.60858,0.24808,-0.232733,-0.068873,0
2024-11-29 17:59:05.039,1.22572,1.49402,7.57239,0.241361,-0.219294,-0.0871984,0
2024-11-29 17:59:05.041,1.23051,1.51555,7.53889,0.231587,-0.208299,-0.106746,0
2024-11-29 17:59:05.043,1.21137,1.53948,7.51017,0.221203,-0.196693,-0.123238,0
2024-11-29 17:59:05.046,1.18505,1.55145,7.46949,0.208986,-0.188752,-0.13912,0
2024-11-29 17:59:05.048,1.15872,1.5658,7.42164,0.198602,-0.179589,-0.156224,0
2024-11-29 17:59:05.050,1.12522,1.58495,7.38096,0.185163,-0.17287,-0.172106,0
2024-11-29 17:59:05.053,1.08455,1.60409,7.3331,0.172335,-0.167372,-0.187377,0
2024-11-29 17:59:05.056,1.0319,1.61845,7.28286,0.157675,-0.161875,-0.202038,0
2024-11-29 17:59:05.058,0.972084,1.64716,7.24218,0.143015,-0.158209,-0.214866,0
2024-11-29 17:59:05.061,0.907478,1.68066,7.21346,0.143015,-0.158209,-0.214866,0
2024-11-29 17:59:05.062,0.837787,1.68544,7.18236,0.11064,-0.156988,-0.238689,0
2024-11-29 17:59:05.064,0.76361,1.69741,7.15125,0.0947577,-0.160653,-0.245408,0
2024-11-29 17:59:05.068,0.682254,1.73809,7.12254,0.0758214,-0.16554,-0.25396,0
2024-11-29 17:59:05.069,0.60329,1.77398,7.12254,0.0550526,-0.172259,-0.259457,0
2024-11-29 17:59:05.073,0.533899,1.82184,7.13211,0.0184018,-0.191806,-0.26862,0
2024-11-29 17:59:05.075,0.469292,1.86251,7.1345,7.63559e-05,-0.202801,-0.269842,0
2024-11-29 17:59:05.076,0.407079,1.87448,7.14646,7.63559e-05,-0.202801,-0.269842,0
2024-11-29 17:59:05.080,0.35683,1.90798,7.16561,-0.0164165,-0.213186,-0.268009,0
2024-11-29 17:59:05.081,0.30658,1.95105,7.19911,-0.0329094,-0.227235,-0.267398,0
2024-11-29 17:59:05.084,0.263211,1.97528,7.24218,-0.0616192,-0.252891,-0.26129,0
2024-11-29 17:59:05.086,0.224925,2.00399,7.2996,-0.0616192,-0.252891,-0.26129,0
2024-11-29 17:59:05.089,0.193819,2.0351,7.35943,-0.0738362,-0.265108,-0.254571,0
2024-11-29 17:59:05.091,0.167498,2.05902,7.4336,-0.0836097,-0.276103,-0.249684,0
2024-11-29 17:59:05.093,0.155533,2.08535,7.51017,-0.090329,-0.287709,-0.243575,0
2024-11-29 17:59:05.095,0.145962,2.10209,7.5676,-0.0970484,-0.296872,-0.236856,0
2024-11-29 17:59:05.098,0.145962,2.12124,7.64447,-0.100103,-0.304813,-0.230748,0
2024-11-29 17:59:05.100,0.160319,2.13081,7.72343,-0.103157,-0.311532,-0.224028,0
2024-11-29 17:59:05.102,0.172283,2.11645,7.78086,-0.104379,-0.31703,-0.214866,0
2024-11-29 17:59:05.105,0.200997,2.11167,7.82872,-0.101935,-0.321306,-0.206314,0
2024-11-29 17:59:05.108,0.215354,2.11645,7.88375,-0.0927724,-0.328025,-0.19654,0
2024-11-29 17:59:05.110,0.239282,2.12363,7.93161,-0.0927724,-0.328025,-0.19654,0
2024-11-29 17:59:05.112,0.275175,2.11406,7.95554,-0.0878856,-0.328025,-0.189821,0
2024-11-29 17:59:05.114,0.313759,2.0997,7.96511,-0.082388,-0.330468,-0.182491,0
2024-11-29 17:59:05.117,0.349651,2.10449,7.98425,-0.0701711,-0.334744,-0.17455,0
2024-11-29 17:59:05.119,0.373579,2.11167,7.99621,-0.0701711,-0.334744,-0.17455,0
2024-11-29 17:59:05.121,0.390329,2.12602,8.00818,-0.0646735,-0.333523,-0.171495,0
2024-11-29 17:59:05.123,0.390329,2.15952,8.02971,-0.058565,-0.332301,-0.168441,0
2024-11-29 17:59:05.126,0.395115,2.19541,8.02971,-0.0518457,-0.329858,-0.166609,0
2024-11-29 17:59:05.128,0.409472,2.22174,8.02493,-0.0469589,-0.323749,-0.163554,0
2024-11-29 17:59:05.130,0.411865,2.24806,8.0345,-0.0371853,-0.318251,-0.1605,0
2024-11-29 17:59:05.133,0.414257,2.26481,8.07996,-0.030466,-0.307256,-0.156224,0
2024-11-29 17:59:05.136,0.4334,2.28395,8.11586,-0.0219141,-0.29565,-0.153781,0
2024-11-29 17:59:05.137,0.447757,2.30548,8.13021,-0.0158057,-0.283433,-0.150116,0
2024-11-29 17:59:05.141,0.471685,2.31027,8.14487,-0.00603212,-0.267551,-0.147061,0
2024-11-29 17:59:05.143,0.488435,2.31266,8.16401,0.00251974,-0.25228,-0.143396,0
2024-11-29 17:59:05.145,0.495613,2.31027,8.1664,0.00923906,-0.237009,-0.137899,0
2024-11-29 17:59:05.147,0.50997,2.30309,8.15444,0.0159584,-0.218683,-0.136066,0
2024-11-29 17:59:05.150,0.519542,2.28634,8.15444,0.0245102,-0.188752,-0.129958,0
2024-11-29 17:59:05.153,0.529113,2.28634,8.14487,0.0245102,-0.188752,-0.129958,0
2024-11-29 17:59:05.154,0.531506,2.3007,8.12303,0.0300079,-0.170426,-0.128736,0
2024-11-29 17:59:05.157,0.533899,2.31266,8.11586,0.0318404,-0.155766,-0.126293,0
2024-11-29 17:59:05.159,0.529113,2.32941,8.09671,0.0348946,-0.139273,-0.125682,0
2024-11-29 17:59:05.161,0.519542,2.36531,8.07518,0.037338,-0.12278,-0.12446,0
2024-11-29 17:59:05.163,0.514756,2.39641,8.068,0.0379489,-0.108731,-0.125071,0
2024-11-29 17:59:05.167,0.50997,2.41555,8.06321,0.0391706,-0.0940705,-0.123238,0
2024-11-29 17:59:05.171,0.45015,2.4682,8.02493,0.0397814,-0.0714691,-0.119573,0
2024-11-29 17:59:05.171,0.45015,2.4682,8.02493,0.0397814,-0.0714691,-0.119573,0
2024-11-29 17:59:05.173,0.41665,2.51127,8.02493,0.0385597,-0.0623064,-0.120184,0
2024-11-29 17:59:05.176,0.385544,2.5331,8.01297,0.0312296,-0.0531437,-0.119573,0
2024-11-29 17:59:05.179,0.352044,2.55224,7.99382,0.0312296,-0.051922,-0.118963,0
2024-11-29 17:59:05.181,0.311366,2.57617,7.98186,0.0312296,-0.051922,-0.118963,0
2024-11-29 17:59:05.182,0.275175,2.59053,7.98425,0.0275645,-0.0500895,-0.120184,0
2024-11-29 17:59:05.185,0.248854,2.58574,7.98904,0.0238994,-0.0476461,-0.115908,0
2024-11-29 17:59:05.187,0.222533,2.6001,8.001,0.0202343,-0.0488678,-0.115297,0
2024-11-29 17:59:05.189,0.189033,2.62403,8.02732,0.0153475,-0.0525329,-0.114076,0
2024-11-29 17:59:05.193,0.153141,2.63121,8.05125,0.0110716,-0.0543654,-0.108578,0
2024-11-29 17:59:05.194,0.117248,2.63121,8.068,0.0110716,-0.0543654,-0.108578,0
2024-11-29 17:59:05.196,0.081356,2.61446,8.10629,0.00740652,-0.0568088,-0.104302,0
2024-11-29 17:59:05.200,0.040678,2.60967,8.14726,0.00679568,-0.0604739,-0.0994154,0
2024-11-29 17:59:05.202,0.0167498,2.61446,8.1664,0.00435229,-0.0647498,-0.0908635,0
2024-11-29 17:59:05.204,-0.00957129,2.60967,8.2023,0.00435229,-0.0647498,-0.0908635,0
2024-11-29 17:59:05.206,-0.0311067,2.60967,8.23819,0.00251974,-0.0671932,-0.0841442,0
2024-11-29 17:59:05.208,-0.0502493,2.6001,8.2669,0.00251974,-0.0684149,-0.0774249,0
2024-11-29 17:59:05.212,-0.066999,2.58096,8.29083,0.00251974,-0.0739125,-0.060932,0
2024-11-29 17:59:05.214,-0.0765703,2.57378,8.30519,0.00251974,-0.0739125,-0.060932,0
2024-11-29 17:59:05.215,-0.0909273,2.55942,8.32433,0.00557398,-0.0757451,-0.0542127,0
2024-11-29 17:59:05.219,-0.100499,2.53549,8.3363,0.00618483,-0.0794101,-0.0438283,0
2024-11-29 17:59:05.220,-0.0981057,2.53549,8.34826,0.00679568,-0.0842969,-0.0340547,0
2024-11-29 17:59:05.223,-0.100499,2.54028,8.37458,0.00984991,-0.0897945,-0.0181727,0
2024-11-29 17:59:05.225,-0.107677,2.54507,8.39133,0.00984991,-0.0897945,-0.0181727,0
2024-11-29 17:59:05.228,-0.105284,2.56182,8.41047,0.00923906,-0.0940705,-0.0077883,0
2024-11-29 17:59:05.232,-0.0957129,2.59532,8.47029,0.0141258,-0.101401,0.011148,0
2024-11-29 17:59:05.232,-0.0957129,2.59532,8.47029,0.0141258,-0.101401,0.011148,0
2024-11-29 17:59:05.234,-0.0933201,2.59292,8.47747,0.0147367,-0.106898,0.0227541,0
2024-11-29 17:59:05.237,-0.0717847,2.60249,8.49183,0.0165692,-0.109342,0.0319168,0
2024-11-29 17:59:05.239,-0.0550349,2.62164,8.52772,0.0196235,-0.110563,0.0423012,0
2024-11-29 17:59:05.242,-0.0358923,2.6336,8.55404,0.0159584,-0.117894,0.0642917,0
2024-11-29 17:59:05.244,-0.00239282,2.64078,8.58754,0.0159584,-0.117894,0.0642917,0
2024-11-29 17:59:05.247,0.0287139,2.64078,8.61386,0.0196235,-0.116672,0.0728435,0
2024-11-29 17:59:05.249,0.0502493,2.65753,8.62822,0.0208452,-0.113007,0.0813954,0
2024-11-29 17:59:05.251,0.0717847,2.66471,8.65693,0.0190126,-0.109953,0.091169,0
2024-11-29 17:59:05.254,0.107677,2.66949,8.7003,0.0196235,-0.106898,0.0978883,0
2024-11-29 17:59:05.256,0.157926,2.67906,8.7362,0.0202343,-0.0995681,0.102164,0
2024-11-29 17:59:05.259,0.205783,2.69821,8.7673,0.0269536,-0.0812427,0.114992,0
2024-11-29 17:59:05.261,0.258425,2.72453,8.80559,0.0257319,-0.0684149,0.119268,0
2024-11-29 17:59:05.263,0.318545,2.72453,8.84866,0.0257319,-0.0684149,0.119268,0
2024-11-29 17:59:05.265,0.366401,2.73171,8.87498,0.0269536,-0.0531437,0.122322,0
