timestamp,accel_x,accel_y,accel_z,gyro_x,gyro_y,gyro_z,step_timestamp
2024-12-11 14:41:55.252,-0.00239282,3.11725,9.5668,-0.0219141,-0.0110716,0.00297788,0
2024-12-11 14:41:55.253,-0.00239282,3.11725,9.5668,-0.0219141,-0.0110716,0.00297788,0
2024-12-11 14:41:55.253,-0.00239282,3.11725,9.5668,-0.0219141,-0.0110716,0.00297788,0
2024-12-11 14:41:55.253,-0.00239282,3.11725,9.5668,-0.0219141,-0.0110716,0.00297788,0
2024-12-11 14:41:55.253,-0.00239282,3.11725,9.5668,-0.0219141,-0.0110716,0.00297788,0
2024-12-11 14:41:55.253,-0.00239282,3.11725,9.5668,-0.0219141,-0.0110716,0.00297788,0
2024-12-11 14:41:55.253,-0.00239282,3.11725,9.5668,-0.0219141,-0.0110716,0.00297788,0
2024-12-11 14:41:55.253,-0.00239282,3.11725,9.5668,-0.0219141,-0.0110716,0.00297788,0
2024-12-11 14:41:55.253,-0.00239282,3.11725,9.5668,-0.0219141,-0.0110716,0.00297788,0
2024-12-11 14:41:55.253,-0.00239282,3.11725,9.5668,-0.0219141,-0.0110716,0.00297788,0
2024-12-11 14:41:55.253,-0.00239282,3.11725,9.5668,-0.0219141,-0.0110716,0.00297788,0
2024-12-11 14:41:55.253,-0.00239282,3.11725,9.5668,-0.0219141,-0.0110716,0.00297788,0
2024-12-11 14:41:55.253,-0.00239282,3.11725,9.5668,-0.0219141,-0.0110716,0.00297788,0
2024-12-11 14:41:55.253,-0.00239282,3.11725,9.5668,-0.0219141,-0.0110716,0.00297788,0
2024-12-11 14:41:55.253,-0.00239282,3.11725,9.5668,-0.0219141,-0.0110716,0.00297788,0
2024-12-11 14:41:55.253,-0.00239282,3.11725,9.5668,-0.0219141,-0.0110716,0.00297788,0
2024-12-11 14:41:55.253,-0.00239282,3.11725,9.5668,-0.0219141,-0.0110716,0.00297788,0
2024-12-11 14:41:55.253,-0.00239282,3.11725,9.5668,-0.0219141,-0.0110716,0.00297788,0
2024-12-11 14:41:55.253,-0.00239282,3.11725,9.5668,-0.0219141,-0.0110716,0.00297788,0
2024-12-11 14:41:55.253,-0.00239282,3.11725,9.5668,-0.0219141,-0.0110716,0.00297788,0
2024-12-11 14:41:55.253,-0.00239282,3.11725,9.5668,-0.0219141,-0.0110716,0.00297788,0
2024-12-11 14:41:55.253,-0.00239282,3.11725,9.5668,-0.0219141,-0.0110716,0.00297788,0
2024-12-11 14:41:55.253,-0.00239282,3.11725,9.5668,-0.0219141,-0.0110716,0.00297788,0
2024-12-11 14:41:55.253,-0.00239282,3.11725,9.5668,-0.0219141,-0.0110716,0.00297788,0
2024-12-11 14:41:55.253,-0.00239282,3.11725,9.5668,-0.0219141,-0.0110716,0.00297788,0
2024-12-11 14:41:55.253,-0.00239282,3.11725,9.5668,-0.0219141,-0.0110716,0.00297788,0
2024-12-11 14:41:55.253,-0.00239282,3.11725,9.5668,-0.0219141,-0.0110716,0.00297788,0
2024-12-11 14:41:55.253,-0.00239282,3.11725,9.5668,-0.0219141,-0.0110716,0.00297788,0
2024-12-11 14:41:55.253,-0.00239282,3.11725,9.5668,-0.0219141,-0.0110716,0.00297788,0
2024-12-11 14:41:55.253,-0.00239282,3.11725,9.5668,-0.0219141,-0.0110716,0.00297788,0
2024-12-11 14:41:55.253,-0.00239282,3.11725,9.5668,-0.0219141,-0.0110716,0.00297788,0
2024-12-11 14:41:55.253,-0.00239282,3.11725,9.5668,-0.0219141,-0.0110716,0.00297788,0
2024-12-11 14:41:55.253,-0.00239282,3.11725,9.5668,-0.0219141,-0.0110716,0.00297788,0
2024-12-11 14:41:55.253,-0.00239282,3.11725,9.5668,-0.0219141,-0.0110716,0.00297788,0
2024-12-11 14:41:55.253,-0.00239282,3.11725,9.5668,-0.0219141,-0.0110716,0.00297788,0
2024-12-11 14:41:55.253,-0.00239282,3.11725,9.5668,-0.0219141,-0.0110716,0.00297788,0
2024-12-11 14:41:55.253,-0.00239282,3.11725,9.5668,-0.0219141,-0.0110716,0.00297788,0
2024-12-11 14:41:55.253,-0.00239282,3.11725,9.5668,-0.0219141,-0.0110716,0.00297788,0
2024-12-11 14:41:55.253,-0.00239282,3.11725,9.5668,-0.0219141,-0.0110716,0.00297788,0
2024-12-11 14:41:55.253,-0.00239282,3.11725,9.5668,-0.0219141,-0.0110716,0.00297788,0
2024-12-11 14:41:55.253,-0.00239282,3.11725,9.5668,-0.0219141,-0.0110716,0.00297788,0
2024-12-11 14:41:55.253,-0.00239282,3.11725,9.5668,-0.0219141,-0.0110716,0.00297788,0
2024-12-11 14:41:55.253,-0.00239282,3.11725,9.5668,-0.0219141,-0.0110716,0.00297788,0
2024-12-11 14:41:55.254,-0.00239282,3.11725,9.5668,-0.0200816,-0.00862822,0.00236703,0
2024-12-11 14:41:55.254,-0.00239282,3.11725,9.5668,-0.0200816,-0.00862822,0.00236703,0
2024-12-11 14:41:55.254,-0.00239282,3.11725,9.5668,-0.0200816,-0.00862822,0.00236703,0
2024-12-11 14:41:55.254,-0.00239282,3.11725,9.5668,-0.0200816,-0.00862822,0.00236703,0
2024-12-11 14:41:55.254,-0.00239282,3.11725,9.5668,-0.0200816,-0.00862822,0.00236703,0
2024-12-11 14:41:55.254,-0.00239282,3.11725,9.5668,-0.0200816,-0.00862822,0.00236703,0
2024-12-11 14:41:55.254,-0.00239282,3.11725,9.5668,-0.0200816,-0.00862822,0.00236703,0
2024-12-11 14:41:55.254,-0.00239282,3.11725,9.5668,-0.0200816,-0.00862822,0.00236703,0
2024-12-11 14:41:55.254,-0.00239282,3.11725,9.5668,-0.0200816,-0.00862822,0.00236703,0
2024-12-11 14:41:55.254,-0.00239282,3.11725,9.5668,-0.0200816,-0.00862822,0.00236703,0
2024-12-11 14:41:55.254,-0.00239282,3.11725,9.5668,-0.0200816,-0.00862822,0.00236703,0
2024-12-11 14:41:55.254,-0.00239282,3.11725,9.5668,-0.0200816,-0.00862822,0.00236703,0
2024-12-11 14:41:55.254,-0.00239282,3.11725,9.5668,-0.0200816,-0.00862822,0.00236703,0
2024-12-11 14:41:55.254,-0.00239282,3.11725,9.5668,-0.0200816,-0.00862822,0.00236703,0
2024-12-11 14:41:55.254,-0.00239282,3.11725,9.5668,-0.0200816,-0.00862822,0.00236703,0
2024-12-11 14:41:55.254,-0.00239282,3.11725,9.5668,-0.0200816,-0.00862822,0.00236703,0
2024-12-11 14:41:55.254,-0.00239282,3.11725,9.5668,-0.0200816,-0.00862822,0.00236703,0
2024-12-11 14:41:55.254,-0.00239282,3.11725,9.5668,-0.0200816,-0.00862822,0.00236703,0
2024-12-11 14:41:55.254,-0.00239282,3.11725,9.5668,-0.0200816,-0.00862822,0.00236703,0
2024-12-11 14:41:55.254,-0.00239282,3.11725,9.5668,-0.0200816,-0.00862822,0.00236703,0
2024-12-11 14:41:55.254,-0.00239282,3.11725,9.5668,-0.0200816,-0.00862822,0.00236703,0
2024-12-11 14:41:55.254,-0.00239282,3.11725,9.5668,-0.0200816,-0.00862822,0.00236703,0
2024-12-11 14:41:55.254,-0.00239282,3.11725,9.5668,-0.0200816,-0.00862822,0.00236703,0
2024-12-11 14:41:55.262,0.0382852,3.12921,9.55963,-0.0200816,-0.00862822,0.00236703,0
2024-12-11 14:41:55.279,0.102891,3.13639,9.51655,-0.0268009,-0.00984991,-0.0165692,0
2024-12-11 14:41:55.279,0.102891,3.13639,9.51655,-0.0268009,-0.00984991,-0.0165692,0
2024-12-11 14:41:55.279,0.102891,3.13639,9.51655,-0.0268009,-0.00984991,-0.0165692,0
2024-12-11 14:41:55.280,0.102891,3.13639,9.51655,-0.0261901,-0.00984991,-0.0226777,0
2024-12-11 14:41:55.280,0.102891,3.13639,9.51655,-0.0261901,-0.00984991,-0.0226777,0
2024-12-11 14:41:55.281,0.0693919,3.14596,9.50698,-0.0261901,-0.00984991,-0.0226777,0
2024-12-11 14:41:55.281,0.0693919,3.14596,9.50698,-0.0261901,-0.00984991,-0.0226777,0
2024-12-11 14:41:55.284,0.0382852,3.14836,9.49502,-0.0280226,-0.00801737,-0.0232886,0
2024-12-11 14:41:55.284,0.0382852,3.14836,9.49502,-0.0280226,-0.00801737,-0.0232886,0
2024-12-11 14:41:55.285,0.0382852,3.14836,9.49502,-0.0274118,-0.00740652,-0.021456,0
2024-12-11 14:41:55.285,0.0382852,3.14836,9.49502,-0.0274118,-0.00740652,-0.021456,0
2024-12-11 14:41:55.286,0.0119641,3.15075,9.49741,-0.0274118,-0.00740652,-0.021456,0
2024-12-11 14:41:55.286,0.0119641,3.15075,9.49741,-0.0274118,-0.00740652,-0.021456,0
2024-12-11 14:41:55.286,0.0119641,3.15075,9.49741,-0.0274118,-0.00740652,-0.021456,0
2024-12-11 14:41:55.286,0.0119641,3.15075,9.49741,-0.0274118,-0.00740652,-0.021456,0
2024-12-11 14:41:55.286,0.0119641,3.15075,9.49741,-0.0274118,-0.00740652,-0.021456,0
2024-12-11 14:41:55.287,0.0119641,3.15075,9.49741,-0.0280226,-0.00618483,-0.0257319,0
2024-12-11 14:41:55.288,-0.00717847,3.15314,9.47588,-0.0280226,-0.00618483,-0.0257319,0
2024-12-11 14:41:55.289,-0.00717847,3.15314,9.47588,-0.0268009,-0.00374144,-0.0226777,0
2024-12-11 14:41:55.289,-0.00717847,3.15314,9.47588,-0.0268009,-0.00374144,-0.0226777,0
2024-12-11 14:41:55.289,-0.00717847,3.15314,9.47588,-0.0268009,-0.00374144,-0.0226777,0
2024-12-11 14:41:55.291,-0.0311067,3.15553,9.44956,-0.0268009,-0.00374144,-0.0226777,0
2024-12-11 14:41:55.291,-0.0311067,3.15553,9.44956,-0.0268009,-0.00374144,-0.0226777,0
2024-12-11 14:41:55.291,-0.0311067,3.15553,9.44956,-0.0268009,-0.00374144,-0.0226777,0
2024-12-11 14:41:55.291,-0.0311067,3.15553,9.44956,-0.0268009,-0.00374144,-0.0226777,0
2024-12-11 14:41:55.291,-0.0311067,3.15553,9.44956,-0.0268009,-0.00374144,-0.0226777,0
2024-12-11 14:41:55.292,-0.0311067,3.15553,9.44956,-0.0268009,-0.00374144,-0.0226777,0
2024-12-11 14:41:55.292,-0.0311067,3.15553,9.44956,-0.0268009,-0.00374144,-0.0226777,0
2024-12-11 14:41:55.292,-0.0311067,3.15553,9.44956,-0.0268009,-0.00374144,-0.0226777,0
2024-12-11 14:41:55.292,-0.0311067,3.15553,9.44956,-0.0268009,-0.00374144,-0.0226777,0
2024-12-11 14:41:55.292,-0.0311067,3.15553,9.44956,-0.0268009,-0.00374144,-0.0226777,0
2024-12-11 14:41:55.292,-0.0311067,3.15553,9.44956,-0.0268009,-0.00374144,-0.0226777,0
2024-12-11 14:41:55.292,-0.0311067,3.15553,9.44956,-0.0268009,-0.00374144,-0.0226777,0
2024-12-11 14:41:55.293,-0.040678,3.15075,9.44716,-0.0268009,-0.00374144,-0.0226777,0
2024-12-11 14:41:55.293,-0.040678,3.15075,9.44716,-0.0268009,-0.00374144,-0.0226777,0
2024-12-11 14:41:55.295,-0.040678,3.15075,9.44716,-0.0268009,-0.00374144,-0.0226777,0
2024-12-11 14:41:55.298,-0.0693919,3.12921,9.42563,-0.0286335,-0.00313059,-0.0184018,0
2024-12-11 14:41:55.298,-0.0693919,3.12921,9.42563,-0.0286335,-0.00313059,-0.0184018,0
2024-12-11 14:41:55.298,-0.0693919,3.12921,9.42563,-0.0286335,-0.00313059,-0.0184018,0
2024-12-11 14:41:55.299,-0.0693919,3.12921,9.42563,-0.0286335,-0.00313059,-0.0184018,0
2024-12-11 14:41:55.300,-0.0622134,3.11246,9.41845,-0.030466,-0.00374144,-0.0177909,0
2024-12-11 14:41:55.303,-0.0598206,3.11007,9.41606,-0.0298552,-0.00435229,-0.0165692,0
2024-12-11 14:41:55.306,-0.0693919,3.11725,9.42323,-0.0310769,-0.00923906,-0.00862822,0
2024-12-11 14:41:55.307,-0.0693919,3.12921,9.42563,-0.0310769,-0.00923906,-0.00862822,0
2024-12-11 14:41:55.309,-0.0598206,3.13639,9.44956,-0.0292443,-0.00984991,-0.00740652,0
2024-12-11 14:41:55.312,-0.0574277,3.14836,9.47109,-0.0274118,-0.0110716,-0.00740652,0
2024-12-11 14:41:55.317,-0.0430708,3.16032,9.46631,-0.0249684,-0.0116825,-0.00374144,0
2024-12-11 14:41:55.317,-0.0430708,3.16032,9.46631,-0.0249684,-0.0116825,-0.00374144,0
2024-12-11 14:41:55.319,-0.0454636,3.18186,9.47348,-0.0261901,-0.0104608,-0.0019089,0
2024-12-11 14:41:55.322,-0.0502493,3.19861,9.46631,-0.0213033,-0.00740652,-7.63559e-05,0
2024-12-11 14:41:55.324,-0.0430708,3.20339,9.45434,-0.0213033,-0.00740652,-7.63559e-05,0
2024-12-11 14:41:55.326,-0.0334995,3.201,9.43281,-0.0219141,-0.00862822,0.000534491,0
2024-12-11 14:41:55.328,-0.026321,3.19861,9.40409,-0.0219141,-0.0104608,0.00175619,0
2024-12-11 14:41:55.331,-0.0167498,3.20818,9.38256,-0.0249684,-0.013515,0.00236703,0
2024-12-11 14:41:55.333,-0.0143569,3.21775,9.37777,-0.0268009,-0.0159584,0.00114534,0
2024-12-11 14:41:55.336,-0.00717847,3.22014,9.38495,-0.0268009,-0.0159584,0.00114534,0
2024-12-11 14:41:55.338,0.00239282,3.22493,9.38734,-0.0316877,-0.0251211,-0.0019089,0
2024-12-11 14:41:55.341,0.00717847,3.22493,9.39452,-0.0347419,-0.0300079,-0.0019089,0
2024-12-11 14:41:55.342,0.0167498,3.24168,9.41845,-0.038407,-0.0330621,-0.00251974,0
2024-12-11 14:41:55.345,0.0287139,3.25364,9.4352,-0.0396287,-0.0348946,-0.00374144,0
2024-12-11 14:41:55.347,0.026321,3.24168,9.46152,-0.0408504,-0.0391706,-0.00679568,0
2024-12-11 14:41:55.350,0.040678,3.23928,9.49981,-0.0432938,-0.0403923,-0.00801737,0
2024-12-11 14:41:55.352,0.0646062,3.2345,9.5333,-0.0439046,-0.0410031,-0.0122933,0
2024-12-11 14:41:55.357,0.0981057,3.22493,9.58595,-0.0445155,-0.0397814,-0.0171801,0
2024-12-11 14:41:55.357,0.0981057,3.22493,9.58595,-0.0445155,-0.0397814,-0.0171801,0
2024-12-11 14:41:55.359,0.100499,3.22732,9.61227,-0.042683,-0.0410031,-0.021456,0
2024-12-11 14:41:55.361,0.105284,3.24168,9.64098,-0.0439046,-0.0403923,-0.0232886,0
2024-12-11 14:41:55.364,0.100499,3.25364,9.66012,-0.0408504,-0.0397814,-0.0263428,0
2024-12-11 14:41:55.367,0.0741775,3.25843,9.68166,-0.0390179,-0.0379489,-0.0300079,0
2024-12-11 14:41:55.368,0.0502493,3.2656,9.68884,-0.0371853,-0.0355055,-0.0324513,0
2024-12-11 14:41:55.371,0.0382852,3.2656,9.69602,-0.0371853,-0.0330621,-0.0324513,0
2024-12-11 14:41:55.374,0.0358923,3.26321,9.70559,-0.0353528,-0.0312296,-0.0355055,0
2024-12-11 14:41:55.375,0.00717847,3.25603,9.7008,-0.0353528,-0.0312296,-0.0355055,0
2024-12-11 14:41:55.378,-0.0143569,3.23928,9.69123,-0.0341311,-0.0275645,-0.0348946,0
2024-12-11 14:41:55.380,-0.0167498,3.21775,9.67927,-0.0329094,-0.0251211,-0.033673,0
2024-12-11 14:41:55.383,-0.0358923,3.19621,9.67687,-0.0298552,-0.0232886,-0.0312296,0
2024-12-11 14:41:55.385,-0.0622134,3.19143,9.67209,-0.030466,-0.021456,-0.0312296,0
2024-12-11 14:41:55.387,-0.0741775,3.201,9.66252,-0.0292443,-0.0202343,-0.0287862,0
2024-12-11 14:41:55.391,-0.081356,3.18425,9.66012,-0.0286335,-0.0177909,-0.0196235,0
2024-12-11 14:41:55.392,-0.0837488,3.17228,9.65055,-0.0286335,-0.0177909,-0.0196235,0
2024-12-11 14:41:55.394,-0.0861416,3.18186,9.64816,-0.0292443,-0.0177909,-0.0190126,0
2024-12-11 14:41:55.397,-0.0885344,3.19143,9.64098,-0.0280226,-0.0165692,-0.0165692,0
2024-12-11 14:41:55.399,-0.081356,3.19382,9.6338,-0.0286335,-0.0159584,-0.0122933,0
2024-12-11 14:41:55.401,-0.0598206,3.18903,9.63859,-0.0286335,-0.0171801,-0.0116825,0
2024-12-11 14:41:55.404,-0.0478565,3.19143,9.65295,-0.0298552,-0.0153475,-0.00984991,0
2024-12-11 14:41:55.407,-0.0287139,3.19861,9.65534,-0.0286335,-0.0147367,-0.00862822,0
2024-12-11 14:41:55.409,-0.00957129,3.19382,9.64337,-0.0286335,-0.0147367,-0.00862822,0
2024-12-11 14:41:55.411,0.0,3.18186,9.63859,-0.0268009,-0.013515,-0.00862822,0
2024-12-11 14:41:55.413,0.00957129,3.18664,9.63859,-0.0310769,-0.0141258,-0.00862822,0
2024-12-11 14:41:55.415,-0.00239282,3.19621,9.6338,-0.0292443,-0.0116825,-0.00679568,0
2024-12-11 14:41:55.418,-0.00717847,3.18664,9.63141,-0.0249684,-0.0104608,-0.00862822,0
2024-12-11 14:41:55.420,0.00239282,3.17228,9.6338,-0.0268009,-0.00862822,-0.00923906,0
2024-12-11 14:41:55.423,0.00957129,3.16989,9.61945,-0.0268009,-0.00679568,-0.0104608,0
2024-12-11 14:41:55.425,0.0167498,3.17468,9.59313,-0.0243575,-0.00618483,-0.0110716,0
2024-12-11 14:41:55.427,0.0191426,3.17228,9.57638,-0.022525,-0.00496313,-0.0116825,0
2024-12-11 14:41:55.430,0.0287139,3.17468,9.5692,-0.0231358,-0.00435229,-0.0104608,0
2024-12-11 14:41:55.432,0.0382852,3.18903,9.55005,-0.0231358,-0.00374144,-0.0122933,0
2024-12-11 14:41:55.434,0.0454636,3.18186,9.53809,-0.0231358,-0.00251974,-0.0159584,0
2024-12-11 14:41:55.437,0.0502493,3.18186,9.53809,-0.0237467,-0.00313059,-0.0159584,0
2024-12-11 14:41:55.439,0.0550349,3.19861,9.52852,-0.0237467,-0.000687203,-0.0190126,0
2024-12-11 14:41:55.441,0.0382852,3.19382,9.50698,-0.0237467,0.00114534,-0.0196235,0
2024-12-11 14:41:55.444,0.0311067,3.19382,9.48784,-0.0243575,0.00236703,-0.0238994,0
2024-12-11 14:41:55.447,0.0334995,3.21057,9.47348,-0.0286335,0.00664296,-0.0263428,0
2024-12-11 14:41:55.448,0.00717847,3.21296,9.46152,-0.0286335,0.00664296,-0.0263428,0
2024-12-11 14:41:55.451,-0.00239282,3.20818,9.43281,-0.0280226,0.0115297,-0.0275645,0
2024-12-11 14:41:55.453,-0.00239282,3.201,9.39452,-0.0310769,0.0139731,-0.0281753,0
2024-12-11 14:41:55.455,-0.0311067,3.19621,9.36581,-0.0335202,0.0151948,-0.0275645,0
2024-12-11 14:41:55.458,-0.0502493,3.19143,9.3347,-0.0371853,0.0176382,-0.029397,0
2024-12-11 14:41:55.460,-0.0693919,3.19621,9.30359,-0.0390179,0.0200816,-0.029397,0
2024-12-11 14:41:55.463,-0.081356,3.20578,9.28206,-0.0439046,0.0200816,-0.029397,0
2024-12-11 14:41:55.465,-0.081356,3.20578,9.2677,-0.0475697,0.0188599,-0.0300079,0
2024-12-11 14:41:55.467,-0.0909273,3.19382,9.26052,-0.0530674,0.0182491,-0.0281753,0
2024-12-11 14:41:55.471,-0.122034,3.18903,9.25305,-0.0591758,0.0121406,-0.0257319,0
2024-12-11 14:41:55.473,-0.141177,3.18664,9.25544,-0.0622301,0.0109189,-0.0251211,0
2024-12-11 14:41:55.475,-0.136391,3.18186,9.26531,-0.0622301,0.0109189,-0.0251211,0
2024-12-11 14:41:55.477,-0.129212,3.17468,9.28684,-0.0658951,0.0096972,-0.0257319,0
2024-12-11 14:41:55.479,-0.131605,3.17228,9.32034,-0.066506,0.00542127,-0.0226777,0
2024-12-11 14:41:55.481,-0.155533,3.16989,9.34188,-0.066506,0.00603212,-0.0220669,0
2024-12-11 14:41:55.484,-0.172283,3.16989,9.35384,-0.0677277,0.00542127,-0.021456,0
2024-12-11 14:41:55.486,-0.167498,3.17946,9.38016,-0.0658951,0.00542127,-0.0220669,0
2024-12-11 14:41:55.489,-0.179462,3.18664,9.39931,-0.0646735,0.00603212,-0.0184018,0
2024-12-11 14:41:55.491,-0.198604,3.18903,9.41127,-0.0634518,0.00603212,-0.0177909,0
2024-12-11 14:41:55.493,-0.205783,3.18903,9.39691,-0.0622301,0.00542127,-0.013515,0
2024-12-11 14:41:55.495,-0.217747,3.20339,9.3682,-0.0610084,0.00603212,-0.0129041,0
2024-12-11 14:41:55.498,-0.229711,3.21057,9.34188,-0.058565,0.00786466,-0.0116825,0
2024-12-11 14:41:55.501,-0.244068,3.21057,9.32274,-0.0573433,0.00908635,-0.00801737,0
2024-12-11 14:41:55.504,-0.251246,3.21536,9.30359,-0.0573433,0.0109189,-0.00618483,0
2024-12-11 14:41:55.506,-0.260818,3.22971,9.27249,-0.058565,0.0121406,-0.0019089,0
2024-12-11 14:41:55.507,-0.275175,3.2345,9.23869,-0.058565,0.0121406,-0.0019089,0
2024-12-11 14:41:55.510,-0.275175,3.22971,9.20519,-0.0610084,0.014584,0.00236703,0
2024-12-11 14:41:55.512,-0.27996,3.22014,9.18126,-0.0640626,0.014584,0.00358873,0
2024-12-11 14:41:55.514,-0.285045,3.21057,9.16212,-0.0677277,0.014584,0.00358873,0
2024-12-11 14:41:55.518,-0.282652,3.21296,9.15973,-0.0695602,0.0151948,0.00908635,0
2024-12-11 14:41:55.519,-0.277567,3.21775,9.15733,-0.0732253,0.014584,0.010308,0
2024-12-11 14:41:55.521,-0.270389,3.22493,9.16212,-0.0775012,0.0139731,0.0121406,0
2024-12-11 14:41:55.524,-0.256032,3.22732,9.17169,-0.0799446,0.0115297,0.0133623,0
2024-12-11 14:41:55.526,-0.234497,3.23689,9.17408,-0.0836097,0.0096972,0.0151948,0
2024-12-11 14:41:55.528,-0.232104,3.24646,9.19562,-0.0854423,0.00725381,0.0170274,0
2024-12-11 14:41:55.532,-0.212961,3.24646,9.21715,-0.0878856,0.00297788,0.0139731,0
2024-12-11 14:41:55.534,-0.191426,3.24885,9.25065,-0.0878856,0.00297788,0.0139731,0
2024-12-11 14:41:55.536,-0.18664,3.2656,9.29163,-0.0860531,-7.63559e-05,0.014584,0
2024-12-11 14:41:55.541,-0.196211,3.28953,9.31795,-0.086664,-0.000687203,0.0115297,0
2024-12-11 14:41:55.541,-0.196211,3.28953,9.31795,-0.086664,-0.000687203,0.0115297,0
2024-12-11 14:41:55.545,-0.208176,3.30628,9.28924,-0.0787229,0.00358873,0.00664296,0
2024-12-11 14:41:55.545,-0.208176,3.30628,9.28924,-0.0787229,0.00358873,0.00664296,0
2024-12-11 14:41:55.547,-0.217747,3.32782,9.2677,-0.0787229,0.00419957,0.00664296,0
2024-12-11 14:41:55.550,-0.229711,3.33739,9.25065,-0.0750579,0.00603212,0.00725381,0
2024-12-11 14:41:55.552,-0.244068,3.33978,9.21715,-0.0762796,0.00786466,0.00725381,0
2024-12-11 14:41:55.554,-0.258425,3.34457,9.18365,-0.0768904,0.00847551,0.00847551,0
2024-12-11 14:41:55.557,-0.272782,3.34935,9.15733,-0.0775012,0.010308,0.00908635,0
2024-12-11 14:41:55.559,-0.294616,3.37328,9.12383,-0.0793338,0.010308,0.0115297,0
2024-12-11 14:41:55.562,-0.313759,3.39242,9.07358,-0.0829989,0.0151948,0.0127514,0
2024-12-11 14:41:55.565,-0.316152,3.38764,9.01855,-0.0952158,0.0237467,0.0182491,0
2024-12-11 14:41:55.566,-0.297009,3.37328,8.99462,-0.0952158,0.0237467,0.0182491,0
2024-12-11 14:41:55.568,-0.272782,3.3685,9.00898,-0.0952158,0.0237467,0.0182491,0
2024-12-11 14:41:55.571,-0.258425,3.37089,9.04008,-0.108654,0.0249684,0.0206925,0
2024-12-11 14:41:55.576,-0.294616,3.37807,9.08555,-0.122093,0.0255792,0.0261901,0
2024-12-11 14:41:55.577,-0.294616,3.37807,9.08555,-0.121482,0.0292443,0.0261901,0
2024-12-11 14:41:55.578,-0.30658,3.39721,9.1023,-0.121482,0.0292443,0.0261901,0
2024-12-11 14:41:55.585,-0.311366,3.44507,9.18126,-0.122093,0.0445155,0.0359636,0
2024-12-11 14:41:55.587,-0.30658,3.44507,9.18365,-0.120261,0.0500131,0.0402396,0
2024-12-11 14:41:55.587,-0.30658,3.44507,9.18365,-0.120261,0.0500131,0.0402396,0
2024-12-11 14:41:55.588,-0.30658,3.44507,9.18365,-0.120261,0.0500131,0.0402396,0
2024-12-11 14:41:55.590,-0.301795,3.4355,9.18126,-0.118428,0.0524565,0.0445155,0
2024-12-11 14:41:55.593,-0.275175,3.44028,9.19083,-0.115374,0.0542891,0.0475697,0
2024-12-11 14:41:55.594,-0.265603,3.44507,9.19801,-0.115374,0.0542891,0.050624,0
2024-12-11 14:41:55.597,-0.27996,3.4355,9.18126,-0.111098,0.0567324,0.0500131,0
2024-12-11 14:41:55.601,-0.285045,3.51207,9.1669,-0.106211,0.0677277,0.0579541,0
2024-12-11 14:41:55.602,-0.285045,3.51207,9.1669,-0.106211,0.0677277,0.0579541,0
2024-12-11 14:41:55.604,-0.287438,3.52882,9.14297,-0.103157,0.0732253,0.058565,0
2024-12-11 14:41:55.606,-0.275175,3.52164,9.11187,-0.0976592,0.0799446,0.0622301,0
2024-12-11 14:41:55.609,-0.263211,3.5336,9.09033,-0.094605,0.0848314,0.0652843,0
2024-12-11 14:41:55.611,-0.260818,3.55274,9.0688,-0.090329,0.0860531,0.0646735,0
2024-12-11 14:41:55.613,-0.265603,3.56231,9.04487,-0.086664,0.0860531,0.0652843,0
2024-12-11 14:41:55.616,-0.267996,3.57189,9.00419,-0.0842206,0.0854423,0.0646735,0
2024-12-11 14:41:55.618,-0.263211,3.6006,8.96591,-0.0805555,0.0829989,0.0652843,0
2024-12-11 14:41:55.621,-0.263211,3.61735,8.93241,-0.0750579,0.0799446,0.0628409,0
2024-12-11 14:41:55.623,-0.258425,3.62692,8.91087,-0.0750579,0.0799446,0.0628409,0
2024-12-11 14:41:55.625,-0.275175,3.65115,8.9013,-0.0726145,0.0762796,0.0603975,0
2024-12-11 14:41:55.627,-0.285045,3.6679,8.88694,-0.0689494,0.0726145,0.0610084,0
2024-12-11 14:41:55.631,-0.297009,3.69183,8.87259,-0.0640626,0.0573433,0.0567324,0
2024-12-11 14:41:55.633,-0.332901,3.72293,8.84626,-0.0646735,0.0494023,0.0524565,0
2024-12-11 14:41:55.634,-0.361615,3.74208,8.81037,-0.0646735,0.0494023,0.0524565,0
2024-12-11 14:41:55.637,-0.371187,3.75404,8.79602,-0.0646735,0.038407,0.0500131,0
2024-12-11 14:41:55.639,-0.375972,3.766,8.78644,-0.0640626,0.0274118,0.0500131,0
2024-12-11 14:41:55.641,-0.380758,3.78036,8.77927,-0.0658951,0.014584,0.0500131,0
2024-12-11 14:41:55.645,-0.371187,3.78754,8.77687,-0.0658951,0.00297788,0.0439046,0
2024-12-11 14:41:55.646,-0.364008,3.79232,8.79123,-0.0677277,-0.00984991,0.0402396,0
2024-12-11 14:41:55.649,-0.366401,3.79232,8.81277,-0.0695602,-0.0232886,0.038407,0
2024-12-11 14:41:55.652,-0.366401,3.79472,8.82712,-0.0720036,-0.0507767,0.0316877,0
2024-12-11 14:41:55.653,-0.366401,3.79232,8.85344,-0.0720036,-0.0507767,0.0316877,0
2024-12-11 14:41:55.657,-0.364008,3.78993,8.89412,-0.0775012,-0.0745997,0.0255792,0
2024-12-11 14:41:55.659,-0.354437,3.79232,8.94198,-0.0793338,-0.0862058,0.0219141,0
2024-12-11 14:41:55.661,-0.347258,3.80429,8.96591,-0.0805555,-0.0990336,0.0213033,0
2024-12-11 14:41:55.663,-0.320937,3.81147,8.98505,-0.0805555,-0.0990336,0.0213033,0
2024-12-11 14:41:55.665,-0.294616,3.80429,9.02812,-0.0842206,-0.108807,0.0182491,0
2024-12-11 14:41:55.668,-0.27996,3.79232,9.08555,-0.086664,-0.118581,0.0127514,0
2024-12-11 14:41:55.671,-0.229711,3.78754,9.1358,-0.0927724,-0.135074,0.00419957,0
2024-12-11 14:41:55.673,-0.165105,3.78515,9.17887,-0.0927724,-0.135074,0.00419957,0
2024-12-11 14:41:55.674,-0.114855,3.78036,9.22433,-0.0982701,-0.141793,0.000534491,0
2024-12-11 14:41:55.677,-0.066999,3.77079,9.28445,-0.103157,-0.149123,-0.00618483,0
2024-12-11 14:41:55.679,-0.0287139,3.75883,9.34666,-0.108044,-0.154621,-0.0110716,0
2024-12-11 14:41:55.682,-0.00478565,3.75165,9.39931,-0.114152,-0.155842,-0.0184018,0
2024-12-11 14:41:55.685,0.0287139,3.7325,9.47348,-0.123926,-0.157675,-0.0312296,0
2024-12-11 14:41:55.687,0.0646062,3.71815,9.54527,-0.126369,-0.156453,-0.0385597,0
2024-12-11 14:41:55.689,0.0837488,3.70379,9.60987,-0.126369,-0.156453,-0.0385597,0
2024-12-11 14:41:55.691,0.0981057,3.68704,9.68884,-0.127591,-0.154621,-0.0434465,0
2024-12-11 14:41:55.693,0.114855,3.67747,9.74627,-0.132477,-0.151566,-0.0483333,0
2024-12-11 14:41:55.697,0.129212,3.67029,9.79173,-0.132477,-0.143015,-0.0568851,0
2024-12-11 14:41:55.698,0.157926,3.64606,9.84467,-0.132477,-0.143015,-0.0568851,0
2024-12-11 14:41:55.701,0.210568,3.61017,9.88535,-0.133088,-0.141182,-0.0605502,0
2024-12-11 14:41:55.703,0.260818,3.56471,9.92124,-0.136143,-0.138128,-0.0660479,0
2024-12-11 14:41:55.705,0.30658,3.53121,9.94517,-0.137364,-0.137517,-0.0691021,0
2024-12-11 14:41:55.708,0.344866,3.51446,9.98585,-0.141029,-0.135684,-0.0745997,0
2024-12-11 14:41:55.710,0.385544,3.48335,10.0433,-0.142251,-0.132019,-0.0831516,0
2024-12-11 14:41:55.712,0.423829,3.47378,10.0672,-0.144084,-0.127743,-0.0892601,0
2024-12-11 14:41:55.714,0.438186,3.4666,10.1079,-0.144694,-0.122857,-0.0959794,0
2024-12-11 14:41:55.717,0.454935,3.44746,10.1629,-0.142862,-0.117359,-0.102088,0
2024-12-11 14:41:55.720,0.478864,3.44267,10.206,-0.136753,-0.0996445,-0.116137,0
2024-12-11 14:41:55.722,0.486042,3.44028,10.2371,-0.136753,-0.0996445,-0.116137,0
2024-12-11 14:41:55.724,0.502792,3.43071,10.2491,-0.130034,-0.0917034,-0.120413,0
2024-12-11 14:41:55.727,0.521934,3.402,10.2658,-0.122704,-0.0739889,-0.131409,0
2024-12-11 14:41:55.729,0.536291,3.37567,10.273,-0.122704,-0.0739889,-0.131409,0
2024-12-11 14:41:55.732,0.553041,3.34457,10.273,-0.114152,-0.0526092,-0.13996,0
2024-12-11 14:41:55.733,0.555434,3.30628,10.2634,-0.114152,-0.0526092,-0.13996,0
2024-12-11 14:41:55.737,0.553041,3.27039,10.2467,-0.100103,-0.0287862,-0.147901,0
2024-12-11 14:41:55.739,0.533899,3.24407,10.2419,-0.0909399,-0.0129041,-0.151566,0
2024-12-11 14:41:55.740,0.500399,3.2345,10.2203,-0.0909399,-0.0129041,-0.151566,0
2024-12-11 14:41:55.744,0.469292,3.23689,10.194,-0.0909399,-0.0129041,-0.151566,0
2024-12-11 14:41:55.745,0.435793,3.23689,10.1462,-0.0683385,0.0151948,-0.15401,0
2024-12-11 14:41:55.747,0.404686,3.23211,10.0816,-0.0573433,0.0316877,-0.150345,0
2024-12-11 14:41:55.750,0.373579,3.22014,10.0146,-0.0451263,0.0475697,-0.147901,0
2024-12-11 14:41:55.752,0.364008,3.21057,9.91646,-0.0341311,0.0658951,-0.148512,0
2024-12-11 14:41:55.755,0.361615,3.21057,9.80848,-0.0231358,0.082388,-0.143625,0
2024-12-11 14:41:55.758,0.342473,3.20578,9.69362,-0.014584,0.0970484,-0.140571,0
2024-12-11 14:41:55.759,0.313759,3.21057,9.55963,-0.00542127,0.111709,-0.13935,0
2024-12-11 14:41:55.763,0.289831,3.21296,9.43041,0.0122933,0.136143,-0.133852,0
2024-12-11 14:41:55.765,0.272782,3.22014,9.30599,0.0177909,0.142862,-0.130187,0
2024-12-11 14:41:55.767,0.258425,3.24407,9.17408,0.0177909,0.142862,-0.130187,0
2024-12-11 14:41:55.769,0.246461,3.24885,9.04008,0.0245102,0.14897,-0.127133,0
2024-12-11 14:41:55.771,0.227318,3.25125,8.92284,0.0300079,0.15569,-0.1253,0
2024-12-11 14:41:55.773,0.205783,3.28235,8.79123,0.0312296,0.158744,-0.122857,0
2024-12-11 14:41:55.776,0.189033,3.30389,8.67608,0.0330621,0.157522,-0.121024,0
2024-12-11 14:41:55.778,0.179462,3.32064,8.58276,0.0379489,0.15569,-0.119802,0
2024-12-11 14:41:55.781,0.177069,3.34457,8.48226,0.0385597,0.155079,-0.117359,0
2024-12-11 14:41:55.783,0.205783,3.36132,8.36979,0.037338,0.146527,-0.116748,0
2024-12-11 14:41:55.785,0.236889,3.39482,8.26451,0.0355055,0.137364,-0.11797,0
2024-12-11 14:41:55.788,0.256032,3.44267,8.19512,0.0361163,0.125758,-0.119192,0
2024-12-11 14:41:55.791,0.27996,3.48814,8.13021,0.0275645,0.0976592,-0.127133,0
2024-12-11 14:41:55.793,0.294616,3.52642,8.06321,0.0251211,0.0829989,-0.133241,0
2024-12-11 14:41:55.796,0.320937,3.5671,8.01775,0.0251211,0.0829989,-0.133241,0
2024-12-11 14:41:55.797,0.34008,3.61735,7.97707,0.0190126,0.066506,-0.13935,0
2024-12-11 14:41:55.799,0.352044,3.68226,7.92204,0.0159584,0.0500131,-0.149123,0
2024-12-11 14:41:55.803,0.344866,3.73968,7.867,0.00435229,0.0151948,-0.169281,0
2024-12-11 14:41:55.805,0.330509,3.77797,7.83111,0.00435229,0.0151948,-0.169281,0
2024-12-11 14:41:55.806,0.337687,3.81865,7.83829,-0.00542127,-0.00313059,-0.180276,0
2024-12-11 14:41:55.809,0.349651,3.8665,7.84547,-0.0151948,-0.0202343,-0.188828,0
2024-12-11 14:41:55.811,0.299402,3.92632,7.8694,-0.0237467,-0.0397814,-0.198602,0
2024-12-11 14:41:55.814,0.191426,3.99093,7.934,-0.0286335,-0.0519984,-0.207764,0
2024-12-11 14:41:55.817,0.275175,3.99093,7.88854,-0.0469589,-0.0843733,-0.222425,0
2024-12-11 14:41:55.818,0.493221,3.96222,7.74258,-0.0469589,-0.0843733,-0.222425,0
2024-12-11 14:41:55.820,0.600898,3.95025,7.66601,-0.0622301,-0.111251,-0.232809,0
2024-12-11 14:41:55.825,0.634397,3.92393,7.65404,-0.104379,-0.171114,-0.257243,0
2024-12-11 14:41:55.825,0.632004,3.88086,7.7019,-0.104379,-0.171114,-0.257243,0
2024-12-11 14:41:55.828,0.655932,3.85215,7.7354,-0.125147,-0.19738,-0.270682,0
2024-12-11 14:41:55.830,0.722932,3.86411,7.72822,-0.14897,-0.221203,-0.282899,0
2024-12-11 14:41:55.836,0.818644,3.91675,7.8,-0.224715,-0.265184,-0.321993,0
2024-12-11 14:41:55.837,0.82343,3.94307,7.93161,-0.224715,-0.265184,-0.321993,0
2024-12-11 14:41:55.837,0.82343,3.94307,7.93161,-0.224715,-0.265184,-0.321993,0
2024-12-11 14:41:55.839,0.825823,3.96461,8.09193,-0.241208,-0.273125,-0.332988,0
2024-12-11 14:41:55.842,0.816252,3.98136,8.21665,-0.260145,-0.279844,-0.342762,0
2024-12-11 14:41:55.844,0.816252,3.99811,8.30997,-0.277859,-0.281066,-0.354368,0
2024-12-11 14:41:55.846,0.797109,4.01725,8.4009,-0.290687,-0.278623,-0.36292,0
2024-12-11 14:41:55.850,0.773181,4.03161,8.49183,-0.318786,-0.257854,-0.375747,0
2024-12-11 14:41:55.851,0.742074,4.04836,8.55883,-0.318786,-0.257854,-0.375747,0
2024-12-11 14:41:55.853,0.682254,4.06989,8.62104,-0.329781,-0.243194,-0.378191,0
2024-12-11 14:41:55.856,0.610469,4.10578,8.68086,-0.340776,-0.229144,-0.380023,0
2024-12-11 14:41:55.858,0.538684,4.12732,8.73141,-0.35055,-0.214484,-0.382467,0
2024-12-11 14:41:55.861,0.478864,4.15843,8.75534,-0.357269,-0.199213,-0.381245,0
2024-12-11 14:41:55.863,0.407079,4.20897,8.77448,-0.369486,-0.185774,-0.37758,0
2024-12-11 14:41:55.865,0.328116,4.26162,8.79841,-0.381092,-0.174779,-0.372082,0
2024-12-11 14:41:55.868,0.270389,4.31665,8.81277,-0.392698,-0.163783,-0.366585,0
2024-12-11 14:41:55.871,0.205783,4.37169,8.80319,-0.415911,-0.149123,-0.355589,0
2024-12-11 14:41:55.873,0.143569,4.4339,8.79602,-0.430571,-0.144847,-0.350092,0
2024-12-11 14:41:55.876,0.11007,4.48654,8.80559,-0.446453,-0.143625,-0.345205,0
2024-12-11 14:41:55.877,0.0765703,4.5344,8.8008,-0.446453,-0.143625,-0.345205,0
2024-12-11 14:41:55.880,0.0526421,4.60618,8.81994,-0.462335,-0.145458,-0.337875,0
2024-12-11 14:41:55.882,0.0215354,4.68036,8.86541,-0.478217,-0.150345,-0.335431,0
2024-12-11 14:41:55.884,0.00478565,4.74257,8.9013,-0.49471,-0.157064,-0.332988,0
2024-12-11 14:41:55.886,0.0143569,4.8003,8.94916,-0.509981,-0.169281,-0.330545,0
2024-12-11 14:41:55.889,0.040678,4.83859,9.02333,-0.525863,-0.186996,-0.329934,0
2024-12-11 14:41:55.891,0.0717847,4.88644,9.10469,-0.540523,-0.201656,-0.32749,0
2024-12-11 14:41:55.893,0.105284,4.94148,9.19801,-0.553962,-0.219981,-0.328101,0
2024-12-11 14:41:55.896,0.157926,4.95583,9.29881,-0.568622,-0.241361,-0.331156,0
2024-12-11 14:41:55.898,0.222533,4.94626,9.38256,-0.583283,-0.263962,-0.333599,0
2024-12-11 14:41:55.900,0.275175,4.94626,9.47348,-0.594889,-0.284731,-0.337264,0
2024-12-11 14:41:55.905,0.385544,4.92951,9.69841,-0.614436,-0.331156,-0.348259,0
2024-12-11 14:41:55.905,0.385544,4.92951,9.69841,-0.614436,-0.331156,-0.348259,0
2024-12-11 14:41:55.908,0.45015,4.89601,9.78934,-0.625431,-0.361087,-0.354368,0
2024-12-11 14:41:55.910,0.498006,4.85773,9.89971,-0.638259,-0.389186,-0.358033,0
2024-12-11 14:41:55.912,0.541077,4.82423,10.0457,-0.645589,-0.418507,-0.36353,0
2024-12-11 14:41:55.915,0.608076,4.77159,10.206,-0.654752,-0.44966,-0.369028,0
2024-12-11 14:41:55.917,0.682254,4.71625,10.3759,-0.659028,-0.477148,-0.373915,0
2024-12-11 14:41:55.920,0.76361,4.666,10.558,-0.662693,-0.504636,-0.379413,0
2024-12-11 14:41:55.922,0.833001,4.61336,10.771,-0.663304,-0.524183,-0.38491,0
2024-12-11 14:41:55.924,0.876371,4.56551,10.9866,-0.656584,-0.539454,-0.392851,0
2024-12-11 14:41:55.926,0.888335,4.51526,11.1924,-0.648643,-0.549228,-0.397738,0
2024-12-11 14:41:55.929,0.890728,4.47219,11.3934,-0.635816,-0.554726,-0.403846,0
2024-12-11 14:41:55.931,0.888335,4.44108,11.5899,-0.616269,-0.551061,-0.40629,0
2024-12-11 14:41:55.933,0.876371,4.4004,11.7814,-0.591835,-0.540065,-0.408733,0
2024-12-11 14:41:55.937,0.842872,4.36451,11.9417,-0.536248,-0.498528,-0.404457,0
2024-12-11 14:41:55.938,0.789931,4.33819,12.0664,-0.536248,-0.498528,-0.404457,0
2024-12-11 14:41:55.943,0.658325,4.29033,12.2219,-0.498986,-0.463099,-0.402014,0
2024-12-11 14:41:55.944,0.658325,4.29033,12.2219,-0.420797,-0.37758,-0.386132,0
2024-12-11 14:41:55.945,0.562612,4.2688,12.2172,-0.420797,-0.37758,-0.386132,0
2024-12-11 14:41:55.948,0.464507,4.25205,12.1789,-0.380481,-0.325047,-0.373915,0
2024-12-11 14:41:55.950,0.366401,4.24008,12.1047,-0.338333,-0.271903,-0.361698,0
2024-12-11 14:41:55.953,0.234497,4.2329,11.9656,-0.258923,-0.164394,-0.325658,0
2024-12-11 14:41:55.955,0.081356,4.2329,11.7909,-0.258923,-0.164394,-0.325658,0
2024-12-11 14:41:55.957,-0.0765703,4.24247,11.5828,-0.222883,-0.114916,-0.303667,0
2024-12-11 14:41:55.959,-0.234497,4.24247,11.324,-0.189897,-0.0672696,-0.27679,0
2024-12-11 14:41:55.963,-0.364008,4.2353,11.0201,-0.161798,-0.0269536,-0.250524,0
2024-12-11 14:41:55.964,-0.457328,4.25444,10.7136,-0.138586,0.0139731,-0.223036,0
2024-12-11 14:41:55.966,-0.512363,4.28555,10.4432,-0.120871,0.046348,-0.195547,0
2024-12-11 14:41:55.969,-0.54347,4.30708,10.206,-0.107433,0.0726145,-0.167449,0
2024-12-11 14:41:55.971,-0.56022,4.34297,9.99063,-0.094605,0.100103,-0.144847,0
2024-12-11 14:41:55.973,-0.538684,4.37408,9.77977,-0.086664,0.120261,-0.124078,0
2024-12-11 14:41:55.976,-0.517149,4.40997,9.6027,-0.0799446,0.138586,-0.105753,0
2024-12-11 14:41:55.978,-0.502792,4.45544,9.46152,-0.0756687,0.153857,-0.0898709,0
2024-12-11 14:41:55.982,-0.481256,4.5009,9.32274,-0.0616192,0.177069,-0.0672696,0
2024-12-11 14:41:55.983,-0.4669,4.54876,9.18605,-0.0616192,0.177069,-0.0672696,0
2024-12-11 14:41:55.985,-0.452543,4.59183,9.05923,-0.0518457,0.188675,-0.0611611,0
2024-12-11 14:41:55.989,-0.442971,4.63729,8.93959,-0.046348,0.193562,-0.0544418,0
2024-12-11 14:41:55.990,-0.426222,4.666,8.81755,-0.0390179,0.196616,-0.0513875,0
2024-12-11 14:41:55.992,-0.411865,4.67797,8.7003,-0.0316877,0.197227,-0.0507767,0
2024-12-11 14:41:55.995,-0.397508,4.68754,8.6019,-0.0274118,0.192951,-0.0507767,0
2024-12-11 14:41:55.997,-0.375972,4.68754,8.50619,-0.0194708,0.186843,-0.0538309,0
2024-12-11 14:41:56.000,-0.35683,4.67558,8.40329,-0.0158057,0.17768,-0.0581068,0
2024-12-11 14:41:56.002,-0.354437,4.67318,8.32194,-0.00542127,0.168517,-0.0648262,0
2024-12-11 14:41:56.004,-0.366401,4.67079,8.24776,-0.00419957,0.15569,-0.0678804,0
2024-12-11 14:41:56.007,-0.390329,4.64447,8.18315,0.00129805,0.143473,-0.0752106,0
2024-12-11 14:41:56.010,-0.423829,4.6325,8.12782,0.0129041,0.110487,-0.0880384,0
2024-12-11 14:41:56.011,-0.452543,4.61815,8.07996,0.0129041,0.110487,-0.0880384,0
2024-12-11 14:41:56.014,-0.476471,4.59661,8.02732,0.0177909,0.094605,-0.0917034,0
2024-12-11 14:41:56.016,-0.50997,4.56551,7.96511,0.0238994,0.0775012,-0.0959794,0
2024-12-11 14:41:56.018,-0.56022,4.53918,7.91007,0.0306187,0.0622301,-0.0978119,0
2024-12-11 14:41:56.022,-0.612862,4.52961,7.86461,0.0355055,0.0475697,-0.100255,0
2024-12-11 14:41:56.023,-0.660718,4.51047,7.84547,0.0422248,0.030466,-0.10392,0
2024-12-11 14:41:56.026,-0.703789,4.48415,7.81675,0.0440574,0.0121406,-0.102088,0
2024-12-11 14:41:56.029,-0.742074,4.45065,7.77608,0.0538309,-0.0220669,-0.0996445,0
2024-12-11 14:41:56.030,-0.782752,4.43629,7.74975,0.0538309,-0.0220669,-0.0996445,0
2024-12-11 14:41:56.032,-0.818644,4.43151,7.73779,0.0550526,-0.0379489,-0.0984228,0
2024-12-11 14:41:56.035,-0.84018,4.40758,7.71625,0.0568851,-0.0526092,-0.0941468,0
2024-12-11 14:41:56.037,-0.85005,4.39801,7.71147,0.0611611,-0.065437,-0.0898709,0
2024-12-11 14:41:56.040,-0.8668,4.38604,7.73779,0.0636045,-0.0752106,-0.0862058,0
2024-12-11 14:41:56.043,-0.876371,4.36451,7.75454,0.0660479,-0.0825407,-0.081319,0
2024-12-11 14:41:56.044,-0.857229,4.35494,7.77608,0.0672696,-0.0880384,-0.0758214,0
2024-12-11 14:41:56.047,-0.85005,4.34537,7.78565,0.0715455,-0.0898709,-0.0703238,0
2024-12-11 14:41:56.049,-0.85005,4.3334,7.79043,0.0745997,-0.0923143,-0.065437,0
2024-12-11 14:41:56.051,-0.852443,4.31426,7.78804,0.0745997,-0.0910926,-0.0593285,0
2024-12-11 14:41:56.055,-0.859622,4.29272,7.77847,0.0745997,-0.0880384,-0.0477224,0
2024-12-11 14:41:56.056,-0.869193,4.27358,7.77608,0.0745997,-0.0880384,-0.0477224,0
2024-12-11 14:41:56.058,-0.8668,4.25444,7.76172,0.0745997,-0.0843733,-0.0410031,0
2024-12-11 14:41:56.062,-0.873978,4.24965,7.75215,0.0715455,-0.0764323,-0.0263428,0
2024-12-11 14:41:56.063,-0.878764,4.25205,7.75215,0.0715455,-0.0764323,-0.0263428,0
2024-12-11 14:41:56.066,-0.871586,4.24487,7.7354,0.0642153,-0.0678804,-0.0104608,0
2024-12-11 14:41:56.069,-0.88355,4.25205,7.71147,0.0599394,-0.0617719,-0.000687203,0
2024-12-11 14:41:56.070,-0.890728,4.25444,7.71386,0.0599394,-0.0617719,-0.000687203,0
2024-12-11 14:41:56.072,-0.869193,4.25205,7.71625,0.0556635,-0.0593285,0.00847551,0
2024-12-11 14:41:56.075,-0.847657,4.25444,7.71386,0.0489441,-0.0581068,0.0182491,0
2024-12-11 14:41:56.077,-0.821037,4.24726,7.71625,0.0379489,-0.0556635,0.0292443,0
2024-12-11 14:41:56.080,-0.799502,4.24965,7.75215,0.0300079,-0.0532201,0.038407,0
2024-12-11 14:41:56.082,-0.782752,4.26162,7.80479,0.0196235,-0.0513875,0.0451263,0
2024-12-11 14:41:56.084,-0.744467,4.28076,7.86222,0.0141258,-0.049555,0.0524565,0
2024-12-11 14:41:56.087,-0.701396,4.28555,7.94118,0.00557398,-0.0422248,0.0597867,0
2024-12-11 14:41:56.089,-0.672682,4.29751,8.01775,7.63559e-05,-0.0367272,0.0658951,0
2024-12-11 14:41:56.091,-0.646361,4.31905,8.11346,-0.00419957,-0.0300079,0.0720036,0
2024-12-11 14:41:56.094,-0.62004,4.3334,8.21426,-0.00725381,-0.0220669,0.0775012,0
2024-12-11 14:41:56.096,-0.588933,4.34058,8.30997,-0.00358873,-0.0104608,0.0836097,0
2024-12-11 14:41:56.098,-0.565005,4.34776,8.40808,-0.00236703,-0.000687203,0.0884965,0
2024-12-11 14:41:56.102,-0.555434,4.36212,8.47747,0.00862822,0.0261901,0.100713,0
2024-12-11 14:41:56.103,-0.553041,4.37408,8.52054,0.00862822,0.0261901,0.100713,0
2024-12-11 14:41:56.105,-0.553041,4.37169,8.57079,0.013515,0.0408504,0.106822,0
2024-12-11 14:41:56.108,-0.562612,4.35733,8.59951,0.0171801,0.0548999,0.11232,0
2024-12-11 14:41:56.110,-0.581755,4.35494,8.60908,0.0251211,0.0677277,0.120871,0
2024-12-11 14:41:56.112,-0.591326,4.37647,8.61625,0.0324513,0.0805555,0.126369,0
2024-12-11 14:41:56.115,-0.610469,4.39083,8.61147,0.037338,0.0891073,0.136143,0
2024-12-11 14:41:56.117,-0.634397,4.40279,8.59711,0.0428357,0.0970484,0.145305,0
2024-12-11 14:41:56.120,-0.646361,4.43151,8.56601,0.0452791,0.103157,0.153857,0
2024-12-11 14:41:56.123,-0.646361,4.44826,8.55165,0.0501658,0.110487,0.172793,0
2024-12-11 14:41:56.124,-0.63679,4.45783,8.54686,0.0501658,0.110487,0.172793,0
2024-12-11 14:41:56.127,-0.605683,4.48654,8.53969,0.0519984,0.110487,0.182567,0
2024-12-11 14:41:56.130,-0.565005,4.51286,8.53969,0.0544418,0.103157,0.199671,0
2024-12-11 14:41:56.131,-0.519542,4.52961,8.55643,0.0544418,0.103157,0.199671,0
2024-12-11 14:41:56.134,-0.474078,4.55593,8.59472,0.0556635,0.0982701,0.207001,0
2024-12-11 14:41:56.136,-0.421436,4.57508,8.64975,0.0550526,0.0921616,0.211277,0
2024-12-11 14:41:56.138,-0.364008,4.57747,8.71705,0.0538309,0.0854423,0.216774,0
2024-12-11 14:41:56.142,-0.318545,4.58226,8.77448,0.0568851,0.0775012,0.219218,0
2024-12-11 14:41:56.143,-0.267996,4.58465,8.82712,0.0617719,0.0720036,0.224715,0
2024-12-11 14:41:56.145,-0.217747,4.59422,8.91087,0.0666587,0.0640626,0.226548,0
2024-12-11 14:41:56.149,-0.16989,4.6014,9.0018,0.0788757,0.0500131,0.233878,0
2024-12-11 14:41:56.150,-0.119641,4.60858,9.06401,0.0788757,0.0500131,0.233878,0
2024-12-11 14:41:56.153,-0.0717847,4.62293,9.0999,0.0862058,0.0432938,0.235711,0
2024-12-11 14:41:56.155,-0.0191426,4.64208,9.14537,0.0941468,0.0390179,0.236322,0
2024-12-11 14:41:56.157,0.0334995,4.65165,9.20758,0.102088,0.0322986,0.237543,0
2024-12-11 14:41:56.160,0.0861416,4.65165,9.24108,0.111251,0.0243575,0.238765,0
2024-12-11 14:41:56.162,0.141177,4.63968,9.25065,0.117359,0.0182491,0.240597,0
2024-12-11 14:41:56.164,0.191426,4.63011,9.28206,0.1253,0.0121406,0.240597,0
2024-12-11 14:41:56.168,0.227318,4.64925,9.31316,0.135684,0.00297788,0.244263,0
2024-12-11 14:41:56.170,0.260818,4.65165,9.32752,0.13996,0.00114534,0.243041,0
2024-12-11 14:41:56.171,0.292223,4.65883,9.33949,0.13996,0.00114534,0.243041,0
2024-12-11 14:41:56.175,0.313759,4.666,9.34427,0.147291,0.000534491,0.245484,0
2024-12-11 14:41:56.176,0.332901,4.67797,9.34906,0.147291,0.000534491,0.245484,0
2024-12-11 14:41:56.178,0.359223,4.70668,9.35384,0.147901,0.00114534,0.246095,0
2024-12-11 14:41:56.181,0.373579,4.71625,9.35145,0.147291,0.00358873,0.249149,0
2024-12-11 14:41:56.183,0.378365,4.73061,9.35145,0.14668,0.00419957,0.250982,0
2024-12-11 14:41:56.185,0.404686,4.74257,9.35624,0.14668,0.00603212,0.254036,0
2024-12-11 14:41:56.189,0.435793,4.74736,9.35145,0.138128,0.0164165,0.260145,0
2024-12-11 14:41:56.190,0.452543,4.7689,9.35384,0.138128,0.0164165,0.260145,0
2024-12-11 14:41:56.193,0.478864,4.80509,9.35384,0.132019,0.0243575,0.262588,0
2024-12-11 14:41:56.195,0.493221,4.83619,9.35145,0.127133,0.0316877,0.263199,0
2024-12-11 14:41:56.197,0.488435,4.87448,9.35384,0.119192,0.0408504,0.265031,0
2024-12-11 14:41:56.199,0.483649,4.89601,9.37299,0.112472,0.0518457,0.266253,0
2024-12-11 14:41:56.202,0.478864,4.90319,9.38974,0.10331,0.0640626,0.266864,0
2024-12-11 14:41:56.204,0.478864,4.93191,9.39931,0.0959794,0.0732253,0.267475,0
2024-12-11 14:41:56.208,0.469292,4.94866,9.42084,0.0874275,0.0842206,0.27114,0
2024-12-11 14:41:56.209,0.464507,4.95583,9.44956,0.0782648,0.0933833,0.272362,0
2024-12-11 14:41:56.211,0.462114,4.98694,9.48066,0.0684913,0.103157,0.272362,0
2024-12-11 14:41:56.214,0.447757,5.02044,9.51655,0.0623828,0.109265,0.272972,0
2024-12-11 14:41:56.216,0.442971,5.03958,9.57159,0.0550526,0.119039,0.275416,0
2024-12-11 14:41:56.218,0.45015,5.06112,9.63859,0.0465007,0.123926,0.277248,0
2024-12-11 14:41:56.222,0.454935,5.08983,9.7008,0.037338,0.136753,0.276027,0
2024-12-11 14:41:56.223,0.445364,5.13051,9.77019,0.037338,0.136753,0.276027,0
2024-12-11 14:41:56.225,0.438186,5.1688,9.84467,0.0330621,0.144084,0.277248,0
2024-12-11 14:41:56.229,0.438186,5.2023,9.89013,0.0324513,0.155079,0.274194,0
2024-12-11 14:41:56.230,0.414257,5.22144,9.91406,0.0324513,0.155079,0.274194,0
2024-12-11 14:41:56.233,0.390329,5.24537,9.9356,0.0342838,0.160576,0.272972,0
2024-12-11 14:41:56.235,0.368794,5.28844,9.95953,0.0361163,0.164242,0.271751,0
2024-12-11 14:41:56.237,0.34008,5.32672,9.9691,0.0367272,0.163631,0.271751,0
2024-12-11 14:41:56.241,0.325723,5.35574,9.9667,0.037338,0.159966,0.272362,0
2024-12-11 14:41:56.242,0.318545,5.37727,9.97149,0.0348946,0.154468,0.271751,0
2024-12-11 14:41:56.245,0.308973,5.39641,9.97149,0.0318404,0.128812,0.267475,0
2024-12-11 14:41:56.247,0.299402,5.41556,9.98345,0.0318404,0.128812,0.267475,0
2024-12-11 14:41:56.249,0.297009,5.43948,10.0002,0.0275645,0.115374,0.266253,0
2024-12-11 14:41:56.251,0.275175,5.46341,10.0265,0.0245102,0.0982701,0.264421,0
2024-12-11 14:41:56.255,0.260818,5.48734,10.0624,0.0177909,0.0768904,0.263199,0
2024-12-11 14:41:56.256,0.267996,5.5017,10.1127,0.0141258,0.0591758,0.263199,0
2024-12-11 14:41:56.258,0.263211,5.51127,10.1581,0.00801737,0.0377962,0.259534,0
2024-12-11 14:41:56.262,0.258425,5.54477,10.2156,-0.00358873,-0.00251974,0.25709,0
2024-12-11 14:41:56.264,0.260818,5.58305,10.3161,-0.0115297,-0.0281753,0.254647,0
2024-12-11 14:41:56.266,0.263211,5.5998,10.4432,-0.0115297,-0.0281753,0.254647,0
2024-12-11 14:41:56.269,0.272782,5.60698,10.5939,-0.0231358,-0.0770431,0.24976,0
2024-12-11 14:41:56.270,0.285045,5.6022,10.7614,-0.0231358,-0.0770431,0.24976,0
2024-12-11 14:41:56.273,0.30658,5.6022,10.9723,-0.0261901,-0.0990336,0.246706,0
2024-12-11 14:41:56.275,0.337687,5.59262,11.2259,-0.0292443,-0.121024,0.240597,0
2024-12-11 14:41:56.277,0.352044,5.57587,11.482,-0.0286335,-0.141182,0.236322,0
2024-12-11 14:41:56.280,0.347258,5.5687,11.7407,-0.0255792,-0.159507,0.232656,0
2024-12-11 14:41:56.282,0.34008,5.53998,12.0039,-0.0182491,-0.169281,0.228381,0
2024-12-11 14:41:56.285,0.354437,5.50888,12.2626,0.00740652,-0.178444,0.227159,0
2024-12-11 14:41:56.288,0.387936,5.47059,12.5091,0.00740652,-0.178444,0.227159,0
2024-12-11 14:41:56.290,0.419043,5.41795,12.7295,0.0434465,-0.174168,0.231435,0
2024-12-11 14:41:56.291,0.431007,5.38684,12.9162,0.0434465,-0.174168,0.231435,0
2024-12-11 14:41:56.294,0.423829,5.35095,13.0765,0.0605502,-0.165616,0.235711,0
2024-12-11 14:41:56.296,0.407079,5.31715,13.194,0.0807082,-0.149734,0.239376,0
2024-12-11 14:41:56.299,0.392722,5.3004,13.2993,0.0996445,-0.134463,0.247317,0
2024-12-11 14:41:56.301,0.364008,5.2669,13.3831,0.116748,-0.116748,0.254036,0
2024-12-11 14:41:56.304,0.332901,5.22862,13.4429,0.133852,-0.0959794,0.265031,0
2024-12-11 14:41:56.305,0.311366,5.20469,13.4931,0.149123,-0.0764323,0.277859,0
2024-12-11 14:41:56.308,0.282652,5.18555,13.5266,0.165005,-0.0532201,0.292519,0
2024-12-11 14:41:56.310,0.241675,5.15683,13.5625,0.179055,-0.0281753,0.307791,0
2024-12-11 14:41:56.313,0.210568,5.10658,13.5817,0.193104,-0.000687203,0.324894,0
2024-12-11 14:41:56.315,0.217747,5.05155,13.5841,0.205932,0.0292443,0.344442,0
2024-12-11 14:41:56.317,0.244068,5.0013,13.5936,0.216927,0.0597867,0.363989,0
2024-12-11 14:41:56.321,0.277567,4.95583,13.596,0.230366,0.094605,0.384757,0
2024-12-11 14:41:56.322,0.301795,4.93909,13.5888,0.243194,0.132477,0.406137,0
2024-12-11 14:41:56.324,0.30658,4.92951,13.5601,0.252967,0.174626,0.42996,0
2024-12-11 14:41:56.327,0.270389,4.9343,13.5147,0.263352,0.22044,0.45134,0
2024-12-11 14:41:56.330,0.208176,4.95823,13.4524,0.280455,0.322451,0.492267,0
2024-12-11 14:41:56.332,0.141177,5.01326,13.3591,0.280455,0.322451,0.492267,0
2024-12-11 14:41:56.335,0.0526421,5.11855,13.2275,0.286564,0.424462,0.533804,0
2024-12-11 14:41:56.336,-0.0311067,5.22862,13.0645,0.286564,0.424462,0.533804,0
2024-12-11 14:41:56.338,-0.119641,5.34616,12.909,0.285342,0.467222,0.547243,0
2024-12-11 14:41:56.345,-0.0741775,5.54477,12.4636,0.250524,0.557016,0.573509,0
2024-12-11 14:41:56.345,-0.0741775,5.54477,12.4636,0.250524,0.557016,0.573509,0
2024-12-11 14:41:56.345,-0.0741775,5.54477,12.4636,0.250524,0.557016,0.573509,0
2024-12-11 14:41:56.353,0.301795,5.20947,12.0832,0.177833,0.578396,0.557016,0
2024-12-11 14:41:56.353,0.301795,5.20947,12.0832,0.177833,0.578396,0.557016,0
2024-12-11 14:41:56.354,0.301795,5.20947,12.0832,0.150956,0.563736,0.544799,0
2024-12-11 14:41:56.355,0.419043,5.04198,11.9919,0.150956,0.563736,0.544799,0
2024-12-11 14:41:56.360,0.682254,4.75215,11.9632,0.0807082,0.501429,0.508149,0
2024-12-11 14:41:56.362,0.821037,4.60618,11.9752,0.041614,0.455005,0.484936,0
2024-12-11 14:41:56.364,0.94337,4.45783,12.0135,0.00496313,0.400639,0.461113,0
2024-12-11 14:41:56.368,1.0343,4.2999,12.1334,-0.0677277,0.276027,0.399418,0
2024-12-11 14:41:56.369,1.11326,4.12971,12.3033,-0.0677277,0.276027,0.399418,0
2024-12-11 14:41:56.369,1.0343,4.12971,12.3033,-0.0677277,0.276027,0.399418,0
2024-12-11 14:41:56.374,1.1994,3.97657,12.5234,-0.117817,0.160576,0.335279,0
2024-12-11 14:41:56.374,1.26401,3.82582,12.7869,-0.117817,0.160576,0.335279,0
2024-12-11 14:41:56.376,1.28076,3.65593,13.0645,-0.133088,0.11232,0.301682,0
2024-12-11 14:41:56.379,1.28794,3.49771,13.3711,-0.139197,0.0732253,0.269307,0
2024-12-11 14:41:56.381,1.2999,3.33739,13.675,-0.135532,0.0396287,0.239376,0
2024-12-11 14:41:56.384,1.28076,3.15314,13.9385,-0.122704,0.0200816,0.212498,0
2024-12-11 14:41:56.385,1.24247,2.95902,14.1586,-0.1056,0.00847551,0.186843,0
2024-12-11 14:41:56.388,1.17547,2.75803,14.3169,-0.0781121,0.00786466,0.164852,0
2024-12-11 14:41:56.391,1.0654,2.55464,14.4174,-0.0445155,0.0139731,0.147749,0
2024-12-11 14:41:56.394,0.73011,2.52832,14.2902,0.0238994,0.0573433,0.139197,0
2024-12-11 14:41:56.395,0.361615,2.45623,14.1778,0.0238994,0.0573433,0.139197,0
2024-12-11 14:41:56.397,0.35683,2.15474,14.3599,0.0599394,0.0720036,0.14836,0
2024-12-11 14:41:56.401,0.442971,1.81705,14.4867,0.146069,0.0970484,0.155079,1
2024-12-11 14:41:56.402,0.442971,1.47488,14.415,0.146069,0.0970484,0.155079,0
2024-12-11 14:41:56.405,0.411865,1.1994,14.2328,0.193104,0.118428,0.15569,0
2024-12-11 14:41:56.407,0.325723,0.988834,14.0797,0.244415,0.145916,0.159966,0
2024-12-11 14:41:56.409,0.222533,0.809073,14.0031,0.294505,0.176459,0.16302,0
2024-12-11 14:41:56.411,0.0741775,0.708575,13.8858,0.347648,0.209444,0.173404,0
2024-12-11 14:41:56.415,-0.165105,0.684646,13.7037,0.450271,0.274194,0.214331,0
2024-12-11 14:41:56.417,-0.397508,0.689432,13.4883,0.499749,0.308401,0.239987,0
2024-12-11 14:41:56.419,-0.538684,0.684646,13.2347,0.499749,0.308401,0.239987,0
2024-12-11 14:41:56.421,-0.605683,0.684646,12.9903,0.546174,0.335279,0.269918,0
2024-12-11 14:41:56.423,-0.62004,0.679861,12.7199,0.590766,0.360324,0.296185,0
2024-12-11 14:41:56.426,-0.62004,0.660718,12.411,0.628638,0.381703,0.321229,0
2024-12-11 14:41:56.428,-0.634397,0.65354,12.0541,0.663456,0.40125,0.343831,0
2024-12-11 14:41:56.431,-0.63679,0.646361,11.688,0.689723,0.417743,0.363378,0
2024-12-11 14:41:56.433,-0.62004,0.660718,11.3408,0.706827,0.429349,0.379871,0
2024-12-11 14:41:56.435,-0.569791,0.701396,11.001,0.720265,0.440955,0.393309,0
2024-12-11 14:41:56.437,-0.502792,0.749253,10.6681,0.72393,0.448896,0.405526,0
2024-12-11 14:41:56.440,-0.445364,0.80668,10.3448,0.72332,0.453172,0.411024,0
2024-12-11 14:41:56.442,-0.397508,0.871586,10.0576,0.713546,0.45134,0.414078,0
2024-12-11 14:41:56.445,-0.371187,0.945763,9.76302,0.697664,0.442788,0.415911,0
2024-12-11 14:41:56.448,-0.349651,1.01515,9.48545,0.643299,0.418354,0.406748,0
2024-12-11 14:41:56.449,-0.30658,1.09412,9.27009,0.643299,0.418354,0.406748,0
2024-12-11 14:41:56.451,-0.275175,1.1683,9.1023,0.611534,0.399418,0.400639,0
2024-12-11 14:41:56.454,-0.241675,1.24247,8.98744,0.577327,0.378038,0.391477,0
2024-12-11 14:41:56.456,-0.200997,1.31665,8.89651,0.540676,0.356048,0.378649,0
2024-12-11 14:41:56.459,-0.167498,1.39561,8.81037,0.504636,0.335279,0.364599,0
2024-12-11 14:41:56.462,-0.136391,1.46052,8.73859,0.428891,0.290687,0.330392,0
2024-12-11 14:41:56.463,-0.107677,1.49641,8.68565,0.428891,0.290687,0.330392,0
2024-12-11 14:41:56.466,-0.0574277,1.53709,8.6665,0.39224,0.267475,0.309012,0
2024-12-11 14:41:56.468,-0.00717847,1.5658,8.64975,0.351314,0.241208,0.2858,0
2024-12-11 14:41:56.470,0.00478565,1.58973,8.65693,0.317717,0.219829,0.261366,0
2024-12-11 14:41:56.474,-0.00239282,1.60409,8.6689,0.249913,0.178902,0.211888,0
2024-12-11 14:41:56.475,-0.00478565,1.60648,8.6665,0.249913,0.178902,0.211888,0
2024-12-11 14:41:56.477,-0.0119641,1.61366,8.67368,0.219371,0.158744,0.1844,0
2024-12-11 14:41:56.480,-0.0358923,1.62084,8.68325,0.188217,0.137975,0.162409,0
2024-12-11 14:41:56.482,-0.066999,1.61366,8.70509,0.159507,0.117817,0.138586,0
2024-12-11 14:41:56.484,-0.107677,1.59212,8.70748,0.130798,0.101935,0.115985,0
2024-12-11 14:41:56.487,-0.145962,1.57537,8.70987,0.105142,0.0860531,0.094605,0
2024-12-11 14:41:56.489,-0.18664,1.54666,8.72902,0.0807082,0.0713928,0.0738362,0
2024-12-11 14:41:56.492,-0.22014,1.51555,8.75294,0.0593285,0.0567324,0.0530674,0
2024-12-11 14:41:56.494,-0.253639,1.49163,8.78405,0.0348946,0.0420721,0.0353528,0
2024-12-11 14:41:56.496,-0.304188,1.47009,8.81037,0.0110716,0.0316877,0.0206925,0
2024-12-11 14:41:56.500,-0.337687,1.42941,8.85584,-0.00664296,0.0243575,0.00297788,0
2024-12-11 14:41:56.501,-0.364008,1.40548,8.91326,-0.0243575,0.0151948,-0.0104608,0
2024-12-11 14:41:56.503,-0.397508,1.38126,8.95155,-0.0408504,0.00908635,-0.0245102,0
2024-12-11 14:41:56.506,-0.442971,1.35254,8.98983,-0.0542891,0.00603212,-0.0355055,0
2024-12-11 14:41:56.508,-0.507577,1.33101,9.00419,-0.0658951,0.00725381,-0.0452791,0
2024-12-11 14:41:56.510,-0.565005,1.30469,8.99701,-0.0775012,0.00847551,-0.0556635,0
2024-12-11 14:41:56.514,-0.615255,1.28554,8.98744,-0.102546,0.00664296,-0.0660479,0
2024-12-11 14:41:56.516,-0.663111,1.28554,8.98744,-0.113541,0.0115297,-0.0703238,0
2024-12-11 14:41:56.517,-0.689432,1.28076,9.00898,-0.113541,0.0115297,-0.0703238,0
2024-12-11 14:41:56.520,-0.727717,1.26879,9.01376,-0.119039,0.0188599,-0.0739889,0
2024-12-11 14:41:56.522,-0.782752,1.26879,9.02573,-0.125147,0.0274118,-0.0764323,0
2024-12-11 14:41:56.525,-0.837787,1.28076,9.04726,-0.132477,0.0390179,-0.0770431,0
2024-12-11 14:41:56.527,-0.895514,1.27837,9.05444,-0.136753,0.0530674,-0.073378,0
2024-12-11 14:41:56.529,-0.940978,1.28315,9.05923,-0.136753,0.0640626,-0.0666587,0
2024-12-11 14:41:56.531,-0.974477,1.28794,9.05205,-0.13431,0.0793338,-0.0611611,0
2024-12-11 14:41:56.535,-1.01515,1.30229,9.04008,-0.130645,0.111098,-0.0440574,0
2024-12-11 14:41:56.536,-1.04626,1.31426,9.03051,-0.130645,0.111098,-0.0440574,0
2024-12-11 14:41:56.540,-1.0654,1.30947,9.01137,-0.122093,0.142251,-0.0245102,0
2024-12-11 14:41:56.541,-1.07498,1.31665,8.98026,-0.122093,0.142251,-0.0245102,0
2024-12-11 14:41:56.546,-1.09412,1.35494,8.93001,-0.11293,0.172793,0.00114534,0
2024-12-11 14:41:56.546,-1.09412,1.35494,8.93001,-0.11293,0.172793,0.00114534,0
2024-12-11 14:41:56.548,-1.11326,1.38126,8.86541,-0.103768,0.188065,0.0133623,0
2024-12-11 14:41:56.550,-1.12762,1.41266,8.8008,-0.0952158,0.200892,0.0274118,0
2024-12-11 14:41:56.554,-1.14437,1.44616,8.7362,-0.0799446,0.224105,0.0530674,0
2024-12-11 14:41:56.555,-1.14915,1.49163,8.66172,-0.0799446,0.224105,0.0530674,0
2024-12-11 14:41:56.557,-1.1348,1.54188,8.59472,-0.0677277,0.234489,0.066506,0
2024-12-11 14:41:56.560,-1.11565,1.58255,8.51576,-0.058565,0.243652,0.0805555,0
2024-12-11 14:41:56.562,-1.0989,1.61605,8.43201,-0.0494023,0.255258,0.0915507,0
2024-12-11 14:41:56.564,-1.0678,1.65673,8.36022,-0.0408504,0.261366,0.106211,0
2024-12-11 14:41:56.568,-1.04626,1.68784,8.2669,-0.0213033,0.276027,0.129423,0
2024-12-11 14:41:56.569,-1.03669,1.72373,8.15683,-0.0213033,0.276027,0.129423,0
2024-12-11 14:41:56.572,-1.0008,1.77876,8.04646,-0.0133623,0.283968,0.139197,0
2024-12-11 14:41:56.574,-0.981655,1.83859,7.934,-0.00481042,0.290687,0.14836,0
2024-12-11 14:41:56.576,-0.967299,1.9008,7.81197,0.00313059,0.298017,0.158133,0
2024-12-11 14:41:56.580,-0.938585,1.95823,7.68993,0.0141258,0.306569,0.173404,0
2024-12-11 14:41:56.581,-0.909871,2.01835,7.57986,0.0141258,0.306569,0.173404,0
2024-12-11 14:41:56.584,-0.873978,2.08056,7.47907,0.0220669,0.313288,0.187454,0
2024-12-11 14:41:56.587,-0.837787,2.14038,7.36421,0.0245102,0.318786,0.191119,0
2024-12-11 14:41:56.588,-0.99362,2.22652,7.34985,0.0245102,0.318786,0.191119,0
2024-12-11 14:41:56.590,-1.08694,2.30548,7.36182,0.033673,0.3365,0.200282,0
2024-12-11 14:41:56.593,-0.847657,2.33181,7.15125,0.0379489,0.351161,0.20639,0
2024-12-11 14:41:56.596,-0.574577,2.33898,6.89492,0.0379489,0.354215,0.205779,0
2024-12-11 14:41:56.600,-0.311366,2.35813,6.67478,0.0379489,0.354215,0.205779,0
2024-12-11 14:41:56.602,-0.342473,2.39402,6.65803,0.0226777,0.332835,0.188065,0
2024-12-11 14:41:56.603,-0.342473,2.39402,6.65803,0.0171801,0.32184,0.178902,0
2024-12-11 14:41:56.608,-0.533899,2.48255,6.55753,0.00984991,0.31451,0.167296,0
2024-12-11 14:41:56.609,-0.536291,2.53071,6.4352,0.00984991,0.31451,0.167296,0
2024-12-11 14:41:56.610,-0.536291,2.53071,6.4352,0.00984991,0.31451,0.167296,0
2024-12-11 14:41:56.612,-0.524327,2.55942,6.34427,0.00251974,0.312677,0.16302,0
2024-12-11 14:41:56.614,-0.512363,2.59292,6.31316,-0.00419957,0.313899,0.157522,0
2024-12-11 14:41:56.616,-0.50997,2.63121,6.30359,-0.00664296,0.312677,0.15569,0
2024-12-11 14:41:56.620,-0.524327,2.64078,6.27727,-0.0109189,0.312067,0.150192,0
2024-12-11 14:41:56.621,-0.541077,2.64556,6.21984,-0.0188599,0.305347,0.145916,0
2024-12-11 14:41:56.624,-0.562612,2.65274,6.18634,-0.0255792,0.298017,0.143473,0
2024-12-11 14:41:56.627,-0.596112,2.65274,6.15524,-0.030466,0.289465,0.141029,0
2024-12-11 14:41:56.628,-0.624826,2.66231,6.12174,-0.0365745,0.282746,0.140419,0
2024-12-11 14:41:56.630,-0.641576,2.68146,6.09063,-0.0451263,0.273583,0.136143,0
2024-12-11 14:41:56.634,-0.663111,2.69581,6.07867,-0.0561216,0.250371,0.135532,0
2024-12-11 14:41:56.635,-0.684646,2.70778,6.09302,-0.0561216,0.250371,0.135532,0
2024-12-11 14:41:56.637,-0.694218,2.72692,6.11695,-0.0610084,0.235711,0.133699,0
2024-12-11 14:41:56.640,-0.696611,2.72692,6.15045,-0.0652843,0.221661,0.133699,0
2024-12-11 14:41:56.642,-0.670289,2.71256,6.19113,-0.0677277,0.205779,0.133088,0
2024-12-11 14:41:56.644,-0.63679,2.71735,6.24856,-0.0713928,0.186843,0.133699,0
2024-12-11 14:41:56.647,-0.624826,2.72931,6.32034,-0.0750579,0.173404,0.133088,0
2024-12-11 14:41:56.649,-0.629611,2.75563,6.38734,-0.074447,0.159355,0.134921,0
2024-12-11 14:41:56.653,-0.643968,2.77238,6.44238,-0.0707819,0.141029,0.135532,0
2024-12-11 14:41:56.655,-0.643968,2.77238,6.50489,-0.0689494,0.131867,0.137975,0
2024-12-11 14:41:56.656,-0.63679,2.76521,6.57189,-0.0689494,0.131867,0.137975,0
2024-12-11 14:41:56.660,-0.648754,2.74606,6.67478,-0.0640626,0.123926,0.139808,0
2024-12-11 14:41:56.661,-0.687039,2.73888,6.8016,-0.0579541,0.11293,0.145305,0
2024-12-11 14:41:56.664,-0.727717,2.72453,6.89731,-0.0500131,0.103157,0.14897,0
2024-12-11 14:41:56.666,-0.737288,2.71496,6.97627,-0.0408504,0.0915507,0.156301,0
2024-12-11 14:41:56.668,-0.71336,2.71017,7.0675,-0.0298552,0.0787229,0.163631,0
2024-12-11 14:41:56.670,-0.699003,2.70539,7.14407,-0.0158057,0.0646735,0.17035,0
2024-12-11 14:41:56.673,-0.703789,2.71256,7.21346,-0.00175619,0.0524565,0.180734,0
2024-12-11 14:41:56.675,-0.696611,2.71735,7.302,0.0147367,0.0359636,0.188065,0
2024-12-11 14:41:56.677,-0.689432,2.72931,7.38575,0.0306187,0.0206925,0.194784,0
2024-12-11 14:41:56.681,-0.675075,2.75563,7.46949,0.0709346,-0.00435229,0.214942,0
2024-12-11 14:41:56.682,-0.658325,2.77956,7.54367,0.0709346,-0.00435229,0.214942,0
2024-12-11 14:41:56.685,-0.629611,2.80349,7.61097,0.0917034,-0.0153475,0.221661,0
2024-12-11 14:41:56.687,-0.600898,2.82024,7.67318,0.114916,-0.029397,0.229602,0
2024-12-11 14:41:56.690,-0.593719,2.8322,7.72343,0.138128,-0.0422248,0.238765,0
2024-12-11 14:41:56.692,-0.576969,2.85613,7.7689,0.16134,-0.0556635,0.245484,0
2024-12-11 14:41:56.694,-0.562612,2.89203,7.80479,0.183331,-0.0697129,0.250982,0
2024-12-11 14:41:56.696,-0.54347,2.93031,7.83829,0.209597,-0.0825407,0.258312,0
2024-12-11 14:41:56.699,-0.505185,2.96381,7.84307,0.232809,-0.0972011,0.265642,0
2024-12-11 14:41:56.701,-0.462114,2.99013,7.8335,0.254189,-0.111861,0.272362,0
2024-12-11 14:41:56.704,-0.414257,3.01167,7.8335,0.274958,-0.127743,0.277248,0
2024-12-11 14:41:56.707,-0.364008,3.04995,7.83111,0.294505,-0.142404,0.280913,0
2024-12-11 14:41:56.708,-0.304188,3.10768,7.8335,0.313441,-0.156453,0.284578,0
2024-12-11 14:41:56.710,-0.239282,3.15553,7.83829,0.332377,-0.171114,0.285189,0
2024-12-11 14:41:56.713,-0.181855,3.22493,7.82632,0.347648,-0.183941,0.284578,0
2024-12-11 14:41:56.715,-0.122034,3.30389,7.77847,0.364141,-0.193715,0.285189,0
2024-12-11 14:41:56.717,-0.0430708,3.38046,7.70908,0.376358,-0.201656,0.281524,0
2024-12-11 14:41:56.720,0.040678,3.44746,7.63729,0.388575,-0.205321,0.279081,0
2024-12-11 14:41:56.723,0.107677,3.5001,7.57747,0.396516,-0.213873,0.271751,0
2024-12-11 14:41:56.725,0.160319,3.55514,7.54367,0.400181,-0.21876,0.264421,0
2024-12-11 14:41:56.727,0.20339,3.60539,7.52214,0.403236,-0.225479,0.255258,0
2024-12-11 14:41:56.729,0.239282,3.67029,7.5006,0.403236,-0.230977,0.243652,0
2024-12-11 14:41:56.733,0.267996,3.75165,7.48864,0.401403,-0.232809,0.230824,0
2024-12-11 14:41:56.734,0.263211,3.8354,7.44317,0.398349,-0.231587,0.215553,0
2024-12-11 14:41:56.736,0.265603,3.90479,7.37617,0.391629,-0.22609,0.205779,0
2024-12-11 14:41:56.740,0.27996,3.95025,7.34028,0.372693,-0.219981,0.181956,0
2024-12-11 14:41:56.741,0.311366,3.97418,7.32593,0.372693,-0.219981,0.181956,0
2024-12-11 14:41:56.743,0.342473,4.01486,7.35464,0.359255,-0.216927,0.169128,0
2024-12-11 14:41:56.746,0.344866,4.05554,7.38335,0.345816,-0.212651,0.15569,0
2024-12-11 14:41:56.748,0.352044,4.07946,7.37617,0.331766,-0.208986,0.144084,0
2024-12-11 14:41:56.751,0.364008,4.12014,7.39053,0.315884,-0.201045,0.131256,0
2024-12-11 14:41:56.754,0.373579,4.1345,7.42642,0.299392,-0.191882,0.120261,0
2024-12-11 14:41:56.756,0.364008,4.12732,7.48385,0.282288,-0.182109,0.109876,0
2024-12-11 14:41:56.758,0.320937,4.13211,7.57478,0.265184,-0.169281,0.0988809,0
2024-12-11 14:41:56.760,0.277567,4.14886,7.68276,0.251135,-0.154621,0.0878856,0
2024-12-11 14:41:56.762,0.241675,4.168,7.8024,0.240139,-0.143625,0.0799446,0
2024-12-11 14:41:56.765,0.215354,4.18714,7.92443,0.232809,-0.127743,0.0750579,0
2024-12-11 14:41:56.767,0.179462,4.2353,8.02732,0.226701,-0.110029,0.0695602,0
2024-12-11 14:41:56.770,0.141177,4.2664,8.10868,0.220592,-0.0721563,0.0610084,0
2024-12-11 14:41:56.773,0.11007,4.28555,8.19033,0.216927,-0.0568851,0.0573433,0
2024-12-11 14:41:56.774,0.0909273,4.31665,8.24776,0.216927,-0.0568851,0.0573433,0
2024-12-11 14:41:56.776,0.0765703,4.34058,8.3028,0.215705,-0.0434465,0.0579541,0
2024-12-11 14:41:56.779,0.0622134,4.37887,8.35304,0.216316,-0.0257319,0.050624,0
2024-12-11 14:41:56.781,0.040678,4.42194,8.37458,0.212651,-0.013515,0.0475697,0
2024-12-11 14:41:56.784,0.0191426,4.47219,8.39851,0.21204,-0.00740652,0.042683,0
2024-12-11 14:41:56.786,0.00717847,4.53918,8.42722,0.210819,-0.00129805,0.0377962,0
2024-12-11 14:41:56.788,-0.00239282,4.59901,8.45833,0.209597,0.00358873,0.0322986,0
2024-12-11 14:41:56.790,-0.00239282,4.65165,8.50379,0.207154,0.00358873,0.0274118,0
2024-12-11 14:41:56.793,-0.00717847,4.70429,8.54686,0.201656,-0.000687203,0.0200816,0
2024-12-11 14:41:56.796,-0.00957129,4.75454,8.57797,0.197991,-0.0159584,0.00297788,0
2024-12-11 14:41:56.799,0.0,4.80269,8.62583,0.197991,-0.0159584,0.00297788,0
2024-12-11 14:41:56.800,0.00717847,4.84577,8.67847,0.195547,-0.0269536,-0.00862822,0
2024-12-11 14:41:56.802,0.026321,4.88884,8.72184,0.19005,-0.0434465,-0.0208452,0
2024-12-11 14:41:56.806,0.0454636,4.91516,8.78644,0.183941,-0.0611611,-0.0348946,0
2024-12-11 14:41:56.807,0.0693919,4.93191,8.86302,0.17539,-0.0825407,-0.0483333,0
2024-12-11 14:41:56.810,0.107677,4.94387,8.94676,0.169892,-0.105142,-0.0617719,0
2024-12-11 14:41:56.812,0.145962,4.95583,9.05205,0.167449,-0.131409,-0.0800973,0
2024-12-11 14:41:56.814,0.189033,4.97976,9.17647,0.158286,-0.158897,-0.0972011,0
2024-12-11 14:41:56.817,0.210568,4.98455,9.28684,0.154621,-0.187606,-0.114916,0
2024-12-11 14:41:56.820,0.227318,4.98694,9.38495,0.147901,-0.245026,-0.150956,0
2024-12-11 14:41:56.821,0.246461,5.00848,9.49263,0.147901,-0.245026,-0.150956,0
2024-12-11 14:41:56.824,0.253639,5.03001,9.60509,0.144236,-0.27679,-0.169892,0
2024-12-11 14:41:56.826,0.248854,5.05394,9.70319,0.142404,-0.309165,-0.189439,0
2024-12-11 14:41:56.829,0.239282,5.07069,9.79173,0.135684,-0.375747,-0.224868,0
2024-12-11 14:41:56.830,0.229711,5.07308,9.89731,0.135684,-0.375747,-0.224868,0
2024-12-11 14:41:56.834,0.224925,5.08505,10.0074,0.133241,-0.410566,-0.245026,0
2024-12-11 14:41:56.836,0.224925,5.08265,10.1079,0.125911,-0.469207,-0.274958,0
2024-12-11 14:41:56.839,0.241675,5.05155,10.2132,0.120413,-0.496695,-0.29084,0
2024-12-11 14:41:56.840,0.253639,5.02762,10.3424,0.120413,-0.496695,-0.29084,0
2024-12-11 14:41:56.842,0.263211,5.00369,10.4743,0.113694,-0.524794,-0.306722,0
2024-12-11 14:41:56.846,0.275175,4.95105,10.5915,0.101477,-0.575494,-0.329934,0
2024-12-11 14:41:56.847,0.265603,4.88884,10.7375,0.101477,-0.575494,-0.329934,0
2024-12-11 14:41:56.849,0.251246,4.82423,10.9265,0.0923143,-0.598707,-0.339707,0
2024-12-11 14:41:56.853,0.217747,4.77637,11.1326,0.081319,-0.643299,-0.358644,0
2024-12-11 14:41:56.855,0.153141,4.7354,11.3432,0.081319,-0.643299,-0.358644,0
2024-12-11 14:41:56.857,0.0765703,4.6995,11.5684,0.081319,-0.643299,-0.358644,0
2024-12-11 14:41:56.859,-0.00478565,4.666,11.7957,0.0764323,-0.675673,-0.360476,0
2024-12-11 14:41:56.861,-0.0837488,4.62293,12.0039,0.0807082,-0.686058,-0.355589,0
2024-12-11 14:41:56.863,-0.160319,4.59901,12.2195,0.0819299,-0.69461,-0.347648,0
2024-12-11 14:41:56.866,-0.217747,4.59183,12.4588,0.0917034,-0.698275,-0.339097,0
2024-12-11 14:41:56.869,-0.244068,4.58465,12.6817,0.115526,-0.699496,-0.310387,0
2024-12-11 14:41:56.872,-0.256032,4.55115,12.897,0.131409,-0.692777,-0.296948,0
2024-12-11 14:41:56.874,-0.263211,4.52961,13.1148,0.150345,-0.684836,-0.282288,0
2024-12-11 14:41:56.875,-0.258425,4.52483,13.3137,0.150345,-0.684836,-0.282288,0
2024-12-11 14:41:56.878,-0.246461,4.51047,13.4955,0.172946,-0.670787,-0.268238,0
2024-12-11 14:41:56.880,-0.251246,4.49133,13.675,0.200434,-0.650629,-0.250524,0
2024-12-11 14:41:56.882,-0.258425,4.45304,13.8308,0.224868,-0.626806,-0.232809,0
2024-12-11 14:41:56.885,-0.267996,4.44826,13.9457,0.257243,-0.598707,-0.216927,0
2024-12-11 14:41:56.887,-0.30658,4.49133,14.0342,0.287785,-0.569386,-0.196769,0
2024-12-11 14:41:56.889,-0.378365,4.54397,14.0868,0.319549,-0.540065,-0.17539,0
2024-12-11 14:41:56.892,-0.481256,4.62772,14.1036,0.353146,-0.503415,-0.15401,0
2024-12-11 14:41:56.894,-0.598505,4.75693,14.0677,0.387354,-0.466153,-0.13263,0
2024-12-11 14:41:56.896,-0.725324,4.91037,13.9816,0.41362,-0.429502,-0.108196,0
2024-12-11 14:41:56.899,-0.833001,5.08505,13.8476,0.439276,-0.397738,-0.0831516,0
2024-12-11 14:41:56.901,-0.895514,5.25733,13.6989,0.457601,-0.37025,-0.0581068,0
2024-12-11 14:41:56.904,-0.931406,5.41077,13.5601,0.47165,-0.350703,-0.0342838,0
2024-12-11 14:41:56.906,-0.933799,5.57109,13.4357,0.477148,-0.337264,-0.0122933,0
2024-12-11 14:41:56.908,-0.873978,5.69791,13.3041,0.477148,-0.337264,-0.0122933,0
2024-12-11 14:41:56.911,-0.734896,5.76969,13.1626,0.473483,-0.333599,0.0206925,0
2024-12-11 14:41:56.913,-0.54347,5.81994,13.0454,0.462488,-0.337875,0.0298552,0
2024-12-11 14:41:56.916,-0.328116,5.86062,12.9377,0.447217,-0.347648,0.0359636,0
2024-12-11 14:41:56.918,-0.0933201,5.88933,12.8444,0.427669,-0.364141,0.0316877,0
2024-12-11 14:41:56.921,0.18664,5.91596,12.763,0.404457,-0.38491,0.0249684,0
2024-12-11 14:41:56.922,0.495613,5.92074,12.7008,0.376969,-0.412398,0.0158057,0
2024-12-11 14:41:56.925,0.821037,5.89921,12.6817,0.343373,-0.444162,-0.0019089,0
2024-12-11 14:41:56.927,1.17547,5.87737,12.708,0.306722,-0.486311,-0.0263428,0
2024-12-11 14:41:56.929,1.54905,5.82712,12.7511,0.265184,-0.530903,-0.057496,0
2024-12-11 14:41:56.933,1.90558,5.73619,12.8157,0.221814,-0.573662,-0.0929251,0
2024-12-11 14:41:56.934,2.24806,5.61895,12.9305,0.176611,-0.6152,-0.136295,0
2024-12-11 14:41:56.936,2.60249,5.47059,13.0597,0.13263,-0.646964,-0.184552,0
2024-12-11 14:41:56.939,2.92313,5.31715,13.2275,0.0910926,-0.672008,-0.238918,0
2024-12-11 14:41:56.941,3.17707,5.15444,13.4429,0.0538309,-0.684836,-0.296948,0
2024-12-11 14:41:56.944,3.35653,4.97498,13.6869,0.0232886,-0.683614,-0.355589,0
2024-12-11 14:41:56.946,3.46421,4.81705,13.9385,-0.00114534,-0.667122,-0.415452,0
2024-12-11 14:41:56.948,3.50489,4.65404,14.1491,-0.0194708,-0.634136,-0.474705,0
2024-12-11 14:41:56.951,3.48574,4.4674,14.3216,-0.0280226,-0.578549,-0.527238,0
2024-12-11 14:41:56.953,3.41635,4.24726,14.4341,-0.0292443,-0.502193,-0.575494,0
2024-12-11 14:41:56.955,3.28714,4.01964,14.458,-0.0261901,-0.409955,-0.618865,0
2024-12-11 14:41:56.958,3.08854,3.7995,14.4102,-0.0182491,-0.304278,-0.653683,1
2024-12-11 14:41:56.961,2.8322,3.57189,14.2783,-0.00297788,-0.0636045,-0.697664,0
2024-12-11 14:41:56.963,2.54985,3.34457,14.0677,-0.00297788,-0.0636045,-0.697664,0
2024-12-11 14:41:56.965,2.25045,3.134,13.7973,0.00129805,0.0671168,-0.70927,0
2024-12-11 14:41:56.967,1.94148,2.93988,13.4907,0.00129805,0.195395,-0.713546,0
2024-12-11 14:41:56.970,1.63759,2.76042,13.1626,0.000687203,0.323062,-0.708659,0
2024-12-11 14:41:56.972,1.34058,2.58574,12.8563,-0.00481042,0.450118,-0.696442,0
2024-12-11 14:41:56.974,1.04865,2.43948,12.5809,-0.0115297,0.570455,-0.683004,0
2024-12-11 14:41:56.977,0.737288,2.33898,12.3535,-0.0170274,0.687738,-0.662235,0
2024-12-11 14:41:56.979,0.426222,2.27677,12.1454,-0.0219141,0.798912,-0.638412,0
2024-12-11 14:41:56.981,0.143569,2.22891,11.9034,-0.0268009,0.903443,-0.609702,0
2024-12-11 14:41:56.984,-0.112463,2.19302,11.6378,-0.0292443,0.999957,-0.57977,0
2024-12-11 14:41:56.986,-0.373579,2.17627,11.3743,-0.0310769,1.08609,-0.547396,0
2024-12-11 14:41:56.988,-0.627219,2.15713,11.1087,-0.0322986,1.15756,-0.511356,0
2024-12-11 14:41:56.992,-0.852443,2.1332,10.838,-0.0414613,1.26018,-0.431335,0
2024-12-11 14:41:56.993,-1.04626,2.10449,10.57,-0.0414613,1.26018,-0.431335,0
2024-12-11 14:41:56.996,-1.18983,2.08295,10.3089,-0.0634518,1.29561,-0.346427,0
2024-12-11 14:41:56.999,-1.28315,2.05902,10.0792,-0.0781121,1.2895,-0.306111,0
2024-12-11 14:41:57.000,-1.33101,2.03749,9.88056,-0.0781121,1.2895,-0.306111,0
2024-12-11 14:41:57.003,-1.33101,2.02552,9.71516,-0.0939941,1.27178,-0.270071,0
2024-12-11 14:41:57.006,-1.32144,2.02313,9.59073,-0.125758,1.19665,-0.206543,0
2024-12-11 14:41:57.007,-1.30947,2.03749,9.51895,-0.125758,1.19665,-0.206543,0
2024-12-11 14:41:57.010,-1.27597,2.05185,9.48306,-0.14164,1.1429,-0.181498,0
2024-12-11 14:41:57.012,-1.21376,2.07577,9.46631,-0.154468,1.08242,-0.158286,0
2024-12-11 14:41:57.014,-1.14915,2.11167,9.49741,-0.166074,1.0134,-0.140571,0
2024-12-11 14:41:57.016,-1.07737,2.13559,9.54288,-0.175237,0.938872,-0.123468,0
2024-12-11 14:41:57.019,-0.986441,2.15474,9.61705,-0.177069,0.856408,-0.11064,0
2024-12-11 14:41:57.021,-0.881157,2.16431,9.71277,-0.179513,0.766537,-0.10331,0
2024-12-11 14:41:57.024,-0.780359,2.17388,9.78455,-0.175237,0.674299,-0.0984228,0
2024-12-11 14:41:57.026,-0.658325,2.18584,9.87578,-0.17035,0.576563,-0.0959794,0
2024-12-11 14:41:57.028,-0.50997,2.18584,9.98824,-0.161187,0.477606,-0.0984228,0
2024-12-11 14:41:57.031,-0.368794,2.17627,10.0911,-0.152635,0.377427,-0.10392,0
2024-12-11 14:41:57.033,-0.227318,2.15234,10.206,-0.138586,0.272362,-0.111251,0
2024-12-11 14:41:57.035,-0.0933201,2.12124,10.3232,-0.121482,0.170961,-0.122246,0
2024-12-11 14:41:57.039,0.0454636,2.09252,10.4408,-0.0811663,-0.0220669,-0.150956,0
2024-12-11 14:41:57.041,0.179462,2.06381,10.558,-0.0579541,-0.117359,-0.166227,0
2024-12-11 14:41:57.042,0.301795,2.02313,10.6394,-0.0579541,-0.117359,-0.166227,0
2024-12-11 14:41:57.046,0.442971,1.97049,10.6849,-0.014584,-0.296337,-0.199823,0
2024-12-11 14:41:57.047,0.574577,1.91755,10.7231,-0.014584,-0.296337,-0.199823,0
2024-12-11 14:41:57.049,0.670289,1.86491,10.7542,0.00496313,-0.382467,-0.217538,0
2024-12-11 14:41:57.052,0.737288,1.82184,10.7638,0.0220669,-0.466764,-0.234031,0
2024-12-11 14:41:57.054,0.787538,1.79312,10.7853,0.041614,-0.548617,-0.249302,0
2024-12-11 14:41:57.057,0.837787,1.76919,10.8188,0.0562743,-0.625584,-0.265795,0
2024-12-11 14:41:57.059,0.876371,1.73809,10.838,0.0697129,-0.693999,-0.279844,0
2024-12-11 14:41:57.061,0.905085,1.69502,10.8643,0.0843733,-0.755084,-0.29084,0
2024-12-11 14:41:57.064,0.936192,1.66152,10.8643,0.0978119,-0.806395,-0.302446,0
2024-12-11 14:41:57.066,0.955334,1.61605,10.8619,0.109418,-0.844878,-0.310387,0
2024-12-11 14:41:57.069,0.984048,1.56341,10.8643,0.131409,-0.899244,-0.321382,0
2024-12-11 14:41:57.072,1.01037,1.5012,10.838,0.131409,-0.899244,-0.321382,0
2024-12-11 14:41:57.073,1.02473,1.43181,10.8284,0.142404,-0.914515,-0.321993,0
2024-12-11 14:41:57.075,1.02951,1.3669,10.8404,0.154621,-0.921845,-0.324436,0
2024-12-11 14:41:57.078,1.01515,1.32622,10.8619,0.166227,-0.921845,-0.323215,0
2024-12-11 14:41:57.080,0.979263,1.31186,10.8954,0.180276,-0.912682,-0.319549,0
2024-12-11 14:41:57.082,0.938585,1.31665,10.9026,0.195547,-0.898633,-0.314052,0
2024-12-11 14:41:57.086,0.909871,1.34776,10.8691,0.210208,-0.873588,-0.304889,0
2024-12-11 14:41:57.087,0.88355,1.38844,10.7925,0.226701,-0.836326,-0.295116,0
2024-12-11 14:41:57.090,0.847657,1.42463,10.6896,0.241972,-0.792956,-0.281677,0
2024-12-11 14:41:57.093,0.80668,1.43181,10.5676,0.268849,-0.682393,-0.253578,0
2024-12-11 14:41:57.094,0.770788,1.45095,10.424,0.268849,-0.682393,-0.253578,0
2024-12-11 14:41:57.097,0.722932,1.47966,10.2586,0.281066,-0.620086,-0.237696,0
2024-12-11 14:41:57.100,0.679861,1.49641,10.06,0.292672,-0.486311,-0.199213,0
2024-12-11 14:41:57.101,0.627219,1.52513,9.83031,0.292672,-0.486311,-0.199213,0
2024-12-11 14:41:57.104,0.54347,1.57777,9.58116,0.292061,-0.415452,-0.181498,0
2024-12-11 14:41:57.106,0.454935,1.6328,9.32992,0.291451,-0.344594,-0.160118,0
2024-12-11 14:41:57.108,0.380758,1.6663,9.07598,0.285953,-0.272514,-0.138128,0
2024-12-11 14:41:57.111,0.308973,1.71894,8.83191,0.279234,-0.199213,-0.117359,0
2024-12-11 14:41:57.113,0.258425,1.77637,8.59233,0.26946,-0.129576,-0.0929251,0
2024-12-11 14:41:57.115,0.229711,1.81466,8.35544,0.255411,-0.0617719,-0.0703238,0
2024-12-11 14:41:57.118,0.196211,1.85533,8.13261,0.243194,0.00603212,-0.0465007,0
2024-12-11 14:41:57.121,0.160319,1.9008,7.91725,0.210208,0.136753,-0.0019089,0
2024-12-11 14:41:57.122,0.124427,1.96301,7.73779,0.210208,0.136753,-0.0019089,0
2024-12-11 14:41:57.125,0.0909273,2.00638,7.59422,0.195547,0.200892,0.0188599,0
2024-12-11 14:41:57.127,0.0765703,2.03749,7.49103,0.183331,0.265031,0.038407,0
2024-12-11 14:41:57.131,0.0741775,2.08056,7.42164,0.171724,0.392698,0.0750579,0
2024-12-11 14:41:57.133,0.0765703,2.12124,7.3355,0.169281,0.44401,0.0933833,0
2024-12-11 14:41:57.134,0.0502493,2.16431,7.2015,0.169281,0.44401,0.0933833,0
2024-12-11 14:41:57.137,0.0119641,2.20977,7.03879,0.164394,0.485547,0.109265,0
2024-12-11 14:41:57.139,-0.00957129,2.26481,6.8662,0.157064,0.519144,0.12698,0
2024-12-11 14:41:57.141,-0.0119641,2.28873,6.70589,0.148512,0.543578,0.139197,0
2024-12-11 14:41:57.145,0.0,2.29352,6.55274,0.135074,0.586337,0.161798,0
2024-12-11 14:41:57.146,0.0119641,2.31027,6.4352,0.135074,0.586337,0.161798,0
2024-12-11 14:41:57.148,0.0287139,2.3342,6.34666,0.127133,0.602219,0.169739,0
2024-12-11 14:41:57.153,0.0598206,2.41555,6.23899,0.117359,0.62421,0.180124,0
2024-12-11 14:41:57.154,0.0598206,2.41555,6.23899,0.121024,0.632761,0.183789,0
2024-12-11 14:41:57.155,0.0478565,2.4658,6.19831,0.121024,0.632761,0.183789,0
2024-12-11 14:41:57.158,0.026321,2.50648,6.1672,0.122246,0.635816,0.1844,0
2024-12-11 14:41:57.161,0.0191426,2.54507,6.14806,0.127133,0.635816,0.185621,0
2024-12-11 14:41:57.162,0.0191426,2.58096,6.12892,0.135074,0.632761,0.187454,0
2024-12-11 14:41:57.166,0.0239282,2.60967,6.10977,0.152177,0.615047,0.185621,0
2024-12-11 14:41:57.168,0.0430708,2.63121,6.09781,0.152177,0.615047,0.185621,0
2024-12-11 14:41:57.170,0.0526421,2.64078,6.07149,0.163173,0.602219,0.181345,0
2024-12-11 14:41:57.172,0.0454636,2.65992,6.04995,0.177833,0.587559,0.17768,0
2024-12-11 14:41:57.175,0.0287139,2.67906,6.02842,0.193104,0.572898,0.170961,0
2024-12-11 14:41:57.177,-0.0167498,2.68146,5.9997,0.205321,0.557016,0.166074,0
2024-12-11 14:41:57.179,-0.0526421,2.7006,5.98056,0.219981,0.538691,0.160576,0
2024-12-11 14:41:57.181,-0.0837488,2.71735,5.97817,0.237085,0.522198,0.15569,0
2024-12-11 14:41:57.184,-0.136391,2.71735,5.97338,0.255411,0.503262,0.150192,0
2024-12-11 14:41:57.186,-0.191426,2.72931,5.94228,0.271903,0.48738,0.147749,0
2024-12-11 14:41:57.188,-0.263211,2.72931,5.91117,0.287175,0.468443,0.143473,0
2024-12-11 14:41:57.191,-0.332901,2.72453,5.8678,0.304889,0.450118,0.140419,0
2024-12-11 14:41:57.193,-0.383151,2.73888,5.80798,0.323215,0.431182,0.14164,0
2024-12-11 14:41:57.195,-0.447757,2.75324,5.74098,0.336653,0.411635,0.142862,0
2024-12-11 14:41:57.198,-0.50997,2.74846,5.65723,0.34887,0.388422,0.143473,0
2024-12-11 14:41:57.200,-0.56022,2.73888,5.59023,0.357422,0.363989,0.145916,0
2024-12-11 14:41:57.202,-0.600898,2.73649,5.52802,0.365363,0.340776,0.150192,0
2024-12-11 14:41:57.205,-0.632004,2.73888,5.47059,0.373304,0.316953,0.153857,0
2024-12-11 14:41:57.208,-0.679861,2.75803,5.42752,0.376358,0.291298,0.157522,0
2024-12-11 14:41:57.210,-0.718146,2.77717,5.39163,0.375747,0.266864,0.164242,0
2024-12-11 14:41:57.213,-0.706182,2.79631,5.38445,0.37758,0.219218,0.174626,0
2024-12-11 14:41:57.214,-0.682254,2.82981,5.39881,0.37758,0.219218,0.174626,0
2024-12-11 14:41:57.218,-0.651147,2.83938,5.41556,0.368417,0.176459,0.182567,0
2024-12-11 14:41:57.219,-0.596112,2.85613,5.42991,0.368417,0.176459,0.182567,0
2024-12-11 14:41:57.222,-0.536291,2.88724,5.47538,0.364752,0.158133,0.183178,0
2024-12-11 14:41:57.225,-0.469292,2.89681,5.53759,0.359865,0.144084,0.181956,0
2024-12-11 14:41:57.226,-0.414257,2.90638,5.60459,0.356811,0.130645,0.179513,0
2024-12-11 14:41:57.228,-0.361615,2.94467,5.69073,0.350092,0.125147,0.178291,0
2024-12-11 14:41:57.231,-0.313759,2.98056,5.78644,0.346427,0.115985,0.172793,0
2024-12-11 14:41:57.234,-0.294616,3.00449,5.89203,0.337264,0.106822,0.164852,0
2024-12-11 14:41:57.236,-0.287438,3.02842,5.99253,0.337264,0.106822,0.164852,0
2024-12-11 14:41:57.238,-0.285045,3.05234,6.08345,0.335431,0.106211,0.158744,0
2024-12-11 14:41:57.240,-0.304188,3.08345,6.1672,0.332377,0.104989,0.153246,0
2024-12-11 14:41:57.243,-0.349651,3.10529,6.26052,0.332377,0.109876,0.150192,0
2024-12-11 14:41:57.246,-0.395115,3.11486,6.35384,0.329934,0.109876,0.147749,0
2024-12-11 14:41:57.247,-0.426222,3.15075,6.44955,0.329323,0.113541,0.145916,0
2024-12-11 14:41:57.250,-0.431007,3.18186,6.55753,0.32688,0.117817,0.142862,0
2024-12-11 14:41:57.252,-0.414257,3.19621,6.66999,0.324436,0.117817,0.142251,0
2024-12-11 14:41:57.255,-0.409472,3.21536,6.76092,0.323215,0.131256,0.137975,0
2024-12-11 14:41:57.258,-0.426222,3.22971,6.84467,0.323215,0.131256,0.137975,0
2024-12-11 14:41:57.259,-0.445364,3.24646,6.94038,0.318939,0.140419,0.136143,0
2024-12-11 14:41:57.262,-0.4669,3.28235,7.04118,0.32016,0.152635,0.137364,0
2024-12-11 14:41:57.264,-0.502792,3.33021,7.15604,0.321382,0.164852,0.136753,0
2024-12-11 14:41:57.267,-0.524327,3.37328,7.29003,0.323825,0.186843,0.136753,0
2024-12-11 14:41:57.268,-0.519542,3.41157,7.43121,0.323825,0.186843,0.136753,0
2024-12-11 14:41:57.272,-0.52672,3.44028,7.54607,0.32688,0.197838,0.137975,0
2024-12-11 14:41:57.273,-0.550648,3.47617,7.63968,0.328712,0.210055,0.136143,0
2024-12-11 14:41:57.275,-0.572184,3.52403,7.733,0.329934,0.222272,0.137364,0
2024-12-11 14:41:57.278,-0.608076,3.55514,7.81436,0.332988,0.234489,0.136753,0
2024-12-11 14:41:57.280,-0.660718,3.6006,7.89572,0.331156,0.243652,0.137975,0
2024-12-11 14:41:57.283,-0.715753,3.66311,7.98904,0.33421,0.255258,0.139197,0
2024-12-11 14:41:57.285,-0.76361,3.70379,8.07996,0.336653,0.268086,0.14164,0
2024-12-11 14:41:57.288,-0.794716,3.74208,8.15923,0.336653,0.291909,0.152635,0
2024-12-11 14:41:57.291,-0.816252,3.78275,8.22383,0.336042,0.301682,0.157522,0
2024-12-11 14:41:57.292,-0.84018,3.80907,8.29562,0.336042,0.301682,0.157522,0
2024-12-11 14:41:57.294,-0.8668,3.8354,8.34826,0.336042,0.30718,0.164852,0
2024-12-11 14:41:57.297,-0.902692,3.86411,8.37697,0.33421,0.311456,0.170961,0
2024-12-11 14:41:57.299,-0.936192,3.89522,8.42962,0.328712,0.313899,0.178291,0
2024-12-11 14:41:57.301,-0.952942,3.91914,8.48704,0.323825,0.312677,0.187454,0
2024-12-11 14:41:57.304,-0.96012,3.93829,8.57079,0.322604,0.304736,0.194173,0
2024-12-11 14:41:57.306,-0.981655,3.96939,8.7003,0.316495,0.296795,0.200892,0
2024-12-11 14:41:57.308,-1.01515,3.99571,8.85344,0.310998,0.284578,0.20639,0
2024-12-11 14:41:57.312,-1.02951,4.01964,9.02812,0.308554,0.260755,0.219829,0
2024-12-11 14:41:57.313,-1.04148,4.05314,9.18365,0.308554,0.260755,0.219829,0
2024-12-11 14:41:57.316,-1.06062,4.09382,9.32992,0.314052,0.248538,0.230213,0
2024-12-11 14:41:57.318,-1.05105,4.12732,9.49023,0.318328,0.236322,0.238154,0
2024-12-11 14:41:57.321,-1.05105,4.16561,9.64098,0.337875,0.218607,0.252814,0
2024-12-11 14:41:57.324,-1.06301,4.20389,9.76062,0.353146,0.212498,0.26381,0
2024-12-11 14:41:57.326,-1.05583,4.24247,9.85185,0.353146,0.212498,0.26381,0
2024-12-11 14:41:57.327,-1.05105,4.27837,9.91646,0.367196,0.205168,0.272362,0
2024-12-11 14:41:57.330,-1.02951,4.30947,9.95953,0.380023,0.196616,0.280303,0
2024-12-11 14:41:57.333,-1.01037,4.3334,9.99063,0.402014,0.181956,0.294963,0
2024-12-11 14:41:57.335,-0.991227,4.35972,10.0002,0.402014,0.181956,0.294963,0
2024-12-11 14:41:57.337,-0.955334,4.38126,10.0193,0.411177,0.172183,0.301071,0
2024-12-11 14:41:57.339,-0.919442,4.39801,10.0457,0.417896,0.164242,0.304126,0
2024-12-11 14:41:57.341,-0.885943,4.44586,10.0672,0.423394,0.157522,0.309623,0
2024-12-11 14:41:57.344,-0.8668,4.48654,10.1198,0.431945,0.14897,0.310845,0
2024-12-11 14:41:57.347,-0.8668,4.49851,10.1845,0.442941,0.130034,0.318175,0
2024-12-11 14:41:57.349,-0.862014,4.51765,10.2634,0.442941,0.130034,0.318175,0
2024-12-11 14:41:57.351,-0.84018,4.52961,10.3663,0.450271,0.121482,0.318786,0
2024-12-11 14:41:57.354,-0.80668,4.52961,10.4839,0.460044,0.113541,0.319397,0
2024-12-11 14:41:57.356,-0.766002,4.5344,10.6131,0.469818,0.1056,0.323062,0
2024-12-11 14:41:57.358,-0.73011,4.5344,10.7064,0.482035,0.102546,0.320618,0
2024-12-11 14:41:57.361,-0.720539,4.51286,10.7973,0.510745,0.101324,0.32917,0
2024-12-11 14:41:57.363,-0.708575,4.49372,10.8906,0.510745,0.101324,0.32917,0
2024-12-11 14:41:57.366,-0.670289,4.47458,10.9747,0.541287,0.1056,0.33589,0
2024-12-11 14:41:57.368,-0.634397,4.45783,11.0536,0.558391,0.109876,0.339555,0
2024-12-11 14:41:57.370,-0.593719,4.44586,11.1111,0.558391,0.109876,0.339555,0
2024-12-11 14:41:57.373,-0.569791,4.4339,11.1565,0.584046,0.120261,0.347496,0
2024-12-11 14:41:57.375,-0.574577,4.38604,11.214,0.584046,0.120261,0.347496,0
2024-12-11 14:41:57.377,-0.574577,4.31905,11.2642,0.597485,0.129423,0.354826,0
2024-12-11 14:41:57.380,-0.567398,4.25205,11.3001,0.618254,0.147749,0.369486,0
2024-12-11 14:41:57.381,-0.557827,4.17757,11.3551,0.618254,0.147749,0.369486,0
2024-12-11 14:41:57.384,-0.56022,4.12971,11.4078,0.629249,0.163631,0.37926,0
2024-12-11 14:41:57.386,-0.574577,4.08664,11.4604,0.643299,0.181956,0.390255,0
2024-12-11 14:41:57.388,-0.581755,4.04596,11.511,0.657348,0.207612,0.402472,0
2024-12-11 14:41:57.391,-0.62004,3.99571,11.5564,0.671398,0.237543,0.419576,0
2024-12-11 14:41:57.393,-0.687039,3.97897,11.566,0.68789,0.273583,0.436069,0
2024-12-11 14:41:57.396,-0.787538,4.01486,11.5253,0.701329,0.317564,0.454394,0
2024-12-11 14:41:57.398,-0.94337,4.08186,11.4389,0.715989,0.367043,0.473941,0
2024-12-11 14:41:57.400,-1.14197,4.17996,11.2762,0.725763,0.423241,0.497153,0
2024-12-11 14:41:57.403,-1.37408,4.30469,11.0728,0.731871,0.484326,0.522809,0
2024-12-11 14:41:57.405,-1.62802,4.4674,10.8428,0.730039,0.546632,0.547243,0
2024-12-11 14:41:57.407,-1.89362,4.65404,10.5915,0.725152,0.607106,0.575953,0
2024-12-11 14:41:57.411,-2.18345,4.86012,10.3304,0.683004,0.714615,0.633983,0
2024-12-11 14:41:57.412,-2.4682,5.08505,10.0624,0.683004,0.714615,0.633983,0
2024-12-11 14:41:57.414,-2.58096,5.28604,9.6673,0.650018,0.751266,0.662693,0
2024-12-11 14:41:57.418,-2.86331,5.50409,9.38974,0.551061,0.803875,0.718891,0
2024-12-11 14:41:57.420,-3.38764,5.75534,9.39213,0.496695,0.830141,0.751342,0
2024-12-11 14:41:57.422,-3.74925,5.97578,9.35145,0.496695,0.830141,0.751342,0
2024-12-11 14:41:57.424,-3.94068,6.12413,9.22672,0.443551,0.851521,0.784939,0
2024-12-11 14:41:57.426,-3.95743,6.21984,9.0688,0.383078,0.860684,0.818535,0
2024-12-11 14:41:57.430,-3.88564,6.30838,8.94916,0.252356,0.827698,0.872901,0
2024-12-11 14:41:57.431,-3.80429,6.37298,8.99701,0.252356,0.827698,0.872901,0
2024-12-11 14:41:57.433,-3.6679,6.39213,9.15733,0.183331,0.776921,0.896724,0
2024-12-11 14:41:57.436,-3.42114,6.35863,9.31795,0.111861,0.702398,0.911995,0
2024-12-11 14:41:57.438,-3.05952,6.30359,9.45673,0.037338,0.600997,0.92299,0
2024-12-11 14:41:57.441,-2.59771,6.21745,9.62184,-0.0432938,0.473941,0.92299,0
2024-12-11 14:41:57.443,-2.0686,6.08585,9.86621,-0.12698,0.325505,0.917493,0
2024-12-11 14:41:57.446,-1.49163,5.92792,10.2108,-0.301071,-0.0171801,0.863738,0
2024-12-11 14:41:57.447,-0.881157,5.74337,10.6298,-0.301071,-0.0171801,0.863738,0
2024-12-11 14:41:57.450,-0.263211,5.54238,11.0991,-0.385368,-0.206543,0.819757,0
2024-12-11 14:41:57.452,0.325723,5.33659,11.6521,-0.465389,-0.400181,0.766002,0
2024-12-11 14:41:57.454,0.8668,5.14965,12.2842,-0.536248,-0.594431,0.702398,0
2024-12-11 14:41:57.458,1.36451,4.97737,12.9832,-0.645589,-0.958496,0.550297,0
2024-12-11 14:41:57.460,1.79312,4.8003,13.7806,-0.677353,-1.12037,0.465389,0
2024-12-11 14:41:57.461,2.15952,4.60858,14.6303,-0.677353,-1.12037,0.465389,0
2024-12-11 14:41:57.465,2.47298,4.39801,15.5187,-0.688349,-1.25903,0.376206,0
2024-12-11 14:41:57.466,2.69103,4.16321,16.3995,-0.68224,-1.37021,0.286411,0
2024-12-11 14:41:57.470,2.71496,4.01964,17.1467,-0.656584,-1.45511,0.198449,0
2024-12-11 14:41:57.471,2.24327,4.12732,17.6204,-0.656584,-1.45511,0.198449,0
2024-12-11 14:41:57.473,1.96301,4.034,18.1567,-0.572898,-1.51742,0.0787229,0
2024-12-11 14:41:57.476,2.29113,3.55035,18.935,-0.515479,-1.53208,0.030466,1
2024-12-11 14:41:57.478,2.5331,2.98535,19.5503,-0.439123,-1.53391,-0.0184018,0
2024-12-11 14:41:57.480,2.59532,2.38684,19.8374,-0.357269,-1.51376,-0.0672696,0
2024-12-11 14:41:57.484,2.59771,1.84098,19.8996,-0.176459,-1.39342,-0.13935,0
2024-12-11 14:41:57.485,2.50887,1.38604,19.8422,-0.176459,-1.39342,-0.13935,0
2024-12-11 14:41:57.487,2.47777,1.00319,19.6579,-0.086664,-1.31034,-0.160729,0
2024-12-11 14:41:57.490,2.38684,0.687039,19.4785,-0.00542127,-1.22483,-0.176,0
2024-12-11 14:41:57.493,2.03031,0.4669,19.3708,0.160118,-1.00797,-0.169892,0
2024-12-11 14:41:57.494,1.4677,0.421436,19.1097,0.160118,-1.00797,-0.169892,0
2024-12-11 14:41:57.497,0.797109,0.52672,18.6356,0.235863,-0.872977,-0.138739,0
2024-12-11 14:41:57.499,0.160319,0.65354,18.1113,0.298781,-0.731261,-0.0898709,0
2024-12-11 14:41:57.502,-0.352044,0.744467,17.5989,0.358033,-0.587711,-0.0245102,0
2024-12-11 14:41:57.505,-0.703789,0.811466,17.0578,0.440497,-0.307333,0.127591,0
2024-12-11 14:41:57.506,-0.921835,0.869193,16.4641,0.440497,-0.307333,0.127591,0
2024-12-11 14:41:57.510,-0.991227,0.902692,15.8034,0.464931,-0.174168,0.209444,0
2024-12-11 14:41:57.511,-0.940978,0.933799,15.1044,0.477148,-0.0465007,0.2858,0
2024-12-11 14:41:57.513,-0.878764,0.979263,14.4652,0.476537,0.074447,0.355437,0
2024-12-11 14:41:57.517,-0.811466,1.04148,13.8811,0.447217,0.296185,0.48005,0
2024-12-11 14:41:57.518,-0.720539,1.14437,13.3041,0.447217,0.296185,0.48005,0
2024-12-11 14:41:57.520,-0.632004,1.27597,12.7367,0.420339,0.400029,0.536248,0
2024-12-11 14:41:57.523,-0.519542,1.40788,12.1956,0.386743,0.500818,0.583894,0
2024-12-11 14:41:57.526,-0.373579,1.54427,11.688,0.29817,0.680407,0.663915,0
2024-12-11 14:41:57.527,-0.217747,1.68066,11.2187,0.29817,0.680407,0.663915,0
2024-12-11 14:41:57.530,-0.0622134,1.79073,10.7853,0.243804,0.758596,0.695068,0
2024-12-11 14:41:57.532,0.102891,1.89601,10.4121,0.186996,0.830752,0.719502,0
2024-12-11 14:41:57.535,0.267996,2.0016,10.0768,0.128354,0.890615,0.737293,0
2024-12-11 14:41:57.537,0.409472,2.09013,9.77737,0.0697129,0.943148,0.747677,0
2024-12-11 14:41:57.540,0.545863,2.17866,9.5333,-0.0512348,1.02195,0.751342,0
2024-12-11 14:41:57.543,0.691825,2.2672,9.31316,-0.0512348,1.02195,0.751342,0
2024-12-11 14:41:57.546,0.926621,2.44188,8.97308,-0.169128,1.06715,0.729886,0
2024-12-11 14:41:57.547,0.926621,2.44188,8.97308,-0.223494,1.07815,0.711561,0
2024-12-11 14:41:57.549,1.08694,2.47777,8.85823,-0.223494,1.07815,0.711561,0
2024-12-11 14:41:57.551,1.31665,2.46102,8.8008,-0.272972,1.0812,0.684683,0
2024-12-11 14:41:57.554,1.38604,2.51845,8.74098,-0.32184,1.07876,0.6462,0
2024-12-11 14:41:57.556,1.17069,2.67906,8.60908,-0.365821,1.0757,0.613825,0
2024-12-11 14:41:57.558,0.988834,2.82981,8.53011,-0.406137,1.06471,0.583894,0
2024-12-11 14:41:57.561,0.912264,2.93749,8.53251,-0.44462,1.04821,0.55274,0
2024-12-11 14:41:57.563,0.818644,3.02363,8.53729,-0.477606,1.02806,0.520976,0
2024-12-11 14:41:57.566,0.727717,3.08584,8.53011,-0.528307,0.977356,0.458059,0
2024-12-11 14:41:57.568,0.682254,3.08106,8.53969,-0.528307,0.977356,0.458059,0
2024-12-11 14:41:57.570,0.643968,3.04517,8.55643,-0.547243,0.948035,0.422019,0
2024-12-11 14:41:57.572,0.574577,2.99252,8.54686,-0.557627,0.921158,0.385979,0
2024-12-11 14:41:57.575,0.486042,2.94227,8.52772,-0.56679,0.890004,0.353604,0
2024-12-11 14:41:57.577,0.397508,2.89203,8.50858,-0.571066,0.860073,0.323673,0
2024-12-11 14:41:57.579,0.316152,2.83938,8.47747,-0.573509,0.827087,0.290687,0
2024-12-11 14:41:57.583,0.215354,2.79392,8.44158,-0.573509,0.79036,0.261366,0
2024-12-11 14:41:57.584,0.11007,2.75803,8.42004,-0.57412,0.749433,0.238765,0
2024-12-11 14:41:57.587,0.00957129,2.71256,8.40329,-0.567401,0.666358,0.19173,0
2024-12-11 14:41:57.589,-0.102891,2.65753,8.37937,-0.567401,0.666358,0.19173,0
2024-12-11 14:41:57.591,-0.189033,2.58574,8.34826,-0.561292,0.622988,0.171572,0
2024-12-11 14:41:57.596,-0.359223,2.45145,8.35544,-0.54541,0.535637,0.144084,0
2024-12-11 14:41:57.596,-0.359223,2.45145,8.35544,-0.54541,0.535637,0.144084,0
2024-12-11 14:41:57.599,-0.431007,2.37727,8.35544,-0.522198,0.442788,0.122093,0
2024-12-11 14:41:57.601,-0.471685,2.31266,8.38415,-0.522198,0.442788,0.122093,0
2024-12-11 14:41:57.603,-0.512363,2.24566,8.41047,-0.50937,0.396974,0.115985,0
2024-12-11 14:41:57.605,-0.565005,2.16431,8.44876,-0.493488,0.352383,0.110487,0
2024-12-11 14:41:57.607,-0.615255,2.08774,8.48465,-0.478217,0.309623,0.106822,0
2024-12-11 14:41:57.610,-0.651147,2.01356,8.52293,-0.460502,0.269307,0.1056,0
2024-12-11 14:41:57.613,-0.679861,1.94626,8.58276,-0.422019,0.202114,0.103768,0
2024-12-11 14:41:57.615,-0.722932,1.87687,8.65454,-0.422019,0.202114,0.103768,0
2024-12-11 14:41:57.617,-0.758824,1.79791,8.70509,-0.397585,0.174626,0.107433,0
2024-12-11 14:41:57.619,-0.799502,1.73809,8.73141,-0.374373,0.151414,0.111098,0
2024-12-11 14:41:57.622,-0.852443,1.68066,8.76012,-0.348107,0.128812,0.118428,0
2024-12-11 14:41:57.624,-0.885943,1.62562,8.80319,-0.317564,0.111709,0.127591,0
2024-12-11 14:41:57.626,-0.907478,1.58495,8.83191,-0.317564,0.111709,0.127591,0
2024-12-11 14:41:57.629,-0.936192,1.54666,8.84387,-0.259534,0.0836097,0.153246,0
2024-12-11 14:41:57.632,-0.957727,1.4988,8.84866,-0.19906,0.0628409,0.183178,0
2024-12-11 14:41:57.633,-0.962513,1.45095,8.83669,-0.19906,0.0628409,0.183178,0
2024-12-11 14:41:57.637,-0.96012,1.4004,8.79602,-0.14164,0.0524565,0.215553,0
2024-12-11 14:41:57.639,-0.945763,1.36211,8.74337,-0.114763,0.050624,0.233267,0
2024-12-11 14:41:57.640,-0.931406,1.32144,8.68804,-0.114763,0.050624,0.233267,0
2024-12-11 14:41:57.643,-0.924228,1.31426,8.64258,-0.0909399,0.0548999,0.247317,0
2024-12-11 14:41:57.645,-0.9003,1.32383,8.58276,-0.066506,0.0603975,0.26381,0
2024-12-11 14:41:57.647,-0.864407,1.32622,8.5014,-0.0445155,0.066506,0.279692,0
2024-12-11 14:41:57.651,-0.84018,1.32383,8.40808,-0.00236703,0.0811663,0.312677,0
2024-12-11 14:41:57.652,-0.80668,1.33101,8.32433,-0.00236703,0.0811663,0.312677,0
2024-12-11 14:41:57.655,-0.761217,1.36451,8.2334,0.0141258,0.086664,0.327338,0
2024-12-11 14:41:57.657,-0.715753,1.39083,8.12782,0.0287862,0.0933833,0.339555,0
2024-12-11 14:41:57.659,-0.677468,1.41745,8.02493,0.041614,0.0988809,0.349328,0
2024-12-11 14:41:57.662,-0.643968,1.44616,7.92443,0.0477224,0.103157,0.358491,0
2024-12-11 14:41:57.664,-0.598505,1.47248,7.82632,0.0550526,0.110487,0.367654,0
2024-12-11 14:41:57.666,-0.54347,1.5012,7.72583,0.0593285,0.114152,0.374373,0
2024-12-11 14:41:57.669,-0.50997,1.54905,7.65883,0.0593285,0.119039,0.379871,0
2024-12-11 14:41:57.671,-0.469292,1.61845,7.58465,0.0611611,0.123926,0.384147,0
2024-12-11 14:41:57.673,-0.421436,1.6663,7.51735,0.0611611,0.129423,0.38659,0
2024-12-11 14:41:57.676,-0.373579,1.71177,7.47428,0.0611611,0.13431,0.389644,0
2024-12-11 14:41:57.678,-0.32333,1.77637,7.43839,0.0562743,0.139197,0.389644,0
2024-12-11 14:41:57.680,-0.270389,1.83619,7.41207,0.0532201,0.144694,0.38659,0
2024-12-11 14:41:57.684,-0.222533,1.89601,7.38335,0.0434465,0.156911,0.375595,0
2024-12-11 14:41:57.685,-0.174676,1.95105,7.36421,0.0434465,0.156911,0.375595,0
2024-12-11 14:41:57.689,-0.143569,1.99442,7.3331,0.0318404,0.168517,0.361545,0
2024-12-11 14:41:57.690,-0.12682,2.0327,7.2996,0.0318404,0.168517,0.361545,0
2024-12-11 14:41:57.693,-0.100499,2.08056,7.28046,0.0165692,0.175237,0.341387,0
2024-12-11 14:41:57.695,-0.0861416,2.11406,7.25175,0.0165692,0.175237,0.341387,0
2024-12-11 14:41:57.697,-0.0741775,2.13799,7.22064,0.00740652,0.178902,0.332835,0
2024-12-11 14:41:57.699,-0.0622134,2.1667,7.18714,-0.00114534,0.179513,0.32184,0
2024-12-11 14:41:57.703,-0.0502493,2.18824,7.14646,-0.0237467,0.174015,0.297406,0
2024-12-11 14:41:57.704,-0.026321,2.21456,7.11057,-0.0237467,0.174015,0.297406,0
2024-12-11 14:41:57.706,0.00957129,2.23609,7.08186,-0.0371853,0.168517,0.287633,0
2024-12-11 14:41:57.709,0.0550349,2.24566,7.06272,-0.0530674,0.158744,0.272972,0
2024-12-11 14:41:57.711,0.107677,2.25524,7.07468,-0.0689494,0.146527,0.258312,0
2024-12-11 14:41:57.713,0.177069,2.2672,7.08664,-0.0854423,0.133699,0.24243,0
2024-12-11 14:41:57.717,0.229711,2.29113,7.10579,-0.122704,0.104989,0.201503,0
2024-12-11 14:41:57.718,0.260818,2.32463,7.15125,-0.122704,0.104989,0.201503,0
2024-12-11 14:41:57.720,0.294616,2.35095,7.21825,-0.140419,0.086664,0.180124,0
2024-12-11 14:41:57.723,0.32333,2.37966,7.28764,-0.156911,0.0695602,0.158744,0
2024-12-11 14:41:57.725,0.330509,2.4012,7.3666,-0.174015,0.0512348,0.135532,0
2024-12-11 14:41:57.728,0.337687,2.39163,7.45992,-0.189897,0.0322986,0.11232,0
2024-12-11 14:41:57.732,0.366401,2.37009,7.65643,-0.218607,-0.00923906,0.0634518,0
2024-12-11 14:41:57.733,0.366401,2.37009,7.65643,-0.218607,-0.00923906,0.0634518,0
2024-12-11 14:41:57.735,0.378365,2.37009,7.77847,-0.230824,-0.0312296,0.0371853,0
2024-12-11 14:41:57.737,0.385544,2.35813,7.91725,-0.241819,-0.0513875,0.0121406,0
2024-12-11 14:41:57.740,0.375972,2.34138,8.0345,-0.247928,-0.0727672,-0.0110716,0
2024-12-11 14:41:57.742,0.337687,2.32223,8.17598,-0.258923,-0.0941468,-0.0355055,0
2024-12-11 14:41:57.745,0.301795,2.29831,8.31715,-0.269307,-0.128965,-0.0800973,0
2024-12-11 14:41:57.746,0.270389,2.28156,8.43679,-0.269307,-0.128965,-0.0800973,0
2024-12-11 14:41:57.749,0.210568,2.25045,8.55404,-0.274805,-0.14668,-0.0984228,0
2024-12-11 14:41:57.751,0.133998,2.22413,8.66172,-0.279081,-0.163783,-0.114305,0
2024-12-11 14:41:57.753,0.0717847,2.21695,8.77209,-0.280913,-0.179055,-0.128965,0
2024-12-11 14:41:57.756,0.0167498,2.20977,8.88216,-0.282746,-0.196158,-0.138739,0
2024-12-11 14:41:57.758,-0.0191426,2.19063,8.98983,-0.283968,-0.210208,-0.148512,0
2024-12-11 14:41:57.761,-0.0430708,2.17388,9.08076,-0.283968,-0.225479,-0.153399,0
2024-12-11 14:41:57.763,-0.066999,2.16192,9.17169,-0.287022,-0.240139,-0.16134,0
2024-12-11 14:41:57.765,-0.0693919,2.14517,9.25305,-0.292519,-0.255411,-0.166227,0
2024-12-11 14:41:57.768,-0.0741775,2.13559,9.32752,-0.293741,-0.268238,-0.169281,0
2024-12-11 14:41:57.770,-0.0741775,2.12842,9.42084,-0.298017,-0.280455,-0.173557,0
2024-12-11 14:41:57.772,-0.066999,2.12124,9.51177,-0.302293,-0.295726,-0.179055,0
2024-12-11 14:41:57.777,-0.0358923,2.12602,9.71755,-0.308401,-0.320771,-0.188217,0
2024-12-11 14:41:57.778,-0.0358923,2.12602,9.71755,-0.308401,-0.320771,-0.188217,0
2024-12-11 14:41:57.779,-0.0191426,2.11406,9.81805,-0.310234,-0.331156,-0.195547,0
2024-12-11 14:41:57.783,0.0119641,2.12124,9.92124,-0.313899,-0.349481,-0.207154,0
2024-12-11 14:41:57.784,0.0358923,2.14277,10.0337,-0.313899,-0.349481,-0.207154,0
2024-12-11 14:41:57.786,0.040678,2.14995,10.1677,-0.31451,-0.3562,-0.213262,0
2024-12-11 14:41:57.789,0.040678,2.15952,10.2921,-0.311456,-0.359865,-0.219371,0
2024-12-11 14:41:57.791,0.0502493,2.16431,10.3834,-0.308401,-0.361087,-0.225479,0
2024-12-11 14:41:57.796,0.0311067,2.15234,10.5365,-0.298628,-0.361698,-0.234642,0
2024-12-11 14:41:57.797,0.0311067,2.15234,10.5365,-0.295574,-0.361087,-0.238307,0
2024-12-11 14:41:57.799,0.00717847,2.14038,10.5891,-0.291298,-0.361087,-0.241361,0
2024-12-11 14:41:57.801,-0.00239282,2.13559,10.6418,-0.291298,-0.361087,-0.241361,0
2024-12-11 14:41:57.804,0.0,2.13799,10.7016,-0.283968,-0.350092,-0.246248,0
2024-12-11 14:41:57.805,-0.00717847,2.15474,10.7638,-0.283968,-0.350092,-0.246248,0
2024-12-11 14:41:57.808,-0.0215354,2.17388,10.8117,-0.280913,-0.344594,-0.249913,0
2024-12-11 14:41:57.810,-0.0287139,2.18824,10.8643,-0.276027,-0.333599,-0.253578,0
2024-12-11 14:41:57.813,-0.0311067,2.20738,10.9361,-0.267475,-0.321993,-0.255411,0
2024-12-11 14:41:57.817,-0.0119641,2.24566,11.0536,-0.250982,-0.29084,-0.260908,0
2024-12-11 14:41:57.817,-0.0119641,2.24566,11.0536,-0.250982,-0.29084,-0.260908,0
2024-12-11 14:41:57.820,0.00239282,2.26002,11.0919,-0.241208,-0.26946,-0.26213,0
2024-12-11 14:41:57.822,0.00239282,2.2672,11.1087,-0.231435,-0.246248,-0.265184,0
2024-12-11 14:41:57.824,-0.0167498,2.26481,11.1087,-0.222272,-0.224257,-0.266406,0
2024-12-11 14:41:57.826,-0.0287139,2.26241,11.1183,-0.210055,-0.199823,-0.26946,0
2024-12-11 14:41:57.831,-0.0622134,2.27199,11.1135,-0.189897,-0.149734,-0.273125,0
2024-12-11 14:41:57.832,-0.0622134,2.27199,11.1135,-0.189897,-0.149734,-0.273125,0
2024-12-11 14:41:57.833,-0.0885344,2.27677,11.0991,-0.180124,-0.124078,-0.273736,0
2024-12-11 14:41:57.836,-0.117248,2.30548,11.0776,-0.169739,-0.0996445,-0.276179,0
2024-12-11 14:41:57.838,-0.167498,2.33181,11.0584,-0.161187,-0.0758214,-0.273125,0
2024-12-11 14:41:57.841,-0.215354,2.35334,11.0201,-0.152635,-0.0501658,-0.272514,0
2024-12-11 14:41:57.843,-0.267996,2.37727,10.9651,-0.143473,-0.0263428,-0.268238,0
2024-12-11 14:41:57.845,-0.313759,2.39641,10.8858,-0.135532,-0.00435229,-0.266406,0
2024-12-11 14:41:57.848,-0.354437,2.41795,10.8236,-0.128202,0.0127514,-0.259686,0
2024-12-11 14:41:57.850,-0.3999,2.43709,10.7423,-0.123315,0.0298552,-0.256632,0
2024-12-11 14:41:57.852,-0.438186,2.4682,10.6561,-0.121482,0.0451263,-0.250524,0
2024-12-11 14:41:57.855,-0.459721,2.5017,10.5939,-0.118428,0.0591758,-0.243804,0
2024-12-11 14:41:57.857,-0.474078,2.52323,10.5174,-0.117206,0.0701711,-0.238918,0
2024-12-11 14:41:57.860,-0.483649,2.55942,10.4623,-0.114763,0.0829989,-0.234642,0
2024-12-11 14:41:57.862,-0.488435,2.59771,10.4169,-0.113541,0.0927724,-0.227922,0
2024-12-11 14:41:57.864,-0.500399,2.62642,10.3711,-0.113541,0.103768,-0.223646,0
2024-12-11 14:41:57.866,-0.514756,2.6671,10.3352,-0.109876,0.115374,-0.221814,0
2024-12-11 14:41:57.869,-0.52672,2.69821,10.3137,-0.1056,0.124536,-0.216316,0
2024-12-11 14:41:57.871,-0.54347,2.72692,10.3065,-0.100103,0.133699,-0.214484,0
2024-12-11 14:41:57.875,-0.569791,2.77478,10.2897,-0.0909399,0.150192,-0.207764,0
2024-12-11 14:41:57.876,-0.608076,2.80828,10.2491,-0.0909399,0.150192,-0.207764,0
2024-12-11 14:41:57.878,-0.615255,2.82024,10.1845,-0.0811663,0.156301,-0.202878,0
2024-12-11 14:41:57.882,-0.608076,2.84178,10.1175,-0.074447,0.159966,-0.197991,0
2024-12-11 14:41:57.883,-0.610469,2.85374,10.0624,-0.0658951,0.161798,-0.193715,0
2024-12-11 14:41:57.885,-0.608076,2.85135,10.0193,-0.0567324,0.162409,-0.188828,0
2024-12-11 14:41:57.888,-0.617647,2.85613,9.97149,-0.0518457,0.159966,-0.186385,0
2024-12-11 14:41:57.891,-0.629611,2.87528,9.91406,-0.038407,0.151414,-0.179055,0
2024-12-11 14:41:57.892,-0.622433,2.8992,9.85903,-0.038407,0.151414,-0.179055,0
2024-12-11 14:41:57.896,-0.605683,2.93749,9.80848,-0.0255792,0.139197,-0.176611,0
2024-12-11 14:41:57.898,-0.624826,2.97577,9.76541,-0.0255792,0.139197,-0.176611,0
2024-12-11 14:41:57.899,-0.651147,3.00688,9.73191,-0.0255792,0.139197,-0.176611,0
2024-12-11 14:41:57.902,-0.655932,3.04277,9.69602,-0.00908635,0.128202,-0.171114,0
2024-12-11 14:41:57.906,-0.639183,3.08106,9.61705,0.00984991,0.118428,-0.166838,0
2024-12-11 14:41:57.906,-0.639183,3.08106,9.61705,0.00984991,0.118428,-0.166838,0
2024-12-11 14:41:57.909,-0.615255,3.08584,9.5692,0.0232886,0.116595,-0.164394,0
2024-12-11 14:41:57.911,-0.596112,3.11007,9.51177,0.0281753,0.110487,-0.164394,0
2024-12-11 14:41:57.915,-0.579362,3.12682,9.46152,0.0422248,0.109265,-0.162562,0
2024-12-11 14:41:57.916,-0.565005,3.13639,9.41366,0.0526092,0.106211,-0.161951,0
2024-12-11 14:41:57.918,-0.567398,3.16989,9.37299,0.0629936,0.104379,-0.162562,0
2024-12-11 14:41:57.922,-0.572184,3.19143,9.3347,0.0868167,0.0988809,-0.162562,0
2024-12-11 14:41:57.923,-0.572184,3.20339,9.27966,0.0868167,0.0988809,-0.162562,0
2024-12-11 14:41:57.925,-0.579362,3.22732,9.20758,0.0959794,0.094605,-0.162562,0
2024-12-11 14:41:57.928,-0.593719,3.24407,9.11905,0.106364,0.0921616,-0.163173,0
2024-12-11 14:41:57.930,-0.60329,3.25364,9.04487,0.118581,0.090329,-0.162562,0
2024-12-11 14:41:57.933,-0.617647,3.29193,8.98983,0.127133,0.0891073,-0.160729,0
2024-12-11 14:41:57.935,-0.655932,3.33021,8.90369,0.133241,0.086664,-0.158286,0
2024-12-11 14:41:57.937,-0.687039,3.34696,8.81516,0.141182,0.0829989,-0.155232,0
2024-12-11 14:41:57.939,-0.718146,3.38046,8.74816,0.146069,0.0799446,-0.152788,0
2024-12-11 14:41:57.943,-0.74686,3.42592,8.67847,0.154621,0.074447,-0.150345,0
2024-12-11 14:41:57.945,-0.768395,3.48096,8.60429,0.158286,0.0726145,-0.145458,0
2024-12-11 14:41:57.948,-0.809073,3.53599,8.53011,0.160729,0.0695602,-0.144236,0
2024-12-11 14:41:57.949,-0.847657,3.59342,8.4679,0.160729,0.0695602,-0.144236,0
2024-12-11 14:41:57.954,-0.936192,3.71575,8.35304,0.158286,0.0622301,-0.13996,0
2024-12-11 14:41:57.954,-0.936192,3.71575,8.35304,0.158286,0.0622301,-0.13996,0
2024-12-11 14:41:57.956,-0.979263,3.78036,8.3004,0.157064,0.0542891,-0.136906,0
2024-12-11 14:41:57.959,-1.0343,3.84497,8.21905,0.149734,0.0445155,-0.135074,0
2024-12-11 14:41:57.961,-1.09412,3.92632,8.14008,0.141793,0.0335202,-0.131409,0
2024-12-11 14:41:57.963,-1.13719,4.0005,8.09193,0.134463,0.0219141,-0.127743,0
2024-12-11 14:41:57.965,-1.17308,4.07707,8.05125,0.123468,0.00908635,-0.124689,0
2024-12-11 14:41:57.968,-1.19701,4.15603,8.01297,0.110029,-0.00679568,-0.122246,0
2024-12-11 14:41:57.970,-1.18983,4.21137,7.97707,0.0929251,-0.0251211,-0.123468,0
2024-12-11 14:41:57.972,-1.15872,4.26162,7.95314,0.0739889,-0.0477224,-0.122857,0
2024-12-11 14:41:57.976,-1.11565,4.30469,7.9675,0.0739889,-0.0477224,-0.122857,0
2024-12-11 14:41:57.977,-1.05823,4.32862,8.00339,0.0306187,-0.100255,-0.133241,0
2024-12-11 14:41:57.979,-0.998405,4.36451,8.06561,0.00618483,-0.133241,-0.141182,0
2024-12-11 14:41:57.982,-0.945763,4.41476,8.16401,-0.0182491,-0.174168,-0.152177,0
2024-12-11 14:41:57.984,-0.881157,4.45065,8.27647,-0.0439046,-0.213873,-0.164394,0
2024-12-11 14:41:57.987,-0.80668,4.46261,8.40329,-0.0646735,-0.256021,-0.179665,0
2024-12-11 14:41:57.989,-0.74686,4.45783,8.54447,-0.0872748,-0.295116,-0.195547,0
2024-12-11 14:41:57.991,-0.701396,4.44826,8.69283,-0.104989,-0.332377,-0.210819,0
2024-12-11 14:41:57.994,-0.641576,4.4339,8.84626,-0.122704,-0.368417,-0.229144,0
2024-12-11 14:41:57.996,-0.584148,4.39801,8.99462,-0.139808,-0.40629,-0.245026,0
2024-12-11 14:41:57.999,-0.524327,4.3334,9.15733,-0.154468,-0.444773,-0.260908,0
2024-12-11 14:41:58.001,-0.4669,4.25922,9.30599,-0.167296,-0.479591,-0.277401,0
2024-12-11 14:41:58.004,-0.428614,4.19432,9.42563,-0.192341,-0.55045,-0.304889,0
2024-12-11 14:41:58.005,-0.390329,4.12971,9.55005,-0.192341,-0.55045,-0.304889,0
2024-12-11 14:41:58.010,-0.335294,3.97897,9.83988,-0.215553,-0.610313,-0.325658,0
2024-12-11 14:41:58.011,-0.335294,3.97897,9.83988,-0.225937,-0.635357,-0.333599,0
2024-12-11 14:41:58.012,-0.313759,3.90957,9.97628,-0.225937,-0.635357,-0.333599,0
2024-12-11 14:41:58.015,-0.27996,3.8354,10.1342,-0.234489,-0.656737,-0.340929,0
2024-12-11 14:41:58.017,-0.244068,3.75165,10.3089,-0.244873,-0.668954,-0.347648,0
2024-12-11 14:41:58.019,-0.215354,3.68226,10.4791,-0.249149,-0.673841,-0.353146,0
2024-12-11 14:41:58.022,-0.189033,3.61735,10.6466,-0.252204,-0.672008,-0.355589,0
2024-12-11 14:41:58.024,-0.155533,3.53599,10.8212,-0.254036,-0.662846,-0.353757,0
2024-12-11 14:41:58.027,-0.122034,3.44985,11.001,-0.252204,-0.645742,-0.358033,0
2024-12-11 14:41:58.029,-0.0885344,3.37807,11.1541,-0.247928,-0.619475,-0.354368,0
2024-12-11 14:41:58.031,-0.0765703,3.2991,11.2881,-0.238154,-0.584657,-0.351924,0
2024-12-11 14:41:58.035,-0.0717847,3.20818,11.4006,-0.228381,-0.54312,-0.347648,0
2024-12-11 14:41:58.036,-0.0885344,3.12921,11.4844,-0.214942,-0.494252,-0.339707,0
2024-12-11 14:41:58.039,-0.12682,3.06192,11.5493,-0.202725,-0.440497,-0.328712,0
2024-12-11 14:41:58.042,-0.16989,2.99492,11.5899,-0.171572,-0.32016,-0.299392,0
2024-12-11 14:41:58.045,-0.304188,2.9016,11.6091,-0.154468,-0.2548,-0.282288,0
2024-12-11 14:41:58.045,-0.304188,2.9016,11.6091,-0.154468,-0.2548,-0.282288,0
2024-12-11 14:41:58.048,-0.395115,2.85853,11.5804,-0.138586,-0.188828,-0.26213,0
2024-12-11 14:41:58.050,-0.490828,2.8322,11.5035,-0.122704,-0.121635,-0.240139,0
2024-12-11 14:41:58.052,-0.591326,2.8322,11.3862,-0.108654,-0.0544418,-0.212651,0
2024-12-11 14:41:58.055,-0.691825,2.82024,11.2403,-0.0939941,0.0127514,-0.185163,0
2024-12-11 14:41:58.057,-0.777966,2.80349,11.0728,-0.082388,0.0811663,-0.155232,0
2024-12-11 14:41:58.060,-0.873978,2.80828,10.9002,-0.0701711,0.145305,-0.1253,0
2024-12-11 14:41:58.062,-0.967299,2.81067,10.7112,-0.0634518,0.207612,-0.0923143,0
2024-12-11 14:41:58.065,-1.0319,2.82263,10.5126,-0.0548999,0.30718,-0.0257319,0
2024-12-11 14:41:58.068,-1.07019,2.83938,10.3328,-0.0561216,0.345663,0.00419957,0
2024-12-11 14:41:58.069,-1.09651,2.86092,10.1701,-0.0561216,0.345663,0.00419957,0
2024-12-11 14:41:58.072,-1.09651,2.89203,10.0313,-0.0561216,0.376816,0.0335202,0
2024-12-11 14:41:58.074,-1.0678,2.92792,9.92603,-0.0573433,0.404915,0.0610084,0
2024-12-11 14:41:58.076,-1.02473,2.95902,9.83749,-0.058565,0.425684,0.0842206,0
2024-12-11 14:41:58.081,-0.945763,2.99731,9.70319,-0.0597867,0.453783,0.123315,0
2024-12-11 14:41:58.081,-0.945763,2.99731,9.70319,-0.0597867,0.453783,0.123315,0
2024-12-11 14:41:58.083,-0.890728,3.01645,9.62184,-0.0567324,0.461724,0.137975,0
2024-12-11 14:41:58.086,-0.842872,3.04277,9.55723,-0.0530674,0.466611,0.150803,0
2024-12-11 14:41:58.088,-0.799502,3.06192,9.49263,-0.0481806,0.463557,0.164242,0
2024-12-11 14:41:58.090,-0.766002,3.08345,9.43281,-0.0439046,0.455616,0.174015,0
2024-12-11 14:41:58.095,-0.691825,3.10289,9.28684,-0.0365745,0.425684,0.185621,0
2024-12-11 14:41:58.096,-0.691825,3.10289,9.28684,-0.0365745,0.425684,0.185621,0
2024-12-11 14:41:58.098,-0.660718,3.134,9.21476,-0.0261901,0.37926,0.188065,0
2024-12-11 14:41:58.100,-0.615255,3.15314,9.13819,-0.0261901,0.37926,0.188065,0
2024-12-11 14:41:58.102,-0.584148,3.16511,9.06162,-0.0213033,0.352993,0.185621,0
2024-12-11 14:41:58.105,-0.550648,3.18664,8.99462,-0.0139731,0.290076,0.180124,0
2024-12-11 14:41:58.107,-0.521934,3.19861,8.96591,-0.0139731,0.290076,0.180124,0
2024-12-11 14:41:58.109,-0.488435,3.21057,8.93241,-0.00908635,0.255258,0.174015,0
2024-12-11 14:41:58.111,-0.442971,3.21775,8.90609,-0.00542127,0.22105,0.169739,0
2024-12-11 14:41:58.114,-0.402293,3.20818,8.89651,-0.00542127,0.186232,0.161187,0
2024-12-11 14:41:58.116,-0.366401,3.19382,8.89173,-0.00358873,0.152025,0.153246,0
2024-12-11 14:41:58.119,-0.337687,3.17707,8.89173,0.00313059,0.120261,0.144694,0
2024-12-11 14:41:58.121,-0.318545,3.17228,8.89412,0.00740652,0.0860531,0.137975,0
2024-12-11 14:41:58.123,-0.301795,3.1675,8.92044,0.00923906,0.0530674,0.128202,0
2024-12-11 14:41:58.125,-0.285045,3.15553,8.94437,0.0165692,0.0194708,0.120871,0
2024-12-11 14:41:58.128,-0.272782,3.14836,8.96112,0.021456,-0.0104608,0.114763,0
2024-12-11 14:41:58.131,-0.265603,3.13879,8.98026,0.0245102,-0.0355055,0.109265,0
2024-12-11 14:41:58.134,-0.263211,3.12443,8.98505,0.0379489,-0.0807082,0.094605,0
2024-12-11 14:41:58.135,-0.253639,3.12204,8.98505,0.0379489,-0.0807082,0.094605,0
2024-12-11 14:41:58.138,-0.239282,3.11725,8.97308,0.041614,-0.10331,0.0915507,0
2024-12-11 14:41:58.140,-0.232104,3.11486,8.93001,0.0477224,-0.117359,0.0872748,0
2024-12-11 14:41:58.142,-0.234497,3.10529,8.87019,0.0489441,-0.134463,0.0817772,0
2024-12-11 14:41:58.144,-0.248854,3.07627,8.84387,0.0458899,-0.149734,0.0781121,0
2024-12-11 14:41:58.147,-0.272782,3.05952,8.8343,0.0440574,-0.160118,0.0775012,0
2024-12-11 14:41:58.149,-0.292223,3.05713,8.8008,0.0367272,-0.16867,0.0756687,0
2024-12-11 14:41:58.152,-0.313759,3.06192,8.7697,0.0318404,-0.17539,0.0787229,0
2024-12-11 14:41:58.154,-0.325723,3.06909,8.74337,0.0245102,-0.180276,0.0805555,0
2024-12-11 14:41:58.157,-0.330509,3.05474,8.70987,0.00129805,-0.185774,0.0872748,0
2024-12-11 14:41:58.158,-0.325723,3.04995,8.68565,0.00129805,-0.185774,0.0872748,0
2024-12-11 14:41:58.161,-0.292223,3.05713,8.67608,-0.0109189,-0.188828,0.0915507,0
2024-12-11 14:41:58.164,-0.258425,3.05952,8.67368,-0.042683,-0.192493,0.0933833,0
2024-12-11 14:41:58.165,-0.227318,3.05234,8.69761,-0.042683,-0.192493,0.0933833,0
2024-12-11 14:41:58.168,-0.193819,3.04517,8.73859,-0.0591758,-0.194937,0.0976592,0
2024-12-11 14:41:58.170,-0.145962,3.05713,8.77448,-0.0762796,-0.194937,0.0964375,0
2024-12-11 14:41:58.174,-0.0957129,3.0667,8.82234,-0.106211,-0.193715,0.0927724,0
2024-12-11 14:41:58.175,-0.0454636,3.07388,8.90369,-0.106211,-0.193715,0.0927724,0
2024-12-11 14:41:58.177,0.00239282,3.09332,8.98266,-0.120261,-0.192493,0.090329,0
2024-12-11 14:41:58.181,0.0382852,3.11486,9.06641,-0.139197,-0.182109,0.0781121,0
2024-12-11 14:41:58.182,0.066999,3.134,9.14058,-0.139197,-0.182109,0.0781121,0
2024-12-11 14:41:58.184,0.100499,3.15075,9.20519,-0.14836,-0.176611,0.0738362,0
2024-12-11 14:41:58.187,0.129212,3.15793,9.27009,-0.154468,-0.170503,0.0683385,0
2024-12-11 14:41:58.189,0.148355,3.16271,9.32034,-0.159355,-0.163173,0.0622301,0
2024-12-11 14:41:58.191,0.167498,3.17946,9.36341,-0.163631,-0.156453,0.0524565,0
2024-12-11 14:41:58.194,0.184247,3.201,9.41127,-0.168517,-0.150956,0.0457372,0
2024-12-11 14:41:58.196,0.200997,3.201,9.42323,-0.173404,-0.147291,0.0414613,0
2024-12-11 14:41:58.198,0.224925,3.18903,9.43281,-0.178291,-0.144847,0.0329094,0
2024-12-11 14:41:58.201,0.241675,3.19382,9.46391,-0.183178,-0.13935,0.0231358,0
2024-12-11 14:41:58.204,0.232104,3.21775,9.48306,-0.186843,-0.133241,0.0164165,0
2024-12-11 14:41:58.206,0.205783,3.24168,9.49502,-0.190508,-0.124689,0.010308,0
2024-12-11 14:41:58.209,0.193819,3.24646,9.48784,-0.204557,-0.108196,-0.00557398,0
2024-12-11 14:41:58.210,0.191426,3.24168,9.49741,-0.204557,-0.108196,-0.00557398,0
2024-12-11 14:41:58.213,0.184247,3.25843,9.53809,-0.208223,-0.10331,-0.0110716,0
2024-12-11 14:41:58.215,0.174676,3.27039,9.58595,-0.212498,-0.102088,-0.0190126,0
2024-12-11 14:41:58.218,0.150748,3.27757,9.62902,-0.218607,-0.0972011,-0.0312296,0
2024-12-11 14:41:58.220,0.122034,3.29671,9.68166,-0.218607,-0.0972011,-0.0312296,0
2024-12-11 14:41:58.223,0.102891,3.31346,9.73909,-0.222272,-0.0953685,-0.037338,0
2024-12-11 14:41:58.225,0.100499,3.31107,9.78934,-0.22044,-0.0917034,-0.0440574,0
2024-12-11 14:41:58.227,0.0981057,3.28714,9.83031,-0.221661,-0.0868167,-0.0471116,0
2024-12-11 14:41:58.229,0.0837488,3.27996,9.85903,-0.217996,-0.081319,-0.0519984,0
2024-12-11 14:41:58.231,0.081356,3.27757,9.90928,-0.217996,-0.0788757,-0.0556635,0
2024-12-11 14:41:58.234,0.0765703,3.26321,9.9667,-0.214331,-0.0770431,-0.0599394,0
2024-12-11 14:41:58.236,0.0717847,3.24168,9.99063,-0.210666,-0.0752106,-0.0642153,0
2024-12-11 14:41:58.239,0.0717847,3.22493,10.0313,-0.207001,-0.0721563,-0.0672696,0
2024-12-11 14:41:58.242,0.0717847,3.21296,10.0935,-0.196006,-0.0727672,-0.073378,0
2024-12-11 14:41:58.243,0.0717847,3.22014,10.1486,-0.196006,-0.0727672,-0.073378,0
2024-12-11 14:41:58.247,0.0622134,3.24885,10.2036,-0.175848,-0.0617719,-0.0782648,0
2024-12-11 14:41:58.249,0.0334995,3.2656,10.2275,-0.167907,-0.0581068,-0.0807082,0
2024-12-11 14:41:58.250,0.00717847,3.27278,10.2467,-0.167907,-0.0581068,-0.0807082,0
2024-12-11 14:41:58.253,-0.0143569,3.28953,10.2682,-0.15569,-0.0489441,-0.0807082,0
2024-12-11 14:41:58.256,-0.0430708,3.3015,10.273,-0.144084,-0.0428357,-0.081319,0
2024-12-11 14:41:58.257,-0.0622134,3.29671,10.2538,-0.134921,-0.0348946,-0.0794865,0
2024-12-11 14:41:58.260,-0.081356,3.2991,10.2156,-0.123315,-0.0269536,-0.0794865,0
2024-12-11 14:41:58.262,-0.112463,3.30628,10.1773,-0.115985,-0.0190126,-0.0788757,0
2024-12-11 14:41:58.264,-0.117248,3.30628,10.1246,-0.109265,-0.0141258,-0.0758214,0
2024-12-11 14:41:58.267,-0.0981057,3.31585,10.0576,-0.102546,-0.00984991,-0.0758214,0
2024-12-11 14:41:58.270,-0.0861416,3.32064,10.0026,-0.0982701,-0.00496313,-0.0709346,0
2024-12-11 14:41:58.271,-0.0526421,3.32782,9.92842,-0.0958267,-0.00251974,-0.0697129,0
2024-12-11 14:41:58.274,-0.00239282,3.34696,9.87578,-0.0970484,-7.63559e-05,-0.0678804,0
2024-12-11 14:41:58.276,0.0382852,3.35892,9.84228,-0.0988809,-7.63559e-05,-0.0703238,0
2024-12-11 14:41:58.279,0.0861416,3.38764,9.80848,-0.0994917,-0.0019089,-0.0739889,0
2024-12-11 14:41:58.281,0.12682,3.41157,9.79173,-0.104379,-0.00618483,-0.0758214,0
2024-12-11 14:41:58.283,0.181855,3.41157,9.77019,-0.109265,-0.00740652,-0.0807082,0
2024-12-11 14:41:58.287,0.229711,3.41635,9.76302,-0.111709,-0.0104608,-0.0880384,0
2024-12-11 14:41:58.288,0.248854,3.44267,9.76302,-0.115985,-0.0122933,-0.093536,0
2024-12-11 14:41:58.290,0.285045,3.45703,9.75823,-0.121482,-0.0141258,-0.100255,0
2024-12-11 14:41:58.293,0.332901,3.47378,9.77019,-0.123315,-0.0159584,-0.109418,0
2024-12-11 14:41:58.297,0.375972,3.50728,9.79652,-0.127591,-0.0153475,-0.123468,0
2024-12-11 14:41:58.297,0.375972,3.50728,9.79652,-0.127591,-0.0153475,-0.123468,0
2024-12-11 14:41:58.301,0.3999,3.50967,9.81087,-0.135532,-0.00740652,-0.138739,0
2024-12-11 14:41:58.302,0.414257,3.5001,9.80369,-0.135532,-0.00740652,-0.138739,0
2024-12-11 14:41:58.304,0.431007,3.48574,9.77977,-0.13431,-0.0019089,-0.147291,0
2024-12-11 14:41:58.307,0.447757,3.4666,9.77019,-0.135532,0.00481042,-0.153399,0
2024-12-11 14:41:58.309,0.447757,3.44985,9.77019,-0.136143,0.0133623,-0.161951,0
2024-12-11 14:41:58.312,0.435793,3.44507,9.75105,-0.136143,0.0255792,-0.16867,0
2024-12-11 14:41:58.315,0.411865,3.43071,9.70559,-0.138586,0.0481806,-0.179665,0
2024-12-11 14:41:58.317,0.366401,3.41635,9.68405,-0.142862,0.0628409,-0.180887,0
2024-12-11 14:41:58.319,0.304188,3.402,9.65534,-0.142862,0.0628409,-0.180887,0
2024-12-11 14:41:58.321,0.22014,3.40439,9.62184,-0.143473,0.0756687,-0.178444,0
2024-12-11 14:41:58.323,0.150748,3.402,9.57398,-0.144694,0.0921616,-0.180887,0
2024-12-11 14:41:58.326,0.0885344,3.37567,9.51416,-0.147749,0.106211,-0.177833,0
2024-12-11 14:41:58.328,0.0287139,3.3661,9.48306,-0.150803,0.120261,-0.174168,0
2024-12-11 14:41:58.330,0.0,3.34696,9.45913,-0.152635,0.133088,-0.169281,0
2024-12-11 14:41:58.334,-0.0358923,3.33021,9.44238,-0.158744,0.152025,-0.159507,0
2024-12-11 14:41:58.336,-0.0622134,3.32782,9.43041,-0.161798,0.158744,-0.154621,0
2024-12-11 14:41:58.337,-0.0741775,3.30868,9.43998,-0.161798,0.158744,-0.154621,0
2024-12-11 14:41:58.340,-0.0789631,3.29671,9.45195,-0.163631,0.163631,-0.149734,0
2024-12-11 14:41:58.342,-0.0717847,3.28475,9.47109,-0.162409,0.164242,-0.144847,0
2024-12-11 14:41:58.344,-0.081356,3.27996,9.51895,-0.161798,0.162409,-0.141182,0
2024-12-11 14:41:58.347,-0.117248,3.28714,9.55963,-0.160576,0.159355,-0.135074,0
2024-12-11 14:41:58.349,-0.155533,3.27518,9.60748,-0.153857,0.153857,-0.132019,0
2024-12-11 14:41:58.351,-0.191426,3.27996,9.64577,-0.14836,0.149581,-0.123468,0
2024-12-11 14:41:58.354,-0.215354,3.27757,9.69362,-0.139197,0.144084,-0.116137,0
2024-12-11 14:41:58.356,-0.232104,3.25603,9.7343,-0.129423,0.136753,-0.108196,0
2024-12-11 14:41:58.359,-0.234497,3.23928,9.7678,-0.117817,0.125147,-0.0996445,0
2024-12-11 14:41:58.361,-0.222533,3.22732,9.80848,-0.107433,0.114152,-0.093536,0
2024-12-11 14:41:58.364,-0.208176,3.22493,9.83031,-0.0775012,0.0872748,-0.0800973,0
2024-12-11 14:41:58.366,-0.208176,3.2345,9.85185,-0.0775012,0.0872748,-0.0800973,0
2024-12-11 14:41:58.369,-0.227318,3.2345,9.87817,-0.0439046,0.0610084,-0.0642153,0
2024-12-11 14:41:58.370,-0.260818,3.24885,9.88774,-0.0439046,0.0610084,-0.0642153,0
2024-12-11 14:41:58.373,-0.301795,3.2656,9.89731,-0.0255792,0.0457372,-0.0568851,0
2024-12-11 14:41:58.377,-0.34008,3.30868,9.88296,0.0147367,0.0206925,-0.0385597,0
2024-12-11 14:41:58.377,-0.34008,3.30868,9.88296,0.0147367,0.0206925,-0.0385597,0
2024-12-11 14:41:58.381,-0.35683,3.3326,9.84946,0.0544418,-0.00374144,-0.0220669,0
2024-12-11 14:41:58.382,-0.361615,3.36132,9.82553,0.0544418,-0.00374144,-0.0220669,0
2024-12-11 14:41:58.384,-0.35683,3.38525,9.77737,0.0715455,-0.0147367,-0.0122933,0
2024-12-11 14:41:58.388,-0.347258,3.39242,9.70559,0.0904818,-0.0275645,-0.00618483,0
2024-12-11 14:41:58.389,-0.328116,3.42592,9.63859,0.104531,-0.041614,-0.000687203,0
2024-12-11 14:41:58.392,-0.311366,3.47139,9.55723,0.120413,-0.0519984,0.00664296,0
2024-12-11 14:41:58.394,-0.316152,3.51207,9.46391,0.128965,-0.0623828,0.0109189,0
2024-12-11 14:41:58.396,-0.30658,3.55753,9.3682,0.135074,-0.0715455,0.0139731,0
2024-12-11 14:41:58.400,-0.27996,3.60778,9.26292,0.144847,-0.0874275,0.0133623,0
2024-12-11 14:41:58.401,-0.246461,3.66551,9.16451,0.144847,-0.0874275,0.0133623,0
2024-12-11 14:41:58.403,-0.212961,3.7014,9.0688,0.144847,-0.093536,0.0121406,0
2024-12-11 14:41:58.407,-0.200997,3.73968,8.99941,0.142404,-0.0972011,0.00847551,0
2024-12-11 14:41:58.408,-0.181855,3.78036,8.96112,0.142404,-0.0972011,0.00847551,0
2024-12-11 14:41:58.410,-0.155533,3.80668,8.91805,0.138739,-0.093536,0.00236703,0
2024-12-11 14:41:58.414,-0.136391,3.84497,8.85823,0.128354,-0.0904818,-0.00984991,0
2024-12-11 14:41:58.416,-0.124427,3.87129,8.80798,0.117359,-0.0868167,-0.0165692,0
2024-12-11 14:41:58.417,-0.105284,3.88804,8.77209,0.117359,-0.0868167,-0.0165692,0
2024-12-11 14:41:58.420,-0.0957129,3.90718,8.73141,0.108807,-0.0819299,-0.0251211,0
2024-12-11 14:41:58.422,-0.0933201,3.90957,8.68325,0.0965902,-0.0819299,-0.0324513,0
2024-12-11 14:41:58.424,-0.0909273,3.90957,8.64018,0.0837624,-0.0794865,-0.0428357,0
2024-12-11 14:41:58.428,-0.102891,3.90239,8.62104,0.0556635,-0.0752106,-0.0587177,0
2024-12-11 14:41:58.429,-0.114855,3.89522,8.59711,0.0556635,-0.0752106,-0.0587177,0
2024-12-11 14:41:58.432,-0.131605,3.89522,8.58515,0.0391706,-0.0770431,-0.065437,0
2024-12-11 14:41:58.435,-0.141177,3.87368,8.60668,0.00251974,-0.0825407,-0.0819299,0
2024-12-11 14:41:58.436,-0.148355,3.84018,8.64975,0.00251974,-0.0825407,-0.0819299,0
2024-12-11 14:41:58.439,-0.162712,3.82343,8.71705,-0.0121406,-0.0862058,-0.0898709,0
2024-12-11 14:41:58.441,-0.162712,3.79472,8.81037,-0.0261901,-0.0880384,-0.0965902,0
2024-12-11 14:41:58.443,-0.145962,3.76122,8.92523,-0.038407,-0.0917034,-0.10331,0
2024-12-11 14:41:58.447,-0.138784,3.74208,9.05205,-0.0475697,-0.0941468,-0.113694,0
2024-12-11 14:41:58.448,-0.143569,3.72054,9.17408,-0.0512348,-0.0953685,-0.120413,0
2024-12-11 14:41:58.450,-0.143569,3.68226,9.29642,-0.0548999,-0.093536,-0.128354,0
2024-12-11 14:41:58.453,-0.148355,3.64128,9.41845,-0.058565,-0.0892601,-0.135684,0
2024-12-11 14:41:58.456,-0.157926,3.60299,9.52134,-0.0548999,-0.077654,-0.149734,0
2024-12-11 14:41:58.458,-0.181855,3.56231,9.59313,-0.0548999,-0.077654,-0.149734,0
2024-12-11 14:41:58.460,-0.208176,3.52642,9.65773,-0.0500131,-0.0721563,-0.154621,0
2024-12-11 14:41:58.463,-0.234497,3.49053,9.70319,-0.042683,-0.0593285,-0.160729,0
2024-12-11 14:41:58.465,-0.270389,3.44746,9.72234,-0.042683,-0.0593285,-0.160729,0
2024-12-11 14:41:58.467,-0.335294,3.41396,9.72952,-0.038407,-0.0513875,-0.165616,0
2024-12-11 14:41:58.470,-0.3999,3.40439,9.72952,-0.0347419,-0.0428357,-0.162562,0
2024-12-11 14:41:58.472,-0.447757,3.3996,9.73191,-0.0292443,-0.0342838,-0.159507,0
2024-12-11 14:41:58.474,-0.505185,3.38525,9.73191,-0.0261901,-0.0245102,-0.156453,0
2024-12-11 14:41:58.476,-0.531506,3.37807,9.72234,-0.0219141,-0.013515,-0.150956,0
2024-12-11 14:41:58.480,-0.519542,3.35414,9.7008,-0.0182491,0.00481042,-0.13996,0
2024-12-11 14:41:58.481,-0.507577,3.33739,9.67448,-0.0182491,0.00481042,-0.13996,0
2024-12-11 14:41:58.484,-0.495613,3.34218,9.65055,-0.0176382,0.0151948,-0.135684,0
2024-12-11 14:41:58.486,-0.474078,3.33978,9.62902,-0.0188599,0.0255792,-0.133852,0
2024-12-11 14:41:58.488,-0.471685,3.35414,9.59552,-0.0200816,0.0371853,-0.129576,0
2024-12-11 14:41:58.491,-0.488435,3.35892,9.55245,-0.0194708,0.0500131,-0.127133,0
2024-12-11 14:41:58.493,-0.514756,3.37328,9.49741,-0.022525,0.0610084,-0.124689,0
2024-12-11 14:41:58.495,-0.536291,3.41157,9.43759,-0.0243575,0.0732253,-0.121635,0
2024-12-11 14:41:58.497,-0.555434,3.42832,9.38256,-0.0292443,0.0817772,-0.117359,0
2024-12-11 14:41:58.500,-0.567398,3.43789,9.33231,-0.0341311,0.0897182,-0.112472,0
2024-12-11 14:41:58.503,-0.56022,3.44985,9.27488,-0.0451263,0.0921616,-0.110029,0
2024-12-11 14:41:58.505,-0.555434,3.45464,9.21715,-0.0542891,0.0964375,-0.108196,0
2024-12-11 14:41:58.510,-0.545863,3.4355,9.14776,-0.0921616,0.0964375,-0.101477,0
2024-12-11 14:41:58.510,-0.545863,3.4355,9.14776,-0.0921616,0.0964375,-0.101477,0
2024-12-11 14:41:58.512,-0.521934,3.44507,9.14058,-0.0921616,0.0964375,-0.101477,0
2024-12-11 14:41:58.514,-0.50997,3.44028,9.13819,-0.104379,0.0921616,-0.10392,0
2024-12-11 14:41:58.517,-0.517149,3.42114,9.16212,-0.131867,0.082388,-0.10331,0
2024-12-11 14:41:58.519,-0.512363,3.42353,9.19801,-0.131867,0.082388,-0.10331,0
