timestamp,accel_x,accel_y,accel_z,gyro_x,gyro_y,gyro_z,step_timestamp
2024-12-11 14:44:03.287,-0.081356,2.74846,9.50938,-0.0316877,-0.000687203,-0.0428357,0
2024-12-11 14:44:03.288,-0.0741775,2.73649,9.51416,-0.0316877,-0.000687203,-0.0428357,0
2024-12-11 14:44:03.288,-0.0741775,2.73649,9.51416,-0.0316877,-0.000687203,-0.0428357,0
2024-12-11 14:44:03.288,-0.0741775,2.73649,9.51416,-0.0316877,-0.000687203,-0.0428357,0
2024-12-11 14:44:03.288,-0.0741775,2.73649,9.51416,-0.0316877,-0.000687203,-0.0428357,0
2024-12-11 14:44:03.289,-0.0741775,2.73649,9.51416,-0.030466,-0.00313059,-0.0458899,0
2024-12-11 14:44:03.289,-0.0741775,2.73649,9.51416,-0.030466,-0.00313059,-0.0458899,0
2024-12-11 14:44:03.290,-0.066999,2.74367,9.52613,-0.030466,-0.00313059,-0.0458899,0
2024-12-11 14:44:03.290,-0.066999,2.74367,9.52613,-0.030466,-0.00313059,-0.0458899,0
2024-12-11 14:44:03.290,-0.066999,2.74367,9.52613,-0.030466,-0.00313059,-0.0458899,0
2024-12-11 14:44:03.290,-0.066999,2.74367,9.52613,-0.030466,-0.00313059,-0.0458899,0
2024-12-11 14:44:03.290,-0.066999,2.74367,9.52613,-0.030466,-0.00313059,-0.0458899,0
2024-12-11 14:44:03.290,-0.066999,2.74367,9.52613,-0.030466,-0.00313059,-0.0458899,0
2024-12-11 14:44:03.291,-0.066999,2.74367,9.52613,-0.030466,-0.00313059,-0.0458899,0
2024-12-11 14:44:03.293,-0.0741775,2.76042,9.54288,-0.0286335,-0.00618483,-0.0471116,0
2024-12-11 14:44:03.293,-0.0741775,2.76042,9.54288,-0.0286335,-0.00618483,-0.0471116,0
2024-12-11 14:44:03.293,-0.0741775,2.76042,9.54288,-0.0286335,-0.00618483,-0.0471116,0
2024-12-11 14:44:03.293,-0.0741775,2.76042,9.54288,-0.0286335,-0.00618483,-0.0471116,0
2024-12-11 14:44:03.293,-0.0741775,2.76042,9.54288,-0.0286335,-0.00618483,-0.0471116,0
2024-12-11 14:44:03.293,-0.0741775,2.76042,9.54288,-0.0286335,-0.00618483,-0.0471116,0
2024-12-11 14:44:03.294,-0.0741775,2.76042,9.54288,-0.0280226,-0.00862822,-0.049555,0
2024-12-11 14:44:03.295,-0.0765703,2.75563,9.55245,-0.0280226,-0.00862822,-0.049555,0
2024-12-11 14:44:03.295,-0.0765703,2.75563,9.55245,-0.0280226,-0.00862822,-0.049555,0
2024-12-11 14:44:03.295,-0.0765703,2.75563,9.55245,-0.0280226,-0.00862822,-0.049555,0
2024-12-11 14:44:03.296,-0.0765703,2.75563,9.55245,-0.0298552,-0.00984991,-0.0513875,0
2024-12-11 14:44:03.296,-0.0765703,2.75563,9.55245,-0.0298552,-0.00984991,-0.0513875,0
2024-12-11 14:44:03.298,-0.081356,2.75324,9.56441,-0.0298552,-0.00984991,-0.0513875,0
2024-12-11 14:44:03.298,-0.081356,2.75324,9.56441,-0.0298552,-0.00984991,-0.0513875,0
2024-12-11 14:44:03.298,-0.081356,2.75324,9.56441,-0.0298552,-0.00984991,-0.0513875,0
2024-12-11 14:44:03.298,-0.081356,2.75324,9.56441,-0.0298552,-0.00984991,-0.0513875,0
2024-12-11 14:44:03.298,-0.081356,2.75324,9.56441,-0.0298552,-0.00984991,-0.0513875,0
2024-12-11 14:44:03.298,-0.081356,2.75324,9.56441,-0.0298552,-0.00984991,-0.0513875,0
2024-12-11 14:44:03.299,-0.081356,2.75324,9.56441,-0.0255792,-0.013515,-0.0544418,0
2024-12-11 14:44:03.300,-0.0861416,2.74128,9.57159,-0.0255792,-0.013515,-0.0544418,0
2024-12-11 14:44:03.300,-0.0861416,2.74128,9.57159,-0.0255792,-0.013515,-0.0544418,0
2024-12-11 14:44:03.301,-0.0861416,2.74128,9.57159,-0.0243575,-0.0165692,-0.0568851,0
2024-12-11 14:44:03.302,-0.0861416,2.72931,9.58116,-0.0243575,-0.0165692,-0.0568851,0
2024-12-11 14:44:03.302,-0.0861416,2.72931,9.58116,-0.0243575,-0.0165692,-0.0568851,0
2024-12-11 14:44:03.302,-0.0861416,2.72931,9.58116,-0.0243575,-0.0165692,-0.0568851,0
2024-12-11 14:44:03.302,-0.0861416,2.72931,9.58116,-0.0243575,-0.0165692,-0.0568851,0
2024-12-11 14:44:03.302,-0.0861416,2.72931,9.58116,-0.0243575,-0.0165692,-0.0568851,0
2024-12-11 14:44:03.302,-0.0861416,2.72931,9.58116,-0.0243575,-0.0165692,-0.0568851,0
2024-12-11 14:44:03.303,-0.0861416,2.72931,9.58116,-0.0237467,-0.0171801,-0.057496,0
2024-12-11 14:44:03.303,-0.0861416,2.72931,9.58116,-0.0237467,-0.0171801,-0.057496,0
2024-12-11 14:44:03.305,-0.0981057,2.72931,9.59552,-0.0237467,-0.0171801,-0.057496,0
2024-12-11 14:44:03.305,-0.0981057,2.72931,9.59552,-0.0237467,-0.0171801,-0.057496,0
2024-12-11 14:44:03.305,-0.0981057,2.72931,9.59552,-0.0237467,-0.0171801,-0.057496,0
2024-12-11 14:44:03.307,-0.0981057,2.73171,9.6003,-0.0188599,-0.021456,-0.0593285,0
2024-12-11 14:44:03.307,-0.119641,2.73171,9.6003,-0.0188599,-0.021456,-0.0593285,0
2024-12-11 14:44:03.307,-0.119641,2.73171,9.6003,-0.0188599,-0.021456,-0.0593285,0
2024-12-11 14:44:03.308,-0.119641,2.73171,9.6003,-0.0176382,-0.0251211,-0.0605502,0
2024-12-11 14:44:03.308,-0.119641,2.73171,9.6003,-0.0176382,-0.0251211,-0.0605502,0
2024-12-11 14:44:03.308,-0.119641,2.73171,9.6003,-0.0176382,-0.0251211,-0.0605502,0
2024-12-11 14:44:03.308,-0.119641,2.73171,9.6003,-0.0176382,-0.0251211,-0.0605502,0
2024-12-11 14:44:03.308,-0.119641,2.73171,9.6003,-0.0176382,-0.0251211,-0.0605502,0
2024-12-11 14:44:03.309,-0.145962,2.72692,9.60509,-0.0176382,-0.0251211,-0.0605502,0
2024-12-11 14:44:03.309,-0.145962,2.72692,9.60509,-0.0176382,-0.0251211,-0.0605502,0
2024-12-11 14:44:03.309,-0.145962,2.72692,9.60509,-0.0176382,-0.0251211,-0.0605502,0
2024-12-11 14:44:03.310,-0.145962,2.72692,9.60509,-0.0158057,-0.0263428,-0.0593285,0
2024-12-11 14:44:03.312,-0.155533,2.72692,9.59073,-0.0158057,-0.0263428,-0.0593285,0
2024-12-11 14:44:03.312,-0.155533,2.72692,9.59073,-0.0158057,-0.0263428,-0.0593285,0
2024-12-11 14:44:03.312,-0.155533,2.72692,9.59073,-0.0158057,-0.0263428,-0.0593285,0
2024-12-11 14:44:03.314,-0.162712,2.71496,9.5692,-0.0158057,-0.0263428,-0.0562743,0
2024-12-11 14:44:03.314,-0.162712,2.71496,9.5692,-0.0158057,-0.0263428,-0.0562743,0
2024-12-11 14:44:03.314,-0.162712,2.71496,9.5692,-0.0158057,-0.0263428,-0.0562743,0
2024-12-11 14:44:03.315,-0.162712,2.71496,9.5692,-0.0139731,-0.029397,-0.0544418,0
2024-12-11 14:44:03.316,-0.181855,2.70299,9.55005,-0.0139731,-0.029397,-0.0544418,0
2024-12-11 14:44:03.316,-0.181855,2.70299,9.55005,-0.0139731,-0.029397,-0.0544418,0
2024-12-11 14:44:03.317,-0.181855,2.70299,9.55005,-0.0139731,-0.029397,-0.0544418,0
2024-12-11 14:44:03.317,-0.181855,2.70299,9.55005,-0.0139731,-0.029397,-0.0544418,0
2024-12-11 14:44:03.319,-0.196211,2.70778,9.54527,-0.0115297,-0.0324513,-0.0538309,0
2024-12-11 14:44:03.321,-0.196211,2.70539,9.5357,-0.0115297,-0.0342838,-0.0501658,0
2024-12-11 14:44:03.324,-0.191426,2.72213,9.50938,-0.0096972,-0.0367272,-0.049555,0
2024-12-11 14:44:03.326,-0.177069,2.73649,9.49023,-0.0121406,-0.0385597,-0.0483333,0
2024-12-11 14:44:03.329,-0.184247,2.73888,9.46152,-0.0176382,-0.0324513,-0.0440574,0
2024-12-11 14:44:03.331,-0.191426,2.74846,9.41845,-0.0176382,-0.0324513,-0.0440574,0
2024-12-11 14:44:03.334,-0.179462,2.76521,9.39452,-0.0231358,-0.0184018,-0.0410031,0
2024-12-11 14:44:03.335,-0.162712,2.77956,9.38974,-0.0231358,-0.0184018,-0.0410031,0
2024-12-11 14:44:03.338,-0.143569,2.77956,9.38256,-0.0231358,-0.0184018,-0.0410031,0
2024-12-11 14:44:03.341,-0.148355,2.78913,9.38256,-0.0359636,-0.0196235,-0.0410031,0
2024-12-11 14:44:03.345,-0.12682,2.81306,9.37059,-0.046348,-0.0232886,-0.0422248,0
2024-12-11 14:44:03.346,-0.12682,2.81306,9.37059,-0.046348,-0.0232886,-0.0422248,0
2024-12-11 14:44:03.347,-0.11007,2.8322,9.37299,-0.0487914,-0.0275645,-0.0428357,0
2024-12-11 14:44:03.349,-0.081356,2.86092,9.38016,-0.0567324,-0.0306187,-0.0434465,0
2024-12-11 14:44:03.361,-0.0287139,2.95902,9.52134,-0.082388,-0.0312296,-0.0623828,0
2024-12-11 14:44:03.361,-0.0287139,2.95902,9.52134,-0.082388,-0.0312296,-0.0623828,0
2024-12-11 14:44:03.361,-0.0287139,2.95902,9.52134,-0.082388,-0.0312296,-0.0623828,0
2024-12-11 14:44:03.361,-0.0287139,2.95902,9.52134,-0.082388,-0.0312296,-0.0623828,0
2024-12-11 14:44:03.362,-0.0287139,2.95902,9.52134,-0.082388,-0.0312296,-0.0623828,0
2024-12-11 14:44:03.366,-0.0478565,2.9686,9.58834,-0.0909399,-0.0238994,-0.0709346,0
2024-12-11 14:44:03.367,-0.0478565,2.9686,9.58834,-0.0927724,-0.0208452,-0.0758214,0
2024-12-11 14:44:03.368,-0.0598206,2.97099,9.60509,-0.0927724,-0.0208452,-0.0758214,0
2024-12-11 14:44:03.372,-0.0789631,2.9686,9.64577,-0.0988809,-0.0159584,-0.0807082,0
2024-12-11 14:44:03.373,-0.100499,2.97577,9.69123,-0.0988809,-0.0159584,-0.0807082,0
2024-12-11 14:44:03.375,-0.117248,2.99013,9.72234,-0.100713,-0.0129041,-0.0825407,0
2024-12-11 14:44:03.379,-0.165105,3.01645,9.72234,-0.104379,0.0133623,-0.0837624,0
2024-12-11 14:44:03.380,-0.224925,3.04756,9.6697,-0.104379,0.0133623,-0.0837624,0
2024-12-11 14:44:03.382,-0.244068,3.03081,9.6003,-0.109265,0.0310769,-0.0831516,0
2024-12-11 14:44:03.385,-0.212961,2.97577,9.58595,-0.113541,0.0420721,-0.0800973,0
2024-12-11 14:44:03.387,-0.184247,2.92552,9.65773,-0.120871,0.0469589,-0.0794865,0
2024-12-11 14:44:03.389,-0.210568,2.87528,9.77019,-0.123926,0.0518457,-0.081319,0
2024-12-11 14:44:03.392,-0.275175,2.85613,9.86621,-0.124536,0.0530674,-0.0807082,0
2024-12-11 14:44:03.396,-0.349651,2.91356,9.93799,-0.114152,0.0597867,-0.0727672,0
2024-12-11 14:44:03.396,-0.349651,2.91356,9.93799,-0.114152,0.0597867,-0.0727672,0
2024-12-11 14:44:03.400,-0.383151,2.9351,9.94038,-0.101324,0.0720036,-0.0611611,0
2024-12-11 14:44:03.402,-0.419043,2.97099,9.93081,-0.101324,0.0720036,-0.0611611,0
2024-12-11 14:44:03.403,-0.428614,2.9662,9.90688,-0.0939941,0.0781121,-0.0538309,0
2024-12-11 14:44:03.406,-0.397508,2.9327,9.88535,-0.0897182,0.0829989,-0.0477224,0
2024-12-11 14:44:03.408,-0.364008,2.91356,9.89492,-0.0842206,0.0817772,-0.0452791,0
2024-12-11 14:44:03.411,-0.342473,2.90399,9.90449,-0.0768904,0.0775012,-0.0434465,0
2024-12-11 14:44:03.413,-0.330509,2.90878,9.89731,-0.0707819,0.0707819,-0.0422248,0
2024-12-11 14:44:03.415,-0.328116,2.91356,9.88296,-0.0634518,0.066506,-0.0391706,0
2024-12-11 14:44:03.418,-0.316152,2.9351,9.85903,-0.0555107,0.0628409,-0.0397814,0
2024-12-11 14:44:03.421,-0.308973,2.95424,9.83271,-0.0377962,0.0555107,-0.0379489,0
2024-12-11 14:44:03.422,-0.30658,2.9686,9.82792,-0.0377962,0.0555107,-0.0379489,0
2024-12-11 14:44:03.426,-0.308973,3.00927,9.81566,-0.0176382,0.0396287,-0.037338,0
2024-12-11 14:44:03.427,-0.308973,3.02363,9.79891,-0.0176382,0.0396287,-0.037338,0
2024-12-11 14:44:03.429,-0.301795,3.01884,9.77019,-0.010308,0.0280226,-0.0355055,0
2024-12-11 14:44:03.432,-0.304188,3.01884,9.7343,-0.00358873,0.0170274,-0.0385597,0
2024-12-11 14:44:03.434,-0.304188,3.03081,9.69841,0.00374144,0.00419957,-0.0410031,0
2024-12-11 14:44:03.436,-0.294616,3.03799,9.64577,0.0122933,-0.00862822,-0.0410031,0
2024-12-11 14:44:03.439,-0.299402,3.05474,9.58355,0.0165692,-0.0238994,-0.0434465,0
2024-12-11 14:44:03.442,-0.318545,3.08345,9.53809,0.0263428,-0.0477224,-0.0434465,0
2024-12-11 14:44:03.444,-0.318545,3.10289,9.51177,0.0263428,-0.0477224,-0.0434465,0
2024-12-11 14:44:03.447,-0.30658,3.11007,9.46152,0.0281753,-0.0697129,-0.0465007,0
2024-12-11 14:44:03.449,-0.27996,3.12682,9.44956,0.0281753,-0.0697129,-0.0465007,0
2024-12-11 14:44:03.453,-0.196211,3.13879,9.45434,0.0367272,-0.0794865,-0.0513875,0
2024-12-11 14:44:03.454,-0.196211,3.13879,9.45434,0.0367272,-0.0794865,-0.0513875,0
2024-12-11 14:44:03.455,-0.160319,3.14118,9.42084,0.0367272,-0.0843733,-0.0556635,0
2024-12-11 14:44:03.459,-0.129212,3.134,9.38495,0.0348946,-0.0904818,-0.0629936,0
2024-12-11 14:44:03.460,-0.100499,3.13639,9.33949,0.0348946,-0.0904818,-0.0629936,0
2024-12-11 14:44:03.462,-0.0693919,3.134,9.27249,0.0281753,-0.0947577,-0.0678804,0
2024-12-11 14:44:03.468,-0.040678,3.13639,9.21237,0.0184018,-0.0990336,-0.081319,0
2024-12-11 14:44:03.468,-0.0119641,3.13879,9.18605,0.0184018,-0.0990336,-0.081319,0
2024-12-11 14:44:03.469,0.0143569,3.14118,9.1669,0.00801737,-0.100866,-0.0862058,0
2024-12-11 14:44:03.472,0.0215354,3.134,9.14776,-0.00297788,-0.101477,-0.0929251,0
2024-12-11 14:44:03.475,0.0287139,3.12443,9.14537,-0.0261901,-0.100255,-0.105753,0
2024-12-11 14:44:03.476,0.0502493,3.1005,9.15494,-0.0261901,-0.100255,-0.105753,0
2024-12-11 14:44:03.480,0.0478565,3.07149,9.16451,-0.0481806,-0.0910926,-0.116137,0
2024-12-11 14:44:03.482,0.0502493,3.05713,9.18126,-0.0481806,-0.0910926,-0.116137,0
2024-12-11 14:44:03.484,0.0646062,3.03081,9.22194,-0.058565,-0.0868167,-0.122857,0
2024-12-11 14:44:03.487,0.0574277,2.9997,9.28445,-0.0805555,-0.0745997,-0.130798,0
2024-12-11 14:44:03.489,0.0382852,2.96142,9.33709,-0.0872748,-0.0666587,-0.134463,0
2024-12-11 14:44:03.492,0.0239282,2.91835,9.40648,-0.0909399,-0.0593285,-0.136906,0
2024-12-11 14:44:03.494,0.00957129,2.8657,9.48306,-0.0909399,-0.0593285,-0.136906,0
2024-12-11 14:44:03.495,-0.00478565,2.83938,9.55963,-0.0964375,-0.0513875,-0.138128,0
2024-12-11 14:44:03.498,-0.0239282,2.80588,9.66012,-0.0958267,-0.0403923,-0.138739,0
2024-12-11 14:44:03.501,-0.0454636,2.75324,9.7343,-0.090329,-0.0220669,-0.136295,0
2024-12-11 14:44:03.502,-0.0789631,2.72931,9.77019,-0.090329,-0.0220669,-0.136295,0
2024-12-11 14:44:03.505,-0.12682,2.69581,9.79652,-0.0842206,-0.0129041,-0.135074,0
2024-12-11 14:44:03.507,-0.167498,2.65753,9.80369,-0.0793338,-0.00740652,-0.131409,0
2024-12-11 14:44:03.509,-0.196211,2.6336,9.80609,-0.074447,-0.00374144,-0.1253,0
2024-12-11 14:44:03.519,-0.253639,2.56421,9.70798,-0.0396287,0.00725381,-0.102699,0
2024-12-11 14:44:03.519,-0.253639,2.56421,9.70798,-0.0396287,0.00725381,-0.102699,0
2024-12-11 14:44:03.519,-0.253639,2.56421,9.70798,-0.0396287,0.00725381,-0.102699,0
2024-12-11 14:44:03.521,-0.251246,2.55703,9.65534,-0.0396287,0.00725381,-0.102699,0
2024-12-11 14:44:03.522,-0.251246,2.55703,9.65534,-0.0261901,0.00542127,-0.0910926,0
2024-12-11 14:44:03.524,-0.246461,2.56421,9.59073,-0.0261901,0.00542127,-0.0910926,0
2024-12-11 14:44:03.527,-0.229711,2.5666,9.51655,-0.0115297,-0.00313059,-0.0843733,0
2024-12-11 14:44:03.528,-0.205783,2.55942,9.43998,-0.0115297,-0.00313059,-0.0843733,0
2024-12-11 14:44:03.533,-0.150748,2.58335,9.29402,-0.00358873,-0.0159584,-0.0819299,0
2024-12-11 14:44:03.534,-0.150748,2.58335,9.29402,-0.000534491,-0.0251211,-0.0825407,0
2024-12-11 14:44:03.536,-0.0957129,2.59053,9.20758,-0.000534491,-0.0251211,-0.0825407,0
2024-12-11 14:44:03.538,-0.0526421,2.6001,9.13819,-0.00114534,-0.0348946,-0.0825407,0
2024-12-11 14:44:03.540,-0.0215354,2.60489,9.0688,0.00129805,-0.041614,-0.0849841,0
2024-12-11 14:44:03.542,0.00478565,2.62642,8.99941,0.00251974,-0.0532201,-0.0892601,0
2024-12-11 14:44:03.545,0.0334995,2.63839,8.95634,-0.000534491,-0.0623828,-0.0941468,0
2024-12-11 14:44:03.547,0.0526421,2.62642,8.91805,-0.00419957,-0.0703238,-0.0996445,0
2024-12-11 14:44:03.550,0.0622134,2.61685,8.88694,-0.00542127,-0.0782648,-0.105142,0
2024-12-11 14:44:03.553,0.0885344,2.61924,8.85105,-0.00847551,-0.0892601,-0.117359,0
2024-12-11 14:44:03.555,0.136391,2.59532,8.80559,-0.0127514,-0.0910926,-0.121635,0
2024-12-11 14:44:03.557,0.153141,2.56899,8.7697,-0.0127514,-0.0910926,-0.121635,0
2024-12-11 14:44:03.559,0.141177,2.55703,8.72902,-0.0151948,-0.0947577,-0.125911,0
2024-12-11 14:44:03.562,0.145962,2.54985,8.66411,-0.0249684,-0.101477,-0.136295,0
2024-12-11 14:44:03.565,0.157926,2.53789,8.61147,-0.0249684,-0.101477,-0.136295,0
2024-12-11 14:44:03.566,0.162712,2.50887,8.58276,-0.0335202,-0.105142,-0.138739,0
2024-12-11 14:44:03.568,0.172283,2.48016,8.54686,-0.038407,-0.10392,-0.140571,0
2024-12-11 14:44:03.571,0.193819,2.45623,8.52293,-0.046348,-0.105142,-0.144236,0
2024-12-11 14:44:03.573,0.20339,2.43948,8.52054,-0.0555107,-0.105142,-0.144236,0
2024-12-11 14:44:03.575,0.212961,2.42991,8.51576,-0.0628409,-0.102088,-0.147291,0
2024-12-11 14:44:03.578,0.224925,2.42034,8.51815,-0.0658951,-0.0990336,-0.14668,0
2024-12-11 14:44:03.580,0.234497,2.40838,8.53011,-0.0707819,-0.0953685,-0.146069,0
2024-12-11 14:44:03.582,0.232104,2.40598,8.51815,-0.0756687,-0.0904818,-0.147901,0
2024-12-11 14:44:03.585,0.229711,2.3988,8.50379,-0.0805555,-0.0843733,-0.147291,0
2024-12-11 14:44:03.588,0.236889,2.39163,8.50379,-0.090329,-0.0660479,-0.144236,0
2024-12-11 14:44:03.589,0.246461,2.39402,8.49422,-0.090329,-0.0660479,-0.144236,0
2024-12-11 14:44:03.592,0.227318,2.39641,8.46311,-0.0939941,-0.0562743,-0.143015,0
2024-12-11 14:44:03.595,0.198604,2.39163,8.44636,-0.101324,-0.037338,-0.136906,0
2024-12-11 14:44:03.598,0.177069,2.39641,8.43679,-0.1056,-0.0269536,-0.132019,0
2024-12-11 14:44:03.599,0.150748,2.42034,8.39133,-0.1056,-0.0269536,-0.132019,0
2024-12-11 14:44:03.601,0.148355,2.43709,8.32672,-0.1056,-0.0269536,-0.132019,0
2024-12-11 14:44:03.604,0.162712,2.45623,8.26451,-0.117817,-0.0110716,-0.122246,0
2024-12-11 14:44:03.606,0.16989,2.49212,8.20708,-0.117817,-0.0110716,-0.122246,0
2024-12-11 14:44:03.608,0.189033,2.53789,8.14965,-0.136143,-0.00374144,-0.114305,0
2024-12-11 14:44:03.613,0.217747,2.64796,8.05843,-0.158744,-0.0104608,-0.106975,0
2024-12-11 14:44:03.613,0.217747,2.64796,8.05843,-0.158744,-0.0104608,-0.106975,0
2024-12-11 14:44:03.615,0.260818,2.68864,8.01297,-0.17035,-0.0165692,-0.105142,0
2024-12-11 14:44:03.618,0.328116,2.71974,7.99621,-0.18501,-0.0287862,-0.104531,0
2024-12-11 14:44:03.622,0.428614,2.8322,7.9675,-0.218607,-0.0599394,-0.108807,0
2024-12-11 14:44:03.623,0.428614,2.8322,7.9675,-0.218607,-0.0599394,-0.108807,0
2024-12-11 14:44:03.625,0.507577,2.88245,7.98904,-0.234489,-0.0837624,-0.114305,0
2024-12-11 14:44:03.628,0.610469,2.92074,8.03929,-0.252814,-0.105142,-0.121635,0
2024-12-11 14:44:03.630,0.722932,2.9351,8.10868,-0.270529,-0.130187,-0.128965,0
2024-12-11 14:44:03.632,0.842872,2.95424,8.20948,-0.2858,-0.154621,-0.137517,0
2024-12-11 14:44:03.637,1.0678,3.01167,8.4679,-0.310234,-0.19738,-0.166227,0
2024-12-11 14:44:03.638,1.0678,3.01167,8.4679,-0.310234,-0.19738,-0.166227,0
2024-12-11 14:44:03.640,1.18026,3.04038,8.61865,-0.318786,-0.217538,-0.180887,0
2024-12-11 14:44:03.642,1.28076,3.05952,8.77209,-0.322451,-0.234642,-0.197991,0
2024-12-11 14:44:03.644,1.3669,3.0667,8.9013,-0.323673,-0.247469,-0.216316,0
2024-12-11 14:44:03.646,1.42223,3.08854,9.01376,-0.324894,-0.256021,-0.234031,0
2024-12-11 14:44:03.649,1.46291,3.12921,9.10708,-0.324894,-0.262741,-0.253578,0
2024-12-11 14:44:03.651,1.48205,3.14836,9.17647,-0.323673,-0.265795,-0.271293,0
2024-12-11 14:44:03.654,1.4677,3.14836,9.22194,-0.322451,-0.262741,-0.287175,0
2024-12-11 14:44:03.656,1.42941,3.16989,9.24826,-0.320618,-0.259686,-0.301224,0
2024-12-11 14:44:03.658,1.36929,3.20339,9.2363,-0.321229,-0.2548,-0.317106,0
2024-12-11 14:44:03.660,1.31665,3.22493,9.19801,-0.321229,-0.245637,-0.324436,0
2024-12-11 14:44:03.663,1.26162,3.24407,9.13819,-0.325505,-0.236474,-0.33421,0
2024-12-11 14:44:03.665,1.19222,3.27039,9.06162,-0.334057,-0.221203,-0.340318,0
2024-12-11 14:44:03.668,1.09651,3.30389,8.99223,-0.343831,-0.206543,-0.345816,0
2024-12-11 14:44:03.671,0.986441,3.34935,8.92523,-0.367654,-0.170503,-0.34887,0
2024-12-11 14:44:03.672,0.876371,3.40678,8.86062,-0.367654,-0.170503,-0.34887,0
2024-12-11 14:44:03.674,0.756431,3.45942,8.80798,-0.385979,-0.15401,-0.345205,0
2024-12-11 14:44:03.678,0.660718,3.51924,8.76491,-0.42263,-0.116748,-0.336042,0
2024-12-11 14:44:03.679,0.584148,3.59581,8.73141,-0.42263,-0.116748,-0.336042,0
2024-12-11 14:44:03.682,0.486042,3.66551,8.71945,-0.462335,-0.0794865,-0.319549,0
2024-12-11 14:44:03.685,0.385544,3.72533,8.70987,-0.462335,-0.0794865,-0.319549,0
2024-12-11 14:44:03.686,0.297009,3.80907,8.69283,-0.484936,-0.0636045,-0.309165,0
2024-12-11 14:44:03.688,0.22014,3.90479,8.71466,-0.506316,-0.0483333,-0.299392,0
2024-12-11 14:44:03.691,0.172283,3.98136,8.74337,-0.529528,-0.0348946,-0.288396,0
2024-12-11 14:44:03.693,0.157926,4.04596,8.8008,-0.551519,-0.0300079,-0.27679,0
2024-12-11 14:44:03.696,0.150748,4.12014,8.89891,-0.571066,-0.021456,-0.267017,0
2024-12-11 14:44:03.698,0.157926,4.19671,9.0018,-0.589391,-0.0190126,-0.259076,0
2024-12-11 14:44:03.700,0.162712,4.27358,9.11665,-0.604662,-0.0190126,-0.249913,0
2024-12-11 14:44:03.703,0.124427,4.35733,9.24587,-0.618101,-0.0202343,-0.243194,0
2024-12-11 14:44:03.705,0.0287139,4.42194,9.37777,-0.630318,-0.0269536,-0.237085,0
2024-12-11 14:44:03.707,-0.040678,4.46979,9.5022,-0.640092,-0.0397814,-0.226701,0
2024-12-11 14:44:03.710,-0.0143569,4.5679,9.6362,-0.641924,-0.0544418,-0.218149,0
2024-12-11 14:44:03.713,0.0646062,4.666,9.77019,-0.6462,-0.0978119,-0.210819,0
2024-12-11 14:44:03.714,0.141177,4.733,9.88535,-0.6462,-0.0978119,-0.210819,0
2024-12-11 14:44:03.718,0.162712,4.79073,9.98106,-0.649865,-0.145458,-0.213873,0
2024-12-11 14:44:03.720,0.138784,4.84098,10.0744,-0.650476,-0.169892,-0.215095,0
2024-12-11 14:44:03.721,0.150748,4.8673,10.1486,-0.650476,-0.169892,-0.215095,0
2024-12-11 14:44:03.728,0.517149,4.82423,10.3977,-0.659028,-0.263962,-0.230366,0
2024-12-11 14:44:03.728,0.517149,4.82423,10.3977,-0.659028,-0.263962,-0.230366,0
2024-12-11 14:44:03.731,0.593719,4.81944,10.5748,-0.661471,-0.303057,-0.238307,0
2024-12-11 14:44:03.731,0.593719,4.81944,10.5748,-0.661471,-0.303057,-0.238307,0
2024-12-11 14:44:03.733,0.641576,4.8003,10.7542,-0.662082,-0.336042,-0.246248,0
2024-12-11 14:44:03.736,0.749253,4.77159,10.9098,-0.658417,-0.365363,-0.257243,0
2024-12-11 14:44:03.739,0.914656,4.71865,11.0943,-0.648033,-0.402625,-0.28412,0
2024-12-11 14:44:03.740,1.05823,4.66122,11.324,-0.648033,-0.402625,-0.28412,0
2024-12-11 14:44:03.743,1.14197,4.61097,11.5708,-0.634594,-0.416063,-0.302446,0
2024-12-11 14:44:03.747,1.19462,4.50568,12.0832,-0.593056,-0.433778,-0.334821,0
2024-12-11 14:44:03.748,1.19462,4.50568,12.0832,-0.564957,-0.436832,-0.350092,0
2024-12-11 14:44:03.750,1.19701,4.44586,12.2842,-0.564957,-0.436832,-0.350092,0
2024-12-11 14:44:03.752,1.17308,4.38126,12.4588,-0.535026,-0.436221,-0.364141,0
2024-12-11 14:44:03.754,1.12044,4.32383,12.6168,-0.496542,-0.431335,-0.372082,0
2024-12-11 14:44:03.758,1.05344,4.24247,12.763,-0.45867,-0.416063,-0.380634,0
2024-12-11 14:44:03.759,0.964906,4.17518,12.8707,-0.417132,-0.395905,-0.385521,0
2024-12-11 14:44:03.761,0.897907,4.11536,12.9233,-0.373151,-0.370861,-0.387964,0
2024-12-11 14:44:03.765,0.919442,4.04357,12.9377,-0.326727,-0.339707,-0.38491,0
2024-12-11 14:44:03.766,0.926621,3.96939,12.9209,-0.277248,-0.307943,-0.386132,0
2024-12-11 14:44:03.768,0.792323,3.91436,12.9329,-0.228381,-0.272514,-0.383078,0
2024-12-11 14:44:03.771,0.584148,3.87847,12.9209,-0.179513,-0.230366,-0.375747,0
2024-12-11 14:44:03.773,0.387936,3.86411,12.7893,-0.130034,-0.178444,-0.36292,0
2024-12-11 14:44:03.775,0.227318,3.84257,12.5617,-0.0811663,-0.125911,-0.345205,0
2024-12-11 14:44:03.778,0.122034,3.80668,12.3224,-0.0371853,-0.0697129,-0.328101,0
2024-12-11 14:44:03.783,0.0646062,3.77797,11.7742,0.0440574,0.0280226,-0.282899,0
2024-12-11 14:44:03.784,0.0646062,3.77797,11.7742,0.0739889,0.0658951,-0.262741,0
2024-12-11 14:44:03.785,0.0215354,3.80429,11.4604,0.0739889,0.0658951,-0.262741,0
2024-12-11 14:44:03.787,-0.0334995,3.82343,11.1517,0.0990336,0.0952158,-0.241972,0
2024-12-11 14:44:03.791,-0.0693919,3.84975,10.8811,0.118581,0.124536,-0.221814,0
2024-12-11 14:44:03.793,-0.0765703,3.88804,10.6226,0.150345,0.169128,-0.188217,0
2024-12-11 14:44:03.794,-0.0478565,3.95025,10.3905,0.150345,0.169128,-0.188217,0
2024-12-11 14:44:03.798,-0.00478565,4.01246,10.2036,0.179665,0.212498,-0.167449,0
2024-12-11 14:44:03.799,0.0358923,4.06271,10.0672,0.179665,0.212498,-0.167449,0
2024-12-11 14:44:03.802,0.0909273,4.10339,9.93799,0.194326,0.234489,-0.160729,0
2024-12-11 14:44:03.804,0.172283,4.13928,9.77977,0.208375,0.250371,-0.157064,0
2024-12-11 14:44:03.806,0.244068,4.18714,9.59552,0.222425,0.268696,-0.155232,0
2024-12-11 14:44:03.809,0.304188,4.22094,9.39213,0.23342,0.283968,-0.154621,0
2024-12-11 14:44:03.811,0.371187,4.24726,9.20758,0.245637,0.297406,-0.160118,0
2024-12-11 14:44:03.814,0.397508,4.27358,9.02094,0.2548,0.30718,-0.163173,0
2024-12-11 14:44:03.816,0.392722,4.2999,8.83191,0.262741,0.318786,-0.173557,0
2024-12-11 14:44:03.818,0.402293,4.31665,8.65933,0.270071,0.325505,-0.183941,0
2024-12-11 14:44:03.820,0.471685,4.30947,8.48465,0.272514,0.331614,-0.194937,0
2024-12-11 14:44:03.823,0.608076,4.26401,8.30758,0.275568,0.335279,-0.210208,0
2024-12-11 14:44:03.825,0.639183,4.24965,8.14726,0.277401,0.334668,-0.22609,0
2024-12-11 14:44:03.828,0.517149,4.30469,8.001,0.27679,0.324284,-0.256632,0
2024-12-11 14:44:03.830,0.364008,4.35733,7.85743,0.27679,0.324284,-0.256632,0
2024-12-11 14:44:03.832,0.241675,4.39562,7.75215,0.277401,0.313899,-0.268238,0
2024-12-11 14:44:03.834,0.160319,4.42672,7.65643,0.27679,0.307791,-0.27679,0
2024-12-11 14:44:03.837,0.112463,4.45304,7.51974,0.271903,0.301071,-0.282288,0
2024-12-11 14:44:03.839,0.0861416,4.45783,7.38096,0.265184,0.290687,-0.290229,0
2024-12-11 14:44:03.841,0.0622134,4.44586,7.26132,0.258465,0.281524,-0.296337,0
2024-12-11 14:44:03.845,0.0478565,4.4339,7.16321,0.241972,0.261366,-0.31283,0
2024-12-11 14:44:03.846,0.0287139,4.40519,7.07229,0.241972,0.261366,-0.31283,0
2024-12-11 14:44:03.848,0.00478565,4.35972,6.97867,0.230366,0.24976,-0.319549,0
2024-12-11 14:44:03.851,-0.0143569,4.34297,6.8997,0.217538,0.238154,-0.328101,0
2024-12-11 14:44:03.853,-0.026321,4.33101,6.83031,0.201656,0.226548,-0.334821,0
2024-12-11 14:44:03.856,-0.040678,4.30708,6.76331,0.184552,0.213109,-0.342151,0
2024-12-11 14:44:03.859,-0.0598206,4.29033,6.72503,0.15401,0.192341,-0.352535,0
2024-12-11 14:44:03.860,-0.0693919,4.27837,6.72024,0.15401,0.192341,-0.352535,0
2024-12-11 14:44:03.863,-0.0861416,4.2688,6.73939,0.136906,0.181345,-0.357422,0
2024-12-11 14:44:03.865,-0.12682,4.25444,6.78246,0.120413,0.170961,-0.36353,0
2024-12-11 14:44:03.867,-0.153141,4.2329,6.81596,0.105753,0.162409,-0.364752,0
2024-12-11 14:44:03.871,-0.162712,4.20628,6.84945,0.0923143,0.158744,-0.367196,0
2024-12-11 14:44:03.872,-0.181855,4.18714,6.87817,0.077654,0.156911,-0.369639,0
2024-12-11 14:44:03.875,-0.196211,4.16082,6.91167,0.0629936,0.152635,-0.371471,0
2024-12-11 14:44:03.878,-0.227318,4.14407,6.9667,0.0348946,0.150803,-0.37025,0
2024-12-11 14:44:03.879,-0.277567,4.1345,7.02922,0.0348946,0.150803,-0.37025,0
2024-12-11 14:44:03.882,-0.330509,4.12971,7.07229,0.0226777,0.153857,-0.367196,0
2024-12-11 14:44:03.884,-0.364008,4.14168,7.101,0.00862822,0.156301,-0.362309,0
2024-12-11 14:44:03.886,-0.385544,4.14407,7.14407,-0.00358873,0.157522,-0.358033,0
2024-12-11 14:44:03.889,-0.428614,4.13928,7.17278,-0.0170274,0.159355,-0.351314,0
2024-12-11 14:44:03.891,-0.471685,4.15364,7.19432,-0.0310769,0.159355,-0.344594,0
2024-12-11 14:44:03.894,-0.517149,4.17518,7.23261,-0.0579541,0.161798,-0.328712,0
2024-12-11 14:44:03.897,-0.562612,4.18475,7.27328,-0.0726145,0.16302,-0.320771,0
2024-12-11 14:44:03.898,-0.588933,4.20897,7.33071,-0.0726145,0.16302,-0.320771,0
2024-12-11 14:44:03.900,-0.610469,4.2329,7.38335,-0.086664,0.159355,-0.311608,0
2024-12-11 14:44:03.903,-0.641576,4.26401,7.42164,-0.100103,0.154468,-0.303667,0
2024-12-11 14:44:03.906,-0.660718,4.29033,7.47189,-0.128202,0.145916,-0.281677,0
2024-12-11 14:44:03.908,-0.672682,4.3023,7.53649,-0.128202,0.145916,-0.281677,0
2024-12-11 14:44:03.911,-0.682254,4.32622,7.61815,-0.141029,0.142862,-0.271293,0
2024-12-11 14:44:03.912,-0.675075,4.3669,7.733,-0.156911,0.138586,-0.260297,0
2024-12-11 14:44:03.914,-0.651147,4.39801,7.84307,-0.166074,0.137364,-0.251745,0
2024-12-11 14:44:03.917,-0.608076,4.40279,7.94597,-0.174015,0.131867,-0.241972,0
2024-12-11 14:44:03.919,-0.562612,4.40519,8.05604,-0.182567,0.125758,-0.236474,0
2024-12-11 14:44:03.922,-0.533899,4.44108,8.15444,-0.195395,0.116595,-0.229755,0
2024-12-11 14:44:03.925,-0.498006,4.45783,8.2669,-0.203336,0.106822,-0.228533,0
2024-12-11 14:44:03.926,-0.474078,4.45304,8.37697,-0.210666,0.0915507,-0.224257,0
2024-12-11 14:44:03.929,-0.471685,4.48176,8.47986,-0.216774,0.074447,-0.225479,0
2024-12-11 14:44:03.931,-0.457328,4.49611,8.60429,-0.225937,0.0573433,-0.22609,0
2024-12-11 14:44:03.933,-0.428614,4.49133,8.73859,-0.233878,0.0396287,-0.226701,0
2024-12-11 14:44:03.936,-0.387936,4.47697,8.84866,-0.241208,0.0219141,-0.226701,0
2024-12-11 14:44:03.938,-0.325723,4.45065,8.94676,-0.246095,0.00358873,-0.22609,0
2024-12-11 14:44:03.940,-0.267996,4.41715,9.04965,-0.254647,-0.0165692,-0.229755,0
2024-12-11 14:44:03.943,-0.248854,4.37408,9.17408,-0.262588,-0.0379489,-0.231587,0
2024-12-11 14:44:03.945,-0.251246,4.3334,9.32274,-0.269918,-0.0605502,-0.234031,0
2024-12-11 14:44:03.947,-0.246461,4.31187,9.47109,-0.277248,-0.0807082,-0.235863,0
2024-12-11 14:44:03.951,-0.22014,4.2999,9.6003,-0.288244,-0.129576,-0.238307,0
2024-12-11 14:44:03.952,-0.189033,4.27837,9.72712,-0.288244,-0.129576,-0.238307,0
2024-12-11 14:44:03.954,-0.174676,4.24008,9.88056,-0.292519,-0.154621,-0.24075,0
2024-12-11 14:44:03.958,-0.189033,4.20628,10.0672,-0.293741,-0.179665,-0.241361,0
2024-12-11 14:44:03.959,-0.196211,4.18475,10.2706,-0.294352,-0.203488,-0.239528,0
2024-12-11 14:44:03.962,-0.189033,4.14168,10.4886,-0.288244,-0.226701,-0.239528,0
2024-12-11 14:44:03.964,-0.20339,4.08903,10.6992,-0.284578,-0.245637,-0.238918,0
2024-12-11 14:44:03.966,-0.229711,4.05075,10.9098,-0.279692,-0.262741,-0.235253,0
2024-12-11 14:44:03.969,-0.215354,4.01486,11.1135,-0.268086,-0.27679,-0.229144,0
2024-12-11 14:44:03.971,-0.193819,3.96461,11.281,-0.252814,-0.290229,-0.221814,0
2024-12-11 14:44:03.973,-0.215354,3.92632,11.4604,-0.2351,-0.299392,-0.215705,0
2024-12-11 14:44:03.977,-0.251246,3.90239,11.6617,-0.194784,-0.307333,-0.193104,0
2024-12-11 14:44:03.979,-0.267996,3.89043,11.8173,-0.173404,-0.304889,-0.178444,0
2024-12-11 14:44:03.980,-0.270389,3.89761,11.913,-0.173404,-0.304889,-0.178444,0
2024-12-11 14:44:03.983,-0.297009,3.92393,11.9513,-0.149581,-0.292672,-0.162562,0
2024-12-11 14:44:03.985,-0.330509,3.93589,11.9824,-0.128812,-0.271903,-0.145458,0
2024-12-11 14:44:03.988,-0.330509,3.91914,12.0784,-0.110487,-0.24808,-0.124689,0
2024-12-11 14:44:03.991,-0.292223,3.89043,12.1884,-0.0707819,-0.198602,-0.0923143,0
2024-12-11 14:44:03.992,-0.244068,3.87129,12.2698,-0.0707819,-0.198602,-0.0923143,0
2024-12-11 14:44:03.995,-0.212961,3.86172,12.3248,-0.0475697,-0.169892,-0.0770431,0
2024-12-11 14:44:03.997,-0.193819,3.88086,12.3009,-0.0280226,-0.135684,-0.0587177,0
2024-12-11 14:44:03.999,-0.162712,3.94068,12.2148,-0.00908635,-0.0923143,-0.0440574,0
2024-12-11 14:44:04.002,-0.145962,4.00768,12.1406,0.00557398,-0.0410031,-0.0257319,0
2024-12-11 14:44:04.005,-0.167498,4.05793,12.0832,0.0171801,0.0096972,-0.00740652,0
2024-12-11 14:44:04.006,-0.179462,4.08664,11.9895,0.0275645,0.0616192,0.0127514,0
2024-12-11 14:44:04.009,-0.172283,4.11296,11.8603,0.0306187,0.11232,0.0316877,0
2024-12-11 14:44:04.011,-0.145962,4.1345,11.7215,0.0318404,0.163631,0.0512348,0
2024-12-11 14:44:04.013,-0.105284,4.17518,11.5732,0.0281753,0.211888,0.0701711,0
2024-12-11 14:44:04.017,-0.0717847,4.24487,11.4245,0.00862822,0.302293,0.100713,0
2024-12-11 14:44:04.018,-0.0598206,4.31665,11.2977,0.00862822,0.302293,0.100713,0
2024-12-11 14:44:04.020,-0.0550349,4.39083,11.1852,-0.00908635,0.343831,0.115985,0
2024-12-11 14:44:04.024,-0.0454636,4.48894,11.0991,-0.0457372,0.426295,0.135532,0
2024-12-11 14:44:04.026,-0.0502493,4.60379,11.056,-0.066506,0.464778,0.145305,0
2024-12-11 14:44:04.028,-0.0717847,4.68993,11.0106,-0.066506,0.464778,0.145305,0
2024-12-11 14:44:04.032,-0.0143569,4.79073,10.9484,-0.109876,0.537469,0.158133,0
2024-12-11 14:44:04.032,-0.0143569,4.79073,10.9484,-0.109876,0.537469,0.158133,0
2024-12-11 14:44:04.035,0.0502493,4.84098,10.9555,-0.134921,0.569233,0.163631,0
2024-12-11 14:44:04.038,0.102891,4.89123,10.9675,-0.159355,0.596721,0.166685,0
2024-12-11 14:44:04.039,0.162712,4.91276,10.9747,-0.180124,0.622377,0.163631,0
2024-12-11 14:44:04.043,0.208176,4.9343,10.9699,-0.199671,0.644978,0.159355,0
2024-12-11 14:44:04.044,0.236889,4.96301,10.989,-0.224105,0.662082,0.156301,0
2024-12-11 14:44:04.046,0.246461,4.98933,11.0273,-0.243041,0.676132,0.149581,0
2024-12-11 14:44:04.050,0.246461,5.03001,11.08,-0.282746,0.685905,0.132477,0
2024-12-11 14:44:04.051,0.267996,5.07069,11.1637,-0.282746,0.685905,0.132477,0
2024-12-11 14:44:04.053,0.272782,5.0994,11.2546,-0.299239,0.681629,0.122093,0
2024-12-11 14:44:04.057,0.263211,5.12333,11.348,-0.32184,0.659639,0.0958267,0
2024-12-11 14:44:04.058,0.246461,5.14487,11.458,-0.32184,0.659639,0.0958267,0
2024-12-11 14:44:04.060,0.208176,5.17358,11.578,-0.328559,0.640702,0.0829989,0
2024-12-11 14:44:04.063,0.174676,5.1999,11.712,-0.332225,0.618712,0.0701711,0
2024-12-11 14:44:04.065,0.141177,5.20469,11.8579,-0.332835,0.593056,0.0555107,0
2024-12-11 14:44:04.068,0.0957129,5.17837,12.0087,-0.331003,0.561903,0.0451263,0
2024-12-11 14:44:04.071,0.0598206,5.15444,12.1765,-0.313899,0.487991,0.0219141,0
2024-12-11 14:44:04.072,0.00957129,5.13051,12.3272,-0.313899,0.487991,0.0219141,0
2024-12-11 14:44:04.074,-0.0646062,5.08983,12.4684,-0.302293,0.445842,0.0127514,0
2024-12-11 14:44:04.077,-0.133998,5.0659,12.641,-0.288244,0.398807,0.00664296,0
2024-12-11 14:44:04.079,-0.18664,5.0324,12.8276,-0.27114,0.349939,0.00358873,0
2024-12-11 14:44:04.082,-0.224925,4.9678,13.0286,-0.250371,0.304736,-0.000687203,0
2024-12-11 14:44:04.084,-0.251246,4.93191,13.2515,-0.222272,0.259534,-0.00251974,0
2024-12-11 14:44:04.086,-0.131605,4.89601,13.4237,-0.19173,0.211277,-0.00313059,0
2024-12-11 14:44:04.090,0.0143569,4.85294,13.5506,-0.160576,0.15569,-0.00801737,0
2024-12-11 14:44:04.091,-0.0861416,4.83619,13.7734,-0.123315,0.101324,-0.0122933,0
2024-12-11 14:44:04.093,-0.320937,4.81705,14.0438,-0.0781121,0.0561216,-0.0104608,0
2024-12-11 14:44:04.096,-0.500399,4.8003,14.1826,-0.030466,0.0206925,-0.0019089,0
2024-12-11 14:44:04.098,-0.584148,4.76172,14.2137,0.0171801,-0.00984991,0.00908635,0
2024-12-11 14:44:04.100,-0.576969,4.72343,14.2137,0.065437,-0.0348946,0.0243575,0
2024-12-11 14:44:04.104,-0.517149,4.67797,14.2137,0.159507,-0.0837624,0.0555107,0
2024-12-11 14:44:04.105,-0.4334,4.63011,14.2161,0.159507,-0.0837624,0.0555107,1
2024-12-11 14:44:04.107,-0.383151,4.61815,14.1921,0.200434,-0.109418,0.0720036,0
2024-12-11 14:44:04.110,-0.41665,4.61815,14.1634,0.241361,-0.13263,0.0884965,0
2024-12-11 14:44:04.112,-0.498006,4.63968,14.0821,0.280455,-0.15401,0.108654,0
2024-12-11 14:44:04.116,-0.52672,4.67318,13.9433,0.314663,-0.168059,0.131867,0
2024-12-11 14:44:04.117,-0.52672,4.69711,13.8212,0.34154,-0.177833,0.158744,0
2024-12-11 14:44:04.120,-0.493221,4.7019,13.7276,0.395295,-0.179665,0.211277,0
2024-12-11 14:44:04.122,-0.41665,4.70668,13.6415,0.395295,-0.179665,0.211277,0
2024-12-11 14:44:04.124,-0.373579,4.71625,13.5362,0.417285,-0.174168,0.239376,0
2024-12-11 14:44:04.126,-0.344866,4.72582,13.3998,0.43561,-0.166838,0.264421,0
2024-12-11 14:44:04.129,-0.311366,4.77159,13.2467,0.453325,-0.15401,0.290076,0
2024-12-11 14:44:04.131,-0.272782,4.8338,13.0669,0.465542,-0.133852,0.316343,0
2024-12-11 14:44:04.134,-0.229711,4.89841,12.8707,0.472261,-0.111251,0.342609,0
2024-12-11 14:44:04.137,-0.174676,4.98455,12.6841,0.474705,-0.0880384,0.362156,0
2024-12-11 14:44:04.138,-0.112463,5.07787,12.4971,0.472872,-0.0660479,0.378038,0
2024-12-11 14:44:04.140,-0.0311067,5.14965,12.2937,0.463099,-0.0483333,0.388422,0
2024-12-11 14:44:04.144,0.0693919,5.2023,12.1023,0.424004,-0.0312296,0.389644,0
2024-12-11 14:44:04.145,0.181855,5.21905,11.9441,0.424004,-0.0312296,0.389644,0
2024-12-11 14:44:04.148,0.320937,5.18076,11.7885,0.397127,-0.0324513,0.376206,0
2024-12-11 14:44:04.150,0.483649,5.08983,11.6521,0.36292,-0.037338,0.354826,0
2024-12-11 14:44:04.152,0.632004,4.96541,11.5517,0.330545,-0.0452791,0.329781,0
2024-12-11 14:44:04.155,0.758824,4.8003,11.4963,0.291451,-0.0660479,0.29985,0
2024-12-11 14:44:04.157,0.857229,4.58943,11.5301,0.256021,-0.0892601,0.267475,0
2024-12-11 14:44:04.159,0.931406,4.37169,11.6354,0.219371,-0.118581,0.234489,0
2024-12-11 14:44:04.162,0.969691,4.13928,11.7933,0.186996,-0.150345,0.199671,0
2024-12-11 14:44:04.164,0.972084,3.89522,12.0063,0.160118,-0.185774,0.170961,0
2024-12-11 14:44:04.167,0.964906,3.66551,12.2554,0.13935,-0.221814,0.140419,0
2024-12-11 14:44:04.170,1.12044,3.40678,12.478,0.124078,-0.290229,0.0805555,0
2024-12-11 14:44:04.171,1.30229,3.13879,12.6912,0.124078,-0.290229,0.0805555,0
2024-12-11 14:44:04.173,1.21854,2.88485,13.0286,0.129576,-0.315274,0.0518457,0
2024-12-11 14:44:04.176,1.02712,2.63599,13.4189,0.14668,-0.32749,0.0286335,0
2024-12-11 14:44:04.178,0.825823,2.39163,13.6606,0.177222,-0.332988,0.0115297,0
2024-12-11 14:44:04.181,0.617647,2.14277,13.8117,0.213262,-0.326269,-7.63559e-05,0
2024-12-11 14:44:04.183,0.41665,1.91516,13.9528,0.263352,-0.303057,-0.00496313,0
2024-12-11 14:44:04.185,0.251246,1.66869,14.1012,0.318939,-0.277401,-0.00557398,0
2024-12-11 14:44:04.188,0.198604,1.38604,14.2352,0.38491,-0.259686,-0.00129805,0
2024-12-11 14:44:04.190,0.212961,1.12762,14.2543,0.453325,-0.246859,-0.000687203,0
2024-12-11 14:44:04.192,0.193819,0.881157,14.1586,0.519297,-0.24075,0.000534491,0
2024-12-11 14:44:04.196,0.12682,0.65354,14.0246,0.657348,-0.221814,0.00481042,0
2024-12-11 14:44:04.198,0.0287139,0.447757,13.8906,0.728817,-0.206543,0.0139731,0
2024-12-11 14:44:04.199,-0.0981057,0.260818,13.7495,0.728817,-0.206543,0.0139731,0
2024-12-11 14:44:04.202,-0.222533,0.0981057,13.5793,0.804562,-0.186385,0.0237467,0
2024-12-11 14:44:04.204,-0.332901,-0.0334995,13.3783,0.882751,-0.168059,0.0390179,0
2024-12-11 14:44:04.206,-0.445364,-0.133998,13.1124,0.960328,-0.147901,0.0542891,0
2024-12-11 14:44:04.209,-0.565005,-0.210568,12.775,1.03729,-0.131409,0.0707819,0
2024-12-11 14:44:04.211,-0.667897,-0.256032,12.399,1.10815,-0.118581,0.090329,0
2024-12-11 14:44:04.213,-0.751645,-0.294616,11.9943,1.17229,-0.112472,0.110487,0
2024-12-11 14:44:04.217,-0.804287,-0.32333,11.6043,1.28224,-0.112472,0.150192,0
2024-12-11 14:44:04.218,-0.818644,-0.34008,11.214,1.28224,-0.112472,0.150192,0
2024-12-11 14:44:04.221,-0.828216,-0.359223,10.7925,1.32378,-0.115526,0.167296,0
2024-12-11 14:44:04.223,-0.869193,-0.349651,10.3929,1.36227,-0.125911,0.179513,0
2024-12-11 14:44:04.225,-0.929013,-0.304188,10.0241,1.39525,-0.140571,0.190508,0
2024-12-11 14:44:04.229,-0.991227,-0.256032,9.66012,1.42213,-0.156453,0.200892,0
2024-12-11 14:44:04.230,-1.03908,-0.205783,9.29402,1.4429,-0.17539,0.210666,0
2024-12-11 14:44:04.233,-1.08455,-0.153141,8.9348,1.45695,-0.195547,0.222272,0
2024-12-11 14:44:04.235,-1.13001,-0.0861416,8.58993,1.46611,-0.219981,0.229602,0
2024-12-11 14:44:04.237,-1.15155,-0.00717847,8.26451,1.47161,-0.245637,0.238765,0
2024-12-11 14:44:04.239,-1.14915,0.0574277,7.95314,1.4655,-0.272514,0.244263,0
2024-12-11 14:44:04.243,-1.14437,0.105284,7.63968,1.43618,-0.321993,0.255869,0
2024-12-11 14:44:04.244,-1.13001,0.145962,7.34985,1.43618,-0.321993,0.255869,0
2024-12-11 14:44:04.246,-1.08694,0.184247,7.09861,1.40869,-0.348259,0.259534,0
2024-12-11 14:44:04.250,-1.04865,0.236889,6.86142,1.33905,-0.391019,0.263199,0
2024-12-11 14:44:04.251,-1.02233,0.294616,6.64606,1.33905,-0.391019,0.263199,0
2024-12-11 14:44:04.253,-0.97687,0.361615,6.46182,1.29568,-0.408733,0.261977,0
2024-12-11 14:44:04.257,-0.909871,0.414257,6.31316,1.19795,-0.434389,0.254647,0
2024-12-11 14:44:04.258,-0.811466,0.459721,6.18395,1.19795,-0.434389,0.254647,0
2024-12-11 14:44:04.260,-0.703789,0.536291,6.08106,1.14297,-0.442941,0.249149,0
2024-12-11 14:44:04.264,-0.632004,0.596112,5.9997,1.08372,-0.447217,0.241208,0
2024-12-11 14:44:04.265,-0.533899,0.660718,5.94467,1.02141,-0.44966,0.231435,0
2024-12-11 14:44:04.268,-0.419043,0.727717,5.94945,0.958496,-0.448438,0.217385,0
2024-12-11 14:44:04.271,-0.316152,0.777966,5.9686,0.823498,-0.440497,0.189897,0
2024-12-11 14:44:04.272,-0.20339,0.811466,5.99013,0.823498,-0.440497,0.189897,0
2024-12-11 14:44:04.276,-0.0789631,0.842872,6.04756,0.686058,-0.419118,0.146527,0
2024-12-11 14:44:04.277,0.066999,0.835394,6.12413,0.686058,-0.419118,0.146527,0
2024-12-11 14:44:04.279,0.232104,0.794716,6.22941,0.617032,-0.403846,0.124536,0
2024-12-11 14:44:04.282,0.390329,0.770788,6.33709,0.547396,-0.383078,0.0988809,0
2024-12-11 14:44:04.284,0.514756,0.744467,6.46421,0.47837,-0.367196,0.0671168,0
2024-12-11 14:44:04.286,0.615255,0.725324,6.61496,0.409344,-0.344594,0.0377962,0
2024-12-11 14:44:04.290,0.679861,0.706182,6.77288,0.285342,-0.291451,-0.0257319,0
2024-12-11 14:44:04.291,0.701396,0.696611,6.96192,0.285342,-0.291451,-0.0257319,0
2024-12-11 14:44:04.294,0.703789,0.710967,7.16561,0.226701,-0.261519,-0.057496,0
2024-12-11 14:44:04.297,0.701396,0.715753,7.35703,0.119192,-0.189439,-0.115526,0
2024-12-11 14:44:04.298,0.655932,0.706182,7.52932,0.119192,-0.189439,-0.115526,0
2024-12-11 14:44:04.302,0.593719,0.687039,7.68515,0.0275645,-0.107585,-0.164394,0
2024-12-11 14:44:04.303,0.52672,0.63679,7.82632,0.0275645,-0.107585,-0.164394,0
2024-12-11 14:44:04.305,0.431007,0.581755,7.93639,-0.014584,-0.0678804,-0.186996,0
2024-12-11 14:44:04.308,0.318545,0.541077,8.03929,-0.0548999,-0.0275645,-0.203488,0
2024-12-11 14:44:04.310,0.184247,0.481256,8.13769,-0.0921616,0.0109189,-0.218149,0
2024-12-11 14:44:04.315,-0.0622134,0.395115,8.25255,-0.162409,0.0787229,-0.235253,0
2024-12-11 14:44:04.315,-0.0622134,0.395115,8.25255,-0.162409,0.0787229,-0.235253,0
2024-12-11 14:44:04.319,-0.299402,0.335294,8.37697,-0.229602,0.131256,-0.237696,0
2024-12-11 14:44:04.320,-0.299402,0.335294,8.37697,-0.229602,0.131256,-0.237696,0
2024-12-11 14:44:04.322,-0.411865,0.325723,8.46311,-0.260145,0.158744,-0.236474,0
2024-12-11 14:44:04.325,-0.521934,0.316152,8.56601,-0.311456,0.202114,-0.230366,0
2024-12-11 14:44:04.326,-0.617647,0.308973,8.68565,-0.311456,0.202114,-0.230366,0
2024-12-11 14:44:04.329,-0.694218,0.316152,8.80319,-0.33589,0.221661,-0.225479,0
2024-12-11 14:44:04.331,-0.76361,0.311366,8.92284,-0.35055,0.24243,-0.220592,0
2024-12-11 14:44:04.333,-0.835394,0.30658,9.04248,-0.363378,0.261977,-0.213873,0
2024-12-11 14:44:04.336,-0.909871,0.316152,9.15733,-0.368265,0.283968,-0.205932,0
2024-12-11 14:44:04.338,-0.981655,0.328116,9.27249,-0.370708,0.301071,-0.194937,0
2024-12-11 14:44:04.341,-1.06301,0.35683,9.3682,-0.369486,0.318786,-0.185163,0
2024-12-11 14:44:04.344,-1.15394,0.385544,9.44716,-0.353604,0.348107,-0.16134,0
2024-12-11 14:44:04.345,-1.25204,0.41665,9.50698,-0.353604,0.348107,-0.16134,0
2024-12-11 14:44:04.349,-1.33819,0.457328,9.54527,-0.337722,0.361545,-0.147901,0
2024-12-11 14:44:04.350,-1.41266,0.486042,9.5692,-0.321229,0.37193,-0.131409,0
2024-12-11 14:44:04.352,-1.48684,0.524327,9.56441,-0.304126,0.378038,-0.114305,0
2024-12-11 14:44:04.355,-1.53709,0.581755,9.52134,-0.283357,0.379871,-0.0984228,0
2024-12-11 14:44:04.357,-1.58255,0.639183,9.46152,-0.262588,0.380481,-0.0794865,0
2024-12-11 14:44:04.360,-1.59452,0.684646,9.36581,-0.238154,0.381703,-0.0617719,0
2024-12-11 14:44:04.363,-1.55862,0.734896,9.22194,-0.196006,0.370097,-0.033673,0
2024-12-11 14:44:04.364,-1.52034,0.799502,9.09033,-0.196006,0.370097,-0.033673,0
2024-12-11 14:44:04.366,-1.48923,0.85005,8.99223,-0.176459,0.359102,-0.0208452,0
2024-12-11 14:44:04.369,-1.47009,0.873978,8.88455,-0.161798,0.340776,-0.0110716,0
2024-12-11 14:44:04.371,-1.46052,0.940978,8.77209,-0.145305,0.325505,-7.63559e-05,0
2024-12-11 14:44:04.375,-1.44855,1.0319,8.67129,-0.115985,0.2858,0.00786466,0
2024-12-11 14:44:04.377,-1.43659,1.10608,8.5684,-0.102546,0.26381,0.0133623,0
2024-12-11 14:44:04.379,-1.43898,1.17787,8.47269,-0.102546,0.26381,0.0133623,0
2024-12-11 14:44:04.381,-1.45334,1.25683,8.37458,-0.0884965,0.247317,0.0182491,0
2024-12-11 14:44:04.383,-1.48205,1.34536,8.2693,-0.0732253,0.231435,0.022525,0
2024-12-11 14:44:04.385,-1.4988,1.42463,8.16162,-0.0622301,0.214942,0.0243575,0
2024-12-11 14:44:04.388,-1.48445,1.49402,8.04886,-0.0494023,0.196616,0.0292443,0
2024-12-11 14:44:04.390,-1.4653,1.55384,7.93161,-0.0402396,0.186843,0.0322986,0
2024-12-11 14:44:04.392,-1.4342,1.60648,7.8024,-0.0365745,0.172793,0.0390179,0
2024-12-11 14:44:04.396,-1.4004,1.66152,7.65883,-0.0310769,0.161798,0.0414613,0
2024-12-11 14:44:04.397,-1.39083,1.70937,7.51735,-0.0280226,0.152635,0.0420721,0
2024-12-11 14:44:04.400,-1.38604,1.75484,7.38575,-0.0310769,0.147138,0.0439046,0
2024-12-11 14:44:04.402,-1.39561,1.82662,7.26132,-0.0353528,0.141029,0.0475697,0
2024-12-11 14:44:04.404,-1.41027,1.89362,7.14168,-0.0414613,0.133088,0.050624,0
2024-12-11 14:44:04.407,-1.42941,1.94865,7.02922,-0.0500131,0.126369,0.0555107,0
2024-12-11 14:44:04.410,-1.42223,1.9992,6.91406,-0.0781121,0.111709,0.066506,0
2024-12-11 14:44:04.412,-1.39801,2.04227,6.82313,-0.0927724,0.107433,0.0713928,0
2024-12-11 14:44:04.415,-1.37886,2.07099,6.76092,-0.111098,0.103768,0.074447,0
2024-12-11 14:44:04.416,-1.33819,2.09731,6.69631,-0.111098,0.103768,0.074447,0
2024-12-11 14:44:04.418,-1.28794,2.1332,6.65085,-0.128812,0.0988809,0.0793338,0
2024-12-11 14:44:04.421,-1.25204,2.16431,6.64367,-0.147138,0.0994917,0.0829989,0
2024-12-11 14:44:04.423,-1.21615,2.2002,6.63171,-0.164852,0.100103,0.0848314,0
2024-12-11 14:44:04.425,-1.18026,2.24806,6.63171,-0.182567,0.0982701,0.0897182,0
2024-12-11 14:44:04.429,-1.14915,2.28395,6.65564,-0.218607,0.0952158,0.0927724,0
2024-12-11 14:44:04.430,-1.08694,2.31745,6.67717,-0.218607,0.0952158,0.0927724,0
2024-12-11 14:44:04.432,-1.02233,2.37248,6.69631,-0.239376,0.0939941,0.094605,0
2024-12-11 14:44:04.435,-0.964906,2.4012,6.71067,-0.259534,0.0988809,0.0958267,0
2024-12-11 14:44:04.437,-0.885943,2.41555,6.72264,-0.277248,0.1056,0.0958267,0
2024-12-11 14:44:04.439,-0.792323,2.42034,6.73939,-0.299239,0.11232,0.0933833,0
2024-12-11 14:44:04.443,-0.708575,2.42513,6.78006,-0.3365,0.125147,0.0860531,0
2024-12-11 14:44:04.444,-0.646361,2.42273,6.85424,-0.3365,0.125147,0.0860531,0
2024-12-11 14:44:04.446,-0.605683,2.40359,6.94038,-0.35788,0.130645,0.0805555,0
2024-12-11 14:44:04.449,-0.581755,2.4012,7.034,-0.377427,0.131256,0.0781121,0
2024-12-11 14:44:04.451,-0.562612,2.40838,7.12254,-0.392698,0.134921,0.074447,0
2024-12-11 14:44:04.455,-0.545863,2.42273,7.22064,-0.406748,0.136753,0.0689494,0
2024-12-11 14:44:04.456,-0.507577,2.42752,7.3355,-0.417743,0.137364,0.0695602,0
2024-12-11 14:44:04.459,-0.476471,2.41077,7.45275,-0.426906,0.139808,0.0677277,0
2024-12-11 14:44:04.461,-0.4669,2.40838,7.57239,-0.434847,0.141029,0.0671168,0
2024-12-11 14:44:04.463,-0.435793,2.40838,7.69711,-0.439734,0.14164,0.0646735,0
2024-12-11 14:44:04.465,-0.387936,2.39641,7.83829,-0.44462,0.140419,0.0646735,0
2024-12-11 14:44:04.468,-0.361615,2.38684,7.96511,-0.445231,0.140419,0.0658951,0
2024-12-11 14:44:04.470,-0.352044,2.37009,8.07518,-0.442788,0.138586,0.0658951,0
2024-12-11 14:44:04.473,-0.335294,2.37488,8.18315,-0.440345,0.136753,0.066506,0
2024-12-11 14:44:04.476,-0.335294,2.39641,8.29083,-0.425073,0.132477,0.0689494,0
2024-12-11 14:44:04.478,-0.335294,2.40359,8.41047,-0.413467,0.130034,0.0701711,0
2024-12-11 14:44:04.480,-0.330509,2.41077,8.51576,-0.413467,0.130034,0.0701711,0
2024-12-11 14:44:04.482,-0.328116,2.41795,8.63301,-0.399418,0.123926,0.0750579,0
2024-12-11 14:44:04.484,-0.335294,2.41555,8.75055,-0.381703,0.119039,0.0775012,0
2024-12-11 14:44:04.488,-0.347258,2.42034,8.85823,-0.361545,0.115374,0.0799446,0
2024-12-11 14:44:04.490,-0.342473,2.43948,8.97069,-0.312677,0.0988809,0.0909399,0
2024-12-11 14:44:04.492,-0.32333,2.45863,9.07119,-0.284578,0.0897182,0.094605,0
2024-12-11 14:44:04.495,-0.320937,2.4682,9.14537,-0.25648,0.0762796,0.101324,0
2024-12-11 14:44:04.496,-0.32333,2.47059,9.2004,-0.25648,0.0762796,0.101324,0
2024-12-11 14:44:04.498,-0.308973,2.5017,9.24347,-0.224715,0.0640626,0.107433,0
2024-12-11 14:44:04.501,-0.294616,2.53789,9.28684,-0.19173,0.0494023,0.115374,0
2024-12-11 14:44:04.503,-0.297009,2.57378,9.32513,-0.158744,0.0310769,0.122704,0
2024-12-11 14:44:04.505,-0.277567,2.6336,9.36581,-0.123926,0.010308,0.128202,0
2024-12-11 14:44:04.508,-0.234497,2.71496,9.37059,-0.0884965,-0.0116825,0.132477,0
2024-12-11 14:44:04.510,-0.196211,2.81545,9.33709,-0.0548999,-0.0306187,0.134921,0
2024-12-11 14:44:04.513,-0.138784,2.90878,9.28445,-0.0200816,-0.0483333,0.139197,0
2024-12-11 14:44:04.515,-0.0550349,2.98295,9.18605,0.0116825,-0.0629936,0.139808,0
2024-12-11 14:44:04.517,0.0119641,3.05234,9.07598,0.0428357,-0.077654,0.138586,0
2024-12-11 14:44:04.520,0.0861416,3.134,8.99941,0.0672696,-0.0917034,0.135532,0
2024-12-11 14:44:04.523,0.177069,3.20339,8.93241,0.0892601,-0.10331,0.131867,0
2024-12-11 14:44:04.524,0.239282,3.28475,8.85823,0.109418,-0.118581,0.123315,0
2024-12-11 14:44:04.528,0.272782,3.39003,8.79123,0.144847,-0.133241,0.107433,0
2024-12-11 14:44:04.529,0.320937,3.48096,8.71945,0.144847,-0.133241,0.107433,0
2024-12-11 14:44:04.531,0.371187,3.56231,8.66172,0.157675,-0.138739,0.0988809,0
2024-12-11 14:44:04.535,0.404686,3.63889,8.64497,0.172335,-0.135684,0.0884965,0
2024-12-11 14:44:04.536,0.576969,3.61496,8.61625,0.185163,-0.127743,0.0750579,0
2024-12-11 14:44:04.539,0.715753,3.60778,8.59472,0.194937,-0.115526,0.058565,0
2024-12-11 14:44:04.541,0.56022,3.75643,8.55404,0.208986,-0.102088,0.0457372,0
2024-12-11 14:44:04.544,0.308973,3.93589,8.45354,0.220592,-0.0672696,0.0353528,0
2024-12-11 14:44:04.545,0.150748,4.10578,8.35544,0.220592,-0.0672696,0.0353528,0
2024-12-11 14:44:04.548,0.0861416,4.24247,8.28126,0.223646,-0.0526092,0.0353528,0
2024-12-11 14:44:04.550,0.0454636,4.34297,8.22622,0.221814,-0.0379489,0.0353528,0
2024-12-11 14:44:04.553,0.040678,4.43151,8.17358,0.221203,-0.0202343,0.0353528,0
2024-12-11 14:44:04.555,0.0598206,4.48894,8.13769,0.216927,-0.00801737,0.0335202,0
2024-12-11 14:44:04.558,0.0430708,4.52004,8.12543,0.213873,0.00603212,0.0280226,0
2024-12-11 14:44:04.560,0.0143569,4.55354,8.14248,0.210819,0.0213033,0.022525,0
2024-12-11 14:44:04.562,0.00957129,4.58704,8.1664,0.210208,0.0365745,0.0151948,0
2024-12-11 14:44:04.564,0.00478565,4.62533,8.1664,0.208986,0.0530674,0.010308,0
2024-12-11 14:44:04.567,-0.0215354,4.67079,8.16162,0.207764,0.0677277,0.00664296,0
2024-12-11 14:44:04.570,-0.0646062,4.70907,8.17598,0.205321,0.0897182,-0.00129805,0
2024-12-11 14:44:04.572,-0.0837488,4.73779,8.19512,0.205932,0.0952158,-0.00435229,0
2024-12-11 14:44:04.574,-0.0933201,4.79073,8.22383,0.205932,0.0952158,-0.00435229,0
2024-12-11 14:44:04.576,-0.107677,4.84098,8.27887,0.205932,0.0958267,-0.0104608,0
2024-12-11 14:44:04.579,-0.117248,4.8673,8.31954,0.208375,0.0958267,-0.0147367,0
2024-12-11 14:44:04.581,-0.114855,4.90319,8.34826,0.208986,0.0927724,-0.0196235,0
2024-12-11 14:44:04.583,-0.112463,4.95344,8.39612,0.213262,0.0854423,-0.0275645,0
2024-12-11 14:44:04.586,-0.0933201,5.0013,8.44876,0.215705,0.0762796,-0.0379489,0
2024-12-11 14:44:04.589,-0.0574277,5.02762,8.49901,0.216927,0.0634518,-0.0477224,0
2024-12-11 14:44:04.590,-0.040678,5.07308,8.54926,0.224868,0.0494023,-0.057496,0
2024-12-11 14:44:04.600,0.0837488,5.19272,8.82234,0.248691,-0.0153475,-0.119802,0
2024-12-11 14:44:04.601,0.00717847,5.17358,8.82234,0.255411,-0.0342838,-0.137517,0
2024-12-11 14:44:04.601,0.0837488,5.19272,8.82234,0.255411,-0.0342838,-0.137517,0
2024-12-11 14:44:04.601,0.0837488,5.19272,8.82234,0.255411,-0.0342838,-0.137517,0
2024-12-11 14:44:04.607,0.124427,5.17597,8.99223,0.263352,-0.0715455,-0.17539,0
2024-12-11 14:44:04.607,0.124427,5.17597,8.99223,0.263352,-0.0715455,-0.17539,0
2024-12-11 14:44:04.608,0.124427,5.17597,8.99223,0.263352,-0.0715455,-0.17539,0
2024-12-11 14:44:04.609,0.133998,5.15922,9.03769,0.264573,-0.085595,-0.194326,0
2024-12-11 14:44:04.612,0.133998,5.16401,9.08794,0.267017,-0.101477,-0.212651,0
2024-12-11 14:44:04.614,0.131605,5.1688,9.16451,0.267627,-0.110029,-0.232809,0
2024-12-11 14:44:04.616,0.100499,5.15683,9.24587,0.271903,-0.120413,-0.251745,0
2024-12-11 14:44:04.619,0.0502493,5.15205,9.33709,0.273736,-0.128354,-0.268238,0
2024-12-11 14:44:04.621,0.00717847,5.16401,9.43998,0.270682,-0.133241,-0.281677,0
2024-12-11 14:44:04.623,-0.0143569,5.17358,9.55005,0.273125,-0.136906,-0.296337,0
2024-12-11 14:44:04.625,-0.0215354,5.16162,9.65534,0.272514,-0.140571,-0.312219,0
2024-12-11 14:44:04.628,-0.0430708,5.14008,9.76302,0.273125,-0.141182,-0.323825,0
2024-12-11 14:44:04.630,-0.0885344,5.12573,9.8686,0.27679,-0.140571,-0.336653,0
2024-12-11 14:44:04.632,-0.148355,5.10898,9.97388,0.27679,-0.142404,-0.34887,0
2024-12-11 14:44:04.635,-0.196211,5.0659,10.0792,0.281066,-0.141793,-0.359865,0
2024-12-11 14:44:04.637,-0.232104,5.02044,10.1797,0.281677,-0.143625,-0.367806,0
2024-12-11 14:44:04.640,-0.275175,4.98216,10.2778,0.284731,-0.145458,-0.375747,0
2024-12-11 14:44:04.642,-0.320937,4.92951,10.4001,0.285953,-0.144847,-0.381856,0
2024-12-11 14:44:04.644,-0.368794,4.88644,10.5413,0.289618,-0.145458,-0.388575,0
2024-12-11 14:44:04.648,-0.411865,4.85534,10.6633,0.301224,-0.141182,-0.393462,0
2024-12-11 14:44:04.649,-0.45015,4.80748,10.7758,0.301224,-0.141182,-0.393462,0
2024-12-11 14:44:04.651,-0.52672,4.77159,10.8978,0.309165,-0.13996,-0.397127,0
2024-12-11 14:44:04.654,-0.608076,4.76411,11.0034,0.318328,-0.13996,-0.395295,0
2024-12-11 14:44:04.656,-0.665504,4.74257,11.0991,0.32688,-0.142404,-0.394684,0
2024-12-11 14:44:04.658,-0.718146,4.71147,11.1781,0.334821,-0.145458,-0.391629,0
2024-12-11 14:44:04.662,-0.766002,4.69472,11.2235,0.343983,-0.149734,-0.387964,0
2024-12-11 14:44:04.663,-0.801895,4.68036,11.2618,0.349481,-0.151566,-0.381856,0
2024-12-11 14:44:04.668,-0.876371,4.61097,11.3145,0.359865,-0.169892,-0.375137,0
2024-12-11 14:44:04.668,-0.876371,4.61097,11.3145,0.359865,-0.169892,-0.375137,0
2024-12-11 14:44:04.670,-0.921835,4.58465,11.3647,0.36353,-0.181498,-0.369639,0
2024-12-11 14:44:04.674,-0.957727,4.55354,11.4341,0.365363,-0.207764,-0.359255,0
2024-12-11 14:44:04.675,-0.912264,4.51286,11.47,0.365363,-0.207764,-0.359255,0
2024-12-11 14:44:04.677,-0.917049,4.48894,11.5253,0.364141,-0.226701,-0.354979,0
2024-12-11 14:44:04.680,-1.02473,4.48176,11.6809,0.365363,-0.241361,-0.347648,0
2024-12-11 14:44:04.682,-1.08455,4.47458,11.8173,0.367806,-0.252967,-0.34154,0
2024-12-11 14:44:04.687,-1.07976,4.40519,11.9201,0.372082,-0.268849,-0.325047,0
2024-12-11 14:44:04.687,-1.07976,4.40519,11.9201,0.372082,-0.268849,-0.325047,0
2024-12-11 14:44:04.689,-1.05344,4.39083,11.9465,0.371471,-0.273125,-0.320771,0
2024-12-11 14:44:04.692,-1.01994,4.36212,12.0063,0.373304,-0.27679,-0.31283,0
2024-12-11 14:44:04.694,-1.00558,4.32622,12.0855,0.372082,-0.279234,-0.307333,0
2024-12-11 14:44:04.696,-0.998405,4.28315,12.1525,0.369639,-0.283509,-0.301224,0
2024-12-11 14:44:04.698,-1.01755,4.23769,12.2267,0.367196,-0.287785,-0.296337,0
2024-12-11 14:44:04.701,-1.07976,4.2015,12.32,0.368417,-0.292672,-0.29084,0
2024-12-11 14:44:04.706,-1.17547,4.13211,12.5115,0.369639,-0.292672,-0.273736,0
2024-12-11 14:44:04.706,-1.17547,4.13211,12.5115,0.369639,-0.292672,-0.273736,0
2024-12-11 14:44:04.708,-1.2018,4.09861,12.6673,0.372693,-0.284731,-0.265184,0
2024-12-11 14:44:04.711,-1.20897,4.05554,12.8324,0.381245,-0.274347,-0.254189,0
2024-12-11 14:44:04.713,-1.20419,4.00768,12.9736,0.381245,-0.274347,-0.254189,0
2024-12-11 14:44:04.715,-1.18265,3.96939,13.1004,0.402014,-0.252356,-0.230977,0
2024-12-11 14:44:04.718,-1.16112,3.94786,13.2132,0.433778,-0.226701,-0.204099,0
2024-12-11 14:44:04.721,-1.17547,3.94307,13.2993,0.449049,-0.216316,-0.191272,0
2024-12-11 14:44:04.723,-1.21137,3.96222,13.3567,0.463099,-0.20471,-0.172946,0
2024-12-11 14:44:04.725,-1.26879,4.01246,13.3926,0.463099,-0.20471,-0.172946,0
2024-12-11 14:44:04.729,-1.44616,4.22812,13.4261,0.47837,-0.191272,-0.13935,0
2024-12-11 14:44:04.730,-1.44616,4.22812,13.4261,0.47837,-0.191272,-0.13935,0
2024-12-11 14:44:04.734,-1.63998,4.51526,13.3639,0.513188,-0.156453,-0.10331,0
2024-12-11 14:44:04.734,-1.63998,4.51526,13.3639,0.513188,-0.156453,-0.10331,0
2024-12-11 14:44:04.736,-1.65912,4.66361,13.3232,0.52174,-0.144847,-0.0862058,0
2024-12-11 14:44:04.739,-1.61845,4.79791,13.2491,0.525405,-0.136295,-0.0703238,0
2024-12-11 14:44:04.742,-1.58255,4.87448,13.2012,0.524183,-0.134463,-0.0507767,0
2024-12-11 14:44:04.743,-1.54188,4.94866,13.165,0.524183,-0.134463,-0.0507767,0
2024-12-11 14:44:04.746,-1.47248,5.01805,13.1052,0.524183,-0.134463,-0.0507767,0
2024-12-11 14:44:04.748,-1.39322,5.07069,13.0382,0.50769,-0.160118,-0.0355055,0
2024-12-11 14:44:04.753,-1.27597,5.15444,12.8228,0.47165,-0.199213,-0.0306187,0
2024-12-11 14:44:04.753,-1.11326,5.15444,12.8228,0.47165,-0.199213,-0.0306187,0
2024-12-11 14:44:04.755,-0.912264,5.1664,12.7702,0.444773,-0.226701,-0.033673,0
2024-12-11 14:44:04.757,-0.665504,5.17597,12.7391,0.41362,-0.259076,-0.0434465,0
2024-12-11 14:44:04.761,-0.421436,5.17119,12.7391,0.336653,-0.337264,-0.0788757,0
2024-12-11 14:44:04.762,-0.215354,5.19033,12.7558,0.336653,-0.337264,-0.0788757,0
2024-12-11 14:44:04.764,-0.0167498,5.21665,12.7534,0.336653,-0.337264,-0.0788757,0
2024-12-11 14:44:04.767,0.205783,5.2023,12.7511,0.24808,-0.438054,-0.127133,0
2024-12-11 14:44:04.769,0.442971,5.15922,12.7846,0.24808,-0.438054,-0.127133,0
2024-12-11 14:44:04.771,0.667897,5.08505,12.8587,0.148512,-0.532735,-0.189439,0
2024-12-11 14:44:04.775,0.878764,4.97737,12.9879,0.0489441,-0.603593,-0.265795,0
2024-12-11 14:44:04.777,1.07976,4.85534,13.153,0.00557398,-0.624973,-0.308554,0
2024-12-11 14:44:04.778,1.25683,4.70429,13.3424,0.00557398,-0.624973,-0.308554,0
2024-12-11 14:44:04.783,1.63759,4.37887,13.7806,-0.0762796,-0.640855,-0.391629,0
2024-12-11 14:44:04.784,1.41027,4.52483,13.5649,-0.103157,-0.628638,-0.438054,0
2024-12-11 14:44:04.787,1.84576,4.22572,13.9576,-0.103157,-0.628638,-0.438054,0
2024-12-11 14:44:04.788,1.89601,3.99332,14.1132,-0.129423,-0.602372,-0.480202,0
2024-12-11 14:44:04.790,1.85294,3.75404,14.2567,-0.144694,-0.563888,-0.519907,0
2024-12-11 14:44:04.793,1.75723,3.51446,14.3767,-0.161187,-0.511356,-0.553504,1
2024-12-11 14:44:04.796,1.65434,3.2345,14.4628,-0.169128,-0.446606,-0.580992,0
2024-12-11 14:44:04.797,1.51555,2.91835,14.5537,-0.172793,-0.364752,-0.605426,0
2024-12-11 14:44:04.800,1.3334,2.60728,14.6519,-0.17035,-0.26213,-0.623141,0
2024-12-11 14:44:04.803,1.13719,2.31506,14.7117,-0.14164,-0.0312296,-0.640855,0
2024-12-11 14:44:04.805,0.936192,2.05185,14.7284,-0.14164,-0.0312296,-0.640855,0
2024-12-11 14:44:04.807,0.658325,1.84337,14.6973,-0.118428,0.0860531,-0.637801,0
2024-12-11 14:44:04.809,0.32333,1.69023,14.6016,-0.090329,0.202114,-0.624362,0
2024-12-11 14:44:04.811,-0.0287139,1.57777,14.4293,-0.0610084,0.31451,-0.604815,0
2024-12-11 14:44:04.814,-0.380758,1.47009,14.1778,-0.0298552,0.428128,-0.574273,0
2024-12-11 14:44:04.818,-1.02951,1.23051,13.5338,0.0281753,0.646811,-0.494863,0
2024-12-11 14:44:04.819,-1.02951,1.23051,13.5338,0.0281753,0.646811,-0.494863,0
2024-12-11 14:44:04.821,-1.31904,1.12044,13.2036,0.057496,0.746379,-0.444773,0
2024-12-11 14:44:04.824,-1.53948,1.02473,12.8731,0.100866,0.919936,-0.338486,0
2024-12-11 14:44:04.827,-1.72373,0.94337,12.5354,0.120413,0.993238,-0.285342,0
2024-12-11 14:44:04.828,-1.87448,0.869193,12.2267,0.120413,0.993238,-0.285342,0
2024-12-11 14:44:04.831,-1.99442,0.816252,11.9489,0.138128,1.05371,-0.234031,0
2024-12-11 14:44:04.833,-2.10209,0.777966,11.6641,0.156453,1.10319,-0.179665,0
2024-12-11 14:44:04.835,-2.21216,0.739681,11.3599,0.156453,1.10319,-0.179665,0
2024-12-11 14:44:04.838,-2.28395,0.734896,11.0417,0.185163,1.16489,-0.0752106,0
2024-12-11 14:44:04.841,-2.29113,0.756431,10.7279,0.196158,1.17771,-0.0251211,0
2024-12-11 14:44:04.842,-2.2672,0.785145,10.4623,0.204099,1.1826,0.022525,0
2024-12-11 14:44:04.844,-2.24806,0.818644,10.2491,0.21143,1.18077,0.0671168,0
2024-12-11 14:44:04.848,-2.21216,0.871586,10.0457,0.223036,1.15145,0.143473,0
2024-12-11 14:44:04.850,-2.15474,0.931406,9.86621,0.231587,1.12213,0.175237,0
2024-12-11 14:44:04.851,-2.07817,0.962513,9.72234,0.231587,1.12213,0.175237,0
2024-12-11 14:44:04.855,-1.99681,1.00798,9.57638,0.237696,1.08914,0.207001,0
2024-12-11 14:44:04.857,-1.9657,1.08694,9.48545,0.247469,1.05005,0.232656,0
2024-12-11 14:44:04.859,-1.91516,1.14915,9.41606,0.247469,1.05005,0.232656,0
2024-12-11 14:44:04.861,-1.74766,1.1659,9.25544,0.26946,0.960863,0.273583,0
2024-12-11 14:44:04.863,-1.55623,1.16351,9.07358,0.279234,0.901611,0.287633,0
2024-12-11 14:44:04.866,-1.42941,1.18983,8.95394,0.285342,0.832585,0.298017,0
2024-12-11 14:44:04.868,-1.35015,1.22094,8.89412,0.291451,0.753709,0.306569,0
2024-12-11 14:44:04.870,-1.28076,1.24965,8.85584,0.29817,0.671245,0.312067,0
2024-12-11 14:44:04.873,-1.18983,1.29272,8.81037,0.3055,0.584504,0.316953,0
2024-12-11 14:44:04.875,-1.07498,1.35972,8.74098,0.309165,0.495932,0.319397,0
2024-12-11 14:44:04.878,-0.938585,1.42941,8.66411,0.311608,0.409802,0.318175,0
2024-12-11 14:44:04.880,-0.794716,1.47966,8.60429,0.316495,0.320618,0.312067,0
2024-12-11 14:44:04.883,-0.646361,1.54427,8.58754,0.321382,0.131867,0.293741,0
2024-12-11 14:44:04.884,-0.493221,1.60887,8.61625,0.321382,0.131867,0.293741,0
2024-12-11 14:44:04.888,-0.352044,1.64716,8.63779,0.322604,-0.0599394,0.268086,0
2024-12-11 14:44:04.890,-0.184247,1.67587,8.61625,0.317106,-0.157675,0.24976,0
2024-12-11 14:44:04.891,-0.0119641,1.71177,8.61865,0.317106,-0.157675,0.24976,0
2024-12-11 14:44:04.894,0.165105,1.73091,8.69522,0.313441,-0.244415,0.225326,0
2024-12-11 14:44:04.899,0.337687,1.75962,8.94437,0.315274,-0.385521,0.175237,0
2024-12-11 14:44:04.900,0.486042,1.75962,8.94437,0.315274,-0.385521,0.175237,0
2024-12-11 14:44:04.903,0.725324,1.76441,9.15494,0.328712,-0.488754,0.117817,0
2024-12-11 14:44:04.903,0.725324,1.76441,9.15494,0.328712,-0.488754,0.117817,0
2024-12-11 14:44:04.906,0.82343,1.77159,9.18365,0.335431,-0.529681,0.0915507,0
2024-12-11 14:44:04.909,0.902692,1.76919,9.1669,0.342151,-0.598096,0.038407,0
2024-12-11 14:44:04.910,0.962513,1.74287,9.11665,0.342151,-0.598096,0.038407,0
2024-12-11 14:44:04.913,0.998405,1.70698,9.04248,0.340318,-0.619475,0.0133623,0
2024-12-11 14:44:04.915,1.00558,1.69023,8.93719,0.334821,-0.636579,-0.00984991,0
2024-12-11 14:44:04.917,1.0008,1.68305,8.85344,0.32749,-0.650018,-0.033673,0
2024-12-11 14:44:04.921,0.969691,1.68066,8.79602,0.309165,-0.659181,-0.0672696,0
2024-12-11 14:44:04.922,0.921835,1.69741,8.76491,0.309165,-0.659181,-0.0672696,0
2024-12-11 14:44:04.925,0.88355,1.6998,8.74098,0.296337,-0.656737,-0.0800973,0
2024-12-11 14:44:04.927,0.852443,1.70698,8.70509,0.284731,-0.643909,-0.0929251,0
2024-12-11 14:44:04.929,0.816252,1.72612,8.65933,0.270071,-0.628638,-0.0990336,0
2024-12-11 14:44:04.932,0.782752,1.7333,8.58036,0.261519,-0.606648,-0.105142,0
2024-12-11 14:44:04.934,0.751645,1.74527,8.50619,0.246248,-0.574884,-0.11064,0
2024-12-11 14:44:04.937,0.722932,1.74287,8.44636,0.223036,-0.496695,-0.111251,0
2024-12-11 14:44:04.940,0.71336,1.73569,8.37219,0.21143,-0.449049,-0.108807,0
2024-12-11 14:44:04.941,0.699003,1.74527,8.28365,0.21143,-0.449049,-0.108807,0
2024-12-11 14:44:04.944,0.675075,1.76919,8.20708,0.18272,-0.342762,-0.102699,0
2024-12-11 14:44:04.946,0.641576,1.79791,8.12782,0.18272,-0.342762,-0.102699,0
2024-12-11 14:44:04.948,0.576969,1.82184,8.04646,0.17539,-0.285342,-0.0965902,0
2024-12-11 14:44:04.951,0.512363,1.85294,7.95075,0.160729,-0.226701,-0.0892601,0
2024-12-11 14:44:04.954,0.469292,1.88883,7.84068,0.13996,-0.108807,-0.0678804,0
2024-12-11 14:44:04.955,0.431007,1.94626,7.7354,0.13996,-0.108807,-0.0678804,0
2024-12-11 14:44:04.957,0.392722,1.99202,7.61815,0.126522,-0.0519984,-0.0550526,0
2024-12-11 14:44:04.960,0.342473,2.01356,7.47428,0.114305,0.00358873,-0.0428357,0
2024-12-11 14:44:04.962,0.253639,2.05424,7.34507,0.10392,0.0548999,-0.0263428,0
2024-12-11 14:44:04.964,0.16989,2.08774,7.24696,0.0892601,0.109265,-0.0116825,0
2024-12-11 14:44:04.967,0.196211,2.11167,7.07946,0.077654,0.160576,0.00603212,0
2024-12-11 14:44:04.970,0.308973,2.15234,6.87099,0.0648262,0.203336,0.022525,0
2024-12-11 14:44:04.972,0.407079,2.2002,6.71067,0.0483333,0.240597,0.0347419,0
2024-12-11 14:44:04.974,0.45015,2.24327,6.60299,0.0300079,0.271751,0.0445155,0
2024-12-11 14:44:04.976,0.442971,2.27916,6.51925,0.0153475,0.298017,0.0500131,0
2024-12-11 14:44:04.980,0.431007,2.33659,6.44477,-0.0151948,0.346274,0.0646735,0
2024-12-11 14:44:04.983,0.387936,2.46341,6.31556,-0.0255792,0.370708,0.0683385,0
2024-12-11 14:44:04.983,0.387936,2.46341,6.31556,-0.0255792,0.370708,0.0683385,0
2024-12-11 14:44:04.986,0.440578,2.50887,6.21745,-0.0359636,0.389644,0.0707819,0
2024-12-11 14:44:04.988,0.514756,2.55703,6.12413,-0.0475697,0.404305,0.0726145,0
2024-12-11 14:44:04.991,0.572184,2.58814,6.0691,-0.0561216,0.411635,0.0713928,0
2024-12-11 14:44:04.993,0.615255,2.61924,6.0356,-0.0640626,0.417743,0.0677277,0
2024-12-11 14:44:04.996,0.639183,2.65274,6.03081,-0.0683385,0.420187,0.0616192,0
2024-12-11 14:44:04.997,0.648754,2.67667,6.0332,-0.0713928,0.419576,0.0561216,0
2024-12-11 14:44:05.000,0.634397,2.7006,6.01885,-0.0750579,0.4153,0.0500131,0
2024-12-11 14:44:05.002,0.60329,2.71017,6.02124,-0.0738362,0.411024,0.0414613,0
2024-12-11 14:44:05.005,0.574577,2.72692,6.02124,-0.0689494,0.404305,0.0359636,0
2024-12-11 14:44:05.008,0.56022,2.74128,5.99731,-0.0567324,0.387812,0.0255792,0
2024-12-11 14:44:05.012,0.524327,2.77238,5.95424,-0.0481806,0.378038,0.0213033,0
2024-12-11 14:44:05.012,0.524327,2.77238,5.95424,-0.0481806,0.378038,0.0213033,0
2024-12-11 14:44:05.014,0.519542,2.78435,5.94706,-0.0365745,0.365821,0.0164165,0
2024-12-11 14:44:05.016,0.50997,2.79631,5.92074,-0.0261901,0.349328,0.0109189,0
2024-12-11 14:44:05.019,0.486042,2.80828,5.87498,-0.0170274,0.329781,0.00664296,0
2024-12-11 14:44:05.021,0.459721,2.81306,5.82712,-0.00542127,0.309623,0.00419957,0
2024-12-11 14:44:05.023,0.435793,2.81306,5.79362,0.00557398,0.285189,0.000534491,0
2024-12-11 14:44:05.026,0.404686,2.8011,5.77209,0.0153475,0.257701,-0.00496313,0
2024-12-11 14:44:05.028,0.383151,2.80828,5.73619,0.0251211,0.225937,-0.0116825,0
2024-12-11 14:44:05.030,0.349651,2.82263,5.72423,0.0251211,0.225937,-0.0116825,0
2024-12-11 14:44:05.034,0.301795,2.81545,5.73619,0.0544418,0.136753,-0.029397,0
2024-12-11 14:44:05.036,0.270389,2.82263,5.75055,0.0544418,0.136753,-0.029397,0
2024-12-11 14:44:05.037,0.234497,2.8322,5.75294,0.0672696,0.106822,-0.0348946,0
2024-12-11 14:44:05.040,0.18664,2.84895,5.73859,0.0782648,0.0781121,-0.0385597,0
2024-12-11 14:44:05.042,0.145962,2.87049,5.73619,0.0898709,0.0512348,-0.0452791,0
2024-12-11 14:44:05.045,0.105284,2.88485,5.76012,0.101477,0.0237467,-0.0513875,0
2024-12-11 14:44:05.047,0.0646062,2.8992,5.77687,0.113083,-0.00251974,-0.0532201,0
2024-12-11 14:44:05.049,0.026321,2.9016,5.76252,0.124078,-0.0257319,-0.0587177,0
2024-12-11 14:44:05.053,-0.0143569,2.9016,5.74337,0.136906,-0.0471116,-0.0629936,0
2024-12-11 14:44:05.054,-0.0550349,2.92552,5.72902,0.143625,-0.0611611,-0.0642153,0
2024-12-11 14:44:05.056,-0.081356,2.94227,5.70269,0.150345,-0.0752106,-0.0678804,0
2024-12-11 14:44:05.059,-0.102891,2.94706,5.67159,0.154621,-0.0843733,-0.0721563,0
2024-12-11 14:44:05.061,-0.133998,2.96142,5.6357,0.159507,-0.0917034,-0.0721563,0
2024-12-11 14:44:05.064,-0.177069,2.98295,5.59023,0.160118,-0.0972011,-0.0752106,0
2024-12-11 14:44:05.066,-0.22014,3.00927,5.53998,0.157064,-0.100255,-0.0788757,0
2024-12-11 14:44:05.069,-0.272782,3.03559,5.48734,0.149123,-0.102699,-0.0819299,0
2024-12-11 14:44:05.070,-0.332901,3.05952,5.43709,0.137517,-0.106364,-0.0831516,0
2024-12-11 14:44:05.074,-0.404686,3.08584,5.38924,0.105753,-0.111251,-0.0849841,0
2024-12-11 14:44:05.076,-0.462114,3.12443,5.33659,0.0843733,-0.111861,-0.0843733,0
2024-12-11 14:44:05.077,-0.512363,3.14596,5.30519,0.0843733,-0.111861,-0.0843733,0
2024-12-11 14:44:05.080,-0.545863,3.15793,5.34138,0.0617719,-0.107585,-0.0825407,0
2024-12-11 14:44:05.083,-0.557827,3.19621,5.42752,0.0190126,-0.0917034,-0.0819299,0
2024-12-11 14:44:05.087,-0.639183,3.26082,5.61416,-0.000534491,-0.0843733,-0.0800973,0
2024-12-11 14:44:05.087,-0.639183,3.26082,5.61416,-0.000534491,-0.0843733,-0.0800973,0
2024-12-11 14:44:05.090,-0.689432,3.28714,5.69073,-0.0213033,-0.0770431,-0.077654,0
2024-12-11 14:44:05.092,-0.739681,3.31585,5.77687,-0.0414613,-0.0715455,-0.0752106,0
2024-12-11 14:44:05.096,-0.828216,3.3685,5.9662,-0.0793338,-0.0629936,-0.0672696,0
2024-12-11 14:44:05.097,-0.828216,3.3685,5.9662,-0.0793338,-0.0629936,-0.0672696,0
2024-12-11 14:44:05.100,-0.85005,3.38046,6.07388,-0.120871,-0.0648262,-0.0611611,0
2024-12-11 14:44:05.101,-0.845265,3.38525,6.17677,-0.120871,-0.0648262,-0.0611611,0
2024-12-11 14:44:05.103,-0.825823,3.37328,6.29402,-0.140419,-0.0672696,-0.0562743,0
2024-12-11 14:44:05.106,-0.792323,3.35414,6.44716,-0.158744,-0.0709346,-0.0556635,0
2024-12-11 14:44:05.109,-0.766002,3.34935,6.60778,-0.194784,-0.0849841,-0.0507767,0
2024-12-11 14:44:05.110,-0.749253,3.34457,6.77767,-0.194784,-0.0849841,-0.0507767,0
2024-12-11 14:44:05.113,-0.710967,3.335,6.96431,-0.211888,-0.0947577,-0.0489441,0
2024-12-11 14:44:05.116,-0.689432,3.34457,7.14646,-0.232656,-0.118581,-0.0471116,0
2024-12-11 14:44:05.118,-0.660718,3.35414,7.32832,-0.232656,-0.118581,-0.0471116,0
2024-12-11 14:44:05.120,-0.615255,3.35414,7.51974,-0.240597,-0.132019,-0.0471116,0
2024-12-11 14:44:05.122,-0.574577,3.35653,7.72104,-0.247317,-0.146069,-0.0489441,0
2024-12-11 14:44:05.125,-0.536291,3.37328,7.91247,-0.251593,-0.159507,-0.0519984,0
2024-12-11 14:44:05.128,-0.500399,3.36371,8.09911,-0.255869,-0.188828,-0.0526092,0
2024-12-11 14:44:05.130,-0.471685,3.34457,8.29562,-0.25709,-0.202267,-0.0556635,0
2024-12-11 14:44:05.132,-0.445364,3.34218,8.47508,-0.25709,-0.202267,-0.0556635,0
2024-12-11 14:44:05.135,-0.428614,3.335,8.65215,-0.247928,-0.231587,-0.057496,0
2024-12-11 14:44:05.137,-0.419043,3.335,8.82952,-0.247928,-0.231587,-0.057496,0
2024-12-11 14:44:05.139,-0.426222,3.33021,9.02094,-0.241208,-0.24808,-0.0593285,0
2024-12-11 14:44:05.141,-0.442971,3.32543,9.21955,-0.234489,-0.26213,-0.0562743,0
2024-12-11 14:44:05.144,-0.481256,3.33739,9.40648,-0.224715,-0.276179,-0.0568851,0
2024-12-11 14:44:05.146,-0.536291,3.3326,9.58595,-0.212498,-0.292061,-0.0550526,0
2024-12-11 14:44:05.149,-0.562612,3.32064,9.76541,-0.178902,-0.310998,-0.0458899,0
2024-12-11 14:44:05.151,-0.572184,3.31107,9.9667,-0.178902,-0.310998,-0.0458899,0
2024-12-11 14:44:05.153,-0.588933,3.29671,10.1749,-0.161798,-0.320771,-0.0397814,0
2024-12-11 14:44:05.155,-0.615255,3.28714,10.3519,-0.161798,-0.320771,-0.0397814,0
2024-12-11 14:44:05.158,-0.63679,3.27278,10.5245,-0.114152,-0.32749,-0.0226777,0
2024-12-11 14:44:05.161,-0.641576,3.2656,10.6753,-0.0573433,-0.314052,-0.0019089,0
2024-12-11 14:44:05.163,-0.629611,3.24885,10.7997,-0.0316877,-0.309165,0.00908635,0
2024-12-11 14:44:05.165,-0.440578,3.19621,10.7782,-0.0316877,-0.309165,0.00908635,0
2024-12-11 14:44:05.168,-0.368794,3.17228,10.8093,0.0190126,-0.290229,0.0280226,0
2024-12-11 14:44:05.170,-0.591326,3.21536,11.0632,0.0190126,-0.290229,0.0280226,0
2024-12-11 14:44:05.173,-0.785145,3.27039,11.2594,0.0477224,-0.265184,0.0420721,0
2024-12-11 14:44:05.174,-0.876371,3.32782,11.2857,0.081319,-0.232198,0.0610084,0
2024-12-11 14:44:05.176,-0.885943,3.37807,11.1924,0.113083,-0.195547,0.0805555,0
2024-12-11 14:44:05.179,-0.830609,3.40439,11.0919,0.141793,-0.160729,0.100103,0
2024-12-11 14:44:05.181,-0.770788,3.40678,11.0465,0.167449,-0.121024,0.11965,0
2024-12-11 14:44:05.184,-0.770788,3.42353,11.0632,0.189439,-0.0849841,0.139808,0
2024-12-11 14:44:05.186,-0.780359,3.44985,11.0776,0.21143,-0.0532201,0.158744,0
2024-12-11 14:44:05.189,-0.766002,3.47857,11.0345,0.246859,0.0096972,0.194173,0
2024-12-11 14:44:05.191,-0.780359,3.50728,10.9289,0.246859,0.0096972,0.194173,0
2024-12-11 14:44:05.194,-0.811466,3.53839,10.7782,0.268849,0.0701711,0.232656,0
2024-12-11 14:44:05.196,-0.825823,3.58864,10.6466,0.274347,0.102546,0.250371,0
2024-12-11 14:44:05.198,-0.842872,3.65593,10.5389,0.274347,0.102546,0.250371,0
2024-12-11 14:44:05.200,-0.862014,3.72054,10.4384,0.275568,0.133088,0.269918,0
2024-12-11 14:44:05.203,-0.88355,3.78036,10.3424,0.276179,0.189897,0.302293,0
2024-12-11 14:44:05.205,-0.885943,3.84257,10.2658,0.276179,0.189897,0.302293,0
2024-12-11 14:44:05.207,-0.895514,3.91197,10.2084,0.271903,0.21372,0.320618,0
2024-12-11 14:44:05.209,-0.9003,3.97897,10.139,0.268238,0.236932,0.334668,0
2024-12-11 14:44:05.212,-0.893121,4.034,10.0744,0.259686,0.257701,0.346274,0
2024-12-11 14:44:05.214,-0.885943,4.09861,10.0385,0.251135,0.276027,0.356658,0
2024-12-11 14:44:05.216,-0.869193,4.14886,10.0241,0.24075,0.292519,0.368875,0
2024-12-11 14:44:05.219,-0.845265,4.17278,10.0074,0.23342,0.308401,0.376206,0
2024-12-11 14:44:05.221,-0.830609,4.1991,10.0241,0.224868,0.319397,0.384147,0
2024-12-11 14:44:05.223,-0.82343,4.22333,10.0696,0.21204,0.328559,0.389644,0
2024-12-11 14:44:05.226,-0.818644,4.24965,10.1151,0.202878,0.3365,0.397585,0
2024-12-11 14:44:05.228,-0.797109,4.26162,10.1701,0.193104,0.340166,0.402472,0
2024-12-11 14:44:05.232,-0.768395,4.26401,10.2323,0.180276,0.338944,0.411024,0
2024-12-11 14:44:05.233,-0.754038,4.27837,10.2873,0.180276,0.338944,0.411024,0
2024-12-11 14:44:05.236,-0.74686,4.29033,10.3496,0.16867,0.331003,0.413467,0
2024-12-11 14:44:05.238,-0.754038,4.27837,10.424,0.16867,0.331003,0.413467,0
2024-12-11 14:44:05.240,-0.754038,4.24487,10.4886,0.167449,0.324284,0.415911,0
2024-12-11 14:44:05.242,-0.74686,4.22333,10.5772,0.166838,0.315121,0.418965,0
2024-12-11 14:44:05.247,-0.703789,4.14407,10.8236,0.171724,0.293741,0.425684,0
2024-12-11 14:44:05.248,-0.703789,4.14407,10.8236,0.177833,0.283968,0.429349,0
2024-12-11 14:44:05.249,-0.663111,4.08664,10.9843,0.177833,0.283968,0.429349,0
2024-12-11 14:44:05.253,-0.60329,4.02443,11.1613,0.21204,0.268086,0.428738,0
2024-12-11 14:44:05.255,-0.54347,3.97179,11.3527,0.234031,0.263199,0.431793,0
2024-12-11 14:44:05.256,-0.498006,3.92872,11.5229,0.234031,0.263199,0.431793,0
2024-12-11 14:44:05.259,-0.452543,3.88804,11.645,0.257854,0.260755,0.433625,0
2024-12-11 14:44:05.261,-0.421436,3.85693,11.7526,0.284731,0.263199,0.436679,0
2024-12-11 14:44:05.263,-0.423829,3.82343,11.8244,0.314663,0.265031,0.442788,0
2024-12-11 14:44:05.266,-0.438186,3.77079,11.8531,0.345816,0.273583,0.449507,0
2024-12-11 14:44:05.269,-0.459721,3.72772,11.8675,0.375747,0.283968,0.45867,0
2024-12-11 14:44:05.271,-0.514756,3.70858,11.8603,0.410566,0.304126,0.469665,0
2024-12-11 14:44:05.274,-0.62004,3.73729,11.834,0.470429,0.34322,0.50204,0
2024-12-11 14:44:05.275,-0.794716,3.7995,11.8029,0.470429,0.34322,0.50204,0
2024-12-11 14:44:05.278,-1.02473,3.88804,11.7503,0.497306,0.367654,0.524031,0
2024-12-11 14:44:05.281,-1.25444,3.99093,11.6234,0.524794,0.390866,0.547243,0
2024-12-11 14:44:05.283,-1.43181,4.10818,11.4652,0.54373,0.411635,0.574731,0
2024-12-11 14:44:05.285,-1.6017,4.25922,11.3025,0.560223,0.433625,0.604662,0
2024-12-11 14:44:05.288,-1.78594,4.42433,11.1015,0.569997,0.452561,0.632151,0
2024-12-11 14:44:05.289,-1.94626,4.59901,10.8835,0.57244,0.471498,0.66025,0
2024-12-11 14:44:05.292,-2.07817,4.7689,10.6514,0.567553,0.489823,0.688959,0
2024-12-11 14:44:05.294,-2.18584,4.91755,10.4264,0.554726,0.504483,0.712172,0
2024-12-11 14:44:05.296,-2.27199,5.05394,10.2443,0.533957,0.512424,0.736071,0
2024-12-11 14:44:05.299,-2.30788,5.18076,10.1007,0.504636,0.511814,0.758061,0
2024-12-11 14:44:05.301,-2.28873,5.32433,10.0098,0.469818,0.495321,0.773333,0
2024-12-11 14:44:05.304,-2.24566,5.47538,9.94756,0.430724,0.466,0.781884,0
2024-12-11 14:44:05.306,-2.16431,5.61177,9.89013,0.382467,0.418965,0.78616,0
2024-12-11 14:44:05.308,-2.0016,5.71705,9.81566,0.328101,0.346885,0.782495,0
2024-12-11 14:44:05.313,-1.43181,5.8343,9.69362,0.180887,0.150803,0.747677,0
2024-12-11 14:44:05.313,-1.43181,5.8343,9.69362,0.180887,0.150803,0.747677,0
2024-12-11 14:44:05.316,-1.36451,6.02602,9.68645,0.0941468,0.0365745,0.720723,0
2024-12-11 14:44:05.318,-1.18983,6.15524,9.79891,-0.00358873,-0.0917034,0.690181,0
2024-12-11 14:44:05.323,-0.409472,6.02602,10.4958,-0.205779,-0.389797,0.608938,0
2024-12-11 14:44:05.323,-0.409472,6.02602,10.4958,-0.205779,-0.389797,0.608938,0
2024-12-11 14:44:05.325,0.0622134,5.76491,10.9843,-0.303515,-0.555337,0.555795,0
2024-12-11 14:44:05.327,0.519542,5.42991,11.5636,-0.395753,-0.722098,0.496542,0
2024-12-11 14:44:05.329,0.952942,5.08026,12.2363,-0.475163,-0.882751,0.432404,0
2024-12-11 14:44:05.333,1.34297,4.74018,13.0214,-0.591224,-1.17351,0.302293,0
2024-12-11 14:44:05.335,1.66869,4.40758,13.8882,-0.591224,-1.17351,0.302293,0
2024-12-11 14:44:05.336,1.88883,4.12493,14.7882,-0.623599,-1.29691,0.2351,0
2024-12-11 14:44:05.339,1.9343,3.91436,15.6981,-0.633372,-1.39708,0.177069,0
2024-12-11 14:44:05.342,2.02074,3.65593,16.5721,-0.622377,-1.47711,0.128202,0
2024-12-11 14:44:05.344,2.35573,3.29193,17.3788,-0.592445,-1.53819,0.0787229,0
2024-12-11 14:44:05.346,2.64078,2.87049,18.2166,-0.541134,-1.57301,0.0286335,0
2024-12-11 14:44:05.349,2.76042,2.3988,19.0355,-0.371319,-1.53941,-0.0605502,0
2024-12-11 14:44:05.352,2.80588,1.92233,19.6125,-0.26381,-1.47527,-0.0972011,1
2024-12-11 14:44:05.353,2.77478,1.47488,19.9188,-0.26381,-1.47527,-0.0972011,0
2024-12-11 14:44:05.356,2.69581,1.0654,20.0435,-0.14836,-1.38487,-0.128354,0
2024-12-11 14:44:05.358,2.54507,0.715753,20.0698,-0.0243575,-1.2682,-0.152177,0
2024-12-11 14:44:05.361,2.34616,0.442971,20.0172,0.100866,-1.13442,-0.165616,0
2024-12-11 14:44:05.363,2.07099,0.239282,19.8494,0.227922,-0.986595,-0.169892,0
2024-12-11 14:44:05.365,1.68544,0.141177,19.5622,0.350092,-0.831439,-0.163173,0
2024-12-11 14:44:05.367,1.2018,0.155533,19.1264,0.475926,-0.663456,-0.141793,0
2024-12-11 14:44:05.369,0.615255,0.234497,18.5423,0.588933,-0.496695,-0.108196,0
2024-12-11 14:44:05.372,0.0143569,0.349651,17.8385,0.692777,-0.325047,-0.0599394,0
2024-12-11 14:44:05.374,-0.521934,0.469292,16.9789,0.781961,-0.155232,-0.00129805,0
2024-12-11 14:44:05.377,-0.96012,0.548256,16.0071,0.85343,0.0096972,0.0646735,0
2024-12-11 14:44:05.380,-1.2018,0.605683,15.0111,0.931008,0.30718,0.196006,0
2024-12-11 14:44:05.384,-1.12044,0.734896,13.2227,0.94689,0.442177,0.251593,0
2024-12-11 14:44:05.384,-1.12044,0.734896,13.2227,0.94689,0.442177,0.251593,0
2024-12-11 14:44:05.386,-1.03908,0.816252,12.4301,0.9475,0.562514,0.296185,0
2024-12-11 14:44:05.388,-0.897907,0.85005,11.6689,0.928564,0.666358,0.331003,0
2024-12-11 14:44:05.391,-0.768395,0.931406,10.9337,0.898022,0.756153,0.353604,0
2024-12-11 14:44:05.393,-0.864407,1.14197,10.1892,0.854041,0.842969,0.373762,0
2024-12-11 14:44:05.396,-1.04626,1.37886,9.47588,0.793567,0.922379,0.394531,0
2024-12-11 14:44:05.398,-1.1659,1.64477,8.87498,0.726374,0.990183,0.416521,0
2024-12-11 14:44:05.400,-1.22094,1.91994,8.38415,0.726374,0.990183,0.416521,0
2024-12-11 14:44:05.402,-1.2664,2.1667,7.93639,0.562667,1.07387,0.453172,0
2024-12-11 14:44:05.405,-1.29751,2.3988,7.54367,0.465542,1.08792,0.468443,0
2024-12-11 14:44:05.407,-1.27597,2.58096,7.25414,0.36292,1.08364,0.476385,0
2024-12-11 14:44:05.410,-1.21615,2.71496,7.04118,0.255411,1.06104,0.479439,0
2024-12-11 14:44:05.412,-1.12762,2.8346,6.92602,0.14668,1.02622,0.479439,0
2024-12-11 14:44:05.415,-1.00798,2.9327,6.90928,0.0379489,0.98041,0.470887,0
2024-12-11 14:44:05.417,-0.869193,2.99252,6.9356,-0.0701711,0.929099,0.456227,0
2024-12-11 14:44:05.419,-0.715753,3.03559,7.04118,-0.17035,0.870457,0.434236,0
2024-12-11 14:44:05.422,-0.555434,3.07388,7.22543,-0.267475,0.80754,0.404915,0
2024-12-11 14:44:05.425,-0.392722,3.08854,7.47428,-0.431793,0.668191,0.328559,0
2024-12-11 14:44:05.426,-0.212961,3.05713,7.80479,-0.431793,0.668191,0.328559,0
2024-12-11 14:44:05.429,-0.0191426,2.97338,8.20948,-0.497153,0.596721,0.279692,0
2024-12-11 14:44:05.431,0.141177,2.8681,8.65454,-0.550297,0.520976,0.227159,0
2024-12-11 14:44:05.434,0.246461,2.76521,9.1023,-0.618101,0.369486,0.114152,0
2024-12-11 14:44:05.435,0.299402,2.65274,9.56441,-0.618101,0.369486,0.114152,0
2024-12-11 14:44:05.438,0.30658,2.52832,10.0241,-0.632761,0.299239,0.058565,0
2024-12-11 14:44:05.440,0.253639,2.40598,10.4432,-0.635816,0.230824,0.00358873,0
2024-12-11 14:44:05.445,0.0646062,2.10209,11.135,-0.61016,0.110487,-0.085595,0
2024-12-11 14:44:05.445,0.0646062,2.10209,11.135,-0.61016,0.110487,-0.085595,0
2024-12-11 14:44:05.447,-0.0765703,1.89841,11.348,-0.58817,0.0567324,-0.121024,0
2024-12-11 14:44:05.450,-0.224925,1.68784,11.5062,-0.560071,0.00664296,-0.147291,0
2024-12-11 14:44:05.452,-0.361615,1.49641,11.6067,-0.530139,-0.0385597,-0.165616,0
2024-12-11 14:44:05.454,-0.495613,1.32144,11.6785,-0.499597,-0.0788757,-0.178444,0
2024-12-11 14:44:05.457,-0.624826,1.1683,11.7598,-0.469054,-0.11797,-0.185163,0
2024-12-11 14:44:05.459,-0.777966,1.01276,11.8436,-0.435458,-0.147291,-0.186996,0
2024-12-11 14:44:05.461,-0.955334,0.895514,11.8962,-0.402472,-0.16867,-0.182109,0
2024-12-11 14:44:05.464,-1.12283,0.816252,11.9441,-0.368265,-0.180887,-0.170503,0
2024-12-11 14:44:05.466,-1.29751,0.742074,11.9656,-0.32917,-0.180887,-0.152177,0
2024-12-11 14:44:05.469,-1.47009,0.672682,11.956,-0.286411,-0.171114,-0.128965,0
2024-12-11 14:44:05.471,-1.58734,0.622433,11.9201,-0.286411,-0.171114,-0.128965,0
2024-12-11 14:44:05.473,-1.68066,0.576969,11.8268,-0.205779,-0.128965,-0.065437,0
2024-12-11 14:44:05.475,-1.76919,0.529113,11.7144,-0.167907,-0.0965902,-0.029397,0
2024-12-11 14:44:05.478,-1.83859,0.490828,11.5923,-0.129423,-0.0599394,0.010308,0
2024-12-11 14:44:05.481,-1.90319,0.462114,11.4221,-0.0646735,0.0176382,0.0939941,0
2024-12-11 14:44:05.482,-1.96062,0.435793,11.2092,-0.0646735,0.0176382,0.0939941,0
2024-12-11 14:44:05.487,-2.0351,0.493221,10.7375,-0.0164165,0.0988809,0.182567,0
2024-12-11 14:44:05.487,-2.0351,0.493221,10.7375,-0.0164165,0.0988809,0.182567,0
2024-12-11 14:44:05.490,-2.04945,0.548256,10.4599,0.00129805,0.136143,0.228381,0
2024-12-11 14:44:05.492,-2.04706,0.608076,10.1845,0.0141258,0.172183,0.272362,0
2024-12-11 14:44:05.497,-1.98245,0.727717,9.68884,0.0232886,0.233267,0.355437,0
2024-12-11 14:44:05.497,-1.98245,0.727717,9.68884,0.0232886,0.233267,0.355437,0
2024-12-11 14:44:05.500,-1.92233,0.773181,9.48784,0.0232886,0.260145,0.392698,0
2024-12-11 14:44:05.501,-1.82901,0.837787,9.31316,0.0184018,0.281524,0.424462,0
2024-12-11 14:44:05.504,-1.69262,0.912264,9.14058,0.0110716,0.304126,0.453172,0
2024-12-11 14:44:05.506,-1.56341,0.984048,8.99701,0.00496313,0.323673,0.476995,0
2024-12-11 14:44:05.508,-1.44377,1.05823,8.8678,-0.00358873,0.342609,0.496542,0
2024-12-11 14:44:05.512,-1.34536,1.13001,8.74816,-0.0255792,0.370708,0.526474,0
2024-12-11 14:44:05.513,-1.27837,1.20419,8.64975,-0.0255792,0.370708,0.526474,0
2024-12-11 14:44:05.515,-1.21137,1.28076,8.55883,-0.0359636,0.378649,0.535637,0
2024-12-11 14:44:05.519,-1.15633,1.35733,8.49183,-0.0548999,0.382314,0.547854,0
2024-12-11 14:44:05.520,-1.11805,1.41745,8.44636,-0.0548999,0.382314,0.547854,0
2024-12-11 14:44:05.523,-1.05823,1.47966,8.40808,-0.0548999,0.382314,0.547854,0
2024-12-11 14:44:05.525,-0.991227,1.52991,8.37937,-0.074447,0.371319,0.553962,0
2024-12-11 14:44:05.527,-0.940978,1.5658,8.3674,-0.074447,0.371319,0.553962,0
2024-12-11 14:44:05.530,-0.919442,1.62323,8.3674,-0.086664,0.351161,0.554573,0
2024-12-11 14:44:05.533,-0.895514,1.68305,8.36979,-0.0897182,0.33589,0.553962,0
2024-12-11 14:44:05.537,-0.828216,1.76201,8.39133,-0.0915507,0.294963,0.54541,0
2024-12-11 14:44:05.538,-0.828216,1.76201,8.39133,-0.0921616,0.268696,0.54541,0
2024-12-11 14:44:05.539,-0.789931,1.78116,8.39133,-0.0921616,0.268696,0.54541,0
2024-12-11 14:44:05.541,-0.744467,1.79551,8.40329,-0.0915507,0.240597,0.541745,0
2024-12-11 14:44:05.544,-0.694218,1.79312,8.43201,-0.0909399,0.208833,0.536858,0
2024-12-11 14:44:05.548,-0.605683,1.80509,8.50858,-0.0836097,0.137364,0.527696,0
2024-12-11 14:44:05.548,-0.605683,1.80509,8.50858,-0.0836097,0.137364,0.527696,0
2024-12-11 14:44:05.553,-0.474078,1.82184,8.6354,-0.0720036,0.0658951,0.514868,0
2024-12-11 14:44:05.553,-0.474078,1.82184,8.6354,-0.0720036,0.0658951,0.514868,0
2024-12-11 14:44:05.558,-0.335294,1.85055,8.8008,-0.0481806,-0.00251974,0.497153,0
2024-12-11 14:44:05.559,-0.335294,1.85055,8.8008,-0.0341311,-0.0324513,0.484936,0
2024-12-11 14:44:05.560,-0.253639,1.86491,8.88216,-0.0341311,-0.0324513,0.484936,0
2024-12-11 14:44:05.563,-0.172283,1.85294,8.97308,-0.0176382,-0.0617719,0.47333,0
2024-12-11 14:44:05.567,-0.0311067,1.84816,9.13101,0.0190126,-0.11797,0.447064,0
2024-12-11 14:44:05.567,-0.0311067,1.84816,9.13101,0.0190126,-0.11797,0.447064,0
2024-12-11 14:44:05.570,0.0502493,1.83619,9.18126,0.0391706,-0.141182,0.432404,0
2024-12-11 14:44:05.573,0.119641,1.82184,9.23151,0.0819299,-0.182109,0.404305,0
2024-12-11 14:44:05.574,0.200997,1.80987,9.26531,0.0819299,-0.182109,0.404305,0
2024-12-11 14:44:05.578,0.270389,1.81466,9.27727,0.11797,-0.208986,0.37254,0
2024-12-11 14:44:05.579,0.311366,1.81466,9.27488,0.11797,-0.208986,0.37254,0
2024-12-11 14:44:05.581,0.35683,1.79312,9.27249,0.135684,-0.215705,0.356048,0
2024-12-11 14:44:05.584,0.397508,1.77159,9.26052,0.149734,-0.221814,0.338944,0
2024-12-11 14:44:05.586,0.404686,1.74766,9.24347,0.164394,-0.224257,0.324284,0
2024-12-11 14:44:05.589,0.409472,1.74527,9.2028,0.17539,-0.221814,0.311456,0
2024-12-11 14:44:05.592,0.428614,1.74527,9.14537,0.189439,-0.215095,0.283968,0
2024-12-11 14:44:05.594,0.438186,1.71655,9.1023,0.193104,-0.213262,0.273583,0
2024-12-11 14:44:05.595,0.454935,1.71177,9.05444,0.193104,-0.213262,0.273583,0
2024-12-11 14:44:05.599,0.481256,1.72612,8.99941,0.193104,-0.205932,0.260145,0
2024-12-11 14:44:05.603,0.517149,1.71177,8.95394,0.185163,-0.186385,0.235711,0
2024-12-11 14:44:05.603,0.565005,1.69262,8.93001,0.185163,-0.186385,0.235711,0
2024-12-11 14:44:05.606,0.593719,1.68066,8.90369,0.178444,-0.174168,0.224715,0
2024-12-11 14:44:05.612,0.596112,1.71894,8.81277,0.155842,-0.124078,0.192341,0
2024-12-11 14:44:05.614,0.629611,1.74766,8.81994,0.146069,-0.10331,0.183178,0
2024-12-11 14:44:05.614,0.629611,1.74766,8.81994,0.146069,-0.10331,0.183178,0
2024-12-11 14:44:05.617,0.632004,1.78355,8.83191,0.146069,-0.10331,0.183178,0
2024-12-11 14:44:05.618,0.632004,1.78355,8.83191,0.124078,-0.0611611,0.156911,0
2024-12-11 14:44:05.619,0.639183,1.81944,8.81994,0.124078,-0.0611611,0.156911,0
2024-12-11 14:44:05.622,0.648754,1.84337,8.80319,0.114305,-0.0385597,0.147138,0
2024-12-11 14:44:05.624,0.648754,1.85773,8.78884,0.100255,-0.0190126,0.133699,0
2024-12-11 14:44:05.626,0.665504,1.89601,8.75534,0.0892601,0.00419957,0.122093,0
2024-12-11 14:44:05.628,0.691825,1.92473,8.73141,0.0739889,0.0243575,0.108654,0
2024-12-11 14:44:05.631,0.701396,1.93669,8.71466,0.0599394,0.046348,0.0958267,0
2024-12-11 14:44:05.633,0.722932,1.93669,8.69283,0.0452791,0.066506,0.0811663,0
2024-12-11 14:44:05.636,0.742074,1.93669,8.67129,0.0306187,0.0891073,0.0671168,0
2024-12-11 14:44:05.639,0.737288,1.95583,8.6665,0.0153475,0.108654,0.0518457,0
2024-12-11 14:44:05.640,0.744467,1.9657,8.68086,0.0153475,0.108654,0.0518457,0
2024-12-11 14:44:05.644,0.737288,1.97767,8.68565,-0.0280226,0.15569,0.00847551,0
2024-12-11 14:44:05.645,0.710967,1.99442,8.69043,-0.0280226,0.15569,0.00847551,0
2024-12-11 14:44:05.647,0.691825,2.00877,8.7027,-0.0390179,0.168517,-0.00679568,0
2024-12-11 14:44:05.650,0.677468,2.01835,8.71466,-0.0500131,0.180734,-0.0184018,0
2024-12-11 14:44:05.652,0.651147,2.02552,8.7338,-0.0610084,0.187454,-0.033673,0
2024-12-11 14:44:05.655,0.622433,2.02792,8.75294,-0.0701711,0.196006,-0.0483333,0
2024-12-11 14:44:05.658,0.612862,2.02552,8.7673,-0.0775012,0.19906,-0.0623828,0
2024-12-11 14:44:05.659,0.596112,2.03031,8.77927,-0.0848314,0.205168,-0.0770431,0
2024-12-11 14:44:05.662,0.569791,2.04227,8.80798,-0.0897182,0.205779,-0.0898709,0
2024-12-11 14:44:05.664,0.536291,2.03988,8.82952,-0.0939941,0.205168,-0.104531,0
2024-12-11 14:44:05.667,0.512363,2.03031,8.81516,-0.0976592,0.202725,-0.13263,0
2024-12-11 14:44:05.668,0.476471,2.02552,8.81516,-0.0976592,0.202725,-0.13263,0
2024-12-11 14:44:05.671,0.431007,2.02313,8.80798,-0.0976592,0.199671,-0.146069,0
2024-12-11 14:44:05.673,0.402293,2.02792,8.79602,-0.100713,0.194173,-0.158897,0
2024-12-11 14:44:05.677,0.35683,2.02552,8.77687,-0.102546,0.185621,-0.169281,0
2024-12-11 14:44:05.678,0.318545,2.01356,8.74577,-0.101935,0.175848,-0.179055,0
2024-12-11 14:44:05.681,0.297009,2.0016,8.72902,-0.109876,0.15569,-0.200434,0
2024-12-11 14:44:05.684,0.292223,1.9992,8.71945,-0.113541,0.142251,-0.210819,0
2024-12-11 14:44:05.686,0.275175,1.9992,8.72184,-0.115374,0.131256,-0.220592,0
2024-12-11 14:44:05.688,0.239282,1.9992,8.73141,-0.115374,0.131256,-0.220592,0
2024-12-11 14:44:05.690,0.222533,1.99202,8.72423,-0.118428,0.119039,-0.229755,0
2024-12-11 14:44:05.692,0.200997,1.99442,8.72423,-0.120871,0.109876,-0.24075,0
2024-12-11 14:44:05.694,0.16989,1.99442,8.71705,-0.123926,0.100103,-0.249302,0
2024-12-11 14:44:05.697,0.148355,1.98724,8.7003,-0.128202,0.0915507,-0.255411,0
2024-12-11 14:44:05.699,0.133998,1.98245,8.69043,-0.130645,0.0829989,-0.261519,0
2024-12-11 14:44:05.701,0.112463,1.98724,8.68325,-0.135532,0.0707819,-0.267627,0
2024-12-11 14:44:05.704,0.0909273,1.98485,8.67608,-0.139808,0.0628409,-0.273736,0
2024-12-11 14:44:05.708,0.0454636,1.98963,8.65693,-0.153857,0.0451263,-0.284731,0
2024-12-11 14:44:05.709,0.0454636,1.98963,8.65693,-0.153857,0.0451263,-0.284731,0
2024-12-11 14:44:05.713,0.0167498,1.99442,8.70509,-0.166074,0.0329094,-0.294505,0
2024-12-11 14:44:05.714,0.0167498,1.99442,8.70509,-0.172793,0.0286335,-0.295116,0
2024-12-11 14:44:05.716,-0.0143569,2.00877,8.70509,-0.172793,0.0286335,-0.295116,0
2024-12-11 14:44:05.718,-0.0287139,2.0016,8.71227,-0.178902,0.0237467,-0.297559,0
2024-12-11 14:44:05.720,-0.040678,2.00399,8.72662,-0.178902,0.0237467,-0.297559,0
2024-12-11 14:44:05.724,-0.0717847,2.01356,8.72662,-0.203336,0.0182491,-0.301835,0
2024-12-11 14:44:05.726,-0.0933201,2.02552,8.73141,-0.211888,0.0182491,-0.300613,0
2024-12-11 14:44:05.727,-0.107677,2.04227,8.73859,-0.211888,0.0182491,-0.300613,0
2024-12-11 14:44:05.730,-0.131605,2.07338,8.74098,-0.22105,0.0176382,-0.300613,0
2024-12-11 14:44:05.733,-0.150748,2.12363,8.74098,-0.243041,0.0249684,-0.300002,0
2024-12-11 14:44:05.735,-0.181855,2.1667,8.75055,-0.243041,0.0249684,-0.300002,0
2024-12-11 14:44:05.737,-0.232104,2.19302,8.77927,-0.251593,0.0292443,-0.297559,0
2024-12-11 14:44:05.739,-0.263211,2.21456,8.80798,-0.261977,0.0335202,-0.296337,0
2024-12-11 14:44:05.742,-0.285045,2.23609,8.84148,-0.273583,0.0377962,-0.295116,0
2024-12-11 14:44:05.744,-0.308973,2.26241,8.86541,-0.282135,0.042683,-0.293283,0
2024-12-11 14:44:05.746,-0.32333,2.29831,8.9013,-0.289465,0.0481806,-0.290229,0
2024-12-11 14:44:05.749,-0.332901,2.32702,8.95634,-0.296795,0.0542891,-0.287175,0
2024-12-11 14:44:05.752,-0.337687,2.34138,8.98744,-0.304736,0.0561216,-0.286564,0
2024-12-11 14:44:05.753,-0.349651,2.35813,9.01616,-0.304736,0.0561216,-0.286564,0
2024-12-11 14:44:05.757,-0.371187,2.37966,9.05923,-0.313288,0.0567324,-0.282288,0
2024-12-11 14:44:05.758,-0.380758,2.38445,9.11187,-0.316953,0.0561216,-0.279234,0
2024-12-11 14:44:05.761,-0.390329,2.40598,9.17169,-0.32184,0.0500131,-0.27679,0
2024-12-11 14:44:05.763,-0.414257,2.42991,9.2339,-0.326116,0.0414613,-0.271903,0
2024-12-11 14:44:05.766,-0.442971,2.44666,9.31316,-0.327949,0.022525,-0.270682,0
2024-12-11 14:44:05.767,-0.447757,2.47298,9.38734,-0.327949,0.022525,-0.270682,0
2024-12-11 14:44:05.770,-0.454935,2.48255,9.47348,-0.325505,0.0096972,-0.267627,0
2024-12-11 14:44:05.772,-0.471685,2.52084,9.55723,-0.323673,-0.00435229,-0.267017,0
2024-12-11 14:44:05.774,-0.474078,2.5666,9.63141,-0.319397,-0.0202343,-0.267627,0
2024-12-11 14:44:05.778,-0.454935,2.59771,9.72712,-0.308401,-0.0501658,-0.267017,0
2024-12-11 14:44:05.779,-0.447757,2.61446,9.80369,-0.308401,-0.0501658,-0.267017,0
2024-12-11 14:44:05.784,-0.431007,2.6671,9.94038,-0.291298,-0.0880384,-0.271903,0
2024-12-11 14:44:05.785,-0.431007,2.6671,9.94038,-0.291298,-0.0880384,-0.271903,0
2024-12-11 14:44:05.786,-0.431007,2.70299,9.99781,-0.279692,-0.10392,-0.273736,0
2024-12-11 14:44:05.789,-0.41665,2.74128,10.0337,-0.268696,-0.119192,-0.27679,0
2024-12-11 14:44:05.792,-0.404686,2.77956,10.0409,-0.254036,-0.145458,-0.282899,0
2024-12-11 14:44:05.794,-0.375972,2.79392,10.0337,-0.254036,-0.145458,-0.282899,0
2024-12-11 14:44:05.796,-0.349651,2.78913,10.0457,-0.246706,-0.161951,-0.285342,0
2024-12-11 14:44:05.798,-0.364008,2.79153,10.084,-0.241208,-0.180276,-0.29084,0
2024-12-11 14:44:05.800,-0.383151,2.80349,10.1318,-0.2351,-0.197991,-0.293894,0
2024-12-11 14:44:05.803,-0.385544,2.80349,10.1749,-0.230824,-0.21143,-0.298781,0
2024-12-11 14:44:05.807,-0.409472,2.85613,10.2395,-0.217385,-0.237085,-0.303057,0
2024-12-11 14:44:05.808,-0.409472,2.85613,10.2395,-0.217385,-0.237085,-0.303057,0
2024-12-11 14:44:05.810,-0.428614,2.87288,10.2754,-0.208833,-0.248691,-0.306722,0
2024-12-11 14:44:05.812,-0.445364,2.88245,10.3017,-0.201503,-0.255411,-0.3055,0
2024-12-11 14:44:05.814,-0.464507,2.8992,10.3376,-0.195395,-0.263352,-0.3055,0
2024-12-11 14:44:05.818,-0.454935,2.90878,10.3834,-0.181956,-0.278012,-0.306722,0
2024-12-11 14:44:05.820,-0.431007,2.9016,10.4216,-0.17768,-0.28412,-0.307943,0
2024-12-11 14:44:05.821,-0.409472,2.9016,10.4527,-0.17768,-0.28412,-0.307943,0
2024-12-11 14:44:05.824,-0.387936,2.90878,10.4647,-0.17768,-0.28412,-0.307943,0
2024-12-11 14:44:05.826,-0.395115,2.92074,10.4815,-0.164852,-0.295116,-0.311608,0
2024-12-11 14:44:05.829,-0.409472,2.93031,10.5126,-0.159355,-0.296337,-0.31283,0
2024-12-11 14:44:05.831,-0.41665,2.91835,10.5485,-0.151414,-0.296337,-0.312219,0
2024-12-11 14:44:05.833,-0.438186,2.92074,10.5844,-0.144694,-0.293894,-0.313441,0
2024-12-11 14:44:05.836,-0.45015,2.93031,10.6155,-0.138586,-0.292061,-0.313441,0
2024-12-11 14:44:05.838,-0.452543,2.92792,10.637,-0.133088,-0.284731,-0.31283,0
2024-12-11 14:44:05.841,-0.471685,2.92552,10.6514,-0.127591,-0.279234,-0.312219,0
2024-12-11 14:44:05.843,-0.488435,2.90399,10.6585,-0.11965,-0.268238,-0.308554,0
2024-12-11 14:44:05.845,-0.476471,2.87288,10.6753,-0.11232,-0.259686,-0.306111,0
2024-12-11 14:44:05.847,-0.45015,2.84656,10.704,-0.104379,-0.251745,-0.304889,0
2024-12-11 14:44:05.850,-0.419043,2.8346,10.7399,-0.0976592,-0.238307,-0.302446,0
2024-12-11 14:44:05.852,-0.383151,2.84178,10.7638,-0.0884965,-0.226701,-0.301224,0
2024-12-11 14:44:05.854,-0.354437,2.8346,10.783,-0.0793338,-0.21143,-0.300613,0
2024-12-11 14:44:05.857,-0.337687,2.82503,10.7877,-0.0713928,-0.19738,-0.299392,0
2024-12-11 14:44:05.860,-0.32333,2.84656,10.7853,-0.0500131,-0.16867,-0.303057,0
2024-12-11 14:44:05.862,-0.308973,2.85613,10.7925,-0.0500131,-0.16867,-0.303057,0
2024-12-11 14:44:05.864,-0.289831,2.84895,10.7973,-0.0365745,-0.149734,-0.304278,0
2024-12-11 14:44:05.866,-0.27996,2.84178,10.7758,-0.0249684,-0.130798,-0.306111,0
2024-12-11 14:44:05.869,-0.277567,2.84178,10.7351,-0.0139731,-0.115526,-0.310387,0
2024-12-11 14:44:05.873,-0.275175,2.84895,10.6466,0.0110716,-0.0843733,-0.314052,0
2024-12-11 14:44:05.874,-0.275175,2.84895,10.6466,0.0110716,-0.0843733,-0.314052,0
2024-12-11 14:44:05.877,-0.299402,2.86092,10.5891,0.0324513,-0.0568851,-0.317717,0
2024-12-11 14:44:05.879,-0.335294,2.86092,10.5293,0.0324513,-0.0568851,-0.317717,0
2024-12-11 14:44:05.880,-0.364008,2.86092,10.4432,0.0446682,-0.0428357,-0.318939,0
2024-12-11 14:44:05.883,-0.409472,2.87049,10.3496,0.0562743,-0.0306187,-0.319549,0
2024-12-11 14:44:05.885,-0.457328,2.88485,10.2586,0.0648262,-0.0226777,-0.32016,0
2024-12-11 14:44:05.887,-0.500399,2.90399,10.1773,0.0745997,-0.0184018,-0.319549,0
2024-12-11 14:44:05.891,-0.54347,2.91595,10.1031,0.0807082,-0.0147367,-0.317717,0
2024-12-11 14:44:05.892,-0.572184,2.93031,10.0337,0.0898709,-0.0147367,-0.318328,0
2024-12-11 14:44:05.897,-0.591326,2.95424,9.89971,0.10331,-0.0159584,-0.313441,0
2024-12-11 14:44:05.897,-0.591326,2.95424,9.89971,0.10331,-0.0159584,-0.313441,0
2024-12-11 14:44:05.900,-0.591326,2.94706,9.86381,0.115526,-0.0251211,-0.309165,0
2024-12-11 14:44:05.903,-0.581755,2.93988,9.83988,0.115526,-0.0251211,-0.309165,0
2024-12-11 14:44:05.904,-0.572184,2.94467,9.82792,0.121024,-0.0281753,-0.307333,0
2024-12-11 14:44:05.907,-0.56022,2.96142,9.81566,0.13935,-0.0330621,-0.306111,0
2024-12-11 14:44:05.909,-0.550648,2.9686,9.81326,0.13935,-0.0330621,-0.306111,0
2024-12-11 14:44:05.911,-0.562612,2.98535,9.81805,0.14668,-0.0355055,-0.304278,0
2024-12-11 14:44:05.914,-0.574577,3.01884,9.80609,0.153399,-0.0379489,-0.303057,0
2024-12-11 14:44:05.916,-0.576969,3.04517,9.78934,0.163783,-0.0403923,-0.299392,0
2024-12-11 14:44:05.919,-0.576969,3.06431,9.76062,0.180887,-0.0440574,-0.295116,0
2024-12-11 14:44:05.920,-0.567398,3.07867,9.7008,0.180887,-0.0440574,-0.295116,0
2024-12-11 14:44:05.925,-0.533899,3.11246,9.53809,0.187606,-0.0556635,-0.288396,0
2024-12-11 14:44:05.926,-0.533899,3.11246,9.53809,0.187606,-0.0629936,-0.287175,0
2024-12-11 14:44:05.930,-0.505185,3.16511,9.33949,0.183941,-0.0721563,-0.281677,0
2024-12-11 14:44:05.930,-0.505185,3.16511,9.33949,0.183941,-0.0721563,-0.281677,0
2024-12-11 14:44:05.933,-0.462114,3.18664,9.27249,0.165616,-0.0959794,-0.278623,0
2024-12-11 14:44:05.935,-0.411865,3.21775,9.2028,0.165616,-0.0959794,-0.278623,0
2024-12-11 14:44:05.939,-0.292223,3.29671,9.10469,0.137517,-0.122246,-0.279234,0
2024-12-11 14:44:05.939,-0.292223,3.29671,9.10469,0.137517,-0.122246,-0.279234,0
2024-12-11 14:44:05.943,-0.239282,3.34935,9.0999,0.122246,-0.136906,-0.283509,0
2024-12-11 14:44:05.944,-0.184247,3.38525,9.09033,0.104531,-0.149734,-0.289007,0
2024-12-11 14:44:05.947,-0.122034,3.42353,9.09273,0.0629936,-0.177833,-0.303667,0
2024-12-11 14:44:05.949,-0.0526421,3.44985,9.13101,0.0629936,-0.177833,-0.303667,0
2024-12-11 14:44:05.953,0.119641,3.4666,9.24108,0.0177909,-0.208375,-0.321382,0
2024-12-11 14:44:05.953,0.119641,3.4666,9.24108,0.0177909,-0.208375,-0.321382,0
2024-12-11 14:44:05.956,0.215354,3.46899,9.3347,-0.00481042,-0.224868,-0.332377,0
2024-12-11 14:44:05.958,0.297009,3.47378,9.44238,-0.022525,-0.237696,-0.346427,0
2024-12-11 14:44:05.963,0.3999,3.45224,9.65773,-0.0579541,-0.257243,-0.376969,0
2024-12-11 14:44:05.964,0.3999,3.45224,9.65773,-0.0720036,-0.262741,-0.391019,0
2024-12-11 14:44:05.965,0.428614,3.43789,9.77019,-0.0720036,-0.262741,-0.391019,0
2024-12-11 14:44:05.967,0.423829,3.40917,9.89253,-0.0872748,-0.264573,-0.404457,0
2024-12-11 14:44:05.970,0.411865,3.38764,9.99303,-0.0982701,-0.264573,-0.414231,0
2024-12-11 14:44:05.972,0.392722,3.36371,10.0648,-0.109265,-0.262741,-0.425226,0
2024-12-11 14:44:05.975,0.349651,3.33021,10.1294,-0.117817,-0.2548,-0.433167,0
2024-12-11 14:44:05.978,0.301795,3.28714,10.1701,-0.136753,-0.238307,-0.440497,0
2024-12-11 14:44:05.979,0.260818,3.23928,10.1988,-0.136753,-0.238307,-0.440497,0
2024-12-11 14:44:05.982,0.200997,3.21057,10.2275,-0.147138,-0.228533,-0.441719,0
2024-12-11 14:44:05.984,0.119641,3.17946,10.2491,-0.153857,-0.218149,-0.440497,0
2024-12-11 14:44:05.986,0.0550349,3.14596,10.2538,-0.162409,-0.205932,-0.436832,0
2024-12-11 14:44:05.990,-0.00717847,3.11725,10.273,-0.169739,-0.19005,-0.431945,0
2024-12-11 14:44:05.991,-0.0741775,3.05952,10.3113,-0.176459,-0.169892,-0.423394,0
2024-12-11 14:44:05.993,-0.124427,3.00927,10.3567,-0.181345,-0.148512,-0.41362,0
2024-12-11 14:44:05.997,-0.16989,2.97577,10.3953,-0.1844,-0.0996445,-0.395905,0
2024-12-11 14:44:05.998,-0.208176,2.93031,10.4169,-0.1844,-0.0996445,-0.395905,0
2024-12-11 14:44:06.001,-0.246461,2.89681,10.436,-0.182567,-0.0764323,-0.383688,0
2024-12-11 14:44:06.003,-0.304188,2.8657,10.4264,-0.175237,-0.0501658,-0.368417,0
2024-12-11 14:44:06.005,-0.373579,2.85135,10.3881,-0.167907,-0.0269536,-0.355589,0
2024-12-11 14:44:06.007,-0.41665,2.84178,10.3591,-0.159966,-0.00374144,-0.342151,0
2024-12-11 14:44:06.010,-0.45015,2.81067,10.3184,-0.153857,0.0164165,-0.326269,0
2024-12-11 14:44:06.012,-0.488435,2.79631,10.2515,-0.145305,0.0335202,-0.309776,0
2024-12-11 14:44:06.015,-0.519542,2.77956,10.1773,-0.136143,0.0481806,-0.294505,0
2024-12-11 14:44:06.019,-0.576969,2.76042,10.0002,-0.117817,0.0701711,-0.263352,0
2024-12-11 14:44:06.020,-0.576969,2.76042,10.0002,-0.109876,0.0787229,-0.251745,0
2024-12-11 14:44:06.023,-0.591326,2.77717,9.92363,-0.100713,0.0817772,-0.238918,0
2024-12-11 14:44:06.025,-0.591326,2.78674,9.84228,-0.0939941,0.082388,-0.224868,0
2024-12-11 14:44:06.026,-0.581755,2.80349,9.76541,-0.0939941,0.082388,-0.224868,0
2024-12-11 14:44:06.029,-0.588933,2.81785,9.68645,-0.0842206,0.0799446,-0.214484,0
2024-12-11 14:44:06.036,-0.574577,2.91595,9.5022,-0.0610084,0.066506,-0.194326,0
2024-12-11 14:44:06.036,-0.574577,2.91595,9.5022,-0.0610084,0.066506,-0.194326,0
2024-12-11 14:44:06.037,-0.574577,2.91595,9.5022,-0.0518457,0.0616192,-0.188217,0
2024-12-11 14:44:06.038,-0.562612,2.95424,9.43041,-0.0518457,0.0616192,-0.188217,0
2024-12-11 14:44:06.043,-0.565005,2.99731,9.33231,-0.0322986,0.0494023,-0.185774,0
2024-12-11 14:44:06.044,-0.565005,2.99731,9.33231,-0.0219141,0.0439046,-0.183941,0
2024-12-11 14:44:06.048,-0.632004,3.07627,9.23151,-0.0133623,0.038407,-0.18272,0
2024-12-11 14:44:06.048,-0.632004,3.07627,9.23151,-0.0133623,0.038407,-0.18272,0
2024-12-11 14:44:06.052,-0.689432,3.11246,9.11187,0.0019089,0.0237467,-0.180887,0
2024-12-11 14:44:06.053,-0.689432,3.11246,9.11187,0.00862822,0.014584,-0.180276,0
2024-12-11 14:44:06.056,-0.694218,3.11964,9.04248,0.0104608,0.00358873,-0.180276,0
2024-12-11 14:44:06.057,-0.710967,3.13639,8.95634,0.0104608,0.00358873,-0.180276,0
2024-12-11 14:44:06.060,-0.737288,3.15075,8.86541,0.0141258,-0.0245102,-0.179055,0
2024-12-11 14:44:06.062,-0.775574,3.16511,8.77448,0.0141258,-0.0245102,-0.179055,0
2024-12-11 14:44:06.064,-0.818644,3.19143,8.69522,0.0110716,-0.0428357,-0.17539,0
2024-12-11 14:44:06.067,-0.828216,3.22014,8.63779,0.00801737,-0.0593285,-0.173557,0
2024-12-11 14:44:06.069,-0.825823,3.24407,8.59233,0.00129805,-0.0782648,-0.172335,0
2024-12-11 14:44:06.072,-0.816252,3.25603,8.55883,-0.0109189,-0.116137,-0.169892,0
2024-12-11 14:44:06.073,-0.794716,3.27278,8.53011,-0.0109189,-0.116137,-0.169892,0
2024-12-11 14:44:06.077,-0.777966,3.28953,8.51815,-0.0292443,-0.152788,-0.171114,0
2024-12-11 14:44:06.078,-0.76361,3.28714,8.52772,-0.0292443,-0.152788,-0.171114,0
2024-12-11 14:44:06.080,-0.725324,3.28953,8.54926,-0.0365745,-0.171114,-0.174168,0
2024-12-11 14:44:06.084,-0.689432,3.29432,8.59472,-0.0530674,-0.20471,-0.177833,0
2024-12-11 14:44:06.085,-0.651147,3.27518,8.6665,-0.0530674,-0.20471,-0.177833,0
2024-12-11 14:44:06.088,-0.598505,3.25364,8.76491,-0.0634518,-0.217538,-0.183941,0
2024-12-11 14:44:06.090,-0.553041,3.24407,8.87259,-0.0695602,-0.227312,-0.188828,0
2024-12-11 14:44:06.092,-0.52672,3.21057,8.98505,-0.0738362,-0.234031,-0.193715,0
2024-12-11 14:44:06.095,-0.514756,3.18425,9.1023,-0.0750579,-0.236474,-0.201656,0
2024-12-11 14:44:06.099,-0.512363,3.17228,9.21476,-0.0762796,-0.238307,-0.207764,0
2024-12-11 14:44:06.100,-0.512363,3.16271,9.31316,-0.0762796,-0.238307,-0.207764,0
2024-12-11 14:44:06.102,-0.517149,3.14357,9.39691,-0.0762796,-0.237085,-0.210819,0
2024-12-11 14:44:06.104,-0.541077,3.11246,9.46391,-0.074447,-0.235863,-0.21204,0
2024-12-11 14:44:06.106,-0.557827,3.07867,9.52134,-0.0726145,-0.23342,-0.212651,0
2024-12-11 14:44:06.110,-0.562612,3.04277,9.57398,-0.0677277,-0.22609,-0.21143,0
2024-12-11 14:44:06.111,-0.576969,3.02124,9.61945,-0.0677277,-0.22609,-0.21143,0
2024-12-11 14:44:06.113,-0.588933,2.99731,9.67927,-0.0683385,-0.223646,-0.210819,0
2024-12-11 14:44:06.116,-0.605683,2.96142,9.73909,-0.0671168,-0.217538,-0.208375,0
2024-12-11 14:44:06.118,-0.62004,2.95424,9.77259,-0.0640626,-0.213873,-0.207154,0
2024-12-11 14:44:06.123,-0.65354,2.93749,9.85903,-0.0561216,-0.20471,-0.201656,0
2024-12-11 14:44:06.123,-0.65354,2.93749,9.85903,-0.0561216,-0.20471,-0.201656,0
2024-12-11 14:44:06.126,-0.65354,2.93031,9.89971,-0.0500131,-0.191272,-0.191272,0
2024-12-11 14:44:06.128,-0.651147,2.93988,9.92363,-0.0500131,-0.191272,-0.191272,0
2024-12-11 14:44:06.130,-0.646361,2.9351,9.94038,-0.0475697,-0.185163,-0.187606,0
2024-12-11 14:44:06.132,-0.639183,2.93031,9.95713,-0.0445155,-0.180887,-0.184552,0
2024-12-11 14:44:06.137,-0.581755,2.9327,9.96192,-0.0390179,-0.168059,-0.176,0
2024-12-11 14:44:06.137,-0.581755,2.9327,9.96192,-0.0390179,-0.168059,-0.176,0
2024-12-11 14:44:06.139,-0.550648,2.9351,9.95953,-0.0390179,-0.168059,-0.176,0
2024-12-11 14:44:06.142,-0.521934,2.95902,9.95474,-0.0365745,-0.155232,-0.171724,0
2024-12-11 14:44:06.144,-0.498006,2.97817,9.95953,-0.0371853,-0.149123,-0.170503,0
2024-12-11 14:44:06.146,-0.481256,2.98774,9.94995,-0.0377962,-0.140571,-0.16867,0
2024-12-11 14:44:06.149,-0.454935,3.01167,9.9356,-0.0371853,-0.132019,-0.167449,0
2024-12-11 14:44:06.151,-0.435793,3.04995,9.93081,-0.0359636,-0.124078,-0.169281,0
2024-12-11 14:44:06.153,-0.411865,3.07149,9.92603,-0.0359636,-0.124078,-0.169281,0
2024-12-11 14:44:06.156,-0.402293,3.09811,9.91167,-0.0432938,-0.106975,-0.172946,0
2024-12-11 14:44:06.158,-0.41665,3.12204,9.89731,-0.0451263,-0.0959794,-0.171724,0
2024-12-11 14:44:06.161,-0.442971,3.13161,9.88774,-0.0487914,-0.0825407,-0.174168,0
2024-12-11 14:44:06.163,-0.45015,3.14118,9.85664,-0.0555107,-0.0721563,-0.174779,0
2024-12-11 14:44:06.165,-0.440578,3.14596,9.81805,-0.058565,-0.0611611,-0.173557,0
2024-12-11 14:44:06.169,-0.462114,3.14357,9.79891,-0.0622301,-0.0519984,-0.172946,0
2024-12-11 14:44:06.170,-0.476471,3.14836,9.78455,-0.0695602,-0.041614,-0.172335,0
2024-12-11 14:44:06.173,-0.486042,3.15553,9.76302,-0.0842206,-0.021456,-0.166838,0
2024-12-11 14:44:06.176,-0.500399,3.15793,9.75584,-0.0909399,-0.0147367,-0.164394,0
2024-12-11 14:44:06.177,-0.505185,3.16032,9.75344,-0.0909399,-0.0147367,-0.164394,0
2024-12-11 14:44:06.179,-0.524327,3.1675,9.74866,-0.0964375,-0.00801737,-0.161951,0
2024-12-11 14:44:06.182,-0.531506,3.16989,9.77259,-0.100103,-0.00129805,-0.156453,0
2024-12-11 14:44:06.185,-0.52672,3.1675,9.81566,-0.106211,0.0115297,-0.147901,0
2024-12-11 14:44:06.187,-0.533899,3.17228,9.85424,-0.106211,0.0115297,-0.147901,0
2024-12-11 14:44:06.190,-0.533899,3.17946,9.90928,-0.104379,0.0206925,-0.142404,0
2024-12-11 14:44:06.191,-0.536291,3.16511,9.96192,-0.102546,0.0292443,-0.136295,0
2024-12-11 14:44:06.193,-0.541077,3.14836,9.98824,-0.0982701,0.0341311,-0.13263,0
2024-12-11 14:44:06.196,-0.536291,3.14596,9.99063,-0.0939941,0.0432938,-0.127133,0
2024-12-11 14:44:06.198,-0.538684,3.14357,9.97867,-0.0884965,0.0432938,-0.121024,0
2024-12-11 14:44:06.201,-0.550648,3.14836,9.96431,-0.0884965,0.0432938,-0.121024,0
2024-12-11 14:44:06.204,-0.553041,3.13639,9.94995,-0.0732253,0.0396287,-0.104531,0
2024-12-11 14:44:06.205,-0.548256,3.12682,9.94756,-0.0732253,0.0396287,-0.104531,0
2024-12-11 14:44:06.208,-0.536291,3.12682,9.94278,-0.0652843,0.0359636,-0.0965902,0
2024-12-11 14:44:06.211,-0.514756,3.12443,9.94278,-0.0542891,0.0292443,-0.0862058,0
2024-12-11 14:44:06.213,-0.502792,3.11964,9.95474,-0.0542891,0.0292443,-0.0862058,0
2024-12-11 14:44:06.215,-0.505185,3.13161,9.9667,-0.0469589,0.0249684,-0.0807082,0
2024-12-11 14:44:06.217,-0.505185,3.14836,9.96192,-0.0371853,0.022525,-0.0770431,0
2024-12-11 14:44:06.220,-0.486042,3.12921,9.95713,-0.0298552,0.0176382,-0.073378,0
2024-12-11 14:44:06.222,-0.476471,3.11725,9.93799,-0.0219141,0.0133623,-0.0678804,0
2024-12-11 14:44:06.225,-0.476471,3.12204,9.89013,-0.0109189,0.00175619,-0.0581068,0
2024-12-11 14:44:06.226,-0.476471,3.11964,9.85424,-0.0109189,0.00175619,-0.0581068,0
2024-12-11 14:44:06.229,-0.486042,3.09571,9.80848,-0.00481042,-0.00129805,-0.0544418,0
2024-12-11 14:44:06.232,-0.478864,3.08854,9.77019,0.00251974,-0.013515,-0.0410031,0
2024-12-11 14:44:06.234,-0.459721,3.09811,9.72473,0.00251974,-0.013515,-0.0410031,0
2024-12-11 14:44:06.237,-0.442971,3.08854,9.67448,0.00679568,-0.0232886,-0.0324513,0
2024-12-11 14:44:06.238,-0.4334,3.07388,9.65773,0.00679568,-0.0232886,-0.0324513,0
2024-12-11 14:44:06.242,-0.41665,3.05952,9.63141,0.00496313,-0.0306187,-0.0238994,0
2024-12-11 14:44:06.246,-0.373579,3.03559,9.6027,0.00496313,-0.033673,-0.0208452,0
2024-12-11 14:44:06.246,-0.373579,3.03559,9.6027,0.00496313,-0.033673,-0.0208452,0
2024-12-11 14:44:06.248,-0.349651,3.01884,9.57877,0.00251974,-0.0355055,-0.0159584,0
2024-12-11 14:44:06.251,-0.330509,3.02363,9.5668,0.00374144,-0.0379489,-0.013515,0
2024-12-11 14:44:06.253,-0.308973,3.02124,9.57159,0.00374144,-0.0379489,-0.013515,0
2024-12-11 14:44:06.255,-0.289831,3.00449,9.57159,-0.00236703,-0.0379489,-0.00679568,0
2024-12-11 14:44:06.257,-0.277567,3.01884,9.5668,-0.00603212,-0.0361163,-0.00313059,0
2024-12-11 14:44:06.259,-0.258425,3.01406,9.54766,-0.00603212,-0.0361163,-0.00313059,0
2024-12-11 14:44:06.264,-0.239282,2.9997,9.50938,-0.0170274,-0.0342838,0.00236703,0
2024-12-11 14:44:06.264,-0.222533,3.02363,9.50938,-0.0170274,-0.0342838,0.00236703,0
2024-12-11 14:44:06.267,-0.217747,3.0332,9.50459,-0.0170274,-0.0342838,0.00236703,0
2024-12-11 14:44:06.269,-0.210568,3.01645,9.48545,-0.0280226,-0.0287862,0.00542127,0
2024-12-11 14:44:06.271,-0.210568,3.01167,9.47348,-0.0335202,-0.0232886,0.00786466,0
2024-12-11 14:44:06.274,-0.210568,3.01406,9.48066,-0.0359636,-0.0202343,0.00786466,0
2024-12-11 14:44:06.276,-0.181855,3.00927,9.49023,-0.0420721,-0.0184018,0.0121406,0
2024-12-11 14:44:06.278,-0.165105,2.99731,9.50698,-0.0475697,-0.0147367,0.0158057,0
2024-12-11 14:44:06.283,-0.177069,2.98056,9.52373,-0.0555107,-0.0122933,0.0170274,0
2024-12-11 14:44:06.283,-0.177069,2.98056,9.52373,-0.0555107,-0.0122933,0.0170274,0
2024-12-11 14:44:06.285,-0.16989,2.99252,9.55484,-0.0597867,-0.00923906,0.0200816,0
2024-12-11 14:44:06.288,-0.167498,2.99013,9.57877,-0.0597867,-0.00740652,0.0219141,0
2024-12-11 14:44:06.290,-0.18664,2.99013,9.59791,-0.0610084,-0.00374144,0.0231358,0
2024-12-11 14:44:06.292,-0.191426,3.00449,9.62184,-0.0603975,0.000534491,0.0255792,0
2024-12-11 14:44:06.296,-0.189033,3.0021,9.6338,-0.0597867,0.00236703,0.030466,0
2024-12-11 14:44:06.297,-0.181855,2.99731,9.62423,-0.0597867,0.00236703,0.030466,0
2024-12-11 14:44:06.299,-0.167498,3.00449,9.61945,-0.0591758,0.00114534,0.0335202,0
2024-12-11 14:44:06.302,-0.160319,3.01406,9.61466,-0.0597867,0.00114534,0.0359636,0
2024-12-11 14:44:06.304,-0.153141,3.02124,9.60509,-0.058565,-0.00129805,0.0371853,0
2024-12-11 14:44:06.307,-0.129212,3.02363,9.61227,-0.0591758,-0.00313059,0.0390179,0
2024-12-11 14:44:06.309,-0.112463,3.02842,9.62423,-0.0573433,-0.00740652,0.0396287,0
2024-12-11 14:44:06.312,-0.0957129,3.04277,9.63859,-0.0542891,-0.0184018,0.0359636,0
2024-12-11 14:44:06.315,-0.0598206,3.0667,9.6673,-0.0542891,-0.0184018,0.0359636,0
2024-12-11 14:44:06.316,-0.0430708,3.07627,9.7008,-0.0548999,-0.0245102,0.0377962,0
2024-12-11 14:44:06.319,-0.0334995,3.07867,9.71994,-0.0481806,-0.0361163,0.030466,0
2024-12-11 14:44:06.321,-0.0215354,3.09571,9.71277,-0.0481806,-0.0361163,0.030466,0
2024-12-11 14:44:06.323,-0.0239282,3.11486,9.71037,-0.0451263,-0.0391706,0.0274118,0
2024-12-11 14:44:06.326,-0.0334995,3.12921,9.71037,-0.0420721,-0.0403923,0.0249684,0
2024-12-11 14:44:06.328,-0.0334995,3.12921,9.70319,-0.0390179,-0.0428357,0.022525,0
2024-12-11 14:44:06.330,-0.0191426,3.11964,9.71516,-0.0347419,-0.0434465,0.0182491,0
2024-12-11 14:44:06.333,-0.0143569,3.11246,9.71037,-0.0329094,-0.0434465,0.0170274,0
2024-12-11 14:44:06.335,-0.026321,3.11964,9.68405,-0.0329094,-0.0483333,0.0158057,0
2024-12-11 14:44:06.338,-0.040678,3.12443,9.66491,-0.0316877,-0.0446682,0.0109189,0
2024-12-11 14:44:06.339,-0.0358923,3.12204,9.65055,-0.0316877,-0.0446682,0.0109189,0
2024-12-11 14:44:06.342,-0.026321,3.12443,9.62902,-0.0322986,-0.0452791,0.0109189,0
2024-12-11 14:44:06.344,-0.026321,3.11725,9.60748,-0.0329094,-0.041614,0.00908635,0
2024-12-11 14:44:06.349,-0.026321,3.12682,9.58834,-0.0353528,-0.0348946,0.00481042,0
2024-12-11 14:44:06.350,-0.026321,3.12682,9.58834,-0.0353528,-0.0348946,0.00481042,0
2024-12-11 14:44:06.351,-0.0311067,3.12443,9.56202,-0.0353528,-0.0348946,0.00481042,0
2024-12-11 14:44:06.354,-0.0430708,3.13161,9.52852,-0.038407,-0.0232886,0.000534491,0
2024-12-11 14:44:06.356,-0.0526421,3.14596,9.50698,-0.0408504,-0.0177909,-0.000687203,0
2024-12-11 14:44:06.358,-0.0574277,3.134,9.49263,-0.0432938,-0.0104608,-0.00129805,0
2024-12-11 14:44:06.363,-0.0909273,3.12921,9.43759,-0.0494023,0.00114534,-0.00313059,0
2024-12-11 14:44:06.363,-0.0909273,3.12921,9.43759,-0.0494023,0.00114534,-0.00313059,0
2024-12-11 14:44:06.366,-0.112463,3.12921,9.42084,-0.0524565,0.00664296,-0.00313059,0
2024-12-11 14:44:06.369,-0.112463,3.134,9.37299,-0.0622301,0.014584,-0.00251974,0
2024-12-11 14:44:06.370,-0.107677,3.14357,9.31556,-0.0622301,0.014584,-0.00251974,0
2024-12-11 14:44:06.372,-0.112463,3.14596,9.27966,-0.0695602,0.0158057,-0.00129805,0
2024-12-11 14:44:06.375,-0.112463,3.14596,9.27249,-0.0762796,0.0200816,-0.00251974,0
2024-12-11 14:44:06.378,-0.107677,3.12921,9.27488,-0.0817772,0.0206925,-0.00251974,0
2024-12-11 14:44:06.379,-0.11007,3.11486,9.28924,-0.0878856,0.0188599,-0.00313059,0
2024-12-11 14:44:06.383,-0.12682,3.13161,9.32034,-0.0933833,0.0194708,-0.00251974,0
2024-12-11 14:44:06.384,-0.145962,3.14118,9.35624,-0.0958267,0.0194708,-0.000687203,0
2024-12-11 14:44:06.387,-0.133998,3.12682,9.38016,-0.0988809,0.0164165,0.000534491,0
2024-12-11 14:44:06.391,-0.119641,3.12204,9.45195,-0.0994917,0.0121406,-0.00129805,0
2024-12-11 14:44:06.392,-0.119641,3.12204,9.45195,-0.100103,0.0096972,-0.0019089,0
2024-12-11 14:44:06.394,-0.122034,3.11007,9.50698,-0.100103,0.0096972,-0.0019089,0
2024-12-11 14:44:06.396,-0.131605,3.1005,9.56202,-0.0982701,0.00481042,-0.0019089,0
2024-12-11 14:44:06.398,-0.124427,3.08584,9.60748,-0.0982701,0.00481042,-0.0019089,0
2024-12-11 14:44:06.402,-0.129212,3.08106,9.66012,-0.094605,-0.00129805,-0.0019089,0
2024-12-11 14:44:06.404,-0.143569,3.08345,9.70559,-0.0805555,-0.0190126,-0.0019089,0
2024-12-11 14:44:06.406,-0.150748,3.07388,9.73191,-0.0805555,-0.0190126,-0.0019089,0
2024-12-11 14:44:06.410,-0.165105,3.06909,9.74866,-0.066506,-0.0318404,-7.63559e-05,0
2024-12-11 14:44:06.411,-0.165105,3.06909,9.74866,-0.0616192,-0.037338,0.000534491,0
2024-12-11 14:44:06.412,-0.172283,3.06909,9.7343,-0.0616192,-0.037338,0.000534491,0
2024-12-11 14:44:06.415,-0.179462,3.05952,9.72952,-0.0561216,-0.0440574,0.00175619,0
2024-12-11 14:44:06.417,-0.189033,3.04277,9.73669,-0.0536782,-0.049555,0.00481042,0
2024-12-11 14:44:06.421,-0.20339,3.04517,9.7343,-0.0487914,-0.0538309,0.00297788,0
2024-12-11 14:44:06.422,-0.212961,3.05952,9.73669,-0.0439046,-0.057496,0.00664296,0
2024-12-11 14:44:06.424,-0.224925,3.04995,9.75105,-0.0408504,-0.0636045,0.00786466,0
2024-12-11 14:44:06.428,-0.224925,3.04038,9.76541,-0.0316877,-0.0629936,0.0115297,0
2024-12-11 14:44:06.429,-0.217747,3.04517,9.74866,-0.0316877,-0.0629936,0.0115297,0
2024-12-11 14:44:06.432,-0.212961,3.03799,9.72234,-0.0286335,-0.0648262,0.014584,0
2024-12-11 14:44:06.434,-0.210568,3.02602,9.69841,-0.0237467,-0.065437,0.0170274,0
2024-12-11 14:44:06.436,-0.217747,3.0332,9.67448,-0.0206925,-0.0629936,0.0188599,0
2024-12-11 14:44:06.439,-0.212961,3.04277,9.66012,-0.0182491,-0.0611611,0.0200816,0
2024-12-11 14:44:06.441,-0.22014,3.03081,9.6338,-0.0194708,-0.0593285,0.0219141,0
2024-12-11 14:44:06.444,-0.227318,3.03799,9.60748,-0.0158057,-0.0526092,0.0249684,0
2024-12-11 14:44:06.445,-0.224925,3.04756,9.59791,-0.0158057,-0.0526092,0.0249684,0
2024-12-11 14:44:06.448,-0.241675,3.05234,9.58595,-0.0164165,-0.0526092,0.0261901,0
2024-12-11 14:44:06.451,-0.239282,3.0667,9.56441,-0.0182491,-0.0513875,0.0322986,0
2024-12-11 14:44:06.453,-0.224925,3.07149,9.53809,-0.0182491,-0.0513875,0.0322986,0
2024-12-11 14:44:06.456,-0.236889,3.09811,9.52134,-0.0231358,-0.0458899,0.0359636,0
2024-12-11 14:44:06.458,-0.229711,3.10529,9.49023,-0.0231358,-0.0458899,0.0359636,0
2024-12-11 14:44:06.460,-0.210568,3.08345,9.45434,-0.0231358,-0.041614,0.0365745,0
2024-12-11 14:44:06.462,-0.208176,3.09571,9.45434,-0.0261901,-0.0361163,0.0359636,0
2024-12-11 14:44:06.464,-0.208176,3.11007,9.45673,-0.0286335,-0.0287862,0.0377962,0
2024-12-11 14:44:06.467,-0.208176,3.10289,9.43998,-0.0335202,-0.0269536,0.0396287,0
2024-12-11 14:44:06.469,-0.205783,3.09571,9.42084,-0.0347419,-0.0190126,0.0390179,0
2024-12-11 14:44:06.471,-0.210568,3.1005,9.40888,-0.0390179,-0.0129041,0.0408504,0
2024-12-11 14:44:06.474,-0.229711,3.10529,9.37777,-0.0408504,-0.00923906,0.0432938,0
2024-12-11 14:44:06.476,-0.246461,3.11486,9.35145,-0.0439046,-0.00496313,0.0457372,0
2024-12-11 14:44:06.478,-0.234497,3.10768,9.33949,-0.0524565,-0.00313059,0.0475697,0
2024-12-11 14:44:06.481,-0.224925,3.09332,9.33709,-0.0542891,0.00297788,0.0500131,0
2024-12-11 14:44:06.483,-0.210568,3.08854,9.34427,-0.0634518,0.00419957,0.0512348,0
2024-12-11 14:44:06.485,-0.196211,3.07627,9.36581,-0.0652843,0.00542127,0.0530674,0
2024-12-11 14:44:06.488,-0.191426,3.07388,9.39691,-0.0689494,0.00542127,0.0542891,0
2024-12-11 14:44:06.491,-0.179462,3.07627,9.42323,-0.0713928,0.00542127,0.0542891,0
2024-12-11 14:44:06.493,-0.174676,3.08106,9.44716,-0.0713928,0.00542127,0.0542891,0
2024-12-11 14:44:06.496,-0.184247,3.07867,9.45673,-0.0750579,0.00358873,0.0542891,0
2024-12-11 14:44:06.497,-0.184247,3.07867,9.4687,-0.0750579,0.00358873,0.0542891,0
2024-12-11 14:44:06.500,-0.148355,3.09332,9.46391,-0.0750579,0.000534491,0.0548999,0
2024-12-11 14:44:06.502,-0.124427,3.10768,9.44716,-0.0750579,-0.00313059,0.0548999,0
2024-12-11 14:44:06.505,-0.112463,3.1005,9.44477,-0.0781121,-0.00984991,0.0524565,0
2024-12-11 14:44:06.507,-0.081356,3.09571,9.45195,-0.0781121,-0.00984991,0.0524565,0
2024-12-11 14:44:06.510,-0.0454636,3.11246,9.47109,-0.0811663,-0.0153475,0.050624,0
2024-12-11 14:44:06.511,-0.0287139,3.11725,9.49502,-0.0829989,-0.0208452,0.046348,0
2024-12-11 14:44:06.514,-0.0239282,3.10768,9.52852,-0.0836097,-0.0251211,0.0439046,0
2024-12-11 14:44:06.516,-0.0191426,3.1005,9.5692,-0.0836097,-0.029397,0.0402396,0
2024-12-11 14:44:06.518,-0.0382852,3.09093,9.6003,-0.0829989,-0.0330621,0.0365745,0
2024-12-11 14:44:06.523,-0.0502493,3.07388,9.72952,-0.0787229,-0.037338,0.0316877,0
2024-12-11 14:44:06.523,-0.0502493,3.07388,9.72952,-0.0787229,-0.037338,0.0316877,0
2024-12-11 14:44:06.528,-0.0933201,3.08345,9.75584,-0.0720036,-0.0385597,0.0274118,0
2024-12-11 14:44:06.528,-0.0933201,3.08345,9.75584,-0.0720036,-0.0385597,0.0274118,0
2024-12-11 14:44:06.533,-0.150748,3.07867,9.72712,-0.0683385,-0.0403923,0.0280226,0
2024-12-11 14:44:06.534,-0.150748,3.07867,9.72712,-0.0683385,-0.0403923,0.0280226,0
2024-12-11 14:44:06.537,-0.198604,3.06431,9.67448,-0.0677277,-0.0391706,0.0329094,0
2024-12-11 14:44:06.540,-0.198604,3.05234,9.65295,-0.0695602,-0.0391706,0.0347419,0
2024-12-11 14:44:06.540,-0.191426,3.05234,9.65295,-0.0695602,-0.0391706,0.0347419,0
2024-12-11 14:44:06.542,-0.179462,3.0667,9.6362,-0.0750579,-0.0403923,0.0365745,0
2024-12-11 14:44:06.544,-0.179462,3.07149,9.65534,-0.0750579,-0.0385597,0.0402396,0
2024-12-11 14:44:06.548,-0.153141,3.06909,9.6697,-0.0848314,-0.0379489,0.0420721,0
2024-12-11 14:44:06.549,-0.112463,3.06909,9.67209,-0.0848314,-0.0379489,0.0420721,0
2024-12-11 14:44:06.552,-0.081356,3.07149,9.69602,-0.0878856,-0.0361163,0.0432938,0
2024-12-11 14:44:06.556,-0.0454636,3.04517,9.78216,-0.0976592,-0.0281753,0.0445155,0
2024-12-11 14:44:06.557,-0.0454636,3.04517,9.78216,-0.100103,-0.0208452,0.042683,0
2024-12-11 14:44:06.559,-0.026321,3.05474,9.8351,-0.100103,-0.0208452,0.042683,0
2024-12-11 14:44:06.562,-0.00717847,3.07388,9.86381,-0.100103,-0.00313059,0.0408504,0
2024-12-11 14:44:06.563,-0.0143569,3.07867,9.87817,-0.100103,-0.00313059,0.0408504,0
2024-12-11 14:44:06.565,-0.0167498,3.06909,9.90688,-0.100103,0.00542127,0.0402396,0
2024-12-11 14:44:06.569,-0.00957129,3.05474,9.91406,-0.101935,0.0213033,0.0432938,0
2024-12-11 14:44:06.571,-0.0143569,3.04995,9.9021,-0.101935,0.0274118,0.0420721,0
2024-12-11 14:44:06.574,-0.0143569,3.04277,9.91167,-0.103157,0.0322986,0.0420721,0
2024-12-11 14:44:06.575,-0.0143569,3.0332,9.89492,-0.103157,0.0322986,0.0420721,0
2024-12-11 14:44:06.577,-0.0167498,3.0332,9.88774,-0.103157,0.0322986,0.0420721,0
2024-12-11 14:44:06.580,-0.00478565,3.01884,9.91167,-0.103768,0.0390179,0.0420721,0
2024-12-11 14:44:06.582,0.0191426,2.99731,9.93799,-0.103157,0.0402396,0.0414613,0
2024-12-11 14:44:06.584,0.0119641,2.99013,9.98345,-0.101324,0.0390179,0.0408504,0
2024-12-11 14:44:06.589,0.0239282,2.99492,10.0481,-0.090329,0.0365745,0.0408504,0
2024-12-11 14:44:06.590,0.0239282,2.99492,10.0481,-0.0860531,0.0292443,0.0396287,0
2024-12-11 14:44:06.594,0.00478565,2.99013,10.0863,-0.0793338,0.0243575,0.0396287,0
2024-12-11 14:44:06.595,0.0167498,2.99013,10.0863,-0.0793338,0.0243575,0.0396287,0
2024-12-11 14:44:06.596,-0.0143569,2.97577,10.1079,-0.074447,0.0194708,0.038407,0
2024-12-11 14:44:06.599,-0.0430708,2.96381,10.1103,-0.0646735,0.0170274,0.038407,0
2024-12-11 14:44:06.603,-0.0741775,2.96142,10.0887,-0.0481806,0.0164165,0.0432938,0
2024-12-11 14:44:06.604,-0.0741775,2.96142,10.0887,-0.0377962,0.014584,0.0457372,0
2024-12-11 14:44:06.606,-0.0861416,2.97338,10.0576,-0.0377962,0.014584,0.0457372,0
2024-12-11 14:44:06.608,-0.0837488,2.9662,10.0289,-0.030466,0.0121406,0.0487914,0
2024-12-11 14:44:06.610,-0.0885344,2.9662,9.99303,-0.0194708,0.0109189,0.0518457,0
2024-12-11 14:44:06.614,-0.0885344,2.95902,9.94278,-0.00725381,0.00542127,0.0603975,0
2024-12-11 14:44:06.616,-0.081356,2.9662,9.89492,-0.00725381,0.00542127,0.0603975,0
