timestamp,accel_x,accel_y,accel_z,gyro_x,gyro_y,gyro_z,step_timestamp
2024-12-11 14:38:41.850,0.260818,1.91755,9.98824,-0.0096972,0.00481042,-0.00618483,0
2024-12-11 14:38:41.850,0.260818,1.91755,9.98824,-0.0096972,0.00481042,-0.00618483,0
2024-12-11 14:38:41.850,0.260818,1.91755,9.98824,-0.0096972,0.00481042,-0.00618483,0
2024-12-11 14:38:41.850,0.260818,1.91755,9.98824,-0.0096972,0.00481042,-0.00618483,0
2024-12-11 14:38:41.850,0.260818,1.91755,9.98824,-0.0096972,0.00481042,-0.00618483,0
2024-12-11 14:38:41.851,0.260818,1.91755,9.98824,-0.00664296,0.00603212,-0.00496313,0
2024-12-11 14:38:41.851,0.260818,1.91755,9.98824,-0.00664296,0.00603212,-0.00496313,0
2024-12-11 14:38:41.852,0.253639,1.90798,9.98345,-0.00664296,0.00603212,-0.00496313,0
2024-12-11 14:38:41.852,0.253639,1.90798,9.98345,-0.00664296,0.00603212,-0.00496313,0
2024-12-11 14:38:41.852,0.253639,1.90798,9.98345,-0.00664296,0.00603212,-0.00496313,0
2024-12-11 14:38:41.852,0.253639,1.90798,9.98345,-0.00664296,0.00603212,-0.00496313,0
2024-12-11 14:38:41.854,0.232104,1.89841,9.95953,-0.00419957,0.00603212,-0.00374144,0
2024-12-11 14:38:41.854,0.232104,1.89841,9.95953,-0.00419957,0.00603212,-0.00374144,0
2024-12-11 14:38:41.854,0.232104,1.89841,9.95953,-0.00419957,0.00603212,-0.00374144,0
2024-12-11 14:38:41.855,0.232104,1.89841,9.95953,-0.00419957,0.00603212,-0.00374144,0
2024-12-11 14:38:41.857,0.22014,1.9008,9.93081,-0.00542127,0.00664296,-0.00374144,0
2024-12-11 14:38:41.857,0.22014,1.9008,9.93081,-0.00542127,0.00664296,-0.00374144,0
2024-12-11 14:38:41.858,0.22014,1.9008,9.93081,-0.00542127,0.00847551,0.000534491,0
2024-12-11 14:38:41.859,0.205783,1.90798,9.91885,-0.00542127,0.00847551,0.000534491,0
2024-12-11 14:38:41.860,0.205783,1.90798,9.91885,-0.00419957,0.010308,0.00114534,0
2024-12-11 14:38:41.860,0.205783,1.90798,9.91885,-0.00419957,0.010308,0.00114534,0
2024-12-11 14:38:41.862,0.189033,1.91037,9.89253,-0.00419957,0.010308,0.00114534,0
2024-12-11 14:38:41.863,0.189033,1.91037,9.89253,-0.00297788,0.0096972,0.00297788,0
2024-12-11 14:38:41.864,0.189033,1.91755,9.87099,-0.00297788,0.0096972,0.00297788,0
2024-12-11 14:38:41.864,0.189033,1.91755,9.87099,-0.00297788,0.0096972,0.00297788,0
2024-12-11 14:38:41.864,0.189033,1.91755,9.87099,-0.00297788,0.0096972,0.00297788,0
2024-12-11 14:38:41.864,0.189033,1.91755,9.87099,-0.00297788,0.0096972,0.00297788,0
2024-12-11 14:38:41.865,0.189033,1.91755,9.87099,-0.00175619,0.014584,0.00664296,0
2024-12-11 14:38:41.867,0.177069,1.92712,9.86142,-0.00175619,0.014584,0.0096972,0
2024-12-11 14:38:41.867,0.177069,1.92712,9.86142,-0.00175619,0.014584,0.0096972,0
2024-12-11 14:38:41.869,0.162712,1.94387,9.85185,-0.00175619,0.014584,0.0096972,0
2024-12-11 14:38:41.869,0.162712,1.94387,9.85185,-0.00175619,0.014584,0.0096972,0
2024-12-11 14:38:41.871,0.143569,1.95583,9.82792,-0.00175619,0.0158057,0.0133623,0
2024-12-11 14:38:41.871,0.143569,1.95583,9.82792,-0.00175619,0.0158057,0.0133623,0
2024-12-11 14:38:41.871,0.143569,1.95583,9.82792,-0.00175619,0.0158057,0.0133623,0
2024-12-11 14:38:41.873,0.119641,1.9657,9.77737,-0.00297788,0.0164165,0.0139731,0
2024-12-11 14:38:41.873,0.119641,1.9657,9.77737,-0.00297788,0.0164165,0.0139731,0
2024-12-11 14:38:41.874,0.119641,1.9657,9.77737,-0.00542127,0.0151948,0.0151948,0
2024-12-11 14:38:41.876,0.112463,1.97528,9.73909,-0.00542127,0.0151948,0.0151948,0
2024-12-11 14:38:41.876,0.112463,1.97528,9.73909,-0.00542127,0.0151948,0.0151948,0
2024-12-11 14:38:41.876,0.112463,1.97528,9.73909,-0.00542127,0.0151948,0.0151948,0
2024-12-11 14:38:41.878,0.114855,1.97288,9.71037,-0.00603212,0.0170274,0.0170274,0
2024-12-11 14:38:41.878,0.114855,1.97288,9.71037,-0.00603212,0.0170274,0.0170274,0
2024-12-11 14:38:41.879,0.114855,1.97288,9.71037,-0.0096972,0.0164165,0.0194708,0
2024-12-11 14:38:41.880,0.131605,1.99442,9.68166,-0.0096972,0.0164165,0.0194708,0
2024-12-11 14:38:41.880,0.131605,1.99442,9.68166,-0.0096972,0.0164165,0.0194708,0
2024-12-11 14:38:41.880,0.131605,1.99442,9.68166,-0.0096972,0.0164165,0.0194708,0
2024-12-11 14:38:41.881,0.131605,1.99442,9.68166,-0.0096972,0.0164165,0.0194708,0
2024-12-11 14:38:41.883,0.145962,2.00638,9.65773,-0.0133623,0.0158057,0.0194708,0
2024-12-11 14:38:41.883,0.145962,2.00638,9.65773,-0.0133623,0.0158057,0.0194708,0
2024-12-11 14:38:41.883,0.145962,2.00638,9.65773,-0.0133623,0.0158057,0.0194708,0
2024-12-11 14:38:41.884,0.145962,2.00638,9.65773,-0.0188599,0.0139731,0.0200816,0
2024-12-11 14:38:41.884,0.145962,2.00638,9.65773,-0.0188599,0.0139731,0.0200816,0
2024-12-11 14:38:41.885,0.153141,2.00877,9.6362,-0.0188599,0.0139731,0.0200816,0
2024-12-11 14:38:41.885,0.153141,2.00877,9.6362,-0.0188599,0.0139731,0.0200816,0
2024-12-11 14:38:41.886,0.153141,2.00877,9.6362,-0.0206925,0.014584,0.0213033,0
2024-12-11 14:38:41.887,0.162712,2.01356,9.60509,-0.0206925,0.014584,0.0213033,0
2024-12-11 14:38:41.887,0.162712,2.01356,9.60509,-0.0206925,0.014584,0.0213033,0
2024-12-11 14:38:41.887,0.162712,2.01356,9.60509,-0.0206925,0.014584,0.0213033,0
2024-12-11 14:38:41.887,0.162712,2.01356,9.60509,-0.0206925,0.014584,0.0213033,0
2024-12-11 14:38:41.888,0.162712,2.01356,9.60509,-0.0206925,0.014584,0.0213033,0
2024-12-11 14:38:41.888,0.162712,2.01356,9.60509,-0.0206925,0.014584,0.0213033,0
2024-12-11 14:38:41.890,0.179462,2.01835,9.58355,-0.0255792,0.0115297,0.0200816,0
2024-12-11 14:38:41.891,0.179462,2.01835,9.58355,-0.0310769,0.00786466,0.0164165,0
2024-12-11 14:38:41.891,0.179462,2.01835,9.58355,-0.0310769,0.00786466,0.0164165,0
2024-12-11 14:38:41.891,0.179462,2.01835,9.58355,-0.0310769,0.00786466,0.0164165,0
2024-12-11 14:38:41.892,0.189033,2.03031,9.57877,-0.0310769,0.00786466,0.0164165,0
2024-12-11 14:38:41.893,0.189033,2.03031,9.57877,-0.0310769,0.00786466,0.0164165,0
2024-12-11 14:38:41.893,0.189033,2.03031,9.57877,-0.0310769,0.00786466,0.0164165,0
2024-12-11 14:38:41.895,0.18664,2.04706,9.5692,-0.0365745,0.00725381,0.0176382,0
2024-12-11 14:38:41.895,0.18664,2.04706,9.5692,-0.0365745,0.00725381,0.0176382,0
2024-12-11 14:38:41.896,0.18664,2.04706,9.5692,-0.0414613,0.00542127,0.0170274,0
2024-12-11 14:38:41.896,0.18664,2.04706,9.5692,-0.0414613,0.00542127,0.0170274,0
2024-12-11 14:38:41.897,0.198604,2.05424,9.55005,-0.0365745,0.00725381,0.0176382,0
2024-12-11 14:38:41.897,0.198604,2.05424,9.55005,-0.0365745,0.00725381,0.0176382,0
2024-12-11 14:38:41.897,0.198604,2.05424,9.55005,-0.0365745,0.00725381,0.0176382,0
2024-12-11 14:38:41.897,0.198604,2.05424,9.55005,-0.0365745,0.00725381,0.0176382,0
2024-12-11 14:38:41.898,0.198604,2.05424,9.55005,-0.046348,0.00114534,0.0133623,0
2024-12-11 14:38:41.899,0.22014,2.05663,9.55005,-0.046348,0.00114534,0.0133623,0
2024-12-11 14:38:41.899,0.22014,2.05663,9.55005,-0.046348,0.00114534,0.0133623,0
2024-12-11 14:38:41.900,0.22014,2.05663,9.55005,-0.0536782,-0.00313059,0.0109189,0
2024-12-11 14:38:41.902,0.244068,2.05424,9.55484,-0.0536782,-0.00313059,0.0109189,0
2024-12-11 14:38:41.902,0.244068,2.05424,9.55484,-0.0536782,-0.00313059,0.0109189,0
2024-12-11 14:38:41.902,0.244068,2.05424,9.55484,-0.0536782,-0.00313059,0.0109189,0
2024-12-11 14:38:41.904,0.253639,2.05424,9.56441,-0.0597867,-0.00679568,0.00786466,0
2024-12-11 14:38:41.904,0.253639,2.05424,9.56441,-0.0597867,-0.00679568,0.00786466,0
2024-12-11 14:38:41.904,0.253639,2.05424,9.56441,-0.0597867,-0.00679568,0.00786466,0
2024-12-11 14:38:41.904,0.253639,2.05424,9.56441,-0.0597867,-0.00679568,0.00786466,0
2024-12-11 14:38:41.906,0.265603,2.05902,9.57159,-0.0658951,-0.0104608,0.00358873,0
2024-12-11 14:38:41.906,0.265603,2.05902,9.57159,-0.0658951,-0.0104608,0.00358873,0
2024-12-11 14:38:41.906,0.265603,2.05902,9.57159,-0.0658951,-0.0104608,0.00358873,0
2024-12-11 14:38:41.906,0.265603,2.05902,9.57159,-0.0658951,-0.0104608,0.00358873,0
2024-12-11 14:38:41.907,0.265603,2.05902,9.57159,-0.0695602,-0.0122933,-0.000687203,0
2024-12-11 14:38:41.907,0.265603,2.05902,9.57159,-0.0695602,-0.0122933,-0.000687203,0
2024-12-11 14:38:41.910,0.277567,2.05185,9.57877,-0.074447,-0.0165692,-0.00251974,0
2024-12-11 14:38:41.910,0.277567,2.05185,9.57877,-0.074447,-0.0165692,-0.00251974,0
2024-12-11 14:38:41.911,0.294616,2.04706,9.60987,-0.074447,-0.0165692,-0.00251974,0
2024-12-11 14:38:41.911,0.294616,2.04706,9.60987,-0.074447,-0.0165692,-0.00251974,0
2024-12-11 14:38:41.911,0.294616,2.04706,9.60987,-0.074447,-0.0165692,-0.00251974,0
2024-12-11 14:38:41.911,0.294616,2.04706,9.60987,-0.074447,-0.0165692,-0.00251974,0
2024-12-11 14:38:41.912,0.294616,2.04706,9.60987,-0.0781121,-0.0208452,-0.0104608,0
2024-12-11 14:38:41.912,0.294616,2.04706,9.60987,-0.0781121,-0.0208452,-0.0104608,0
2024-12-11 14:38:41.913,0.299402,2.04467,9.65055,-0.0781121,-0.0208452,-0.0104608,0
2024-12-11 14:38:41.914,0.299402,2.04467,9.65055,-0.0781121,-0.0208452,-0.0104608,0
2024-12-11 14:38:41.916,0.289831,2.03988,9.69602,-0.082388,-0.0226777,-0.013515,0
2024-12-11 14:38:41.916,0.289831,2.03988,9.69602,-0.082388,-0.0226777,-0.013515,0
2024-12-11 14:38:41.916,0.289831,2.03988,9.69602,-0.082388,-0.0226777,-0.013515,0
2024-12-11 14:38:41.916,0.289831,2.03988,9.69602,-0.082388,-0.0226777,-0.013515,0
2024-12-11 14:38:41.917,0.289831,2.03988,9.69602,-0.082388,-0.0245102,-0.0159584,0
2024-12-11 14:38:41.918,0.301795,2.04227,9.73669,-0.082388,-0.0245102,-0.0159584,0
2024-12-11 14:38:41.919,0.301795,2.04227,9.73669,-0.0829989,-0.0251211,-0.0220669,0
2024-12-11 14:38:41.920,0.299402,2.0327,9.7678,-0.0829989,-0.0251211,-0.0220669,0
2024-12-11 14:38:41.923,0.287438,2.01835,9.78694,-0.0848314,-0.0251211,-0.0251211,0
2024-12-11 14:38:41.926,0.285045,2.00877,9.80369,-0.0817772,-0.0238994,-0.0257319,0
2024-12-11 14:38:41.927,0.270389,1.9992,9.83031,-0.0817772,-0.0238994,-0.0257319,0
2024-12-11 14:38:41.930,0.256032,1.97767,9.85424,-0.0829989,-0.0232886,-0.0281753,0
2024-12-11 14:38:41.932,0.234497,1.95583,9.89013,-0.082388,-0.0220669,-0.0287862,0
2024-12-11 14:38:41.936,0.232104,1.93908,9.92842,-0.0756687,-0.0190126,-0.029397,0
2024-12-11 14:38:41.938,0.229711,1.92712,9.95953,-0.0756687,-0.0190126,-0.029397,0
2024-12-11 14:38:41.939,0.20339,1.91276,9.9691,-0.0762796,-0.0165692,-0.029397,0
2024-12-11 14:38:41.942,0.189033,1.9008,9.97149,-0.0732253,-0.0141258,-0.0269536,0
2024-12-11 14:38:41.944,0.172283,1.9008,9.99781,-0.0701711,-0.00862822,-0.0232886,0
2024-12-11 14:38:41.947,0.145962,1.89841,9.97628,-0.0689494,-0.00435229,-0.0220669,0
2024-12-11 14:38:41.949,0.129212,1.89841,9.9356,-0.0646735,0.00419957,-0.0196235,0
2024-12-11 14:38:41.951,0.122034,1.9008,9.93081,-0.0616192,0.0109189,-0.013515,0
2024-12-11 14:38:41.956,0.119641,1.8673,9.91646,-0.0579541,0.0200816,-0.00496313,0
2024-12-11 14:38:41.957,0.119641,1.8673,9.91646,-0.0573433,0.0200816,-7.63559e-05,0
2024-12-11 14:38:41.959,0.117248,1.87208,9.91167,-0.0573433,0.0200816,-7.63559e-05,0
2024-12-11 14:38:41.960,0.122034,1.87687,9.90688,-0.0567324,0.022525,0.00297788,0
2024-12-11 14:38:41.966,0.143569,1.89362,9.90688,-0.0487914,0.0249684,0.014584,0
2024-12-11 14:38:41.968,0.148355,1.91276,9.88056,-0.0487914,0.0249684,0.014584,0
2024-12-11 14:38:41.969,0.148355,1.91276,9.88056,-0.0475697,0.0219141,0.0170274,0
2024-12-11 14:38:41.971,0.141177,1.91994,9.86142,-0.0475697,0.0219141,0.0194708,0
2024-12-11 14:38:41.973,0.129212,1.92233,9.86381,-0.0475697,0.0219141,0.0194708,0
2024-12-11 14:38:41.975,0.136391,1.92233,9.87338,-0.0445155,0.0219141,0.0206925,0
2024-12-11 14:38:41.977,0.148355,1.93191,9.87338,-0.0402396,0.0243575,0.0243575,0
2024-12-11 14:38:41.980,0.122034,1.97049,9.86142,-0.0341311,0.0402396,0.0310769,0
2024-12-11 14:38:41.983,0.117248,1.99442,9.81087,-0.0322986,0.0481806,0.0353528,0
2024-12-11 14:38:41.984,0.157926,1.97288,9.73669,-0.0322986,0.0481806,0.0353528,0
2024-12-11 14:38:41.986,0.200997,1.94626,9.69123,-0.0310769,0.0530674,0.0408504,0
2024-12-11 14:38:41.990,0.208176,1.92951,9.68645,-0.0322986,0.0518457,0.042683,0
2024-12-11 14:38:41.991,0.198604,1.92712,9.70798,-0.0322986,0.0518457,0.042683,0
2024-12-11 14:38:41.994,0.193819,1.9343,9.71037,-0.0329094,0.0469589,0.042683,0
2024-12-11 14:38:41.996,0.200997,1.95105,9.68645,-0.0322986,0.0475697,0.0445155,0
2024-12-11 14:38:41.998,0.222533,1.97288,9.66012,-0.0310769,0.0475697,0.0439046,0
2024-12-11 14:38:42.001,0.239282,1.99442,9.65295,-0.0274118,0.0475697,0.0457372,0
2024-12-11 14:38:42.003,0.251246,2.01356,9.6673,-0.0213033,0.0487914,0.0487914,0
2024-12-11 14:38:42.005,0.272782,2.02313,9.67687,-0.0164165,0.0524565,0.0494023,0
2024-12-11 14:38:42.009,0.289831,2.02313,9.66012,-0.00542127,0.0555107,0.0457372,0
2024-12-11 14:38:42.011,0.294616,2.0351,9.63141,0.0019089,0.0567324,0.0445155,0
2024-12-11 14:38:42.015,0.313759,2.07817,9.52852,0.00679568,0.0573433,0.0414613,0
2024-12-11 14:38:42.016,0.30658,2.0662,9.58834,0.00679568,0.0573433,0.0414613,0
2024-12-11 14:38:42.017,0.299402,2.07817,9.48306,0.0122933,0.0603975,0.0402396,0
2024-12-11 14:38:42.019,0.275175,2.09492,9.43998,0.0177909,0.0628409,0.0371853,0
2024-12-11 14:38:42.022,0.241675,2.11884,9.4017,0.0226777,0.0658951,0.0365745,0
2024-12-11 14:38:42.024,0.200997,2.14277,9.36102,0.0269536,0.0677277,0.0347419,0
2024-12-11 14:38:42.026,0.177069,2.15713,9.29881,0.0318404,0.0695602,0.0353528,0
2024-12-11 14:38:42.029,0.155533,2.15952,9.23151,0.0367272,0.0738362,0.0377962,0
2024-12-11 14:38:42.031,0.12682,2.15713,9.15733,0.0385597,0.0750579,0.0402396,0
2024-12-11 14:38:42.033,0.11007,2.18106,9.0999,0.0397814,0.0775012,0.042683,0
2024-12-11 14:38:42.036,0.107677,2.18824,9.04248,0.0397814,0.0793338,0.0451263,0
2024-12-11 14:38:42.038,0.114855,2.18584,8.96591,0.0403923,0.0799446,0.0475697,0
2024-12-11 14:38:42.041,0.112463,2.20259,8.92044,0.0385597,0.0787229,0.0487914,0
2024-12-11 14:38:42.043,0.102891,2.23131,8.88216,0.0342838,0.0750579,0.0500131,0
2024-12-11 14:38:42.046,0.102891,2.26959,8.83909,0.0269536,0.0720036,0.0494023,0
2024-12-11 14:38:42.048,0.11007,2.30548,8.8008,0.0269536,0.0720036,0.0494023,0
2024-12-11 14:38:42.050,0.0885344,2.34138,8.75773,0.021456,0.0677277,0.050624,0
2024-12-11 14:38:42.055,0.0334995,2.42752,8.76252,0.0129041,0.0628409,0.0500131,0
2024-12-11 14:38:42.056,0.0334995,2.42752,8.76252,0.0129041,0.0628409,0.0500131,0
2024-12-11 14:38:42.057,0.11007,2.46102,8.71466,0.00557398,0.0555107,0.046348,0
2024-12-11 14:38:42.059,0.162712,2.45384,8.66172,-0.00114534,0.0445155,0.0445155,0
2024-12-11 14:38:42.062,0.198604,2.4658,8.62343,-0.0133623,0.0261901,0.038407,0
2024-12-11 14:38:42.065,0.205783,2.49452,8.6019,-0.0347419,-0.0153475,0.0219141,0
2024-12-11 14:38:42.067,0.189033,2.4993,8.62104,-0.0347419,-0.0153475,0.0219141,0
2024-12-11 14:38:42.070,0.181855,2.50409,8.64018,-0.0616192,-0.0526092,0.00664296,0
2024-12-11 14:38:42.071,0.208176,2.52323,8.63779,-0.0616192,-0.0526092,0.00664296,0
2024-12-11 14:38:42.078,0.330509,2.59292,8.83909,-0.0787229,-0.0727672,-0.00313059,0
2024-12-11 14:38:42.078,0.330509,2.59292,8.83909,-0.0787229,-0.0727672,-0.00313059,0
2024-12-11 14:38:42.081,0.359223,2.6001,8.99941,-0.11293,-0.108807,-0.0361163,0
2024-12-11 14:38:42.081,0.359223,2.6001,8.99941,-0.11293,-0.108807,-0.0361163,0
2024-12-11 14:38:42.084,0.368794,2.61207,9.11905,-0.124536,-0.131409,-0.0562743,0
2024-12-11 14:38:42.085,0.387936,2.6001,9.22672,-0.124536,-0.131409,-0.0562743,0
2024-12-11 14:38:42.088,0.411865,2.58335,9.31556,-0.130645,-0.143625,-0.0703238,0
2024-12-11 14:38:42.090,0.438186,2.56421,9.39213,-0.137975,-0.157064,-0.0849841,0
2024-12-11 14:38:42.095,0.464507,2.4993,9.54527,-0.147138,-0.179665,-0.114305,0
2024-12-11 14:38:42.095,0.464507,2.4993,9.54527,-0.147138,-0.179665,-0.114305,0
2024-12-11 14:38:42.097,0.462114,2.4682,9.62184,-0.153857,-0.189439,-0.127133,0
2024-12-11 14:38:42.099,0.469292,2.43709,9.71037,-0.157522,-0.196769,-0.136906,0
2024-12-11 14:38:42.103,0.459721,2.39163,9.8013,-0.160576,-0.207154,-0.147291,0
2024-12-11 14:38:42.104,0.445364,2.35813,9.89731,-0.161187,-0.210819,-0.158897,0
2024-12-11 14:38:42.106,0.431007,2.3342,9.97628,-0.165463,-0.218149,-0.167449,0
2024-12-11 14:38:42.110,0.419043,2.29113,10.0505,-0.166685,-0.219981,-0.180887,0
2024-12-11 14:38:42.111,0.385544,2.24088,10.1342,-0.166685,-0.219981,-0.180887,0
2024-12-11 14:38:42.113,0.34008,2.19302,10.2084,-0.164852,-0.219371,-0.185163,0
2024-12-11 14:38:42.117,0.318545,2.13799,10.2873,-0.154468,-0.205932,-0.188217,0
2024-12-11 14:38:42.118,0.311366,2.09731,10.3472,-0.154468,-0.205932,-0.188217,0
2024-12-11 14:38:42.121,0.311366,2.07099,10.3783,-0.14836,-0.199213,-0.186996,0
2024-12-11 14:38:42.125,0.359223,1.95583,10.3783,-0.138586,-0.188828,-0.183941,0
2024-12-11 14:38:42.125,0.359223,1.95583,10.3783,-0.138586,-0.188828,-0.183941,0
2024-12-11 14:38:42.128,0.407079,1.89841,10.3759,-0.139197,-0.185774,-0.183941,0
2024-12-11 14:38:42.131,0.457328,1.84576,10.4025,-0.135532,-0.179665,-0.179055,0
2024-12-11 14:38:42.132,0.507577,1.8003,10.4288,-0.135532,-0.179665,-0.179055,0
2024-12-11 14:38:42.136,0.557827,1.76201,10.4527,-0.132477,-0.166227,-0.180276,0
2024-12-11 14:38:42.137,0.600898,1.7333,10.4862,-0.132477,-0.166227,-0.180276,0
2024-12-11 14:38:42.139,0.617647,1.73091,10.5245,-0.130034,-0.155232,-0.18272,0
2024-12-11 14:38:42.143,0.600898,1.71177,10.57,-0.114763,-0.120413,-0.177222,0
2024-12-11 14:38:42.144,0.596112,1.70698,10.6107,-0.114763,-0.120413,-0.177222,0
2024-12-11 14:38:42.147,0.596112,1.72612,10.6346,-0.108044,-0.0996445,-0.174779,0
2024-12-11 14:38:42.152,0.553041,1.75005,10.6537,-0.0713928,-0.0122933,-0.160118,0
2024-12-11 14:38:42.152,0.553041,1.75005,10.6537,-0.0713928,-0.0122933,-0.160118,0
2024-12-11 14:38:42.155,0.507577,1.75962,10.5844,-0.0713928,-0.0122933,-0.160118,0
2024-12-11 14:38:42.156,0.462114,1.76919,10.4862,-0.058565,0.0158057,-0.151566,0
2024-12-11 14:38:42.159,0.414257,1.78834,10.3591,-0.0432938,0.0713928,-0.13263,0
2024-12-11 14:38:42.161,0.352044,1.80987,10.2156,-0.0432938,0.0713928,-0.13263,0
2024-12-11 14:38:42.164,0.282652,1.83141,10.0672,-0.0292443,0.123926,-0.111251,0
2024-12-11 14:38:42.166,0.222533,1.88166,9.90928,-0.0292443,0.123926,-0.111251,0
2024-12-11 14:38:42.168,0.179462,1.93908,9.75823,-0.0298552,0.145305,-0.0984228,0
2024-12-11 14:38:42.170,0.131605,1.99442,9.62423,-0.0298552,0.163631,-0.0862058,0
2024-12-11 14:38:42.172,0.0957129,2.05424,9.49023,-0.0329094,0.180734,-0.0758214,0
2024-12-11 14:38:42.176,0.0646062,2.1332,9.35863,-0.0445155,0.203947,-0.0556635,0
2024-12-11 14:38:42.177,0.0502493,2.20977,9.2363,-0.0445155,0.203947,-0.0556635,0
2024-12-11 14:38:42.179,0.0430708,2.27438,9.12623,-0.0518457,0.209444,-0.0458899,0
2024-12-11 14:38:42.182,0.0358923,2.34377,9.01137,-0.0597867,0.215553,-0.0385597,0
2024-12-11 14:38:42.184,0.0430708,2.41795,8.90609,-0.0707819,0.21372,-0.0348946,0
2024-12-11 14:38:42.186,0.0574277,2.48255,8.8343,-0.0854423,0.205168,-0.0318404,0
2024-12-11 14:38:42.189,0.0789631,2.53789,8.75534,-0.100103,0.190508,-0.0300079,0
2024-12-11 14:38:42.191,0.119641,2.57857,8.69043,-0.116595,0.168517,-0.0324513,0
2024-12-11 14:38:42.196,0.241675,2.6336,8.7003,-0.153246,0.110487,-0.0385597,0
2024-12-11 14:38:42.196,0.241675,2.6336,8.7003,-0.153246,0.110487,-0.0385597,0
2024-12-11 14:38:42.198,0.320937,2.65992,8.74577,-0.169739,0.0750579,-0.0446682,0
2024-12-11 14:38:42.201,0.404686,2.68624,8.80798,-0.185621,0.0371853,-0.0519984,0
2024-12-11 14:38:42.203,0.495613,2.69342,8.89173,-0.202114,-0.00313059,-0.0629936,0
2024-12-11 14:38:42.205,0.588933,2.71735,9.00658,-0.214331,-0.0397814,-0.077654,0
2024-12-11 14:38:42.209,0.691825,2.73649,9.1334,-0.24243,-0.119192,-0.104531,0
2024-12-11 14:38:42.211,0.797109,2.71496,9.27009,-0.24243,-0.119192,-0.104531,0
2024-12-11 14:38:42.216,0.952942,2.69342,9.65773,-0.252814,-0.210819,-0.15401,0
2024-12-11 14:38:42.217,0.991227,2.66471,9.87099,-0.252814,-0.210819,-0.15401,0
2024-12-11 14:38:42.219,1.02951,2.62403,10.0911,-0.244873,-0.227312,-0.169281,0
2024-12-11 14:38:42.222,1.04865,2.58814,10.2826,-0.233878,-0.238307,-0.181498,0
2024-12-11 14:38:42.223,1.04865,2.58814,10.2826,-0.217996,-0.244415,-0.191882,0
2024-12-11 14:38:42.224,1.02233,2.55464,10.4312,-0.217996,-0.244415,-0.191882,0
2024-12-11 14:38:42.229,0.893121,2.45623,10.6202,-0.181956,-0.249913,-0.205321,0
2024-12-11 14:38:42.229,0.893121,2.45623,10.6202,-0.181956,-0.249913,-0.205321,0
2024-12-11 14:38:42.231,0.82343,2.42034,10.6705,-0.181956,-0.249913,-0.205321,0
2024-12-11 14:38:42.234,0.727717,2.4012,10.6896,-0.146527,-0.243194,-0.198602,0
2024-12-11 14:38:42.238,0.557827,2.38923,10.6705,-0.114152,-0.223646,-0.179665,0
2024-12-11 14:38:42.239,0.557827,2.38923,10.6705,-0.100713,-0.207154,-0.165616,0
2024-12-11 14:38:42.241,0.471685,2.40838,10.6346,-0.100713,-0.207154,-0.165616,0
2024-12-11 14:38:42.244,0.380758,2.45384,10.5963,-0.0750579,-0.163173,-0.127133,0
2024-12-11 14:38:42.245,0.304188,2.4993,10.5341,-0.0750579,-0.163173,-0.127133,0
2024-12-11 14:38:42.248,0.253639,2.54267,10.4408,-0.0646735,-0.137517,-0.10331,0
2024-12-11 14:38:42.251,0.215354,2.60967,10.3208,-0.0561216,-0.0837624,-0.0556635,0
2024-12-11 14:38:42.253,0.205783,2.67906,10.1845,-0.0561216,-0.0837624,-0.0556635,0
2024-12-11 14:38:42.255,0.20339,2.76042,10.0457,-0.0542891,-0.0556635,-0.0300079,0
2024-12-11 14:38:42.257,0.210568,2.82981,9.90688,-0.0616192,-0.0300079,-0.00740652,0
2024-12-11 14:38:42.260,0.251246,2.90638,9.77498,-0.0701711,-0.00374144,0.0133623,0
2024-12-11 14:38:42.262,0.27996,2.99731,9.65773,-0.0805555,0.0200816,0.0347419,0
2024-12-11 14:38:42.264,0.316152,3.1005,9.5668,-0.0933833,0.0390179,0.050624,0
2024-12-11 14:38:42.267,0.368794,3.20339,9.49263,-0.111098,0.0579541,0.0646735,0
2024-12-11 14:38:42.269,0.404686,3.31346,9.42563,-0.128812,0.0738362,0.0750579,0
2024-12-11 14:38:42.271,0.421436,3.41875,9.39691,-0.147749,0.0860531,0.0854423,0
2024-12-11 14:38:42.275,0.440578,3.50967,9.38256,-0.1844,0.100713,0.0958267,0
2024-12-11 14:38:42.277,0.4669,3.6006,9.38256,-0.1844,0.100713,0.0958267,0
2024-12-11 14:38:42.279,0.495613,3.68704,9.41127,-0.217996,0.103157,0.0970484,0
2024-12-11 14:38:42.281,0.52672,3.76361,9.43998,-0.217996,0.103157,0.0970484,0
2024-12-11 14:38:42.284,0.550648,3.84736,9.47348,-0.233267,0.0976592,0.0927724,0
2024-12-11 14:38:42.285,0.569791,3.91914,9.51895,-0.246706,0.0897182,0.0884965,0
2024-12-11 14:38:42.288,0.591326,3.967,9.58595,-0.25709,0.0750579,0.082388,0
2024-12-11 14:38:42.290,0.60329,4.00289,9.64816,-0.265031,0.058565,0.074447,0
2024-12-11 14:38:42.292,0.610469,4.02921,9.70319,-0.265031,0.058565,0.074447,0
2024-12-11 14:38:42.295,0.624826,4.03879,9.74627,-0.280303,0.0158057,0.0555107,0
2024-12-11 14:38:42.297,0.670289,4.02682,9.79652,-0.287022,-0.00923906,0.0439046,0
2024-12-11 14:38:42.299,0.722932,3.99093,9.86381,-0.288854,-0.0397814,0.0268009,0
2024-12-11 14:38:42.303,0.725324,3.93589,9.95953,-0.294352,-0.111861,-0.00374144,0
2024-12-11 14:38:42.305,0.646361,3.87368,10.0576,-0.29313,-0.148512,-0.0122933,0
2024-12-11 14:38:42.307,0.593719,3.8019,10.1438,-0.29313,-0.148512,-0.0122933,0
2024-12-11 14:38:42.309,0.672682,3.71097,10.261,-0.292519,-0.188217,-0.0208452,0
2024-12-11 14:38:42.311,0.804287,3.61256,10.3857,-0.290687,-0.229144,-0.0330621,0
2024-12-11 14:38:42.315,0.917049,3.51924,10.5485,-0.283968,-0.267627,-0.0477224,0
2024-12-11 14:38:42.316,1.01276,3.44028,10.7566,-0.273583,-0.304278,-0.0636045,0
2024-12-11 14:38:42.318,1.05823,3.3661,10.9579,-0.259534,-0.333599,-0.0800973,0
2024-12-11 14:38:42.321,1.06062,3.28953,11.1422,-0.239987,-0.354979,-0.0953685,0
2024-12-11 14:38:42.323,1.04148,3.23689,11.3121,-0.21372,-0.373304,-0.109418,0
2024-12-11 14:38:42.325,0.99362,3.201,11.458,-0.18501,-0.379413,-0.121024,0
2024-12-11 14:38:42.328,0.924228,3.17468,11.5684,-0.152025,-0.378802,-0.130187,0
2024-12-11 14:38:42.330,0.847657,3.14596,11.6354,-0.117206,-0.372082,-0.133852,0
2024-12-11 14:38:42.333,0.754038,3.09093,11.6785,-0.0799446,-0.359255,-0.133852,0
2024-12-11 14:38:42.335,0.655932,3.02602,11.6641,-0.042683,-0.342151,-0.13263,0
2024-12-11 14:38:42.337,0.553041,2.9662,11.5995,-0.00542127,-0.32016,-0.126522,0
2024-12-11 14:38:42.340,0.452543,2.92074,11.5182,0.0245102,-0.296948,-0.115526,0
2024-12-11 14:38:42.342,0.373579,2.87528,11.3886,0.0556635,-0.265184,-0.102699,0
2024-12-11 14:38:42.344,0.299402,2.84895,11.2307,0.0862058,-0.235253,-0.0862058,0
2024-12-11 14:38:42.348,0.22014,2.8322,11.0513,0.132019,-0.163173,-0.0501658,0
2024-12-11 14:38:42.350,0.145962,2.82024,10.8356,0.148512,-0.128354,-0.0312296,0
2024-12-11 14:38:42.352,0.0837488,2.8322,10.6083,0.160729,-0.0947577,-0.0104608,0
2024-12-11 14:38:42.354,0.040678,2.85374,10.3807,0.160729,-0.0947577,-0.0104608,0
2024-12-11 14:38:42.357,0.0215354,2.88006,10.1677,0.169281,-0.0636045,0.010308,0
2024-12-11 14:38:42.358,0.0119641,2.90399,9.95953,0.170503,-0.0355055,0.0298552,0
2024-12-11 14:38:42.362,0.0334995,2.93988,9.75584,0.167449,0.0243575,0.0597867,0
2024-12-11 14:38:42.364,0.0717847,2.98295,9.58355,0.166227,0.0561216,0.0701711,0
2024-12-11 14:38:42.366,0.100499,3.03081,9.46631,0.166227,0.0561216,0.0701711,0
2024-12-11 14:38:42.368,0.129212,3.05952,9.37059,0.164394,0.0872748,0.0756687,0
2024-12-11 14:38:42.370,0.136391,3.09332,9.2363,0.165616,0.113541,0.082388,0
2024-12-11 14:38:42.373,0.133998,3.15314,9.11187,0.160729,0.138586,0.0854423,0
2024-12-11 14:38:42.376,0.12682,3.19382,8.97069,0.147291,0.166685,0.0884965,0
2024-12-11 14:38:42.377,0.119641,3.20818,8.81037,0.147291,0.166685,0.0884965,0
2024-12-11 14:38:42.380,0.141177,3.21296,8.65693,0.136906,0.176459,0.0884965,0
2024-12-11 14:38:42.383,0.165105,3.19861,8.49901,0.113694,0.190508,0.0860531,0
2024-12-11 14:38:42.384,0.196211,3.18664,8.37937,0.113694,0.190508,0.0860531,0
2024-12-11 14:38:42.387,0.205783,3.18903,8.29562,0.100255,0.198449,0.0817772,0
2024-12-11 14:38:42.389,0.205783,3.18903,8.21426,0.0880384,0.202725,0.0750579,0
2024-12-11 14:38:42.391,0.239282,3.18186,8.12543,0.0752106,0.203336,0.0707819,0
2024-12-11 14:38:42.394,0.267996,3.17468,8.06082,0.057496,0.201503,0.0640626,0
2024-12-11 14:38:42.396,0.277567,3.17228,8.00818,0.0452791,0.194173,0.0555107,0
2024-12-11 14:38:42.398,0.282652,3.17228,7.97468,0.0324513,0.18501,0.0481806,0
2024-12-11 14:38:42.402,0.292223,3.17707,7.96989,0.0202343,0.175848,0.0402396,0
2024-12-11 14:38:42.403,0.289831,3.16271,7.9675,0.00801737,0.164852,0.0310769,0
2024-12-11 14:38:42.405,0.265603,3.14596,7.97468,-0.00297788,0.153857,0.0200816,0
2024-12-11 14:38:42.408,0.232104,3.13639,7.99621,-0.00847551,0.144084,0.0121406,0
2024-12-11 14:38:42.411,0.227318,3.14357,8.02254,-0.0115297,0.134921,0.00419957,0
2024-12-11 14:38:42.413,0.215354,3.13639,8.04407,-0.0133623,0.124536,-0.00313059,0
2024-12-11 14:38:42.416,0.200997,3.12682,8.07757,-0.0151948,0.114763,-0.00862822,0
2024-12-11 14:38:42.417,0.196211,3.11725,8.10389,-0.0151948,0.104379,-0.0147367,0
2024-12-11 14:38:42.420,0.174676,3.10768,8.10629,-0.0127514,0.0939941,-0.0196235,0
2024-12-11 14:38:42.422,0.145962,3.09811,8.11346,-0.0109189,0.082388,-0.0245102,0
2024-12-11 14:38:42.425,0.122034,3.09332,8.135,-0.00236703,0.0652843,-0.0318404,0
2024-12-11 14:38:42.427,0.107677,3.1005,8.15444,-0.00236703,0.0652843,-0.0318404,0
2024-12-11 14:38:42.430,0.107677,3.08584,8.15205,0.00801737,0.0500131,-0.0300079,0
2024-12-11 14:38:42.431,0.11007,3.07149,8.15923,0.00801737,0.0500131,-0.0300079,0
2024-12-11 14:38:42.434,0.11007,3.07627,8.18555,0.0141258,0.0439046,-0.0300079,0
2024-12-11 14:38:42.436,0.105284,3.08584,8.20708,0.0208452,0.0371853,-0.0281753,0
2024-12-11 14:38:42.438,0.0981057,3.09093,8.20469,0.0263428,0.0322986,-0.0257319,0
2024-12-11 14:38:42.441,0.102891,3.09332,8.1999,0.033673,0.0322986,-0.0251211,0
2024-12-11 14:38:42.443,0.102891,3.10529,8.17358,0.0385597,0.0292443,-0.0196235,0
2024-12-11 14:38:42.445,0.0837488,3.12443,8.14008,0.041614,0.0268009,-0.0159584,0
2024-12-11 14:38:42.448,0.0741775,3.13639,8.1015,0.0428357,0.0268009,-0.0122933,0
2024-12-11 14:38:42.450,0.0717847,3.15553,8.05364,0.0403923,0.0261901,-0.00801737,0
2024-12-11 14:38:42.453,0.0502493,3.17946,8.0345,0.0397814,0.0286335,-0.00435229,0
2024-12-11 14:38:42.455,0.040678,3.21296,7.99382,0.0361163,0.0341311,0.00114534,0
2024-12-11 14:38:42.458,0.0454636,3.25843,7.95554,0.0269536,0.0500131,0.0121406,0
2024-12-11 14:38:42.460,0.0454636,3.29671,7.93639,0.0269536,0.0500131,0.0121406,0
2024-12-11 14:38:42.463,0.0526421,3.32303,7.91964,0.0129041,0.0720036,0.0231358,0
2024-12-11 14:38:42.464,0.0574277,3.35653,7.91486,0.0129041,0.0720036,0.0231358,0
2024-12-11 14:38:42.467,0.0741775,3.39721,7.91486,0.00801737,0.0872748,0.0249684,0
2024-12-11 14:38:42.469,0.0957129,3.44267,7.91486,-0.00236703,0.100103,0.0268009,0
2024-12-11 14:38:42.472,0.105284,3.48574,7.88854,-0.0127514,0.111098,0.0286335,0
2024-12-11 14:38:42.474,0.117248,3.51685,7.867,-0.0237467,0.11965,0.0280226,0
2024-12-11 14:38:42.476,0.131605,3.55753,7.86222,-0.0365745,0.128202,0.030466,0
2024-12-11 14:38:42.479,0.138784,3.57906,7.85743,-0.0512348,0.133088,0.0280226,0
2024-12-11 14:38:42.481,0.157926,3.58146,7.85982,-0.066506,0.137975,0.0280226,0
2024-12-11 14:38:42.484,0.174676,3.60778,7.8694,-0.0829989,0.142862,0.0274118,0
2024-12-11 14:38:42.485,0.177069,3.62692,7.9005,-0.100713,0.144694,0.0243575,0
2024-12-11 14:38:42.488,0.16989,3.62453,7.93639,-0.100713,0.144694,0.0243575,0
2024-12-11 14:38:42.491,0.162712,3.62931,7.99382,-0.143473,0.146527,0.0200816,0
2024-12-11 14:38:42.494,0.138784,3.64367,8.07518,-0.156911,0.146527,0.0188599,0
2024-12-11 14:38:42.495,0.112463,3.66072,8.1688,-0.156911,0.146527,0.0188599,0
2024-12-11 14:38:42.497,0.102891,3.6679,8.26451,-0.167907,0.145916,0.0188599,0
2024-12-11 14:38:42.500,0.0933201,3.6679,8.34587,-0.174626,0.140419,0.0170274,0
2024-12-11 14:38:42.502,0.0789631,3.67268,8.43679,-0.181345,0.136753,0.0176382,0
2024-12-11 14:38:42.505,0.0741775,3.67747,8.54447,-0.185621,0.130034,0.0176382,0
2024-12-11 14:38:42.507,0.066999,3.67986,8.67608,-0.187454,0.122704,0.0206925,0
2024-12-11 14:38:42.510,0.0478565,3.69183,8.79841,-0.183789,0.108044,0.0268009,0
2024-12-11 14:38:42.511,0.0287139,3.67029,8.91566,-0.183789,0.108044,0.0268009,0
2024-12-11 14:38:42.514,0.026321,3.66311,9.04487,-0.179513,0.0994917,0.030466,0
2024-12-11 14:38:42.516,0.0287139,3.6679,9.1693,-0.171572,0.0897182,0.0341311,0
2024-12-11 14:38:42.518,0.026321,3.63649,9.29163,-0.160576,0.0799446,0.0396287,0
2024-12-11 14:38:42.522,0.0311067,3.61974,9.41606,-0.144694,0.0713928,0.0439046,0
2024-12-11 14:38:42.523,0.0215354,3.61735,9.53091,-0.129423,0.0652843,0.0518457,0
2024-12-11 14:38:42.526,-0.00478565,3.61735,9.64098,-0.111709,0.0573433,0.0579541,0
2024-12-11 14:38:42.529,-0.0143569,3.61735,9.73191,-0.0750579,0.050624,0.0738362,0
2024-12-11 14:38:42.531,-0.0191426,3.61735,9.79652,-0.0512348,0.0500131,0.082388,0
2024-12-11 14:38:42.533,-0.0215354,3.62453,9.83988,-0.0512348,0.0500131,0.082388,0
2024-12-11 14:38:42.536,-0.0215354,3.62692,9.86142,-0.0298552,0.0494023,0.0939941,0
2024-12-11 14:38:42.538,-0.0287139,3.62692,9.88056,-0.00725381,0.0500131,0.101324,0
2024-12-11 14:38:42.540,-0.0334995,3.64128,9.87817,0.0116825,0.0500131,0.113541,0
2024-12-11 14:38:42.542,-0.0287139,3.65115,9.84467,0.0300079,0.0512348,0.123926,0
2024-12-11 14:38:42.544,-0.0119641,3.66551,9.79412,0.0452791,0.0548999,0.133088,0
2024-12-11 14:38:42.548,0.0191426,3.67508,9.74148,0.0709346,0.0646735,0.152025,0
2024-12-11 14:38:42.549,0.026321,3.69661,9.67448,0.0709346,0.0646735,0.152025,0
2024-12-11 14:38:42.551,0.0215354,3.72533,9.60509,0.077654,0.066506,0.159355,0
2024-12-11 14:38:42.555,0.026321,3.74447,9.56202,0.0837624,0.074447,0.17768,0
2024-12-11 14:38:42.557,0.0287139,3.77079,9.51655,0.0837624,0.074447,0.17768,0
2024-12-11 14:38:42.558,0.040678,3.81147,9.48306,0.0849841,0.0781121,0.1844,0
2024-12-11 14:38:42.562,0.0598206,3.84257,9.45434,0.0788757,0.0884965,0.198449,0
2024-12-11 14:38:42.563,0.0861416,3.87368,9.42323,0.0788757,0.0884965,0.198449,0
2024-12-11 14:38:42.566,0.114855,3.90957,9.40409,0.0770431,0.094605,0.205779,0
2024-12-11 14:38:42.568,0.138784,3.93829,9.38495,0.0703238,0.102546,0.208833,0
2024-12-11 14:38:42.570,0.148355,3.967,9.35624,0.0648262,0.110487,0.211888,0
2024-12-11 14:38:42.575,0.145962,4.02921,9.33949,0.0483333,0.130034,0.214942,0
2024-12-11 14:38:42.576,0.145962,4.02921,9.33949,0.0397814,0.142251,0.216774,0
2024-12-11 14:38:42.578,0.141177,4.0675,9.31795,0.029397,0.15569,0.219218,0
2024-12-11 14:38:42.581,0.155533,4.06511,9.3012,0.029397,0.15569,0.219218,0
2024-12-11 14:38:42.582,0.181855,4.05314,9.27488,0.0196235,0.164852,0.22044,0
2024-12-11 14:38:42.587,0.20339,4.02682,9.32513,-0.00725381,0.175237,0.219218,0
2024-12-11 14:38:42.588,0.20339,4.02682,9.32513,-0.0182491,0.178902,0.22044,0
2024-12-11 14:38:42.590,0.181855,4.034,9.38495,-0.0322986,0.183178,0.22044,0
2024-12-11 14:38:42.591,0.150748,4.04836,9.4352,-0.0322986,0.183178,0.22044,0
2024-12-11 14:38:42.595,0.145962,4.05554,9.47109,-0.0432938,0.189897,0.22105,0
2024-12-11 14:38:42.602,0.172283,3.98614,9.71516,-0.0683385,0.197838,0.223494,0
2024-12-11 14:38:42.602,0.172283,3.98614,9.71516,-0.0683385,0.197838,0.223494,0
2024-12-11 14:38:42.603,0.177069,3.967,9.83988,-0.0683385,0.197838,0.223494,0
2024-12-11 14:38:42.604,0.177069,3.967,9.83988,-0.0732253,0.192951,0.225326,0
2024-12-11 14:38:42.607,0.181855,3.94307,9.95713,-0.0726145,0.187454,0.227159,0
2024-12-11 14:38:42.608,0.196211,3.91436,10.0576,-0.0726145,0.187454,0.227159,0
2024-12-11 14:38:42.610,0.217747,3.89282,10.151,-0.0701711,0.181956,0.228381,0
2024-12-11 14:38:42.613,0.244068,3.85693,10.2586,-0.0652843,0.177069,0.232046,0
2024-12-11 14:38:42.615,0.248854,3.833,10.3977,-0.0567324,0.168517,0.232656,0
2024-12-11 14:38:42.617,0.227318,3.83779,10.5365,-0.0457372,0.160576,0.236322,0
2024-12-11 14:38:42.620,0.236889,3.833,10.6394,-0.0341311,0.155079,0.238765,0
2024-12-11 14:38:42.622,0.265603,3.833,10.7375,-0.0219141,0.144694,0.24243,0
2024-12-11 14:38:42.624,0.30658,3.82343,10.8165,-0.00358873,0.134921,0.244263,0
2024-12-11 14:38:42.627,0.344866,3.82582,10.8835,0.0153475,0.125147,0.248538,0
2024-12-11 14:38:42.630,0.364008,3.84736,10.9771,0.0361163,0.119039,0.252204,0
2024-12-11 14:38:42.631,0.378365,3.85693,11.0465,0.0587177,0.11293,0.253425,0
2024-12-11 14:38:42.634,0.390329,3.88086,11.0752,0.081319,0.108044,0.257701,0
2024-12-11 14:38:42.636,0.404686,3.91197,11.0919,0.10392,0.108654,0.260755,0
2024-12-11 14:38:42.639,0.41665,3.9335,11.0991,0.125911,0.1056,0.262588,0
2024-12-11 14:38:42.641,0.4334,3.95264,11.0919,0.150956,0.106822,0.265031,0
2024-12-11 14:38:42.643,0.445364,3.98854,11.0536,0.173557,0.111709,0.266864,0
2024-12-11 14:38:42.646,0.435793,4.03879,10.989,0.191272,0.117206,0.268086,0
2024-12-11 14:38:42.648,0.414257,4.08425,10.9026,0.208986,0.122093,0.269307,0
2024-12-11 14:38:42.650,0.395115,4.12014,10.7925,0.22609,0.131256,0.273583,0
2024-12-11 14:38:42.653,0.371187,4.15603,10.6849,0.235863,0.139197,0.27847,0
2024-12-11 14:38:42.656,0.35683,4.2015,10.5652,0.248691,0.156911,0.284578,0
2024-12-11 14:38:42.658,0.347258,4.24726,10.4216,0.248691,0.156911,0.284578,0
2024-12-11 14:38:42.662,0.289831,4.3334,10.139,0.246859,0.17768,0.294963,0
2024-12-11 14:38:42.662,0.289831,4.3334,10.139,0.246859,0.17768,0.294963,0
2024-12-11 14:38:42.665,0.287438,4.37887,10.0098,0.237085,0.185621,0.296795,0
2024-12-11 14:38:42.668,0.285045,4.40997,9.90688,0.212651,0.197838,0.305958,0
2024-12-11 14:38:42.670,0.277567,4.45304,9.81326,0.212651,0.197838,0.305958,0
2024-12-11 14:38:42.672,0.282652,4.50329,9.71994,0.195547,0.203947,0.305958,0
2024-12-11 14:38:42.675,0.275175,4.53918,9.64337,0.152788,0.211277,0.312677,0
2024-12-11 14:38:42.676,0.282652,4.5679,9.58595,0.152788,0.211277,0.312677,0
2024-12-11 14:38:42.679,0.294616,4.60618,9.5692,0.130187,0.212498,0.310845,0
2024-12-11 14:38:42.682,0.272782,4.6325,9.58595,0.105142,0.210666,0.311456,0
2024-12-11 14:38:42.683,0.260818,4.64208,9.62184,0.105142,0.210666,0.311456,0
2024-12-11 14:38:42.686,0.289831,4.6684,9.68645,0.057496,0.19906,0.312677,0
2024-12-11 14:38:42.688,0.342473,4.70668,9.77019,0.0330621,0.190508,0.309623,0
2024-12-11 14:38:42.691,0.380758,4.733,9.85424,0.0116825,0.17768,0.306569,0
2024-12-11 14:38:42.693,0.421436,4.74257,9.9356,-0.0096972,0.167296,0.299239,0
2024-12-11 14:38:42.696,0.478864,4.76411,10.0337,-0.0518457,0.14164,0.282135,0
2024-12-11 14:38:42.697,0.531506,4.79073,10.1486,-0.0518457,0.14164,0.282135,0
2024-12-11 14:38:42.700,0.567398,4.78355,10.2969,-0.0695602,0.128812,0.270529,0
2024-12-11 14:38:42.702,0.56022,4.77159,10.4527,-0.082388,0.114152,0.259534,0
2024-12-11 14:38:42.704,0.514756,4.77637,10.5963,-0.0939941,0.0982701,0.251593,0
2024-12-11 14:38:42.707,0.495613,4.77398,10.7303,-0.104989,0.0829989,0.246706,0
2024-12-11 14:38:42.709,0.505185,4.75454,10.8356,-0.114763,0.0695602,0.239376,0
2024-12-11 14:38:42.713,0.498006,4.72582,10.9699,-0.120261,0.0579541,0.233878,0
2024-12-11 14:38:42.716,0.483649,4.66361,11.3049,-0.129423,0.0298552,0.225937,0
2024-12-11 14:38:42.717,0.483649,4.66361,11.3049,-0.131256,0.0164165,0.225937,0
2024-12-11 14:38:42.719,0.478864,4.6349,11.4748,-0.131256,0.0164165,0.225937,0
2024-12-11 14:38:42.721,0.469292,4.6014,11.645,-0.128812,0.00725381,0.22777,0
2024-12-11 14:38:42.723,0.488435,4.54876,11.7981,-0.123315,0.00297788,0.227159,0
2024-12-11 14:38:42.726,0.50997,4.48654,11.9225,-0.117817,-0.000687203,0.232046,0
2024-12-11 14:38:42.728,0.519542,4.41476,12.0446,-0.111098,-0.00374144,0.234489,0
2024-12-11 14:38:42.730,0.550648,4.37169,12.1765,-0.102546,-0.00984991,0.241208,0
2024-12-11 14:38:42.733,0.572184,4.33819,12.3272,-0.0909399,-0.0159584,0.246706,0
2024-12-11 14:38:42.735,0.521934,4.29512,12.4852,-0.0799446,-0.021456,0.252204,0
2024-12-11 14:38:42.737,0.462114,4.25922,12.6434,-0.0646735,-0.0184018,0.261366,0
2024-12-11 14:38:42.740,0.431007,4.2353,12.7726,-0.042683,-0.0159584,0.273583,0
2024-12-11 14:38:42.744,0.397508,4.13928,12.9186,-0.00297788,-0.00435229,0.303515,0
2024-12-11 14:38:42.744,0.3999,4.13928,12.9186,-0.00297788,-0.00435229,0.303515,0
2024-12-11 14:38:42.748,0.404686,4.08425,12.9712,0.0410031,0.0170274,0.337722,0
2024-12-11 14:38:42.750,0.421436,4.01007,12.9999,0.0660479,0.0280226,0.356048,0
2024-12-11 14:38:42.753,0.493221,3.95264,13.0167,0.0849841,0.0371853,0.373151,0
2024-12-11 14:38:42.754,0.572184,3.92872,13.0071,0.0849841,0.0371853,0.373151,0
2024-12-11 14:38:42.756,0.62004,3.91197,13.0023,0.105142,0.0439046,0.390866,0
2024-12-11 14:38:42.759,0.672682,3.90239,13.0143,0.123468,0.0518457,0.406748,0
2024-12-11 14:38:42.761,0.737288,3.89522,13.0095,0.13996,0.0622301,0.422019,0
2024-12-11 14:38:42.766,0.873978,3.89043,12.9999,0.174168,0.086664,0.447064,0
2024-12-11 14:38:42.768,0.873978,3.87607,12.9855,0.190661,0.101324,0.458059,0
2024-12-11 14:38:42.769,0.945763,3.87607,12.9855,0.190661,0.101324,0.458059,0
2024-12-11 14:38:42.770,1.00319,3.84736,12.9616,0.205932,0.114763,0.467833,0
2024-12-11 14:38:42.775,1.09651,3.79472,12.8611,0.23342,0.141029,0.486158,0
2024-12-11 14:38:42.776,1.09651,3.79472,12.8611,0.23342,0.141029,0.486158,0
2024-12-11 14:38:42.777,1.11805,3.7684,12.8085,0.246248,0.156911,0.495321,0
2024-12-11 14:38:42.781,1.12044,3.74925,12.775,0.270071,0.196616,0.511814,0
2024-12-11 14:38:42.782,1.09412,3.73011,12.7199,0.270071,0.196616,0.511814,0
2024-12-11 14:38:42.785,1.04626,3.74208,12.6553,0.278012,0.217996,0.520976,0
2024-12-11 14:38:42.787,0.969691,3.77557,12.5665,0.286564,0.240597,0.53075,0
2024-12-11 14:38:42.789,0.862014,3.82343,12.4469,0.293894,0.261977,0.53808,0
2024-12-11 14:38:42.793,0.734896,3.89522,12.3224,0.297559,0.30046,0.55213,0
2024-12-11 14:38:42.794,0.622433,3.96461,12.1621,0.297559,0.30046,0.55213,0
2024-12-11 14:38:42.796,0.550648,4.01486,11.9536,0.291451,0.312067,0.557016,0
2024-12-11 14:38:42.799,0.514756,4.03161,11.755,0.280455,0.316343,0.561903,0
2024-12-11 14:38:42.801,0.521934,4.00529,11.5756,0.257854,0.309012,0.561903,0
2024-12-11 14:38:42.803,0.586541,3.94786,11.4197,0.230977,0.2858,0.555795,0
2024-12-11 14:38:42.806,0.679861,3.86411,11.3312,0.198602,0.251593,0.546021,0
2024-12-11 14:38:42.808,0.797109,3.78515,11.3504,0.159507,0.207612,0.531361,0
2024-12-11 14:38:42.810,0.991227,3.64876,11.415,0.119802,0.156301,0.510592,0
2024-12-11 14:38:42.814,1.22812,3.46421,11.4963,0.0428357,0.0298552,0.458059,0
2024-12-11 14:38:42.816,1.4342,3.30628,11.6641,0.00923906,-0.0410031,0.423852,0
2024-12-11 14:38:42.817,1.57298,3.15075,11.8986,0.00923906,-0.0410031,0.423852,0
2024-12-11 14:38:42.820,1.66152,2.97817,12.2004,-0.0243575,-0.110029,0.389033,0
2024-12-11 14:38:42.822,1.77159,2.77478,12.5354,-0.0500131,-0.174168,0.35055,0
2024-12-11 14:38:42.825,1.88166,2.58096,12.8563,-0.0658951,-0.232198,0.315732,0
2024-12-11 14:38:42.827,1.97288,2.39641,13.1794,-0.0658951,-0.232198,0.315732,0
2024-12-11 14:38:42.829,2.05424,2.21934,13.4883,-0.0775012,-0.328101,0.244263,0
2024-12-11 14:38:42.833,2.10449,2.04945,13.8021,-0.0658951,-0.403846,0.175237,0
2024-12-11 14:38:42.834,2.15474,1.85294,14.106,-0.0658951,-0.403846,0.175237,0
2024-12-11 14:38:42.837,2.18824,1.65434,14.391,-0.0500131,-0.431335,0.146527,0
2024-12-11 14:38:42.843,1.96301,1.14197,15.0111,0.0367272,-0.450271,0.0671168,0
2024-12-11 14:38:42.846,1.71894,1.06062,15.1235,0.0745997,-0.433778,0.0597867,0
2024-12-11 14:38:42.847,1.71894,1.06062,15.1235,0.0745997,-0.433778,0.0597867,0
2024-12-11 14:38:42.848,1.71894,0.835394,15.3556,0.116137,-0.41362,0.0548999,0
2024-12-11 14:38:42.850,1.79791,0.529113,15.5689,0.166227,-0.394073,0.0500131,1
2024-12-11 14:38:42.851,1.79791,0.529113,15.5689,0.166227,-0.394073,0.0500131,0
2024-12-11 14:38:42.854,1.79073,0.222533,15.6598,0.278623,-0.331766,0.0469589,0
2024-12-11 14:38:42.856,1.80269,-0.0622134,15.6144,0.278623,-0.331766,0.0469589,0
2024-12-11 14:38:42.858,1.80509,-0.301795,15.4684,0.278623,-0.331766,0.0469589,0
2024-12-11 14:38:42.860,1.74527,-0.481256,15.3006,0.39957,-0.232809,0.0451263,0
2024-12-11 14:38:42.865,1.36929,-0.612862,14.86,0.511356,-0.112472,0.0603975,0
2024-12-11 14:38:42.865,1.36929,-0.612862,14.86,0.511356,-0.112472,0.0603975,0
2024-12-11 14:38:42.867,1.06062,-0.553041,14.5514,0.561445,-0.0465007,0.0781121,0
2024-12-11 14:38:42.869,0.804287,-0.464507,14.2185,0.610313,0.0158057,0.103157,0
2024-12-11 14:38:42.872,0.632004,-0.373579,13.8787,0.65124,0.0726145,0.131867,0
2024-12-11 14:38:42.875,0.54347,-0.289831,13.5314,0.714157,0.178902,0.188065,0
2024-12-11 14:38:42.877,0.507577,-0.224925,13.165,0.714157,0.178902,0.188065,0
2024-12-11 14:38:42.880,0.52672,-0.155533,12.7917,0.741645,0.22777,0.210055,0
2024-12-11 14:38:42.881,0.574577,-0.0789631,12.4086,0.761192,0.273583,0.228381,0
2024-12-11 14:38:42.883,0.629611,-0.00239282,11.9656,0.775852,0.319397,0.239987,0
2024-12-11 14:38:42.886,0.675075,0.0861416,11.4796,0.784404,0.362767,0.247928,0
2024-12-11 14:38:42.888,0.682254,0.196211,10.9843,0.783183,0.404915,0.250982,0
2024-12-11 14:38:42.890,0.663111,0.30658,10.5078,0.77402,0.440955,0.255258,0
2024-12-11 14:38:42.893,0.610469,0.3999,10.0744,0.758138,0.473941,0.252204,0
2024-12-11 14:38:42.895,0.586541,0.486042,9.6673,0.731871,0.501429,0.248538,0
2024-12-11 14:38:42.899,0.629611,0.569791,9.25305,0.69461,0.520976,0.241208,0
2024-12-11 14:38:42.900,0.701396,0.648754,8.83909,0.656126,0.531972,0.22777,0
2024-12-11 14:38:42.902,0.737288,0.725324,8.49901,0.604204,0.533804,0.211277,0
2024-12-11 14:38:42.905,0.725324,0.797109,8.24058,0.551671,0.522809,0.189897,0
2024-12-11 14:38:42.907,0.687039,0.869193,8.02732,0.497306,0.507538,0.168517,0
2024-12-11 14:38:42.910,0.632004,0.929013,7.87418,0.439886,0.483104,0.144694,0
2024-12-11 14:38:42.912,0.581755,0.991227,7.7689,0.383688,0.461724,0.116595,0
2024-12-11 14:38:42.915,0.533899,1.04387,7.6995,0.32688,0.433625,0.0927724,0
2024-12-11 14:38:42.916,0.507577,1.07976,7.65404,0.32688,0.433625,0.0927724,0
2024-12-11 14:38:42.920,0.481256,1.10608,7.63968,0.172946,0.330392,0.0121406,0
2024-12-11 14:38:42.922,0.488435,1.11326,7.67318,0.127133,0.290687,-0.0171801,0
2024-12-11 14:38:42.924,0.505185,1.11087,7.74736,0.127133,0.290687,-0.0171801,0
2024-12-11 14:38:42.926,0.514756,1.07737,7.85025,0.0862058,0.250982,-0.0477224,0
2024-12-11 14:38:42.928,0.524327,1.05105,7.97468,0.0501658,0.213109,-0.0837624,0
2024-12-11 14:38:42.930,0.514756,1.03908,8.12064,0.0196235,0.174626,-0.114916,0
2024-12-11 14:38:42.933,0.495613,1.02233,8.25972,-0.00481042,0.136753,-0.149123,0
2024-12-11 14:38:42.936,0.45015,1.0008,8.37697,-0.0396287,0.0732253,-0.215095,0
2024-12-11 14:38:42.938,0.392722,0.952942,8.49183,-0.0396287,0.0732253,-0.215095,0
2024-12-11 14:38:42.940,0.328116,0.897907,8.61147,-0.0530674,0.0451263,-0.247469,0
2024-12-11 14:38:42.943,0.241675,0.835394,8.71227,-0.0597867,0.0182491,-0.275568,0
2024-12-11 14:38:42.945,0.143569,0.770788,8.79123,-0.0610084,-0.00740652,-0.303667,0
2024-12-11 14:38:42.948,0.0430708,0.706182,8.84626,-0.0616192,-0.057496,-0.347038,0
2024-12-11 14:38:42.950,-0.081356,0.63679,8.88694,-0.0616192,-0.057496,-0.347038,0
2024-12-11 14:38:42.952,-0.215354,0.572184,8.91087,-0.0616192,-0.081319,-0.36353,0
2024-12-11 14:38:42.955,-0.34008,0.495613,8.89651,-0.0628409,-0.10392,-0.376358,0
2024-12-11 14:38:42.956,-0.478864,0.45015,8.87737,-0.0616192,-0.127743,-0.386132,0
2024-12-11 14:38:42.959,-0.588933,0.419043,8.85823,-0.0677277,-0.149123,-0.394684,0
2024-12-11 14:38:42.962,-0.658325,0.385544,8.86302,-0.0707819,-0.165005,-0.401403,0
2024-12-11 14:38:42.966,-0.792323,0.330509,8.88216,-0.0756687,-0.18272,-0.408733,0
2024-12-11 14:38:42.968,-0.792323,0.320937,8.89891,-0.0768904,-0.185774,-0.407511,0
2024-12-11 14:38:42.969,-0.921835,0.320937,8.89891,-0.0762796,-0.184552,-0.403236,0
2024-12-11 14:38:42.972,-1.05344,0.318545,8.89891,-0.0781121,-0.180276,-0.398349,0
2024-12-11 14:38:42.973,-1.15872,0.294616,8.88216,-0.0781121,-0.180276,-0.398349,0
2024-12-11 14:38:42.975,-1.24008,0.256032,8.85344,-0.0787229,-0.174168,-0.387354,0
2024-12-11 14:38:42.978,-1.30947,0.227318,8.82952,-0.0775012,-0.165616,-0.375137,0
2024-12-11 14:38:42.980,-1.36451,0.196211,8.82234,-0.0799446,-0.156453,-0.360476,0
2024-12-11 14:38:42.982,-1.40788,0.167498,8.80559,-0.0817772,-0.14668,-0.344594,0
2024-12-11 14:38:42.985,-1.43659,0.138784,8.80559,-0.0836097,-0.136906,-0.332377,0
2024-12-11 14:38:42.988,-1.47009,0.124427,8.80798,-0.0829989,-0.117359,-0.301835,0
2024-12-11 14:38:42.989,-1.5012,0.112463,8.80319,-0.0829989,-0.117359,-0.301835,0
2024-12-11 14:38:42.993,-1.5347,0.117248,8.79602,-0.0811663,-0.108807,-0.282899,0
2024-12-11 14:38:42.994,-1.57059,0.129212,8.7673,-0.0811663,-0.108807,-0.282899,0
2024-12-11 14:38:42.997,-1.57777,0.12682,8.74577,-0.086664,-0.105753,-0.245637,0
2024-12-11 14:38:42.999,-1.56102,0.133998,8.7338,-0.086664,-0.105753,-0.245637,0
2024-12-11 14:38:43.003,-1.52752,0.143569,8.73141,-0.0891073,-0.0923143,-0.195547,0
2024-12-11 14:38:43.003,-1.49163,0.157926,8.75055,-0.0891073,-0.0923143,-0.195547,0
2024-12-11 14:38:43.006,-1.4653,0.18664,8.7673,-0.0854423,-0.0794865,-0.181498,0
2024-12-11 14:38:43.008,-1.44138,0.208176,8.77927,-0.0811663,-0.0703238,-0.166838,0
2024-12-11 14:38:43.012,-1.40788,0.224925,8.78644,-0.0768904,-0.0605502,-0.15401,0
2024-12-11 14:38:43.015,-1.33579,0.253639,8.79123,-0.0616192,-0.041614,-0.130798,0
2024-12-11 14:38:43.015,-1.33579,0.253639,8.79123,-0.0616192,-0.041614,-0.130798,0
2024-12-11 14:38:43.018,-1.30708,0.253639,8.77927,-0.0542891,-0.0348946,-0.121635,0
2024-12-11 14:38:43.020,-1.29751,0.265603,8.76012,-0.0451263,-0.029397,-0.113083,0
2024-12-11 14:38:43.023,-1.28794,0.272782,8.72423,-0.0359636,-0.0251211,-0.10392,0
2024-12-11 14:38:43.025,-1.28076,0.292223,8.68565,-0.0243575,-0.0202343,-0.0929251,0
2024-12-11 14:38:43.027,-1.27119,0.320937,8.65454,-0.0151948,-0.0190126,-0.081319,0
2024-12-11 14:38:43.029,-1.27837,0.35683,8.62822,-0.00542127,-0.0196235,-0.073378,0
2024-12-11 14:38:43.032,-1.28794,0.402293,8.59233,0.00557398,-0.0202343,-0.0629936,0
2024-12-11 14:38:43.034,-1.28554,0.4334,8.55883,0.0153475,-0.0232886,-0.0519984,0
2024-12-11 14:38:43.036,-1.28554,0.457328,8.53729,0.0287862,-0.0269536,-0.0397814,0
2024-12-11 14:38:43.039,-1.27358,0.500399,8.53011,0.0410031,-0.0324513,-0.0300079,0
2024-12-11 14:38:43.042,-1.24487,0.567398,8.51336,0.065437,-0.0440574,-0.00740652,0
2024-12-11 14:38:43.045,-1.19462,0.622433,8.47747,0.0782648,-0.0507767,0.00175619,0
2024-12-11 14:38:43.046,-1.13719,0.665504,8.44636,0.0782648,-0.0507767,0.00175619,0
2024-12-11 14:38:43.048,-1.07976,0.710967,8.40329,0.0904818,-0.0568851,0.0096972,0
2024-12-11 14:38:43.051,-1.02712,0.749253,8.3674,0.104531,-0.0636045,0.0170274,0
2024-12-11 14:38:43.054,-0.972084,0.785145,8.33869,0.129576,-0.0752106,0.0268009,0
2024-12-11 14:38:43.056,-0.929013,0.84018,8.29322,0.141182,-0.0794865,0.030466,0
2024-12-11 14:38:43.058,-0.888335,0.890728,8.24298,0.141182,-0.0794865,0.030466,0
2024-12-11 14:38:43.060,-0.852443,0.948156,8.18315,0.150956,-0.0880384,0.0329094,0
2024-12-11 14:38:43.065,-0.794716,1.05344,8.11346,0.172335,-0.0990336,0.0390179,0
2024-12-11 14:38:43.066,-0.794716,1.05344,8.11346,0.179665,-0.10392,0.0408504,0
2024-12-11 14:38:43.067,-0.758824,1.09412,8.07757,0.179665,-0.10392,0.0408504,0
2024-12-11 14:38:43.069,-0.689432,1.13001,8.02254,0.190661,-0.106364,0.0408504,0
2024-12-11 14:38:43.072,-0.62004,1.1659,7.95793,0.194937,-0.111251,0.042683,0
2024-12-11 14:38:43.074,-0.569791,1.19462,7.92204,0.197991,-0.114305,0.0414613,0
2024-12-11 14:38:43.077,-0.517149,1.21854,7.867,0.200434,-0.119192,0.0396287,0
2024-12-11 14:38:43.079,-0.483649,1.27119,7.79522,0.202267,-0.120413,0.0365745,0
2024-12-11 14:38:43.081,-0.442971,1.32144,7.73061,0.199823,-0.121635,0.0322986,0
2024-12-11 14:38:43.085,-0.402293,1.35972,7.66122,0.191272,-0.121024,0.0268009,0
2024-12-11 14:38:43.087,-0.380758,1.41266,7.58465,0.185774,-0.119802,0.0231358,0
2024-12-11 14:38:43.089,-0.364008,1.45334,7.52214,0.176611,-0.119192,0.0206925,0
2024-12-11 14:38:43.092,-0.352044,1.49402,7.47907,0.176611,-0.119192,0.0206925,0
2024-12-11 14:38:43.093,-0.32333,1.52273,7.436,0.176611,-0.119192,0.0206925,0
2024-12-11 14:38:43.095,-0.289831,1.54666,7.39771,0.156453,-0.11797,0.0109189,0
2024-12-11 14:38:43.099,-0.260818,1.58016,7.34028,0.144236,-0.115526,0.00908635,0
2024-12-11 14:38:43.100,-0.227318,1.60648,7.29721,0.128965,-0.112472,0.00297788,0
2024-12-11 14:38:43.103,-0.20339,1.62323,7.27807,0.117359,-0.108196,-0.0019089,0
2024-12-11 14:38:43.105,-0.184247,1.64237,7.2685,0.102699,-0.10392,-0.00862822,0
2024-12-11 14:38:43.107,-0.162712,1.66152,7.25175,0.0874275,-0.100255,-0.0116825,0
2024-12-11 14:38:43.109,-0.148355,1.68305,7.235,0.0739889,-0.0953685,-0.0171801,0
2024-12-11 14:38:43.112,-0.138784,1.70698,7.24218,0.0562743,-0.0904818,-0.0190126,0
2024-12-11 14:38:43.114,-0.122034,1.73091,7.22543,0.0410031,-0.0831516,-0.0238994,0
2024-12-11 14:38:43.118,-0.105284,1.75244,7.19671,0.0263428,-0.0770431,-0.0281753,0
2024-12-11 14:38:43.119,-0.0765703,1.76441,7.19671,0.0110716,-0.0715455,-0.033673,0
2024-12-11 14:38:43.121,-0.0502493,1.77637,7.20628,-0.00481042,-0.065437,-0.0391706,0
2024-12-11 14:38:43.124,-0.0430708,1.79791,7.20389,-0.0219141,-0.0587177,-0.0397814,0
2024-12-11 14:38:43.126,-0.0239282,1.80269,7.21346,-0.0341311,-0.0489441,-0.0446682,0
2024-12-11 14:38:43.129,0.00957129,1.80269,7.23021,-0.0652843,-0.037338,-0.0556635,0
2024-12-11 14:38:43.131,0.0358923,1.80269,7.24936,-0.0652843,-0.037338,-0.0556635,0
2024-12-11 14:38:43.133,0.0550349,1.80509,7.28046,-0.0781121,-0.0330621,-0.0617719,0
2024-12-11 14:38:43.136,0.066999,1.82901,7.32353,-0.090329,-0.0269536,-0.0648262,0
2024-12-11 14:38:43.138,0.0861416,1.85533,7.35943,-0.102546,-0.0208452,-0.0709346,0
2024-12-11 14:38:43.140,0.0981057,1.86969,7.39053,-0.110487,-0.0141258,-0.0745997,0
2024-12-11 14:38:43.146,0.0981057,1.88883,7.4671,-0.125758,0.000534491,-0.0849841,0
2024-12-11 14:38:43.146,0.0981057,1.88883,7.4671,-0.125758,0.000534491,-0.0849841,0
2024-12-11 14:38:43.147,0.102891,1.89841,7.48624,-0.130645,0.00542127,-0.0886492,0
2024-12-11 14:38:43.149,0.0933201,1.92233,7.52692,-0.132477,0.00908635,-0.0917034,0
2024-12-11 14:38:43.152,0.0789631,1.9343,7.57986,-0.133699,0.0170274,-0.0959794,0
2024-12-11 14:38:43.154,0.066999,1.93191,7.62533,-0.134921,0.0194708,-0.0978119,0
2024-12-11 14:38:43.157,0.0502493,1.92951,7.66122,-0.132477,0.0237467,-0.102699,0
2024-12-11 14:38:43.160,0.0287139,1.94148,7.67558,-0.125758,0.0292443,-0.106364,0
2024-12-11 14:38:43.161,0.0239282,1.96301,7.68754,-0.125758,0.0292443,-0.106364,0
2024-12-11 14:38:43.165,0.0119641,1.97288,7.69711,-0.124536,0.0292443,-0.106975,0
2024-12-11 14:38:43.166,-0.0191426,1.98963,7.71386,-0.117817,0.0286335,-0.109418,0
2024-12-11 14:38:43.169,-0.0358923,2.0016,7.71386,-0.11232,0.0274118,-0.110029,0
2024-12-11 14:38:43.171,-0.0430708,2.02313,7.69472,-0.108654,0.0255792,-0.106975,0
2024-12-11 14:38:43.173,-0.0598206,2.05424,7.69233,-0.0988809,0.022525,-0.108807,0
2024-12-11 14:38:43.175,-0.066999,2.07099,7.7019,-0.0927724,0.0188599,-0.106364,0
2024-12-11 14:38:43.178,-0.0693919,2.09492,7.7019,-0.0884965,0.0158057,-0.10392,0
2024-12-11 14:38:43.181,-0.0909273,2.11884,7.68993,-0.0799446,0.014584,-0.10331,0
2024-12-11 14:38:43.186,-0.102891,2.20738,7.67079,-0.0640626,0.00786466,-0.102088,0
2024-12-11 14:38:43.187,-0.133998,2.24327,7.67079,-0.0561216,0.00664296,-0.100255,0
2024-12-11 14:38:43.187,-0.133998,2.24327,7.67079,-0.0561216,0.00664296,-0.100255,0
2024-12-11 14:38:43.189,-0.236889,2.27438,7.71865,-0.0481806,0.00542127,-0.0959794,0
2024-12-11 14:38:43.192,-0.260818,2.31506,7.70668,-0.0390179,0.00847551,-0.0910926,0
2024-12-11 14:38:43.194,-0.184247,2.35573,7.58704,-0.0316877,0.00603212,-0.0892601,0
2024-12-11 14:38:43.198,-0.129212,2.39402,7.49342,-0.0249684,-0.00374144,-0.0837624,0
2024-12-11 14:38:43.199,-0.0765703,2.4347,7.44557,-0.0249684,-0.00374144,-0.0837624,0
2024-12-11 14:38:43.202,-0.040678,2.47537,7.41446,-0.0255792,-0.0232886,-0.0898709,0
2024-12-11 14:38:43.204,-0.040678,2.54746,7.39532,-0.0255792,-0.0232886,-0.0898709,0
2024-12-11 14:38:43.207,-0.0741775,2.62881,7.4001,-0.0322986,-0.0452791,-0.0910926,0
2024-12-11 14:38:43.209,-0.122034,2.69821,7.39532,-0.0322986,-0.0452791,-0.0910926,0
2024-12-11 14:38:43.211,-0.167498,2.77238,7.38335,-0.0341311,-0.0538309,-0.0953685,0
2024-12-11 14:38:43.214,-0.155533,2.83699,7.36182,-0.042683,-0.0684913,-0.0959794,0
2024-12-11 14:38:43.218,-0.0741775,2.96142,7.33071,-0.0481806,-0.0739889,-0.100255,0
2024-12-11 14:38:43.218,-0.0741775,2.96142,7.33071,-0.0481806,-0.0739889,-0.100255,0
2024-12-11 14:38:43.220,-0.0143569,3.01884,7.34507,-0.0524565,-0.0752106,-0.104531,0
2024-12-11 14:38:43.222,0.0287139,3.06909,7.38335,-0.0579541,-0.0800973,-0.111861,0
2024-12-11 14:38:43.225,0.0502493,3.11964,7.436,-0.0652843,-0.0862058,-0.11797,0
2024-12-11 14:38:43.228,0.0646062,3.17228,7.51017,-0.0756687,-0.0953685,-0.137517,0
2024-12-11 14:38:43.231,0.0622134,3.2345,7.58704,-0.0799446,-0.101477,-0.146069,0
2024-12-11 14:38:43.233,0.0598206,3.3015,7.65883,-0.0799446,-0.101477,-0.146069,0
2024-12-11 14:38:43.234,0.0550349,3.35175,7.75454,-0.0811663,-0.107585,-0.156453,0
2024-12-11 14:38:43.238,0.0382852,3.39003,7.86222,-0.0829989,-0.111251,-0.166227,0
2024-12-11 14:38:43.239,0.0334995,3.4355,7.9675,-0.0805555,-0.114305,-0.17539,0
2024-12-11 14:38:43.241,0.0239282,3.47857,8.08475,-0.0768904,-0.115526,-0.18272,0
2024-12-11 14:38:43.244,0.00717847,3.50728,8.2023,-0.0701711,-0.118581,-0.190661,0
2024-12-11 14:38:43.246,-0.0143569,3.53839,8.31715,-0.0634518,-0.122246,-0.199213,0
2024-12-11 14:38:43.248,-0.0430708,3.56949,8.42004,-0.0634518,-0.122246,-0.199213,0
2024-12-11 14:38:43.251,-0.0741775,3.60778,8.49661,-0.0420721,-0.123468,-0.208375,0
2024-12-11 14:38:43.254,-0.100499,3.65593,8.57079,-0.0286335,-0.122857,-0.208375,0
2024-12-11 14:38:43.255,-0.100499,3.699,8.63779,-0.0158057,-0.122857,-0.212651,0
2024-12-11 14:38:43.258,-0.0861416,3.7349,8.69283,-0.00236703,-0.121024,-0.215705,0
2024-12-11 14:38:43.260,-0.0693919,3.78754,8.72902,0.00923906,-0.116137,-0.219371,0
2024-12-11 14:38:43.265,-0.0717847,3.90718,8.77687,0.0318404,-0.110029,-0.226701,0
2024-12-11 14:38:43.265,-0.0717847,3.90718,8.77687,0.0318404,-0.110029,-0.226701,0
2024-12-11 14:38:43.268,-0.0789631,3.967,8.79123,0.0477224,-0.105142,-0.237085,0
2024-12-11 14:38:43.270,-0.0885344,4.01007,8.80559,0.0477224,-0.105142,-0.237085,0
2024-12-11 14:38:43.272,-0.0789631,4.04596,8.83909,0.0538309,-0.10331,-0.245026,0
2024-12-11 14:38:43.274,-0.0981057,4.10578,8.86062,0.0599394,-0.100255,-0.252356,0
2024-12-11 14:38:43.278,-0.138784,4.17518,8.87498,0.0648262,-0.0990336,-0.267017,0
2024-12-11 14:38:43.279,-0.165105,4.24726,8.88694,0.0648262,-0.0990336,-0.267017,0
2024-12-11 14:38:43.281,-0.167498,4.30708,8.88216,0.0642153,-0.0996445,-0.274347,0
2024-12-11 14:38:43.284,-0.174676,4.34537,8.89412,0.0623828,-0.0984228,-0.281677,0
2024-12-11 14:38:43.288,-0.193819,4.41715,8.96351,0.0544418,-0.0984228,-0.300002,0
2024-12-11 14:38:43.289,-0.193819,4.41715,8.96351,0.0544418,-0.0984228,-0.300002,0
2024-12-11 14:38:43.291,-0.193819,4.45783,8.99462,0.0477224,-0.100255,-0.306722,0
2024-12-11 14:38:43.293,-0.189033,4.49611,9.00898,0.0397814,-0.10331,-0.317106,0
2024-12-11 14:38:43.296,-0.167498,4.51765,9.02333,0.0281753,-0.10392,-0.328712,0
2024-12-11 14:38:43.298,-0.143569,4.53201,9.06401,0.0153475,-0.106364,-0.339097,0
2024-12-11 14:38:43.301,-0.162712,4.56311,9.11187,-0.0170274,-0.116137,-0.361698,0
2024-12-11 14:38:43.303,-0.198604,4.58704,9.17887,-0.0170274,-0.116137,-0.361698,0
2024-12-11 14:38:43.305,-0.244068,4.58704,9.27249,-0.0310769,-0.118581,-0.374526,0
2024-12-11 14:38:43.308,-0.30658,4.59183,9.38016,-0.0652843,-0.125911,-0.39224,0
2024-12-11 14:38:43.310,-0.366401,4.58465,9.51655,-0.0652843,-0.125911,-0.39224,0
2024-12-11 14:38:43.312,-0.3999,4.56311,9.68166,-0.082388,-0.130187,-0.397738,0
2024-12-11 14:38:43.315,-0.423829,4.5344,9.87817,-0.0939941,-0.133241,-0.404457,0
2024-12-11 14:38:43.317,-0.459721,4.50329,10.0863,-0.107433,-0.137517,-0.408122,0
2024-12-11 14:38:43.320,-0.476471,4.47458,10.2897,-0.115374,-0.141182,-0.413009,0
2024-12-11 14:38:43.321,-0.488435,4.4339,10.5078,-0.120871,-0.144847,-0.416674,0
2024-12-11 14:38:43.326,-0.529113,4.37169,10.9313,-0.122704,-0.152177,-0.417896,0
2024-12-11 14:38:43.327,-0.529113,4.37169,10.9313,-0.120871,-0.156453,-0.418507,0
2024-12-11 14:38:43.329,-0.524327,4.30947,11.1541,-0.120871,-0.156453,-0.418507,0
2024-12-11 14:38:43.332,-0.50997,4.2688,11.3862,-0.114763,-0.161951,-0.416674,0
2024-12-11 14:38:43.334,-0.498006,4.2353,11.6258,-0.104989,-0.168059,-0.418507,0
2024-12-11 14:38:43.335,-0.493221,4.19193,11.8651,-0.0933833,-0.174779,-0.416674,0
2024-12-11 14:38:43.338,-0.502792,4.14886,12.0832,-0.0768904,-0.183331,-0.418507,0
2024-12-11 14:38:43.340,-0.505185,4.09861,12.2889,-0.0597867,-0.192493,-0.417896,0
2024-12-11 14:38:43.343,-0.500399,4.05793,12.5019,-0.0414613,-0.204099,-0.416674,0
2024-12-11 14:38:43.345,-0.505185,4.02204,12.7128,-0.0158057,-0.210819,-0.417896,0
2024-12-11 14:38:43.347,-0.54347,3.99093,12.9018,0.0116825,-0.216927,-0.416063,0
2024-12-11 14:38:43.351,-0.584148,3.94068,13.0765,0.0727672,-0.232198,-0.407511,0
2024-12-11 14:38:43.353,-0.622433,3.89761,13.2347,0.105753,-0.24075,-0.405679,0
2024-12-11 14:38:43.355,-0.670289,3.85454,13.3759,0.13996,-0.249913,-0.400181,0
2024-12-11 14:38:43.357,-0.71336,3.79711,13.5003,0.13996,-0.249913,-0.400181,0
2024-12-11 14:38:43.359,-0.744467,3.74686,13.6176,0.176611,-0.260297,-0.391019,0
2024-12-11 14:38:43.361,-0.766002,3.68704,13.7061,0.214484,-0.273125,-0.382467,0
2024-12-11 14:38:43.364,-0.801895,3.61974,13.7566,0.249913,-0.284731,-0.375747,0
2024-12-11 14:38:43.367,-0.825823,3.56471,13.7997,0.316495,-0.309776,-0.350703,0
2024-12-11 14:38:43.368,-0.835394,3.51207,13.8428,0.316495,-0.309776,-0.350703,0
2024-12-11 14:38:43.372,-0.854836,3.46182,13.8835,0.380023,-0.336042,-0.325658,0
2024-12-11 14:38:43.373,-0.845265,3.41875,13.905,0.380023,-0.336042,-0.325658,0
2024-12-11 14:38:43.375,-0.82343,3.37567,13.9122,0.410566,-0.350092,-0.310998,0
2024-12-11 14:38:43.378,-0.804287,3.35175,13.9337,0.438665,-0.364752,-0.295726,0
2024-12-11 14:38:43.380,-0.777966,3.335,13.9361,0.463709,-0.378802,-0.282288,0
2024-12-11 14:38:43.384,-0.722932,3.2991,13.9289,0.50769,-0.40629,-0.253578,0
2024-12-11 14:38:43.385,-0.651147,3.27757,13.9505,0.50769,-0.40629,-0.253578,0
2024-12-11 14:38:43.388,-0.584148,3.26082,13.972,0.548617,-0.432556,-0.232198,0
2024-12-11 14:38:43.390,-0.486042,3.22732,13.9672,0.548617,-0.432556,-0.232198,0
2024-12-11 14:38:43.392,-0.375972,3.201,13.9576,0.56511,-0.441719,-0.222425,0
2024-12-11 14:38:43.395,-0.263211,3.16271,13.9768,0.57977,-0.447827,-0.216927,0
2024-12-11 14:38:43.398,-0.165105,3.12682,14.0055,0.610313,-0.459433,-0.205932,0
2024-12-11 14:38:43.399,-0.0861416,3.09571,14.0079,0.610313,-0.459433,-0.205932,0
2024-12-11 14:38:43.402,-0.026321,3.0667,13.9959,0.621308,-0.460044,-0.202267,0
2024-12-11 14:38:43.404,0.00957129,3.05952,13.9887,0.632303,-0.459433,-0.198602,0
2024-12-11 14:38:43.406,0.00717847,3.08345,13.9792,0.643299,-0.456379,-0.193715,0
2024-12-11 14:38:43.408,-0.0215354,3.13161,13.9624,0.650018,-0.452714,-0.187606,0
2024-12-11 14:38:43.411,-0.0885344,3.18903,13.9385,0.657959,-0.447217,-0.179665,0
2024-12-11 14:38:43.414,-0.193819,3.28953,13.8954,0.670176,-0.424004,-0.155232,0
2024-12-11 14:38:43.417,-0.289831,3.40917,13.8332,0.671398,-0.409955,-0.141793,0
2024-12-11 14:38:43.419,-0.364008,3.52403,13.7566,0.670176,-0.400792,-0.122857,0
2024-12-11 14:38:43.421,-0.423829,3.64367,13.6558,0.665289,-0.397127,-0.107585,0
2024-12-11 14:38:43.424,-0.440578,3.74208,13.541,0.653072,-0.395905,-0.093536,0
2024-12-11 14:38:43.425,-0.390329,3.80907,13.4285,0.653072,-0.395905,-0.093536,0
2024-12-11 14:38:43.428,-0.30658,3.85454,13.3256,0.637801,-0.397738,-0.0807082,0
2024-12-11 14:38:43.430,-0.200997,3.87847,13.2323,0.614589,-0.406901,-0.0691021,0
2024-12-11 14:38:43.432,-0.0765703,3.89522,13.1554,0.587711,-0.419118,-0.0629936,0
2024-12-11 14:38:43.435,0.0693919,3.91197,13.0884,0.559612,-0.432556,-0.0605502,0
2024-12-11 14:38:43.438,0.256032,3.94307,13.0262,0.486311,-0.467375,-0.065437,0
2024-12-11 14:38:43.440,0.464507,3.98375,12.9808,0.444773,-0.488754,-0.073378,0
2024-12-11 14:38:43.441,0.684646,4.00529,12.9616,0.444773,-0.488754,-0.073378,0
2024-12-11 14:38:43.444,0.926621,4.01725,12.9592,0.397738,-0.511966,-0.0862058,0
2024-12-11 14:38:43.446,1.16112,4.01486,12.9616,0.349481,-0.537011,-0.10331,0
2024-12-11 14:38:43.448,1.39561,3.98375,12.9736,0.296948,-0.563278,-0.1253,0
2024-12-11 14:38:43.453,1.94148,3.83779,13.0502,0.243194,-0.587101,-0.151566,0
2024-12-11 14:38:43.453,1.94148,3.83779,13.0502,0.243194,-0.587101,-0.151566,0
2024-12-11 14:38:43.456,2.19063,3.7349,13.1411,0.131409,-0.620086,-0.217538,0
2024-12-11 14:38:43.459,2.40598,3.6341,13.2538,0.0238994,-0.626195,-0.296337,0
2024-12-11 14:38:43.460,2.60249,3.52642,13.3854,0.0238994,-0.626195,-0.296337,0
2024-12-11 14:38:43.467,3.01406,3.15793,13.8643,-0.0695602,-0.569386,-0.421561,0
2024-12-11 14:38:43.467,3.01406,3.15793,13.8643,-0.0695602,-0.569386,-0.421561,0
2024-12-11 14:38:43.470,3.08854,2.9997,14.0438,-0.142251,-0.529681,-0.460655,0
2024-12-11 14:38:43.470,3.08854,2.9997,14.0438,-0.142251,-0.529681,-0.460655,0
2024-12-11 14:38:43.472,3.11007,2.82742,14.2137,-0.166074,-0.47837,-0.498528,0
2024-12-11 14:38:43.474,3.08854,2.66231,14.3599,-0.1844,-0.414231,-0.532735,0
2024-12-11 14:38:43.477,3.11246,2.51366,14.4724,-0.192341,-0.340318,-0.560834,1
2024-12-11 14:38:43.479,3.09093,2.37009,14.5298,-0.194784,-0.258465,-0.587711,0
2024-12-11 14:38:43.481,2.85613,2.2002,14.592,-0.190508,-0.165616,-0.611534,0
2024-12-11 14:38:43.484,2.51605,2.02313,14.6423,-0.178291,-0.0611611,-0.621919,0
2024-12-11 14:38:43.487,2.16909,1.85773,14.5585,-0.156301,0.0475697,-0.62253,0
2024-12-11 14:38:43.489,1.81226,1.69023,14.2974,-0.136143,0.157522,-0.611534,0
2024-12-11 14:38:43.492,1.47727,1.48205,13.972,-0.11293,0.268086,-0.591987,0
2024-12-11 14:38:43.496,0.931406,1.07498,13.4596,-0.066506,0.496542,-0.540676,0
2024-12-11 14:38:43.496,0.931406,1.07498,13.4596,-0.066506,0.496542,-0.540676,0
2024-12-11 14:38:43.499,0.706182,0.967299,13.1868,-0.0420721,0.597332,-0.503415,0
2024-12-11 14:38:43.500,0.514756,0.917049,12.8659,-0.0194708,0.687738,-0.463099,0
2024-12-11 14:38:43.504,0.287438,0.895514,12.5833,0.0208452,0.83625,-0.375747,0
2024-12-11 14:38:43.505,0.026321,0.888335,12.3057,0.0208452,0.83625,-0.375747,0
2024-12-11 14:38:43.507,-0.246461,0.9003,11.98,0.0434465,0.901611,-0.326269,0
2024-12-11 14:38:43.510,-0.512363,0.933799,11.6019,0.0660479,0.958419,-0.274958,0
2024-12-11 14:38:43.512,-0.725324,0.957727,11.19,0.0807082,1.00362,-0.222425,0
2024-12-11 14:38:43.514,-0.895514,0.979263,10.7949,0.0947577,1.04455,-0.172335,0
2024-12-11 14:38:43.518,-1.03669,1.02233,10.4216,0.111861,1.08181,-0.0715455,0
2024-12-11 14:38:43.520,-1.14676,1.07019,10.0696,0.111861,1.08181,-0.0715455,0
2024-12-11 14:38:43.522,-1.23051,1.12044,9.75584,0.114916,1.08059,-0.0245102,0
2024-12-11 14:38:43.524,-1.29512,1.1683,9.45673,0.116137,1.0641,0.0170274,0
2024-12-11 14:38:43.527,-1.35254,1.2329,9.18126,0.105753,1.03355,0.058565,0
2024-12-11 14:38:43.529,-1.38126,1.30229,8.93241,0.0953685,0.991405,0.0958267,0
2024-12-11 14:38:43.533,-1.30947,1.42463,8.60908,0.0672696,0.879009,0.158744,0
2024-12-11 14:38:43.536,-1.22094,1.47009,8.51336,0.0513875,0.813038,0.181345,0
2024-12-11 14:38:43.538,-1.19222,1.5347,8.53011,0.0342838,0.743936,0.197838,0
2024-12-11 14:38:43.538,-1.19222,1.5347,8.53011,0.0342838,0.743936,0.197838,0
2024-12-11 14:38:43.540,-1.08694,1.57537,8.57079,0.0226777,0.670634,0.21372,0
2024-12-11 14:38:43.544,-0.825823,1.59452,8.54686,0.00618483,0.497153,0.216774,0
2024-12-11 14:38:43.545,-0.555434,1.61605,8.56361,0.00618483,0.497153,0.216774,0
2024-12-11 14:38:43.547,-0.308973,1.61845,8.66172,-0.00664296,0.403694,0.205779,0
2024-12-11 14:38:43.552,0.0622134,1.60648,9.04008,-0.0096972,0.205779,0.169128,0
2024-12-11 14:38:43.552,0.0622134,1.60648,9.04008,-0.0096972,0.205779,0.169128,0
2024-12-11 14:38:43.554,0.208176,1.59691,9.21237,-0.00847551,0.106822,0.144084,0
2024-12-11 14:38:43.558,0.371187,1.57537,9.42802,-0.00114534,0.0096972,0.114152,0
2024-12-11 14:38:43.559,0.541077,1.55145,9.65055,0.0153475,-0.0739889,0.0848314,0
2024-12-11 14:38:43.563,0.710967,1.51795,9.85185,0.0355055,-0.151566,0.0542891,0
2024-12-11 14:38:43.564,0.828216,1.44855,10.0696,0.0617719,-0.22609,0.0261901,0
2024-12-11 14:38:43.567,0.9003,1.35254,10.2538,0.0941468,-0.296337,-0.00801737,0
2024-12-11 14:38:43.570,0.952942,1.25922,10.3977,0.128354,-0.365974,-0.0391706,0
2024-12-11 14:38:43.571,0.97687,1.18026,10.491,0.166838,-0.433778,-0.0691021,0
2024-12-11 14:38:43.573,0.955334,1.12522,10.515,0.202878,-0.499139,-0.093536,0
2024-12-11 14:38:43.576,0.921835,1.0678,10.4934,0.241972,-0.557169,-0.116137,0
2024-12-11 14:38:43.578,0.890728,0.996012,10.4767,0.276179,-0.60848,-0.130798,0
2024-12-11 14:38:43.581,0.878764,0.931406,10.4527,0.308554,-0.653072,-0.143625,0
2024-12-11 14:38:43.583,0.88355,0.871586,10.4384,0.342151,-0.690334,-0.15401,0
2024-12-11 14:38:43.585,0.88355,0.797109,10.4192,0.373304,-0.720876,-0.161951,0
2024-12-11 14:38:43.588,0.888335,0.739681,10.3759,0.373304,-0.720876,-0.161951,0
2024-12-11 14:38:43.591,0.907478,0.725324,10.34,0.460655,-0.772187,-0.172946,0
2024-12-11 14:38:43.592,0.938585,0.722932,10.2897,0.460655,-0.772187,-0.172946,0
2024-12-11 14:38:43.595,0.945763,0.725324,10.2203,0.488143,-0.768522,-0.176,0
2024-12-11 14:38:43.597,0.914656,0.74686,10.1246,0.513799,-0.75997,-0.176611,0
2024-12-11 14:38:43.602,0.862014,0.787538,9.85424,0.561445,-0.712324,-0.170503,0
2024-12-11 14:38:43.602,0.816252,0.787538,9.85424,0.561445,-0.712324,-0.170503,0
2024-12-11 14:38:43.604,0.773181,0.82343,9.67927,0.580992,-0.676284,-0.162562,0
2024-12-11 14:38:43.606,0.727717,0.862014,9.46631,0.595042,-0.637801,-0.15401,0
2024-12-11 14:38:43.610,0.694218,0.902692,9.21955,0.609702,-0.544952,-0.13263,0
2024-12-11 14:38:43.612,0.677468,0.948156,8.95155,0.609702,-0.544952,-0.13263,0
2024-12-11 14:38:43.616,0.639183,1.00319,8.37219,0.596263,-0.438054,-0.109418,0
2024-12-11 14:38:43.616,0.639183,1.00319,8.37219,0.596263,-0.438054,-0.109418,0
2024-12-11 14:38:43.618,0.634397,1.04865,8.09432,0.580992,-0.382467,-0.100866,0
2024-12-11 14:38:43.620,0.608076,1.10608,7.82154,0.558391,-0.325658,-0.0910926,0
2024-12-11 14:38:43.623,0.567398,1.17308,7.55324,0.535789,-0.263352,-0.081319,0
2024-12-11 14:38:43.625,0.52672,1.24487,7.30439,0.505247,-0.195547,-0.0684913,0
2024-12-11 14:38:43.627,0.371187,1.32144,7.1345,0.474705,-0.125911,-0.057496,0
2024-12-11 14:38:43.630,0.248854,1.39561,6.99302,0.44233,-0.0501658,-0.0428357,0
2024-12-11 14:38:43.633,0.325723,1.44855,6.72981,0.367806,0.0842206,-0.0171801,0
2024-12-11 14:38:43.634,0.4334,1.4677,6.45703,0.367806,0.0842206,-0.0171801,0
2024-12-11 14:38:43.637,0.50997,1.46291,6.32513,0.32749,0.151414,-0.00923906,0
2024-12-11 14:38:43.639,0.521934,1.46052,6.28445,0.294505,0.22105,-0.000687203,0
2024-12-11 14:38:43.642,0.452543,1.47727,6.22702,0.26213,0.285189,0.00419957,0
2024-12-11 14:38:43.644,0.373579,1.50359,6.12174,0.227312,0.339555,0.00908635,0
2024-12-11 14:38:43.646,0.313759,1.5323,6.0021,0.186996,0.384147,0.0139731,0
2024-12-11 14:38:43.650,0.287438,1.5658,5.88455,0.108807,0.450729,0.0249684,0
2024-12-11 14:38:43.651,0.294616,1.58255,5.77209,0.108807,0.450729,0.0249684,0
2024-12-11 14:38:43.654,0.330509,1.57777,5.69552,0.108807,0.450729,0.0249684,0
2024-12-11 14:38:43.657,0.375972,1.56341,5.65484,-0.00419957,0.517922,0.030466,0
2024-12-11 14:38:43.660,0.397508,1.55145,5.67877,-0.0322986,0.534415,0.0292443,0
2024-12-11 14:38:43.660,0.409472,1.53948,5.67877,-0.0322986,0.534415,0.0292443,0
2024-12-11 14:38:43.665,0.442971,1.52513,5.85105,-0.0817772,0.551519,0.0200816,0
2024-12-11 14:38:43.672,0.354437,1.48205,6.24616,-0.107433,0.541134,0.00847551,0
2024-12-11 14:38:43.676,0.304188,1.49402,6.41127,-0.0933833,0.520366,-7.63559e-05,0
2024-12-11 14:38:43.677,0.282652,1.49163,6.53839,-0.0933833,0.520366,-7.63559e-05,0
2024-12-11 14:38:43.677,0.282652,1.49163,6.53839,-0.0933833,0.520366,-7.63559e-05,0
2024-12-11 14:38:43.682,0.244068,1.47009,6.70589,-0.0597867,0.497153,-0.00251974,0
2024-12-11 14:38:43.682,0.244068,1.47009,6.70589,-0.0597867,0.497153,-0.00251974,0
2024-12-11 14:38:43.684,0.198604,1.45813,6.76571,-0.0365745,0.484326,-0.00374144,0
2024-12-11 14:38:43.684,0.198604,1.45813,6.76571,-0.0365745,0.484326,-0.00374144,0
2024-12-11 14:38:43.685,0.198604,1.45813,6.76571,-0.00786466,0.469665,-0.00251974,0
2024-12-11 14:38:43.686,0.143569,1.44377,6.82792,-0.00786466,0.469665,-0.00251974,0
2024-12-11 14:38:43.689,0.0789631,1.44377,6.87578,0.0184018,0.455005,-0.0019089,0
2024-12-11 14:38:43.691,0.00717847,1.44616,6.91167,0.0507767,0.436679,0.00114534,0
2024-12-11 14:38:43.693,-0.0646062,1.44377,6.92842,0.0819299,0.416521,0.00786466,0
2024-12-11 14:38:43.697,-0.117248,1.45573,6.89013,0.150345,0.368265,0.0255792,0
2024-12-11 14:38:43.698,-0.136391,1.4653,6.8351,0.150345,0.368265,0.0255792,0
2024-12-11 14:38:43.701,-0.162712,1.47727,6.78485,0.185163,0.341387,0.0329094,0
2024-12-11 14:38:43.703,-0.205783,1.49163,6.72024,0.21204,0.312677,0.0439046,0
2024-12-11 14:38:43.705,-0.244068,1.52034,6.64128,0.238918,0.280303,0.0524565,0
2024-12-11 14:38:43.707,-0.285045,1.5658,6.55992,0.263962,0.249149,0.0616192,0
2024-12-11 14:38:43.710,-0.304188,1.6017,6.48096,0.285342,0.219218,0.0707819,0
2024-12-11 14:38:43.712,-0.292223,1.64237,6.3993,0.304889,0.189897,0.0829989,0
2024-12-11 14:38:43.717,-0.229711,1.75005,6.23659,0.331766,0.130645,0.0988809,0
2024-12-11 14:38:43.718,-0.229711,1.75005,6.23659,0.342151,0.103157,0.1056,0
2024-12-11 14:38:43.720,-0.184247,1.81944,6.16002,0.350703,0.0775012,0.110487,0
2024-12-11 14:38:43.723,-0.179462,1.88644,6.08824,0.351314,0.0573433,0.113541,0
2024-12-11 14:38:43.724,-0.160319,1.94865,6.02124,0.351314,0.0573433,0.113541,0
2024-12-11 14:38:43.726,-0.102891,2.00638,5.9662,0.351314,0.0329094,0.114763,0
2024-12-11 14:38:43.730,-0.0430708,2.07338,5.94228,0.346427,0.00786466,0.115985,0
2024-12-11 14:38:43.731,0.0119641,2.13081,5.92553,0.34154,-0.0141258,0.113541,0
2024-12-11 14:38:43.734,0.0646062,2.17866,5.93988,0.335431,-0.0403923,0.111709,0
2024-12-11 14:38:43.736,0.0933201,2.22174,5.9662,0.32688,-0.0642153,0.106822,0
2024-12-11 14:38:43.739,0.112463,2.25284,6.01645,0.307333,-0.108196,0.0988809,0
2024-12-11 14:38:43.740,0.141177,2.29591,6.09063,0.307333,-0.108196,0.0988809,0
2024-12-11 14:38:43.743,0.18664,2.34616,6.14327,0.296337,-0.126522,0.0964375,0
2024-12-11 14:38:43.745,0.227318,2.38684,6.19831,0.287175,-0.141182,0.0915507,0
2024-12-11 14:38:43.749,0.256032,2.41077,6.25095,0.263352,-0.163783,0.0848314,0
2024-12-11 14:38:43.750,0.282652,2.41555,6.28924,0.263352,-0.163783,0.0848314,0
2024-12-11 14:38:43.753,0.299402,2.41795,6.34188,0.238918,-0.177222,0.0842206,0
2024-12-11 14:38:43.756,0.332901,2.41795,6.40648,0.238918,-0.177222,0.0842206,0
2024-12-11 14:38:43.757,0.366401,2.42513,6.4666,0.227922,-0.177222,0.0817772,0
2024-12-11 14:38:43.760,0.392722,2.43709,6.54317,0.201045,-0.174168,0.0842206,0
2024-12-11 14:38:43.762,0.397508,2.43709,6.62453,0.201045,-0.174168,0.0842206,0
2024-12-11 14:38:43.764,0.392722,2.43709,6.69153,0.185163,-0.16867,0.0854423,0
2024-12-11 14:38:43.766,0.385544,2.43948,6.75135,0.17539,-0.160118,0.0878856,0
2024-12-11 14:38:43.770,0.368794,2.45145,6.8016,0.160118,-0.147291,0.094605,0
2024-12-11 14:38:43.772,0.35683,2.47059,6.85903,0.149123,-0.130187,0.100713,0
2024-12-11 14:38:43.773,0.359223,2.48016,6.9021,0.134463,-0.106364,0.106822,0
2024-12-11 14:38:43.776,0.344866,2.50887,6.94038,0.126522,-0.0794865,0.113541,0
2024-12-11 14:38:43.779,0.311366,2.55942,7.0002,0.102088,-0.0208452,0.132477,0
2024-12-11 14:38:43.780,0.282652,2.58574,7.05075,0.102088,-0.0208452,0.132477,0
2024-12-11 14:38:43.783,0.246461,2.60967,7.09861,0.0904818,0.0133623,0.141029,0
2024-12-11 14:38:43.786,0.210568,2.64317,7.14646,0.0721563,0.0817772,0.160576,0
2024-12-11 14:38:43.788,0.196211,2.67906,7.17996,0.0721563,0.0817772,0.160576,0
2024-12-11 14:38:43.790,0.189033,2.71256,7.19193,0.0629936,0.114763,0.17035,0
2024-12-11 14:38:43.793,0.160319,2.75563,7.21346,0.0538309,0.146527,0.181345,0
2024-12-11 14:38:43.796,0.129212,2.79631,7.24696,0.0428357,0.179513,0.187454,0
2024-12-11 14:38:43.797,0.114855,2.82263,7.28286,0.0287862,0.208223,0.197227,0
2024-12-11 14:38:43.800,0.0693919,2.8657,7.31635,0.0159584,0.233267,0.207612,0
2024-12-11 14:38:43.802,0.0215354,2.90878,7.34028,0.00496313,0.257701,0.217996,0
2024-12-11 14:38:43.805,-0.0143569,2.94227,7.38575,-0.0139731,0.293741,0.236322,0
2024-12-11 14:38:43.806,-0.0550349,2.97577,7.45992,-0.0139731,0.293741,0.236322,0
2024-12-11 14:38:43.809,-0.0933201,3.00449,7.53889,-0.0237467,0.30718,0.247928,0
2024-12-11 14:38:43.811,-0.136391,3.03799,7.59901,-0.0310769,0.318175,0.259534,0
2024-12-11 14:38:43.813,-0.172283,3.08106,7.65404,-0.0396287,0.324894,0.270529,0
2024-12-11 14:38:43.817,-0.193819,3.11725,7.6995,-0.0542891,0.331614,0.293741,0
2024-12-11 14:38:43.818,-0.198604,3.13639,7.75454,-0.0542891,0.331614,0.293741,0
2024-12-11 14:38:43.821,-0.174676,3.15314,7.84068,-0.0622301,0.326727,0.307791,0
2024-12-11 14:38:43.824,-0.165105,3.1675,7.934,-0.0720036,0.29985,0.329781,0
2024-12-11 14:38:43.825,-0.155533,3.19621,8.0345,-0.0720036,0.29985,0.329781,0
2024-12-11 14:38:43.828,-0.131605,3.22493,8.15205,-0.0732253,0.282135,0.341387,0
2024-12-11 14:38:43.830,-0.11007,3.2656,8.25015,-0.074447,0.26381,0.348107,0
2024-12-11 14:38:43.836,-0.0837488,3.34935,8.42722,-0.0695602,0.197838,0.377427,0
2024-12-11 14:38:43.837,-0.0454636,3.38764,8.5349,-0.0695602,0.197838,0.377427,0
2024-12-11 14:38:43.837,-0.0454636,3.38764,8.5349,-0.0695602,0.197838,0.377427,0
2024-12-11 14:38:43.840,0.0119641,3.43071,8.63301,-0.0677277,0.174015,0.382925,0
2024-12-11 14:38:43.842,0.0622134,3.48096,8.7338,-0.0640626,0.14836,0.390255,0
2024-12-11 14:38:43.844,0.0909273,3.50967,8.82712,-0.0597867,0.126369,0.397585,0
2024-12-11 14:38:43.846,0.141177,3.53599,8.93719,-0.0536782,0.103157,0.404305,0
2024-12-11 14:38:43.849,0.208176,3.58146,9.04726,-0.0475697,0.0854423,0.406748,0
2024-12-11 14:38:43.851,0.27996,3.61974,9.14537,-0.0402396,0.0713928,0.410413,0
2024-12-11 14:38:43.853,0.349651,3.66311,9.26292,-0.0298552,0.0622301,0.412246,0
2024-12-11 14:38:43.856,0.397508,3.699,9.38256,-0.0194708,0.0579541,0.411635,0
2024-12-11 14:38:43.859,0.407079,3.74686,9.5022,0.00984991,0.0500131,0.405526,0
2024-12-11 14:38:43.861,0.41665,3.80668,9.6003,0.00984991,0.0500131,0.405526,0
2024-12-11 14:38:43.863,0.438186,3.84736,9.68166,0.0226777,0.0451263,0.403694,0
2024-12-11 14:38:43.865,0.452543,3.87847,9.74866,0.0361163,0.042683,0.404305,0
2024-12-11 14:38:43.868,0.469292,3.91197,9.78455,0.0483333,0.0420721,0.400639,0
2024-12-11 14:38:43.870,0.495613,3.94547,9.80609,0.0581068,0.042683,0.396364,0
2024-12-11 14:38:43.873,0.505185,3.96222,9.8351,0.0666587,0.0451263,0.394531,0
2024-12-11 14:38:43.877,0.514756,3.97897,9.9021,0.077654,0.0591758,0.387201,0
2024-12-11 14:38:43.877,0.514756,3.97897,9.9021,0.077654,0.0591758,0.387201,0
2024-12-11 14:38:43.879,0.538684,3.98375,9.98106,0.0825407,0.0707819,0.382925,0
2024-12-11 14:38:43.883,0.553041,4.00289,10.0768,0.0904818,0.101935,0.37193,0
2024-12-11 14:38:43.884,0.538684,4.02204,10.1892,0.0904818,0.101935,0.37193,0
2024-12-11 14:38:43.886,0.519542,4.034,10.2826,0.0972011,0.122704,0.365821,0
2024-12-11 14:38:43.889,0.488435,4.034,10.3687,0.105753,0.144694,0.359102,0
2024-12-11 14:38:43.892,0.435793,4.03639,10.4671,0.120413,0.187454,0.349328,0
2024-12-11 14:38:43.893,0.368794,4.02204,10.5796,0.120413,0.187454,0.349328,0
2024-12-11 14:38:43.896,0.299402,3.97897,10.6944,0.129576,0.207612,0.346885,0
2024-12-11 14:38:43.902,0.232104,3.92872,10.7901,0.159507,0.247928,0.346274,0
2024-12-11 14:38:43.902,0.153141,3.86172,10.893,0.159507,0.247928,0.346274,0
2024-12-11 14:38:43.903,0.081356,3.77797,10.9866,0.159507,0.247928,0.346274,0
2024-12-11 14:38:43.905,0.0143569,3.70858,11.0824,0.170503,0.255258,0.35055,0
2024-12-11 14:38:43.908,-0.0693919,3.64128,11.2164,0.182109,0.260755,0.356658,0
2024-12-11 14:38:43.911,-0.145962,3.55992,11.3575,0.216927,0.266253,0.374984,0
2024-12-11 14:38:43.912,-0.205783,3.49053,11.4987,0.216927,0.266253,0.374984,0
2024-12-11 14:38:43.916,-0.258425,3.4355,11.6354,0.235863,0.266253,0.385979,0
2024-12-11 14:38:43.918,-0.304188,3.38046,11.7526,0.260297,0.268696,0.400639,0
2024-12-11 14:38:43.919,-0.337687,3.30868,11.8531,0.28412,0.271751,0.416521,0
2024-12-11 14:38:43.923,-0.361615,3.25364,11.9273,0.311608,0.273583,0.431182,0
2024-12-11 14:38:43.924,-0.364008,3.22971,11.9848,0.339097,0.274805,0.448896,0
2024-12-11 14:38:43.926,-0.359223,3.19382,12.0278,0.367196,0.276027,0.465389,0
2024-12-11 14:38:43.930,-0.344866,3.14836,12.0712,0.391629,0.275416,0.479439,0
2024-12-11 14:38:43.931,-0.330509,3.11964,12.1238,0.416674,0.276027,0.49471,0
2024-12-11 14:38:43.934,-0.318545,3.09332,12.1717,0.443551,0.277859,0.509981,0
2024-12-11 14:38:43.937,-0.282652,3.05713,12.2435,0.498528,0.283357,0.539302,0
2024-12-11 14:38:43.939,-0.198604,3.03559,12.3248,0.525405,0.2858,0.553351,0
2024-12-11 14:38:43.941,-0.117248,3.00688,12.3512,0.525405,0.2858,0.553351,0
2024-12-11 14:38:43.943,-0.105284,2.9662,12.3559,0.551061,0.292519,0.566179,0
2024-12-11 14:38:43.945,-0.150748,2.95185,12.3751,0.576105,0.305347,0.578396,0
2024-12-11 14:38:43.949,-0.208176,2.93988,12.387,0.626806,0.348107,0.610771,0
2024-12-11 14:38:43.951,-0.27996,2.95902,12.3679,0.645742,0.381092,0.627875,0
2024-12-11 14:38:43.952,-0.375972,3.03081,12.3248,0.645742,0.381092,0.627875,0
2024-12-11 14:38:43.955,-0.488435,3.12204,12.265,0.667732,0.416521,0.648643,0
2024-12-11 14:38:43.958,-0.608076,3.21775,12.1645,0.697053,0.483104,0.684683,0
2024-12-11 14:38:43.960,-0.739681,3.32782,12.0039,0.697053,0.483104,0.684683,0
2024-12-11 14:38:43.963,-0.917049,3.44985,11.8125,0.695221,0.508759,0.703009,0
2024-12-11 14:38:43.965,-1.13001,3.58146,11.6163,0.675063,0.570455,0.74279,0
2024-12-11 14:38:43.966,-1.35733,3.75883,11.4174,0.675063,0.570455,0.74279,0
2024-12-11 14:38:43.969,-1.58495,3.96939,11.2259,0.656737,0.604662,0.759283,0
2024-12-11 14:38:43.971,-1.79791,4.18475,11.0704,0.630471,0.637037,0.776387,0
2024-12-11 14:38:43.974,-1.96062,4.35733,10.9579,0.599317,0.662693,0.795323,0
2024-12-11 14:38:43.977,-2.05902,4.48654,10.8763,0.562056,0.680407,0.808762,0
2024-12-11 14:38:43.979,-2.0997,4.53918,10.8188,0.46432,0.668801,0.830141,0
2024-12-11 14:38:43.981,-2.06381,4.52722,10.7853,0.46432,0.668801,0.830141,0
2024-12-11 14:38:43.985,-1.75005,4.50808,10.771,0.348259,0.585115,0.830141,0
2024-12-11 14:38:43.988,-1.45334,4.45544,10.7734,0.277401,0.510592,0.819146,0
2024-12-11 14:38:43.989,-1.45334,4.45544,10.7734,0.277401,0.510592,0.819146,0
2024-12-11 14:38:43.990,-1.03669,4.35254,10.838,0.197991,0.409802,0.799599,0
2024-12-11 14:38:43.995,0.0287139,3.99811,11.2403,0.00435229,0.127591,0.726221,0
2024-12-11 14:38:43.997,0.737288,3.74686,11.6115,-0.106822,-0.057496,0.670634,0
2024-12-11 14:38:43.998,0.0287139,3.74686,11.6115,-0.221661,-0.265795,0.599776,0
2024-12-11 14:38:43.999,1.52991,3.46182,12.1071,-0.221661,-0.265795,0.599776,0
2024-12-11 14:38:44.002,2.19302,3.11964,12.7798,-0.332835,-0.475926,0.513035,0
2024-12-11 14:38:44.005,2.73171,2.74128,13.6152,-0.433014,-0.675063,0.417743,0
2024-12-11 14:38:44.007,3.17228,2.38206,14.5011,-0.433014,-0.675063,0.417743,0
2024-12-11 14:38:44.009,3.53121,2.04945,15.4059,-0.579007,-1.04401,0.22044,0
2024-12-11 14:38:44.011,3.78036,1.70459,16.3923,-0.579007,-1.04401,0.22044,0
2024-12-11 14:38:44.014,3.92632,1.35972,17.4338,-0.644978,-1.32623,0.0255792,0
2024-12-11 14:38:44.017,4.04118,1.01037,18.4418,-0.613825,-1.48199,-0.145458,0
2024-12-11 14:38:44.018,4.14407,0.663111,19.378,-0.613825,-1.48199,-0.145458,0
2024-12-11 14:38:44.022,4.101,0.421436,20.12,-0.496542,-1.50215,-0.271903,0
2024-12-11 14:38:44.023,3.77318,0.267996,20.6013,-0.496542,-1.50215,-0.271903,0
2024-12-11 14:38:44.025,3.57906,0.026321,21.0826,-0.425073,-1.45878,-0.307943,0
2024-12-11 14:38:44.028,3.63649,-0.330509,21.6691,-0.334057,-1.40258,-0.337875,0
2024-12-11 14:38:44.031,3.64606,-0.720539,22.1815,-0.226548,-1.33111,-0.365363,0
2024-12-11 14:38:44.032,3.57906,-1.10608,22.4782,-0.226548,-1.33111,-0.365363,1
2024-12-11 14:38:44.035,3.39721,-1.43181,22.5667,0.0184018,-1.12465,-0.397738,0
2024-12-11 14:38:44.038,3.11725,-1.71416,22.5189,0.155842,-0.986595,-0.400181,0
2024-12-11 14:38:44.040,2.75563,-1.91516,22.2868,0.296337,-0.829607,-0.388575,0
2024-12-11 14:38:44.042,2.19302,-1.95823,21.772,0.436221,-0.655515,-0.36353,0
2024-12-11 14:38:44.047,0.634397,-1.63041,20.2062,0.679949,-0.285342,-0.245637,0
2024-12-11 14:38:44.048,0.634397,-1.63041,20.2062,0.775242,-0.105753,-0.157064,0
2024-12-11 14:38:44.052,-0.481256,-1.22333,18.5136,0.907795,0.207001,0.0487914,0
2024-12-11 14:38:44.052,-0.481256,-1.22333,18.5136,0.907795,0.207001,0.0487914,0
2024-12-11 14:38:44.055,-0.696611,-1.06062,17.5199,0.907795,0.207001,0.0487914,0
2024-12-11 14:38:44.056,-0.744467,-0.912264,16.5239,0.942003,0.34322,0.150192,0
2024-12-11 14:38:44.058,-0.744467,-0.777966,15.5785,0.956052,0.470276,0.244263,0
2024-12-11 14:38:44.061,-0.701396,-0.612862,14.6925,0.952998,0.586948,0.331614,0
2024-12-11 14:38:44.064,-0.643968,-0.397508,13.85,0.937727,0.704231,0.407359,0
2024-12-11 14:38:44.065,-0.622433,-0.136391,12.9808,0.90413,0.811205,0.476995,0
2024-12-11 14:38:44.068,-0.596112,0.155533,12.1286,0.858317,0.909552,0.539302,0
2024-12-11 14:38:44.070,-0.531506,0.447757,11.3408,0.798454,0.997514,0.594278,0
2024-12-11 14:38:44.072,-0.402293,0.696611,10.6466,0.798454,0.997514,0.594278,0
2024-12-11 14:38:44.076,-0.0598206,0.821037,10.1055,0.637801,1.14106,0.678575,0
2024-12-11 14:38:44.078,0.172283,0.984048,9.62902,0.450882,1.24491,0.714004,0
2024-12-11 14:38:44.079,0.0909273,1.29512,9.15733,0.450882,1.24491,0.714004,0
2024-12-11 14:38:44.082,0.0693919,1.59691,8.80559,0.348259,1.28095,0.726832,0
2024-12-11 14:38:44.084,0.153141,1.89123,8.58036,0.244415,1.29927,0.733551,0
2024-12-11 14:38:44.087,0.205783,2.17627,8.42244,0.141793,1.30294,0.733551,0
2024-12-11 14:38:44.089,0.270389,2.41555,8.35783,0.0428357,1.29255,0.72561,0
2024-12-11 14:38:44.091,0.359223,2.62642,8.36262,-0.0469589,1.26629,0.71095,0
2024-12-11 14:38:44.095,0.442971,2.81067,8.42722,-0.132477,1.23208,0.690181,0
2024-12-11 14:38:44.096,0.531506,2.94467,8.55404,-0.208223,1.18993,0.662082,0
2024-12-11 14:38:44.098,0.615255,3.04038,8.71945,-0.272362,1.13557,0.628486,0
2024-12-11 14:38:44.101,0.737288,3.07149,8.89412,-0.326116,1.07326,0.585115,0
2024-12-11 14:38:44.103,0.878764,3.03559,9.08555,-0.368875,1.00607,0.536858,0
2024-12-11 14:38:44.106,0.974477,2.97338,9.27009,-0.402472,0.933985,0.484936,0
2024-12-11 14:38:44.109,1.01755,2.91117,9.43998,-0.439123,0.782419,0.369486,0
2024-12-11 14:38:44.110,1.00558,2.86331,9.58834,-0.439123,0.782419,0.369486,0
2024-12-11 14:38:44.112,0.936192,2.80828,9.72952,-0.44462,0.703009,0.310845,0
2024-12-11 14:38:44.116,0.797109,2.74367,9.90928,-0.440345,0.620544,0.257701,0
2024-12-11 14:38:44.117,0.641576,2.68864,10.0552,-0.431182,0.533193,0.211277,0
2024-12-11 14:38:44.120,0.502792,2.62403,10.1533,-0.415911,0.442177,0.166685,0
2024-12-11 14:38:44.123,0.375972,2.54267,10.2443,-0.398196,0.353604,0.130034,0
2024-12-11 14:38:44.124,0.256032,2.44188,10.2993,-0.374373,0.260755,0.0952158,0
2024-12-11 14:38:44.127,0.153141,2.33659,10.3304,-0.346274,0.166685,0.0646735,0
2024-12-11 14:38:44.129,0.0717847,2.22891,10.3543,-0.320008,0.0781121,0.0396287,0
2024-12-11 14:38:44.132,-0.00478565,2.11645,10.3376,-0.29313,-0.00801737,0.0164165,0
2024-12-11 14:38:44.135,-0.102891,2.00877,10.273,-0.237543,-0.168059,-0.0190126,0
2024-12-11 14:38:44.136,-0.200997,1.89841,10.2036,-0.237543,-0.168059,-0.0190126,0
2024-12-11 14:38:44.139,-0.263211,1.80269,10.1629,-0.21372,-0.24075,-0.0324513,0
2024-12-11 14:38:44.142,-0.316152,1.72373,10.1462,-0.162409,-0.362309,-0.0446682,0
2024-12-11 14:38:44.144,-0.364008,1.64477,10.1127,-0.138586,-0.411787,-0.0452791,0
2024-12-11 14:38:44.146,-0.41665,1.57059,10.072,-0.138586,-0.411787,-0.0452791,0
2024-12-11 14:38:44.148,-0.474078,1.49163,10.0409,-0.115374,-0.454547,-0.0428357,0
2024-12-11 14:38:44.151,-0.514756,1.42941,10.0313,-0.0658951,-0.515021,-0.0306187,0
2024-12-11 14:38:44.152,-0.555434,1.38844,10.0146,-0.0658951,-0.515021,-0.0306187,0
2024-12-11 14:38:44.155,-0.588933,1.34536,9.95953,-0.0402396,-0.534568,-0.0220669,0
2024-12-11 14:38:44.157,-0.596112,1.30947,9.89253,-0.0176382,-0.548006,-0.0104608,0
2024-12-11 14:38:44.160,-0.598505,1.27837,9.81087,7.63559e-05,-0.557169,-0.000687203,0
2024-12-11 14:38:44.162,-0.584148,1.24247,9.71277,0.0177909,-0.562667,0.010308,0
2024-12-11 14:38:44.164,-0.574577,1.2018,9.62663,0.029397,-0.56511,0.0255792,0
2024-12-11 14:38:44.168,-0.579362,1.17069,9.5333,0.0489441,-0.557169,0.046348,0
2024-12-11 14:38:44.169,-0.557827,1.14197,9.4352,0.0489441,-0.557169,0.046348,0
2024-12-11 14:38:44.172,-0.538684,1.12283,9.34427,0.0526092,-0.549839,0.0597867,0
2024-12-11 14:38:44.174,-0.536291,1.11087,9.26531,0.0562743,-0.534568,0.0738362,0
2024-12-11 14:38:44.178,-0.495613,1.12044,9.09512,0.0519984,-0.502193,0.100713,0
2024-12-11 14:38:44.178,-0.495613,1.12044,9.09512,0.0519984,-0.502193,0.100713,0
2024-12-11 14:38:44.183,-0.452543,1.12283,8.96112,0.0410031,-0.458212,0.126369,0
2024-12-11 14:38:44.184,-0.452543,1.12283,8.96112,0.0348946,-0.430724,0.141029,0
2024-12-11 14:38:44.188,-0.397508,1.12283,8.81037,0.0251211,-0.402625,0.151414,0
2024-12-11 14:38:44.188,-0.397508,1.12283,8.81037,0.0251211,-0.402625,0.151414,0
2024-12-11 14:38:44.191,-0.373579,1.14915,8.73859,0.0129041,-0.372693,0.164242,0
2024-12-11 14:38:44.193,-0.347258,1.16351,8.68565,7.63559e-05,-0.339707,0.174626,0
2024-12-11 14:38:44.196,-0.318545,1.15872,8.64497,-0.0243575,-0.26946,0.198449,0
2024-12-11 14:38:44.197,-0.285045,1.14676,8.59711,-0.0243575,-0.26946,0.198449,0
2024-12-11 14:38:44.202,-0.258425,1.14437,8.49422,-0.0494023,-0.200434,0.217385,0
2024-12-11 14:38:44.202,-0.258425,1.14437,8.49422,-0.0494023,-0.200434,0.217385,0
2024-12-11 14:38:44.204,-0.232104,1.16112,8.46072,-0.0634518,-0.166838,0.225326,0
2024-12-11 14:38:44.207,-0.208176,1.16351,8.42244,-0.0781121,-0.130798,0.233878,0
2024-12-11 14:38:44.211,-0.155533,1.1683,8.37458,-0.103768,-0.0648262,0.24976,0
2024-12-11 14:38:44.211,-0.155533,1.1683,8.37458,-0.103768,-0.0648262,0.24976,0
2024-12-11 14:38:44.218,-0.12682,1.17547,8.32672,-0.136753,0.0274118,0.268696,0
2024-12-11 14:38:44.219,-0.12682,1.17547,8.32672,-0.136753,0.0274118,0.268696,0
2024-12-11 14:38:44.221,-0.107677,1.18983,8.31237,-0.147749,0.0536782,0.272362,0
2024-12-11 14:38:44.222,-0.107677,1.18983,8.31237,-0.158133,0.0775012,0.27847,0
2024-12-11 14:38:44.223,-0.0741775,1.19462,8.3028,-0.158133,0.0775012,0.27847,0
2024-12-11 14:38:44.225,-0.0574277,1.18983,8.3028,-0.167907,0.0958267,0.280913,0
2024-12-11 14:38:44.228,-0.0550349,1.18026,8.31476,-0.176459,0.11232,0.283357,0
2024-12-11 14:38:44.231,-0.0358923,1.1683,8.34108,-0.179513,0.125758,0.283968,0
2024-12-11 14:38:44.235,0.0167498,1.16112,8.40329,-0.185621,0.138586,0.282135,0
2024-12-11 14:38:44.236,0.0167498,1.16112,8.40329,-0.185621,0.14164,0.281524,0
2024-12-11 14:38:44.237,0.0478565,1.14915,8.45115,-0.185621,0.14164,0.281524,0
2024-12-11 14:38:44.240,0.0765703,1.14437,8.49901,-0.1844,0.14164,0.279692,0
2024-12-11 14:38:44.242,0.0885344,1.14915,8.52772,-0.178291,0.142251,0.277248,0
2024-12-11 14:38:44.244,0.0981057,1.16112,8.54926,-0.172793,0.139808,0.276027,0
2024-12-11 14:38:44.248,0.114855,1.1659,8.56122,-0.15569,0.130645,0.268086,0
2024-12-11 14:38:44.250,0.131605,1.16351,8.57079,-0.15569,0.130645,0.268086,0
2024-12-11 14:38:44.251,0.153141,1.15633,8.6019,-0.145916,0.122704,0.263199,0
2024-12-11 14:38:44.254,0.172283,1.14676,8.64258,-0.133699,0.113541,0.257701,0
2024-12-11 14:38:44.258,0.229711,1.14676,8.69761,-0.1056,0.0915507,0.248538,0
2024-12-11 14:38:44.259,0.229711,1.14676,8.69761,-0.1056,0.0915507,0.248538,0
2024-12-11 14:38:44.261,0.239282,1.14197,8.69761,-0.0933833,0.0817772,0.24243,0
2024-12-11 14:38:44.264,0.241675,1.15155,8.7003,-0.0768904,0.0720036,0.236322,0
2024-12-11 14:38:44.268,0.256032,1.2018,8.64975,-0.0469589,0.0475697,0.226548,0
2024-12-11 14:38:44.269,0.256032,1.2018,8.64975,-0.0353528,0.0310769,0.22044,0
2024-12-11 14:38:44.271,0.265603,1.22333,8.59472,-0.0268009,0.0109189,0.214331,0
2024-12-11 14:38:44.273,0.297009,1.24487,8.54447,-0.0268009,0.0109189,0.214331,0
2024-12-11 14:38:44.277,0.354437,1.29512,8.44636,-0.0127514,-0.0275645,0.202114,0
2024-12-11 14:38:44.277,0.354437,1.29512,8.44636,-0.0127514,-0.0275645,0.202114,0
2024-12-11 14:38:44.280,0.397508,1.31904,8.40569,-0.00908635,-0.0422248,0.192951,0
2024-12-11 14:38:44.282,0.421436,1.37169,8.39612,-0.00664296,-0.0544418,0.18501,0
2024-12-11 14:38:44.284,0.442971,1.41984,8.38894,-0.00236703,-0.0648262,0.174626,0
2024-12-11 14:38:44.287,0.454935,1.44616,8.37458,0.00129805,-0.0727672,0.165463,0
2024-12-11 14:38:44.289,0.469292,1.47009,8.34347,0.00313059,-0.077654,0.154468,0
2024-12-11 14:38:44.294,0.471685,1.53709,8.25494,0.00129805,-0.0800973,0.143473,0
2024-12-11 14:38:44.295,0.471685,1.53709,8.25494,-0.00358873,-0.0794865,0.124536,0
2024-12-11 14:38:44.296,0.481256,1.5323,8.21905,7.63559e-05,-0.0794865,0.124536,0
2024-12-11 14:38:44.299,0.502792,1.52034,8.2023,-0.00664296,-0.0764323,0.115985,0
2024-12-11 14:38:44.301,0.524327,1.51316,8.1999,-0.0121406,-0.0703238,0.106822,0
2024-12-11 14:38:44.303,0.52672,1.50598,8.20708,-0.0188599,-0.0672696,0.0958267,0
2024-12-11 14:38:44.306,0.533899,1.49641,8.2023,-0.0255792,-0.0642153,0.0878856,0
2024-12-11 14:38:44.309,0.536291,1.48205,8.20948,-0.0432938,-0.0678804,0.0726145,0
2024-12-11 14:38:44.310,0.52672,1.47488,8.21905,-0.0432938,-0.0678804,0.0726145,0
2024-12-11 14:38:44.313,0.517149,1.46291,8.21905,-0.0524565,-0.0691021,0.0628409,0
2024-12-11 14:38:44.315,0.50997,1.45095,8.22622,-0.066506,-0.0715455,0.0542891,0
2024-12-11 14:38:44.317,0.521934,1.45095,8.24776,-0.0768904,-0.0739889,0.0457372,0
2024-12-11 14:38:44.320,0.519542,1.45573,8.27169,-0.086664,-0.0721563,0.0402396,0
2024-12-11 14:38:44.323,0.500399,1.4653,8.30997,-0.094605,-0.073378,0.0329094,0
2024-12-11 14:38:44.324,0.512363,1.47248,8.37219,-0.101935,-0.073378,0.0268009,0
2024-12-11 14:38:44.327,0.529113,1.48684,8.43201,-0.109265,-0.0745997,0.0188599,0
2024-12-11 14:38:44.330,0.562612,1.47488,8.49422,-0.127591,-0.0825407,0.00725381,0
2024-12-11 14:38:44.332,0.624826,1.45095,8.55643,-0.127591,-0.0825407,0.00725381,0
2024-12-11 14:38:44.334,0.701396,1.43898,8.61625,-0.133699,-0.0910926,-0.00129805,0
2024-12-11 14:38:44.337,0.751645,1.41984,8.68565,-0.14897,-0.101477,-0.0238994,0
2024-12-11 14:38:44.338,0.782752,1.41027,8.75534,-0.14897,-0.101477,-0.0238994,0
2024-12-11 14:38:44.341,0.833001,1.39801,8.83669,-0.153246,-0.105753,-0.0330621,0
2024-12-11 14:38:44.343,0.897907,1.38844,8.92284,-0.15569,-0.107585,-0.0452791,0
2024-12-11 14:38:44.346,0.964906,1.39801,9.01376,-0.160576,-0.109418,-0.0581068,0
2024-12-11 14:38:44.348,1.02473,1.39801,9.0999,-0.16302,-0.112472,-0.0697129,0
2024-12-11 14:38:44.350,1.07498,1.39083,9.15015,-0.166685,-0.11797,-0.081319,0
2024-12-11 14:38:44.353,1.11326,1.39083,9.18605,-0.17035,-0.120413,-0.0984228,0
2024-12-11 14:38:44.356,1.1348,1.38604,9.19562,-0.185621,-0.1253,-0.127133,0
2024-12-11 14:38:44.357,1.16112,1.37408,9.21237,-0.185621,-0.1253,-0.127133,0
2024-12-11 14:38:44.360,1.17308,1.35494,9.27009,-0.190508,-0.125911,-0.145458,0
2024-12-11 14:38:44.362,1.16351,1.34058,9.31556,-0.190508,-0.125911,-0.145458,0
2024-12-11 14:38:44.364,1.15633,1.33579,9.35384,-0.205168,-0.1253,-0.172946,0
2024-12-11 14:38:44.367,1.13001,1.32383,9.39691,-0.216774,-0.123468,-0.188217,0
2024-12-11 14:38:44.370,1.09173,1.2999,9.43041,-0.221661,-0.121635,-0.205321,0
2024-12-11 14:38:44.371,1.05823,1.29512,9.45673,-0.228991,-0.118581,-0.216316,0
2024-12-11 14:38:44.376,0.986441,1.24247,9.52852,-0.241819,-0.114916,-0.232198,0
2024-12-11 14:38:44.376,0.986441,1.24247,9.52852,-0.241819,-0.114916,-0.232198,0
2024-12-11 14:38:44.380,0.955334,1.21854,9.58116,-0.248538,-0.113694,-0.24075,0
2024-12-11 14:38:44.381,0.929013,1.19222,9.63141,-0.255869,-0.110029,-0.246859,0
2024-12-11 14:38:44.383,0.902692,1.1683,9.67448,-0.260145,-0.108196,-0.255411,0
2024-12-11 14:38:44.386,0.862014,1.14915,9.72473,-0.261977,-0.105142,-0.261519,0
2024-12-11 14:38:44.388,0.825823,1.14437,9.77737,-0.268086,-0.10331,-0.263352,0
2024-12-11 14:38:44.391,0.782752,1.14437,9.82553,-0.269918,-0.0978119,-0.271293,0
2024-12-11 14:38:44.394,0.732503,1.1324,9.88774,-0.268696,-0.0965902,-0.273736,0
2024-12-11 14:38:44.395,0.710967,1.1348,9.94517,-0.268696,-0.0965902,-0.273736,0
2024-12-11 14:38:44.397,0.689432,1.13958,9.98585,-0.265031,-0.0941468,-0.274347,0
2024-12-11 14:38:44.400,0.648754,1.13958,10.0361,-0.260755,-0.0917034,-0.275568,0
2024-12-11 14:38:44.404,0.615255,1.1659,10.1103,-0.25648,-0.0898709,-0.273736,0
2024-12-11 14:38:44.407,0.600898,1.1683,10.151,-0.247928,-0.0843733,-0.270071,0
2024-12-11 14:38:44.410,0.586541,1.1659,10.1868,-0.237543,-0.081319,-0.267017,0
2024-12-11 14:38:44.411,0.567398,1.17069,10.2251,-0.232046,-0.0770431,-0.26213,0
2024-12-11 14:38:44.414,0.54347,1.17547,10.2347,-0.222883,-0.073378,-0.257243,0
2024-12-11 14:38:44.416,0.517149,1.18265,10.2299,-0.212498,-0.0672696,-0.250524,0
2024-12-11 14:38:44.417,0.517149,1.18265,10.2299,-0.202725,-0.0623828,-0.245026,0
2024-12-11 14:38:44.420,0.486042,1.19462,10.2515,-0.202725,-0.0623828,-0.245026,0
2024-12-11 14:38:44.421,0.445364,1.22572,10.2682,-0.190508,-0.0544418,-0.238918,0
2024-12-11 14:38:44.423,0.41665,1.26162,10.273,-0.179513,-0.0458899,-0.231587,0
2024-12-11 14:38:44.426,0.3999,1.2999,10.2658,-0.168517,-0.0361163,-0.224257,0
2024-12-11 14:38:44.429,0.390329,1.35254,10.2371,-0.145916,-0.0141258,-0.205321,0
2024-12-11 14:38:44.431,0.378365,1.40788,10.2012,-0.13431,-0.00251974,-0.196769,0
2024-12-11 14:38:44.433,0.359223,1.44855,10.151,-0.13431,-0.00251974,-0.196769,0
2024-12-11 14:38:44.436,0.35683,1.47966,10.0768,-0.128812,0.00847551,-0.189439,0
2024-12-11 14:38:44.437,0.368794,1.5347,9.99542,-0.120871,0.0170274,-0.182109,0
2024-12-11 14:38:44.441,0.385544,1.58016,9.89492,-0.114763,0.0322986,-0.16867,0
2024-12-11 14:38:44.442,0.404686,1.62562,9.78934,-0.114763,0.0322986,-0.16867,0
2024-12-11 14:38:44.444,0.435793,1.69023,9.69362,-0.118428,0.0353528,-0.165616,0
2024-12-11 14:38:44.447,0.4669,1.75723,9.61227,-0.119039,0.0402396,-0.164394,0
2024-12-11 14:38:44.449,0.490828,1.83859,9.54048,-0.123926,0.0420721,-0.163173,0
2024-12-11 14:38:44.452,0.512363,1.92473,9.48545,-0.132477,0.0445155,-0.165005,0
2024-12-11 14:38:44.454,0.52672,2.00877,9.44956,-0.136143,0.0481806,-0.167449,0
2024-12-11 14:38:44.456,0.519542,2.10688,9.42084,-0.143473,0.050624,-0.171114,0
2024-12-11 14:38:44.461,0.490828,2.27199,9.33231,-0.156911,0.0542891,-0.181498,0
2024-12-11 14:38:44.461,0.490828,2.27199,9.33231,-0.156911,0.0542891,-0.181498,0
2024-12-11 14:38:44.467,0.392722,2.42034,9.24826,-0.185621,0.0573433,-0.193715,0
2024-12-11 14:38:44.468,0.34008,2.48734,9.21237,-0.185621,0.0573433,-0.193715,0
2024-12-11 14:38:44.469,0.34008,2.48734,9.21237,-0.185621,0.0573433,-0.193715,0
2024-12-11 14:38:44.470,0.311366,2.54028,9.18126,-0.194173,0.0561216,-0.195547,0
2024-12-11 14:38:44.473,0.27996,2.58574,9.1669,-0.194173,0.0561216,-0.195547,0
2024-12-11 14:38:44.475,0.236889,2.62881,9.15255,-0.214942,0.0469589,-0.202267,0
2024-12-11 14:38:44.477,0.198604,2.67189,9.13819,-0.226548,0.0396287,-0.202267,0
2024-12-11 14:38:44.481,0.162712,2.70299,9.14537,-0.236322,0.0316877,-0.20471,0
2024-12-11 14:38:44.482,0.141177,2.75085,9.15015,-0.250982,0.0237467,-0.207764,0
2024-12-11 14:38:44.488,0.131605,2.78674,9.14537,-0.272362,0.00725381,-0.21143,0
2024-12-11 14:38:44.488,0.11007,2.80588,9.15255,-0.272362,0.00725381,-0.21143,0
2024-12-11 14:38:44.489,0.0741775,2.8346,9.17169,-0.272362,0.00725381,-0.21143,0
2024-12-11 14:38:44.492,0.040678,2.84895,9.20758,-0.294352,-0.0110716,-0.216927,0
2024-12-11 14:38:44.495,0.00478565,2.8657,9.23869,-0.315732,-0.0330621,-0.220592,0
2024-12-11 14:38:44.497,-0.026321,2.88724,9.27488,-0.326116,-0.0458899,-0.224868,0
2024-12-11 14:38:44.499,-0.0454636,2.89442,9.32992,-0.326116,-0.0458899,-0.224868,0
2024-12-11 14:38:44.502,-0.0741775,2.89681,9.37538,-0.341387,-0.0678804,-0.225479,0
2024-12-11 14:38:44.504,-0.112463,2.88963,9.42323,-0.346885,-0.0770431,-0.225479,0
2024-12-11 14:38:44.506,-0.124427,2.88963,9.47827,-0.346885,-0.0770431,-0.225479,0
2024-12-11 14:38:44.508,-0.122034,2.89442,9.52373,-0.355437,-0.0862058,-0.22609,0
2024-12-11 14:38:44.511,-0.150748,2.88485,9.57159,-0.360934,-0.0965902,-0.228533,0
2024-12-11 14:38:44.513,-0.172283,2.88963,9.62184,-0.366432,-0.105142,-0.22609,0
2024-12-11 14:38:44.515,-0.184247,2.89203,9.66012,-0.374984,-0.112472,-0.227312,0
2024-12-11 14:38:44.518,-0.191426,2.88245,9.69123,-0.384757,-0.116137,-0.229144,0
2024-12-11 14:38:44.521,-0.196211,2.87288,9.70559,-0.406137,-0.1253,-0.22609,0
2024-12-11 14:38:44.523,-0.20339,2.8322,9.7343,-0.406137,-0.1253,-0.22609,0
2024-12-11 14:38:44.525,-0.18664,2.76999,9.76062,-0.418965,-0.133241,-0.225479,0
2024-12-11 14:38:44.528,-0.160319,2.71735,9.80848,-0.433014,-0.143625,-0.226701,0
2024-12-11 14:38:44.529,-0.162712,2.66471,9.90928,-0.445231,-0.15401,-0.224257,0
2024-12-11 14:38:44.532,-0.177069,2.62403,10.0193,-0.45867,-0.165616,-0.221814,0
2024-12-11 14:38:44.535,-0.167498,2.59053,10.151,-0.469665,-0.176,-0.221203,0
2024-12-11 14:38:44.536,-0.138784,2.55942,10.2945,-0.479439,-0.187606,-0.217538,0
2024-12-11 14:38:44.539,-0.100499,2.50887,10.436,-0.481882,-0.196769,-0.21204,0
2024-12-11 14:38:44.541,-0.0526421,2.47777,10.5891,-0.484936,-0.204099,-0.208375,0
2024-12-11 14:38:44.544,-0.0119641,2.44666,10.7423,-0.484326,-0.21143,-0.202267,0
2024-12-11 14:38:44.547,0.0382852,2.39641,10.8787,-0.474552,-0.224257,-0.193104,0
2024-12-11 14:38:44.549,0.119641,2.35334,11.0345,-0.466,-0.227922,-0.191272,0
2024-12-11 14:38:44.550,0.222533,2.30788,11.1852,-0.466,-0.227922,-0.191272,0
2024-12-11 14:38:44.555,0.373579,2.22652,11.4245,-0.44401,-0.226701,-0.185163,0
2024-12-11 14:38:44.556,0.373579,2.22652,11.4245,-0.431182,-0.223036,-0.185774,0
2024-12-11 14:38:44.558,0.407079,2.19781,11.5373,-0.431182,-0.223036,-0.185774,0
2024-12-11 14:38:44.561,0.414257,2.17627,11.633,-0.411635,-0.213262,-0.188217,0
2024-12-11 14:38:44.562,0.411865,2.14517,11.6952,-0.392088,-0.201656,-0.18272,0
2024-12-11 14:38:44.565,0.378365,2.11645,11.7359,-0.37193,-0.18272,-0.181498,0
2024-12-11 14:38:44.567,0.335294,2.09731,11.779,-0.34322,-0.159507,-0.176,0
2024-12-11 14:38:44.569,0.287438,2.07099,11.7909,-0.318175,-0.130798,-0.166227,0
2024-12-11 14:38:44.575,0.162712,2.03031,11.7048,-0.263199,-0.0629936,-0.14668,0
2024-12-11 14:38:44.576,0.162712,2.03031,11.621,-0.239376,-0.0232886,-0.131409,0
2024-12-11 14:38:44.576,0.0981057,2.01117,11.621,-0.239376,-0.0232886,-0.131409,0
2024-12-11 14:38:44.579,0.0119641,1.99442,11.5062,-0.216164,0.0133623,-0.111861,0
2024-12-11 14:38:44.581,-0.0646062,1.98963,11.3695,-0.194173,0.0518457,-0.0947577,0
2024-12-11 14:38:44.584,-0.124427,1.97528,11.2331,-0.176459,0.0891073,-0.0745997,0
2024-12-11 14:38:44.587,-0.177069,1.97288,11.0943,-0.146527,0.152025,-0.0306187,0
2024-12-11 14:38:44.589,-0.198604,1.98245,10.9675,-0.146527,0.152025,-0.0306187,0
2024-12-11 14:38:44.590,-0.198604,1.99442,10.8308,-0.134921,0.179513,-0.00984991,0
2024-12-11 14:38:44.593,-0.148355,1.99442,10.7064,-0.12698,0.205168,0.0096972,0
2024-12-11 14:38:44.595,-0.0741775,1.99442,10.6059,-0.120871,0.224715,0.0280226,0
2024-12-11 14:38:44.597,-0.0358923,2.02074,10.5389,-0.114763,0.240597,0.0445155,0
2024-12-11 14:38:44.601,-0.0311067,2.05185,10.4934,-0.0964375,0.274194,0.0713928,0
2024-12-11 14:38:44.602,-0.0311067,2.07817,10.4288,-0.0964375,0.274194,0.0713928,0
2024-12-11 14:38:44.605,-0.0143569,2.09492,10.3567,-0.0884965,0.2858,0.0836097,0
2024-12-11 14:38:44.608,0.00478565,2.10449,10.2969,-0.0805555,0.295574,0.0964375,0
2024-12-11 14:38:44.610,0.0287139,2.11406,10.2538,-0.0640626,0.303515,0.118428,0
2024-12-11 14:38:44.613,0.0933201,2.10209,10.2132,-0.0555107,0.303515,0.128202,0
2024-12-11 14:38:44.614,0.157926,2.07338,10.1725,-0.0555107,0.303515,0.128202,0
2024-12-11 14:38:44.616,0.189033,2.06142,10.1462,-0.0451263,0.304126,0.137364,0
2024-12-11 14:38:44.619,0.227318,2.05424,10.1246,-0.0359636,0.302293,0.143473,0
2024-12-11 14:38:44.621,0.282652,2.04227,10.0983,-0.0249684,0.304126,0.149581,0
2024-12-11 14:38:44.624,0.337687,2.02792,10.0624,-0.0133623,0.302904,0.155079,0
2024-12-11 14:38:44.626,0.392722,2.03749,10.0241,-0.00297788,0.302293,0.159355,0
2024-12-11 14:38:44.629,0.454935,2.05424,9.98824,0.0220669,0.29985,0.162409,0
2024-12-11 14:38:44.630,0.514756,2.07577,9.94995,0.0220669,0.29985,0.162409,0
2024-12-11 14:38:44.633,0.579362,2.0686,9.89492,0.0220669,0.29985,0.162409,0
2024-12-11 14:38:44.636,0.651147,2.05663,9.8351,0.0507767,0.285189,0.161187,0
2024-12-11 14:38:44.639,0.720539,2.05902,9.76541,0.0587177,0.280303,0.156301,0
2024-12-11 14:38:44.640,0.775574,2.04945,9.69123,0.0587177,0.280303,0.156301,0
2024-12-11 14:38:44.642,0.833001,2.05663,9.64337,0.0636045,0.272362,0.153246,0
2024-12-11 14:38:44.647,0.895514,2.07338,9.61466,0.0807082,0.253425,0.140419,0
2024-12-11 14:38:44.647,0.929013,2.09252,9.59552,0.0807082,0.253425,0.140419,0
2024-12-11 14:38:44.649,0.969691,2.10927,9.58834,0.085595,0.243652,0.132477,0
2024-12-11 14:38:44.653,1.01994,2.11884,9.58116,0.0965902,0.222883,0.109265,0
2024-12-11 14:38:44.654,1.04387,2.14517,9.54766,0.0965902,0.222883,0.109265,0
2024-12-11 14:38:44.656,1.07019,2.16192,9.5022,0.10392,0.211888,0.0988809,0
2024-12-11 14:38:44.659,1.08933,2.17388,9.47827,0.11064,0.203336,0.0872748,0
2024-12-11 14:38:44.662,1.08694,2.18106,9.45195,0.118581,0.195395,0.074447,0
2024-12-11 14:38:44.663,1.08694,2.18345,9.39931,0.124078,0.187454,0.0640626,0
2024-12-11 14:38:44.668,1.07976,2.21216,9.29402,0.134463,0.172183,0.0365745,0
2024-12-11 14:38:44.668,1.07976,2.21216,9.29402,0.134463,0.172183,0.0365745,0
2024-12-11 14:38:44.670,1.08215,2.22413,9.2339,0.136906,0.166685,0.0237467,0
2024-12-11 14:38:44.673,1.07258,2.26002,9.16212,0.140571,0.160576,0.0096972,0
2024-12-11 14:38:44.676,1.05583,2.28634,9.08315,0.140571,0.14836,-0.0153475,0
2024-12-11 14:38:44.679,1.0343,2.29591,9.02573,0.141793,0.143473,-0.0300079,0
2024-12-11 14:38:44.680,1.00319,2.32463,8.97069,0.141793,0.143473,-0.0300079,0
2024-12-11 14:38:44.682,0.952942,2.36052,8.87259,0.13996,0.137975,-0.0452791,0
2024-12-11 14:38:44.685,0.905085,2.38923,8.74337,0.134463,0.136753,-0.0593285,0
2024-12-11 14:38:44.687,0.873978,2.42273,8.63779,0.127743,0.133699,-0.0727672,0
2024-12-11 14:38:44.692,0.749253,2.4658,8.47986,0.108196,0.126369,-0.0923143,0
2024-12-11 14:38:44.693,0.749253,2.4658,8.47986,0.093536,0.121482,-0.102699,0
2024-12-11 14:38:44.694,0.596112,2.48255,8.4679,0.093536,0.121482,-0.102699,0
2024-12-11 14:38:44.696,0.538684,2.49212,8.4009,0.0825407,0.123315,-0.108196,0
2024-12-11 14:38:44.700,0.63679,2.50409,8.25015,0.0446682,0.108654,-0.124689,0
2024-12-11 14:38:44.701,0.754038,2.48973,8.12543,0.0446682,0.108654,-0.124689,0
2024-12-11 14:38:44.704,0.857229,2.4658,8.04886,0.0177909,0.0958267,-0.13935,0
2024-12-11 14:38:44.706,0.917049,2.4682,8.01775,-0.00847551,0.0793338,-0.155232,0
2024-12-11 14:38:44.708,0.885943,2.48495,8.02493,-0.0347419,0.0677277,-0.172946,0
2024-12-11 14:38:44.712,0.782752,2.50409,8.09432,-0.0616192,0.0579541,-0.188828,0
2024-12-11 14:38:44.716,0.670289,2.53789,8.11586,-0.137975,0.0402396,-0.234031,0
2024-12-11 14:38:44.719,0.675075,2.54028,8.15923,-0.161187,0.0396287,-0.248691,0
2024-12-11 14:38:44.720,0.672682,2.5331,8.21905,-0.161187,0.0396287,-0.248691,0
2024-12-11 14:38:44.721,0.672682,2.5331,8.21905,-0.182567,0.0414613,-0.262741,0
2024-12-11 14:38:44.723,0.63679,2.52084,8.29322,-0.203336,0.0439046,-0.274347,0
2024-12-11 14:38:44.726,0.584148,2.51366,8.38894,-0.221661,0.046348,-0.287175,0
2024-12-11 14:38:44.728,0.517149,2.50887,8.44397,-0.239376,0.0524565,-0.296948,0
2024-12-11 14:38:44.730,0.423829,2.5017,8.48465,-0.239376,0.0524565,-0.296948,0
2024-12-11 14:38:44.733,0.32333,2.48255,8.54686,-0.27114,0.0622301,-0.310387,0
2024-12-11 14:38:44.735,0.227318,2.45623,8.59951,-0.285189,0.0689494,-0.315884,0
2024-12-11 14:38:44.736,0.133998,2.42991,8.64736,-0.285189,0.0689494,-0.315884,0
2024-12-11 14:38:44.739,0.0478565,2.41316,8.70748,-0.29985,0.0756687,-0.317717,0
2024-12-11 14:38:44.742,-0.026321,2.39163,8.78166,-0.311456,0.0817772,-0.320771,0
2024-12-11 14:38:44.743,-0.0837488,2.36531,8.86541,-0.326727,0.0842206,-0.321382,0
2024-12-11 14:38:44.746,-0.117248,2.35095,8.97787,-0.335279,0.0860531,-0.317717,0
2024-12-11 14:38:44.748,-0.143569,2.33659,9.09751,-0.344442,0.0836097,-0.321382,0
2024-12-11 14:38:44.751,-0.177069,2.32223,9.23151,-0.351161,0.0787229,-0.321993,0
2024-12-11 14:38:44.753,-0.215354,2.32223,9.37538,-0.356048,0.0762796,-0.322604,0
2024-12-11 14:38:44.756,-0.258425,2.33659,9.49023,-0.362767,0.0689494,-0.324436,0
2024-12-11 14:38:44.759,-0.308973,2.33181,9.58116,-0.362767,0.0622301,-0.322604,0
2024-12-11 14:38:44.761,-0.35683,2.3007,9.6673,-0.36521,0.0518457,-0.320771,0
2024-12-11 14:38:44.763,-0.395115,2.26002,9.76062,-0.36521,0.0518457,-0.320771,0
2024-12-11 14:38:44.765,-0.447757,2.20259,9.87817,-0.364599,0.0353528,-0.315884,0
2024-12-11 14:38:44.768,-0.505185,2.13799,10.0146,-0.363378,0.0176382,-0.309776,0
2024-12-11 14:38:44.772,-0.553041,2.07338,10.328,-0.353604,-0.0208452,-0.293894,0
2024-12-11 14:38:44.773,-0.553041,2.07338,10.328,-0.345663,-0.0391706,-0.283509,0
2024-12-11 14:38:44.774,-0.550648,2.04227,10.4671,-0.345663,-0.0391706,-0.283509,0
2024-12-11 14:38:44.776,-0.54347,2.01356,10.5987,-0.332835,-0.0507767,-0.271293,0
2024-12-11 14:38:44.781,-0.584148,1.95823,10.9508,-0.297406,-0.0697129,-0.246248,0
2024-12-11 14:38:44.783,-0.591326,1.95105,11.1087,-0.274194,-0.0758214,-0.230977,0
2024-12-11 14:38:44.784,-0.591326,1.95105,11.1087,-0.274194,-0.0758214,-0.230977,0
2024-12-11 14:38:44.786,-0.610469,1.92951,11.2451,-0.247928,-0.081319,-0.213873,0
2024-12-11 14:38:44.791,-0.584148,1.97288,11.4556,-0.185621,-0.081319,-0.182109,0
2024-12-11 14:38:44.791,-0.584148,1.97288,11.4556,-0.185621,-0.081319,-0.182109,0
2024-12-11 14:38:44.795,-0.52672,1.97288,11.5253,-0.153857,-0.077654,-0.161951,0
2024-12-11 14:38:44.796,-0.52672,1.97288,11.5253,-0.153857,-0.077654,-0.161951,0
2024-12-11 14:38:44.798,-0.500399,1.95823,11.511,-0.0836097,-0.0648262,-0.132019,0
2024-12-11 14:38:44.801,-0.457328,1.9657,11.4628,-0.0261901,-0.0434465,-0.100866,0
2024-12-11 14:38:44.805,-0.402293,2.01835,11.2235,7.63559e-05,-0.0312296,-0.0843733,0
2024-12-11 14:38:44.806,-0.35683,2.01835,11.2235,0.0232886,-0.0184018,-0.0709346,0
2024-12-11 14:38:44.808,-0.304188,2.04945,11.0728,0.037338,-0.00740652,-0.0605502,0
2024-12-11 14:38:44.809,-0.265603,2.08774,10.9098,0.037338,-0.00740652,-0.0605502,0
2024-12-11 14:38:44.813,-0.236889,2.13559,10.7255,0.0556635,0.0170274,-0.0385597,0
2024-12-11 14:38:44.814,-0.198604,2.18584,10.5413,0.0556635,0.0170274,-0.0385597,0
2024-12-11 14:38:44.816,-0.153141,2.23131,10.3711,0.0611611,0.0255792,-0.0324513,0
2024-12-11 14:38:44.819,-0.112463,2.27438,10.2108,0.0568851,0.0377962,-0.0281753,0
2024-12-11 14:38:44.822,-0.0765703,2.31027,10.072,0.0446682,0.0487914,-0.0232886,0
2024-12-11 14:38:44.825,-0.0430708,2.34377,9.95953,0.033673,0.0518457,-0.0275645,0
2024-12-11 14:38:44.827,-0.026321,2.3677,9.87338,0.021456,0.0524565,-0.0306187,0
2024-12-11 14:38:44.829,0.0119641,2.38206,9.79412,0.00618483,0.0530674,-0.0348946,0
2024-12-11 14:38:44.831,0.0598206,2.4012,9.72952,0.00618483,0.0530674,-0.0348946,0
2024-12-11 14:38:44.833,0.0861416,2.42034,9.69841,-0.00725381,0.0524565,-0.041614,0
2024-12-11 14:38:44.838,0.153141,2.44188,9.68166,-0.0396287,0.0432938,-0.0556635,0
2024-12-11 14:38:44.838,0.153141,2.44188,9.68166,-0.0396287,0.0432938,-0.0556635,0
2024-12-11 14:38:44.841,0.189033,2.44666,9.70559,-0.0652843,0.0316877,-0.0745997,0
2024-12-11 14:38:44.842,0.224925,2.43948,9.74148,-0.0652843,0.0316877,-0.0745997,0
2024-12-11 14:38:44.846,0.244068,2.4347,9.78694,-0.0891073,0.0286335,-0.0892601,0
2024-12-11 14:38:44.848,0.244068,2.42513,9.8351,-0.0891073,0.0286335,-0.0892601,0
2024-12-11 14:38:44.849,0.256032,2.41555,9.89013,-0.0982701,0.0286335,-0.0996445,0
2024-12-11 14:38:44.853,0.248854,2.3988,9.95713,-0.104379,0.0286335,-0.108196,0
2024-12-11 14:38:44.854,0.217747,2.38684,10.0002,-0.106211,0.0335202,-0.116748,0
2024-12-11 14:38:44.856,0.179462,2.37966,10.0361,-0.107433,0.0359636,-0.122246,0
2024-12-11 14:38:44.859,0.124427,2.3677,10.072,-0.108044,0.0420721,-0.127133,0
2024-12-11 14:38:44.861,0.066999,2.35813,10.0863,-0.106822,0.0469589,-0.129576,0
2024-12-11 14:38:44.865,0.0143569,2.34138,10.0983,-0.104989,0.0573433,-0.126522,0
2024-12-11 14:38:44.867,-0.0311067,2.3342,10.1079,-0.101935,0.0597867,-0.122857,0
2024-12-11 14:38:44.868,-0.0789631,2.32463,10.0863,-0.101935,0.0597867,-0.122857,0
2024-12-11 14:38:44.872,-0.131605,2.31506,10.0481,-0.0988809,0.066506,-0.112472,0
2024-12-11 14:38:44.875,-0.196211,2.31745,10.0098,-0.0988809,0.0689494,-0.106364,0
2024-12-11 14:38:44.876,-0.196211,2.31745,10.0098,-0.0988809,0.0689494,-0.106364,0
2024-12-11 14:38:44.878,-0.215354,2.33181,9.99542,-0.0970484,0.0689494,-0.100255,0
2024-12-11 14:38:44.881,-0.217747,2.3342,9.96192,-0.0988809,0.0671168,-0.0892601,0
2024-12-11 14:38:44.882,-0.200997,2.34616,9.94995,-0.0988809,0.0671168,-0.0892601,0
2024-12-11 14:38:44.885,-0.172283,2.34616,9.96431,-0.0976592,0.0658951,-0.0837624,0
2024-12-11 14:38:44.887,-0.160319,2.34377,9.97388,-0.094605,0.0646735,-0.0807082,0
2024-12-11 14:38:44.890,-0.141177,2.37248,9.9667,-0.0915507,0.0671168,-0.077654,0
2024-12-11 14:38:44.892,-0.124427,2.4012,9.95953,-0.0915507,0.0652843,-0.0758214,0
2024-12-11 14:38:44.894,-0.114855,2.41316,9.96431,-0.0921616,0.0603975,-0.0745997,0
2024-12-11 14:38:44.898,-0.0981057,2.42273,9.94995,-0.0909399,0.0579541,-0.0752106,0
2024-12-11 14:38:44.899,-0.0646062,2.4323,9.9332,-0.0909399,0.0579541,-0.0752106,0
2024-12-11 14:38:44.905,-0.0550349,2.42991,9.92363,-0.0909399,0.0445155,-0.0831516,0
2024-12-11 14:38:44.906,-0.040678,2.40598,9.9021,-0.0909399,0.0445155,-0.0831516,0
2024-12-11 14:38:44.907,-0.040678,2.40598,9.9021,-0.0909399,0.0445155,-0.0831516,0
2024-12-11 14:38:44.908,-0.0287139,2.40359,9.89253,-0.0909399,0.0390179,-0.0868167,0
2024-12-11 14:38:44.911,-0.0334995,2.38923,9.89253,-0.0933833,0.0316877,-0.0898709,0
2024-12-11 14:38:44.913,-0.0526421,2.36052,9.91406,-0.0927724,0.0231358,-0.0923143,0
2024-12-11 14:38:44.916,-0.0693919,2.34616,9.9332,-0.0933833,0.0164165,-0.093536,0
2024-12-11 14:38:44.918,-0.0933201,2.35095,9.92842,-0.0933833,0.0115297,-0.0965902,0
2024-12-11 14:38:44.920,-0.105284,2.34856,9.91885,-0.0933833,0.00847551,-0.0978119,0
2024-12-11 14:38:44.923,-0.122034,2.34377,9.92124,-0.0933833,0.00847551,-0.0978119,0
2024-12-11 14:38:44.925,-0.131605,2.33898,9.93081,-0.0921616,-0.000687203,-0.0965902,0
2024-12-11 14:38:44.927,-0.119641,2.33898,9.91885,-0.0897182,-0.00129805,-0.0959794,0
2024-12-11 14:38:44.929,-0.117248,2.34616,9.88296,-0.0897182,-0.00496313,-0.0965902,0
2024-12-11 14:38:44.932,-0.122034,2.34138,9.85424,-0.0872748,-0.00435229,-0.0959794,0
2024-12-11 14:38:44.935,-0.141177,2.33898,9.81566,-0.0872748,-0.00618483,-0.0959794,0
2024-12-11 14:38:44.937,-0.167498,2.34377,9.76302,-0.0872748,-0.00618483,-0.0959794,0
2024-12-11 14:38:44.940,-0.184247,2.33659,9.72712,-0.0909399,-0.00862822,-0.0941468,0
2024-12-11 14:38:44.941,-0.193819,2.32702,9.68645,-0.094605,-0.0110716,-0.0917034,0
2024-12-11 14:38:44.945,-0.205783,2.32223,9.66252,-0.094605,-0.013515,-0.0904818,0
2024-12-11 14:38:44.946,-0.20339,2.31506,9.65295,-0.0982701,-0.0184018,-0.0862058,0
2024-12-11 14:38:44.949,-0.196211,2.29831,9.64577,-0.104379,-0.0269536,-0.0825407,0
2024-12-11 14:38:44.952,-0.189033,2.29113,9.65295,-0.104379,-0.0269536,-0.0825407,0
2024-12-11 14:38:44.953,-0.16989,2.29113,9.65534,-0.109876,-0.0281753,-0.0819299,0
2024-12-11 14:38:44.956,-0.174676,2.3007,9.66012,-0.110487,-0.0318404,-0.0782648,0
2024-12-11 14:38:44.958,-0.189033,2.30788,9.68166,-0.111709,-0.0306187,-0.0739889,0
2024-12-11 14:38:44.961,-0.217747,2.30788,9.70319,-0.111098,-0.0269536,-0.0739889,0
2024-12-11 14:38:44.965,-0.267996,2.31506,9.73909,-0.111098,-0.0269536,-0.0739889,0
2024-12-11 14:38:44.968,-0.289831,2.31745,9.74387,-0.110487,-0.0196235,-0.0587177,0
2024-12-11 14:38:44.970,-0.308973,2.31266,9.76302,-0.109876,-0.0184018,-0.0526092,0
2024-12-11 14:38:44.970,-0.308973,2.31266,9.76302,-0.109876,-0.0184018,-0.0526092,0
2024-12-11 14:38:44.972,-0.328116,2.31027,9.7678,-0.108654,-0.0171801,-0.0483333,0
2024-12-11 14:38:44.974,-0.359223,2.30788,9.78694,-0.107433,-0.0196235,-0.0410031,0
2024-12-11 14:38:44.977,-0.375972,2.30788,9.81566,-0.104379,-0.0196235,-0.0355055,0
2024-12-11 14:38:44.980,-0.383151,2.29591,9.83031,-0.103157,-0.0257319,-0.0220669,0
2024-12-11 14:38:44.981,-0.395115,2.29591,9.87817,-0.103157,-0.0257319,-0.0220669,0
2024-12-11 14:38:44.984,-0.390329,2.30309,9.94278,-0.0988809,-0.0275645,-0.0147367,0
2024-12-11 14:38:44.987,-0.375972,2.30788,10.0074,-0.0939941,-0.0306187,-0.0104608,0
2024-12-11 14:38:44.988,-0.378365,2.3342,10.0744,-0.0884965,-0.0355055,-0.00374144,0
2024-12-11 14:38:44.992,-0.373579,2.33898,10.139,-0.0658951,-0.0342838,0.00908635,0
2024-12-11 14:38:44.994,-0.352044,2.33898,10.1868,-0.0548999,-0.033673,0.0151948,0
2024-12-11 14:38:44.995,-0.332901,2.35334,10.2203,-0.0548999,-0.033673,0.0151948,0
2024-12-11 14:38:44.998,-0.308973,2.35095,10.2562,-0.042683,-0.0367272,0.0182491,0
2024-12-11 14:38:45.000,-0.267996,2.35334,10.2897,-0.042683,-0.0367272,0.0182491,0
2024-12-11 14:38:45.005,-0.165105,2.4012,10.3232,-0.0121406,-0.0440574,0.0268009,0
2024-12-11 14:38:45.005,-0.165105,2.4012,10.3232,-0.0121406,-0.0440574,0.0268009,0
2024-12-11 14:38:45.007,-0.124427,2.41795,10.3113,-0.00114534,-0.0483333,0.0280226,0
2024-12-11 14:38:45.010,-0.102891,2.42513,10.2945,0.00862822,-0.0513875,0.0274118,0
2024-12-11 14:38:45.012,-0.0765703,2.4323,10.2754,0.0190126,-0.0538309,0.0268009,0
2024-12-11 14:38:45.017,-0.0478565,2.48255,10.2132,0.0342838,-0.0562743,0.0219141,0
2024-12-11 14:38:45.018,-0.0526421,2.45145,10.2443,0.0391706,-0.0599394,0.0188599,0
2024-12-11 14:38:45.021,-0.00478565,2.49212,10.1462,0.0440574,-0.0623828,0.014584,0
2024-12-11 14:38:45.022,-0.00478565,2.49212,10.1462,0.0471116,-0.0623828,0.0133623,0
2024-12-11 14:38:45.024,0.00957129,2.4993,10.1007,0.0471116,-0.0623828,0.0133623,0
2024-12-11 14:38:45.027,0.0334995,2.50648,10.0672,0.0483333,-0.0672696,0.00481042,0
2024-12-11 14:38:45.028,0.0430708,2.51366,10.0457,0.0483333,-0.0672696,0.00481042,0
2024-12-11 14:38:45.032,0.0430708,2.51605,10.0241,0.0446682,-0.065437,-0.0019089,0
2024-12-11 14:38:45.034,0.0646062,2.50887,10.0074,0.0410031,-0.0642153,-0.00618483,0
2024-12-11 14:38:45.036,0.0693919,2.51845,9.99781,0.0410031,-0.0642153,-0.00618483,0
2024-12-11 14:38:45.038,0.0646062,2.52084,10.0026,0.0379489,-0.057496,-0.00862822,0
2024-12-11 14:38:45.040,0.066999,2.50887,10.0002,0.0361163,-0.0507767,-0.0129041,0
2024-12-11 14:38:45.043,0.0574277,2.50887,9.99781,0.0342838,-0.0452791,-0.0122933,0
2024-12-11 14:38:45.045,0.0382852,2.51366,10.0074,0.0318404,-0.0355055,-0.0153475,0
2024-12-11 14:38:45.050,0.00957129,2.48016,9.98585,0.0312296,-0.0245102,-0.0153475,0
2024-12-11 14:38:45.050,0.00957129,2.48016,9.98585,0.0312296,-0.0245102,-0.0153475,0
2024-12-11 14:38:45.052,-0.00239282,2.47537,9.97388,0.0263428,-0.00557398,-0.0141258,0
2024-12-11 14:38:45.054,-0.0143569,2.47777,9.95953,0.0251211,0.00664296,-0.0116825,0
2024-12-11 14:38:45.058,-0.0311067,2.48016,9.94517,0.0232886,0.0164165,-0.00862822,0
2024-12-11 14:38:45.059,-0.0430708,2.46102,9.91646,0.0208452,0.0255792,-0.00618483,0
2024-12-11 14:38:45.064,-0.0382852,2.43709,9.89253,0.0141258,0.0432938,-0.000687203,0
2024-12-11 14:38:45.067,-0.0311067,2.4347,9.89013,0.0104608,0.0548999,0.00847551,0
2024-12-11 14:38:45.067,-0.0311067,2.4347,9.89013,0.0104608,0.0548999,0.00847551,0
2024-12-11 14:38:45.068,-0.040678,2.42273,9.89492,0.0104608,0.0548999,0.00847551,0
2024-12-11 14:38:45.071,-0.0550349,2.42034,9.88535,0.00923906,0.0628409,0.0127514,0
2024-12-11 14:38:45.073,-0.0598206,2.42034,9.88774,0.00618483,0.0695602,0.0151948,0
2024-12-11 14:38:45.075,-0.0717847,2.41316,9.89253,0.00801737,0.0756687,0.0194708,0
2024-12-11 14:38:45.078,-0.0837488,2.41555,9.88774,0.00862822,0.0817772,0.022525,0
2024-12-11 14:38:45.081,-0.0861416,2.41795,9.88535,0.013515,0.090329,0.0298552,0
2024-12-11 14:38:45.084,-0.0885344,2.41555,9.8686,0.0153475,0.0933833,0.0335202,0
2024-12-11 14:38:45.086,-0.0981057,2.40838,9.83749,0.0153475,0.0933833,0.0335202,0
2024-12-11 14:38:45.087,-0.102891,2.39641,9.81087,0.0159584,0.0921616,0.0347419,0
2024-12-11 14:38:45.090,-0.0981057,2.37966,9.8013,0.0190126,0.0933833,0.0365745,0
2024-12-11 14:38:45.092,-0.0981057,2.36052,9.78934,0.0202343,0.0915507,0.0377962,0
2024-12-11 14:38:45.094,-0.0885344,2.35813,9.77019,0.0226777,0.0878856,0.0408504,0
2024-12-11 14:38:45.097,-0.0717847,2.34138,9.7678,0.0245102,0.0811663,0.0432938,0
2024-12-11 14:38:45.101,-0.0191426,2.31266,9.75344,0.0312296,0.0658951,0.0420721,0
2024-12-11 14:38:45.101,-0.0191426,2.31266,9.75344,0.0312296,0.0658951,0.0420721,0
2024-12-11 14:38:45.105,0.00717847,2.31745,9.74866,0.0379489,0.0481806,0.0414613,0
2024-12-11 14:38:45.107,0.0287139,2.31506,9.73909,0.0397814,0.0402396,0.0390179,0
2024-12-11 14:38:45.109,0.040678,2.3007,9.7343,0.0397814,0.0402396,0.0390179,0
2024-12-11 14:38:45.111,0.0454636,2.29591,9.72234,0.0446682,0.0329094,0.0371853,0
2024-12-11 14:38:45.113,0.0382852,2.3007,9.69362,0.0489441,0.0231358,0.0347419,0
2024-12-11 14:38:45.115,0.0143569,2.30309,9.67687,0.0538309,0.0139731,0.0329094,0
2024-12-11 14:38:45.118,0.00717847,2.31027,9.6673,0.0562743,0.00542127,0.0322986,0
2024-12-11 14:38:45.120,0.0167498,2.32463,9.65055,0.0593285,-0.00374144,0.0298552,0
2024-12-11 14:38:45.123,0.0311067,2.33181,9.63141,0.0593285,-0.00374144,0.0298552,0
2024-12-11 14:38:45.127,0.0311067,2.3342,9.6003,0.0672696,-0.0287862,0.0280226,0
2024-12-11 14:38:45.128,0.0430708,2.32941,9.55005,0.0684913,-0.037338,0.0268009,0
2024-12-11 14:38:45.130,0.066999,2.32702,9.51416,0.0684913,-0.037338,0.0268009,0
2024-12-11 14:38:45.132,0.0933201,2.33898,9.49502,0.0684913,-0.037338,0.0268009,0
2024-12-11 14:38:45.137,0.129212,2.35573,9.45195,0.0611611,-0.0623828,0.0213033,0
2024-12-11 14:38:45.137,0.129212,2.35573,9.45195,0.0611611,-0.0623828,0.0213033,0
2024-12-11 14:38:45.139,0.141177,2.35095,9.44238,0.0568851,-0.0684913,0.0194708,0
