timestamp,accel_x,accel_y,accel_z,gyro_x,gyro_y,gyro_z,step_timestamp
2024-12-11 14:29:16.720,0.488435,3.23928,9.09512,0.152788,0.117817,0.00236703,0
2024-12-11 14:29:16.723,0.478864,3.22493,9.04248,0.151566,0.113541,-7.63559e-05,0
2024-12-11 14:29:16.724,0.478864,3.22493,8.99223,0.151566,0.113541,-7.63559e-05,0
2024-12-11 14:29:16.724,0.481256,3.22014,8.99223,0.151566,0.113541,-7.63559e-05,0
2024-12-11 14:29:16.726,0.481256,3.20818,8.95155,0.148512,0.104379,-0.00251974,0
2024-12-11 14:29:16.726,0.486042,3.20818,8.95155,0.148512,0.104379,-0.00251974,0
2024-12-11 14:29:16.730,0.486042,3.18903,8.90848,0.145458,0.0927724,-0.00374144,0
2024-12-11 14:29:16.732,0.486042,3.16511,8.85823,0.138739,0.0854423,-0.00374144,0
2024-12-11 14:29:16.732,0.476471,3.16511,8.85823,0.138739,0.0854423,-0.00374144,0
2024-12-11 14:29:16.732,0.476471,3.16511,8.85823,0.138739,0.0854423,-0.00374144,0
2024-12-11 14:29:16.733,0.447757,3.15314,8.79362,0.138739,0.0854423,-0.00374144,0
2024-12-11 14:29:16.733,0.447757,3.15314,8.79362,0.138739,0.0854423,-0.00374144,0
2024-12-11 14:29:16.737,0.423829,3.14836,8.75534,0.129576,0.0701711,-0.0019089,0
2024-12-11 14:29:16.738,0.411865,3.13639,8.72662,0.129576,0.0701711,-0.0019089,0
2024-12-11 14:29:16.739,0.423829,3.13639,8.72662,0.129576,0.0701711,-0.0019089,0
2024-12-11 14:29:16.740,0.402293,3.11725,8.68804,0.124689,0.0622301,-7.63559e-05,0
2024-12-11 14:29:16.740,0.402293,3.11725,8.68804,0.124689,0.0622301,-7.63559e-05,0
2024-12-11 14:29:16.743,0.387936,3.07867,8.6665,0.124689,0.0622301,-7.63559e-05,0
2024-12-11 14:29:16.745,0.371187,3.06192,8.65693,0.109418,0.0457372,0.00481042,0
2024-12-11 14:29:16.745,0.371187,3.06192,8.65693,0.109418,0.0457372,0.00481042,0
2024-12-11 14:29:16.745,0.371187,3.06192,8.65693,0.109418,0.0457372,0.00481042,0
2024-12-11 14:29:16.746,0.371187,3.06192,8.65693,0.109418,0.0457372,0.00481042,0
2024-12-11 14:29:16.752,0.328116,3.0332,8.74816,0.0910926,0.0213033,0.0182491,0
2024-12-11 14:29:16.756,0.325723,3.01645,8.80319,0.0849841,0.0121406,0.0322986,0
2024-12-11 14:29:16.756,0.325723,3.01645,8.80319,0.0849841,0.0121406,0.0322986,0
2024-12-11 14:29:16.758,0.325723,3.00927,8.86302,0.085595,0.00481042,0.0402396,0
2024-12-11 14:29:16.759,0.349651,3.00927,8.91087,0.085595,0.00481042,0.0402396,0
2024-12-11 14:29:16.762,0.364008,2.99731,8.96112,0.0862058,0.00481042,0.0475697,0
2024-12-11 14:29:16.764,0.361615,2.98535,8.98983,0.0880384,0.00358873,0.0573433,0
2024-12-11 14:29:16.764,0.361615,2.98535,8.98983,0.0880384,0.00358873,0.0573433,0
2024-12-11 14:29:16.765,0.361615,2.98535,8.98983,0.0880384,0.00358873,0.0573433,0
2024-12-11 14:29:16.769,0.378365,2.97099,9.03769,0.0984228,0.00175619,0.0768904,0
2024-12-11 14:29:16.770,0.378365,2.97099,9.03769,0.102699,0.00175619,0.0854423,0
2024-12-11 14:29:16.772,0.411865,2.99492,9.05444,0.105753,0.00297788,0.0952158,0
2024-12-11 14:29:16.773,0.435793,3.00449,9.06162,0.105753,0.00297788,0.0952158,0
2024-12-11 14:29:16.776,0.469292,3.01884,9.04008,0.111861,0.00481042,0.104379,0
2024-12-11 14:29:16.776,0.469292,3.01884,9.04008,0.111861,0.00481042,0.104379,0
2024-12-11 14:29:16.780,0.536291,3.08106,8.98026,0.116748,-0.0019089,0.120261,0
2024-12-11 14:29:16.780,0.536291,3.08106,8.98026,0.116748,-0.0019089,0.120261,0
2024-12-11 14:29:16.785,0.598505,3.12443,8.89412,0.118581,-0.013515,0.130034,0
2024-12-11 14:29:16.789,0.708575,3.21057,8.8343,0.118581,-0.021456,0.132477,0
2024-12-11 14:29:16.789,0.708575,3.21057,8.8343,0.118581,-0.021456,0.132477,0
2024-12-11 14:29:16.790,0.751645,3.25843,8.7673,0.114305,-0.0306187,0.13431,0
2024-12-11 14:29:16.792,0.780359,3.30389,8.7027,0.108807,-0.0403923,0.133088,0
2024-12-11 14:29:16.792,0.780359,3.30389,8.7027,0.108807,-0.0403923,0.133088,0
2024-12-11 14:29:16.797,0.799502,3.37807,8.58036,0.0917034,-0.0532201,0.130645,0
2024-12-11 14:29:16.797,0.830609,3.37807,8.58036,0.0917034,-0.0532201,0.130645,0
2024-12-11 14:29:16.803,0.878764,3.48096,8.44158,0.0513875,-0.077654,0.122704,0
2024-12-11 14:29:16.803,0.878764,3.48096,8.44158,0.0513875,-0.077654,0.122704,0
2024-12-11 14:29:16.806,0.902692,3.55753,8.36022,0.0348946,-0.0880384,0.117206,0
2024-12-11 14:29:16.807,0.902692,3.55753,8.36022,0.0348946,-0.0880384,0.117206,0
2024-12-11 14:29:16.809,0.881157,3.59581,8.32433,0.0177909,-0.0978119,0.114152,0
2024-12-11 14:29:16.812,0.878764,3.62453,8.29083,-0.0237467,-0.115526,0.106211,0
2024-12-11 14:29:16.813,0.864407,3.67029,8.26451,-0.0237467,-0.115526,0.106211,0
2024-12-11 14:29:16.814,0.864407,3.67029,8.26451,-0.0237467,-0.115526,0.106211,0
2024-12-11 14:29:16.818,0.830609,3.70858,8.27169,-0.0689494,-0.136295,0.101324,0
2024-12-11 14:29:16.818,0.830609,3.70858,8.27169,-0.0689494,-0.136295,0.101324,0
2024-12-11 14:29:16.821,0.821037,3.7325,8.3028,-0.0927724,-0.144847,0.0994917,0
2024-12-11 14:29:16.823,0.792323,3.75165,8.34347,-0.116595,-0.15401,0.0988809,0
2024-12-11 14:29:16.825,0.761217,3.77079,8.42244,-0.137975,-0.160729,0.0982701,0
2024-12-11 14:29:16.828,0.725324,3.7995,8.51815,-0.158744,-0.165616,0.0994917,0
2024-12-11 14:29:16.831,0.71336,3.81147,8.59472,-0.192951,-0.172335,0.103157,0
2024-12-11 14:29:16.831,0.71336,3.81147,8.59472,-0.192951,-0.172335,0.103157,0
2024-12-11 14:29:16.832,0.706182,3.81865,8.67847,-0.192951,-0.172335,0.103157,0
2024-12-11 14:29:16.838,0.703789,3.83061,8.85823,-0.237543,-0.17539,0.115985,0
2024-12-11 14:29:16.839,0.703789,3.83061,8.85823,-0.237543,-0.17539,0.115985,0
2024-12-11 14:29:16.840,0.710967,3.83779,8.94916,-0.237543,-0.17539,0.115985,0
2024-12-11 14:29:16.843,0.718146,3.84736,9.03769,-0.248538,-0.174779,0.121482,0
2024-12-11 14:29:16.844,0.734896,3.8665,9.13101,-0.248538,-0.174779,0.121482,0
2024-12-11 14:29:16.847,0.749253,3.87129,9.22433,-0.267475,-0.174168,0.130645,0
2024-12-11 14:29:16.850,0.749253,3.87129,9.32992,-0.280913,-0.174168,0.140419,0
2024-12-11 14:29:16.850,0.744467,3.88804,9.32992,-0.280913,-0.174168,0.140419,0
2024-12-11 14:29:16.851,0.737288,3.90718,9.45434,-0.280913,-0.174168,0.140419,0
2024-12-11 14:29:16.853,0.74686,3.91675,9.56441,-0.282135,-0.176,0.144084,0
2024-12-11 14:29:16.856,0.758824,3.94547,9.68645,-0.282135,-0.176,0.144084,0
2024-12-11 14:29:16.858,0.766002,3.98136,9.8013,-0.280303,-0.174779,0.149581,0
2024-12-11 14:29:16.861,0.775574,3.99332,9.91167,-0.276027,-0.177222,0.153246,0
2024-12-11 14:29:16.863,0.792323,3.99811,10.0265,-0.269307,-0.174779,0.15569,0
2024-12-11 14:29:16.866,0.809073,4.01246,10.1246,-0.244873,-0.169281,0.162409,0
2024-12-11 14:29:16.868,0.801895,4.01964,10.2156,-0.244873,-0.169281,0.162409,0
2024-12-11 14:29:16.868,0.801895,4.01964,10.2156,-0.244873,-0.169281,0.162409,0
2024-12-11 14:29:16.870,0.80668,4.03161,10.2873,-0.230824,-0.166227,0.164852,0
2024-12-11 14:29:16.872,0.828216,4.03879,10.3376,-0.230824,-0.166227,0.164852,0
2024-12-11 14:29:16.875,0.859622,4.034,10.3807,-0.197227,-0.157675,0.167296,0
2024-12-11 14:29:16.876,0.859622,4.034,10.3807,-0.181345,-0.152177,0.169128,0
2024-12-11 14:29:16.879,0.929013,4.08903,10.3905,-0.163631,-0.144236,0.17035,0
2024-12-11 14:29:16.880,0.929013,4.08903,10.3905,-0.163631,-0.144236,0.17035,0
2024-12-11 14:29:16.882,0.967299,4.11536,10.3881,-0.163631,-0.144236,0.17035,0
2024-12-11 14:29:16.884,0.988834,4.12732,10.3735,-0.132477,-0.130187,0.167907,0
2024-12-11 14:29:16.886,1.02473,4.14886,10.3472,-0.115985,-0.122857,0.164852,0
2024-12-11 14:29:16.890,1.02473,4.14886,10.3113,-0.0854423,-0.104531,0.15569,0
2024-12-11 14:29:16.891,1.08455,4.2015,10.2586,-0.0854423,-0.104531,0.15569,0
2024-12-11 14:29:16.891,1.08455,4.2015,10.2586,-0.0854423,-0.104531,0.15569,0
2024-12-11 14:29:16.897,1.13719,4.22812,10.1151,-0.0500131,-0.0904818,0.133699,0
2024-12-11 14:29:16.897,1.13719,4.22812,10.1151,-0.0500131,-0.0904818,0.133699,0
2024-12-11 14:29:16.899,1.14197,4.24487,10.0433,-0.0500131,-0.0904818,0.133699,0
2024-12-11 14:29:16.901,1.15872,4.25205,9.96431,-0.0439046,-0.0868167,0.125758,0
2024-12-11 14:29:16.903,1.16112,4.26401,9.89971,-0.0371853,-0.0843733,0.114763,0
2024-12-11 14:29:16.905,1.14437,4.26401,9.81326,-0.0341311,-0.0849841,0.108044,0
2024-12-11 14:29:16.908,1.14437,4.26401,9.73669,-0.0316877,-0.0825407,0.0970484,0
2024-12-11 14:29:16.911,1.10848,4.25683,9.67209,-0.0316877,-0.0825407,0.0970484,0
2024-12-11 14:29:16.912,1.08694,4.24965,9.6027,-0.0316877,-0.0831516,0.0817772,0
2024-12-11 14:29:16.912,1.08694,4.24965,9.6027,-0.0316877,-0.0831516,0.0817772,0
2024-12-11 14:29:16.915,1.07498,4.25683,9.53809,-0.0329094,-0.0862058,0.0738362,0
2024-12-11 14:29:16.915,1.07498,4.25683,9.53809,-0.0329094,-0.0862058,0.0738362,0
2024-12-11 14:29:16.915,1.07498,4.25683,9.53809,-0.0329094,-0.0862058,0.0738362,0
2024-12-11 14:29:16.919,1.00319,4.2015,9.4352,-0.0396287,-0.0862058,0.0677277,0
2024-12-11 14:29:16.924,0.986441,4.18475,9.39213,-0.0555107,-0.081319,0.0518457,0
2024-12-11 14:29:16.924,0.986441,4.18475,9.39213,-0.0555107,-0.081319,0.0518457,0
2024-12-11 14:29:16.926,0.984048,4.168,9.38256,-0.0555107,-0.081319,0.0518457,0
2024-12-11 14:29:16.929,0.97687,4.13689,9.37059,-0.0671168,-0.0721563,0.0439046,0
2024-12-11 14:29:16.931,0.955334,4.101,9.38256,-0.0720036,-0.0636045,0.0408504,0
2024-12-11 14:29:16.934,0.952942,4.0675,9.4352,-0.0750579,-0.0538309,0.0365745,0
2024-12-11 14:29:16.936,0.952942,4.04118,9.49741,-0.0793338,-0.0446682,0.0365745,0
2024-12-11 14:29:16.938,0.948156,3.99811,9.55005,-0.0793338,-0.0446682,0.0365745,0
2024-12-11 14:29:16.941,0.950549,3.94786,9.60509,-0.0762796,-0.0153475,0.0377962,0
2024-12-11 14:29:16.942,0.950549,3.94786,9.60509,-0.0762796,-0.0153475,0.0377962,0
2024-12-11 14:29:16.945,0.948156,3.88325,9.66252,-0.0658951,0.0213033,0.0408504,0
2024-12-11 14:29:16.945,0.936192,3.88325,9.66252,-0.0658951,0.0213033,0.0408504,0
2024-12-11 14:29:16.948,0.9003,3.85454,9.69841,-0.0591758,0.0408504,0.0445155,0
2024-12-11 14:29:16.950,0.88355,3.82822,9.71994,-0.0591758,0.0408504,0.0445155,0
2024-12-11 14:29:16.952,0.869193,3.8019,9.72234,-0.0371853,0.082388,0.0567324,0
2024-12-11 14:29:16.955,0.869193,3.8019,9.72234,-0.0371853,0.082388,0.0567324,0
2024-12-11 14:29:16.955,0.852443,3.79711,9.7008,-0.0371853,0.082388,0.0567324,0
2024-12-11 14:29:16.958,0.847657,3.79472,9.66012,0.0019089,0.139808,0.0707819,0
2024-12-11 14:29:16.959,0.84018,3.79472,9.62184,0.0019089,0.139808,0.0707819,0
2024-12-11 14:29:16.962,0.82343,3.7995,9.57877,0.0141258,0.15569,0.0756687,0
2024-12-11 14:29:16.965,0.80668,3.81865,9.52373,0.0385597,0.181345,0.0817772,0
2024-12-11 14:29:16.968,0.799502,3.833,9.45913,0.0507767,0.191119,0.0860531,0
2024-12-11 14:29:16.969,0.799502,3.833,9.45913,0.0507767,0.191119,0.0860531,0
2024-12-11 14:29:16.969,0.787538,3.82822,9.38734,0.0507767,0.191119,0.0860531,0
2024-12-11 14:29:16.971,0.785145,3.83061,9.30599,0.0636045,0.198449,0.0872748,0
2024-12-11 14:29:16.974,0.809073,3.8354,9.24347,0.0739889,0.202725,0.0897182,0
2024-12-11 14:29:16.976,0.809073,3.82822,9.18605,0.0837624,0.203947,0.0884965,0
2024-12-11 14:29:16.976,0.82343,3.82822,9.18605,0.0837624,0.203947,0.0884965,0
2024-12-11 14:29:16.981,0.864407,3.8019,9.04008,0.100255,0.204557,0.0878856,0
2024-12-11 14:29:16.981,0.864407,3.8019,9.04008,0.100255,0.204557,0.0878856,0
2024-12-11 14:29:16.983,0.864407,3.80668,8.94437,0.108807,0.202725,0.0848314,0
2024-12-11 14:29:16.985,0.85005,3.82104,8.84626,0.108807,0.202725,0.0848314,0
2024-12-11 14:29:16.988,0.847657,3.83061,8.75773,0.1253,0.196006,0.0811663,0
2024-12-11 14:29:16.988,0.847657,3.83061,8.75773,0.1253,0.196006,0.0811663,0
2024-12-11 14:29:16.992,0.835394,3.88086,8.58036,0.130798,0.18501,0.0775012,0
2024-12-11 14:29:16.992,0.835394,3.88086,8.58036,0.130798,0.18501,0.0775012,0
2024-12-11 14:29:16.997,0.816252,3.87847,8.47986,0.135684,0.179513,0.0701711,0
2024-12-11 14:29:16.997,0.797109,3.87129,8.38654,0.135684,0.179513,0.0701711,0
2024-12-11 14:29:17.000,0.782752,3.87129,8.3004,0.135684,0.173404,0.0677277,0
2024-12-11 14:29:17.000,0.782752,3.87129,8.3004,0.135684,0.173404,0.0677277,0
2024-12-11 14:29:17.004,0.725324,3.87847,8.14248,0.130187,0.168517,0.0597867,0
2024-12-11 14:29:17.007,0.691825,3.87607,8.09193,0.130187,0.168517,0.0597867,0
2024-12-11 14:29:17.009,0.648754,3.88325,8.04407,0.122246,0.164852,0.0548999,0
2024-12-11 14:29:17.009,0.648754,3.88325,8.04407,0.122246,0.164852,0.0548999,0
2024-12-11 14:29:17.011,0.610469,3.88564,7.98904,0.119802,0.163631,0.0530674,0
2024-12-11 14:29:17.015,0.565005,3.88086,7.94118,0.108196,0.167296,0.0542891,0
2024-12-11 14:29:17.017,0.529113,3.87368,7.90529,0.108196,0.167296,0.0542891,0
2024-12-11 14:29:17.017,0.529113,3.87368,7.90529,0.108196,0.167296,0.0542891,0
2024-12-11 14:29:17.021,0.459721,3.88564,7.86222,0.10331,0.167907,0.0567324,0
2024-12-11 14:29:17.021,0.459721,3.88564,7.86222,0.10331,0.167907,0.0567324,0
2024-12-11 14:29:17.021,0.459721,3.88564,7.86222,0.10331,0.167907,0.0567324,0
2024-12-11 14:29:17.025,0.395115,3.90239,7.80718,0.0917034,0.172793,0.0640626,0
2024-12-11 14:29:17.029,0.380758,3.92154,7.7689,0.085595,0.169739,0.0695602,0
2024-12-11 14:29:17.030,0.35683,3.9335,7.74975,0.085595,0.169739,0.0695602,0
2024-12-11 14:29:17.033,0.335294,3.94307,7.74736,0.073378,0.172183,0.0781121,0
2024-12-11 14:29:17.033,0.335294,3.94307,7.74736,0.073378,0.172183,0.0781121,0
2024-12-11 14:29:17.037,0.294616,3.98854,7.70908,0.0611611,0.174626,0.0891073,0
2024-12-11 14:29:17.037,0.294616,3.98854,7.70908,0.0611611,0.174626,0.0891073,0
2024-12-11 14:29:17.040,0.289831,3.99332,7.71386,0.057496,0.175237,0.0939941,0
2024-12-11 14:29:17.042,0.289831,4.01007,7.71625,0.057496,0.175237,0.0982701,0
2024-12-11 14:29:17.044,0.282652,4.03161,7.71865,0.0465007,0.17768,0.104989,0
2024-12-11 14:29:17.048,0.294616,4.05554,7.72822,0.0379489,0.175848,0.114763,0
2024-12-11 14:29:17.049,0.299402,4.08664,7.733,0.0379489,0.175848,0.114763,0
2024-12-11 14:29:17.050,0.299402,4.08664,7.733,0.0379489,0.175848,0.114763,0
2024-12-11 14:29:17.054,0.337687,4.14886,7.72583,0.0287862,0.174015,0.125147,0
2024-12-11 14:29:17.054,0.337687,4.14886,7.72583,0.0287862,0.174015,0.125147,0
2024-12-11 14:29:17.056,0.349651,4.17278,7.73779,0.0287862,0.174015,0.125147,0
2024-12-11 14:29:17.058,0.371187,4.2015,7.73061,0.0202343,0.169739,0.131256,0
2024-12-11 14:29:17.061,0.390329,4.2353,7.72343,0.0159584,0.169739,0.135532,0
2024-12-11 14:29:17.061,0.390329,4.2353,7.72343,0.0159584,0.169739,0.135532,0
2024-12-11 14:29:17.065,0.431007,4.27837,7.71625,0.00374144,0.166074,0.140419,0
2024-12-11 14:29:17.068,0.431007,4.32862,7.71865,0.00374144,0.166074,0.140419,0
2024-12-11 14:29:17.068,0.445364,4.32862,7.71865,0.00374144,0.166074,0.140419,0
2024-12-11 14:29:17.070,0.442971,4.3669,7.72583,-0.00847551,0.167296,0.14897,0
2024-12-11 14:29:17.075,0.454935,4.43629,7.74497,-0.0219141,0.172183,0.152025,0
2024-12-11 14:29:17.075,0.476471,4.43629,7.74497,-0.0219141,0.172183,0.152025,0
2024-12-11 14:29:17.077,0.488435,4.48654,7.77129,-0.0268009,0.172793,0.158133,0
2024-12-11 14:29:17.078,0.488435,4.48654,7.77129,-0.0268009,0.172793,0.158133,0
2024-12-11 14:29:17.082,0.490828,4.56072,7.8024,-0.0377962,0.180124,0.164242,0
2024-12-11 14:29:17.082,0.490828,4.56072,7.8024,-0.0377962,0.180124,0.164242,0
2024-12-11 14:29:17.087,0.505185,4.64925,7.80718,-0.046348,0.187454,0.170961,0
2024-12-11 14:29:17.087,0.505185,4.64925,7.80718,-0.046348,0.187454,0.170961,0
2024-12-11 14:29:17.089,0.498006,4.69233,7.83111,-0.0524565,0.189897,0.175848,0
2024-12-11 14:29:17.091,0.490828,4.72343,7.85504,-0.0524565,0.189897,0.175848,0
2024-12-11 14:29:17.094,0.471685,4.74975,7.89093,-0.0591758,0.195395,0.183178,0
2024-12-11 14:29:17.094,0.471685,4.74975,7.89093,-0.0591758,0.195395,0.183178,0
2024-12-11 14:29:17.098,0.438186,4.83859,7.92443,-0.0634518,0.202114,0.191119,0
2024-12-11 14:29:17.098,0.407079,4.83859,7.92443,-0.0634518,0.202114,0.191119,0
2024-12-11 14:29:17.101,0.409472,4.8673,7.95314,-0.066506,0.205168,0.197838,0
2024-12-11 14:29:17.104,0.423829,4.89362,7.98664,-0.0652843,0.207612,0.202725,0
2024-12-11 14:29:17.105,0.4334,4.93909,8.01297,-0.0671168,0.207001,0.20639,0
2024-12-11 14:29:17.109,0.440578,4.98694,8.02732,-0.0646735,0.211277,0.212498,0
2024-12-11 14:29:17.110,0.423829,5.02762,8.05843,-0.0646735,0.211277,0.212498,0
2024-12-11 14:29:17.111,0.423829,5.02762,8.05843,-0.0610084,0.211888,0.222272,0
2024-12-11 14:29:17.113,0.402293,5.07069,8.09193,-0.0610084,0.211888,0.222272,0
2024-12-11 14:29:17.115,0.409472,5.11137,8.12064,-0.0610084,0.211888,0.222272,0
2024-12-11 14:29:17.118,0.423829,5.13769,8.15444,-0.0573433,0.207612,0.229602,0
2024-12-11 14:29:17.121,0.428614,5.16162,8.17598,-0.0542891,0.198449,0.233878,0
2024-12-11 14:29:17.122,0.428614,5.16162,8.2023,-0.0542891,0.198449,0.233878,0
2024-12-11 14:29:17.123,0.442971,5.18315,8.2023,-0.0481806,0.19173,0.2351,0
2024-12-11 14:29:17.125,0.45015,5.21187,8.25255,-0.0414613,0.1844,0.234489,0
2024-12-11 14:29:17.125,0.45015,5.21187,8.25255,-0.0414613,0.1844,0.234489,0
2024-12-11 14:29:17.129,0.483649,5.29562,8.38654,-0.0377962,0.174626,0.236322,0
2024-12-11 14:29:17.129,0.483649,5.29562,8.38654,-0.0377962,0.174626,0.236322,0
2024-12-11 14:29:17.131,0.488435,5.32911,8.44158,-0.0316877,0.164852,0.235711,0
2024-12-11 14:29:17.134,0.502792,5.37488,8.49183,-0.0237467,0.155079,0.2351,0
2024-12-11 14:29:17.136,0.505185,5.41795,8.54447,-0.014584,0.145916,0.233267,0
2024-12-11 14:29:17.138,0.505185,5.4347,8.58993,-0.014584,0.145916,0.233267,0
2024-12-11 14:29:17.141,0.411865,5.45384,8.57797,0.0019089,0.128202,0.2351,0
2024-12-11 14:29:17.141,0.411865,5.45384,8.57797,0.0019089,0.128202,0.2351,0
2024-12-11 14:29:17.143,0.320937,5.48734,8.51336,0.0019089,0.128202,0.2351,0
2024-12-11 14:29:17.145,0.375972,5.48973,8.49661,0.00496313,0.108044,0.254647,0
2024-12-11 14:29:17.148,0.507577,5.48016,8.54208,0.0116825,0.11293,0.254036,0
2024-12-11 14:29:17.150,0.612862,5.48495,8.60908,0.0171801,0.115985,0.250982,0
2024-12-11 14:29:17.153,0.663111,5.49452,8.65693,0.0232886,0.11293,0.243652,0
2024-12-11 14:29:17.153,0.663111,5.49452,8.65693,0.0232886,0.11293,0.243652,0
2024-12-11 14:29:17.157,0.63679,5.65962,8.64497,0.0251211,0.108654,0.236322,0
2024-12-11 14:29:17.160,0.600898,5.73859,8.62822,0.0300079,0.101324,0.221661,0
2024-12-11 14:29:17.160,0.600898,5.73859,8.62822,0.0300079,0.101324,0.221661,0
2024-12-11 14:29:17.162,0.598505,5.82234,8.65693,0.0300079,0.101324,0.221661,0
2024-12-11 14:29:17.165,0.596112,5.86301,8.70987,0.0263428,0.102546,0.209444,0
2024-12-11 14:29:17.168,0.562612,5.8343,8.74098,0.0232886,0.108654,0.201503,0
2024-12-11 14:29:17.169,0.533899,5.79601,8.77209,0.0232886,0.108654,0.201503,0
2024-12-11 14:29:17.169,0.533899,5.79601,8.77209,0.0232886,0.108654,0.201503,0
2024-12-11 14:29:17.171,0.521934,5.76012,8.81037,0.0196235,0.11293,0.198449,0
2024-12-11 14:29:17.175,0.507577,5.72662,8.85105,0.0147367,0.124536,0.194173,0
2024-12-11 14:29:17.177,0.478864,5.70748,8.87259,0.0147367,0.124536,0.194173,0
2024-12-11 14:29:17.179,0.478864,5.70748,8.87259,0.0147367,0.124536,0.194173,0
2024-12-11 14:29:17.179,0.457328,5.69073,8.88455,0.0147367,0.124536,0.194173,0
2024-12-11 14:29:17.181,0.445364,5.67398,8.89173,0.0116825,0.140419,0.193562,0
2024-12-11 14:29:17.183,0.428614,5.6668,8.90369,0.0122933,0.14836,0.194173,0
2024-12-11 14:29:17.186,0.407079,5.65723,8.93719,0.0122933,0.14836,0.194173,0
2024-12-11 14:29:17.189,0.371187,5.65245,8.95155,0.00313059,0.162409,0.198449,0
2024-12-11 14:29:17.191,0.371187,5.65245,8.95155,-0.00297788,0.178902,0.203336,0
2024-12-11 14:29:17.191,0.364008,5.64527,8.93719,-0.00297788,0.178902,0.203336,0
2024-12-11 14:29:17.193,0.373579,5.6357,8.92523,-0.00297788,0.178902,0.203336,0
2024-12-11 14:29:17.193,0.373579,5.6357,8.92523,-0.00297788,0.178902,0.203336,0
2024-12-11 14:29:17.197,0.368794,5.6022,8.90848,-0.00297788,0.178902,0.203336,0
2024-12-11 14:29:17.200,0.359223,5.60698,8.9013,-0.0176382,0.202114,0.207612,0
2024-12-11 14:29:17.202,0.337687,5.60698,8.90848,-0.0249684,0.209444,0.213109,0
2024-12-11 14:29:17.205,0.337687,5.60698,8.91566,-0.0298552,0.215553,0.214331,0
2024-12-11 14:29:17.205,0.311366,5.59502,8.91566,-0.0298552,0.215553,0.214331,0
2024-12-11 14:29:17.207,0.294616,5.59262,8.92523,-0.0365745,0.22105,0.21372,0
2024-12-11 14:29:17.209,0.282652,5.57827,8.94676,-0.0365745,0.227159,0.21372,0
2024-12-11 14:29:17.209,0.282652,5.57827,8.94676,-0.0365745,0.227159,0.21372,0
2024-12-11 14:29:17.212,0.27996,5.55673,8.9683,-0.0445155,0.231435,0.214942,0
2024-12-11 14:29:17.214,0.282652,5.55673,8.98983,-0.0481806,0.237543,0.217385,0
2024-12-11 14:29:17.216,0.282652,5.54477,9.01376,-0.0481806,0.237543,0.217385,0
2024-12-11 14:29:17.219,0.277567,5.51366,9.03051,-0.0530674,0.247317,0.218607,0
2024-12-11 14:29:17.222,0.277567,5.50409,9.05444,-0.0512348,0.261366,0.218607,0
2024-12-11 14:29:17.223,0.260818,5.49452,9.08315,-0.0512348,0.261366,0.218607,0
2024-12-11 14:29:17.224,0.265603,5.50409,9.05444,-0.0530674,0.265642,0.217996,0
2024-12-11 14:29:17.226,0.253639,5.46581,9.10948,-0.0530674,0.265642,0.217996,0
2024-12-11 14:29:17.228,0.248854,5.45145,9.11426,-0.0530674,0.265642,0.217385,0
2024-12-11 14:29:17.230,0.246461,5.43709,9.12383,-0.0512348,0.273583,0.217385,0
2024-12-11 14:29:17.230,0.246461,5.43709,9.12383,-0.0512348,0.273583,0.217385,0
2024-12-11 14:29:17.235,0.246461,5.41077,9.21476,-0.0481806,0.274194,0.217996,0
2024-12-11 14:29:17.236,0.246461,5.41077,9.21476,-0.046348,0.272972,0.216774,0
2024-12-11 14:29:17.237,0.234497,5.39881,9.24587,-0.046348,0.272972,0.216774,0
2024-12-11 14:29:17.240,0.232104,5.37727,9.29881,-0.0439046,0.270529,0.214331,0
2024-12-11 14:29:17.242,0.244068,5.34616,9.34666,-0.0408504,0.268696,0.211888,0
2024-12-11 14:29:17.244,0.244068,5.32194,9.37777,-0.0359636,0.269918,0.209444,0
2024-12-11 14:29:17.247,0.224925,5.30279,9.41127,-0.0359636,0.269918,0.209444,0
2024-12-11 14:29:17.250,0.196211,5.28604,9.44477,-0.0158057,0.268086,0.205779,0
2024-12-11 14:29:17.250,0.196211,5.28604,9.44477,-0.0158057,0.268086,0.205779,0
2024-12-11 14:29:17.252,0.167498,5.26451,9.47109,-0.0158057,0.268086,0.205779,0
2024-12-11 14:29:17.254,0.133998,5.25015,9.49502,-0.00908635,0.266864,0.203947,0
2024-12-11 14:29:17.257,0.0717847,5.24297,9.52373,-0.00908635,0.266864,0.207001,0
2024-12-11 14:29:17.259,0.00239282,5.22862,9.5333,0.00801737,0.263199,0.208223,0
2024-12-11 14:29:17.259,0.00239282,5.22862,9.5333,0.00801737,0.263199,0.208223,0
2024-12-11 14:29:17.263,-0.066999,5.21905,9.51655,0.0251211,0.260145,0.213109,0
2024-12-11 14:29:17.263,-0.066999,5.21905,9.51655,0.0251211,0.260145,0.213109,0
2024-12-11 14:29:17.266,-0.0981057,5.22144,9.49981,0.0342838,0.25648,0.217385,0
2024-12-11 14:29:17.269,-0.0981057,5.2023,9.48066,0.0422248,0.253425,0.221661,0
2024-12-11 14:29:17.270,-0.150748,5.18555,9.45673,0.0422248,0.253425,0.221661,0
2024-12-11 14:29:17.280,-0.143569,5.17358,9.3012,0.0465007,0.247928,0.240597,0
2024-12-11 14:29:17.284,-0.0933201,5.14487,9.23151,0.0526092,0.210666,0.253425,0
2024-12-11 14:29:17.284,-0.0933201,5.14487,9.23151,0.0526092,0.210666,0.253425,0
2024-12-11 14:29:17.289,-0.0334995,5.1329,9.22912,0.0385597,0.188065,0.257701,0
2024-12-11 14:29:17.289,-0.0334995,5.1329,9.22912,0.0385597,0.188065,0.257701,0
2024-12-11 14:29:17.291,0.00239282,5.11376,9.2363,0.0385597,0.188065,0.257701,0
2024-12-11 14:29:17.294,0.0574277,5.11137,9.25305,0.0232886,0.161798,0.258923,0
2024-12-11 14:29:17.297,0.112463,5.10658,9.27727,0.0153475,0.149581,0.258312,0
2024-12-11 14:29:17.299,0.165105,5.08265,9.29642,0.0153475,0.149581,0.258312,0
2024-12-11 14:29:17.301,0.222533,5.05633,9.34188,-0.00664296,0.124536,0.253425,0
2024-12-11 14:29:17.303,0.275175,5.04437,9.38734,-0.0158057,0.114152,0.251593,0
2024-12-11 14:29:17.306,0.34008,5.01805,9.42563,-0.0261901,0.104379,0.247317,0
2024-12-11 14:29:17.308,0.407079,4.97498,9.45673,-0.0261901,0.104379,0.247317,0
2024-12-11 14:29:17.309,0.407079,4.97498,9.45673,-0.0261901,0.104379,0.247317,0
2024-12-11 14:29:17.313,0.498006,4.88884,9.55484,-0.0500131,0.082388,0.241819,0
2024-12-11 14:29:17.314,0.498006,4.88884,9.55484,-0.0775012,0.0677277,0.2351,0
2024-12-11 14:29:17.315,0.553041,4.86012,9.60509,-0.0775012,0.0677277,0.2351,0
2024-12-11 14:29:17.318,0.596112,4.80987,9.69123,-0.0927724,0.0616192,0.231435,0
2024-12-11 14:29:17.321,0.643968,4.75215,9.8013,-0.11965,0.058565,0.224105,0
2024-12-11 14:29:17.322,0.687039,4.72104,9.92842,-0.11965,0.058565,0.224105,0
2024-12-11 14:29:17.323,0.687039,4.72104,9.92842,-0.11965,0.058565,0.224105,0
2024-12-11 14:29:17.327,0.715753,4.68993,10.2467,-0.135532,0.0616192,0.217996,0
2024-12-11 14:29:17.328,0.744467,4.65165,10.2467,-0.142862,0.066506,0.215553,0
2024-12-11 14:29:17.329,0.756431,4.61576,10.4264,-0.142862,0.066506,0.215553,0
2024-12-11 14:29:17.333,0.766002,4.58704,10.6298,-0.145916,0.0909399,0.211277,0
2024-12-11 14:29:17.334,0.780359,4.56072,10.8308,-0.145916,0.0909399,0.211277,0
2024-12-11 14:29:17.334,0.780359,4.56072,10.8308,-0.145916,0.0909399,0.211277,0
2024-12-11 14:29:17.339,0.761217,4.50568,11.1972,-0.131256,0.125758,0.208223,0
2024-12-11 14:29:17.339,0.761217,4.50568,11.1972,-0.131256,0.125758,0.208223,0
2024-12-11 14:29:17.342,0.670289,4.51526,11.4221,-0.122704,0.147138,0.207612,0
2024-12-11 14:29:17.343,0.581755,4.52722,11.633,-0.122704,0.147138,0.207612,0
2024-12-11 14:29:17.347,0.512363,4.54636,11.7885,-0.0933833,0.193562,0.21372,0
2024-12-11 14:29:17.347,0.512363,4.54636,11.7885,-0.0933833,0.193562,0.21372,0
2024-12-11 14:29:17.348,0.440578,4.56311,11.9297,-0.0732253,0.22044,0.216774,0
2024-12-11 14:29:17.350,0.342473,4.55354,12.0326,-0.0732253,0.22044,0.216774,0
2024-12-11 14:29:17.353,0.275175,4.53918,12.0832,-0.0268009,0.265642,0.225326,0
2024-12-11 14:29:17.353,0.275175,4.53918,12.0832,-0.0268009,0.265642,0.225326,0
2024-12-11 14:29:17.355,0.232104,4.53201,12.0855,-0.0268009,0.265642,0.225326,0
2024-12-11 14:29:17.357,0.174676,4.49851,12.0254,0.0129041,0.29313,0.236932,0
2024-12-11 14:29:17.361,0.131605,4.46979,11.9273,0.0281753,0.294352,0.241208,0
2024-12-11 14:29:17.361,0.131605,4.46979,11.9273,0.0281753,0.294352,0.241208,0
2024-12-11 14:29:17.365,0.107677,4.37647,11.6952,0.0367272,0.288244,0.247317,0
2024-12-11 14:29:17.366,0.107677,4.37647,11.6952,0.0397814,0.252814,0.255869,0
2024-12-11 14:29:17.369,0.153141,4.32144,11.4389,0.0287862,0.219218,0.258923,0
2024-12-11 14:29:17.369,0.227318,4.2664,11.4389,0.0287862,0.219218,0.258923,0
2024-12-11 14:29:17.372,0.304188,4.21615,11.3384,0.0159584,0.178902,0.260145,0
2024-12-11 14:29:17.372,0.304188,4.21615,11.3384,0.0159584,0.178902,0.260145,0
2024-12-11 14:29:17.374,0.368794,4.18235,11.257,-0.00481042,0.134921,0.261366,0
2024-12-11 14:29:17.377,0.452543,4.15125,11.1972,-0.058565,0.0439046,0.258923,0
2024-12-11 14:29:17.379,0.54347,4.12253,11.1637,-0.058565,0.0439046,0.258923,0
2024-12-11 14:29:17.379,0.54347,4.12253,11.1637,-0.058565,0.0439046,0.258923,0
2024-12-11 14:29:17.383,0.718146,4.10339,11.1757,-0.126369,-0.0452791,0.251593,0
2024-12-11 14:29:17.383,0.718146,4.10339,11.1757,-0.126369,-0.0452791,0.251593,0
2024-12-11 14:29:17.386,0.816252,4.08664,11.2116,-0.163631,-0.0868167,0.245484,0
2024-12-11 14:29:17.388,0.919442,4.05314,11.2881,-0.201503,-0.126522,0.238154,0
2024-12-11 14:29:17.390,1.0343,4.0005,11.3791,-0.241819,-0.165005,0.229602,0
2024-12-11 14:29:17.390,1.0343,4.0005,11.3791,-0.241819,-0.165005,0.229602,0
2024-12-11 14:29:17.393,1.15394,3.94068,11.4867,-0.241819,-0.165005,0.229602,0
2024-12-11 14:29:17.396,1.25922,3.87368,11.621,-0.363989,-0.268238,0.192341,0
2024-12-11 14:29:17.401,1.48684,3.68943,11.8555,-0.403083,-0.29817,0.178291,0
2024-12-11 14:29:17.402,1.48684,3.68943,12.0135,-0.403083,-0.29817,0.178291,0
2024-12-11 14:29:17.405,1.72134,3.44507,12.1956,-0.482493,-0.349481,0.147138,0
2024-12-11 14:29:17.407,1.81705,3.28475,12.3775,-0.5167,-0.369639,0.131867,0
2024-12-11 14:29:17.409,1.86969,3.14118,12.6048,-0.549075,-0.387964,0.114152,0
2024-12-11 14:29:17.412,1.9008,3.00449,12.8707,-0.579618,-0.39957,0.0994917,0
2024-12-11 14:29:17.415,1.94148,2.84895,13.1267,-0.604662,-0.406901,0.0872748,0
2024-12-11 14:29:17.416,2.0016,2.69342,13.3854,-0.604662,-0.406901,0.0872748,0
2024-12-11 14:29:17.420,2.04467,2.52592,13.675,-0.633372,-0.409955,0.0671168,0
2024-12-11 14:29:17.421,2.04945,2.37009,14.0079,-0.633372,-0.409955,0.0671168,0
2024-12-11 14:29:17.423,2.10927,2.22413,14.2902,-0.632151,-0.394073,0.0542891,0
2024-12-11 14:29:17.424,2.10927,2.22413,14.2902,-0.632151,-0.394073,0.0542891,0
2024-12-11 14:29:17.426,2.26241,2.02313,14.4867,-0.622377,-0.378191,0.0500131,0
2024-12-11 14:29:17.428,2.26002,1.87926,14.7619,-0.622377,-0.378191,0.0500131,0
2024-12-11 14:29:17.430,2.09252,1.82184,15.0374,-0.580229,-0.32749,0.0445155,0
2024-12-11 14:29:17.433,1.98963,1.72373,15.1475,-0.550297,-0.306111,0.0542891,0
2024-12-11 14:29:17.434,1.98963,1.72373,15.1475,-0.524641,-0.301224,0.074447,0
2024-12-11 14:29:17.436,1.94148,1.57777,15.09,-0.498375,-0.279844,0.0994917,0
2024-12-11 14:29:17.439,1.84816,1.47966,14.9943,-0.462335,-0.230977,0.124536,0
2024-12-11 14:29:17.442,1.82662,1.3334,15.157,-0.413467,-0.152788,0.143473,0
2024-12-11 14:29:17.443,1.82662,1.3334,15.157,-0.351161,-0.0532201,0.15569,0
2024-12-11 14:29:17.443,1.82662,1.3334,15.157,-0.351161,-0.0532201,0.15569,0
2024-12-11 14:29:17.443,1.82662,1.3334,15.157,-0.351161,-0.0532201,0.15569,0
2024-12-11 14:29:17.447,1.80987,1.31426,15.6646,-0.275416,0.0481806,0.169128,0
2024-12-11 14:29:17.449,1.84098,1.32861,15.722,-0.198449,0.132477,0.180734,0
2024-12-11 14:29:17.452,1.92712,1.31904,15.6574,-0.119039,0.20639,0.192341,0
2024-12-11 14:29:17.454,1.9992,1.30708,15.5641,-0.119039,0.20639,0.192341,1
2024-12-11 14:29:17.454,1.9992,1.30708,15.5641,-0.119039,0.20639,0.192341,1
2024-12-11 14:29:17.459,1.92712,1.31426,15.2504,0.141793,0.441566,0.204557,0
2024-12-11 14:29:17.459,1.92712,1.31426,15.2504,0.141793,0.441566,0.204557,0
2024-12-11 14:29:17.461,1.87208,1.33819,15.0589,0.230366,0.513035,0.205168,0
2024-12-11 14:29:17.463,1.75484,1.39083,14.793,0.315274,0.572898,0.203336,0
2024-12-11 14:29:17.466,1.57777,1.44138,14.4509,0.394684,0.62482,0.203947,0
2024-12-11 14:29:17.467,1.57777,1.44138,14.4509,0.394684,0.62482,0.203947,0
2024-12-11 14:29:17.468,1.3669,1.51077,14.0533,0.472872,0.677353,0.207001,0
2024-12-11 14:29:17.470,1.1683,1.60409,13.6176,0.54373,0.724388,0.211888,0
2024-12-11 14:29:17.473,1.00319,1.67827,13.1818,0.609702,0.76898,0.217385,0
2024-12-11 14:29:17.474,1.00319,1.67827,13.1818,0.609702,0.76898,0.217385,0
2024-12-11 14:29:17.478,0.684646,1.80509,12.3559,0.722098,0.836861,0.238154,0
2024-12-11 14:29:17.480,0.52672,1.86251,11.9297,0.76669,0.861295,0.248538,0
2024-12-11 14:29:17.480,0.52672,1.86251,11.9297,0.76669,0.861295,0.248538,0
2024-12-11 14:29:17.482,0.445364,1.90558,11.5086,0.808227,0.88695,0.263199,0
2024-12-11 14:29:17.486,0.409472,1.94148,11.1422,0.878475,0.934596,0.27847,0
2024-12-11 14:29:17.486,0.409472,1.94148,11.1422,0.878475,0.934596,0.27847,0
2024-12-11 14:29:17.489,0.289831,2.08295,10.3783,0.902909,0.948646,0.279692,0
2024-12-11 14:29:17.492,0.289831,2.08295,9.98345,0.922456,0.957808,0.279081,0
2024-12-11 14:29:17.492,0.217747,2.16431,9.98345,0.922456,0.957808,0.279081,0
2024-12-11 14:29:17.494,0.189033,2.2337,9.59791,0.934062,0.960863,0.280303,0
2024-12-11 14:29:17.496,0.11007,2.35573,9.24347,0.934062,0.960863,0.280303,0
2024-12-11 14:29:17.499,-0.0430708,2.48495,8.88216,0.943835,0.950478,0.272972,0
2024-12-11 14:29:17.500,-0.0430708,2.48495,8.88216,0.933451,0.938261,0.268086,0
2024-12-11 14:29:17.502,-0.16989,2.57857,8.51336,0.933451,0.938261,0.268086,0
2024-12-11 14:29:17.503,-0.30658,2.68146,8.20948,0.920623,0.918714,0.26381,0
2024-12-11 14:29:17.503,-0.30658,2.68146,8.20948,0.920623,0.918714,0.26381,0
2024-12-11 14:29:17.508,-0.342473,2.77478,7.59661,0.876031,0.869236,0.245484,0
2024-12-11 14:29:17.508,-0.342473,2.77478,7.59661,0.876031,0.869236,0.245484,0
2024-12-11 14:29:17.512,-0.368794,2.81306,7.28286,0.844878,0.833196,0.231435,0
2024-12-11 14:29:17.513,-0.440578,2.87049,7.03879,0.844878,0.833196,0.231435,0
2024-12-11 14:29:17.515,-0.514756,2.92074,6.83749,0.763025,0.756763,0.201503,0
2024-12-11 14:29:17.518,-0.557827,2.9686,6.67717,0.715989,0.714004,0.185621,0
2024-12-11 14:29:17.518,-0.557827,2.9686,6.67717,0.715989,0.714004,0.185621,0
2024-12-11 14:29:17.521,-0.576969,3.01167,6.55035,0.618865,0.635205,0.156301,0
2024-12-11 14:29:17.522,-0.572184,3.03799,6.43759,0.618865,0.635205,0.156301,0
2024-12-11 14:29:17.525,-0.569791,3.04995,6.35384,0.569997,0.5955,0.139197,0
2024-12-11 14:29:17.528,-0.569791,3.06431,6.30838,0.518686,0.555795,0.121482,0
2024-12-11 14:29:17.530,-0.584148,3.08106,6.28924,0.518686,0.555795,0.121482,0
2024-12-11 14:29:17.530,-0.574577,3.08106,6.28924,0.518686,0.555795,0.121482,0
2024-12-11 14:29:17.533,-0.567398,3.07388,6.27488,0.365363,0.44462,0.0628409,0
2024-12-11 14:29:17.534,-0.557827,3.04995,6.27488,0.365363,0.44462,0.0628409,0
2024-12-11 14:29:17.536,-0.548256,3.02124,6.28206,0.365363,0.44462,0.0628409,0
2024-12-11 14:29:17.539,-0.548256,2.98295,6.27966,0.267017,0.371319,0.0231358,0
2024-12-11 14:29:17.540,-0.548256,2.98295,6.27966,0.267017,0.371319,0.0231358,0
2024-12-11 14:29:17.541,-0.538684,2.9327,6.31077,0.217538,0.333446,0.00297788,0
2024-12-11 14:29:17.544,-0.536291,2.88724,6.38016,0.169281,0.294352,-0.0177909,0
2024-12-11 14:29:17.546,-0.557827,2.85374,6.45703,0.122857,0.250371,-0.0367272,0
2024-12-11 14:29:17.548,-0.579362,2.82263,6.55992,0.122857,0.250371,-0.0367272,0
2024-12-11 14:29:17.551,-0.579362,2.82263,6.55992,0.0397814,0.164852,-0.0703238,0
2024-12-11 14:29:17.551,-0.591326,2.78435,6.68196,0.0397814,0.164852,-0.0703238,0
2024-12-11 14:29:17.553,-0.60329,2.75563,6.81117,0.0019089,0.120871,-0.0868167,0
2024-12-11 14:29:17.555,-0.608076,2.74128,6.97627,-0.0347419,0.0768904,-0.100255,0
2024-12-11 14:29:17.559,-0.584148,2.71256,7.16561,-0.0640626,0.0377962,-0.116137,0
2024-12-11 14:29:17.561,-0.584148,2.71256,7.36421,-0.0640626,0.0377962,-0.116137,0
2024-12-11 14:29:17.562,-0.512363,2.6336,7.57747,-0.110487,-0.0379489,-0.147901,0
2024-12-11 14:29:17.565,-0.454935,2.57617,7.79522,-0.12698,-0.0715455,-0.165005,0
2024-12-11 14:29:17.565,-0.454935,2.57617,7.79522,-0.12698,-0.0715455,-0.165005,0
2024-12-11 14:29:17.567,-0.414257,2.52323,7.99143,-0.138586,-0.10392,-0.182109,0
2024-12-11 14:29:17.569,-0.395115,2.48973,8.1664,-0.144084,-0.133241,-0.197991,0
2024-12-11 14:29:17.572,-0.395115,2.4347,8.31237,-0.147138,-0.158897,-0.213873,0
2024-12-11 14:29:17.574,-0.390329,2.38206,8.4344,-0.14836,-0.186385,-0.228533,0
2024-12-11 14:29:17.574,-0.390329,2.38206,8.4344,-0.14836,-0.186385,-0.228533,0
2024-12-11 14:29:17.576,-0.395115,2.33898,8.52293,-0.14836,-0.210208,-0.243194,0
2024-12-11 14:29:17.579,-0.387936,2.29113,8.61865,-0.147138,-0.232198,-0.255411,0
2024-12-11 14:29:17.582,-0.364008,2.24088,8.72423,-0.139808,-0.273736,-0.279844,0
2024-12-11 14:29:17.585,-0.364008,2.24088,8.78884,-0.137364,-0.288396,-0.292672,0
2024-12-11 14:29:17.585,-0.320937,2.19541,8.78884,-0.137364,-0.288396,-0.292672,0
2024-12-11 14:29:17.587,-0.270389,2.15234,8.85823,-0.131867,-0.301835,-0.303667,0
2024-12-11 14:29:17.588,-0.217747,2.10209,8.93001,-0.131867,-0.301835,-0.303667,0
2024-12-11 14:29:17.591,-0.16989,2.05902,8.98266,-0.128202,-0.310998,-0.315274,0
2024-12-11 14:29:17.594,-0.12682,2.02552,9.02333,-0.122093,-0.315884,-0.32749,0
2024-12-11 14:29:17.594,-0.12682,2.02552,9.02333,-0.122093,-0.315884,-0.32749,0
2024-12-11 14:29:17.598,-0.0981057,1.94865,9.0688,-0.111709,-0.314052,-0.348259,0
2024-12-11 14:29:17.598,-0.0981057,1.94865,9.0688,-0.111709,-0.314052,-0.348259,0
2024-12-11 14:29:17.600,-0.0909273,1.90558,9.07837,-0.108654,-0.310387,-0.359865,0
2024-12-11 14:29:17.602,-0.0981057,1.85533,9.09751,-0.103768,-0.300613,-0.367806,0
2024-12-11 14:29:17.605,-0.12682,1.80748,9.09751,-0.0982701,-0.289618,-0.373915,0
2024-12-11 14:29:17.606,-0.12682,1.80748,9.09751,-0.0982701,-0.289618,-0.373915,0
2024-12-11 14:29:17.607,-0.148355,1.7668,9.1023,-0.0982701,-0.289618,-0.373915,0
2024-12-11 14:29:17.609,-0.167498,1.73809,9.11187,-0.0933833,-0.263962,-0.385521,0
2024-12-11 14:29:17.612,-0.200997,1.6998,9.10469,-0.0915507,-0.246248,-0.386132,0
2024-12-11 14:29:17.614,-0.239282,1.66391,9.08794,-0.0872748,-0.226701,-0.387354,0
2024-12-11 14:29:17.617,-0.272782,1.64237,9.07119,-0.0842206,-0.206543,-0.387964,0
2024-12-11 14:29:17.619,-0.318545,1.62802,9.06401,-0.0842206,-0.206543,-0.387964,0
2024-12-11 14:29:17.620,-0.318545,1.62802,9.06401,-0.082388,-0.155842,-0.378802,0
2024-12-11 14:29:17.621,-0.361615,1.60409,9.04487,-0.082388,-0.155842,-0.378802,0
2024-12-11 14:29:17.624,-0.397508,1.57298,9.02094,-0.0817772,-0.127133,-0.372693,0
2024-12-11 14:29:17.627,-0.442971,1.57298,8.98505,-0.0799446,-0.0666587,-0.356811,0
2024-12-11 14:29:17.628,-0.493221,1.5682,8.94437,-0.0799446,-0.0666587,-0.356811,0
2024-12-11 14:29:17.631,-0.548256,1.55623,8.90369,-0.0793338,-0.0342838,-0.346427,0
2024-12-11 14:29:17.633,-0.605683,1.56102,8.85823,-0.082388,-0.0019089,-0.33421,0
2024-12-11 14:29:17.638,-0.708575,1.60409,8.78166,-0.082388,-0.0019089,-0.33421,0
2024-12-11 14:29:17.640,-0.749253,1.6352,8.7362,-0.0817772,0.090329,-0.293894,0
2024-12-11 14:29:17.642,-0.749253,1.66152,8.67368,-0.082388,0.117206,-0.279844,0
2024-12-11 14:29:17.645,-0.85005,1.68305,8.60668,-0.0836097,0.145305,-0.264573,0
2024-12-11 14:29:17.646,-0.85005,1.68305,8.60668,-0.0836097,0.145305,-0.264573,0
2024-12-11 14:29:17.647,-0.895514,1.72134,8.55643,-0.0836097,0.145305,-0.264573,0
2024-12-11 14:29:17.649,-0.938585,1.75723,8.49661,-0.090329,0.188675,-0.23342,0
2024-12-11 14:29:17.652,-0.967299,1.79073,8.44158,-0.0915507,0.207001,-0.215705,0
2024-12-11 14:29:17.655,-0.991227,1.83141,8.38654,-0.094605,0.222272,-0.198602,0
2024-12-11 14:29:17.659,-1.00319,1.91994,8.27887,-0.100713,0.246706,-0.164394,0
2024-12-11 14:29:17.660,-1.00319,1.91994,8.27887,-0.1056,0.254036,-0.147291,0
2024-12-11 14:29:17.661,-1.0008,1.97288,8.2334,-0.1056,0.254036,-0.147291,0
2024-12-11 14:29:17.665,-0.972084,2.03031,8.18315,-0.108654,0.260145,-0.13263,0
2024-12-11 14:29:17.666,-0.926621,2.07577,8.15444,-0.111709,0.261366,-0.120413,0
2024-12-11 14:29:17.668,-0.869193,2.12363,8.14487,-0.114763,0.261366,-0.106975,0
2024-12-11 14:29:17.671,-0.821037,2.18584,8.14248,-0.120871,0.258923,-0.0972011,0
2024-12-11 14:29:17.675,-0.701396,2.29352,8.11107,-0.121482,0.252814,-0.0892601,0
2024-12-11 14:29:17.676,-0.766002,2.24088,8.135,-0.121482,0.252814,-0.0892601,0
2024-12-11 14:29:17.680,-0.555434,2.3988,8.09911,-0.117206,0.224715,-0.0764323,0
2024-12-11 14:29:17.680,-0.555434,2.3988,8.09911,-0.117206,0.224715,-0.0764323,0
2024-12-11 14:29:17.682,-0.505185,2.46102,8.07039,-0.117206,0.224715,-0.0764323,0
2024-12-11 14:29:17.685,-0.483649,2.50887,8.06082,-0.115374,0.201503,-0.0764323,0
2024-12-11 14:29:17.687,-0.474078,2.54746,8.05843,-0.11293,0.1844,-0.0764323,0
2024-12-11 14:29:17.689,-0.486042,2.58574,8.05364,-0.107433,0.166074,-0.0770431,0
2024-12-11 14:29:17.692,-0.493221,2.61924,8.04646,-0.103768,0.147749,-0.0788757,0
2024-12-11 14:29:17.697,-0.488435,2.64796,7.99143,-0.0933833,0.108654,-0.0770431,0
2024-12-11 14:29:17.700,-0.500399,2.65274,7.96032,-0.0829989,0.0689494,-0.0788757,0
2024-12-11 14:29:17.702,-0.512363,2.67189,7.92922,-0.0811663,0.0439046,-0.0782648,0
2024-12-11 14:29:17.704,-0.529113,2.67906,7.90289,-0.0811663,0.0439046,-0.0782648,0
2024-12-11 14:29:17.704,-0.529113,2.67906,7.90289,-0.0811663,0.0439046,-0.0782648,0
2024-12-11 14:29:17.706,-0.541077,2.68864,7.88615,-0.0781121,0.0194708,-0.0764323,0
2024-12-11 14:29:17.708,-0.545863,2.68624,7.88854,-0.0732253,-0.00374144,-0.0752106,0
2024-12-11 14:29:17.711,-0.548256,2.67906,7.90289,-0.0707819,-0.029397,-0.0727672,0
2024-12-11 14:29:17.713,-0.557827,2.67428,7.91964,-0.066506,-0.0550526,-0.0684913,0
2024-12-11 14:29:17.715,-0.562612,2.67189,7.94597,-0.0610084,-0.081319,-0.0660479,0
2024-12-11 14:29:17.721,-0.56022,2.67428,8.04646,-0.0402396,-0.150956,-0.0544418,0
2024-12-11 14:29:17.721,-0.56022,2.67428,8.04646,-0.0402396,-0.150956,-0.0544418,0
2024-12-11 14:29:17.722,-0.567398,2.69581,8.08475,-0.0402396,-0.150956,-0.0544418,0
2024-12-11 14:29:17.725,-0.562612,2.70778,8.12543,-0.0292443,-0.172335,-0.0501658,0
2024-12-11 14:29:17.727,-0.567398,2.72213,8.17358,-0.0206925,-0.188217,-0.0458899,0
2024-12-11 14:29:17.732,-0.565005,2.74367,8.20708,0.00129805,-0.219981,-0.037338,0
2024-12-11 14:29:17.733,-0.557827,2.76521,8.22383,0.0110716,-0.236474,-0.0330621,0
2024-12-11 14:29:17.734,-0.555434,2.78196,8.22862,0.0110716,-0.236474,-0.0330621,0
2024-12-11 14:29:17.745,-0.493221,2.87049,8.14248,0.0446682,-0.29817,-0.0184018,0
2024-12-11 14:29:17.746,-0.474078,2.89203,8.13021,0.0446682,-0.29817,-0.0184018,0
2024-12-11 14:29:17.747,-0.474078,2.89203,8.13021,0.0446682,-0.29817,-0.0184018,0
2024-12-11 14:29:17.748,-0.462114,2.91356,8.13261,0.0513875,-0.32016,-0.013515,0
2024-12-11 14:29:17.751,-0.447757,2.94467,8.14008,0.0556635,-0.328712,-0.0147367,0
2024-12-11 14:29:17.754,-0.426222,2.98295,8.13769,0.0623828,-0.346427,-0.0165692,0
2024-12-11 14:29:17.755,-0.397508,3.01406,8.12543,0.0623828,-0.346427,-0.0165692,0
2024-12-11 14:29:17.758,-0.378365,3.02842,8.11346,0.0629936,-0.352535,-0.0171801,0
2024-12-11 14:29:17.760,-0.378365,3.02842,8.11346,0.0666587,-0.360476,-0.0190126,0
2024-12-11 14:29:17.762,-0.368794,3.08345,8.09193,0.065437,-0.364752,-0.0202343,0
2024-12-11 14:29:17.763,-0.332901,3.08345,8.09193,0.065437,-0.364752,-0.0202343,0
2024-12-11 14:29:17.766,-0.328116,3.1005,8.08236,0.065437,-0.364752,-0.0202343,0
2024-12-11 14:29:17.767,-0.337687,3.12682,8.05604,0.0691021,-0.375747,-0.0275645,0
2024-12-11 14:29:17.771,-0.328116,3.14596,8.0345,0.0648262,-0.385521,-0.0306187,0
2024-12-11 14:29:17.773,-0.320937,3.16511,8.00818,0.0623828,-0.390408,-0.033673,0
2024-12-11 14:29:17.773,-0.320937,3.16511,8.00818,0.0623828,-0.390408,-0.033673,0
2024-12-11 14:29:17.774,-0.304188,3.17946,7.97947,0.0623828,-0.390408,-0.033673,0
2024-12-11 14:29:17.779,-0.244068,3.21775,7.90289,0.0562743,-0.402014,-0.0379489,0
2024-12-11 14:29:17.781,-0.205783,3.25125,7.8694,0.0428357,-0.403846,-0.0422248,0
2024-12-11 14:29:17.781,-0.205783,3.25125,7.8694,0.0428357,-0.403846,-0.0422248,0
2024-12-11 14:29:17.785,-0.177069,3.27518,7.85982,0.033673,-0.40629,-0.0458899,0
2024-12-11 14:29:17.786,-0.165105,3.29193,7.85504,0.033673,-0.40629,-0.0458899,0
2024-12-11 14:29:17.791,-0.20339,3.38285,7.89572,0.00251974,-0.403846,-0.0562743,0
2024-12-11 14:29:17.791,-0.20339,3.38285,7.89572,0.00251974,-0.403846,-0.0562743,0
2024-12-11 14:29:17.794,-0.222533,3.3996,7.934,-0.0151948,-0.395905,-0.0623828,0
2024-12-11 14:29:17.795,-0.22014,3.40917,7.99621,-0.0151948,-0.395905,-0.0623828,0
2024-12-11 14:29:17.798,-0.200997,3.43071,8.06321,-0.0194708,-0.390408,-0.0660479,0
2024-12-11 14:29:17.800,-0.191426,3.45464,8.14008,-0.0268009,-0.383078,-0.0684913,0
2024-12-11 14:29:17.803,-0.20339,3.47617,8.24776,-0.0261901,-0.378191,-0.0697129,0
2024-12-11 14:29:17.805,-0.217747,3.49292,8.35783,-0.0274118,-0.367196,-0.0727672,0
2024-12-11 14:29:17.808,-0.22014,3.52403,8.47986,-0.0158057,-0.34887,-0.0807082,0
2024-12-11 14:29:17.810,-0.212961,3.56231,8.59711,-0.0158057,-0.34887,-0.0807082,0
2024-12-11 14:29:17.812,-0.189033,3.59581,8.68325,-0.00603212,-0.33421,-0.0819299,0
2024-12-11 14:29:17.814,-0.16989,3.63649,8.75773,0.00374144,-0.321382,-0.0837624,0
2024-12-11 14:29:17.817,-0.153141,3.67029,8.82473,0.0184018,-0.307943,-0.0904818,0
2024-12-11 14:29:17.819,-0.143569,3.69422,8.87498,0.0342838,-0.294505,-0.093536,0
2024-12-11 14:29:17.821,-0.145962,3.72533,8.90369,0.0526092,-0.279234,-0.100866,0
2024-12-11 14:29:17.824,-0.153141,3.75883,8.92762,0.0684913,-0.26946,-0.105753,0
2024-12-11 14:29:17.826,-0.162712,3.78993,8.93241,0.0849841,-0.256632,-0.11064,0
2024-12-11 14:29:17.828,-0.179462,3.83061,8.91087,0.102699,-0.246859,-0.11797,0
2024-12-11 14:29:17.831,-0.193819,3.87607,8.89173,0.119192,-0.238307,-0.124078,0
2024-12-11 14:29:17.833,-0.193819,3.92393,8.85344,0.133852,-0.231587,-0.131409,0
2024-12-11 14:29:17.835,-0.200997,3.95982,8.79841,0.146069,-0.226701,-0.138128,0
2024-12-11 14:29:17.838,-0.210568,3.98375,8.74816,0.157675,-0.224257,-0.145458,0
2024-12-11 14:29:17.840,-0.217747,4.01725,8.7027,0.167449,-0.226701,-0.150345,0
2024-12-11 14:29:17.843,-0.229711,4.05554,8.64258,0.174779,-0.229755,-0.160118,0
2024-12-11 14:29:17.846,-0.229711,4.08664,8.57318,0.183331,-0.24075,-0.174168,0
2024-12-11 14:29:17.847,-0.217747,4.11536,8.53251,0.183331,-0.24075,-0.174168,0
2024-12-11 14:29:17.850,-0.193819,4.15843,8.48944,0.184552,-0.245637,-0.184552,0
2024-12-11 14:29:17.854,-0.114855,4.24726,8.37937,0.184552,-0.256632,-0.206543,0
2024-12-11 14:29:17.854,-0.114855,4.24726,8.37937,0.184552,-0.256632,-0.206543,0
2024-12-11 14:29:17.860,-0.0454636,4.3334,8.32194,0.179055,-0.268849,-0.244415,0
2024-12-11 14:29:17.861,-0.00717847,4.39322,8.29562,0.179055,-0.268849,-0.244415,0
2024-12-11 14:29:17.861,-0.00717847,4.39322,8.29562,0.179055,-0.268849,-0.244415,0
2024-12-11 14:29:17.865,0.00957129,4.42672,8.27887,0.160118,-0.276179,-0.271903,0
2024-12-11 14:29:17.867,0.0143569,4.45065,8.26212,0.151566,-0.278012,-0.285953,0
2024-12-11 14:29:17.868,0.0,4.47697,8.25733,0.151566,-0.278012,-0.285953,0
2024-12-11 14:29:17.871,-0.0287139,4.48894,8.25972,0.143015,-0.27679,-0.302446,0
2024-12-11 14:29:17.873,-0.040678,4.51526,8.27647,0.131409,-0.277401,-0.315884,0
2024-12-11 14:29:17.876,-0.066999,4.5344,8.31715,0.119802,-0.278012,-0.32749,0
2024-12-11 14:29:17.879,-0.12682,4.54876,8.32912,0.0978119,-0.271903,-0.352535,0
2024-12-11 14:29:17.880,-0.160319,4.55593,8.34826,0.0978119,-0.271903,-0.352535,0
2024-12-11 14:29:17.883,-0.193819,4.55833,8.37937,0.0862058,-0.268849,-0.362309,0
2024-12-11 14:29:17.887,-0.287438,4.50568,8.44158,0.0605502,-0.267017,-0.378191,0
2024-12-11 14:29:17.888,-0.287438,4.50568,8.44158,0.0465007,-0.265184,-0.381856,0
2024-12-11 14:29:17.890,-0.335294,4.48894,8.47747,0.0465007,-0.265184,-0.381856,0
2024-12-11 14:29:17.892,-0.387936,4.47458,8.53011,0.0342838,-0.265795,-0.38491,0
2024-12-11 14:29:17.894,-0.423829,4.45065,8.58515,0.0196235,-0.266406,-0.386743,0
2024-12-11 14:29:17.897,-0.442971,4.43629,8.64258,0.00618483,-0.266406,-0.387964,0
2024-12-11 14:29:17.900,-0.481256,4.42672,8.71466,-0.00603212,-0.268849,-0.386132,0
2024-12-11 14:29:17.901,-0.517149,4.39562,8.80559,-0.0170274,-0.270682,-0.383078,0
2024-12-11 14:29:17.904,-0.519542,4.35733,8.91805,-0.0255792,-0.271903,-0.380634,0
2024-12-11 14:29:17.906,-0.507577,4.32862,9.02333,-0.0255792,-0.271903,-0.380634,0
2024-12-11 14:29:17.908,-0.498006,4.29033,9.1334,-0.0481806,-0.277401,-0.375137,0
2024-12-11 14:29:17.911,-0.495613,4.26162,9.26292,-0.0524565,-0.280455,-0.372693,0
2024-12-11 14:29:17.913,-0.471685,4.24965,9.39931,-0.0561216,-0.281677,-0.369639,0
2024-12-11 14:29:17.916,-0.457328,4.21855,9.5357,-0.058565,-0.282899,-0.367196,0
2024-12-11 14:29:17.918,-0.445364,4.17757,9.66252,-0.058565,-0.282899,-0.367196,0
2024-12-11 14:29:17.923,-0.402293,4.08903,9.92363,-0.0555107,-0.290229,-0.36292,0
2024-12-11 14:29:17.924,-0.402293,4.08903,9.92363,-0.0512348,-0.29084,-0.361698,0
2024-12-11 14:29:17.926,-0.378365,4.034,10.0457,-0.0445155,-0.292061,-0.362309,0
2024-12-11 14:29:17.927,-0.364008,3.98136,10.1533,-0.0445155,-0.292061,-0.362309,0
2024-12-11 14:29:17.930,-0.373579,3.91675,10.2562,-0.0365745,-0.29084,-0.360476,0
2024-12-11 14:29:17.933,-0.397508,3.86172,10.3448,-0.0176382,-0.29084,-0.351924,0
2024-12-11 14:29:17.935,-0.407079,3.81147,10.4264,-0.0176382,-0.29084,-0.351924,0
2024-12-11 14:29:17.937,-0.423829,3.74447,10.5006,-0.00908635,-0.29084,-0.348259,0
2024-12-11 14:29:17.939,-0.447757,3.67747,10.558,-0.00908635,-0.29084,-0.348259,0
2024-12-11 14:29:17.941,-0.478864,3.61974,10.6322,0.00740652,-0.286564,-0.336042,0
2024-12-11 14:29:17.945,-0.521934,3.57189,10.7183,0.0177909,-0.287175,-0.328101,0
2024-12-11 14:29:17.950,-0.565005,3.48335,10.8835,0.0177909,-0.287175,-0.328101,0
2024-12-11 14:29:17.953,-0.584148,3.37807,11.013,0.0513875,-0.292061,-0.299392,0
2024-12-11 14:29:17.957,-0.715753,3.37328,11.0848,0.0892601,-0.300613,-0.267017,0
2024-12-11 14:29:17.958,-0.761217,3.37089,11.135,0.0892601,-0.300613,-0.267017,0
2024-12-11 14:29:17.960,-0.794716,3.35175,11.1924,0.100866,-0.302446,-0.2548,0
2024-12-11 14:29:17.964,-0.835394,3.33978,11.2451,0.114916,-0.304889,-0.240139,0
2024-12-11 14:29:17.967,-0.921835,3.35892,11.3384,0.142404,-0.312219,-0.207764,0
2024-12-11 14:29:17.968,-0.921835,3.35892,11.3384,0.142404,-0.312219,-0.207764,0
2024-12-11 14:29:17.970,-0.940978,3.38525,11.3862,0.142404,-0.312219,-0.207764,0
2024-12-11 14:29:17.972,-0.950549,3.42353,11.4269,0.168059,-0.315884,-0.17539,0
2024-12-11 14:29:17.973,-0.950549,3.42353,11.4269,0.168059,-0.315884,-0.17539,0
2024-12-11 14:29:17.974,-0.96012,3.47378,11.4604,0.168059,-0.315884,-0.17539,0
2024-12-11 14:29:17.978,-0.962513,3.54317,11.4628,0.201656,-0.308554,-0.124078,0
2024-12-11 14:29:17.980,-0.967299,3.60778,11.4748,0.21143,-0.301835,-0.107585,0
2024-12-11 14:29:17.983,-0.964906,3.68465,11.4987,0.219371,-0.295726,-0.0923143,0
2024-12-11 14:29:17.985,-0.984048,3.78754,11.5182,0.223036,-0.288396,-0.0770431,0
2024-12-11 14:29:17.985,-0.984048,3.78754,11.5182,0.223036,-0.288396,-0.0770431,0
2024-12-11 14:29:17.987,-1.01755,3.90957,11.5229,0.223036,-0.288396,-0.0770431,0
2024-12-11 14:29:17.989,-1.05105,4.04357,11.5011,0.229144,-0.277401,-0.0605502,0
2024-12-11 14:29:17.992,-1.09651,4.18953,11.4604,0.227922,-0.270071,-0.0458899,0
2024-12-11 14:29:17.993,-1.1324,4.34058,11.4197,0.223036,-0.264573,-0.0318404,0
2024-12-11 14:29:17.998,-1.1348,4.47219,11.3647,0.206543,-0.259686,-0.00313059,0
2024-12-11 14:29:17.999,-1.08694,4.59183,11.281,0.206543,-0.259686,-0.00313059,0
2024-12-11 14:29:18.000,-1.0008,4.68275,11.1733,0.19005,-0.267017,0.00908635,0
2024-12-11 14:29:18.005,-0.576969,4.6995,10.8906,0.134463,-0.313441,0.0249684,0
2024-12-11 14:29:18.008,-0.289831,4.64208,10.7207,0.0898709,-0.353757,0.0255792,0
2024-12-11 14:29:18.010,0.0287139,4.56551,10.5485,0.0898709,-0.400792,0.022525,0
2024-12-11 14:29:18.013,0.397508,4.4674,10.3591,-0.0964375,-0.518075,0.000534491,0
2024-12-11 14:29:18.015,0.787538,4.35733,10.1749,-0.0964375,-0.518075,0.000534491,0
2024-12-11 14:29:18.017,1.15394,4.24487,10.0409,-0.179513,-0.585268,-0.0184018,0
2024-12-11 14:29:18.017,1.15394,4.24487,10.0409,-0.179513,-0.585268,-0.0184018,0
2024-12-11 14:29:18.022,1.77398,4.01964,9.9332,-0.364599,-0.718433,-0.0727672,0
2024-12-11 14:29:18.022,1.77398,4.01964,9.9332,-0.364599,-0.718433,-0.0727672,0
2024-12-11 14:29:18.024,2.03749,3.90239,10.0098,-0.463557,-0.784404,-0.10392,0
2024-12-11 14:29:18.031,2.65992,3.47378,10.7471,-0.755542,-0.959717,-0.208986,0
2024-12-11 14:29:18.032,2.4682,3.47378,10.7471,-0.839228,-1.00126,-0.245026,0
2024-12-11 14:29:18.034,2.79871,3.32543,11.1183,-0.912529,-1.03119,-0.277401,0
2024-12-11 14:29:18.037,2.87049,3.18664,11.5564,-0.912529,-1.03119,-0.277401,0
2024-12-11 14:29:18.038,2.87049,3.05713,12.0254,-0.912529,-1.03119,-0.277401,0
2024-12-11 14:29:18.040,2.92552,2.90638,12.5043,-1.02859,-1.05562,-0.333599,0
2024-12-11 14:29:18.044,2.92552,2.90638,12.9855,-1.09708,-1.01775,-0.371471,0
2024-12-11 14:29:18.046,3.02842,2.55942,13.4381,-1.09708,-1.01775,-0.371471,0
2024-12-11 14:29:18.046,3.02842,2.55942,13.4381,-1.09708,-1.01775,-0.371471,0
2024-12-11 14:29:18.047,3.11725,2.39163,13.8404,-1.09708,-1.01775,-0.371471,0
2024-12-11 14:29:18.051,3.22014,2.18584,14.2185,-1.11968,-0.930397,-0.39957,0
2024-12-11 14:29:18.052,3.27757,1.97528,14.5992,-1.11357,-0.869312,-0.415452,0
2024-12-11 14:29:18.056,3.25364,1.81944,14.9967,-1.06532,-0.712324,-0.436832,0
2024-12-11 14:29:18.058,3.19621,1.67827,15.3532,-1.02615,-0.61581,-0.445995,0
2024-12-11 14:29:18.059,3.05952,1.59212,15.6,-1.02615,-0.61581,-0.445995,0
2024-12-11 14:29:18.063,2.70778,1.62323,15.7914,-0.922303,-0.414842,-0.431945,0
2024-12-11 14:29:18.065,2.45863,1.52991,15.9853,-0.861218,-0.317717,-0.422783,0
2024-12-11 14:29:18.067,2.52323,1.25922,16.1698,-0.861218,-0.317717,-0.422783,0
2024-12-11 14:29:18.069,2.59292,0.99362,16.2942,-0.792193,-0.223036,-0.413009,0
2024-12-11 14:29:18.071,2.5331,0.775574,16.3134,-0.717669,-0.128965,-0.402625,0
2024-12-11 14:29:18.076,2.11884,0.447757,16.1435,-0.564957,0.0359636,-0.362309,1
2024-12-11 14:29:18.078,1.88166,0.32333,16.0238,-0.482493,0.144694,-0.339097,0
2024-12-11 14:29:18.079,1.88166,0.32333,16.0238,-0.482493,0.144694,-0.339097,0
2024-12-11 14:29:18.084,1.67587,0.11007,15.9589,-0.178291,0.532582,-0.279234,0
2024-12-11 14:29:18.084,1.67587,0.11007,15.9589,-0.178291,0.532582,-0.279234,0
2024-12-11 14:29:18.086,1.5347,0.105284,15.9781,-0.0677277,0.647422,-0.259686,0
2024-12-11 14:29:18.088,1.30229,0.210568,15.8752,-0.0677277,0.647422,-0.259686,0
2024-12-11 14:29:18.090,0.981655,0.385544,15.6431,0.0434465,0.742103,-0.234642,0
2024-12-11 14:29:18.092,0.612862,0.588933,15.3126,0.147901,0.825255,-0.201656,0
2024-12-11 14:29:18.095,0.248854,0.780359,14.9201,0.244415,0.897945,-0.165005,0
2024-12-11 14:29:18.099,-0.292223,1.04626,13.972,0.420339,1.01217,-0.0727672,0
2024-12-11 14:29:18.103,-0.292223,1.1013,13.4548,0.491808,1.05066,-0.0263428,0
2024-12-11 14:29:18.103,-0.438186,1.1013,13.4548,0.491808,1.05066,-0.0263428,0
2024-12-11 14:29:18.104,-0.493221,1.14197,12.9497,0.552282,1.08303,0.0158057,0
2024-12-11 14:29:18.109,-0.507577,1.26879,11.968,0.643299,1.11968,0.0891073,0
2024-12-11 14:29:18.111,-0.531506,1.38844,11.4867,0.675063,1.11846,0.117206,0
2024-12-11 14:29:18.113,-0.553041,1.54427,11.0201,0.699496,1.10747,0.145916,0
2024-12-11 14:29:18.113,-0.553041,1.54427,11.0201,0.699496,1.10747,0.145916,0
2024-12-11 14:29:18.118,-0.588933,1.87926,10.1845,0.715989,1.08181,0.172793,0
2024-12-11 14:29:18.120,-0.576969,2.05424,9.81805,0.722098,0.98774,0.22044,0
2024-12-11 14:29:18.120,-0.576969,2.05424,9.81805,0.722098,0.98774,0.22044,0
2024-12-11 14:29:18.123,-0.495613,2.19063,9.46391,0.712324,0.926655,0.240597,0
2024-12-11 14:29:18.125,-0.371187,2.28634,9.07119,0.712324,0.926655,0.240597,0
2024-12-11 14:29:18.130,-0.212961,2.36291,8.7027,0.623751,0.672466,0.270529,0
2024-12-11 14:29:18.130,-0.040678,2.43948,8.38894,0.623751,0.672466,0.270529,0
2024-12-11 14:29:18.132,0.114855,2.51605,8.11346,0.581603,0.576563,0.270529,0
2024-12-11 14:29:18.136,0.297009,2.57857,7.90529,0.531513,0.478217,0.264421,0
2024-12-11 14:29:18.137,0.538684,2.66231,7.79522,0.479591,0.378038,0.252204,0
2024-12-11 14:29:18.139,0.797109,2.73888,7.73779,0.424004,0.277859,0.234489,0
2024-12-11 14:29:18.142,1.05583,2.77717,7.72343,0.370861,0.181956,0.213109,0
2024-12-11 14:29:18.145,1.30229,2.80828,7.7665,0.317717,0.0897182,0.1844,0
2024-12-11 14:29:18.149,1.7668,2.80588,7.9005,0.22609,-0.0794865,0.119039,0
2024-12-11 14:29:18.152,1.98724,2.8011,8.00579,0.14668,-0.223036,0.0402396,0
2024-12-11 14:29:18.154,2.18106,2.77956,8.11346,0.14668,-0.223036,0.0402396,0
2024-12-11 14:29:18.156,2.33181,2.74606,8.20469,0.14668,-0.223036,0.0402396,0
2024-12-11 14:29:18.156,2.33181,2.74606,8.20469,0.14668,-0.223036,0.0402396,0
2024-12-11 14:29:18.160,2.51366,2.66949,8.3674,0.0458899,-0.369028,-0.0886492,0
2024-12-11 14:29:18.161,2.51366,2.66949,8.3674,0.0458899,-0.369028,-0.0886492,0
2024-12-11 14:29:18.163,2.56421,2.62642,8.47747,0.0184018,-0.403236,-0.132019,0
2024-12-11 14:29:18.166,2.56899,2.60249,8.60668,-0.00725381,-0.431945,-0.17539,0
2024-12-11 14:29:18.170,2.54985,2.59292,8.73859,-0.0494023,-0.464931,-0.260908,0
2024-12-11 14:29:18.171,2.51605,2.58814,8.90369,-0.0628409,-0.472872,-0.301835,0
2024-12-11 14:29:18.172,2.4682,2.5666,9.09512,-0.0628409,-0.472872,-0.301835,0
2024-12-11 14:29:18.175,2.4012,2.53549,9.30359,-0.0707819,-0.470429,-0.339707,0
2024-12-11 14:29:18.179,2.13081,2.4658,9.70319,-0.0713928,-0.449049,-0.405068,0
2024-12-11 14:29:18.182,1.9657,2.42752,9.87578,-0.0567324,-0.42828,-0.432556,0
2024-12-11 14:29:18.184,1.77637,2.36052,10.0122,-0.0390179,-0.39896,-0.453325,0
2024-12-11 14:29:18.184,1.77637,2.36052,10.0122,-0.0390179,-0.39896,-0.453325,0
2024-12-11 14:29:18.189,1.37169,2.21216,10.1342,0.00618483,-0.332988,-0.477759,0
2024-12-11 14:29:18.190,1.57537,2.27438,10.1342,0.00618483,-0.332988,-0.477759,0
2024-12-11 14:29:18.192,1.16112,2.14756,10.1318,0.0599394,-0.252967,-0.47837,0
2024-12-11 14:29:18.193,0.940978,2.08774,10.084,0.0599394,-0.252967,-0.47837,0
2024-12-11 14:29:18.198,0.519542,1.95823,9.86621,0.110029,-0.169281,-0.457601,0
2024-12-11 14:29:18.201,0.368794,1.94387,9.72712,0.133852,-0.126522,-0.441108,0
2024-12-11 14:29:18.203,0.229711,1.93669,9.5692,0.133852,-0.126522,-0.441108,0
2024-12-11 14:29:18.205,0.229711,1.9343,9.37538,0.170503,-0.0434465,-0.395905,0
2024-12-11 14:29:18.206,0.0981057,1.9343,9.37538,0.170503,-0.0434465,-0.395905,0
2024-12-11 14:29:18.211,-0.0191426,1.96062,8.99941,0.199823,0.0713928,-0.318939,0
2024-12-11 14:29:18.211,-0.136391,1.96062,8.99941,0.199823,0.0713928,-0.318939,0
2024-12-11 14:29:18.212,-0.236889,2.00399,8.83909,0.199823,0.0713928,-0.318939,0
2024-12-11 14:29:18.215,-0.311366,2.04467,8.68325,0.205932,0.106211,-0.292672,0
2024-12-11 14:29:18.217,-0.361615,2.09252,8.54686,0.205932,0.138586,-0.266406,0
2024-12-11 14:29:18.220,-0.392722,2.13559,8.42244,0.207154,0.167296,-0.238918,0
2024-12-11 14:29:18.223,-0.421436,2.1667,8.27169,0.203488,0.193562,-0.21143,0
2024-12-11 14:29:18.225,-0.452543,2.19781,8.12303,0.19005,0.243041,-0.16134,0
2024-12-11 14:29:18.226,-0.469292,2.22891,7.98186,0.19005,0.243041,-0.16134,0
2024-12-11 14:29:18.230,-0.474078,2.24806,7.85265,0.183331,0.266864,-0.136906,0
2024-12-11 14:29:18.234,-0.4334,2.29113,7.63968,0.160118,0.30718,-0.0874275,0
2024-12-11 14:29:18.234,-0.4334,2.29113,7.63968,0.160118,0.30718,-0.0874275,0
2024-12-11 14:29:18.238,-0.385544,2.32463,7.53649,0.13263,0.340776,-0.0440574,0
2024-12-11 14:29:18.238,-0.335294,2.35813,7.53649,0.13263,0.340776,-0.0440574,0
2024-12-11 14:29:18.241,-0.263211,2.3988,7.50778,0.121635,0.354826,-0.0269536,0
2024-12-11 14:29:18.243,-0.193819,2.43709,7.49821,0.110029,0.367043,-0.0116825,0
2024-12-11 14:29:18.245,-0.124427,2.45623,7.50539,0.101477,0.374373,0.00114534,0
2024-12-11 14:29:18.250,0.0215354,2.51605,7.55324,0.0868167,0.390255,0.0206925,0
2024-12-11 14:29:18.250,0.0215354,2.51605,7.55324,0.0868167,0.390255,0.0206925,0
2024-12-11 14:29:18.252,0.0741775,2.55942,7.58944,0.081319,0.392088,0.0280226,0
2024-12-11 14:29:18.256,0.141177,2.59532,7.61097,0.0807082,0.389033,0.0335202,0
2024-12-11 14:29:18.257,0.208176,2.62881,7.65643,0.0807082,0.389033,0.0335202,0
2024-12-11 14:29:18.259,0.263211,2.67906,7.71147,0.0800973,0.38659,0.0341311,0
2024-12-11 14:29:18.262,0.30658,2.72453,7.74975,0.0831516,0.379871,0.0286335,0
2024-12-11 14:29:18.265,0.352044,2.73888,7.78325,0.0947577,0.364599,0.0206925,0
2024-12-11 14:29:18.266,0.397508,2.76042,7.84547,0.0947577,0.364599,0.0206925,0
2024-12-11 14:29:18.269,0.440578,2.77478,7.92204,0.100255,0.355437,0.0133623,0
2024-12-11 14:29:18.271,0.462114,2.78674,7.98425,0.114916,0.345663,0.00419957,0
2024-12-11 14:29:18.275,0.4669,2.80349,8.05125,0.144236,0.326116,-0.0122933,0
2024-12-11 14:29:18.276,0.457328,2.82263,8.12303,0.144236,0.326116,-0.0122933,0
2024-12-11 14:29:18.281,0.4334,2.82742,8.22862,0.163173,0.318175,-0.0202343,0
2024-12-11 14:29:18.281,0.390329,2.82742,8.22862,0.163173,0.318175,-0.0202343,0
2024-12-11 14:29:18.283,0.318545,2.82503,8.24776,0.205932,0.301682,-0.0306187,0
2024-12-11 14:29:18.285,0.253639,2.81785,8.24776,0.228533,0.295574,-0.033673,0
2024-12-11 14:29:18.288,0.200997,2.80828,8.21905,0.249913,0.29313,-0.0367272,0
2024-12-11 14:29:18.291,0.145962,2.80828,8.16401,0.293894,0.276027,-0.0300079,0
2024-12-11 14:29:18.292,0.0933201,2.80588,8.08953,0.293894,0.276027,-0.0300079,0
2024-12-11 14:29:18.296,0.0358923,2.81306,7.98664,0.329934,0.261366,-0.0220669,0
2024-12-11 14:29:18.297,-0.0239282,2.85374,7.88615,0.329934,0.261366,-0.0220669,0
2024-12-11 14:29:18.300,-0.0765703,2.89442,7.78565,0.340929,0.249149,-0.0147367,0
2024-12-11 14:29:18.302,-0.112463,2.92313,7.6684,0.351924,0.24243,-0.00801737,0
2024-12-11 14:29:18.304,-0.141177,2.94706,7.53649,0.351924,0.24243,-0.00801737,0
2024-12-11 14:29:18.306,-0.167498,2.97577,7.41685,0.359865,0.222272,0.00542127,0
2024-12-11 14:29:18.309,-0.193819,3.01884,7.31635,0.361087,0.211888,0.0115297,0
2024-12-11 14:29:18.311,-0.217747,3.04038,7.21825,0.3562,0.202725,0.0194708,0
2024-12-11 14:29:18.315,-0.217747,3.05952,7.12014,0.349481,0.190508,0.0243575,0
2024-12-11 14:29:18.318,-0.208176,3.08854,6.91167,0.328712,0.167907,0.0390179,0
2024-12-11 14:29:18.318,-0.212961,3.12682,6.91167,0.328712,0.167907,0.0390179,0
2024-12-11 14:29:18.321,-0.229711,3.17946,6.83271,0.312219,0.159355,0.0432938,0
2024-12-11 14:29:18.323,-0.239282,3.19621,6.75374,0.293283,0.150192,0.0512348,0
2024-12-11 14:29:18.325,-0.253639,3.22732,6.68196,0.272514,0.141029,0.0597867,0
2024-12-11 14:29:18.328,-0.270389,3.27757,6.63889,0.24808,0.135532,0.0689494,0
2024-12-11 14:29:18.331,-0.287438,3.3015,6.6006,0.201656,0.126369,0.0829989,0
2024-12-11 14:29:18.335,-0.304188,3.35653,6.59103,0.17539,0.122093,0.0897182,0
2024-12-11 14:29:18.335,-0.304188,3.35653,6.59103,0.17539,0.122093,0.0897182,0
2024-12-11 14:29:18.337,-0.27996,3.37807,6.61257,0.148512,0.120261,0.100103,0
2024-12-11 14:29:18.339,-0.239282,3.39482,6.65085,0.123468,0.118428,0.106822,0
2024-12-11 14:29:18.342,-0.174676,3.3996,6.71306,0.0990336,0.115985,0.113541,0
2024-12-11 14:29:18.344,-0.107677,3.39482,6.78963,0.0727672,0.110487,0.117206,0
2024-12-11 14:29:18.349,0.0239282,3.3685,7.03879,0.0507767,0.103157,0.120261,0
2024-12-11 14:29:18.352,0.0741775,3.35414,7.2015,0.0110716,0.0897182,0.123926,0
2024-12-11 14:29:18.355,0.102891,3.35653,7.36182,-0.0164165,0.0805555,0.122704,0
2024-12-11 14:29:18.355,0.102891,3.35653,7.36182,-0.0164165,0.0805555,0.122704,0
2024-12-11 14:29:18.356,0.124427,3.35175,7.52692,-0.0164165,0.0805555,0.122704,0
2024-12-11 14:29:18.358,0.138784,3.34218,7.67797,-0.0243575,0.0775012,0.122704,0
2024-12-11 14:29:18.362,0.162712,3.33739,7.79043,-0.0286335,0.0750579,0.127591,0
2024-12-11 14:29:18.363,0.198604,3.32064,7.9005,-0.0286335,0.0750579,0.127591,0
2024-12-11 14:29:18.366,0.227318,3.30389,7.99621,-0.0310769,0.0720036,0.131867,0
2024-12-11 14:29:18.369,0.244068,3.27278,8.07996,-0.0335202,0.0689494,0.135532,0
2024-12-11 14:29:18.373,0.239282,3.25364,8.27169,-0.0292443,0.0640626,0.144694,0
2024-12-11 14:29:18.373,0.239282,3.25364,8.27169,-0.0292443,0.0640626,0.144694,0
2024-12-11 14:29:18.376,0.244068,3.24407,8.3674,-0.0280226,0.0616192,0.14897,0
2024-12-11 14:29:18.377,0.246461,3.23689,8.47986,-0.0255792,0.0610084,0.155079,0
2024-12-11 14:29:18.379,0.246461,3.23689,8.61865,-0.022525,0.0567324,0.159966,0
2024-12-11 14:29:18.382,0.253639,3.23211,8.78405,-0.0164165,0.058565,0.164242,0
2024-12-11 14:29:18.387,0.256032,3.25125,9.16451,-0.00175619,0.058565,0.168517,0
2024-12-11 14:29:18.389,0.232104,3.25843,9.32034,0.029397,0.0781121,0.183178,0
2024-12-11 14:29:18.390,0.232104,3.25843,9.32034,0.0526092,0.0921616,0.189286,0
2024-12-11 14:29:18.392,0.205783,3.2345,9.44716,0.0758214,0.110487,0.200892,0
2024-12-11 14:29:18.394,0.155533,3.22971,9.53809,0.0758214,0.110487,0.200892,0
2024-12-11 14:29:18.396,0.11007,3.23689,9.60509,0.100866,0.130034,0.211277,0
2024-12-11 14:29:18.401,0.026321,3.22493,9.65773,0.149734,0.173404,0.239987,0
2024-12-11 14:29:18.402,0.026321,3.22493,9.65773,0.172335,0.200282,0.25709,0
2024-12-11 14:29:18.405,-0.0646062,3.25364,9.55963,0.191272,0.22105,0.274194,0
2024-12-11 14:29:18.406,-0.0646062,3.25364,9.55963,0.191272,0.22105,0.274194,0
2024-12-11 14:29:18.408,-0.102891,3.27039,9.48784,0.210819,0.243041,0.293741,0
2024-12-11 14:29:18.410,-0.122034,3.28953,9.39691,0.222425,0.263199,0.315121,0
2024-12-11 14:29:18.412,-0.122034,3.31825,9.31316,0.235253,0.282135,0.332835,0
2024-12-11 14:29:18.416,-0.11007,3.3685,9.22194,0.245026,0.308401,0.36521,0
2024-12-11 14:29:18.417,-0.100499,3.43071,9.10948,0.245026,0.308401,0.36521,0
2024-12-11 14:29:18.420,-0.0885344,3.48574,9.00898,0.245026,0.308401,0.36521,0
2024-12-11 14:29:18.424,0.00717847,3.57428,8.82234,0.239528,0.328559,0.402472,0
2024-12-11 14:29:18.425,0.00717847,3.57428,8.82234,0.229755,0.330392,0.411635,0
2024-12-11 14:29:18.429,0.122034,3.65833,8.65215,0.216927,0.329781,0.417743,0
2024-12-11 14:29:18.429,0.122034,3.65833,8.65215,0.216927,0.329781,0.417743,0
2024-12-11 14:29:18.434,0.260818,3.74447,8.56601,0.183941,0.316953,0.423241,0
2024-12-11 14:29:18.435,0.260818,3.74447,8.56601,0.183941,0.316953,0.423241,0
2024-12-11 14:29:18.439,0.383151,3.8019,8.55643,0.143625,0.298017,0.420187,0
2024-12-11 14:29:18.441,0.445364,3.82822,8.58036,0.126522,0.288244,0.414689,0
2024-12-11 14:29:18.443,0.481256,3.84018,8.6354,0.104531,0.277859,0.406748,0
2024-12-11 14:29:18.443,0.481256,3.84018,8.6354,0.104531,0.277859,0.406748,0
2024-12-11 14:29:18.449,0.598505,3.84975,8.79362,0.0458899,0.233267,0.381092,0
2024-12-11 14:29:18.450,0.658325,3.8354,8.89412,0.0458899,0.233267,0.381092,0
2024-12-11 14:29:18.452,0.696611,3.82582,8.99701,0.029397,0.21372,0.370708,0
2024-12-11 14:29:18.456,0.720539,3.80907,9.0999,0.0129041,0.194173,0.357269,0
2024-12-11 14:29:18.457,0.739681,3.78036,9.20758,0.0129041,0.194173,0.357269,0
2024-12-11 14:29:18.460,0.773181,3.74208,9.30838,-0.0151948,0.153857,0.331614,0
2024-12-11 14:29:18.460,0.773181,3.74208,9.30838,-0.0151948,0.153857,0.331614,0
2024-12-11 14:29:18.462,0.811466,3.70379,9.41366,-0.0274118,0.133088,0.318175,0
2024-12-11 14:29:18.467,0.9003,3.60778,9.60509,-0.0512348,0.094605,0.292519,0
2024-12-11 14:29:18.468,0.854836,3.65593,9.60509,-0.0622301,0.074447,0.277248,0
2024-12-11 14:29:18.469,0.945763,3.5671,9.72234,-0.0622301,0.074447,0.277248,0
2024-12-11 14:29:18.471,1.00319,3.52882,9.8351,-0.0720036,0.058565,0.260755,0
2024-12-11 14:29:18.475,1.02712,3.49292,9.94756,-0.0842206,0.0255792,0.229602,0
2024-12-11 14:29:18.477,1.03669,3.45224,10.1079,-0.0897182,0.0127514,0.216164,0
2024-12-11 14:29:18.478,1.05105,3.40917,10.2658,-0.0897182,0.0127514,0.216164,0
2024-12-11 14:29:18.481,1.04865,3.34935,10.4001,-0.0921616,0.000534491,0.200282,0
2024-12-11 14:29:18.483,1.04865,3.30389,10.5365,-0.0939941,-0.0104608,0.186843,0
2024-12-11 14:29:18.485,1.04865,3.25603,10.6777,-0.0884965,-0.0177909,0.173404,0
2024-12-11 14:29:18.489,1.01276,3.18903,10.8069,-0.082388,-0.0263428,0.153857,0
2024-12-11 14:29:18.490,0.969691,3.13639,10.9436,-0.082388,-0.0263428,0.153857,0
2024-12-11 14:29:18.495,0.933799,3.07867,11.0776,-0.0634518,-0.0251211,0.142862,0
2024-12-11 14:29:18.496,0.888335,3.00688,11.1948,-0.0494023,-0.0165692,0.141029,0
2024-12-11 14:29:18.497,0.837787,2.94706,11.3169,-0.0494023,-0.0165692,0.141029,0
2024-12-11 14:29:18.500,0.789931,2.89442,11.4389,-0.0365745,-0.00618483,0.142251,0
2024-12-11 14:29:18.502,0.742074,2.8322,11.5564,-0.0194708,0.00786466,0.144694,0
2024-12-11 14:29:18.504,0.703789,2.78674,11.6665,-0.00236703,0.0231358,0.150803,0
2024-12-11 14:29:18.507,0.684646,2.75085,11.7455,0.0226777,0.0420721,0.158744,0
2024-12-11 14:29:18.510,0.651147,2.74367,11.8316,0.073378,0.0964375,0.178902,0
2024-12-11 14:29:18.511,0.600898,2.76042,11.9369,0.073378,0.0964375,0.178902,0
2024-12-11 14:29:18.514,0.569791,2.77717,11.9967,0.102088,0.12698,0.192951,0
2024-12-11 14:29:18.517,0.538684,2.78674,12.047,0.169281,0.199671,0.226548,0
2024-12-11 14:29:18.518,0.486042,2.80828,12.0855,0.169281,0.199671,0.226548,0
2024-12-11 14:29:18.521,0.41665,2.85374,12.1214,0.205932,0.241819,0.243041,0
2024-12-11 14:29:18.523,0.342473,2.91117,12.1549,0.241972,0.285189,0.264421,0
2024-12-11 14:29:18.525,0.270389,3.00927,12.1549,0.281677,0.330392,0.283357,0
2024-12-11 14:29:18.528,0.205783,3.14118,12.1286,0.318939,0.376206,0.303515,0
2024-12-11 14:29:18.531,0.138784,3.25843,12.0541,0.358033,0.423852,0.321229,0
2024-12-11 14:29:18.533,0.0837488,3.38764,11.9489,0.395295,0.467833,0.338333,0
2024-12-11 14:29:18.536,0.0430708,3.51446,11.8196,0.464931,0.549686,0.368265,0
2024-12-11 14:29:18.538,-0.0191426,3.62214,11.6521,0.464931,0.549686,0.368265,0
2024-12-11 14:29:18.544,-0.198604,3.98614,10.9385,0.530292,0.629096,0.397585,0
2024-12-11 14:29:18.547,-0.198604,4.12014,10.6777,0.540676,0.643146,0.402472,0
2024-12-11 14:29:18.549,-0.246461,4.2329,10.4384,0.546785,0.647422,0.406137,0
2024-12-11 14:29:18.550,-0.292223,4.2329,10.4384,0.546785,0.647422,0.406137,0
2024-12-11 14:29:18.551,-0.332901,4.35972,10.2036,0.540065,0.646811,0.403083,0
2024-12-11 14:29:18.555,-0.352044,4.49133,9.99781,0.52907,0.638259,0.40125,0
2024-12-11 14:29:18.556,-0.352044,4.61097,9.82314,0.52907,0.638259,0.40125,0
2024-12-11 14:29:18.558,-0.392722,4.71625,9.66012,0.490587,0.60283,0.385979,0
2024-12-11 14:29:18.561,-0.435793,4.82184,9.50938,0.490587,0.60283,0.385979,0
2024-12-11 14:29:18.563,-0.486042,4.91755,9.36581,0.465542,0.541134,0.359713,0
2024-12-11 14:29:18.564,-0.486042,4.91755,9.36581,0.465542,0.541134,0.359713,0
2024-12-11 14:29:18.566,-0.533899,4.99412,9.22912,0.398349,0.503873,0.343831,0
2024-12-11 14:29:18.570,-0.498006,5.07548,8.98983,0.31283,0.414078,0.305958,0
2024-12-11 14:29:18.571,-0.498006,5.07548,8.98983,0.260297,0.362156,0.281524,0
2024-12-11 14:29:18.573,-0.41665,5.06112,8.84387,0.260297,0.362156,0.281524,0
2024-12-11 14:29:18.576,-0.30658,5.01805,8.69043,0.197991,0.30046,0.25648,0
2024-12-11 14:29:18.580,-0.222533,4.87209,8.47508,0.126522,0.233878,0.228381,0
2024-12-11 14:29:18.582,-0.117248,4.75693,8.43201,-0.0280226,0.0836097,0.167296,0
2024-12-11 14:29:18.583,-0.00239282,4.75693,8.43201,-0.116595,0.00358873,0.13431,0
2024-12-11 14:29:18.585,0.0933201,4.62293,8.44397,-0.116595,0.00358873,0.13431,0
2024-12-11 14:29:18.589,0.34008,4.23051,8.7003,-0.207612,-0.155842,0.0695602,0
2024-12-11 14:29:18.592,0.45015,3.98854,8.92523,-0.395142,-0.227312,0.0359636,0
2024-12-11 14:29:18.595,0.548256,3.71575,9.23869,-0.569233,-0.350703,-0.0208452,0
2024-12-11 14:29:18.597,0.548256,3.71575,9.62423,-0.569233,-0.350703,-0.0208452,0
2024-12-11 14:29:18.600,0.71336,3.16511,10.0265,-0.715837,-0.450271,-0.0721563,0
2024-12-11 14:29:18.601,0.76361,2.91356,10.4432,-0.715837,-0.450271,-0.0721563,0
2024-12-11 14:29:18.603,0.773181,2.66949,10.9241,-0.715837,-0.450271,-0.0929251,0
2024-12-11 14:29:18.606,0.739681,2.43948,11.4604,-0.822124,-0.509523,-0.108807,0
2024-12-11 14:29:18.608,0.684646,2.19541,12.0015,-0.822124,-0.509523,-0.108807,0
2024-12-11 14:29:18.610,0.639183,1.95344,12.5545,-0.881376,-0.526016,-0.127743,0
2024-12-11 14:29:18.614,0.63679,1.71894,13.0789,-0.885041,-0.502804,-0.141793,0
2024-12-11 14:29:18.616,0.622433,1.49163,13.608,-0.885041,-0.502804,-0.141793,0
2024-12-11 14:29:18.617,0.572184,1.30947,14.1634,-0.885041,-0.502804,-0.141793,0
2024-12-11 14:29:18.620,0.521934,1.14437,14.6471,-0.837395,-0.431335,-0.138128,0
2024-12-11 14:29:18.621,0.521934,1.14437,14.6471,-0.837395,-0.431335,-0.138128,0
2024-12-11 14:29:18.623,0.476471,0.991227,15.0565,-0.788527,-0.375137,-0.133852,0
2024-12-11 14:29:18.625,0.459721,0.837787,15.4035,-0.728664,-0.314663,-0.127133,0
2024-12-11 14:29:18.628,0.545863,0.632004,15.667,-0.586948,-0.186385,-0.107585,0
2024-12-11 14:29:18.632,0.4669,0.299402,16.0717,-0.503873,-0.127133,-0.0953685,1
2024-12-11 14:29:18.632,0.4669,0.299402,16.0717,-0.503873,-0.127133,-0.0953685,1
2024-12-11 14:29:18.634,0.138784,0.304188,16.2727,-0.503873,-0.127133,-0.0953685,0
2024-12-11 14:29:18.639,-0.129212,0.335294,16.2847,-0.211888,0.11232,-0.0177909,0
2024-12-11 14:29:18.640,-0.32333,0.361615,16.2847,-0.211888,0.11232,-0.0177909,0
2024-12-11 14:29:18.641,-0.41665,0.366401,16.1937,-0.101935,0.201503,0.014584,0
2024-12-11 14:29:18.646,-0.349651,0.287438,15.7268,0.111251,0.362767,0.0842206,0
2024-12-11 14:29:18.647,-0.349651,0.287438,15.7268,0.210819,0.426906,0.116595,0
2024-12-11 14:29:18.649,-0.313759,0.234497,15.3963,0.298781,0.481882,0.146527,0
2024-12-11 14:29:18.651,-0.313759,0.215354,14.9632,0.385521,0.528307,0.174015,0
2024-12-11 14:29:18.654,-0.349651,0.239282,14.4844,0.385521,0.528307,0.174015,0
2024-12-11 14:29:18.655,-0.402293,0.304188,13.9744,0.385521,0.528307,0.174015,0
2024-12-11 14:29:18.660,-0.464507,0.548256,12.9162,0.509523,0.592445,0.223494,0
2024-12-11 14:29:18.660,-0.464507,0.548256,12.9162,0.509523,0.592445,0.223494,0
2024-12-11 14:29:18.663,-0.447757,0.667897,12.4277,0.617032,0.651698,0.27847,0
2024-12-11 14:29:18.664,-0.411865,0.780359,11.9441,0.617032,0.651698,0.27847,0
2024-12-11 14:29:18.667,-0.344866,0.893121,11.4796,0.630471,0.662693,0.288244,0
2024-12-11 14:29:18.670,-0.304188,0.988834,11.0345,0.636579,0.668801,0.29985,0
2024-12-11 14:29:18.672,-0.299402,1.0989,10.637,0.636579,0.668801,0.29985,0
2024-12-11 14:29:18.674,-0.30658,1.21376,10.2945,0.628638,0.666358,0.302293,0
2024-12-11 14:29:18.676,-0.308973,1.29272,9.94995,0.616421,0.665747,0.304736,0
2024-12-11 14:29:18.679,-0.277567,1.35733,9.60987,0.598707,0.659028,0.305347,0
2024-12-11 14:29:18.682,-0.256032,1.42223,9.30359,0.541287,0.635205,0.29985,0
2024-12-11 14:29:18.683,-0.256032,1.48684,9.01855,0.541287,0.635205,0.29985,0
2024-12-11 14:29:18.686,-0.258425,1.55384,8.7673,0.502193,0.61749,0.298017,0
2024-12-11 14:29:18.689,-0.267996,1.60409,8.53729,0.461877,0.596111,0.291298,0
2024-12-11 14:29:18.690,-0.272782,1.65912,8.34347,0.415452,0.572898,0.2858,0
2024-12-11 14:29:18.694,-0.285045,1.7333,8.21665,0.367196,0.54541,0.281524,0
2024-12-11 14:29:18.697,-0.318545,1.80269,8.06082,0.268849,0.487991,0.266253,0
2024-12-11 14:29:18.703,-0.297009,1.88166,8.06561,0.128965,0.404305,0.239987,0
2024-12-11 14:29:18.705,-0.270389,1.90558,8.10868,0.128965,0.404305,0.239987,0
2024-12-11 14:29:18.707,-0.270389,1.91755,8.15923,0.0886492,0.374984,0.229602,0
2024-12-11 14:29:18.707,-0.253639,1.91755,8.15923,0.0886492,0.374984,0.229602,0
2024-12-11 14:29:18.712,-0.244068,1.92712,8.31237,0.0532201,0.346885,0.216164,0
2024-12-11 14:29:18.714,-0.191426,1.92473,8.42483,-0.0115297,0.290687,0.191119,0
2024-12-11 14:29:18.716,-0.177069,1.91755,8.5349,-0.0414613,0.259534,0.175848,0
2024-12-11 14:29:18.719,-0.191426,1.9008,8.65693,-0.0414613,0.259534,0.175848,0
2024-12-11 14:29:18.721,-0.196211,1.89601,8.80319,-0.0854423,0.194173,0.151414,0
2024-12-11 14:29:18.723,-0.174676,1.88883,8.94916,-0.100713,0.159355,0.137364,0
2024-12-11 14:29:18.728,-0.157926,1.84816,9.22433,-0.121482,0.0939941,0.114763,0
2024-12-11 14:29:18.728,-0.12682,1.84816,9.22433,-0.121482,0.0939941,0.114763,0
2024-12-11 14:29:18.730,-0.0933201,1.83141,9.36341,-0.127591,0.0671168,0.103768,0
2024-12-11 14:29:18.734,-0.0693919,1.80748,9.50698,-0.126369,0.0408504,0.0921616,0
2024-12-11 14:29:18.735,-0.040678,1.78355,9.62663,-0.124536,0.0200816,0.0805555,0
2024-12-11 14:29:18.740,0.00478565,1.74287,9.77259,-0.111098,-0.0171801,0.0603975,0
2024-12-11 14:29:18.741,0.00478565,1.74287,9.77259,-0.0994917,-0.0287862,0.0524565,0
2024-12-11 14:29:18.742,0.0215354,1.7333,9.81326,-0.0994917,-0.0287862,0.0524565,0
2024-12-11 14:29:18.745,0.0382852,1.7333,9.83988,-0.0891073,-0.0410031,0.0420721,0
2024-12-11 14:29:18.745,0.0382852,1.7333,9.83988,-0.0891073,-0.0410031,0.0420721,0
2024-12-11 14:29:18.747,0.066999,1.7333,9.84467,-0.0768904,-0.0483333,0.0335202,0
2024-12-11 14:29:18.750,0.107677,1.72134,9.84228,-0.0689494,-0.0581068,0.0231358,0
2024-12-11 14:29:18.752,0.148355,1.72134,9.84946,-0.0579541,-0.0605502,0.0133623,0
2024-12-11 14:29:18.754,0.189033,1.71416,9.83749,-0.0475697,-0.0648262,0.00419957,0
2024-12-11 14:29:18.756,0.212961,1.71655,9.81805,-0.0408504,-0.0648262,-0.00740652,0
2024-12-11 14:29:18.760,0.200997,1.72852,9.8013,-0.0213033,-0.0562743,-0.0269536,0
2024-12-11 14:29:18.761,0.181855,1.74048,9.7678,-0.0213033,-0.0562743,-0.0269536,0
2024-12-11 14:29:18.764,0.138784,1.75723,9.73669,-0.0133623,-0.0452791,-0.0361163,0
2024-12-11 14:29:18.764,0.138784,1.75723,9.73669,-0.0133623,-0.0452791,-0.0361163,0
2024-12-11 14:29:18.766,0.0909273,1.76201,9.69123,-0.00725381,-0.0318404,-0.0434465,0
2024-12-11 14:29:18.770,0.0167498,1.7668,9.55005,0.00618483,-0.00923906,-0.0550526,0
2024-12-11 14:29:18.771,0.0167498,1.7668,9.55005,0.00618483,-0.00923906,-0.0550526,0
2024-12-11 14:29:18.773,-0.0382852,1.77637,9.49502,0.00923906,0.00358873,-0.0593285,0
2024-12-11 14:29:18.775,-0.0861416,1.78355,9.41845,0.0110716,0.0127514,-0.0611611,0
2024-12-11 14:29:18.777,-0.131605,1.80269,9.33709,0.013515,0.0231358,-0.0629936,0
2024-12-11 14:29:18.781,-0.174676,1.82662,9.27009,0.0122933,0.0457372,-0.0636045,0
2024-12-11 14:29:18.782,-0.222533,1.84816,9.20758,0.0122933,0.0457372,-0.0636045,0
2024-12-11 14:29:18.785,-0.275175,1.86969,9.15255,0.0104608,0.0591758,-0.0623828,0
2024-12-11 14:29:18.787,-0.325723,1.90798,9.08794,0.00740652,0.0707819,-0.0617719,0
2024-12-11 14:29:18.789,-0.35683,1.94387,9.04008,0.00251974,0.0829989,-0.0593285,0
2024-12-11 14:29:18.792,-0.383151,1.97528,9.01137,0.00129805,0.0915507,-0.0581068,0
2024-12-11 14:29:18.795,-0.409472,2.00399,8.98983,-0.00725381,0.104379,-0.0556635,0
2024-12-11 14:29:18.796,-0.431007,2.04467,8.9683,-0.00725381,0.104379,-0.0556635,0
2024-12-11 14:29:18.799,-0.445364,2.08774,8.9348,-0.00847551,0.108654,-0.0519984,0
2024-12-11 14:29:18.801,-0.447757,2.11167,8.89891,-0.014584,0.108654,-0.0526092,0
2024-12-11 14:29:18.803,-0.447757,2.12363,8.86541,-0.0176382,0.111709,-0.0532201,0
2024-12-11 14:29:18.806,-0.442971,2.14038,8.8343,-0.0206925,0.108044,-0.0532201,0
2024-12-11 14:29:18.808,-0.421436,2.17149,8.79362,-0.0249684,0.106822,-0.0532201,0
2024-12-11 14:29:18.810,-0.395115,2.19063,8.7697,-0.030466,0.103768,-0.0562743,0
2024-12-11 14:29:18.814,-0.392722,2.19781,8.75534,-0.038407,0.0952158,-0.0617719,0
2024-12-11 14:29:18.815,-0.385544,2.20977,8.74098,-0.042683,0.086664,-0.0678804,0
2024-12-11 14:29:18.819,-0.387936,2.21695,8.77209,-0.0512348,0.0707819,-0.0794865,0
2024-12-11 14:29:18.820,-0.411865,2.23609,8.81994,-0.0512348,0.0707819,-0.0794865,0
2024-12-11 14:29:18.822,-0.421436,2.25524,8.84626,-0.0548999,0.0603975,-0.0849841,0
2024-12-11 14:29:18.825,-0.442971,2.24806,8.88455,-0.0567324,0.0494023,-0.0904818,0
2024-12-11 14:29:18.828,-0.464507,2.25045,8.92284,-0.0573433,0.0396287,-0.0965902,0
2024-12-11 14:29:18.829,-0.469292,2.26959,8.94198,-0.0555107,0.0310769,-0.101477,0
2024-12-11 14:29:18.832,-0.488435,2.26481,8.95634,-0.0542891,0.0268009,-0.104531,0
2024-12-11 14:29:18.835,-0.514756,2.25284,8.98266,-0.0500131,0.0182491,-0.11064,0
2024-12-11 14:29:18.836,-0.514756,2.25763,8.98983,-0.0500131,0.0182491,-0.11064,0
2024-12-11 14:29:18.841,-0.505185,2.26481,8.95155,-0.0481806,0.0200816,-0.111251,0
2024-12-11 14:29:18.841,-0.505185,2.26481,8.95155,-0.0481806,0.0200816,-0.111251,0
2024-12-11 14:29:18.844,-0.514756,2.28395,8.93959,-0.042683,0.0255792,-0.115526,0
2024-12-11 14:29:18.846,-0.531506,2.28156,8.94676,-0.0408504,0.0329094,-0.115526,0
2024-12-11 14:29:18.849,-0.565005,2.28634,8.94676,-0.0377962,0.0432938,-0.116137,0
2024-12-11 14:29:18.850,-0.572184,2.31984,8.93241,-0.0377962,0.0432938,-0.116137,0
2024-12-11 14:29:18.853,-0.565005,2.34616,8.91087,-0.0365745,0.0487914,-0.115526,0
2024-12-11 14:29:18.856,-0.574577,2.3677,8.88455,-0.0365745,0.0512348,-0.116137,0
2024-12-11 14:29:18.860,-0.586541,2.37009,8.81037,-0.0377962,0.0671168,-0.115526,0
2024-12-11 14:29:18.860,-0.586541,2.37009,8.81037,-0.0377962,0.0671168,-0.115526,0
2024-12-11 14:29:18.862,-0.591326,2.37966,8.74098,-0.0414613,0.0768904,-0.116748,0
2024-12-11 14:29:18.866,-0.60329,2.38684,8.67129,-0.0542891,0.0915507,-0.117359,0
2024-12-11 14:29:18.868,-0.610469,2.38684,8.61625,-0.0603975,0.0982701,-0.118581,0
2024-12-11 14:29:18.870,-0.617647,2.39163,8.55404,-0.0603975,0.0982701,-0.118581,0
2024-12-11 14:29:18.874,-0.651147,2.3988,8.45833,-0.0817772,0.102546,-0.122857,0
2024-12-11 14:29:18.874,-0.651147,2.3988,8.45833,-0.0817772,0.102546,-0.122857,0
2024-12-11 14:29:18.879,-0.663111,2.40838,8.42722,-0.107433,0.0970484,-0.127133,0
2024-12-11 14:29:18.879,-0.65354,2.38206,8.42722,-0.107433,0.0970484,-0.127133,0
2024-12-11 14:29:18.884,-0.667897,2.36052,8.44876,-0.136753,0.0775012,-0.128965,0
2024-12-11 14:29:18.884,-0.667897,2.36052,8.44876,-0.136753,0.0775012,-0.128965,0
2024-12-11 14:29:18.887,-0.677468,2.37009,8.48704,-0.165463,0.0500131,-0.136295,0
2024-12-11 14:29:18.888,-0.691825,2.34377,8.5349,-0.165463,0.0500131,-0.136295,0
2024-12-11 14:29:18.892,-0.691825,2.31745,8.61386,-0.180124,0.0298552,-0.13935,0
2024-12-11 14:29:18.893,-0.701396,2.31266,8.71945,-0.190508,0.0158057,-0.144236,0
2024-12-11 14:29:18.896,-0.696611,2.30548,8.84626,-0.205779,-0.0208452,-0.15401,0
2024-12-11 14:29:18.898,-0.684646,2.28395,8.98744,-0.205779,-0.0208452,-0.15401,0
2024-12-11 14:29:18.900,-0.687039,2.25045,9.11665,-0.208223,-0.0385597,-0.158286,0
2024-12-11 14:29:18.902,-0.694218,2.21216,9.25305,-0.210055,-0.0544418,-0.160729,0
2024-12-11 14:29:18.905,-0.706182,2.19302,9.40409,-0.204557,-0.0703238,-0.165005,0
2024-12-11 14:29:18.910,-0.74686,2.11645,9.67209,-0.197838,-0.085595,-0.169281,0
2024-12-11 14:29:18.913,-0.780359,2.10688,9.76541,-0.16302,-0.122246,-0.169281,0
2024-12-11 14:29:18.913,-0.780359,2.10688,9.76541,-0.16302,-0.122246,-0.169281,0
2024-12-11 14:29:18.917,-0.852443,2.08056,9.91406,-0.147138,-0.131409,-0.16867,0
2024-12-11 14:29:18.917,-0.852443,2.08056,9.91406,-0.147138,-0.131409,-0.16867,0
2024-12-11 14:29:18.921,-0.9003,2.07099,10.0409,-0.114763,-0.147291,-0.163173,0
2024-12-11 14:29:18.922,-0.9003,2.07099,10.0409,-0.0970484,-0.155232,-0.158286,0
2024-12-11 14:29:18.923,-0.917049,2.06142,10.0935,-0.0970484,-0.155232,-0.158286,0
2024-12-11 14:29:18.927,-0.950549,2.05424,10.1342,-0.0787229,-0.160118,-0.155842,0
2024-12-11 14:29:18.928,-0.986441,2.04706,10.1773,-0.0787229,-0.160118,-0.155842,0
2024-12-11 14:29:18.931,-1.02233,2.03988,10.206,-0.0414613,-0.167449,-0.144847,0
2024-12-11 14:29:18.933,-1.0654,2.0327,10.2132,-0.0200816,-0.169892,-0.138128,0
2024-12-11 14:29:18.935,-1.09173,2.01835,10.2084,0.000687203,-0.170503,-0.131409,0
2024-12-11 14:29:18.939,-1.11326,2.02074,10.1964,0.0318404,-0.171724,-0.114916,0
2024-12-11 14:29:18.940,-1.14197,2.0327,10.1701,0.0318404,-0.171724,-0.114916,0
2024-12-11 14:29:18.942,-1.14437,2.02792,10.139,0.0471116,-0.169281,-0.108196,0
2024-12-11 14:29:18.946,-1.12522,2.01835,10.0959,0.0611611,-0.171114,-0.0984228,0
2024-12-11 14:29:18.948,-1.12283,2.0327,10.0409,0.0868167,-0.169892,-0.0831516,0
2024-12-11 14:29:18.950,-1.12283,2.03988,9.97867,0.0868167,-0.169892,-0.0831516,0
2024-12-11 14:29:18.952,-1.08933,2.05424,9.91406,0.0959794,-0.169281,-0.0739889,0
2024-12-11 14:29:18.954,-1.06301,2.08535,9.8351,0.100866,-0.172335,-0.0642153,0
2024-12-11 14:29:18.956,-1.00798,2.10927,9.73909,0.102699,-0.172946,-0.0593285,0
2024-12-11 14:29:18.961,-0.801895,2.17388,9.53091,0.0965902,-0.174779,-0.0550526,0
2024-12-11 14:29:18.962,-0.9003,2.14517,9.53091,0.0898709,-0.176611,-0.0544418,0
2024-12-11 14:29:18.964,-0.687039,2.17388,9.45195,0.0898709,-0.176611,-0.0544418,0
2024-12-11 14:29:18.966,-0.572184,2.18824,9.37777,0.0800973,-0.177222,-0.057496,0
2024-12-11 14:29:18.968,-0.488435,2.22652,9.3012,0.0666587,-0.177222,-0.0599394,0
2024-12-11 14:29:18.971,-0.419043,2.24327,9.23869,0.0513875,-0.177833,-0.0672696,0
2024-12-11 14:29:18.975,-0.292223,2.27438,9.1693,0.0147367,-0.174779,-0.0831516,0
2024-12-11 14:29:18.978,-0.251246,2.26241,9.16212,-0.00542127,-0.173557,-0.0917034,0
2024-12-11 14:29:18.980,-0.217747,2.26959,9.17887,-0.00542127,-0.173557,-0.0917034,0
2024-12-11 14:29:18.982,-0.18664,2.27916,9.20519,-0.0457372,-0.167449,-0.114916,0
2024-12-11 14:29:18.982,-0.18664,2.27916,9.20519,-0.0457372,-0.167449,-0.114916,0
2024-12-11 14:29:18.988,-0.191426,2.26959,9.32752,-0.101935,-0.14668,-0.141182,0
2024-12-11 14:29:18.989,-0.210568,2.25763,9.40648,-0.101935,-0.14668,-0.141182,0
2024-12-11 14:29:18.992,-0.236889,2.24566,9.48784,-0.119039,-0.136906,-0.148512,0
2024-12-11 14:29:18.994,-0.27996,2.23131,9.58595,-0.128202,-0.124689,-0.152788,0
2024-12-11 14:29:18.997,-0.335294,2.20499,9.6673,-0.138586,-0.111251,-0.158897,0
2024-12-11 14:29:18.999,-0.392722,2.17388,9.75344,-0.138586,-0.111251,-0.158897,0
2024-12-11 14:29:19.000,-0.392722,2.17388,9.75344,-0.147749,-0.081319,-0.163783,0
2024-12-11 14:29:19.002,-0.464507,2.15474,9.86142,-0.152025,-0.0697129,-0.163783,0
2024-12-11 14:29:19.005,-0.533899,2.16431,9.95474,-0.14836,-0.0550526,-0.163783,0
2024-12-11 14:29:19.006,-0.598505,2.16431,10.0289,-0.14836,-0.0550526,-0.163783,0
2024-12-11 14:29:19.008,-0.663111,2.16909,10.0911,-0.144694,-0.0422248,-0.161951,0
2024-12-11 14:29:19.011,-0.706182,2.18824,10.1486,-0.140419,-0.0257319,-0.157064,0
2024-12-11 14:29:19.014,-0.749253,2.19302,10.1821,-0.134921,-0.013515,-0.15401,0
2024-12-11 14:29:19.015,-0.775574,2.18106,10.1868,-0.127591,-0.0019089,-0.150956,0
2024-12-11 14:29:19.018,-0.787538,2.1667,10.1749,-0.122093,0.0133623,-0.147291,0
2024-12-11 14:29:19.020,-0.797109,2.17388,10.1629,-0.115374,0.0231358,-0.141793,0
2024-12-11 14:29:19.023,-0.809073,2.17627,10.1438,-0.107433,0.0335202,-0.138128,0
2024-12-11 14:29:19.025,-0.837787,2.16909,10.1127,-0.100103,0.0432938,-0.135684,0
2024-12-11 14:29:19.027,-0.869193,2.1667,10.0768,-0.0952158,0.0536782,-0.130798,0
2024-12-11 14:29:19.029,-0.888335,2.18824,10.0433,-0.0878856,0.0622301,-0.127743,0
2024-12-11 14:29:19.033,-0.897907,2.21216,10.0074,-0.0848314,0.0756687,-0.118581,0
2024-12-11 14:29:19.034,-0.929013,2.24327,9.97388,-0.0848314,0.0756687,-0.118581,0
2024-12-11 14:29:19.037,-0.952942,2.27916,9.9332,-0.0829989,0.0805555,-0.113083,0
2024-12-11 14:29:19.039,-0.972084,2.30548,9.88774,-0.0829989,0.0805555,-0.113083,0
2024-12-11 14:29:19.041,-0.998405,2.36291,9.84467,-0.0799446,0.086664,-0.104531,0
2024-12-11 14:29:19.045,-1.00558,2.42273,9.77977,-0.0860531,0.0897182,-0.0972011,0
2024-12-11 14:29:19.047,-1.01037,2.45384,9.72712,-0.0860531,0.0897182,-0.0972011,0
2024-12-11 14:29:19.051,-1.01994,2.52592,9.66012,-0.0921616,0.086664,-0.0910926,0
2024-12-11 14:29:19.053,-1.01276,2.56421,9.62663,-0.0988809,0.0829989,-0.0904818,0
2024-12-11 14:29:19.053,-1.01276,2.56421,9.62663,-0.0988809,0.0829989,-0.0904818,0
2024-12-11 14:29:19.055,-0.996012,2.60728,9.60987,-0.1056,0.0799446,-0.0874275,0
2024-12-11 14:29:19.058,-0.981655,2.64078,9.59073,-0.111709,0.0738362,-0.0868167,0
2024-12-11 14:29:19.061,-0.950549,2.64556,9.58834,-0.120871,0.0622301,-0.0862058,0
2024-12-11 14:29:19.062,-0.933799,2.65992,9.6003,-0.120871,0.0622301,-0.0862058,0
2024-12-11 14:29:19.067,-0.924228,2.69103,9.60987,-0.130645,0.0500131,-0.0868167,0
2024-12-11 14:29:19.069,-0.907478,2.72931,9.6673,-0.135532,0.0439046,-0.0868167,0
2024-12-11 14:29:19.072,-0.907478,2.72931,9.70559,-0.13431,0.0408504,-0.0874275,0
2024-12-11 14:29:19.073,-0.914656,2.76281,9.70559,-0.131867,0.0396287,-0.0898709,0
2024-12-11 14:29:19.075,-0.919442,2.79392,9.7343,-0.130645,0.0359636,-0.0898709,0
2024-12-11 14:29:19.077,-0.914656,2.81067,9.7343,-0.130645,0.0359636,-0.0898709,0
2024-12-11 14:29:19.080,-0.905085,2.8322,9.72952,-0.130034,0.0329094,-0.0868167,0
2024-12-11 14:29:19.081,-0.905085,2.84895,9.73669,-0.125758,0.0286335,-0.0892601,0
2024-12-11 14:29:19.084,-0.902692,2.84178,9.7343,-0.123926,0.0243575,-0.0904818,0
2024-12-11 14:29:19.088,-0.873978,2.82024,9.71277,-0.119039,0.00847551,-0.0886492,0
2024-12-11 14:29:19.091,-0.859622,2.83699,9.73669,-0.115374,0.00114534,-0.0886492,0
2024-12-11 14:29:19.091,-0.859622,2.83699,9.73669,-0.115374,0.00114534,-0.0886492,0
2024-12-11 14:29:19.094,-0.859622,2.87288,9.75344,-0.102546,-0.0171801,-0.0898709,0
2024-12-11 14:29:19.096,-0.869193,2.89442,9.75584,-0.102546,-0.0171801,-0.0898709,0
2024-12-11 14:29:19.100,-0.890728,2.92552,9.73669,-0.090329,-0.0324513,-0.0923143,0
2024-12-11 14:29:19.101,-0.88355,2.92552,9.73669,-0.0836097,-0.0391706,-0.0910926,0
2024-12-11 14:29:19.103,-0.893121,2.92552,9.71755,-0.0836097,-0.0391706,-0.0910926,0
2024-12-11 14:29:19.105,-0.902692,2.93988,9.69841,-0.0762796,-0.0458899,-0.0941468,0
2024-12-11 14:29:19.107,-0.912264,2.96381,9.69123,-0.0707819,-0.0550526,-0.093536,0
2024-12-11 14:29:19.110,-0.933799,2.97099,9.69602,-0.0646735,-0.0648262,-0.0953685,0
2024-12-11 14:29:19.112,-0.964906,2.97577,9.71037,-0.0579541,-0.0758214,-0.093536,0
2024-12-11 14:29:19.114,-0.97687,2.98774,9.71516,-0.0579541,-0.0758214,-0.093536,0
2024-12-11 14:29:19.117,-0.996012,3.00449,9.71994,-0.0451263,-0.0910926,-0.0953685,0
2024-12-11 14:29:19.120,-1.01755,3.01167,9.72712,-0.0359636,-0.100255,-0.0929251,0
2024-12-11 14:29:19.121,-1.03908,3.01884,9.72712,-0.0292443,-0.106364,-0.0929251,0
2024-12-11 14:29:19.125,-1.08694,3.02842,9.71755,-0.0194708,-0.110029,-0.0892601,0
2024-12-11 14:29:19.126,-1.12762,3.03559,9.67927,-0.014584,-0.114305,-0.0862058,0
2024-12-11 14:29:19.129,-1.15633,3.03081,9.64816,-0.00847551,-0.117359,-0.0807082,0
2024-12-11 14:29:19.131,-1.19701,3.02602,9.62423,-0.00297788,-0.120413,-0.0758214,0
2024-12-11 14:29:19.134,-1.24008,3.0332,9.57877,0.0019089,-0.127133,-0.0623828,0
2024-12-11 14:29:19.136,-1.27358,3.02363,9.54766,0.0019089,-0.127133,-0.0623828,0
2024-12-11 14:29:19.138,-1.31186,3.03559,9.51655,7.63559e-05,-0.129576,-0.0556635,0
2024-12-11 14:29:19.141,-1.32383,3.04277,9.49023,-0.00236703,-0.133852,-0.0428357,0
2024-12-11 14:29:19.142,-1.33101,3.03799,9.45913,-0.00236703,-0.133852,-0.0428357,0
2024-12-11 14:29:19.145,-1.35254,3.04995,9.43998,-0.00481042,-0.136295,-0.0348946,0
2024-12-11 14:29:19.150,-1.37647,3.05474,9.43998,-0.0127514,-0.136295,-0.0165692,0
2024-12-11 14:29:19.150,-1.37647,3.05474,9.43998,-0.0127514,-0.136295,-0.0165692,0
2024-12-11 14:29:19.152,-1.37886,3.06909,9.43759,-0.0176382,-0.133852,-0.00801737,0
2024-12-11 14:29:19.154,-1.37169,3.06909,9.42563,-0.0243575,-0.132019,0.00114534,0
2024-12-11 14:29:19.160,-1.34776,3.08854,9.42084,-0.0292443,-0.128965,0.00847551,0
2024-12-11 14:29:19.161,-1.31426,3.08345,9.41845,-0.0402396,-0.123468,0.0268009,0
2024-12-11 14:29:19.161,-1.31426,3.08345,9.41845,-0.0402396,-0.123468,0.0268009,0
2024-12-11 14:29:19.165,-1.27837,3.08106,9.41127,-0.0542891,-0.120413,0.0408504,0
2024-12-11 14:29:19.168,-1.2018,3.06431,9.4017,-0.0597867,-0.119802,0.0481806,0
2024-12-11 14:29:19.169,-1.2018,3.06431,9.4017,-0.0597867,-0.119802,0.0481806,0
2024-12-11 14:29:19.171,-1.15394,3.07149,9.39213,-0.0677277,-0.119192,0.0536782,0
2024-12-11 14:29:19.173,-1.10608,3.06431,9.38734,-0.074447,-0.121635,0.0579541,0
2024-12-11 14:29:19.175,-1.05823,3.05234,9.39931,-0.0836097,-0.124689,0.0622301,0
2024-12-11 14:29:19.180,-0.957727,3.02602,9.43759,-0.0970484,-0.129576,0.0677277,0
2024-12-11 14:29:19.183,-0.888335,3.0021,9.46631,-0.104379,-0.134463,0.0701711,0
2024-12-11 14:29:19.183,-0.888335,3.0021,9.46631,-0.104379,-0.134463,0.0701711,0
2024-12-11 14:29:19.185,-0.816252,2.97338,9.48545,-0.108044,-0.136906,0.0689494,0
2024-12-11 14:29:19.187,-0.734896,2.9662,9.51895,-0.116595,-0.143625,0.0671168,0
2024-12-11 14:29:19.191,-0.641576,2.95424,9.55005,-0.125147,-0.156453,0.0603975,0
2024-12-11 14:29:19.192,-0.565005,2.94706,9.5692,-0.125147,-0.156453,0.0603975,0
2024-12-11 14:29:19.195,-0.519542,2.9351,9.60987,-0.131867,-0.167449,0.0475697,0
2024-12-11 14:29:19.197,-0.488435,2.92552,9.67448,-0.131867,-0.167449,0.0475697,0
2024-12-11 14:29:19.199,-0.4669,2.93749,9.74627,-0.133699,-0.173557,0.0420721,0
2024-12-11 14:29:19.202,-0.457328,2.92313,9.81326,-0.131867,-0.178444,0.0365745,0
2024-12-11 14:29:19.205,-0.459721,2.88963,9.8686,-0.127591,-0.185163,0.0261901,0
2024-12-11 14:29:19.206,-0.4669,2.87528,9.91167,-0.127591,-0.185163,0.0261901,0
2024-12-11 14:29:19.208,-0.478864,2.84895,9.94756,-0.122704,-0.187606,0.0206925,0
2024-12-11 14:29:19.212,-0.486042,2.82263,9.98345,-0.110487,-0.188828,0.0151948,0
2024-12-11 14:29:19.214,-0.483649,2.8011,10.0098,-0.104379,-0.19005,0.0158057,0
2024-12-11 14:29:19.216,-0.495613,2.76999,10.0313,-0.104379,-0.19005,0.0158057,0
2024-12-11 14:29:19.218,-0.521934,2.74367,10.0648,-0.0952158,-0.189439,0.0151948,0
2024-12-11 14:29:19.220,-0.548256,2.72931,10.0887,-0.0921616,-0.188828,0.0170274,0
2024-12-11 14:29:19.223,-0.569791,2.73649,10.0935,-0.0848314,-0.184552,0.0170274,0
2024-12-11 14:29:19.225,-0.593719,2.72453,10.0959,-0.0781121,-0.180887,0.0194708,0
2024-12-11 14:29:19.227,-0.617647,2.70778,10.0887,-0.0695602,-0.173557,0.0243575,0
2024-12-11 14:29:19.230,-0.646361,2.70299,10.0768,-0.0628409,-0.163783,0.0280226,0
2024-12-11 14:29:19.232,-0.675075,2.69821,10.0792,-0.0561216,-0.156453,0.0329094,0
2024-12-11 14:29:19.234,-0.708575,2.69581,10.0648,-0.0481806,-0.14668,0.038407,0
2024-12-11 14:29:19.239,-0.775574,2.68385,9.99542,-0.0432938,-0.13935,0.046348,0
2024-12-11 14:29:19.241,-0.797109,2.68385,9.94995,-0.0353528,-0.121024,0.0610084,0
2024-12-11 14:29:19.241,-0.797109,2.68385,9.94995,-0.0353528,-0.121024,0.0610084,0
2024-12-11 14:29:19.244,-0.821037,2.68864,9.90928,-0.0310769,-0.112472,0.0695602,0
2024-12-11 14:29:19.248,-0.835394,2.71017,9.81805,-0.030466,-0.0959794,0.0897182,0
2024-12-11 14:29:19.251,-0.85005,2.7341,9.79173,-0.030466,-0.0886492,0.0976592,0
2024-12-11 14:29:19.252,-0.85005,2.7341,9.79173,-0.030466,-0.0886492,0.0976592,0
2024-12-11 14:29:19.253,-0.85005,2.74846,9.75823,-0.0347419,-0.0843733,0.1056,0
2024-12-11 14:29:19.256,-0.85005,2.75085,9.69841,-0.0347419,-0.0782648,0.11293,0
2024-12-11 14:29:19.258,-0.842872,2.76042,9.6362,-0.038407,-0.077654,0.122704,0
2024-12-11 14:29:19.260,-0.828216,2.76281,9.59552,-0.0420721,-0.077654,0.126369,0
2024-12-11 14:29:19.264,-0.787538,2.76281,9.56441,-0.0494023,-0.0819299,0.133699,0
2024-12-11 14:29:19.265,-0.737288,2.78435,9.53091,-0.0518457,-0.0886492,0.137975,0
2024-12-11 14:29:19.267,-0.682254,2.79392,9.49981,-0.0591758,-0.0972011,0.144084,0
2024-12-11 14:29:19.270,-0.627219,2.78674,9.45913,-0.0683385,-0.105753,0.144694,0
2024-12-11 14:29:19.273,-0.574577,2.79153,9.41366,-0.0860531,-0.132019,0.145916,0
2024-12-11 14:29:19.275,-0.533899,2.80349,9.39452,-0.0860531,-0.132019,0.145916,0
2024-12-11 14:29:19.279,-0.435793,2.8011,9.38734,-0.104379,-0.158286,0.144694,0
2024-12-11 14:29:19.281,-0.383151,2.80828,9.39213,-0.116595,-0.174779,0.140419,0
2024-12-11 14:29:19.281,-0.383151,2.80828,9.39213,-0.116595,-0.174779,0.140419,0
2024-12-11 14:29:19.284,-0.330509,2.82742,9.38734,-0.128202,-0.189439,0.137364,0
2024-12-11 14:29:19.289,-0.236889,2.81785,9.39691,-0.145916,-0.218149,0.130645,0
2024-12-11 14:29:19.290,-0.236889,2.81785,9.39691,-0.145916,-0.218149,0.130645,0
2024-12-11 14:29:19.291,-0.177069,2.81785,9.4352,-0.15569,-0.229144,0.126369,0
2024-12-11 14:29:19.296,-0.0622134,2.81067,9.49981,-0.176459,-0.24808,0.116595,0
2024-12-11 14:29:19.298,-0.0167498,2.82503,9.52613,-0.183789,-0.256021,0.115374,0
2024-12-11 14:29:19.299,-0.0167498,2.82503,9.52613,-0.190508,-0.260908,0.110487,0
2024-12-11 14:29:19.300,0.0239282,2.82263,9.57159,-0.190508,-0.260908,0.110487,0
2024-12-11 14:29:19.303,0.0693919,2.82024,9.61945,-0.197227,-0.265795,0.108044,0
2024-12-11 14:29:19.305,0.117248,2.80828,9.66012,-0.202114,-0.263962,0.103157,0
2024-12-11 14:29:19.310,0.177069,2.79871,9.74866,-0.208223,-0.259686,0.100713,0
2024-12-11 14:29:19.312,0.18664,2.78913,9.79412,-0.216164,-0.240139,0.0970484,0
2024-12-11 14:29:19.312,0.18664,2.78913,9.79412,-0.216164,-0.240139,0.0970484,0
2024-12-11 14:29:19.314,0.18664,2.76521,9.85903,-0.217385,-0.225479,0.0982701,0
2024-12-11 14:29:19.319,0.193819,2.7341,9.99781,-0.216164,-0.196158,0.102546,0
2024-12-11 14:29:19.320,0.193819,2.7341,9.99781,-0.212498,-0.179055,0.103768,0
2024-12-11 14:29:19.321,0.177069,2.73888,10.0576,-0.212498,-0.179055,0.103768,0
2024-12-11 14:29:19.324,0.177069,2.74846,10.139,-0.208223,-0.160118,0.106822,0
2024-12-11 14:29:19.326,0.174676,2.74128,10.1892,-0.202114,-0.141793,0.114152,0
2024-12-11 14:29:19.329,0.141177,2.72931,10.206,-0.194784,-0.120413,0.120261,0
2024-12-11 14:29:19.333,0.124427,2.69342,10.2658,-0.175848,-0.0807082,0.130645,0
2024-12-11 14:29:19.334,0.124427,2.69342,10.2658,-0.175848,-0.0807082,0.130645,0
2024-12-11 14:29:19.337,0.114855,2.69342,10.3089,-0.153857,-0.0501658,0.14164,0
2024-12-11 14:29:19.338,0.0981057,2.71735,10.3543,-0.153857,-0.0501658,0.14164,0
2024-12-11 14:29:19.340,0.0837488,2.72453,10.3663,-0.139197,-0.037338,0.151414,0
2024-12-11 14:29:19.343,0.066999,2.71974,10.3567,-0.125147,-0.0251211,0.157522,0
2024-12-11 14:29:19.346,0.0550349,2.72213,10.3591,-0.0976592,-0.00923906,0.17035,0
2024-12-11 14:29:19.347,0.0646062,2.71735,10.3615,-0.0976592,-0.00923906,0.17035,0
2024-12-11 14:29:19.351,0.0909273,2.71735,10.3328,-0.082388,-0.00618483,0.174015,0
2024-12-11 14:29:19.352,0.100499,2.72453,10.2897,-0.0671168,-0.00251974,0.177069,0
2024-12-11 14:29:19.354,0.100499,2.74367,10.2538,-0.0561216,-0.00374144,0.178902,0
2024-12-11 14:29:19.358,0.122034,2.77238,10.2251,-0.0310769,-0.00251974,0.181345,0
2024-12-11 14:29:19.360,0.141177,2.78913,10.194,-0.0158057,-0.00618483,0.179513,0
2024-12-11 14:29:19.363,0.131605,2.8011,10.1605,-0.00481042,-0.0116825,0.17768,0
2024-12-11 14:29:19.365,0.12682,2.81545,10.1294,-0.00481042,-0.0116825,0.17768,0
2024-12-11 14:29:19.366,0.138784,2.83699,10.0816,0.00618483,-0.013515,0.177069,0
2024-12-11 14:29:19.369,0.145962,2.85853,10.0241,0.0190126,-0.0190126,0.172793,0
2024-12-11 14:29:19.371,0.148355,2.8681,9.95474,0.029397,-0.0257319,0.169128,0
2024-12-11 14:29:19.373,0.141177,2.87767,9.89492,0.041614,-0.0312296,0.164852,0
2024-12-11 14:29:19.376,0.133998,2.89442,9.83749,0.049555,-0.0361163,0.161187,0
2024-12-11 14:29:19.379,0.119641,2.8992,9.75105,0.0611611,-0.0434465,0.149581,0
2024-12-11 14:29:19.381,0.102891,2.90878,9.6673,0.0611611,-0.0434465,0.149581,0
2024-12-11 14:29:19.383,0.0933201,2.91835,9.59313,0.065437,-0.0489441,0.146527,0
2024-12-11 14:29:19.386,0.0909273,2.91835,9.52373,0.0727672,-0.0532201,0.134921,0
2024-12-11 14:29:19.387,0.11007,2.92552,9.45195,0.0727672,-0.0532201,0.134921,0
2024-12-11 14:29:19.390,0.122034,2.9327,9.39691,0.0709346,-0.0562743,0.130034,0
2024-12-11 14:29:19.393,0.11007,2.9327,9.35384,0.0691021,-0.0611611,0.118428,0
2024-12-11 14:29:19.395,0.105284,2.94706,9.29642,0.0691021,-0.0611611,0.118428,0
2024-12-11 14:29:19.398,0.0957129,2.96381,9.25305,0.0678804,-0.0623828,0.110487,0
2024-12-11 14:29:19.402,0.0885344,2.97099,9.2004,0.0611611,-0.0660479,0.0982701,0
2024-12-11 14:29:19.402,0.0885344,2.97099,9.2004,0.0611611,-0.0660479,0.0982701,0
2024-12-11 14:29:19.404,0.0765703,2.96142,9.17887,0.0611611,-0.0660479,0.0982701,0
2024-12-11 14:29:19.406,0.0550349,2.95424,9.1693,0.0519984,-0.0666587,0.0872748,0
2024-12-11 14:29:19.409,0.0478565,2.96142,9.18126,0.049555,-0.0672696,0.0805555,0
2024-12-11 14:29:19.411,0.0167498,2.9686,9.2028,0.0471116,-0.0703238,0.0750579,0
2024-12-11 14:29:19.414,-0.0215354,2.9662,9.23151,0.0452791,-0.0684913,0.0646735,0
2024-12-11 14:29:19.416,-0.0622134,2.96381,9.24826,0.0452791,-0.0684913,0.0646735,0
2024-12-11 14:29:19.420,-0.105284,2.95185,9.28684,0.0440574,-0.0678804,0.058565,0
2024-12-11 14:29:19.421,-0.0957129,2.96142,9.28684,0.0440574,-0.0678804,0.058565,0
2024-12-11 14:29:19.423,-0.133998,2.94706,9.29402,0.0465007,-0.0672696,0.0561216,0
2024-12-11 14:29:19.427,-0.191426,2.95424,9.27966,0.0471116,-0.0648262,0.0524565,0
2024-12-11 14:29:19.428,-0.167498,2.95663,9.29642,0.0471116,-0.0648262,0.0524565,0
2024-12-11 14:29:19.430,-0.217747,2.95902,9.26531,0.0477224,-0.0648262,0.0530674,0
2024-12-11 14:29:19.433,-0.244068,2.9686,9.26052,0.0538309,-0.0593285,0.0512348,0
2024-12-11 14:29:19.435,-0.248854,2.95663,9.25065,0.0538309,-0.0593285,0.0512348,0
2024-12-11 14:29:19.437,-0.248854,2.95663,9.2363,0.0538309,-0.0599394,0.0536782,0
2024-12-11 14:29:19.440,-0.260818,2.95902,9.20997,0.0556635,-0.0556635,0.050624,0
2024-12-11 14:29:19.443,-0.256032,2.96142,9.18605,0.0556635,-0.0556635,0.050624,0
2024-12-11 14:29:19.444,-0.232104,2.97577,9.17169,0.0556635,-0.0556635,0.050624,0
2024-12-11 14:29:19.449,-0.20339,3.00449,9.06401,0.0489441,-0.0550526,0.046348,0
2024-12-11 14:29:19.449,-0.20339,3.00449,9.06401,0.0489441,-0.0550526,0.046348,0
2024-12-11 14:29:19.451,-0.200997,3.01167,9.01616,0.0440574,-0.0550526,0.0432938,0
2024-12-11 14:29:19.453,-0.208176,3.01406,8.95155,0.0361163,-0.057496,0.0408504,0
2024-12-11 14:29:19.457,-0.200997,3.01406,8.87259,0.0165692,-0.0642153,0.0329094,0
2024-12-11 14:29:19.458,-0.191426,3.03559,8.79602,0.0165692,-0.0642153,0.0329094,0
2024-12-11 14:29:19.460,-0.184247,3.04756,8.73859,0.00313059,-0.0660479,0.030466,0
2024-12-11 14:29:19.465,-0.143569,3.07149,8.64975,-0.0109189,-0.0721563,0.0268009,0
2024-12-11 14:29:19.467,-0.112463,3.08854,8.60668,-0.046348,-0.0837624,0.0200816,0
2024-12-11 14:29:19.470,-0.0550349,3.10768,8.58515,-0.046348,-0.0837624,0.0200816,0
2024-12-11 14:29:19.472,0.0,3.11964,8.59472,-0.0842206,-0.0978119,0.0096972,0
2024-12-11 14:29:19.472,0.0,3.11964,8.59472,-0.0842206,-0.0978119,0.0096972,0
2024-12-11 14:29:19.475,0.0550349,3.12204,8.61147,-0.104989,-0.101477,0.00114534,0
2024-12-11 14:29:19.477,0.0885344,3.11007,8.63061,-0.12698,-0.105142,-0.00679568,0
2024-12-11 14:29:19.479,0.102891,3.09811,8.65933,-0.147749,-0.108807,-0.0153475,0
2024-12-11 14:29:19.482,0.105284,3.09332,8.7027,-0.17035,-0.11064,-0.0232886,0
2024-12-11 14:29:19.485,0.100499,3.08106,8.76012,-0.207001,-0.118581,-0.0385597,0
2024-12-11 14:29:19.486,0.0981057,3.06909,8.84148,-0.207001,-0.118581,-0.0385597,0
2024-12-11 14:29:19.489,0.0933201,3.05713,8.92523,-0.227159,-0.119802,-0.0434465,0
2024-12-11 14:29:19.492,0.0789631,3.02842,9.00898,-0.244263,-0.122857,-0.0483333,0
2024-12-11 14:29:19.493,0.0646062,2.99013,9.11905,-0.259534,-0.124078,-0.0532201,0
2024-12-11 14:29:19.496,0.0526421,2.95663,9.2339,-0.274805,-0.122857,-0.0538309,0
2024-12-11 14:29:19.498,0.0382852,2.9327,9.3347,-0.2858,-0.121024,-0.0513875,0
2024-12-11 14:29:19.503,0.040678,2.8681,9.54527,-0.299239,-0.119192,-0.0532201,0
2024-12-11 14:29:19.505,0.0239282,2.83938,9.64816,-0.313899,-0.111861,-0.0489441,0
2024-12-11 14:29:19.506,0.0239282,2.83938,9.64816,-0.313899,-0.111861,-0.0489441,0
2024-12-11 14:29:19.510,0.0,2.81545,9.83749,-0.318786,-0.105753,-0.041614,0
2024-12-11 14:29:19.511,0.0,2.81545,9.83749,-0.318786,-0.105753,-0.0391706,0
2024-12-11 14:29:19.515,0.0167498,2.76999,10.0098,-0.319397,-0.100255,-0.0361163,0
2024-12-11 14:29:19.516,0.0167498,2.76999,10.0098,-0.319397,-0.100255,-0.0361163,0
2024-12-11 14:29:19.519,0.0909273,2.74367,10.1964,-0.317564,-0.093536,-0.029397,0
2024-12-11 14:29:19.519,0.0909273,2.74367,10.1964,-0.317564,-0.093536,-0.029397,0
2024-12-11 14:29:19.522,0.131605,2.71974,10.3017,-0.309623,-0.0910926,-0.0269536,0
2024-12-11 14:29:19.524,0.153141,2.70778,10.4025,-0.302904,-0.0849841,-0.0251211,0
2024-12-11 14:29:19.526,0.172283,2.69103,10.5006,-0.293741,-0.0794865,-0.0251211,0
2024-12-11 14:29:19.529,0.179462,2.67428,10.6011,-0.279081,-0.0715455,-0.0238994,0
2024-12-11 14:29:19.533,0.227318,2.63121,10.7399,-0.250371,-0.0556635,-0.0196235,0
2024-12-11 14:29:19.533,0.227318,2.63121,10.7399,-0.250371,-0.0556635,-0.0196235,0
2024-12-11 14:29:19.536,0.232104,2.61207,10.771,-0.235711,-0.0483333,-0.0159584,0
2024-12-11 14:29:19.538,0.241675,2.6001,10.7949,-0.214942,-0.0361163,-0.0122933,0
2024-12-11 14:29:19.543,0.267996,2.60967,10.8165,-0.178291,-0.0196235,-0.00679568,0
2024-12-11 14:29:19.543,0.265603,2.62164,10.8093,-0.178291,-0.0196235,-0.00679568,0
2024-12-11 14:29:19.545,0.251246,2.61207,10.7949,-0.161187,-0.0104608,-0.00251974,0
2024-12-11 14:29:19.548,0.241675,2.61685,10.783,-0.140419,-0.0019089,-0.000687203,0
2024-12-11 14:29:19.550,0.232104,2.62881,10.7447,-0.123315,0.00297788,0.00297788,0
2024-12-11 14:29:19.552,0.224925,2.64317,10.6968,-0.108654,0.00664296,0.00542127,0
2024-12-11 14:29:19.555,0.200997,2.68146,10.649,-0.108654,0.00664296,0.00542127,0
2024-12-11 14:29:19.560,0.162712,2.70778,10.4958,-0.0689494,0.0109189,0.0121406,0
2024-12-11 14:29:19.562,0.133998,2.71735,10.4097,-0.058565,0.0115297,0.0158057,0
2024-12-11 14:29:19.562,0.133998,2.71735,10.4097,-0.058565,0.0115297,0.0158057,0
2024-12-11 14:29:19.564,0.124427,2.73888,10.3424,-0.0494023,0.0096972,0.0188599,0
2024-12-11 14:29:19.567,0.12682,2.75563,10.2778,-0.0494023,0.0096972,0.0188599,0
2024-12-11 14:29:19.570,0.124427,2.78674,10.2012,-0.0353528,-0.00984991,0.0255792,0
2024-12-11 14:29:19.571,0.129212,2.79153,10.1175,-0.0353528,-0.00984991,0.0255792,0
2024-12-11 14:29:19.573,0.153141,2.78674,10.0552,-0.0335202,-0.0190126,0.0274118,0
2024-12-11 14:29:19.578,0.217747,2.81785,9.9691,-0.0298552,-0.0238994,0.0310769,0
2024-12-11 14:29:19.582,0.251246,2.83699,9.9356,-0.0298552,-0.0385597,0.0329094,0
2024-12-11 14:29:19.583,0.285045,2.84417,9.91646,-0.0335202,-0.0465007,0.0316877,0
2024-12-11 14:29:19.584,0.251246,2.83699,9.9356,-0.0335202,-0.0501658,0.0310769,0
2024-12-11 14:29:19.585,0.34008,2.85613,9.89731,-0.0335202,-0.0501658,0.0310769,0
2024-12-11 14:29:19.589,0.387936,2.87288,9.88535,-0.0322986,-0.0581068,0.0292443,0
2024-12-11 14:29:19.593,0.440578,2.87767,9.8686,-0.0322986,-0.0672696,0.0206925,0
2024-12-11 14:29:19.593,0.502792,2.88485,9.86621,-0.0322986,-0.0672696,0.0206925,0
2024-12-11 14:29:19.595,0.550648,2.90878,9.8686,-0.0322986,-0.0672696,0.0206925,0
2024-12-11 14:29:19.599,0.586541,2.92074,9.85664,-0.0341311,-0.0691021,0.00847551,0
2024-12-11 14:29:19.599,0.632004,2.92074,9.85664,-0.0341311,-0.0691021,0.00847551,0
2024-12-11 14:29:19.602,0.660718,2.95185,9.83988,-0.0322986,-0.0678804,0.00236703,0
2024-12-11 14:29:19.604,0.679861,2.95902,9.81805,-0.0322986,-0.0678804,0.00236703,0
2024-12-11 14:29:19.606,0.689432,2.95424,9.81087,-0.0310769,-0.0648262,-0.00984991,0
2024-12-11 14:29:19.610,0.691825,2.94945,9.79652,-0.0316877,-0.0629936,-0.0190126,0
2024-12-11 14:29:19.614,0.689432,2.94706,9.80609,-0.030466,-0.0593285,-0.0251211,0
2024-12-11 14:29:19.616,0.665504,2.97577,9.79173,-0.0322986,-0.057496,-0.0306187,0
2024-12-11 14:29:19.617,0.665504,2.97577,9.79173,-0.0310769,-0.0562743,-0.0342838,0
2024-12-11 14:29:19.618,0.677468,2.9662,9.77259,-0.0310769,-0.0562743,-0.0342838,0
2024-12-11 14:29:19.621,0.672682,2.95424,9.76541,-0.0310769,-0.0489441,-0.0379489,0
2024-12-11 14:29:19.623,0.663111,2.95902,9.7678,-0.0292443,-0.0403923,-0.0422248,0
2024-12-11 14:29:19.628,0.624826,2.99013,9.73909,-0.0268009,-0.0220669,-0.0489441,0
2024-12-11 14:29:19.628,0.624826,2.99013,9.73909,-0.0268009,-0.0220669,-0.0489441,0
2024-12-11 14:29:19.632,0.572184,2.9997,9.71516,-0.0261901,-0.00435229,-0.0526092,0
2024-12-11 14:29:19.632,0.572184,2.9997,9.71516,-0.0261901,-0.00435229,-0.0526092,0
2024-12-11 14:29:19.636,0.56022,3.01167,9.70559,-0.0219141,0.00664296,-0.0538309,0
2024-12-11 14:29:19.640,0.517149,3.00927,9.68166,-0.0243575,0.0292443,-0.0550526,0
2024-12-11 14:29:19.642,0.481256,3.01884,9.65773,-0.0261901,0.0402396,-0.0550526,0
2024-12-11 14:29:19.644,0.457328,3.02602,9.61705,-0.022525,0.0524565,-0.0562743,0
2024-12-11 14:29:19.644,0.457328,3.02602,9.61705,-0.022525,0.0524565,-0.0562743,0
2024-12-11 14:29:19.646,0.452543,3.02842,9.59791,-0.022525,0.0524565,-0.0562743,0
2024-12-11 14:29:19.651,0.380758,3.03559,9.55005,-0.0237467,0.0799446,-0.0538309,0
2024-12-11 14:29:19.652,0.380758,3.03559,9.55005,-0.0219141,0.086664,-0.0526092,0
2024-12-11 14:29:19.654,0.335294,3.04038,9.54288,-0.0219141,0.086664,-0.0526092,0
2024-12-11 14:29:19.659,0.308973,3.04517,9.54766,-0.0194708,0.0982701,-0.0452791,0
2024-12-11 14:29:19.661,0.289831,3.04517,9.5668,-0.0164165,0.102546,-0.0403923,0
2024-12-11 14:29:19.661,0.260818,3.04517,9.5668,-0.0164165,0.102546,-0.0403923,0
2024-12-11 14:29:19.663,0.258425,3.03559,9.59552,-0.0139731,0.103768,-0.0367272,0
2024-12-11 14:29:19.665,0.275175,3.0332,9.61227,-0.0115297,0.104989,-0.033673,0
2024-12-11 14:29:19.669,0.285045,3.02363,9.61945,0.00679568,0.101935,-0.0275645,0
2024-12-11 14:29:19.672,0.292223,3.04995,9.61466,0.00679568,0.101935,-0.0275645,0
2024-12-11 14:29:19.676,0.301795,3.05474,9.61945,0.0238994,0.0939941,-0.0226777,0
2024-12-11 14:29:19.676,0.301795,3.05474,9.61945,0.0238994,0.0939941,-0.0226777,0
2024-12-11 14:29:19.677,0.30658,3.04756,9.6027,0.0355055,0.0884965,-0.021456,0
2024-12-11 14:29:19.680,0.308973,3.07627,9.56441,0.0458899,0.0817772,-0.0202343,0
2024-12-11 14:29:19.682,0.318545,3.11007,9.5357,0.0562743,0.0720036,-0.0184018,0
2024-12-11 14:29:19.684,0.325723,3.11964,9.50698,0.0672696,0.0622301,-0.0184018,0
2024-12-11 14:29:19.686,0.316152,3.134,9.48066,0.077654,0.0548999,-0.0177909,0
2024-12-11 14:29:19.690,0.313759,3.15314,9.45195,0.0984228,0.0377962,-0.0202343,0
2024-12-11 14:29:19.692,0.308973,3.16511,9.41845,0.0984228,0.0377962,-0.0202343,0
2024-12-11 14:29:19.694,0.304188,3.19143,9.39931,0.111861,0.0298552,-0.021456,0
2024-12-11 14:29:19.698,0.320937,3.21057,9.32034,0.13263,0.0158057,-0.0251211,0
2024-12-11 14:29:19.698,0.34008,3.21057,9.32034,0.13263,0.0158057,-0.0251211,0
2024-12-11 14:29:19.704,0.335294,3.25843,9.23151,0.16134,-0.00557398,-0.0403923,0
2024-12-11 14:29:19.705,0.335294,3.28235,9.18844,0.16134,-0.00557398,-0.0403923,0
2024-12-11 14:29:19.705,0.347258,3.28235,9.18844,0.16134,-0.00557398,-0.0403923,0
2024-12-11 14:29:19.708,0.347258,3.29671,9.1334,0.170503,-0.00679568,-0.0440574,0
2024-12-11 14:29:19.711,0.342473,3.2991,9.05444,0.179665,-0.0147367,-0.0513875,0
2024-12-11 14:29:19.712,0.318545,3.31825,8.96351,0.179665,-0.0147367,-0.0513875,0
2024-12-11 14:29:19.715,0.287438,3.32543,8.88455,0.182109,-0.0177909,-0.0556635,0
2024-12-11 14:29:19.718,0.260818,3.3326,8.81516,0.177833,-0.0263428,-0.0623828,0
2024-12-11 14:29:19.720,0.205783,3.33978,8.74577,0.177833,-0.0263428,-0.0623828,0
2024-12-11 14:29:19.723,0.155533,3.33978,8.68325,0.174168,-0.0312296,-0.0636045,0
2024-12-11 14:29:19.724,0.129212,3.34935,8.62104,0.168059,-0.037338,-0.0648262,0
2024-12-11 14:29:19.730,0.0191426,3.402,8.49422,0.14668,-0.0501658,-0.0636045,0
2024-12-11 14:29:19.731,-0.0119641,3.40678,8.43919,0.135684,-0.0581068,-0.0623828,0
2024-12-11 14:29:19.731,-0.0119641,3.40678,8.43919,0.135684,-0.0581068,-0.0623828,0
2024-12-11 14:29:19.734,-0.0215354,3.40917,8.38894,0.120413,-0.0617719,-0.0629936,0
2024-12-11 14:29:19.741,-0.0430708,3.41635,8.30997,0.0764323,-0.0758214,-0.0623828,0
2024-12-11 14:29:19.743,-0.0311067,3.40678,8.29322,0.0581068,-0.081319,-0.0617719,0
2024-12-11 14:29:19.743,-0.0311067,3.40678,8.29322,0.0581068,-0.081319,-0.0617719,0
2024-12-11 14:29:19.745,-0.0287139,3.40678,8.27408,0.041614,-0.0849841,-0.0617719,0
2024-12-11 14:29:19.748,-0.00717847,3.38764,8.26212,0.041614,-0.0849841,-0.0617719,0
2024-12-11 14:29:19.750,0.0143569,3.37807,8.2693,0.000687203,-0.0959794,-0.0623828,0
2024-12-11 14:29:19.750,0.0143569,3.37807,8.2693,0.000687203,-0.0959794,-0.0623828,0
2024-12-11 14:29:19.752,0.0334995,3.37328,8.27169,-0.0213033,-0.10331,-0.0642153,0
2024-12-11 14:29:19.755,0.0454636,3.36371,8.29322,-0.038407,-0.108807,-0.0672696,0
2024-12-11 14:29:19.757,0.0622134,3.35175,8.3363,-0.0567324,-0.111251,-0.0691021,0
2024-12-11 14:29:19.760,0.0909273,3.33978,8.38415,-0.0750579,-0.117359,-0.0721563,0
2024-12-11 14:29:19.762,0.112463,3.33021,8.4344,-0.0933833,-0.120413,-0.0770431,0
2024-12-11 14:29:19.764,0.122034,3.2991,8.49183,-0.109876,-0.126522,-0.0800973,0
2024-12-11 14:29:19.767,0.150748,3.28235,8.55643,-0.124536,-0.13263,-0.0843733,0
2024-12-11 14:29:19.769,0.179462,3.27757,8.62343,-0.136753,-0.141182,-0.0886492,0
2024-12-11 14:29:19.771,0.191426,3.26082,8.70748,-0.149581,-0.149734,-0.0929251,0
2024-12-11 14:29:19.774,0.20339,3.24407,8.78644,-0.159966,-0.157064,-0.0978119,0
2024-12-11 14:29:19.776,0.22014,3.22253,8.87737,-0.166685,-0.164394,-0.101477,0
2024-12-11 14:29:19.778,0.239282,3.201,8.96351,-0.175237,-0.172946,-0.105142,0
2024-12-11 14:29:19.781,0.260818,3.17228,9.04965,-0.177069,-0.179055,-0.106364,0
2024-12-11 14:29:19.783,0.297009,3.14836,9.14776,-0.180124,-0.186996,-0.108807,0
2024-12-11 14:29:19.786,0.328116,3.134,9.21955,-0.181345,-0.193104,-0.111251,0
2024-12-11 14:29:19.788,0.342473,3.11725,9.30599,-0.178902,-0.19738,-0.113083,0
2024-12-11 14:29:19.790,0.342473,3.12204,9.38495,-0.175237,-0.197991,-0.111861,0
2024-12-11 14:29:19.792,0.361615,3.11964,9.46152,-0.175237,-0.197991,-0.111861,0
2024-12-11 14:29:19.796,0.395115,3.09093,9.55245,-0.158744,-0.19005,-0.102699,0
2024-12-11 14:29:19.797,0.409472,3.08854,9.61945,-0.158744,-0.19005,-0.102699,0
2024-12-11 14:29:19.800,0.440578,3.08345,9.68645,-0.150192,-0.183941,-0.100255,0
2024-12-11 14:29:19.804,0.538684,3.10289,9.82074,-0.12698,-0.166838,-0.0923143,0
2024-12-11 14:29:19.805,0.486042,3.10289,9.82074,-0.12698,-0.166838,-0.0923143,0
2024-12-11 14:29:19.809,0.579362,3.11007,9.90928,-0.0982701,-0.138128,-0.081319,0
2024-12-11 14:29:19.809,0.608076,3.13161,9.90928,-0.0982701,-0.138128,-0.081319,0
2024-12-11 14:29:19.814,0.639183,3.16989,9.93081,-0.0634518,-0.100866,-0.0752106,0
2024-12-11 14:29:19.814,0.677468,3.16989,9.93081,-0.0634518,-0.100866,-0.0752106,0
2024-12-11 14:29:19.818,0.739681,3.21057,9.85903,-0.0292443,-0.0611611,-0.0709346,0
2024-12-11 14:29:19.821,0.742074,3.25364,9.78216,-0.0133623,-0.0410031,-0.0691021,0
2024-12-11 14:29:19.823,0.718146,3.29671,9.71037,-0.0133623,-0.0410031,-0.0691021,0
2024-12-11 14:29:19.825,0.718146,3.29671,9.71037,0.013515,-0.00618483,-0.065437,0
2024-12-11 14:29:19.828,0.670289,3.39482,9.55005,0.0238994,0.00847551,-0.0623828,0
2024-12-11 14:29:19.830,0.655932,3.45942,9.43041,0.0324513,0.0237467,-0.0593285,0
2024-12-11 14:29:19.830,0.655932,3.45942,9.43041,0.0324513,0.0237467,-0.0593285,0
2024-12-11 14:29:19.833,0.632004,3.50489,9.2677,0.0410031,0.0377962,-0.0587177,0
2024-12-11 14:29:19.835,0.598505,3.55992,9.09273,0.0440574,0.050624,-0.057496,0
2024-12-11 14:29:19.838,0.576969,3.61017,8.91087,0.041614,0.0750579,-0.0562743,0
2024-12-11 14:29:19.840,0.572184,3.66311,8.72184,0.041614,0.0750579,-0.0562743,0
2024-12-11 14:29:19.842,0.557827,3.72054,8.54926,0.0300079,0.0781121,-0.057496,0
2024-12-11 14:29:19.844,0.514756,3.78515,8.38176,0.0165692,0.0793338,-0.0623828,0
2024-12-11 14:29:19.848,0.483649,3.84257,8.22862,0.00129805,0.0787229,-0.0648262,0
2024-12-11 14:29:19.849,0.462114,3.90239,8.08953,-0.0176382,0.0738362,-0.0672696,0
2024-12-11 14:29:19.852,0.440578,3.96461,7.98186,-0.0408504,0.0652843,-0.0697129,0
2024-12-11 14:29:19.856,0.428614,4.03879,7.84786,-0.0939941,0.0371853,-0.0770431,0
2024-12-11 14:29:19.856,0.428614,4.03879,7.84786,-0.0939941,0.0371853,-0.0770431,0
2024-12-11 14:29:19.858,0.464507,4.06511,7.81436,-0.124536,0.0200816,-0.0807082,0
2024-12-11 14:29:19.862,0.507577,4.09861,7.76411,-0.155079,0.00358873,-0.085595,0
2024-12-11 14:29:19.863,0.562612,4.12253,7.74018,-0.188675,-0.0165692,-0.0898709,0
2024-12-11 14:29:19.865,0.60329,4.1345,7.73779,-0.218607,-0.0348946,-0.0959794,0
2024-12-11 14:29:19.869,0.622433,4.14407,7.73779,-0.252204,-0.0526092,-0.102699,0
2024-12-11 14:29:19.870,0.651147,4.16321,7.77129,-0.286411,-0.0721563,-0.11064,0
2024-12-11 14:29:19.874,0.677468,4.18953,7.84547,-0.349939,-0.105753,-0.127133,0
2024-12-11 14:29:19.875,0.703789,4.22333,7.94118,-0.349939,-0.105753,-0.127133,0
2024-12-11 14:29:19.880,0.734896,4.2329,8.17119,-0.40858,-0.13263,-0.141182,0
2024-12-11 14:29:19.882,0.74686,4.23769,8.3004,-0.432404,-0.143625,-0.148512,0
2024-12-11 14:29:19.883,0.74686,4.23769,8.3004,-0.458059,-0.149123,-0.154621,0
2024-12-11 14:29:19.885,0.744467,4.24726,8.41765,-0.479439,-0.154621,-0.160118,0
2024-12-11 14:29:19.887,0.727717,4.24965,8.53251,-0.479439,-0.154621,-0.160118,0
2024-12-11 14:29:19.889,0.703789,4.25444,8.65693,-0.479439,-0.154621,-0.160118,0
2024-12-11 14:29:19.891,0.665504,4.24726,8.7673,-0.514257,-0.158897,-0.163173,0
2024-12-11 14:29:19.894,0.612862,4.24247,8.85823,-0.532582,-0.156453,-0.160729,0
2024-12-11 14:29:19.898,0.481256,4.21855,9.04726,-0.560681,-0.150345,-0.155232,0
2024-12-11 14:29:19.901,0.4334,4.22094,9.14297,-0.573509,-0.146069,-0.149734,0
2024-12-11 14:29:19.901,0.4334,4.22094,9.14297,-0.573509,-0.146069,-0.149734,0
2024-12-11 14:29:19.903,0.41665,4.24487,9.24108,-0.573509,-0.146069,-0.149734,0
2024-12-11 14:29:19.907,0.421436,4.24726,9.35624,-0.604662,-0.138128,-0.129576,0
2024-12-11 14:29:19.910,0.486042,4.22094,9.61227,-0.611382,-0.138739,-0.123468,0
2024-12-11 14:29:19.910,0.486042,4.22094,9.61227,-0.611382,-0.138739,-0.123468,0
2024-12-11 14:29:19.914,0.519542,4.19193,9.71516,-0.616269,-0.138128,-0.111861,0
2024-12-11 14:29:19.918,0.572184,4.14646,9.92842,-0.616269,-0.138128,-0.111861,0
2024-12-11 14:29:19.920,0.608076,4.13211,10.0433,-0.615047,-0.141182,-0.10392,0
2024-12-11 14:29:19.920,0.629611,4.13211,10.0433,-0.615047,-0.141182,-0.10392,0
2024-12-11 14:29:19.922,0.672682,4.12971,10.1533,-0.611993,-0.144847,-0.100255,0
2024-12-11 14:29:19.925,0.708575,4.101,10.273,-0.603441,-0.146069,-0.0972011,0
2024-12-11 14:29:19.927,0.749253,4.07229,10.4073,-0.596111,-0.147901,-0.093536,0
2024-12-11 14:29:19.930,0.775574,4.05314,10.5389,-0.571677,-0.150956,-0.0880384,0
2024-12-11 14:29:19.931,0.782752,4.034,10.6561,-0.571677,-0.150956,-0.0880384,0
2024-12-11 14:29:19.934,0.773181,4.034,10.7806,-0.571677,-0.150956,-0.0880384,0
2024-12-11 14:29:19.936,0.744467,4.034,10.8882,-0.531972,-0.140571,-0.0782648,0
2024-12-11 14:29:19.938,0.727717,4.00768,10.9627,-0.511203,-0.134463,-0.0727672,0
2024-12-11 14:29:19.941,0.727717,3.97179,11.0249,-0.486158,-0.124689,-0.0648262,0
2024-12-11 14:29:19.944,0.74686,3.94547,11.0848,-0.458059,-0.113083,-0.0562743,0
2024-12-11 14:29:19.947,0.787538,3.96461,11.1494,-0.403083,-0.0868167,-0.0385597,0
2024-12-11 14:29:19.948,0.84018,3.98614,11.2116,-0.403083,-0.0868167,-0.0385597,0
2024-12-11 14:29:19.953,0.919442,4.05554,11.3192,-0.33589,-0.0538309,-0.0300079,0
2024-12-11 14:29:19.955,0.94337,4.08903,11.3599,-0.297406,-0.0330621,-0.0281753,0
2024-12-11 14:29:19.957,0.972084,4.11775,11.3719,-0.25648,-0.0122933,-0.0257319,0
2024-12-11 14:29:19.960,1.00558,4.13928,11.3504,-0.216774,0.00847551,-0.0245102,0
2024-12-11 14:29:19.960,1.00558,4.13928,11.3504,-0.216774,0.00847551,-0.0245102,0
2024-12-11 14:29:19.962,1.02473,4.14886,11.2857,-0.216774,0.00847551,-0.0245102,0
2024-12-11 14:29:19.964,1.01515,4.16321,11.1685,-0.135532,0.0487914,-0.0263428,0
2024-12-11 14:29:19.969,0.897907,4.24965,10.8906,-0.0970484,0.0683385,-0.0269536,0
2024-12-11 14:29:19.971,0.830609,4.28076,10.7375,-0.0255792,0.100713,-0.0257319,0
2024-12-11 14:29:19.974,0.775574,4.29751,10.5413,0.00740652,0.111709,-0.0238994,0
2024-12-11 14:29:19.975,0.775574,4.29751,10.5413,0.0361163,0.120261,-0.0196235,0
2024-12-11 14:29:19.977,0.732503,4.32622,10.34,0.0361163,0.120261,-0.0196235,0
2024-12-11 14:29:19.981,0.691825,4.35254,10.1342,0.081319,0.133088,-0.0177909,0
2024-12-11 14:29:19.981,0.663111,4.37408,9.92603,0.081319,0.133088,-0.0177909,0
2024-12-11 14:29:19.983,0.65354,4.40519,9.72473,0.0972011,0.134921,-0.0165692,0
2024-12-11 14:29:19.987,0.63679,4.42672,9.53809,0.121635,0.139808,-0.0129041,0
2024-12-11 14:29:19.990,0.627219,4.48415,9.26052,0.128354,0.139197,-0.0153475,0
2024-12-11 14:29:19.990,0.627219,4.48415,9.26052,0.128354,0.139197,-0.0153475,0
2024-12-11 14:29:19.993,0.639183,4.52243,9.15015,0.135074,0.140419,-0.0165692,0
2024-12-11 14:29:19.996,0.663111,4.55354,9.03769,0.148512,0.143473,-0.0238994,0
2024-12-11 14:29:19.998,0.665504,4.56311,8.93719,0.148512,0.143473,-0.0238994,0
2024-12-11 14:29:20.000,0.646361,4.56551,8.84148,0.15401,0.145305,-0.0287862,0
2024-12-11 14:29:20.002,0.639183,4.58226,8.74577,0.159507,0.147138,-0.033673,0
2024-12-11 14:29:20.004,0.622433,4.60379,8.65693,0.163173,0.150192,-0.037338,0
2024-12-11 14:29:20.007,0.598505,4.61336,8.57558,0.163783,0.154468,-0.0434465,0
2024-12-11 14:29:20.010,0.572184,4.6014,8.49183,0.166227,0.158744,-0.0526092,0
2024-12-11 14:29:20.011,0.548256,4.59661,8.41526,0.165616,0.164242,-0.057496,0
2024-12-11 14:29:20.015,0.50997,4.58226,8.3363,0.166838,0.169739,-0.0636045,0
2024-12-11 14:29:20.016,0.459721,4.55833,8.26451,0.164394,0.174015,-0.0697129,0
2024-12-11 14:29:20.019,0.421436,4.54397,8.20469,0.162562,0.178902,-0.0764323,0
2024-12-11 14:29:20.021,0.368794,4.54158,8.16162,0.161951,0.183178,-0.0807082,0
2024-12-11 14:29:20.023,0.30658,4.53201,8.09193,0.157064,0.186843,-0.0843733,0
2024-12-11 14:29:20.026,0.251246,4.51765,8.03211,0.15401,0.187454,-0.0868167,0
2024-12-11 14:29:20.030,0.133998,4.44826,7.92922,0.15401,0.192951,-0.0947577,0
2024-12-11 14:29:20.033,0.0933201,4.42911,7.87657,0.14668,0.200892,-0.0965902,0
2024-12-11 14:29:20.033,0.0933201,4.42911,7.87657,0.14668,0.200892,-0.0965902,0
2024-12-11 14:29:20.035,0.0502493,4.39801,7.82154,0.140571,0.201503,-0.0972011,0
2024-12-11 14:29:20.040,-0.0550349,4.32144,7.7019,0.128965,0.202725,-0.0965902,0
2024-12-11 14:29:20.041,-0.0550349,4.32144,7.7019,0.128965,0.202725,-0.0965902,0
2024-12-11 14:29:20.042,-0.0909273,4.30708,7.64926,0.122246,0.199671,-0.0947577,0
2024-12-11 14:29:20.045,-0.129212,4.27597,7.60618,0.114305,0.197838,-0.0947577,0
2024-12-11 14:29:20.047,-0.167498,4.25444,7.56282,0.108807,0.192951,-0.0923143,0
