timestamp,accel_x,accel_y,accel_z,gyro_x,gyro_y,gyro_z,step_timestamp
2024-12-11 14:42:32.139,0.0478565,2.62164,9.51655,-0.115374,-0.00496313,-0.0153475,0
2024-12-11 14:42:32.139,0.0478565,2.62164,9.51655,-0.115374,-0.00496313,-0.0153475,0
2024-12-11 14:42:32.139,0.0478565,2.62164,9.51655,-0.115374,-0.00496313,-0.0153475,0
2024-12-11 14:42:32.139,0.0478565,2.62164,9.51655,-0.115374,-0.00496313,-0.0153475,0
2024-12-11 14:42:32.139,0.0478565,2.62164,9.51655,-0.115374,-0.00496313,-0.0153475,0
2024-12-11 14:42:32.139,0.0478565,2.62164,9.51655,-0.115374,-0.00496313,-0.0153475,0
2024-12-11 14:42:32.139,0.0478565,2.62164,9.51655,-0.115374,-0.00496313,-0.0153475,0
2024-12-11 14:42:32.139,0.0478565,2.62164,9.51655,-0.115374,-0.00496313,-0.0153475,0
2024-12-11 14:42:32.139,0.0478565,2.62164,9.51655,-0.115374,-0.00496313,-0.0153475,0
2024-12-11 14:42:32.139,0.0478565,2.62164,9.51655,-0.115374,-0.00496313,-0.0153475,0
2024-12-11 14:42:32.139,0.0478565,2.62164,9.51655,-0.115374,-0.00496313,-0.0153475,0
2024-12-11 14:42:32.139,0.0478565,2.62164,9.51655,-0.115374,-0.00496313,-0.0153475,0
2024-12-11 14:42:32.139,0.0478565,2.62164,9.51655,-0.115374,-0.00496313,-0.0153475,0
2024-12-11 14:42:32.139,0.0478565,2.62164,9.51655,-0.115374,-0.00496313,-0.0153475,0
2024-12-11 14:42:32.139,0.0478565,2.62164,9.51655,-0.115374,-0.00496313,-0.0153475,0
2024-12-11 14:42:32.139,0.0478565,2.62164,9.51655,-0.115374,-0.00496313,-0.0153475,0
2024-12-11 14:42:32.139,0.0478565,2.62164,9.51655,-0.115374,-0.00496313,-0.0153475,0
2024-12-11 14:42:32.139,0.0478565,2.62164,9.51655,-0.115374,-0.00496313,-0.0153475,0
2024-12-11 14:42:32.139,0.0478565,2.62164,9.51655,-0.115374,-0.00496313,-0.0153475,0
2024-12-11 14:42:32.139,0.0478565,2.62164,9.51655,-0.115374,-0.00496313,-0.0153475,0
2024-12-11 14:42:32.139,0.0478565,2.62164,9.51655,-0.115374,-0.00496313,-0.0153475,0
2024-12-11 14:42:32.139,0.0478565,2.62164,9.51655,-0.115374,-0.00496313,-0.0153475,0
2024-12-11 14:42:32.139,0.0478565,2.62164,9.51655,-0.115374,-0.00496313,-0.0153475,0
2024-12-11 14:42:32.139,0.0478565,2.62164,9.51655,-0.115374,-0.00496313,-0.0153475,0
2024-12-11 14:42:32.139,0.0478565,2.62164,9.51655,-0.115374,-0.00496313,-0.0153475,0
2024-12-11 14:42:32.139,0.0478565,2.62164,9.51655,-0.115374,-0.00496313,-0.0153475,0
2024-12-11 14:42:32.139,0.0478565,2.62164,9.51655,-0.115374,-0.00496313,-0.0153475,0
2024-12-11 14:42:32.139,0.0478565,2.62164,9.51655,-0.115374,-0.00496313,-0.0153475,0
2024-12-11 14:42:32.139,0.0478565,2.62164,9.51655,-0.115374,-0.00496313,-0.0153475,0
2024-12-11 14:42:32.139,0.0478565,2.62164,9.51655,-0.115374,-0.00496313,-0.0153475,0
2024-12-11 14:42:32.139,0.0478565,2.62164,9.51655,-0.115374,-0.00496313,-0.0153475,0
2024-12-11 14:42:32.139,0.0478565,2.62164,9.51655,-0.115374,-0.00496313,-0.0153475,0
2024-12-11 14:42:32.139,0.0478565,2.62164,9.51655,-0.115374,-0.00496313,-0.0153475,0
2024-12-11 14:42:32.139,0.0478565,2.62164,9.51655,-0.115374,-0.00496313,-0.0153475,0
2024-12-11 14:42:32.139,0.0478565,2.62164,9.51655,-0.115374,-0.00496313,-0.0153475,0
2024-12-11 14:42:32.139,0.0478565,2.62164,9.51655,-0.115374,-0.00496313,-0.0153475,0
2024-12-11 14:42:32.139,0.0478565,2.62164,9.51655,-0.115374,-0.00496313,-0.0153475,0
2024-12-11 14:42:32.139,0.0478565,2.62164,9.51655,-0.115374,-0.00496313,-0.0153475,0
2024-12-11 14:42:32.139,0.0478565,2.62164,9.51655,-0.115374,-0.00496313,-0.0153475,0
2024-12-11 14:42:32.139,0.0478565,2.62164,9.51655,-0.115374,-0.00496313,-0.0153475,0
2024-12-11 14:42:32.139,0.0478565,2.62164,9.51655,-0.115374,-0.00496313,-0.0153475,0
2024-12-11 14:42:32.139,0.0478565,2.62164,9.51655,-0.115374,-0.00496313,-0.0153475,0
2024-12-11 14:42:32.140,0.0478565,2.62164,9.51655,-0.115374,-0.00496313,-0.0153475,0
2024-12-11 14:42:32.140,0.0478565,2.62164,9.51655,-0.115374,-0.00496313,-0.0153475,0
2024-12-11 14:42:32.140,0.0478565,2.62164,9.51655,-0.115374,-0.00496313,-0.0153475,0
2024-12-11 14:42:32.140,0.0478565,2.62164,9.51655,-0.115374,-0.00496313,-0.0153475,0
2024-12-11 14:42:32.140,0.0478565,2.62164,9.51655,-0.115374,-0.00496313,-0.0153475,0
2024-12-11 14:42:32.140,0.0478565,2.62164,9.51655,-0.115374,-0.00496313,-0.0153475,0
2024-12-11 14:42:32.140,0.0478565,2.62164,9.51655,-0.115374,-0.00496313,-0.0153475,0
2024-12-11 14:42:32.140,0.0478565,2.62164,9.51655,-0.115374,-0.00496313,-0.0153475,0
2024-12-11 14:42:32.140,0.0478565,2.62164,9.51655,-0.115374,-0.00496313,-0.0153475,0
2024-12-11 14:42:32.140,0.0478565,2.62164,9.51655,-0.115374,-0.00496313,-0.0153475,0
2024-12-11 14:42:32.140,0.0478565,2.62164,9.51655,-0.115374,-0.00496313,-0.0153475,0
2024-12-11 14:42:32.140,0.0478565,2.62164,9.51655,-0.115374,-0.00496313,-0.0153475,0
2024-12-11 14:42:32.140,0.0478565,2.62164,9.51655,-0.115374,-0.00496313,-0.0153475,0
2024-12-11 14:42:32.140,0.0478565,2.62164,9.51655,-0.115374,-0.00496313,-0.0153475,0
2024-12-11 14:42:32.140,0.0478565,2.62164,9.51655,-0.115374,-0.00496313,-0.0153475,0
2024-12-11 14:42:32.140,0.0478565,2.62164,9.51655,-0.115374,-0.00496313,-0.0153475,0
2024-12-11 14:42:32.140,0.0478565,2.62164,9.51655,-0.115374,-0.00496313,-0.0153475,0
2024-12-11 14:42:32.140,0.0478565,2.62164,9.51655,-0.115374,-0.00496313,-0.0153475,0
2024-12-11 14:42:32.140,0.0478565,2.62164,9.51655,-0.115374,-0.00496313,-0.0153475,0
2024-12-11 14:42:32.140,0.0478565,2.62164,9.51655,-0.115374,-0.00496313,-0.0153475,0
2024-12-11 14:42:32.140,0.0478565,2.62164,9.51655,-0.115374,-0.00496313,-0.0153475,0
2024-12-11 14:42:32.140,0.0478565,2.62164,9.51655,-0.115374,-0.00496313,-0.0153475,0
2024-12-11 14:42:32.140,0.0478565,2.62164,9.51655,-0.115374,-0.00496313,-0.0153475,0
2024-12-11 14:42:32.140,0.0478565,2.62164,9.51655,-0.115374,-0.00496313,-0.0153475,0
2024-12-11 14:42:32.140,0.0478565,2.62164,9.51655,-0.115374,-0.00496313,-0.0153475,0
2024-12-11 14:42:32.140,0.0478565,2.62164,9.51655,-0.115374,-0.00496313,-0.0153475,0
2024-12-11 14:42:32.140,0.0478565,2.62164,9.51655,-0.115374,-0.00496313,-0.0153475,0
2024-12-11 14:42:32.140,0.0478565,2.62164,9.51655,-0.115374,-0.00496313,-0.0153475,0
2024-12-11 14:42:32.141,0.0526421,2.62642,9.57398,-0.115374,-0.00496313,-0.0153475,0
2024-12-11 14:42:32.158,0.081356,2.57857,9.97867,-0.11232,-0.0153475,-0.0165692,0
2024-12-11 14:42:32.158,0.081356,2.57857,9.97867,-0.11232,-0.0153475,-0.0165692,0
2024-12-11 14:42:32.158,0.081356,2.57857,9.97867,-0.11232,-0.0153475,-0.0165692,0
2024-12-11 14:42:32.159,0.081356,2.57857,9.97867,-0.11232,-0.0153475,-0.0165692,0
2024-12-11 14:42:32.160,0.0789631,2.56421,9.99781,-0.11232,-0.0153475,-0.0165692,0
2024-12-11 14:42:32.162,0.0861416,2.54028,10.0313,-0.0994917,-0.00984991,-0.0177909,0
2024-12-11 14:42:32.162,0.0861416,2.54028,10.0313,-0.0994917,-0.00984991,-0.0177909,0
2024-12-11 14:42:32.162,0.0861416,2.54028,10.0313,-0.0994917,-0.00984991,-0.0177909,0
2024-12-11 14:42:32.162,0.0861416,2.54028,10.0313,-0.0994917,-0.00984991,-0.0177909,0
2024-12-11 14:42:32.163,0.0861416,2.54028,10.0313,-0.0994917,-0.00984991,-0.0177909,0
2024-12-11 14:42:32.163,0.0861416,2.54028,10.0313,-0.0994917,-0.00984991,-0.0177909,0
2024-12-11 14:42:32.165,0.0837488,2.53071,10.0744,-0.0933833,-0.00557398,-0.0184018,0
2024-12-11 14:42:32.165,0.0837488,2.53071,10.0744,-0.0933833,-0.00557398,-0.0184018,0
2024-12-11 14:42:32.165,0.0837488,2.53071,10.0744,-0.0933833,-0.00557398,-0.0184018,0
2024-12-11 14:42:32.165,0.0837488,2.53071,10.0744,-0.0933833,-0.00557398,-0.0184018,0
2024-12-11 14:42:32.166,0.0837488,2.53071,10.0744,-0.0878856,0.000534491,-0.0171801,0
2024-12-11 14:42:32.167,0.0717847,2.51845,10.0935,-0.0878856,0.000534491,-0.0171801,0
2024-12-11 14:42:32.167,0.0717847,2.51845,10.0935,-0.0878856,0.000534491,-0.0171801,0
2024-12-11 14:42:32.167,0.0717847,2.51845,10.0935,-0.0878856,0.000534491,-0.0171801,0
2024-12-11 14:42:32.168,0.0717847,2.51845,10.0935,-0.0805555,0.00419957,-0.0165692,0
2024-12-11 14:42:32.168,0.0717847,2.51845,10.0935,-0.0805555,0.00419957,-0.0165692,0
2024-12-11 14:42:32.169,0.066999,2.49452,10.0935,-0.0805555,0.00419957,-0.0165692,0
2024-12-11 14:42:32.169,0.066999,2.49452,10.0935,-0.0805555,0.00419957,-0.0165692,0
2024-12-11 14:42:32.169,0.066999,2.49452,10.0935,-0.0805555,0.00419957,-0.0165692,0
2024-12-11 14:42:32.170,0.066999,2.49452,10.0935,-0.0805555,0.00419957,-0.0165692,0
2024-12-11 14:42:32.172,0.0622134,2.48973,10.0696,-0.0738362,0.00786466,-0.0159584,0
2024-12-11 14:42:32.172,0.0622134,2.48973,10.0696,-0.0738362,0.00786466,-0.0159584,0
2024-12-11 14:42:32.172,0.0622134,2.48973,10.0696,-0.0738362,0.00786466,-0.0159584,0
2024-12-11 14:42:32.172,0.0622134,2.48973,10.0696,-0.0738362,0.00786466,-0.0159584,0
2024-12-11 14:42:32.174,0.0382852,2.49212,10.0385,-0.0671168,0.0115297,-0.0153475,0
2024-12-11 14:42:32.177,0.00478565,2.47777,10.0289,-0.058565,0.0133623,-0.013515,0
2024-12-11 14:42:32.179,-0.0191426,2.48255,9.99063,-0.0530674,0.0170274,-0.013515,0
2024-12-11 14:42:32.182,-0.0239282,2.48973,9.9332,-0.0457372,0.0206925,-0.0122933,0
2024-12-11 14:42:32.186,-0.0646062,2.49212,9.83749,-0.0371853,0.0213033,-0.0104608,0
2024-12-11 14:42:32.187,-0.0646062,2.49212,9.83749,-0.0371853,0.0213033,-0.0104608,0
2024-12-11 14:42:32.193,-0.105284,2.49452,9.62902,-0.0286335,0.0158057,-0.00618483,0
2024-12-11 14:42:32.193,-0.105284,2.49452,9.62902,-0.0286335,0.0158057,-0.00618483,0
2024-12-11 14:42:32.196,-0.105284,2.49452,9.55484,-0.030466,0.0133623,-0.00435229,0
2024-12-11 14:42:32.196,-0.105284,2.49452,9.55484,-0.030466,0.0133623,-0.00435229,0
2024-12-11 14:42:32.199,-0.122034,2.4993,9.49023,-0.0347419,0.00175619,-0.00435229,0
2024-12-11 14:42:32.201,-0.124427,2.50648,9.44716,-0.038407,-0.00618483,-0.00313059,0
2024-12-11 14:42:32.203,-0.107677,2.4993,9.40409,-0.038407,-0.00618483,-0.00313059,0
2024-12-11 14:42:32.205,-0.0933201,2.52084,9.38256,-0.0432938,-0.0129041,-0.00618483,0
2024-12-11 14:42:32.207,-0.0765703,2.54267,9.36581,-0.0475697,-0.021456,-0.00862822,0
2024-12-11 14:42:32.209,-0.0574277,2.54267,9.35624,-0.0494023,-0.0269536,-0.00862822,0
2024-12-11 14:42:32.212,-0.0574277,2.54028,9.37299,-0.0567324,-0.033673,-0.0110716,0
2024-12-11 14:42:32.217,-0.00239282,2.54267,9.38256,-0.0652843,-0.0440574,-0.0141258,0
2024-12-11 14:42:32.218,-0.00239282,2.54267,9.38256,-0.0707819,-0.0489441,-0.0171801,0
2024-12-11 14:42:32.219,0.0167498,2.53789,9.41606,-0.0707819,-0.0489441,-0.0171801,0
2024-12-11 14:42:32.221,0.0287139,2.54507,9.43041,-0.0750579,-0.0483333,-0.0184018,0
2024-12-11 14:42:32.224,0.0502493,2.55464,9.43281,-0.0799446,-0.0483333,-0.0220669,0
2024-12-11 14:42:32.227,0.066999,2.55224,9.45673,-0.0854423,-0.0483333,-0.0269536,0
2024-12-11 14:42:32.229,0.0837488,2.55464,9.46152,-0.0854423,-0.0483333,-0.0269536,0
2024-12-11 14:42:32.231,0.11007,2.55942,9.47109,-0.0884965,-0.0452791,-0.0287862,0
2024-12-11 14:42:32.234,0.117248,2.54507,9.49023,-0.0952158,-0.0385597,-0.0330621,0
2024-12-11 14:42:32.235,0.11007,2.5331,9.48545,-0.0952158,-0.0385597,-0.0330621,0
2024-12-11 14:42:32.239,0.11007,2.52592,9.49741,-0.108654,-0.0330621,-0.0342838,0
2024-12-11 14:42:32.240,0.100499,2.52832,9.51416,-0.108654,-0.0330621,-0.0342838,0
2024-12-11 14:42:32.242,0.100499,2.54028,9.51416,-0.11232,-0.0281753,-0.0318404,0
2024-12-11 14:42:32.245,0.0981057,2.53071,9.52852,-0.116595,-0.0220669,-0.029397,0
2024-12-11 14:42:32.248,0.11007,2.50648,9.55723,-0.128202,-0.00618483,-0.0257319,0
2024-12-11 14:42:32.250,0.131605,2.5017,9.57398,-0.128202,-0.00618483,-0.0257319,0
2024-12-11 14:42:32.253,0.148355,2.50409,9.58834,-0.135532,0.00175619,-0.0232886,0
2024-12-11 14:42:32.254,0.157926,2.50887,9.62184,-0.136753,0.00786466,-0.0226777,0
2024-12-11 14:42:32.257,0.177069,2.50409,9.64577,-0.144084,0.0158057,-0.0226777,0
2024-12-11 14:42:32.259,0.198604,2.50409,9.68166,-0.144694,0.0237467,-0.0226777,0
2024-12-11 14:42:32.261,0.210568,2.50409,9.72234,-0.14897,0.0292443,-0.0208452,0
2024-12-11 14:42:32.265,0.210568,2.49452,9.74866,-0.154468,0.0390179,-0.0208452,0
2024-12-11 14:42:32.266,0.212961,2.4993,9.79173,-0.154468,0.0390179,-0.0208452,0
2024-12-11 14:42:32.268,0.234497,2.49212,9.83271,-0.151414,0.0469589,-0.0208452,0
2024-12-11 14:42:32.271,0.236889,2.48495,9.86142,-0.153246,0.0494023,-0.0220669,0
2024-12-11 14:42:32.274,0.244068,2.49212,9.88774,-0.150803,0.0542891,-0.021456,0
2024-12-11 14:42:32.275,0.241675,2.48973,9.91406,-0.149581,0.0555107,-0.0238994,0
2024-12-11 14:42:32.278,0.234497,2.48495,9.94517,-0.145916,0.0555107,-0.0245102,0
2024-12-11 14:42:32.281,0.236889,2.48973,9.98106,-0.13431,0.0542891,-0.0275645,0
2024-12-11 14:42:32.283,0.227318,2.49212,10.005,-0.13431,0.0542891,-0.0275645,0
2024-12-11 14:42:32.286,0.210568,2.48255,10.0122,-0.129423,0.0530674,-0.0287862,0
2024-12-11 14:42:32.287,0.191426,2.47537,10.0217,-0.121482,0.0542891,-0.0275645,0
2024-12-11 14:42:32.290,0.174676,2.48016,10.0313,-0.115985,0.0500131,-0.0281753,0
2024-12-11 14:42:32.292,0.165105,2.48495,10.0241,-0.107433,0.0445155,-0.0269536,0
2024-12-11 14:42:32.294,0.141177,2.4993,10.0146,-0.0976592,0.0432938,-0.0257319,0
2024-12-11 14:42:32.297,0.119641,2.52592,10.0074,-0.0909399,0.0353528,-0.0232886,0
2024-12-11 14:42:32.300,0.107677,2.54507,9.98585,-0.0750579,0.0243575,-0.0177909,0
2024-12-11 14:42:32.301,0.112463,2.56421,9.94756,-0.0750579,0.0243575,-0.0177909,0
2024-12-11 14:42:32.304,0.112463,2.57378,9.90688,-0.0701711,0.0176382,-0.0177909,0
2024-12-11 14:42:32.306,0.112463,2.60967,9.87338,-0.0640626,0.0121406,-0.0171801,0
2024-12-11 14:42:32.308,0.12682,2.63839,9.84946,-0.0579541,0.00481042,-0.0147367,0
2024-12-11 14:42:32.312,0.136391,2.65514,9.81326,-0.0555107,-0.00251974,-0.0129041,0
2024-12-11 14:42:32.314,0.155533,2.69342,9.76062,-0.0524565,-0.0110716,-0.013515,0
2024-12-11 14:42:32.315,0.16989,2.74606,9.72473,-0.0512348,-0.0184018,-0.0171801,0
2024-12-11 14:42:32.318,0.177069,2.78913,9.71755,-0.050624,-0.0238994,-0.0190126,0
2024-12-11 14:42:32.320,0.18664,2.81067,9.70559,-0.050624,-0.0318404,-0.0226777,0
2024-12-11 14:42:32.322,0.181855,2.82503,9.6697,-0.0475697,-0.0385597,-0.0251211,0
2024-12-11 14:42:32.325,0.191426,2.85135,9.64098,-0.0469589,-0.0452791,-0.0312296,0
2024-12-11 14:42:32.328,0.246461,2.82742,9.63141,-0.0487914,-0.0489441,-0.0446682,0
2024-12-11 14:42:32.330,0.301795,2.78674,9.6338,-0.0487914,-0.0489441,-0.0446682,0
2024-12-11 14:42:32.332,0.265603,2.82742,9.64098,-0.0432938,-0.0507767,-0.0550526,0
2024-12-11 14:42:32.335,0.148355,2.90399,9.61705,-0.0457372,-0.0526092,-0.0599394,0
2024-12-11 14:42:32.337,0.040678,2.96142,9.59313,-0.0457372,-0.057496,-0.0617719,0
2024-12-11 14:42:32.339,-0.026321,2.99252,9.59073,-0.046348,-0.0642153,-0.0611611,0
2024-12-11 14:42:32.342,-0.0693919,3.01645,9.59073,-0.0451263,-0.0660479,-0.0593285,0
2024-12-11 14:42:32.344,-0.081356,3.02363,9.60987,-0.0439046,-0.0691021,-0.0587177,0
2024-12-11 14:42:32.346,-0.0598206,2.98056,9.6338,-0.046348,-0.0752106,-0.0593285,0
2024-12-11 14:42:32.348,-0.0382852,2.92313,9.64577,-0.042683,-0.0770431,-0.0593285,0
2024-12-11 14:42:32.351,-0.0191426,2.88006,9.64816,-0.0439046,-0.081319,-0.0599394,0
2024-12-11 14:42:32.353,0.0,2.8346,9.66012,-0.0445155,-0.0825407,-0.0605502,0
2024-12-11 14:42:32.356,-0.00478565,2.79153,9.68884,-0.0414613,-0.0800973,-0.0617719,0
2024-12-11 14:42:32.358,-0.0167498,2.77717,9.72952,-0.0402396,-0.081319,-0.0629936,0
2024-12-11 14:42:32.361,-0.026321,2.77478,9.7678,-0.0286335,-0.0825407,-0.0581068,0
2024-12-11 14:42:32.364,-0.0478565,2.78435,9.81326,-0.0286335,-0.0825407,-0.0581068,0
2024-12-11 14:42:32.365,-0.0574277,2.78196,9.86621,-0.0200816,-0.081319,-0.0562743,0
2024-12-11 14:42:32.367,-0.0478565,2.77956,9.90928,-0.0121406,-0.0807082,-0.0544418,0
2024-12-11 14:42:32.370,-0.0646062,2.76042,9.92842,-0.00114534,-0.0794865,-0.0489441,0
2024-12-11 14:42:32.373,-0.0837488,2.75324,9.94756,0.0196235,-0.0709346,-0.0391706,0
2024-12-11 14:42:32.374,-0.0789631,2.7676,9.95953,0.0196235,-0.0709346,-0.0391706,0
2024-12-11 14:42:32.377,-0.0741775,2.75803,9.94278,0.0330621,-0.0642153,-0.0330621,0
2024-12-11 14:42:32.380,-0.0741775,2.74846,9.91885,0.0581068,-0.0489441,-0.0226777,0
2024-12-11 14:42:32.381,-0.0741775,2.75803,9.88774,0.0581068,-0.0489441,-0.0226777,0
2024-12-11 14:42:32.384,-0.0861416,2.75563,9.84946,0.0715455,-0.041614,-0.0190126,0
2024-12-11 14:42:32.386,-0.0478565,2.71735,9.79652,0.0825407,-0.0312296,-0.0104608,0
2024-12-11 14:42:32.388,0.0119641,2.66949,9.73909,0.0965902,-0.0190126,-0.00984991,0
2024-12-11 14:42:32.392,0.00957129,2.68385,9.68405,0.116748,0.00481042,0.000534491,0
2024-12-11 14:42:32.393,-0.040678,2.73888,9.62184,0.116748,0.00481042,0.000534491,0
2024-12-11 14:42:32.395,-0.0885344,2.8011,9.55245,0.124078,0.0127514,0.00664296,0
2024-12-11 14:42:32.399,-0.12682,2.8657,9.4687,0.13263,0.022525,0.0139731,0
2024-12-11 14:42:32.400,-0.143569,2.9016,9.38734,0.141793,0.0341311,0.0255792,0
2024-12-11 14:42:32.403,-0.124427,2.93031,9.29642,0.146069,0.0402396,0.0353528,0
2024-12-11 14:42:32.407,-0.0646062,2.96142,9.11426,0.147291,0.0591758,0.0475697,0
2024-12-11 14:42:32.407,-0.0646062,2.96142,9.11426,0.147291,0.0591758,0.0475697,0
2024-12-11 14:42:32.410,-0.040678,2.97099,9.01137,0.149123,0.066506,0.0512348,0
2024-12-11 14:42:32.413,-0.00717847,2.98295,8.90609,0.146069,0.0768904,0.0530674,0
2024-12-11 14:42:32.417,0.107677,2.97338,8.72423,0.13935,0.0854423,0.0524565,0
2024-12-11 14:42:32.417,0.107677,2.97338,8.72423,0.13935,0.0854423,0.0524565,0
2024-12-11 14:42:32.421,0.196211,3.01167,8.60429,0.111861,0.1056,0.0481806,0
2024-12-11 14:42:32.422,0.196211,3.01167,8.60429,0.111861,0.1056,0.0481806,0
2024-12-11 14:42:32.424,0.227318,3.03559,8.56361,0.104531,0.111709,0.0432938,0
2024-12-11 14:42:32.427,0.258425,3.04517,8.52533,0.0917034,0.119039,0.0377962,0
2024-12-11 14:42:32.428,0.275175,3.0667,8.49661,0.077654,0.123926,0.030466,0
2024-12-11 14:42:32.431,0.27996,3.08584,8.47508,0.065437,0.128812,0.0237467,0
2024-12-11 14:42:32.436,0.34008,3.11725,8.39372,0.0348946,0.133699,0.0115297,0
2024-12-11 14:42:32.438,0.371187,3.11725,8.37697,0.0202343,0.135532,0.00236703,0
2024-12-11 14:42:32.439,0.371187,3.11725,8.37697,0.0019089,0.131256,-0.00557398,0
2024-12-11 14:42:32.441,0.3999,3.11725,8.36262,-0.014584,0.12698,-0.0147367,0
2024-12-11 14:42:32.443,0.407079,3.10768,8.34347,-0.014584,0.12698,-0.0147367,0
2024-12-11 14:42:32.446,0.4334,3.11486,8.35065,-0.0530674,0.111098,-0.0348946,0
2024-12-11 14:42:32.447,0.481256,3.11725,8.37697,-0.0530674,0.111098,-0.0348946,0
2024-12-11 14:42:32.451,0.517149,3.09093,8.41526,-0.0891073,0.0982701,-0.0568851,0
2024-12-11 14:42:32.453,0.548256,3.07149,8.47029,-0.0891073,0.0982701,-0.0568851,0
2024-12-11 14:42:32.454,0.576969,3.0667,8.51097,-0.106822,0.094605,-0.0672696,0
2024-12-11 14:42:32.457,0.62004,3.03799,8.54208,-0.124536,0.094605,-0.0770431,0
2024-12-11 14:42:32.460,0.687039,2.97817,8.57318,-0.153857,0.0921616,-0.0959794,0
2024-12-11 14:42:32.461,0.794716,2.89681,8.65215,-0.153857,0.0921616,-0.0959794,0
2024-12-11 14:42:32.464,0.897907,2.80828,8.78644,-0.168517,0.0872748,-0.108196,0
2024-12-11 14:42:32.466,0.969691,2.72692,8.9348,-0.180124,0.0811663,-0.119802,0
2024-12-11 14:42:32.469,1.01994,2.65992,9.09273,-0.188675,0.0768904,-0.133852,0
2024-12-11 14:42:32.471,1.04626,2.60728,9.2339,-0.191119,0.0768904,-0.144847,0
2024-12-11 14:42:32.473,1.0678,2.54985,9.35384,-0.191119,0.0775012,-0.156453,0
2024-12-11 14:42:32.478,1.11087,2.46102,9.57877,-0.181956,0.0842206,-0.171114,0
2024-12-11 14:42:32.478,1.11087,2.46102,9.57877,-0.181956,0.0842206,-0.171114,0
2024-12-11 14:42:32.481,1.11326,2.42034,9.70798,-0.15569,0.0976592,-0.177833,0
2024-12-11 14:42:32.483,1.10848,2.37248,9.81087,-0.15569,0.0976592,-0.177833,0
2024-12-11 14:42:32.485,1.1013,2.32941,9.85664,-0.15569,0.0976592,-0.177833,0
2024-12-11 14:42:32.487,1.11565,2.27438,9.93081,-0.126369,0.125147,-0.177833,0
2024-12-11 14:42:32.491,1.15155,2.20738,10.0313,-0.0768904,0.166685,-0.180276,0
2024-12-11 14:42:32.492,1.17308,2.15952,10.127,-0.0768904,0.166685,-0.180276,0
2024-12-11 14:42:32.497,1.15394,2.14756,10.2562,-0.0115297,0.202725,-0.177833,0
2024-12-11 14:42:32.497,1.15394,2.14756,10.2562,-0.0115297,0.202725,-0.177833,0
2024-12-11 14:42:32.499,1.12522,2.15952,10.2443,0.0238994,0.221661,-0.172335,0
2024-12-11 14:42:32.501,1.07258,2.20499,10.1916,0.0623828,0.238765,-0.166838,0
2024-12-11 14:42:32.506,0.876371,2.30548,9.89492,0.135074,0.288244,-0.146069,0
2024-12-11 14:42:32.506,0.876371,2.30548,9.89492,0.135074,0.288244,-0.146069,0
2024-12-11 14:42:32.509,0.811466,2.35813,9.7008,0.166227,0.315121,-0.133241,0
2024-12-11 14:42:32.512,0.770788,2.39641,9.5333,0.197991,0.341998,-0.121024,0
2024-12-11 14:42:32.514,0.734896,2.42752,9.39213,0.22609,0.36521,-0.107585,0
2024-12-11 14:42:32.517,0.655932,2.47777,9.26292,0.27679,0.413467,-0.0843733,0
2024-12-11 14:42:32.520,0.493221,2.62403,9.00419,0.300002,0.432404,-0.0691021,0
2024-12-11 14:42:32.520,0.493221,2.62403,9.00419,0.300002,0.432404,-0.0691021,0
2024-12-11 14:42:32.523,0.426222,2.73171,8.85584,0.32016,0.448896,-0.0538309,0
2024-12-11 14:42:32.525,0.359223,2.85374,8.68325,0.339097,0.461113,-0.0397814,0
2024-12-11 14:42:32.527,0.287438,2.96142,8.50619,0.353146,0.471498,-0.0251211,0
2024-12-11 14:42:32.530,0.241675,3.0667,8.3363,0.365974,0.48005,-0.00740652,0
2024-12-11 14:42:32.534,0.210568,3.29432,7.934,0.37025,0.482493,0.0194708,0
2024-12-11 14:42:32.535,0.210568,3.29432,7.934,0.37025,0.482493,0.0194708,0
2024-12-11 14:42:32.537,0.212961,3.39242,7.73061,0.367196,0.477606,0.0286335,0
2024-12-11 14:42:32.540,0.239282,3.49292,7.56042,0.355589,0.467222,0.0365745,0
2024-12-11 14:42:32.541,0.272782,3.59821,7.39292,0.336653,0.454394,0.0414613,0
2024-12-11 14:42:32.545,0.313759,3.71575,7.22303,0.282288,0.40797,0.0414613,0
2024-12-11 14:42:32.549,0.392722,3.96222,6.94995,0.243804,0.376206,0.0365745,0
2024-12-11 14:42:32.550,0.392722,3.96222,6.94995,0.243804,0.376206,0.0365745,0
2024-12-11 14:42:32.558,0.696611,4.41715,6.64846,0.0483333,0.222272,-0.0208452,0
2024-12-11 14:42:32.558,0.696611,4.41715,6.64846,0.0483333,0.222272,-0.0208452,0
2024-12-11 14:42:32.558,0.696611,4.41715,6.64846,0.0483333,0.222272,-0.0208452,0
2024-12-11 14:42:32.560,0.761217,4.51286,6.6341,-0.0121406,0.176459,-0.0440574,0
2024-12-11 14:42:32.560,0.761217,4.51286,6.6341,-0.0121406,0.176459,-0.0440574,0
2024-12-11 14:42:32.563,0.830609,4.58943,6.64128,-0.0713928,0.130645,-0.0703238,0
2024-12-11 14:42:32.565,0.907478,4.64925,6.67717,-0.137364,0.0817772,-0.0972011,0
2024-12-11 14:42:32.567,0.981655,4.69472,6.74417,-0.205168,0.0298552,-0.1253,0
2024-12-11 14:42:32.570,1.05105,4.71625,6.8351,-0.270529,-0.0208452,-0.157675,0
2024-12-11 14:42:32.572,1.12044,4.733,6.94277,-0.342609,-0.0739889,-0.186996,0
2024-12-11 14:42:32.575,1.21137,4.73779,7.09861,-0.412246,-0.125911,-0.221814,0
2024-12-11 14:42:32.577,1.30229,4.71625,7.29482,-0.48005,-0.177222,-0.2548,0
2024-12-11 14:42:32.580,1.37886,4.666,7.51496,-0.608938,-0.268238,-0.32016,0
2024-12-11 14:42:32.582,1.45334,4.61815,7.7354,-0.608938,-0.268238,-0.32016,0
2024-12-11 14:42:32.587,1.59691,4.48894,8.18555,-0.778143,-0.369028,-0.411787,0
2024-12-11 14:42:32.587,1.59691,4.48894,8.18555,-0.778143,-0.369028,-0.411787,0
2024-12-11 14:42:32.591,1.66391,4.31905,8.65693,-0.827011,-0.396516,-0.439276,0
2024-12-11 14:42:32.591,1.66391,4.31905,8.65693,-0.827011,-0.396516,-0.439276,0
2024-12-11 14:42:32.593,1.67587,4.23051,8.90369,-0.870992,-0.425226,-0.461266,0
2024-12-11 14:42:32.596,1.67348,4.15603,9.18844,-0.918027,-0.455158,-0.480202,0
2024-12-11 14:42:32.598,1.66152,4.09143,9.45913,-0.918027,-0.455158,-0.480202,0
2024-12-11 14:42:32.601,1.64716,4.02682,9.69362,-1.03226,-0.534568,-0.523572,0
2024-12-11 14:42:32.604,1.65673,3.97657,9.91406,-1.03226,-0.534568,-0.523572,0
2024-12-11 14:42:32.605,1.66869,3.92632,10.1557,-1.06165,-0.556558,-0.532124,0
2024-12-11 14:42:32.608,1.67827,3.86172,10.3977,-1.08853,-0.574273,-0.539454,0
2024-12-11 14:42:32.610,1.68066,3.80429,10.637,-1.11419,-0.587101,-0.544341,0
2024-12-11 14:42:32.612,1.67827,3.75165,10.893,-1.13679,-0.594431,-0.544952,0
2024-12-11 14:42:32.614,1.70698,3.68943,11.1685,-1.15206,-0.595652,-0.548006,0
2024-12-11 14:42:32.619,1.75962,3.56471,11.7981,-1.16794,-0.582214,-0.544341,0
2024-12-11 14:42:32.620,1.75962,3.56471,11.7981,-1.16611,-0.565721,-0.54312,0
2024-12-11 14:42:32.623,1.77637,3.50967,12.1047,-1.15328,-0.541898,-0.541287,0
2024-12-11 14:42:32.624,1.79073,3.47857,12.3942,-1.15328,-0.541898,-0.541287,0
2024-12-11 14:42:32.627,1.78834,3.43789,12.6769,-1.10991,-0.482035,-0.532735,0
2024-12-11 14:42:32.630,1.78834,3.40678,12.9497,-1.10991,-0.482035,-0.532735,0
2024-12-11 14:42:32.631,1.77637,3.39003,13.1988,-1.07815,-0.439276,-0.525405,0
2024-12-11 14:42:32.633,1.73809,3.38046,13.4189,-1.03592,-0.391629,-0.517464,0
2024-12-11 14:42:32.636,1.69502,3.35653,13.5984,-0.99194,-0.338486,-0.508912,0
2024-12-11 14:42:32.639,1.65673,3.34218,13.7276,-0.883209,-0.216927,-0.487532,0
2024-12-11 14:42:32.643,1.52752,3.3326,13.8619,-0.823957,-0.152788,-0.475316,0
2024-12-11 14:42:32.643,1.52752,3.3326,13.8619,-0.823957,-0.152788,-0.475316,0
2024-12-11 14:42:32.645,1.42941,3.35414,13.8523,-0.757985,-0.0849841,-0.463099,0
2024-12-11 14:42:32.648,1.32383,3.3685,13.7949,-0.69629,-0.0184018,-0.446606,0
2024-12-11 14:42:32.650,1.20897,3.3996,13.675,-0.627264,0.0487914,-0.430724,0
2024-12-11 14:42:32.652,1.07737,3.45464,13.4716,-0.561292,0.114763,-0.411787,0
2024-12-11 14:42:32.657,0.830609,3.54078,12.8587,-0.442788,0.232046,-0.369639,0
2024-12-11 14:42:32.658,0.830609,3.54078,12.8587,-0.442788,0.232046,-0.369639,0
2024-12-11 14:42:32.660,0.751645,3.55753,12.5067,-0.346885,0.319397,-0.324436,0
2024-12-11 14:42:32.662,0.675075,3.58146,12.1813,-0.346885,0.319397,-0.324436,0
2024-12-11 14:42:32.664,0.605683,3.62453,11.8747,-0.305958,0.354826,-0.304889,0
2024-12-11 14:42:32.667,0.569791,3.6679,11.5564,-0.24243,0.402472,-0.267627,0
2024-12-11 14:42:32.669,0.519542,3.7349,11.2762,-0.24243,0.402472,-0.267627,0
2024-12-11 14:42:32.672,0.435793,3.81865,11.0489,-0.181956,0.437901,-0.238307,0
2024-12-11 14:42:32.673,0.366401,3.88086,10.8093,-0.181956,0.437901,-0.238307,0
2024-12-11 14:42:32.676,0.332901,3.95025,10.5365,-0.158744,0.448896,-0.225479,0
2024-12-11 14:42:32.680,0.287438,4.07229,10.06,-0.11232,0.475163,-0.20471,0
2024-12-11 14:42:32.680,0.287438,4.07229,10.06,-0.11232,0.475163,-0.20471,0
2024-12-11 14:42:32.683,0.253639,4.12493,9.87817,-0.094605,0.483104,-0.196158,0
2024-12-11 14:42:32.685,0.236889,4.16082,9.68884,-0.0756687,0.491045,-0.191272,0
2024-12-11 14:42:32.687,0.22014,4.20897,9.48784,-0.0561216,0.495321,-0.189439,0
2024-12-11 14:42:32.690,0.174676,4.27837,9.29163,-0.0390179,0.497153,-0.185774,0
2024-12-11 14:42:32.692,0.136391,4.32383,9.10469,-0.0243575,0.495932,-0.185163,0
2024-12-11 14:42:32.694,0.117248,4.36451,8.93719,-0.0115297,0.492877,-0.186996,0
2024-12-11 14:42:32.698,0.100499,4.41476,8.78166,7.63559e-05,0.488601,-0.188217,0
2024-12-11 14:42:32.699,0.0933201,4.46501,8.62583,0.013515,0.48066,-0.193104,0
2024-12-11 14:42:32.702,0.0789631,4.48654,8.47747,0.0238994,0.471498,-0.202267,0
2024-12-11 14:42:32.704,0.0502493,4.49372,8.33869,0.0318404,0.458059,-0.21204,0
2024-12-11 14:42:32.706,0.00957129,4.52004,8.21187,0.0397814,0.442788,-0.221814,0
2024-12-11 14:42:32.709,-0.0287139,4.54876,8.08714,0.0483333,0.425073,-0.23342,0
2024-12-11 14:42:32.712,-0.0717847,4.5679,7.98186,0.057496,0.383536,-0.256021,0
2024-12-11 14:42:32.713,-0.129212,4.57986,7.88854,0.057496,0.383536,-0.256021,0
2024-12-11 14:42:32.716,-0.189033,4.59661,7.79283,0.0636045,0.359713,-0.267017,0
2024-12-11 14:42:32.718,-0.224925,4.60379,7.70429,0.0660479,0.334057,-0.279844,0
2024-12-11 14:42:32.723,-0.270389,4.59901,7.63968,0.0697129,0.279081,-0.302446,0
2024-12-11 14:42:32.724,-0.32333,4.58704,7.57478,0.0703238,0.247317,-0.31283,0
2024-12-11 14:42:32.726,-0.349651,4.58704,7.50539,0.0697129,0.215553,-0.321382,0
2024-12-11 14:42:32.728,-0.375972,4.57508,7.45035,0.0697129,0.215553,-0.321382,0
2024-12-11 14:42:32.731,-0.404686,4.54636,7.41207,0.0642153,0.147138,-0.342151,0
2024-12-11 14:42:32.732,-0.431007,4.52961,7.38096,0.0642153,0.147138,-0.342151,0
2024-12-11 14:42:32.735,-0.435793,4.5009,7.3666,0.0599394,0.113541,-0.352535,0
2024-12-11 14:42:32.737,-0.426222,4.45304,7.35464,0.0550526,0.0781121,-0.365974,0
2024-12-11 14:42:32.740,-0.409472,4.40997,7.34507,0.049555,0.0420721,-0.378802,0
2024-12-11 14:42:32.742,-0.397508,4.37408,7.34746,0.0434465,0.0096972,-0.391629,0
2024-12-11 14:42:32.746,-0.407079,4.31905,7.35464,0.0355055,-0.0550526,-0.418507,0
2024-12-11 14:42:32.747,-0.407079,4.31905,7.35464,0.0355055,-0.0550526,-0.418507,0
2024-12-11 14:42:32.749,-0.402293,4.28794,7.37139,0.0269536,-0.081319,-0.428891,0
2024-12-11 14:42:32.751,-0.421436,4.26162,7.39053,0.0208452,-0.105753,-0.441719,0
2024-12-11 14:42:32.756,-0.45015,4.22812,7.43121,0.00740652,-0.146069,-0.46432,0
2024-12-11 14:42:32.756,-0.45015,4.22812,7.43121,0.00740652,-0.146069,-0.46432,0
2024-12-11 14:42:32.758,-0.4669,4.20628,7.45514,-0.00114534,-0.162562,-0.47165,0
2024-12-11 14:42:32.760,-0.493221,4.17278,7.47667,-0.00786466,-0.176611,-0.480813,0
2024-12-11 14:42:32.763,-0.521934,4.1345,7.49582,-0.0176382,-0.191882,-0.488143,0
2024-12-11 14:42:32.765,-0.545863,4.09861,7.51017,-0.0286335,-0.202267,-0.491198,0
2024-12-11 14:42:32.767,-0.565005,4.06511,7.52692,-0.0377962,-0.208375,-0.497306,0
2024-12-11 14:42:32.770,-0.579362,4.03639,7.55564,-0.0494023,-0.213873,-0.497917,0
2024-12-11 14:42:32.772,-0.600898,4.00768,7.57747,-0.0579541,-0.216316,-0.50036,0
2024-12-11 14:42:32.775,-0.639183,3.99571,7.59661,-0.0701711,-0.221203,-0.499749,0
2024-12-11 14:42:32.777,-0.670289,4.00768,7.62533,-0.0701711,-0.221203,-0.499749,0
2024-12-11 14:42:32.780,-0.679861,3.99811,7.65643,-0.0994917,-0.229755,-0.491198,0
2024-12-11 14:42:32.784,-0.699003,3.96939,7.80479,-0.132477,-0.22609,-0.480202,0
2024-12-11 14:42:32.785,-0.699003,3.96939,7.80479,-0.145916,-0.21876,-0.472872,0
2024-12-11 14:42:32.787,-0.708575,3.96461,7.91247,-0.158133,-0.210819,-0.465542,0
2024-12-11 14:42:32.790,-0.701396,3.95743,8.02732,-0.158133,-0.210819,-0.465542,0
2024-12-11 14:42:32.791,-0.679861,3.96222,8.12064,-0.170961,-0.203488,-0.458823,0
2024-12-11 14:42:32.793,-0.665504,3.97179,8.1999,-0.186232,-0.195547,-0.449049,0
2024-12-11 14:42:32.796,-0.651147,3.96461,8.29562,-0.198449,-0.188828,-0.439886,0
2024-12-11 14:42:32.799,-0.612862,3.95264,8.39851,-0.211888,-0.180276,-0.428891,0
2024-12-11 14:42:32.800,-0.60329,3.98614,8.45115,-0.222883,-0.169281,-0.422172,0
2024-12-11 14:42:32.803,-0.617647,4.02682,8.50619,-0.237543,-0.156453,-0.413009,0
2024-12-11 14:42:32.805,-0.576969,4.02204,8.63779,-0.250371,-0.144847,-0.402014,0
2024-12-11 14:42:32.808,-0.488435,3.99332,8.79362,-0.263199,-0.136295,-0.396516,0
2024-12-11 14:42:32.812,-0.404686,3.95025,9.13101,-0.279692,-0.120413,-0.388575,0
2024-12-11 14:42:32.812,-0.404686,3.95025,9.13101,-0.279692,-0.120413,-0.388575,0
2024-12-11 14:42:32.815,-0.378365,3.93829,9.29402,-0.2858,-0.116137,-0.386743,0
2024-12-11 14:42:32.817,-0.354437,3.94068,9.43759,-0.2858,-0.108807,-0.38491,0
2024-12-11 14:42:32.822,-0.320937,3.97179,9.72712,-0.280913,-0.0941468,-0.381856,0
2024-12-11 14:42:32.823,-0.320937,3.97179,9.72712,-0.277248,-0.0874275,-0.381245,0
2024-12-11 14:42:32.825,-0.308973,3.97897,9.84228,-0.271751,-0.0770431,-0.37758,0
2024-12-11 14:42:32.826,-0.32333,3.99093,9.94756,-0.271751,-0.0770431,-0.37758,0
2024-12-11 14:42:32.829,-0.344866,3.99571,10.0528,-0.266253,-0.0672696,-0.373915,0
2024-12-11 14:42:32.831,-0.364008,3.96461,10.1414,-0.25709,-0.0617719,-0.371471,0
2024-12-11 14:42:32.833,-0.378365,3.92632,10.2275,-0.248538,-0.057496,-0.366585,0
2024-12-11 14:42:32.836,-0.392722,3.8689,10.2921,-0.238765,-0.0550526,-0.360476,0
2024-12-11 14:42:32.838,-0.411865,3.81865,10.3567,-0.234489,-0.0556635,-0.353757,0
2024-12-11 14:42:32.840,-0.4334,3.78275,10.4384,-0.224715,-0.0599394,-0.345816,0
2024-12-11 14:42:32.843,-0.462114,3.7325,10.5221,-0.214942,-0.065437,-0.337264,0
2024-12-11 14:42:32.845,-0.490828,3.68943,10.6131,-0.207001,-0.0721563,-0.328101,0
2024-12-11 14:42:32.848,-0.531506,3.67508,10.6992,-0.199671,-0.0831516,-0.318328,0
2024-12-11 14:42:32.850,-0.562612,3.66551,10.7662,-0.187454,-0.0929251,-0.306111,0
2024-12-11 14:42:32.852,-0.550648,3.65354,10.8236,-0.187454,-0.0929251,-0.306111,0
2024-12-11 14:42:32.855,-0.538684,3.64367,10.893,-0.169128,-0.120413,-0.283509,0
2024-12-11 14:42:32.857,-0.579362,3.62931,11.0034,-0.156911,-0.132019,-0.270682,0
2024-12-11 14:42:32.859,-0.584148,3.61256,11.1063,-0.142251,-0.141793,-0.257243,0
2024-12-11 14:42:32.862,-0.498006,3.57667,11.1613,-0.142251,-0.141793,-0.257243,0
2024-12-11 14:42:32.864,-0.462114,3.5336,11.2786,-0.130645,-0.171114,-0.23342,0
2024-12-11 14:42:32.866,-0.50997,3.49771,11.4485,-0.0958267,-0.180276,-0.222425,0
2024-12-11 14:42:32.870,-0.545863,3.47617,11.5612,-0.0762796,-0.186385,-0.208986,0
2024-12-11 14:42:32.872,-0.553041,3.44507,11.6043,-0.0579541,-0.19005,-0.193715,0
2024-12-11 14:42:32.873,-0.507577,3.40439,11.6019,-0.0371853,-0.197991,-0.177833,0
2024-12-11 14:42:32.878,-0.332901,3.32543,11.6856,-0.00358873,-0.210208,-0.14668,0
2024-12-11 14:42:32.878,-0.332901,3.32543,11.6856,-0.00358873,-0.210208,-0.14668,0
2024-12-11 14:42:32.881,-0.275175,3.30389,11.7287,0.0104608,-0.217538,-0.13263,0
2024-12-11 14:42:32.883,-0.256032,3.29193,11.7407,0.0281753,-0.223036,-0.119192,0
2024-12-11 14:42:32.886,-0.234497,3.28235,11.7598,0.0391706,-0.22609,-0.105753,0
2024-12-11 14:42:32.888,-0.198604,3.28235,11.7622,0.0471116,-0.227312,-0.0910926,0
2024-12-11 14:42:32.890,-0.155533,3.30868,11.7718,0.0587177,-0.228533,-0.077654,0
2024-12-11 14:42:32.892,-0.0837488,3.32782,11.8125,0.0691021,-0.226701,-0.0660479,0
2024-12-11 14:42:32.896,-0.00478565,3.34935,11.8579,0.0758214,-0.224868,-0.057496,0
2024-12-11 14:42:32.897,0.0765703,3.37328,11.901,0.081319,-0.219981,-0.0501658,0
2024-12-11 14:42:32.900,0.148355,3.3996,11.9345,0.0868167,-0.213873,-0.0440574,0
2024-12-11 14:42:32.902,0.212961,3.43789,11.9632,0.0904818,-0.207764,-0.041614,0
2024-12-11 14:42:32.905,0.253639,3.46899,11.98,0.0929251,-0.196158,-0.0391706,0
2024-12-11 14:42:32.907,0.282652,3.5001,11.9895,0.0941468,-0.186996,-0.0379489,0
2024-12-11 14:42:32.910,0.316152,3.5336,11.9895,0.093536,-0.174779,-0.0355055,0
2024-12-11 14:42:32.911,0.349651,3.5671,11.9943,0.0917034,-0.166227,-0.0355055,0
2024-12-11 14:42:32.914,0.387936,3.57428,12.0206,0.0892601,-0.154621,-0.033673,0
2024-12-11 14:42:32.916,0.431007,3.58385,12.0422,0.081319,-0.145458,-0.033673,0
2024-12-11 14:42:32.919,0.462114,3.61017,12.0565,0.0666587,-0.131409,-0.0342838,0
2024-12-11 14:42:32.921,0.462114,3.6341,12.0784,0.0666587,-0.131409,-0.0342838,0
2024-12-11 14:42:32.925,0.478864,3.66072,12.1837,0.0471116,-0.122857,-0.037338,0
2024-12-11 14:42:32.926,0.478864,3.66072,12.1837,0.0471116,-0.122857,-0.037338,0
2024-12-11 14:42:32.928,0.481256,3.67747,12.2315,0.0348946,-0.122857,-0.0397814,0
2024-12-11 14:42:32.930,0.488435,3.69183,12.2913,0.0220669,-0.121635,-0.0391706,0
2024-12-11 14:42:32.933,0.495613,3.69422,12.3799,0.0104608,-0.120413,-0.0379489,0
2024-12-11 14:42:32.937,0.524327,3.699,12.5569,-0.0121406,-0.117359,-0.0397814,0
2024-12-11 14:42:32.938,0.524327,3.699,12.5569,-0.0213033,-0.113694,-0.0379489,0
2024-12-11 14:42:32.940,0.505185,3.69661,12.6386,-0.0213033,-0.113694,-0.0379489,0
2024-12-11 14:42:32.943,0.457328,3.72293,12.7056,-0.0347419,-0.0965902,-0.0300079,0
2024-12-11 14:42:32.944,0.414257,3.74447,12.7678,-0.0298552,-0.105753,-0.0342838,0
2024-12-11 14:42:32.946,0.402293,3.73729,12.8396,-0.042683,-0.0843733,-0.0245102,0
2024-12-11 14:42:32.949,0.41665,3.71336,12.9042,-0.0524565,-0.0709346,-0.0196235,0
2024-12-11 14:42:32.951,0.404686,3.68704,12.964,-0.0536782,-0.057496,-0.013515,0
2024-12-11 14:42:32.953,0.359223,3.68943,13.0119,-0.0591758,-0.0410031,-0.00557398,0
2024-12-11 14:42:32.956,0.301795,3.72772,13.0334,-0.0658951,-0.0190126,-7.63559e-05,0
2024-12-11 14:42:32.958,0.234497,3.77557,13.0454,-0.0701711,0.00114534,0.00908635,0
2024-12-11 14:42:32.961,0.172283,3.83779,13.0502,-0.0756687,0.0231358,0.0164165,0
2024-12-11 14:42:32.964,0.102891,3.90239,13.0358,-0.0811663,0.0432938,0.0249684,0
2024-12-11 14:42:32.965,0.0622134,3.94307,12.9903,-0.0927724,0.0640626,0.0371853,0
2024-12-11 14:42:32.968,0.026321,3.96461,12.9329,-0.103768,0.0799446,0.0451263,0
2024-12-11 14:42:32.970,-0.00957129,3.99811,12.8587,-0.114763,0.0909399,0.0542891,0
2024-12-11 14:42:32.972,-0.0191426,4.01725,12.7726,-0.134921,0.0994917,0.0597867,0
2024-12-11 14:42:32.975,-0.0191426,4.01486,12.6888,-0.157522,0.103768,0.0646735,0
2024-12-11 14:42:32.977,-0.0167498,3.98614,12.6434,-0.178902,0.106211,0.0689494,0
2024-12-11 14:42:32.982,0.0478565,3.89282,12.629,-0.233267,0.0909399,0.074447,0
2024-12-11 14:42:32.983,0.0478565,3.89282,12.629,-0.261366,0.0750579,0.0720036,0
2024-12-11 14:42:32.984,0.131605,3.84497,12.6912,-0.261366,0.0750579,0.0720036,0
2024-12-11 14:42:32.986,0.222533,3.78993,12.8037,-0.288854,0.0536782,0.0683385,0
2024-12-11 14:42:32.989,0.30658,3.70379,12.9305,-0.315121,0.0292443,0.0634518,0
2024-12-11 14:42:32.991,0.375972,3.60299,13.0741,-0.339555,0.00114534,0.0561216,0
2024-12-11 14:42:32.994,0.447757,3.52164,13.2491,-0.35788,-0.0306187,0.046348,0
2024-12-11 14:42:32.996,0.505185,3.45942,13.4285,-0.376206,-0.0593285,0.0359636,0
2024-12-11 14:42:32.999,0.490828,3.43071,13.5721,-0.404305,-0.116748,0.0200816,0
2024-12-11 14:42:33.001,0.493221,3.3661,13.73,-0.404305,-0.116748,0.0200816,0
2024-12-11 14:42:33.003,0.574577,3.22732,13.9193,-0.412246,-0.145458,0.0121406,0
2024-12-11 14:42:33.005,0.672682,3.07867,14.1108,-0.418354,-0.169892,0.00175619,0
2024-12-11 14:42:33.008,0.768395,2.91835,14.3121,-0.417743,-0.191272,-0.00984991,0
2024-12-11 14:42:33.011,0.876371,2.75324,14.5035,-0.414078,-0.207764,-0.021456,0
2024-12-11 14:42:33.012,0.952942,2.57857,14.6782,-0.414078,-0.207764,-0.021456,0
2024-12-11 14:42:33.015,0.996012,2.40838,14.8313,-0.387812,-0.219981,-0.049555,0
2024-12-11 14:42:33.017,1.0319,2.24806,14.9895,-0.36521,-0.214484,-0.0629936,0
2024-12-11 14:42:33.020,1.04148,2.10209,15.1355,-0.337111,-0.202878,-0.0752106,0
2024-12-11 14:42:33.022,1.01515,1.96301,15.2647,-0.301071,-0.19005,-0.0862058,0
2024-12-11 14:42:33.025,0.998405,1.81466,15.3724,-0.221661,-0.147901,-0.104531,0
2024-12-11 14:42:33.027,0.964906,1.69023,15.4493,-0.221661,-0.147901,-0.104531,0
2024-12-11 14:42:33.029,0.893121,1.57537,15.4923,-0.174626,-0.122857,-0.109418,0
2024-12-11 14:42:33.031,0.816252,1.43659,15.5067,-0.123926,-0.093536,-0.114305,0
2024-12-11 14:42:33.034,0.739681,1.2999,15.4732,-0.0707819,-0.0617719,-0.117359,0
2024-12-11 14:42:33.036,0.658325,1.15872,15.4107,-0.0170274,-0.0269536,-0.115526,0
2024-12-11 14:42:33.038,0.553041,1.01755,15.3365,0.0410031,0.0096972,-0.114305,0
2024-12-11 14:42:33.042,0.476471,0.876371,15.1881,0.151566,0.0836097,-0.102699,0
2024-12-11 14:42:33.044,0.596112,0.744467,15.0063,0.151566,0.0836097,-0.102699,0
2024-12-11 14:42:33.045,0.687039,0.62004,14.9776,0.213873,0.122704,-0.104531,0
2024-12-11 14:42:33.048,0.462114,0.517149,15.1044,0.289007,0.172183,-0.10331,0
2024-12-11 14:42:33.050,0.0909273,0.459721,15.1451,0.369639,0.226548,-0.0953685,0
2024-12-11 14:42:33.052,-0.282652,0.4334,14.9393,0.456379,0.279081,-0.0794865,0
2024-12-11 14:42:33.055,-0.600898,0.41665,14.5561,0.534568,0.324284,-0.0562743,0
2024-12-11 14:42:33.057,-0.871586,0.364008,14.1419,0.607869,0.363989,-0.0318404,0
2024-12-11 14:42:33.059,-1.04148,0.297009,13.7372,0.678117,0.402472,-0.00251974,0
2024-12-11 14:42:33.062,-1.04148,0.258425,13.2969,0.740423,0.434847,0.0261901,0
2024-12-11 14:42:33.064,-0.974477,0.198604,12.8635,0.794789,0.452561,0.0512348,0
2024-12-11 14:42:33.068,-0.981655,0.157926,12.521,0.893135,0.478217,0.0909399,0
2024-12-11 14:42:33.070,-1.0678,0.162712,12.1717,0.934062,0.487991,0.109265,0
2024-12-11 14:42:33.071,-1.1994,0.162712,11.7646,0.934062,0.487991,0.109265,0
2024-12-11 14:42:33.075,-1.35972,0.174676,11.324,1.00003,0.500208,0.153246,0
2024-12-11 14:42:33.076,-1.50838,0.18664,10.8811,1.00003,0.500208,0.153246,0
2024-12-11 14:42:33.078,-1.60409,0.18664,10.4647,1.02141,0.501429,0.175237,0
2024-12-11 14:42:33.081,-1.66869,0.191426,10.0863,1.03546,0.495932,0.197838,0
2024-12-11 14:42:33.085,-1.67348,0.16989,9.35863,1.04279,0.468443,0.234489,0
2024-12-11 14:42:33.085,-1.67348,0.16989,9.35863,1.04279,0.468443,0.234489,0
2024-12-11 14:42:33.088,-1.7333,0.227318,9.02573,1.03546,0.445842,0.250371,0
2024-12-11 14:42:33.090,-1.83619,0.294616,8.70509,1.02263,0.418354,0.265642,0
2024-12-11 14:42:33.092,-1.94626,0.383151,8.42244,1.00126,0.390866,0.283968,0
2024-12-11 14:42:33.095,-1.9992,0.476471,8.18555,0.975599,0.355437,0.301682,0
2024-12-11 14:42:33.097,-2.02552,0.562612,7.99143,0.945057,0.320618,0.316953,0
2024-12-11 14:42:33.100,-2.03031,0.643968,7.83111,0.909628,0.282135,0.333446,0
2024-12-11 14:42:33.102,-2.01117,0.71336,7.69711,0.872366,0.24243,0.345052,0
2024-12-11 14:42:33.105,-1.97049,0.758824,7.60379,0.834494,0.202725,0.356048,0
2024-12-11 14:42:33.107,-1.90319,0.801895,7.54128,0.834494,0.202725,0.356048,0
2024-12-11 14:42:33.109,-1.8338,0.84018,7.50539,0.756916,0.122704,0.370097,0
2024-12-11 14:42:33.112,-1.74766,0.864407,7.49342,0.678117,0.0439046,0.373151,0
2024-12-11 14:42:33.114,-1.63041,0.876371,7.5006,0.678117,0.0439046,0.373151,0
2024-12-11 14:42:33.116,-1.50598,0.878764,7.5341,0.639633,0.00664296,0.367654,0
2024-12-11 14:42:33.118,-1.36211,0.869193,7.61576,0.604204,-0.0306187,0.358491,0
2024-12-11 14:42:33.121,-1.21615,0.859622,7.71386,0.569997,-0.0642153,0.345663,0
2024-12-11 14:42:33.124,-1.09412,0.873978,7.80718,0.506469,-0.120413,0.312677,0
2024-12-11 14:42:33.126,-0.979263,0.881157,7.90768,0.506469,-0.120413,0.312677,0
2024-12-11 14:42:33.129,-0.869193,0.876371,8.00579,0.456379,-0.16867,0.271751,0
2024-12-11 14:42:33.130,-0.773181,0.885943,8.09432,0.456379,-0.16867,0.271751,0
2024-12-11 14:42:33.132,-0.684646,0.893121,8.19273,0.433778,-0.187606,0.247317,0
2024-12-11 14:42:33.135,-0.60329,0.893121,8.27408,0.411787,-0.209597,0.22044,0
2024-12-11 14:42:33.137,-0.555434,0.895514,8.34587,0.39224,-0.226701,0.196616,0
2024-12-11 14:42:33.139,-0.524327,0.890728,8.40569,0.375137,-0.244415,0.169739,0
2024-12-11 14:42:33.143,-0.488435,0.852443,8.45354,0.332988,-0.265795,0.115985,0
2024-12-11 14:42:33.147,-0.440578,0.80668,8.59711,0.315884,-0.273125,0.0884965,0
2024-12-11 14:42:33.148,-0.440578,0.80668,8.59711,0.29817,-0.275568,0.0628409,0
2024-12-11 14:42:33.149,-0.457328,0.773181,8.6665,0.29817,-0.275568,0.0628409,0
2024-12-11 14:42:33.152,-0.488435,0.73011,8.72662,0.265795,-0.268849,0.0170274,0
2024-12-11 14:42:33.156,-0.60329,0.646361,8.76491,0.249302,-0.259686,-0.00313059,0
2024-12-11 14:42:33.157,-0.60329,0.646361,8.76491,0.249302,-0.259686,-0.00313059,0
2024-12-11 14:42:33.158,-0.675075,0.60329,8.75534,0.23342,-0.245637,-0.0171801,0
2024-12-11 14:42:33.161,-0.744467,0.550648,8.75294,0.213262,-0.234031,-0.029397,0
2024-12-11 14:42:33.163,-0.794716,0.502792,8.74577,0.194937,-0.217538,-0.0397814,0
2024-12-11 14:42:33.166,-0.821037,0.469292,8.74337,0.177833,-0.201656,-0.0458899,0
2024-12-11 14:42:33.168,-0.845265,0.426222,8.76012,0.154621,-0.185774,-0.0538309,0
2024-12-11 14:42:33.171,-0.876371,0.390329,8.77687,0.119192,-0.148512,-0.0623828,0
2024-12-11 14:42:33.172,-0.919442,0.366401,8.80319,0.119192,-0.148512,-0.0623828,0
2024-12-11 14:42:33.175,-0.991227,0.352044,8.82712,0.102088,-0.124689,-0.0636045,0
2024-12-11 14:42:33.177,-1.07737,0.34008,8.83191,0.0880384,-0.0984228,-0.065437,0
2024-12-11 14:42:33.180,-1.15394,0.34008,8.84148,0.073378,-0.0709346,-0.0617719,0
2024-12-11 14:42:33.182,-1.2329,0.347258,8.85823,0.0623828,-0.0434465,-0.0550526,0
2024-12-11 14:42:33.187,-1.34058,0.318545,8.85823,0.0422248,0.0151948,-0.0397814,0
2024-12-11 14:42:33.188,-1.34058,0.318545,8.85823,0.0422248,0.0151948,-0.0397814,0
2024-12-11 14:42:33.189,-1.38844,0.299402,8.84148,0.0348946,0.0432938,-0.0275645,0
2024-12-11 14:42:33.191,-1.42941,0.277567,8.84148,0.0251211,0.0695602,-0.0153475,0
2024-12-11 14:42:33.194,-1.45813,0.253639,8.84148,0.0184018,0.0964375,-7.63559e-05,0
2024-12-11 14:42:33.197,-1.49163,0.234497,8.81994,0.0129041,0.123926,0.0158057,0
2024-12-11 14:42:33.198,-1.52034,0.227318,8.81037,0.00923906,0.147749,0.030466,0
2024-12-11 14:42:33.202,-1.52752,0.232104,8.80798,0.00557398,0.193562,0.0658951,0
2024-12-11 14:42:33.204,-1.54427,0.253639,8.79841,0.00862822,0.212498,0.0848314,0
2024-12-11 14:42:33.205,-1.55862,0.263211,8.78884,0.00862822,0.212498,0.0848314,0
2024-12-11 14:42:33.208,-1.55862,0.270389,8.7673,0.0129041,0.233267,0.104379,0
2024-12-11 14:42:33.211,-1.5658,0.299402,8.75294,0.0238994,0.267475,0.140419,0
2024-12-11 14:42:33.213,-1.57059,0.318545,8.72662,0.0238994,0.267475,0.140419,0
2024-12-11 14:42:33.217,-1.55145,0.392722,8.67608,0.0318404,0.286411,0.180124,0
2024-12-11 14:42:33.217,-1.55145,0.392722,8.67608,0.0318404,0.286411,0.180124,0
2024-12-11 14:42:33.220,-1.52034,0.419043,8.62822,0.0526092,0.295574,0.19906,0
2024-12-11 14:42:33.222,-1.47248,0.4334,8.57797,0.0605502,0.298628,0.216164,0
2024-12-11 14:42:33.224,-1.39801,0.459721,8.53729,0.0605502,0.298628,0.216164,0
2024-12-11 14:42:33.227,-1.32383,0.495613,8.48944,0.0831516,0.304126,0.248538,0
2024-12-11 14:42:33.229,-1.2664,0.548256,8.43201,0.0831516,0.304126,0.248538,0
2024-12-11 14:42:33.232,-1.21854,0.593719,8.38654,0.124689,0.305958,0.286411,0
2024-12-11 14:42:33.235,-1.1683,0.655932,8.33151,0.141182,0.304126,0.298017,0
2024-12-11 14:42:33.236,-1.11565,0.734896,8.2669,0.141182,0.304126,0.298017,0
2024-12-11 14:42:33.239,-1.07258,0.816252,8.1999,0.15401,0.302904,0.305958,0
2024-12-11 14:42:33.242,-1.00558,0.897907,8.12782,0.169281,0.29985,0.315121,0
2024-12-11 14:42:33.244,-0.929013,0.97687,8.05125,0.187606,0.295574,0.321229,0
2024-12-11 14:42:33.245,-0.876371,1.04148,7.96989,0.200434,0.291909,0.325505,0
2024-12-11 14:42:33.248,-0.830609,1.11565,7.87897,0.215705,0.287022,0.332835,0
2024-12-11 14:42:33.251,-0.773181,1.19462,7.7665,0.237696,0.276637,0.333446,0
2024-12-11 14:42:33.254,-0.715753,1.25922,7.65643,0.237696,0.276637,0.333446,0
2024-12-11 14:42:33.255,-0.660718,1.32383,7.56282,0.246859,0.27114,0.335279,0
2024-12-11 14:42:33.260,-0.538684,1.43898,7.40728,0.259686,0.263199,0.331003,0
2024-12-11 14:42:33.261,-0.538684,1.43898,7.40728,0.259686,0.263199,0.331003,0
2024-12-11 14:42:33.262,-0.493221,1.51316,7.33071,0.270071,0.259534,0.325505,0
2024-12-11 14:42:33.264,-0.464507,1.58016,7.24936,0.274347,0.255258,0.319397,0
2024-12-11 14:42:33.269,-0.431007,1.71655,7.07946,0.282288,0.252814,0.307791,0
2024-12-11 14:42:33.270,-0.431007,1.71655,7.07946,0.285342,0.251593,0.301071,0
2024-12-11 14:42:33.272,-0.4334,1.78355,6.99063,0.285342,0.251593,0.301071,0
2024-12-11 14:42:33.274,-0.404686,1.8338,6.89492,0.285953,0.24976,0.298628,0
2024-12-11 14:42:33.278,-0.35683,1.95105,6.7011,0.283509,0.243652,0.284578,0
2024-12-11 14:42:33.279,-0.35683,1.95105,6.7011,0.283509,0.243652,0.284578,0
2024-12-11 14:42:33.281,-0.349651,1.97767,6.61496,0.279844,0.238765,0.279081,0
2024-12-11 14:42:33.283,-0.342473,2.00877,6.51925,0.273736,0.234489,0.271751,0
2024-12-11 14:42:33.285,-0.349651,2.05424,6.44238,0.264573,0.22777,0.266864,0
2024-12-11 14:42:33.288,-0.368794,2.09731,6.38495,0.256632,0.22105,0.260755,0
2024-12-11 14:42:33.293,-0.414257,2.19063,6.30359,0.238307,0.20639,0.251593,0
2024-12-11 14:42:33.293,-0.414257,2.19063,6.30359,0.238307,0.20639,0.251593,0
2024-12-11 14:42:33.297,-0.507577,2.29831,6.25334,0.220592,0.195395,0.247928,0
2024-12-11 14:42:33.297,-0.507577,2.29831,6.25334,0.220592,0.195395,0.247928,0
2024-12-11 14:42:33.300,-0.529113,2.34377,6.21745,0.212651,0.191119,0.246706,0
2024-12-11 14:42:33.302,-0.538684,2.39641,6.17917,0.202267,0.183178,0.245484,0
2024-12-11 14:42:33.304,-0.550648,2.44905,6.15284,0.19005,0.174015,0.244263,0
2024-12-11 14:42:33.308,-0.562612,2.48255,6.11934,0.164394,0.153857,0.243041,0
2024-12-11 14:42:33.309,-0.572184,2.52323,6.09302,0.164394,0.153857,0.243041,0
2024-12-11 14:42:33.311,-0.562612,2.55942,6.08345,0.149123,0.139808,0.24243,0
2024-12-11 14:42:33.316,-0.512363,2.63121,6.15045,0.119802,0.11232,0.239987,0
2024-12-11 14:42:33.317,-0.512363,2.63121,6.15045,0.106975,0.100103,0.236322,0
2024-12-11 14:42:33.318,-0.488435,2.68385,6.20788,0.106975,0.100103,0.236322,0
2024-12-11 14:42:33.321,-0.4669,2.7341,6.29402,0.0941468,0.0884965,0.231435,0
2024-12-11 14:42:33.323,-0.442971,2.78435,6.40409,0.0825407,0.0787229,0.227159,0
2024-12-11 14:42:33.325,-0.409472,2.84417,6.50967,0.0770431,0.0683385,0.219829,0
2024-12-11 14:42:33.329,-0.392722,2.9016,6.60299,0.0678804,0.0518457,0.208223,0
2024-12-11 14:42:33.330,-0.395115,2.94467,6.69392,0.0678804,0.0518457,0.208223,0
2024-12-11 14:42:33.334,-0.407079,2.99013,6.77528,0.0684913,0.0414613,0.203336,0
2024-12-11 14:42:33.336,-0.409472,3.02363,6.85663,0.0672696,0.0268009,0.196006,0
2024-12-11 14:42:33.340,-0.435793,3.07388,7.02443,0.0691021,-0.00313059,0.18501,0
2024-12-11 14:42:33.341,-0.435793,3.07388,7.02443,0.0691021,-0.00313059,0.18501,0
2024-12-11 14:42:33.344,-0.481256,3.1005,7.20628,0.0770431,-0.041614,0.175237,0
2024-12-11 14:42:33.344,-0.481256,3.1005,7.20628,0.0770431,-0.041614,0.175237,0
2024-12-11 14:42:33.348,-0.488435,3.13161,7.31396,0.0904818,-0.0849841,0.166685,0
2024-12-11 14:42:33.349,-0.498006,3.17468,7.436,0.0904818,-0.0849841,0.166685,0
2024-12-11 14:42:33.352,-0.524327,3.22253,7.56521,0.100866,-0.105753,0.164242,0
2024-12-11 14:42:33.355,-0.562612,3.25843,7.67797,0.126522,-0.149123,0.159355,0
2024-12-11 14:42:33.356,-0.562612,3.29193,7.78086,0.126522,-0.149123,0.159355,0
2024-12-11 14:42:33.358,-0.533899,3.32064,7.89572,0.13996,-0.172335,0.157522,0
2024-12-11 14:42:33.363,-0.4669,3.36132,8.13021,0.167449,-0.224257,0.152635,0
2024-12-11 14:42:33.363,-0.4669,3.36132,8.13021,0.167449,-0.224257,0.152635,0
2024-12-11 14:42:33.366,-0.41665,3.39721,8.28365,0.182109,-0.249302,0.14836,0
2024-12-11 14:42:33.369,-0.378365,3.44267,8.42244,0.223036,-0.296948,0.134921,0
2024-12-11 14:42:33.370,-0.342473,3.49292,8.57079,0.223036,-0.296948,0.134921,0
2024-12-11 14:42:33.373,-0.301795,3.54556,8.72423,0.247469,-0.315884,0.127591,0
2024-12-11 14:42:33.375,-0.260818,3.59342,8.84148,0.274958,-0.333599,0.119039,0
2024-12-11 14:42:33.377,-0.241675,3.62214,8.95634,0.301835,-0.349481,0.109265,0
2024-12-11 14:42:33.381,-0.232104,3.65115,9.09033,0.328101,-0.366585,0.0976592,0
2024-12-11 14:42:33.382,-0.232104,3.68943,9.22194,0.354368,-0.385521,0.0872748,0
2024-12-11 14:42:33.384,-0.256032,3.71815,9.31795,0.383078,-0.401403,0.0805555,0
2024-12-11 14:42:33.387,-0.282652,3.74686,9.42084,0.410566,-0.417285,0.0713928,0
2024-12-11 14:42:33.390,-0.304188,3.78036,9.50698,0.467985,-0.442941,0.0579541,0
2024-12-11 14:42:33.391,-0.32333,3.81386,9.54048,0.467985,-0.442941,0.0579541,0
2024-12-11 14:42:33.394,-0.330509,3.84497,9.57877,0.493641,-0.453936,0.0530674,0
2024-12-11 14:42:33.396,-0.332901,3.87129,9.60987,0.516853,-0.46432,0.0494023,0
2024-12-11 14:42:33.398,-0.330509,3.88564,9.6338,0.537622,-0.47165,0.0457372,0
2024-12-11 14:42:33.402,-0.347258,3.9,9.68405,0.575494,-0.483867,0.0371853,0
2024-12-11 14:42:33.403,-0.349651,3.92393,9.74387,0.575494,-0.483867,0.0371853,0
2024-12-11 14:42:33.406,-0.32333,3.94547,9.78934,0.594431,-0.488143,0.0341311,0
2024-12-11 14:42:33.410,-0.325723,4.0005,9.84946,0.620086,-0.489976,0.0243575,0
2024-12-11 14:42:33.411,-0.325723,4.0005,9.84946,0.620086,-0.489976,0.0243575,0
2024-12-11 14:42:33.414,-0.32333,4.03639,9.87338,0.635357,-0.484478,0.0133623,0
2024-12-11 14:42:33.416,-0.342473,4.06511,9.92124,0.639633,-0.482035,0.0109189,0
2024-12-11 14:42:33.417,-0.375972,4.08903,9.98345,0.639633,-0.482035,0.0109189,0
2024-12-11 14:42:33.421,-0.402293,4.10578,10.0457,0.639633,-0.472261,0.00297788,0
2024-12-11 14:42:33.423,-0.421436,4.12014,10.1151,0.639633,-0.472261,0.00297788,0
2024-12-11 14:42:33.424,-0.442971,4.12493,10.1653,0.637801,-0.463709,0.00419957,0
2024-12-11 14:42:33.427,-0.447757,4.12493,10.2132,0.631082,-0.453325,0.00481042,0
2024-12-11 14:42:33.430,-0.454935,4.13928,10.273,0.610924,-0.425837,0.00542127,0
2024-12-11 14:42:33.431,-0.4669,4.14407,10.3208,0.610924,-0.425837,0.00542127,0
2024-12-11 14:42:33.436,-0.45015,4.13211,10.4551,0.598096,-0.409344,0.00847551,0
2024-12-11 14:42:33.436,-0.45015,4.13211,10.4551,0.598096,-0.409344,0.00847551,0
2024-12-11 14:42:33.439,-0.483649,4.14886,10.5772,0.566943,-0.383078,0.010308,0
2024-12-11 14:42:33.441,-0.533899,4.17996,10.7016,0.547396,-0.372082,0.0115297,0
2024-12-11 14:42:33.443,-0.572184,4.20389,10.8021,0.532735,-0.360476,0.0133623,0
2024-12-11 14:42:33.446,-0.576969,4.23051,10.9074,0.515631,-0.349481,0.0170274,0
2024-12-11 14:42:33.449,-0.569791,4.25205,11.0297,0.497306,-0.336042,0.0194708,0
2024-12-11 14:42:33.453,-0.56022,4.26401,11.2714,0.467375,-0.310387,0.022525,0
2024-12-11 14:42:33.453,-0.54347,4.28076,11.2714,0.467375,-0.310387,0.022525,0
2024-12-11 14:42:33.455,-0.524327,4.28315,11.391,0.449049,-0.298781,0.0231358,0
2024-12-11 14:42:33.458,-0.493221,4.26162,11.511,0.430724,-0.289618,0.0237467,0
2024-12-11 14:42:33.461,-0.452543,4.24247,11.6306,0.405679,-0.264573,0.0243575,0
2024-12-11 14:42:33.462,-0.419043,4.23051,11.7503,0.405679,-0.264573,0.0243575,0
2024-12-11 14:42:33.464,-0.392722,4.22094,11.8795,0.405679,-0.264573,0.0243575,0
2024-12-11 14:42:33.467,-0.368794,4.19671,12.0206,0.378191,-0.245637,0.0261901,0
2024-12-11 14:42:33.471,-0.299402,4.17039,12.3368,0.354979,-0.221203,0.0274118,0
2024-12-11 14:42:33.471,-0.299402,4.17039,12.3368,0.354979,-0.221203,0.0274118,0
2024-12-11 14:42:33.476,-0.212961,4.10818,12.7056,0.343983,-0.198602,0.0255792,0
2024-12-11 14:42:33.476,-0.212961,4.10818,12.7056,0.343983,-0.198602,0.0255792,0
2024-12-11 14:42:33.480,-0.124427,4.08425,12.8994,0.342762,-0.17539,0.0206925,0
2024-12-11 14:42:33.481,-0.0311067,4.03879,13.086,0.342762,-0.17539,0.0206925,0
2024-12-11 14:42:33.484,0.0191426,3.99093,13.2586,0.356811,-0.144847,0.0127514,0
2024-12-11 14:42:33.486,0.0478565,3.95025,13.4142,0.356811,-0.144847,0.0127514,0
2024-12-11 14:42:33.488,0.0789631,3.87368,13.5482,0.368417,-0.132019,0.0121406,0
2024-12-11 14:42:33.490,0.0957129,3.78754,13.675,0.381245,-0.122246,0.010308,0
2024-12-11 14:42:33.495,0.0574277,3.66311,13.9289,0.410566,-0.106364,0.00542127,0
2024-12-11 14:42:33.496,0.0574277,3.66311,13.9289,0.429502,-0.0990336,0.00358873,0
2024-12-11 14:42:33.498,0.0478565,3.58624,14.0318,0.429502,-0.0990336,0.00358873,0
2024-12-11 14:42:33.500,0.026321,3.51685,14.1371,0.450882,-0.0904818,0.00297788,0
2024-12-11 14:42:33.502,0.00478565,3.47617,14.2065,0.47165,-0.085595,0.00664296,0
2024-12-11 14:42:33.504,-0.0215354,3.4355,14.2424,0.495473,-0.0800973,0.0121406,0
2024-12-11 14:42:33.509,-0.114855,3.35175,14.2615,0.539454,-0.073378,0.0274118,0
2024-12-11 14:42:33.509,-0.114855,3.35175,14.2615,0.539454,-0.073378,0.0274118,0
2024-12-11 14:42:33.511,-0.179462,3.32782,14.252,0.561445,-0.0752106,0.0390179,0
2024-12-11 14:42:33.515,-0.239282,3.3326,14.2352,0.604815,-0.0904818,0.0652843,0
2024-12-11 14:42:33.517,-0.304188,3.35414,14.2352,0.627416,-0.101477,0.0842206,0
2024-12-11 14:42:33.519,-0.375972,3.37328,14.2376,0.627416,-0.101477,0.0842206,0
2024-12-11 14:42:33.521,-0.45015,3.42592,14.228,0.649407,-0.115526,0.104379,0
2024-12-11 14:42:33.524,-0.507577,3.48335,14.2041,0.700107,-0.138739,0.144694,0
2024-12-11 14:42:33.526,-0.56022,3.54317,14.1921,0.700107,-0.138739,0.144694,1
2024-12-11 14:42:33.529,-0.627219,3.62692,14.1897,0.730039,-0.150345,0.166685,0
2024-12-11 14:42:33.530,-0.718146,3.73011,14.173,0.760581,-0.156453,0.188065,0
2024-12-11 14:42:33.534,-0.825823,3.84497,14.1299,0.822277,-0.167449,0.2351,0
2024-12-11 14:42:33.535,-0.957727,3.97897,14.0557,0.822277,-0.167449,0.2351,0
2024-12-11 14:42:33.537,-1.08694,4.13211,13.9505,0.850376,-0.173557,0.261366,0
2024-12-11 14:42:33.541,-1.1994,4.27119,13.8069,0.878475,-0.180276,0.288244,0
2024-12-11 14:42:33.542,-1.29751,4.40279,13.6343,0.904741,-0.19005,0.317564,0
2024-12-11 14:42:33.549,-1.34776,4.71147,12.9736,0.950555,-0.237696,0.40125,0
2024-12-11 14:42:33.550,-1.34776,4.71147,12.9736,0.951776,-0.265184,0.429349,0
2024-12-11 14:42:33.550,-1.34776,4.71147,12.9736,0.951776,-0.265184,0.429349,0
2024-12-11 14:42:33.552,-1.29512,4.7689,12.7176,0.951776,-0.265184,0.429349,0
2024-12-11 14:42:33.555,-1.18744,4.81466,12.454,0.935894,-0.312219,0.473941,0
2024-12-11 14:42:33.556,-1.03669,4.84098,12.2076,0.935894,-0.312219,0.473941,0
2024-12-11 14:42:33.559,-0.857229,4.86012,11.9489,0.916347,-0.339707,0.492877,0
2024-12-11 14:42:33.561,-0.641576,4.86969,11.6809,0.887637,-0.372082,0.511814,0
2024-12-11 14:42:33.564,-0.368794,4.86012,11.4461,0.808227,-0.435,0.535026,0
2024-12-11 14:42:33.566,-0.066999,4.83859,11.2475,0.808227,-0.435,0.535026,0
2024-12-11 14:42:33.568,0.272782,4.79791,11.0848,0.759359,-0.468596,0.539913,0
2024-12-11 14:42:33.571,0.677468,4.7665,11.001,0.70194,-0.499749,0.538691,0
2024-12-11 14:42:33.573,1.12522,4.75693,11.001,0.643299,-0.526627,0.525863,0
2024-12-11 14:42:33.575,1.60409,4.75454,11.056,0.57977,-0.549839,0.506316,0
2024-12-11 14:42:33.577,2.05902,4.74018,11.1446,0.522351,-0.565721,0.479439,0
2024-12-11 14:42:33.580,2.4682,4.71865,11.2762,0.468596,-0.566943,0.441566,0
2024-12-11 14:42:33.582,2.8346,4.66122,11.4437,0.418507,-0.55778,0.395753,0
2024-12-11 14:42:33.584,3.15793,4.57268,11.6258,0.375747,-0.533957,0.343831,0
2024-12-11 14:42:33.587,3.4331,4.47219,11.8101,0.34154,-0.497306,0.286411,0
2024-12-11 14:42:33.590,3.64606,4.35972,11.9632,0.292061,-0.386743,0.161187,0
2024-12-11 14:42:33.592,3.78036,4.22572,12.1119,0.292061,-0.386743,0.161187,0
2024-12-11 14:42:33.594,3.83779,4.0675,12.2698,0.27679,-0.319549,0.0976592,0
2024-12-11 14:42:33.597,3.81865,3.90239,12.3703,0.271903,-0.158897,-0.0202343,0
2024-12-11 14:42:33.599,3.71097,3.71336,12.4086,0.271903,-0.158897,-0.0202343,0
2024-12-11 14:42:33.601,3.51685,3.52403,12.399,0.276179,-0.0684913,-0.0745997,0
2024-12-11 14:42:33.604,3.25125,3.3661,12.3272,0.292672,0.122093,-0.157064,0
2024-12-11 14:42:33.606,2.9686,3.21536,12.198,0.292672,0.122093,-0.157064,0
2024-12-11 14:42:33.609,2.69342,3.07388,12.0206,0.303057,0.222272,-0.186385,0
2024-12-11 14:42:33.610,2.4012,2.91835,11.8316,0.314663,0.322451,-0.21143,0
2024-12-11 14:42:33.614,2.10449,2.76999,11.6402,0.342151,0.521587,-0.236474,0
2024-12-11 14:42:33.616,1.80509,2.63599,11.4437,0.342151,0.521587,-0.236474,0
2024-12-11 14:42:33.617,1.48445,2.50648,11.2427,0.3562,0.618712,-0.24075,0
2024-12-11 14:42:33.620,1.14197,2.4012,11.0369,0.372693,0.709117,-0.238918,0
2024-12-11 14:42:33.622,0.792323,2.29591,10.8165,0.391629,0.793414,-0.227312,0
2024-12-11 14:42:33.625,0.471685,2.21216,10.5676,0.406901,0.869236,-0.21204,0
2024-12-11 14:42:33.627,0.172283,2.14517,10.3065,0.423394,0.935818,-0.191272,0
2024-12-11 14:42:33.630,-0.0957129,2.08295,10.0552,0.438665,0.992016,-0.164394,0
2024-12-11 14:42:33.632,-0.337687,2.01356,9.8013,0.453936,1.04027,-0.133241,0
2024-12-11 14:42:33.636,-0.722932,1.87208,9.32034,0.476537,1.10075,-0.065437,0
2024-12-11 14:42:33.637,-0.722932,1.87208,9.32034,0.476537,1.10075,-0.065437,0
2024-12-11 14:42:33.639,-0.895514,1.8338,9.08315,0.483867,1.11174,-0.0324513,0
2024-12-11 14:42:33.642,-1.06062,1.81944,8.88216,0.494252,1.10441,0.0420721,0
2024-12-11 14:42:33.643,-1.1994,1.82662,8.68086,0.494252,1.10441,0.0420721,0
2024-12-11 14:42:33.646,-1.29272,1.85294,8.50619,0.498528,1.08792,0.0793338,0
2024-12-11 14:42:33.648,-1.35733,1.88644,8.36501,0.504025,1.06165,0.115985,0
2024-12-11 14:42:33.650,-1.40279,1.94626,8.24537,0.50708,1.02806,0.150803,0
2024-12-11 14:42:33.653,-1.42223,2.0016,8.15683,0.511966,0.986518,0.183178,0
2024-12-11 14:42:33.655,-1.40279,2.0662,8.06321,0.515021,0.937651,0.214331,0
2024-12-11 14:42:33.657,-1.35254,2.14756,7.93639,0.519297,0.885118,0.241819,0
2024-12-11 14:42:33.660,-1.28554,2.22652,7.82154,0.522962,0.828309,0.261366,0
2024-12-11 14:42:33.663,-1.2018,2.29831,7.7354,0.522962,0.704841,0.294963,0
2024-12-11 14:42:33.665,-1.0989,2.35095,7.63968,0.522962,0.704841,0.294963,0
2024-12-11 14:42:33.667,-0.991227,2.40838,7.54128,0.522351,0.637648,0.305347,0
2024-12-11 14:42:33.669,-0.88355,2.4682,7.45035,0.518075,0.570455,0.310845,0
2024-12-11 14:42:33.672,-0.780359,2.52832,7.35703,0.513799,0.501429,0.31451,0
2024-12-11 14:42:33.675,-0.691825,2.59771,7.22543,0.487532,0.346274,0.316343,0
2024-12-11 14:42:33.676,-0.62004,2.67667,7.04836,0.487532,0.346274,0.316343,0
2024-12-11 14:42:33.680,-0.529113,2.73649,6.90928,0.444162,0.191119,0.315732,0
2024-12-11 14:42:33.681,-0.41665,2.78435,6.82792,0.444162,0.191119,0.315732,0
2024-12-11 14:42:33.683,-0.30658,2.82981,6.75853,0.420339,0.11965,0.309012,0
2024-12-11 14:42:33.686,-0.196211,2.87528,6.69631,0.395905,0.050624,0.301071,0
2024-12-11 14:42:33.688,-0.0765703,2.91595,6.64367,0.367196,-0.0147367,0.291298,0
2024-12-11 14:42:33.690,0.0502493,2.95185,6.60778,0.339097,-0.0782648,0.27847,0
2024-12-11 14:42:33.693,0.198604,2.98295,6.60778,0.310387,-0.13935,0.26381,0
2024-12-11 14:42:33.695,0.354437,2.9997,6.63171,0.277401,-0.201045,0.247317,0
2024-12-11 14:42:33.698,0.507577,2.9997,6.69392,0.243194,-0.2548,0.224715,0
2024-12-11 14:42:33.701,0.643968,3.00688,6.77288,0.180276,-0.358644,0.169128,0
2024-12-11 14:42:33.702,0.754038,3.0021,6.85663,0.180276,-0.358644,0.169128,0
2024-12-11 14:42:33.706,0.833001,2.98774,6.95235,0.120413,-0.449049,0.114763,0
2024-12-11 14:42:33.708,0.859622,2.96381,7.034,0.0947577,-0.490587,0.0884965,0
2024-12-11 14:42:33.710,0.857229,2.91595,7.11775,0.0691021,-0.527238,0.0646735,0
2024-12-11 14:42:33.713,0.85005,2.88006,7.21107,0.0691021,-0.527238,0.0646735,0
2024-12-11 14:42:33.714,0.845265,2.84417,7.29003,0.0440574,-0.560834,0.0420721,0
2024-12-11 14:42:33.717,0.837787,2.78435,7.38575,0.0159584,-0.593209,0.0237467,0
2024-12-11 14:42:33.720,0.845265,2.71974,7.49103,-0.0341311,-0.647574,-0.0104608,0
2024-12-11 14:42:33.721,0.859622,2.66231,7.58944,-0.0341311,-0.647574,-0.0104608,0
2024-12-11 14:42:33.723,0.888335,2.58814,7.71386,-0.0341311,-0.647574,-0.0104608,0
2024-12-11 14:42:33.726,0.9003,2.50648,7.85265,-0.0762796,-0.684225,-0.0397814,0
2024-12-11 14:42:33.728,0.902692,2.44427,8.001,-0.094605,-0.693388,-0.0526092,0
2024-12-11 14:42:33.730,0.890728,2.4012,8.1664,-0.109265,-0.696442,-0.065437,0
2024-12-11 14:42:33.734,0.871586,2.35334,8.34347,-0.122704,-0.679949,-0.0825407,0
2024-12-11 14:42:33.736,0.852443,2.31984,8.51815,-0.123926,-0.661013,-0.0917034,0
2024-12-11 14:42:33.738,0.80668,2.29113,8.66411,-0.123926,-0.661013,-0.0917034,0
2024-12-11 14:42:33.741,0.749253,2.26002,8.81994,-0.114763,-0.612756,-0.0959794,0
2024-12-11 14:42:33.743,0.684646,2.24088,8.96351,-0.114763,-0.612756,-0.0959794,0
2024-12-11 14:42:33.745,0.60329,2.22174,9.06641,-0.104379,-0.578549,-0.0959794,0
2024-12-11 14:42:33.747,0.507577,2.2002,9.15733,-0.0933833,-0.546785,-0.0923143,0
2024-12-11 14:42:33.749,0.423829,2.17388,9.2339,-0.0762796,-0.50708,-0.0849841,0
2024-12-11 14:42:33.752,0.349651,2.1667,9.26292,-0.0597867,-0.467985,-0.0770431,0
2024-12-11 14:42:33.754,0.27996,2.15234,9.25544,-0.0396287,-0.424004,-0.0642153,0
2024-12-11 14:42:33.756,0.217747,2.1332,9.22672,-0.0219141,-0.376969,-0.0507767,0
2024-12-11 14:42:33.759,0.160319,2.12842,9.15255,-0.00603212,-0.330545,-0.0355055,0
2024-12-11 14:42:33.761,0.129212,2.12602,9.08555,0.00923906,-0.281677,-0.0177909,0
2024-12-11 14:42:33.763,0.102891,2.11645,9.01137,0.0238994,-0.232809,0.00236703,0
2024-12-11 14:42:33.767,0.0646062,2.11645,8.91805,0.0367272,-0.183941,0.0200816,0
2024-12-11 14:42:33.768,0.0334995,2.13799,8.81277,0.0471116,-0.136906,0.0414613,0
2024-12-11 14:42:33.770,0.0,2.17388,8.7027,0.0568851,-0.0898709,0.0640626,0
2024-12-11 14:42:33.773,-0.0239282,2.21456,8.58993,0.0642153,-0.0434465,0.0860531,0
2024-12-11 14:42:33.775,-0.0334995,2.24566,8.47508,0.0715455,0.000534491,0.106211,0
2024-12-11 14:42:33.778,-0.0287139,2.27438,8.36022,0.0807082,0.0432938,0.127591,0
2024-12-11 14:42:33.782,-0.0239282,2.37248,8.09671,0.0886492,0.122704,0.169128,0
2024-12-11 14:42:33.782,-0.0239282,2.37248,8.09671,0.0886492,0.122704,0.169128,0
2024-12-11 14:42:33.786,-0.0167498,2.4347,7.97947,0.0892601,0.158744,0.190508,0
2024-12-11 14:42:33.788,-0.0119641,2.49452,7.85743,0.0886492,0.217385,0.227159,0
2024-12-11 14:42:33.792,0.0358923,2.59292,7.58226,0.0880384,0.245484,0.243652,0
2024-12-11 14:42:33.793,0.0358923,2.59292,7.58226,0.085595,0.269918,0.259534,0
2024-12-11 14:42:33.794,0.066999,2.6336,7.47428,0.085595,0.269918,0.259534,0
2024-12-11 14:42:33.796,0.133998,2.67428,7.37617,0.0843733,0.295574,0.272972,0
2024-12-11 14:42:33.802,0.335294,2.76521,7.28046,0.0819299,0.359102,0.290687,0
2024-12-11 14:42:33.802,0.335294,2.76521,7.28046,0.0819299,0.359102,0.290687,0
2024-12-11 14:42:33.806,0.521934,2.85613,7.17039,0.0843733,0.379871,0.292519,0
2024-12-11 14:42:33.807,0.521934,2.85613,7.17039,0.0843733,0.379871,0.292519,0
2024-12-11 14:42:33.808,0.586541,2.91117,7.1345,0.0862058,0.400029,0.291909,0
2024-12-11 14:42:33.812,0.63679,2.95663,7.07468,0.0892601,0.423241,0.287022,0
2024-12-11 14:42:33.813,0.682254,2.99013,7.03639,0.0972011,0.447675,0.280913,0
2024-12-11 14:42:33.816,0.708575,3.02363,7.01725,0.117359,0.482493,0.263199,0
2024-12-11 14:42:33.818,0.708575,3.05234,6.97388,0.117359,0.482493,0.263199,0
2024-12-11 14:42:33.821,0.691825,3.08106,6.9021,0.137517,0.500818,0.244263,0
2024-12-11 14:42:33.822,0.665504,3.09811,6.79681,0.137517,0.500818,0.244263,0
2024-12-11 14:42:33.825,0.62004,3.11725,6.67239,0.149123,0.503873,0.234489,0
2024-12-11 14:42:33.827,0.574577,3.13161,6.54557,0.158286,0.505705,0.224715,0
2024-12-11 14:42:33.829,0.545863,3.13879,6.42563,0.161951,0.504483,0.219218,0
2024-12-11 14:42:33.832,0.517149,3.14596,6.32273,0.169281,0.503262,0.213109,0
2024-12-11 14:42:33.834,0.483649,3.11007,6.22702,0.171724,0.503873,0.207001,0
2024-12-11 14:42:33.836,0.442971,3.10289,6.13849,0.174168,0.500818,0.202114,0
2024-12-11 14:42:33.839,0.402293,3.11486,6.05952,0.177833,0.497764,0.198449,0
2024-12-11 14:42:33.843,0.378365,3.1005,5.92313,0.179665,0.495321,0.193562,0
2024-12-11 14:42:33.843,0.378365,3.1005,5.92313,0.179665,0.495321,0.193562,0
2024-12-11 14:42:33.849,0.325723,3.11007,5.81994,0.180276,0.486158,0.192341,0
2024-12-11 14:42:33.849,0.325723,3.11007,5.81994,0.180276,0.486158,0.192341,0
2024-12-11 14:42:33.853,0.294616,3.11486,5.75294,0.18272,0.476385,0.196006,0
2024-12-11 14:42:33.853,0.227318,3.11486,5.75294,0.18272,0.476385,0.196006,0
2024-12-11 14:42:33.855,0.179462,3.12921,5.71466,0.183331,0.47333,0.197227,0
2024-12-11 14:42:33.859,0.129212,3.14118,5.67637,0.180887,0.467833,0.202114,0
2024-12-11 14:42:33.862,0.00478565,3.1675,5.60459,0.177222,0.455005,0.212498,0
2024-12-11 14:42:33.862,0.00478565,3.1675,5.60459,0.177222,0.455005,0.212498,0
2024-12-11 14:42:33.865,-0.0382852,3.17946,5.58784,0.177833,0.447675,0.219218,0
2024-12-11 14:42:33.868,-0.0909273,3.19861,5.60459,0.176611,0.421408,0.237543,0
2024-12-11 14:42:33.869,-0.153141,3.21296,5.61655,0.176611,0.421408,0.237543,0
2024-12-11 14:42:33.872,-0.193819,3.22971,5.6333,0.173557,0.406748,0.247317,0
2024-12-11 14:42:33.874,-0.234497,3.25125,5.64766,0.174779,0.387201,0.259534,0
2024-12-11 14:42:33.876,-0.265603,3.2656,5.6668,0.174168,0.366432,0.27114,0
2024-12-11 14:42:33.879,-0.263211,3.27278,5.71944,0.174779,0.343831,0.282135,0
2024-12-11 14:42:33.882,-0.267996,3.27039,5.78405,0.181498,0.302904,0.307791,0
2024-12-11 14:42:33.883,-0.265603,3.28714,5.82712,0.181498,0.302904,0.307791,0
2024-12-11 14:42:33.886,-0.234497,3.31825,5.87258,0.183941,0.282135,0.32184,0
2024-12-11 14:42:33.888,-0.212961,3.34935,5.95185,0.188217,0.260145,0.332225,0
2024-12-11 14:42:33.891,-0.179462,3.402,6.05713,0.19738,0.238154,0.344442,0
2024-12-11 14:42:33.894,-0.117248,3.46182,6.15524,0.21204,0.196616,0.359713,0
2024-12-11 14:42:33.895,-0.0550349,3.49771,6.2342,0.21204,0.196616,0.359713,0
2024-12-11 14:42:33.898,0.0119641,3.55035,6.31077,0.221814,0.178291,0.364599,0
2024-12-11 14:42:33.900,0.0693919,3.63171,6.37538,0.230366,0.160576,0.367654,0
2024-12-11 14:42:33.903,0.133998,3.70618,6.44955,0.241972,0.143473,0.366432,0
2024-12-11 14:42:33.906,0.222533,3.77557,6.53839,0.263352,0.109265,0.363989,0
2024-12-11 14:42:33.909,0.35683,3.89282,6.66281,0.270071,0.0933833,0.358491,0
2024-12-11 14:42:33.909,0.35683,3.89282,6.66281,0.270071,0.0933833,0.358491,0
2024-12-11 14:42:33.912,0.407079,3.95264,6.72024,0.280455,0.0775012,0.352383,0
2024-12-11 14:42:33.914,0.459721,4.00289,6.77528,0.289618,0.0634518,0.34322,0
2024-12-11 14:42:33.919,0.500399,4.03879,6.80638,0.301224,0.0377962,0.323673,0
2024-12-11 14:42:33.920,0.507577,4.07946,6.83749,0.301224,0.0377962,0.323673,0
2024-12-11 14:42:33.921,0.498006,4.12971,6.89013,0.304278,0.0274118,0.313899,0
2024-12-11 14:42:33.925,0.490828,4.17278,6.92602,0.31283,0.0139731,0.294963,0
2024-12-11 14:42:33.926,0.545863,4.16321,6.99063,0.31283,0.0139731,0.294963,0
2024-12-11 14:42:33.928,0.701396,4.08664,7.09143,0.314052,0.00542127,0.280913,0
2024-12-11 14:42:33.931,0.727717,4.101,7.15125,0.317717,-0.00129805,0.266864,0
2024-12-11 14:42:33.933,0.538684,4.24726,7.10579,0.314663,-0.00374144,0.25648,0
2024-12-11 14:42:33.938,0.210568,4.47697,7.06989,0.295726,-0.0104608,0.253425,0
2024-12-11 14:42:33.939,0.210568,4.47697,7.06989,0.28412,-0.0110716,0.25709,0
2024-12-11 14:42:33.940,0.153141,4.53679,7.15843,0.28412,-0.0110716,0.25709,0
2024-12-11 14:42:33.942,0.129212,4.55593,7.2685,0.271293,-0.0153475,0.261366,0
2024-12-11 14:42:33.945,0.124427,4.54876,7.3666,0.259076,-0.0184018,0.26381,0
2024-12-11 14:42:33.947,0.143569,4.52722,7.46232,0.249302,-0.0226777,0.267475,0
2024-12-11 14:42:33.949,0.174676,4.50329,7.54607,0.24075,-0.0324513,0.268086,0
2024-12-11 14:42:33.953,0.20339,4.47697,7.62533,0.216316,-0.0465007,0.268696,0
2024-12-11 14:42:33.954,0.200997,4.4674,7.68993,0.216316,-0.0465007,0.268696,0
2024-12-11 14:42:33.956,0.167498,4.47219,7.7689,0.202267,-0.0526092,0.271751,0
2024-12-11 14:42:33.959,0.143569,4.47936,7.88615,0.202267,-0.0526092,0.271751,0
2024-12-11 14:42:33.961,0.129212,4.49611,8.02971,0.17539,-0.0636045,0.280913,0
2024-12-11 14:42:33.965,0.11007,4.50568,8.21187,0.151566,-0.0709346,0.294352,0
2024-12-11 14:42:33.967,0.102891,4.52483,8.37697,0.151566,-0.0709346,0.294352,0
2024-12-11 14:42:33.968,0.0933201,4.54636,8.52533,0.143015,-0.0764323,0.303515,0
2024-12-11 14:42:33.971,0.0909273,4.55833,8.6689,0.137517,-0.0788757,0.312067,0
2024-12-11 14:42:33.973,0.081356,4.58226,8.79841,0.130187,-0.0825407,0.321229,0
2024-12-11 14:42:33.975,0.0598206,4.58704,8.93719,0.124689,-0.085595,0.332225,0
2024-12-11 14:42:33.978,0.0550349,4.61097,9.07119,0.119192,-0.085595,0.340166,0
2024-12-11 14:42:33.980,0.0598206,4.65643,9.20519,0.113694,-0.0886492,0.349939,0
2024-12-11 14:42:33.983,0.0717847,4.67797,9.32513,0.110029,-0.0929251,0.356048,0
2024-12-11 14:42:33.985,0.0933201,4.6995,9.43998,0.106975,-0.0965902,0.365821,0
2024-12-11 14:42:33.987,0.12682,4.72104,9.55245,0.104531,-0.0990336,0.370097,0
2024-12-11 14:42:33.990,0.179462,4.733,9.68405,0.0965902,-0.102699,0.373151,0
2024-12-11 14:42:33.992,0.227318,4.73779,9.82074,0.0917034,-0.101477,0.37926,0
2024-12-11 14:42:33.994,0.277567,4.75693,9.9356,0.0898709,-0.0978119,0.379871,0
2024-12-11 14:42:33.997,0.337687,4.77877,10.0648,0.0849841,-0.0904818,0.37926,0
2024-12-11 14:42:34.000,0.373579,4.79791,10.1916,0.0788757,-0.065437,0.37926,0
2024-12-11 14:42:34.001,0.404686,4.82184,10.3328,0.0788757,-0.065437,0.37926,0
2024-12-11 14:42:34.004,0.431007,4.84337,10.4862,0.0782648,-0.0513875,0.376206,0
2024-12-11 14:42:34.006,0.447757,4.86969,10.6011,0.0782648,-0.0342838,0.37254,0
2024-12-11 14:42:34.008,0.474078,4.89362,10.7112,0.0764323,-0.0196235,0.370708,0
2024-12-11 14:42:34.011,0.481256,4.89362,10.8476,0.0752106,-0.00313059,0.367043,0
2024-12-11 14:42:34.014,0.474078,4.87448,10.9843,0.0721563,0.014584,0.361545,0
2024-12-11 14:42:34.015,0.462114,4.86251,11.1111,0.073378,0.030466,0.360324,0
2024-12-11 14:42:34.018,0.457328,4.85294,11.2499,0.0721563,0.0457372,0.360324,0
2024-12-11 14:42:34.021,0.464507,4.81944,11.3958,0.0770431,0.0787229,0.362156,0
2024-12-11 14:42:34.022,0.462114,4.7689,11.5469,0.0770431,0.0787229,0.362156,0
2024-12-11 14:42:34.027,0.488435,4.65404,11.9225,0.0892601,0.111098,0.367043,0
2024-12-11 14:42:34.028,0.488435,4.65404,11.9225,0.0892601,0.111098,0.367043,0
2024-12-11 14:42:34.030,0.505185,4.58465,12.1286,0.100866,0.128202,0.374984,0
2024-12-11 14:42:34.033,0.514756,4.50808,12.3535,0.135074,0.164852,0.391477,0
2024-12-11 14:42:34.035,0.517149,4.45783,12.5833,0.16134,0.185621,0.403083,0
2024-12-11 14:42:34.037,0.529113,4.41476,12.8085,0.16134,0.185621,0.403083,0
2024-12-11 14:42:34.040,0.541077,4.37647,13.0382,0.193104,0.210666,0.417132,0
2024-12-11 14:42:34.041,0.553041,4.35494,13.2371,0.231587,0.239376,0.431793,0
2024-12-11 14:42:34.044,0.555434,4.33579,13.395,0.270071,0.272972,0.449507,0
2024-12-11 14:42:34.046,0.553041,4.31665,13.5051,0.320771,0.310234,0.466,0
2024-12-11 14:42:34.049,0.533899,4.29512,13.5625,0.420339,0.400639,0.505094,0
2024-12-11 14:42:34.052,0.471685,4.31426,13.5601,0.468596,0.450118,0.528307,0
2024-12-11 14:42:34.053,0.383151,4.36929,13.4477,0.468596,0.450118,0.528307,0
2024-12-11 14:42:34.055,0.265603,4.44108,13.273,0.516853,0.505705,0.55274,0
2024-12-11 14:42:34.058,0.11007,4.54876,13.0621,0.559002,0.560681,0.578396,0
2024-12-11 14:42:34.060,-0.0526421,4.69233,12.8204,0.593209,0.611382,0.606495,0
2024-12-11 14:42:34.065,-0.442971,5.00369,12.2291,0.646353,0.698733,0.658417,0
2024-12-11 14:42:34.065,-0.442971,5.00369,12.2291,0.646353,0.698733,0.658417,0
2024-12-11 14:42:34.067,-0.617647,5.17597,11.9058,0.656737,0.732329,0.68224,0
2024-12-11 14:42:34.070,-0.732503,5.34856,11.5588,0.656737,0.756763,0.700565,0
2024-12-11 14:42:34.073,-0.73011,5.46581,11.202,0.624362,0.789749,0.721945,0
2024-12-11 14:42:34.074,-0.622433,5.52563,10.8595,0.624362,0.789749,0.721945,0
2024-12-11 14:42:34.077,-0.593719,5.64048,10.5532,0.595042,0.793414,0.716447,0
2024-12-11 14:42:34.080,-0.687039,5.81037,10.2634,0.499139,0.764094,0.688349,0
2024-12-11 14:42:34.082,-0.80668,5.98774,9.96431,0.499139,0.764094,0.688349,0
2024-12-11 14:42:34.084,-0.878764,6.15524,9.70319,0.435,0.724999,0.673077,0
2024-12-11 14:42:34.086,-0.924228,6.28924,9.49502,0.357422,0.666358,0.650476,0
2024-12-11 14:42:34.088,-0.936192,6.39213,9.30838,0.270682,0.585115,0.627264,0
2024-12-11 14:42:34.092,-0.888335,6.45942,9.15255,0.0605502,0.374373,0.574731,0
2024-12-11 14:42:34.093,-0.818644,6.46182,9.05205,0.0605502,0.374373,0.574731,0
2024-12-11 14:42:34.096,-0.658325,6.38973,9.04008,-0.0573433,0.249149,0.544189,0
2024-12-11 14:42:34.099,-0.395115,6.26291,9.2028,-0.308401,-0.0300079,0.464168,0
2024-12-11 14:42:34.100,-0.0717847,6.0667,9.56202,-0.308401,-0.0300079,0.464168,0
2024-12-11 14:42:34.102,0.308973,5.79841,10.084,-0.428128,-0.176611,0.414078,0
2024-12-11 14:42:34.106,0.660718,5.5017,10.7327,-0.537469,-0.321993,0.362156,0
2024-12-11 14:42:34.108,0.955334,5.21665,11.4197,-0.635205,-0.461266,0.307791,0
2024-12-11 14:42:34.110,1.14915,5.00608,12.1262,-0.717058,-0.589544,0.251593,0
2024-12-11 14:42:34.113,1.24247,4.8338,12.8539,-0.785473,-0.704383,0.203336,0
2024-12-11 14:42:34.115,1.39083,4.57986,13.6295,-0.785473,-0.704383,0.203336,0
2024-12-11 14:42:34.117,1.62562,4.24726,14.4652,-0.866105,-0.893135,0.117206,0
2024-12-11 14:42:34.120,1.89841,3.8665,15.3245,-0.869159,-1.01897,0.0243575,0
2024-12-11 14:42:34.122,2.16192,3.47378,16.2009,-0.869159,-1.01897,0.0243575,0
2024-12-11 14:42:34.126,2.55224,2.69581,17.7715,-0.787306,-1.05745,-0.0703238,0
2024-12-11 14:42:34.126,2.55224,2.69581,17.7715,-0.787306,-1.05745,-0.0703238,0
2024-12-11 14:42:34.129,2.63121,2.33898,18.4202,-0.717669,-1.04218,-0.116748,0
2024-12-11 14:42:34.132,2.62164,2.01117,18.99,-0.529528,-0.937116,-0.198602,0
2024-12-11 14:42:34.134,2.52832,1.71655,19.421,-0.529528,-0.937116,-0.198602,0
2024-12-11 14:42:34.135,2.37248,1.45573,19.701,-0.418965,-0.852819,-0.224868,0
2024-12-11 14:42:34.139,2.1332,1.24247,19.8637,-0.172793,-0.638412,-0.258465,0
2024-12-11 14:42:34.141,1.80509,1.08694,19.8853,-0.172793,-0.638412,-0.258465,1
2024-12-11 14:42:34.142,1.43659,0.988834,19.7441,-0.172793,-0.638412,-0.258465,0
2024-12-11 14:42:34.146,1.01755,0.967299,19.3995,0.177222,-0.267017,-0.217538,0
2024-12-11 14:42:34.148,0.579362,1.01994,18.8321,0.177222,-0.267017,-0.217538,0
2024-12-11 14:42:34.150,0.304188,1.17547,18.1089,0.267017,-0.150956,-0.183941,0
2024-12-11 14:42:34.152,0.00239282,1.34297,17.3955,0.34154,-0.0477224,-0.14668,0
2024-12-11 14:42:34.155,-0.500399,1.44138,16.7994,0.396516,0.0457372,-0.100255,0
2024-12-11 14:42:34.157,-0.957727,1.52034,16.1483,0.436832,0.126369,-0.0458899,0
2024-12-11 14:42:34.160,-1.25922,1.5682,15.382,0.462488,0.186843,0.0096972,0
2024-12-11 14:42:34.161,-1.41984,1.58255,14.6471,0.468596,0.232656,0.0695602,0
2024-12-11 14:42:34.165,-1.47727,1.54427,13.9816,0.458212,0.265031,0.121482,0
2024-12-11 14:42:34.167,-1.25683,1.50359,13.3113,0.397127,0.290687,0.202725,0
2024-12-11 14:42:34.168,-0.821037,1.51316,12.6553,0.397127,0.290687,0.202725,0
2024-12-11 14:42:34.172,-0.533899,1.60648,12.1669,0.397127,0.290687,0.202725,0
2024-12-11 14:42:34.173,-0.41665,1.76919,11.8149,0.287175,0.288244,0.243041,0
2024-12-11 14:42:34.176,-0.366401,1.95583,11.482,0.223646,0.280913,0.255258,0
2024-12-11 14:42:34.178,-0.337687,2.16909,11.1852,0.154621,0.268696,0.268696,0
2024-12-11 14:42:34.180,-0.272782,2.34856,10.9531,0.0843733,0.254036,0.279692,0
2024-12-11 14:42:34.184,-0.129212,2.48255,10.7877,0.00984991,0.2351,0.287022,0
2024-12-11 14:42:34.187,0.375972,2.62403,10.6418,-0.140419,0.186232,0.276637,0
2024-12-11 14:42:34.188,0.375972,2.62403,10.6418,-0.212498,0.159355,0.255869,0
2024-12-11 14:42:34.190,0.675075,2.64796,10.649,-0.212498,0.159355,0.255869,0
2024-12-11 14:42:34.192,0.996012,2.62881,10.6849,-0.282746,0.134921,0.226548,0
2024-12-11 14:42:34.197,1.56102,2.47537,10.8882,-0.409191,0.0952158,0.14164,0
2024-12-11 14:42:34.197,1.56102,2.47537,10.8882,-0.409191,0.0952158,0.14164,0
2024-12-11 14:42:34.199,1.76441,2.38445,11.0369,-0.460502,0.0811663,0.0897182,0
2024-12-11 14:42:34.201,1.89362,2.29113,11.214,-0.504483,0.074447,0.0322986,0
2024-12-11 14:42:34.206,1.92473,2.11645,11.5804,-0.57412,0.066506,-0.081319,0
2024-12-11 14:42:34.206,1.92473,2.11645,11.5804,-0.57412,0.066506,-0.081319,0
2024-12-11 14:42:34.209,1.86251,2.0327,11.7838,-0.596721,0.0750579,-0.134463,0
2024-12-11 14:42:34.211,1.73569,1.93191,11.9728,-0.608328,0.0860531,-0.183941,0
2024-12-11 14:42:34.213,1.55862,1.81944,12.1071,-0.614436,0.104379,-0.227312,0
2024-12-11 14:42:34.215,1.37169,1.71177,12.1765,-0.610771,0.125758,-0.266406,0
2024-12-11 14:42:34.219,1.17308,1.58495,12.1597,-0.605884,0.153246,-0.29817,0
2024-12-11 14:42:34.220,0.962513,1.45573,12.0999,-0.597943,0.182567,-0.324436,0
2024-12-11 14:42:34.224,0.74686,1.33101,12.0326,-0.583894,0.217996,-0.342762,0
2024-12-11 14:42:34.225,0.519542,1.20897,11.9417,-0.571066,0.255258,-0.356811,0
2024-12-11 14:42:34.227,0.285045,1.08933,11.834,-0.571066,0.255258,-0.356811,0
2024-12-11 14:42:34.231,0.0693919,0.97687,11.7168,-0.525252,0.373762,-0.360476,0
2024-12-11 14:42:34.232,-0.122034,0.88355,11.5804,-0.525252,0.373762,-0.360476,0
2024-12-11 14:42:34.234,-0.304188,0.794716,11.4174,-0.50204,0.412246,-0.351924,0
2024-12-11 14:42:34.237,-0.490828,0.734896,11.2475,-0.486158,0.445842,-0.336653,0
2024-12-11 14:42:34.240,-0.679861,0.701396,11.0943,-0.445842,0.524031,-0.296948,0
2024-12-11 14:42:34.241,-0.871586,0.660718,10.9409,-0.445842,0.524031,-0.296948,0
2024-12-11 14:42:34.245,-1.01755,0.63679,10.7853,-0.421408,0.561292,-0.268849,0
2024-12-11 14:42:34.247,-1.14676,0.632004,10.6226,-0.37254,0.63887,-0.207764,0
2024-12-11 14:42:34.249,-1.28315,0.610469,10.4264,-0.37254,0.63887,-0.207764,0
2024-12-11 14:42:34.253,-1.5012,0.598505,10.0241,-0.322451,0.701176,-0.137517,0
2024-12-11 14:42:34.253,-1.4004,0.588933,10.2299,-0.322451,0.701176,-0.137517,0
2024-12-11 14:42:34.257,-1.58255,0.612862,9.81326,-0.277248,0.742103,-0.0623828,0
2024-12-11 14:42:34.258,-1.63998,0.632004,9.59791,-0.277248,0.742103,-0.0623828,0
2024-12-11 14:42:34.263,-1.66152,0.687039,9.15494,-0.258923,0.772035,0.0121406,0
2024-12-11 14:42:34.264,-1.66152,0.687039,9.15494,-0.219218,0.779365,0.0469589,0
2024-12-11 14:42:34.267,-1.64237,0.749253,8.78884,-0.200892,0.787306,0.0829989,0
2024-12-11 14:42:34.267,-1.64237,0.749253,8.78884,-0.200892,0.787306,0.0829989,0
2024-12-11 14:42:34.272,-1.53948,0.821037,8.46072,-0.164852,0.788527,0.146527,0
2024-12-11 14:42:34.273,-1.53948,0.821037,8.46072,-0.164852,0.788527,0.146527,0
2024-12-11 14:42:34.274,-1.47009,0.885943,8.31237,-0.146527,0.782419,0.175848,0
2024-12-11 14:42:34.277,-1.37169,0.931406,8.16401,-0.129423,0.774478,0.200282,0
2024-12-11 14:42:34.280,-1.28076,0.96012,8.01297,-0.0921616,0.750655,0.239987,0
2024-12-11 14:42:34.281,-1.17787,1.01755,7.87418,-0.0921616,0.750655,0.239987,0
2024-12-11 14:42:34.284,-1.05583,1.07019,7.74975,-0.0921616,0.750655,0.239987,0
2024-12-11 14:42:34.286,-0.945763,1.11805,7.62054,-0.0591758,0.711561,0.266253,0
2024-12-11 14:42:34.288,-0.857229,1.18265,7.49821,-0.0414613,0.691403,0.272972,0
2024-12-11 14:42:34.291,-0.761217,1.24008,7.3666,-0.0261901,0.663304,0.276027,0
2024-12-11 14:42:34.294,-0.670289,1.30708,7.235,0.000687203,0.605273,0.272362,0
2024-12-11 14:42:34.296,-0.591326,1.38126,7.12493,0.000687203,0.605273,0.272362,0
2024-12-11 14:42:34.298,-0.52672,1.44616,7.00738,0.013515,0.569233,0.266864,0
2024-12-11 14:42:34.300,-0.493221,1.51316,6.88774,0.0232886,0.530139,0.258312,0
2024-12-11 14:42:34.303,-0.478864,1.58734,6.7681,0.0300079,0.486769,0.248538,0
2024-12-11 14:42:34.306,-0.454935,1.64955,6.65564,0.0367272,0.446453,0.238765,0
2024-12-11 14:42:34.308,-0.428614,1.70219,6.5671,0.0440574,0.352993,0.21372,0
2024-12-11 14:42:34.311,-0.421436,1.75723,6.48335,0.0458899,0.304126,0.19906,0
2024-12-11 14:42:34.312,-0.3999,1.78594,6.40648,0.0458899,0.304126,0.19906,0
2024-12-11 14:42:34.314,-0.378365,1.81705,6.34427,0.0434465,0.254036,0.1844,0
2024-12-11 14:42:34.318,-0.375972,1.83859,6.29402,0.0391706,0.202725,0.169128,0
2024-12-11 14:42:34.320,-0.30658,1.79551,6.28206,0.033673,0.100103,0.133088,0
2024-12-11 14:42:34.322,-0.265603,1.80509,6.30838,0.033673,0.100103,0.133088,0
2024-12-11 14:42:34.324,-0.395115,1.90798,6.33948,0.0287862,0.0500131,0.116595,0
2024-12-11 14:42:34.326,-0.569791,2.02074,6.3682,0.0226777,0.00297788,0.103768,0
2024-12-11 14:42:34.328,-0.691825,2.08774,6.44716,0.0202343,-0.0428357,0.0964375,0
2024-12-11 14:42:34.331,-0.710967,2.07577,6.59103,0.0196235,-0.0874275,0.0921616,0
2024-12-11 14:42:34.333,-0.632004,2.02792,6.77049,0.0171801,-0.135074,0.0854423,0
2024-12-11 14:42:34.337,-0.536291,1.96301,6.9356,0.0202343,-0.172946,0.0768904,0
2024-12-11 14:42:34.338,-0.457328,1.88405,7.08186,0.0226777,-0.205932,0.066506,0
2024-12-11 14:42:34.340,-0.404686,1.82662,7.21107,0.0324513,-0.235253,0.058565,0
2024-12-11 14:42:34.344,-0.397508,1.80509,7.302,0.0452791,-0.259686,0.0469589,0
2024-12-11 14:42:34.347,-0.447757,1.81944,7.4001,0.057496,-0.309165,0.0365745,0
2024-12-11 14:42:34.347,-0.447757,1.81944,7.4001,0.057496,-0.309165,0.0365745,0
2024-12-11 14:42:34.350,-0.474078,1.81226,7.45992,0.0611611,-0.336042,0.0310769,0
2024-12-11 14:42:34.353,-0.474078,1.80509,7.55564,0.0648262,-0.380023,0.0255792,0
2024-12-11 14:42:34.355,-0.45015,1.8003,7.66361,0.0648262,-0.380023,0.0255792,0
2024-12-11 14:42:34.357,-0.431007,1.8003,7.79043,0.0666587,-0.398349,0.0231358,0
2024-12-11 14:42:34.360,-0.414257,1.79791,7.91486,0.0703238,-0.430113,0.0151948,0
2024-12-11 14:42:34.361,-0.378365,1.79073,8.0345,0.0703238,-0.430113,0.0151948,0
2024-12-11 14:42:34.366,-0.285045,1.80509,8.31954,0.0764323,-0.451492,0.0096972,0
2024-12-11 14:42:34.366,-0.285045,1.80509,8.31954,0.0764323,-0.451492,0.0096972,0
2024-12-11 14:42:34.370,-0.217747,1.77876,8.46072,0.081319,-0.453936,0.00481042,0
2024-12-11 14:42:34.371,-0.153141,1.76441,8.59951,0.0874275,-0.44966,-0.000687203,0
2024-12-11 14:42:34.374,-0.11007,1.77637,8.72902,0.104531,-0.431335,-0.0110716,0
2024-12-11 14:42:34.376,-0.0909273,1.78355,8.84866,0.104531,-0.431335,-0.0110716,0
2024-12-11 14:42:34.379,-0.0765703,1.77159,8.94198,0.112472,-0.42095,-0.0141258,0
2024-12-11 14:42:34.380,-0.0622134,1.77159,8.99941,0.121635,-0.411177,-0.0184018,0
2024-12-11 14:42:34.383,-0.0550349,1.79551,9.04726,0.126522,-0.403846,-0.0202343,0
2024-12-11 14:42:34.385,-0.0478565,1.80987,9.07119,0.130187,-0.397738,-0.0226777,0
2024-12-11 14:42:34.387,-0.0191426,1.8003,9.08076,0.131409,-0.392851,-0.0251211,0
2024-12-11 14:42:34.390,0.0215354,1.80269,9.1023,0.132019,-0.39224,-0.0232886,0
2024-12-11 14:42:34.392,0.0550349,1.79312,9.12144,0.127743,-0.392851,-0.0245102,0
2024-12-11 14:42:34.395,0.11007,1.77159,9.12623,0.123468,-0.393462,-0.0251211,0
2024-12-11 14:42:34.397,0.18664,1.77637,9.16212,0.119192,-0.395295,-0.0275645,0
2024-12-11 14:42:34.399,0.270389,1.78355,9.22194,0.111861,-0.400181,-0.029397,0
2024-12-11 14:42:34.401,0.335294,1.78355,9.28206,0.105753,-0.400181,-0.0348946,0
2024-12-11 14:42:34.405,0.387936,1.79551,9.36102,0.101477,-0.401403,-0.0379489,0
2024-12-11 14:42:34.407,0.428614,1.79551,9.43281,0.0898709,-0.394073,-0.0458899,0
2024-12-11 14:42:34.409,0.459721,1.79791,9.51416,0.0898709,-0.394073,-0.0458899,0
2024-12-11 14:42:34.411,0.478864,1.81226,9.59791,0.0849841,-0.387354,-0.0526092,0
2024-12-11 14:42:34.413,0.507577,1.8338,9.67448,0.0837624,-0.375747,-0.0568851,0
2024-12-11 14:42:34.416,0.548256,1.85533,9.75344,0.0800973,-0.364141,-0.0623828,0
2024-12-11 14:42:34.418,0.576969,1.87208,9.81805,0.0800973,-0.350092,-0.0678804,0
2024-12-11 14:42:34.420,0.60329,1.89841,9.86142,0.0807082,-0.332988,-0.0752106,0
2024-12-11 14:42:34.424,0.641576,1.92473,9.90688,0.0819299,-0.31283,-0.0807082,0
2024-12-11 14:42:34.425,0.677468,1.93191,9.94038,0.0825407,-0.292672,-0.0868167,0
2024-12-11 14:42:34.427,0.706182,1.94626,9.97628,0.0831516,-0.268238,-0.0953685,0
2024-12-11 14:42:34.432,0.703789,1.95105,10.0265,0.0862058,-0.214484,-0.112472,0
2024-12-11 14:42:34.433,0.703789,1.95105,10.0265,0.0862058,-0.214484,-0.112472,0
2024-12-11 14:42:34.438,0.632004,1.97049,10.0433,0.0923143,-0.135074,-0.136906,0
2024-12-11 14:42:34.439,0.600898,1.97767,10.0385,0.0923143,-0.135074,-0.136906,0
2024-12-11 14:42:34.440,0.600898,1.97767,10.0385,0.0923143,-0.135074,-0.136906,0
2024-12-11 14:42:34.442,0.557827,2.00399,10.0337,0.0929251,-0.108807,-0.141793,0
2024-12-11 14:42:34.444,0.505185,2.02552,10.0146,0.0959794,-0.0843733,-0.144236,0
2024-12-11 14:42:34.446,0.447757,2.02313,9.98106,0.0959794,-0.0605502,-0.148512,0
2024-12-11 14:42:34.449,0.392722,2.02313,9.94756,0.0941468,-0.037338,-0.150956,0
2024-12-11 14:42:34.452,0.34008,2.0327,9.91406,0.0923143,-0.00313059,-0.150956,0
2024-12-11 14:42:34.454,0.292223,2.04945,9.88774,0.0886492,0.0109189,-0.150345,0
2024-12-11 14:42:34.457,0.239282,2.05902,9.83749,0.0886492,0.0109189,-0.150345,0
2024-12-11 14:42:34.460,0.160319,2.05902,9.74387,0.0837624,0.0237467,-0.149123,0
2024-12-11 14:42:34.461,0.160319,2.05902,9.74387,0.0837624,0.0237467,-0.149123,0
2024-12-11 14:42:34.463,0.143569,2.07338,9.72712,0.0800973,0.0243575,-0.147901,0
2024-12-11 14:42:34.465,0.131605,2.09492,9.71994,0.0739889,0.022525,-0.147901,0
2024-12-11 14:42:34.467,0.143569,2.10927,9.73191,0.0697129,0.0164165,-0.147901,0
2024-12-11 14:42:34.471,0.172283,2.12602,9.75584,0.0660479,0.00542127,-0.147291,0
2024-12-11 14:42:34.474,0.232104,2.15234,9.83749,0.0660479,-0.0147367,-0.149734,0
2024-12-11 14:42:34.475,0.232104,2.15234,9.83749,0.0660479,-0.0147367,-0.149734,0
2024-12-11 14:42:34.478,0.277567,2.15952,9.88535,0.0678804,-0.0245102,-0.152788,0
2024-12-11 14:42:34.479,0.344866,2.18106,9.9356,0.0715455,-0.0324513,-0.160118,0
2024-12-11 14:42:34.482,0.378365,2.18584,9.97867,0.0800973,-0.0361163,-0.165616,0
2024-12-11 14:42:34.484,0.385544,2.18584,10.0193,0.0849841,-0.0458899,-0.171114,0
2024-12-11 14:42:34.486,0.3999,2.19063,10.0241,0.0941468,-0.0538309,-0.178444,0
2024-12-11 14:42:34.490,0.411865,2.19781,10.0241,0.106975,-0.0599394,-0.186385,0
2024-12-11 14:42:34.492,0.419043,2.20259,10.0193,0.124689,-0.0745997,-0.197991,0
2024-12-11 14:42:34.493,0.411865,2.20259,9.98585,0.124689,-0.0745997,-0.197991,0
2024-12-11 14:42:34.496,0.409472,2.18345,9.94517,0.133852,-0.081319,-0.204099,0
2024-12-11 14:42:34.498,0.41665,2.1667,9.89971,0.143015,-0.0874275,-0.208375,0
2024-12-11 14:42:34.500,0.3999,2.15952,9.84467,0.150345,-0.0910926,-0.21204,0
2024-12-11 14:42:34.503,0.387936,2.14277,9.79173,0.155232,-0.0978119,-0.213262,0
2024-12-11 14:42:34.505,0.397508,2.12602,9.74387,0.160118,-0.101477,-0.216927,0
2024-12-11 14:42:34.508,0.385544,2.11884,9.69123,0.163783,-0.10331,-0.219981,0
2024-12-11 14:42:34.512,0.318545,2.13799,9.5668,0.171724,-0.100866,-0.21876,0
2024-12-11 14:42:34.512,0.318545,2.13799,9.5668,0.171724,-0.100866,-0.21876,0
2024-12-11 14:42:34.514,0.294616,2.14517,9.49502,0.176,-0.0929251,-0.218149,0
2024-12-11 14:42:34.517,0.282652,2.16431,9.42323,0.179055,-0.085595,-0.216316,0
2024-12-11 14:42:34.519,0.267996,2.18584,9.34906,0.182109,-0.073378,-0.214484,0
2024-12-11 14:42:34.522,0.229711,2.20259,9.27488,0.181498,-0.0617719,-0.21204,0
2024-12-11 14:42:34.526,0.157926,2.24566,9.05683,0.180276,-0.0312296,-0.207154,0
2024-12-11 14:42:34.527,0.157926,2.24566,9.05683,0.178444,-0.0171801,-0.203488,0
2024-12-11 14:42:34.530,0.114855,2.27916,8.95634,0.176611,-0.000687203,-0.198602,0
2024-12-11 14:42:34.531,0.0789631,2.31745,8.84148,0.176611,-0.000687203,-0.198602,0
2024-12-11 14:42:34.536,0.00478565,2.38206,8.62343,0.162562,0.0286335,-0.188828,0
2024-12-11 14:42:34.536,0.00478565,2.38206,8.62343,0.162562,0.0286335,-0.188828,0
2024-12-11 14:42:34.540,-0.0358923,2.46102,8.40808,0.144236,0.0548999,-0.180887,0
2024-12-11 14:42:34.540,-0.0358923,2.46102,8.40808,0.144236,0.0548999,-0.180887,0
2024-12-11 14:42:34.543,-0.0454636,2.5017,8.3363,0.13263,0.0634518,-0.176,0
2024-12-11 14:42:34.550,-0.107677,2.58574,8.17598,0.0941468,0.0726145,-0.166227,0
2024-12-11 14:42:34.551,-0.107677,2.58574,8.17598,0.0831516,0.0695602,-0.163173,0
2024-12-11 14:42:34.555,-0.131605,2.68624,8.1664,0.0727672,0.0658951,-0.160729,0
2024-12-11 14:42:34.556,-0.131605,2.68624,8.1664,0.0727672,0.0658951,-0.160729,0
2024-12-11 14:42:34.557,-0.124427,2.72931,8.18076,0.0629936,0.0579541,-0.158286,0
2024-12-11 14:42:34.557,-0.124427,2.72931,8.18076,0.0629936,0.0579541,-0.158286,0
2024-12-11 14:42:34.559,-0.117248,2.77478,8.20469,0.0550526,0.0500131,-0.157675,0
2024-12-11 14:42:34.562,-0.100499,2.80828,8.23101,0.049555,0.0402396,-0.158897,0
2024-12-11 14:42:34.565,-0.0933201,2.83699,8.27408,0.0428357,0.0182491,-0.160118,0
2024-12-11 14:42:34.569,-0.0646062,2.90878,8.36979,0.0452791,0.00908635,-0.160729,0
2024-12-11 14:42:34.569,-0.0646062,2.90878,8.36979,0.0452791,0.00908635,-0.160729,0
2024-12-11 14:42:34.572,-0.0598206,2.95424,8.4009,0.0526092,-0.00251974,-0.165005,0
2024-12-11 14:42:34.573,-0.0502493,2.99252,8.40808,0.0526092,-0.00251974,-0.165005,0
2024-12-11 14:42:34.576,-0.0430708,3.04038,8.40329,0.0593285,-0.00557398,-0.16867,0
2024-12-11 14:42:34.578,-0.0454636,3.06192,8.41287,0.0678804,-0.00862822,-0.172335,0
2024-12-11 14:42:34.580,-0.0574277,3.07867,8.40808,0.0758214,-0.00862822,-0.174779,0
2024-12-11 14:42:34.583,-0.0885344,3.10768,8.39851,0.0849841,-0.00984991,-0.179055,0
2024-12-11 14:42:34.585,-0.12682,3.134,8.3674,0.0923143,-0.0141258,-0.183331,0
2024-12-11 14:42:34.587,-0.177069,3.15793,8.32433,0.100866,-0.0141258,-0.184552,0
2024-12-11 14:42:34.590,-0.212961,3.19382,8.29083,0.109418,-0.0190126,-0.186385,0
2024-12-11 14:42:34.592,-0.234497,3.25125,8.25972,0.116137,-0.0232886,-0.188828,0
2024-12-11 14:42:34.597,-0.337687,3.37089,8.14487,0.131409,-0.0281753,-0.189439,0
2024-12-11 14:42:34.597,-0.337687,3.37089,8.14487,0.131409,-0.0281753,-0.189439,0
2024-12-11 14:42:34.599,-0.390329,3.44267,8.05843,0.135684,-0.033673,-0.191882,0
2024-12-11 14:42:34.603,-0.452543,3.51685,7.96511,0.136906,-0.0342838,-0.191272,0
2024-12-11 14:42:34.604,-0.500399,3.59103,7.87179,0.137517,-0.033673,-0.19005,0
2024-12-11 14:42:34.607,-0.550648,3.67986,7.7665,0.127743,-0.041614,-0.193715,0
2024-12-11 14:42:34.609,-0.643968,3.78036,7.67797,0.127743,-0.041614,-0.193715,0
2024-12-11 14:42:34.611,-0.744467,3.87847,7.58465,0.118581,-0.0513875,-0.192493,0
2024-12-11 14:42:34.616,-0.684646,3.90718,7.43121,0.0831516,-0.0862058,-0.191882,0
2024-12-11 14:42:34.617,-0.684646,3.90718,7.43121,0.0587177,-0.11064,-0.203488,0
2024-12-11 14:42:34.618,-0.531506,3.91197,7.42403,0.0587177,-0.11064,-0.203488,0
2024-12-11 14:42:34.620,-0.732503,4.14646,7.38335,0.0318404,-0.130187,-0.213262,0
2024-12-11 14:42:34.626,-1.12762,4.61336,7.31157,-0.0817772,-0.214484,-0.215095,0
2024-12-11 14:42:34.626,-1.12762,4.61336,7.31157,-0.0817772,-0.214484,-0.215095,0
2024-12-11 14:42:34.628,-1.12283,4.76411,7.40728,-0.0817772,-0.214484,-0.215095,0
2024-12-11 14:42:34.631,-1.0654,4.87926,7.52932,-0.122093,-0.251135,-0.215705,0
2024-12-11 14:42:34.635,-0.878764,4.96301,7.79522,-0.210055,-0.335431,-0.22609,0
2024-12-11 14:42:34.635,-0.878764,4.96301,7.79522,-0.210055,-0.335431,-0.22609,0
2024-12-11 14:42:34.637,-0.689432,4.90798,7.94118,-0.210055,-0.335431,-0.22609,0
2024-12-11 14:42:34.639,-0.442971,4.81466,8.08714,-0.302904,-0.437443,-0.247469,0
2024-12-11 14:42:34.642,-0.196211,4.69711,8.22144,-0.35055,-0.491198,-0.266406,0
2024-12-11 14:42:34.644,0.00478565,4.61097,8.35544,-0.403694,-0.546174,-0.287785,0
2024-12-11 14:42:34.649,0.227318,4.52483,8.70987,-0.513035,-0.657959,-0.331766,0
2024-12-11 14:42:34.649,0.227318,4.52483,8.70987,-0.513035,-0.657959,-0.331766,0
2024-12-11 14:42:34.653,0.454935,4.40519,9.25783,-0.622988,-0.779517,-0.370861,0
2024-12-11 14:42:34.653,0.454935,4.40519,9.25783,-0.622988,-0.779517,-0.370861,0
2024-12-11 14:42:34.656,0.605683,4.32144,9.6027,-0.677353,-0.840602,-0.388575,0
2024-12-11 14:42:34.658,0.758824,4.2015,9.97388,-0.726832,-0.898022,-0.409344,0
2024-12-11 14:42:34.661,0.905085,4.07468,10.3711,-0.726832,-0.898022,-0.409344,0
2024-12-11 14:42:34.663,1.03669,3.94068,10.8045,-0.812961,-0.989649,-0.446606,0
2024-12-11 14:42:34.665,1.15633,3.80429,11.257,-0.844115,-1.02508,-0.463099,0
2024-12-11 14:42:34.668,1.28794,3.68704,11.7191,-0.868548,-1.04646,-0.479591,0
2024-12-11 14:42:34.670,1.39083,3.58385,12.186,-0.88443,-1.0544,-0.497306,0
2024-12-11 14:42:34.673,1.38844,3.55274,12.612,-0.890539,-1.02325,-0.515631,0
2024-12-11 14:42:34.676,1.39322,3.50489,13.0382,-0.8771,-0.991481,-0.519907,0
2024-12-11 14:42:34.677,1.4988,3.36132,13.5218,-0.8771,-0.991481,-0.519907,0
2024-12-11 14:42:34.679,1.62084,3.20339,13.9863,-0.855721,-0.948722,-0.526627,0
2024-12-11 14:42:34.683,1.70219,3.04277,14.3839,-0.780586,-0.828996,-0.535789,0
2024-12-11 14:42:34.686,1.74048,2.76042,14.9273,-0.780586,-0.828996,-0.535789,0
2024-12-11 14:42:34.687,1.74048,2.76042,14.9273,-0.780586,-0.828996,-0.535789,0
2024-12-11 14:42:34.689,1.69741,2.65274,15.0948,-0.67491,-0.659181,-0.534568,0
2024-12-11 14:42:34.691,1.61127,2.56899,15.2025,-0.614436,-0.559612,-0.529681,1
2024-12-11 14:42:34.694,1.49163,2.50887,15.2336,-0.550297,-0.452714,-0.520518,0
2024-12-11 14:42:34.696,1.35733,2.44188,15.2145,-0.484936,-0.339097,-0.508301,0
2024-12-11 14:42:34.698,1.1994,2.4012,15.1092,-0.416521,-0.221203,-0.491198,0
2024-12-11 14:42:34.700,1.0008,2.3988,14.9154,-0.352383,-0.0996445,-0.464931,0
2024-12-11 14:42:34.703,0.785145,2.39641,14.6806,-0.288854,0.0237467,-0.431945,0
2024-12-11 14:42:34.705,0.553041,2.40838,14.3886,-0.228991,0.142251,-0.39224,0
2024-12-11 14:42:34.709,0.328116,2.42034,14.0151,-0.125147,0.354826,-0.300002,0
2024-12-11 14:42:34.711,0.138784,2.42273,13.5864,-0.0854423,0.447675,-0.251135,0
2024-12-11 14:42:34.713,0.00478565,2.42273,13.1483,-0.0854423,0.447675,-0.251135,0
2024-12-11 14:42:34.715,-0.0933201,2.42991,12.7271,-0.050624,0.531361,-0.202878,0
2024-12-11 14:42:34.717,-0.165105,2.47059,12.3416,-0.022525,0.602219,-0.155232,0
2024-12-11 14:42:34.719,-0.177069,2.52323,11.9871,7.63559e-05,0.663304,-0.109418,0
2024-12-11 14:42:34.722,-0.16989,2.57857,11.6545,0.0165692,0.717058,-0.0678804,0
2024-12-11 14:42:34.725,-0.16989,2.64317,11.3408,0.0471116,0.80754,0.00358873,0
2024-12-11 14:42:34.726,-0.167498,2.71974,11.0369,0.0471116,0.80754,0.00358873,0
2024-12-11 14:42:34.729,-0.153141,2.79631,10.7423,0.057496,0.844191,0.0359636,0
2024-12-11 14:42:34.732,-0.12682,2.86331,10.4719,0.0703238,0.877788,0.0646735,0
2024-12-11 14:42:34.733,-0.0789631,2.92313,10.2251,0.0807082,0.905276,0.0909399,0
2024-12-11 14:42:34.736,-0.0143569,2.95902,10.005,0.0910926,0.927877,0.11232,0
2024-12-11 14:42:34.738,0.122034,2.92552,9.83749,0.102088,0.941926,0.128202,0
2024-12-11 14:42:34.742,0.275175,2.9016,9.68166,0.122246,0.957198,0.137364,0
2024-12-11 14:42:34.744,0.297009,2.97817,9.47348,0.132019,0.957808,0.14164,0
2024-12-11 14:42:34.745,0.244068,3.07627,9.22912,0.132019,0.957808,0.14164,0
2024-12-11 14:42:34.748,0.200997,3.15314,9.02812,0.138128,0.951089,0.143473,0
2024-12-11 14:42:34.750,0.193819,3.22493,8.85584,0.145458,0.941316,0.144084,0
2024-12-11 14:42:34.752,0.184247,3.27278,8.70987,0.151566,0.926044,0.141029,0
2024-12-11 14:42:34.756,0.160319,3.30628,8.57318,0.160729,0.883285,0.130034,0
2024-12-11 14:42:34.757,0.143569,3.335,8.41287,0.160729,0.883285,0.130034,0
2024-12-11 14:42:34.759,0.114855,3.36132,8.27647,0.166838,0.855186,0.121482,0
2024-12-11 14:42:34.762,0.0789631,3.36371,8.15923,0.171724,0.8222,0.11232,0
2024-12-11 14:42:34.765,0.0574277,3.35892,8.03211,0.176,0.787306,0.103157,0
2024-12-11 14:42:34.766,0.0478565,3.36132,7.91486,0.181498,0.747601,0.0921616,0
2024-12-11 14:42:34.770,0.0215354,3.36132,7.79522,0.185163,0.659639,0.0713928,0
2024-12-11 14:42:34.771,-0.0239282,3.36371,7.66361,0.185163,0.659639,0.0713928,0
2024-12-11 14:42:34.776,-0.129212,3.3661,7.42403,0.180887,0.55946,0.0555107,0
2024-12-11 14:42:34.776,-0.129212,3.3661,7.42403,0.180887,0.55946,0.0555107,0
2024-12-11 14:42:34.778,-0.174676,3.35653,7.30439,0.179665,0.505094,0.0481806,0
2024-12-11 14:42:34.782,-0.208176,3.36132,7.21346,0.174168,0.447064,0.042683,0
2024-12-11 14:42:34.783,-0.229711,3.35892,7.14886,0.166227,0.387812,0.0390179,0
2024-12-11 14:42:34.785,-0.229711,3.3326,7.12014,0.157675,0.324284,0.0335202,0
2024-12-11 14:42:34.789,-0.229711,3.30868,7.11296,0.147901,0.258923,0.0286335,0
2024-12-11 14:42:34.790,-0.215354,3.27996,7.101,0.141182,0.194173,0.0243575,0
2024-12-11 14:42:34.792,-0.189033,3.26321,7.10818,0.132019,0.128202,0.0164165,0
2024-12-11 14:42:34.795,-0.155533,3.26082,7.14646,0.124689,0.0603975,0.0096972,0
2024-12-11 14:42:34.797,-0.131605,3.24646,7.22064,0.11797,-0.00862822,0.00175619,0
2024-12-11 14:42:34.799,-0.119641,3.24168,7.31875,0.11064,-0.0758214,-0.00679568,0
2024-12-11 14:42:34.802,-0.0957129,3.24885,7.42403,0.108807,-0.142404,-0.0147367,0
2024-12-11 14:42:34.804,-0.0454636,3.26082,7.54846,0.104531,-0.207764,-0.0208452,0
2024-12-11 14:42:34.806,0.0167498,3.26082,7.69233,0.106364,-0.268238,-0.033673,0
2024-12-11 14:42:34.810,0.0837488,3.25603,7.83829,0.107585,-0.32688,-0.0458899,0
2024-12-11 14:42:34.811,0.162712,3.25364,7.96989,0.116748,-0.380023,-0.0587177,0
2024-12-11 14:42:34.814,0.224925,3.23928,8.08236,0.123468,-0.42828,-0.0727672,0
2024-12-11 14:42:34.816,0.282652,3.22732,8.18076,0.130187,-0.474094,-0.0837624,0
2024-12-11 14:42:34.819,0.347258,3.22014,8.26212,0.141182,-0.555337,-0.112472,0
2024-12-11 14:42:34.823,0.476471,3.18425,8.3674,0.144236,-0.591987,-0.125911,0
2024-12-11 14:42:34.823,0.476471,3.18425,8.3674,0.144236,-0.591987,-0.125911,0
2024-12-11 14:42:34.825,0.52672,3.17228,8.38894,0.145458,-0.621919,-0.140571,0
2024-12-11 14:42:34.829,0.572184,3.15553,8.39612,0.142404,-0.672008,-0.166227,0
2024-12-11 14:42:34.830,0.600898,3.14118,8.39372,0.142404,-0.672008,-0.166227,0
2024-12-11 14:42:34.832,0.62004,3.13879,8.39612,0.135684,-0.689723,-0.178444,0
2024-12-11 14:42:34.835,0.639183,3.134,8.39851,0.128354,-0.703162,-0.188217,0
2024-12-11 14:42:34.837,0.663111,3.14357,8.36979,0.119192,-0.712935,-0.199213,0
2024-12-11 14:42:34.840,0.665504,3.15075,8.35544,0.10331,-0.717822,-0.210208,0
2024-12-11 14:42:34.842,0.663111,3.15553,8.35544,0.0886492,-0.719654,-0.21876,0
2024-12-11 14:42:34.846,0.667897,3.18186,8.38176,0.0489441,-0.718433,-0.238918,0
2024-12-11 14:42:34.846,0.667897,3.18186,8.38176,0.0489441,-0.718433,-0.238918,0
2024-12-11 14:42:34.850,0.643968,3.18664,8.41765,0.00251974,-0.703772,-0.251745,0
2024-12-11 14:42:34.852,0.615255,3.18425,8.45354,0.00251974,-0.703772,-0.251745,0
2024-12-11 14:42:34.854,0.610469,3.19382,8.48704,-0.0237467,-0.693388,-0.257243,0
2024-12-11 14:42:34.857,0.598505,3.19621,8.53251,-0.074447,-0.660402,-0.267627,0
2024-12-11 14:42:34.859,0.574577,3.18664,8.58276,-0.074447,-0.660402,-0.267627,0
2024-12-11 14:42:34.861,0.562612,3.18186,8.62583,-0.0982701,-0.642077,-0.26946,0
2024-12-11 14:42:34.863,0.545863,3.19861,8.68565,-0.125147,-0.62253,-0.26946,0
2024-12-11 14:42:34.865,0.533899,3.21057,8.75773,-0.151414,-0.599928,-0.270071,0
2024-12-11 14:42:34.870,0.521934,3.20818,8.92762,-0.205168,-0.554115,-0.270071,0
2024-12-11 14:42:34.871,0.519542,3.201,8.92762,-0.22777,-0.527238,-0.270071,0
2024-12-11 14:42:34.872,0.521934,3.21775,9.00419,-0.22777,-0.527238,-0.270071,0
2024-12-11 14:42:34.876,0.502792,3.22253,9.08555,-0.250982,-0.502193,-0.268849,0
2024-12-11 14:42:34.878,0.498006,3.22971,9.16451,-0.276027,-0.472261,-0.267017,0
2024-12-11 14:42:34.879,0.483649,3.22732,9.26292,-0.298628,-0.444773,-0.264573,0
2024-12-11 14:42:34.882,0.459721,3.21775,9.37299,-0.318786,-0.417285,-0.26213,0
2024-12-11 14:42:34.885,0.471685,3.22732,9.49502,-0.340776,-0.391629,-0.257243,0
2024-12-11 14:42:34.886,0.490828,3.23211,9.64098,-0.356658,-0.364141,-0.254189,0
2024-12-11 14:42:34.890,0.512363,3.23689,9.77737,-0.37193,-0.339707,-0.246248,0
2024-12-11 14:42:34.891,0.555434,3.24646,9.91885,-0.381703,-0.315884,-0.241361,0
2024-12-11 14:42:34.894,0.605683,3.25843,10.0648,-0.392698,-0.292061,-0.238918,0
2024-12-11 14:42:34.897,0.648754,3.26321,10.2084,-0.402472,-0.242583,-0.235863,0
2024-12-11 14:42:34.899,0.699003,3.27278,10.3472,-0.402472,-0.216927,-0.235863,0
2024-12-11 14:42:34.902,0.742074,3.2991,10.4743,-0.402472,-0.216927,-0.235863,0
2024-12-11 14:42:34.903,0.768395,3.31585,10.5963,-0.40125,-0.188828,-0.232809,0
2024-12-11 14:42:34.905,0.780359,3.31107,10.7183,-0.395142,-0.163173,-0.23342,0
2024-12-11 14:42:34.909,0.782752,3.31585,10.8308,-0.37193,-0.115526,-0.234642,0
2024-12-11 14:42:34.911,0.775574,3.34696,10.9289,-0.358491,-0.0923143,-0.236474,0
2024-12-11 14:42:34.913,0.770788,3.36371,11.0106,-0.358491,-0.0923143,-0.236474,0
2024-12-11 14:42:34.916,0.766002,3.36371,11.0776,-0.340166,-0.0703238,-0.236474,0
2024-12-11 14:42:34.918,0.73011,3.38764,11.1254,-0.305347,-0.0342838,-0.237085,0
2024-12-11 14:42:34.919,0.687039,3.40678,11.147,-0.305347,-0.0342838,-0.237085,0
2024-12-11 14:42:34.922,0.646361,3.41635,11.147,-0.2858,-0.0147367,-0.235863,0
2024-12-11 14:42:34.924,0.586541,3.4355,11.1278,-0.264421,0.00297788,-0.23342,0
2024-12-11 14:42:34.927,0.521934,3.45224,11.0871,-0.24243,0.0231358,-0.229755,0
2024-12-11 14:42:34.929,0.469292,3.46421,11.0345,-0.22105,0.0402396,-0.22609,0
2024-12-11 14:42:34.931,0.409472,3.47617,10.9337,-0.202114,0.0548999,-0.219371,0
2024-12-11 14:42:34.935,0.328116,3.49532,10.8236,-0.183178,0.0707819,-0.216316,0
2024-12-11 14:42:34.936,0.265603,3.51685,10.7183,-0.183178,0.0707819,-0.216316,0
2024-12-11 14:42:34.938,0.229711,3.53599,10.5963,-0.147749,0.0939941,-0.199823,0
2024-12-11 14:42:34.941,0.191426,3.56949,10.4671,-0.136753,0.103768,-0.191882,0
2024-12-11 14:42:34.944,0.157926,3.61496,10.3304,-0.124536,0.111098,-0.183331,0
2024-12-11 14:42:34.945,0.129212,3.64367,10.2203,-0.115985,0.119039,-0.174779,0
2024-12-11 14:42:34.948,0.105284,3.6679,10.1198,-0.110487,0.125147,-0.169281,0
2024-12-11 14:42:34.951,0.081356,3.68943,10.0193,-0.1056,0.129423,-0.165005,0
2024-12-11 14:42:34.952,0.0646062,3.72533,9.91885,-0.1056,0.129423,-0.165005,0
2024-12-11 14:42:34.955,0.0550349,3.75165,9.81805,-0.0964375,0.137364,-0.154621,0
2024-12-11 14:42:34.957,0.0478565,3.75643,9.73669,-0.094605,0.137364,-0.150345,0
2024-12-11 14:42:34.960,0.0454636,3.78036,9.6673,-0.0952158,0.138586,-0.14668,0
2024-12-11 14:42:34.962,0.0454636,3.80907,9.6003,-0.094605,0.139197,-0.142404,0
2024-12-11 14:42:34.965,0.0334995,3.81625,9.5357,-0.0927724,0.133088,-0.137517,0
2024-12-11 14:42:34.967,0.0454636,3.81865,9.46631,-0.0927724,0.133088,-0.137517,0
2024-12-11 14:42:34.970,0.0646062,3.82822,9.41606,-0.100103,0.117817,-0.13263,0
2024-12-11 14:42:34.972,0.066999,3.833,9.38495,-0.104989,0.107433,-0.13263,0
2024-12-11 14:42:34.975,0.0717847,3.83061,9.34188,-0.108654,0.0964375,-0.135074,0
2024-12-11 14:42:34.976,0.0789631,3.84497,9.31316,-0.108654,0.0964375,-0.135074,0
2024-12-11 14:42:34.978,0.11007,3.85454,9.31077,-0.111098,0.0842206,-0.136906,0
2024-12-11 14:42:34.981,0.138784,3.84736,9.32034,-0.114152,0.0707819,-0.138128,0
2024-12-11 14:42:34.984,0.148355,3.84018,9.33949,-0.117817,0.058565,-0.141793,0
2024-12-11 14:42:34.986,0.153141,3.84018,9.3682,-0.118428,0.046348,-0.143625,0
2024-12-11 14:42:34.989,0.157926,3.83779,9.41127,-0.114763,0.0280226,-0.149734,0
2024-12-11 14:42:34.990,0.174676,3.84018,9.45913,-0.114763,0.0280226,-0.149734,0
2024-12-11 14:42:34.993,0.172283,3.82582,9.51177,-0.109876,0.0170274,-0.157064,0
2024-12-11 14:42:34.995,0.157926,3.8019,9.5668,-0.104989,0.00725381,-0.160118,0
2024-12-11 14:42:34.997,0.141177,3.78993,9.60509,-0.0964375,-0.00374144,-0.161951,0
2024-12-11 14:42:35.001,0.100499,3.77557,9.64337,-0.0781121,-0.0220669,-0.164394,0
2024-12-11 14:42:35.002,0.066999,3.75165,9.67927,-0.0781121,-0.0220669,-0.164394,0
2024-12-11 14:42:35.005,0.026321,3.72054,9.70559,-0.0573433,-0.0367272,-0.162562,0
2024-12-11 14:42:35.007,-0.0239282,3.699,9.71994,-0.0573433,-0.0367272,-0.162562,0
2024-12-11 14:42:35.010,-0.0454636,3.66072,9.71994,-0.0371853,-0.0507767,-0.15401,0
2024-12-11 14:42:35.011,-0.0526421,3.64128,9.70798,-0.0371853,-0.0507767,-0.15401,0
2024-12-11 14:42:35.014,-0.0454636,3.62692,9.6697,-0.0292443,-0.0593285,-0.149123,0
2024-12-11 14:42:35.016,-0.0215354,3.61735,9.62902,-0.0213033,-0.0678804,-0.146069,0
2024-12-11 14:42:35.018,0.0119641,3.61735,9.6027,-0.0127514,-0.0745997,-0.13996,0
2024-12-11 14:42:35.022,0.0382852,3.60778,9.56202,-0.0096972,-0.0837624,-0.135684,0
2024-12-11 14:42:35.023,0.0478565,3.59821,9.52613,-0.00725381,-0.0910926,-0.130798,0
2024-12-11 14:42:35.025,0.0550349,3.58385,9.5022,-0.00542127,-0.0953685,-0.127133,0
2024-12-11 14:42:35.028,0.0598206,3.58146,9.4687,-0.00358873,-0.100866,-0.124078,0
2024-12-11 14:42:35.030,0.0741775,3.59103,9.43759,-0.00481042,-0.107585,-0.120413,0
2024-12-11 14:42:35.032,0.0885344,3.60778,9.42323,-0.00603212,-0.107585,-0.116748,0
2024-12-11 14:42:35.036,0.0957129,3.61974,9.4017,-0.0133623,-0.11797,-0.108807,0
2024-12-11 14:42:35.037,0.107677,3.61256,9.37777,-0.0133623,-0.11797,-0.108807,0
2024-12-11 14:42:35.041,0.138784,3.59342,9.36341,-0.0255792,-0.128965,-0.101477,0
2024-12-11 14:42:35.043,0.189033,3.58146,9.36341,-0.030466,-0.133852,-0.0984228,0
2024-12-11 14:42:35.045,0.236889,3.56949,9.36102,-0.0402396,-0.13935,-0.0965902,0
2024-12-11 14:42:35.048,0.27996,3.55992,9.3682,-0.050624,-0.145458,-0.0959794,0
2024-12-11 14:42:35.049,0.34008,3.55035,9.40409,-0.050624,-0.145458,-0.0959794,0
2024-12-11 14:42:35.054,0.445364,3.52403,9.54766,-0.0652843,-0.154621,-0.0972011,0
2024-12-11 14:42:35.054,0.445364,3.52403,9.54766,-0.0652843,-0.154621,-0.0972011,0
2024-12-11 14:42:35.057,0.481256,3.51207,9.64816,-0.0750579,-0.152788,-0.0978119,0
2024-12-11 14:42:35.059,0.50997,3.51207,9.75344,-0.0750579,-0.152788,-0.0978119,0
2024-12-11 14:42:35.061,0.519542,3.52403,9.8351,-0.074447,-0.14668,-0.100255,0
2024-12-11 14:42:35.063,0.512363,3.52164,9.91646,-0.0707819,-0.136906,-0.101477,0
2024-12-11 14:42:35.065,0.512363,3.50967,9.99063,-0.0677277,-0.1253,-0.10392,0
2024-12-11 14:42:35.068,0.500399,3.49771,10.0337,-0.0616192,-0.111251,-0.10392,0
2024-12-11 14:42:35.073,0.438186,3.48335,10.0528,-0.0494023,-0.0788757,-0.10331,0
2024-12-11 14:42:35.074,0.438186,3.48335,10.0528,-0.0494023,-0.0788757,-0.10331,0
2024-12-11 14:42:35.077,0.366401,3.43789,10.0026,-0.0402396,-0.0477224,-0.0947577,0
2024-12-11 14:42:35.078,0.366401,3.43789,10.0026,-0.0402396,-0.0477224,-0.0947577,0
2024-12-11 14:42:35.080,0.320937,3.42353,9.96431,-0.0365745,-0.033673,-0.0898709,0
2024-12-11 14:42:35.082,0.282652,3.41396,9.92363,-0.0353528,-0.021456,-0.085595,0
2024-12-11 14:42:35.084,0.258425,3.40439,9.87338,-0.030466,-0.00801737,-0.077654,0
2024-12-11 14:42:35.087,0.227318,3.41635,9.82074,-0.030466,0.00297788,-0.0684913,0
2024-12-11 14:42:35.089,0.205783,3.42114,9.75584,-0.0329094,0.0109189,-0.0605502,0
2024-12-11 14:42:35.091,0.205783,3.42353,9.71037,-0.0329094,0.0182491,-0.0544418,0
2024-12-11 14:42:35.096,0.222533,3.4331,9.65534,-0.0365745,0.0286335,-0.0397814,0
2024-12-11 14:42:35.097,0.222533,3.4331,9.65534,-0.0390179,0.0322986,-0.037338,0
2024-12-11 14:42:35.099,0.260818,3.42353,9.6362,-0.0390179,0.0322986,-0.037338,0
2024-12-11 14:42:35.102,0.277567,3.42592,9.61945,-0.0414613,0.0371853,-0.0300079,0
2024-12-11 14:42:35.103,0.292223,3.42832,9.62184,-0.0414613,0.0371853,-0.0300079,0
2024-12-11 14:42:35.105,0.318545,3.44028,9.61945,-0.0420721,0.0414613,-0.029397,0
2024-12-11 14:42:35.110,0.349651,3.48096,9.61466,-0.0396287,0.0475697,-0.0251211,0
2024-12-11 14:42:35.111,0.349651,3.48096,9.61466,-0.0371853,0.046348,-0.0257319,0
2024-12-11 14:42:35.113,0.342473,3.49532,9.61466,-0.0371853,0.046348,-0.0257319,0
2024-12-11 14:42:35.116,0.35683,3.50967,9.61945,-0.0347419,0.0439046,-0.0251211,0
2024-12-11 14:42:35.117,0.373579,3.51207,9.6027,-0.0347419,0.0439046,-0.0251211,0
2024-12-11 14:42:35.121,0.383151,3.51207,9.57877,-0.030466,0.0377962,-0.0269536,0
2024-12-11 14:42:35.123,0.387936,3.52403,9.55484,-0.030466,0.0377962,-0.0269536,0
2024-12-11 14:42:35.124,0.397508,3.52403,9.54048,-0.0274118,0.0322986,-0.0275645,0
2024-12-11 14:42:35.127,0.404686,3.52164,9.52852,-0.0237467,0.0280226,-0.0287862,0
2024-12-11 14:42:35.129,0.387936,3.53121,9.51655,-0.0237467,0.0219141,-0.0281753,0
2024-12-11 14:42:35.132,0.378365,3.53121,9.51655,-0.0237467,0.0219141,-0.0281753,0
2024-12-11 14:42:35.135,0.373579,3.52642,9.51416,-0.0121406,0.00114534,-0.0312296,0
2024-12-11 14:42:35.138,0.390329,3.54556,9.50698,-0.00664296,-0.00618483,-0.0324513,0
2024-12-11 14:42:35.138,0.390329,3.54556,9.50698,-0.00664296,-0.00618483,-0.0324513,0
2024-12-11 14:42:35.144,0.431007,3.55514,9.49981,0.00435229,-0.029397,-0.033673,0
2024-12-11 14:42:35.144,0.431007,3.55514,9.49981,0.00435229,-0.029397,-0.033673,0
2024-12-11 14:42:35.145,0.464507,3.56231,9.49263,0.00435229,-0.029397,-0.033673,0
2024-12-11 14:42:35.148,0.481256,3.55753,9.49263,0.00740652,-0.0348946,-0.0342838,0
2024-12-11 14:42:35.153,0.514756,3.58385,9.4687,0.0165692,-0.0471116,-0.0342838,0
2024-12-11 14:42:35.154,0.514756,3.58385,9.4687,0.0165692,-0.0489441,-0.041614,0
2024-12-11 14:42:35.155,0.52672,3.61017,9.43998,0.0165692,-0.0489441,-0.041614,0
2024-12-11 14:42:35.157,0.533899,3.6341,9.42084,0.0177909,-0.0501658,-0.0422248,0
2024-12-11 14:42:35.160,0.519542,3.65833,9.39213,0.021456,-0.0489441,-0.0452791,0
2024-12-11 14:42:35.162,0.519542,3.67986,9.34906,0.0251211,-0.049555,-0.0507767,0
2024-12-11 14:42:35.164,0.521934,3.7014,9.30838,0.0232886,-0.0477224,-0.0538309,0
2024-12-11 14:42:35.167,0.517149,3.70858,9.25065,0.0226777,-0.0446682,-0.057496,0
2024-12-11 14:42:35.169,0.507577,3.71575,9.19562,0.0208452,-0.0410031,-0.0593285,0
2024-12-11 14:42:35.171,0.488435,3.72293,9.14776,0.0184018,-0.041614,-0.0629936,0
2024-12-11 14:42:35.175,0.474078,3.73011,9.0999,0.00374144,-0.0367272,-0.0672696,0
2024-12-11 14:42:35.176,0.45015,3.73729,9.05205,0.00374144,-0.0367272,-0.0672696,0
2024-12-11 14:42:35.178,0.442971,3.73729,8.99462,-0.00358873,-0.0348946,-0.0691021,0
2024-12-11 14:42:35.182,0.438186,3.73729,8.94676,-0.0115297,-0.0342838,-0.0691021,0
2024-12-11 14:42:35.187,0.407079,3.73729,8.90848,-0.0432938,-0.029397,-0.0715455,0
2024-12-11 14:42:35.188,0.431007,3.73968,8.92044,-0.0432938,-0.029397,-0.0715455,0
2024-12-11 14:42:35.189,0.431007,3.73968,8.92044,-0.0555107,-0.0263428,-0.0721563,0
2024-12-11 14:42:35.191,0.452543,3.71575,8.92523,-0.0652843,-0.0251211,-0.073378,0
2024-12-11 14:42:35.194,0.4669,3.7014,8.94437,-0.0738362,-0.0245102,-0.0764323,0
2024-12-11 14:42:35.195,0.462114,3.699,8.99223,-0.0738362,-0.0245102,-0.0764323,0
2024-12-11 14:42:35.197,0.452543,3.7014,9.04965,-0.082388,-0.0251211,-0.077654,0
2024-12-11 14:42:35.201,0.445364,3.68465,9.10469,-0.0933833,-0.0220669,-0.0800973,0
2024-12-11 14:42:35.204,0.45015,3.64876,9.22433,-0.0933833,-0.0220669,-0.0800973,0
2024-12-11 14:42:35.204,0.45015,3.64876,9.22433,-0.0933833,-0.0220669,-0.0800973,0
2024-12-11 14:42:35.207,0.440578,3.62692,9.27249,-0.0994917,-0.0177909,-0.081319,0
2024-12-11 14:42:35.209,0.421436,3.61017,9.31316,-0.101935,-0.0165692,-0.0837624,0
2024-12-11 14:42:35.211,0.3999,3.59342,9.37059,-0.102546,-0.0177909,-0.085595,0
2024-12-11 14:42:35.214,0.380758,3.57428,9.42323,-0.0964375,-0.0153475,-0.0874275,0
2024-12-11 14:42:35.216,0.361615,3.55035,9.45434,-0.0927724,-0.0202343,-0.0874275,0
2024-12-11 14:42:35.218,0.337687,3.5336,9.49502,-0.090329,-0.0220669,-0.0831516,0
2024-12-11 14:42:35.222,0.328116,3.51924,9.52613,-0.0799446,-0.0275645,-0.0807082,0
2024-12-11 14:42:35.223,0.297009,3.49053,9.54766,-0.0799446,-0.0275645,-0.0807082,0
2024-12-11 14:42:35.226,0.272782,3.47378,9.56441,-0.0762796,-0.0306187,-0.0770431,0
2024-12-11 14:42:35.228,0.285045,3.45464,9.58355,-0.0701711,-0.0342838,-0.0745997,0
2024-12-11 14:42:35.230,0.277567,3.45224,9.6027,-0.0603975,-0.0379489,-0.0703238,0
2024-12-11 14:42:35.234,0.27996,3.46421,9.60748,-0.0500131,-0.0422248,-0.065437,0
2024-12-11 14:42:35.235,0.301795,3.44985,9.58595,-0.0500131,-0.0422248,-0.065437,0
2024-12-11 14:42:35.237,0.325723,3.4355,9.56202,-0.0445155,-0.0477224,-0.0629936,0
2024-12-11 14:42:35.240,0.344866,3.45224,9.55005,-0.0408504,-0.0519984,-0.0629936,0
2024-12-11 14:42:35.243,0.361615,3.4666,9.52852,-0.0353528,-0.0605502,-0.0623828,0
2024-12-11 14:42:35.244,0.375972,3.4666,9.49502,-0.0353528,-0.0605502,-0.0623828,0
2024-12-11 14:42:35.247,0.371187,3.47139,9.47109,-0.0335202,-0.0636045,-0.0648262,0
2024-12-11 14:42:35.249,0.378365,3.49532,9.44477,-0.0316877,-0.0642153,-0.0684913,0
2024-12-11 14:42:35.252,0.373579,3.51207,9.41606,-0.0341311,-0.0636045,-0.0709346,0
2024-12-11 14:42:35.256,0.330509,3.5336,9.35384,-0.0335202,-0.0599394,-0.0727672,0
2024-12-11 14:42:35.256,0.330509,3.5336,9.35384,-0.0335202,-0.0599394,-0.0727672,0
2024-12-11 14:42:35.259,0.297009,3.53121,9.30359,-0.0359636,-0.0562743,-0.0721563,0
2024-12-11 14:42:35.261,0.272782,3.53121,9.2677,-0.0390179,-0.0538309,-0.0721563,0
2024-12-11 14:42:35.264,0.270389,3.52882,9.24587,-0.0408504,-0.0526092,-0.0709346,0
2024-12-11 14:42:35.266,0.263211,3.52642,9.21476,-0.0457372,-0.049555,-0.0703238,0
2024-12-11 14:42:35.268,0.248854,3.51924,9.17408,-0.0548999,-0.0465007,-0.0684913,0
2024-12-11 14:42:35.270,0.241675,3.49771,9.15255,-0.0610084,-0.0471116,-0.0691021,0
2024-12-11 14:42:35.273,0.236889,3.49053,9.14537,-0.0695602,-0.0452791,-0.0666587,0
2024-12-11 14:42:35.276,0.222533,3.50249,9.14058,-0.0762796,-0.0428357,-0.065437,0
2024-12-11 14:42:35.277,0.196211,3.5001,9.14297,-0.086664,-0.041614,-0.0648262,0
2024-12-11 14:42:35.280,0.179462,3.49532,9.14776,-0.094605,-0.0361163,-0.0629936,0
2024-12-11 14:42:35.282,0.189033,3.49532,9.1669,-0.100713,-0.0312296,-0.0605502,0
2024-12-11 14:42:35.285,0.196211,3.47378,9.19801,-0.106211,-0.0281753,-0.0599394,0
2024-12-11 14:42:35.287,0.189033,3.47617,9.22194,-0.113541,-0.0275645,-0.0581068,0
2024-12-11 14:42:35.290,0.184247,3.49053,9.25305,-0.118428,-0.0263428,-0.0562743,0
2024-12-11 14:42:35.291,0.172283,3.47139,9.28206,-0.121482,-0.0202343,-0.0532201,0
2024-12-11 14:42:35.294,0.162712,3.45464,9.30599,-0.124536,-0.0208452,-0.0532201,0
2024-12-11 14:42:35.296,0.150748,3.45464,9.33709,-0.129423,-0.0184018,-0.0526092,0
2024-12-11 14:42:35.299,0.155533,3.44267,9.38256,-0.128812,-0.0159584,-0.049555,0
2024-12-11 14:42:35.304,0.143569,3.42592,9.4687,-0.129423,-0.0184018,-0.0471116,0
2024-12-11 14:42:35.304,0.143569,3.42592,9.4687,-0.129423,-0.0184018,-0.0471116,0
2024-12-11 14:42:35.306,0.150748,3.42114,9.50698,-0.128812,-0.0190126,-0.0434465,0
2024-12-11 14:42:35.308,0.153141,3.42114,9.55723,-0.124536,-0.0226777,-0.0422248,0
2024-12-11 14:42:35.311,0.136391,3.42114,9.60748,-0.117206,-0.0257319,-0.0391706,0
2024-12-11 14:42:35.313,0.133998,3.41875,9.64098,-0.117206,-0.0257319,-0.0391706,0
2024-12-11 14:42:35.315,0.150748,3.40917,9.67209,-0.114152,-0.0287862,-0.037338,0
2024-12-11 14:42:35.318,0.153141,3.3996,9.7008,-0.107433,-0.0324513,-0.0379489,0
2024-12-11 14:42:35.320,0.148355,3.39242,9.71277,-0.0982701,-0.033673,-0.0361163,0
2024-12-11 14:42:35.323,0.138784,3.39482,9.72952,-0.0897182,-0.0355055,-0.0348946,0
2024-12-11 14:42:35.324,0.129212,3.41635,9.74866,-0.0829989,-0.037338,-0.0324513,0
2024-12-11 14:42:35.327,0.124427,3.41157,9.76302,-0.0756687,-0.0403923,-0.029397,0
2024-12-11 14:42:35.331,0.136391,3.41157,9.75823,-0.0622301,-0.0483333,-0.0287862,0
2024-12-11 14:42:35.331,0.136391,3.41157,9.75823,-0.0622301,-0.0483333,-0.0287862,0
2024-12-11 14:42:35.336,0.155533,3.40917,9.75344,-0.0481806,-0.0587177,-0.0251211,0
2024-12-11 14:42:35.337,0.155533,3.40917,9.75344,-0.0481806,-0.0587177,-0.0251211,0
2024-12-11 14:42:35.339,0.177069,3.40917,9.74387,-0.0481806,-0.0587177,-0.0251211,0
2024-12-11 14:42:35.342,0.184247,3.41635,9.74148,-0.0335202,-0.0715455,-0.0190126,0
2024-12-11 14:42:35.343,0.18664,3.42353,9.72712,-0.0335202,-0.0715455,-0.0190126,0
2024-12-11 14:42:35.347,0.200997,3.43789,9.70798,-0.0292443,-0.0794865,-0.0184018,0
2024-12-11 14:42:35.349,0.215354,3.44985,9.70798,-0.0261901,-0.0825407,-0.0190126,0
2024-12-11 14:42:35.350,0.236889,3.45942,9.70559,-0.0261901,-0.0825407,-0.0190126,0
2024-12-11 14:42:35.354,0.239282,3.47378,9.69841,-0.0255792,-0.0837624,-0.0171801,0
2024-12-11 14:42:35.356,0.256032,3.49053,9.67687,-0.0237467,-0.0819299,-0.0165692,0
2024-12-11 14:42:35.358,0.277567,3.5001,9.65295,-0.0237467,-0.0819299,-0.0165692,0
2024-12-11 14:42:35.360,0.285045,3.50728,9.62902,-0.0243575,-0.077654,-0.0153475,0
2024-12-11 14:42:35.362,0.30658,3.52642,9.61466,-0.0261901,-0.0770431,-0.0159584,0
2024-12-11 14:42:35.364,0.318545,3.53839,9.6027,-0.0280226,-0.0715455,-0.0171801,0
2024-12-11 14:42:35.367,0.318545,3.54078,9.59073,-0.0316877,-0.0703238,-0.0159584,0
2024-12-11 14:42:35.369,0.32333,3.54796,9.58116,-0.0353528,-0.0648262,-0.0177909,0
2024-12-11 14:42:35.372,0.330509,3.57189,9.56202,-0.0396287,-0.0568851,-0.0190126,0
2024-12-11 14:42:35.374,0.335294,3.58864,9.55484,-0.0420721,-0.0507767,-0.0177909,0
2024-12-11 14:42:35.376,0.335294,3.58864,9.54766,-0.0420721,-0.0507767,-0.0177909,0
2024-12-11 14:42:35.379,0.335294,3.59581,9.54048,-0.0512348,-0.0379489,-0.0184018,0
2024-12-11 14:42:35.381,0.34008,3.60539,9.52613,-0.0512348,-0.0379489,-0.0184018,0
2024-12-11 14:42:35.384,0.337687,3.61974,9.52134,-0.0634518,-0.0147367,-0.0196235,0
2024-12-11 14:42:35.386,0.330509,3.61496,9.52852,-0.0634518,-0.0147367,-0.0196235,0
2024-12-11 14:42:35.388,0.318545,3.61256,9.5357,-0.0683385,-0.00740652,-0.0190126,0
2024-12-11 14:42:35.393,0.308973,3.61017,9.55005,-0.0732253,0.0109189,-0.0190126,0
2024-12-11 14:42:35.394,0.308973,3.61017,9.55005,-0.0781121,0.0176382,-0.0177909,0
2024-12-11 14:42:35.396,0.289831,3.61974,9.53809,-0.0811663,0.0237467,-0.0177909,0
2024-12-11 14:42:35.397,0.263211,3.62453,9.54527,-0.0811663,0.0237467,-0.0177909,0
2024-12-11 14:42:35.401,0.248854,3.64128,9.55005,-0.0829989,0.0359636,-0.0141258,0
2024-12-11 14:42:35.402,0.251246,3.65354,9.55484,-0.0829989,0.0359636,-0.0141258,0
2024-12-11 14:42:35.405,0.244068,3.63649,9.55723,-0.0848314,0.0396287,-0.0122933,0
2024-12-11 14:42:35.407,0.236889,3.62214,9.55005,-0.082388,0.0469589,-0.00923906,0
2024-12-11 14:42:35.410,0.234497,3.61735,9.54766,-0.0787229,0.0512348,-0.00862822,0
2024-12-11 14:42:35.412,0.224925,3.61974,9.55963,-0.0817772,0.0530674,-0.00679568,0
2024-12-11 14:42:35.416,0.234497,3.61256,9.57398,-0.0762796,0.0579541,-0.00496313,0
2024-12-11 14:42:35.417,0.234497,3.61256,9.57398,-0.0732253,0.0591758,-0.00435229,0
2024-12-11 14:42:35.421,0.265603,3.59103,9.58116,-0.0701711,0.0610084,-0.00313059,0
2024-12-11 14:42:35.421,0.265603,3.59103,9.58116,-0.0701711,0.0610084,-0.00313059,0
