timestamp,accel_x,accel_y,accel_z,gyro_x,gyro_y,gyro_z,step_timestamp
2024-12-11 14:38:26.812,0.00717847,2.35334,9.55723,0.00679568,-0.0770431,-0.0745997,0
2024-12-11 14:38:26.812,0.00717847,2.35334,9.55723,0.00679568,-0.0770431,-0.0745997,0
2024-12-11 14:38:26.812,0.00717847,2.35334,9.55723,0.00679568,-0.0770431,-0.0745997,0
2024-12-11 14:38:26.813,0.00717847,2.35334,9.55723,0.0019089,-0.0770431,-0.0770431,0
2024-12-11 14:38:26.813,0.00717847,2.35334,9.55723,0.0019089,-0.0770431,-0.0770431,0
2024-12-11 14:38:26.813,0.00717847,2.35334,9.55723,0.0019089,-0.0770431,-0.0770431,0
2024-12-11 14:38:26.814,0.0,2.36531,9.53091,0.0019089,-0.0770431,-0.0770431,0
2024-12-11 14:38:26.814,0.0,2.36531,9.53091,0.0019089,-0.0770431,-0.0770431,0
2024-12-11 14:38:26.814,0.0,2.36531,9.53091,0.0019089,-0.0770431,-0.0770431,0
2024-12-11 14:38:26.814,0.0,2.36531,9.53091,0.0019089,-0.0770431,-0.0770431,0
2024-12-11 14:38:26.814,0.00717847,2.35334,9.55723,0.0019089,-0.0770431,-0.0770431,0
2024-12-11 14:38:26.815,0.0,2.36531,9.53091,0.0019089,-0.0770431,-0.0770431,0
2024-12-11 14:38:26.815,0.0,2.36531,9.53091,0.0019089,-0.0770431,-0.0770431,0
2024-12-11 14:38:26.815,0.0,2.36531,9.53091,0.0019089,-0.0770431,-0.0770431,0
2024-12-11 14:38:26.815,0.0,2.36531,9.53091,0.0019089,-0.0770431,-0.0770431,0
2024-12-11 14:38:26.815,0.0,2.36531,9.53091,0.0019089,-0.0770431,-0.0770431,0
2024-12-11 14:38:26.824,0.0167498,2.38206,9.41845,-0.0182491,-0.0697129,-0.0788757,0
2024-12-11 14:38:26.824,0.0167498,2.38206,9.41845,-0.0182491,-0.0697129,-0.0788757,0
2024-12-11 14:38:26.824,0.0167498,2.38206,9.41845,-0.0182491,-0.0697129,-0.0788757,0
2024-12-11 14:38:26.825,0.0167498,2.38206,9.41845,-0.0261901,-0.0691021,-0.0800973,0
2024-12-11 14:38:26.826,0.0167498,2.38206,9.41845,-0.0261901,-0.0691021,-0.0800973,0
2024-12-11 14:38:26.826,0.0287139,2.37009,9.41845,-0.0261901,-0.0691021,-0.0800973,0
2024-12-11 14:38:26.827,0.0287139,2.37009,9.41845,-0.0329094,-0.0691021,-0.0807082,0
2024-12-11 14:38:26.829,0.0191426,2.36052,9.4352,-0.0329094,-0.0691021,-0.0807082,0
2024-12-11 14:38:26.829,0.0191426,2.36052,9.4352,-0.0329094,-0.0691021,-0.0807082,0
2024-12-11 14:38:26.830,0.0191426,2.36052,9.4352,-0.0371853,-0.0684913,-0.0837624,0
2024-12-11 14:38:26.831,0.00717847,2.35095,9.45913,-0.0371853,-0.0684913,-0.0837624,0
2024-12-11 14:38:26.831,0.00717847,2.35095,9.45913,-0.0371853,-0.0684913,-0.0837624,0
2024-12-11 14:38:26.832,0.00717847,2.35095,9.45913,-0.0469589,-0.0684913,-0.0843733,0
2024-12-11 14:38:26.832,0.0191426,2.35095,9.45913,-0.0469589,-0.0684913,-0.0843733,0
2024-12-11 14:38:26.832,0.00717847,2.35095,9.45913,-0.0469589,-0.0684913,-0.0843733,0
2024-12-11 14:38:26.833,0.00239282,2.33898,9.48066,-0.0469589,-0.0684913,-0.0843733,0
2024-12-11 14:38:26.833,0.00239282,2.33898,9.48066,-0.0469589,-0.0684913,-0.0843733,0
2024-12-11 14:38:26.833,0.00239282,2.33898,9.48066,-0.0469589,-0.0684913,-0.0843733,0
2024-12-11 14:38:26.834,0.00239282,2.33898,9.48066,-0.0524565,-0.0709346,-0.0849841,0
2024-12-11 14:38:26.834,0.00239282,2.33898,9.48066,-0.0524565,-0.0709346,-0.0849841,0
2024-12-11 14:38:26.836,-0.00239282,2.33181,9.51416,-0.0524565,-0.0709346,-0.0849841,0
2024-12-11 14:38:26.836,-0.00239282,2.33181,9.51416,-0.0524565,-0.0709346,-0.0849841,0
2024-12-11 14:38:26.836,-0.00239282,2.33181,9.51416,-0.0524565,-0.0709346,-0.0849841,0
2024-12-11 14:38:26.837,-0.00239282,2.33181,9.51416,-0.0542891,-0.0697129,-0.0862058,0
2024-12-11 14:38:26.837,-0.00239282,2.33181,9.51416,-0.0542891,-0.0697129,-0.0862058,0
2024-12-11 14:38:26.837,-0.00239282,2.33181,9.51416,-0.0542891,-0.0697129,-0.0862058,0
2024-12-11 14:38:26.838,0.00478565,2.33659,9.54527,-0.0542891,-0.0697129,-0.0862058,0
2024-12-11 14:38:26.839,0.00478565,2.33659,9.54527,-0.0591758,-0.0703238,-0.0892601,0
2024-12-11 14:38:26.839,0.00478565,2.33659,9.54527,-0.0591758,-0.0703238,-0.0892601,0
2024-12-11 14:38:26.840,0.00717847,2.34616,9.59313,-0.0591758,-0.0703238,-0.0892601,0
2024-12-11 14:38:26.840,0.00717847,2.34616,9.59313,-0.0591758,-0.0703238,-0.0892601,0
2024-12-11 14:38:26.840,0.00717847,2.34616,9.59313,-0.0591758,-0.0703238,-0.0892601,0
2024-12-11 14:38:26.841,0.00717847,2.34616,9.59313,-0.0591758,-0.0703238,-0.0892601,0
2024-12-11 14:38:26.843,0.00957129,2.34377,9.62663,-0.0591758,-0.0691021,-0.0880384,0
2024-12-11 14:38:26.843,0.00957129,2.34377,9.62663,-0.0591758,-0.0691021,-0.0880384,0
2024-12-11 14:38:26.844,0.00957129,2.34377,9.62663,-0.0628409,-0.0678804,-0.0874275,0
2024-12-11 14:38:26.845,0.0191426,2.33898,9.63859,-0.0628409,-0.0678804,-0.0874275,0
2024-12-11 14:38:26.846,0.0191426,2.33898,9.63859,-0.0628409,-0.0678804,-0.0874275,0
2024-12-11 14:38:26.847,0.0239282,2.3342,9.66252,-0.0628409,-0.0678804,-0.0874275,0
2024-12-11 14:38:26.848,0.0239282,2.3342,9.66252,-0.0628409,-0.0678804,-0.0874275,0
2024-12-11 14:38:26.850,0.0311067,2.32702,9.68645,-0.0646735,-0.0721563,-0.0898709,0
2024-12-11 14:38:26.850,0.0311067,2.32702,9.68645,-0.0646735,-0.0721563,-0.0898709,0
2024-12-11 14:38:26.850,0.0311067,2.32702,9.68645,-0.0646735,-0.0721563,-0.0898709,0
2024-12-11 14:38:26.851,0.0311067,2.32702,9.68645,-0.0622301,-0.0770431,-0.0904818,0
2024-12-11 14:38:26.852,0.0215354,2.31506,9.71516,-0.0622301,-0.0770431,-0.0904818,0
2024-12-11 14:38:26.853,0.0215354,2.31506,9.71516,-0.0646735,-0.0825407,-0.0923143,0
2024-12-11 14:38:26.854,0.0334995,2.30788,9.72952,-0.0646735,-0.0825407,-0.0923143,0
2024-12-11 14:38:26.854,0.0334995,2.30788,9.72952,-0.0646735,-0.0825407,-0.0923143,0
2024-12-11 14:38:26.855,0.0334995,2.30788,9.72952,-0.0646735,-0.0825407,-0.0923143,0
2024-12-11 14:38:26.855,0.0334995,2.30788,9.72952,-0.0646735,-0.0825407,-0.0923143,0
2024-12-11 14:38:26.857,0.0358923,2.3007,9.75105,-0.0640626,-0.0862058,-0.0929251,0
2024-12-11 14:38:26.858,0.0358923,2.3007,9.75105,-0.0628409,-0.0923143,-0.093536,0
2024-12-11 14:38:26.859,0.0239282,2.28873,9.78455,-0.0628409,-0.0923143,-0.093536,0
2024-12-11 14:38:26.860,0.0239282,2.28873,9.78455,-0.0597867,-0.0984228,-0.0947577,0
2024-12-11 14:38:26.860,0.0239282,2.28873,9.78455,-0.0597867,-0.0984228,-0.0947577,0
2024-12-11 14:38:26.860,0.0239282,2.28873,9.78455,-0.0597867,-0.0984228,-0.0947577,0
2024-12-11 14:38:26.862,0.0143569,2.28395,9.80369,-0.0597867,-0.0984228,-0.0947577,0
2024-12-11 14:38:26.862,0.0143569,2.28395,9.80369,-0.0597867,-0.0984228,-0.0947577,0
2024-12-11 14:38:26.864,0.00717847,2.28634,9.82314,-0.0591758,-0.102088,-0.0953685,0
2024-12-11 14:38:26.865,0.00717847,2.28634,9.82314,-0.0567324,-0.106364,-0.0965902,0
2024-12-11 14:38:26.865,0.00717847,2.28634,9.82314,-0.0567324,-0.106364,-0.0965902,0
2024-12-11 14:38:26.867,0.00957129,2.28634,9.84706,-0.0530674,-0.108807,-0.0959794,0
2024-12-11 14:38:26.869,0.0143569,2.28873,9.87578,-0.0530674,-0.108807,-0.0959794,0
2024-12-11 14:38:26.872,0.0191426,2.29591,9.89731,-0.0414613,-0.111251,-0.0959794,0
2024-12-11 14:38:26.873,0.026321,2.3007,9.92363,-0.0414613,-0.111251,-0.0959794,0
2024-12-11 14:38:26.876,0.0334995,2.29831,9.93081,-0.0377962,-0.110029,-0.0947577,0
2024-12-11 14:38:26.878,0.0382852,2.29113,9.92124,-0.0316877,-0.108807,-0.0959794,0
2024-12-11 14:38:26.880,0.0478565,2.29352,9.91406,-0.0292443,-0.106364,-0.0941468,0
2024-12-11 14:38:26.884,0.0382852,2.28634,9.90688,-0.0200816,-0.100866,-0.093536,0
2024-12-11 14:38:26.886,0.0358923,2.27677,9.88056,-0.0176382,-0.0984228,-0.0941468,0
2024-12-11 14:38:26.887,0.0334995,2.27916,9.83749,-0.0176382,-0.0984228,-0.0941468,0
2024-12-11 14:38:26.890,0.0358923,2.28634,9.8013,-0.0158057,-0.0965902,-0.0947577,0
2024-12-11 14:38:26.893,0.0454636,2.28873,9.76062,-0.0164165,-0.0929251,-0.0965902,0
2024-12-11 14:38:26.894,0.040678,2.3007,9.73191,-0.0164165,-0.0929251,-0.0965902,0
2024-12-11 14:38:26.897,0.0311067,2.31506,9.69602,-0.0164165,-0.0892601,-0.0978119,0
2024-12-11 14:38:26.899,0.0382852,2.32702,9.6697,-0.0219141,-0.0874275,-0.0972011,0
2024-12-11 14:38:26.902,0.0622134,2.33898,9.65295,-0.0237467,-0.0843733,-0.0996445,0
2024-12-11 14:38:26.904,0.0789631,2.32941,9.6362,-0.0268009,-0.0825407,-0.101477,0
2024-12-11 14:38:26.907,0.0957129,2.3342,9.64098,-0.0347419,-0.0764323,-0.108196,0
2024-12-11 14:38:26.909,0.112463,2.35095,9.6362,-0.0347419,-0.0764323,-0.108196,0
2024-12-11 14:38:26.911,0.11007,2.34616,9.63859,-0.0365745,-0.0703238,-0.111251,0
2024-12-11 14:38:26.913,0.0981057,2.35334,9.63141,-0.0390179,-0.0611611,-0.114916,0
2024-12-11 14:38:26.916,0.0765703,2.3677,9.61945,-0.0432938,-0.0538309,-0.117359,0
2024-12-11 14:38:26.918,0.0574277,2.38445,9.62423,-0.0420721,-0.0428357,-0.120413,0
2024-12-11 14:38:26.920,0.0287139,2.38684,9.62423,-0.0420721,-0.0312296,-0.123468,0
2024-12-11 14:38:26.923,-0.00239282,2.37966,9.62184,-0.0420721,-0.021456,-0.124078,0
2024-12-11 14:38:26.926,-0.026321,2.41077,9.59791,-0.0451263,-0.00679568,-0.123468,0
2024-12-11 14:38:26.927,-0.0478565,2.41555,9.57159,-0.0451263,-0.00679568,-0.123468,0
2024-12-11 14:38:26.930,-0.0765703,2.3988,9.53809,-0.0451263,-0.000687203,-0.124078,0
2024-12-11 14:38:26.932,-0.102891,2.40359,9.49263,-0.0469589,0.00114534,-0.122857,0
2024-12-11 14:38:26.936,-0.112463,2.40359,9.45913,-0.0518457,0.00358873,-0.120413,0
2024-12-11 14:38:26.937,-0.12682,2.38923,9.43041,-0.0567324,0.00358873,-0.119802,0
2024-12-11 14:38:26.939,-0.141177,2.39402,9.41606,-0.0603975,0.00603212,-0.120413,0
2024-12-11 14:38:26.944,-0.165105,2.41795,9.40888,-0.0683385,0.00725381,-0.118581,0
2024-12-11 14:38:26.945,-0.165105,2.41795,9.40888,-0.0683385,0.00725381,-0.118581,0
2024-12-11 14:38:26.946,-0.196211,2.44188,9.42323,-0.0677277,0.00847551,-0.116748,0
2024-12-11 14:38:26.949,-0.215354,2.46102,9.44238,-0.0683385,0.0096972,-0.117359,0
2024-12-11 14:38:26.951,-0.234497,2.48973,9.45913,-0.0689494,0.010308,-0.114305,0
2024-12-11 14:38:26.953,-0.246461,2.5017,9.46631,-0.0640626,0.0115297,-0.114916,0
2024-12-11 14:38:26.956,-0.260818,2.5017,9.45673,-0.0622301,0.0121406,-0.113694,0
2024-12-11 14:38:26.958,-0.277567,2.51127,9.43041,-0.0610084,0.0115297,-0.113083,0
2024-12-11 14:38:26.960,-0.27996,2.51845,9.42323,-0.0597867,0.00603212,-0.111861,0
2024-12-11 14:38:26.963,-0.277567,2.52084,9.41366,-0.0561216,0.00358873,-0.111861,0
2024-12-11 14:38:26.965,-0.277567,2.52084,9.3682,-0.0548999,-7.63559e-05,-0.112472,0
2024-12-11 14:38:26.968,-0.267996,2.51845,9.33709,-0.0530674,-0.00557398,-0.112472,0
2024-12-11 14:38:26.970,-0.258425,2.52323,9.32034,-0.0530674,-0.00557398,-0.112472,0
2024-12-11 14:38:26.973,-0.256032,2.53071,9.31316,-0.0518457,-0.0220669,-0.113694,0
2024-12-11 14:38:26.976,-0.253639,2.53549,9.30838,-0.0548999,-0.0403923,-0.119802,0
2024-12-11 14:38:26.978,-0.248854,2.53789,9.30359,-0.0536782,-0.049555,-0.123468,0
2024-12-11 14:38:26.979,-0.241675,2.54267,9.31556,-0.0536782,-0.049555,-0.123468,0
2024-12-11 14:38:26.982,-0.248854,2.54985,9.32752,-0.0536782,-0.0562743,-0.124078,0
2024-12-11 14:38:26.984,-0.263211,2.56421,9.32274,-0.0530674,-0.0611611,-0.128354,0
2024-12-11 14:38:26.987,-0.263211,2.56421,9.32992,-0.0524565,-0.0752106,-0.135074,0
2024-12-11 14:38:26.990,-0.256032,2.56899,9.33231,-0.0524565,-0.0752106,-0.135074,0
2024-12-11 14:38:26.991,-0.256032,2.58335,9.31795,-0.0542891,-0.0831516,-0.140571,0
2024-12-11 14:38:26.993,-0.253639,2.58335,9.30838,-0.0530674,-0.0892601,-0.144236,0
2024-12-11 14:38:26.997,-0.239282,2.57617,9.29402,-0.0542891,-0.093536,-0.150345,0
2024-12-11 14:38:26.999,-0.22014,2.5666,9.27727,-0.0652843,-0.108807,-0.158286,0
2024-12-11 14:38:27.001,-0.222533,2.57378,9.26292,-0.0652843,-0.108807,-0.158286,0
2024-12-11 14:38:27.003,-0.229711,2.57857,9.25544,-0.0695602,-0.114916,-0.165616,0
2024-12-11 14:38:27.005,-0.229711,2.5666,9.26052,-0.0793338,-0.121635,-0.171114,0
2024-12-11 14:38:27.007,-0.224925,2.5666,9.26531,-0.0842206,-0.128965,-0.176611,0
2024-12-11 14:38:27.010,-0.217747,2.57617,9.28924,-0.0909399,-0.135074,-0.181498,0
2024-12-11 14:38:27.013,-0.205783,2.57139,9.31077,-0.107433,-0.145458,-0.193104,0
2024-12-11 14:38:27.016,-0.191426,2.55942,9.33949,-0.114763,-0.150956,-0.19738,0
2024-12-11 14:38:27.017,-0.172283,2.55464,9.38495,-0.114763,-0.150956,-0.19738,0
2024-12-11 14:38:27.019,-0.153141,2.54028,9.42563,-0.124536,-0.153399,-0.201045,0
2024-12-11 14:38:27.025,-0.11007,2.51605,9.50938,-0.138586,-0.158286,-0.213262,0
2024-12-11 14:38:27.025,-0.11007,2.51605,9.50938,-0.138586,-0.158286,-0.213262,0
2024-12-11 14:38:27.027,-0.0909273,2.49212,9.54766,-0.144084,-0.158897,-0.21876,0
2024-12-11 14:38:27.029,-0.0861416,2.47537,9.6027,-0.150192,-0.156453,-0.222425,0
2024-12-11 14:38:27.031,-0.0981057,2.46102,9.66491,-0.15569,-0.153399,-0.228533,0
2024-12-11 14:38:27.033,-0.107677,2.43709,9.70798,-0.158744,-0.146069,-0.232198,0
2024-12-11 14:38:27.039,-0.150748,2.37488,9.77259,-0.167296,-0.125911,-0.237696,0
2024-12-11 14:38:27.039,-0.150748,2.37488,9.77259,-0.167296,-0.125911,-0.237696,0
2024-12-11 14:38:27.040,-0.181855,2.35813,9.82074,-0.167296,-0.125911,-0.237696,0
2024-12-11 14:38:27.043,-0.222533,2.31984,9.84467,-0.168517,-0.115526,-0.236474,0
2024-12-11 14:38:27.048,-0.285045,2.27916,9.8686,-0.166685,-0.106364,-0.232198,0
2024-12-11 14:38:27.049,-0.285045,2.27916,9.8686,-0.166685,-0.106364,-0.232198,0
2024-12-11 14:38:27.052,-0.304188,2.22652,9.88535,-0.168517,-0.0807082,-0.209597,0
2024-12-11 14:38:27.052,-0.304188,2.22652,9.88535,-0.168517,-0.0807082,-0.209597,0
2024-12-11 14:38:27.055,-0.32333,2.20738,9.89253,-0.170961,-0.0745997,-0.202267,0
2024-12-11 14:38:27.057,-0.318545,2.18824,9.91885,-0.169128,-0.0678804,-0.196158,0
2024-12-11 14:38:27.062,-0.301795,2.16909,9.95953,-0.165463,-0.0513875,-0.177222,0
2024-12-11 14:38:27.062,-0.304188,2.16909,9.95953,-0.165463,-0.0513875,-0.177222,0
2024-12-11 14:38:27.064,-0.27996,2.17149,9.96192,-0.161187,-0.0465007,-0.169892,0
2024-12-11 14:38:27.066,-0.239282,2.17627,9.97867,-0.159355,-0.0379489,-0.161951,0
2024-12-11 14:38:27.069,-0.222533,2.18106,10.005,-0.15569,-0.0324513,-0.155232,0
2024-12-11 14:38:27.071,-0.20339,2.17627,10.0146,-0.150192,-0.0238994,-0.149123,0
2024-12-11 14:38:27.074,-0.191426,2.18345,10.0146,-0.144084,-0.0159584,-0.141793,0
2024-12-11 14:38:27.077,-0.16989,2.20259,10.0217,-0.12698,0.00175619,-0.128354,0
2024-12-11 14:38:27.079,-0.143569,2.20738,10.0122,-0.117817,0.00847551,-0.123468,0
2024-12-11 14:38:27.080,-0.124427,2.21216,9.98824,-0.117817,0.00847551,-0.123468,0
2024-12-11 14:38:27.083,-0.0957129,2.2337,9.97388,-0.111098,0.0151948,-0.118581,0
2024-12-11 14:38:27.085,-0.0717847,2.25763,9.94517,-0.102546,0.0249684,-0.113694,0
2024-12-11 14:38:27.088,-0.040678,2.26002,9.89253,-0.0952158,0.0298552,-0.108196,0
2024-12-11 14:38:27.090,-0.00239282,2.26002,9.83271,-0.086664,0.0359636,-0.106975,0
2024-12-11 14:38:27.092,0.026321,2.2672,9.77737,-0.0805555,0.0402396,-0.104531,0
2024-12-11 14:38:27.095,0.0502493,2.28156,9.72952,-0.0738362,0.0445155,-0.102699,0
2024-12-11 14:38:27.097,0.0574277,2.29831,9.6697,-0.0646735,0.0500131,-0.0996445,0
2024-12-11 14:38:27.099,0.0382852,2.31984,9.59552,-0.0579541,0.0530674,-0.0990336,0
2024-12-11 14:38:27.103,0.0311067,2.32702,9.52613,-0.0487914,0.0573433,-0.0972011,0
2024-12-11 14:38:27.104,0.0478565,2.34377,9.46391,-0.0487914,0.0573433,-0.0972011,0
2024-12-11 14:38:27.106,0.0646062,2.36531,9.40409,-0.0420721,0.0573433,-0.0953685,0
2024-12-11 14:38:27.110,0.0693919,2.37488,9.32513,-0.0396287,0.0542891,-0.0947577,0
2024-12-11 14:38:27.112,0.081356,2.39163,9.22672,-0.0365745,0.0512348,-0.0965902,0
2024-12-11 14:38:27.113,0.114855,2.38206,9.1358,-0.0365745,0.0512348,-0.0965902,0
2024-12-11 14:38:27.117,0.153141,2.38923,9.05683,-0.0390179,0.0500131,-0.0953685,0
2024-12-11 14:38:27.118,0.18664,2.38684,8.97308,-0.0439046,0.0469589,-0.0965902,0
2024-12-11 14:38:27.122,0.222533,2.37727,8.90369,-0.0481806,0.0359636,-0.100255,0
2024-12-11 14:38:27.123,0.275175,2.37727,8.84866,-0.0555107,0.030466,-0.101477,0
2024-12-11 14:38:27.125,0.320937,2.37248,8.78884,-0.0603975,0.0188599,-0.105142,0
2024-12-11 14:38:27.128,0.349651,2.37488,8.7338,-0.0671168,0.0096972,-0.107585,0
2024-12-11 14:38:27.131,0.387936,2.36052,8.69283,-0.0848314,-0.0165692,-0.114916,0
2024-12-11 14:38:27.133,0.438186,2.34377,8.6665,-0.0958267,-0.0275645,-0.119802,0
2024-12-11 14:38:27.136,0.486042,2.33181,8.64975,-0.102546,-0.041614,-0.1253,0
2024-12-11 14:38:27.138,0.531506,2.30788,8.65933,-0.111709,-0.0556635,-0.128965,0
2024-12-11 14:38:27.139,0.574577,2.28395,8.67368,-0.111709,-0.0556635,-0.128965,0
2024-12-11 14:38:27.142,0.629611,2.26002,8.70509,-0.11965,-0.0684913,-0.132019,0
2024-12-11 14:38:27.145,0.696611,2.23849,8.74337,-0.132477,-0.0990336,-0.143625,0
2024-12-11 14:38:27.146,0.770788,2.20977,8.79362,-0.132477,-0.0990336,-0.143625,0
2024-12-11 14:38:27.150,0.85005,2.16192,8.86302,-0.138586,-0.125911,-0.15401,0
2024-12-11 14:38:27.151,0.924228,2.12363,8.93241,-0.138586,-0.125911,-0.15401,0
2024-12-11 14:38:27.153,0.97687,2.10927,9.01376,-0.137975,-0.138739,-0.159507,0
2024-12-11 14:38:27.157,1.01276,2.09731,9.08794,-0.129423,-0.155842,-0.172946,0
2024-12-11 14:38:27.159,1.04865,2.08056,9.14776,-0.129423,-0.155842,-0.172946,0
2024-12-11 14:38:27.161,1.09651,2.08295,9.19562,-0.123315,-0.163173,-0.177222,0
2024-12-11 14:38:27.163,1.14915,2.08535,9.22433,-0.11293,-0.167449,-0.182109,0
2024-12-11 14:38:27.165,1.18983,2.08774,9.24826,-0.1056,-0.169892,-0.186385,0
2024-12-11 14:38:27.168,1.23769,2.08295,9.25783,-0.0964375,-0.171114,-0.192493,0
2024-12-11 14:38:27.170,1.28315,2.0686,9.24826,-0.0878856,-0.171114,-0.195547,0
2024-12-11 14:38:27.173,1.33101,2.05424,9.22433,-0.0732253,-0.169281,-0.20471,0
2024-12-11 14:38:27.176,1.37886,2.05663,9.19562,-0.0677277,-0.171114,-0.209597,0
2024-12-11 14:38:27.178,1.41506,2.0686,9.17887,-0.0597867,-0.171114,-0.215095,0
2024-12-11 14:38:27.179,1.44855,2.08056,9.13819,-0.0597867,-0.171114,-0.215095,0
2024-12-11 14:38:27.184,1.48445,2.14038,8.96112,-0.0579541,-0.172335,-0.221203,0
2024-12-11 14:38:27.185,1.48445,2.14038,8.96112,-0.058565,-0.170503,-0.223646,0
2024-12-11 14:38:27.186,1.51795,2.17388,8.87259,-0.058565,-0.170503,-0.223646,0
2024-12-11 14:38:27.189,1.54905,2.19781,8.79841,-0.0634518,-0.168059,-0.224868,0
2024-12-11 14:38:27.191,1.57537,2.20738,8.73141,-0.0689494,-0.169892,-0.227312,0
2024-12-11 14:38:27.194,1.60887,2.23131,8.66411,-0.0781121,-0.171724,-0.230366,0
2024-12-11 14:38:27.196,1.65194,2.27199,8.60908,-0.0781121,-0.171724,-0.230366,0
2024-12-11 14:38:27.198,1.69741,2.3007,8.56361,-0.1056,-0.176611,-0.235863,0
2024-12-11 14:38:27.201,1.73569,2.32941,8.54208,-0.116595,-0.179665,-0.239528,0
2024-12-11 14:38:27.204,1.77159,2.37966,8.52054,-0.152025,-0.180276,-0.251745,0
2024-12-11 14:38:27.205,1.82662,2.42991,8.46311,-0.152025,-0.180276,-0.251745,0
2024-12-11 14:38:27.208,1.89601,2.4658,8.42004,-0.171572,-0.182109,-0.256632,0
2024-12-11 14:38:27.210,1.96062,2.48734,8.40808,-0.192341,-0.179665,-0.263962,0
2024-12-11 14:38:27.212,2.04227,2.51366,8.38415,-0.21372,-0.178444,-0.273125,0
2024-12-11 14:38:27.218,2.10927,2.6001,8.38654,-0.2858,-0.176,-0.304278,0
2024-12-11 14:38:27.218,2.14756,2.6001,8.38654,-0.2858,-0.176,-0.304278,0
2024-12-11 14:38:27.219,2.21456,2.60489,8.37697,-0.2858,-0.176,-0.304278,0
2024-12-11 14:38:27.223,2.24327,2.67428,8.38894,-0.310845,-0.172946,-0.32016,0
2024-12-11 14:38:27.229,2.0351,3.02124,8.38176,-0.398807,-0.158286,-0.354368,0
2024-12-11 14:38:27.232,2.00399,3.10768,8.37697,-0.465389,-0.145458,-0.370861,0
2024-12-11 14:38:27.232,2.00399,3.10768,8.37697,-0.465389,-0.145458,-0.370861,0
2024-12-11 14:38:27.235,1.98485,3.17946,8.36022,-0.465389,-0.140571,-0.380023,0
2024-12-11 14:38:27.236,1.95105,3.26082,8.32672,-0.501429,-0.140571,-0.380023,0
2024-12-11 14:38:27.237,1.95105,3.26082,8.32672,-0.541745,-0.135684,-0.388575,0
2024-12-11 14:38:27.239,1.89601,3.32782,8.31237,-0.541745,-0.135684,-0.388575,0
2024-12-11 14:38:27.241,1.87208,3.37089,8.32672,-0.583894,-0.130798,-0.397738,0
2024-12-11 14:38:27.245,1.82184,3.45464,8.39133,-0.673077,-0.119802,-0.413009,0
2024-12-11 14:38:27.246,1.82184,3.45464,8.39133,-0.722556,-0.116137,-0.422783,0
2024-12-11 14:38:27.249,1.7668,3.51446,8.45115,-0.766537,-0.108807,-0.430113,0
2024-12-11 14:38:27.251,1.73569,3.6006,8.54686,-0.812961,-0.0990336,-0.436832,0
2024-12-11 14:38:27.255,1.65912,3.72772,8.79123,-0.858164,-0.0898709,-0.443551,0
2024-12-11 14:38:27.256,1.70937,3.72772,8.79123,-0.899091,-0.0800973,-0.449049,0
2024-12-11 14:38:27.257,1.61366,3.78036,8.92284,-0.899091,-0.0800973,-0.449049,0
2024-12-11 14:38:27.260,1.59452,3.80668,9.06162,-0.938796,-0.0697129,-0.452103,0
2024-12-11 14:38:27.262,1.6328,3.78515,9.20519,-0.975447,-0.0593285,-0.459433,0
2024-12-11 14:38:27.264,1.68066,3.73011,9.35384,-1.0121,-0.0501658,-0.466764,0
2024-12-11 14:38:27.266,1.71655,3.6679,9.50938,-1.04516,-0.041614,-0.476537,0
2024-12-11 14:38:27.269,1.74287,3.61735,9.66252,-1.07448,-0.0324513,-0.487532,0
2024-12-11 14:38:27.272,1.74527,3.55753,9.82553,-1.12823,-0.0190126,-0.510134,0
2024-12-11 14:38:27.275,1.72134,3.48574,10.0074,-1.14534,-0.0104608,-0.519907,0
2024-12-11 14:38:27.279,1.6328,3.38764,10.4288,-1.1716,0.00358873,-0.540065,0
2024-12-11 14:38:27.281,1.58973,3.35414,10.6466,-1.1716,0.00358873,-0.540065,0
2024-12-11 14:38:27.283,1.52991,3.32064,10.8667,-1.17649,0.0121406,-0.546174,0
2024-12-11 14:38:27.284,1.52991,3.32064,10.8667,-1.17649,0.0121406,-0.546174,0
2024-12-11 14:38:27.286,1.44616,3.28714,11.0728,-1.16489,0.0335202,-0.552893,0
2024-12-11 14:38:27.288,1.35015,3.2656,11.2594,-1.16489,0.0335202,-0.552893,0
2024-12-11 14:38:27.292,1.16112,3.23211,11.5828,-1.13557,0.0603975,-0.551671,0
2024-12-11 14:38:27.293,1.16112,3.23211,11.5828,-1.13557,0.0603975,-0.551671,0
2024-12-11 14:38:27.297,0.969691,3.19382,11.8292,-1.09097,0.0952158,-0.537622,0
2024-12-11 14:38:27.297,0.969691,3.19382,11.8292,-1.09097,0.0952158,-0.537622,0
2024-12-11 14:38:27.302,0.768395,3.17228,11.9991,-1.0292,0.149581,-0.513799,0
2024-12-11 14:38:27.302,0.768395,3.17228,11.9991,-1.0292,0.149581,-0.513799,0
2024-12-11 14:38:27.305,0.684646,3.17228,12.047,-0.958954,0.211277,-0.47837,0
2024-12-11 14:38:27.308,0.600898,3.16271,12.0664,-0.958954,0.211277,-0.47837,0
2024-12-11 14:38:27.309,0.495613,3.1675,12.0494,-0.921081,0.246095,-0.458212,0
2024-12-11 14:38:27.311,0.404686,3.18903,11.9967,-0.88443,0.283357,-0.436221,0
2024-12-11 14:38:27.314,0.34008,3.22971,11.9082,-0.84839,0.316953,-0.413009,0
2024-12-11 14:38:27.318,0.244068,3.31346,11.6785,-0.778754,0.385368,-0.36353,0
2024-12-11 14:38:27.321,0.215354,3.35892,11.5445,-0.747601,0.418965,-0.34154,0
2024-12-11 14:38:27.323,0.193819,3.41157,11.4197,-0.715837,0.448896,-0.319549,0
2024-12-11 14:38:27.325,0.172283,3.48096,11.3408,-0.685294,0.477606,-0.298781,0
2024-12-11 14:38:27.325,0.172283,3.48096,11.3408,-0.685294,0.477606,-0.298781,0
2024-12-11 14:38:27.331,0.179462,3.59821,11.2187,-0.620544,0.534415,-0.267627,0
2024-12-11 14:38:27.331,0.179462,3.59821,11.2187,-0.620544,0.534415,-0.267627,0
2024-12-11 14:38:27.332,0.189033,3.68226,11.1374,-0.584504,0.55946,-0.253578,0
2024-12-11 14:38:27.335,0.193819,3.76361,11.0225,-0.549075,0.577785,-0.245026,0
2024-12-11 14:38:27.338,0.18664,3.82822,10.8763,-0.485547,0.599776,-0.229144,0
2024-12-11 14:38:27.340,0.165105,3.88804,10.7064,-0.485547,0.599776,-0.229144,0
2024-12-11 14:38:27.342,0.141177,3.94547,10.5078,-0.458059,0.602219,-0.223646,0
2024-12-11 14:38:27.344,0.145962,3.97179,10.3208,-0.433625,0.599776,-0.221203,0
2024-12-11 14:38:27.347,0.217747,3.94786,10.1438,-0.411635,0.594889,-0.220592,0
2024-12-11 14:38:27.349,0.380758,3.87368,9.96431,-0.392088,0.590002,-0.225479,0
2024-12-11 14:38:27.351,0.438186,3.8665,9.82792,-0.374373,0.579618,-0.23342,0
2024-12-11 14:38:27.355,0.287438,3.95982,9.71755,-0.340166,0.55274,-0.249302,0
2024-12-11 14:38:27.356,0.122034,4.06989,9.61466,-0.340166,0.55274,-0.249302,0
2024-12-11 14:38:27.359,0.040678,4.17039,9.56202,-0.327338,0.527696,-0.249913,0
2024-12-11 14:38:27.363,-0.00717847,4.32383,9.52613,-0.288854,0.466611,-0.257243,0
2024-12-11 14:38:27.363,-0.00717847,4.32383,9.52613,-0.288854,0.466611,-0.257243,0
2024-12-11 14:38:27.368,0.0215354,4.35733,9.47109,-0.246706,0.398807,-0.26946,0
2024-12-11 14:38:27.368,0.0215354,4.35733,9.47109,-0.246706,0.398807,-0.26946,0
2024-12-11 14:38:27.370,0.0502493,4.35254,9.44956,-0.22044,0.363989,-0.281677,0
2024-12-11 14:38:27.373,0.0478565,4.33101,9.42084,-0.192951,0.329781,-0.292672,0
2024-12-11 14:38:27.376,0.0454636,4.3023,9.37538,-0.13431,0.266864,-0.318939,0
2024-12-11 14:38:27.378,0.0550349,4.29272,9.32513,-0.104989,0.236322,-0.334821,0
2024-12-11 14:38:27.381,0.0454636,4.28794,9.28206,-0.0762796,0.20639,-0.346427,0
2024-12-11 14:38:27.382,0.0215354,4.28076,9.2363,-0.0762796,0.20639,-0.346427,0
2024-12-11 14:38:27.384,-0.00957129,4.28315,9.17647,-0.0762796,0.20639,-0.346427,0
2024-12-11 14:38:27.389,-0.119641,4.25922,9.05205,0.00984991,0.115985,-0.381245,0
2024-12-11 14:38:27.390,-0.119641,4.25922,9.05205,0.00984991,0.115985,-0.381245,0
2024-12-11 14:38:27.391,-0.181855,4.24726,8.98983,0.0355055,0.0829989,-0.392851,0
2024-12-11 14:38:27.394,-0.224925,4.22094,8.92044,0.0355055,0.0829989,-0.392851,0
2024-12-11 14:38:27.396,-0.277567,4.20389,8.83909,0.081319,0.0139731,-0.413009,0
2024-12-11 14:38:27.399,-0.342473,4.19432,8.75294,0.101477,-0.0208452,-0.42095,0
2024-12-11 14:38:27.402,-0.380758,4.168,8.67608,0.135074,-0.0868167,-0.43561,0
2024-12-11 14:38:27.403,-0.414257,4.14168,8.60668,0.135074,-0.0868167,-0.43561,0
2024-12-11 14:38:27.406,-0.442971,4.12493,8.54926,0.149734,-0.11797,-0.441719,0
2024-12-11 14:38:27.410,-0.486042,4.08903,8.4344,0.174168,-0.179055,-0.45699,0
2024-12-11 14:38:27.410,-0.486042,4.08903,8.4344,0.174168,-0.179055,-0.45699,0
2024-12-11 14:38:27.412,-0.514756,4.08425,8.36262,0.185163,-0.205321,-0.461877,0
2024-12-11 14:38:27.415,-0.529113,4.06271,8.30519,0.191272,-0.229755,-0.467985,0
2024-12-11 14:38:27.417,-0.567398,4.04836,8.22862,0.195547,-0.252356,-0.47165,0
2024-12-11 14:38:27.421,-0.605683,4.04596,8.15444,0.193104,-0.291451,-0.480202,0
2024-12-11 14:38:27.422,-0.627219,4.04118,8.08953,0.193104,-0.291451,-0.480202,0
2024-12-11 14:38:27.424,-0.660718,4.02682,8.01057,0.188828,-0.308554,-0.482035,0
2024-12-11 14:38:27.427,-0.696611,4.01007,7.934,0.179665,-0.324436,-0.485089,0
2024-12-11 14:38:27.430,-0.720539,4.0005,7.86222,0.153399,-0.347648,-0.492419,0
2024-12-11 14:38:27.432,-0.744467,3.99093,7.81197,0.153399,-0.347648,-0.492419,0
2024-12-11 14:38:27.434,-0.76361,3.98375,7.75933,0.133852,-0.354979,-0.49303,0
2024-12-11 14:38:27.437,-0.782752,3.97179,7.71147,0.093536,-0.365974,-0.49303,0
2024-12-11 14:38:27.438,-0.787538,3.96939,7.7019,0.093536,-0.365974,-0.49303,0
2024-12-11 14:38:27.441,-0.76361,3.96222,7.70668,0.0684913,-0.367196,-0.49303,0
2024-12-11 14:38:27.443,-0.739681,3.93829,7.73779,0.0403923,-0.368417,-0.492419,0
2024-12-11 14:38:27.445,-0.73011,3.91197,7.81436,0.0116825,-0.364141,-0.49303,0
2024-12-11 14:38:27.448,-0.71336,3.89761,7.89811,-0.0151948,-0.361087,-0.493641,0
2024-12-11 14:38:27.450,-0.701396,3.88086,7.98664,-0.0151948,-0.361087,-0.493641,0
2024-12-11 14:38:27.453,-0.684646,3.84975,8.07996,-0.066506,-0.345205,-0.49303,0
2024-12-11 14:38:27.456,-0.663111,3.82104,8.17358,-0.117206,-0.328101,-0.494252,0
2024-12-11 14:38:27.457,-0.667897,3.79472,8.28605,-0.117206,-0.328101,-0.494252,0
2024-12-11 14:38:27.461,-0.677468,3.76122,8.39372,-0.167296,-0.317106,-0.492419,0
2024-12-11 14:38:27.462,-0.677468,3.70379,8.51336,-0.167296,-0.317106,-0.492419,0
2024-12-11 14:38:27.465,-0.691825,3.64606,8.65454,-0.188675,-0.310998,-0.489976,0
2024-12-11 14:38:27.467,-0.722932,3.61496,8.78884,-0.208833,-0.3055,-0.486311,0
2024-12-11 14:38:27.471,-0.773181,3.51924,9.11905,-0.244263,-0.296948,-0.476537,0
2024-12-11 14:38:27.471,-0.773181,3.51924,9.11905,-0.244263,-0.296948,-0.476537,0
2024-12-11 14:38:27.475,-0.792323,3.48096,9.29163,-0.263199,-0.283509,-0.463099,0
2024-12-11 14:38:27.477,-0.830609,3.44507,9.45913,-0.271751,-0.275568,-0.452103,0
2024-12-11 14:38:27.478,-0.845265,3.38525,9.64098,-0.271751,-0.275568,-0.452103,0
2024-12-11 14:38:27.482,-0.847657,3.33978,9.84228,-0.272972,-0.267017,-0.440497,0
2024-12-11 14:38:27.485,-0.670289,3.22493,10.1079,-0.272362,-0.259686,-0.42828,0
2024-12-11 14:38:27.485,-0.670289,3.22493,10.1079,-0.272362,-0.259686,-0.42828,0
2024-12-11 14:38:27.489,-0.591326,3.16989,10.2156,-0.250982,-0.245026,-0.404457,0
2024-12-11 14:38:27.490,-0.699003,3.11964,10.4647,-0.250982,-0.245026,-0.404457,0
2024-12-11 14:38:27.493,-0.897907,3.09332,10.7471,-0.233267,-0.234642,-0.391019,0
2024-12-11 14:38:27.495,-1.0678,3.08584,10.9193,-0.213109,-0.21876,-0.375137,0
2024-12-11 14:38:27.497,-1.18265,3.04995,11.0321,-0.213109,-0.21876,-0.375137,0
2024-12-11 14:38:27.500,-1.21854,3.01406,11.1159,-0.161187,-0.186385,-0.330545,0
2024-12-11 14:38:27.503,-1.15872,2.9686,11.1709,-0.130645,-0.169892,-0.307333,0
2024-12-11 14:38:27.504,-1.05583,2.91117,11.214,-0.100103,-0.152788,-0.285342,0
2024-12-11 14:38:27.508,-0.969691,2.8681,11.2666,-0.0371853,-0.123468,-0.246248,0
2024-12-11 14:38:27.510,-0.948156,2.83938,11.3312,-0.0371853,-0.123468,-0.246248,0
2024-12-11 14:38:27.511,-0.972084,2.81785,11.3862,-0.00542127,-0.11064,-0.229755,0
2024-12-11 14:38:27.514,-1.00558,2.79871,11.391,0.0245102,-0.0990336,-0.208375,0
2024-12-11 14:38:27.517,-1.0319,2.79631,11.3288,0.0831516,-0.0758214,-0.169281,0
2024-12-11 14:38:27.518,-1.03669,2.78196,11.2499,0.0831516,-0.0758214,-0.169281,0
2024-12-11 14:38:27.521,-1.02473,2.75085,11.1709,0.107585,-0.0642153,-0.149123,0
2024-12-11 14:38:27.524,-1.01755,2.72453,11.0895,0.149734,-0.0452791,-0.110029,0
2024-12-11 14:38:27.526,-1.01515,2.71017,11.013,0.149734,-0.0452791,-0.110029,0
2024-12-11 14:38:27.528,-0.996012,2.69342,10.9409,0.168059,-0.0355055,-0.0929251,0
2024-12-11 14:38:27.530,-0.979263,2.69342,10.8595,0.185163,-0.0324513,-0.0745997,0
2024-12-11 14:38:27.534,-0.969691,2.7006,10.7877,0.20471,-0.0287862,-0.0391706,0
2024-12-11 14:38:27.536,-0.94337,2.69581,10.7303,0.212651,-0.0300079,-0.0226777,0
2024-12-11 14:38:27.538,-0.921835,2.7006,10.6777,0.212651,-0.0300079,-0.0226777,0
2024-12-11 14:38:27.540,-0.897907,2.72931,10.6298,0.212651,-0.0300079,-0.0226777,0
2024-12-11 14:38:27.542,-0.8668,2.75085,10.5844,0.228533,-0.0318404,0.00542127,0
2024-12-11 14:38:27.544,-0.845265,2.75803,10.5509,0.23342,-0.0348946,0.0188599,0
2024-12-11 14:38:27.548,-0.833001,2.76042,10.5341,0.245026,-0.0361163,0.0414613,0
2024-12-11 14:38:27.549,-0.816252,2.76999,10.5341,0.245026,-0.0361163,0.0414613,0
2024-12-11 14:38:27.552,-0.780359,2.79153,10.5245,0.249302,-0.037338,0.0542891,0
2024-12-11 14:38:27.556,-0.734896,2.82024,10.5652,0.258465,-0.041614,0.0738362,0
2024-12-11 14:38:27.557,-0.734896,2.82024,10.5652,0.263962,-0.0452791,0.0829989,0
2024-12-11 14:38:27.559,-0.715753,2.82981,10.5724,0.263962,-0.0452791,0.0829989,0
2024-12-11 14:38:27.561,-0.718146,2.84417,10.582,0.26946,-0.0465007,0.0939941,0
2024-12-11 14:38:27.564,-0.737288,2.85853,10.5628,0.274958,-0.0489441,0.103768,0
2024-12-11 14:38:27.566,-0.751645,2.88006,10.5461,0.278623,-0.0513875,0.117817,0
2024-12-11 14:38:27.570,-0.725324,2.94706,10.5652,0.284731,-0.0556635,0.140419,0
2024-12-11 14:38:27.571,-0.744467,2.94706,10.5652,0.284731,-0.0556635,0.140419,0
2024-12-11 14:38:27.573,-0.720539,2.95902,10.5748,0.284731,-0.0556635,0.140419,0
2024-12-11 14:38:27.576,-0.73011,2.98295,10.5772,0.296948,-0.0636045,0.171572,0
2024-12-11 14:38:27.577,-0.725324,3.02602,10.5891,0.296948,-0.0636045,0.171572,0
2024-12-11 14:38:27.580,-0.718146,3.05713,10.5915,0.298781,-0.065437,0.181956,0
2024-12-11 14:38:27.582,-0.71336,3.10289,10.6035,0.301224,-0.065437,0.191119,0
2024-12-11 14:38:27.584,-0.708575,3.14118,10.6131,0.304278,-0.0684913,0.199671,0
2024-12-11 14:38:27.588,-0.708575,3.16989,10.6083,0.304889,-0.073378,0.219829,0
2024-12-11 14:38:27.590,-0.682254,3.20818,10.5987,0.304278,-0.0758214,0.229602,0
2024-12-11 14:38:27.591,-0.648754,3.24407,10.5939,0.304278,-0.0758214,0.229602,0
2024-12-11 14:38:27.594,-0.622433,3.28235,10.5891,0.29817,-0.0807082,0.238154,0
2024-12-11 14:38:27.601,-0.536291,3.44985,10.5556,0.293283,-0.085595,0.246706,0
2024-12-11 14:38:27.601,-0.536291,3.44985,10.5556,0.293283,-0.085595,0.246706,0
2024-12-11 14:38:27.603,-0.490828,3.49053,10.5604,0.270682,-0.102088,0.262588,0
2024-12-11 14:38:27.606,-0.438186,3.54078,10.5676,0.270682,-0.102088,0.262588,0
2024-12-11 14:38:27.608,-0.373579,3.59581,10.5844,0.245026,-0.114916,0.267475,0
2024-12-11 14:38:27.608,-0.373579,3.59581,10.5844,0.245026,-0.114916,0.267475,0
2024-12-11 14:38:27.610,-0.289831,3.64367,10.6011,0.230366,-0.121635,0.266864,0
2024-12-11 14:38:27.614,-0.193819,3.68226,10.6011,0.194326,-0.130798,0.259534,0
2024-12-11 14:38:27.615,-0.107677,3.71097,10.6131,0.194326,-0.130798,0.259534,0
2024-12-11 14:38:27.617,-0.0119641,3.73968,10.6394,0.174168,-0.134463,0.254647,0
2024-12-11 14:38:27.620,0.100499,3.76122,10.6872,0.150345,-0.141182,0.245484,0
2024-12-11 14:38:27.623,0.20339,3.78754,10.7495,0.10331,-0.149123,0.219829,0
2024-12-11 14:38:27.624,0.277567,3.81625,10.8021,0.10331,-0.149123,0.219829,0
2024-12-11 14:38:27.627,0.387936,3.82822,10.8284,0.0807082,-0.151566,0.203336,0
2024-12-11 14:38:27.629,0.54347,3.833,10.8236,0.0556635,-0.158897,0.186843,0
2024-12-11 14:38:27.632,0.562612,3.83061,10.9241,0.0263428,-0.163173,0.168517,0
2024-12-11 14:38:27.635,0.459721,3.83061,11.0871,-0.0219141,-0.163173,0.136753,0
2024-12-11 14:38:27.636,0.419043,3.84257,11.1637,-0.0219141,-0.163173,0.136753,0
2024-12-11 14:38:27.641,0.445364,3.81625,11.3001,-0.0726145,-0.155232,0.108044,0
2024-12-11 14:38:27.642,0.445364,3.81625,11.3001,-0.0726145,-0.155232,0.108044,0
2024-12-11 14:38:27.643,0.517149,3.78275,11.3815,-0.0994917,-0.14668,0.0958267,0
2024-12-11 14:38:27.646,0.584148,3.73968,11.4724,-0.123315,-0.137517,0.0817772,0
2024-12-11 14:38:27.648,0.612862,3.68704,11.5756,-0.145916,-0.124078,0.0713928,0
2024-12-11 14:38:27.650,0.608076,3.62931,11.7072,-0.167907,-0.109418,0.0603975,0
2024-12-11 14:38:27.653,0.591326,3.56471,11.8412,-0.186843,-0.0910926,0.0494023,0
2024-12-11 14:38:27.655,0.569791,3.50249,11.9465,-0.201503,-0.0691021,0.0439046,0
2024-12-11 14:38:27.658,0.651147,3.42832,12.0063,-0.214942,-0.0458899,0.0396287,0
2024-12-11 14:38:27.660,0.828216,3.32064,11.9776,-0.230213,-0.0312296,0.0298552,0
2024-12-11 14:38:27.662,0.789931,3.24407,12.0999,-0.247928,-0.0165692,0.0213033,0
2024-12-11 14:38:27.664,0.550648,3.20818,12.3894,-0.258312,0.00786466,0.0188599,0
2024-12-11 14:38:27.669,0.136391,3.10289,12.6434,-0.264421,0.0542891,0.0322986,0
2024-12-11 14:38:27.670,0.136391,3.10289,12.6434,-0.264421,0.0542891,0.0322986,0
2024-12-11 14:38:27.674,0.0,3.03081,12.6888,-0.260755,0.108044,0.0591758,0
2024-12-11 14:38:27.674,-0.0909273,3.03081,12.6888,-0.260755,0.108044,0.0591758,0
2024-12-11 14:38:27.677,-0.141177,3.00449,12.7223,-0.252204,0.173404,0.0982701,0
2024-12-11 14:38:27.680,-0.196211,2.99731,12.7774,-0.243652,0.205779,0.118428,0
2024-12-11 14:38:27.681,-0.253639,3.01645,12.8324,-0.243652,0.205779,0.118428,0
2024-12-11 14:38:27.683,-0.30658,3.0332,12.8731,-0.232046,0.2351,0.139197,0
2024-12-11 14:38:27.686,-0.411865,3.06909,12.9042,-0.219218,0.258923,0.160576,0
2024-12-11 14:38:27.688,-0.596112,3.11246,12.9425,-0.207001,0.280913,0.183178,0
2024-12-11 14:38:27.690,-0.758824,3.15553,12.9544,-0.189286,0.294963,0.210666,0
2024-12-11 14:38:27.693,-0.852443,3.18903,12.9066,-0.174015,0.301071,0.233267,0
2024-12-11 14:38:27.695,-0.902692,3.21057,12.8157,-0.164852,0.298628,0.257701,0
2024-12-11 14:38:27.697,-0.859622,3.22014,12.7056,-0.156911,0.286411,0.279692,0
2024-12-11 14:38:27.700,-0.732503,3.21536,12.588,-0.151414,0.262588,0.29313,0
2024-12-11 14:38:27.702,-0.581755,3.18664,12.5354,-0.153246,0.231435,0.301071,0
2024-12-11 14:38:27.704,-0.409472,3.134,12.533,-0.15569,0.19173,0.30718,0
2024-12-11 14:38:27.707,-0.22014,3.06192,12.533,-0.161187,0.143473,0.306569,0
2024-12-11 14:38:27.709,-0.0334995,2.9662,12.5617,-0.17035,0.0872748,0.297406,0
2024-12-11 14:38:27.712,0.16989,2.84895,12.5737,-0.1844,0.0261901,0.284578,0
2024-12-11 14:38:27.714,0.364008,2.72453,12.5952,-0.199671,-0.0367272,0.266253,0
2024-12-11 14:38:27.716,0.555434,2.58814,12.6506,-0.219218,-0.0990336,0.24243,0
2024-12-11 14:38:27.721,0.828216,2.28873,12.9018,-0.251593,-0.213873,0.183178,0
2024-12-11 14:38:27.722,0.828216,2.28873,12.9018,-0.268086,-0.265795,0.152025,0
2024-12-11 14:38:27.724,0.931406,2.13559,13.098,-0.282135,-0.313441,0.120871,0
2024-12-11 14:38:27.726,1.0008,1.9681,13.3567,-0.282135,-0.313441,0.120871,0
2024-12-11 14:38:27.729,1.00798,1.82423,13.6415,-0.283968,-0.383078,0.0622301,0
2024-12-11 14:38:27.730,0.921835,1.72373,13.9385,-0.283968,-0.383078,0.0622301,0
2024-12-11 14:38:27.734,0.854836,1.57298,14.2328,-0.254036,-0.427669,0.0200816,0
2024-12-11 14:38:27.736,0.912264,1.32861,14.5681,-0.254036,-0.427669,0.0200816,0
2024-12-11 14:38:27.740,1.23051,0.799502,15.1116,-0.186843,-0.44233,-0.0232886,0
2024-12-11 14:38:27.742,1.41745,0.56022,15.2982,-0.186843,-0.44233,-0.0232886,0
2024-12-11 14:38:27.742,1.41745,0.56022,15.2982,-0.186843,-0.44233,-0.0232886,0
2024-12-11 14:38:27.744,1.3334,0.318545,15.6192,-0.090329,-0.43561,-0.0764323,0
2024-12-11 14:38:27.748,1.12044,0.0885344,16.0095,-0.0237467,-0.411177,-0.0941468,0
2024-12-11 14:38:27.749,0.85005,-0.117248,16.2631,0.0581068,-0.375747,-0.10392,0
2024-12-11 14:38:27.752,0.574577,-0.311366,16.3923,0.148512,-0.329934,-0.106975,1
2024-12-11 14:38:27.754,0.330509,-0.50997,16.4498,0.245026,-0.279234,-0.102088,0
2024-12-11 14:38:27.756,0.114855,-0.71336,16.4258,0.345816,-0.222425,-0.0868167,0
2024-12-11 14:38:27.759,-0.0765703,-0.890728,16.3373,0.444773,-0.16867,-0.0678804,0
2024-12-11 14:38:27.762,-0.282652,-1.03908,16.1889,0.642077,-0.0636045,-0.00984991,0
2024-12-11 14:38:27.764,-0.486042,-1.17069,15.9781,0.642077,-0.0636045,-0.00984991,0
2024-12-11 14:38:27.767,-0.682254,-1.27837,15.7244,0.737369,-0.0177909,0.0310769,0
2024-12-11 14:38:27.768,-0.835394,-1.34536,15.3963,0.825942,0.0243575,0.0756687,0
2024-12-11 14:38:27.771,-0.9003,-1.38844,15.0135,0.906574,0.0561216,0.120871,0
2024-12-11 14:38:27.773,-0.955334,-1.41745,14.6614,0.979264,0.0805555,0.167296,0
2024-12-11 14:38:27.775,-1.04626,-1.41266,14.3312,1.04524,0.100713,0.214331,0
2024-12-11 14:38:27.777,-1.14915,-1.36929,13.9863,1.0996,0.113541,0.261977,0
2024-12-11 14:38:27.780,-1.24965,-1.30708,13.5984,1.14786,0.119039,0.309012,0
2024-12-11 14:38:27.783,-1.3334,-1.22094,13.1842,1.18695,0.120871,0.356658,0
2024-12-11 14:38:27.785,-1.37647,-1.13001,12.7774,1.21688,0.119039,0.400639,0
2024-12-11 14:38:27.787,-1.30469,-1.00558,12.4397,1.23826,0.11232,0.43729,0
2024-12-11 14:38:27.789,-1.24247,-0.857229,12.1908,1.25231,0.0976592,0.473941,0
2024-12-11 14:38:27.792,-1.29751,-0.792323,11.8531,1.25842,0.0793338,0.508149,0
2024-12-11 14:38:27.794,-1.25444,-0.777966,11.4437,1.25598,0.0610084,0.541134,0
2024-12-11 14:38:27.796,-1.07976,-0.756431,11.1111,1.24376,0.0475697,0.56679,0
2024-12-11 14:38:27.801,-0.73011,-0.617647,10.6753,1.20467,0.022525,0.604662,0
2024-12-11 14:38:27.801,-0.73011,-0.617647,10.6753,1.20467,0.022525,0.604662,0
2024-12-11 14:38:27.803,-0.574577,-0.502792,10.5341,1.17901,0.00725381,0.615658,0
2024-12-11 14:38:27.806,-0.392722,-0.371187,10.4551,1.14786,-0.0129041,0.619934,0
2024-12-11 14:38:27.809,-0.258425,-0.212961,10.4121,1.08616,-0.0562743,0.613214,0
2024-12-11 14:38:27.810,-0.155533,-0.0502493,10.3543,1.08616,-0.0562743,0.613214,0
2024-12-11 14:38:27.814,-0.026321,0.0717847,10.2969,1.05379,-0.0837624,0.60283,0
2024-12-11 14:38:27.815,0.145962,0.157926,10.2538,1.01775,-0.109418,0.586948,0
2024-12-11 14:38:27.821,0.562612,0.282652,10.1605,0.909628,-0.165005,0.498986,0
2024-12-11 14:38:27.822,0.768395,0.32333,10.1438,0.909628,-0.165005,0.498986,0
2024-12-11 14:38:27.822,0.768395,0.32333,10.1438,0.909628,-0.165005,0.498986,0
2024-12-11 14:38:27.824,0.945763,0.342473,10.1629,0.871755,-0.177222,0.45867,0
2024-12-11 14:38:27.829,1.21137,0.380758,10.2419,0.805173,-0.196769,0.359102,0
2024-12-11 14:38:27.829,1.21137,0.380758,10.2419,0.805173,-0.196769,0.359102,0
2024-12-11 14:38:27.833,1.28554,0.3999,10.2778,0.750808,-0.210208,0.251593,0
2024-12-11 14:38:27.835,1.32622,0.407079,10.3137,0.750808,-0.210208,0.251593,0
2024-12-11 14:38:27.839,1.28315,0.3999,10.3591,0.703162,-0.208375,0.144084,0
2024-12-11 14:38:27.839,1.28315,0.3999,10.3591,0.703162,-0.208375,0.144084,0
2024-12-11 14:38:27.841,1.20419,0.364008,10.3735,0.681782,-0.203488,0.0952158,0
2024-12-11 14:38:27.843,1.09651,0.318545,10.3567,0.663456,-0.194937,0.046348,0
2024-12-11 14:38:27.847,0.967299,0.270389,10.3137,0.648185,-0.183941,0.00358873,0
2024-12-11 14:38:27.850,0.634397,0.138784,10.2012,0.614589,-0.150956,-0.0678804,0
2024-12-11 14:38:27.850,0.634397,0.138784,10.2012,0.614589,-0.150956,-0.0678804,0
2024-12-11 14:38:27.857,0.215354,-0.0789631,9.9667,0.573051,-0.0837624,-0.135684,0
2024-12-11 14:38:27.858,0.215354,-0.0789631,9.9667,0.573051,-0.0837624,-0.135684,0
2024-12-11 14:38:27.858,0.215354,-0.0789631,9.9667,0.573051,-0.0837624,-0.135684,0
2024-12-11 14:38:27.862,-0.0454636,-0.193819,9.81566,0.545563,-0.0287862,-0.163173,0
2024-12-11 14:38:27.863,-0.0454636,-0.193819,9.81566,0.535789,0.00481042,-0.171114,0
2024-12-11 14:38:27.865,-0.189033,-0.22014,9.72473,0.535789,0.00481042,-0.171114,0
2024-12-11 14:38:27.867,-0.337687,-0.256032,9.64098,0.526627,0.0402396,-0.17539,0
2024-12-11 14:38:27.869,-0.481256,-0.292223,9.54288,0.518686,0.0799446,-0.173557,0
2024-12-11 14:38:27.873,-0.62004,-0.32333,9.44238,0.505247,0.16302,-0.159507,0
2024-12-11 14:38:27.874,-0.744467,-0.347258,9.32992,0.505247,0.16302,-0.159507,0
2024-12-11 14:38:27.876,-0.873978,-0.364008,9.19322,0.501582,0.207001,-0.147291,0
2024-12-11 14:38:27.879,-0.991227,-0.368794,9.05205,0.496695,0.253425,-0.135074,0
2024-12-11 14:38:27.882,-1.05105,-0.318545,8.97308,0.492419,0.296795,-0.118581,0
2024-12-11 14:38:27.886,-1.42702,-0.32333,8.61625,0.486922,0.380481,-0.0764323,0
2024-12-11 14:38:27.886,-1.42702,-0.32333,8.61625,0.486922,0.380481,-0.0764323,0
2024-12-11 14:38:27.888,-1.50838,-0.361615,8.33151,0.484478,0.427517,-0.0538309,0
2024-12-11 14:38:27.890,-1.51077,-0.409472,8.10868,0.477148,0.476995,-0.0300079,0
2024-12-11 14:38:27.893,-1.54905,-0.445364,7.93161,0.467375,0.524031,-0.00496313,0
2024-12-11 14:38:27.895,-1.61127,-0.442971,7.74497,0.459433,0.571677,0.0188599,0
2024-12-11 14:38:27.897,-1.68305,-0.407079,7.58465,0.44966,0.612603,0.0457372,0
2024-12-11 14:38:27.900,-1.76919,-0.361615,7.42882,0.441108,0.65353,0.0756687,0
2024-12-11 14:38:27.902,-1.85055,-0.316152,7.25893,0.429502,0.687738,0.108044,0
2024-12-11 14:38:27.905,-1.91994,-0.263211,7.07707,0.417896,0.719502,0.138586,0
2024-12-11 14:38:27.907,-1.97288,-0.189033,6.88535,0.404457,0.749433,0.17035,0
2024-12-11 14:38:27.909,-2.00877,-0.129212,6.70589,0.391629,0.774478,0.202114,0
2024-12-11 14:38:27.913,-2.02074,-0.0765703,6.52882,0.361087,0.819757,0.261977,0
2024-12-11 14:38:27.914,-2.01117,-0.0143569,6.36581,0.361087,0.819757,0.261977,0
2024-12-11 14:38:27.916,-1.99202,0.0454636,6.21745,0.344594,0.840526,0.2858,0
2024-12-11 14:38:27.919,-1.97288,0.117248,6.06431,0.325047,0.861295,0.310845,0
2024-12-11 14:38:27.921,-1.95344,0.191426,5.93988,0.306111,0.879009,0.334057,0
2024-12-11 14:38:27.923,-1.9343,0.258425,5.84148,0.285953,0.89428,0.354826,0
2024-12-11 14:38:27.927,-1.90798,0.318545,5.74337,0.268849,0.906497,0.370708,0
2024-12-11 14:38:27.933,-1.52273,0.318545,5.49452,0.219981,0.939483,0.399418,0
2024-12-11 14:38:27.933,-1.52273,0.318545,5.49452,0.219981,0.939483,0.399418,0
2024-12-11 14:38:27.933,-1.52273,0.318545,5.49452,0.219981,0.939483,0.399418,0
2024-12-11 14:38:27.936,-1.51795,0.387936,5.41556,0.186996,0.943148,0.397585,0
2024-12-11 14:38:27.938,-1.69502,0.541077,5.30279,0.186996,0.943148,0.397585,0
2024-12-11 14:38:27.942,-1.91516,0.76361,5.15444,0.145458,0.921768,0.409802,0
2024-12-11 14:38:27.945,-1.96301,0.854836,5.11855,0.124689,0.904054,0.417743,0
2024-12-11 14:38:27.946,-1.96301,0.854836,5.11855,0.102088,0.880231,0.423852,0
2024-12-11 14:38:27.948,-2.00638,0.936192,5.07787,0.0807082,0.85763,0.431793,0
2024-12-11 14:38:27.950,-2.03988,1.0008,5.04198,0.0599394,0.830141,0.440955,0
2024-12-11 14:38:27.953,-2.01835,1.01515,5.02523,0.0422248,0.802653,0.445231,0
2024-12-11 14:38:27.955,-1.98485,1.00798,5.01566,0.0220669,0.773256,0.451951,0
2024-12-11 14:38:27.957,-1.97528,1.00798,5.00848,0.0220669,0.773256,0.451951,0
2024-12-11 14:38:27.959,-1.98963,1.02233,4.99412,0.00251974,0.743325,0.455005,0
2024-12-11 14:38:27.961,-2.01117,1.05105,4.9678,-0.0188599,0.709117,0.459892,0
2024-12-11 14:38:27.963,-2.01595,1.06301,4.98216,-0.038407,0.67491,0.465389,0
2024-12-11 14:38:27.966,-2.00877,1.05344,5.0348,-0.0591758,0.639481,0.470276,0
2024-12-11 14:38:27.968,-1.98963,1.05105,5.07548,-0.0768904,0.602219,0.475163,0
2024-12-11 14:38:27.971,-1.96301,1.05823,5.1353,-0.0909399,0.563736,0.481271,0
2024-12-11 14:38:27.974,-1.91994,1.07019,5.21426,-0.122704,0.478828,0.489212,0
2024-12-11 14:38:27.975,-1.87448,1.09651,5.28126,-0.122704,0.478828,0.489212,0
2024-12-11 14:38:27.978,-1.82423,1.11565,5.35813,-0.139197,0.432404,0.493488,0
2024-12-11 14:38:27.981,-1.74287,1.13001,5.42752,-0.166685,0.340776,0.494099,0
2024-12-11 14:38:27.983,-1.6352,1.15394,5.49691,-0.17768,0.295574,0.492877,0
2024-12-11 14:38:27.986,-1.52513,1.18744,5.59741,-0.192341,0.250982,0.488601,0
2024-12-11 14:38:27.988,-1.41745,1.20897,5.72423,-0.192341,0.250982,0.488601,0
2024-12-11 14:38:27.989,-1.31665,1.22812,5.86301,-0.202114,0.208223,0.481882,0
2024-12-11 14:38:27.992,-1.2329,1.26162,5.99492,-0.21372,0.164242,0.474552,0
2024-12-11 14:38:27.994,-1.16351,1.27837,6.14806,-0.217996,0.124536,0.461724,0
2024-12-11 14:38:27.996,-1.10848,1.28076,6.3012,-0.221661,0.0848314,0.453172,0
2024-12-11 14:38:27.999,-1.06062,1.29751,6.44955,-0.22105,0.0439046,0.442788,0
2024-12-11 14:38:28.002,-1.01755,1.31904,6.60299,-0.217996,0.00297788,0.430571,0
2024-12-11 14:38:28.003,-0.984048,1.3334,6.74178,-0.214331,-0.0342838,0.420797,0
2024-12-11 14:38:28.006,-0.94337,1.33819,6.88774,-0.203336,-0.0721563,0.411024,0
2024-12-11 14:38:28.008,-0.902692,1.35494,7.01217,-0.196616,-0.105142,0.399418,0
2024-12-11 14:38:28.011,-0.862014,1.37408,7.11057,-0.183789,-0.138739,0.389644,0
2024-12-11 14:38:28.014,-0.828216,1.37647,7.2015,-0.171572,-0.163783,0.378038,0
2024-12-11 14:38:28.015,-0.809073,1.38844,7.28764,-0.157522,-0.19005,0.369486,0
2024-12-11 14:38:28.019,-0.787538,1.40788,7.37378,-0.128812,-0.230977,0.352993,0
2024-12-11 14:38:28.020,-0.785145,1.43181,7.45514,-0.128812,-0.230977,0.352993,0
2024-12-11 14:38:28.022,-0.797109,1.4653,7.51496,-0.115985,-0.246248,0.344442,0
2024-12-11 14:38:28.025,-0.789931,1.49402,7.56521,-0.0988809,-0.259686,0.337111,0
2024-12-11 14:38:28.027,-0.785145,1.52034,7.60618,-0.0854423,-0.271903,0.329781,0
2024-12-11 14:38:28.030,-0.799502,1.54666,7.65165,-0.0701711,-0.280455,0.325505,0
2024-12-11 14:38:28.033,-0.833001,1.57537,7.68993,-0.0603975,-0.287175,0.320008,0
2024-12-11 14:38:28.035,-0.862014,1.58495,7.70908,-0.0390179,-0.294505,0.313288,0
2024-12-11 14:38:28.037,-0.878764,1.5993,7.74018,-0.0390179,-0.294505,0.313288,0
2024-12-11 14:38:28.039,-0.933799,1.64237,7.77368,-0.030466,-0.293894,0.310845,0
2024-12-11 14:38:28.042,-0.97687,1.69023,7.78804,-0.0121406,-0.285342,0.312677,0
2024-12-11 14:38:28.044,-0.979263,1.73091,7.79761,-0.0121406,-0.285342,0.312677,0
2024-12-11 14:38:28.046,-0.967299,1.7668,7.81915,-0.00847551,-0.276179,0.313899,0
2024-12-11 14:38:28.051,-0.950549,1.80509,7.84068,0.0019089,-0.257243,0.32184,0
2024-12-11 14:38:28.051,-0.940978,1.83619,7.84068,0.0019089,-0.257243,0.32184,0
2024-12-11 14:38:28.054,-0.929013,1.8673,7.82154,0.00251974,-0.230977,0.324894,0
2024-12-11 14:38:28.056,-0.905085,1.89601,7.79761,0.00251974,-0.230977,0.324894,0
2024-12-11 14:38:28.058,-0.869193,1.91516,7.78086,0.00251974,-0.230977,0.324894,0
2024-12-11 14:38:28.060,-0.852443,1.96301,7.77129,-0.00419957,-0.205321,0.329781,0
2024-12-11 14:38:28.062,-0.830609,2.01595,7.77847,-0.00419957,-0.205321,0.329781,0
2024-12-11 14:38:28.065,-0.794716,2.04706,7.79283,-0.0188599,-0.179665,0.332225,0
2024-12-11 14:38:28.067,-0.766002,2.09013,7.80718,-0.0298552,-0.163173,0.332835,0
2024-12-11 14:38:28.069,-0.74686,2.15474,7.8335,-0.0414613,-0.151566,0.331614,0
2024-12-11 14:38:28.072,-0.720539,2.20977,7.86461,-0.0487914,-0.13935,0.328559,0
2024-12-11 14:38:28.075,-0.682254,2.2672,7.89811,-0.066506,-0.109418,0.324284,0
2024-12-11 14:38:28.077,-0.663111,2.33898,7.95314,-0.066506,-0.109418,0.324284,0
2024-12-11 14:38:28.079,-0.627219,2.3988,8.01536,-0.0750579,-0.0923143,0.317564,0
2024-12-11 14:38:28.083,-0.629611,2.50887,8.14248,-0.0872748,-0.0623828,0.308401,0
2024-12-11 14:38:28.083,-0.629611,2.50887,8.14248,-0.0872748,-0.0623828,0.308401,0
2024-12-11 14:38:28.086,-0.629611,2.56899,8.20708,-0.090329,-0.0465007,0.297406,0
2024-12-11 14:38:28.089,-0.622433,2.63599,8.2693,-0.0976592,-0.0153475,0.284578,0
2024-12-11 14:38:28.091,-0.624826,2.70299,8.32912,-0.0976592,-0.0153475,0.284578,0
2024-12-11 14:38:28.093,-0.634397,2.76281,8.37697,-0.0976592,-0.000687203,0.274805,0
2024-12-11 14:38:28.095,-0.629611,2.81785,8.4344,-0.0988809,0.00908635,0.266864,0
2024-12-11 14:38:28.100,-0.663111,2.95185,8.51576,-0.0964375,0.0310769,0.251593,0
2024-12-11 14:38:28.101,-0.663111,2.95185,8.51576,-0.0976592,0.0408504,0.243652,0
2024-12-11 14:38:28.102,-0.663111,3.02363,8.57318,-0.0976592,0.0408504,0.243652,0
2024-12-11 14:38:28.106,-0.665504,3.09811,8.61147,-0.0958267,0.0524565,0.236322,0
2024-12-11 14:38:28.107,-0.670289,3.14836,8.62822,-0.0976592,0.0622301,0.228381,0
2024-12-11 14:38:28.113,-0.675075,3.19382,8.67608,-0.101935,0.0872748,0.207001,0
2024-12-11 14:38:28.113,-0.684646,3.23689,8.67608,-0.101935,0.0872748,0.207001,0
2024-12-11 14:38:28.114,-0.708575,3.27518,8.70987,-0.101935,0.0872748,0.207001,0
2024-12-11 14:38:28.116,-0.732503,3.30628,8.74337,-0.104989,0.0909399,0.201503,0
2024-12-11 14:38:28.120,-0.780359,3.34218,8.80319,-0.114152,0.0933833,0.188675,0
2024-12-11 14:38:28.122,-0.82343,3.39242,8.87737,-0.114152,0.0933833,0.188675,0
2024-12-11 14:38:28.125,-0.857229,3.4355,8.94198,-0.118428,0.094605,0.178291,0
2024-12-11 14:38:28.126,-0.895514,3.46182,9.01855,-0.118428,0.094605,0.178291,0
2024-12-11 14:38:28.128,-0.917049,3.48574,9.09273,-0.117206,0.0933833,0.170961,0
2024-12-11 14:38:28.132,-0.945763,3.50967,9.17887,-0.118428,0.0927724,0.159966,0
2024-12-11 14:38:28.134,-0.804287,3.4331,9.27009,-0.117817,0.094605,0.146527,0
2024-12-11 14:38:28.136,-0.677468,3.37567,9.38734,-0.116595,0.094605,0.134921,0
2024-12-11 14:38:28.140,-1.05583,3.60299,9.54288,-0.111709,0.0964375,0.132477,0
2024-12-11 14:38:28.141,-1.05583,3.60299,9.54288,-0.110487,0.090329,0.134921,0
2024-12-11 14:38:28.143,-1.18026,3.70858,9.60987,-0.110487,0.090329,0.134921,0
2024-12-11 14:38:28.145,-1.24487,3.7995,9.69841,-0.106822,0.0829989,0.138586,0
2024-12-11 14:38:28.147,-1.2999,3.85693,9.76302,-0.102546,0.0701711,0.146527,0
2024-12-11 14:38:28.149,-1.28554,3.87368,9.82553,-0.0994917,0.0561216,0.153857,0
2024-12-11 14:38:28.152,-1.17787,3.84736,9.90928,-0.0939941,0.038407,0.158133,0
2024-12-11 14:38:28.155,-1.0319,3.78275,10.0026,-0.086664,-0.00435229,0.158133,0
2024-12-11 14:38:28.157,-0.895514,3.72054,10.084,-0.086664,-0.00435229,0.158133,0
2024-12-11 14:38:28.159,-0.809073,3.66551,10.1533,-0.0805555,-0.0275645,0.151414,0
2024-12-11 14:38:28.161,-0.758824,3.64876,10.2371,-0.0756687,-0.0526092,0.143473,0
2024-12-11 14:38:28.165,-0.732503,3.66311,10.3472,-0.0640626,-0.101477,0.128202,0
2024-12-11 14:38:28.166,-0.720539,3.66551,10.4791,-0.0640626,-0.101477,0.128202,0
2024-12-11 14:38:28.168,-0.715753,3.67268,10.6585,-0.0542891,-0.131409,0.118428,0
2024-12-11 14:38:28.172,-0.710967,3.68704,10.8571,-0.0420721,-0.159507,0.109265,0
2024-12-11 14:38:28.173,-0.694218,3.70379,11.0608,-0.0274118,-0.188217,0.101935,0
2024-12-11 14:38:28.175,-0.675075,3.71815,11.269,-0.00908635,-0.215095,0.0921616,0
2024-12-11 14:38:28.178,-0.651147,3.71097,11.458,0.0129041,-0.243194,0.0848314,0
2024-12-11 14:38:28.180,-0.624826,3.70858,11.6258,0.0385597,-0.265795,0.0768904,0
2024-12-11 14:38:28.183,-0.605683,3.71336,11.7694,0.0642153,-0.281677,0.0683385,0
2024-12-11 14:38:28.185,-0.598505,3.71815,11.8771,0.0941468,-0.294505,0.0591758,0
2024-12-11 14:38:28.187,-0.591326,3.71575,11.9441,0.123468,-0.302446,0.0536782,0
2024-12-11 14:38:28.192,-0.610469,3.699,11.9895,0.176611,-0.309165,0.0439046,0
2024-12-11 14:38:28.192,-0.610469,3.699,11.9895,0.176611,-0.309165,0.0439046,0
2024-12-11 14:38:28.194,-0.622433,3.69183,11.9752,0.199213,-0.309165,0.0402396,0
2024-12-11 14:38:28.197,-0.646361,3.68226,11.9441,0.219371,-0.307333,0.0396287,0
2024-12-11 14:38:28.200,-0.689432,3.67747,11.9225,0.247469,-0.309165,0.0341311,0
2024-12-11 14:38:28.201,-0.734896,3.67029,11.889,0.247469,-0.309165,0.0341311,0
2024-12-11 14:38:28.204,-0.789931,3.67508,11.8508,0.257243,-0.309165,0.0359636,0
2024-12-11 14:38:28.206,-0.837787,3.68704,11.834,0.265795,-0.309776,0.0377962,0
2024-12-11 14:38:28.209,-0.8668,3.69183,11.8173,0.26946,-0.31283,0.042683,0
2024-12-11 14:38:28.212,-0.9003,3.69183,11.7933,0.26946,-0.31283,0.042683,0
2024-12-11 14:38:28.213,-0.929013,3.67747,11.7742,0.265184,-0.314052,0.0475697,0
2024-12-11 14:38:28.215,-0.94337,3.65593,11.7622,0.259686,-0.316495,0.0500131,0
2024-12-11 14:38:28.220,-0.921835,3.58624,11.7814,0.241972,-0.326269,0.0640626,0
2024-12-11 14:38:28.221,-0.921835,3.58624,11.7814,0.241972,-0.326269,0.0640626,0
2024-12-11 14:38:28.223,-0.885943,3.53121,11.8196,0.229755,-0.331766,0.0707819,0
2024-12-11 14:38:28.226,-0.830609,3.47857,11.913,0.212651,-0.34154,0.0768904,0
2024-12-11 14:38:28.227,-0.768395,3.41396,12.0087,0.200434,-0.353146,0.0817772,0
2024-12-11 14:38:28.230,-0.694218,3.35653,12.131,0.188217,-0.364752,0.0891073,0
2024-12-11 14:38:28.232,-0.63679,3.28235,12.2961,0.179055,-0.380634,0.0933833,0
2024-12-11 14:38:28.234,-0.565005,3.19861,12.4995,0.170503,-0.39896,0.0970484,0
2024-12-11 14:38:28.238,-0.483649,3.10768,12.7391,0.165005,-0.418507,0.103768,0
2024-12-11 14:38:28.239,-0.426222,2.99731,12.9903,0.16867,-0.438665,0.108654,0
2024-12-11 14:38:28.241,-0.397508,2.90638,13.2754,0.176611,-0.460655,0.11232,0
2024-12-11 14:38:28.244,-0.368794,2.82263,13.5912,0.188828,-0.486311,0.120871,0
2024-12-11 14:38:28.247,-0.328116,2.71256,13.9146,0.237696,-0.537622,0.136143,0
2024-12-11 14:38:28.248,-0.282652,2.60967,14.228,0.237696,-0.537622,0.136143,0
2024-12-11 14:38:28.251,-0.22014,2.52592,14.537,0.272514,-0.56511,0.145916,0
2024-12-11 14:38:28.253,-0.133998,2.42752,14.8313,0.317717,-0.592598,0.155079,0
2024-12-11 14:38:28.256,-0.0526421,2.34138,15.1092,0.364752,-0.619475,0.164852,0
2024-12-11 14:38:28.258,0.00717847,2.29113,15.3796,0.422172,-0.641466,0.174015,0
2024-12-11 14:38:28.260,0.0526421,2.25045,15.612,0.483257,-0.663456,0.185621,0
2024-12-11 14:38:28.262,0.0789631,2.22413,15.8106,0.549228,-0.679339,0.194784,0
2024-12-11 14:38:28.265,0.081356,2.23849,15.9589,0.619475,-0.690334,0.204557,0
2024-12-11 14:38:28.267,0.0478565,2.2672,16.0502,0.692777,-0.697664,0.215553,0
2024-12-11 14:38:28.269,-0.0119641,2.33659,16.1004,0.765468,-0.700107,0.231435,1
2024-12-11 14:38:28.272,-0.0693919,2.4347,16.0765,0.840602,-0.697664,0.244873,0
2024-12-11 14:38:28.274,-0.12682,2.53071,15.9733,0.912682,-0.69461,0.260755,0
2024-12-11 14:38:28.278,-0.179462,2.65274,15.8201,1.04157,-0.68728,0.292519,0
2024-12-11 14:38:28.281,-0.272782,2.88006,15.3293,1.09166,-0.686669,0.310845,0
2024-12-11 14:38:28.282,-0.272782,2.88006,15.3293,1.09166,-0.686669,0.310845,0
2024-12-11 14:38:28.284,-0.27996,2.98774,14.98,1.13381,-0.686669,0.326116,0
2024-12-11 14:38:28.286,-0.275175,3.11007,14.6136,1.16252,-0.689112,0.339555,0
2024-12-11 14:38:28.288,-0.208176,3.18664,14.2328,1.17718,-0.696442,0.352383,0
2024-12-11 14:38:28.291,-0.066999,3.25125,13.8476,1.18207,-0.704994,0.362767,0
2024-12-11 14:38:28.293,0.136391,3.3015,13.4692,1.16924,-0.720265,0.367654,0
2024-12-11 14:38:28.295,0.383151,3.31346,13.1052,1.14358,-0.738591,0.366432,0
2024-12-11 14:38:28.300,0.952942,3.24646,12.4564,1.05806,-0.785015,0.346274,0
2024-12-11 14:38:28.300,0.952942,3.24646,12.4564,1.05806,-0.785015,0.346274,0
2024-12-11 14:38:28.302,1.28076,3.19382,12.1932,0.998201,-0.814947,0.327338,0
2024-12-11 14:38:28.305,1.59691,3.09332,11.9824,0.928564,-0.8461,0.29985,0
2024-12-11 14:38:28.307,1.87687,2.97577,11.8412,0.850987,-0.879086,0.266864,0
2024-12-11 14:38:28.310,2.14277,2.88485,11.7742,0.770966,-0.91085,0.231435,0
2024-12-11 14:38:28.312,2.37966,2.79871,11.8029,0.691555,-0.935894,0.193562,0
2024-12-11 14:38:28.314,2.56182,2.7341,11.9369,0.610924,-0.952998,0.149581,0
2024-12-11 14:38:28.317,2.72931,2.6671,12.1143,0.535789,-0.960939,0.108044,0
2024-12-11 14:38:28.319,2.85853,2.55224,12.332,0.470429,-0.952387,0.0634518,0
2024-12-11 14:38:28.321,2.93988,2.45384,12.6,0.415452,-0.924899,0.0213033,0
2024-12-11 14:38:28.325,2.98295,2.37727,12.8827,0.347648,-0.81006,-0.0544418,0
2024-12-11 14:38:28.326,2.9327,2.30309,13.1459,0.347648,-0.81006,-0.0544418,0
2024-12-11 14:38:28.328,2.82263,2.2337,13.3448,0.329323,-0.725763,-0.0843733,0
2024-12-11 14:38:28.331,2.69342,2.1667,13.4572,0.323215,-0.624973,-0.107585,0
2024-12-11 14:38:28.333,2.53071,2.08295,13.4979,0.323215,-0.511356,-0.123468,0
2024-12-11 14:38:28.335,2.34377,1.97767,13.4453,0.329323,-0.391019,-0.133852,0
2024-12-11 14:38:28.338,2.15234,1.85055,13.3017,0.336042,-0.266406,-0.134463,0
2024-12-11 14:38:28.340,1.94148,1.69023,13.0597,0.342762,-0.137517,-0.130798,0
2024-12-11 14:38:28.342,1.73091,1.51555,12.7463,0.345816,-0.0116825,-0.121635,0
2024-12-11 14:38:28.345,1.53709,1.33101,12.4253,0.345816,0.111709,-0.107585,0
2024-12-11 14:38:28.347,1.32383,1.17787,12.0879,0.339097,0.228381,-0.0880384,0
2024-12-11 14:38:28.352,0.8668,0.945763,11.4197,0.313441,0.442788,-0.0385597,0
2024-12-11 14:38:28.352,0.8668,0.945763,11.4197,0.313441,0.442788,-0.0385597,0
2024-12-11 14:38:28.354,0.655932,0.8668,11.0919,0.295726,0.53808,-0.00679568,0
2024-12-11 14:38:28.358,0.4669,0.809073,10.7782,0.245026,0.706674,0.066506,0
2024-12-11 14:38:28.359,0.277567,0.761217,10.4791,0.245026,0.706674,0.066506,0
2024-12-11 14:38:28.361,0.117248,0.718146,10.1964,0.214484,0.778754,0.106822,0
2024-12-11 14:38:28.365,-0.0287139,0.670289,9.92363,0.147901,0.901,0.195395,0
2024-12-11 14:38:28.366,-0.157926,0.62004,9.68405,0.147901,0.901,0.195395,0
2024-12-11 14:38:28.368,-0.251246,0.576969,9.49502,0.11064,0.949257,0.241208,0
2024-12-11 14:38:28.371,-0.297009,0.507577,9.35624,0.0739889,0.98774,0.290076,0
2024-12-11 14:38:28.374,-0.318545,0.445364,9.25305,0.0397814,1.02134,0.334057,0
2024-12-11 14:38:28.375,-0.330509,0.411865,9.17647,0.00801737,1.04699,0.376206,0
2024-12-11 14:38:28.380,-0.373579,0.378365,9.10708,-0.0548999,1.06104,0.455005,0
2024-12-11 14:38:28.380,-0.373579,0.378365,9.10708,-0.0548999,1.06104,0.455005,0
2024-12-11 14:38:28.383,-0.390329,0.395115,9.09751,-0.0817772,1.05188,0.491045,0
2024-12-11 14:38:28.385,-0.371187,0.423829,9.10708,-0.106822,1.03294,0.525252,0
2024-12-11 14:38:28.390,-0.325723,0.476471,9.13101,-0.144694,0.975523,0.58878,0
2024-12-11 14:38:28.391,-0.325723,0.476471,9.13101,-0.158133,0.937651,0.618712,0
2024-12-11 14:38:28.392,-0.256032,0.502792,9.17887,-0.158133,0.937651,0.618712,0
2024-12-11 14:38:28.394,-0.184247,0.512363,9.2339,-0.166685,0.895502,0.643757,0
2024-12-11 14:38:28.397,-0.11007,0.536291,9.29881,-0.168517,0.85091,0.663915,0
2024-12-11 14:38:28.400,-0.0311067,0.567398,9.38016,-0.161798,0.746379,0.697511,0
2024-12-11 14:38:28.401,0.0717847,0.596112,9.45913,-0.161798,0.746379,0.697511,0
2024-12-11 14:38:28.404,0.174676,0.624826,9.54766,-0.153246,0.688349,0.71095,0
2024-12-11 14:38:28.407,0.277567,0.655932,9.64098,-0.11965,0.560681,0.726832,0
2024-12-11 14:38:28.408,0.385544,0.691825,9.71994,-0.11965,0.560681,0.726832,0
2024-12-11 14:38:28.411,0.474078,0.727717,9.72952,-0.101324,0.48738,0.731719,0
2024-12-11 14:38:28.414,0.579362,0.777966,9.6697,-0.086664,0.406137,0.73546,0
2024-12-11 14:38:28.415,0.706182,0.84018,9.60987,-0.0775012,0.322451,0.736682,0
2024-12-11 14:38:28.418,0.828216,0.88355,9.56202,-0.0652843,0.243041,0.73546,0
2024-12-11 14:38:28.420,0.969691,0.9003,9.52613,-0.0555107,0.169128,0.73294,0
2024-12-11 14:38:28.423,1.11805,0.921835,9.59552,-0.0402396,0.103768,0.726221,0
2024-12-11 14:38:28.425,1.25683,0.986441,9.70559,-0.0194708,0.0494023,0.717058,0
2024-12-11 14:38:28.427,1.37647,1.05105,9.76541,0.00251974,-0.00496313,0.705452,0
2024-12-11 14:38:28.431,1.47727,1.11805,9.82553,0.057496,-0.114305,0.677353,0
2024-12-11 14:38:28.433,1.58734,1.18744,9.86142,0.0837624,-0.173557,0.66025,0
2024-12-11 14:38:28.434,1.69502,1.23529,9.86381,0.0837624,-0.173557,0.66025,0
2024-12-11 14:38:28.437,1.79551,1.28315,9.80848,0.10331,-0.235863,0.639481,0
2024-12-11 14:38:28.440,1.89601,1.31186,9.70798,0.138128,-0.356811,0.5955,0
2024-12-11 14:38:28.442,1.97528,1.33579,9.58834,0.138128,-0.356811,0.5955,0
2024-12-11 14:38:28.444,2.05424,1.35015,9.46631,0.149123,-0.41362,0.570455,0
2024-12-11 14:38:28.447,2.13081,1.36929,9.34666,0.159507,-0.509523,0.514868,0
2024-12-11 14:38:28.448,2.18824,1.39561,9.25065,0.159507,-0.509523,0.514868,0
2024-12-11 14:38:28.451,2.25284,1.41506,9.1693,0.159507,-0.548617,0.487991,0
2024-12-11 14:38:28.453,2.31745,1.43659,9.08794,0.158897,-0.580992,0.456837,0
2024-12-11 14:38:28.457,2.36531,1.44138,9.02812,0.14668,-0.624362,0.397585,0
2024-12-11 14:38:28.460,2.3988,1.45334,8.94676,0.13935,-0.640244,0.371319,0
2024-12-11 14:38:28.461,2.3988,1.45334,8.94676,0.129576,-0.646964,0.344442,0
2024-12-11 14:38:28.463,2.3988,1.45334,8.93001,0.129576,-0.646964,0.344442,0
2024-12-11 14:38:28.465,2.37727,1.43898,8.91566,0.119802,-0.64452,0.319397,0
2024-12-11 14:38:28.467,2.35095,1.42223,8.90609,0.111861,-0.634747,0.29313,0
2024-12-11 14:38:28.470,2.32702,1.41506,8.89891,0.100255,-0.620697,0.271751,0
2024-12-11 14:38:28.472,2.29831,1.41027,8.88694,0.0923143,-0.596874,0.249149,0
2024-12-11 14:38:28.475,2.25763,1.40279,8.85584,0.0849841,-0.564499,0.230213,0
2024-12-11 14:38:28.477,2.17627,1.40788,8.81037,0.077654,-0.525405,0.215553,0
2024-12-11 14:38:28.480,2.08535,1.41745,8.78884,0.0636045,-0.430113,0.189897,0
2024-12-11 14:38:28.481,1.9992,1.40279,8.74098,0.0636045,-0.430113,0.189897,0
2024-12-11 14:38:28.484,1.89601,1.40279,8.68325,0.057496,-0.375747,0.181345,0
2024-12-11 14:38:28.487,1.80269,1.40279,8.61386,0.049555,-0.319549,0.174626,0
2024-12-11 14:38:28.489,1.70459,1.39801,8.52054,0.0446682,-0.257854,0.172183,0
2024-12-11 14:38:28.492,1.6017,1.40279,8.42244,0.0306187,-0.132019,0.174626,0
2024-12-11 14:38:28.493,1.49641,1.40279,8.32433,0.0306187,-0.132019,0.174626,0
2024-12-11 14:38:28.497,1.38604,1.39561,8.22383,0.0184018,-0.0678804,0.17768,0
2024-12-11 14:38:28.498,1.29272,1.39801,8.12543,0.00862822,-0.000687203,0.1844,0
2024-12-11 14:38:28.500,1.22333,1.39801,8.08475,-0.000534491,0.0713928,0.190508,0
2024-12-11 14:38:28.504,1.13719,1.4004,8.07518,-0.00419957,0.217996,0.208833,0
2024-12-11 14:38:28.505,1.03908,1.40548,8.02971,-0.00419957,0.217996,0.208833,0
2024-12-11 14:38:28.508,0.940978,1.42702,7.9675,-0.00725381,0.352383,0.229602,0
2024-12-11 14:38:28.510,0.842872,1.46052,7.90529,-0.00725381,0.352383,0.229602,0
2024-12-11 14:38:28.512,0.74686,1.47966,7.83829,-0.00847551,0.412856,0.241208,0
2024-12-11 14:38:28.514,0.670289,1.48684,7.74736,-0.0096972,0.469054,0.252814,0
2024-12-11 14:38:28.517,0.612862,1.50598,7.57239,-0.0151948,0.517311,0.266864,0
2024-12-11 14:38:28.519,0.545863,1.52752,7.38814,-0.0268009,0.553962,0.277859,0
2024-12-11 14:38:28.521,0.514756,1.55145,7.24696,-0.0414613,0.58817,0.288854,0
2024-12-11 14:38:28.524,0.50997,1.55623,7.13211,-0.0530674,0.621766,0.29985,0
2024-12-11 14:38:28.526,0.517149,1.5682,7.05075,-0.0677277,0.652309,0.309012,0
2024-12-11 14:38:28.529,0.521934,1.61366,6.99542,-0.0781121,0.684073,0.310845,0
2024-12-11 14:38:28.531,0.493221,1.64955,6.96431,-0.0909399,0.715226,0.316953,0
2024-12-11 14:38:28.533,0.316152,1.73809,7.07946,-0.100103,0.74699,0.32184,0
2024-12-11 14:38:28.536,0.217747,1.81944,7.18475,-0.103157,0.781808,0.326727,0
2024-12-11 14:38:28.541,0.524327,1.80987,6.94995,-0.114763,0.811205,0.321229,0
2024-12-11 14:38:28.541,0.524327,1.80987,6.94995,-0.114763,0.811205,0.321229,0
2024-12-11 14:38:28.545,0.56022,1.75484,6.86381,-0.117817,0.808151,0.315732,0
2024-12-11 14:38:28.546,0.56022,1.75484,6.86381,-0.123926,0.798301,0.308401,0
2024-12-11 14:38:28.548,0.454935,1.75244,6.91406,-0.123926,0.798301,0.308401,0
2024-12-11 14:38:28.552,0.325723,1.76441,6.99781,-0.123926,0.786695,0.301682,0
2024-12-11 14:38:28.554,0.313759,1.77637,6.99781,-0.127591,0.746379,0.288244,0
2024-12-11 14:38:28.555,0.313759,1.77637,6.99781,-0.127591,0.746379,0.288244,0
2024-12-11 14:38:28.557,0.30658,1.80269,7.0002,-0.12698,0.723167,0.279081,0
2024-12-11 14:38:28.559,0.270389,1.83141,7.034,-0.12698,0.699955,0.271751,0
2024-12-11 14:38:28.561,0.229711,1.85294,7.10818,-0.123315,0.671245,0.26381,0
2024-12-11 14:38:28.564,0.215354,1.85773,7.19193,-0.120261,0.641924,0.258923,0
2024-12-11 14:38:28.566,0.20339,1.83619,7.25653,-0.109876,0.611993,0.253425,0
2024-12-11 14:38:28.569,0.191426,1.80269,7.31157,-0.100103,0.575953,0.24976,0
2024-12-11 14:38:28.572,0.162712,1.77398,7.38096,-0.0897182,0.542356,0.246095,0
2024-12-11 14:38:28.574,0.133998,1.76201,7.45035,-0.0634518,0.468443,0.244873,0
2024-12-11 14:38:28.576,0.133998,1.74287,7.53171,-0.0634518,0.468443,0.244873,0
2024-12-11 14:38:28.578,0.129212,1.71894,7.63011,-0.0500131,0.426906,0.244263,0
2024-12-11 14:38:28.580,0.12682,1.70937,7.74736,-0.0329094,0.38659,0.248538,0
2024-12-11 14:38:28.583,0.136391,1.69262,7.89093,-0.0109189,0.345663,0.251593,0
2024-12-11 14:38:28.586,0.160319,1.68544,8.04886,0.0104608,0.304736,0.255258,0
2024-12-11 14:38:28.587,0.210568,1.68066,8.20948,0.0391706,0.270529,0.260145,0
2024-12-11 14:38:28.590,0.241675,1.65673,8.35065,0.0703238,0.238765,0.263199,0
2024-12-11 14:38:28.592,0.253639,1.65912,8.47508,0.104531,0.210666,0.269918,0
2024-12-11 14:38:28.594,0.263211,1.67827,8.58036,0.141182,0.186843,0.275416,0
2024-12-11 14:38:28.598,0.260818,1.69023,8.64975,0.177833,0.168517,0.282746,0
2024-12-11 14:38:28.599,0.258425,1.70937,8.68325,0.177833,0.168517,0.282746,0
2024-12-11 14:38:28.601,0.236889,1.7333,8.69283,0.258465,0.143473,0.301071,0
2024-12-11 14:38:28.604,0.227318,1.77637,8.6689,0.298781,0.136753,0.312677,0
2024-12-11 14:38:28.607,0.234497,1.81944,8.61147,0.336042,0.133088,0.323673,0
2024-12-11 14:38:28.617,0.224925,2.01835,8.03211,0.453936,0.154468,0.373762,0
2024-12-11 14:38:28.619,0.224925,2.08535,7.84307,0.453936,0.154468,0.373762,0
2024-12-11 14:38:28.620,0.210568,2.15234,7.66122,0.453936,0.154468,0.373762,0
2024-12-11 14:38:28.621,0.210568,2.15234,7.66122,0.45699,0.169128,0.389644,0
2024-12-11 14:38:28.624,0.208176,2.20499,7.51257,0.449049,0.178291,0.391477,0
2024-12-11 14:38:28.626,0.208176,2.27199,7.37378,0.43561,0.188065,0.395753,0
2024-12-11 14:38:28.627,0.193819,2.35095,7.24457,0.43561,0.188065,0.395753,0
2024-12-11 14:38:28.630,0.177069,2.42991,7.12732,0.424004,0.199671,0.399418,0
2024-12-11 14:38:28.630,0.177069,2.42991,7.12732,0.424004,0.199671,0.399418,0
2024-12-11 14:38:28.634,0.153141,2.58335,6.95952,0.383688,0.217996,0.40125,0
2024-12-11 14:38:28.634,0.153141,2.58335,6.95952,0.383688,0.217996,0.40125,0
2024-12-11 14:38:28.637,0.143569,2.65514,6.89013,0.361087,0.226548,0.402472,0
2024-12-11 14:38:28.642,0.150748,2.77238,6.78963,0.332988,0.233878,0.403694,0
2024-12-11 14:38:28.644,0.16989,2.80828,6.77049,0.272514,0.245484,0.398807,0
2024-12-11 14:38:28.644,0.16989,2.80828,6.77049,0.272514,0.245484,0.398807,0
2024-12-11 14:38:28.645,0.16989,2.80828,6.77049,0.272514,0.245484,0.398807,0
2024-12-11 14:38:28.649,0.212961,2.8681,6.74656,0.202878,0.249149,0.390255,0
2024-12-11 14:38:28.650,0.212961,2.8681,6.74656,0.165616,0.247317,0.383536,0
2024-12-11 14:38:28.651,0.251246,2.88724,6.78006,0.165616,0.247317,0.383536,0
2024-12-11 14:38:28.653,0.287438,2.88245,6.84706,0.127133,0.243041,0.376816,0
2024-12-11 14:38:28.657,0.294616,2.88485,6.97388,0.0599394,0.228381,0.354826,0
2024-12-11 14:38:28.658,0.299402,2.88006,7.15125,0.0599394,0.228381,0.354826,0
2024-12-11 14:38:28.660,0.313759,2.86092,7.36182,0.0300079,0.218607,0.343831,0
2024-12-11 14:38:28.663,0.299402,2.84656,7.59661,0.00557398,0.209444,0.331003,0
2024-12-11 14:38:28.665,0.272782,2.83699,7.84068,-0.0121406,0.202114,0.320618,0
2024-12-11 14:38:28.667,0.239282,2.80828,8.08236,-0.0249684,0.196006,0.313288,0
2024-12-11 14:38:28.670,0.177069,2.79871,8.31237,-0.0322986,0.190508,0.30718,0
2024-12-11 14:38:28.673,0.11007,2.78913,8.52054,-0.0335202,0.181345,0.302904,0
2024-12-11 14:38:28.674,0.0502493,2.76281,8.70987,-0.0335202,0.181345,0.302904,0
2024-12-11 14:38:28.677,0.00239282,2.72931,8.87976,-0.0292443,0.175848,0.304736,0
2024-12-11 14:38:28.679,-0.0334995,2.7006,9.03051,-0.0188599,0.172183,0.305958,0
2024-12-11 14:38:28.682,-0.0885344,2.66949,9.18126,-0.00847551,0.169128,0.311456,0
2024-12-11 14:38:28.685,-0.155533,2.62881,9.30599,0.013515,0.160576,0.32917,0
2024-12-11 14:38:28.687,-0.22014,2.60967,9.38974,0.029397,0.160576,0.340776,0
2024-12-11 14:38:28.690,-0.27996,2.59771,9.47588,0.0458899,0.161187,0.354215,0
2024-12-11 14:38:28.691,-0.34008,2.59292,9.56441,0.0458899,0.161187,0.354215,0
2024-12-11 14:38:28.693,-0.411865,2.60249,9.65055,0.0605502,0.159355,0.367654,0
2024-12-11 14:38:28.696,-0.476471,2.61924,9.7008,0.0770431,0.16302,0.385368,0
2024-12-11 14:38:28.699,-0.536291,2.64556,9.73669,0.0965902,0.17035,0.404915,0
2024-12-11 14:38:28.700,-0.591326,2.67189,9.78455,0.109418,0.176459,0.425073,0
2024-12-11 14:38:28.703,-0.639183,2.71974,9.79173,0.125911,0.187454,0.443399,0
2024-12-11 14:38:28.706,-0.667897,2.76999,9.76541,0.144847,0.211277,0.483104,0
2024-12-11 14:38:28.707,-0.684646,2.80588,9.71755,0.144847,0.211277,0.483104,0
2024-12-11 14:38:28.710,-0.703789,2.82981,9.65055,0.14668,0.222272,0.503262,0
2024-12-11 14:38:28.712,-0.744467,2.86331,9.59791,0.145458,0.2351,0.520976,0
2024-12-11 14:38:28.715,-0.770788,2.88724,9.58834,0.143015,0.249149,0.541745,0
2024-12-11 14:38:28.717,-0.751645,2.89442,9.59791,0.136906,0.264421,0.562514,0
2024-12-11 14:38:28.720,-0.734896,2.90878,9.63141,0.119802,0.288244,0.597332,0
2024-12-11 14:38:28.723,-0.720539,2.92074,9.67448,0.111251,0.296795,0.611382,0
2024-12-11 14:38:28.725,-0.703789,2.92313,9.75105,0.111251,0.296795,0.611382,0
2024-12-11 14:38:28.727,-0.689432,2.92313,9.84946,0.0886492,0.298017,0.643146,0
2024-12-11 14:38:28.730,-0.658325,2.92313,9.93081,0.0788757,0.29313,0.657806,0
2024-12-11 14:38:28.732,-0.612862,2.93988,10.0146,0.0788757,0.29313,0.657806,0
2024-12-11 14:38:28.733,-0.562612,2.9351,10.1198,0.0678804,0.287633,0.671245,0
2024-12-11 14:38:28.737,-0.493221,2.91356,10.2395,0.049555,0.265031,0.683462,0
2024-12-11 14:38:28.738,-0.371187,2.88006,10.3834,0.049555,0.265031,0.683462,0
2024-12-11 14:38:28.740,-0.236889,2.8346,10.57,0.0428357,0.247928,0.687127,0
2024-12-11 14:38:28.743,-0.105284,2.76999,10.7949,0.0397814,0.230213,0.690181,0
2024-12-11 14:38:28.745,0.0454636,2.69821,11.0345,0.0391706,0.208223,0.687738,0
2024-12-11 14:38:28.748,0.193819,2.62642,11.281,0.0452791,0.187454,0.681629,0
2024-12-11 14:38:28.750,0.330509,2.54985,11.5253,0.0544418,0.164852,0.677353,0
2024-12-11 14:38:28.752,0.435793,2.48973,11.7598,0.0684913,0.143473,0.670023,0
2024-12-11 14:38:28.755,0.505185,2.45145,11.9991,0.0868167,0.122093,0.663304,0
2024-12-11 14:38:28.758,0.545863,2.40598,12.2435,0.137517,0.0817772,0.651698,0
2024-12-11 14:38:28.759,0.56022,2.35813,12.4923,0.137517,0.0817772,0.651698,0
2024-12-11 14:38:28.762,0.56022,2.31506,12.7176,0.170503,0.0677277,0.651087,0
2024-12-11 14:38:28.765,0.555434,2.26959,12.9138,0.24808,0.0439046,0.654752,0
2024-12-11 14:38:28.766,0.514756,2.23609,13.0837,0.24808,0.0439046,0.654752,0
2024-12-11 14:38:28.769,0.426222,2.20977,13.1988,0.289007,0.0365745,0.658417,0
2024-12-11 14:38:28.771,0.330509,2.21216,13.2634,0.329934,0.0335202,0.66758,0
2024-12-11 14:38:28.773,0.239282,2.2337,13.3759,0.375747,0.042683,0.676132,0
2024-12-11 14:38:28.777,0.122034,2.27677,13.4716,0.468596,0.0872748,0.704231,0
2024-12-11 14:38:28.778,-0.0119641,2.34856,13.4955,0.468596,0.0872748,0.704231,0
2024-12-11 14:38:28.781,-0.172283,2.45145,13.4764,0.516242,0.114152,0.721334,0
2024-12-11 14:38:28.784,-0.344866,2.58814,13.3759,0.594431,0.157522,0.759283,0
2024-12-11 14:38:28.785,-0.505185,2.7341,13.2227,0.594431,0.157522,0.759283,0
2024-12-11 14:38:28.787,-0.665504,2.85853,13.0406,0.62253,0.168517,0.783106,0
2024-12-11 14:38:28.790,-0.799502,2.95902,12.83,0.643299,0.174015,0.803264,0
2024-12-11 14:38:28.793,-0.897907,3.05474,12.612,0.653072,0.160576,0.84358,0
2024-12-11 14:38:28.796,-0.957727,3.13879,12.387,0.646353,0.14164,0.858851,0
2024-12-11 14:38:28.797,-0.952942,3.201,12.1597,0.646353,0.14164,0.858851,0
2024-12-11 14:38:28.799,-0.888335,3.24407,11.9465,0.625584,0.114152,0.871068,0
2024-12-11 14:38:28.805,-0.574577,3.2656,11.5684,0.51441,-0.0245102,0.880231,0
2024-12-11 14:38:28.805,-0.574577,3.2656,11.5684,0.51441,-0.0245102,0.880231,0
2024-12-11 14:38:28.807,-0.349651,3.19861,11.3958,0.453936,-0.0965902,0.877177,0
2024-12-11 14:38:28.810,-0.0693919,3.10768,11.257,0.453936,-0.0965902,0.877177,0
2024-12-11 14:38:28.813,0.275175,2.8992,11.1972,0.307333,-0.27679,0.845413,0
2024-12-11 14:38:28.813,0.663111,2.8992,11.1972,0.307333,-0.27679,0.845413,0
2024-12-11 14:38:28.817,1.07498,2.77717,11.2953,0.132019,-0.476537,0.7715,0
2024-12-11 14:38:28.818,1.49402,2.65274,11.458,0.132019,-0.476537,0.7715,0
2024-12-11 14:38:28.820,1.88405,2.54267,11.7024,0.0458899,-0.577938,0.722556,0
2024-12-11 14:38:28.823,2.2337,2.44188,12.0446,-0.0377962,-0.673841,0.662082,0
2024-12-11 14:38:28.825,2.51605,2.33659,12.4421,-0.11293,-0.762414,0.598554,0
2024-12-11 14:38:28.828,2.71974,2.20977,12.9018,-0.181345,-0.836326,0.531972,0
2024-12-11 14:38:28.830,2.89203,2.08056,13.4189,-0.236932,-0.898022,0.464778,0
2024-12-11 14:38:28.832,3.02124,1.94387,13.9409,-0.277248,-0.942614,0.394531,0
2024-12-11 14:38:28.835,3.11246,1.79791,14.4939,-0.305958,-0.971934,0.327338,0
2024-12-11 14:38:28.837,3.19143,1.65194,15.0565,-0.317564,-0.982319,0.265031,0
2024-12-11 14:38:28.839,3.23689,1.48684,15.5593,-0.318175,-0.973156,0.205168,0
2024-12-11 14:38:28.843,3.22971,1.29512,15.9685,-0.281524,-0.904741,0.0994917,0
2024-12-11 14:38:28.846,2.76521,1.07258,16.5024,-0.247317,-0.8461,0.0622301,0
2024-12-11 14:38:28.847,2.76521,1.07258,16.5024,-0.247317,-0.8461,0.0622301,0
2024-12-11 14:38:28.849,2.59053,0.864407,16.7181,-0.247317,-0.8461,0.0622301,0
2024-12-11 14:38:28.851,2.57857,0.591326,16.9478,-0.157522,-0.704994,0.00664296,0
2024-12-11 14:38:28.853,2.4993,0.330509,17.0985,-0.0994917,-0.618865,-0.0153475,0
2024-12-11 14:38:28.856,2.33898,0.0885344,17.1033,-0.0341311,-0.52174,-0.033673,1
2024-12-11 14:38:28.858,2.15234,-0.11007,17.0148,0.0330621,-0.417896,-0.0452791,0
2024-12-11 14:38:28.860,1.89601,-0.244068,16.8305,0.100255,-0.307333,-0.0477224,0
2024-12-11 14:38:28.864,1.5347,-0.282652,16.5263,0.224868,-0.0837624,-0.0245102,0
2024-12-11 14:38:28.866,1.11565,-0.253639,16.1578,0.224868,-0.0837624,-0.0245102,0
2024-12-11 14:38:28.871,0.385544,-0.167498,15.3317,0.324436,0.126369,0.0451263,0
2024-12-11 14:38:28.872,0.107677,-0.148355,14.9225,0.362309,0.22105,0.090329,0
2024-12-11 14:38:28.872,0.107677,-0.148355,14.9225,0.362309,0.22105,0.090329,0
2024-12-11 14:38:28.875,-0.0933201,-0.148355,14.5202,0.389797,0.310845,0.138586,0
2024-12-11 14:38:28.877,-0.22014,-0.138784,14.0916,0.416063,0.390866,0.189897,0
2024-12-11 14:38:28.879,-0.316152,-0.131605,13.6295,0.430724,0.465389,0.240597,0
2024-12-11 14:38:28.883,-0.402293,-0.0885344,13.1602,0.442941,0.599776,0.339555,0
2024-12-11 14:38:28.884,-0.483649,-0.026321,12.696,0.442941,0.599776,0.339555,0
2024-12-11 14:38:28.886,-0.538684,0.0454636,12.2459,0.437443,0.655974,0.388422,0
2024-12-11 14:38:28.889,-0.56022,0.133998,11.8173,0.422783,0.705452,0.435458,0
2024-12-11 14:38:28.891,-0.569791,0.241675,11.415,0.403846,0.750655,0.481271,0
2024-12-11 14:38:28.893,-0.533899,0.35683,11.0728,0.380634,0.789749,0.520976,0
2024-12-11 14:38:28.897,-0.4334,0.488435,10.7853,0.353146,0.823422,0.557016,0
2024-12-11 14:38:28.900,-0.18664,0.737288,10.2802,0.290229,0.87229,0.611382,0
2024-12-11 14:38:28.900,-0.18664,0.737288,10.2802,0.290229,0.87229,0.611382,0
2024-12-11 14:38:28.903,-0.0622134,0.864407,10.0911,0.255411,0.891837,0.628486,0
2024-12-11 14:38:28.905,0.0574277,1.00798,9.92363,0.221203,0.907719,0.640092,0
2024-12-11 14:38:28.908,0.20339,1.14437,9.78455,0.191882,0.919325,0.644368,0
2024-12-11 14:38:28.910,0.34008,1.27119,9.6697,0.158897,0.925434,0.641924,0
2024-12-11 14:38:28.913,0.459721,1.38126,9.58595,0.0984228,0.93032,0.616879,0
2024-12-11 14:38:28.915,0.56022,1.47966,9.49023,0.0984228,0.93032,0.616879,0
2024-12-11 14:38:28.918,0.632004,1.57298,9.40409,0.0697129,0.92971,0.597332,0
2024-12-11 14:38:28.919,0.699003,1.66152,9.32274,0.0458899,0.921158,0.572898,0
2024-12-11 14:38:28.923,0.74686,1.74048,9.23151,0.00129805,0.891837,0.517311,0
2024-12-11 14:38:28.924,0.768395,1.78355,9.16451,0.00129805,0.891837,0.517311,0
2024-12-11 14:38:28.926,0.773181,1.81705,9.10708,-0.0182491,0.869847,0.483715,0
2024-12-11 14:38:28.929,0.768395,1.83619,9.04965,-0.0396287,0.840526,0.450118,0
2024-12-11 14:38:28.932,0.768395,1.83141,9.00898,-0.058565,0.804486,0.4153,0
2024-12-11 14:38:28.933,0.758824,1.82662,8.98744,-0.0750579,0.762261,0.381703,0
2024-12-11 14:38:28.936,0.725324,1.80748,8.96351,-0.0897182,0.716447,0.348107,0
2024-12-11 14:38:28.938,0.687039,1.77398,8.9348,-0.102546,0.666358,0.31451,0
2024-12-11 14:38:28.942,0.648754,1.74048,8.93959,-0.11965,0.55213,0.247928,0
2024-12-11 14:38:28.944,0.584148,1.70219,8.97069,-0.125147,0.495321,0.218607,0
2024-12-11 14:38:28.946,0.50997,1.67827,9.01616,-0.125147,0.495321,0.218607,0
2024-12-11 14:38:28.948,0.419043,1.64477,9.05683,-0.127591,0.433014,0.192341,0
2024-12-11 14:38:28.951,0.320937,1.62084,9.07837,-0.123926,0.37193,0.169128,0
2024-12-11 14:38:28.952,0.239282,1.61366,9.12383,-0.122093,0.311456,0.146527,0
2024-12-11 14:38:28.955,0.179462,1.58255,9.1669,-0.115374,0.24976,0.12698,0
2024-12-11 14:38:28.958,0.119641,1.55862,9.19083,-0.0976592,0.131867,0.094605,0
2024-12-11 14:38:28.960,0.0622134,1.54188,9.21237,-0.0976592,0.131867,0.094605,0
2024-12-11 14:38:28.963,0.0191426,1.5323,9.22672,-0.0756687,0.0158057,0.0707819,0
2024-12-11 14:38:28.965,-0.0143569,1.51077,9.24347,-0.0634518,-0.0410031,0.0603975,0
2024-12-11 14:38:28.967,-0.0478565,1.4677,9.26292,-0.0634518,-0.0410031,0.0603975,0
2024-12-11 14:38:28.969,-0.0550349,1.4342,9.28924,-0.0530674,-0.0959794,0.0481806,0
2024-12-11 14:38:28.971,-0.0478565,1.40788,9.32034,-0.0414613,-0.150956,0.0414613,0
2024-12-11 14:38:28.973,-0.0502493,1.39322,9.34666,-0.030466,-0.205932,0.0335202,0
2024-12-11 14:38:28.977,-0.0430708,1.38365,9.34188,-0.0115297,-0.312219,0.0194708,0
2024-12-11 14:38:28.979,-0.0358923,1.37647,9.32992,-0.00481042,-0.359865,0.0133623,0
2024-12-11 14:38:28.982,0.00478565,1.37408,9.33231,-0.00236703,-0.400181,0.00786466,0
2024-12-11 14:38:28.984,0.0861416,1.34297,9.34666,-0.00236703,-0.400181,0.00786466,0
2024-12-11 14:38:28.985,0.172283,1.2999,9.38974,0.00496313,-0.433778,0.000534491,0
2024-12-11 14:38:28.988,0.253639,1.28315,9.47348,0.00984991,-0.456379,-0.00801737,0
2024-12-11 14:38:28.990,0.316152,1.28315,9.57877,0.0208452,-0.474705,-0.0159584,0
2024-12-11 14:38:28.993,0.366401,1.29272,9.67927,0.0355055,-0.487532,-0.0232886,0
2024-12-11 14:38:28.995,0.407079,1.29272,9.76541,0.0477224,-0.50036,-0.0330621,0
2024-12-11 14:38:28.997,0.426222,1.28794,9.84706,0.0477224,-0.50036,-0.0330621,0
2024-12-11 14:38:29.002,0.493221,1.30947,9.92124,0.0898709,-0.516853,-0.0562743,0
2024-12-11 14:38:29.003,0.493221,1.30947,9.92124,0.10331,-0.513188,-0.0629936,0
2024-12-11 14:38:29.004,0.517149,1.30947,9.91885,0.10331,-0.513188,-0.0629936,0
2024-12-11 14:38:29.006,0.524327,1.30708,9.87338,0.116748,-0.498528,-0.0709346,0
2024-12-11 14:38:29.009,0.517149,1.30708,9.8013,0.124689,-0.483257,-0.0758214,0
2024-12-11 14:38:29.012,0.502792,1.31665,9.71994,0.138739,-0.436221,-0.0825407,0
2024-12-11 14:38:29.016,0.495613,1.30708,9.54766,0.138128,-0.407511,-0.0849841,0
2024-12-11 14:38:29.017,0.495613,1.30708,9.54766,0.136295,-0.375137,-0.0843733,0
2024-12-11 14:38:29.018,0.459721,1.3334,9.43281,0.136295,-0.375137,-0.0843733,0
2024-12-11 14:38:29.022,0.397508,1.3669,9.31077,0.118581,-0.312219,-0.0849841,0
2024-12-11 14:38:29.024,0.32333,1.39322,9.1693,0.108196,-0.278012,-0.0794865,0
2024-12-11 14:38:29.025,0.232104,1.42223,9.03051,0.108196,-0.278012,-0.0794865,0
2024-12-11 14:38:29.028,0.138784,1.45334,8.88934,0.0886492,-0.242583,-0.0764323,0
2024-12-11 14:38:29.030,0.0574277,1.4988,8.74577,0.0697129,-0.20471,-0.0703238,0
2024-12-11 14:38:29.033,-0.026321,1.54666,8.61865,0.0458899,-0.166838,-0.0617719,0
2024-12-11 14:38:29.035,-0.112463,1.57298,8.50619,0.0190126,-0.130798,-0.0519984,0
2024-12-11 14:38:29.037,-0.16989,1.59452,8.41765,-0.00847551,-0.0923143,-0.0422248,0
2024-12-11 14:38:29.040,-0.20339,1.61605,8.36262,-0.0396287,-0.0562743,-0.0318404,0
2024-12-11 14:38:29.042,-0.239282,1.6352,8.29801,-0.0726145,-0.0226777,-0.0202343,0
2024-12-11 14:38:29.044,-0.282652,1.65194,8.24058,-0.108044,0.010308,-0.00801737,0
2024-12-11 14:38:29.046,-0.318545,1.65434,8.19751,-0.14164,0.0408504,0.00236703,0
2024-12-11 14:38:29.050,-0.332901,1.65673,8.18076,-0.175237,0.0689494,0.014584,0
2024-12-11 14:38:29.051,-0.352044,1.66391,8.18794,-0.211277,0.0921616,0.0249684,0
2024-12-11 14:38:29.055,-0.366401,1.65912,8.21187,-0.241819,0.117817,0.0353528,0
2024-12-11 14:38:29.056,-0.366401,1.67109,8.2669,-0.274805,0.137364,0.0451263,0
2024-12-11 14:38:29.058,-0.368794,1.68784,8.3339,-0.305347,0.156911,0.0548999,0
2024-12-11 14:38:29.061,-0.366401,1.68784,8.43679,-0.326116,0.174015,0.0634518,0
2024-12-11 14:38:29.063,-0.361615,1.69502,8.53969,-0.348107,0.189286,0.0707819,0
2024-12-11 14:38:29.065,-0.347258,1.69502,8.64497,-0.361545,0.200892,0.0775012,0
2024-12-11 14:38:29.068,-0.332901,1.68784,8.76012,-0.374373,0.211277,0.0836097,0
2024-12-11 14:38:29.070,-0.337687,1.68066,8.87259,-0.381703,0.217996,0.0891073,0
2024-12-11 14:38:29.072,-0.34008,1.67109,8.98505,-0.382925,0.219829,0.0927724,0
2024-12-11 14:38:29.075,-0.335294,1.65194,9.06401,-0.381092,0.223494,0.094605,0
2024-12-11 14:38:29.077,-0.325723,1.62323,9.15494,-0.377427,0.223494,0.0970484,0
2024-12-11 14:38:29.079,-0.344866,1.62323,9.26531,-0.370097,0.22044,0.0988809,0
2024-12-11 14:38:29.082,-0.378365,1.63998,9.33231,-0.356048,0.214942,0.100103,0
2024-12-11 14:38:29.084,-0.404686,1.65434,9.37299,-0.342609,0.208223,0.101324,0
2024-12-11 14:38:29.087,-0.438186,1.65912,9.41606,-0.326116,0.196616,0.103157,0
2024-12-11 14:38:29.089,-0.452543,1.65194,9.44238,-0.306569,0.186843,0.1056,0
2024-12-11 14:38:29.091,-0.452543,1.66391,9.45195,-0.288244,0.174015,0.107433,0
2024-12-11 14:38:29.095,-0.452543,1.68784,9.44238,-0.251593,0.142862,0.11232,0
2024-12-11 14:38:29.096,-0.462114,1.68305,9.42084,-0.251593,0.142862,0.11232,0
2024-12-11 14:38:29.099,-0.478864,1.69262,9.37059,-0.233267,0.121482,0.11232,0
2024-12-11 14:38:29.102,-0.481256,1.70698,9.31316,-0.205779,0.0811663,0.113541,0
2024-12-11 14:38:29.103,-0.474078,1.6998,9.25783,-0.205779,0.0811663,0.113541,0
2024-12-11 14:38:29.105,-0.4669,1.69741,9.20519,-0.194173,0.0573433,0.114152,0
2024-12-11 14:38:29.108,-0.459721,1.70698,9.18126,-0.1844,0.0329094,0.117206,0
2024-12-11 14:38:29.111,-0.464507,1.72852,9.15973,-0.175848,0.00908635,0.118428,0
2024-12-11 14:38:29.112,-0.4669,1.74048,9.1334,-0.169739,-0.0177909,0.119039,0
2024-12-11 14:38:29.116,-0.447757,1.75962,9.12383,-0.166074,-0.0434465,0.117817,0
2024-12-11 14:38:29.117,-0.41665,1.7668,9.12623,-0.164242,-0.0678804,0.118428,0
2024-12-11 14:38:29.120,-0.380758,1.77159,9.12623,-0.163631,-0.0923143,0.11965,0
2024-12-11 14:38:29.123,-0.34008,1.76919,9.1358,-0.161187,-0.134463,0.119039,0
2024-12-11 14:38:29.124,-0.294616,1.7668,9.18605,-0.161187,-0.134463,0.119039,0
2024-12-11 14:38:29.127,-0.244068,1.79073,9.26052,-0.161187,-0.155232,0.115985,0
2024-12-11 14:38:29.130,-0.18664,1.79791,9.34427,-0.157522,-0.180887,0.110487,0
2024-12-11 14:38:29.132,-0.165105,1.78834,9.42802,-0.15569,-0.187606,0.106211,0
2024-12-11 14:38:29.135,-0.150748,1.79073,9.49981,-0.150803,-0.191882,0.1056,0
2024-12-11 14:38:29.136,-0.117248,1.79551,9.55484,-0.150803,-0.191882,0.1056,0
2024-12-11 14:38:29.139,-0.100499,1.79791,9.60987,-0.147138,-0.194937,0.104379,0
2024-12-11 14:38:29.141,-0.0957129,1.79551,9.66491,-0.140419,-0.193715,0.1056,0
2024-12-11 14:38:29.143,-0.11007,1.79551,9.71994,-0.13431,-0.19005,0.1056,0
2024-12-11 14:38:29.146,-0.122034,1.80269,9.77259,-0.127591,-0.184552,0.108654,0
2024-12-11 14:38:29.149,-0.117248,1.81226,9.80369,-0.111709,-0.177833,0.11293,0
2024-12-11 14:38:29.150,-0.102891,1.80987,9.84228,-0.111709,-0.177833,0.11293,0
2024-12-11 14:38:29.153,-0.100499,1.81466,9.87817,-0.103768,-0.171114,0.116595,0
2024-12-11 14:38:29.155,-0.0981057,1.82662,9.90449,-0.0952158,-0.163783,0.121482,0
2024-12-11 14:38:29.157,-0.0861416,1.83619,9.92842,-0.0848314,-0.157675,0.12698,0
2024-12-11 14:38:29.160,-0.0885344,1.86012,9.94278,-0.0720036,-0.149734,0.128812,0
2024-12-11 14:38:29.163,-0.0789631,1.86969,9.94756,-0.0542891,-0.136906,0.134921,0
2024-12-11 14:38:29.164,-0.066999,1.8673,9.95474,-0.0542891,-0.136906,0.134921,0
2024-12-11 14:38:29.168,-0.0334995,1.8673,9.98585,-0.0322986,-0.1253,0.137364,0
2024-12-11 14:38:29.169,0.026321,1.88405,10.0313,-0.0322986,-0.1253,0.137364,0
2024-12-11 14:38:29.171,0.0933201,1.91276,10.072,-0.0194708,-0.122246,0.137975,0
2024-12-11 14:38:29.174,0.148355,1.92712,10.1103,-0.00664296,-0.117359,0.137975,0
2024-12-11 14:38:29.176,0.210568,1.94865,10.1246,0.00374144,-0.117359,0.133699,0
2024-12-11 14:38:29.178,0.285045,1.97049,10.139,0.0196235,-0.111861,0.126369,0
2024-12-11 14:38:29.182,0.344866,2.00638,10.1653,0.0471116,-0.111861,0.115374,0
2024-12-11 14:38:29.184,0.397508,2.04467,10.1677,0.0599394,-0.113083,0.104989,0
2024-12-11 14:38:29.185,0.442971,2.07338,10.151,0.0599394,-0.113083,0.104989,0
2024-12-11 14:38:29.188,0.481256,2.10688,10.139,0.0709346,-0.114305,0.094605,0
2024-12-11 14:38:29.190,0.533899,2.13799,10.1294,0.0843733,-0.117359,0.0805555,0
2024-12-11 14:38:29.193,0.600898,2.16192,10.0983,0.0941468,-0.120413,0.0671168,0
2024-12-11 14:38:29.195,0.655932,2.17627,10.0505,0.100866,-0.126522,0.0542891,0
2024-12-11 14:38:29.197,0.701396,2.17627,10.0217,0.109418,-0.132019,0.038407,0
2024-12-11 14:38:29.200,0.754038,2.20259,10.0265,0.114916,-0.13935,0.0219141,0
2024-12-11 14:38:29.202,0.821037,2.22652,10.0337,0.122246,-0.144847,0.00603212,0
2024-12-11 14:38:29.204,0.881157,2.24566,10.0241,0.126522,-0.151566,-0.0141258,0
2024-12-11 14:38:29.207,0.931406,2.27916,9.99781,0.127743,-0.153399,-0.0318404,0
2024-12-11 14:38:29.210,0.964906,2.30548,9.9667,0.130798,-0.152177,-0.0526092,0
2024-12-11 14:38:29.211,0.964906,2.33181,9.92124,0.132019,-0.148512,-0.073378,0
2024-12-11 14:38:29.215,0.952942,2.36052,9.87099,0.133241,-0.136295,-0.0923143,0
2024-12-11 14:38:29.216,0.933799,2.37009,9.83749,0.133852,-0.121024,-0.112472,0
2024-12-11 14:38:29.219,0.917049,2.37488,9.78455,0.132019,-0.104531,-0.130187,0
2024-12-11 14:38:29.222,0.885943,2.39163,9.71037,0.123468,-0.0629936,-0.161951,0
2024-12-11 14:38:29.223,0.830609,2.40359,9.62663,0.123468,-0.0629936,-0.161951,0
2024-12-11 14:38:29.225,0.775574,2.41077,9.5357,0.119802,-0.0348946,-0.174779,0
2024-12-11 14:38:29.228,0.71336,2.3988,9.43041,0.111251,-0.00984991,-0.188828,0
2024-12-11 14:38:29.230,0.63679,2.38206,9.31316,0.100866,0.0164165,-0.196769,0
2024-12-11 14:38:29.232,0.584148,2.38206,9.20758,0.0880384,0.0445155,-0.205932,0
2024-12-11 14:38:29.235,0.52672,2.37248,9.11187,0.0715455,0.0713928,-0.213262,0
2024-12-11 14:38:29.237,0.457328,2.36531,9.02812,0.0550526,0.0994917,-0.217538,0
2024-12-11 14:38:29.240,0.397508,2.36531,8.95155,0.0391706,0.126369,-0.221814,0
2024-12-11 14:38:29.242,0.349651,2.36052,8.89651,0.0202343,0.150803,-0.226701,0
2024-12-11 14:38:29.245,0.30658,2.35095,8.86062,-0.0170274,0.194173,-0.234642,0
2024-12-11 14:38:29.248,0.260818,2.34138,8.82952,-0.0377962,0.215553,-0.239528,0
2024-12-11 14:38:29.249,0.205783,2.33898,8.81037,-0.0377962,0.215553,-0.239528,0
2024-12-11 14:38:29.252,0.148355,2.33659,8.81755,-0.0542891,0.231435,-0.243804,0
2024-12-11 14:38:29.254,0.0933201,2.33181,8.83909,-0.0658951,0.24976,-0.246248,0
2024-12-11 14:38:29.256,0.0358923,2.32941,8.85584,-0.0817772,0.261366,-0.250524,0
2024-12-11 14:38:29.258,-0.0119641,2.32702,8.89412,-0.0927724,0.272972,-0.255411,0
2024-12-11 14:38:29.262,-0.0646062,2.31745,8.93959,-0.110487,0.291909,-0.258465,0
2024-12-11 14:38:29.263,-0.12682,2.31984,8.97069,-0.110487,0.291909,-0.258465,0
2024-12-11 14:38:29.266,-0.179462,2.31027,8.99701,-0.113541,0.296795,-0.259076,0
2024-12-11 14:38:29.268,-0.217747,2.3007,9.01376,-0.117817,0.301071,-0.259686,0
2024-12-11 14:38:29.270,-0.265603,2.30309,9.03051,-0.120871,0.298628,-0.260297,0
2024-12-11 14:38:29.274,-0.311366,2.29831,9.04248,-0.121482,0.294352,-0.261519,0
2024-12-11 14:38:29.275,-0.354437,2.29591,9.06641,-0.121482,0.294352,-0.261519,0
2024-12-11 14:38:29.277,-0.392722,2.29113,9.09512,-0.122093,0.287633,-0.260297,0
2024-12-11 14:38:29.280,-0.435793,2.3007,9.09751,-0.123926,0.279692,-0.260297,0
2024-12-11 14:38:29.282,-0.481256,2.3342,9.0999,-0.121482,0.270529,-0.259686,0
2024-12-11 14:38:29.285,-0.488435,2.37248,9.11426,-0.11965,0.246095,-0.263352,0
2024-12-11 14:38:29.287,-0.498006,2.3988,9.12144,-0.11965,0.246095,-0.263352,0
2024-12-11 14:38:29.289,-0.512363,2.42034,9.14537,-0.11965,0.230824,-0.263962,0
2024-12-11 14:38:29.292,-0.517149,2.46102,9.17169,-0.118428,0.215553,-0.265795,0
2024-12-11 14:38:29.295,-0.529113,2.50648,9.1669,-0.118428,0.202114,-0.271293,0
2024-12-11 14:38:29.296,-0.531506,2.52323,9.13819,-0.119039,0.183178,-0.275568,0
2024-12-11 14:38:29.298,-0.533899,2.55224,9.12623,-0.123926,0.16302,-0.280455,0
2024-12-11 14:38:29.301,-0.538684,2.58096,9.1358,-0.126369,0.143473,-0.285342,0
2024-12-11 14:38:29.303,-0.52672,2.59053,9.13101,-0.131256,0.119039,-0.291451,0
2024-12-11 14:38:29.305,-0.507577,2.59771,9.1358,-0.141029,0.0909399,-0.298781,0
2024-12-11 14:38:29.308,-0.500399,2.58096,9.17647,-0.150192,0.0610084,-0.308554,0
2024-12-11 14:38:29.311,-0.495613,2.57378,9.23151,-0.171572,-0.0019089,-0.323215,0
2024-12-11 14:38:29.313,-0.476471,2.58096,9.3012,-0.171572,-0.0019089,-0.323215,0
2024-12-11 14:38:29.315,-0.445364,2.57139,9.4017,-0.1844,-0.0348946,-0.332377,0
2024-12-11 14:38:29.317,-0.423829,2.5666,9.50698,-0.193562,-0.0684913,-0.342151,0
2024-12-11 14:38:29.320,-0.397508,2.54507,9.62663,-0.205779,-0.102088,-0.350703,0
2024-12-11 14:38:29.323,-0.361615,2.50648,9.77737,-0.22044,-0.16867,-0.364141,0
2024-12-11 14:38:29.324,-0.344866,2.4682,9.92842,-0.22044,-0.16867,-0.364141,0
2024-12-11 14:38:29.327,-0.318545,2.42752,10.0768,-0.227159,-0.201045,-0.372082,0
2024-12-11 14:38:29.329,-0.285045,2.39163,10.2419,-0.232656,-0.232198,-0.376358,0
2024-12-11 14:38:29.331,-0.241675,2.33659,10.4121,-0.236932,-0.263962,-0.37758,0
2024-12-11 14:38:29.334,-0.198604,2.27199,10.5891,-0.238154,-0.292672,-0.379413,0
2024-12-11 14:38:29.336,-0.160319,2.21934,10.7542,-0.240597,-0.319549,-0.378191,0
2024-12-11 14:38:29.338,-0.129212,2.17866,10.905,-0.237543,-0.342151,-0.375747,0
2024-12-11 14:38:29.342,-0.0909273,2.13559,11.0584,-0.229602,-0.378802,-0.369028,0
2024-12-11 14:38:29.343,-0.0430708,2.0997,11.2164,-0.229602,-0.378802,-0.369028,0
2024-12-11 14:38:29.345,0.00957129,2.04227,11.3671,-0.222883,-0.391019,-0.362309,0
2024-12-11 14:38:29.348,0.0789631,1.98245,11.5086,-0.212498,-0.394684,-0.354979,0
2024-12-11 14:38:29.350,0.145962,1.94865,11.6569,-0.200282,-0.394073,-0.345816,0
2024-12-11 14:38:29.353,0.210568,1.91994,11.7957,-0.1844,-0.386132,-0.340929,0
2024-12-11 14:38:29.356,0.253639,1.90319,11.9106,-0.152635,-0.349481,-0.321382,0
2024-12-11 14:38:29.357,0.260818,1.90319,11.9991,-0.152635,-0.349481,-0.321382,0
2024-12-11 14:38:29.361,0.253639,1.88883,12.0664,-0.130645,-0.321993,-0.310387,0
2024-12-11 14:38:29.362,0.251246,1.86491,12.1214,-0.106211,-0.289007,-0.296337,0
2024-12-11 14:38:29.364,0.241675,1.84816,12.1502,-0.0860531,-0.247469,-0.281066,0
2024-12-11 14:38:29.367,0.212961,1.83619,12.1645,-0.0616192,-0.200434,-0.263962,0
2024-12-11 14:38:29.369,0.181855,1.85294,12.1525,-0.0359636,-0.152177,-0.245026,0
2024-12-11 14:38:29.372,0.143569,1.88405,12.0832,-0.0096972,-0.0978119,-0.224257,0
2024-12-11 14:38:29.374,0.0837488,1.91994,11.9608,0.0141258,-0.0410031,-0.203488,0
2024-12-11 14:38:29.377,0.0358923,1.96062,11.7981,0.0538309,0.0811663,-0.148512,0
2024-12-11 14:38:29.378,0.0,1.98724,11.5851,0.0538309,0.0811663,-0.148512,0
2024-12-11 14:38:29.381,-0.0454636,2.02074,11.3384,0.0660479,0.144694,-0.118581,0
2024-12-11 14:38:29.383,-0.0741775,2.05185,11.0943,0.0739889,0.207001,-0.0874275,0
2024-12-11 14:38:29.387,-0.0861416,2.0662,10.8835,0.0752106,0.323673,-0.0238994,0
2024-12-11 14:38:29.388,-0.0741775,2.10688,10.692,0.0752106,0.323673,-0.0238994,0
2024-12-11 14:38:29.390,-0.0646062,2.16909,10.4982,0.0745997,0.380481,0.00419957,0
2024-12-11 14:38:29.394,-0.0646062,2.2337,10.3017,0.0672696,0.428738,0.0329094,0
2024-12-11 14:38:29.395,-0.040678,2.30309,10.1175,0.0599394,0.476995,0.0603975,0
2024-12-11 14:38:29.397,-0.0167498,2.37966,9.95713,0.0489441,0.519144,0.0860531,0
2024-12-11 14:38:29.400,0.0,2.44188,9.81326,0.0342838,0.557627,0.108654,0
2024-12-11 14:38:29.402,0.0191426,2.5017,9.70319,0.0190126,0.593056,0.130645,0
2024-12-11 14:38:29.404,0.0358923,2.55703,9.60987,0.00862822,0.627875,0.14897,0
2024-12-11 14:38:29.407,0.0622134,2.61685,9.50459,-0.00358873,0.659028,0.166685,0
2024-12-11 14:38:29.410,0.0909273,2.68624,9.41845,-0.0274118,0.714004,0.196006,0
2024-12-11 14:38:29.412,0.0981057,2.74846,9.35863,-0.0274118,0.714004,0.196006,0
2024-12-11 14:38:29.414,0.102891,2.81067,9.32034,-0.0329094,0.734773,0.207612,0
2024-12-11 14:38:29.416,0.112463,2.8681,9.29642,-0.0414613,0.748822,0.217996,0
2024-12-11 14:38:29.418,0.107677,2.91835,9.2677,-0.0445155,0.757374,0.225937,0
2024-12-11 14:38:29.421,0.105284,2.96381,9.23869,-0.046348,0.762261,0.231435,0
2024-12-11 14:38:29.424,0.102891,3.01167,9.21955,-0.0481806,0.760428,0.236322,0
2024-12-11 14:38:29.426,0.105284,3.04038,9.2028,-0.0469589,0.755542,0.239987,0
2024-12-11 14:38:29.428,0.0957129,3.05474,9.17887,-0.0439046,0.743325,0.241208,0
2024-12-11 14:38:29.430,0.066999,3.08854,9.1669,-0.0353528,0.729275,0.241208,0
2024-12-11 14:38:29.434,0.040678,3.12443,9.1358,-0.0206925,0.690792,0.24243,0
2024-12-11 14:38:29.435,0.0167498,3.15075,9.09273,-0.0206925,0.690792,0.24243,0
2024-12-11 14:38:29.437,-0.0119641,3.16989,9.06401,-0.0096972,0.664525,0.239987,0
2024-12-11 14:38:29.441,-0.026321,3.16989,9.02094,0.00251974,0.634594,0.237543,0
2024-12-11 14:38:29.442,-0.0334995,3.17707,8.95873,0.013515,0.602219,0.237543,0
2024-12-11 14:38:29.445,-0.0502493,3.19861,8.88934,0.0251211,0.563736,0.233878,0
2024-12-11 14:38:29.448,-0.0478565,3.19861,8.84387,0.033673,0.519144,0.229602,0
2024-12-11 14:38:29.449,-0.0334995,3.17468,8.81516,0.0446682,0.472719,0.227159,0
2024-12-11 14:38:29.451,-0.0119641,3.1675,8.77687,0.0526092,0.419576,0.221661,0
2024-12-11 14:38:29.454,0.0119641,3.16032,8.73859,0.0587177,0.362767,0.215553,0
2024-12-11 14:38:29.457,0.0478565,3.12921,8.72184,0.0684913,0.241208,0.199671,0
2024-12-11 14:38:29.459,0.0861416,3.10289,8.72184,0.0684913,0.241208,0.199671,0
2024-12-11 14:38:29.461,0.138784,3.08854,8.72184,0.0715455,0.177069,0.191119,0
2024-12-11 14:38:29.464,0.198604,3.08345,8.7362,0.077654,0.0469589,0.172183,0
2024-12-11 14:38:29.467,0.244068,3.08106,8.77927,0.0794865,-0.0177909,0.161798,0
2024-12-11 14:38:29.468,0.304188,3.07627,8.81277,0.0794865,-0.0177909,0.161798,0
2024-12-11 14:38:29.471,0.397508,3.07149,8.8343,0.0807082,-0.149123,0.137364,0
2024-12-11 14:38:29.474,0.507577,3.06431,8.87976,0.077654,-0.210819,0.124536,0
2024-12-11 14:38:29.476,0.624826,3.04517,8.95155,0.0770431,-0.260297,0.109265,0
2024-12-11 14:38:29.477,0.751645,3.01167,9.0688,0.0770431,-0.260297,0.109265,0
2024-12-11 14:38:29.480,0.873978,2.97577,9.21476,0.0837624,-0.299392,0.0915507,0
2024-12-11 14:38:29.482,0.967299,2.97099,9.32513,0.0868167,-0.331156,0.0713928,0
2024-12-11 14:38:29.485,1.04387,2.9662,9.39931,0.0984228,-0.359255,0.0512348,0
2024-12-11 14:38:29.487,1.11087,2.94467,9.46631,0.10392,-0.383078,0.0359636,0
2024-12-11 14:38:29.489,1.14676,2.93988,9.51416,0.114305,-0.400792,0.0194708,0
2024-12-11 14:38:29.492,1.1659,2.92552,9.51655,0.122246,-0.414842,0.00419957,0
2024-12-11 14:38:29.495,1.20419,2.8992,9.50938,0.1253,-0.427669,-0.0122933,0
2024-12-11 14:38:29.496,1.24247,2.8681,9.5022,0.128965,-0.436221,-0.0251211,0
2024-12-11 14:38:29.500,1.27119,2.82503,9.47348,0.130187,-0.439276,-0.037338,0
2024-12-11 14:38:29.501,1.29751,2.79631,9.44716,0.127133,-0.439276,-0.0489441,0
2024-12-11 14:38:29.504,1.30469,2.76999,9.41127,0.121635,-0.425226,-0.0709346,0
2024-12-11 14:38:29.506,1.29033,2.75324,9.38256,0.121635,-0.425226,-0.0709346,0
2024-12-11 14:38:29.509,1.26162,2.74128,9.36581,0.105142,-0.395905,-0.0880384,0
2024-12-11 14:38:29.511,1.21854,2.72692,9.32992,0.105142,-0.395905,-0.0880384,0
2024-12-11 14:38:29.513,1.18744,2.72453,9.29881,0.093536,-0.378802,-0.0923143,0
2024-12-11 14:38:29.516,1.16112,2.71496,9.26531,0.0825407,-0.358644,-0.0941468,0
2024-12-11 14:38:29.517,1.13958,2.69581,9.24108,0.0678804,-0.33421,-0.0990336,0
2024-12-11 14:38:29.520,1.10608,2.67428,9.22912,0.049555,-0.311608,-0.100255,0
2024-12-11 14:38:29.522,1.07498,2.65514,9.23869,0.0312296,-0.287785,-0.10331,0
2024-12-11 14:38:29.525,1.05823,2.64078,9.24108,0.0141258,-0.262741,-0.105142,0
2024-12-11 14:38:29.527,1.03669,2.63839,9.22433,-0.00664296,-0.238918,-0.105142,0
2024-12-11 14:38:29.529,1.01515,2.64078,9.23869,-0.0280226,-0.212651,-0.106364,0
2024-12-11 14:38:29.532,0.979263,2.64078,9.26531,-0.0494023,-0.183331,-0.106975,0
2024-12-11 14:38:29.535,0.917049,2.6336,9.28445,-0.0933833,-0.132019,-0.107585,0
2024-12-11 14:38:29.537,0.857229,2.61207,9.31316,-0.114763,-0.10392,-0.10331,0
2024-12-11 14:38:29.539,0.799502,2.59292,9.35863,-0.114763,-0.10392,-0.10331,0
2024-12-11 14:38:29.541,0.754038,2.58335,9.41606,-0.133699,-0.0745997,-0.10331,0
2024-12-11 14:38:29.543,0.720539,2.5666,9.48306,-0.154468,-0.0483333,-0.100866,0
2024-12-11 14:38:29.546,0.675075,2.54746,9.5668,-0.17035,-0.021456,-0.0984228,0
2024-12-11 14:38:29.548,0.617647,2.53549,9.6697,-0.181956,0.00908635,-0.0959794,0
2024-12-11 14:38:29.550,0.541077,2.51605,9.75823,-0.192951,0.0371853,-0.0892601,0
2024-12-11 14:38:29.553,0.478864,2.4993,9.8351,-0.197838,0.0652843,-0.085595,0
2024-12-11 14:38:29.555,0.426222,2.47537,9.90449,-0.200892,0.090329,-0.0807082,0
2024-12-11 14:38:29.557,0.368794,2.45623,9.94756,-0.202114,0.116595,-0.0715455,0
2024-12-11 14:38:29.560,0.313759,2.43709,9.98824,-0.202114,0.142251,-0.0636045,0
2024-12-11 14:38:29.562,0.248854,2.41795,10.0193,-0.19906,0.165463,-0.0562743,0
2024-12-11 14:38:29.565,0.205783,2.3988,10.0313,-0.196006,0.182567,-0.0452791,0
2024-12-11 14:38:29.567,0.165105,2.37966,10.0385,-0.190508,0.200892,-0.0355055,0
2024-12-11 14:38:29.569,0.12682,2.37248,10.0433,-0.185621,0.212498,-0.0251211,0
2024-12-11 14:38:29.572,0.0885344,2.36052,10.0481,-0.179513,0.222883,-0.0177909,0
2024-12-11 14:38:29.574,0.0574277,2.34856,10.06,-0.167296,0.228381,-0.00740652,0
2024-12-11 14:38:29.576,0.0334995,2.36531,10.0768,-0.15569,0.228381,0.00236703,0
2024-12-11 14:38:29.580,0.0167498,2.38206,10.0887,-0.136753,0.22044,0.0213033,0
2024-12-11 14:38:29.582,0.0191426,2.38684,10.0792,-0.125758,0.21372,0.0274118,0
2024-12-11 14:38:29.584,0.0215354,2.38445,10.0768,-0.125758,0.21372,0.0274118,0
2024-12-11 14:38:29.586,0.0191426,2.38684,10.0959,-0.108654,0.200282,0.0329094,0
2024-12-11 14:38:29.588,0.0239282,2.39402,10.1198,-0.0976592,0.18501,0.0390179,0
2024-12-11 14:38:29.591,0.0382852,2.40598,10.1438,-0.0811663,0.169739,0.0439046,0
2024-12-11 14:38:29.593,0.0478565,2.42513,10.1557,-0.0658951,0.14897,0.0469589,0
2024-12-11 14:38:29.597,0.0885344,2.44905,10.1581,-0.0292443,0.108044,0.0512348,0
2024-12-11 14:38:29.597,0.0885344,2.44905,10.1581,-0.0292443,0.108044,0.0512348,0
2024-12-11 14:38:29.600,0.117248,2.46341,10.1677,-0.0096972,0.0878856,0.0548999,0
2024-12-11 14:38:29.609,0.272782,2.57139,10.0983,0.0568851,0.00786466,0.0475697,0
2024-12-11 14:38:29.609,0.272782,2.57139,10.0983,0.0568851,0.00786466,0.0475697,0
2024-12-11 14:38:29.610,0.272782,2.57139,10.0983,0.0752106,-0.00862822,0.0439046,0
2024-12-11 14:38:29.612,0.285045,2.58814,10.0528,0.0752106,-0.00862822,0.0439046,0
2024-12-11 14:38:29.612,0.285045,2.58814,10.0528,0.0752106,-0.00862822,0.0439046,0
2024-12-11 14:38:29.614,0.301795,2.61685,9.99781,0.0886492,-0.021456,0.0396287,0
2024-12-11 14:38:29.616,0.313759,2.64078,9.94278,0.101477,-0.0312296,0.0341311,0
2024-12-11 14:38:29.620,0.316152,2.67428,9.87578,0.110029,-0.041614,0.0310769,0
2024-12-11 14:38:29.621,0.30658,2.7006,9.7678,0.119802,-0.0501658,0.0274118,0
2024-12-11 14:38:29.623,0.30658,2.71496,9.66491,0.125911,-0.057496,0.0237467,0
2024-12-11 14:38:29.627,0.304188,2.73171,9.58116,0.124078,-0.0660479,0.0213033,0
2024-12-11 14:38:29.628,0.30658,2.74367,9.5022,0.122246,-0.0697129,0.0170274,0
2024-12-11 14:38:29.630,0.301795,2.75085,9.42802,0.116748,-0.073378,0.014584,0
2024-12-11 14:38:29.635,0.270389,2.79153,9.32752,0.104531,-0.0678804,0.010308,0
2024-12-11 14:38:29.636,0.270389,2.79153,9.32752,0.100866,-0.0629936,0.00725381,0
2024-12-11 14:38:29.637,0.244068,2.80828,9.30359,0.100866,-0.0629936,0.00725381,0
2024-12-11 14:38:29.640,0.208176,2.80828,9.25544,0.0947577,-0.0593285,0.00664296,0
2024-12-11 14:38:29.642,0.157926,2.79631,9.20997,0.0819299,-0.0623828,0.00481042,0
2024-12-11 14:38:29.646,0.119641,2.79392,9.1693,0.0709346,-0.0648262,0.00481042,0
2024-12-11 14:38:29.647,0.0981057,2.78196,9.15733,0.0581068,-0.0709346,0.00419957,0
2024-12-11 14:38:29.649,0.0933201,2.76521,9.16212,0.041614,-0.0752106,0.00664296,0
2024-12-11 14:38:29.653,0.0981057,2.75803,9.17169,0.0129041,-0.0849841,0.0109189,0
2024-12-11 14:38:29.655,0.105284,2.74846,9.21476,-0.00297788,-0.0886492,0.0115297,0
2024-12-11 14:38:29.657,0.11007,2.73171,9.27966,-0.00297788,-0.0886492,0.0115297,0
2024-12-11 14:38:29.659,0.117248,2.69581,9.34188,-0.0139731,-0.0886492,0.0121406,0
2024-12-11 14:38:29.661,0.143569,2.68385,9.4017,-0.0261901,-0.0849841,0.0121406,0
2024-12-11 14:38:29.663,0.181855,2.68864,9.47588,-0.0347419,-0.0794865,0.0121406,0
2024-12-11 14:38:29.667,0.217747,2.67667,9.55245,-0.0530674,-0.0715455,0.0115297,0
2024-12-11 14:38:29.669,0.232104,2.65514,9.61227,-0.0597867,-0.0660479,0.010308,0
2024-12-11 14:38:29.671,0.251246,2.62403,9.67209,-0.0597867,-0.0660479,0.010308,0
2024-12-11 14:38:29.674,0.289831,2.58096,9.71994,-0.0707819,-0.0538309,0.00908635,0
2024-12-11 14:38:29.675,0.311366,2.54028,9.75584,-0.0707819,-0.0538309,0.00908635,0
2024-12-11 14:38:29.677,0.328116,2.52084,9.78455,-0.074447,-0.0483333,0.00725381,0
2024-12-11 14:38:29.680,0.335294,2.50409,9.8013,-0.0787229,-0.041614,0.00603212,0
2024-12-11 14:38:29.682,0.342473,2.47298,9.81805,-0.0860531,-0.0397814,0.00603212,0
2024-12-11 14:38:29.685,0.349651,2.42034,9.84946,-0.0933833,-0.0342838,0.00542127,0
2024-12-11 14:38:29.688,0.352044,2.3677,9.87578,-0.104379,-0.0232886,0.00664296,0
2024-12-11 14:38:29.690,0.352044,2.34138,9.88056,-0.109265,-0.0171801,0.0096972,0
2024-12-11 14:38:29.692,0.349651,2.3342,9.89971,-0.109265,-0.0171801,0.0096972,0
2024-12-11 14:38:29.694,0.347258,2.31027,9.92603,-0.114763,-0.0104608,0.014584,0
2024-12-11 14:38:29.696,0.34008,2.28395,9.95474,-0.116595,-0.00313059,0.0188599,0
2024-12-11 14:38:29.699,0.325723,2.2672,9.98824,-0.11965,0.00542127,0.0237467,0
2024-12-11 14:38:29.701,0.308973,2.24327,10.0146,-0.123926,0.0121406,0.0286335,0
2024-12-11 14:38:29.704,0.304188,2.22174,10.0265,-0.121482,0.0200816,0.0353528,0
2024-12-11 14:38:29.706,0.287438,2.2002,10.0337,-0.122093,0.0261901,0.0420721,0
2024-12-11 14:38:29.709,0.285045,2.17866,10.0648,-0.116595,0.0353528,0.0610084,0
2024-12-11 14:38:29.710,0.301795,2.17866,10.0911,-0.116595,0.0353528,0.0610084,0
2024-12-11 14:38:29.713,0.325723,2.18824,10.1055,-0.111709,0.0414613,0.0695602,0
2024-12-11 14:38:29.715,0.349651,2.2002,10.1079,-0.108044,0.0451263,0.0781121,0
2024-12-11 14:38:29.719,0.373579,2.21456,10.1055,-0.0970484,0.0530674,0.0897182,0
2024-12-11 14:38:29.721,0.392722,2.23609,10.1055,-0.0909399,0.0555107,0.0964375,0
2024-12-11 14:38:29.722,0.41665,2.25763,10.0959,-0.0909399,0.0555107,0.0964375,0
2024-12-11 14:38:29.725,0.435793,2.2672,10.0959,-0.0842206,0.0567324,0.100713,0
2024-12-11 14:38:29.727,0.474078,2.3007,10.0983,-0.0787229,0.0567324,0.1056,0
2024-12-11 14:38:29.729,0.514756,2.3342,10.084,-0.0726145,0.0548999,0.108044,0
2024-12-11 14:38:29.732,0.555434,2.36052,10.0768,-0.0646735,0.0524565,0.110487,0
2024-12-11 14:38:29.735,0.610469,2.39163,10.0792,-0.0567324,0.0481806,0.111709,0
2024-12-11 14:38:29.736,0.672682,2.41316,10.0744,-0.0481806,0.0439046,0.109876,0
2024-12-11 14:38:29.739,0.725324,2.45384,10.0505,-0.0414613,0.0420721,0.110487,0
2024-12-11 14:38:29.741,0.744467,2.51605,10.017,-0.0365745,0.0402396,0.107433,0
2024-12-11 14:38:29.744,0.744467,2.54267,9.98585,-0.0280226,0.0377962,0.100713,0
2024-12-11 14:38:29.746,0.742074,2.56899,9.95474,-0.022525,0.0371853,0.0982701,0
2024-12-11 14:38:29.748,0.737288,2.60967,9.91646,-0.0182491,0.0341311,0.0952158,0
2024-12-11 14:38:29.750,0.73011,2.6336,9.87578,-0.0115297,0.0316877,0.0915507,0
2024-12-11 14:38:29.753,0.720539,2.65514,9.82792,-0.00908635,0.0310769,0.0854423,0
2024-12-11 14:38:29.755,0.715753,2.67906,9.77977,-0.00664296,0.0292443,0.082388,0
2024-12-11 14:38:29.758,0.706182,2.68864,9.72952,-0.00297788,0.0268009,0.0799446,0
2024-12-11 14:38:29.761,0.687039,2.68864,9.68645,-0.00175619,0.0237467,0.0775012,0
2024-12-11 14:38:29.763,0.663111,2.68624,9.65773,0.000687203,0.0206925,0.0768904,0
2024-12-11 14:38:29.765,0.63679,2.70778,9.61705,0.000687203,0.0206925,0.0768904,0
2024-12-11 14:38:29.767,0.632004,2.72931,9.57877,0.000687203,0.0213033,0.0781121,0
2024-12-11 14:38:29.769,0.622433,2.74128,9.5333,0.00251974,0.0213033,0.0787229,0
2024-12-11 14:38:29.772,0.581755,2.76521,9.49263,0.00435229,0.0213033,0.0811663,0
2024-12-11 14:38:29.774,0.533899,2.81067,9.45434,0.00251974,0.0194708,0.0829989,0
2024-12-11 14:38:29.777,0.514756,2.85135,9.41845,0.00251974,0.0200816,0.0860531,0
2024-12-11 14:38:29.780,0.521934,2.87767,9.37538,0.00435229,0.0164165,0.0897182,0
2024-12-11 14:38:29.781,0.514756,2.88485,9.33709,0.00435229,0.0164165,0.0897182,0
2024-12-11 14:38:29.784,0.531506,2.89681,9.30838,0.00679568,0.0151948,0.0909399,0
2024-12-11 14:38:29.786,0.572184,2.92552,9.27966,0.00557398,0.014584,0.0909399,0
2024-12-11 14:38:29.788,0.588933,2.94706,9.26052,0.00618483,0.0121406,0.0921616,0
2024-12-11 14:38:29.790,0.605683,2.96381,9.22912,0.00251974,0.00786466,0.0915507,0
2024-12-11 14:38:29.793,0.632004,2.97817,9.20997,0.00618483,0.00603212,0.0872748,0
2024-12-11 14:38:29.795,0.651147,2.99731,9.2028,0.00618483,-7.63559e-05,0.0854423,0
2024-12-11 14:38:29.798,0.655932,3.02124,9.18126,0.00496313,-0.00374144,0.082388,0
2024-12-11 14:38:29.800,0.655932,3.04277,9.16212,0.00740652,-0.00862822,0.0775012,0
2024-12-11 14:38:29.802,0.660718,3.05952,9.15015,0.00740652,-0.0110716,0.074447,0
2024-12-11 14:38:29.806,0.670289,3.08584,9.12383,0.00618483,-0.0190126,0.0634518,0
2024-12-11 14:38:29.807,0.691825,3.09571,9.09273,0.00618483,-0.0190126,0.0634518,0
2024-12-11 14:38:29.810,0.715753,3.11007,9.06641,0.00801737,-0.0232886,0.0548999,0
2024-12-11 14:38:29.812,0.737288,3.134,9.03051,0.00801737,-0.0306187,0.0469589,0
2024-12-11 14:38:29.815,0.749253,3.14596,9.00419,0.00679568,-0.0348946,0.0390179,0
2024-12-11 14:38:29.816,0.744467,3.17228,8.97069,0.00496313,-0.0410031,0.030466,0
2024-12-11 14:38:29.819,0.737288,3.19143,8.94437,7.63559e-05,-0.0465007,0.0200816,0
2024-12-11 14:38:29.821,0.722932,3.21536,8.92044,7.63559e-05,-0.0501658,0.0096972,0
2024-12-11 14:38:29.823,0.699003,3.23211,8.88455,-0.00481042,-0.0550526,-0.00129805,0
2024-12-11 14:38:29.826,0.677468,3.24885,8.85344,-0.010308,-0.0593285,-0.00984991,0
2024-12-11 14:38:29.828,0.65354,3.27278,8.81037,-0.014584,-0.0629936,-0.0202343,0
2024-12-11 14:38:29.832,0.62004,3.27757,8.77448,-0.0298552,-0.0660479,-0.0403923,0
2024-12-11 14:38:29.833,0.584148,3.27996,8.7362,-0.0298552,-0.0660479,-0.0403923,0
2024-12-11 14:38:29.835,0.550648,3.28714,8.68086,-0.0377962,-0.0678804,-0.0471116,0
2024-12-11 14:38:29.838,0.519542,3.28235,8.64497,-0.0469589,-0.0684913,-0.0556635,0
2024-12-11 14:38:29.841,0.50997,3.27518,8.62822,-0.0738362,-0.0721563,-0.0721563,0
2024-12-11 14:38:29.843,0.495613,3.27757,8.63061,-0.0738362,-0.0721563,-0.0721563,0
2024-12-11 14:38:29.845,0.464507,3.28475,8.6354,-0.0878856,-0.0745997,-0.0800973,0
2024-12-11 14:38:29.847,0.4334,3.29432,8.64497,-0.100103,-0.0739889,-0.0880384,0
2024-12-11 14:38:29.849,0.411865,3.2991,8.66172,-0.113541,-0.0752106,-0.0941468,0
2024-12-11 14:38:29.852,0.371187,3.30389,8.67847,-0.126369,-0.073378,-0.101477,0
2024-12-11 14:38:29.854,0.335294,3.2991,8.71466,-0.137975,-0.0739889,-0.106364,0
2024-12-11 14:38:29.857,0.313759,3.27278,8.7673,-0.14897,-0.0727672,-0.113694,0
2024-12-11 14:38:29.860,0.285045,3.25603,8.81755,-0.169739,-0.0721563,-0.122857,0
2024-12-11 14:38:29.862,0.256032,3.23928,8.87019,-0.178902,-0.073378,-0.128354,0
2024-12-11 14:38:29.864,0.236889,3.20339,8.95394,-0.178902,-0.073378,-0.128354,0
2024-12-11 14:38:29.866,0.212961,3.1675,9.04965,-0.186232,-0.0745997,-0.133241,0
2024-12-11 14:38:29.868,0.179462,3.14596,9.13101,-0.191119,-0.0788757,-0.136906,0
2024-12-11 14:38:29.871,0.153141,3.12682,9.22912,-0.192341,-0.0837624,-0.136906,0
2024-12-11 14:38:29.873,0.119641,3.1005,9.31316,-0.198449,-0.0953685,-0.141182,0
2024-12-11 14:38:29.876,0.0885344,3.08584,9.38495,-0.19173,-0.111251,-0.144847,0
2024-12-11 14:38:29.878,0.066999,3.06192,9.46152,-0.19173,-0.111251,-0.144847,0
2024-12-11 14:38:29.881,0.0502493,3.03559,9.52373,-0.189286,-0.133241,-0.14668,0
2024-12-11 14:38:29.882,0.0358923,2.9997,9.58355,-0.189286,-0.133241,-0.14668,0
2024-12-11 14:38:29.885,0.026321,2.96381,9.65295,-0.18501,-0.145458,-0.147901,0
2024-12-11 14:38:29.887,0.0191426,2.94945,9.70319,-0.179513,-0.15401,-0.149734,0
2024-12-11 14:38:29.890,0.00957129,2.93988,9.74148,-0.175848,-0.165616,-0.150956,0
2024-12-11 14:38:29.892,0.00478565,2.92792,9.79412,-0.168517,-0.174779,-0.152177,0
2024-12-11 14:38:29.894,0.0143569,2.8992,9.82314,-0.161798,-0.186385,-0.15401,0
2024-12-11 14:38:29.897,0.0191426,2.87767,9.84946,-0.156911,-0.193104,-0.155842,0
2024-12-11 14:38:29.899,-0.00239282,2.87288,9.88056,-0.151414,-0.20471,-0.155842,0
2024-12-11 14:38:29.901,-0.0191426,2.8657,9.90449,-0.14836,-0.213873,-0.155842,0
2024-12-11 14:38:29.904,-0.0215354,2.86092,9.92363,-0.14164,-0.219981,-0.15401,0
2024-12-11 14:38:29.906,-0.026321,2.84417,9.94278,-0.134921,-0.22609,-0.152788,0
2024-12-11 14:38:29.908,-0.0143569,2.8322,9.96192,-0.133088,-0.232809,-0.151566,0
2024-12-11 14:38:29.911,0.00717847,2.83699,9.97149,-0.130034,-0.238918,-0.148512,0
2024-12-11 14:38:29.913,0.026321,2.8322,9.97388,-0.128202,-0.244415,-0.147291,0
2024-12-11 14:38:29.915,0.0358923,2.82263,9.98106,-0.12698,-0.246859,-0.145458,0
2024-12-11 14:38:29.918,0.0454636,2.82024,9.98585,-0.12698,-0.249913,-0.142404,0
2024-12-11 14:38:29.920,0.0598206,2.82263,9.98824,-0.12698,-0.249302,-0.140571,0
2024-12-11 14:38:29.922,0.081356,2.81306,9.99303,-0.12698,-0.250524,-0.138128,0
2024-12-11 14:38:29.926,0.102891,2.81306,9.99542,-0.12698,-0.244415,-0.136906,0
2024-12-11 14:38:29.928,0.124427,2.82503,9.99781,-0.131256,-0.241972,-0.135074,0
2024-12-11 14:38:29.929,0.143569,2.83699,10.0098,-0.131256,-0.241972,-0.135074,0
2024-12-11 14:38:29.932,0.155533,2.8346,10.0289,-0.132477,-0.23342,-0.13263,0
2024-12-11 14:38:29.934,0.18664,2.82263,10.0481,-0.133699,-0.224868,-0.131409,0
2024-12-11 14:38:29.939,0.212961,2.82503,10.0887,-0.13431,-0.20471,-0.127133,0
2024-12-11 14:38:29.939,0.212961,2.82503,10.0887,-0.13431,-0.20471,-0.127133,0
2024-12-11 14:38:29.941,0.227318,2.8322,10.1151,-0.13431,-0.20471,-0.127133,0
2024-12-11 14:38:29.945,0.234497,2.82742,10.1294,-0.13431,-0.169281,-0.121024,0
2024-12-11 14:38:29.947,0.229711,2.82024,10.1294,-0.13431,-0.169281,-0.121024,0
2024-12-11 14:38:29.948,0.244068,2.81785,10.127,-0.130645,-0.155842,-0.11797,0
2024-12-11 14:38:29.953,0.275175,2.82263,10.127,-0.126369,-0.1253,-0.111251,0
2024-12-11 14:38:29.953,0.275175,2.82263,10.127,-0.126369,-0.1253,-0.111251,0
2024-12-11 14:38:29.956,0.277567,2.81785,10.1222,-0.120261,-0.0959794,-0.102699,0
2024-12-11 14:38:29.958,0.285045,2.82024,10.1031,-0.120261,-0.0959794,-0.102699,0
2024-12-11 14:38:29.962,0.325723,2.79631,10.0744,-0.11293,-0.0617719,-0.0978119,0
2024-12-11 14:38:29.963,0.325723,2.79631,10.0744,-0.11293,-0.0617719,-0.0978119,0
2024-12-11 14:38:29.965,0.325723,2.78196,10.0481,-0.106822,-0.0458899,-0.093536,0
2024-12-11 14:38:29.968,0.313759,2.76999,10.0098,-0.104989,-0.0330621,-0.0874275,0
2024-12-11 14:38:29.970,0.311366,2.76281,9.96431,-0.104989,-0.0330621,-0.0874275,0
2024-12-11 14:38:29.972,0.32333,2.76042,9.92124,-0.0988809,-0.00618483,-0.077654,0
2024-12-11 14:38:29.977,0.318545,2.76521,9.8013,-0.0872748,0.0249684,-0.0660479,0
2024-12-11 14:38:29.978,0.318545,2.76521,9.8013,-0.082388,0.0353528,-0.0611611,0
2024-12-11 14:38:29.981,0.342473,2.79631,9.68645,-0.0781121,0.0469589,-0.0532201,0
2024-12-11 14:38:29.981,0.342473,2.79631,9.68645,-0.0781121,0.0469589,-0.0532201,0
2024-12-11 14:38:29.986,0.419043,2.80349,9.55245,-0.0677277,0.0683385,-0.0446682,0
2024-12-11 14:38:29.987,0.419043,2.80349,9.55245,-0.0640626,0.0768904,-0.037338,0
2024-12-11 14:38:29.989,0.471685,2.80349,9.47109,-0.0603975,0.0848314,-0.0342838,0
2024-12-11 14:38:29.991,0.512363,2.80588,9.39931,-0.0603975,0.0848314,-0.0342838,0
2024-12-11 14:38:29.993,0.545863,2.83699,9.33709,-0.0542891,0.0939941,-0.0342838,0
2024-12-11 14:38:29.995,0.581755,2.84895,9.27727,-0.0494023,0.102546,-0.0306187,0
2024-12-11 14:38:29.999,0.624826,2.85853,9.22433,-0.0377962,0.117206,-0.033673,0
2024-12-11 14:38:30.001,0.648754,2.88963,9.16451,-0.0310769,0.122093,-0.0330621,0
2024-12-11 14:38:30.003,0.675075,2.90878,9.11905,-0.0310769,0.122093,-0.0330621,0
2024-12-11 14:38:30.006,0.703789,2.9351,9.05683,-0.0194708,0.138586,-0.0361163,0
2024-12-11 14:38:30.008,0.722932,2.96142,8.98266,-0.010308,0.145916,-0.0397814,0
2024-12-11 14:38:30.010,0.739681,2.9686,8.92523,-0.010308,0.145916,-0.0397814,0
2024-12-11 14:38:30.013,0.737288,2.9997,8.84387,7.63559e-05,0.153246,-0.0446682,0
2024-12-11 14:38:30.014,0.737288,3.03081,8.75773,7.63559e-05,0.153246,-0.0446682,0
2024-12-11 14:38:30.019,0.727717,3.09093,8.57079,0.00740652,0.158133,-0.049555,0
2024-12-11 14:38:30.021,0.677468,3.12204,8.47269,0.00740652,0.15569,-0.0519984,0
2024-12-11 14:38:30.022,0.677468,3.12204,8.47269,0.00740652,0.15569,-0.0519984,0
2024-12-11 14:38:30.024,0.651147,3.15553,8.38415,0.00801737,0.152635,-0.0519984,0
2024-12-11 14:38:30.026,0.634397,3.201,8.31237,0.00618483,0.150803,-0.0526092,0
2024-12-11 14:38:30.029,0.641576,3.24407,8.26451,0.00313059,0.145305,-0.0550526,0
2024-12-11 14:38:30.031,0.632004,3.28235,8.20948,0.00129805,0.135532,-0.0544418,0
2024-12-11 14:38:30.033,0.624826,3.31585,8.16401,-0.00236703,0.128202,-0.0562743,0
2024-12-11 14:38:30.035,0.641576,3.3661,8.12782,-0.00725381,0.119039,-0.0581068,0
2024-12-11 14:38:30.038,0.660718,3.42353,8.09671,-0.0158057,0.107433,-0.0605502,0
2024-12-11 14:38:30.041,0.687039,3.45703,8.07757,-0.0213033,0.0982701,-0.0648262,0
2024-12-11 14:38:30.042,0.715753,3.50728,8.04886,-0.0286335,0.0878856,-0.0703238,0
2024-12-11 14:38:30.045,0.737288,3.54317,8.01536,-0.0371853,0.0762796,-0.0770431,0
2024-12-11 14:38:30.048,0.76361,3.58385,7.99143,-0.0475697,0.0646735,-0.0819299,0
2024-12-11 14:38:30.049,0.780359,3.64367,7.97707,-0.0561216,0.0524565,-0.0892601,0
2024-12-11 14:38:30.052,0.789931,3.7014,7.95793,-0.0677277,0.0408504,-0.0978119,0
2024-12-11 14:38:30.054,0.813859,3.75165,7.93161,-0.0842206,0.0261901,-0.104531,0
2024-12-11 14:38:30.057,0.847657,3.77557,7.91247,-0.0988809,0.0121406,-0.114305,0
2024-12-11 14:38:30.059,0.890728,3.79232,7.89093,-0.117206,-0.00679568,-0.122857,0
2024-12-11 14:38:30.061,0.924228,3.8019,7.86461,-0.137364,-0.0263428,-0.133241,0
2024-12-11 14:38:30.066,1.01276,3.83779,7.88136,-0.183789,-0.0684913,-0.157064,0
2024-12-11 14:38:30.067,1.01276,3.83779,7.88136,-0.212498,-0.0904818,-0.166838,0
2024-12-11 14:38:30.069,1.07258,3.84736,7.90768,-0.212498,-0.0904818,-0.166838,0
2024-12-11 14:38:30.072,1.15155,3.8354,7.95075,-0.263199,-0.135684,-0.195547,0
2024-12-11 14:38:30.074,1.24008,3.81147,8.0345,-0.263199,-0.135684,-0.195547,0
2024-12-11 14:38:30.075,1.32144,3.76361,8.135,-0.288854,-0.156453,-0.21143,0
2024-12-11 14:38:30.078,1.39801,3.72054,8.25255,-0.312677,-0.176,-0.226701,0
2024-12-11 14:38:30.080,1.47248,3.67508,8.38894,-0.337111,-0.196158,-0.244415,0
2024-12-11 14:38:30.082,1.5347,3.61735,8.53969,-0.356658,-0.213262,-0.262741,0
2024-12-11 14:38:30.086,1.5993,3.58146,8.70509,-0.390866,-0.245026,-0.292672,0
2024-12-11 14:38:30.091,1.6998,3.50489,9.01137,-0.404915,-0.258465,-0.307333,0
2024-12-11 14:38:30.091,1.6998,3.50489,9.01137,-0.404915,-0.258465,-0.307333,0
2024-12-11 14:38:30.092,1.73091,3.45942,9.15015,-0.4153,-0.272514,-0.323215,0
2024-12-11 14:38:30.094,1.7668,3.4331,9.27009,-0.424462,-0.28412,-0.337264,0
2024-12-11 14:38:30.097,1.79312,3.39242,9.38974,-0.433014,-0.292672,-0.350092,0
2024-12-11 14:38:30.101,1.8338,3.31107,9.62423,-0.448286,-0.310998,-0.373304,0
2024-12-11 14:38:30.105,1.83141,3.25843,9.71516,-0.459281,-0.317106,-0.392851,0
2024-12-11 14:38:30.105,1.83141,3.25843,9.71516,-0.459281,-0.317106,-0.392851,0
2024-12-11 14:38:30.107,1.81944,3.21057,9.81326,-0.459281,-0.314052,-0.400792,0
2024-12-11 14:38:30.109,1.78834,3.17468,9.92363,-0.459281,-0.314052,-0.400792,0
2024-12-11 14:38:30.113,1.70219,3.15793,10.127,-0.45867,-0.3055,-0.410566,0
2024-12-11 14:38:30.113,1.70219,3.15793,10.127,-0.45867,-0.3055,-0.410566,0
2024-12-11 14:38:30.115,1.63998,3.15553,10.2132,-0.454394,-0.295116,-0.408733,0
2024-12-11 14:38:30.118,1.5658,3.14118,10.2921,-0.454394,-0.295116,-0.408733,0
2024-12-11 14:38:30.120,1.49641,3.14118,10.3567,-0.442177,-0.265184,-0.403846,0
2024-12-11 14:38:30.123,1.43181,3.14836,10.3953,-0.433625,-0.247469,-0.396516,0
2024-12-11 14:38:30.127,1.36451,3.15553,10.4192,-0.417743,-0.207154,-0.376358,0
2024-12-11 14:38:30.128,1.29512,3.1675,10.4192,-0.409191,-0.187606,-0.367196,0
2024-12-11 14:38:30.130,1.23529,3.18903,10.4169,-0.409191,-0.187606,-0.367196,0
2024-12-11 14:38:30.133,1.18983,3.22971,10.3881,-0.396974,-0.147901,-0.339097,0
2024-12-11 14:38:30.137,1.12762,3.32782,10.34,-0.391477,-0.129576,-0.325047,0
2024-12-11 14:38:30.138,1.12762,3.32782,10.34,-0.391477,-0.129576,-0.325047,0
2024-12-11 14:38:30.139,1.10608,3.37567,10.3137,-0.38659,-0.109418,-0.310998,0
2024-12-11 14:38:30.141,1.08694,3.43071,10.2658,-0.385368,-0.0910926,-0.296337,0
2024-12-11 14:38:30.145,1.07498,3.50249,10.2084,-0.384757,-0.0568851,-0.271903,0
2024-12-11 14:38:30.147,1.08455,3.5671,10.1629,-0.384757,-0.0446682,-0.260297,0
2024-12-11 14:38:30.148,1.11087,3.62214,10.1222,-0.384757,-0.0446682,-0.260297,0
2024-12-11 14:38:30.152,1.12522,3.70379,10.0816,-0.390255,-0.0190126,-0.246859,0
2024-12-11 14:38:30.154,1.13001,3.77318,10.0289,-0.392698,-0.0110716,-0.238918,0
2024-12-11 14:38:30.156,1.14437,3.8354,9.97149,-0.392698,-0.0110716,-0.238918,0
2024-12-11 14:38:30.158,1.14915,3.91197,9.92842,-0.399418,-0.00251974,-0.232198,0
2024-12-11 14:38:30.160,1.15155,3.97657,9.87817,-0.404305,0.00542127,-0.227312,0
2024-12-11 14:38:30.164,1.19462,4.02921,9.83031,-0.411024,0.00908635,-0.224868,0
2024-12-11 14:38:30.165,1.26401,4.07229,9.79652,-0.418354,0.0158057,-0.221203,0
2024-12-11 14:38:30.167,1.34776,4.101,9.77737,-0.426906,0.0158057,-0.223646,0
2024-12-11 14:38:30.171,1.45334,4.12732,9.77977,-0.446453,0.0176382,-0.234642,0
2024-12-11 14:38:30.173,1.55145,4.13928,9.78934,-0.446453,0.0176382,-0.234642,0
2024-12-11 14:38:30.174,1.62802,4.14646,9.82553,-0.455616,0.0176382,-0.244415,0
2024-12-11 14:38:30.179,1.74527,4.18953,9.94517,-0.463557,0.0176382,-0.274347,0
2024-12-11 14:38:30.181,1.79073,4.19671,10.0074,-0.463557,0.0170274,-0.289007,0
2024-12-11 14:38:30.181,1.79073,4.19671,10.0074,-0.463557,0.0170274,-0.289007,0
