timestamp,accel_x,accel_y,accel_z,gyro_x,gyro_y,gyro_z,step_timestamp
2024-12-11 14:35:54.479,0.267996,2.15952,9.55963,-0.0151948,-0.0269536,0.0408504,0
2024-12-11 14:35:54.479,0.267996,2.15952,9.55963,-0.0151948,-0.0269536,0.0408504,0
2024-12-11 14:35:54.479,0.267996,2.15952,9.55963,-0.0151948,-0.0269536,0.0408504,0
2024-12-11 14:35:54.479,0.267996,2.15952,9.55963,-0.0151948,-0.0269536,0.0408504,0
2024-12-11 14:35:54.479,0.267996,2.15952,9.55963,-0.0151948,-0.0269536,0.0408504,0
2024-12-11 14:35:54.479,0.267996,2.15952,9.55963,-0.0151948,-0.0269536,0.0408504,0
2024-12-11 14:35:54.479,0.267996,2.15952,9.55963,-0.0151948,-0.0269536,0.0408504,0
2024-12-11 14:35:54.479,0.267996,2.15952,9.55963,-0.0151948,-0.0269536,0.0408504,0
2024-12-11 14:35:54.480,0.267996,2.15952,9.55963,-0.0151948,-0.0269536,0.0408504,0
2024-12-11 14:35:54.480,0.267996,2.15952,9.55963,-0.0151948,-0.0269536,0.0408504,0
2024-12-11 14:35:54.480,0.267996,2.15952,9.55963,-0.0151948,-0.0269536,0.0408504,0
2024-12-11 14:35:54.480,0.267996,2.15952,9.55963,-0.0151948,-0.0269536,0.0408504,0
2024-12-11 14:35:54.480,0.267996,2.15952,9.55963,-0.0151948,-0.0269536,0.0408504,0
2024-12-11 14:35:54.484,0.292223,2.17388,9.53809,-0.0249684,-0.0318404,0.038407,0
2024-12-11 14:35:54.484,0.292223,2.17388,9.53809,-0.0249684,-0.0318404,0.038407,0
2024-12-11 14:35:54.484,0.292223,2.17388,9.53809,-0.0249684,-0.0318404,0.038407,0
2024-12-11 14:35:54.484,0.292223,2.17388,9.53809,-0.0249684,-0.0318404,0.038407,0
2024-12-11 14:35:54.484,0.292223,2.17388,9.53809,-0.0249684,-0.0318404,0.038407,0
2024-12-11 14:35:54.486,0.289831,2.17149,9.52134,-0.0268009,-0.0330621,0.0365745,0
2024-12-11 14:35:54.486,0.289831,2.17149,9.52134,-0.0268009,-0.0330621,0.0365745,0
2024-12-11 14:35:54.486,0.289831,2.17149,9.52134,-0.0268009,-0.0330621,0.0365745,0
2024-12-11 14:35:54.489,0.289831,2.17627,9.51895,-0.0322986,-0.0324513,0.0335202,0
2024-12-11 14:35:54.489,0.297009,2.17627,9.51895,-0.0322986,-0.0324513,0.0335202,0
2024-12-11 14:35:54.489,0.297009,2.17627,9.51895,-0.0322986,-0.0324513,0.0335202,0
2024-12-11 14:35:54.489,0.297009,2.17627,9.51895,-0.0322986,-0.0324513,0.0335202,0
2024-12-11 14:35:54.489,0.297009,2.17627,9.51895,-0.0322986,-0.0324513,0.0335202,0
2024-12-11 14:35:54.490,0.297009,2.17627,9.51895,-0.0365745,-0.033673,0.0316877,0
2024-12-11 14:35:54.490,0.297009,2.17627,9.51895,-0.0365745,-0.033673,0.0316877,0
2024-12-11 14:35:54.493,0.282652,2.19302,9.54527,-0.0390179,-0.0312296,0.0292443,0
2024-12-11 14:35:54.493,0.282652,2.19302,9.54527,-0.0390179,-0.0312296,0.0292443,0
2024-12-11 14:35:54.493,0.282652,2.19302,9.54527,-0.0390179,-0.0312296,0.0292443,0
2024-12-11 14:35:54.493,0.282652,2.19302,9.54527,-0.0390179,-0.0312296,0.0292443,0
2024-12-11 14:35:54.496,0.285045,2.18345,9.54766,-0.0445155,-0.0312296,0.0249684,0
2024-12-11 14:35:54.496,0.285045,2.18345,9.54766,-0.0445155,-0.0312296,0.0249684,0
2024-12-11 14:35:54.497,0.285045,2.18345,9.54766,-0.0481806,-0.0318404,0.0231358,0
2024-12-11 14:35:54.497,0.285045,2.18345,9.54766,-0.0481806,-0.0318404,0.0231358,0
2024-12-11 14:35:54.498,0.285045,2.18345,9.55484,-0.0481806,-0.0318404,0.0231358,0
2024-12-11 14:35:54.498,0.285045,2.18345,9.55484,-0.0481806,-0.0318404,0.0231358,0
2024-12-11 14:35:54.499,0.285045,2.18345,9.55484,-0.0518457,-0.0306187,0.0213033,0
2024-12-11 14:35:54.499,0.285045,2.18345,9.55484,-0.0518457,-0.0306187,0.0213033,0
2024-12-11 14:35:54.500,0.282652,2.17627,9.58595,-0.0518457,-0.0306187,0.0213033,0
2024-12-11 14:35:54.500,0.282652,2.17627,9.58595,-0.0518457,-0.0306187,0.0213033,0
2024-12-11 14:35:54.501,0.282652,2.17627,9.58595,-0.0518457,-0.0306187,0.0213033,0
2024-12-11 14:35:54.503,0.297009,2.17149,9.60987,-0.050624,-0.0281753,0.0188599,0
2024-12-11 14:35:54.503,0.297009,2.17149,9.60987,-0.050624,-0.0281753,0.0188599,0
2024-12-11 14:35:54.504,0.282652,2.17627,9.60987,-0.0542891,-0.0281753,0.0164165,0
2024-12-11 14:35:54.504,0.297009,2.17149,9.60987,-0.0542891,-0.0281753,0.0164165,0
2024-12-11 14:35:54.505,0.297009,2.16192,9.63141,-0.0542891,-0.0281753,0.0164165,0
2024-12-11 14:35:54.505,0.297009,2.16192,9.63141,-0.0542891,-0.0281753,0.0164165,0
2024-12-11 14:35:54.506,0.297009,2.16192,9.63141,-0.0548999,-0.0281753,0.0151948,0
2024-12-11 14:35:54.507,0.285045,2.15952,9.65773,-0.0548999,-0.0281753,0.0151948,0
2024-12-11 14:35:54.507,0.285045,2.15952,9.65773,-0.0548999,-0.0281753,0.0151948,0
2024-12-11 14:35:54.507,0.285045,2.15952,9.65773,-0.0548999,-0.0281753,0.0151948,0
2024-12-11 14:35:54.507,0.285045,2.15952,9.65773,-0.0548999,-0.0281753,0.0151948,0
2024-12-11 14:35:54.508,0.285045,2.15952,9.65773,-0.0548999,-0.0281753,0.0151948,0
2024-12-11 14:35:54.508,0.285045,2.15952,9.65773,-0.0548999,-0.0281753,0.0151948,0
2024-12-11 14:35:54.510,0.270389,2.15474,9.68884,-0.0579541,-0.0287862,0.0133623,0
2024-12-11 14:35:54.510,0.270389,2.15474,9.68884,-0.0579541,-0.0287862,0.0133623,0
2024-12-11 14:35:54.510,0.270389,2.15474,9.68884,-0.0579541,-0.0287862,0.0133623,0
2024-12-11 14:35:54.510,0.270389,2.15474,9.68884,-0.0579541,-0.0287862,0.0133623,0
2024-12-11 14:35:54.510,0.270389,2.15474,9.68884,-0.0579541,-0.0287862,0.0133623,0
2024-12-11 14:35:54.510,0.270389,2.15474,9.68884,-0.0579541,-0.0287862,0.0133623,0
2024-12-11 14:35:54.510,0.270389,2.15474,9.68884,-0.0579541,-0.0287862,0.0133623,0
2024-12-11 14:35:54.510,0.270389,2.15474,9.68884,-0.0579541,-0.0287862,0.0133623,0
2024-12-11 14:35:54.511,0.270389,2.15474,9.68884,-0.0579541,-0.0287862,0.0133623,0
2024-12-11 14:35:54.511,0.270389,2.15474,9.68884,-0.0579541,-0.0287862,0.0133623,0
2024-12-11 14:35:54.511,0.270389,2.15474,9.68884,-0.0579541,-0.0287862,0.0133623,0
2024-12-11 14:35:54.511,0.270389,2.15474,9.68884,-0.0579541,-0.0287862,0.0133623,0
2024-12-11 14:35:54.517,0.241675,2.10209,9.83031,-0.0536782,-0.0324513,0.00542127,0
2024-12-11 14:35:54.518,0.241675,2.10209,9.83031,-0.0500131,-0.0342838,0.00297788,0
2024-12-11 14:35:54.519,0.236889,2.10688,9.85424,-0.0500131,-0.0342838,0.00297788,0
2024-12-11 14:35:54.519,0.236889,2.10688,9.85424,-0.0500131,-0.0342838,0.00297788,0
2024-12-11 14:35:54.520,0.236889,2.10688,9.85424,-0.0481806,-0.0348946,0.00358873,0
2024-12-11 14:35:54.523,0.22014,2.10209,9.86621,-0.0432938,-0.0348946,0.00297788,0
2024-12-11 14:35:54.525,0.193819,2.09252,9.86621,-0.0432938,-0.0348946,0.00297788,0
2024-12-11 14:35:54.526,0.177069,2.08535,9.86381,-0.0402396,-0.0348946,0.00419957,0
2024-12-11 14:35:54.529,0.157926,2.07577,9.86381,-0.038407,-0.0348946,0.00419957,0
2024-12-11 14:35:54.531,0.138784,2.05902,9.87338,-0.0341311,-0.0355055,0.00786466,0
2024-12-11 14:35:54.534,0.155533,2.05424,9.86621,-0.0310769,-0.037338,0.00908635,0
2024-12-11 14:35:54.536,0.177069,2.04945,9.84946,-0.0292443,-0.0385597,0.0121406,0
2024-12-11 14:35:54.538,0.198604,2.0351,9.84706,-0.0286335,-0.0410031,0.0164165,0
2024-12-11 14:35:54.540,0.20339,2.0327,9.84946,-0.0280226,-0.0410031,0.0170274,0
2024-12-11 14:35:54.543,0.193819,2.04945,9.85903,-0.0280226,-0.0410031,0.0200816,0
2024-12-11 14:35:54.546,0.189033,2.06142,9.87338,-0.0292443,-0.0397814,0.0200816,0
2024-12-11 14:35:54.549,0.181855,2.07817,9.8686,-0.0292443,-0.0397814,0.0200816,0
2024-12-11 14:35:54.550,0.18664,2.09731,9.86381,-0.0292443,-0.037338,0.022525,0
2024-12-11 14:35:54.553,0.200997,2.10688,9.85424,-0.0286335,-0.033673,0.0219141,0
2024-12-11 14:35:54.556,0.22014,2.10927,9.84228,-0.0286335,-0.033673,0.0219141,0
2024-12-11 14:35:54.557,0.253639,2.11167,9.84467,-0.0286335,-0.0312296,0.0200816,0
2024-12-11 14:35:54.559,0.294616,2.12363,9.82074,-0.0310769,-0.0300079,0.0194708,0
2024-12-11 14:35:54.563,0.32333,2.12124,9.79891,-0.0371853,-0.0263428,0.0127514,0
2024-12-11 14:35:54.564,0.349651,2.12842,9.78216,-0.0371853,-0.0263428,0.0127514,0
2024-12-11 14:35:54.566,0.371187,2.14277,9.75105,-0.042683,-0.0238994,0.00908635,0
2024-12-11 14:35:54.569,0.383151,2.14995,9.74148,-0.0445155,-0.0226777,0.00664296,0
2024-12-11 14:35:54.572,0.373579,2.14277,9.74627,-0.0512348,-0.0159584,-0.00679568,0
2024-12-11 14:35:54.573,0.35683,2.14517,9.73909,-0.0512348,-0.0159584,-0.00679568,0
2024-12-11 14:35:54.576,0.34008,2.15234,9.7343,-0.0622301,-0.0190126,-0.0110716,0
2024-12-11 14:35:54.578,0.313759,2.15234,9.73191,-0.0683385,-0.0165692,-0.0129041,0
2024-12-11 14:35:54.580,0.289831,2.15713,9.72712,-0.0713928,-0.013515,-0.0153475,0
2024-12-11 14:35:54.583,0.263211,2.14756,9.73191,-0.0781121,-0.0147367,-0.0165692,0
2024-12-11 14:35:54.585,0.229711,2.13799,9.75344,-0.0805555,-0.0147367,-0.0184018,0
2024-12-11 14:35:54.588,0.212961,2.12124,9.79173,-0.086664,-0.0147367,-0.0184018,0
2024-12-11 14:35:54.590,0.227318,2.10449,9.81566,-0.0921616,-0.0171801,-0.0171801,0
2024-12-11 14:35:54.593,0.239282,2.09731,9.82314,-0.0988809,-0.0196235,-0.0141258,0
2024-12-11 14:35:54.595,0.234497,2.08056,9.84467,-0.0988809,-0.0196235,-0.0141258,0
2024-12-11 14:35:54.598,0.229711,2.0662,9.88535,-0.102546,-0.0208452,-0.013515,0
2024-12-11 14:35:54.599,0.232104,2.05424,9.92842,-0.104379,-0.0232886,-0.0116825,0
2024-12-11 14:35:54.602,0.229711,2.01835,9.96431,-0.102546,-0.0238994,-0.00923906,0
2024-12-11 14:35:54.605,0.227318,2.00877,10.0074,-0.0994917,-0.0287862,-0.00313059,0
2024-12-11 14:35:54.607,0.236889,2.00638,10.0696,-0.0994917,-0.0287862,-0.00313059,0
2024-12-11 14:35:54.609,0.236889,1.98724,10.127,-0.0939941,-0.0318404,-0.000687203,0
2024-12-11 14:35:54.611,0.234497,1.9681,10.1653,-0.0927724,-0.0342838,0.00175619,0
2024-12-11 14:35:54.613,0.232104,1.96301,10.2036,-0.0878856,-0.0367272,0.00481042,0
2024-12-11 14:35:54.616,0.236889,1.9681,10.2323,-0.0811663,-0.0385597,0.00847551,0
2024-12-11 14:35:54.619,0.267996,1.96062,10.2562,-0.0658951,-0.0422248,0.014584,0
2024-12-11 14:35:54.620,0.297009,1.94387,10.2802,-0.0658951,-0.0422248,0.014584,0
2024-12-11 14:35:54.623,0.313759,1.9343,10.2945,-0.0591758,-0.0434465,0.0182491,0
2024-12-11 14:35:54.625,0.337687,1.93191,10.3161,-0.050624,-0.0458899,0.0182491,0
2024-12-11 14:35:54.628,0.35683,1.9343,10.3519,-0.0432938,-0.0489441,0.0188599,0
2024-12-11 14:35:54.630,0.366401,1.93191,10.3759,-0.0353528,-0.0489441,0.0200816,0
2024-12-11 14:35:54.633,0.368794,1.92233,10.3735,-0.0139731,-0.0501658,0.0231358,0
2024-12-11 14:35:54.635,0.354437,1.92473,10.3591,-0.0139731,-0.0501658,0.0231358,0
2024-12-11 14:35:54.637,0.344866,1.92951,10.34,-0.00603212,-0.0477224,0.0255792,0
2024-12-11 14:35:54.639,0.330509,1.93669,10.3089,-0.00114534,-0.0452791,0.0261901,0
2024-12-11 14:35:54.643,0.316152,1.95105,10.285,0.0129041,-0.0397814,0.030466,0
2024-12-11 14:35:54.645,0.301795,1.94865,10.2515,0.0190126,-0.0355055,0.0329094,0
2024-12-11 14:35:54.647,0.277567,1.94626,10.194,0.0190126,-0.0355055,0.0329094,0
2024-12-11 14:35:54.649,0.263211,1.9657,10.139,0.021456,-0.0324513,0.0371853,0
2024-12-11 14:35:54.652,0.253639,1.9657,10.1007,0.0263428,-0.0238994,0.0451263,0
2024-12-11 14:35:54.653,0.248854,1.95583,10.0648,0.0263428,-0.0238994,0.0451263,0
2024-12-11 14:35:54.656,0.256032,1.95823,10.0122,0.0281753,-0.0208452,0.0469589,0
2024-12-11 14:35:54.659,0.251246,1.97049,9.95474,0.0269536,-0.0147367,0.0567324,0
2024-12-11 14:35:54.662,0.232104,1.9681,9.91167,0.0257319,-0.00923906,0.058565,0
2024-12-11 14:35:54.663,0.229711,1.95823,9.88535,0.0257319,-0.00923906,0.058565,0
2024-12-11 14:35:54.665,0.227318,1.97767,9.86142,0.0238994,-0.00618483,0.0616192,0
2024-12-11 14:35:54.668,0.215354,1.9992,9.82314,0.021456,-0.00313059,0.0646735,0
2024-12-11 14:35:54.670,0.205783,1.99681,9.78455,0.0196235,0.00297788,0.0695602,0
2024-12-11 14:35:54.673,0.20339,2.0016,9.76062,0.0153475,0.00725381,0.0793338,0
2024-12-11 14:35:54.675,0.212961,2.01117,9.74866,0.0153475,0.00725381,0.0793338,0
2024-12-11 14:35:54.677,0.222533,2.01117,9.73669,0.0122933,0.0096972,0.082388,0
2024-12-11 14:35:54.679,0.227318,2.01356,9.71994,0.0110716,0.0115297,0.0860531,0
2024-12-11 14:35:54.682,0.232104,2.02074,9.69841,0.00740652,0.0109189,0.0878856,0
2024-12-11 14:35:54.685,0.260818,2.03031,9.66491,0.00251974,0.0121406,0.0921616,0
2024-12-11 14:35:54.686,0.282652,2.03988,9.63859,0.00129805,0.0127514,0.0927724,0
2024-12-11 14:35:54.689,0.308973,2.05663,9.6338,7.63559e-05,0.0139731,0.0939941,0
2024-12-11 14:35:54.692,0.328116,2.07817,9.63859,-0.00236703,0.0151948,0.0939941,0
2024-12-11 14:35:54.693,0.347258,2.09492,9.6362,-0.00358873,0.0158057,0.0915507,0
2024-12-11 14:35:54.696,0.368794,2.09731,9.62663,-0.00481042,0.0115297,0.0884965,0
2024-12-11 14:35:54.698,0.390329,2.10927,9.61227,-0.00664296,0.0133623,0.0872748,0
2024-12-11 14:35:54.702,0.409472,2.11645,9.57398,-0.0096972,0.010308,0.0768904,0
2024-12-11 14:35:54.703,0.419043,2.12124,9.52852,-0.0096972,0.010308,0.0768904,0
2024-12-11 14:35:54.705,0.41665,2.13081,9.50459,-0.0139731,0.00847551,0.0726145,0
2024-12-11 14:35:54.708,0.407079,2.13799,9.48306,-0.0170274,0.00847551,0.066506,0
2024-12-11 14:35:54.710,0.395115,2.14277,9.45434,-0.0200816,0.00481042,0.0616192,0
2024-12-11 14:35:54.713,0.387936,2.13799,9.42084,-0.0243575,0.00175619,0.0591758,0
2024-12-11 14:35:54.716,0.395115,2.14277,9.41606,-0.0280226,-0.00496313,0.0536782,0
2024-12-11 14:35:54.717,0.395115,2.13799,9.42802,-0.0316877,-0.00862822,0.0475697,0
2024-12-11 14:35:54.719,0.366401,2.12602,9.44238,-0.0335202,-0.0141258,0.0445155,0
2024-12-11 14:35:54.723,0.335294,2.11645,9.45673,-0.0359636,-0.0196235,0.0414613,0
2024-12-11 14:35:54.724,0.308973,2.09252,9.47588,-0.0371853,-0.0245102,0.038407,0
2024-12-11 14:35:54.726,0.301795,2.09492,9.49741,-0.0377962,-0.0300079,0.0347419,0
2024-12-11 14:35:54.729,0.297009,2.10449,9.51177,-0.0359636,-0.0355055,0.030466,0
2024-12-11 14:35:54.734,0.282652,2.07099,9.55484,-0.0359636,-0.0410031,0.0280226,0
2024-12-11 14:35:54.735,0.282652,2.07099,9.55484,-0.0322986,-0.0483333,0.0249684,0
2024-12-11 14:35:54.738,0.241675,2.04706,9.57398,-0.0310769,-0.0489441,0.0249684,0
2024-12-11 14:35:54.739,0.241675,2.04706,9.57398,-0.0310769,-0.0489441,0.0249684,0
2024-12-11 14:35:54.741,0.239282,2.04945,9.57877,-0.0286335,-0.0507767,0.0261901,0
2024-12-11 14:35:54.743,0.227318,2.04467,9.58595,-0.0261901,-0.0538309,0.0292443,0
2024-12-11 14:35:54.745,0.22014,2.02074,9.57159,-0.0243575,-0.0526092,0.0316877,0
2024-12-11 14:35:54.749,0.22014,1.99681,9.5668,-0.0219141,-0.0501658,0.0396287,0
2024-12-11 14:35:54.750,0.227318,1.99681,9.58116,-0.0219141,-0.0501658,0.0396287,0
2024-12-11 14:35:54.753,0.248854,1.99442,9.58834,-0.0194708,-0.0501658,0.0408504,0
2024-12-11 14:35:54.755,0.270389,1.98963,9.59791,-0.0158057,-0.0477224,0.0432938,0
2024-12-11 14:35:54.757,0.299402,1.98963,9.61705,-0.0133623,-0.0446682,0.046348,0
2024-12-11 14:35:54.760,0.335294,1.97767,9.63141,-0.010308,-0.0397814,0.0475697,0
2024-12-11 14:35:54.764,0.378365,1.98485,9.60987,-0.00481042,-0.0361163,0.0494023,0
2024-12-11 14:35:54.766,0.380758,2.00638,9.58834,0.00618483,-0.0263428,0.050624,0
2024-12-11 14:35:54.766,0.380758,2.00638,9.58834,0.00618483,-0.0263428,0.050624,0
2024-12-11 14:35:54.769,0.380758,1.9992,9.56441,0.00618483,-0.021456,0.0542891,0
2024-12-11 14:35:54.771,0.397508,1.98485,9.53091,0.00740652,-0.0177909,0.0567324,0
2024-12-11 14:35:54.774,0.41665,1.98485,9.49263,0.00923906,-0.0104608,0.0579541,0
2024-12-11 14:35:54.777,0.435793,1.98963,9.46391,0.0153475,0.0121406,0.0610084,0
2024-12-11 14:35:54.779,0.445364,2.0016,9.45673,0.0153475,0.0121406,0.0610084,0
2024-12-11 14:35:54.781,0.4669,2.01356,9.44956,0.0196235,0.0274118,0.0652843,0
2024-12-11 14:35:54.783,0.483649,2.0351,9.42802,0.0257319,0.0439046,0.0671168,0
2024-12-11 14:35:54.785,0.471685,2.05424,9.38256,0.0287862,0.0622301,0.0701711,0
2024-12-11 14:35:54.789,0.4669,2.07099,9.33709,0.0385597,0.102546,0.074447,0
2024-12-11 14:35:54.791,0.440578,2.0997,9.29642,0.0471116,0.122704,0.0781121,0
2024-12-11 14:35:54.792,0.402293,2.12363,9.21476,0.0471116,0.122704,0.0781121,0
2024-12-11 14:35:54.795,0.366401,2.15474,9.14297,0.0519984,0.144084,0.0836097,0
2024-12-11 14:35:54.797,0.337687,2.18106,9.0688,0.0556635,0.165463,0.086664,0
2024-12-11 14:35:54.799,0.311366,2.21456,8.9683,0.0617719,0.18501,0.0915507,0
2024-12-11 14:35:54.802,0.277567,2.25284,8.87259,0.0636045,0.202114,0.0952158,0
2024-12-11 14:35:54.804,0.241675,2.26481,8.76252,0.0642153,0.217996,0.0976592,0
2024-12-11 14:35:54.807,0.18664,2.28634,8.64736,0.0636045,0.230213,0.101324,0
2024-12-11 14:35:54.809,0.141177,2.31506,8.54208,0.0599394,0.237543,0.106211,0
2024-12-11 14:35:54.812,0.122034,2.34138,8.44636,0.0483333,0.243041,0.111709,0
2024-12-11 14:35:54.814,0.105284,2.37488,8.35783,0.0483333,0.243041,0.111709,0
2024-12-11 14:35:54.816,0.107677,2.40359,8.27887,0.0385597,0.238765,0.11232,0
2024-12-11 14:35:54.818,0.117248,2.42513,8.20708,0.0275645,0.229602,0.110487,0
2024-12-11 14:35:54.821,0.119641,2.42752,8.14726,0.0147367,0.217996,0.108654,0
2024-12-11 14:35:54.823,0.112463,2.42034,8.1015,0.00129805,0.200892,0.102546,0
2024-12-11 14:35:54.825,0.0933201,2.42752,8.08475,-0.014584,0.183178,0.0970484,0
2024-12-11 14:35:54.828,0.0717847,2.45623,8.08714,-0.0292443,0.159355,0.0884965,0
2024-12-11 14:35:54.831,0.0430708,2.48973,8.09671,-0.0610084,0.108654,0.0713928,0
2024-12-11 14:35:54.832,0.0119641,2.51127,8.13021,-0.0610084,0.108654,0.0713928,0
2024-12-11 14:35:54.836,-0.026321,2.54267,8.18555,-0.0891073,0.0518457,0.0487914,0
2024-12-11 14:35:54.837,-0.0598206,2.57378,8.25494,-0.0891073,0.0518457,0.0487914,0
2024-12-11 14:35:54.840,-0.0646062,2.5666,8.3363,-0.101935,0.0237467,0.0408504,0
2024-12-11 14:35:54.843,-0.0526421,2.54507,8.40569,-0.113541,-0.00679568,0.0292443,0
2024-12-11 14:35:54.844,-0.0550349,2.53071,8.47269,-0.124536,-0.0367272,0.0219141,0
2024-12-11 14:35:54.847,-0.0550349,2.5017,8.54208,-0.133699,-0.0648262,0.0127514,0
2024-12-11 14:35:54.849,-0.026321,2.46341,8.59951,-0.146527,-0.0941468,0.00358873,0
2024-12-11 14:35:54.851,0.0167498,2.43709,8.66172,-0.155079,-0.124078,-0.00496313,0
2024-12-11 14:35:54.855,0.0741775,2.3988,8.74337,-0.166685,-0.152788,-0.0116825,0
2024-12-11 14:35:54.857,0.131605,2.35573,8.83669,-0.174626,-0.176611,-0.0165692,0
2024-12-11 14:35:54.858,0.191426,2.32941,8.92523,-0.181956,-0.202267,-0.0226777,0
2024-12-11 14:35:54.861,0.244068,2.31506,9.00898,-0.189286,-0.221203,-0.0281753,0
2024-12-11 14:35:54.863,0.287438,2.28634,9.09751,-0.192341,-0.238307,-0.0324513,0
2024-12-11 14:35:54.866,0.352044,2.27438,9.19083,-0.193562,-0.252356,-0.0355055,0
2024-12-11 14:35:54.868,0.3999,2.28634,9.28206,-0.195395,-0.262741,-0.0379489,0
2024-12-11 14:35:54.870,0.452543,2.27916,9.35863,-0.194784,-0.271903,-0.037338,0
2024-12-11 14:35:54.872,0.52672,2.25763,9.44477,-0.192341,-0.274958,-0.0385597,0
2024-12-11 14:35:54.875,0.60329,2.24327,9.54048,-0.191119,-0.27679,-0.0391706,0
2024-12-11 14:35:54.877,0.667897,2.22413,9.61945,-0.186232,-0.272514,-0.0385597,0
2024-12-11 14:35:54.881,0.718146,2.20977,9.69362,-0.175848,-0.250524,-0.0367272,0
2024-12-11 14:35:54.882,0.770788,2.21934,9.7678,-0.175848,-0.250524,-0.0367272,0
2024-12-11 14:35:54.887,0.842872,2.21695,9.86142,-0.158133,-0.216316,-0.0300079,0
2024-12-11 14:35:54.888,0.842872,2.21695,9.86142,-0.146527,-0.192493,-0.0238994,0
2024-12-11 14:35:54.890,0.8668,2.23609,9.88296,-0.146527,-0.192493,-0.0238994,0
2024-12-11 14:35:54.891,0.878764,2.25763,9.90928,-0.13431,-0.169892,-0.0159584,0
2024-12-11 14:35:54.894,0.876371,2.27438,9.88535,-0.123315,-0.147901,-0.00618483,0
2024-12-11 14:35:54.897,0.876371,2.30309,9.84467,-0.111709,-0.124078,0.00236703,0
2024-12-11 14:35:54.898,0.885943,2.32702,9.80369,-0.100103,-0.0996445,0.0158057,0
2024-12-11 14:35:54.901,0.88355,2.34616,9.7343,-0.0909399,-0.0794865,0.0274118,0
2024-12-11 14:35:54.903,0.873978,2.4012,9.64337,-0.0848314,-0.0568851,0.0414613,0
2024-12-11 14:35:54.905,0.862014,2.4658,9.55005,-0.0787229,-0.0403923,0.0536782,0
2024-12-11 14:35:54.908,0.864407,2.50409,9.47348,-0.0762796,-0.0269536,0.066506,0
2024-12-11 14:35:54.911,0.873978,2.54985,9.39452,-0.0768904,-0.0153475,0.0793338,0
2024-12-11 14:35:54.917,1.0008,2.70299,9.14776,-0.0884965,0.00114534,0.108654,0
2024-12-11 14:35:54.918,1.0008,2.70299,9.14776,-0.0884965,0.00114534,0.108654,0
2024-12-11 14:35:54.921,1.06062,2.75803,9.08076,-0.1056,-0.00496313,0.115374,0
2024-12-11 14:35:54.922,1.12044,2.79871,9.0353,-0.1056,-0.00496313,0.115374,0
2024-12-11 14:35:54.923,1.12044,2.79871,9.0353,-0.118428,-0.0110716,0.114763,0
2024-12-11 14:35:54.925,1.1659,2.84178,8.98026,-0.118428,-0.0110716,0.114763,0
2024-12-11 14:35:54.927,1.18265,2.91835,8.92762,-0.133088,-0.0196235,0.114152,0
2024-12-11 14:35:54.929,1.2018,3.0021,8.89173,-0.149581,-0.0312296,0.111709,0
2024-12-11 14:35:54.932,1.2329,3.08345,8.85344,-0.186843,-0.0568851,0.104379,0
2024-12-11 14:35:54.935,1.28076,3.15314,8.81277,-0.208223,-0.0678804,0.100103,0
2024-12-11 14:35:54.937,1.34058,3.20339,8.79841,-0.230824,-0.0800973,0.0933833,0
2024-12-11 14:35:54.938,1.41266,3.24646,8.77448,-0.230824,-0.0800973,0.0933833,0
2024-12-11 14:35:54.941,1.47966,3.28714,8.75294,-0.255258,-0.0917034,0.0860531,0
2024-12-11 14:35:54.944,1.51316,3.33739,8.74577,-0.30718,-0.112472,0.0658951,0
2024-12-11 14:35:54.946,1.54666,3.38046,8.74577,-0.30718,-0.112472,0.0658951,0
2024-12-11 14:35:54.948,1.59212,3.41635,8.75294,-0.33589,-0.123468,0.0518457,0
2024-12-11 14:35:54.951,1.6328,3.44985,8.75534,-0.399418,-0.146069,0.0255792,0
2024-12-11 14:35:54.952,1.65673,3.47378,8.77209,-0.399418,-0.146069,0.0255792,0
2024-12-11 14:35:54.956,1.6352,3.50489,8.81037,-0.463557,-0.176,-0.00251974,0
2024-12-11 14:35:54.957,1.60648,3.53599,8.87498,-0.463557,-0.176,-0.00251974,0
2024-12-11 14:35:54.961,1.6328,3.54317,8.96112,-0.529528,-0.203488,-0.0312296,0
2024-12-11 14:35:54.963,1.71177,3.57906,9.04965,-0.560681,-0.215095,-0.0465007,0
2024-12-11 14:35:54.965,1.80509,3.59342,9.14297,-0.560681,-0.215095,-0.0465007,0
2024-12-11 14:35:54.967,1.84098,3.58624,9.24587,-0.593056,-0.220592,-0.0648262,0
2024-12-11 14:35:54.969,1.85055,3.57667,9.37538,-0.593056,-0.220592,-0.0648262,0
2024-12-11 14:35:54.972,1.86969,3.55992,9.52134,-0.651698,-0.235863,-0.100255,0
2024-12-11 14:35:54.974,1.8673,3.55514,9.67209,-0.675521,-0.243194,-0.119802,0
2024-12-11 14:35:54.977,1.83141,3.54796,9.81087,-0.719502,-0.263352,-0.149734,0
2024-12-11 14:35:54.979,1.79073,3.55753,9.94756,-0.719502,-0.263352,-0.149734,0
2024-12-11 14:35:54.981,1.75962,3.56231,10.0959,-0.73966,-0.271293,-0.163173,0
2024-12-11 14:35:54.983,1.70459,3.54317,10.2371,-0.757374,-0.276179,-0.172946,0
2024-12-11 14:35:54.985,1.63041,3.5336,10.3615,-0.772645,-0.281066,-0.178444,0
2024-12-11 14:35:54.988,1.55384,3.55274,10.4647,-0.772645,-0.281066,-0.178444,0
2024-12-11 14:35:54.991,1.50359,3.55035,10.5676,-0.801966,-0.284731,-0.183941,0
2024-12-11 14:35:54.993,1.5012,3.51924,10.7064,-0.801966,-0.284731,-0.183941,0
2024-12-11 14:35:54.995,1.50598,3.49053,10.8739,-0.806853,-0.281677,-0.183331,0
2024-12-11 14:35:54.997,1.52513,3.45703,11.0273,-0.809296,-0.280455,-0.183331,0
2024-12-11 14:35:55.000,1.54666,3.42353,11.1517,-0.808075,-0.280455,-0.185774,0
2024-12-11 14:35:55.002,1.55862,3.39242,11.2666,-0.801355,-0.273736,-0.187606,0
2024-12-11 14:35:55.004,1.56102,3.36132,11.3671,-0.790971,-0.263962,-0.186996,0
2024-12-11 14:35:55.007,1.5347,3.34696,11.4532,-0.779976,-0.248691,-0.185163,0
2024-12-11 14:35:55.009,1.50359,3.33739,11.5229,-0.762872,-0.227922,-0.183331,0
2024-12-11 14:35:55.014,1.42941,3.335,11.6737,-0.719502,-0.170503,-0.179665,0
2024-12-11 14:35:55.014,1.42941,3.335,11.6737,-0.719502,-0.170503,-0.179665,0
2024-12-11 14:35:55.017,1.38844,3.34935,11.6976,-0.663304,-0.0984228,-0.168059,0
2024-12-11 14:35:55.018,1.33101,3.3661,11.6928,-0.663304,-0.0984228,-0.168059,0
2024-12-11 14:35:55.021,1.25444,3.39003,11.6258,-0.63154,-0.0562743,-0.158286,0
2024-12-11 14:35:55.023,1.16351,3.40917,11.5277,-0.600997,-0.0122933,-0.149734,0
2024-12-11 14:35:55.025,1.0654,3.43789,11.4078,-0.572287,0.0310769,-0.138128,0
2024-12-11 14:35:55.028,0.984048,3.46182,11.2355,-0.54541,0.0720036,-0.124689,0
2024-12-11 14:35:55.030,0.933799,3.46899,11.0704,-0.518533,0.109876,-0.112472,0
2024-12-11 14:35:55.034,0.885943,3.48574,10.9361,-0.49471,0.14897,-0.0990336,0
2024-12-11 14:35:55.035,0.833001,3.51207,10.8236,-0.472109,0.188675,-0.0880384,0
2024-12-11 14:35:55.038,0.797109,3.54796,10.7088,-0.448896,0.22044,-0.0800973,0
2024-12-11 14:35:55.040,0.756431,3.61017,10.5796,-0.428738,0.250371,-0.0745997,0
2024-12-11 14:35:55.042,0.684646,3.67029,10.4121,-0.412856,0.276637,-0.0672696,0
2024-12-11 14:35:55.045,0.629611,3.70858,10.2227,-0.398196,0.296185,-0.0611611,0
2024-12-11 14:35:55.048,0.632004,3.73011,10.0337,-0.389033,0.310234,-0.0550526,0
2024-12-11 14:35:55.049,0.646361,3.73968,9.87817,-0.383536,0.320618,-0.0538309,0
2024-12-11 14:35:55.051,0.646361,3.74208,9.7678,-0.37926,0.329781,-0.0544418,0
2024-12-11 14:35:55.054,0.617647,3.76122,9.69362,-0.374373,0.339555,-0.0587177,0
2024-12-11 14:35:55.056,0.596112,3.78275,9.6362,-0.367654,0.351161,-0.0599394,0
2024-12-11 14:35:55.058,0.565005,3.81147,9.58116,-0.363989,0.363989,-0.065437,0
2024-12-11 14:35:55.062,0.519542,3.84736,9.5357,-0.360324,0.374984,-0.0703238,0
2024-12-11 14:35:55.063,0.459721,3.85932,9.50459,-0.352993,0.383536,-0.073378,0
2024-12-11 14:35:55.067,0.390329,3.87129,9.47588,-0.340776,0.40125,-0.077654,0
2024-12-11 14:35:55.068,0.332901,3.88804,9.42563,-0.340776,0.40125,-0.077654,0
2024-12-11 14:35:55.071,0.275175,3.9,9.37538,-0.323062,0.417132,-0.0800973,0
2024-12-11 14:35:55.074,0.217747,3.90239,9.3347,-0.316953,0.423241,-0.0819299,0
2024-12-11 14:35:55.075,0.232104,3.85932,9.29402,-0.316953,0.423241,-0.0819299,0
2024-12-11 14:35:55.077,0.316152,3.78515,9.26531,-0.309012,0.430571,-0.0892601,0
2024-12-11 14:35:55.080,0.275175,3.78036,9.25065,-0.303515,0.434236,-0.101477,0
2024-12-11 14:35:55.084,-0.100499,3.94547,9.18126,-0.284578,0.43729,-0.106975,0
2024-12-11 14:35:55.085,-0.100499,3.94547,9.18126,-0.284578,0.43729,-0.106975,0
2024-12-11 14:35:55.088,-0.16989,3.96461,9.1669,-0.272362,0.428128,-0.104531,0
2024-12-11 14:35:55.089,-0.200997,3.96461,9.15733,-0.272362,0.428128,-0.104531,0
2024-12-11 14:35:55.092,-0.234497,3.95743,9.1358,-0.262588,0.423241,-0.104531,0
2024-12-11 14:35:55.094,-0.246461,3.92872,9.11187,-0.253425,0.417743,-0.106364,0
2024-12-11 14:35:55.097,-0.217747,3.87129,9.08794,-0.236932,0.406748,-0.11064,0
2024-12-11 14:35:55.099,-0.181855,3.82582,9.04248,-0.236932,0.406748,-0.11064,0
2024-12-11 14:35:55.101,-0.16989,3.7995,9.0018,-0.229602,0.400029,-0.11797,0
2024-12-11 14:35:55.103,-0.191426,3.78036,8.98266,-0.219829,0.396364,-0.121024,0
2024-12-11 14:35:55.106,-0.227318,3.7684,8.94916,-0.212498,0.391477,-0.127743,0
2024-12-11 14:35:55.108,-0.267996,3.73729,8.90848,-0.207612,0.381092,-0.131409,0
2024-12-11 14:35:55.111,-0.311366,3.71815,8.88455,-0.200892,0.368265,-0.135074,0
2024-12-11 14:35:55.113,-0.320937,3.68465,8.87498,-0.197227,0.356658,-0.13935,0
2024-12-11 14:35:55.115,-0.328116,3.65593,8.86541,-0.190508,0.341387,-0.144847,0
2024-12-11 14:35:55.117,-0.328116,3.63171,8.85584,-0.189897,0.319397,-0.149123,0
2024-12-11 14:35:55.121,-0.328116,3.58864,8.86541,-0.187454,0.2858,-0.162562,0
2024-12-11 14:35:55.122,-0.354437,3.54796,8.85584,-0.187454,0.2858,-0.162562,0
2024-12-11 14:35:55.124,-0.402293,3.50728,8.84148,-0.186843,0.265642,-0.168059,0
2024-12-11 14:35:55.128,-0.457328,3.48096,8.86302,-0.1844,0.247928,-0.17539,0
2024-12-11 14:35:55.134,-0.533899,3.42353,8.99462,-0.181956,0.195395,-0.188828,0
2024-12-11 14:35:55.134,-0.533899,3.42353,8.99462,-0.181956,0.195395,-0.188828,0
2024-12-11 14:35:55.136,-0.533899,3.42353,9.03291,-0.180734,0.179513,-0.194326,0
2024-12-11 14:35:55.137,-0.548256,3.37089,9.03291,-0.178291,0.165463,-0.199213,0
2024-12-11 14:35:55.140,-0.574577,3.32064,9.05444,-0.178291,0.165463,-0.199213,0
2024-12-11 14:35:55.146,-0.706182,3.18425,9.10948,-0.172183,0.127591,-0.201045,0
2024-12-11 14:35:55.146,-0.706182,3.18425,9.10948,-0.172183,0.127591,-0.201045,0
2024-12-11 14:35:55.147,-0.706182,3.18425,9.10948,-0.172183,0.127591,-0.201045,0
2024-12-11 14:35:55.148,-0.732503,3.14118,9.14297,-0.169739,0.115374,-0.198602,0
2024-12-11 14:35:55.150,-0.74686,3.09332,9.18605,-0.167907,0.104989,-0.188828,0
2024-12-11 14:35:55.153,-0.766002,3.0667,9.19562,-0.164852,0.0921616,-0.18272,0
2024-12-11 14:35:55.160,-0.811466,2.9662,9.3012,-0.161187,0.0640626,-0.150345,0
2024-12-11 14:35:55.160,-0.811466,2.9662,9.3012,-0.161187,0.0640626,-0.150345,0
2024-12-11 14:35:55.160,-0.811466,2.9662,9.3012,-0.161187,0.0640626,-0.150345,0
2024-12-11 14:35:55.167,-0.74686,2.91835,9.60748,-0.14836,0.0494023,-0.111861,0
2024-12-11 14:35:55.168,-0.74686,2.91835,9.60748,-0.14836,0.0494023,-0.111861,0
2024-12-11 14:35:55.169,-0.718146,2.88006,9.69123,-0.14164,0.0512348,-0.0972011,0
2024-12-11 14:35:55.169,-0.718146,2.88006,9.69123,-0.14164,0.0512348,-0.0972011,0
2024-12-11 14:35:55.174,-0.718146,2.81306,9.85664,-0.126369,0.0683385,-0.065437,0
2024-12-11 14:35:55.175,-0.718146,2.81306,9.85664,-0.115985,0.0805555,-0.0483333,0
2024-12-11 14:35:55.176,-0.720539,2.78196,9.94517,-0.115985,0.0805555,-0.0483333,0
2024-12-11 14:35:55.179,-0.744467,2.75324,10.0433,-0.101324,0.094605,-0.0281753,0
2024-12-11 14:35:55.181,-0.773181,2.72931,10.1222,-0.0817772,0.109265,-0.0104608,0
2024-12-11 14:35:55.183,-0.773181,2.71496,10.2012,-0.0616192,0.12698,0.00419957,0
2024-12-11 14:35:55.186,-0.744467,2.67189,10.2778,-0.0396287,0.139197,0.0219141,0
2024-12-11 14:35:55.188,-0.722932,2.60249,10.3256,-0.0213033,0.144694,0.0408504,0
2024-12-11 14:35:55.190,-0.708575,2.55942,10.3783,-0.0213033,0.144694,0.0408504,0
2024-12-11 14:35:55.193,-0.670289,2.56182,10.4551,0.0226777,0.14897,0.0854423,0
2024-12-11 14:35:55.195,-0.608076,2.58574,10.5532,0.0428357,0.152025,0.109265,0
2024-12-11 14:35:55.198,-0.538684,2.62164,10.6537,0.0642153,0.166685,0.131867,0
2024-12-11 14:35:55.200,-0.490828,2.66231,10.7399,0.0892601,0.183789,0.153246,0
2024-12-11 14:35:55.202,-0.462114,2.69342,10.8069,0.111251,0.200892,0.168517,0
2024-12-11 14:35:55.204,-0.414257,2.71974,10.8547,0.133852,0.223494,0.1844,0
2024-12-11 14:35:55.207,-0.368794,2.76281,10.8691,0.156453,0.244263,0.198449,0
2024-12-11 14:35:55.209,-0.368794,2.81306,10.8643,0.179055,0.262588,0.210666,0
2024-12-11 14:35:55.213,-0.385544,2.84895,10.8356,0.200434,0.27847,0.22105,0
2024-12-11 14:35:55.215,-0.41665,2.88006,10.7901,0.238307,0.296795,0.232046,0
2024-12-11 14:35:55.216,-0.459721,2.91356,10.7303,0.238307,0.296795,0.232046,0
2024-12-11 14:35:55.220,-0.507577,2.92792,10.6514,0.26946,0.306569,0.238154,0
2024-12-11 14:35:55.222,-0.567398,2.94706,10.5676,0.26946,0.306569,0.238154,0
2024-12-11 14:35:55.223,-0.605683,2.97817,10.4647,0.279844,0.308401,0.24243,0
2024-12-11 14:35:55.226,-0.648754,2.99013,10.3591,0.289007,0.30718,0.244263,0
2024-12-11 14:35:55.228,-0.701396,2.99731,10.273,0.293894,0.305347,0.247928,0
2024-12-11 14:35:55.230,-0.742074,3.00449,10.1964,0.293283,0.303515,0.253425,0
2024-12-11 14:35:55.233,-0.789931,3.02124,10.1342,0.291451,0.29985,0.258923,0
2024-12-11 14:35:55.235,-0.811466,3.03559,10.1175,0.290229,0.294352,0.263199,0
2024-12-11 14:35:55.238,-0.835394,3.0332,10.1198,0.285953,0.290076,0.269307,0
2024-12-11 14:35:55.240,-0.859622,3.04277,10.1079,0.282288,0.284578,0.274805,0
2024-12-11 14:35:55.243,-0.847657,3.04277,10.1198,0.26946,0.27847,0.288244,0
2024-12-11 14:35:55.244,-0.837787,3.0332,10.1414,0.26946,0.27847,0.288244,0
2024-12-11 14:35:55.248,-0.82343,3.03799,10.1533,0.260297,0.279081,0.302293,0
2024-12-11 14:35:55.249,-0.809073,3.03799,10.1581,0.260297,0.279081,0.302293,0
2024-12-11 14:35:55.253,-0.80668,3.05474,10.1653,0.246859,0.279692,0.318786,0
2024-12-11 14:35:55.255,-0.799502,3.08854,10.2084,0.246859,0.279692,0.318786,0
2024-12-11 14:35:55.256,-0.780359,3.10768,10.2323,0.241972,0.287022,0.327338,0
2024-12-11 14:35:55.260,-0.780359,3.11486,10.2538,0.23342,0.296795,0.346885,0
2024-12-11 14:35:55.263,-0.785145,3.05952,10.3783,0.230366,0.303515,0.358491,0
2024-12-11 14:35:55.264,-0.789931,3.05952,10.3783,0.227922,0.307791,0.368265,0
2024-12-11 14:35:55.267,-0.782752,3.05474,10.4216,0.227922,0.307791,0.368265,0
2024-12-11 14:35:55.268,-0.76361,3.04995,10.4767,0.227922,0.310845,0.377427,0
2024-12-11 14:35:55.270,-0.751645,3.04517,10.57,0.230366,0.313288,0.38659,0
2024-12-11 14:35:55.274,-0.749253,3.03799,10.6633,0.235863,0.315121,0.396364,0
2024-12-11 14:35:55.275,-0.754038,3.03799,10.7279,0.243804,0.318175,0.40797,0
2024-12-11 14:35:55.277,-0.727717,3.04038,10.7877,0.249913,0.320618,0.418354,0
2024-12-11 14:35:55.281,-0.679861,3.02602,10.85,0.281677,0.327338,0.440345,0
2024-12-11 14:35:55.282,-0.646361,3.02363,10.9289,0.281677,0.327338,0.440345,0
2024-12-11 14:35:55.286,-0.612862,3.03799,11.0058,0.322604,0.329781,0.464778,0
2024-12-11 14:35:55.287,-0.591326,3.05474,11.0536,0.322604,0.329781,0.464778,0
2024-12-11 14:35:55.289,-0.574577,3.08345,11.0824,0.322604,0.329781,0.464778,0
2024-12-11 14:35:55.292,-0.538684,3.12204,11.0871,0.368417,0.325505,0.488601,0
2024-12-11 14:35:55.295,-0.474078,3.15075,11.0871,0.416063,0.309623,0.517922,0
2024-12-11 14:35:55.296,-0.383151,3.17946,11.0776,0.416063,0.309623,0.517922,0
2024-12-11 14:35:55.300,-0.292223,3.21296,11.0345,0.460044,0.283968,0.536248,0
2024-12-11 14:35:55.301,-0.196211,3.23928,10.9843,0.460044,0.283968,0.536248,0
2024-12-11 14:35:55.303,-0.0933201,3.25843,10.9385,0.479591,0.268696,0.544799,0
2024-12-11 14:35:55.306,-0.00717847,3.27996,10.893,0.493641,0.250982,0.550297,0
2024-12-11 14:35:55.309,0.0693919,3.28953,10.8428,0.508301,0.231435,0.55213,0
2024-12-11 14:35:55.310,0.124427,3.31585,10.7758,0.518686,0.213109,0.555184,0
2024-12-11 14:35:55.313,0.165105,3.35175,10.6729,0.526627,0.198449,0.553351,0
2024-12-11 14:35:55.315,0.205783,3.39482,10.5772,0.533957,0.183178,0.551519,0
2024-12-11 14:35:55.318,0.251246,3.44985,10.515,0.538233,0.167296,0.549686,0
2024-12-11 14:35:55.321,0.301795,3.49771,10.4551,0.541898,0.152025,0.547854,0
2024-12-11 14:35:55.322,0.349651,3.55753,10.3977,0.54373,0.14164,0.541745,0
2024-12-11 14:35:55.326,0.395115,3.6006,10.3232,0.54373,0.132477,0.53808,0
2024-12-11 14:35:55.327,0.438186,3.64128,10.2515,0.542509,0.123926,0.533193,0
2024-12-11 14:35:55.329,0.502792,3.68943,10.1797,0.537622,0.117206,0.528917,0
2024-12-11 14:35:55.332,0.565005,3.71336,10.1198,0.527238,0.114152,0.521587,0
2024-12-11 14:35:55.334,0.615255,3.71815,10.1007,0.518686,0.115985,0.51609,0
2024-12-11 14:35:55.337,0.665504,3.7349,10.0863,0.497917,0.128202,0.500818,0
2024-12-11 14:35:55.340,0.687039,3.78036,10.0935,0.489365,0.131867,0.492267,0
2024-12-11 14:35:55.342,0.682254,3.81625,10.1175,0.477759,0.138586,0.481882,0
2024-12-11 14:35:55.343,0.768395,3.766,10.1294,0.477759,0.138586,0.481882,0
2024-12-11 14:35:55.346,0.816252,3.74208,10.1246,0.466153,0.14897,0.470276,0
2024-12-11 14:35:55.348,0.699003,3.81865,10.1055,0.453936,0.159966,0.462335,0
2024-12-11 14:35:55.350,0.541077,3.92393,10.1151,0.442941,0.171572,0.459281,0
2024-12-11 14:35:55.353,0.402293,4.06032,10.1486,0.433167,0.176459,0.45867,0
2024-12-11 14:35:55.355,0.289831,4.18953,10.151,0.417896,0.176459,0.464168,0
2024-12-11 14:35:55.357,0.191426,4.29033,10.1079,0.403236,0.17768,0.47333,0
2024-12-11 14:35:55.361,0.133998,4.35494,10.0457,0.368417,0.173404,0.49471,0
2024-12-11 14:35:55.363,0.136391,4.36212,10.005,0.34887,0.167907,0.505094,0
2024-12-11 14:35:55.366,0.217747,4.32144,10.0026,0.34887,0.167907,0.505094,0
2024-12-11 14:35:55.367,0.354437,4.26162,10.0146,0.328101,0.165463,0.513646,0
2024-12-11 14:35:55.373,0.541077,4.22094,10.084,0.264573,0.174626,0.513646,0
2024-12-11 14:35:55.373,0.541077,4.22094,10.084,0.264573,0.174626,0.513646,0
2024-12-11 14:35:55.375,0.536291,4.24487,10.1677,0.264573,0.174626,0.513646,0
2024-12-11 14:35:55.376,0.505185,4.27119,10.2778,0.246248,0.177069,0.511814,0
2024-12-11 14:35:55.379,0.476471,4.29272,10.3857,0.229755,0.175848,0.509981,0
2024-12-11 14:35:55.381,0.438186,4.29272,10.5054,0.212651,0.171572,0.50937,0
2024-12-11 14:35:55.383,0.411865,4.27597,10.6298,0.199213,0.169128,0.507538,0
2024-12-11 14:35:55.386,0.397508,4.25205,10.7495,0.19005,0.167907,0.50937,0
2024-12-11 14:35:55.388,0.364008,4.21137,10.8643,0.18272,0.166685,0.511203,0
2024-12-11 14:35:55.390,0.328116,4.17278,10.9361,0.174168,0.169128,0.513035,0
2024-12-11 14:35:55.393,0.287438,4.14168,10.9986,0.168059,0.172183,0.519144,0
2024-12-11 14:35:55.395,0.270389,4.11536,11.068,0.161951,0.178902,0.526474,0
2024-12-11 14:35:55.399,0.267996,4.08664,11.1254,0.147291,0.188675,0.544189,0
2024-12-11 14:35:55.400,0.256032,4.06032,11.1948,0.147291,0.188675,0.544189,0
2024-12-11 14:35:55.403,0.241675,4.04357,11.257,0.140571,0.192341,0.551519,0
2024-12-11 14:35:55.405,0.253639,4.01964,11.2953,0.130798,0.197838,0.560071,0
2024-12-11 14:35:55.408,0.285045,3.99332,11.324,0.122857,0.203336,0.570455,0
2024-12-11 14:35:55.409,0.308973,3.96461,11.3527,0.122857,0.203336,0.570455,0
2024-12-11 14:35:55.412,0.320937,3.94547,11.3934,0.0984228,0.21372,0.583283,0
2024-12-11 14:35:55.414,0.316152,3.92393,11.4317,0.0880384,0.217385,0.586948,0
2024-12-11 14:35:55.416,0.294616,3.89043,11.4891,0.0739889,0.219829,0.592445,0
2024-12-11 14:35:55.419,0.246461,3.88086,11.5804,0.0617719,0.22044,0.600387,0
2024-12-11 14:35:55.421,0.184247,3.88804,11.645,0.0507767,0.22777,0.608938,0
2024-12-11 14:35:55.423,0.100499,3.92393,11.7,0.0385597,0.233267,0.61749,0
2024-12-11 14:35:55.426,0.00239282,3.96222,11.7455,0.0269536,0.238765,0.63154,0
2024-12-11 14:35:55.429,-0.0933201,3.99811,11.7742,0.0177909,0.247317,0.647422,0
2024-12-11 14:35:55.430,-0.16989,4.04357,11.8173,0.00862822,0.257701,0.66025,0
2024-12-11 14:35:55.433,-0.222533,4.08186,11.8699,-0.00297788,0.269307,0.676132,0
2024-12-11 14:35:55.435,-0.263211,4.12971,11.913,-0.0121406,0.279692,0.688349,0
2024-12-11 14:35:55.438,-0.270389,4.17039,11.9584,-0.0255792,0.286411,0.6969,0
2024-12-11 14:35:55.440,-0.260818,4.19671,12.0039,-0.038407,0.286411,0.700565,0
2024-12-11 14:35:55.443,-0.224925,4.22094,12.023,-0.0671168,0.277859,0.697511,0
2024-12-11 14:35:55.445,-0.174676,4.24247,12.0254,-0.0671168,0.277859,0.697511,0
2024-12-11 14:35:55.448,-0.11007,4.22812,12.0565,-0.106211,0.245484,0.666358,0
2024-12-11 14:35:55.452,0.0717847,4.14168,12.1741,-0.127591,0.219218,0.644368,0
2024-12-11 14:35:55.453,0.0717847,4.14168,12.1741,-0.152025,0.186232,0.608938,0
2024-12-11 14:35:55.454,0.179462,4.06511,12.2387,-0.152025,0.186232,0.608938,0
2024-12-11 14:35:55.456,0.285045,3.95982,12.32,-0.178902,0.14836,0.57412,0
2024-12-11 14:35:55.459,0.373579,3.83779,12.4182,-0.208833,0.104989,0.534415,0
2024-12-11 14:35:55.461,0.457328,3.66311,12.5043,-0.239987,0.0603975,0.493488,0
2024-12-11 14:35:55.463,0.557827,3.4666,12.6458,-0.270529,0.010308,0.448286,0
2024-12-11 14:35:55.466,0.665504,3.27278,12.8731,-0.301071,-0.0385597,0.403083,0
2024-12-11 14:35:55.469,0.773181,3.05474,13.1339,-0.324894,-0.0898709,0.356658,0
2024-12-11 14:35:55.471,0.869193,2.79871,13.4285,-0.345663,-0.138128,0.311456,0
2024-12-11 14:35:55.473,0.964906,2.51605,13.7614,-0.35788,-0.18272,0.265642,0
2024-12-11 14:35:55.475,1.06062,2.2337,14.1156,-0.362156,-0.221203,0.223494,0
2024-12-11 14:35:55.478,1.14437,1.94387,14.4676,-0.359713,-0.255411,0.1844,0
2024-12-11 14:35:55.481,1.21615,1.6352,14.7906,-0.347496,-0.281066,0.146527,0
2024-12-11 14:35:55.482,1.24726,1.33101,15.0924,-0.327949,-0.29817,0.11232,0
2024-12-11 14:35:55.485,1.23529,1.02473,15.4059,-0.30046,-0.303057,0.0860531,0
2024-12-11 14:35:55.487,1.22094,0.73011,15.6885,-0.261977,-0.295726,0.0622301,0
2024-12-11 14:35:55.489,1.19462,0.462114,15.8848,-0.217385,-0.277401,0.0432938,0
2024-12-11 14:35:55.492,1.16112,0.191426,16.0669,-0.164852,-0.246248,0.0310769,0
2024-12-11 14:35:55.494,1.07976,-0.066999,16.2966,-0.0982701,-0.196769,0.0200816,0
2024-12-11 14:35:55.496,0.936192,-0.275175,16.4737,-0.0213033,-0.130798,0.0164165,0
2024-12-11 14:35:55.499,0.76361,-0.445364,16.5287,0.0648262,-0.0581068,0.0213033,1
2024-12-11 14:35:55.501,0.579362,-0.605683,16.4737,0.152177,0.0176382,0.0347419,0
2024-12-11 14:35:55.504,0.426222,-0.766002,16.3253,0.245026,0.0964375,0.0567324,0
2024-12-11 14:35:55.506,0.272782,-0.921835,16.0717,0.334821,0.176459,0.0836097,0
2024-12-11 14:35:55.508,0.0909273,-1.05583,15.7005,0.423394,0.251593,0.115985,0
2024-12-11 14:35:55.511,-0.0693919,-1.1348,15.2599,0.504025,0.321229,0.152635,0
2024-12-11 14:35:55.513,-0.148355,-1.11326,14.8217,0.584046,0.394531,0.189286,0
2024-12-11 14:35:55.516,-0.138784,-1.1013,14.3982,0.722709,0.524031,0.25648,0
2024-12-11 14:35:55.518,-0.148355,-1.15633,13.9528,0.722709,0.524031,0.25648,0
2024-12-11 14:35:55.520,-0.191426,-1.16112,13.4477,0.784404,0.575342,0.289465,0
2024-12-11 14:35:55.523,-0.210568,-1.10848,12.9353,0.883362,0.670634,0.363989,0
2024-12-11 14:35:55.526,-0.193819,-1.00558,12.4469,0.883362,0.670634,0.363989,0
2024-12-11 14:35:55.527,-0.150748,-0.845265,11.9345,0.920012,0.723167,0.398196,0
2024-12-11 14:35:55.529,-0.124427,-0.667897,11.3982,0.949944,0.779976,0.425073,0
2024-12-11 14:35:55.532,-0.131605,-0.488435,10.8763,0.969491,0.842969,0.448896,0
2024-12-11 14:35:55.534,-0.167498,-0.32333,10.34,0.98354,0.905886,0.467222,0
2024-12-11 14:35:55.537,-0.212961,-0.150748,9.79652,0.986595,0.965139,0.484326,0
2024-12-11 14:35:55.539,-0.239282,0.0215354,9.27249,0.980486,1.01462,0.491656,0
2024-12-11 14:35:55.541,-0.248854,0.196211,8.7673,0.966437,1.0586,0.49471,0
2024-12-11 14:35:55.544,-0.227318,0.373579,8.29801,0.938949,1.09464,0.492267,0
2024-12-11 14:35:55.546,-0.191426,0.519542,7.85025,0.902909,1.12152,0.481882,0
2024-12-11 14:35:55.548,-0.181855,0.655932,7.44557,0.86076,1.13984,0.466611,0
2024-12-11 14:35:55.551,-0.184247,0.80668,7.08425,0.809449,1.15145,0.447675,0
2024-12-11 14:35:55.554,-0.193819,0.94337,6.74417,0.68789,1.1545,0.391477,0
2024-12-11 14:35:55.555,-0.239282,1.07258,6.47378,0.68789,1.1545,0.391477,0
2024-12-11 14:35:55.558,-0.313759,1.20897,6.27488,0.68789,1.1545,0.391477,0
2024-12-11 14:35:55.560,-0.361615,1.30947,6.07627,0.554726,1.13923,0.326116,0
2024-12-11 14:35:55.562,-0.373579,1.39083,5.89442,0.487532,1.12213,0.290076,0
2024-12-11 14:35:55.566,-0.366401,1.45813,5.76252,0.416063,1.09647,0.24976,0
2024-12-11 14:35:55.568,-0.359223,1.51795,5.6692,0.26946,1.03111,0.165463,0
2024-12-11 14:35:55.569,-0.368794,1.56341,5.62852,0.26946,1.03111,0.165463,0
2024-12-11 14:35:55.572,-0.395115,1.58973,5.63091,0.199213,0.989573,0.118428,0
2024-12-11 14:35:55.575,-0.457328,1.6017,5.67398,0.0605502,0.897335,0.0237467,0
2024-12-11 14:35:55.576,-0.538684,1.60409,5.73141,0.0605502,0.897335,0.0237467,0
2024-12-11 14:35:55.579,-0.648754,1.57059,5.81516,-0.00481042,0.842969,-0.0257319,0
2024-12-11 14:35:55.582,-0.792323,1.51555,5.94228,-0.0658951,0.786084,-0.0745997,0
2024-12-11 14:35:55.584,-0.933799,1.47966,6.07149,-0.122093,0.728054,-0.122857,0
2024-12-11 14:35:55.586,-1.06062,1.44138,6.21745,-0.175237,0.669412,-0.166227,0
2024-12-11 14:35:55.588,-1.1683,1.38604,6.39213,-0.22105,0.609549,-0.21143,0
2024-12-11 14:35:55.592,-1.25922,1.31186,6.58146,-0.258923,0.54541,-0.251135,0
2024-12-11 14:35:55.593,-1.35254,1.24008,6.79442,-0.29313,0.484326,-0.288396,0
2024-12-11 14:35:55.596,-1.45813,1.14915,7.00499,-0.340776,0.363378,-0.357422,0
2024-12-11 14:35:55.599,-1.5682,1.03669,7.20389,-0.359102,0.308401,-0.385521,0
2024-12-11 14:35:55.600,-1.67109,0.921835,7.40728,-0.359102,0.308401,-0.385521,0
2024-12-11 14:35:55.602,-1.75484,0.818644,7.61097,-0.370708,0.257701,-0.410566,0
2024-12-11 14:35:55.606,-1.82662,0.720539,7.82154,-0.380481,0.168517,-0.450271,0
2024-12-11 14:35:55.607,-1.90558,0.629611,8.04646,-0.380481,0.168517,-0.450271,0
2024-12-11 14:35:55.609,-1.98963,0.569791,8.27887,-0.378038,0.130034,-0.466153,0
2024-12-11 14:35:55.612,-2.06381,0.498006,8.49661,-0.370097,0.0939941,-0.477148,0
2024-12-11 14:35:55.615,-2.12842,0.411865,8.69043,-0.344442,0.030466,-0.490587,0
2024-12-11 14:35:55.618,-2.18106,0.349651,8.87737,-0.344442,0.030466,-0.490587,0
2024-12-11 14:35:55.619,-2.22891,0.294616,9.04726,-0.327338,0.00725381,-0.492419,0
2024-12-11 14:35:55.622,-2.3007,0.239282,9.18605,-0.280913,-0.0300079,-0.486311,0
2024-12-11 14:35:55.624,-2.38923,0.181855,9.29642,-0.280913,-0.0300079,-0.486311,0
2024-12-11 14:35:55.627,-2.47777,0.131605,9.38495,-0.232656,-0.0519984,-0.466153,0
2024-12-11 14:35:55.629,-2.5666,0.114855,9.45673,-0.232656,-0.0519984,-0.466153,0
2024-12-11 14:35:55.631,-2.67189,0.0933201,9.53091,-0.205779,-0.0617719,-0.450271,0
2024-12-11 14:35:55.634,-2.78674,0.0646062,9.59552,-0.158133,-0.0752106,-0.405679,0
2024-12-11 14:35:55.635,-2.88006,0.0430708,9.61705,-0.158133,-0.0752106,-0.405679,0
2024-12-11 14:35:55.639,-2.96381,0.026321,9.61466,-0.11293,-0.0880384,-0.349481,0
2024-12-11 14:35:55.640,-3.04995,0.0430708,9.62184,-0.11293,-0.0880384,-0.349481,0
2024-12-11 14:35:55.643,-3.14118,0.0741775,9.64577,-0.0884965,-0.0904818,-0.314052,0
2024-12-11 14:35:55.645,-3.21057,0.0717847,9.65295,-0.0622301,-0.0929251,-0.279844,0
2024-12-11 14:35:55.647,-3.22014,0.0598206,9.63859,-0.0347419,-0.0904818,-0.242583,0
2024-12-11 14:35:55.649,-3.19621,0.0574277,9.60987,-0.0121406,-0.0886492,-0.205321,0
2024-12-11 14:35:55.653,-3.18664,0.0741775,9.56202,0.0281753,-0.0831516,-0.137517,0
2024-12-11 14:35:55.654,-3.16989,0.114855,9.50938,0.0281753,-0.0831516,-0.137517,0
2024-12-11 14:35:55.657,-3.13161,0.143569,9.46391,0.041614,-0.0794865,-0.10392,0
2024-12-11 14:35:55.659,-3.07149,0.181855,9.40888,0.0581068,-0.0764323,-0.0672696,0
2024-12-11 14:35:55.661,-2.98774,0.215354,9.3682,0.073378,-0.0758214,-0.037338,0
2024-12-11 14:35:55.665,-2.87288,0.227318,9.34666,0.0837624,-0.0794865,-0.00740652,0
2024-12-11 14:35:55.666,-2.74128,0.253639,9.32274,0.093536,-0.085595,0.0176382,0
2024-12-11 14:35:55.668,-2.61446,0.30658,9.29163,0.10392,-0.0898709,0.0420721,0
2024-12-11 14:35:55.671,-2.49691,0.371187,9.26292,0.112472,-0.0953685,0.0616192,0
2024-12-11 14:35:55.673,-2.37488,0.428614,9.25783,0.120413,-0.100866,0.0762796,0
2024-12-11 14:35:55.675,-2.26481,0.498006,9.2339,0.128965,-0.11064,0.0878856,0
2024-12-11 14:35:55.678,-2.14995,0.574577,9.20519,0.135074,-0.116137,0.0994917,0
2024-12-11 14:35:55.680,-2.01356,0.624826,9.17887,0.135074,-0.116137,0.0994917,0
2024-12-11 14:35:55.682,-1.89601,0.672682,9.1358,0.148512,-0.121635,0.114763,0
2024-12-11 14:35:55.685,-1.79312,0.739681,9.0999,0.152788,-0.121024,0.117817,0
2024-12-11 14:35:55.687,-1.71177,0.804287,9.05923,0.158286,-0.114916,0.119039,0
2024-12-11 14:35:55.689,-1.64477,0.859622,8.99941,0.163783,-0.108196,0.120261,0
2024-12-11 14:35:55.693,-1.58495,0.924228,8.92762,0.170503,-0.100866,0.120261,0
2024-12-11 14:35:55.694,-1.55145,0.974477,8.83909,0.172335,-0.0953685,0.11965,0
2024-12-11 14:35:55.697,-1.52991,1.01994,8.73859,0.174168,-0.0886492,0.11965,0
2024-12-11 14:35:55.699,-1.50598,1.04148,8.65454,0.171724,-0.0807082,0.119039,0
2024-12-11 14:35:55.701,-1.48923,1.03908,8.57797,0.168059,-0.0752106,0.121482,0
2024-12-11 14:35:55.704,-1.47009,1.0319,8.51097,0.163173,-0.0672696,0.123926,0
2024-12-11 14:35:55.706,-1.44138,1.02473,8.48465,0.157675,-0.057496,0.125147,0
2024-12-11 14:35:55.708,-1.41266,1.04148,8.48465,0.152177,-0.0465007,0.128202,0
2024-12-11 14:35:55.712,-1.37647,1.05823,8.49661,0.148512,-0.0379489,0.131256,0
2024-12-11 14:35:55.713,-1.36451,1.05105,8.51097,0.149734,-0.0275645,0.134921,0
2024-12-11 14:35:55.715,-1.3669,1.02473,8.50619,0.150345,-0.0208452,0.141029,0
2024-12-11 14:35:55.718,-1.35254,1.00798,8.47986,0.155842,-0.0147367,0.146527,0
2024-12-11 14:35:55.720,-1.32861,1.00798,8.44158,0.16134,-0.00923906,0.152025,0
2024-12-11 14:35:55.723,-1.31186,0.998405,8.39851,0.166838,-0.00313059,0.157522,0
2024-12-11 14:35:55.725,-1.29272,0.99362,8.33869,0.174779,-0.000687203,0.16302,0
2024-12-11 14:35:55.727,-1.26879,0.972084,8.28365,0.183331,0.000534491,0.169128,0
2024-12-11 14:35:55.731,-1.25683,0.96012,8.24298,0.201656,-0.00374144,0.186843,0
2024-12-11 14:35:55.732,-1.24247,0.967299,8.1999,0.201656,-0.00374144,0.186843,0
2024-12-11 14:35:55.735,-1.2018,0.979263,8.16401,0.223646,-0.0116825,0.203947,0
2024-12-11 14:35:55.737,-1.14676,1.01515,8.11107,0.223646,-0.0116825,0.203947,0
2024-12-11 14:35:55.739,-1.09173,1.05105,8.07996,0.23342,-0.0171801,0.215553,0
2024-12-11 14:35:55.742,-1.02712,1.07258,8.04646,0.244415,-0.0184018,0.224715,0
2024-12-11 14:35:55.744,-0.917049,1.1013,7.96989,0.251135,-0.0232886,0.234489,0
2024-12-11 14:35:55.747,-0.804287,1.11805,7.87179,0.259686,-0.029397,0.250371,0
2024-12-11 14:35:55.748,-0.744467,1.13958,7.76411,0.259686,-0.029397,0.250371,0
2024-12-11 14:35:55.751,-0.706182,1.17069,7.66361,0.26213,-0.0312296,0.25648,0
2024-12-11 14:35:55.753,-0.675075,1.21615,7.57478,0.265184,-0.0287862,0.266864,0
2024-12-11 14:35:55.756,-0.648754,1.27597,7.51735,0.268849,-0.0269536,0.271751,0
2024-12-11 14:35:55.758,-0.605683,1.34536,7.47428,0.268849,-0.0226777,0.280303,0
2024-12-11 14:35:55.761,-0.565005,1.44377,7.42164,0.278623,-0.0122933,0.296185,0
2024-12-11 14:35:55.763,-0.531506,1.52752,7.37378,0.278623,-0.0122933,0.296185,0
2024-12-11 14:35:55.766,-0.507577,1.5993,7.31396,0.289007,-0.0019089,0.30718,0
2024-12-11 14:35:55.767,-0.490828,1.69741,7.23021,0.289007,-0.0019089,0.30718,0
2024-12-11 14:35:55.770,-0.45015,1.8003,7.15364,0.294505,0.000534491,0.313899,0
2024-12-11 14:35:55.772,-0.423829,1.89841,7.07707,0.300613,0.00542127,0.318175,0
2024-12-11 14:35:55.774,-0.407079,1.99202,6.98585,0.303667,0.00664296,0.321229,0
2024-12-11 14:35:55.777,-0.359223,2.09731,6.88056,0.308554,0.00603212,0.32184,0
2024-12-11 14:35:55.779,-0.32333,2.18584,6.76571,0.306722,0.00603212,0.32184,0
2024-12-11 14:35:55.781,-0.297009,2.25763,6.67478,0.304889,0.000534491,0.316953,0
2024-12-11 14:35:55.788,-0.198604,2.52323,6.44716,0.302446,-0.00923906,0.313288,0
2024-12-11 14:35:55.791,-0.191426,2.60728,6.3993,0.285342,-0.0477224,0.2858,0
2024-12-11 14:35:55.791,-0.191426,2.60728,6.3993,0.285342,-0.0477224,0.2858,0
2024-12-11 14:35:55.793,-0.193819,2.71256,6.36581,0.278012,-0.0678804,0.273583,0
2024-12-11 14:35:55.794,-0.193819,2.71256,6.36581,0.26946,-0.0880384,0.260145,0
2024-12-11 14:35:55.796,-0.177069,2.79631,6.3347,0.26946,-0.0880384,0.260145,0
2024-12-11 14:35:55.798,-0.153141,2.8657,6.31795,0.259686,-0.110029,0.243652,0
2024-12-11 14:35:55.800,-0.138784,2.93031,6.32034,0.251135,-0.135684,0.227159,0
2024-12-11 14:35:55.804,-0.129212,2.97817,6.31795,0.232809,-0.188828,0.188675,0
2024-12-11 14:35:55.805,-0.11007,3.02363,6.32273,0.232809,-0.188828,0.188675,0
2024-12-11 14:35:55.807,-0.0909273,3.07149,6.36581,0.224257,-0.212651,0.166685,0
2024-12-11 14:35:55.810,-0.0957129,3.11007,6.43041,0.215705,-0.235253,0.144084,0
2024-12-11 14:35:55.812,-0.114855,3.14357,6.49771,0.209597,-0.253578,0.120871,0
2024-12-11 14:35:55.814,-0.145962,3.18425,6.56471,0.205321,-0.271293,0.100103,0
2024-12-11 14:35:55.818,-0.196211,3.22971,6.59342,0.201656,-0.289007,0.0762796,0
2024-12-11 14:35:55.819,-0.263211,3.27757,6.62931,0.200434,-0.300613,0.0561216,0
2024-12-11 14:35:55.824,-0.366401,3.30868,6.69153,0.197991,-0.314052,0.0219141,0
2024-12-11 14:35:55.825,-0.366401,3.30868,6.69153,0.193715,-0.335431,0.00725381,0
2024-12-11 14:35:55.826,-0.445364,3.335,6.72503,0.193715,-0.335431,0.00725381,0
2024-12-11 14:35:55.828,-0.500399,3.33739,6.75613,0.196769,-0.345205,-0.00557398,0
2024-12-11 14:35:55.831,-0.529113,3.33021,6.78006,0.194326,-0.353146,-0.0171801,0
2024-12-11 14:35:55.833,-0.548256,3.3326,6.82074,0.191272,-0.36292,-0.0269536,0
2024-12-11 14:35:55.836,-0.548256,3.34218,6.87578,0.190661,-0.370861,-0.0342838,0
2024-12-11 14:35:55.839,-0.553041,3.35175,6.9356,0.186385,-0.386743,-0.0519984,0
2024-12-11 14:35:55.841,-0.557827,3.37567,6.96431,0.183331,-0.389186,-0.0617719,0
2024-12-11 14:35:55.843,-0.557827,3.40917,6.97388,0.183331,-0.389186,-0.0617719,0
2024-12-11 14:35:55.845,-0.574577,3.44746,7.00499,0.180887,-0.392851,-0.0691021,0
2024-12-11 14:35:55.847,-0.598505,3.48335,7.034,0.178444,-0.397738,-0.077654,0
2024-12-11 14:35:55.851,-0.610469,3.51446,7.05314,0.178444,-0.397738,-0.077654,0
2024-12-11 14:35:55.854,-0.62004,3.57428,7.14407,0.163783,-0.409955,-0.107585,0
2024-12-11 14:35:55.855,-0.62004,3.57428,7.14407,0.163783,-0.409955,-0.107585,0
2024-12-11 14:35:55.858,-0.634397,3.60539,7.19193,0.158897,-0.414231,-0.120413,0
2024-12-11 14:35:55.859,-0.622433,3.64606,7.24936,0.152177,-0.419118,-0.13263,0
2024-12-11 14:35:55.861,-0.600898,3.67029,7.29721,0.146069,-0.421561,-0.144847,0
2024-12-11 14:35:55.865,-0.574577,3.70379,7.33789,0.135074,-0.42095,-0.172335,0
2024-12-11 14:35:55.866,-0.565005,3.766,7.4025,0.135074,-0.42095,-0.172335,0
2024-12-11 14:35:55.868,-0.584148,3.81386,7.45275,0.128965,-0.42095,-0.189439,0
2024-12-11 14:35:55.872,-0.615255,3.84975,7.49582,0.112472,-0.42095,-0.216927,0
2024-12-11 14:35:55.873,-0.663111,3.89761,7.54128,0.112472,-0.42095,-0.216927,0
2024-12-11 14:35:55.877,-0.708575,3.92632,7.56999,0.104531,-0.417896,-0.230977,0
2024-12-11 14:35:55.878,-0.756431,3.93829,7.61815,0.0959794,-0.408122,-0.245637,0
2024-12-11 14:35:55.880,-0.825823,3.98136,7.68036,0.0874275,-0.396516,-0.260908,0
2024-12-11 14:35:55.884,-0.902692,4.03879,7.74258,0.0764323,-0.385521,-0.273736,0
2024-12-11 14:35:55.885,-0.955334,4.07468,7.81915,0.0672696,-0.378191,-0.286564,0
2024-12-11 14:35:55.887,-0.984048,4.10818,7.89572,0.0526092,-0.372693,-0.299392,0
2024-12-11 14:35:55.890,-1.00798,4.1345,7.95793,0.0330621,-0.369028,-0.310998,0
2024-12-11 14:35:55.892,-1.02473,4.14407,8.00579,0.0129041,-0.366585,-0.326269,0
2024-12-11 14:35:55.894,-1.0343,4.1345,8.04646,-0.0109189,-0.369028,-0.342151,0
2024-12-11 14:35:55.897,-1.04865,4.11536,8.11586,-0.0365745,-0.373915,-0.3562,0
2024-12-11 14:35:55.899,-1.0989,4.10578,8.2023,-0.0652843,-0.38491,-0.372082,0
2024-12-11 14:35:55.901,-1.14197,4.08425,8.32194,-0.0970484,-0.398349,-0.385521,0
2024-12-11 14:35:55.904,-1.1683,4.04596,8.47986,-0.126369,-0.413009,-0.400792,0
2024-12-11 14:35:55.906,-1.20419,3.99332,8.6689,-0.158744,-0.427059,-0.414842,0
2024-12-11 14:35:55.908,-1.25683,3.94068,8.89173,-0.185621,-0.444162,-0.427669,0
2024-12-11 14:35:55.911,-1.31665,3.88804,9.14058,-0.216164,-0.460655,-0.439276,0
2024-12-11 14:35:55.913,-1.37647,3.83061,9.39691,-0.238765,-0.477148,-0.447217,0
2024-12-11 14:35:55.917,-1.42463,3.75883,9.66491,-0.276637,-0.511966,-0.453325,0
2024-12-11 14:35:55.919,-1.45334,3.69183,9.95474,-0.293741,-0.529681,-0.452714,0
2024-12-11 14:35:55.921,-1.49163,3.60539,10.261,-0.293741,-0.529681,-0.452714,0
2024-12-11 14:35:55.924,-1.54666,3.46421,10.5987,-0.30718,-0.552893,-0.447217,0
2024-12-11 14:35:55.925,-1.61845,3.32303,10.9337,-0.30718,-0.552893,-0.447217,0
2024-12-11 14:35:55.928,-1.69023,3.18903,11.2714,-0.304126,-0.559612,-0.441108,0
2024-12-11 14:35:55.931,-1.74287,3.06431,11.6426,-0.294963,-0.563888,-0.429502,0
2024-12-11 14:35:55.932,-1.76919,2.95663,11.9991,-0.281524,-0.566332,-0.416063,0
2024-12-11 14:35:55.934,-1.75723,2.86092,12.332,-0.260755,-0.564499,-0.398349,0
2024-12-11 14:35:55.938,-1.72612,2.77238,12.6386,-0.199671,-0.551671,-0.355589,0
2024-12-11 14:35:55.939,-1.71655,2.69342,12.9233,-0.199671,-0.551671,-0.355589,0
2024-12-11 14:35:55.941,-1.75484,2.63121,13.177,-0.16302,-0.545563,-0.329323,0
2024-12-11 14:35:55.944,-1.80509,2.57857,13.3878,-0.121482,-0.530292,-0.300613,0
2024-12-11 14:35:55.946,-1.83619,2.55703,13.5601,-0.0775012,-0.515631,-0.271293,0
2024-12-11 14:35:55.949,-1.85294,2.54985,13.6917,-0.0286335,-0.499749,-0.240139,0
2024-12-11 14:35:55.952,-1.87208,2.54746,13.7734,0.0764323,-0.469207,-0.176,0
2024-12-11 14:35:55.953,-1.87926,2.55703,13.7949,0.0764323,-0.469207,-0.176,0
2024-12-11 14:35:55.957,-1.86012,2.59053,13.7997,0.169892,-0.442941,-0.111861,0
2024-12-11 14:35:55.958,-1.80269,2.62881,13.7949,0.169892,-0.442941,-0.111861,0
2024-12-11 14:35:55.960,-1.70219,2.68864,13.7758,0.207764,-0.428891,-0.0819299,0
2024-12-11 14:35:55.963,-1.6017,2.76521,13.7276,0.245637,-0.417896,-0.0556635,0
2024-12-11 14:35:55.966,-1.5347,2.85135,13.6798,0.275568,-0.40629,-0.0324513,0
2024-12-11 14:35:55.967,-1.48205,2.95663,13.6223,0.297559,-0.391629,-0.0141258,0
2024-12-11 14:35:55.970,-1.40279,3.05234,13.5434,0.317717,-0.373915,0.00542127,0
2024-12-11 14:35:55.972,-1.34776,3.14596,13.462,0.332988,-0.355589,0.0200816,0
2024-12-11 14:35:55.975,-1.32144,3.24646,13.3831,0.342151,-0.336653,0.0322986,0
2024-12-11 14:35:55.978,-1.28794,3.33739,13.2993,0.350703,-0.290229,0.0530674,0
2024-12-11 14:35:55.980,-1.25444,3.3996,13.1988,0.352535,-0.268238,0.0622301,0
2024-12-11 14:35:55.981,-1.22094,3.44985,13.0956,0.352535,-0.268238,0.0622301,0
2024-12-11 14:35:55.984,-1.19701,3.4666,12.9999,0.348259,-0.241361,0.0713928,0
2024-12-11 14:35:55.987,-1.18026,3.48096,12.8946,0.337875,-0.213873,0.0793338,0
2024-12-11 14:35:55.989,-1.15872,3.51207,12.8204,0.32749,-0.185774,0.0897182,0
2024-12-11 14:35:55.991,-1.15633,3.5336,12.7917,0.312219,-0.154621,0.100103,0
2024-12-11 14:35:55.993,-1.1994,3.57428,12.7869,0.293894,-0.121024,0.111709,0
2024-12-11 14:35:55.996,-1.25922,3.65593,12.8228,0.273125,-0.085595,0.125758,0
2024-12-11 14:35:55.998,-1.31904,3.77318,12.8635,0.253578,-0.0489441,0.14164,0
2024-12-11 14:35:56.001,-1.36929,3.89761,12.9162,0.235253,-0.0110716,0.161798,0
2024-12-11 14:35:56.003,-1.41027,4.01486,12.9664,0.215095,0.0274118,0.181345,0
2024-12-11 14:35:56.006,-1.45095,4.15603,13.0119,0.196769,0.0677277,0.202114,0
2024-12-11 14:35:56.008,-1.45813,4.27597,13.0597,0.179055,0.104379,0.219218,0
2024-12-11 14:35:56.011,-1.44616,4.37169,13.1172,0.162562,0.139197,0.239987,0
2024-12-11 14:35:56.014,-1.37886,4.57029,13.1892,0.140571,0.188065,0.271751,0
2024-12-11 14:35:56.014,-1.37886,4.57029,13.1892,0.140571,0.188065,0.271751,0
2024-12-11 14:35:56.018,-1.30229,4.666,13.218,0.130187,0.195395,0.285189,0
2024-12-11 14:35:56.019,-1.20419,4.74497,13.2395,0.121024,0.191119,0.294352,0
2024-12-11 14:35:56.023,-1.05823,4.82423,13.2515,0.108196,0.175237,0.299239,0
2024-12-11 14:35:56.024,-0.873978,4.90559,13.2873,0.0941468,0.144694,0.29985,0
2024-12-11 14:35:56.026,-0.648754,4.93669,13.3472,0.0788757,0.0994917,0.29313,0
2024-12-11 14:35:56.029,-0.385544,4.95105,13.3759,0.0660479,0.0439046,0.280303,0
2024-12-11 14:35:56.031,-0.0933201,4.97019,13.4118,0.049555,-0.0220669,0.258923,0
2024-12-11 14:35:56.034,0.215354,4.96062,13.4812,0.0129041,-0.174168,0.190508,0
2024-12-11 14:35:56.036,0.52672,4.93669,13.5793,0.0129041,-0.174168,0.190508,0
2024-12-11 14:35:56.039,0.85005,4.88405,13.7444,-0.0188599,-0.353757,0.0878856,0
2024-12-11 14:35:56.041,1.14915,4.80509,13.9337,-0.0188599,-0.353757,0.0878856,0
2024-12-11 14:35:56.043,1.40548,4.72104,14.094,-0.0274118,-0.450882,0.0280226,0
2024-12-11 14:35:56.045,1.62323,4.61097,14.2304,-0.0347419,-0.544952,-0.033673,0
2024-12-11 14:35:56.047,1.79312,4.46979,14.3432,-0.0365745,-0.635357,-0.0996445,0
2024-12-11 14:35:56.051,1.92473,4.30947,14.4413,-0.0274118,-0.802119,-0.226701,0
2024-12-11 14:35:56.053,2.01835,4.11296,14.5633,-0.0133623,-0.877253,-0.283509,0
2024-12-11 14:35:56.054,2.06142,3.89522,14.6854,-0.0133623,-0.877253,-0.283509,0
2024-12-11 14:35:56.057,2.08774,3.65593,14.8098,0.00435229,-0.942614,-0.33421,0
2024-12-11 14:35:56.059,2.13799,3.40678,14.9584,0.0330621,-0.984151,-0.38491,0
2024-12-11 14:35:56.062,2.16431,3.14596,15.102,0.0330621,-0.984151,-0.38491,0
2024-12-11 14:35:56.066,2.10209,2.74846,15.2456,0.159507,-0.996979,-0.516242,1
2024-12-11 14:35:56.066,2.10209,2.74846,15.2456,0.159507,-0.996979,-0.516242,1
2024-12-11 14:35:56.071,1.89601,2.35334,15.0876,0.252967,-0.952387,-0.571829,0
2024-12-11 14:35:56.073,1.83141,2.1332,14.9225,0.252967,-0.952387,-0.571829,0
2024-12-11 14:35:56.076,1.73569,1.91276,14.6949,0.336042,-0.891303,-0.600539,0
2024-12-11 14:35:56.077,1.73569,1.91276,14.6949,0.336042,-0.891303,-0.600539,0
2024-12-11 14:35:56.080,1.48923,1.41506,14.0318,0.404457,-0.805784,-0.604815,0
2024-12-11 14:35:56.083,1.38126,1.22812,13.6702,0.429502,-0.748364,-0.595652,0
2024-12-11 14:35:56.085,1.23051,1.05344,13.2778,0.448438,-0.682393,-0.580381,0
2024-12-11 14:35:56.086,1.23051,1.05344,13.2778,0.463709,-0.610313,-0.559002,0
2024-12-11 14:35:56.088,1.21615,0.948156,12.8133,0.463709,-0.610313,-0.559002,0
2024-12-11 14:35:56.091,1.29751,0.897907,12.2961,0.466153,-0.458212,-0.511966,0
2024-12-11 14:35:56.092,1.1659,0.82343,11.9991,0.466153,-0.458212,-0.511966,0
2024-12-11 14:35:56.094,0.859622,0.734896,11.8699,0.468596,-0.351924,-0.478981,0
2024-12-11 14:35:56.097,0.490828,0.715753,11.621,0.47165,-0.246248,-0.435,0
2024-12-11 14:35:56.099,0.119641,0.768395,11.214,0.47165,-0.246248,-0.435,0
2024-12-11 14:35:56.102,-0.155533,0.782752,10.7758,0.444773,-0.0544418,-0.32016,0
2024-12-11 14:35:56.104,-0.301795,0.722932,10.4145,0.419728,0.0432938,-0.256632,0
2024-12-11 14:35:56.107,-0.277567,0.641576,10.0576,0.352535,0.207612,-0.137517,0
2024-12-11 14:35:56.109,-0.119641,0.588933,9.69841,0.352535,0.207612,-0.137517,0
2024-12-11 14:35:56.111,0.026321,0.584148,9.44477,0.314663,0.276027,-0.0923143,0
2024-12-11 14:35:56.113,0.0741775,0.641576,9.32752,0.281066,0.334057,-0.0532201,0
2024-12-11 14:35:56.116,0.0334995,0.766002,9.23151,0.243804,0.384757,-0.0208452,0
2024-12-11 14:35:56.119,-0.0502493,0.94337,9.11187,0.170503,0.433014,0.0396287,0
2024-12-11 14:35:56.120,-0.107677,1.08455,8.98744,0.170503,0.433014,0.0396287,0
2024-12-11 14:35:56.123,-0.0933201,1.14437,8.85823,0.131409,0.439123,0.0658951,0
2024-12-11 14:35:56.125,0.0382852,1.16351,8.7673,0.093536,0.43729,0.0811663,0
2024-12-11 14:35:56.127,0.227318,1.17308,8.7027,0.0581068,0.429349,0.0897182,0
2024-12-11 14:35:56.130,0.404686,1.17547,8.6665,0.0238994,0.409191,0.086664,0
2024-12-11 14:35:56.133,0.569791,1.18505,8.66411,-0.00847551,0.381703,0.0762796,0
2024-12-11 14:35:56.135,0.722932,1.21376,8.67608,-0.0365745,0.35055,0.0610084,0
2024-12-11 14:35:56.137,0.852443,1.26401,8.72902,-0.0616192,0.315121,0.0414613,0
2024-12-11 14:35:56.139,0.991227,1.32144,8.80319,-0.0817772,0.275416,0.0158057,0
2024-12-11 14:35:56.142,1.12522,1.37647,8.87498,-0.100103,0.228381,-0.00923906,0
2024-12-11 14:35:56.145,1.20419,1.42941,8.93959,-0.111098,0.176459,-0.0385597,0
2024-12-11 14:35:56.146,1.28076,1.43898,8.98744,-0.119039,0.123315,-0.0697129,0
2024-12-11 14:35:56.149,1.36211,1.43898,9.01137,-0.124536,0.0695602,-0.101477,0
2024-12-11 14:35:56.151,1.41506,1.43898,9.01855,-0.131256,0.0109189,-0.133241,0
2024-12-11 14:35:56.154,1.47009,1.40788,9.02812,-0.133088,-0.0471116,-0.166227,0
2024-12-11 14:35:56.156,1.52513,1.37408,9.07598,-0.134921,-0.106364,-0.201045,0
2024-12-11 14:35:56.158,1.52034,1.34297,9.15494,-0.137975,-0.168059,-0.232809,0
2024-12-11 14:35:56.160,1.47488,1.31665,9.22433,-0.137975,-0.168059,-0.232809,0
2024-12-11 14:35:56.165,1.4004,1.24726,9.38016,-0.14164,-0.350092,-0.32688,0
2024-12-11 14:35:56.165,1.4004,1.24726,9.38016,-0.14164,-0.350092,-0.32688,0
2024-12-11 14:35:56.168,1.37169,1.2018,9.45673,-0.134921,-0.397738,-0.356811,0
2024-12-11 14:35:56.171,1.32383,1.16112,9.51655,-0.126369,-0.480202,-0.403236,0
2024-12-11 14:35:56.172,1.26879,1.11326,9.56202,-0.126369,-0.480202,-0.403236,0
2024-12-11 14:35:56.175,1.21615,1.0678,9.64098,-0.115985,-0.50708,-0.42095,0
2024-12-11 14:35:56.177,1.17787,1.0343,9.72952,-0.101324,-0.519297,-0.436832,0
2024-12-11 14:35:56.179,1.14915,1.00558,9.80369,-0.0836097,-0.530292,-0.44966,0
2024-12-11 14:35:56.182,1.11565,0.962513,9.85664,-0.0616192,-0.535789,-0.458212,0
2024-12-11 14:35:56.185,1.06301,0.907478,9.88535,-0.0219141,-0.540676,-0.47165,0
2024-12-11 14:35:56.187,0.988834,0.864407,9.89971,-0.0219141,-0.540676,-0.47165,0
2024-12-11 14:35:56.189,0.917049,0.828216,9.87817,7.63559e-05,-0.540065,-0.472872,0
2024-12-11 14:35:56.191,0.842872,0.797109,9.81566,0.0184018,-0.537622,-0.47104,0
2024-12-11 14:35:56.193,0.766002,0.768395,9.74148,0.0410031,-0.52907,-0.467375,0
2024-12-11 14:35:56.197,0.699003,0.74686,9.66012,0.0581068,-0.519297,-0.464931,0
2024-12-11 14:35:56.200,0.529113,0.76361,9.48545,0.0886492,-0.4857,-0.440497,0
2024-12-11 14:35:56.203,0.457328,0.775574,9.38734,0.102088,-0.465542,-0.424615,0
2024-12-11 14:35:56.203,0.457328,0.775574,9.38734,0.102088,-0.465542,-0.424615,0
2024-12-11 14:35:56.206,0.373579,0.775574,9.28445,0.127743,-0.414231,-0.386743,0
2024-12-11 14:35:56.208,0.270389,0.799502,9.17647,0.127743,-0.414231,-0.386743,0
2024-12-11 14:35:56.211,0.177069,0.845265,9.05205,0.145458,-0.350703,-0.333599,0
2024-12-11 14:35:56.212,0.122034,0.905085,8.92284,0.145458,-0.350703,-0.333599,0
2024-12-11 14:35:56.216,0.0861416,0.967299,8.79602,0.16134,-0.272514,-0.280455,0
2024-12-11 14:35:56.217,0.0598206,1.02712,8.64258,0.16134,-0.272514,-0.280455,0
2024-12-11 14:35:56.219,0.0382852,1.1013,8.49183,0.159507,-0.232198,-0.253578,0
2024-12-11 14:35:56.222,0.0334995,1.17308,8.36501,0.160118,-0.187606,-0.225479,0
2024-12-11 14:35:56.224,0.0550349,1.24965,8.21187,0.156453,-0.141793,-0.205321,0
2024-12-11 14:35:56.226,0.0622134,1.34536,8.0345,0.149734,-0.0923143,-0.183941,0
2024-12-11 14:35:56.230,0.0765703,1.45095,7.8694,0.143015,-0.041614,-0.163783,0
2024-12-11 14:35:56.231,0.107677,1.57059,7.69472,0.132019,0.00847551,-0.144847,0
2024-12-11 14:35:56.234,0.162712,1.68066,7.5006,0.116748,0.0622301,-0.130798,0
2024-12-11 14:35:56.236,0.222533,1.75005,7.30678,0.0953685,0.114763,-0.119802,0
2024-12-11 14:35:56.238,0.282652,1.8003,7.16082,0.0758214,0.175237,-0.11064,0
2024-12-11 14:35:56.240,0.332901,1.86491,7.0675,0.0593285,0.239376,-0.108196,0
2024-12-11 14:35:56.243,0.330509,1.92712,6.99063,0.041614,0.304126,-0.106364,0
2024-12-11 14:35:56.245,0.311366,1.97767,6.92124,0.0232886,0.36521,-0.105142,0
2024-12-11 14:35:56.248,0.297009,2.03749,6.83031,0.00496313,0.423241,-0.105753,0
2024-12-11 14:35:56.250,0.277567,2.09252,6.7346,-0.0127514,0.475163,-0.105753,0
2024-12-11 14:35:56.253,0.253639,2.11645,6.64128,-0.0481806,0.565568,-0.106364,0
2024-12-11 14:35:56.255,0.215354,2.14995,6.56949,-0.0481806,0.565568,-0.106364,0
2024-12-11 14:35:56.257,0.162712,2.18106,6.5025,-0.0713928,0.602219,-0.108196,0
2024-12-11 14:35:56.260,0.0957129,2.19781,6.41845,-0.109876,0.654141,-0.106364,0
2024-12-11 14:35:56.263,0.026321,2.22413,6.34666,-0.109876,0.654141,-0.106364,0
2024-12-11 14:35:56.264,-0.0239282,2.23849,6.31077,-0.13431,0.672466,-0.108196,0
2024-12-11 14:35:56.267,-0.0765703,2.24088,6.31077,-0.14836,0.690181,-0.108196,0
2024-12-11 14:35:56.270,-0.141177,2.26241,6.32034,-0.176459,0.719502,-0.108196,0
2024-12-11 14:35:56.271,-0.177069,2.29113,6.34427,-0.176459,0.719502,-0.108196,0
2024-12-11 14:35:56.274,-0.196211,2.31506,6.38016,-0.188065,0.729886,-0.108807,0
2024-12-11 14:35:56.276,-0.239282,2.36291,6.43041,-0.193562,0.732329,-0.106975,0
2024-12-11 14:35:56.278,-0.287438,2.40359,6.51685,-0.194784,0.729886,-0.106364,0
2024-12-11 14:35:56.281,-0.32333,2.42034,6.62214,-0.189286,0.724999,-0.105142,0
2024-12-11 14:35:56.284,-0.344866,2.4012,6.72742,-0.181345,0.715837,-0.106364,0
2024-12-11 14:35:56.285,-0.342473,2.36052,6.82074,-0.170961,0.70362,-0.106975,0
2024-12-11 14:35:56.289,-0.349651,2.33181,6.89253,-0.14164,0.673077,-0.108807,0
2024-12-11 14:35:56.290,-0.364008,2.31506,6.95235,-0.14164,0.673077,-0.108807,0
2024-12-11 14:35:56.293,-0.378365,2.30548,7.01725,-0.122093,0.655974,-0.110029,0
2024-12-11 14:35:56.295,-0.390329,2.29113,7.08425,-0.100103,0.638259,-0.112472,0
2024-12-11 14:35:56.297,-0.41665,2.29352,7.15843,-0.0750579,0.618712,-0.111861,0
2024-12-11 14:35:56.300,-0.464507,2.3007,7.21346,-0.050624,0.599776,-0.113083,0
2024-12-11 14:35:56.302,-0.512363,2.29831,7.22303,-0.0255792,0.579007,-0.111251,0
2024-12-11 14:35:56.304,-0.553041,2.29831,7.21586,0.00129805,0.558238,-0.111861,0
2024-12-11 14:35:56.307,-0.598505,2.30788,7.20389,0.0281753,0.539302,-0.108807,0
2024-12-11 14:35:56.309,-0.622433,2.31266,7.15364,0.0568851,0.519144,-0.10392,0
2024-12-11 14:35:56.311,-0.629611,2.31027,7.09861,0.0819299,0.496542,-0.101477,0
2024-12-11 14:35:56.314,-0.629611,2.30548,7.03879,0.10392,0.475163,-0.0965902,0
2024-12-11 14:35:56.316,-0.632004,2.3007,6.97149,0.122857,0.452561,-0.0953685,0
2024-12-11 14:35:56.319,-0.648754,2.27916,6.91167,0.158286,0.404305,-0.0904818,0
2024-12-11 14:35:56.321,-0.663111,2.27199,6.8662,0.158286,0.404305,-0.0904818,0
2024-12-11 14:35:56.323,-0.665504,2.28634,6.82553,0.169892,0.375595,-0.0898709,0
2024-12-11 14:35:56.326,-0.672682,2.3007,6.7681,0.19005,0.318175,-0.0886492,0
2024-12-11 14:35:56.329,-0.679861,2.31984,6.72503,0.19005,0.318175,-0.0886492,0
2024-12-11 14:35:56.330,-0.679861,2.35813,6.69153,0.194937,0.287633,-0.0898709,0
2024-12-11 14:35:56.332,-0.689432,2.38923,6.66521,0.201045,0.258312,-0.0910926,0
2024-12-11 14:35:56.336,-0.699003,2.38206,6.64367,0.205932,0.203336,-0.0953685,0
2024-12-11 14:35:56.337,-0.691825,2.39163,6.64128,0.205932,0.203336,-0.0953685,0
2024-12-11 14:35:56.339,-0.696611,2.41316,6.65564,0.207154,0.177069,-0.0978119,0
2024-12-11 14:35:56.342,-0.696611,2.41795,6.66521,0.208986,0.150803,-0.100255,0
2024-12-11 14:35:56.344,-0.706182,2.42513,6.69392,0.208375,0.12698,-0.102088,0
2024-12-11 14:35:56.346,-0.727717,2.4347,6.71785,0.205932,0.101935,-0.102699,0
2024-12-11 14:35:56.349,-0.768395,2.42752,6.71785,0.199823,0.0713928,-0.100866,0
2024-12-11 14:35:56.352,-0.809073,2.41555,6.71785,0.182109,0.0182491,-0.0959794,0
2024-12-11 14:35:56.355,-0.833001,2.42991,6.72742,0.170503,-0.00801737,-0.0898709,0
2024-12-11 14:35:56.356,-0.854836,2.43709,6.74178,0.170503,-0.00801737,-0.0898709,0
2024-12-11 14:35:56.358,-0.862014,2.43948,6.77288,0.157675,-0.0330621,-0.0843733,0
2024-12-11 14:35:56.362,-0.864407,2.46102,6.82313,0.135684,-0.0660479,-0.0666587,0
2024-12-11 14:35:56.363,-0.869193,2.47537,6.90688,0.135684,-0.0660479,-0.0666587,0
2024-12-11 14:35:56.366,-0.854836,2.48734,7.01217,0.124078,-0.0782648,-0.0556635,0
2024-12-11 14:35:56.368,-0.833001,2.50648,7.10818,0.111861,-0.0874275,-0.0440574,0
2024-12-11 14:35:56.371,-0.809073,2.51127,7.20389,0.093536,-0.101477,-0.0184018,0
2024-12-11 14:35:56.373,-0.758824,2.49452,7.29482,0.093536,-0.101477,-0.0184018,0
2024-12-11 14:35:56.375,-0.708575,2.47298,7.38814,0.0868167,-0.105142,-0.00496313,0
2024-12-11 14:35:56.377,-0.655932,2.45384,7.51017,0.0800973,-0.107585,0.0096972,0
2024-12-11 14:35:56.379,-0.60329,2.45384,7.67318,0.0758214,-0.107585,0.0249684,0
2024-12-11 14:35:56.382,-0.553041,2.4682,7.86461,0.0721563,-0.109418,0.0396287,0
2024-12-11 14:35:56.385,-0.476471,2.46102,8.02971,0.0752106,-0.100866,0.0677277,0
2024-12-11 14:35:56.386,-0.397508,2.43709,8.14965,0.0752106,-0.100866,0.0677277,0
2024-12-11 14:35:56.389,-0.320937,2.42752,8.24298,0.0794865,-0.0917034,0.0817772,0
2024-12-11 14:35:56.391,-0.251246,2.42273,8.31954,0.0831516,-0.081319,0.0927724,0
2024-12-11 14:35:56.395,-0.189033,2.3988,8.4009,0.0923143,-0.0642153,0.106211,0
2024-12-11 14:35:56.396,-0.12682,2.38206,8.53969,0.102088,-0.0403923,0.11965,0
2024-12-11 14:35:56.399,-0.0646062,2.38684,8.6689,0.133241,0.0133623,0.14836,0
2024-12-11 14:35:56.401,0.00957129,2.38684,8.74816,0.133241,0.0133623,0.14836,0
2024-12-11 14:35:56.403,0.0765703,2.38684,8.81277,0.148512,0.0347419,0.16302,0
2024-12-11 14:35:56.405,0.114855,2.38923,8.82952,0.165005,0.0530674,0.178291,0
2024-12-11 14:35:56.409,0.138784,2.39402,8.81755,0.185774,0.0805555,0.208223,0
2024-12-11 14:35:56.410,0.157926,2.4012,8.79841,0.185774,0.0805555,0.208223,0
2024-12-11 14:35:56.413,0.165105,2.42752,8.77448,0.193715,0.094605,0.222272,0
2024-12-11 14:35:56.416,0.150748,2.48016,8.74337,0.20471,0.12698,0.247317,0
2024-12-11 14:35:56.417,0.117248,2.54507,8.71945,0.20471,0.12698,0.247317,0
2024-12-11 14:35:56.419,0.0837488,2.60249,8.7027,0.208986,0.145305,0.261977,0
2024-12-11 14:35:56.422,0.0287139,2.66949,8.67847,0.212651,0.163631,0.272362,0
2024-12-11 14:35:56.425,-0.0239282,2.72453,8.64258,0.210819,0.194173,0.29985,0
2024-12-11 14:35:56.426,-0.066999,2.76999,8.60429,0.210819,0.194173,0.29985,0
2024-12-11 14:35:56.429,-0.122034,2.82024,8.57797,0.206543,0.209444,0.313288,0
2024-12-11 14:35:56.432,-0.179462,2.84895,8.56122,0.193104,0.230213,0.346885,0
2024-12-11 14:35:56.434,-0.229711,2.87288,8.57079,0.193104,0.230213,0.346885,0
2024-12-11 14:35:56.436,-0.265603,2.9016,8.58754,0.184552,0.236322,0.361545,0
2024-12-11 14:35:56.438,-0.294616,2.92792,8.59951,0.176,0.238765,0.378038,0
2024-12-11 14:35:56.441,-0.297009,2.95424,8.64018,0.165005,0.238154,0.393309,0
2024-12-11 14:35:56.443,-0.287438,2.99492,8.69522,0.151566,0.236322,0.406748,0
2024-12-11 14:35:56.445,-0.299402,3.04517,8.77687,0.140571,0.232656,0.420797,0
2024-12-11 14:35:56.448,-0.32333,3.09811,8.88934,0.133241,0.228991,0.433014,0
2024-12-11 14:35:56.450,-0.332901,3.15793,9.02333,0.129576,0.226548,0.442788,0
2024-12-11 14:35:56.452,-0.330509,3.21296,9.15255,0.127133,0.219829,0.451951,0
2024-12-11 14:35:56.455,-0.34008,3.23689,9.26292,0.123468,0.207001,0.459281,0
2024-12-11 14:35:56.457,-0.335294,3.27039,9.3682,0.121024,0.195395,0.464778,0
2024-12-11 14:35:56.460,-0.294616,3.30868,9.47109,0.120413,0.178291,0.469665,0
2024-12-11 14:35:56.463,-0.246461,3.32064,9.55963,0.114305,0.139808,0.469665,0
2024-12-11 14:35:56.464,-0.217747,3.33739,9.62184,0.114305,0.139808,0.469665,0
2024-12-11 14:35:56.467,-0.196211,3.34218,9.68884,0.108196,0.123315,0.464778,0
2024-12-11 14:35:56.469,-0.189033,3.34935,9.77977,0.105142,0.106211,0.459281,0
2024-12-11 14:35:56.471,-0.208176,3.37089,9.88056,0.102088,0.0909399,0.451951,0
2024-12-11 14:35:56.475,-0.236889,3.38046,9.99063,0.0929251,0.0634518,0.434236,0
2024-12-11 14:35:56.476,-0.277567,3.39482,10.1151,0.0929251,0.0634518,0.434236,0
2024-12-11 14:35:56.479,-0.318545,3.40917,10.2562,0.0898709,0.0500131,0.425684,0
2024-12-11 14:35:56.481,-0.368794,3.41396,10.3977,0.0862058,0.0347419,0.4153,0
2024-12-11 14:35:56.484,-0.428614,3.39003,10.5221,0.0862058,0.0200816,0.404915,0
2024-12-11 14:35:56.485,-0.500399,3.34457,10.6418,0.0862058,-0.000687203,0.399418,0
2024-12-11 14:35:56.488,-0.565005,3.31346,10.7806,0.0874275,-0.0165692,0.392088,0
2024-12-11 14:35:56.490,-0.586541,3.27996,10.9531,0.0923143,-0.0324513,0.389644,0
2024-12-11 14:35:56.493,-0.596112,3.22493,11.1422,0.0965902,-0.0483333,0.385368,0
2024-12-11 14:35:56.495,-0.608076,3.17707,11.3288,0.100866,-0.065437,0.383536,0
2024-12-11 14:35:56.497,-0.610469,3.134,11.5182,0.105753,-0.0782648,0.382925,0
2024-12-11 14:35:56.500,-0.596112,3.09093,11.7024,0.112472,-0.0862058,0.381703,0
2024-12-11 14:35:56.502,-0.581755,3.04277,11.8699,0.119802,-0.0910926,0.384757,0
2024-12-11 14:35:56.505,-0.600898,2.98774,12.0278,0.138739,-0.0978119,0.395753,0
2024-12-11 14:35:56.507,-0.62004,2.93988,12.1621,0.138739,-0.0978119,0.395753,0
2024-12-11 14:35:56.509,-0.639183,2.88724,12.2961,0.15401,-0.0965902,0.407359,0
2024-12-11 14:35:56.511,-0.663111,2.80828,12.4253,0.166838,-0.0917034,0.422019,0
2024-12-11 14:35:56.514,-0.658325,2.71496,12.5665,0.180276,-0.0868167,0.438512,0
2024-12-11 14:35:56.516,-0.629611,2.62403,12.7606,0.191272,-0.0764323,0.457448,0
2024-12-11 14:35:56.518,-0.610469,2.55942,12.9808,0.202267,-0.0642153,0.477606,0
2024-12-11 14:35:56.521,-0.567398,2.50409,13.2036,0.215095,-0.0526092,0.500208,0
2024-12-11 14:35:56.523,-0.541077,2.48255,13.4189,0.230366,-0.033673,0.527085,0
2024-12-11 14:35:56.525,-0.524327,2.45145,13.6439,0.248691,-0.0129041,0.554573,0
2024-12-11 14:35:56.528,-0.476471,2.40359,13.838,0.268849,0.0164165,0.583894,0
2024-12-11 14:35:56.531,-0.3999,2.38445,13.9935,0.32688,0.104379,0.647422,0
2024-12-11 14:35:56.533,-0.263211,2.34138,14.1538,0.32688,0.104379,0.647422,0
2024-12-11 14:35:56.535,-0.131605,2.32941,14.3022,0.361087,0.159966,0.676742,0
2024-12-11 14:35:56.537,-0.0622134,2.38923,14.4102,0.392851,0.221661,0.709728,0
2024-12-11 14:35:56.540,-0.0430708,2.46102,14.4652,0.430113,0.293741,0.737903,0
2024-12-11 14:35:56.542,-0.0789631,2.52323,14.4509,0.467985,0.376816,0.768446,0
2024-12-11 14:35:56.544,-0.196211,2.63599,14.3767,0.505247,0.465389,0.801432,0
2024-12-11 14:35:56.547,-0.337687,2.79153,14.2807,0.538844,0.560071,0.839915,0
2024-12-11 14:35:56.549,-0.431007,2.9351,14.1467,0.574273,0.663915,0.879009,0
2024-12-11 14:35:56.551,-0.481256,3.08584,13.9696,0.602983,0.767148,0.916271,0
2024-12-11 14:35:56.554,-0.538684,3.23211,13.742,0.624362,0.865571,0.9517,0
2024-12-11 14:35:56.556,-0.665504,3.34457,13.462,0.635968,0.955976,0.982242,0
2024-12-11 14:35:56.558,-0.857229,3.47378,13.153,0.636579,1.03966,1.00912,0
2024-12-11 14:35:56.561,-1.09412,3.6679,12.842,0.626806,1.11174,1.03539,0
2024-12-11 14:35:56.563,-1.31904,3.89522,12.5474,0.60848,1.1716,1.06226,0
2024-12-11 14:35:56.566,-1.47966,4.11536,12.3057,0.576716,1.21925,1.08548,0
2024-12-11 14:35:56.569,-1.55862,4.31665,12.1023,0.488754,1.28583,1.11052,0
2024-12-11 14:35:56.571,-1.63041,4.53918,11.9273,0.433778,1.30599,1.11174,0
2024-12-11 14:35:56.573,-1.57537,4.6995,11.7766,0.433778,1.30599,1.11174,0
2024-12-11 14:35:56.575,-1.43898,4.8338,11.6186,0.367196,1.31638,1.0983,0
2024-12-11 14:35:56.577,-1.47488,5.05873,11.4293,0.290229,1.31638,1.0757,0
2024-12-11 14:35:56.580,-1.57537,5.27887,11.2594,0.207764,1.29805,1.05066,0
2024-12-11 14:35:56.582,-1.53948,5.39163,11.2187,0.116748,1.24979,1.02011,0
2024-12-11 14:35:56.584,-1.32622,5.39163,11.3001,0.0153475,1.16733,0.977966,0
2024-12-11 14:35:56.587,-0.988834,5.26451,11.4485,-0.086664,1.05188,0.923601,0
2024-12-11 14:35:56.589,-0.612862,5.0324,11.6378,-0.192341,0.907108,0.850299,0
2024-12-11 14:35:56.591,-0.234497,4.75454,11.8866,-0.301682,0.735995,0.762337,0
2024-12-11 14:35:56.596,0.332901,4.11536,12.6072,-0.517311,0.348107,0.555795,0
2024-12-11 14:35:56.596,0.332901,4.11536,12.6072,-0.517311,0.348107,0.555795,0
2024-12-11 14:35:56.599,0.572184,3.77318,13.1363,-0.61749,0.139808,0.442177,0
2024-12-11 14:35:56.601,0.782752,3.38046,13.7949,-0.708506,-0.0623828,0.327949,0
2024-12-11 14:35:56.605,1.13958,2.39641,15.4923,-0.825789,-0.427669,0.104379,0
2024-12-11 14:35:56.606,1.13958,2.39641,15.4923,-0.825789,-0.427669,0.104379,0
2024-12-11 14:35:56.610,1.24247,1.34297,17.6683,-0.815405,-0.708048,-0.0874275,0
2024-12-11 14:35:56.610,1.24247,1.34297,17.6683,-0.815405,-0.708048,-0.0874275,0
2024-12-11 14:35:56.616,1.28315,0.352044,19.5718,-0.550908,-0.963382,-0.295116,0
2024-12-11 14:35:56.617,1.39801,-0.0765703,20.1535,-0.550908,-0.963382,-0.295116,0
2024-12-11 14:35:56.620,1.45573,-0.464507,20.5774,-0.550908,-0.963382,-0.295116,0
2024-12-11 14:35:56.622,1.25683,-0.842872,21.0224,-0.272972,-1.04585,-0.389186,1
2024-12-11 14:35:56.622,1.25683,-0.842872,21.0224,-0.272972,-1.04585,-0.389186,1
2024-12-11 14:35:56.624,0.837787,-1.19701,21.3362,-0.11232,-1.0544,-0.410566,0
2024-12-11 14:35:56.628,0.373579,-1.47248,21.3266,0.0562743,-1.03729,-0.411787,0
2024-12-11 14:35:56.629,-0.0717847,-1.69502,21.032,0.229144,-0.991481,-0.392851,0
2024-12-11 14:35:56.631,-0.495613,-1.89601,20.5893,0.403236,-0.920623,-0.352535,0
2024-12-11 14:35:56.635,-0.907478,-2.06381,20.065,0.732482,-0.695831,-0.222425,0
2024-12-11 14:35:56.636,-1.30708,-2.17149,19.4498,0.732482,-0.695831,-0.222425,0
2024-12-11 14:35:56.638,-1.69741,-2.19541,18.7624,0.887027,-0.558391,-0.128354,0
2024-12-11 14:35:56.641,-1.98006,-2.12602,17.9916,1.02813,-0.417896,-0.0202343,0
2024-12-11 14:35:56.643,-2.08056,-2.00877,17.1081,1.15397,-0.281066,0.0952158,0
2024-12-11 14:35:56.646,-2.11406,-1.87687,16.2129,1.26331,-0.154621,0.213109,0
2024-12-11 14:35:56.648,-2.17866,-1.67827,15.3341,1.35249,-0.0342838,0.331614,0
2024-12-11 14:35:56.650,-2.28873,-1.44616,14.403,1.42213,0.0726145,0.448896,0
2024-12-11 14:35:56.653,-2.37966,-1.21137,13.4357,1.46733,0.16302,0.560681,0
2024-12-11 14:35:56.655,-2.38445,-0.945763,12.4732,1.48993,0.238154,0.661471,0
2024-12-11 14:35:56.658,-2.28395,-0.655932,11.5421,1.46611,0.35055,0.822811,0
2024-12-11 14:35:56.661,-2.06381,-0.359223,10.6801,1.42091,0.379871,0.877788,0
2024-12-11 14:35:56.662,-1.78355,-0.0478565,9.91167,1.42091,0.379871,0.877788,0
2024-12-11 14:35:56.664,-1.49641,0.308973,9.22194,1.3586,0.399418,0.916271,0
2024-12-11 14:35:56.667,-1.18026,0.667897,8.60668,1.28163,0.402472,0.939483,0
2024-12-11 14:35:56.669,-0.830609,0.988834,8.11586,1.18573,0.391477,0.950478,0
2024-12-11 14:35:56.671,-0.464507,1.22572,7.71625,1.08555,0.368265,0.945592,0
2024-12-11 14:35:56.674,-0.0717847,1.41266,7.35703,0.974989,0.340166,0.927266,0
2024-12-11 14:35:56.676,0.328116,1.58255,7.09861,0.860149,0.303515,0.890615,0
2024-12-11 14:35:56.679,0.699003,1.73809,6.99781,0.744088,0.259534,0.841748,0
2024-12-11 14:35:56.681,0.996012,1.91037,7.034,0.634136,0.215553,0.781884,0
2024-12-11 14:35:56.683,1.21854,2.08774,7.11775,0.52907,0.166074,0.714004,0
2024-12-11 14:35:56.686,1.4342,2.25045,7.235,0.435,0.115374,0.638259,0
2024-12-11 14:35:56.689,1.63998,2.37966,7.39053,0.26946,-0.00129805,0.47333,0
2024-12-11 14:35:56.690,1.8003,2.47059,7.56521,0.26946,-0.00129805,0.47333,0
2024-12-11 14:35:56.694,1.90558,2.50409,7.76411,0.19738,-0.0642153,0.385979,0
2024-12-11 14:35:56.695,1.94626,2.50887,8.00818,0.135074,-0.1253,0.298628,0
2024-12-11 14:35:56.697,1.94148,2.49212,8.25972,0.081319,-0.180276,0.211888,0
2024-12-11 14:35:56.701,1.91276,2.45863,8.47269,0.000687203,-0.273125,0.0475697,0
2024-12-11 14:35:56.704,1.77398,2.31506,8.87259,-0.030466,-0.308554,-0.029397,0
2024-12-11 14:35:56.704,1.77398,2.31506,8.87259,-0.030466,-0.308554,-0.029397,0
2024-12-11 14:35:56.707,1.6328,2.22891,8.99941,-0.0573433,-0.337264,-0.0972011,0
2024-12-11 14:35:56.709,1.44855,2.13799,9.09273,-0.0817772,-0.358644,-0.155842,0
2024-12-11 14:35:56.712,1.24726,2.05424,9.1693,-0.102546,-0.373915,-0.205932,0
2024-12-11 14:35:56.714,1.0343,1.94626,9.21955,-0.121482,-0.375137,-0.248691,0
2024-12-11 14:35:56.716,0.847657,1.8338,9.26531,-0.135532,-0.370861,-0.281677,0
2024-12-11 14:35:56.718,0.665504,1.73091,9.29642,-0.147749,-0.357422,-0.306111,0
2024-12-11 14:35:56.721,0.476471,1.63998,9.32992,-0.161187,-0.34154,-0.32688,0
2024-12-11 14:35:56.724,0.304188,1.55384,9.35384,-0.178291,-0.300613,-0.342151,0
2024-12-11 14:35:56.727,0.122034,1.47248,9.36102,-0.183789,-0.278012,-0.340929,0
2024-12-11 14:35:56.728,-0.0574277,1.39322,9.36102,-0.183789,-0.278012,-0.340929,0
2024-12-11 14:35:56.730,-0.205783,1.33101,9.35384,-0.186843,-0.249913,-0.334821,0
2024-12-11 14:35:56.734,-0.335294,1.28554,9.34666,-0.19173,-0.218149,-0.323825,0
2024-12-11 14:35:56.735,-0.423829,1.23529,9.34906,-0.194173,-0.18272,-0.310387,0
2024-12-11 14:35:56.741,-0.521934,1.19462,9.34188,-0.19906,-0.065437,-0.267017,0
2024-12-11 14:35:56.742,-0.553041,1.15872,9.35863,-0.19906,-0.065437,-0.267017,0
2024-12-11 14:35:56.742,-0.553041,1.15872,9.35863,-0.19906,-0.065437,-0.267017,0
2024-12-11 14:35:56.744,-0.565005,1.13719,9.34906,-0.197227,-0.0245102,-0.252356,0
2024-12-11 14:35:56.747,-0.593719,1.11805,9.32513,-0.192951,0.0176382,-0.236474,0
2024-12-11 14:35:56.750,-0.615255,1.11326,9.29163,-0.18501,0.103157,-0.208986,0
2024-12-11 14:35:56.752,-0.639183,1.13719,9.25305,-0.18501,0.103157,-0.208986,0
2024-12-11 14:35:56.754,-0.658325,1.15872,9.21237,-0.182567,0.14897,-0.195547,0
2024-12-11 14:35:56.756,-0.667897,1.17787,9.1358,-0.180734,0.186843,-0.182109,0
2024-12-11 14:35:56.759,-0.663111,1.19222,9.02573,-0.180734,0.223494,-0.171114,0
2024-12-11 14:35:56.761,-0.663111,1.1994,8.9013,-0.181345,0.254036,-0.16134,0
2024-12-11 14:35:56.764,-0.677468,1.20419,8.77687,-0.192951,0.305958,-0.143625,0
2024-12-11 14:35:56.767,-0.691825,1.23769,8.67368,-0.201503,0.328559,-0.13935,0
2024-12-11 14:35:56.769,-0.694218,1.25683,8.57558,-0.201503,0.328559,-0.13935,0
2024-12-11 14:35:56.770,-0.687039,1.28076,8.48944,-0.208223,0.347496,-0.135684,0
2024-12-11 14:35:56.773,-0.687039,1.34776,8.41526,-0.216774,0.366432,-0.133241,0
2024-12-11 14:35:56.775,-0.675075,1.43659,8.36262,-0.225937,0.385979,-0.134463,0
2024-12-11 14:35:56.777,-0.660718,1.48205,8.29322,-0.232656,0.403694,-0.142404,0
2024-12-11 14:35:56.780,-0.651147,1.47248,8.18794,-0.239987,0.417132,-0.147901,0
2024-12-11 14:35:56.782,-0.634397,1.47248,8.09193,-0.24976,0.425684,-0.151566,0
2024-12-11 14:35:56.785,-0.62004,1.48205,8.03929,-0.261977,0.42996,-0.16134,0
2024-12-11 14:35:56.787,-0.596112,1.4988,7.98664,-0.274805,0.432404,-0.170503,0
2024-12-11 14:35:56.789,-0.586541,1.52273,7.92204,-0.2858,0.434236,-0.177833,0
2024-12-11 14:35:56.792,-0.60329,1.54427,7.87418,-0.29985,0.437901,-0.186996,0
2024-12-11 14:35:56.794,-0.63679,1.57777,7.8335,-0.312677,0.440345,-0.19738,0
2024-12-11 14:35:56.796,-0.679861,1.57777,7.79761,-0.327949,0.438512,-0.208375,0
2024-12-11 14:35:56.799,-0.710967,1.57059,7.77847,-0.337722,0.430571,-0.21876,0
2024-12-11 14:35:56.801,-0.722932,1.57298,7.77608,-0.349328,0.422019,-0.230977,0
2024-12-11 14:35:56.803,-0.722932,1.58255,7.80718,-0.356658,0.40858,-0.243804,0
2024-12-11 14:35:56.806,-0.727717,1.59452,7.85743,-0.363989,0.392698,-0.252967,0
2024-12-11 14:35:56.808,-0.751645,1.58734,7.90289,-0.37254,0.373151,-0.267017,0
2024-12-11 14:35:56.811,-0.773181,1.58734,7.96511,-0.377427,0.348107,-0.279844,0
2024-12-11 14:35:56.813,-0.777966,1.55862,8.03929,-0.37926,0.323673,-0.291451,0
2024-12-11 14:35:56.815,-0.794716,1.52034,8.12303,-0.376206,0.301071,-0.304889,0
2024-12-11 14:35:56.817,-0.816252,1.4988,8.19512,-0.377427,0.279081,-0.319549,0
2024-12-11 14:35:56.820,-0.842872,1.4677,8.2334,-0.373151,0.260755,-0.332988,0
2024-12-11 14:35:56.822,-0.88355,1.42223,8.25733,-0.368875,0.244263,-0.342151,0
2024-12-11 14:35:56.825,-0.921835,1.37169,8.28365,-0.362156,0.230213,-0.354368,0
2024-12-11 14:35:56.827,-0.962513,1.34058,8.31715,-0.354826,0.217385,-0.362309,0
2024-12-11 14:35:56.829,-1.02233,1.31426,8.37219,-0.346885,0.201503,-0.367196,0
2024-12-11 14:35:56.832,-1.09412,1.28794,8.42962,-0.3365,0.187454,-0.371471,0
2024-12-11 14:35:56.834,-1.17787,1.26401,8.47747,-0.326727,0.175848,-0.37025,0
2024-12-11 14:35:56.836,-1.25204,1.22333,8.50858,-0.318175,0.16302,-0.367196,0
2024-12-11 14:35:56.839,-1.29033,1.17069,8.51576,-0.310234,0.151414,-0.364752,0
2024-12-11 14:35:56.842,-1.34297,1.11565,8.54208,-0.294963,0.131867,-0.351924,0
2024-12-11 14:35:56.844,-1.40788,1.07019,8.58515,-0.2858,0.124536,-0.342762,0
2024-12-11 14:35:56.846,-1.47727,1.02951,8.63779,-0.2858,0.124536,-0.342762,0
2024-12-11 14:35:56.848,-1.55384,0.988834,8.70748,-0.275416,0.11965,-0.334821,0
2024-12-11 14:35:56.850,-1.61605,0.948156,8.74337,-0.26381,0.115374,-0.321993,0
2024-12-11 14:35:56.853,-1.63998,0.9003,8.7673,-0.254647,0.11232,-0.311608,0
2024-12-11 14:35:56.855,-1.65912,0.8668,8.80559,-0.245484,0.107433,-0.298781,0
2024-12-11 14:35:56.858,-1.69502,0.828216,8.81994,-0.232046,0.100103,-0.284731,0
2024-12-11 14:35:56.860,-1.7333,0.80668,8.82234,-0.219829,0.0958267,-0.270682,0
2024-12-11 14:35:56.862,-1.77398,0.804287,8.81994,-0.211277,0.0878856,-0.255411,0
2024-12-11 14:35:56.865,-1.79312,0.794716,8.80559,-0.200892,0.082388,-0.239528,0
2024-12-11 14:35:56.867,-1.78834,0.785145,8.77209,-0.19173,0.0738362,-0.219981,0
2024-12-11 14:35:56.870,-1.75962,0.785145,8.72662,-0.18501,0.0683385,-0.201045,0
2024-12-11 14:35:56.872,-1.71894,0.754038,8.69761,-0.182567,0.0634518,-0.186996,0
2024-12-11 14:35:56.874,-1.68305,0.718146,8.67608,-0.177069,0.0555107,-0.172335,0
2024-12-11 14:35:56.876,-1.65912,0.720539,8.65693,-0.177069,0.0451263,-0.158897,0
2024-12-11 14:35:56.880,-1.65434,0.725324,8.63779,-0.176459,0.0341311,-0.147901,0
2024-12-11 14:35:56.881,-1.62084,0.742074,8.63301,-0.175848,0.0213033,-0.138739,0
2024-12-11 14:35:56.883,-1.55384,0.756431,8.63779,-0.175848,0.00481042,-0.131409,0
2024-12-11 14:35:56.886,-1.49641,0.780359,8.64018,-0.175237,-0.0122933,-0.127133,0
2024-12-11 14:35:56.888,-1.44377,0.801895,8.64018,-0.175237,-0.0306187,-0.125911,0
2024-12-11 14:35:56.891,-1.38365,0.821037,8.64736,-0.175237,-0.0513875,-0.123468,0
2024-12-11 14:35:56.893,-1.33579,0.833001,8.66172,-0.176459,-0.0691021,-0.1253,0
2024-12-11 14:35:56.895,-1.29512,0.857229,8.67368,-0.175237,-0.0862058,-0.128965,0
2024-12-11 14:35:56.898,-1.26401,0.88355,8.68804,-0.176459,-0.105753,-0.132019,0
2024-12-11 14:35:56.901,-1.25683,0.88355,8.71705,-0.177069,-0.140571,-0.138739,0
2024-12-11 14:35:56.903,-1.25444,0.897907,8.74337,-0.176459,-0.158286,-0.141793,0
2024-12-11 14:35:56.905,-1.25922,0.926621,8.77687,-0.176459,-0.158286,-0.141793,0
2024-12-11 14:35:56.907,-1.26162,0.938585,8.81755,-0.176459,-0.17539,-0.146069,0
2024-12-11 14:35:56.909,-1.27119,0.933799,8.85105,-0.17035,-0.193104,-0.147901,0
2024-12-11 14:35:56.912,-1.29272,0.926621,8.87259,-0.166685,-0.206543,-0.147901,0
2024-12-11 14:35:56.914,-1.30469,0.921835,8.88216,-0.164852,-0.221203,-0.148512,0
2024-12-11 14:35:56.916,-1.30708,0.924228,8.88455,-0.161187,-0.235253,-0.147291,0
2024-12-11 14:35:56.919,-1.32622,0.919442,8.88694,-0.158744,-0.252967,-0.144236,0
2024-12-11 14:35:56.921,-1.36451,0.919442,8.89173,-0.156301,-0.270071,-0.141793,0
2024-12-11 14:35:56.923,-1.38844,0.919442,8.9013,-0.154468,-0.289618,-0.136906,0
2024-12-11 14:35:56.927,-1.39083,0.917049,8.90609,-0.153246,-0.32749,-0.1253,0
2024-12-11 14:35:56.928,-1.39322,0.924228,8.90609,-0.153246,-0.32749,-0.1253,0
2024-12-11 14:35:56.930,-1.39801,0.936192,8.89173,-0.150192,-0.350703,-0.119802,0
2024-12-11 14:35:56.933,-1.37169,0.948156,8.87976,-0.154468,-0.37758,-0.111861,0
2024-12-11 14:35:56.936,-1.33819,0.948156,8.89173,-0.165463,-0.428891,-0.102088,0
2024-12-11 14:35:56.938,-1.30229,0.948156,8.90848,-0.165463,-0.428891,-0.102088,0
2024-12-11 14:35:56.940,-1.27119,0.955334,8.93959,-0.171572,-0.450882,-0.0959794,0
2024-12-11 14:35:56.942,-1.24965,0.950549,8.99462,-0.177069,-0.47104,-0.0910926,0
2024-12-11 14:35:56.946,-1.21854,0.957727,9.07119,-0.191119,-0.50769,-0.0819299,0
2024-12-11 14:35:56.947,-1.16112,0.981655,9.15494,-0.191119,-0.50769,-0.0819299,0
2024-12-11 14:35:56.950,-1.1013,0.996012,9.30838,-0.192341,-0.522962,-0.0697129,0
2024-12-11 14:35:56.952,-1.04148,1.00798,9.48066,-0.192341,-0.522962,-0.0697129,0
2024-12-11 14:35:56.954,-0.981655,1.02712,9.60509,-0.18501,-0.525405,-0.0678804,0
2024-12-11 14:35:56.956,-0.921835,1.05583,9.74387,-0.174626,-0.528459,-0.0623828,0
2024-12-11 14:35:56.959,-0.847657,1.04865,9.84467,-0.166074,-0.538844,-0.057496,0
2024-12-11 14:35:56.961,-0.754038,1.02951,9.89253,-0.158133,-0.551061,-0.0526092,0
2024-12-11 14:35:56.963,-0.646361,1.01276,9.9332,-0.150192,-0.565721,-0.0544418,0
2024-12-11 14:35:56.966,-0.553041,0.986441,9.97628,-0.142862,-0.584046,-0.0550526,0
2024-12-11 14:35:56.968,-0.45015,0.972084,10.017,-0.136753,-0.60115,-0.0587177,0
2024-12-11 14:35:56.970,-0.352044,0.97687,10.0648,-0.128202,-0.617032,-0.0629936,0
2024-12-11 14:35:56.973,-0.258425,1.0008,10.1414,-0.122093,-0.63719,-0.0709346,0
2024-12-11 14:35:56.975,-0.155533,1.01755,10.2299,-0.114763,-0.65185,-0.081319,0
2024-12-11 14:35:56.978,-0.0837488,1.03669,10.3017,-0.104989,-0.661624,-0.0941468,0
2024-12-11 14:35:56.980,-0.0430708,1.04626,10.3759,-0.094605,-0.669565,-0.10331,0
2024-12-11 14:35:56.983,0.00957129,1.04626,10.448,-0.066506,-0.67323,-0.121635,0
2024-12-11 14:35:56.986,0.0454636,1.0654,10.5174,-0.066506,-0.67323,-0.121635,0
2024-12-11 14:35:56.987,0.0622134,1.07498,10.5772,-0.0530674,-0.668954,-0.129576,0
2024-12-11 14:35:56.990,0.0717847,1.09173,10.6131,-0.0182491,-0.648185,-0.138128,0
2024-12-11 14:35:56.993,0.0502493,1.1324,10.6131,-0.0182491,-0.648185,-0.138128,0
2024-12-11 14:35:56.994,0.040678,1.15633,10.5963,-0.00419957,-0.634136,-0.140571,0
2024-12-11 14:35:56.996,0.0430708,1.18983,10.5604,0.00984991,-0.613978,-0.13996,0
2024-12-11 14:35:57.000,0.0239282,1.22572,10.4862,0.037338,-0.566332,-0.134463,0
2024-12-11 14:35:57.001,0.00239282,1.24008,10.3929,0.037338,-0.566332,-0.134463,0
2024-12-11 14:35:57.004,0.0,1.27119,10.2921,0.0489441,-0.538844,-0.128965,0
2024-12-11 14:35:57.006,-0.0191426,1.31186,10.194,0.0550526,-0.513799,-0.123468,0
2024-12-11 14:35:57.008,-0.0382852,1.33819,10.084,0.0599394,-0.487532,-0.114305,0
2024-12-11 14:35:57.011,-0.0646062,1.36929,9.9691,0.0629936,-0.459433,-0.105753,0
2024-12-11 14:35:57.014,-0.105284,1.41984,9.84946,0.0581068,-0.39957,-0.0843733,0
2024-12-11 14:35:57.016,-0.148355,1.4677,9.71277,0.0581068,-0.39957,-0.0843733,0
2024-12-11 14:35:57.019,-0.18664,1.50838,9.55963,0.0403923,-0.335431,-0.057496,0
2024-12-11 14:35:57.020,-0.22014,1.5682,9.42084,0.0403923,-0.335431,-0.057496,0
2024-12-11 14:35:57.022,-0.229711,1.63041,9.30599,0.0287862,-0.302446,-0.0446682,0
2024-12-11 14:35:57.026,-0.227318,1.69262,9.19801,0.00862822,-0.24808,-0.0208452,0
2024-12-11 14:35:57.027,-0.222533,1.78355,9.09033,0.00862822,-0.24808,-0.0208452,0
2024-12-11 14:35:57.030,-0.189033,1.85294,8.98026,-0.0200816,-0.214484,-0.00129805,0
2024-12-11 14:35:57.033,-0.153141,1.90798,8.86541,-0.0396287,-0.195547,0.00236703,0
2024-12-11 14:35:57.034,-0.124427,1.98724,8.76252,-0.0396287,-0.195547,0.00236703,0
2024-12-11 14:35:57.036,-0.066999,2.04467,8.72184,-0.0567324,-0.174779,0.00419957,0
2024-12-11 14:35:57.039,0.00717847,2.09013,8.72662,-0.0805555,-0.145458,0.00664296,0
2024-12-11 14:35:57.041,0.0789631,2.16431,8.7673,-0.100713,-0.110029,0.00603212,0
2024-12-11 14:35:57.044,0.148355,2.24088,8.8343,-0.118428,-0.0721563,0.00175619,0
2024-12-11 14:35:57.047,0.205783,2.29831,8.88694,-0.145916,-0.00374144,-0.0104608,0
2024-12-11 14:35:57.048,0.232104,2.33898,8.91326,-0.145916,-0.00374144,-0.0104608,0
2024-12-11 14:35:57.051,0.227318,2.36052,8.93001,-0.165463,0.0280226,-0.0190126,0
2024-12-11 14:35:57.054,0.205783,2.37009,8.93001,-0.188675,0.082388,-0.0367272,0
2024-12-11 14:35:57.055,0.193819,2.37727,8.91326,-0.188675,0.082388,-0.0367272,0
2024-12-11 14:35:57.059,0.165105,2.37727,8.87976,-0.22105,0.108654,-0.0519984,0
2024-12-11 14:35:57.061,0.105284,2.35573,8.82473,-0.238765,0.116595,-0.0629936,0
2024-12-11 14:35:57.063,0.0574277,2.33898,8.77209,-0.238765,0.116595,-0.0629936,0
2024-12-11 14:35:57.065,0.0167498,2.33181,8.75773,-0.25709,0.120261,-0.0727672,0
2024-12-11 14:35:57.067,-0.0119641,2.31027,8.77209,-0.276637,0.120871,-0.0807082,0
2024-12-11 14:35:57.069,-0.0478565,2.29352,8.81277,-0.294963,0.120261,-0.0898709,0
2024-12-11 14:35:57.072,-0.0885344,2.29591,8.89412,-0.305958,0.116595,-0.0984228,0
2024-12-11 14:35:57.074,-0.0957129,2.30309,8.98983,-0.313899,0.113541,-0.108196,0
2024-12-11 14:35:57.077,-0.102891,2.29831,9.09273,-0.318175,0.104989,-0.116748,0
2024-12-11 14:35:57.080,-0.119641,2.28395,9.21237,-0.312677,0.0952158,-0.136906,0
2024-12-11 14:35:57.081,-0.107677,2.27199,9.32752,-0.312677,0.0952158,-0.136906,0
2024-12-11 14:35:57.084,-0.0789631,2.25524,9.42563,-0.307791,0.0909399,-0.144847,0
2024-12-11 14:35:57.086,-0.0837488,2.22891,9.52852,-0.292519,0.0884965,-0.155842,0
2024-12-11 14:35:57.088,-0.145962,2.20499,9.61705,-0.277248,0.0860531,-0.167449,0
2024-12-11 14:35:57.092,-0.224925,2.2002,9.70319,-0.260755,0.0848314,-0.177222,0
2024-12-11 14:35:57.093,-0.320937,2.23849,9.78216,-0.239987,0.0891073,-0.185774,0
2024-12-11 14:35:57.096,-0.452543,2.26481,9.81326,-0.219829,0.0933833,-0.19005,0
2024-12-11 14:35:57.103,-0.852443,2.36052,9.75584,-0.156301,0.106822,-0.187606,0
2024-12-11 14:35:57.105,-1.0343,2.44666,9.67687,-0.139808,0.107433,-0.180276,0
2024-12-11 14:35:57.106,-1.0343,2.44666,9.67687,-0.139808,0.107433,-0.180276,0
2024-12-11 14:35:57.106,-1.0343,2.44666,9.67687,-0.139808,0.107433,-0.180276,0
2024-12-11 14:35:57.107,-1.21615,2.53789,9.52373,-0.130034,0.104379,-0.171114,0
2024-12-11 14:35:57.109,-1.31665,2.59771,9.30838,-0.129423,0.0939941,-0.160118,0
2024-12-11 14:35:57.113,-1.35733,2.60967,9.03291,-0.175237,0.058565,-0.136906,0
2024-12-11 14:35:57.114,-1.40279,2.62164,8.80559,-0.175237,0.058565,-0.136906,0
2024-12-11 14:35:57.116,-1.41266,2.65274,8.7003,-0.208223,0.0518457,-0.124689,0
2024-12-11 14:35:57.119,-1.35494,2.67189,8.7003,-0.24243,0.0530674,-0.114916,0
2024-12-11 14:35:57.121,-1.31426,2.68146,8.77209,-0.274194,0.0579541,-0.111251,0
2024-12-11 14:35:57.124,-1.35254,2.71256,8.85344,-0.307791,0.0610084,-0.11064,0
2024-12-11 14:35:57.126,-1.41506,2.74367,8.94437,-0.340166,0.0573433,-0.107585,0
2024-12-11 14:35:57.128,-1.40279,2.75803,9.05444,-0.371319,0.0347419,-0.106975,0
2024-12-11 14:35:57.131,-1.30229,2.76281,9.17887,-0.397585,0.00175619,-0.109418,0
2024-12-11 14:35:57.134,-1.13719,2.74846,9.28684,-0.450118,-0.0953685,-0.126522,0
2024-12-11 14:35:57.135,-0.938585,2.72213,9.37777,-0.450118,-0.0953685,-0.126522,0
2024-12-11 14:35:57.139,-0.737288,2.67906,9.49263,-0.50204,-0.21143,-0.166838,0
2024-12-11 14:35:57.140,-0.505185,2.63839,9.62423,-0.50204,-0.21143,-0.166838,0
2024-12-11 14:35:57.142,-0.239282,2.59292,9.78216,-0.531361,-0.279234,-0.191882,0
2024-12-11 14:35:57.145,-0.0119641,2.5331,9.95235,-0.561903,-0.349481,-0.220592,0
2024-12-11 14:35:57.147,0.200997,2.44666,10.1581,-0.594889,-0.419728,-0.257854,0
2024-12-11 14:35:57.149,0.445364,2.35813,10.4432,-0.630318,-0.492419,-0.293283,0
2024-12-11 14:35:57.152,0.682254,2.27677,10.7925,-0.663915,-0.560834,-0.332377,0
2024-12-11 14:35:57.154,0.876371,2.19063,11.1637,-0.695679,-0.624973,-0.375747,0
2024-12-11 14:35:57.156,1.0343,2.08774,11.5708,-0.721334,-0.68789,-0.419118,0
2024-12-11 14:35:57.159,1.16112,1.96062,12.0063,-0.738438,-0.742867,-0.464931,0
2024-12-11 14:35:57.161,1.24247,1.81226,12.4517,-0.743936,-0.792345,-0.50769,0
2024-12-11 14:35:57.165,1.28554,1.68066,12.897,-0.74027,-0.828385,-0.548617,0
2024-12-11 14:35:57.166,1.29751,1.58734,13.328,-0.726832,-0.846711,-0.583435,0
2024-12-11 14:35:57.168,1.2664,1.5012,13.7372,-0.701176,-0.847322,-0.60848,0
2024-12-11 14:35:57.172,1.1994,1.40788,14.0868,-0.621155,-0.794178,-0.645131,0
2024-12-11 14:35:57.173,1.12762,1.31186,14.3719,-0.621155,-0.794178,-0.645131,0
2024-12-11 14:35:57.175,1.05583,1.22094,14.6064,-0.566179,-0.748364,-0.650018,0
2024-12-11 14:35:57.178,0.957727,1.12283,14.7356,-0.513646,-0.699496,-0.647574,0
2024-12-11 14:35:57.180,0.862014,1.01515,14.7739,-0.458059,-0.64452,-0.628638,0
2024-12-11 14:35:57.182,0.799502,0.926621,14.7882,-0.401861,-0.576716,-0.604204,0
2024-12-11 14:35:57.185,0.667897,0.869193,14.7787,-0.34322,-0.504025,-0.571829,0
2024-12-11 14:35:57.188,0.414257,0.837787,14.6973,-0.225937,-0.338486,-0.478981,0
2024-12-11 14:35:57.189,0.131605,0.813859,14.525,-0.225937,-0.338486,-0.478981,0
2024-12-11 14:35:57.192,-0.12682,0.799502,14.2472,-0.169128,-0.253578,-0.417285,0
2024-12-11 14:35:57.194,-0.347258,0.804287,13.8715,-0.114152,-0.163783,-0.348259,0
2024-12-11 14:35:57.196,-0.483649,0.830609,13.4716,-0.0622301,-0.0672696,-0.274958,0
2024-12-11 14:35:57.200,-0.557827,0.881157,13.0956,0.0159584,0.118428,-0.117359,0
2024-12-11 14:35:57.201,-0.610469,0.917049,12.8037,0.0159584,0.118428,-0.117359,0
2024-12-11 14:35:57.204,-0.632004,0.94337,12.5689,0.0544418,0.203336,-0.0397814,0
2024-12-11 14:35:57.206,-0.63679,0.991227,12.2842,0.0892601,0.27847,0.0359636,0
2024-12-11 14:35:57.208,-0.63679,1.06062,11.9489,0.114916,0.338944,0.108044,0
2024-12-11 14:35:57.211,-0.629611,1.14437,11.578,0.135074,0.389033,0.173404,0
2024-12-11 14:35:57.213,-0.605683,1.26401,11.1876,0.150345,0.435458,0.233878,0
2024-12-11 14:35:57.215,-0.541077,1.41027,10.838,0.159507,0.478828,0.288854,0
2024-12-11 14:35:57.218,-0.438186,1.54905,10.5221,0.165616,0.517922,0.332225,0
2024-12-11 14:35:57.220,-0.320937,1.67109,10.2443,0.170503,0.553962,0.371319,0
2024-12-11 14:35:57.222,-0.196211,1.80509,10.017,0.169892,0.582061,0.400029,0
2024-12-11 14:35:57.226,-0.066999,1.93669,9.81087,0.163173,0.621155,0.437901,0
2024-12-11 14:35:57.228,0.0502493,2.03749,9.63859,0.161951,0.63154,0.446453,0
2024-12-11 14:35:57.230,0.155533,2.13799,9.47588,0.161951,0.63154,0.446453,0
2024-12-11 14:35:57.233,0.244068,2.24806,9.30359,0.157675,0.63887,0.447675,0
2024-12-11 14:35:57.234,0.325723,2.35334,9.14537,0.157675,0.63887,0.447675,0
2024-12-11 14:35:57.237,0.402293,2.42991,8.98505,0.157064,0.635205,0.442177,0
2024-12-11 14:35:57.241,0.531506,2.60249,8.7027,0.154621,0.620544,0.417743,0
2024-12-11 14:35:57.242,0.531506,2.60249,8.7027,0.157064,0.606495,0.398196,0
2024-12-11 14:35:57.244,0.557827,2.6671,8.5684,0.157064,0.606495,0.398196,0
2024-12-11 14:35:57.247,0.550648,2.71256,8.44636,0.154621,0.590613,0.381092,0
2024-12-11 14:35:57.248,0.541077,2.73888,8.34108,0.154621,0.590613,0.381092,0
2024-12-11 14:35:57.252,0.521934,2.77238,8.23819,0.147291,0.511814,0.312677,0
2024-12-11 14:35:57.253,0.478864,2.80828,8.14248,0.147291,0.511814,0.312677,0
2024-12-11 14:35:57.255,0.428614,2.82742,8.08953,0.142404,0.476995,0.288244,0
2024-12-11 14:35:57.258,0.361615,2.81545,8.04646,0.138128,0.439123,0.264421,0
2024-12-11 14:35:57.261,0.287438,2.80588,7.98904,0.13263,0.398196,0.240597,0
2024-12-11 14:35:57.266,0.0957129,2.80588,7.90529,0.117359,0.276027,0.175237,0
2024-12-11 14:35:57.267,0.0287139,2.78196,7.88854,0.117359,0.276027,0.175237,0
2024-12-11 14:35:57.267,0.0287139,2.78196,7.88854,0.117359,0.276027,0.175237,0
2024-12-11 14:35:57.269,0.0,2.76521,7.89572,0.116748,0.233267,0.159355,0
2024-12-11 14:35:57.272,-0.0334995,2.73171,7.91486,0.113083,0.187454,0.142251,0
2024-12-11 14:35:57.275,-0.066999,2.69821,7.95075,0.108807,0.0897182,0.109876,0
2024-12-11 14:35:57.277,-0.0885344,2.66949,7.98664,0.108807,0.0897182,0.109876,0
2024-12-11 14:35:57.279,-0.122034,2.63599,8.00339,0.107585,0.0408504,0.0988809,0
2024-12-11 14:35:57.281,-0.148355,2.61446,8.02971,0.105753,-0.00801737,0.0878856,0
2024-12-11 14:35:57.284,-0.138784,2.58574,8.07279,0.10392,-0.0568851,0.0775012,0
2024-12-11 14:35:57.286,-0.133998,2.56899,8.09671,0.106975,-0.106364,0.0646735,0
2024-12-11 14:35:57.289,-0.12682,2.54985,8.10629,0.104531,-0.161951,0.0536782,0
2024-12-11 14:35:57.291,-0.0933201,2.50887,8.13261,0.0990336,-0.21876,0.0390179,0
2024-12-11 14:35:57.293,-0.0454636,2.46341,8.15683,0.0898709,-0.271293,0.0261901,0
2024-12-11 14:35:57.296,0.00239282,2.41795,8.19033,0.0819299,-0.325658,0.010308,0
2024-12-11 14:35:57.299,0.0502493,2.38206,8.24537,0.0636045,-0.419728,-0.0208452,0
2024-12-11 14:35:57.300,0.0981057,2.35095,8.31476,0.0636045,-0.419728,-0.0208452,0
2024-12-11 14:35:57.303,0.141177,2.33659,8.4009,0.0562743,-0.463709,-0.0355055,0
2024-12-11 14:35:57.305,0.198604,2.31984,8.49422,0.0471116,-0.495473,-0.0526092,0
2024-12-11 14:35:57.307,0.263211,2.31506,8.59711,0.0397814,-0.528459,-0.0691021,0
2024-12-11 14:35:57.309,0.318545,2.3007,8.7027,0.0348946,-0.556558,-0.0868167,0
2024-12-11 14:35:57.312,0.383151,2.25524,8.81516,0.0300079,-0.57916,-0.10392,0
2024-12-11 14:35:57.314,0.45015,2.20977,8.92044,0.0324513,-0.590766,-0.123468,0
2024-12-11 14:35:57.317,0.521934,2.19302,9.01376,0.0355055,-0.596263,-0.143015,0
2024-12-11 14:35:57.320,0.586541,2.17866,9.09512,0.0391706,-0.601761,-0.179055,0
2024-12-11 14:35:57.321,0.624826,2.14038,9.14058,0.0391706,-0.601761,-0.179055,0
2024-12-11 14:35:57.324,0.665504,2.10209,9.15973,0.0342838,-0.601761,-0.19738,0
2024-12-11 14:35:57.327,0.732503,2.04945,9.17169,0.0275645,-0.603593,-0.218149,0
2024-12-11 14:35:57.328,0.777966,1.98245,9.18365,0.0238994,-0.604204,-0.237085,0
2024-12-11 14:35:57.331,0.777966,1.91037,9.20758,0.0171801,-0.606037,-0.255411,0
2024-12-11 14:35:57.333,0.766002,1.8673,9.25783,0.00679568,-0.606037,-0.274958,0
2024-12-11 14:35:57.335,0.727717,1.86491,9.31316,0.0019089,-0.604204,-0.295726,0
2024-12-11 14:35:57.338,0.646361,1.87926,9.34906,-0.00358873,-0.598096,-0.310998,0
2024-12-11 14:35:57.340,0.557827,1.90558,9.37299,-0.0127514,-0.590766,-0.322604,0
2024-12-11 14:35:57.343,0.498006,1.91755,9.38974,-0.0231358,-0.577327,-0.332988,0
2024-12-11 14:35:57.346,0.452543,1.89841,9.39931,-0.0310769,-0.560834,-0.340929,0
2024-12-11 14:35:57.347,0.421436,1.88644,9.40888,-0.042683,-0.54312,-0.349481,0
2024-12-11 14:35:57.351,0.387936,1.88405,9.41845,-0.0530674,-0.525405,-0.354368,0
2024-12-11 14:35:57.352,0.344866,1.8673,9.42323,-0.0658951,-0.505858,-0.359255,0
2024-12-11 14:35:57.354,0.313759,1.84098,9.4352,-0.0817772,-0.483867,-0.361087,0
2024-12-11 14:35:57.357,0.311366,1.82662,9.43759,-0.0964375,-0.461266,-0.361087,0
2024-12-11 14:35:57.359,0.313759,1.81944,9.44956,-0.116595,-0.43561,-0.362309,0
2024-12-11 14:35:57.362,0.304188,1.83619,9.47827,-0.163631,-0.37758,-0.358033,0
2024-12-11 14:35:57.365,0.304188,1.85533,9.51416,-0.1844,-0.344594,-0.355589,0
2024-12-11 14:35:57.367,0.294616,1.86491,9.57877,-0.207612,-0.314052,-0.351314,0
2024-12-11 14:35:57.369,0.27996,1.8673,9.64577,-0.207612,-0.314052,-0.351314,0
2024-12-11 14:35:57.372,0.27996,1.85533,9.70559,-0.22777,-0.281677,-0.346427,0
2024-12-11 14:35:57.373,0.251246,1.85533,9.77259,-0.247317,-0.250524,-0.340929,0
2024-12-11 14:35:57.376,0.227318,1.85055,9.84946,-0.268696,-0.219371,-0.334821,0
2024-12-11 14:35:57.379,0.215354,1.85055,9.92842,-0.29985,-0.155232,-0.317717,0
2024-12-11 14:35:57.380,0.196211,1.85055,10.0122,-0.29985,-0.155232,-0.317717,0
2024-12-11 14:35:57.382,0.193819,1.83859,10.0792,-0.313288,-0.1253,-0.308554,0
2024-12-11 14:35:57.385,0.198604,1.82184,10.1605,-0.324894,-0.0953685,-0.299392,0
2024-12-11 14:35:57.388,0.200997,1.81944,10.2706,-0.340166,-0.0355055,-0.281677,0
2024-12-11 14:35:57.391,0.20339,1.82662,10.3759,-0.340166,-0.0355055,-0.281677,0
2024-12-11 14:35:57.392,0.196211,1.82184,10.4743,-0.342609,-0.0129041,-0.270682,0
2024-12-11 14:35:57.394,0.189033,1.81466,10.5652,-0.340776,0.0096972,-0.260297,0
2024-12-11 14:35:57.398,0.208176,1.82901,10.6681,-0.325505,0.0481806,-0.241972,0
2024-12-11 14:35:57.399,0.224925,1.84816,10.7518,-0.325505,0.0481806,-0.241972,0
2024-12-11 14:35:57.401,0.222533,1.87448,10.7877,-0.315732,0.0610084,-0.232809,0
2024-12-11 14:35:57.405,0.227318,1.90558,10.8356,-0.287022,0.0799446,-0.215705,0
2024-12-11 14:35:57.407,0.239282,1.92951,10.8787,-0.272362,0.0878856,-0.207764,0
2024-12-11 14:35:57.408,0.248854,1.95105,10.8906,-0.272362,0.0878856,-0.207764,0
2024-12-11 14:35:57.411,0.251246,1.98963,10.8906,-0.255258,0.0933833,-0.203488,0
2024-12-11 14:35:57.414,0.27996,2.0351,10.8787,-0.222883,0.101324,-0.194326,0
2024-12-11 14:35:57.416,0.32333,2.08056,10.8715,-0.222883,0.101324,-0.194326,0
2024-12-11 14:35:57.418,0.347258,2.12842,10.85,-0.209444,0.104379,-0.192493,0
2024-12-11 14:35:57.420,0.359223,2.17149,10.8021,-0.196006,0.103768,-0.191272,0
2024-12-11 14:35:57.423,0.366401,2.21216,10.7542,-0.183789,0.104989,-0.192493,0
2024-12-11 14:35:57.425,0.361615,2.24806,10.704,-0.172793,0.1056,-0.192493,0
2024-12-11 14:35:57.427,0.349651,2.28395,10.6394,-0.163631,0.1056,-0.193715,0
2024-12-11 14:35:57.431,0.325723,2.31027,10.5748,-0.152025,0.108044,-0.197991,0
2024-12-11 14:35:57.432,0.308973,2.32941,10.5293,-0.152025,0.108044,-0.197991,0
2024-12-11 14:35:57.434,0.304188,2.35573,10.5102,-0.147749,0.109265,-0.196769,0
2024-12-11 14:35:57.437,0.30658,2.37727,10.5126,-0.137975,0.110487,-0.197991,0
2024-12-11 14:35:57.439,0.318545,2.38206,10.5221,-0.130645,0.110487,-0.199823,0
2024-12-11 14:35:57.441,0.325723,2.38206,10.515,-0.123315,0.108654,-0.201045,0
2024-12-11 14:35:57.444,0.32333,2.37966,10.4982,-0.114763,0.106211,-0.201045,0
2024-12-11 14:35:57.446,0.311366,2.3677,10.4886,-0.104989,0.100713,-0.201045,0
2024-12-11 14:35:57.448,0.30658,2.36291,10.4743,-0.0970484,0.0976592,-0.204099,0
2024-12-11 14:35:57.451,0.308973,2.34616,10.4623,-0.0878856,0.0964375,-0.205321,0
2024-12-11 14:35:57.453,0.301795,2.32223,10.448,-0.0799446,0.0958267,-0.208375,0
2024-12-11 14:35:57.455,0.260818,2.31027,10.4336,-0.0701711,0.0939941,-0.208375,0
2024-12-11 14:35:57.458,0.212961,2.29352,10.4336,-0.0628409,0.090329,-0.208986,0
2024-12-11 14:35:57.461,0.172283,2.27677,10.4264,-0.0451263,0.0878856,-0.202878,0
2024-12-11 14:35:57.464,0.131605,2.25763,10.424,-0.0451263,0.0878856,-0.202878,0
2024-12-11 14:35:57.465,0.11007,2.23131,10.4097,-0.0341311,0.0860531,-0.201045,0
2024-12-11 14:35:57.468,0.0981057,2.2002,10.3905,-0.0249684,0.082388,-0.193715,0
2024-12-11 14:35:57.471,0.081356,2.15474,10.3639,-0.0096972,0.0793338,-0.185163,0
2024-12-11 14:35:57.472,0.0717847,2.10209,10.3161,-0.0096972,0.0793338,-0.185163,0
2024-12-11 14:35:57.475,0.0478565,2.07577,10.2754,0.0019089,0.0787229,-0.169281,0
2024-12-11 14:35:57.478,-0.00717847,2.04945,10.2251,0.00557398,0.0787229,-0.163173,0
2024-12-11 14:35:57.479,-0.0478565,2.02792,10.1581,0.00557398,0.0787229,-0.163173,0
2024-12-11 14:35:57.481,-0.0741775,2.00399,10.1007,0.00679568,0.0762796,-0.151566,0
2024-12-11 14:35:57.484,-0.0909273,1.98245,10.0576,0.00984991,0.0775012,-0.141793,0
2024-12-11 14:35:57.486,-0.102891,1.98006,10.0313,0.0122933,0.0756687,-0.133241,0
2024-12-11 14:35:57.489,-0.124427,1.9657,9.99781,0.0122933,0.0726145,-0.122857,0
2024-12-11 14:35:57.491,-0.155533,1.94865,9.94038,0.00923906,0.0683385,-0.112472,0
2024-12-11 14:35:57.493,-0.167498,1.95105,9.88056,0.00740652,0.0634518,-0.102699,0
2024-12-11 14:35:57.496,-0.172283,1.94387,9.83988,0.00679568,0.0610084,-0.0929251,0
2024-12-11 14:35:57.498,-0.160319,1.92233,9.81566,7.63559e-05,0.0548999,-0.0843733,0
2024-12-11 14:35:57.501,-0.119641,1.92951,9.79652,-0.00358873,0.050624,-0.0758214,0
2024-12-11 14:35:57.503,-0.0885344,1.94148,9.79173,-0.00786466,0.0451263,-0.0691021,0
2024-12-11 14:35:57.506,-0.066999,1.95105,9.78455,-0.0176382,0.0377962,-0.0556635,0
2024-12-11 14:35:57.507,-0.0646062,1.94865,9.76302,-0.0176382,0.0377962,-0.0556635,0
2024-12-11 14:35:57.510,-0.0550349,1.95583,9.74148,-0.0249684,0.0341311,-0.0519984,0
2024-12-11 14:35:57.512,-0.0334995,1.97767,9.73191,-0.0316877,0.0310769,-0.0483333,0
2024-12-11 14:35:57.514,-0.00478565,1.97528,9.71755,-0.0365745,0.0298552,-0.0471116,0
2024-12-11 14:35:57.517,0.0311067,1.97288,9.69123,-0.0439046,0.0249684,-0.0440574,0
2024-12-11 14:35:57.519,0.0622134,1.98724,9.65534,-0.0530674,0.0194708,-0.0428357,0
2024-12-11 14:35:57.521,0.0957129,1.9992,9.62902,-0.0610084,0.0164165,-0.0440574,0
2024-12-11 14:35:57.524,0.117248,1.99681,9.61945,-0.0713928,0.0096972,-0.041614,0
2024-12-11 14:35:57.526,0.133998,2.00399,9.60748,-0.0817772,0.00236703,-0.0465007,0
2024-12-11 14:35:57.529,0.150748,2.0327,9.60748,-0.0933833,-0.00313059,-0.0507767,0
2024-12-11 14:35:57.532,0.157926,2.03988,9.60748,-0.110487,-0.0129041,-0.057496,0
2024-12-11 14:35:57.533,0.184247,2.02792,9.62184,-0.110487,-0.0129041,-0.057496,0
2024-12-11 14:35:57.536,0.20339,2.01356,9.65055,-0.117817,-0.0184018,-0.0617719,0
2024-12-11 14:35:57.538,0.210568,1.99681,9.69362,-0.127591,-0.021456,-0.0660479,0
2024-12-11 14:35:57.540,0.229711,1.99202,9.7678,-0.130645,-0.0245102,-0.0678804,0
2024-12-11 14:35:57.543,0.248854,1.98006,9.85664,-0.134921,-0.0281753,-0.0721563,0
2024-12-11 14:35:57.545,0.253639,1.95344,9.95235,-0.136143,-0.0281753,-0.0758214,0
2024-12-11 14:35:57.548,0.258425,1.92473,10.005,-0.134921,-0.0300079,-0.0794865,0
2024-12-11 14:35:57.550,0.260818,1.91037,10.0433,-0.134921,-0.0300079,-0.0794865,0
2024-12-11 14:35:57.552,0.248854,1.89601,10.1031,-0.131256,-0.0251211,-0.0849841,0
2024-12-11 14:35:57.555,0.227318,1.87926,10.1366,-0.128202,-0.0196235,-0.085595,0
2024-12-11 14:35:57.557,0.200997,1.87208,10.1677,-0.122093,-0.0141258,-0.0831516,0
2024-12-11 14:35:57.560,0.18664,1.8673,10.2012,-0.113541,-0.00618483,-0.0819299,0
2024-12-11 14:35:57.562,0.184247,1.85294,10.2108,-0.113541,-0.00618483,-0.0819299,0
2024-12-11 14:35:57.565,0.179462,1.83141,10.206,-0.110487,-0.00251974,-0.0800973,0
2024-12-11 14:35:57.566,0.177069,1.82184,10.2084,-0.102546,-7.63559e-05,-0.0764323,0
2024-12-11 14:35:57.568,0.16989,1.81226,10.2227,-0.0958267,0.00481042,-0.0745997,0
2024-12-11 14:35:57.572,0.162712,1.80748,10.2227,-0.0872748,0.0139731,-0.0715455,0
2024-12-11 14:35:57.573,0.138784,1.81944,10.218,-0.0872748,0.0139731,-0.0715455,0
2024-12-11 14:35:57.576,0.102891,1.82662,10.1916,-0.0805555,0.0200816,-0.0691021,0
2024-12-11 14:35:57.581,0.0382852,1.84337,10.1438,-0.0720036,0.0322986,-0.0599394,0
2024-12-11 14:35:57.581,0.0382852,1.84337,10.1438,-0.0720036,0.0322986,-0.0599394,0
2024-12-11 14:35:57.585,-0.0215354,1.84098,10.0887,-0.0646735,0.0390179,-0.0471116,0
2024-12-11 14:35:57.585,-0.0215354,1.84098,10.0887,-0.0646735,0.0390179,-0.0471116,0
2024-12-11 14:35:57.587,-0.0526421,1.84816,10.0744,-0.0652843,0.042683,-0.0410031,0
2024-12-11 14:35:57.590,-0.066999,1.86491,10.0457,-0.0616192,0.0445155,-0.0342838,0
2024-12-11 14:35:57.592,-0.0885344,1.88405,10.0193,-0.0597867,0.046348,-0.0245102,0
2024-12-11 14:35:57.594,-0.107677,1.90558,10.005,-0.0603975,0.0432938,-0.0202343,0
2024-12-11 14:35:57.597,-0.100499,1.92712,9.98585,-0.0591758,0.0414613,-0.013515,0
2024-12-11 14:35:57.599,-0.0981057,1.94865,9.94517,-0.0579541,0.0402396,-0.00801737,0
2024-12-11 14:35:57.601,-0.0957129,1.98245,9.90928,-0.0573433,0.0335202,-0.00374144,0
2024-12-11 14:35:57.605,-0.0765703,2.00638,9.89253,-0.0579541,0.022525,0.00358873,0
2024-12-11 14:35:57.606,-0.066999,2.02074,9.8686,-0.0579541,0.022525,0.00358873,0
2024-12-11 14:35:57.609,-0.0478565,2.03749,9.85424,-0.0561216,0.0139731,0.00603212,0
2024-12-11 14:35:57.612,-0.0239282,2.06142,9.83031,-0.0548999,0.00481042,0.00603212,0
2024-12-11 14:35:57.613,-0.00717847,2.09252,9.78455,-0.0548999,0.00481042,0.00603212,0
2024-12-11 14:35:57.616,0.00239282,2.11884,9.74627,-0.0567324,-0.0116825,0.00358873,0
2024-12-11 14:35:57.618,0.0334995,2.14517,9.72473,-0.058565,-0.0202343,0.000534491,0
2024-12-11 14:35:57.620,0.0765703,2.15952,9.70559,-0.0597867,-0.0269536,-0.00251974,0
2024-12-11 14:35:57.623,0.0957129,2.17866,9.70319,-0.0610084,-0.0355055,-0.00801737,0
2024-12-11 14:35:57.626,0.117248,2.19302,9.69362,-0.0616192,-0.0422248,-0.0116825,0
2024-12-11 14:35:57.627,0.155533,2.19781,9.68884,-0.0610084,-0.0483333,-0.0202343,0
2024-12-11 14:35:57.630,0.179462,2.21456,9.68405,-0.0622301,-0.0526092,-0.0275645,0
2024-12-11 14:35:57.632,0.189033,2.22891,9.65534,-0.0646735,-0.057496,-0.033673,0
2024-12-11 14:35:57.637,0.232104,2.22413,9.6362,-0.0689494,-0.0648262,-0.0483333,0
2024-12-11 14:35:57.638,0.232104,2.22413,9.6362,-0.0689494,-0.0648262,-0.0483333,0
2024-12-11 14:35:57.641,0.251246,2.21934,9.64337,-0.0720036,-0.0660479,-0.0623828,0
2024-12-11 14:35:57.641,0.251246,2.21934,9.64337,-0.0720036,-0.0660479,-0.0623828,0
2024-12-11 14:35:57.644,0.251246,2.21934,9.6673,-0.074447,-0.0672696,-0.0709346,0
2024-12-11 14:35:57.646,0.246461,2.20738,9.69362,-0.074447,-0.0629936,-0.0782648,0
2024-12-11 14:35:57.649,0.229711,2.18584,9.70798,-0.0726145,-0.0599394,-0.0819299,0
2024-12-11 14:35:57.653,0.210568,2.14995,9.71037,-0.0732253,-0.0532201,-0.0898709,0
2024-12-11 14:35:57.653,0.18664,2.14995,9.71037,-0.0732253,-0.0532201,-0.0898709,0
2024-12-11 14:35:57.656,0.155533,2.13559,9.70798,-0.0720036,-0.0471116,-0.0904818,0
2024-12-11 14:35:57.658,0.133998,2.11884,9.69602,-0.0720036,-0.0471116,-0.0904818,0
2024-12-11 14:35:57.660,0.122034,2.11167,9.66252,-0.0738362,-0.0403923,-0.0892601,0
2024-12-11 14:35:57.663,0.0957129,2.09731,9.62902,-0.0738362,-0.0403923,-0.0892601,0
2024-12-11 14:35:57.665,0.0598206,2.07099,9.61227,-0.0762796,-0.0361163,-0.0874275,0
2024-12-11 14:35:57.670,0.0478565,2.04945,9.55245,-0.0829989,-0.0379489,-0.0807082,0
2024-12-11 14:35:57.670,0.0478565,2.04945,9.55245,-0.0829989,-0.0379489,-0.0807082,0
2024-12-11 14:35:57.672,0.0598206,2.02074,9.57159,-0.086664,-0.0391706,-0.0770431,0
2024-12-11 14:35:57.674,0.081356,2.00638,9.61705,-0.0891073,-0.0440574,-0.0758214,0
2024-12-11 14:35:57.677,0.0909273,1.99681,9.6673,-0.0933833,-0.0489441,-0.0758214,0
2024-12-11 14:35:57.679,0.0933201,1.9992,9.72952,-0.0958267,-0.0538309,-0.0752106,0
2024-12-11 14:35:57.682,0.119641,1.99442,9.79891,-0.0976592,-0.057496,-0.0764323,0
2024-12-11 14:35:57.684,0.153141,1.98485,9.85903,-0.0958267,-0.0642153,-0.077654,0
2024-12-11 14:35:57.686,0.157926,1.98963,9.90928,-0.0952158,-0.0721563,-0.0794865,0
2024-12-11 14:35:57.689,0.160319,1.98006,9.95235,-0.090329,-0.0770431,-0.0825407,0
2024-12-11 14:35:57.691,0.16989,1.96062,9.97628,-0.086664,-0.085595,-0.0819299,0
2024-12-11 14:35:57.693,0.165105,1.95344,9.99542,-0.0811663,-0.093536,-0.0794865,0
2024-12-11 14:35:57.696,0.16989,1.95823,9.99781,-0.0762796,-0.100866,-0.0800973,0
2024-12-11 14:35:57.699,0.198604,1.95344,9.99303,-0.0689494,-0.113083,-0.0764323,0
2024-12-11 14:35:57.701,0.22014,1.93669,10.005,-0.0689494,-0.113083,-0.0764323,0
2024-12-11 14:35:57.703,0.229711,1.92473,10.0576,-0.0658951,-0.116137,-0.0752106,0
2024-12-11 14:35:57.705,0.244068,1.92473,10.1438,-0.0567324,-0.112472,-0.0739889,0
2024-12-11 14:35:57.707,0.224925,1.93191,10.2132,-0.0481806,-0.106975,-0.0727672,0
2024-12-11 14:35:57.712,0.227318,1.96062,10.2371,-0.0341311,-0.107585,-0.065437,0
2024-12-11 14:35:57.712,0.227318,1.96062,10.2371,-0.0341311,-0.107585,-0.065437,0
2024-12-11 14:35:57.715,0.241675,1.96301,10.2203,-0.0298552,-0.111861,-0.0629936,0
2024-12-11 14:35:57.717,0.267996,1.93908,10.1916,-0.0261901,-0.114916,-0.0605502,0
2024-12-11 14:35:57.719,0.287438,1.93191,10.1749,-0.0255792,-0.116748,-0.0568851,0
2024-12-11 14:35:57.722,0.297009,1.95105,10.1701,-0.0219141,-0.116137,-0.0587177,0
2024-12-11 14:35:57.724,0.297009,1.97288,10.1653,-0.0219141,-0.115526,-0.0587177,0
2024-12-11 14:35:57.726,0.297009,1.98963,10.151,-0.0188599,-0.116137,-0.057496,0
2024-12-11 14:35:57.730,0.297009,2.00877,10.1462,-0.0158057,-0.113083,-0.0562743,0
2024-12-11 14:35:57.731,0.292223,2.0351,10.1629,-0.0133623,-0.11064,-0.0544418,0
2024-12-11 14:35:57.733,0.287438,2.04467,10.1677,-0.0158057,-0.108196,-0.0519984,0
2024-12-11 14:35:57.736,0.285045,2.04945,10.151,-0.0139731,-0.105142,-0.0519984,0
2024-12-11 14:35:57.738,0.292223,2.04706,10.151,-0.0121406,-0.10331,-0.0513875,0
2024-12-11 14:35:57.741,0.297009,2.02074,10.1533,-0.014584,-0.0984228,-0.049555,0
2024-12-11 14:35:57.743,0.294616,2.02313,10.1342,-0.0151948,-0.0953685,-0.0489441,0
2024-12-11 14:35:57.745,0.294616,2.05185,10.1079,-0.0176382,-0.0892601,-0.0489441,0
2024-12-11 14:35:57.747,0.289831,2.07338,10.0935,-0.0188599,-0.0807082,-0.0483333,0
2024-12-11 14:35:57.750,0.253639,2.08535,10.0911,-0.0213033,-0.073378,-0.0471116,0
2024-12-11 14:35:57.753,0.22014,2.11167,10.0744,-0.0274118,-0.0623828,-0.0458899,0
2024-12-11 14:35:57.756,0.215354,2.14277,10.06,-0.0316877,-0.0587177,-0.0452791,0
2024-12-11 14:35:57.759,0.248854,2.15713,10.0217,-0.0316877,-0.0587177,-0.0452791,0
2024-12-11 14:35:57.759,0.248854,2.15713,10.0217,-0.0316877,-0.0587177,-0.0452791,0
2024-12-11 14:35:57.762,0.251246,2.15474,9.98106,-0.0371853,-0.0526092,-0.0471116,0
2024-12-11 14:35:57.764,0.263211,2.16909,9.95474,-0.0524565,-0.0507767,-0.0483333,0
2024-12-11 14:35:57.766,0.277567,2.17627,9.94756,-0.0634518,-0.0477224,-0.049555,0
2024-12-11 14:35:57.769,0.287438,2.17627,9.96192,-0.0683385,-0.041614,-0.0562743,0
2024-12-11 14:35:57.771,0.289831,2.19063,10.0002,-0.0738362,-0.0318404,-0.0617719,0
2024-12-11 14:35:57.773,0.267996,2.19302,10.0528,-0.0762796,-0.0220669,-0.0623828,0
2024-12-11 14:35:57.776,0.244068,2.2002,10.0935,-0.0768904,-0.013515,-0.0642153,0
2024-12-11 14:35:57.778,0.217747,2.2002,10.1175,-0.0762796,-0.00374144,-0.0672696,0
2024-12-11 14:35:57.780,0.181855,2.19063,10.1318,-0.0738362,0.00603212,-0.0678804,0
2024-12-11 14:35:57.784,0.145962,2.17388,10.1127,-0.066506,0.0231358,-0.0660479,0
2024-12-11 14:35:57.785,0.117248,2.15474,10.0792,-0.066506,0.0231358,-0.0660479,0
2024-12-11 14:35:57.788,0.0861416,2.14277,10.0457,-0.066506,0.0292443,-0.0648262,0
2024-12-11 14:35:57.793,0.0550349,2.12602,10.017,-0.0603975,0.0322986,-0.0568851,0
2024-12-11 14:35:57.795,0.0215354,2.13081,9.95953,-0.0603975,0.0322986,-0.0568851,0
2024-12-11 14:35:57.795,0.0215354,2.13081,9.95953,-0.0603975,0.0322986,-0.0568851,0
2024-12-11 14:35:57.798,-0.00478565,2.09492,9.86621,-0.0646735,0.0268009,-0.0544418,0
2024-12-11 14:35:57.800,-0.00957129,2.07338,9.80369,-0.0726145,0.0255792,-0.0513875,0
2024-12-11 14:35:57.803,-0.0287139,2.08295,9.79412,-0.0713928,0.0329094,-0.049555,0
2024-12-11 14:35:57.804,-0.0646062,2.09731,9.81566,-0.0713928,0.0329094,-0.049555,0
2024-12-11 14:35:57.807,-0.0981057,2.11406,9.8686,-0.0658951,0.0390179,-0.0452791,0
2024-12-11 14:35:57.810,-0.112463,2.12842,9.94038,-0.0475697,0.0445155,-0.0397814,0
2024-12-11 14:35:57.812,-0.100499,2.13559,9.98585,-0.0371853,0.0371853,-0.0342838,0
2024-12-11 14:35:57.814,-0.0837488,2.12124,9.97867,-0.0371853,0.0371853,-0.0342838,0
2024-12-11 14:35:57.817,-0.0741775,2.08535,9.93081,-0.0237467,0.014584,-0.0287862,0
2024-12-11 14:35:57.820,-0.0741775,2.03988,9.85664,-0.0194708,0.00542127,-0.0263428,0
2024-12-11 14:35:57.820,-0.0741775,2.03988,9.85664,-0.0194708,0.00542127,-0.0263428,0
2024-12-11 14:35:57.825,-0.0502493,2.05902,9.8686,-0.00358873,-0.00435229,-0.0220669,0
2024-12-11 14:35:57.825,-0.0502493,2.05902,9.8686,-0.00358873,-0.00435229,-0.0220669,0
2024-12-11 14:35:57.828,-0.0454636,2.08056,9.89731,7.63559e-05,-0.00557398,-0.021456,0
2024-12-11 14:35:57.830,-0.0526421,2.09492,9.92124,0.00679568,-0.00740652,-0.0202343,0
2024-12-11 14:35:57.832,-0.0598206,2.08295,9.91646,0.0129041,-0.00740652,-0.0165692,0
2024-12-11 14:35:57.835,-0.0502493,2.07099,9.89253,0.0184018,-0.00984991,-0.0153475,0
2024-12-11 14:35:57.837,-0.0334995,2.06142,9.85903,0.0226777,-0.0147367,-0.0116825,0
2024-12-11 14:35:57.839,-0.0119641,2.0351,9.81326,0.0257319,-0.0159584,-0.00862822,0
2024-12-11 14:35:57.842,0.0119641,2.01835,9.75584,0.021456,-0.0184018,-0.00496313,0
