timestamp,accel_x,accel_y,accel_z,gyro_x,gyro_y,gyro_z,step_timestamp
2024-12-11 14:43:44.533,0.0646062,2.29831,9.75584,-0.0524565,-0.00801737,-7.63559e-05,0
2024-12-11 14:43:44.535,0.0334995,2.31745,9.73669,-0.0524565,-0.00801737,-7.63559e-05,0
2024-12-11 14:43:44.535,0.0334995,2.31745,9.73669,-0.0524565,-0.00801737,-7.63559e-05,0
2024-12-11 14:43:44.535,0.0334995,2.31745,9.73669,-0.0524565,-0.00801737,-7.63559e-05,0
2024-12-11 14:43:44.535,0.0334995,2.31745,9.73669,-0.0524565,-0.00801737,-7.63559e-05,0
2024-12-11 14:43:44.535,0.0334995,2.31745,9.73669,-0.0524565,-0.00801737,-7.63559e-05,0
2024-12-11 14:43:44.535,0.0334995,2.31745,9.73669,-0.0524565,-0.00801737,-7.63559e-05,0
2024-12-11 14:43:44.535,0.0334995,2.31745,9.73669,-0.0524565,-0.00801737,-7.63559e-05,0
2024-12-11 14:43:44.535,0.0334995,2.31745,9.73669,-0.0524565,-0.00801737,-7.63559e-05,0
2024-12-11 14:43:44.535,0.0334995,2.31745,9.73669,-0.0524565,-0.00801737,-7.63559e-05,0
2024-12-11 14:43:44.535,0.0334995,2.31745,9.73669,-0.0524565,-0.00801737,-7.63559e-05,0
2024-12-11 14:43:44.535,0.0334995,2.31745,9.73669,-0.0524565,-0.00801737,-7.63559e-05,0
2024-12-11 14:43:44.535,0.0334995,2.31745,9.73669,-0.0524565,-0.00801737,-7.63559e-05,0
2024-12-11 14:43:44.535,0.0334995,2.31745,9.73669,-0.0524565,-0.00801737,-7.63559e-05,0
2024-12-11 14:43:44.535,0.0334995,2.31745,9.73669,-0.0524565,-0.00801737,-7.63559e-05,0
2024-12-11 14:43:44.535,0.0334995,2.31745,9.73669,-0.0524565,-0.00801737,-7.63559e-05,0
2024-12-11 14:43:44.535,0.0334995,2.31745,9.73669,-0.0524565,-0.00801737,-7.63559e-05,0
2024-12-11 14:43:44.535,0.0334995,2.31745,9.73669,-0.0524565,-0.00801737,-7.63559e-05,0
2024-12-11 14:43:44.535,0.0334995,2.31745,9.73669,-0.0524565,-0.00801737,-7.63559e-05,0
2024-12-11 14:43:44.535,0.0334995,2.31745,9.73669,-0.0524565,-0.00801737,-7.63559e-05,0
2024-12-11 14:43:44.535,0.0334995,2.31745,9.73669,-0.0524565,-0.00801737,-7.63559e-05,0
2024-12-11 14:43:44.535,0.0334995,2.31745,9.73669,-0.0524565,-0.00801737,-7.63559e-05,0
2024-12-11 14:43:44.535,0.0334995,2.31745,9.73669,-0.0524565,-0.00801737,-7.63559e-05,0
2024-12-11 14:43:44.535,0.0334995,2.31745,9.73669,-0.0524565,-0.00801737,-7.63559e-05,0
2024-12-11 14:43:44.535,0.0334995,2.31745,9.73669,-0.0524565,-0.00801737,-7.63559e-05,0
2024-12-11 14:43:44.535,0.0334995,2.31745,9.73669,-0.0524565,-0.00801737,-7.63559e-05,0
2024-12-11 14:43:44.535,0.0334995,2.31745,9.73669,-0.0524565,-0.00801737,-7.63559e-05,0
2024-12-11 14:43:44.535,0.0334995,2.31745,9.73669,-0.0524565,-0.00801737,-7.63559e-05,0
2024-12-11 14:43:44.535,0.0334995,2.31745,9.73669,-0.0524565,-0.00801737,-7.63559e-05,0
2024-12-11 14:43:44.535,0.0334995,2.31745,9.73669,-0.0524565,-0.00801737,-7.63559e-05,0
2024-12-11 14:43:44.535,0.0334995,2.31745,9.73669,-0.0524565,-0.00801737,-7.63559e-05,0
2024-12-11 14:43:44.535,0.0334995,2.31745,9.73669,-0.0524565,-0.00801737,-7.63559e-05,0
2024-12-11 14:43:44.535,0.0334995,2.31745,9.73669,-0.0524565,-0.00801737,-7.63559e-05,0
2024-12-11 14:43:44.535,0.0334995,2.31745,9.73669,-0.0524565,-0.00801737,-7.63559e-05,0
2024-12-11 14:43:44.535,0.0334995,2.31745,9.73669,-0.0524565,-0.00801737,-7.63559e-05,0
2024-12-11 14:43:44.535,0.0334995,2.31745,9.73669,-0.0524565,-0.00801737,-7.63559e-05,0
2024-12-11 14:43:44.535,0.0334995,2.31745,9.73669,-0.0524565,-0.00801737,-7.63559e-05,0
2024-12-11 14:43:44.535,0.0334995,2.31745,9.73669,-0.0524565,-0.00801737,-7.63559e-05,0
2024-12-11 14:43:44.535,0.0334995,2.31745,9.73669,-0.0524565,-0.00801737,-7.63559e-05,0
2024-12-11 14:43:44.535,0.0334995,2.31745,9.73669,-0.0524565,-0.00801737,-7.63559e-05,0
2024-12-11 14:43:44.535,0.0334995,2.31745,9.73669,-0.0524565,-0.00801737,-7.63559e-05,0
2024-12-11 14:43:44.535,0.0334995,2.31745,9.73669,-0.0524565,-0.00801737,-7.63559e-05,0
2024-12-11 14:43:44.535,0.0334995,2.31745,9.73669,-0.0524565,-0.00801737,-7.63559e-05,0
2024-12-11 14:43:44.535,0.0334995,2.31745,9.73669,-0.0524565,-0.00801737,-7.63559e-05,0
2024-12-11 14:43:44.535,0.0334995,2.31745,9.73669,-0.0524565,-0.00801737,-7.63559e-05,0
2024-12-11 14:43:44.536,0.0334995,2.31745,9.73669,-0.0524565,-0.00801737,-7.63559e-05,0
2024-12-11 14:43:44.536,0.0334995,2.31745,9.73669,-0.0524565,-0.00801737,-7.63559e-05,0
2024-12-11 14:43:44.536,0.0334995,2.31745,9.73669,-0.0524565,-0.00801737,-7.63559e-05,0
2024-12-11 14:43:44.536,0.0334995,2.31745,9.73669,-0.0524565,-0.00801737,-7.63559e-05,0
2024-12-11 14:43:44.536,0.0334995,2.31745,9.73669,-0.0524565,-0.00801737,-7.63559e-05,0
2024-12-11 14:43:44.536,0.0334995,2.31745,9.73669,-0.0524565,-0.00801737,-7.63559e-05,0
2024-12-11 14:43:44.536,0.0334995,2.31745,9.73669,-0.0524565,-0.00801737,-7.63559e-05,0
2024-12-11 14:43:44.536,0.0334995,2.31745,9.73669,-0.0524565,-0.00801737,-7.63559e-05,0
2024-12-11 14:43:44.536,0.0334995,2.31745,9.73669,-0.0524565,-0.00801737,-7.63559e-05,0
2024-12-11 14:43:44.536,0.0334995,2.31745,9.73669,-0.0524565,-0.00801737,-7.63559e-05,0
2024-12-11 14:43:44.536,0.0334995,2.31745,9.73669,-0.0524565,-0.00801737,-7.63559e-05,0
2024-12-11 14:43:44.536,0.0334995,2.31745,9.73669,-0.0524565,-0.00801737,-7.63559e-05,0
2024-12-11 14:43:44.536,0.0334995,2.31745,9.73669,-0.0524565,-0.00801737,-7.63559e-05,0
2024-12-11 14:43:44.536,0.0334995,2.31745,9.73669,-0.0524565,-0.00801737,-7.63559e-05,0
2024-12-11 14:43:44.536,0.0334995,2.31745,9.73669,-0.0524565,-0.00801737,-7.63559e-05,0
2024-12-11 14:43:44.536,0.0334995,2.31745,9.73669,-0.0524565,-0.00801737,-7.63559e-05,0
2024-12-11 14:43:44.536,0.0334995,2.31745,9.73669,-0.0524565,-0.00801737,-7.63559e-05,0
2024-12-11 14:43:44.536,0.0334995,2.31745,9.73669,-0.0524565,-0.00801737,-7.63559e-05,0
2024-12-11 14:43:44.536,0.0334995,2.31745,9.73669,-0.0524565,-0.00801737,-7.63559e-05,0
2024-12-11 14:43:44.536,0.0334995,2.31745,9.73669,-0.0524565,-0.00801737,-7.63559e-05,0
2024-12-11 14:43:44.536,0.0334995,2.31745,9.73669,-0.0524565,-0.00801737,-7.63559e-05,0
2024-12-11 14:43:44.542,0.0287139,2.30548,9.69841,-0.0524565,-0.00801737,-7.63559e-05,0
2024-12-11 14:43:44.547,0.0,2.29113,9.67927,-0.0524565,-0.00801737,-7.63559e-05,0
2024-12-11 14:43:44.553,0.00239282,2.27916,9.69123,-0.0524565,-0.00801737,-7.63559e-05,0
2024-12-11 14:43:44.563,-0.00957129,2.27199,9.74627,-0.0738362,0.0188599,0.00236703,0
2024-12-11 14:43:44.563,-0.00957129,2.27199,9.74627,-0.0738362,0.0188599,0.00236703,0
2024-12-11 14:43:44.563,-0.00957129,2.27199,9.74627,-0.0738362,0.0188599,0.00236703,0
2024-12-11 14:43:44.563,-0.00957129,2.27199,9.74627,-0.0738362,0.0188599,0.00236703,0
2024-12-11 14:43:44.563,-0.00957129,2.27199,9.74627,-0.0738362,0.0188599,0.00236703,0
2024-12-11 14:43:44.564,-0.00957129,2.27199,9.74627,-0.0738362,0.0188599,0.00236703,0
2024-12-11 14:43:44.564,-0.00957129,2.27199,9.74627,-0.0738362,0.0188599,0.00236703,0
2024-12-11 14:43:44.568,-0.0358923,2.27199,9.7343,-0.0738362,0.0188599,0.00481042,0
2024-12-11 14:43:44.568,-0.0358923,2.27199,9.7343,-0.0738362,0.0188599,0.00481042,0
2024-12-11 14:43:44.568,-0.0358923,2.27199,9.7343,-0.0738362,0.0188599,0.00481042,0
2024-12-11 14:43:44.569,-0.0358923,2.27199,9.7343,-0.0738362,0.0188599,0.00481042,0
2024-12-11 14:43:44.570,-0.0454636,2.26959,9.72712,-0.0738362,0.0188599,0.00481042,0
2024-12-11 14:43:44.572,-0.0502493,2.26959,9.72952,-0.0726145,0.022525,0.00847551,0
2024-12-11 14:43:44.572,-0.0502493,2.26959,9.72952,-0.0726145,0.022525,0.00847551,0
2024-12-11 14:43:44.573,-0.0502493,2.26959,9.72952,-0.0726145,0.022525,0.00847551,0
2024-12-11 14:43:44.575,-0.0550349,2.26481,9.72952,-0.0738362,0.0206925,0.0127514,0
2024-12-11 14:43:44.575,-0.0550349,2.26481,9.72952,-0.0738362,0.0206925,0.0127514,0
2024-12-11 14:43:44.575,-0.0550349,2.26481,9.72952,-0.0738362,0.0206925,0.0127514,0
2024-12-11 14:43:44.575,-0.0550349,2.26481,9.72952,-0.0738362,0.0206925,0.0127514,0
2024-12-11 14:43:44.575,-0.0550349,2.26481,9.72952,-0.0738362,0.0206925,0.0127514,0
2024-12-11 14:43:44.575,-0.0550349,2.26481,9.72952,-0.0738362,0.0206925,0.0127514,0
2024-12-11 14:43:44.575,-0.0550349,2.26481,9.72952,-0.0738362,0.0206925,0.0127514,0
2024-12-11 14:43:44.576,-0.0550349,2.26481,9.72952,-0.0738362,0.0206925,0.0127514,0
2024-12-11 14:43:44.576,-0.0550349,2.26481,9.72952,-0.0738362,0.0206925,0.0127514,0
2024-12-11 14:43:44.576,-0.0550349,2.26481,9.72952,-0.0738362,0.0206925,0.0127514,0
2024-12-11 14:43:44.576,-0.0550349,2.26481,9.72952,-0.0738362,0.0206925,0.0127514,0
2024-12-11 14:43:44.576,-0.0550349,2.26481,9.72952,-0.0738362,0.0206925,0.0127514,0
2024-12-11 14:43:44.578,-0.0574277,2.25763,9.71755,-0.0738362,0.0206925,0.0127514,0
2024-12-11 14:43:44.578,-0.0574277,2.25763,9.71755,-0.0738362,0.0206925,0.0127514,0
2024-12-11 14:43:44.579,-0.0574277,2.25763,9.7008,-0.0738362,0.0206925,0.0127514,0
2024-12-11 14:43:44.582,-0.0167498,2.26002,9.70319,-0.0768904,0.0158057,0.0182491,0
2024-12-11 14:43:44.582,-0.0167498,2.26002,9.70319,-0.0768904,0.0158057,0.0182491,0
2024-12-11 14:43:44.583,-0.0167498,2.26002,9.70319,-0.0793338,0.0127514,0.0182491,0
2024-12-11 14:43:44.584,-0.0143569,2.27438,9.71277,-0.0793338,0.0127514,0.0182491,0
2024-12-11 14:43:44.584,-0.0143569,2.27438,9.71277,-0.0793338,0.0127514,0.0182491,0
2024-12-11 14:43:44.585,-0.0143569,2.27438,9.71277,-0.082388,0.0096972,0.0194708,0
2024-12-11 14:43:44.586,0.00717847,2.28156,9.71755,-0.082388,0.0096972,0.0194708,0
2024-12-11 14:43:44.586,0.00717847,2.28156,9.71755,-0.082388,0.0096972,0.0194708,0
2024-12-11 14:43:44.586,0.00717847,2.28156,9.71755,-0.082388,0.0096972,0.0194708,0
2024-12-11 14:43:44.586,0.00717847,2.28156,9.71755,-0.082388,0.0096972,0.0194708,0
2024-12-11 14:43:44.587,0.00717847,2.28156,9.71755,-0.082388,0.0096972,0.0194708,0
2024-12-11 14:43:44.589,0.0215354,2.29113,9.71994,-0.0811663,0.00786466,0.0182491,0
2024-12-11 14:43:44.589,0.0215354,2.29113,9.71994,-0.0811663,0.00786466,0.0182491,0
2024-12-11 14:43:44.590,0.0215354,2.29113,9.71994,-0.0811663,0.00542127,0.0188599,0
2024-12-11 14:43:44.591,0.0215354,2.29113,9.72712,-0.0811663,0.00542127,0.0188599,0
2024-12-11 14:43:44.591,0.0215354,2.29113,9.72712,-0.0811663,0.00542127,0.0188599,0
2024-12-11 14:43:44.591,0.0215354,2.29113,9.72712,-0.0811663,0.00542127,0.0188599,0
2024-12-11 14:43:44.592,0.0215354,2.29113,9.72712,-0.0811663,0.00419957,0.0176382,0
2024-12-11 14:43:44.592,0.0215354,2.29113,9.72712,-0.0811663,0.00419957,0.0176382,0
2024-12-11 14:43:44.592,0.0215354,2.29113,9.72712,-0.0811663,0.00419957,0.0176382,0
2024-12-11 14:43:44.594,0.0358923,2.3007,9.74387,-0.0811663,0.00419957,0.0176382,0
2024-12-11 14:43:44.594,0.0358923,2.3007,9.74387,-0.0811663,0.00419957,0.0176382,0
2024-12-11 14:43:44.596,0.0574277,2.30309,9.76541,-0.0799446,0.00114534,0.0164165,0
2024-12-11 14:43:44.598,0.0693919,2.3007,9.77977,-0.0811663,-0.00313059,0.0158057,0
2024-12-11 14:43:44.601,0.0765703,2.31027,9.78455,-0.0799446,-0.00496313,0.0133623,0
2024-12-11 14:43:44.604,0.0837488,2.31745,9.78216,-0.0787229,-0.00679568,0.0115297,0
2024-12-11 14:43:44.605,0.0957129,2.31266,9.78934,-0.0781121,-0.00862822,0.0115297,0
2024-12-11 14:43:44.608,0.107677,2.30788,9.80609,-0.0756687,-0.00984991,0.0109189,0
2024-12-11 14:43:44.611,0.107677,2.31745,9.81566,-0.0756687,-0.0122933,0.00908635,0
2024-12-11 14:43:44.612,0.133998,2.32702,9.81326,-0.0732253,-0.0129041,0.00481042,0
2024-12-11 14:43:44.615,0.143569,2.33659,9.82553,-0.0756687,-0.0153475,0.00481042,0
2024-12-11 14:43:44.617,0.129212,2.34616,9.85664,-0.0732253,-0.0177909,0.00236703,0
2024-12-11 14:43:44.620,0.122034,2.34138,9.87817,-0.0695602,-0.0202343,0.000534491,0
2024-12-11 14:43:44.622,0.112463,2.34856,9.91646,-0.0671168,-0.021456,0.00175619,0
2024-12-11 14:43:44.624,0.102891,2.35334,9.94756,-0.0640626,-0.0226777,0.000534491,0
2024-12-11 14:43:44.626,0.100499,2.35813,9.95953,-0.058565,-0.0226777,-0.00129805,0
2024-12-11 14:43:44.630,0.0909273,2.37966,9.9691,-0.0494023,-0.0238994,-0.000687203,0
2024-12-11 14:43:44.631,0.0789631,2.39163,9.9691,-0.0494023,-0.0238994,-0.000687203,0
2024-12-11 14:43:44.634,0.0693919,2.38206,9.95713,-0.0439046,-0.0220669,-7.63559e-05,0
2024-12-11 14:43:44.637,0.0622134,2.37009,9.93799,-0.0335202,-0.0153475,0.00297788,0
2024-12-11 14:43:44.638,0.0526421,2.3988,9.90449,-0.0335202,-0.0153475,0.00297788,0
2024-12-11 14:43:44.642,0.040678,2.42513,9.87099,-0.0298552,-0.00557398,0.00542127,0
2024-12-11 14:43:44.644,0.0454636,2.4347,9.8351,-0.030466,-0.00129805,0.00664296,0
2024-12-11 14:43:44.645,0.0646062,2.45863,9.8013,-0.030466,-0.00129805,0.00664296,0
2024-12-11 14:43:44.648,0.0861416,2.48255,9.76062,-0.0298552,0.00419957,0.0096972,0
2024-12-11 14:43:44.650,0.112463,2.5017,9.71037,-0.0322986,0.00908635,0.010308,0
2024-12-11 14:43:44.653,0.124427,2.51845,9.68166,-0.0329094,0.0151948,0.00908635,0
2024-12-11 14:43:44.655,0.129212,2.54267,9.65534,-0.0341311,0.0206925,0.00786466,0
2024-12-11 14:43:44.658,0.129212,2.57857,9.60987,-0.0408504,0.0329094,0.00542127,0
2024-12-11 14:43:44.659,0.117248,2.60967,9.58355,-0.0408504,0.0329094,0.00542127,0
2024-12-11 14:43:44.662,0.122034,2.62164,9.5692,-0.046348,0.0377962,0.00419957,0
2024-12-11 14:43:44.664,0.122034,2.64078,9.55245,-0.0512348,0.0432938,-0.000687203,0
2024-12-11 14:43:44.668,0.117248,2.66231,9.54288,-0.058565,0.0530674,-0.00251974,0
2024-12-11 14:43:44.670,0.11007,2.66949,9.52134,-0.0634518,0.0548999,-0.00374144,0
2024-12-11 14:43:44.671,0.107677,2.68385,9.50698,-0.0634518,0.0548999,-0.00374144,0
2024-12-11 14:43:44.675,0.102891,2.68624,9.5022,-0.0720036,0.0573433,-0.00801737,0
2024-12-11 14:43:44.676,0.0933201,2.69581,9.48784,-0.0720036,0.0573433,-0.00801737,0
2024-12-11 14:43:44.678,0.0837488,2.71974,9.48784,-0.0775012,0.0561216,-0.0110716,0
2024-12-11 14:43:44.681,0.0717847,2.71496,9.49502,-0.0805555,0.0548999,-0.0147367,0
2024-12-11 14:43:44.683,0.0765703,2.71735,9.49502,-0.0860531,0.0536782,-0.0165692,0
2024-12-11 14:43:44.685,0.0885344,2.72692,9.49741,-0.0909399,0.0512348,-0.0196235,0
2024-12-11 14:43:44.688,0.0909273,2.71496,9.51416,-0.0921616,0.0481806,-0.0238994,0
2024-12-11 14:43:44.690,0.102891,2.70539,9.52852,-0.0952158,0.042683,-0.0251211,0
2024-12-11 14:43:44.692,0.119641,2.71017,9.54288,-0.0976592,0.0377962,-0.0306187,0
2024-12-11 14:43:44.695,0.12682,2.72213,9.5668,-0.0988809,0.0316877,-0.0342838,0
2024-12-11 14:43:44.697,0.119641,2.73888,9.58595,-0.102546,0.0237467,-0.0410031,0
2024-12-11 14:43:44.700,0.119641,2.73888,9.60748,-0.0994917,0.0200816,-0.0465007,0
2024-12-11 14:43:44.702,0.122034,2.72931,9.64337,-0.100103,0.0121406,-0.0532201,0
2024-12-11 14:43:44.704,0.12682,2.71496,9.67687,-0.0982701,0.00358873,-0.057496,0
2024-12-11 14:43:44.707,0.114855,2.71017,9.69123,-0.0982701,-0.00251974,-0.0642153,0
2024-12-11 14:43:44.709,0.0861416,2.70299,9.7008,-0.0958267,-0.00801737,-0.0697129,0
2024-12-11 14:43:44.711,0.0598206,2.7006,9.72234,-0.0952158,-0.0116825,-0.0745997,0
2024-12-11 14:43:44.714,0.0191426,2.70299,9.72712,-0.0927724,-0.0147367,-0.077654,0
2024-12-11 14:43:44.717,-0.0287139,2.68385,9.71277,-0.0897182,-0.0177909,-0.0819299,0
2024-12-11 14:43:44.718,-0.0717847,2.67189,9.70319,-0.0897182,-0.0177909,-0.0819299,0
2024-12-11 14:43:44.721,-0.107677,2.67189,9.7008,-0.086664,-0.0159584,-0.0825407,0
2024-12-11 14:43:44.723,-0.155533,2.65992,9.68166,-0.0854423,-0.0147367,-0.0825407,0
2024-12-11 14:43:44.725,-0.208176,2.64078,9.66491,-0.0842206,-0.0153475,-0.0800973,0
2024-12-11 14:43:44.729,-0.244068,2.61924,9.65055,-0.0836097,-0.0129041,-0.0800973,0
2024-12-11 14:43:44.731,-0.265603,2.61924,9.64337,-0.0829989,-0.00923906,-0.0739889,0
2024-12-11 14:43:44.732,-0.27996,2.62881,9.63859,-0.0829989,-0.00923906,-0.0739889,0
2024-12-11 14:43:44.735,-0.299402,2.63121,9.64098,-0.0817772,-0.00740652,-0.0678804,0
2024-12-11 14:43:44.737,-0.316152,2.61207,9.65295,-0.0829989,-0.00313059,-0.0660479,0
2024-12-11 14:43:44.739,-0.328116,2.60728,9.65773,-0.0829989,0.000534491,-0.0642153,0
2024-12-11 14:43:44.742,-0.342473,2.62164,9.65295,-0.0817772,0.00603212,-0.0593285,0
2024-12-11 14:43:44.744,-0.349651,2.61924,9.64577,-0.082388,0.0121406,-0.057496,0
2024-12-11 14:43:44.747,-0.366401,2.61685,9.6362,-0.0811663,0.0188599,-0.0538309,0
2024-12-11 14:43:44.750,-0.378365,2.63121,9.63141,-0.0829989,0.0316877,-0.049555,0
2024-12-11 14:43:44.751,-0.380758,2.65035,9.6338,-0.0829989,0.0316877,-0.049555,0
2024-12-11 14:43:44.754,-0.380758,2.65992,9.61945,-0.0817772,0.0396287,-0.0452791,0
2024-12-11 14:43:44.757,-0.385544,2.67189,9.57638,-0.0836097,0.046348,-0.0410031,0
2024-12-11 14:43:44.758,-0.387936,2.67667,9.54288,-0.0848314,0.0530674,-0.0410031,0
2024-12-11 14:43:44.761,-0.383151,2.68385,9.51416,-0.0884965,0.0616192,-0.0403923,0
2024-12-11 14:43:44.763,-0.380758,2.68385,9.46631,-0.0909399,0.0677277,-0.0379489,0
2024-12-11 14:43:44.765,-0.361615,2.67667,9.4352,-0.094605,0.0762796,-0.0385597,0
2024-12-11 14:43:44.769,-0.352044,2.68385,9.42563,-0.106822,0.0872748,-0.037338,0
2024-12-11 14:43:44.772,-0.3999,2.68146,9.41845,-0.11232,0.090329,-0.0361163,0
2024-12-11 14:43:44.773,-0.3999,2.68146,9.41845,-0.11232,0.090329,-0.0361163,0
2024-12-11 14:43:44.777,-0.390329,2.67667,9.41127,-0.116595,0.0982701,-0.0385597,0
2024-12-11 14:43:44.778,-0.390329,2.67667,9.41127,-0.116595,0.0982701,-0.0385597,0
2024-12-11 14:43:44.780,-0.395115,2.65992,9.40648,-0.121482,0.102546,-0.037338,0
2024-12-11 14:43:44.782,-0.373579,2.63599,9.41606,-0.129423,0.106211,-0.0367272,0
2024-12-11 14:43:44.785,-0.35683,2.60728,9.42802,-0.133088,0.109265,-0.0391706,0
2024-12-11 14:43:44.787,-0.364008,2.57617,9.44238,-0.133088,0.109265,-0.0391706,0
2024-12-11 14:43:44.791,-0.378365,2.52832,9.48545,-0.135532,0.108654,-0.0391706,0
2024-12-11 14:43:44.792,-0.378365,2.52832,9.48545,-0.135532,0.108654,-0.0391706,0
2024-12-11 14:43:44.794,-0.380758,2.50648,9.51177,-0.134921,0.113541,-0.0410031,0
2024-12-11 14:43:44.797,-0.387936,2.48734,9.5357,-0.130034,0.11232,-0.0385597,0
2024-12-11 14:43:44.798,-0.409472,2.47298,9.55723,-0.127591,0.113541,-0.0361163,0
2024-12-11 14:43:44.801,-0.435793,2.45145,9.57159,-0.118428,0.117206,-0.0342838,0
2024-12-11 14:43:44.803,-0.457328,2.42273,9.57877,-0.110487,0.11965,-0.0318404,0
2024-12-11 14:43:44.808,-0.488435,2.39163,9.60509,-0.0909399,0.122093,-0.0245102,0
2024-12-11 14:43:44.808,-0.488435,2.39163,9.60509,-0.0909399,0.122093,-0.0245102,0
2024-12-11 14:43:44.810,-0.514756,2.37009,9.59073,-0.0781121,0.125147,-0.0202343,0
2024-12-11 14:43:44.812,-0.545863,2.34856,9.55245,-0.0640626,0.12698,-0.0171801,0
2024-12-11 14:43:44.815,-0.572184,2.3342,9.50938,-0.0518457,0.130645,-0.00984991,0
2024-12-11 14:43:44.817,-0.600898,2.32702,9.45913,-0.038407,0.13431,-0.000687203,0
2024-12-11 14:43:44.820,-0.629611,2.32702,9.4017,-0.0255792,0.138586,0.00603212,0
2024-12-11 14:43:44.822,-0.648754,2.3342,9.32992,-0.0127514,0.14164,0.0127514,0
2024-12-11 14:43:44.824,-0.667897,2.35573,9.25065,-0.00175619,0.144084,0.0219141,0
2024-12-11 14:43:44.827,-0.675075,2.37009,9.18605,0.00618483,0.145916,0.0316877,0
2024-12-11 14:43:44.829,-0.670289,2.39163,9.09512,0.0141258,0.145916,0.042683,0
2024-12-11 14:43:44.832,-0.665504,2.42513,8.99462,0.0238994,0.141029,0.058565,0
2024-12-11 14:43:44.835,-0.667897,2.47059,8.89651,0.0238994,0.141029,0.058565,0
2024-12-11 14:43:44.836,-0.682254,2.51845,8.78644,0.0263428,0.137364,0.0677277,0
2024-12-11 14:43:44.838,-0.684646,2.56182,8.69522,0.0257319,0.130645,0.0756687,0
2024-12-11 14:43:44.841,-0.691825,2.61446,8.6019,0.0208452,0.120261,0.0829989,0
2024-12-11 14:43:44.843,-0.672682,2.67189,8.50858,0.013515,0.106211,0.0884965,0
2024-12-11 14:43:44.845,-0.612862,2.73171,8.42722,0.00435229,0.0909399,0.0939941,0
2024-12-11 14:43:44.848,-0.565005,2.78435,8.36262,-0.010308,0.0732253,0.0982701,0
2024-12-11 14:43:44.850,-0.521934,2.82981,8.32433,-0.0237467,0.0548999,0.101935,0
2024-12-11 14:43:44.854,-0.452543,2.86092,8.30519,-0.0561216,0.022525,0.106822,0
2024-12-11 14:43:44.856,-0.373579,2.87767,8.30997,-0.0561216,0.022525,0.106822,0
2024-12-11 14:43:44.857,-0.294616,2.90399,8.32672,-0.0726145,0.00481042,0.103768,0
2024-12-11 14:43:44.861,-0.208176,2.94467,8.37458,-0.104989,-0.0263428,0.0952158,0
2024-12-11 14:43:44.863,-0.117248,2.97817,8.43919,-0.123926,-0.0428357,0.0872748,0
2024-12-11 14:43:44.865,-0.0167498,3.0021,8.49901,-0.137975,-0.0605502,0.0775012,0
2024-12-11 14:43:44.868,0.0765703,3.00927,8.59472,-0.137975,-0.0605502,0.0775012,0
2024-12-11 14:43:44.870,0.181855,3.01167,8.70748,-0.166685,-0.0947577,0.050624,0
2024-12-11 14:43:44.871,0.297009,3.01884,8.82234,-0.166685,-0.0947577,0.050624,0
2024-12-11 14:43:44.874,0.397508,2.9997,8.94198,-0.180124,-0.111251,0.0359636,0
2024-12-11 14:43:44.876,0.483649,2.96381,9.05444,-0.188065,-0.125911,0.0219141,0
2024-12-11 14:43:44.878,0.557827,2.92552,9.17647,-0.196616,-0.140571,0.00664296,0
2024-12-11 14:43:44.882,0.627219,2.87767,9.29881,-0.208223,-0.167449,-0.0257319,0
2024-12-11 14:43:44.883,0.689432,2.82981,9.41845,-0.208223,-0.167449,-0.0257319,0
2024-12-11 14:43:44.885,0.739681,2.78196,9.54288,-0.210666,-0.179055,-0.0385597,0
2024-12-11 14:43:44.888,0.789931,2.72453,9.66491,-0.210666,-0.188217,-0.0550526,0
2024-12-11 14:43:44.891,0.833001,2.64556,9.79412,-0.20639,-0.205932,-0.0794865,0
2024-12-11 14:43:44.894,0.876371,2.56182,9.92363,-0.198449,-0.210208,-0.0898709,0
2024-12-11 14:43:44.895,0.902692,2.48734,10.0624,-0.198449,-0.210208,-0.0898709,0
2024-12-11 14:43:44.897,0.907478,2.43709,10.2203,-0.186232,-0.214484,-0.0978119,0
2024-12-11 14:43:44.901,0.897907,2.3988,10.3663,-0.172183,-0.213873,-0.104531,0
2024-12-11 14:43:44.902,0.881157,2.36052,10.4982,-0.154468,-0.210208,-0.109418,0
2024-12-11 14:43:44.904,0.873978,2.3342,10.5963,-0.134921,-0.207154,-0.109418,0
2024-12-11 14:43:44.907,0.8668,2.31506,10.6729,-0.110487,-0.197991,-0.108196,0
2024-12-11 14:43:44.909,0.873978,2.31506,10.7351,-0.0860531,-0.187606,-0.106975,0
2024-12-11 14:43:44.912,0.9003,2.28634,10.7853,-0.0597867,-0.176611,-0.10331,0
2024-12-11 14:43:44.915,0.933799,2.27677,10.8117,-0.00419957,-0.147291,-0.0898709,0
2024-12-11 14:43:44.916,0.979263,2.29591,10.8093,-0.00419957,-0.147291,-0.0898709,0
2024-12-11 14:43:44.919,1.02951,2.29113,10.7734,0.0232886,-0.130187,-0.0868167,0
2024-12-11 14:43:44.921,1.08215,2.30309,10.6944,0.0477224,-0.116748,-0.0788757,0
2024-12-11 14:43:44.924,1.12522,2.3342,10.6107,0.0923143,-0.0843733,-0.0697129,0
2024-12-11 14:43:44.925,1.14676,2.39402,10.5221,0.0923143,-0.0843733,-0.0697129,0
2024-12-11 14:43:44.929,1.15394,2.45384,10.3977,0.111251,-0.0697129,-0.0648262,0
2024-12-11 14:43:44.933,1.21854,2.61207,10.0648,0.142404,-0.0446682,-0.0581068,0
2024-12-11 14:43:44.933,1.21854,2.61207,10.0648,0.142404,-0.0446682,-0.0581068,0
2024-12-11 14:43:44.935,1.28076,2.68864,9.92363,0.148512,-0.0403923,-0.0568851,0
2024-12-11 14:43:44.937,1.34297,2.75324,9.78216,0.152788,-0.0367272,-0.0562743,0
2024-12-11 14:43:44.941,1.40548,2.80588,9.61945,0.147291,-0.0367272,-0.0629936,0
2024-12-11 14:43:44.942,1.46052,2.86092,9.45913,0.147291,-0.0367272,-0.0629936,0
2024-12-11 14:43:44.945,1.52513,2.90878,9.29881,0.13996,-0.0385597,-0.0709346,0
2024-12-11 14:43:44.948,1.60409,2.95185,9.1669,0.110029,-0.0446682,-0.0917034,0
2024-12-11 14:43:44.949,1.69023,2.99252,9.0688,0.110029,-0.0446682,-0.0917034,0
2024-12-11 14:43:44.952,1.79551,3.03559,8.98026,0.0923143,-0.0550526,-0.106364,0
2024-12-11 14:43:44.954,1.88644,3.09332,8.93001,0.0709346,-0.0672696,-0.120413,0
2024-12-11 14:43:44.957,1.95344,3.16032,8.89173,0.0489441,-0.0788757,-0.138128,0
2024-12-11 14:43:44.959,2.00877,3.22253,8.84387,0.0251211,-0.0917034,-0.154621,0
2024-12-11 14:43:44.961,2.07577,3.28235,8.80559,-0.00175619,-0.10392,-0.174779,0
2024-12-11 14:43:44.963,2.15474,3.335,8.76252,-0.0298552,-0.114916,-0.196158,0
2024-12-11 14:43:44.966,2.23849,3.36132,8.72184,-0.0610084,-0.122857,-0.219371,0
2024-12-11 14:43:44.968,2.30788,3.38525,8.7027,-0.0958267,-0.133241,-0.246248,0
2024-12-11 14:43:44.971,2.35334,3.41875,8.69522,-0.163631,-0.148512,-0.300613,0
2024-12-11 14:43:44.973,2.39641,3.44507,8.7003,-0.163631,-0.148512,-0.300613,0
2024-12-11 14:43:44.975,2.41555,3.47139,8.71227,-0.203947,-0.152788,-0.328101,0
2024-12-11 14:43:44.978,2.42034,3.48574,8.7362,-0.241208,-0.157675,-0.355589,0
2024-12-11 14:43:44.981,2.4347,3.49292,8.7697,-0.324284,-0.167449,-0.409344,0
2024-12-11 14:43:44.982,2.43709,3.49532,8.82712,-0.324284,-0.167449,-0.409344,0
2024-12-11 14:43:44.987,2.4012,3.47139,9.01137,-0.401861,-0.172946,-0.45699,0
2024-12-11 14:43:44.988,2.4012,3.47139,9.01137,-0.401861,-0.172946,-0.45699,0
2024-12-11 14:43:44.989,2.39402,3.43789,9.12144,-0.443399,-0.176,-0.479591,0
2024-12-11 14:43:44.991,2.38445,3.38764,9.24108,-0.48005,-0.179055,-0.499749,0
2024-12-11 14:43:44.995,2.37966,3.33021,9.36102,-0.553351,-0.179055,-0.532735,0
2024-12-11 14:43:44.996,2.35813,3.27518,9.5022,-0.518533,-0.179055,-0.532735,0
2024-12-11 14:43:44.998,2.30788,3.24407,9.64337,-0.583283,-0.176611,-0.546785,0
2024-12-11 14:43:45.002,2.26002,3.22493,9.80609,-0.610771,-0.174779,-0.55778,0
2024-12-11 14:43:45.003,2.20738,3.201,9.97628,-0.634594,-0.174779,-0.566943,0
2024-12-11 14:43:45.007,2.14995,3.18425,10.1294,-0.658417,-0.172946,-0.581603,0
2024-12-11 14:43:45.009,2.10209,3.18186,10.2826,-0.658417,-0.172946,-0.581603,0
2024-12-11 14:43:45.013,2.04227,3.18186,10.5676,-0.711561,-0.16867,-0.583435,0
2024-12-11 14:43:45.013,1.9657,3.18186,10.5676,-0.711561,-0.16867,-0.583435,0
2024-12-11 14:43:45.015,1.89123,3.19382,10.7303,-0.711561,-0.16867,-0.583435,0
2024-12-11 14:43:45.017,1.82184,3.20818,10.9098,-0.729886,-0.163173,-0.581603,0
2024-12-11 14:43:45.021,1.75484,3.21775,11.1159,-0.73294,-0.157675,-0.577938,0
2024-12-11 14:43:45.022,1.69502,3.23211,11.3001,-0.731719,-0.149734,-0.573662,0
2024-12-11 14:43:45.024,1.6328,3.27996,11.482,-0.723778,-0.141793,-0.569386,0
2024-12-11 14:43:45.027,1.57059,3.32303,11.6545,-0.710339,-0.128965,-0.562667,0
2024-12-11 14:43:45.029,1.51555,3.3326,11.8316,-0.695068,-0.11797,-0.554115,0
2024-12-11 14:43:45.032,1.46291,3.33978,11.9967,-0.672466,-0.105753,-0.545563,0
2024-12-11 14:43:45.034,1.40548,3.3661,12.1238,-0.646811,-0.0898709,-0.535179,0
2024-12-11 14:43:45.036,1.35733,3.38525,12.2315,-0.613214,-0.0727672,-0.524794,0
2024-12-11 14:43:45.039,1.31904,3.39003,12.3129,-0.576563,-0.0556635,-0.516853,0
2024-12-11 14:43:45.041,1.28315,3.40439,12.3655,-0.539302,-0.0391706,-0.506469,0
2024-12-11 14:43:45.043,1.24247,3.43071,12.3918,-0.495932,-0.0208452,-0.495473,0
2024-12-11 14:43:45.047,1.1994,3.44985,12.387,-0.455005,-0.00374144,-0.485089,0
2024-12-11 14:43:45.048,1.14676,3.46899,12.3488,-0.409191,0.0115297,-0.475316,0
2024-12-11 14:43:45.050,1.08215,3.49292,12.265,-0.365821,0.0231358,-0.463099,0
2024-12-11 14:43:45.054,1.0343,3.52642,12.1334,-0.277248,0.0408504,-0.442941,0
2024-12-11 14:43:45.056,1.00319,3.56949,11.9632,-0.235711,0.0469589,-0.433167,0
2024-12-11 14:43:45.058,0.967299,3.60299,11.7909,-0.235711,0.0469589,-0.433167,0
2024-12-11 14:43:45.061,0.929013,3.6341,11.6354,-0.198449,0.0530674,-0.423394,0
2024-12-11 14:43:45.062,0.9003,3.66551,11.4748,-0.161798,0.0530674,-0.416063,0
2024-12-11 14:43:45.064,0.876371,3.71336,11.3169,-0.126369,0.0512348,-0.409344,0
2024-12-11 14:43:45.068,0.857229,3.75404,11.1589,-0.0591758,0.0457372,-0.397738,0
2024-12-11 14:43:45.069,0.837787,3.76122,10.9866,-0.0591758,0.0457372,-0.397738,0
2024-12-11 14:43:45.071,0.82343,3.77318,10.8476,-0.0268009,0.0402396,-0.394684,0
2024-12-11 14:43:45.074,0.789931,3.79472,10.7112,0.00618483,0.0335202,-0.39224,0
2024-12-11 14:43:45.076,0.737288,3.81865,10.5628,0.0397814,0.0280226,-0.387964,0
2024-12-11 14:43:45.080,0.684646,3.84975,10.4216,0.10392,0.0219141,-0.383688,0
2024-12-11 14:43:45.082,0.62004,3.89043,10.2371,0.10392,0.0219141,-0.383688,0
2024-12-11 14:43:45.083,0.574577,3.91197,10.0313,0.138128,0.0200816,-0.383078,0
2024-12-11 14:43:45.086,0.538684,3.92393,9.83988,0.166227,0.0194708,-0.383688,0
2024-12-11 14:43:45.088,0.478864,3.94068,9.65773,0.19005,0.0194708,-0.382467,0
2024-12-11 14:43:45.090,0.411865,3.94307,9.46631,0.215095,0.0182491,-0.382467,0
2024-12-11 14:43:45.093,0.35683,3.93829,9.27966,0.237696,0.014584,-0.382467,0
2024-12-11 14:43:45.096,0.308973,3.94547,9.10469,0.257854,0.0121406,-0.383078,0
2024-12-11 14:43:45.098,0.265603,3.95025,8.94676,0.27679,0.00786466,-0.38491,0
2024-12-11 14:43:45.100,0.215354,3.95264,8.81516,0.294505,0.00114534,-0.387964,0
2024-12-11 14:43:45.102,0.148355,3.96939,8.68804,0.312219,-0.00740652,-0.391019,0
2024-12-11 14:43:45.105,0.081356,3.98136,8.54686,0.326269,-0.0141258,-0.392851,0
2024-12-11 14:43:45.109,-0.0598206,4.00289,8.22622,0.353757,-0.0232886,-0.393462,0
2024-12-11 14:43:45.109,-0.0598206,4.00289,8.22622,0.353757,-0.0232886,-0.393462,0
2024-12-11 14:43:45.111,-0.105284,3.99332,8.06321,0.361698,-0.0263428,-0.393462,0
2024-12-11 14:43:45.114,-0.136391,3.99093,7.91964,0.368417,-0.0287862,-0.395295,0
2024-12-11 14:43:45.116,-0.184247,3.98136,7.78086,0.374526,-0.0306187,-0.396516,0
2024-12-11 14:43:45.119,-0.215354,3.97179,7.62772,0.373304,-0.0330621,-0.396516,0
2024-12-11 14:43:45.121,-0.232104,3.97418,7.48146,0.373915,-0.0367272,-0.396516,0
2024-12-11 14:43:45.124,-0.253639,3.96939,7.34746,0.359865,-0.0465007,-0.400792,0
2024-12-11 14:43:45.127,-0.270389,3.94547,7.24218,0.351314,-0.049555,-0.402014,0
2024-12-11 14:43:45.129,-0.277567,3.92393,7.14646,0.351314,-0.049555,-0.402014,0
2024-12-11 14:43:45.130,-0.275175,3.91914,7.05314,0.351314,-0.049555,-0.402014,0
2024-12-11 14:43:45.133,-0.275175,3.90239,6.95474,0.322604,-0.0550526,-0.409344,0
2024-12-11 14:43:45.135,-0.248854,3.88086,6.8686,0.309165,-0.0550526,-0.411787,0
2024-12-11 14:43:45.137,-0.236889,3.85932,6.80399,0.291451,-0.0556635,-0.414231,0
2024-12-11 14:43:45.140,-0.251246,3.84257,6.7346,0.271903,-0.0513875,-0.420339,0
2024-12-11 14:43:45.142,-0.239282,3.8354,6.67717,0.251135,-0.0465007,-0.424004,0
2024-12-11 14:43:45.144,-0.241675,3.81386,6.62931,0.228533,-0.0446682,-0.429502,0
2024-12-11 14:43:45.148,-0.241675,3.79711,6.57907,0.179055,-0.0342838,-0.440497,0
2024-12-11 14:43:45.149,-0.224925,3.79472,6.56232,0.179055,-0.0342838,-0.440497,0
2024-12-11 14:43:45.152,-0.227318,3.77318,6.56949,0.151566,-0.0306187,-0.444773,0
2024-12-11 14:43:45.155,-0.232104,3.74925,6.58146,0.0990336,-0.0232886,-0.455158,0
2024-12-11 14:43:45.156,-0.222533,3.74208,6.61496,0.0990336,-0.0232886,-0.455158,0
2024-12-11 14:43:45.159,-0.217747,3.7325,6.64846,0.073378,-0.0177909,-0.463709,0
2024-12-11 14:43:45.161,-0.224925,3.73011,6.67956,0.0489441,-0.00984991,-0.469818,0
2024-12-11 14:43:45.163,-0.229711,3.70618,6.71306,0.0232886,-0.00313059,-0.475926,0
2024-12-11 14:43:45.167,-0.232104,3.66551,6.75135,-0.0213033,0.0121406,-0.485089,0
2024-12-11 14:43:45.169,-0.234497,3.65593,6.77528,-0.0432938,0.0194708,-0.489365,0
2024-12-11 14:43:45.171,-0.232104,3.64606,6.79921,-0.0432938,0.0194708,-0.489365,0
2024-12-11 14:43:45.173,-0.253639,3.60778,6.8351,-0.0671168,0.0249684,-0.493641,0
2024-12-11 14:43:45.175,-0.287438,3.58146,6.87099,-0.0897182,0.0292443,-0.496084,0
2024-12-11 14:43:45.177,-0.297009,3.55035,6.91406,-0.111709,0.0322986,-0.498528,0
2024-12-11 14:43:45.180,-0.297009,3.50967,6.96192,-0.133699,0.0347419,-0.499749,0
2024-12-11 14:43:45.182,-0.297009,3.49053,7.03639,-0.152635,0.038407,-0.501582,0
2024-12-11 14:43:45.184,-0.313759,3.47617,7.12493,-0.171572,0.0420721,-0.502193,0
2024-12-11 14:43:45.188,-0.337687,3.46421,7.20389,-0.202114,0.0475697,-0.504025,0
2024-12-11 14:43:45.190,-0.347258,3.44507,7.29003,-0.202114,0.0475697,-0.504025,0
2024-12-11 14:43:45.192,-0.373579,3.42353,7.3666,-0.22105,0.0500131,-0.502193,0
2024-12-11 14:43:45.194,-0.421436,3.41396,7.45035,-0.233878,0.0536782,-0.499749,0
2024-12-11 14:43:45.196,-0.469292,3.40678,7.56042,-0.244263,0.0524565,-0.496084,0
2024-12-11 14:43:45.200,-0.529113,3.3996,7.67318,-0.255258,0.0561216,-0.489976,0
2024-12-11 14:43:45.201,-0.574577,3.402,7.78086,-0.255258,0.0561216,-0.489976,0
2024-12-11 14:43:45.203,-0.608076,3.41396,7.88854,-0.269918,0.0610084,-0.476537,0
2024-12-11 14:43:45.207,-0.648754,3.42114,7.98186,-0.279692,0.0658951,-0.458212,0
2024-12-11 14:43:45.208,-0.677468,3.42114,8.06561,-0.279692,0.0658951,-0.458212,0
2024-12-11 14:43:45.210,-0.71336,3.44267,8.14965,-0.283968,0.0677277,-0.447827,0
2024-12-11 14:43:45.213,-0.744467,3.46899,8.23101,-0.285189,0.0683385,-0.434389,0
2024-12-11 14:43:45.217,-0.818644,3.50249,8.3674,-0.290076,0.0652843,-0.409344,0
2024-12-11 14:43:45.217,-0.818644,3.50249,8.3674,-0.290076,0.0652843,-0.409344,0
2024-12-11 14:43:45.220,-0.825823,3.52882,8.43679,-0.290076,0.0652843,-0.409344,0
2024-12-11 14:43:45.222,-0.830609,3.55753,8.48704,-0.291909,0.0567324,-0.381245,0
2024-12-11 14:43:45.225,-0.816252,3.56471,8.53251,-0.293741,0.0494023,-0.366585,0
2024-12-11 14:43:45.228,-0.773181,3.55992,8.59472,-0.295574,0.0341311,-0.339097,0
2024-12-11 14:43:45.229,-0.744467,3.57906,8.65693,-0.295574,0.0341311,-0.339097,0
2024-12-11 14:43:45.232,-0.722932,3.59103,8.74098,-0.298017,0.0274118,-0.328712,0
2024-12-11 14:43:45.235,-0.706182,3.60299,8.83191,-0.298017,0.0213033,-0.315274,0
2024-12-11 14:43:45.236,-0.701396,3.63171,8.90848,-0.298628,0.0139731,-0.304889,0
2024-12-11 14:43:45.241,-0.672682,3.69661,9.07598,-0.298017,0.00847551,-0.294505,0
2024-12-11 14:43:45.241,-0.672682,3.69661,9.07598,-0.298017,0.00847551,-0.294505,0
2024-12-11 14:43:45.243,-0.663111,3.72772,9.15015,-0.291298,-0.00435229,-0.268849,0
2024-12-11 14:43:45.246,-0.646361,3.75404,9.20758,-0.286411,-0.013515,-0.259686,0
2024-12-11 14:43:45.248,-0.632004,3.76122,9.2677,-0.2858,-0.0226777,-0.248691,0
2024-12-11 14:43:45.251,-0.610469,3.77079,9.34666,-0.282135,-0.0348946,-0.237085,0
2024-12-11 14:43:45.253,-0.584148,3.78275,9.42323,-0.280303,-0.0458899,-0.226701,0
2024-12-11 14:43:45.255,-0.565005,3.78515,9.48066,-0.274805,-0.0599394,-0.216927,0
2024-12-11 14:43:45.257,-0.533899,3.78993,9.55005,-0.270529,-0.0745997,-0.208375,0
2024-12-11 14:43:45.262,-0.457328,3.82104,9.72234,-0.265642,-0.100866,-0.188217,0
2024-12-11 14:43:45.263,-0.457328,3.82104,9.72234,-0.260755,-0.115526,-0.179055,0
2024-12-11 14:43:45.265,-0.431007,3.82343,9.77498,-0.260755,-0.115526,-0.179055,0
2024-12-11 14:43:45.267,-0.402293,3.82343,9.84228,-0.255869,-0.13263,-0.169892,0
2024-12-11 14:43:45.269,-0.373579,3.84257,9.93081,-0.249149,-0.145458,-0.161951,0
2024-12-11 14:43:45.273,-0.349651,3.85454,10.0217,-0.240597,-0.177222,-0.144236,0
2024-12-11 14:43:45.274,-0.30658,3.8665,10.127,-0.240597,-0.177222,-0.144236,0
2024-12-11 14:43:45.276,-0.244068,3.87847,10.2467,-0.233878,-0.193104,-0.138128,0
2024-12-11 14:43:45.279,-0.215354,3.87607,10.3496,-0.225326,-0.205932,-0.13263,0
2024-12-11 14:43:45.281,-0.200997,3.88325,10.4432,-0.217996,-0.217538,-0.126522,0
2024-12-11 14:43:45.283,-0.165105,3.89522,10.5556,-0.208223,-0.227922,-0.121024,0
2024-12-11 14:43:45.286,-0.145962,3.88564,10.6657,-0.194784,-0.235863,-0.116748,0
2024-12-11 14:43:45.288,-0.133998,3.87847,10.759,-0.1844,-0.242583,-0.111251,0
2024-12-11 14:43:45.290,-0.117248,3.88086,10.8715,-0.169128,-0.246248,-0.105142,0
2024-12-11 14:43:45.294,-0.0933201,3.88325,10.9651,-0.139808,-0.250524,-0.0941468,0
2024-12-11 14:43:45.296,-0.081356,3.89761,11.0154,-0.139808,-0.250524,-0.0941468,0
2024-12-11 14:43:45.297,-0.081356,3.90239,11.0584,-0.125147,-0.250524,-0.0868167,0
2024-12-11 14:43:45.300,-0.081356,3.9,11.0895,-0.108044,-0.250524,-0.0800973,0
2024-12-11 14:43:45.302,-0.0717847,3.90479,11.1063,-0.094605,-0.247469,-0.0709346,0
2024-12-11 14:43:45.305,-0.0478565,3.89282,11.1302,-0.0817772,-0.246248,-0.0660479,0
2024-12-11 14:43:45.307,-0.00239282,3.87607,11.1589,-0.0677277,-0.243194,-0.057496,0
2024-12-11 14:43:45.310,0.0334995,3.85932,11.1852,-0.0432938,-0.240139,-0.0452791,0
2024-12-11 14:43:45.312,0.0478565,3.85454,11.2187,-0.0432938,-0.240139,-0.0452791,0
2024-12-11 14:43:45.314,0.0646062,3.85215,11.2546,-0.0353528,-0.232809,-0.0397814,0
2024-12-11 14:43:45.316,0.0693919,3.84736,11.2857,-0.0231358,-0.227312,-0.0348946,0
2024-12-11 14:43:45.320,0.0789631,3.83779,11.324,-0.00908635,-0.216316,-0.0263428,0
2024-12-11 14:43:45.321,0.0837488,3.84497,11.3647,0.000687203,-0.207154,-0.0196235,0
2024-12-11 14:43:45.323,0.0885344,3.85215,11.3767,0.0141258,-0.196158,-0.0116825,0
2024-12-11 14:43:45.326,0.107677,3.833,11.3647,0.0281753,-0.184552,-0.00313059,0
2024-12-11 14:43:45.328,0.138784,3.833,11.3599,0.037338,-0.171114,0.00542127,0
2024-12-11 14:43:45.330,0.160319,3.833,11.3575,0.0483333,-0.159507,0.0121406,0
2024-12-11 14:43:45.334,0.167498,3.84018,11.3599,0.057496,-0.146069,0.0200816,0
2024-12-11 14:43:45.335,0.181855,3.85932,11.3432,0.0636045,-0.131409,0.0286335,0
2024-12-11 14:43:45.339,0.179462,3.87368,11.3216,0.0819299,-0.0996445,0.046348,0
2024-12-11 14:43:45.340,0.172283,3.89043,11.3169,0.0819299,-0.0996445,0.046348,0
2024-12-11 14:43:45.343,0.160319,3.91675,11.2881,0.0898709,-0.0825407,0.0536782,0
2024-12-11 14:43:45.347,0.138784,3.98136,11.2427,0.0972011,-0.0483333,0.0750579,0
2024-12-11 14:43:45.348,0.138784,3.98136,11.2427,0.0996445,-0.029397,0.0836097,0
2024-12-11 14:43:45.350,0.129212,4.034,11.1829,0.0996445,-0.0122933,0.0927724,0
2024-12-11 14:43:45.352,0.112463,4.07468,11.1254,0.0996445,-0.0122933,0.0927724,0
2024-12-11 14:43:45.355,0.102891,4.10339,11.0752,0.0984228,0.00175619,0.101935,0
2024-12-11 14:43:45.356,0.0957129,4.14407,11.0321,0.0929251,0.0115297,0.111098,0
2024-12-11 14:43:45.361,0.0526421,4.2353,11.0082,0.0831516,0.030466,0.128812,0
2024-12-11 14:43:45.361,0.0526421,4.2353,11.0082,0.0831516,0.030466,0.128812,0
2024-12-11 14:43:45.363,0.0478565,4.24965,11.013,0.0752106,0.0365745,0.134921,0
2024-12-11 14:43:45.366,0.0598206,4.27837,11.0273,0.0684913,0.0408504,0.142251,0
2024-12-11 14:43:45.368,0.100499,4.32383,11.0536,0.0617719,0.0408504,0.147749,0
2024-12-11 14:43:45.370,0.162712,4.35254,11.0776,0.0556635,0.0390179,0.152025,0
2024-12-11 14:43:45.373,0.20339,4.37647,11.1015,0.0489441,0.0365745,0.157522,0
2024-12-11 14:43:45.375,0.22014,4.42194,11.1302,0.0403923,0.0335202,0.161187,0
2024-12-11 14:43:45.378,0.248854,4.46261,11.1685,0.0312296,0.0316877,0.162409,0
2024-12-11 14:43:45.380,0.282652,4.48654,11.2211,0.0245102,0.0280226,0.164852,0
2024-12-11 14:43:45.382,0.313759,4.51286,11.2714,0.0171801,0.0219141,0.166074,0
2024-12-11 14:43:45.385,0.352044,4.55115,11.3001,0.0110716,0.0170274,0.164852,0
2024-12-11 14:43:45.387,0.409472,4.58226,11.3312,0.00374144,0.0109189,0.159966,0
2024-12-11 14:43:45.389,0.4669,4.59183,11.3671,-0.00358873,0.00175619,0.158133,0
2024-12-11 14:43:45.392,0.495613,4.59422,11.4078,-0.0151948,-0.00557398,0.152025,0
2024-12-11 14:43:45.394,0.519542,4.60618,11.4509,-0.0274118,-0.0171801,0.147749,0
2024-12-11 14:43:45.397,0.548256,4.60858,11.4772,-0.0371853,-0.0275645,0.14164,0
2024-12-11 14:43:45.399,0.572184,4.59183,11.4939,-0.0494023,-0.0379489,0.131867,0
2024-12-11 14:43:45.402,0.596112,4.58226,11.5182,-0.0720036,-0.0556635,0.114763,0
2024-12-11 14:43:45.404,0.62004,4.57986,11.5517,-0.0720036,-0.0556635,0.114763,0
2024-12-11 14:43:45.406,0.63679,4.57508,11.5995,-0.0884965,-0.0648262,0.1056,0
2024-12-11 14:43:45.409,0.624826,4.57747,11.6545,-0.100103,-0.0721563,0.0988809,0
2024-12-11 14:43:45.411,0.600898,4.56311,11.7072,-0.109876,-0.0788757,0.0933833,0
2024-12-11 14:43:45.413,0.586541,4.54876,11.7766,-0.125147,-0.0837624,0.0878856,0
2024-12-11 14:43:45.416,0.581755,4.52961,11.8555,-0.145916,-0.0892601,0.0793338,0
2024-12-11 14:43:45.418,0.565005,4.49133,11.9154,-0.145916,-0.0892601,0.0793338,0
2024-12-11 14:43:45.421,0.54347,4.47697,11.9632,-0.154468,-0.0874275,0.0781121,0
2024-12-11 14:43:45.427,0.517149,4.36212,12.1382,-0.177069,-0.0800973,0.0799446,0
2024-12-11 14:43:45.429,0.52672,4.33101,12.2124,-0.1844,-0.0764323,0.086664,0
2024-12-11 14:43:45.430,0.52672,4.33101,12.2124,-0.1844,-0.0764323,0.086664,0
2024-12-11 14:43:45.432,0.521934,4.3023,12.2889,-0.186843,-0.0703238,0.0921616,0
2024-12-11 14:43:45.433,0.521934,4.3023,12.2889,-0.188065,-0.0617719,0.0976592,0
2024-12-11 14:43:45.435,0.524327,4.2664,12.3679,-0.189897,-0.0489441,0.106211,0
2024-12-11 14:43:45.437,0.536291,4.24008,12.4493,-0.189897,-0.0489441,0.106211,0
2024-12-11 14:43:45.440,0.56022,4.22094,12.5378,-0.191119,-0.0110716,0.124536,0
2024-12-11 14:43:45.441,0.593719,4.20628,12.6386,-0.191119,-0.0110716,0.124536,0
2024-12-11 14:43:45.443,0.627219,4.17996,12.7271,-0.183789,0.0133623,0.136143,0
2024-12-11 14:43:45.446,0.667897,4.12971,12.7917,-0.17768,0.0420721,0.144694,0
2024-12-11 14:43:45.448,0.710967,4.07946,12.8563,-0.167907,0.0713928,0.154468,0
2024-12-11 14:43:45.451,0.739681,4.02921,12.9066,-0.156911,0.104989,0.167907,0
2024-12-11 14:43:45.453,0.761217,3.98854,12.9329,-0.14164,0.139808,0.17768,0
2024-12-11 14:43:45.456,0.794716,3.92393,12.9425,-0.111098,0.211888,0.202114,0
2024-12-11 14:43:45.458,0.82343,3.84736,12.9186,-0.111098,0.211888,0.202114,0
2024-12-11 14:43:45.461,0.825823,3.78993,12.8874,-0.0799446,0.288244,0.229602,0
2024-12-11 14:43:45.463,0.80668,3.74208,12.8587,-0.0634518,0.327338,0.239987,0
2024-12-11 14:43:45.465,0.758824,3.70618,12.8037,-0.0634518,0.327338,0.239987,0
2024-12-11 14:43:45.467,0.675075,3.68465,12.7271,-0.0481806,0.367043,0.252204,0
2024-12-11 14:43:45.469,0.593719,3.68943,12.6434,-0.0322986,0.405526,0.265642,0
2024-12-11 14:43:45.473,0.507577,3.7349,12.5234,-0.0170274,0.441566,0.274194,0
2024-12-11 14:43:45.474,0.407079,3.78036,12.3464,-0.00419957,0.470887,0.284578,0
2024-12-11 14:43:45.477,0.34008,3.79472,12.1238,-0.000534491,0.492877,0.291909,0
2024-12-11 14:43:45.479,0.27996,3.78515,11.8866,-0.000534491,0.492877,0.291909,0
2024-12-11 14:43:45.481,0.244068,3.73729,11.6665,-0.00542127,0.514868,0.291298,0
2024-12-11 14:43:45.483,0.251246,3.65593,11.4772,-0.0133623,0.509981,0.283357,0
2024-12-11 14:43:45.486,0.270389,3.56949,11.3264,-0.030466,0.498375,0.271751,0
2024-12-11 14:43:45.489,0.277567,3.45464,11.202,-0.0487914,0.475163,0.255258,0
2024-12-11 14:43:45.492,0.275175,3.33021,11.135,-0.0884965,0.406137,0.211277,0
2024-12-11 14:43:45.494,0.263211,3.19861,11.1111,-0.0884965,0.406137,0.211277,0
2024-12-11 14:43:45.495,0.229711,3.04995,11.1206,-0.109265,0.364599,0.185621,0
2024-12-11 14:43:45.498,0.196211,2.90399,11.1661,-0.128202,0.316953,0.156911,0
2024-12-11 14:43:45.500,0.167498,2.72213,11.2403,-0.143473,0.266253,0.132477,0
2024-12-11 14:43:45.502,0.122034,2.52323,11.3599,-0.155079,0.21372,0.108044,0
2024-12-11 14:43:45.505,0.0789631,2.33181,11.5301,-0.164242,0.160576,0.0805555,0
2024-12-11 14:43:45.507,0.0239282,2.14995,11.688,-0.164242,0.160576,0.0805555,0
2024-12-11 14:43:45.509,-0.0526421,1.95583,11.8292,-0.168517,0.0634518,0.0322986,0
2024-12-11 14:43:45.512,-0.133998,1.74048,11.98,-0.166685,0.0182491,0.0121406,0
2024-12-11 14:43:45.514,-0.212961,1.54666,12.131,-0.157522,-0.0208452,-0.00679568,0
2024-12-11 14:43:45.517,-0.304188,1.35015,12.2937,-0.145305,-0.0562743,-0.0232886,0
2024-12-11 14:43:45.519,-0.426222,1.16112,12.466,-0.125758,-0.0892601,-0.0355055,0
2024-12-11 14:43:45.521,-0.548256,0.981655,12.6191,-0.103157,-0.114916,-0.0440574,0
2024-12-11 14:43:45.524,-0.648754,0.80668,12.7846,-0.0762796,-0.138739,-0.0519984,0
2024-12-11 14:43:45.526,-0.754038,0.641576,12.9664,-0.042683,-0.156453,-0.0544418,0
2024-12-11 14:43:45.528,-0.871586,0.488435,13.1219,-0.00297788,-0.169281,-0.0562743,0
2024-12-11 14:43:45.531,-0.984048,0.342473,13.2634,0.037338,-0.185163,-0.0550526,0
2024-12-11 14:43:45.534,-1.07498,0.20339,13.3902,0.0862058,-0.195547,-0.0483333,0
2024-12-11 14:43:45.536,-1.17787,0.0693919,13.5099,0.136906,-0.204099,-0.0428357,0
2024-12-11 14:43:45.538,-1.27358,-0.0574277,13.6104,0.191272,-0.210819,-0.0342838,0
2024-12-11 14:43:45.540,-1.33579,-0.174676,13.6822,0.250524,-0.215095,-0.0220669,1
2024-12-11 14:43:45.542,-1.39561,-0.272782,13.7228,0.309165,-0.219981,-0.00923906,0
2024-12-11 14:43:45.545,-1.45334,-0.359223,13.73,0.37025,-0.221814,0.00419957,0
2024-12-11 14:43:45.547,-1.47248,-0.447757,13.6846,0.431335,-0.226701,0.0243575,0
2024-12-11 14:43:45.550,-1.46052,-0.524327,13.596,0.489976,-0.229755,0.0408504,0
2024-12-11 14:43:45.552,-1.47488,-0.593719,13.4548,0.548006,-0.230977,0.0573433,0
2024-12-11 14:43:45.554,-1.50598,-0.643968,13.2921,0.601761,-0.23342,0.0775012,0
2024-12-11 14:43:45.557,-1.50598,-0.672682,13.1028,0.650018,-0.228533,0.0994917,0
2024-12-11 14:43:45.559,-1.47009,-0.691825,12.8683,0.693388,-0.226701,0.122704,0
2024-12-11 14:43:45.562,-1.42223,-0.701396,12.6314,0.756305,-0.224868,0.161187,0
2024-12-11 14:43:45.565,-1.37169,-0.682254,12.4014,0.756305,-0.224868,0.161187,0
2024-12-11 14:43:45.566,-1.31665,-0.651147,12.1813,0.78135,-0.223036,0.178291,0
2024-12-11 14:43:45.568,-1.28076,-0.605683,11.956,0.799675,-0.219371,0.196616,0
2024-12-11 14:43:45.571,-1.25444,-0.531506,11.7383,0.808838,-0.214484,0.213109,0
2024-12-11 14:43:45.573,-1.20419,-0.459721,11.5301,0.808838,-0.214484,0.213109,0
2024-12-11 14:43:45.575,-1.11326,-0.402293,11.324,0.819833,-0.202267,0.238154,0
2024-12-11 14:43:45.579,-1.01755,-0.313759,11.1326,0.810671,-0.187606,0.254036,0
2024-12-11 14:43:45.582,-0.828216,-0.133998,10.7614,0.800286,-0.177833,0.255869,0
2024-12-11 14:43:45.583,-0.828216,-0.133998,10.7614,0.800286,-0.177833,0.255869,0
2024-12-11 14:43:45.585,-0.732503,-0.040678,10.5891,0.788069,-0.167449,0.255258,0
2024-12-11 14:43:45.588,-0.639183,0.0478565,10.4121,0.769744,-0.158897,0.255258,0
2024-12-11 14:43:45.589,-0.54347,0.131605,10.2467,0.747143,-0.150345,0.246095,0
2024-12-11 14:43:45.592,-0.440578,0.22014,10.1007,0.722709,-0.144236,0.235711,0
2024-12-11 14:43:45.594,-0.332901,0.304188,9.96431,0.693999,-0.136906,0.221661,0
2024-12-11 14:43:45.598,-0.244068,0.373579,9.84467,0.662846,-0.131409,0.207612,0
2024-12-11 14:43:45.601,-0.119641,0.529113,9.67448,0.600539,-0.122857,0.166074,0
2024-12-11 14:43:45.602,-0.119641,0.529113,9.67448,0.565721,-0.120413,0.144694,0
2024-12-11 14:43:45.605,-0.0837488,0.600898,9.62902,0.565721,-0.120413,0.144694,0
2024-12-11 14:43:45.607,-0.0574277,0.658325,9.59791,0.505858,-0.112472,0.0927724,0
2024-12-11 14:43:45.609,-0.0358923,0.708575,9.5668,0.475926,-0.108807,0.0652843,0
2024-12-11 14:43:45.611,-0.0358923,0.754038,9.54048,0.475926,-0.108807,0.0652843,0
2024-12-11 14:43:45.613,-0.0382852,0.787538,9.52852,0.444773,-0.10331,0.038407,0
2024-12-11 14:43:45.615,-0.0478565,0.789931,9.51177,0.418507,-0.0972011,0.010308,0
2024-12-11 14:43:45.618,-0.0646062,0.785145,9.5022,0.390408,-0.0917034,-0.0141258,0
2024-12-11 14:43:45.620,-0.0933201,0.792323,9.49263,0.36353,-0.0831516,-0.0403923,0
2024-12-11 14:43:45.622,-0.133998,0.797109,9.49502,0.342762,-0.0764323,-0.0660479,0
2024-12-11 14:43:45.625,-0.179462,0.780359,9.47588,0.319549,-0.0715455,-0.0904818,0
2024-12-11 14:43:45.627,-0.215354,0.754038,9.41845,0.297559,-0.0666587,-0.11064,0
2024-12-11 14:43:45.629,-0.256032,0.744467,9.38734,0.27679,-0.0599394,-0.130798,0
2024-12-11 14:43:45.632,-0.313759,0.744467,9.36341,0.253578,-0.0526092,-0.147291,0
2024-12-11 14:43:45.634,-0.368794,0.710967,9.33949,0.235863,-0.037338,-0.162562,0
2024-12-11 14:43:45.637,-0.431007,0.665504,9.33949,0.216927,-0.0171801,-0.178444,0
2024-12-11 14:43:45.639,-0.512363,0.65354,9.32752,0.201045,0.00542127,-0.187606,0
2024-12-11 14:43:45.641,-0.586541,0.646361,9.29881,0.19005,0.0274118,-0.196769,0
2024-12-11 14:43:45.644,-0.651147,0.634397,9.25065,0.179055,0.0536782,-0.202878,0
2024-12-11 14:43:45.647,-0.703789,0.608076,9.20758,0.165616,0.0781121,-0.20471,0
2024-12-11 14:43:45.648,-0.780359,0.579362,9.15255,0.155842,0.103157,-0.208986,0
2024-12-11 14:43:45.651,-0.881157,0.567398,9.07837,0.144847,0.131256,-0.208986,0
2024-12-11 14:43:45.653,-0.957727,0.557827,9.00419,0.134463,0.158744,-0.207764,0
2024-12-11 14:43:45.655,-1.02233,0.555434,8.91087,0.124689,0.189897,-0.204099,0
2024-12-11 14:43:45.658,-1.08694,0.550648,8.80798,0.116748,0.219218,-0.197991,0
2024-12-11 14:43:45.660,-1.14676,0.533899,8.71945,0.108196,0.252204,-0.193715,0
2024-12-11 14:43:45.663,-1.20419,0.536291,8.63779,0.0990336,0.284578,-0.187606,0
2024-12-11 14:43:45.665,-1.27597,0.545863,8.54447,0.0904818,0.312677,-0.177222,0
2024-12-11 14:43:45.667,-1.35494,0.553041,8.45594,0.0837624,0.34322,-0.166838,0
2024-12-11 14:43:45.669,-1.40279,0.557827,8.36262,0.0764323,0.37254,-0.156453,0
2024-12-11 14:43:45.673,-1.42941,0.553041,8.25972,0.0605502,0.425073,-0.130798,0
2024-12-11 14:43:45.674,-1.46052,0.557827,8.15683,0.0605502,0.425073,-0.130798,0
2024-12-11 14:43:45.677,-1.50359,0.586541,8.05604,0.0550526,0.453172,-0.118581,0
2024-12-11 14:43:45.679,-1.55384,0.62004,7.96272,0.0477224,0.479439,-0.104531,0
2024-12-11 14:43:45.681,-1.58734,0.632004,7.88136,0.0428357,0.501429,-0.0892601,0
2024-12-11 14:43:45.684,-1.5993,0.634397,7.78565,0.0355055,0.522809,-0.0739889,0
2024-12-11 14:43:45.686,-1.59691,0.655932,7.68515,0.0318404,0.544799,-0.0593285,0
2024-12-11 14:43:45.688,-1.60409,0.689432,7.60618,0.0257319,0.563125,-0.0422248,0
2024-12-11 14:43:45.692,-1.6328,0.715753,7.52692,0.0177909,0.594889,-0.0110716,0
2024-12-11 14:43:45.694,-1.66152,0.739681,7.436,0.0177909,0.594889,-0.0110716,0
2024-12-11 14:43:45.695,-1.67348,0.770788,7.34985,0.0116825,0.608938,0.00603212,0
2024-12-11 14:43:45.699,-1.68066,0.801895,7.28046,0.0104608,0.619323,0.0231358,0
2024-12-11 14:43:45.700,-1.68305,0.830609,7.21825,0.00801737,0.630318,0.0420721,0
2024-12-11 14:43:45.702,-1.67587,0.871586,7.15125,0.00374144,0.637037,0.0603975,0
2024-12-11 14:43:45.705,-1.67348,0.909871,7.08904,0.0019089,0.643146,0.0768904,0
2024-12-11 14:43:45.707,-1.65673,0.940978,7.03161,0.000687203,0.646811,0.0933833,0
2024-12-11 14:43:45.712,-1.58495,1.01037,6.97149,7.63559e-05,0.652309,0.125147,0
2024-12-11 14:43:45.713,-1.58495,1.01037,6.97149,0.00435229,0.654752,0.140419,0
2024-12-11 14:43:45.715,-1.54188,1.05344,6.94756,0.00435229,0.654752,0.140419,0
2024-12-11 14:43:45.717,-1.51316,1.11565,6.91167,0.0110716,0.657195,0.152635,0
2024-12-11 14:43:45.720,-1.47009,1.15872,6.88295,0.021456,0.655974,0.178291,0
2024-12-11 14:43:45.722,-1.42463,1.19701,6.89013,0.0318404,0.655974,0.189897,0
2024-12-11 14:43:45.724,-1.39561,1.23769,6.90449,0.0318404,0.655974,0.189897,0
2024-12-11 14:43:45.726,-1.36929,1.27358,6.89013,0.041614,0.654752,0.194173,0
2024-12-11 14:43:45.729,-1.35015,1.31904,6.85903,0.0507767,0.651087,0.203947,0
2024-12-11 14:43:45.731,-1.35494,1.36211,6.81835,0.065437,0.648643,0.212498,0
2024-12-11 14:43:45.733,-1.36211,1.39561,6.75374,0.0752106,0.642535,0.22105,0
2024-12-11 14:43:45.735,-1.38126,1.44377,6.68914,0.0849841,0.635205,0.230213,0
2024-12-11 14:43:45.739,-1.40279,1.49402,6.64367,0.105142,0.611993,0.248538,0
2024-12-11 14:43:45.740,-1.47248,1.55145,6.64128,0.105142,0.611993,0.248538,0
2024-12-11 14:43:45.742,-1.65434,1.64955,6.76331,0.115526,0.605273,0.263199,0
2024-12-11 14:43:45.745,-1.6352,1.68544,6.72503,0.133241,0.597332,0.279081,0
2024-12-11 14:43:45.747,-1.40548,1.67827,6.49771,0.144236,0.580229,0.290076,0
2024-12-11 14:43:45.750,-1.27119,1.67109,6.37059,0.150956,0.560071,0.298628,0
2024-12-11 14:43:45.752,-1.21854,1.66391,6.32513,0.155232,0.537469,0.309012,0
2024-12-11 14:43:45.754,-1.24247,1.68066,6.34666,0.159507,0.506927,0.315732,0
2024-12-11 14:43:45.758,-1.31186,1.71894,6.39452,0.163173,0.47333,0.322451,0
2024-12-11 14:43:45.759,-1.35494,1.7668,6.42563,0.169281,0.440345,0.330392,0
2024-12-11 14:43:45.761,-1.3669,1.83141,6.40648,0.171114,0.404915,0.341387,0
2024-12-11 14:43:45.764,-1.35733,1.89123,6.3682,0.173557,0.371319,0.351772,0
2024-12-11 14:43:45.767,-1.32622,1.93669,6.36341,0.184552,0.320618,0.371319,0
2024-12-11 14:43:45.769,-1.29512,1.98724,6.37777,0.184552,0.320618,0.371319,0
2024-12-11 14:43:45.771,-1.25204,2.02074,6.41845,0.188828,0.294963,0.379871,0
2024-12-11 14:43:45.773,-1.2018,2.05902,6.47378,0.194326,0.272972,0.388422,0
2024-12-11 14:43:45.775,-1.1324,2.10688,6.51925,0.205321,0.24976,0.396364,0
2024-12-11 14:43:45.779,-1.05823,2.13799,6.5671,0.219371,0.200282,0.407359,0
2024-12-11 14:43:45.780,-0.984048,2.17149,6.60778,0.219371,0.200282,0.407359,0
2024-12-11 14:43:45.783,-0.931406,2.22413,6.65085,0.228533,0.174626,0.409191,0
2024-12-11 14:43:45.785,-0.878764,2.2672,6.70349,0.237696,0.14897,0.40858,0
2024-12-11 14:43:45.787,-0.821037,2.30548,6.74656,0.247469,0.123315,0.406748,0
2024-12-11 14:43:45.791,-0.766002,2.35573,6.81835,0.252967,0.0982701,0.403694,0
2024-12-11 14:43:45.792,-0.732503,2.41077,6.8997,0.263352,0.0750579,0.40125,0
2024-12-11 14:43:45.794,-0.710967,2.47298,6.97149,0.275568,0.0542891,0.395753,0
2024-12-11 14:43:45.798,-0.687039,2.54746,7.04357,0.289007,0.0322986,0.391477,0
2024-12-11 14:43:45.800,-0.687039,2.63121,7.09621,0.313441,-0.00618483,0.381703,0
2024-12-11 14:43:45.801,-0.682254,2.70778,7.14886,0.313441,-0.00618483,0.381703,0
2024-12-11 14:43:45.804,-0.667897,2.7676,7.20868,0.325047,-0.0232886,0.378038,0
2024-12-11 14:43:45.806,-0.670289,2.82024,7.25653,0.337264,-0.0379489,0.374373,0
2024-12-11 14:43:45.808,-0.684646,2.8657,7.27328,0.348259,-0.0519984,0.369486,0
2024-12-11 14:43:45.811,-0.689432,2.93031,7.27807,0.361087,-0.0636045,0.363989,0
2024-12-11 14:43:45.815,-0.722932,3.04517,7.2996,0.37758,-0.085595,0.353604,0
2024-12-11 14:43:45.816,-0.722932,3.04517,7.2996,0.37758,-0.085595,0.353604,0
2024-12-11 14:43:45.818,-0.744467,3.08345,7.34028,0.385521,-0.0990336,0.348717,0
2024-12-11 14:43:45.820,-0.751645,3.134,7.37139,0.389797,-0.11064,0.344442,0
2024-12-11 14:43:45.823,-0.751645,3.19143,7.42403,0.394073,-0.122246,0.338944,0
2024-12-11 14:43:45.825,-0.739681,3.2345,7.49582,0.397127,-0.133852,0.332835,0
2024-12-11 14:43:45.828,-0.73011,3.28714,7.52932,0.39957,-0.154621,0.32184,0
2024-12-11 14:43:45.831,-0.725324,3.33739,7.54846,0.39896,-0.166227,0.315732,0
2024-12-11 14:43:45.833,-0.720539,3.37807,7.58944,0.397127,-0.177222,0.309623,0
2024-12-11 14:43:45.835,-0.722932,3.41157,7.62772,0.397127,-0.177222,0.309623,0
2024-12-11 14:43:45.837,-0.744467,3.45464,7.66361,0.391629,-0.188828,0.30718,0
2024-12-11 14:43:45.839,-0.754038,3.52164,7.72104,0.385521,-0.202878,0.302904,0
2024-12-11 14:43:45.841,-0.727717,3.58864,7.78325,0.381245,-0.220592,0.299239,0
2024-12-11 14:43:45.845,-0.682254,3.6679,7.8359,0.366585,-0.262741,0.291298,0
2024-12-11 14:43:45.846,-0.648754,3.72293,7.88375,0.366585,-0.262741,0.291298,0
2024-12-11 14:43:45.848,-0.624826,3.75165,7.94118,0.354368,-0.285953,0.284578,0
2024-12-11 14:43:45.852,-0.581755,3.7995,7.99861,0.329934,-0.338486,0.268696,0
2024-12-11 14:43:45.853,-0.512363,3.84018,8.05604,0.329934,-0.338486,0.268696,0
2024-12-11 14:43:45.855,-0.438186,3.86411,8.15205,0.315274,-0.365363,0.258312,0
2024-12-11 14:43:45.858,-0.375972,3.8665,8.26212,0.29817,-0.393462,0.247317,0
2024-12-11 14:43:45.860,-0.311366,3.86411,8.39133,0.28412,-0.417285,0.233878,0
2024-12-11 14:43:45.863,-0.246461,3.87847,8.55643,0.267017,-0.442941,0.219829,0
2024-12-11 14:43:45.865,-0.200997,3.89282,8.72902,0.252356,-0.46432,0.20639,0
2024-12-11 14:43:45.868,-0.167498,3.89522,8.91326,0.244415,-0.483257,0.191119,0
2024-12-11 14:43:45.872,-0.066999,3.88804,9.34188,0.23342,-0.508301,0.166074,0
2024-12-11 14:43:45.872,-0.066999,3.88804,9.34188,0.23342,-0.508301,0.166074,0
2024-12-11 14:43:45.875,-0.0239282,3.88086,9.52852,0.231587,-0.517464,0.152025,0
2024-12-11 14:43:45.877,0.0119641,3.89282,9.69123,0.234031,-0.522962,0.137975,0
2024-12-11 14:43:45.879,0.0550349,3.87847,9.83988,0.234031,-0.522962,0.137975,0
2024-12-11 14:43:45.881,0.0933201,3.85454,9.98106,0.243194,-0.522962,0.115374,0
2024-12-11 14:43:45.884,0.131605,3.83779,10.127,0.251135,-0.518686,0.101324,0
2024-12-11 14:43:45.886,0.179462,3.80907,10.261,0.260297,-0.509523,0.090329,0
2024-12-11 14:43:45.888,0.244068,3.78275,10.4001,0.268849,-0.50036,0.0811663,0
2024-12-11 14:43:45.892,0.297009,3.7684,10.5485,0.282899,-0.489365,0.0695602,0
2024-12-11 14:43:45.893,0.325723,3.75404,10.6944,0.296948,-0.47165,0.0573433,0
2024-12-11 14:43:45.897,0.344866,3.75404,10.8284,0.312219,-0.452714,0.0475697,0
2024-12-11 14:43:45.898,0.361615,3.74447,10.9361,0.329323,-0.431945,0.0353528,0
2024-12-11 14:43:45.900,0.361615,3.73011,11.0369,0.34887,-0.408122,0.0237467,0
2024-12-11 14:43:45.903,0.342473,3.72054,11.1063,0.367806,-0.381245,0.0133623,0
2024-12-11 14:43:45.906,0.311366,3.72293,11.147,0.40629,-0.317106,-0.00313059,0
2024-12-11 14:43:45.908,0.270389,3.71097,11.1733,0.42095,-0.284731,-0.00679568,0
2024-12-11 14:43:45.911,0.222533,3.69422,11.1757,0.438054,-0.252356,-0.0116825,0
2024-12-11 14:43:45.912,0.167498,3.68943,11.1422,0.438054,-0.252356,-0.0116825,0
2024-12-11 14:43:45.915,0.107677,3.67747,11.0776,0.452103,-0.224868,-0.0159584,0
2024-12-11 14:43:45.918,0.0311067,3.68226,11.013,0.469207,-0.183941,-0.0129041,0
2024-12-11 14:43:45.919,-0.066999,3.68943,10.9361,0.469207,-0.183941,-0.0129041,0
2024-12-11 14:43:45.922,-0.157926,3.69661,10.838,0.473483,-0.167449,-0.00984991,0
2024-12-11 14:43:45.924,-0.229711,3.70618,10.7351,0.472261,-0.15401,-0.00374144,0
2024-12-11 14:43:45.927,-0.308973,3.72293,10.649,0.466764,-0.144236,0.00236703,0
2024-12-11 14:43:45.928,-0.375972,3.74208,10.5748,0.461266,-0.137517,0.010308,0
2024-12-11 14:43:45.931,-0.423829,3.75643,10.4982,0.461266,-0.137517,0.010308,0
2024-12-11 14:43:45.934,-0.462114,3.79232,10.4408,0.437443,-0.134463,0.0255792,0
2024-12-11 14:43:45.936,-0.483649,3.84497,10.4097,0.422783,-0.13996,0.0329094,0
2024-12-11 14:43:45.938,-0.493221,3.90479,10.4073,0.409344,-0.14668,0.038407,0
2024-12-11 14:43:45.940,-0.505185,3.95264,10.4097,0.409344,-0.14668,0.038407,0
2024-12-11 14:43:45.943,-0.495613,4.00529,10.4145,0.375137,-0.163173,0.0475697,0
2024-12-11 14:43:45.945,-0.469292,4.06271,10.4312,0.358644,-0.177222,0.050624,0
2024-12-11 14:43:45.947,-0.409472,4.09621,10.4408,0.339097,-0.188828,0.0524565,0
2024-12-11 14:43:45.950,-0.328116,4.12014,10.4336,0.315884,-0.201656,0.050624,0
2024-12-11 14:43:45.952,-0.229711,4.12971,10.4073,0.292672,-0.221814,0.0481806,0
2024-12-11 14:43:45.954,-0.11007,4.10339,10.3834,0.265184,-0.240139,0.0402396,0
2024-12-11 14:43:45.958,0.0287139,4.06271,10.3929,0.199823,-0.294505,0.0194708,0
2024-12-11 14:43:45.959,0.193819,4.02443,10.4312,0.199823,-0.294505,0.0194708,0
2024-12-11 14:43:45.961,0.337687,3.97897,10.5078,0.165005,-0.324436,0.00481042,0
2024-12-11 14:43:45.965,0.454935,3.94307,10.6226,0.129576,-0.357422,-0.0110716,0
2024-12-11 14:43:45.966,0.545863,3.90718,10.771,0.0947577,-0.392851,-0.0245102,0
2024-12-11 14:43:45.970,0.600898,3.8665,10.9436,0.0581068,-0.427059,-0.0422248,0
2024-12-11 14:43:45.971,0.648754,3.84257,11.1206,0.0232886,-0.455768,-0.0617719,0
2024-12-11 14:43:45.973,0.687039,3.80668,11.3264,-0.00603212,-0.4857,-0.0752106,0
2024-12-11 14:43:45.977,0.706182,3.7684,11.5493,-0.0603975,-0.534568,-0.10331,0
2024-12-11 14:43:45.979,0.715753,3.73968,11.7838,-0.082388,-0.554726,-0.11797,0
2024-12-11 14:43:45.981,0.710967,3.699,12.0565,-0.082388,-0.554726,-0.11797,0
2024-12-11 14:43:45.983,0.679861,3.64128,12.3583,-0.0970484,-0.571219,-0.132019,0
2024-12-11 14:43:45.985,0.632004,3.59581,12.6673,-0.108654,-0.584657,-0.13996,0
2024-12-11 14:43:45.987,0.557827,3.56949,12.9784,-0.114152,-0.590155,-0.147291,0
2024-12-11 14:43:45.991,0.4669,3.55514,13.2921,-0.113541,-0.590766,-0.150345,0
2024-12-11 14:43:45.992,0.366401,3.56471,13.5793,-0.104379,-0.582825,-0.149123,0
2024-12-11 14:43:45.994,0.260818,3.57906,13.8332,-0.0927724,-0.573051,-0.145458,0
2024-12-11 14:43:45.998,0.153141,3.58385,14.0653,-0.0561216,-0.538844,-0.128354,0
2024-12-11 14:43:46.000,0.0789631,3.59103,14.24,-0.0316877,-0.524183,-0.120413,0
2024-12-11 14:43:46.002,0.0382852,3.58146,14.3671,-0.0316877,-0.524183,-0.120413,0
2024-12-11 14:43:46.005,0.026321,3.55514,14.4509,-0.00847551,-0.508301,-0.109418,0
2024-12-11 14:43:46.006,0.0358923,3.52642,14.4891,0.0141258,-0.493641,-0.0972011,0
2024-12-11 14:43:46.009,0.0215354,3.50728,14.4867,0.033673,-0.486311,-0.0862058,0
2024-12-11 14:43:46.011,-0.0287139,3.50249,14.4509,0.0519984,-0.482035,-0.073378,0
2024-12-11 14:43:46.013,-0.0717847,3.50728,14.3839,0.065437,-0.481424,-0.0611611,0
2024-12-11 14:43:46.017,-0.0933201,3.52403,14.2687,0.0745997,-0.488143,-0.0458899,0
2024-12-11 14:43:46.018,-0.0717847,3.52642,14.1395,0.0764323,-0.498528,-0.0287862,0
2024-12-11 14:43:46.021,0.00239282,3.51685,14.0222,0.0587177,-0.538233,0.00236703,0
2024-12-11 14:43:46.024,0.122034,3.48814,13.9098,0.0434465,-0.566943,0.014584,0
2024-12-11 14:43:46.026,0.297009,3.43789,13.8356,0.0226777,-0.598707,0.0249684,0
2024-12-11 14:43:46.027,0.512363,3.37328,13.8141,0.0226777,-0.598707,0.0249684,0
2024-12-11 14:43:46.030,0.758824,3.28714,13.8117,0.00129805,-0.632303,0.0280226,0
2024-12-11 14:43:46.032,1.03669,3.18903,13.8667,-0.022525,-0.667732,0.0268009,0
2024-12-11 14:43:46.034,1.34297,3.07149,13.972,-0.0469589,-0.700718,0.0206925,0
2024-12-11 14:43:46.037,1.66152,2.95902,14.094,-0.0689494,-0.726374,0.010308,0
2024-12-11 14:43:46.039,1.97767,2.82024,14.2352,-0.0884965,-0.74531,-0.00801737,0
2024-12-11 14:43:46.041,2.25045,2.65753,14.3934,-0.101324,-0.75264,-0.0263428,0
2024-12-11 14:43:46.045,2.48973,2.51366,14.5585,-0.111098,-0.726985,-0.0758214,0
2024-12-11 14:43:46.046,2.7006,2.36291,14.7069,-0.111098,-0.726985,-0.0758214,0
2024-12-11 14:43:46.050,2.8657,2.19781,14.8409,-0.0976592,-0.650018,-0.128965,0
2024-12-11 14:43:46.052,2.99492,2.0327,14.968,-0.082388,-0.590155,-0.155842,0
2024-12-11 14:43:46.053,3.07627,1.87448,15.0876,-0.082388,-0.590155,-0.155842,0
2024-12-11 14:43:46.056,3.09093,1.73569,15.1858,-0.0597867,-0.519907,-0.183331,0
2024-12-11 14:43:46.058,3.05474,1.59452,15.248,-0.030466,-0.438054,-0.207154,0
2024-12-11 14:43:46.060,2.9662,1.43659,15.2551,0.00251974,-0.343983,-0.22609,1
2024-12-11 14:43:46.064,2.81067,1.29033,15.2145,0.0837624,-0.138739,-0.250524,0
2024-12-11 14:43:46.066,2.60489,1.15394,15.114,0.128965,-0.0306187,-0.256021,0
2024-12-11 14:43:46.067,2.35334,1.04865,14.9273,0.128965,-0.0306187,-0.256021,0
2024-12-11 14:43:46.071,2.06142,0.96012,14.6806,0.172946,0.0793338,-0.249302,0
2024-12-11 14:43:46.072,1.78355,0.885943,14.3982,0.215705,0.189897,-0.238918,0
2024-12-11 14:43:46.074,1.51077,0.82343,14.0821,0.255411,0.294352,-0.223036,0
2024-12-11 14:43:46.077,1.22333,0.768395,13.7519,0.255411,0.294352,-0.223036,0
2024-12-11 14:43:46.079,0.952942,0.73011,13.3854,0.321382,0.489212,-0.17539,0
2024-12-11 14:43:46.082,0.694218,0.696611,13.0071,0.351314,0.577174,-0.14668,0
2024-12-11 14:43:46.084,0.426222,0.715753,12.6314,0.375747,0.657195,-0.113694,0
2024-12-11 14:43:46.086,0.162712,0.782752,12.2507,0.395295,0.729275,-0.0794865,0
2024-12-11 14:43:46.089,-0.0598206,0.857229,11.8962,0.411177,0.790971,-0.0403923,0
2024-12-11 14:43:46.092,-0.241675,0.909871,11.5421,0.427669,0.881453,0.0408504,0
2024-12-11 14:43:46.093,-0.41665,0.950549,11.1852,0.427669,0.881453,0.0408504,0
2024-12-11 14:43:46.096,-0.567398,1.01276,10.8595,0.427059,0.904665,0.0829989,0
2024-12-11 14:43:46.098,-0.667897,1.09412,10.5628,0.422172,0.915049,0.128812,0
2024-12-11 14:43:46.101,-0.727717,1.1659,10.2778,0.411177,0.916271,0.17035,0
2024-12-11 14:43:46.103,-0.756431,1.23769,10.0289,0.396516,0.900389,0.212498,0
2024-12-11 14:43:46.106,-0.737288,1.32383,9.84228,0.354979,0.838082,0.290687,0
2024-12-11 14:43:46.107,-0.689432,1.41745,9.69841,0.354979,0.838082,0.290687,0
2024-12-11 14:43:46.110,-0.608076,1.51555,9.60509,0.331156,0.789138,0.322451,0
2024-12-11 14:43:46.113,-0.474078,1.60409,9.55005,0.28412,0.66758,0.37193,0
2024-12-11 14:43:46.115,-0.301795,1.69023,9.52373,0.28412,0.66758,0.37193,0
2024-12-11 14:43:46.117,-0.0885344,1.78355,9.55723,0.261519,0.598554,0.389033,0
2024-12-11 14:43:46.122,0.387936,1.95344,9.72234,0.24075,0.446453,0.396364,0
2024-12-11 14:43:46.124,0.639183,2.0351,9.83988,0.22609,0.446453,0.396364,0
2024-12-11 14:43:46.125,0.639183,2.0351,9.83988,0.202878,0.288854,0.381703,0
2024-12-11 14:43:46.127,0.869193,2.11645,9.97628,0.198602,0.209444,0.363989,0
2024-12-11 14:43:46.130,1.07019,2.18106,10.0983,0.194937,0.132477,0.343831,0
2024-12-11 14:43:46.131,1.27358,2.22174,10.2132,0.194937,0.132477,0.343831,0
2024-12-11 14:43:46.134,1.48923,2.26481,10.3184,0.199823,-0.0141258,0.289465,0
2024-12-11 14:43:46.136,1.69502,2.3007,10.4192,0.199823,-0.0141258,0.289465,0
2024-12-11 14:43:46.139,1.88405,2.32223,10.515,0.21143,-0.152177,0.222272,0
2024-12-11 14:43:46.140,2.05663,2.33659,10.57,0.21143,-0.152177,0.222272,0
2024-12-11 14:43:46.143,2.17149,2.35095,10.5796,0.219371,-0.216316,0.18501,0
2024-12-11 14:43:46.145,2.25045,2.35813,10.5939,0.228533,-0.275568,0.146527,0
2024-12-11 14:43:46.147,2.34377,2.3677,10.6083,0.235863,-0.329934,0.107433,0
2024-12-11 14:43:46.150,2.41795,2.37009,10.5844,0.243804,-0.378191,0.0701711,0
2024-12-11 14:43:46.152,2.4658,2.37488,10.5341,0.251745,-0.419728,0.0329094,0
2024-12-11 14:43:46.155,2.50648,2.37248,10.4599,0.255411,-0.455158,-0.00435229,0
2024-12-11 14:43:46.157,2.51127,2.35334,10.3663,0.260908,-0.483867,-0.0410031,0
2024-12-11 14:43:46.159,2.48495,2.3342,10.2778,0.260297,-0.504025,-0.0739889,0
2024-12-11 14:43:46.162,2.45384,2.3007,10.1725,0.260297,-0.51441,-0.10331,0
2024-12-11 14:43:46.164,2.40598,2.24566,10.0337,0.256632,-0.517464,-0.127743,0
2024-12-11 14:43:46.166,2.34377,2.20259,9.89492,0.252967,-0.511966,-0.150956,0
2024-12-11 14:43:46.169,2.28873,2.16192,9.75823,0.243804,-0.498528,-0.170503,0
2024-12-11 14:43:46.171,2.24806,2.12602,9.61705,0.232198,-0.477148,-0.187606,0
2024-12-11 14:43:46.173,2.18106,2.0997,9.45913,0.21876,-0.451492,-0.201656,0
2024-12-11 14:43:46.177,2.09731,2.05424,9.29881,0.188828,-0.383078,-0.215705,0
2024-12-11 14:43:46.178,2.01835,2.01595,9.15494,0.188828,-0.383078,-0.215705,0
2024-12-11 14:43:46.181,1.94865,2.00399,9.00419,0.171724,-0.342762,-0.219371,0
2024-12-11 14:43:46.183,1.88883,2.00399,8.84626,0.149734,-0.296948,-0.220592,0
2024-12-11 14:43:46.185,1.8338,2.01835,8.67847,0.126522,-0.246859,-0.223036,0
2024-12-11 14:43:46.187,1.78834,2.01835,8.5014,0.10392,-0.194326,-0.222425,0
2024-12-11 14:43:46.191,1.73091,2.01835,8.34108,0.0800973,-0.137517,-0.223646,0
2024-12-11 14:43:46.192,1.6663,2.02552,8.19512,0.0550526,-0.0782648,-0.224257,0
2024-12-11 14:43:46.195,1.61127,2.02552,8.05604,0.0269536,-0.0159584,-0.223036,0
2024-12-11 14:43:46.197,1.55623,2.02074,7.91007,0.00129805,0.0469589,-0.223036,0
2024-12-11 14:43:46.199,1.50359,2.00638,7.78325,-0.0231358,0.110487,-0.224868,0
2024-12-11 14:43:46.202,1.44377,2.01117,7.6684,-0.0469589,0.177069,-0.223646,0
2024-12-11 14:43:46.204,1.37408,2.02074,7.55324,-0.0707819,0.243041,-0.223036,0
2024-12-11 14:43:46.206,1.2999,2.01835,7.4336,-0.0927724,0.310234,-0.219981,0
2024-12-11 14:43:46.210,1.23529,2.01356,7.29482,-0.131867,0.445231,-0.21876,0
2024-12-11 14:43:46.212,1.17069,2.02074,7.18714,-0.131867,0.445231,-0.21876,0
2024-12-11 14:43:46.213,1.12283,2.02313,7.07946,-0.149581,0.510592,-0.218149,0
2024-12-11 14:43:46.216,1.07019,2.01835,6.98106,-0.164242,0.578396,-0.219371,0
2024-12-11 14:43:46.218,0.981655,2.01595,6.89731,-0.175848,0.642535,-0.216316,0
2024-12-11 14:43:46.220,0.8668,2.02313,6.80638,-0.1844,0.704231,-0.214484,0
2024-12-11 14:43:46.223,0.756431,2.02074,6.70349,-0.189897,0.755542,-0.21143,0
2024-12-11 14:43:46.225,0.445364,2.11406,6.78006,-0.191119,0.812427,-0.207154,0
2024-12-11 14:43:46.227,0.27996,2.18106,6.79921,-0.188065,0.871679,-0.19738,0
2024-12-11 14:43:46.230,0.490828,2.10449,6.50489,-0.18501,0.912606,-0.188828,0
2024-12-11 14:43:46.235,0.610469,1.98485,6.03081,-0.185621,0.969415,-0.188217,0
2024-12-11 14:43:46.236,0.610469,1.98485,6.03081,-0.188675,0.985907,-0.188828,0
2024-12-11 14:43:46.237,0.565005,1.94148,5.91835,-0.188675,0.985907,-0.188828,0
2024-12-11 14:43:46.239,0.476471,1.92473,5.88694,-0.189897,0.994459,-0.189439,0
2024-12-11 14:43:46.242,0.371187,1.93191,5.87498,-0.186843,0.995681,-0.188828,0
2024-12-11 14:43:46.244,0.275175,1.95583,5.8343,-0.1844,0.992627,-0.188828,0
2024-12-11 14:43:46.246,0.193819,1.99202,5.74577,-0.181345,0.988351,-0.19005,0
2024-12-11 14:43:46.249,0.131605,2.03988,5.64287,-0.173404,0.982242,-0.189439,0
2024-12-11 14:43:46.251,0.0909273,2.07577,5.57109,-0.164242,0.974301,-0.186385,0
2024-12-11 14:43:46.253,0.066999,2.08295,5.51845,-0.152025,0.963917,-0.185774,0
2024-12-11 14:43:46.256,0.0311067,2.08535,5.48734,-0.140419,0.951089,-0.188828,0
2024-12-11 14:43:46.258,0.0,2.10449,5.47538,-0.127591,0.932764,-0.186385,0
2024-12-11 14:43:46.261,0.0478565,2.17388,5.40838,-0.109265,0.921158,-0.19005,0
2024-12-11 14:43:46.263,0.0789631,2.24566,5.31954,-0.0970484,0.921768,-0.202267,0
2024-12-11 14:43:46.265,0.0311067,2.24327,5.29562,-0.086664,0.909552,-0.213873,0
2024-12-11 14:43:46.268,-0.00957129,2.17866,5.27408,-0.0707819,0.883896,-0.222425,0
2024-12-11 14:43:46.270,-0.0454636,2.09731,5.24776,-0.0518457,0.850299,-0.232198,0
2024-12-11 14:43:46.272,-0.107677,2.03749,5.2358,-0.0316877,0.808151,-0.236474,0
2024-12-11 14:43:46.275,-0.179462,2.00638,5.21426,-0.0096972,0.759818,-0.237696,0
2024-12-11 14:43:46.277,-0.253639,1.98485,5.18555,0.0147367,0.706063,-0.237085,0
2024-12-11 14:43:46.279,-0.30658,2.0016,5.15444,0.0403923,0.651087,-0.234642,0
2024-12-11 14:43:46.283,-0.335294,2.04945,5.10658,0.0599394,0.600387,-0.232198,0
2024-12-11 14:43:46.284,-0.359223,2.07817,5.04915,0.0825407,0.555184,-0.23342,0
2024-12-11 14:43:46.286,-0.375972,2.08295,4.99412,0.100866,0.512424,-0.235253,0
2024-12-11 14:43:46.290,-0.409472,2.08774,4.94387,0.132019,0.428128,-0.241361,0
2024-12-11 14:43:46.291,-0.459721,2.08774,4.89601,0.132019,0.428128,-0.241361,0
2024-12-11 14:43:46.294,-0.512363,2.07099,4.83141,0.145458,0.388422,-0.243194,0
2024-12-11 14:43:46.296,-0.553041,2.06381,4.79073,0.159507,0.349328,-0.246248,0
2024-12-11 14:43:46.298,-0.576969,2.05902,4.77637,0.169892,0.308401,-0.246248,0
2024-12-11 14:43:46.301,-0.591326,2.04227,4.76172,0.180887,0.266253,-0.247469,0
2024-12-11 14:43:46.303,-0.60329,2.02792,4.75693,0.188828,0.224715,-0.248691,0
2024-12-11 14:43:46.305,-0.622433,2.00638,4.74975,0.196158,0.183178,-0.249913,0
2024-12-11 14:43:46.308,-0.660718,1.98724,4.76411,0.201045,0.146527,-0.251135,0
2024-12-11 14:43:46.310,-0.715753,1.98485,4.79312,0.20471,0.110487,-0.24808,0
2024-12-11 14:43:46.312,-0.775574,1.97767,4.84098,0.207154,0.0793338,-0.24808,0
2024-12-11 14:43:46.315,-0.825823,1.9681,4.89123,0.210208,0.0518457,-0.245637,0
2024-12-11 14:43:46.317,-0.876371,1.96062,4.94148,0.21143,0.0274118,-0.241972,0
2024-12-11 14:43:46.319,-0.929013,1.94865,5.01566,0.215705,0.00419957,-0.238918,0
2024-12-11 14:43:46.323,-0.969691,1.94626,5.0994,0.221814,-0.0330621,-0.222425,0
2024-12-11 14:43:46.324,-1.01515,1.93669,5.17119,0.221814,-0.0330621,-0.222425,0
2024-12-11 14:43:46.326,-1.04865,1.92473,5.2334,0.224868,-0.0519984,-0.213873,0
2024-12-11 14:43:46.330,-1.0654,1.91755,5.30279,0.221203,-0.0715455,-0.202878,0
2024-12-11 14:43:46.336,-1.18505,1.93191,5.54716,0.215095,-0.13263,-0.169281,0
2024-12-11 14:43:46.336,-1.18505,1.93191,5.54716,0.215095,-0.13263,-0.169281,0
2024-12-11 14:43:46.337,-1.18505,1.93191,5.54716,0.21143,-0.150956,-0.15401,0
2024-12-11 14:43:46.338,-1.26162,1.95583,5.65245,0.21143,-0.150956,-0.15401,0
2024-12-11 14:43:46.342,-1.31186,1.97767,5.78166,0.202878,-0.185163,-0.121635,0
2024-12-11 14:43:46.343,-1.35733,1.99681,5.91117,0.202878,-0.185163,-0.121635,0
2024-12-11 14:43:46.346,-1.39322,2.02552,6.01885,0.199823,-0.197991,-0.105753,0
2024-12-11 14:43:46.349,-1.40279,2.06142,6.14327,0.195547,-0.217538,-0.0684913,0
2024-12-11 14:43:46.351,-1.42223,2.09252,6.27727,0.191272,-0.225479,-0.0471116,0
2024-12-11 14:43:46.352,-1.41745,2.13559,6.41845,0.191272,-0.225479,-0.0471116,0
2024-12-11 14:43:46.355,-1.41027,2.17627,6.53839,0.192493,-0.232198,-0.0251211,0
2024-12-11 14:43:46.357,-1.39801,2.21456,6.64606,0.190661,-0.238918,-0.00496313,0
2024-12-11 14:43:46.359,-1.36929,2.26241,6.7681,0.186996,-0.246248,0.0170274,0
2024-12-11 14:43:46.362,-1.33579,2.31745,6.88295,0.185163,-0.252967,0.0371853,0
2024-12-11 14:43:46.365,-1.27358,2.35095,6.98824,0.178444,-0.270682,0.0738362,0
2024-12-11 14:43:46.366,-1.19462,2.37009,7.12014,0.178444,-0.270682,0.0738362,0
2024-12-11 14:43:46.369,-1.11326,2.39641,7.27328,0.17539,-0.273125,0.0909399,0
2024-12-11 14:43:46.371,-1.03669,2.42034,7.42642,0.172335,-0.27679,0.106211,0
2024-12-11 14:43:46.374,-0.955334,2.45863,7.57986,0.170503,-0.278623,0.120871,0
2024-12-11 14:43:46.376,-0.859622,2.50409,7.733,0.171114,-0.273736,0.13431,0
2024-12-11 14:43:46.378,-0.773181,2.55464,7.89093,0.168059,-0.267627,0.144694,0
2024-12-11 14:43:46.382,-0.684646,2.61446,8.05125,0.173557,-0.2548,0.15569,0
2024-12-11 14:43:46.383,-0.581755,2.6671,8.19273,0.178444,-0.238307,0.164852,0
2024-12-11 14:43:46.385,-0.490828,2.7341,8.30997,0.182109,-0.220592,0.171572,0
2024-12-11 14:43:46.388,-0.411865,2.79631,8.40329,0.187606,-0.202267,0.178902,0
2024-12-11 14:43:46.390,-0.328116,2.82742,8.48226,0.192493,-0.180276,0.18501,0
2024-12-11 14:43:46.392,-0.263211,2.8657,8.55883,0.19738,-0.155842,0.190508,0
2024-12-11 14:43:46.396,-0.217747,2.92313,8.63061,0.202878,-0.109418,0.197838,0
2024-12-11 14:43:46.397,-0.177069,2.97577,8.68565,0.202878,-0.109418,0.197838,0
2024-12-11 14:43:46.400,-0.145962,3.02602,8.72184,0.203488,-0.0837624,0.19906,0
2024-12-11 14:43:46.402,-0.117248,3.09571,8.76252,0.203488,-0.0562743,0.200892,0
2024-12-11 14:43:46.404,-0.0837488,3.16032,8.81277,0.203488,-0.0269536,0.202725,0
2024-12-11 14:43:46.406,-0.0574277,3.22253,8.84626,0.199823,0.00114534,0.205168,0
2024-12-11 14:43:46.410,-0.0382852,3.27996,8.85344,0.188828,0.0561216,0.208223,0
2024-12-11 14:43:46.411,-0.026321,3.335,8.85584,0.188828,0.0561216,0.208223,0
2024-12-11 14:43:46.414,-0.0119641,3.37328,8.84626,0.18272,0.0817772,0.207001,0
2024-12-11 14:43:46.416,0.00478565,3.39242,8.82712,0.171114,0.109876,0.20639,0
2024-12-11 14:43:46.418,0.00957129,3.4355,8.8343,0.157675,0.134921,0.205168,0
2024-12-11 14:43:46.421,0.00717847,3.47378,8.86541,0.141182,0.156301,0.205168,0
2024-12-11 14:43:46.423,-0.00478565,3.50728,8.91326,0.123468,0.178902,0.200892,0
2024-12-11 14:43:46.425,-0.0239282,3.53599,8.98744,0.10331,0.200282,0.198449,0
2024-12-11 14:43:46.429,-0.0646062,3.55753,9.06401,0.0672696,0.239376,0.192951,0
2024-12-11 14:43:46.430,-0.114855,3.58146,9.15973,0.0672696,0.239376,0.192951,0
2024-12-11 14:43:46.432,-0.157926,3.59581,9.27249,0.0513875,0.259534,0.190508,0
2024-12-11 14:43:46.435,-0.22014,3.59821,9.37538,0.0355055,0.27847,0.19173,0
2024-12-11 14:43:46.437,-0.289831,3.59581,9.50459,0.0238994,0.292519,0.194784,0
2024-12-11 14:43:46.440,-0.347258,3.57667,9.65773,0.00984991,0.309012,0.197227,0
2024-12-11 14:43:46.443,-0.3999,3.55274,9.81566,-0.00175619,0.343831,0.209444,0
2024-12-11 14:43:46.445,-0.445364,3.52642,9.97628,-0.00175619,0.343831,0.209444,0
2024-12-11 14:43:46.446,-0.495613,3.50489,10.1414,-0.00236703,0.359713,0.215553,0
2024-12-11 14:43:46.449,-0.390329,3.45224,10.2323,-0.00175619,0.370097,0.225326,0
2024-12-11 14:43:46.451,-0.32333,3.38764,10.3065,-0.00297788,0.373762,0.231435,0
2024-12-11 14:43:46.455,-0.514756,3.38285,10.5437,0.0019089,0.381092,0.239376,0
2024-12-11 14:43:46.456,-0.737288,3.38285,10.7925,0.00923906,0.390866,0.251593,0
2024-12-11 14:43:46.458,-0.895514,3.38046,10.946,0.0245102,0.395753,0.266864,0
2024-12-11 14:43:46.462,-0.996012,3.37328,11.0345,0.0593285,0.417132,0.302904,0
2024-12-11 14:43:46.464,-1.00319,3.34457,11.0919,0.0593285,0.417132,0.302904,0
2024-12-11 14:43:46.466,-0.955334,3.31107,11.147,0.0782648,0.423852,0.320008,0
2024-12-11 14:43:46.468,-0.929013,3.28235,11.2235,0.0984228,0.426295,0.33589,0
2024-12-11 14:43:46.470,-0.964906,3.25843,11.3408,0.121024,0.426295,0.351161,0
2024-12-11 14:43:46.472,-1.02712,3.24885,11.4389,0.144847,0.421408,0.368265,0
2024-12-11 14:43:46.476,-1.06301,3.25125,11.4939,0.193104,0.404915,0.406137,0
2024-12-11 14:43:46.477,-1.11087,3.25125,11.5062,0.193104,0.404915,0.406137,0
2024-12-11 14:43:46.480,-1.15155,3.24407,11.511,0.218149,0.395753,0.427517,0
2024-12-11 14:43:46.483,-1.1683,3.23928,11.5349,0.263962,0.373762,0.470887,0
2024-12-11 14:43:46.484,-1.19462,3.24646,11.5588,0.263962,0.373762,0.470887,0
2024-12-11 14:43:46.486,-1.20419,3.22971,11.5899,0.289618,0.360934,0.494099,0
2024-12-11 14:43:46.490,-1.1683,3.21296,11.645,0.340318,0.331003,0.533193,0
2024-12-11 14:43:46.491,-1.0989,3.20578,11.7526,0.340318,0.331003,0.533193,0
2024-12-11 14:43:46.494,-1.0008,3.21536,11.9058,0.369028,0.319397,0.550297,0
2024-12-11 14:43:46.496,-0.9003,3.24168,12.023,0.403846,0.304736,0.56679,0
2024-12-11 14:43:46.498,-0.811466,3.26321,12.1023,0.437443,0.287022,0.579007,0
2024-12-11 14:43:46.502,-0.73011,3.3015,12.1502,0.502193,0.252204,0.598554,0
2024-12-11 14:43:46.503,-0.641576,3.32782,12.1932,0.502193,0.252204,0.598554,0
2024-12-11 14:43:46.506,-0.538684,3.32782,12.2243,0.533346,0.232656,0.605884,0
2024-12-11 14:43:46.508,-0.4334,3.32064,12.2483,0.564499,0.215553,0.607717,0
2024-12-11 14:43:46.510,-0.335294,3.31107,12.2818,0.598707,0.195395,0.611382,0
2024-12-11 14:43:46.513,-0.241675,3.2991,12.32,0.628027,0.178902,0.611382,0
2024-12-11 14:43:46.515,-0.162712,3.28953,12.3512,0.65857,0.161798,0.61016,0
2024-12-11 14:43:46.517,-0.117248,3.29432,12.3775,0.690945,0.149581,0.606495,0
2024-12-11 14:43:46.519,-0.0789631,3.31346,12.4062,0.720265,0.137364,0.604052,0
2024-12-11 14:43:46.525,-0.040678,3.32782,12.4301,0.78135,0.12698,0.597332,0
2024-12-11 14:43:46.525,-0.040678,3.32782,12.4301,0.78135,0.12698,0.597332,0
2024-12-11 14:43:46.527,-0.0311067,3.32064,12.4493,0.812503,0.130645,0.593056,0
2024-12-11 14:43:46.529,-0.0741775,3.33978,12.4325,0.843046,0.137975,0.592445,0
2024-12-11 14:43:46.531,-0.157926,3.37328,12.3703,0.869923,0.153246,0.589391,0
2024-12-11 14:43:46.535,-0.297009,3.42114,12.2722,0.896189,0.179513,0.591224,0
2024-12-11 14:43:46.536,-0.490828,3.51207,12.1406,0.916958,0.207001,0.596721,0
2024-12-11 14:43:46.538,-0.734896,3.63889,11.9513,0.932229,0.24243,0.608938,0
2024-12-11 14:43:46.542,-1.00558,3.8019,11.7096,0.938338,0.284578,0.621155,0
2024-12-11 14:43:46.543,-1.2664,4.0005,11.4485,0.938949,0.327949,0.641313,0
2024-12-11 14:43:46.545,-1.53709,4.21615,11.1637,0.926121,0.373762,0.662693,0
2024-12-11 14:43:46.548,-1.8003,4.46979,10.8523,0.902909,0.425073,0.685294,0
2024-12-11 14:43:46.551,-1.96301,4.72822,10.5221,0.820444,0.509981,0.727443,0
2024-12-11 14:43:46.553,-2.15474,4.96541,10.2371,0.820444,0.509981,0.727443,0
2024-12-11 14:43:46.555,-2.4658,5.22144,10.0552,0.763635,0.547854,0.748288,0
2024-12-11 14:43:46.558,-2.72692,5.44188,9.91406,0.699496,0.579618,0.768446,0
2024-12-11 14:43:46.559,-2.92074,5.62612,9.79173,0.626195,0.603441,0.789215,0
2024-12-11 14:43:46.562,-3.01167,5.79841,9.72234,0.546174,0.618712,0.809373,0
2024-12-11 14:43:46.564,-2.94467,5.90638,9.63859,0.460044,0.61749,0.82159,0
2024-12-11 14:43:46.568,-2.77956,5.99253,9.60509,0.368417,0.601608,0.825866,0
2024-12-11 14:43:46.569,-2.57617,6.08345,9.6697,0.275568,0.561903,0.828309,0
2024-12-11 14:43:46.571,-2.32941,6.11217,9.77259,0.16867,0.490434,0.824644,0
2024-12-11 14:43:46.575,-2.03031,6.10977,9.90928,-0.0683385,0.249149,0.789825,0
2024-12-11 14:43:46.577,-1.6352,6.08106,10.0744,-0.202114,0.0842206,0.759283,0
2024-12-11 14:43:46.579,-1.13719,5.94706,10.2897,-0.340776,-0.106364,0.714004,0
2024-12-11 14:43:46.582,-0.562612,5.74816,10.6202,-0.481271,-0.309165,0.651698,0
2024-12-11 14:43:46.583,0.0693919,5.51605,11.1015,-0.481271,-0.309165,0.651698,0
2024-12-11 14:43:46.585,0.703789,5.22144,11.7383,-0.616269,-0.521129,0.579007,0
2024-12-11 14:43:46.588,1.2999,4.88644,12.5498,-0.736605,-0.729428,0.492267,0
2024-12-11 14:43:46.590,1.88883,4.5344,13.5553,-0.841671,-0.931618,0.396364,0
2024-12-11 14:43:46.592,2.53789,4.18235,14.7069,-0.92047,-1.12648,0.29313,0
2024-12-11 14:43:46.596,3.09332,3.82822,16.0119,-0.973003,-1.30973,0.177069,0
2024-12-11 14:43:46.604,3.49532,2.24566,21.1783,-0.847169,-1.79841,-0.271903,0
2024-12-11 14:43:46.604,3.49532,2.24566,21.1783,-0.847169,-1.79841,-0.271903,0
2024-12-11 14:43:46.604,3.49532,2.24566,21.1783,-0.847169,-1.79841,-0.271903,0
2024-12-11 14:43:46.604,3.49532,2.24566,21.1783,-0.847169,-1.79841,-0.271903,0
2024-12-11 14:43:46.609,2.71496,1.61127,22.6122,-0.623599,-1.84178,-0.434389,0
2024-12-11 14:43:46.614,2.56421,0.459721,23.8813,-0.340166,-1.78864,-0.534568,0
2024-12-11 14:43:46.615,2.56421,0.459721,23.8813,-0.340166,-1.7361,-0.57916,0
2024-12-11 14:43:46.616,2.67428,-0.157926,24.1301,-0.17768,-1.7361,-0.57916,0
2024-12-11 14:43:46.617,2.67428,-0.157926,24.1301,-0.00908635,-1.6683,-0.613978,0
2024-12-11 14:43:46.619,2.71974,-0.684646,24.0823,-0.00908635,-1.6683,-0.613978,0
2024-12-11 14:43:46.621,2.51605,-1.10608,23.9243,0.157064,-1.57789,-0.645742,1
2024-12-11 14:43:46.623,2.03749,-1.35972,23.5843,0.320771,-1.46672,-0.663456,0
2024-12-11 14:43:46.626,1.2999,-1.4004,23.0049,0.475926,-1.33783,-0.657959,0
2024-12-11 14:43:46.628,0.488435,-1.30229,22.2604,0.613367,-1.20161,-0.626806,0
2024-12-11 14:43:46.630,-0.191426,-1.18026,21.4822,0.731261,-1.06539,-0.575494,0
2024-12-11 14:43:46.632,-0.689432,-1.10608,20.697,0.831439,-0.938949,-0.505858,0
2024-12-11 14:43:46.635,-1.05105,-1.09173,19.8685,0.907795,-0.821055,-0.426448,0
2024-12-11 14:43:46.637,-1.27358,-1.08933,18.9948,0.966437,-0.714157,-0.342762,0
2024-12-11 14:43:46.641,-1.4004,-1.07976,18.1113,1.02263,-0.518686,-0.179055,0
2024-12-11 14:43:46.642,-1.45813,-1.04387,17.2448,1.02263,-0.518686,-0.179055,0
2024-12-11 14:43:46.644,-1.49641,-0.952942,16.4091,1.02325,-0.431945,-0.101477,0
2024-12-11 14:43:46.648,-1.52034,-0.816252,15.6048,0.97621,-0.270071,0.0377962,0
2024-12-11 14:43:46.649,-1.43898,-0.65354,14.8747,0.97621,-0.270071,0.0377962,0
2024-12-11 14:43:46.651,-1.27837,-0.476471,14.2639,0.929786,-0.194937,0.100713,0
2024-12-11 14:43:46.655,-1.07737,-0.287438,13.7348,0.877253,-0.121635,0.156911,0
2024-12-11 14:43:46.656,-0.80668,-0.0909273,13.2921,0.816779,-0.0532201,0.200892,0
2024-12-11 14:43:46.658,-0.502792,0.0717847,12.9138,0.752029,0.0151948,0.236322,0
2024-12-11 14:43:46.661,-0.196211,0.198604,12.5569,0.679949,0.0762796,0.261977,0
2024-12-11 14:43:46.663,0.100499,0.318545,12.2507,0.610313,0.135532,0.277859,0
2024-12-11 14:43:46.666,0.378365,0.445364,12.023,0.538844,0.194784,0.284578,0
2024-12-11 14:43:46.669,0.643968,0.572184,11.8675,0.466764,0.246706,0.280913,0
2024-12-11 14:43:46.670,0.878764,0.703789,11.7359,0.39896,0.299239,0.269918,0
2024-12-11 14:43:46.672,1.07976,0.833001,11.6282,0.33421,0.349328,0.255258,0
2024-12-11 14:43:46.675,1.24008,0.933799,11.5708,0.274958,0.398807,0.2351,0
2024-12-11 14:43:46.678,1.34776,1.0343,11.5134,0.223036,0.445231,0.207001,0
2024-12-11 14:43:46.680,1.41745,1.10608,11.4509,0.176,0.489212,0.176459,0
2024-12-11 14:43:46.682,1.44377,1.14437,11.3862,0.133852,0.53075,0.145916,0
2024-12-11 14:43:46.684,1.4342,1.17547,11.2929,0.093536,0.568012,0.111709,0
2024-12-11 14:43:46.687,1.39561,1.19222,11.1924,0.0636045,0.60283,0.0750579,0
2024-12-11 14:43:46.689,1.33101,1.20897,11.0871,0.0318404,0.630929,0.0408504,0
2024-12-11 14:43:46.691,1.24487,1.21854,10.9675,0.0019089,0.65353,0.0096972,0
2024-12-11 14:43:46.694,1.14197,1.21137,10.8571,-0.0206925,0.673688,-0.0257319,0
2024-12-11 14:43:46.696,1.02233,1.19701,10.7375,-0.0445155,0.690792,-0.0587177,0
2024-12-11 14:43:46.698,0.895514,1.18265,10.6131,-0.0634518,0.704231,-0.0898709,0
2024-12-11 14:43:46.701,0.76361,1.14676,10.4815,-0.0836097,0.715226,-0.117359,0
2024-12-11 14:43:46.703,0.596112,1.10369,10.34,-0.0982701,0.724999,-0.144847,0
2024-12-11 14:43:46.705,0.419043,1.09173,10.2012,-0.111709,0.730497,-0.166227,0
2024-12-11 14:43:46.708,0.251246,1.08455,10.0552,-0.125758,0.734162,-0.186385,0
2024-12-11 14:43:46.710,0.0885344,1.05344,9.89492,-0.125758,0.734162,-0.186385,0
2024-12-11 14:43:46.717,-0.375972,0.936192,9.41127,-0.176459,0.718891,-0.231587,0
2024-12-11 14:43:46.717,-0.375972,0.936192,9.41127,-0.176459,0.718891,-0.231587,0
2024-12-11 14:43:46.717,-0.375972,0.936192,9.41127,-0.176459,0.718891,-0.231587,0
2024-12-11 14:43:46.721,-0.521934,0.890728,9.24587,-0.200282,0.698733,-0.236474,0
2024-12-11 14:43:46.722,-0.651147,0.8668,9.08315,-0.200282,0.698733,-0.236474,0
2024-12-11 14:43:46.724,-0.785145,0.833001,8.92523,-0.214942,0.687127,-0.237696,0
2024-12-11 14:43:46.727,-0.905085,0.777966,8.78405,-0.232046,0.668801,-0.235863,0
2024-12-11 14:43:46.730,-1.00558,0.734896,8.64497,-0.262588,0.632151,-0.223646,0
2024-12-11 14:43:46.732,-1.1013,0.691825,8.5014,-0.262588,0.632151,-0.223646,0
2024-12-11 14:43:46.735,-1.17787,0.648754,8.36979,-0.299239,0.583894,-0.208986,0
2024-12-11 14:43:46.736,-1.24008,0.612862,8.25972,-0.299239,0.583894,-0.208986,0
2024-12-11 14:43:46.739,-1.27837,0.572184,8.18315,-0.317564,0.555795,-0.196769,0
2024-12-11 14:43:46.742,-1.28315,0.545863,8.11586,-0.354826,0.499597,-0.17539,0
2024-12-11 14:43:46.744,-1.26401,0.529113,8.07279,-0.368265,0.473941,-0.165616,0
2024-12-11 14:43:46.745,-1.24008,0.512363,8.05843,-0.368265,0.473941,-0.165616,0
2024-12-11 14:43:46.749,-1.22812,0.50997,8.05843,-0.382314,0.447675,-0.157675,0
2024-12-11 14:43:46.750,-1.19462,0.524327,8.05604,-0.394531,0.425073,-0.152177,0
2024-12-11 14:43:46.754,-1.1683,0.54347,8.04407,-0.411635,0.384757,-0.137517,0
2024-12-11 14:43:46.755,-1.15394,0.555434,8.04168,-0.411635,0.384757,-0.137517,0
2024-12-11 14:43:46.757,-1.12283,0.562612,8.01297,-0.415911,0.366432,-0.130798,0
2024-12-11 14:43:46.760,-1.09173,0.579362,7.97229,-0.42263,0.347496,-0.1253,0
2024-12-11 14:43:46.762,-1.07019,0.588933,7.934,-0.426295,0.334668,-0.119802,0
2024-12-11 14:43:46.764,-1.03908,0.591326,7.89572,-0.432404,0.323673,-0.113083,0
2024-12-11 14:43:46.767,-1.01755,0.588933,7.84786,-0.434236,0.310234,-0.109418,0
2024-12-11 14:43:46.769,-1.01276,0.605683,7.81436,-0.440345,0.294963,-0.102699,0
2024-12-11 14:43:46.771,-1.18265,0.720539,7.94357,-0.442788,0.287022,-0.0972011,0
2024-12-11 14:43:46.774,-1.30469,0.813859,8.08953,-0.435458,0.285189,-0.0843733,0
2024-12-11 14:43:46.776,-1.14437,0.777966,8.00818,-0.426906,0.276637,-0.0745997,0
2024-12-11 14:43:46.778,-0.97687,0.703789,7.90289,-0.424462,0.260755,-0.0666587,0
2024-12-11 14:43:46.781,-0.929013,0.646361,7.95314,-0.417743,0.239987,-0.0599394,0
2024-12-11 14:43:46.784,-0.981655,0.600898,8.13261,-0.397585,0.18501,-0.0428357,0
2024-12-11 14:43:46.786,-1.08455,0.581755,8.42244,-0.397585,0.18501,-0.0428357,0
2024-12-11 14:43:46.788,-1.1659,0.584148,8.68565,-0.373762,0.155079,-0.0324513,0
2024-12-11 14:43:46.791,-1.22572,0.608076,8.83669,-0.312677,0.101324,-0.00984991,0
2024-12-11 14:43:46.794,-1.30947,0.651147,8.93719,-0.276027,0.082388,0.0115297,0
2024-12-11 14:43:46.795,-1.41984,0.684646,9.05205,-0.276027,0.082388,0.0115297,0
2024-12-11 14:43:46.798,-1.4988,0.722932,9.1693,-0.230824,0.0683385,0.0359636,0
2024-12-11 14:43:46.800,-1.52273,0.739681,9.25783,-0.18501,0.0524565,0.0610084,0
2024-12-11 14:43:46.802,-1.50359,0.73011,9.32274,-0.136753,0.0341311,0.0860531,0
2024-12-11 14:43:46.805,-1.48205,0.754038,9.36581,-0.0884965,0.0139731,0.113541,0
2024-12-11 14:43:46.807,-1.45573,0.799502,9.38734,-0.038407,-0.00984991,0.137975,0
2024-12-11 14:43:46.809,-1.41506,0.85005,9.36341,0.00923906,-0.037338,0.161187,0
2024-12-11 14:43:46.812,-1.35972,0.917049,9.29642,0.0544418,-0.0617719,0.183789,0
2024-12-11 14:43:46.815,-1.29272,0.984048,9.18605,0.13263,-0.102088,0.222272,0
2024-12-11 14:43:46.817,-1.21376,1.07019,9.05205,0.166838,-0.122246,0.238154,0
2024-12-11 14:43:46.819,-1.12283,1.15394,8.91326,0.166838,-0.122246,0.238154,0
2024-12-11 14:43:46.821,-1.04387,1.23051,8.7697,0.192493,-0.145458,0.254036,0
2024-12-11 14:43:46.823,-0.972084,1.32144,8.6354,0.213873,-0.164394,0.265642,0
2024-12-11 14:43:46.826,-0.907478,1.40548,8.49661,0.232198,-0.183941,0.275416,0
2024-12-11 14:43:46.828,-0.835394,1.48923,8.35065,0.243194,-0.200434,0.282135,0
2024-12-11 14:43:46.830,-0.756431,1.57777,8.21187,0.248691,-0.219371,0.286411,0
2024-12-11 14:43:46.834,-0.699003,1.64716,8.07518,0.246859,-0.239528,0.291909,0
2024-12-11 14:43:46.835,-0.643968,1.69262,7.93639,0.241361,-0.255411,0.296185,0
2024-12-11 14:43:46.837,-0.586541,1.73569,7.81675,0.229755,-0.270682,0.297406,0
2024-12-11 14:43:46.840,-0.529113,1.77876,7.71625,0.213262,-0.282288,0.297406,0
2024-12-11 14:43:46.842,-0.481256,1.83141,7.63968,0.195547,-0.289007,0.30046,0
2024-12-11 14:43:46.844,-0.426222,1.8673,7.60379,0.172946,-0.293283,0.30046,0
2024-12-11 14:43:46.847,-0.361615,1.89123,7.59183,0.146069,-0.294505,0.298017,0
2024-12-11 14:43:46.849,-0.311366,1.92473,7.59661,0.121635,-0.293894,0.296185,0
2024-12-11 14:43:46.851,-0.248854,1.94387,7.62054,0.0965902,-0.286564,0.29313,0
2024-12-11 14:43:46.854,-0.174676,1.95823,7.66601,0.0709346,-0.279844,0.288854,0
2024-12-11 14:43:46.856,-0.117248,1.9681,7.72583,0.0458899,-0.26946,0.284578,0
2024-12-11 14:43:46.858,-0.0885344,1.99202,7.78565,0.0177909,-0.2548,0.280303,0
2024-12-11 14:43:46.861,-0.0502493,2.01595,7.85265,-0.00603212,-0.238307,0.274194,0
2024-12-11 14:43:46.863,-0.0167498,2.02552,7.92682,-0.0255792,-0.219981,0.270529,0
2024-12-11 14:43:46.866,0.00957129,2.02313,7.96032,-0.050624,-0.201045,0.264421,0
2024-12-11 14:43:46.868,0.0478565,2.01356,7.97707,-0.0713928,-0.180887,0.257701,0
2024-12-11 14:43:46.871,0.0717847,1.99202,8.02971,-0.113541,-0.13935,0.248538,0
2024-12-11 14:43:46.874,0.0861416,1.97767,8.07757,-0.134921,-0.117359,0.244263,0
2024-12-11 14:43:46.875,0.0885344,1.96301,8.12064,-0.134921,-0.117359,0.244263,0
2024-12-11 14:43:46.878,0.102891,1.93669,8.1664,-0.150803,-0.0959794,0.238765,0
2024-12-11 14:43:46.880,0.114855,1.91994,8.2334,-0.169128,-0.0764323,0.233267,0
2024-12-11 14:43:46.882,0.119641,1.90558,8.32912,-0.181956,-0.0544418,0.228381,0
2024-12-11 14:43:46.885,0.136391,1.89123,8.42962,-0.194173,-0.0361163,0.224105,0
2024-12-11 14:43:46.887,0.155533,1.86491,8.54926,-0.202114,-0.0202343,0.216774,0
2024-12-11 14:43:46.889,0.165105,1.82662,8.67847,-0.20639,-0.00435229,0.211277,0
2024-12-11 14:43:46.892,0.150748,1.81705,8.80798,-0.210055,0.00908635,0.205779,0
2024-12-11 14:43:46.894,0.129212,1.81226,8.93001,-0.211277,0.0206925,0.202725,0
2024-12-11 14:43:46.896,0.100499,1.78355,9.03769,-0.204557,0.0347419,0.198449,0
2024-12-11 14:43:46.899,0.0526421,1.75962,9.1334,-0.196006,0.0475697,0.196006,0
2024-12-11 14:43:46.901,0.00957129,1.74766,9.21476,-0.185621,0.0555107,0.194784,0
2024-12-11 14:43:46.903,-0.040678,1.73091,9.28684,-0.174626,0.0610084,0.194784,0
2024-12-11 14:43:46.906,-0.107677,1.71655,9.36102,-0.159966,0.066506,0.195395,0
2024-12-11 14:43:46.908,-0.155533,1.71655,9.42563,-0.146527,0.0713928,0.199671,0
2024-12-11 14:43:46.911,-0.181855,1.71655,9.47827,-0.108044,0.0677277,0.208833,0
2024-12-11 14:43:46.914,-0.196211,1.70459,9.53091,-0.0884965,0.0616192,0.211277,0
2024-12-11 14:43:46.916,-0.172283,1.6998,9.57398,-0.0683385,0.0524565,0.213109,0
2024-12-11 14:43:46.918,-0.148355,1.70459,9.62902,-0.0683385,0.0524565,0.213109,0
2024-12-11 14:43:46.920,-0.165105,1.71416,9.66491,-0.0457372,0.0408504,0.214942,0
2024-12-11 14:43:46.922,-0.165105,1.73809,9.66491,-0.0255792,0.0286335,0.216164,0
2024-12-11 14:43:46.924,-0.138784,1.76201,9.66491,-0.00297788,0.0170274,0.218607,0
2024-12-11 14:43:46.927,-0.119641,1.78116,9.63859,0.0171801,0.00847551,0.218607,0
2024-12-11 14:43:46.929,-0.105284,1.80269,9.58355,0.0367272,-0.0019089,0.219218,0
2024-12-11 14:43:46.931,-0.0909273,1.83141,9.5357,0.0513875,-0.0122933,0.217996,0
2024-12-11 14:43:46.934,-0.0789631,1.86012,9.47109,0.0660479,-0.0238994,0.214942,0
2024-12-11 14:43:46.936,-0.0502493,1.89362,9.39213,0.077654,-0.0318404,0.211277,0
2024-12-11 14:43:46.939,-0.0334995,1.9343,9.31077,0.0874275,-0.0446682,0.208223,0
2024-12-11 14:43:46.941,-0.026321,1.96062,9.21476,0.0923143,-0.0538309,0.203947,0
2024-12-11 14:43:46.944,-0.00717847,1.99442,9.12383,0.0959794,-0.0605502,0.198449,0
2024-12-11 14:43:46.947,0.0119641,2.04945,9.04965,0.0929251,-0.0715455,0.185621,0
2024-12-11 14:43:46.948,0.0382852,2.07338,8.96591,0.0929251,-0.0715455,0.185621,0
2024-12-11 14:43:46.950,0.0550349,2.07099,8.90369,0.0849841,-0.0770431,0.178902,0
2024-12-11 14:43:46.954,0.0502493,2.05902,8.85823,0.0727672,-0.0807082,0.162409,0
2024-12-11 14:43:46.955,0.0526421,2.0662,8.8343,0.0727672,-0.0807082,0.162409,0
2024-12-11 14:43:46.958,0.0646062,2.09492,8.83909,0.0623828,-0.0819299,0.155079,0
2024-12-11 14:43:46.960,0.0646062,2.09731,8.84626,0.0526092,-0.0807082,0.14897,0
2024-12-11 14:43:46.962,0.0574277,2.10209,8.85105,0.0452791,-0.0800973,0.141029,0
2024-12-11 14:43:46.965,0.0574277,2.10688,8.85823,0.0330621,-0.0770431,0.136143,0
2024-12-11 14:43:46.967,0.066999,2.09731,8.87976,0.0232886,-0.0727672,0.128812,0
2024-12-11 14:43:46.969,0.0765703,2.08774,8.91566,0.0110716,-0.0660479,0.121482,0
2024-12-11 14:43:46.971,0.0765703,2.0686,8.94198,0.0019089,-0.0593285,0.114152,0
2024-12-11 14:43:46.974,0.0837488,2.05902,8.9683,-0.00786466,-0.0550526,0.106822,0
2024-12-11 14:43:46.976,0.0741775,2.06142,9.02094,-0.0206925,-0.0483333,0.0970484,0
2024-12-11 14:43:46.980,0.066999,2.06142,9.0688,-0.0377962,-0.0410031,0.082388,0
2024-12-11 14:43:46.981,0.0741775,2.05663,9.11665,-0.0377962,-0.0410031,0.082388,0
2024-12-11 14:43:46.984,0.081356,2.05185,9.1669,-0.046348,-0.0287862,0.0671168,0
2024-12-11 14:43:46.987,0.0885344,2.04227,9.21237,-0.0530674,-0.0202343,0.0616192,0
2024-12-11 14:43:46.988,0.0957129,2.02792,9.26052,-0.0530674,-0.0202343,0.0616192,0
2024-12-11 14:43:46.990,0.102891,2.00877,9.31077,-0.0561216,-0.0116825,0.0542891,0
2024-12-11 14:43:46.994,0.0909273,1.98006,9.35384,-0.0622301,0.00725381,0.0414613,0
2024-12-11 14:43:46.995,0.0622134,1.95583,9.38256,-0.0622301,0.00725381,0.0414613,0
2024-12-11 14:43:46.997,0.0287139,1.94387,9.42084,-0.0634518,0.0182491,0.038407,0
2024-12-11 14:43:47.000,0.00957129,1.94626,9.47109,-0.0628409,0.0286335,0.0341311,0
2024-12-11 14:43:47.002,-0.0143569,1.92712,9.51177,-0.0603975,0.038407,0.0322986,0
2024-12-11 14:43:47.005,-0.0454636,1.89362,9.54048,-0.0603975,0.0457372,0.0310769,0
2024-12-11 14:43:47.007,-0.0598206,1.88644,9.54766,-0.058565,0.0579541,0.0298552,0
2024-12-11 14:43:47.010,-0.0622134,1.90319,9.55723,-0.0591758,0.0658951,0.0274118,0
2024-12-11 14:43:47.012,-0.0693919,1.91994,9.58116,-0.058565,0.0732253,0.0286335,0
2024-12-11 14:43:47.014,-0.0909273,1.9343,9.57877,-0.0579541,0.0811663,0.0286335,0
2024-12-11 14:43:47.016,-0.0981057,1.95823,9.57877,-0.0524565,0.086664,0.0286335,0
2024-12-11 14:43:47.019,-0.0981057,1.97767,9.58834,-0.0530674,0.0909399,0.0298552,0
2024-12-11 14:43:47.021,-0.124427,1.99681,9.58355,-0.0536782,0.0976592,0.0286335,0
2024-12-11 14:43:47.023,-0.143569,2.02792,9.59313,-0.0512348,0.103157,0.0298552,0
2024-12-11 14:43:47.027,-0.131605,2.03988,9.58834,-0.0524565,0.11293,0.0310769,0
2024-12-11 14:43:47.029,-0.119641,2.04945,9.55963,-0.0524565,0.115985,0.0298552,0
2024-12-11 14:43:47.030,-0.107677,2.08295,9.56441,-0.0524565,0.115985,0.0298552,0
2024-12-11 14:43:47.033,-0.112463,2.10927,9.59552,-0.0530674,0.121482,0.030466,0
2024-12-11 14:43:47.035,-0.114855,2.13559,9.61466,-0.0518457,0.127591,0.0286335,0
2024-12-11 14:43:47.038,-0.114855,2.17627,9.62902,-0.0530674,0.128202,0.0274118,0
2024-12-11 14:43:47.040,-0.119641,2.22174,9.62184,-0.050624,0.132477,0.0268009,0
2024-12-11 14:43:47.042,-0.12682,2.27438,9.59313,-0.0500131,0.132477,0.0280226,0
2024-12-11 14:43:47.045,-0.150748,2.33181,9.55963,-0.0475697,0.133699,0.0268009,0
2024-12-11 14:43:47.048,-0.160319,2.38684,9.51416,-0.046348,0.13431,0.0255792,0
2024-12-11 14:43:47.049,-0.136391,2.42034,9.45913,-0.046348,0.13431,0.0255792,0
2024-12-11 14:43:47.052,-0.0981057,2.44427,9.40888,-0.0475697,0.130645,0.0249684,0
2024-12-11 14:43:47.055,-0.0430708,2.4682,9.37299,-0.0561216,0.11965,0.0176382,0
2024-12-11 14:43:47.057,-0.00239282,2.4993,9.32513,-0.0616192,0.114763,0.0121406,0
2024-12-11 14:43:47.060,0.0311067,2.53789,9.3012,-0.066506,0.107433,0.00542127,0
2024-12-11 14:43:47.061,0.0693919,2.58335,9.3012,-0.066506,0.107433,0.00542127,0
2024-12-11 14:43:47.064,0.105284,2.63839,9.29402,-0.0732253,0.104379,-0.0019089,0
2024-12-11 14:43:47.066,0.122034,2.69581,9.27966,-0.0787229,0.0994917,-0.00923906,0
2024-12-11 14:43:47.068,0.114855,2.74606,9.27249,-0.0805555,0.0964375,-0.0165692,0
2024-12-11 14:43:47.070,0.117248,2.81785,9.27488,-0.0842206,0.0915507,-0.0269536,0
2024-12-11 14:43:47.074,0.124427,2.88245,9.27966,-0.0897182,0.082388,-0.0422248,0
2024-12-11 14:43:47.076,0.114855,2.93031,9.2677,-0.0933833,0.0793338,-0.0513875,0
2024-12-11 14:43:47.077,0.107677,2.98056,9.22912,-0.0933833,0.0793338,-0.0513875,0
2024-12-11 14:43:47.081,0.114855,3.03081,9.19562,-0.1056,0.0683385,-0.0715455,0
2024-12-11 14:43:47.082,0.119641,3.06192,9.17647,-0.1056,0.0683385,-0.0715455,0
2024-12-11 14:43:47.085,0.107677,3.08584,9.1669,-0.114763,0.0622301,-0.081319,0
2024-12-11 14:43:47.088,0.0789631,3.11725,9.15973,-0.131256,0.0414613,-0.100255,0
2024-12-11 14:43:47.090,0.0526421,3.14357,9.16451,-0.131256,0.0414613,-0.100255,0
2024-12-11 14:43:47.092,0.0334995,3.1675,9.18365,-0.139808,0.0286335,-0.112472,0
2024-12-11 14:43:47.094,0.0143569,3.19382,9.21476,-0.152025,0.0139731,-0.122857,0
2024-12-11 14:43:47.097,-0.0287139,3.22253,9.25783,-0.166074,-0.0019089,-0.131409,0
2024-12-11 14:43:47.099,-0.0741775,3.22732,9.30359,-0.173404,-0.0165692,-0.13996,0
2024-12-11 14:43:47.101,-0.0981057,3.22493,9.35624,-0.185621,-0.0330621,-0.148512,0
2024-12-11 14:43:47.103,-0.119641,3.23211,9.42084,-0.195395,-0.0507767,-0.155842,0
2024-12-11 14:43:47.107,-0.148355,3.23928,9.47827,-0.20639,-0.0666587,-0.165005,0
2024-12-11 14:43:47.109,-0.177069,3.23211,9.53091,-0.224715,-0.0972011,-0.174779,0
2024-12-11 14:43:47.111,-0.191426,3.21296,9.58355,-0.224715,-0.0972011,-0.174779,0
2024-12-11 14:43:47.113,-0.210568,3.201,9.64337,-0.2351,-0.112472,-0.179665,0
2024-12-11 14:43:47.115,-0.210568,3.19143,9.71037,-0.248538,-0.130187,-0.183331,0
2024-12-11 14:43:47.117,-0.191426,3.17468,9.79412,-0.258312,-0.14668,-0.188217,0
2024-12-11 14:43:47.120,-0.184247,3.15314,9.88296,-0.269918,-0.163783,-0.191882,0
2024-12-11 14:43:47.122,-0.165105,3.11725,9.9691,-0.280303,-0.179055,-0.194937,0
2024-12-11 14:43:47.126,-0.112463,3.07388,10.072,-0.296185,-0.210819,-0.20471,0
2024-12-11 14:43:47.128,-0.0526421,3.02363,10.1749,-0.304736,-0.222425,-0.207764,0
2024-12-11 14:43:47.129,-0.0167498,2.98056,10.2993,-0.304736,-0.222425,-0.207764,0
2024-12-11 14:43:47.132,0.0167498,2.94467,10.4336,-0.307791,-0.230366,-0.21143,0
2024-12-11 14:43:47.134,0.0693919,2.89442,10.5628,-0.313899,-0.238918,-0.216316,0
2024-12-11 14:43:47.137,0.122034,2.82981,10.7112,-0.313899,-0.248691,-0.221814,0
2024-12-11 14:43:47.140,0.189033,2.77238,10.8523,-0.31451,-0.249913,-0.223646,0
2024-12-11 14:43:47.141,0.251246,2.72931,10.9795,-0.31451,-0.249913,-0.223646,0
2024-12-11 14:43:47.143,0.297009,2.65992,11.0991,-0.308401,-0.244415,-0.223036,0
2024-12-11 14:43:47.146,0.344866,2.58096,11.2044,-0.303515,-0.237696,-0.221814,0
2024-12-11 14:43:47.148,0.392722,2.53071,11.2953,-0.294963,-0.225479,-0.221203,0
2024-12-11 14:43:47.150,0.431007,2.47777,11.3886,-0.285189,-0.21143,-0.221203,0
2024-12-11 14:43:47.153,0.459721,2.4347,11.4628,-0.273583,-0.191882,-0.216927,0
2024-12-11 14:43:47.156,0.469292,2.3988,11.5182,-0.24976,-0.149734,-0.207764,0
2024-12-11 14:43:47.158,0.464507,2.34856,11.554,-0.24976,-0.149734,-0.207764,0
2024-12-11 14:43:47.161,0.440578,2.30548,11.5804,-0.234489,-0.124078,-0.202267,0
2024-12-11 14:43:47.162,0.392722,2.28634,11.5828,-0.219829,-0.0965902,-0.193104,0
2024-12-11 14:43:47.165,0.335294,2.27438,11.566,-0.202114,-0.0684913,-0.18272,0
2024-12-11 14:43:47.167,0.265603,2.25045,11.5469,-0.1844,-0.037338,-0.16867,0
2024-12-11 14:43:47.169,0.200997,2.22652,11.5011,-0.167296,-0.00557398,-0.151566,0
2024-12-11 14:43:47.173,0.133998,2.21216,11.4485,-0.147138,0.030466,-0.136906,0
2024-12-11 14:43:47.174,0.0598206,2.19781,11.3839,-0.127591,0.0610084,-0.118581,0
2024-12-11 14:43:47.176,-0.00239282,2.19541,11.2881,-0.108654,0.0927724,-0.0965902,0
2024-12-11 14:43:47.180,-0.0574277,2.21456,11.1996,-0.0713928,0.147138,-0.0532201,0
2024-12-11 14:43:47.181,-0.107677,2.23609,11.0943,-0.0713928,0.147138,-0.0532201,0
2024-12-11 14:43:47.184,-0.133998,2.24327,10.9866,-0.0524565,0.169739,-0.0287862,0
2024-12-11 14:43:47.187,-0.141177,2.26481,10.8811,-0.0310769,0.19173,-0.00984991,0
2024-12-11 14:43:47.188,-0.155533,2.3007,10.7734,-0.0139731,0.209444,0.0115297,0
2024-12-11 14:43:47.191,-0.181855,2.33181,10.6657,0.00557398,0.228381,0.0298552,0
2024-12-11 14:43:47.193,-0.210568,2.38206,10.5341,0.0275645,0.246095,0.0469589,0
2024-12-11 14:43:47.195,-0.229711,2.40838,10.4001,0.0446682,0.258923,0.0671168,0
2024-12-11 14:43:47.199,-0.244068,2.42991,10.2586,0.0794865,0.27847,0.1056,0
2024-12-11 14:43:47.200,-0.260818,2.47298,10.1103,0.0794865,0.27847,0.1056,0
2024-12-11 14:43:47.202,-0.277567,2.5017,9.9667,0.0941468,0.280913,0.122704,0
2024-12-11 14:43:47.205,-0.285045,2.54028,9.81326,0.110029,0.283968,0.137975,0
2024-12-11 14:43:47.208,-0.275175,2.58335,9.65773,0.130187,0.27114,0.169128,0
2024-12-11 14:43:47.209,-0.246461,2.62881,9.49981,0.130187,0.27114,0.169128,0
2024-12-11 14:43:47.213,-0.22014,2.67667,9.34427,0.143015,0.250371,0.19173,0
2024-12-11 14:43:47.214,-0.198604,2.72692,9.20519,0.143015,0.250371,0.19173,0
2024-12-11 14:43:47.216,-0.16989,2.8011,9.08076,0.14668,0.2351,0.197838,0
2024-12-11 14:43:47.219,-0.141177,2.87528,8.97308,0.150956,0.216774,0.20639,0
2024-12-11 14:43:47.221,-0.105284,2.93031,8.87498,0.152788,0.202725,0.210055,0
2024-12-11 14:43:47.224,-0.0765703,2.98295,8.78166,0.150956,0.180734,0.213109,0
2024-12-11 14:43:47.226,-0.0526421,3.0332,8.69283,0.153399,0.166074,0.213109,0
2024-12-11 14:43:47.228,-0.0143569,3.08345,8.62822,0.154621,0.147138,0.211277,0
2024-12-11 14:43:47.230,0.040678,3.13161,8.57079,0.150956,0.130645,0.210055,0
2024-12-11 14:43:47.233,0.0933201,3.18425,8.52772,0.152177,0.113541,0.203336,0
2024-12-11 14:43:47.236,0.141177,3.23689,8.50619,0.14668,0.0817772,0.186843,0
2024-12-11 14:43:47.238,0.189033,3.27996,8.46551,0.14668,0.0817772,0.186843,0
2024-12-11 14:43:47.240,0.208176,3.31346,8.42004,0.144236,0.0695602,0.175237,0
2024-12-11 14:43:47.242,0.208176,3.35175,8.3674,0.141182,0.058565,0.163631,0
2024-12-11 14:43:47.245,0.200997,3.38525,8.30997,0.138739,0.0481806,0.151414,0
2024-12-11 14:43:47.247,0.191426,3.42832,8.24058,0.133852,0.0371853,0.139197,0
2024-12-11 14:43:47.250,0.174676,3.4666,8.17598,0.11797,0.0164165,0.111098,0
2024-12-11 14:43:47.253,0.167498,3.48335,8.12782,0.11797,0.0164165,0.111098,0
2024-12-11 14:43:47.254,0.16989,3.48574,8.08475,0.110029,0.00664296,0.0988809,0
2024-12-11 14:43:47.257,0.153141,3.48574,8.03929,0.0984228,-0.00435229,0.0872748,0
2024-12-11 14:43:47.259,0.122034,3.49053,8.00818,0.085595,-0.0177909,0.074447,0
2024-12-11 14:43:47.262,0.0837488,3.49292,7.99621,0.0721563,-0.0263428,0.0603975,0
2024-12-11 14:43:47.263,0.0287139,3.49771,7.98904,0.0556635,-0.041614,0.050624,0
2024-12-11 14:43:47.267,-0.0502493,3.5001,8.00579,0.0226777,-0.0709346,0.0310769,0
2024-12-11 14:43:47.268,-0.131605,3.51446,8.02493,0.0226777,-0.0709346,0.0310769,0
2024-12-11 14:43:47.271,-0.200997,3.52642,8.04646,0.00740652,-0.0862058,0.0249684,0
2024-12-11 14:43:47.274,-0.263211,3.52882,8.08475,-0.0268009,-0.119192,0.0158057,0
2024-12-11 14:43:47.276,-0.320937,3.52164,8.10868,-0.0268009,-0.119192,0.0158057,0
2024-12-11 14:43:47.279,-0.352044,3.51207,8.14965,-0.0603975,-0.148512,0.0096972,0
2024-12-11 14:43:47.280,-0.366401,3.50489,8.20708,-0.0603975,-0.148512,0.0096972,0
2024-12-11 14:43:47.282,-0.368794,3.48335,8.27408,-0.0793338,-0.165005,0.00664296,0
2024-12-11 14:43:47.286,-0.375972,3.46421,8.37219,-0.0964375,-0.181498,0.00236703,0
2024-12-11 14:43:47.288,-0.366401,3.44267,8.48704,-0.123315,-0.212651,-0.00740652,0
2024-12-11 14:43:47.289,-0.344866,3.42832,8.60908,-0.11293,-0.199213,-0.00129805,0
2024-12-11 14:43:47.293,-0.328116,3.41635,8.74816,-0.146527,-0.24075,-0.0147367,0
2024-12-11 14:43:47.294,-0.292223,3.3996,8.89651,-0.146527,-0.24075,-0.0147367,0
2024-12-11 14:43:47.296,-0.256032,3.38046,9.02333,-0.146527,-0.24075,-0.0147367,0
2024-12-11 14:43:47.300,-0.222533,3.36132,9.14776,-0.161187,-0.258465,-0.0232886,0
2024-12-11 14:43:47.301,-0.200997,3.35892,9.24826,-0.16302,-0.268238,-0.0269536,0
2024-12-11 14:43:47.303,-0.191426,3.34218,9.32034,-0.167907,-0.273736,-0.029397,0
2024-12-11 14:43:47.306,-0.160319,3.30628,9.39213,-0.171572,-0.281066,-0.0324513,0
2024-12-11 14:43:47.308,-0.119641,3.29671,9.47588,-0.177069,-0.287785,-0.0379489,0
2024-12-11 14:43:47.312,-0.0741775,3.2991,9.55963,-0.179513,-0.297559,-0.0428357,0
2024-12-11 14:43:47.314,-0.0311067,3.2991,9.63141,-0.182567,-0.313441,-0.0538309,0
2024-12-11 14:43:47.316,0.00957129,3.28714,9.71277,-0.183789,-0.319549,-0.0593285,0
2024-12-11 14:43:47.319,0.0502493,3.28953,9.81087,-0.183789,-0.325658,-0.0629936,0
2024-12-11 14:43:47.320,0.0789631,3.28714,9.91167,-0.183789,-0.325658,-0.0629936,0
2024-12-11 14:43:47.322,0.11007,3.24885,10.0122,-0.183789,-0.332377,-0.0715455,0
2024-12-11 14:43:47.325,0.153141,3.23211,10.127,-0.180734,-0.332377,-0.077654,0
2024-12-11 14:43:47.328,0.177069,3.21775,10.2419,-0.166685,-0.326269,-0.0959794,0
2024-12-11 14:43:47.330,0.196211,3.20818,10.34,-0.166685,-0.326269,-0.0959794,0
2024-12-11 14:43:47.332,0.239282,3.19861,10.424,-0.158133,-0.32016,-0.102699,0
2024-12-11 14:43:47.335,0.272782,3.17468,10.491,-0.136143,-0.296948,-0.114916,0
2024-12-11 14:43:47.337,0.294616,3.15553,10.5389,-0.136143,-0.296948,-0.114916,0
2024-12-11 14:43:47.340,0.318545,3.14836,10.5748,-0.118428,-0.270071,-0.127133,0
2024-12-11 14:43:47.342,0.330509,3.12921,10.5844,-0.118428,-0.270071,-0.127133,0
2024-12-11 14:43:47.343,0.332901,3.1005,10.5772,-0.118428,-0.270071,-0.127133,0
2024-12-11 14:43:47.346,0.34008,3.08854,10.5724,-0.0964375,-0.231587,-0.13935,0
2024-12-11 14:43:47.348,0.335294,3.07627,10.5748,-0.0909399,-0.209597,-0.144236,0
2024-12-11 14:43:47.352,0.320937,3.06909,10.5676,-0.0762796,-0.162562,-0.152788,0
2024-12-11 14:43:47.353,0.292223,3.05234,10.5365,-0.0762796,-0.162562,-0.152788,0
2024-12-11 14:43:47.355,0.241675,3.04038,10.491,-0.0695602,-0.134463,-0.152788,0
2024-12-11 14:43:47.359,0.18664,3.04038,10.4432,-0.0597867,-0.0739889,-0.151566,0
2024-12-11 14:43:47.361,0.133998,3.03081,10.3783,-0.0573433,-0.0428357,-0.14668,0
2024-12-11 14:43:47.362,0.0861416,3.01167,10.3089,-0.0573433,-0.0428357,-0.14668,0
2024-12-11 14:43:47.365,0.0334995,2.98774,10.2227,-0.0536782,-0.0153475,-0.142404,0
2024-12-11 14:43:47.367,-0.0167498,2.97099,10.1175,-0.0555107,0.0176382,-0.135684,0
2024-12-11 14:43:47.369,-0.0550349,2.95185,10.0313,-0.0561216,0.0469589,-0.127743,0
2024-12-11 14:43:47.373,-0.0837488,2.9327,9.95953,-0.0616192,0.100103,-0.107585,0
2024-12-11 14:43:47.375,-0.129212,2.91595,9.88056,-0.0616192,0.100103,-0.107585,0
2024-12-11 14:43:47.376,-0.172283,2.89681,9.82792,-0.0616192,0.100103,-0.107585,0
2024-12-11 14:43:47.380,-0.200997,2.89442,9.7678,-0.0726145,0.164852,-0.0752106,0
2024-12-11 14:43:47.384,-0.232104,2.90399,9.6697,-0.0726145,0.164852,-0.0752106,0
2024-12-11 14:43:47.384,-0.232104,2.90399,9.6697,-0.0726145,0.164852,-0.0752106,0
2024-12-11 14:43:47.386,-0.246461,2.8992,9.64816,-0.0756687,0.196006,-0.0519984,0
2024-12-11 14:43:47.388,-0.256032,2.90878,9.61945,-0.074447,0.207001,-0.0391706,0
2024-12-11 14:43:47.391,-0.263211,2.92552,9.58355,-0.0787229,0.214331,-0.0287862,0
2024-12-11 14:43:47.393,-0.263211,2.92792,9.5692,-0.0775012,0.22044,-0.0208452,0
2024-12-11 14:43:47.395,-0.246461,2.92313,9.55245,-0.074447,0.22105,-0.013515,0
2024-12-11 14:43:47.398,-0.224925,2.92313,9.52613,-0.0732253,0.224105,-0.00801737,0
2024-12-11 14:43:47.401,-0.210568,2.92313,9.49023,-0.0658951,0.215553,0.00542127,0
2024-12-11 14:43:47.403,-0.184247,2.91117,9.46152,-0.0658951,0.215553,0.00542127,0
2024-12-11 14:43:47.406,-0.172283,2.91835,9.44477,-0.0622301,0.210666,0.00664296,0
2024-12-11 14:43:47.407,-0.162712,2.94227,9.4352,-0.0573433,0.203947,0.0115297,0
2024-12-11 14:43:47.409,-0.141177,2.92792,9.4017,-0.0494023,0.197838,0.014584,0
2024-12-11 14:43:47.413,-0.122034,2.93031,9.35624,-0.0371853,0.17768,0.0164165,0
2024-12-11 14:43:47.414,-0.119641,2.96142,9.31077,-0.0371853,0.17768,0.0164165,0
2024-12-11 14:43:47.416,-0.119641,2.95902,9.24347,-0.0347419,0.163631,0.0164165,0
2024-12-11 14:43:47.419,-0.0981057,2.94227,9.17408,-0.030466,0.147749,0.014584,0
2024-12-11 14:43:47.421,-0.0885344,2.93749,9.11905,-0.0310769,0.129423,0.014584,0
2024-12-11 14:43:47.425,-0.066999,2.93031,9.05444,-0.0347419,0.0878856,0.0109189,0
2024-12-11 14:43:47.426,-0.0358923,2.92552,8.98026,-0.0347419,0.0878856,0.0109189,0
2024-12-11 14:43:47.428,-0.0287139,2.9351,8.93241,-0.0377962,0.0671168,0.00908635,0
2024-12-11 14:43:47.432,-0.0119641,2.93988,8.92044,-0.0469589,0.0231358,-0.0019089,0
2024-12-11 14:43:47.434,0.0119641,2.94467,8.9013,-0.050624,0.00114534,-0.00435229,0
2024-12-11 14:43:47.435,0.026321,2.94706,8.88455,-0.050624,0.00114534,-0.00435229,0
2024-12-11 14:43:47.438,0.0550349,2.95663,8.89173,-0.0567324,-0.0202343,-0.00923906,0
2024-12-11 14:43:47.441,0.0933201,2.95902,8.90369,-0.0689494,-0.0562743,-0.0184018,0
2024-12-11 14:43:47.442,0.12682,2.95185,8.89412,-0.0689494,-0.0562743,-0.0184018,0
2024-12-11 14:43:47.445,0.143569,2.95902,8.89651,-0.0781121,-0.073378,-0.0226777,0
2024-12-11 14:43:47.447,0.174676,2.96381,8.9348,-0.0848314,-0.0868167,-0.0275645,0
2024-12-11 14:43:47.449,0.210568,2.96142,8.96591,-0.0927724,-0.100866,-0.0324513,0
2024-12-11 14:43:47.453,0.22014,2.95902,8.99941,-0.107433,-0.121635,-0.0446682,0
2024-12-11 14:43:47.454,0.234497,2.94945,9.04248,-0.107433,-0.121635,-0.0446682,0
2024-12-11 14:43:47.457,0.251246,2.95185,9.08076,-0.114763,-0.127133,-0.049555,0
2024-12-11 14:43:47.459,0.241675,2.94467,9.13101,-0.123926,-0.133241,-0.0532201,0
2024-12-11 14:43:47.462,0.22014,2.92552,9.17169,-0.141029,-0.13996,-0.0599394,0
2024-12-11 14:43:47.465,0.210568,2.93031,9.2004,-0.14897,-0.140571,-0.0599394,0
2024-12-11 14:43:47.466,0.205783,2.9351,9.21237,-0.14897,-0.140571,-0.0599394,0
2024-12-11 14:43:47.468,0.208176,2.91595,9.24108,-0.14897,-0.140571,-0.0599394,0
2024-12-11 14:43:47.472,0.212961,2.89681,9.28684,-0.175848,-0.144847,-0.0599394,0
2024-12-11 14:43:47.474,0.212961,2.89203,9.32513,-0.18501,-0.146069,-0.0593285,0
2024-12-11 14:43:47.475,0.227318,2.88245,9.38016,-0.18501,-0.146069,-0.0593285,0
2024-12-11 14:43:47.479,0.253639,2.87288,9.44238,-0.202114,-0.148512,-0.0562743,0
2024-12-11 14:43:47.480,0.265603,2.87528,9.49981,-0.202114,-0.148512,-0.0562743,0
2024-12-11 14:43:47.482,0.270389,2.8681,9.57638,-0.209444,-0.149123,-0.0556635,0
2024-12-11 14:43:47.485,0.260818,2.86331,9.66252,-0.214942,-0.149123,-0.0526092,0
2024-12-11 14:43:47.487,0.246461,2.89442,9.75344,-0.214331,-0.149123,-0.0526092,0
2024-12-11 14:43:47.489,0.258425,2.92552,9.85903,-0.214942,-0.144847,-0.0489441,0
2024-12-11 14:43:47.492,0.260818,2.9351,9.95474,-0.211888,-0.142404,-0.0465007,0
2024-12-11 14:43:47.495,0.260818,2.95663,10.0146,-0.203947,-0.132019,-0.0410031,0
2024-12-11 14:43:47.497,0.256032,2.98056,10.0672,-0.203947,-0.132019,-0.0410031,0
2024-12-11 14:43:47.501,0.234497,3.01645,10.1701,-0.191119,-0.120413,-0.033673,0
2024-12-11 14:43:47.502,0.234497,3.01645,10.1701,-0.1844,-0.113083,-0.0318404,0
2024-12-11 14:43:47.505,0.241675,3.01645,10.1988,-0.1844,-0.113083,-0.0318404,0
2024-12-11 14:43:47.506,0.244068,3.0332,10.2108,-0.175848,-0.105753,-0.0287862,0
2024-12-11 14:43:47.509,0.239282,3.04995,10.2203,-0.158744,-0.100255,-0.0232886,0
2024-12-11 14:43:47.511,0.22014,3.06192,10.2443,-0.158744,-0.100255,-0.0232886,0
2024-12-11 14:43:47.513,0.215354,3.06909,10.2706,-0.149581,-0.0959794,-0.0190126,0
2024-12-11 14:43:47.516,0.229711,3.08584,10.3089,-0.137975,-0.0929251,-0.0165692,0
2024-12-11 14:43:47.519,0.224925,3.1005,10.3567,-0.128202,-0.0874275,-0.013515,0
2024-12-11 14:43:47.520,0.210568,3.12204,10.3759,-0.120261,-0.085595,-0.00984991,0
2024-12-11 14:43:47.523,0.224925,3.16511,10.3929,-0.108044,-0.0800973,-0.00679568,0
2024-12-11 14:43:47.525,0.234497,3.19143,10.4049,-0.0976592,-0.0703238,-0.00374144,0
2024-12-11 14:43:47.530,0.253639,3.22493,10.3881,-0.0756687,-0.0550526,0.00175619,0
2024-12-11 14:43:47.530,0.253639,3.22493,10.3881,-0.0756687,-0.0550526,0.00175619,0
2024-12-11 14:43:47.533,0.260818,3.23928,10.3783,-0.0555107,-0.037338,0.00297788,0
2024-12-11 14:43:47.534,0.241675,3.268,10.3567,-0.0555107,-0.037338,0.00297788,0
2024-12-11 14:43:47.537,0.222533,3.29193,10.3208,-0.0439046,-0.0281753,0.00297788,0
2024-12-11 14:43:47.540,0.212961,3.31346,10.273,-0.0280226,-0.0141258,0.00297788,0
2024-12-11 14:43:47.542,0.22014,3.34218,10.2299,-0.0188599,-0.00618483,0.00236703,0
2024-12-11 14:43:47.545,0.22014,3.3661,10.1845,-0.0151948,-0.00251974,0.00175619,0
2024-12-11 14:43:47.548,0.215354,3.39482,10.0696,-0.010308,0.00481042,0.00175619,0
2024-12-11 14:43:47.548,0.215354,3.39482,10.0696,-0.010308,0.00481042,0.00175619,0
2024-12-11 14:43:47.554,0.205783,3.39721,9.96431,0.00313059,0.0170274,-0.00435229,0
2024-12-11 14:43:47.555,0.208176,3.39003,9.94038,0.00313059,0.0170274,-0.00435229,0
2024-12-11 14:43:47.556,0.205783,3.39721,9.96431,0.00313059,0.0170274,-0.00435229,0
2024-12-11 14:43:47.558,0.205783,3.39721,9.90688,0.00740652,0.0182491,-0.00679568,0
2024-12-11 14:43:47.560,0.18664,3.402,9.86381,0.0104608,0.0206925,-0.0104608,0
2024-12-11 14:43:47.562,0.162712,3.40917,9.81566,0.013515,0.0249684,-0.0129041,0
2024-12-11 14:43:47.565,0.145962,3.42592,9.75344,0.0147367,0.0249684,-0.0147367,0
2024-12-11 14:43:47.567,0.129212,3.42353,9.70798,0.0165692,0.0298552,-0.0177909,0
2024-12-11 14:43:47.570,0.107677,3.41396,9.66491,0.0177909,0.0310769,-0.0184018,0
2024-12-11 14:43:47.572,0.0885344,3.41875,9.60987,0.0184018,0.0292443,-0.0232886,0
2024-12-11 14:43:47.574,0.0885344,3.41396,9.54766,0.0171801,0.0298552,-0.0251211,0
2024-12-11 14:43:47.580,0.081356,3.39003,9.43759,0.0110716,0.0292443,-0.033673,0
2024-12-11 14:43:47.580,0.081356,3.39003,9.43759,0.0110716,0.0292443,-0.033673,0
2024-12-11 14:43:47.581,0.0909273,3.37807,9.39452,0.0110716,0.0292443,-0.033673,0
2024-12-11 14:43:47.584,0.102891,3.3661,9.31795,0.00374144,0.0268009,-0.0355055,0
2024-12-11 14:43:47.586,0.102891,3.34218,9.24347,-0.00358873,0.0243575,-0.0422248,0
2024-12-11 14:43:47.588,0.11007,3.32543,9.2028,-0.00908635,0.0200816,-0.0471116,0
2024-12-11 14:43:47.592,0.112463,3.29671,9.1669,-0.0286335,0.0115297,-0.0544418,0
2024-12-11 14:43:47.593,0.107677,3.26082,9.13819,-0.0286335,0.0115297,-0.0544418,0
2024-12-11 14:43:47.598,0.122034,3.22732,9.1334,-0.0457372,-7.63559e-05,-0.0678804,0
2024-12-11 14:43:47.600,0.12682,3.19382,9.14776,-0.0536782,-0.00496313,-0.0739889,0
2024-12-11 14:43:47.600,0.12682,3.19382,9.14776,-0.0536782,-0.00496313,-0.0739889,0
2024-12-11 14:43:47.602,0.114855,3.12682,9.16451,-0.0591758,-0.0129041,-0.0782648,0
2024-12-11 14:43:47.605,0.105284,3.09332,9.21955,-0.0695602,-0.0220669,-0.081319,0
2024-12-11 14:43:47.607,0.0789631,3.07867,9.29402,-0.0732253,-0.0287862,-0.0849841,0
2024-12-11 14:43:47.610,0.040678,3.04995,9.36341,-0.0781121,-0.0348946,-0.0880384,0
2024-12-11 14:43:47.614,0.0191426,2.9686,9.5022,-0.0799446,-0.0434465,-0.0923143,0
2024-12-11 14:43:47.615,0.0191426,2.9686,9.5022,-0.0738362,-0.0465007,-0.093536,0
2024-12-11 14:43:47.618,0.0143569,2.93749,9.57159,-0.0738362,-0.0465007,-0.093536,0
2024-12-11 14:43:47.619,-0.00478565,2.8992,9.61705,-0.0707819,-0.0489441,-0.0923143,0
2024-12-11 14:43:47.621,-0.0287139,2.86092,9.66491,-0.0707819,-0.0489441,-0.0923143,0
2024-12-11 14:43:47.624,-0.040678,2.82263,9.71516,-0.0616192,-0.0513875,-0.0892601,0
2024-12-11 14:43:47.627,-0.040678,2.78435,9.74148,-0.0555107,-0.0519984,-0.0874275,0
2024-12-11 14:43:47.628,-0.0454636,2.75324,9.75823,-0.0475697,-0.0507767,-0.0843733,0
2024-12-11 14:43:47.632,-0.0646062,2.73171,9.76302,-0.0377962,-0.0483333,-0.0752106,0
2024-12-11 14:43:47.633,-0.0957129,2.69821,9.76302,-0.0377962,-0.0483333,-0.0752106,0
2024-12-11 14:43:47.635,-0.119641,2.68864,9.75344,-0.030466,-0.0458899,-0.0703238,0
2024-12-11 14:43:47.638,-0.131605,2.69103,9.73669,-0.022525,-0.0465007,-0.0660479,0
2024-12-11 14:43:47.640,-0.155533,2.67906,9.72234,-0.0182491,-0.0446682,-0.0599394,0
2024-12-11 14:43:47.644,-0.177069,2.6671,9.69362,-0.0127514,-0.0397814,-0.0452791,0
2024-12-11 14:43:47.646,-0.16989,2.66949,9.6673,-0.0096972,-0.0379489,-0.0403923,0
2024-12-11 14:43:47.647,-0.174676,2.68864,9.62902,-0.0096972,-0.0379489,-0.0403923,0
2024-12-11 14:43:47.652,-0.162712,2.71974,9.52613,-0.0109189,-0.0355055,-0.0287862,0
2024-12-11 14:43:47.652,-0.162712,2.71974,9.52613,-0.0109189,-0.0355055,-0.0287862,0
2024-12-11 14:43:47.654,-0.148355,2.74367,9.48066,-0.0133623,-0.0318404,-0.0220669,0
2024-12-11 14:43:47.658,-0.114855,2.76521,9.45434,-0.0200816,-0.0251211,-0.0141258,0
2024-12-11 14:43:47.659,-0.0765703,2.77478,9.42802,-0.0200816,-0.0251211,-0.0141258,0
2024-12-11 14:43:47.662,-0.0358923,2.77238,9.39213,-0.0316877,-0.021456,-0.0116825,0
2024-12-11 14:43:47.665,-0.00478565,2.79153,9.37059,-0.0365745,-0.0171801,-0.0110716,0
2024-12-11 14:43:47.666,0.0167498,2.82503,9.34906,-0.0439046,-0.0129041,-0.00862822,0
2024-12-11 14:43:47.669,0.0430708,2.85374,9.33949,-0.0512348,-0.00740652,-0.00862822,0
2024-12-11 14:43:47.671,0.0693919,2.87288,9.36102,-0.058565,-0.00435229,-0.0104608,0
2024-12-11 14:43:47.673,0.0861416,2.89442,9.36581,-0.0677277,-0.00435229,-0.0122933,0
2024-12-11 14:43:47.675,0.100499,2.91835,9.38495,-0.0750579,-0.00129805,-0.0141258,0
2024-12-11 14:43:47.678,0.117248,2.9351,9.42323,-0.0817772,-0.00374144,-0.0171801,0
2024-12-11 14:43:47.681,0.145962,2.9351,9.45195,-0.0994917,-0.00618483,-0.0251211,0
2024-12-11 14:43:47.685,0.136391,2.97817,9.53809,-0.103768,-0.00801737,-0.0275645,0
2024-12-11 14:43:47.685,0.136391,2.97817,9.53809,-0.103768,-0.00801737,-0.0275645,0
2024-12-11 14:43:47.687,0.124427,2.99731,9.59073,-0.109265,-0.00801737,-0.0324513,0
2024-12-11 14:43:47.690,0.112463,3.02124,9.62423,-0.109876,-0.0116825,-0.0361163,0
2024-12-11 14:43:47.692,0.0981057,3.04038,9.65773,-0.11293,-0.0147367,-0.0391706,0
2024-12-11 14:43:47.694,0.081356,3.05234,9.69602,-0.11232,-0.0147367,-0.0422248,0
2024-12-11 14:43:47.698,0.066999,3.04995,9.71277,-0.108654,-0.0177909,-0.0465007,0
2024-12-11 14:43:47.699,0.0693919,3.07149,9.71755,-0.108654,-0.0177909,-0.0465007,0
2024-12-11 14:43:47.701,0.0550349,3.08854,9.72473,-0.107433,-0.0177909,-0.0471116,0
2024-12-11 14:43:47.704,0.0334995,3.08345,9.72952,-0.106211,-0.0190126,-0.0489441,0
2024-12-11 14:43:47.706,0.00957129,3.08345,9.72952,-0.104379,-0.0196235,-0.0501658,0
2024-12-11 14:43:47.709,-0.0119641,3.08854,9.70798,-0.101935,-0.0202343,-0.0489441,0
2024-12-11 14:43:47.711,-0.0191426,3.10768,9.68645,-0.101935,-0.0208452,-0.0483333,0
2024-12-11 14:43:47.713,-0.0239282,3.11007,9.67209,-0.101324,-0.0196235,-0.0477224,0
2024-12-11 14:43:47.717,-0.026321,3.11007,9.6697,-0.101935,-0.0232886,-0.0452791,0
2024-12-11 14:43:47.719,-0.026321,3.12204,9.6697,-0.103157,-0.0238994,-0.0458899,0
2024-12-11 14:43:47.721,-0.00957129,3.12204,9.67209,-0.106211,-0.0257319,-0.0483333,0
2024-12-11 14:43:47.724,0.00717847,3.12682,9.69602,-0.106211,-0.0269536,-0.0452791,0
2024-12-11 14:43:47.725,0.0143569,3.12443,9.72712,-0.106211,-0.0269536,-0.0452791,0
2024-12-11 14:43:47.728,0.00478565,3.11007,9.77498,-0.107433,-0.0263428,-0.0452791,0
2024-12-11 14:43:47.731,-0.00478565,3.10289,9.8351,-0.108654,-0.0263428,-0.0477224,0
2024-12-11 14:43:47.732,-0.00478565,3.1005,9.88535,-0.108654,-0.0257319,-0.0458899,0
2024-12-11 14:43:47.734,-0.0119641,3.09571,9.94517,-0.102546,-0.0208452,-0.0440574,0
2024-12-11 14:43:47.737,-0.00717847,3.08584,10.0002,-0.0994917,-0.0165692,-0.0440574,0
2024-12-11 14:43:47.739,0.0,3.07149,10.0409,-0.0952158,-0.0159584,-0.0428357,0
2024-12-11 14:43:47.742,0.00717847,3.05474,10.0672,-0.090329,-0.0122933,-0.0403923,0
2024-12-11 14:43:47.744,0.0311067,3.04756,10.0983,-0.082388,-0.0122933,-0.0397814,0
2024-12-11 14:43:47.746,0.040678,3.04756,10.139,-0.0762796,-0.0104608,-0.0391706,0
2024-12-11 14:43:47.748,0.040678,3.04995,10.1581,-0.0701711,-0.00862822,-0.0361163,0
2024-12-11 14:43:47.751,0.0478565,3.04277,10.1677,-0.0652843,-0.00374144,-0.0342838,0
2024-12-11 14:43:47.756,0.0334995,3.04756,10.1749,-0.050624,0.00358873,-0.0312296,0
2024-12-11 14:43:47.757,0.0334995,3.04756,10.1749,-0.0432938,0.00725381,-0.0287862,0
2024-12-11 14:43:47.759,0.040678,3.05474,10.1677,-0.0432938,0.00725381,-0.0287862,0
2024-12-11 14:43:47.761,0.0382852,3.04756,10.151,-0.0371853,0.0115297,-0.0287862,0
2024-12-11 14:43:47.764,0.0334995,3.05234,10.1318,-0.0298552,0.0164165,-0.0232886,0
2024-12-11 14:43:47.765,0.0287139,3.05474,10.1055,-0.0298552,0.0164165,-0.0232886,0
2024-12-11 14:43:47.768,-0.00239282,3.05952,10.0648,-0.0249684,0.0200816,-0.0232886,0
2024-12-11 14:43:47.770,-0.0167498,3.06909,10.0313,-0.0206925,0.022525,-0.0220669,0
2024-12-11 14:43:47.772,-0.0191426,3.07149,10.0122,-0.0170274,0.0243575,-0.0202343,0
