timestamp,accel_x,accel_y,accel_z,gyro_x,gyro_y,gyro_z,step_timestamp
2024-12-11 14:33:47.598,0.696611,2.84895,9.34666,-0.0860531,-0.0874275,-0.0611611,0
2024-12-11 14:33:47.598,0.696611,2.84895,9.34666,-0.0860531,-0.0874275,-0.0611611,0
2024-12-11 14:33:47.598,0.696611,2.84895,9.34666,-0.0860531,-0.0874275,-0.0611611,0
2024-12-11 14:33:47.598,0.696611,2.84895,9.34666,-0.0860531,-0.0874275,-0.0611611,0
2024-12-11 14:33:47.598,0.696611,2.84895,9.34666,-0.0860531,-0.0874275,-0.0611611,0
2024-12-11 14:33:47.599,0.696611,2.84895,9.34666,-0.0860531,-0.0874275,-0.0611611,0
2024-12-11 14:33:47.603,0.624826,2.85853,9.42563,-0.101324,-0.0739889,-0.0617719,0
2024-12-11 14:33:47.605,0.586541,2.84656,9.46152,-0.110487,-0.0697129,-0.0611611,0
2024-12-11 14:33:47.605,0.586541,2.84656,9.46152,-0.110487,-0.0697129,-0.0611611,0
2024-12-11 14:33:47.605,0.586541,2.84656,9.46152,-0.110487,-0.0697129,-0.0611611,0
2024-12-11 14:33:47.605,0.586541,2.84656,9.46152,-0.110487,-0.0697129,-0.0611611,0
2024-12-11 14:33:47.605,0.586541,2.84656,9.46152,-0.110487,-0.0697129,-0.0611611,0
2024-12-11 14:33:47.605,0.586541,2.84656,9.46152,-0.110487,-0.0697129,-0.0611611,0
2024-12-11 14:33:47.610,0.545863,2.82742,9.58595,-0.123315,-0.0587177,-0.057496,0
2024-12-11 14:33:47.610,0.545863,2.82742,9.58595,-0.123315,-0.0587177,-0.057496,0
2024-12-11 14:33:47.610,0.545863,2.82742,9.58595,-0.123315,-0.0587177,-0.057496,0
2024-12-11 14:33:47.611,0.545863,2.82742,9.58595,-0.126369,-0.0526092,-0.0538309,0
2024-12-11 14:33:47.612,0.524327,2.81306,9.63859,-0.126369,-0.0526092,-0.0538309,0
2024-12-11 14:33:47.612,0.524327,2.81306,9.63859,-0.126369,-0.0526092,-0.0538309,0
2024-12-11 14:33:47.612,0.524327,2.81306,9.63859,-0.126369,-0.0526092,-0.0538309,0
2024-12-11 14:33:47.612,0.524327,2.81306,9.63859,-0.126369,-0.0526092,-0.0538309,0
2024-12-11 14:33:47.612,0.524327,2.81306,9.63859,-0.126369,-0.0526092,-0.0538309,0
2024-12-11 14:33:47.612,0.524327,2.81306,9.63859,-0.126369,-0.0526092,-0.0538309,0
2024-12-11 14:33:47.613,0.524327,2.81306,9.63859,-0.128812,-0.0458899,-0.0507767,0
2024-12-11 14:33:47.613,0.524327,2.81306,9.63859,-0.128812,-0.0458899,-0.0507767,0
2024-12-11 14:33:47.613,0.524327,2.81306,9.63859,-0.128812,-0.0458899,-0.0507767,0
2024-12-11 14:33:47.613,0.524327,2.81306,9.63859,-0.128812,-0.0458899,-0.0507767,0
2024-12-11 14:33:47.615,0.524327,2.79392,9.71037,-0.128812,-0.0458899,-0.0507767,0
2024-12-11 14:33:47.619,0.442971,2.75803,9.83749,-0.127591,-0.0367272,-0.0422248,0
2024-12-11 14:33:47.619,0.442971,2.75803,9.83749,-0.127591,-0.0367272,-0.0422248,0
2024-12-11 14:33:47.620,0.442971,2.75803,9.83749,-0.12698,-0.0312296,-0.0348946,0
2024-12-11 14:33:47.622,0.409472,2.75085,9.89492,-0.12698,-0.0312296,-0.0348946,0
2024-12-11 14:33:47.623,0.409472,2.75085,9.89492,-0.120871,-0.0263428,-0.0281753,0
2024-12-11 14:33:47.624,0.404686,2.74606,9.94995,-0.120871,-0.0263428,-0.0281753,0
2024-12-11 14:33:47.624,0.404686,2.74606,9.94995,-0.120871,-0.0263428,-0.0281753,0
2024-12-11 14:33:47.625,0.404686,2.74606,9.94995,-0.115985,-0.0208452,-0.0232886,0
2024-12-11 14:33:47.626,0.402293,2.73649,9.99542,-0.115985,-0.0208452,-0.0232886,0
2024-12-11 14:33:47.626,0.402293,2.73649,9.99542,-0.115985,-0.0208452,-0.0232886,0
2024-12-11 14:33:47.626,0.402293,2.73649,9.99542,-0.115985,-0.0208452,-0.0232886,0
2024-12-11 14:33:47.629,0.387936,2.71735,10.0241,-0.107433,-0.0171801,-0.0177909,0
2024-12-11 14:33:47.630,0.387936,2.71735,10.0241,-0.101324,-0.0159584,-0.00740652,0
2024-12-11 14:33:47.630,0.387936,2.71735,10.0241,-0.101324,-0.0159584,-0.00740652,0
2024-12-11 14:33:47.631,0.383151,2.71496,10.0481,-0.101324,-0.0159584,-0.00740652,0
2024-12-11 14:33:47.632,0.383151,2.71496,10.0481,-0.0891073,-0.0116825,-0.0019089,0
2024-12-11 14:33:47.632,0.383151,2.71496,10.0481,-0.0891073,-0.0116825,-0.0019089,0
2024-12-11 14:33:47.633,0.385544,2.71735,10.0696,-0.0891073,-0.0116825,-0.0019089,0
2024-12-11 14:33:47.634,0.385544,2.71735,10.0696,-0.0891073,-0.0116825,-0.0019089,0
2024-12-11 14:33:47.634,0.385544,2.71735,10.0696,-0.0891073,-0.0116825,-0.0019089,0
2024-12-11 14:33:47.636,0.385544,2.71017,10.072,-0.0793338,-0.0116825,0.00297788,0
2024-12-11 14:33:47.636,0.380758,2.71017,10.072,-0.0793338,-0.0116825,0.00297788,0
2024-12-11 14:33:47.637,0.380758,2.71017,10.072,-0.0720036,-0.0159584,0.0096972,0
2024-12-11 14:33:47.638,0.380758,2.71974,10.0648,-0.0720036,-0.0159584,0.0096972,0
2024-12-11 14:33:47.638,0.380758,2.71974,10.0648,-0.0720036,-0.0159584,0.0096972,0
2024-12-11 14:33:47.639,0.380758,2.71974,10.0648,-0.0634518,-0.0184018,0.0139731,0
2024-12-11 14:33:47.639,0.380758,2.71974,10.0648,-0.0634518,-0.0184018,0.0139731,0
2024-12-11 14:33:47.640,0.380758,2.73888,10.0696,-0.0634518,-0.0184018,0.0139731,0
2024-12-11 14:33:47.640,0.380758,2.73888,10.0696,-0.0634518,-0.0184018,0.0139731,0
2024-12-11 14:33:47.640,0.380758,2.73888,10.0696,-0.0634518,-0.0184018,0.0139731,0
2024-12-11 14:33:47.640,0.380758,2.73888,10.0696,-0.0634518,-0.0184018,0.0139731,0
2024-12-11 14:33:47.641,0.380758,2.73888,10.0696,-0.0634518,-0.0184018,0.0139731,0
2024-12-11 14:33:47.643,0.390329,2.74367,10.0576,-0.0548999,-0.021456,0.0170274,0
2024-12-11 14:33:47.643,0.390329,2.74367,10.0576,-0.0548999,-0.021456,0.0170274,0
2024-12-11 14:33:47.643,0.390329,2.74367,10.0576,-0.0548999,-0.021456,0.0170274,0
2024-12-11 14:33:47.645,0.407079,2.74128,10.0337,-0.0432938,-0.0220669,0.0213033,0
2024-12-11 14:33:47.645,0.407079,2.74128,10.0337,-0.0432938,-0.0220669,0.0213033,0
2024-12-11 14:33:47.646,0.407079,2.74128,10.0337,-0.0365745,-0.0275645,0.0268009,0
2024-12-11 14:33:47.646,0.407079,2.74128,10.0337,-0.0365745,-0.0275645,0.0268009,0
2024-12-11 14:33:47.648,0.423829,2.74606,10.017,-0.0365745,-0.0275645,0.0268009,0
2024-12-11 14:33:47.648,0.423829,2.74606,10.017,-0.0365745,-0.0275645,0.0268009,0
2024-12-11 14:33:47.648,0.423829,2.74606,10.017,-0.0365745,-0.0275645,0.0268009,0
2024-12-11 14:33:47.650,0.445364,2.75324,10.0002,-0.0292443,-0.0287862,0.0274118,0
2024-12-11 14:33:47.651,0.445364,2.75324,10.0002,-0.0200816,-0.0324513,0.0280226,0
2024-12-11 14:33:47.651,0.445364,2.75324,10.0002,-0.0200816,-0.0324513,0.0280226,0
2024-12-11 14:33:47.652,0.474078,2.7676,9.98345,-0.0200816,-0.0324513,0.0280226,0
2024-12-11 14:33:47.655,0.505185,2.78435,9.95235,-0.0115297,-0.033673,0.0292443,0
2024-12-11 14:33:47.657,0.531506,2.77956,9.91406,-0.00603212,-0.0348946,0.0292443,0
2024-12-11 14:33:47.659,0.553041,2.80588,9.87817,-0.00175619,-0.0361163,0.0280226,0
2024-12-11 14:33:47.662,0.574577,2.8322,9.83271,0.00557398,-0.0348946,0.0274118,0
2024-12-11 14:33:47.665,0.598505,2.84417,9.78694,0.0104608,-0.0342838,0.0243575,0
2024-12-11 14:33:47.666,0.60329,2.86331,9.73669,0.0104608,-0.0324513,0.0200816,0
2024-12-11 14:33:47.669,0.596112,2.8681,9.6673,0.0122933,-0.0330621,0.0164165,0
2024-12-11 14:33:47.671,0.584148,2.87288,9.59791,0.0122933,-0.0324513,0.0151948,0
2024-12-11 14:33:47.673,0.565005,2.88245,9.54288,0.00984991,-0.033673,0.0121406,0
2024-12-11 14:33:47.676,0.538684,2.89681,9.51177,0.00740652,-0.033673,0.00847551,0
2024-12-11 14:33:47.678,0.505185,2.90399,9.48306,0.00496313,-0.0355055,0.00419957,0
2024-12-11 14:33:47.682,0.478864,2.8992,9.43281,0.00129805,-0.0348946,0.00358873,0
2024-12-11 14:33:47.683,0.45015,2.8992,9.4017,-0.00297788,-0.0342838,0.00236703,0
2024-12-11 14:33:47.685,0.421436,2.89442,9.38734,-0.00786466,-0.0330621,0.00481042,0
2024-12-11 14:33:47.688,0.397508,2.89203,9.3682,-0.0139731,-0.0300079,0.00542127,0
2024-12-11 14:33:47.690,0.364008,2.89681,9.34188,-0.0200816,-0.029397,0.00908635,0
2024-12-11 14:33:47.693,0.344866,2.89203,9.32034,-0.0322986,-0.0275645,0.010308,0
2024-12-11 14:33:47.695,0.32333,2.88963,9.3012,-0.0322986,-0.0275645,0.010308,0
2024-12-11 14:33:47.697,0.299402,2.88963,9.28206,-0.038407,-0.0263428,0.0133623,0
2024-12-11 14:33:47.699,0.292223,2.87528,9.27966,-0.0445155,-0.0269536,0.0164165,0
2024-12-11 14:33:47.703,0.285045,2.86331,9.29881,-0.0591758,-0.0269536,0.0249684,0
2024-12-11 14:33:47.705,0.301795,2.85853,9.32513,-0.0671168,-0.0275645,0.0274118,0
2024-12-11 14:33:47.706,0.318545,2.85374,9.36341,-0.0671168,-0.0275645,0.0274118,0
2024-12-11 14:33:47.709,0.320937,2.84417,9.40409,-0.0726145,-0.0306187,0.0292443,0
2024-12-11 14:33:47.712,0.335294,2.82742,9.43041,-0.0768904,-0.0342838,0.0341311,0
2024-12-11 14:33:47.714,0.35683,2.80349,9.4687,-0.0768904,-0.0342838,0.0341311,0
2024-12-11 14:33:47.716,0.378365,2.77717,9.52134,-0.0817772,-0.0367272,0.0359636,0
2024-12-11 14:33:47.718,0.387936,2.76281,9.57877,-0.0817772,-0.0361163,0.0396287,0
2024-12-11 14:33:47.721,0.409472,2.74606,9.64577,-0.0799446,-0.0355055,0.0390179,0
2024-12-11 14:33:47.724,0.45015,2.71256,9.71277,-0.0762796,-0.0342838,0.0432938,0
2024-12-11 14:33:47.726,0.474078,2.69342,9.7678,-0.0713928,-0.0306187,0.0432938,0
2024-12-11 14:33:47.728,0.488435,2.68624,9.81326,-0.0713928,-0.0306187,0.0432938,0
2024-12-11 14:33:47.730,0.50997,2.68624,9.85903,-0.0646735,-0.0287862,0.046348,0
2024-12-11 14:33:47.732,0.531506,2.67906,9.89013,-0.0579541,-0.0257319,0.0469589,0
2024-12-11 14:33:47.735,0.541077,2.66471,9.90449,-0.0518457,-0.0220669,0.0481806,0
2024-12-11 14:33:47.739,0.536291,2.64796,9.90688,-0.0365745,-0.0147367,0.0494023,0
2024-12-11 14:33:47.740,0.536291,2.64796,9.90688,-0.0365745,-0.0147367,0.0494023,0
2024-12-11 14:33:47.742,0.521934,2.65035,9.90449,-0.0274118,-0.0129041,0.0518457,0
2024-12-11 14:33:47.744,0.505185,2.65514,9.87338,-0.0200816,-0.00984991,0.0567324,0
2024-12-11 14:33:47.746,0.500399,2.64317,9.85424,-0.0121406,-0.00862822,0.0591758,0
2024-12-11 14:33:47.749,0.507577,2.63121,9.83749,-0.00664296,-0.00679568,0.0640626,0
2024-12-11 14:33:47.751,0.507577,2.61924,9.81566,0.000687203,-0.00435229,0.0689494,0
2024-12-11 14:33:47.754,0.50997,2.60249,9.8013,0.00984991,-0.00313059,0.0707819,0
2024-12-11 14:33:47.756,0.512363,2.60967,9.77259,0.0147367,-0.00374144,0.0750579,0
2024-12-11 14:33:47.758,0.529113,2.61446,9.71755,0.021456,-0.000687203,0.0811663,0
2024-12-11 14:33:47.761,0.56022,2.61685,9.67209,0.0300079,0.00236703,0.0829989,0
2024-12-11 14:33:47.764,0.586541,2.62642,9.61945,0.0379489,0.0096972,0.0891073,0
2024-12-11 14:33:47.765,0.60329,2.64078,9.55723,0.0379489,0.0096972,0.0891073,0
2024-12-11 14:33:47.770,0.624826,2.67428,9.46391,0.0471116,0.0151948,0.0921616,0
2024-12-11 14:33:47.772,0.634397,2.67428,9.38495,0.0477224,0.0170274,0.0939941,0
2024-12-11 14:33:47.773,0.624826,2.67428,9.38495,0.0477224,0.0170274,0.0939941,0
2024-12-11 14:33:47.775,0.639183,2.67189,9.31077,0.0483333,0.0176382,0.0964375,0
2024-12-11 14:33:47.777,0.670289,2.68624,9.2363,0.0471116,0.0213033,0.0970484,0
2024-12-11 14:33:47.779,0.699003,2.70539,9.17887,0.0446682,0.0194708,0.0964375,0
2024-12-11 14:33:47.782,0.718146,2.72453,9.1358,0.0422248,0.0213033,0.0964375,0
2024-12-11 14:33:47.784,0.732503,2.72453,9.08555,0.0367272,0.022525,0.0939941,0
2024-12-11 14:33:47.787,0.74686,2.7341,9.03051,0.0300079,0.0200816,0.0958267,0
2024-12-11 14:33:47.790,0.773181,2.75803,8.98744,0.0232886,0.0194708,0.0939941,0
2024-12-11 14:33:47.791,0.789931,2.77717,8.94437,0.0171801,0.0170274,0.0939941,0
2024-12-11 14:33:47.794,0.80668,2.8011,8.87976,0.00435229,0.0139731,0.0915507,0
2024-12-11 14:33:47.797,0.825823,2.82981,8.8343,-0.0170274,0.00664296,0.0872748,0
2024-12-11 14:33:47.799,0.82343,2.84895,8.79841,-0.0292443,0.000534491,0.0848314,0
2024-12-11 14:33:47.802,0.811466,2.86092,8.78166,-0.0292443,0.000534491,0.0848314,0
2024-12-11 14:33:47.803,0.809073,2.88245,8.78405,-0.0420721,-0.00618483,0.0842206,0
2024-12-11 14:33:47.805,0.809073,2.90399,8.79362,-0.0567324,-0.0129041,0.0836097,0
2024-12-11 14:33:47.808,0.82343,2.92552,8.81755,-0.0695602,-0.0232886,0.0842206,0
2024-12-11 14:33:47.810,0.835394,2.93749,8.85584,-0.0805555,-0.0300079,0.0811663,0
2024-12-11 14:33:47.812,0.842872,2.94467,8.90369,-0.0927724,-0.0397814,0.0799446,0
2024-12-11 14:33:47.815,0.852443,2.95185,8.9683,-0.103157,-0.0452791,0.0787229,0
2024-12-11 14:33:47.818,0.862014,2.95185,9.03769,-0.111098,-0.0513875,0.0775012,0
2024-12-11 14:33:47.819,0.881157,2.95902,9.09512,-0.120261,-0.0581068,0.0768904,0
2024-12-11 14:33:47.825,0.907478,2.95902,9.21715,-0.136143,-0.0709346,0.074447,0
2024-12-11 14:33:47.827,0.907478,2.95185,9.28924,-0.136143,-0.0709346,0.074447,0
2024-12-11 14:33:47.829,0.967299,2.96381,9.33949,-0.142862,-0.0739889,0.0726145,0
2024-12-11 14:33:47.829,0.967299,2.96381,9.33949,-0.142862,-0.0739889,0.0726145,0
2024-12-11 14:33:47.832,1.0008,2.9662,9.39931,-0.149581,-0.0794865,0.0683385,0
2024-12-11 14:33:47.834,1.03669,2.95663,9.47588,-0.149581,-0.0794865,0.0683385,0
2024-12-11 14:33:47.836,1.07498,2.94706,9.5357,-0.14836,-0.0819299,0.066506,0
2024-12-11 14:33:47.838,1.10608,2.95424,9.58595,-0.150192,-0.085595,0.0634518,0
2024-12-11 14:33:47.841,1.11565,2.95902,9.62184,-0.152025,-0.0825407,0.0597867,0
2024-12-11 14:33:47.844,1.13719,2.95663,9.64337,-0.152025,-0.081319,0.0567324,0
2024-12-11 14:33:47.845,1.17069,2.94706,9.67209,-0.151414,-0.0782648,0.0542891,0
2024-12-11 14:33:47.851,1.23529,2.89442,9.75344,-0.152025,-0.0770431,0.0414613,0
2024-12-11 14:33:47.851,1.23529,2.89442,9.75344,-0.152025,-0.0770431,0.0414613,0
2024-12-11 14:33:47.852,1.24726,2.88245,9.78455,-0.152025,-0.0770431,0.0414613,0
2024-12-11 14:33:47.856,1.26401,2.86331,9.83749,-0.147138,-0.077654,0.0322986,0
2024-12-11 14:33:47.858,1.28315,2.84178,9.89013,-0.142251,-0.077654,0.0274118,0
2024-12-11 14:33:47.859,1.29512,2.82981,9.93081,-0.142251,-0.077654,0.0274118,0
2024-12-11 14:33:47.862,1.27597,2.82024,9.97149,-0.137364,-0.0745997,0.0255792,0
2024-12-11 14:33:47.867,1.23051,2.76042,10.0528,-0.123315,-0.0691021,0.022525,0
2024-12-11 14:33:47.868,1.23051,2.76042,10.0528,-0.113541,-0.0684913,0.0206925,0
2024-12-11 14:33:47.869,1.22333,2.74846,10.0576,-0.113541,-0.0684913,0.0206925,0
2024-12-11 14:33:47.871,1.20658,2.72931,10.0481,-0.102546,-0.0617719,0.0200816,0
2024-12-11 14:33:47.874,1.1659,2.71735,10.0217,-0.0933833,-0.057496,0.0194708,0
2024-12-11 14:33:47.876,1.1348,2.70778,10.0026,-0.0805555,-0.0519984,0.0206925,0
2024-12-11 14:33:47.878,1.11805,2.69581,9.97149,-0.0726145,-0.0458899,0.0249684,0
2024-12-11 14:33:47.881,1.09651,2.67428,9.91885,-0.0622301,-0.0397814,0.0268009,0
2024-12-11 14:33:47.883,1.07258,2.66471,9.8686,-0.0530674,-0.0342838,0.0298552,0
2024-12-11 14:33:47.886,1.06062,2.68146,9.79891,-0.0420721,-0.0287862,0.0316877,0
2024-12-11 14:33:47.888,1.06062,2.68146,9.71755,-0.0347419,-0.0257319,0.0353528,0
2024-12-11 14:33:47.890,1.0654,2.68146,9.6362,-0.030466,-0.0232886,0.0377962,0
2024-12-11 14:33:47.892,1.07498,2.69821,9.56441,-0.0243575,-0.0184018,0.0408504,0
2024-12-11 14:33:47.896,1.08455,2.69821,9.49741,-0.0170274,-0.00923906,0.0469589,0
2024-12-11 14:33:47.898,1.0989,2.70778,9.41606,-0.0170274,-0.00923906,0.0469589,0
2024-12-11 14:33:47.899,1.1348,2.72931,9.3347,-0.0151948,-0.00129805,0.0475697,0
2024-12-11 14:33:47.902,1.1659,2.75563,9.26531,-0.0115297,0.00664296,0.0475697,0
2024-12-11 14:33:47.904,1.18265,2.77238,9.17169,-0.0115297,0.0133623,0.0481806,0
2024-12-11 14:33:47.908,1.17308,2.79631,9.06401,-0.0121406,0.0237467,0.0475697,0
2024-12-11 14:33:47.909,1.15394,2.82742,8.98983,-0.0096972,0.0335202,0.0475697,0
2024-12-11 14:33:47.912,1.14915,2.85853,8.89891,-0.0115297,0.0390179,0.0487914,0
2024-12-11 14:33:47.914,1.16112,2.88245,8.79362,-0.0151948,0.0481806,0.0469589,0
2024-12-11 14:33:47.916,1.16351,2.90638,8.69761,-0.022525,0.0518457,0.0451263,0
2024-12-11 14:33:47.918,1.17069,2.93988,8.60908,-0.030466,0.0542891,0.0451263,0
2024-12-11 14:33:47.921,1.18744,2.96381,8.52772,-0.0390179,0.0548999,0.0439046,0
2024-12-11 14:33:47.923,1.22094,2.97338,8.45354,-0.0481806,0.0542891,0.0408504,0
2024-12-11 14:33:47.925,1.4004,2.89442,8.37937,-0.0610084,0.0530674,0.0341311,0
2024-12-11 14:33:47.930,1.36211,2.97817,8.33869,-0.0836097,0.0542891,0.0158057,0
2024-12-11 14:33:47.932,1.36211,2.97817,8.33869,-0.0939941,0.0518457,0.010308,0
2024-12-11 14:33:47.932,1.15872,3.11964,8.32433,-0.0939941,0.0518457,0.010308,0
2024-12-11 14:33:47.935,1.05105,3.2345,8.31715,-0.106822,0.0432938,0.0115297,0
2024-12-11 14:33:47.940,0.962513,3.402,8.3028,-0.119039,0.0329094,0.0127514,0
2024-12-11 14:33:47.941,0.962513,3.402,8.3028,-0.144084,0.00481042,0.0170274,0
2024-12-11 14:33:47.942,0.97687,3.44267,8.28126,-0.144084,0.00481042,0.0170274,0
2024-12-11 14:33:47.944,0.986441,3.45224,8.27408,-0.15569,-0.0129041,0.014584,0
2024-12-11 14:33:47.947,1.01276,3.4355,8.27887,-0.168517,-0.029397,0.0133623,0
2024-12-11 14:33:47.949,1.06062,3.4331,8.29562,-0.1844,-0.0471116,0.0096972,0
2024-12-11 14:33:47.951,1.10369,3.44267,8.33151,-0.200282,-0.0648262,0.00603212,0
2024-12-11 14:33:47.954,1.12522,3.44985,8.37458,-0.21372,-0.0788757,0.00114534,0
2024-12-11 14:33:47.957,1.11805,3.45942,8.42004,-0.226548,-0.0959794,-0.0019089,0
2024-12-11 14:33:47.958,1.11087,3.49771,8.48704,-0.238765,-0.11064,-0.00435229,0
2024-12-11 14:33:47.962,1.11565,3.54796,8.57318,-0.238765,-0.11064,-0.00435229,0
2024-12-11 14:33:47.963,1.12044,3.59821,8.65454,-0.26381,-0.138739,-0.0116825,0
2024-12-11 14:33:47.966,1.11326,3.63649,8.74337,-0.274194,-0.152177,-0.0147367,0
2024-12-11 14:33:47.970,1.13719,3.67508,8.92044,-0.29313,-0.179055,-0.0220669,0
2024-12-11 14:33:47.970,1.13719,3.67508,8.92044,-0.29313,-0.179055,-0.0220669,0
2024-12-11 14:33:47.972,1.15394,3.70379,9.02333,-0.303515,-0.190661,-0.0263428,0
2024-12-11 14:33:47.975,1.15155,3.7325,9.12623,-0.310234,-0.201045,-0.0324513,0
2024-12-11 14:33:47.977,1.16351,3.74447,9.22194,-0.315732,-0.208375,-0.037338,0
2024-12-11 14:33:47.980,1.18026,3.73968,9.33709,-0.319397,-0.213873,-0.0428357,0
2024-12-11 14:33:47.983,1.18265,3.7349,9.45434,-0.320008,-0.221203,-0.0477224,0
2024-12-11 14:33:47.985,1.18505,3.72772,9.5357,-0.318786,-0.224257,-0.0507767,0
2024-12-11 14:33:47.987,1.19462,3.71815,9.58116,-0.318786,-0.224257,-0.0507767,0
2024-12-11 14:33:47.989,1.20658,3.70618,9.62663,-0.317564,-0.22609,-0.0526092,0
2024-12-11 14:33:47.991,1.22812,3.67268,9.65055,-0.318175,-0.227922,-0.0526092,0
2024-12-11 14:33:47.994,1.24726,3.62931,9.67209,-0.321229,-0.227922,-0.0550526,0
2024-12-11 14:33:47.996,1.26401,3.61256,9.70798,-0.320618,-0.229755,-0.0556635,0
2024-12-11 14:33:47.999,1.27597,3.58864,9.74627,-0.323062,-0.229144,-0.057496,0
2024-12-11 14:33:48.001,1.2999,3.55274,9.79891,-0.326116,-0.230366,-0.0599394,0
2024-12-11 14:33:48.005,1.35733,3.5336,9.91646,-0.324894,-0.221814,-0.0599394,0
2024-12-11 14:33:48.006,1.35733,3.5336,9.91646,-0.324894,-0.221814,-0.0599394,0
2024-12-11 14:33:48.010,1.36929,3.52403,9.98585,-0.326116,-0.205932,-0.0623828,0
2024-12-11 14:33:48.010,1.36929,3.52403,9.98585,-0.326116,-0.205932,-0.0623828,0
2024-12-11 14:33:48.013,1.37647,3.52403,10.0289,-0.32184,-0.193104,-0.0636045,0
2024-12-11 14:33:48.016,1.4004,3.51685,10.0552,-0.315121,-0.16134,-0.065437,0
2024-12-11 14:33:48.017,1.41266,3.50249,10.0696,-0.315121,-0.16134,-0.065437,0
2024-12-11 14:33:48.020,1.41266,3.5001,10.0887,-0.312677,-0.143015,-0.0660479,0
2024-12-11 14:33:48.023,1.41506,3.50249,10.1079,-0.302904,-0.106975,-0.0703238,0
2024-12-11 14:33:48.025,1.40548,3.5001,10.127,-0.302904,-0.106975,-0.0703238,0
2024-12-11 14:33:48.029,1.34776,3.52403,10.1318,-0.292519,-0.0691021,-0.0752106,0
2024-12-11 14:33:48.029,1.34776,3.52403,10.1318,-0.292519,-0.0691021,-0.0752106,0
2024-12-11 14:33:48.031,1.31426,3.52882,10.1103,-0.286411,-0.0489441,-0.0758214,0
2024-12-11 14:33:48.034,1.28076,3.52642,10.1007,-0.279692,-0.029397,-0.0745997,0
2024-12-11 14:33:48.036,1.22812,3.52882,10.0983,-0.272972,-0.0116825,-0.0752106,0
2024-12-11 14:33:48.038,1.17787,3.54078,10.0768,-0.261977,0.00664296,-0.073378,0
2024-12-11 14:33:48.041,1.12283,3.55035,10.0505,-0.252204,0.0237467,-0.0721563,0
2024-12-11 14:33:48.043,1.05105,3.55514,10.0074,-0.243652,0.0408504,-0.0697129,0
2024-12-11 14:33:48.045,1.00558,3.56949,9.96431,-0.233878,0.0555107,-0.065437,0
2024-12-11 14:33:48.049,0.957727,3.58146,9.91885,-0.212498,0.0775012,-0.0556635,0
2024-12-11 14:33:48.051,0.893121,3.57667,9.85424,-0.202725,0.0860531,-0.0501658,0
2024-12-11 14:33:48.054,0.85005,3.58146,9.79173,-0.202725,0.0860531,-0.0501658,0
2024-12-11 14:33:48.055,0.804287,3.58864,9.74387,-0.19173,0.0909399,-0.0440574,0
2024-12-11 14:33:48.057,0.756431,3.57428,9.71755,-0.179513,0.0921616,-0.0367272,0
2024-12-11 14:33:48.060,0.734896,3.57667,9.68166,-0.170961,0.0958267,-0.0306187,0
2024-12-11 14:33:48.063,0.727717,3.58624,9.62902,-0.158133,0.094605,-0.0238994,0
2024-12-11 14:33:48.064,0.710967,3.59821,9.58834,-0.145305,0.0921616,-0.0184018,0
2024-12-11 14:33:48.068,0.694218,3.61735,9.55963,-0.117206,0.0927724,-0.00496313,0
2024-12-11 14:33:48.069,0.691825,3.62453,9.53091,-0.117206,0.0927724,-0.00496313,0
2024-12-11 14:33:48.072,0.691825,3.62692,9.48545,-0.0988809,0.0915507,0.00114534,0
2024-12-11 14:33:48.075,0.701396,3.62931,9.43281,-0.0689494,0.0872748,0.010308,0
2024-12-11 14:33:48.077,0.706182,3.63171,9.37777,-0.0689494,0.0872748,0.010308,0
2024-12-11 14:33:48.078,0.722932,3.64128,9.29642,-0.0524565,0.0854423,0.0139731,0
2024-12-11 14:33:48.081,0.74686,3.65354,9.21237,-0.0377962,0.0829989,0.0200816,0
2024-12-11 14:33:48.083,0.761217,3.64606,9.15255,-0.0231358,0.0805555,0.0261901,0
2024-12-11 14:33:48.086,0.782752,3.64128,9.09512,-0.010308,0.0775012,0.0286335,0
2024-12-11 14:33:48.088,0.799502,3.66311,9.03051,0.00374144,0.0781121,0.0292443,0
2024-12-11 14:33:48.090,0.813859,3.67029,8.96112,0.0177909,0.0787229,0.0286335,0
2024-12-11 14:33:48.093,0.945763,3.6006,8.87976,0.0177909,0.0787229,0.0286335,0
2024-12-11 14:33:48.095,1.03669,3.57189,8.79123,0.0446682,0.090329,0.0243575,0
2024-12-11 14:33:48.097,0.929013,3.64128,8.7027,0.0556635,0.0988809,0.0182491,0
2024-12-11 14:33:48.101,0.780359,3.70858,8.6019,0.0672696,0.104379,0.0182491,0
2024-12-11 14:33:48.102,0.687039,3.77797,8.51336,0.0752106,0.104989,0.0176382,0
2024-12-11 14:33:48.104,0.648754,3.83779,8.43679,0.0807082,0.109265,0.0194708,0
2024-12-11 14:33:48.107,0.641576,3.86411,8.36262,0.0892601,0.111098,0.0194708,0
2024-12-11 14:33:48.109,0.655932,3.87129,8.27169,0.0953685,0.111709,0.0200816,0
2024-12-11 14:33:48.111,0.672682,3.87129,8.16401,0.0984228,0.115374,0.0182491,0
2024-12-11 14:33:48.117,0.691825,3.87847,7.93161,0.0972011,0.121482,0.00786466,0
2024-12-11 14:33:48.117,0.691825,3.87847,7.93161,0.0972011,0.121482,0.00786466,0
2024-12-11 14:33:48.118,0.706182,3.87847,7.82154,0.0972011,0.121482,0.00786466,0
2024-12-11 14:33:48.121,0.706182,3.89043,7.72343,0.0959794,0.122093,0.000534491,0
2024-12-11 14:33:48.123,0.691825,3.92872,7.62293,0.0886492,0.122704,-0.00374144,0
2024-12-11 14:33:48.126,0.667897,3.96461,7.53649,0.077654,0.122704,-0.0104608,0
2024-12-11 14:33:48.130,0.629611,4.00289,7.46232,0.0599394,0.125758,-0.0220669,0
2024-12-11 14:33:48.130,0.591326,4.05314,7.40967,0.0599394,0.125758,-0.0220669,0
2024-12-11 14:33:48.134,0.548256,4.08664,7.35464,0.0300079,0.123315,-0.0312296,0
2024-12-11 14:33:48.137,0.474078,4.12732,7.21346,0.0122933,0.119039,-0.037338,0
2024-12-11 14:33:48.138,0.474078,4.12732,7.21346,-0.00481042,0.11232,-0.0403923,0
2024-12-11 14:33:48.141,0.4334,4.15603,7.15843,-0.0243575,0.108044,-0.0465007,0
2024-12-11 14:33:48.143,0.402293,4.16082,7.11536,-0.046348,0.100713,-0.0501658,0
2024-12-11 14:33:48.144,0.373579,4.16321,7.09143,-0.046348,0.100713,-0.0501658,0
2024-12-11 14:33:48.147,0.337687,4.17996,7.07229,-0.0689494,0.0952158,-0.0544418,0
2024-12-11 14:33:48.149,0.297009,4.2015,7.08186,-0.0933833,0.0872748,-0.0550526,0
2024-12-11 14:33:48.151,0.251246,4.21137,7.11057,-0.117206,0.0775012,-0.0599394,0
2024-12-11 14:33:48.154,0.200997,4.21137,7.15843,-0.139808,0.0683385,-0.0593285,0
2024-12-11 14:33:48.156,0.16989,4.21137,7.23021,-0.160576,0.0616192,-0.0593285,0
2024-12-11 14:33:48.159,0.131605,4.19432,7.31396,-0.1844,0.0542891,-0.0593285,0
2024-12-11 14:33:48.161,0.0885344,4.18475,7.41207,-0.202114,0.0481806,-0.0568851,0
2024-12-11 14:33:48.168,0.0909273,4.16561,7.75454,-0.243652,0.0347419,-0.0446682,0
2024-12-11 14:33:48.168,0.0909273,4.16561,7.75454,-0.243652,0.0347419,-0.0446682,0
2024-12-11 14:33:48.170,0.0933201,4.15125,7.88136,-0.252814,0.0341311,-0.041614,0
2024-12-11 14:33:48.173,0.0885344,4.14886,7.99861,-0.261366,0.0310769,-0.0342838,0
2024-12-11 14:33:48.173,0.0885344,4.14886,7.99861,-0.261366,0.0310769,-0.0342838,0
2024-12-11 14:33:48.176,0.081356,4.15125,8.09911,-0.274805,0.0292443,-0.0208452,0
2024-12-11 14:33:48.177,0.0909273,4.16561,8.19751,-0.274805,0.0292443,-0.0208452,0
2024-12-11 14:33:48.180,0.112463,4.18475,8.29562,-0.274805,0.030466,-0.0141258,0
2024-12-11 14:33:48.182,0.12682,4.19193,8.38415,-0.276027,0.030466,-0.00801737,0
2024-12-11 14:33:48.185,0.129212,4.20389,8.46072,-0.274805,0.0322986,-0.00374144,0
2024-12-11 14:33:48.188,0.129212,4.21376,8.54447,-0.275416,0.0341311,0.0109189,0
2024-12-11 14:33:48.190,0.131605,4.24008,8.62104,-0.274194,0.0377962,0.0170274,0
2024-12-11 14:33:48.192,0.153141,4.25922,8.68565,-0.274194,0.0377962,0.0170274,0
2024-12-11 14:33:48.195,0.179462,4.27119,8.74577,-0.266864,0.042683,0.0286335,0
2024-12-11 14:33:48.196,0.189033,4.28315,8.80319,-0.266864,0.042683,0.0286335,0
2024-12-11 14:33:48.199,0.198604,4.28315,8.85584,-0.265642,0.0457372,0.0329094,0
2024-12-11 14:33:48.201,0.210568,4.2999,8.89651,-0.263199,0.050624,0.0377962,0
2024-12-11 14:33:48.203,0.22014,4.32622,8.9348,-0.258923,0.0555107,0.0457372,0
2024-12-11 14:33:48.207,0.227318,4.35494,8.97069,-0.252204,0.0646735,0.0561216,0
2024-12-11 14:33:48.208,0.215354,4.38604,8.99223,-0.252204,0.0646735,0.0561216,0
2024-12-11 14:33:48.210,0.200997,4.40519,9.02094,-0.252814,0.0640626,0.0622301,0
2024-12-11 14:33:48.213,0.193819,4.44347,9.06162,-0.252814,0.0677277,0.0713928,0
2024-12-11 14:33:48.215,0.18664,4.47219,9.11187,-0.250982,0.066506,0.0775012,0
2024-12-11 14:33:48.217,0.198604,4.48654,9.19083,-0.249149,0.0671168,0.0817772,0
2024-12-11 14:33:48.220,0.217747,4.51047,9.28445,-0.249149,0.0658951,0.0909399,0
2024-12-11 14:33:48.222,0.229711,4.52722,9.3682,-0.247317,0.0658951,0.0988809,0
2024-12-11 14:33:48.224,0.236889,4.54397,9.43759,-0.245484,0.0658951,0.104379,0
2024-12-11 14:33:48.227,0.251246,4.56311,9.51655,-0.239987,0.0652843,0.110487,0
2024-12-11 14:33:48.230,0.267996,4.57029,9.58355,-0.232656,0.066506,0.121482,0
2024-12-11 14:33:48.233,0.282652,4.58226,9.64816,-0.227159,0.0640626,0.125758,0
2024-12-11 14:33:48.234,0.289831,4.58465,9.71277,-0.227159,0.0640626,0.125758,0
2024-12-11 14:33:48.236,0.299402,4.59661,9.76541,-0.223494,0.0646735,0.130645,0
2024-12-11 14:33:48.239,0.316152,4.62772,9.81566,-0.219218,0.0610084,0.137975,0
2024-12-11 14:33:48.242,0.328116,4.6325,9.88774,-0.209444,0.0573433,0.144084,0
2024-12-11 14:33:48.244,0.344866,4.6349,9.96431,-0.209444,0.0573433,0.144084,0
2024-12-11 14:33:48.246,0.352044,4.64925,10.0313,-0.209444,0.0573433,0.144084,0
2024-12-11 14:33:48.249,0.366401,4.65643,10.1079,-0.192951,0.050624,0.152635,0
2024-12-11 14:33:48.251,0.373579,4.65404,10.1701,-0.192951,0.050624,0.152635,0
2024-12-11 14:33:48.253,0.371187,4.64925,10.2156,-0.183789,0.0530674,0.152635,0
2024-12-11 14:33:48.255,0.380758,4.64686,10.2682,-0.175848,0.0561216,0.156911,0
2024-12-11 14:33:48.258,0.378365,4.62293,10.3232,-0.175848,0.0561216,0.156911,0
2024-12-11 14:33:48.260,0.383151,4.59901,10.3834,-0.163631,0.0610084,0.162409,0
2024-12-11 14:33:48.262,0.392722,4.59422,10.4456,-0.154468,0.0634518,0.165463,0
2024-12-11 14:33:48.264,0.390329,4.58465,10.5197,-0.144084,0.0677277,0.169128,0
2024-12-11 14:33:48.268,0.383151,4.57986,10.5963,-0.122704,0.0829989,0.173404,0
2024-12-11 14:33:48.270,0.366401,4.59422,10.6705,-0.108654,0.0927724,0.179513,0
2024-12-11 14:33:48.272,0.349651,4.6014,10.7279,-0.108654,0.0927724,0.179513,0
2024-12-11 14:33:48.274,0.335294,4.59422,10.7686,-0.0939941,0.1056,0.181956,0
2024-12-11 14:33:48.276,0.316152,4.58704,10.8045,-0.0762796,0.118428,0.186232,0
2024-12-11 14:33:48.280,0.301795,4.57747,10.8188,-0.0616192,0.134921,0.19173,0
2024-12-11 14:33:48.282,0.263211,4.56072,10.8093,-0.0280226,0.164242,0.203336,0
2024-12-11 14:33:48.284,0.234497,4.55115,10.7949,-0.0121406,0.174626,0.209444,0
2024-12-11 14:33:48.288,0.215354,4.53918,10.7279,0.00129805,0.181345,0.217996,0
2024-12-11 14:33:48.288,0.181855,4.51526,10.7279,0.00129805,0.181345,0.217996,0
2024-12-11 14:33:48.291,0.148355,4.51286,10.6992,0.0122933,0.188065,0.226548,0
2024-12-11 14:33:48.293,0.117248,4.51286,10.6872,0.0232886,0.191119,0.235711,0
2024-12-11 14:33:48.296,0.0933201,4.50329,10.6849,0.0355055,0.196006,0.243652,0
2024-12-11 14:33:48.297,0.066999,4.50808,10.6872,0.0465007,0.196616,0.254036,0
2024-12-11 14:33:48.300,0.0502493,4.52483,10.7064,0.0562743,0.196006,0.26381,0
2024-12-11 14:33:48.302,0.026321,4.53679,10.7399,0.0691021,0.194784,0.273583,0
2024-12-11 14:33:48.305,-0.00239282,4.55354,10.7734,0.0843733,0.196616,0.282746,0
2024-12-11 14:33:48.307,-0.0143569,4.57986,10.7901,0.0984228,0.194784,0.294352,0
2024-12-11 14:33:48.309,-0.0215354,4.60858,10.8141,0.113694,0.193562,0.302293,0
2024-12-11 14:33:48.312,-0.0239282,4.63968,10.8284,0.127743,0.193562,0.313899,0
2024-12-11 14:33:48.314,-0.026321,4.68036,10.8356,0.143625,0.193562,0.322451,0
2024-12-11 14:33:48.316,-0.0358923,4.72104,10.8428,0.160118,0.192341,0.331003,0
2024-12-11 14:33:48.320,-0.0454636,4.75693,10.7997,0.191882,0.192341,0.349939,0
2024-12-11 14:33:48.321,-0.0526421,4.80987,10.7734,0.191882,0.192341,0.349939,0
2024-12-11 14:33:48.323,-0.066999,4.86251,10.759,0.191882,0.192341,0.349939,0
2024-12-11 14:33:48.326,-0.081356,4.88644,10.7231,0.216316,0.190508,0.363378,0
2024-12-11 14:33:48.330,0.0741775,4.84577,10.6083,0.238918,0.189286,0.376206,0
2024-12-11 14:33:48.331,0.0741775,4.84577,10.6083,0.238918,0.189286,0.376206,0
2024-12-11 14:33:48.333,0.0885344,4.91037,10.5389,0.242583,0.189286,0.379871,0
2024-12-11 14:33:48.335,0.0622134,5.0013,10.4575,0.246248,0.185621,0.384757,0
2024-12-11 14:33:48.338,0.0239282,5.08265,10.3735,0.246248,0.180734,0.390255,0
2024-12-11 14:33:48.340,0.112463,5.12333,10.2706,0.244415,0.174626,0.396974,0
2024-12-11 14:33:48.343,0.486042,5.07787,10.0457,0.234031,0.152025,0.396974,0
2024-12-11 14:33:48.345,0.507577,5.07308,10.1462,0.215705,0.117206,0.392698,0
2024-12-11 14:33:48.347,0.131605,5.1999,10.3881,0.206543,0.1056,0.391477,0
2024-12-11 14:33:48.350,-0.066999,5.34616,10.2491,0.191272,0.129423,0.403694,0
2024-12-11 14:33:48.353,-0.0909273,5.4682,10.1031,0.176611,0.143473,0.409802,0
2024-12-11 14:33:48.355,0.0382852,5.58545,10.1031,0.176611,0.143473,0.409802,0
2024-12-11 14:33:48.356,0.217747,5.7003,10.2323,0.163783,0.142862,0.415911,0
2024-12-11 14:33:48.359,0.347258,5.76969,10.3905,0.149123,0.133699,0.420187,0
2024-12-11 14:33:48.362,0.423829,5.79123,10.4719,0.11797,0.115374,0.420797,0
2024-12-11 14:33:48.363,0.502792,5.79362,10.4695,0.11797,0.115374,0.420797,0
2024-12-11 14:33:48.366,0.629611,5.77687,10.4456,0.0996445,0.11232,0.414689,0
2024-12-11 14:33:48.369,0.773181,5.7673,10.4791,0.081319,0.114152,0.407359,0
2024-12-11 14:33:48.370,0.909871,5.76491,10.5652,0.0642153,0.120871,0.399418,0
2024-12-11 14:33:48.373,1.01276,5.76252,10.6729,0.0452791,0.125147,0.388422,0
2024-12-11 14:33:48.375,1.09651,5.79362,10.7949,0.0257319,0.131867,0.374373,0
2024-12-11 14:33:48.377,1.13719,5.81516,10.9122,0.00923906,0.141029,0.36521,0
2024-12-11 14:33:48.380,1.1324,5.82473,10.9962,-0.00603212,0.150803,0.356048,0
2024-12-11 14:33:48.382,1.13719,5.85105,11.0608,-0.0200816,0.166074,0.347496,0
2024-12-11 14:33:48.385,1.13001,5.85823,11.1422,-0.0347419,0.180734,0.342609,0
2024-12-11 14:33:48.387,1.13958,5.84866,11.2451,-0.0518457,0.196006,0.3365,0
2024-12-11 14:33:48.390,1.16351,5.83669,11.3575,-0.0671168,0.213109,0.330392,0
2024-12-11 14:33:48.392,1.17787,5.84148,11.4724,-0.0781121,0.229602,0.326116,0
2024-12-11 14:33:48.395,1.20658,5.83909,11.5851,-0.0915507,0.245484,0.32184,0
2024-12-11 14:33:48.396,1.24726,5.81755,11.6904,-0.0982701,0.263199,0.317564,0
2024-12-11 14:33:48.400,1.26879,5.78644,11.7838,-0.11232,0.304126,0.31451,0
2024-12-11 14:33:48.401,1.26401,5.76252,11.8723,-0.11232,0.304126,0.31451,0
2024-12-11 14:33:48.403,1.26162,5.73141,11.9584,-0.118428,0.322451,0.310234,0
2024-12-11 14:33:48.406,1.27837,5.69312,12.0494,-0.121482,0.337722,0.309623,0
2024-12-11 14:33:48.408,1.28554,5.65962,12.1478,-0.125147,0.356048,0.311456,0
2024-12-11 14:33:48.410,1.25922,5.6357,12.2483,-0.123315,0.370708,0.312677,0
2024-12-11 14:33:48.413,1.23769,5.60937,12.3392,-0.120261,0.384757,0.312067,0
2024-12-11 14:33:48.415,1.21376,5.5663,12.4277,-0.115374,0.396974,0.315121,0
2024-12-11 14:33:48.418,1.17308,5.52563,12.5282,-0.108044,0.406748,0.320008,0
2024-12-11 14:33:48.421,1.1324,5.50409,12.6072,-0.0872748,0.425073,0.331614,0
2024-12-11 14:33:48.422,1.1013,5.47777,12.6745,-0.0872748,0.425073,0.331614,0
2024-12-11 14:33:48.426,1.07258,5.45863,12.7439,-0.0732253,0.431182,0.342609,0
2024-12-11 14:33:48.427,1.04865,5.42273,12.7893,-0.0548999,0.434847,0.35055,0
2024-12-11 14:33:48.429,1.03908,5.36531,12.8276,-0.038407,0.437901,0.359713,0
2024-12-11 14:33:48.433,1.03669,5.32194,12.8659,-0.0206925,0.439734,0.371319,0
2024-12-11 14:33:48.435,1.05823,5.28365,12.8874,0.021456,0.438512,0.395753,0
2024-12-11 14:33:48.436,1.08933,5.23819,12.909,0.021456,0.438512,0.395753,0
2024-12-11 14:33:48.439,1.13958,5.17358,12.9186,0.0428357,0.435458,0.406748,0
2024-12-11 14:33:48.442,1.19701,5.10898,12.9209,0.0941468,0.430571,0.431182,0
2024-12-11 14:33:48.443,1.24247,5.05873,12.9305,0.0941468,0.430571,0.431182,0
2024-12-11 14:33:48.446,1.2999,4.99173,12.9425,0.116137,0.42996,0.440345,0
2024-12-11 14:33:48.448,1.3669,4.92234,12.9353,0.143625,0.428738,0.451951,0
2024-12-11 14:33:48.450,1.43898,4.8673,12.9233,0.171724,0.432404,0.461724,0
2024-12-11 14:33:48.453,1.53709,4.79791,12.9209,0.199213,0.434236,0.470887,0
2024-12-11 14:33:48.455,1.6352,4.72582,12.9114,0.199213,0.434236,0.470887,0
2024-12-11 14:33:48.458,1.74048,4.64686,12.8851,0.250524,0.445231,0.484326,0
2024-12-11 14:33:48.460,1.82901,4.57986,12.8085,0.278012,0.457448,0.489823,0
2024-12-11 14:33:48.463,1.91516,4.53201,12.708,0.332377,0.498375,0.488601,0
2024-12-11 14:33:48.465,2.01117,4.47936,12.6,0.332377,0.498375,0.488601,0
2024-12-11 14:33:48.467,2.09252,4.44586,12.4756,0.3562,0.52342,0.483104,0
2024-12-11 14:33:48.469,2.16909,4.4339,12.3272,0.375747,0.549075,0.472109,0
2024-12-11 14:33:48.472,2.21934,4.43151,12.1406,0.395295,0.570455,0.456227,0
2024-12-11 14:33:48.474,2.2337,4.45065,11.9441,0.412398,0.585115,0.436679,0
2024-12-11 14:33:48.476,2.22413,4.46022,11.7574,0.422172,0.590613,0.409191,0
2024-12-11 14:33:48.480,2.2002,4.44586,11.5421,0.42828,0.576563,0.346885,0
2024-12-11 14:33:48.482,2.16192,4.41476,11.3169,0.424615,0.556405,0.312067,0
2024-12-11 14:33:48.483,2.10449,4.35254,11.1278,0.424615,0.556405,0.312067,0
2024-12-11 14:33:48.486,2.0351,4.25683,10.9699,0.417285,0.527696,0.274194,0
2024-12-11 14:33:48.492,1.92473,4.02204,10.7662,0.390408,0.440955,0.199671,0
2024-12-11 14:33:48.493,1.92473,4.02204,10.7662,0.373915,0.384757,0.162409,0
2024-12-11 14:33:48.493,1.85773,3.87368,10.7136,0.373915,0.384757,0.162409,0
2024-12-11 14:33:48.496,1.76919,3.71815,10.6849,0.354368,0.324894,0.127591,0
2024-12-11 14:33:48.498,1.6663,3.54556,10.6944,0.331766,0.25648,0.0964375,0
2024-12-11 14:33:48.501,1.59691,3.3685,10.7638,0.287175,0.126369,0.0402396,0
2024-12-11 14:33:48.502,1.54188,3.18425,10.8954,0.287175,0.126369,0.0402396,0
2024-12-11 14:33:48.506,1.4988,2.98056,11.0895,0.250524,0.0158057,-0.00496313,0
2024-12-11 14:33:48.507,1.49641,2.75324,11.3384,0.250524,0.0158057,-0.00496313,0
2024-12-11 14:33:48.509,1.50838,2.52084,11.633,0.242583,-0.0251211,-0.0232886,0
2024-12-11 14:33:48.512,1.52513,2.31027,11.9728,0.24075,-0.0587177,-0.0440574,0
2024-12-11 14:33:48.514,1.5682,2.11406,12.32,0.24808,-0.0831516,-0.0617719,0
2024-12-11 14:33:48.517,1.59212,1.91516,12.6529,0.264573,-0.0959794,-0.0782648,0
2024-12-11 14:33:48.519,1.60648,1.72612,12.9544,0.29084,-0.0972011,-0.0959794,0
2024-12-11 14:33:48.521,1.61366,1.53709,13.218,0.324436,-0.0898709,-0.111861,1
2024-12-11 14:33:48.523,1.58016,1.37647,13.4405,0.361087,-0.0739889,-0.129576,0
2024-12-11 14:33:48.526,1.52991,1.22333,13.608,0.409344,-0.049555,-0.146069,0
2024-12-11 14:33:48.528,1.43659,1.05105,13.6965,0.461266,-0.0177909,-0.160729,0
2024-12-11 14:33:48.532,1.28794,0.895514,13.6917,0.566332,0.0530674,-0.177833,0
2024-12-11 14:33:48.533,1.10608,0.770788,13.6295,0.566332,0.0530674,-0.177833,0
2024-12-11 14:33:48.535,0.917049,0.658325,13.5075,0.621919,0.0878856,-0.179055,0
2024-12-11 14:33:48.538,0.725324,0.553041,13.3161,0.674452,0.121482,-0.177833,0
2024-12-11 14:33:48.540,0.521934,0.486042,13.0693,0.720876,0.153246,-0.168059,0
2024-12-11 14:33:48.543,0.344866,0.462114,12.7822,0.757527,0.178902,-0.157064,0
2024-12-11 14:33:48.545,0.184247,0.452543,12.4875,0.791124,0.200892,-0.143015,0
2024-12-11 14:33:48.548,0.0741775,0.445364,12.1956,0.837548,0.223494,-0.108807,0
2024-12-11 14:33:48.550,0.0167498,0.421436,11.8938,0.837548,0.223494,-0.108807,0
2024-12-11 14:33:48.552,-0.00717847,0.397508,11.5851,0.852819,0.227159,-0.0917034,0
2024-12-11 14:33:48.554,0.0215354,0.385544,11.2905,0.861371,0.226548,-0.0782648,0
2024-12-11 14:33:48.556,0.0574277,0.380758,11.0201,0.86809,0.223494,-0.0684913,0
2024-12-11 14:33:48.559,0.0909273,0.414257,10.7495,0.865647,0.21372,-0.0605502,0
2024-12-11 14:33:48.561,0.138784,0.457328,10.4791,0.857095,0.200892,-0.0562743,0
2024-12-11 14:33:48.564,0.18664,0.498006,10.2108,0.844878,0.182567,-0.0544418,0
2024-12-11 14:33:48.566,0.241675,0.545863,9.9691,0.82472,0.163631,-0.0538309,0
2024-12-11 14:33:48.568,0.308973,0.581755,9.74387,0.800897,0.141029,-0.0587177,0
2024-12-11 14:33:48.572,0.3999,0.617647,9.55005,0.739812,0.0909399,-0.0764323,0
2024-12-11 14:33:48.575,0.627219,0.639183,9.30359,0.706216,0.0640626,-0.0929251,0
2024-12-11 14:33:48.575,0.627219,0.639183,9.30359,0.706216,0.0640626,-0.0929251,0
2024-12-11 14:33:48.579,0.696611,0.679861,9.21476,0.628638,0.0151948,-0.127743,0
2024-12-11 14:33:48.582,0.811466,0.811466,9.06401,0.590155,-0.0110716,-0.149123,0
2024-12-11 14:33:48.583,0.811466,0.811466,9.06401,0.590155,-0.0110716,-0.149123,0
2024-12-11 14:33:48.585,0.88355,0.857229,9.04965,0.548617,-0.0379489,-0.169892,0
2024-12-11 14:33:48.587,0.945763,0.897907,9.04008,0.50708,-0.065437,-0.194937,0
2024-12-11 14:33:48.589,1.00798,0.921835,9.03769,0.463099,-0.0910926,-0.219981,0
2024-12-11 14:33:48.593,1.07019,0.912264,9.08555,0.379413,-0.147291,-0.281066,0
2024-12-11 14:33:48.595,1.12522,0.897907,9.1693,0.34154,-0.174168,-0.313441,0
2024-12-11 14:33:48.597,1.17787,0.876371,9.27488,0.34154,-0.174168,-0.313441,0
2024-12-11 14:33:48.599,1.20419,0.837787,9.39452,0.303667,-0.199213,-0.345816,0
2024-12-11 14:33:48.602,1.1683,0.804287,9.5333,0.241972,-0.232198,-0.410566,0
2024-12-11 14:33:48.605,1.08933,0.785145,9.66252,0.215705,-0.239528,-0.438665,0
2024-12-11 14:33:48.606,1.00798,0.754038,9.78694,0.215705,-0.239528,-0.438665,0
2024-12-11 14:33:48.608,0.919442,0.710967,9.88774,0.188828,-0.245026,-0.461266,0
2024-12-11 14:33:48.611,0.799502,0.670289,9.9667,0.167449,-0.24808,-0.484478,0
2024-12-11 14:33:48.614,0.670289,0.605683,10.0433,0.130187,-0.237696,-0.512577,0
2024-12-11 14:33:48.619,0.431007,0.502792,10.1175,0.0978119,-0.216927,-0.526627,0
2024-12-11 14:33:48.619,0.431007,0.502792,10.1175,0.0978119,-0.216927,-0.526627,0
2024-12-11 14:33:48.620,0.304188,0.464507,10.1342,0.0978119,-0.216927,-0.526627,0
2024-12-11 14:33:48.622,0.179462,0.41665,10.1486,0.0849841,-0.205321,-0.530292,0
2024-12-11 14:33:48.625,0.0693919,0.378365,10.1581,0.0684913,-0.19005,-0.531513,0
2024-12-11 14:33:48.627,-0.0358923,0.364008,10.1629,0.0587177,-0.172946,-0.531513,0
2024-12-11 14:33:48.629,-0.145962,0.35683,10.1677,0.0452791,-0.157675,-0.527848,0
2024-12-11 14:33:48.632,-0.248854,0.366401,10.151,0.0348946,-0.140571,-0.522351,0
2024-12-11 14:33:48.635,-0.320937,0.387936,10.127,0.0269536,-0.121635,-0.515021,0
2024-12-11 14:33:48.637,-0.397508,0.407079,10.0887,0.0171801,-0.102088,-0.50708,0
2024-12-11 14:33:48.639,-0.483649,0.431007,10.0481,0.00862822,-0.0837624,-0.497306,0
2024-12-11 14:33:48.641,-0.565005,0.442971,9.99303,0.000687203,-0.0617719,-0.489365,0
2024-12-11 14:33:48.644,-0.639183,0.445364,9.91406,-0.00542127,-0.0428357,-0.476537,0
2024-12-11 14:33:48.646,-0.710967,0.445364,9.82792,-0.0133623,-0.0238994,-0.46432,0
2024-12-11 14:33:48.648,-0.775574,0.462114,9.7343,-0.0188599,-0.00557398,-0.448438,0
2024-12-11 14:33:48.652,-0.828216,0.488435,9.6362,-0.038407,0.0286335,-0.418507,0
2024-12-11 14:33:48.655,-0.902692,0.541077,9.41127,-0.0481806,0.0414613,-0.402625,0
2024-12-11 14:33:48.656,-0.902692,0.541077,9.41127,-0.0481806,0.0414613,-0.402625,0
2024-12-11 14:33:48.660,-0.912264,0.593719,9.24587,-0.0707819,0.0646735,-0.370861,0
2024-12-11 14:33:48.661,-0.912264,0.593719,9.24587,-0.0775012,0.074447,-0.355589,0
2024-12-11 14:33:48.665,-0.897907,0.665504,9.12383,-0.0884965,0.0854423,-0.343983,0
2024-12-11 14:33:48.666,-0.897907,0.665504,9.12383,-0.0884965,0.0854423,-0.343983,0
2024-12-11 14:33:48.667,-0.881157,0.706182,9.08315,-0.0958267,0.0933833,-0.331156,0
2024-12-11 14:33:48.669,-0.8668,0.751645,9.05205,-0.103768,0.101935,-0.32016,0
2024-12-11 14:33:48.673,-0.857229,0.797109,9.00419,-0.107433,0.11965,-0.300002,0
2024-12-11 14:33:48.674,-0.869193,0.842872,8.95634,-0.107433,0.11965,-0.300002,0
2024-12-11 14:33:48.677,-0.876371,0.888335,8.90848,-0.106211,0.128202,-0.290229,0
2024-12-11 14:33:48.679,-0.873978,0.938585,8.84866,-0.106822,0.134921,-0.283509,0
2024-12-11 14:33:48.681,-0.871586,0.988834,8.79841,-0.101935,0.145916,-0.274958,0
2024-12-11 14:33:48.684,-0.862014,1.0319,8.72423,-0.094605,0.156301,-0.267017,0
2024-12-11 14:33:48.686,-0.85005,1.09412,8.64497,-0.090329,0.163631,-0.261519,0
2024-12-11 14:33:48.688,-0.837787,1.15633,8.5684,-0.0854423,0.172183,-0.255411,0
2024-12-11 14:33:48.691,-0.830609,1.19222,8.4679,-0.0756687,0.178902,-0.251135,0
2024-12-11 14:33:48.693,-0.82343,1.23051,8.3674,-0.0707819,0.183789,-0.246859,0
2024-12-11 14:33:48.695,-0.811466,1.28554,8.2693,-0.0652843,0.188675,-0.244415,0
2024-12-11 14:33:48.699,-0.809073,1.35015,8.1664,-0.0548999,0.197227,-0.24075,0
2024-12-11 14:33:48.700,-0.799502,1.40548,8.07757,-0.0548999,0.197227,-0.24075,0
2024-12-11 14:33:48.702,-0.794716,1.47009,7.95554,-0.046348,0.202725,-0.240139,0
2024-12-11 14:33:48.705,-0.80668,1.5347,7.82872,-0.0432938,0.207001,-0.24075,0
2024-12-11 14:33:48.708,-0.825823,1.58734,7.74497,-0.0365745,0.215553,-0.241361,0
2024-12-11 14:33:48.710,-0.847657,1.65194,7.67318,-0.0365745,0.215553,-0.241361,0
2024-12-11 14:33:48.712,-0.890728,1.71416,7.60618,-0.0347419,0.216774,-0.241972,0
2024-12-11 14:33:48.714,-0.936192,1.75723,7.53171,-0.030466,0.219218,-0.241972,0
2024-12-11 14:33:48.718,-0.96012,1.81226,7.4671,-0.0206925,0.229602,-0.242583,0
2024-12-11 14:33:48.721,-1.05823,1.91037,7.369,-0.0170274,0.232046,-0.238307,0
2024-12-11 14:33:48.722,-1.05823,1.91037,7.369,-0.0170274,0.232046,-0.238307,0
2024-12-11 14:33:48.724,-1.0989,1.92712,7.30439,-0.0115297,0.234489,-0.235863,0
2024-12-11 14:33:48.726,-1.14197,1.94626,7.24696,-0.00358873,0.241208,-0.230366,0
2024-12-11 14:33:48.731,-1.23529,1.99202,7.11775,0.00679568,0.246095,-0.213262,0
2024-12-11 14:33:48.732,-1.23529,1.99202,7.11775,0.0153475,0.247928,-0.203488,0
2024-12-11 14:33:48.734,-1.26162,2.01117,7.04357,0.0153475,0.247928,-0.203488,0
2024-12-11 14:33:48.735,-1.24965,2.03988,6.96192,0.0165692,0.246095,-0.191882,0
2024-12-11 14:33:48.738,-1.18265,2.02074,6.88056,0.021456,0.246706,-0.179665,0
2024-12-11 14:33:48.741,-1.1659,2.01356,6.82313,0.0232886,0.246095,-0.16134,0
2024-12-11 14:33:48.742,-1.22094,2.05902,6.75135,0.0232886,0.246095,-0.16134,0
2024-12-11 14:33:48.745,-1.25444,2.11167,6.67239,0.0251211,0.243041,-0.149123,0
2024-12-11 14:33:48.748,-1.26162,2.16431,6.61735,0.0245102,0.240597,-0.134463,0
2024-12-11 14:33:48.750,-1.2664,2.20259,6.57189,0.0232886,0.236932,-0.121635,0
2024-12-11 14:33:48.752,-1.28554,2.24806,6.55035,0.021456,0.233878,-0.110029,0
2024-12-11 14:33:48.755,-1.28554,2.30309,6.536,0.0226777,0.224105,-0.0825407,0
2024-12-11 14:33:48.758,-1.25922,2.32941,6.51207,0.0232886,0.22105,-0.0697129,0
2024-12-11 14:33:48.760,-1.24965,2.36052,6.48096,0.0232886,0.22105,-0.0697129,0
2024-12-11 14:33:48.761,-1.2329,2.39402,6.4666,0.0257319,0.217996,-0.0568851,0
2024-12-11 14:33:48.764,-1.20897,2.42991,6.44955,0.0269536,0.21372,-0.0446682,0
2024-12-11 14:33:48.766,-1.19701,2.47537,6.42084,0.0287862,0.208833,-0.0342838,0
2024-12-11 14:33:48.768,-1.1683,2.4993,6.38495,0.0330621,0.203336,-0.0263428,0
2024-12-11 14:33:48.771,-1.12522,2.52323,6.36102,0.0367272,0.198449,-0.0159584,0
2024-12-11 14:33:48.773,-1.09412,2.55703,6.35384,0.0410031,0.192341,-0.00679568,0
2024-12-11 14:33:48.775,-1.07258,2.59771,6.33231,0.0428357,0.181956,0.00114534,0
2024-12-11 14:33:48.778,-1.05344,2.64556,6.30598,0.0471116,0.172793,0.00908635,0
2024-12-11 14:33:48.780,-1.05344,2.70299,6.27009,0.0513875,0.159355,0.0151948,0
2024-12-11 14:33:48.782,-1.05105,2.75563,6.24616,0.049555,0.145916,0.0206925,0
2024-12-11 14:33:48.785,-1.05583,2.80828,6.23899,0.0519984,0.134921,0.0261901,0
2024-12-11 14:33:48.788,-1.05583,2.85135,6.22702,0.0593285,0.103768,0.0322986,0
2024-12-11 14:33:48.791,-1.0319,2.87049,6.22941,0.0617719,0.0872748,0.0341311,0
2024-12-11 14:33:48.792,-1.00798,2.89681,6.25095,0.0617719,0.0872748,0.0341311,0
2024-12-11 14:33:48.795,-0.99362,2.90399,6.26052,0.0715455,0.0487914,0.0414613,0
2024-12-11 14:33:48.798,-1.00798,2.90878,6.25813,0.0715455,0.0487914,0.0414613,0
2024-12-11 14:33:48.799,-1.02712,2.94706,6.25813,0.0758214,0.030466,0.042683,0
2024-12-11 14:33:48.801,-1.03908,2.98056,6.25574,0.0807082,0.00603212,0.0432938,0
2024-12-11 14:33:48.804,-1.06062,3.01645,6.25574,0.0874275,-0.0165692,0.0457372,0
2024-12-11 14:33:48.807,-1.0654,3.04517,6.25813,0.0953685,-0.0703238,0.0555107,0
2024-12-11 14:33:48.808,-1.05105,3.05952,6.25574,0.0953685,-0.0703238,0.0555107,0
2024-12-11 14:33:48.811,-1.0319,3.08854,6.26531,0.0978119,-0.100866,0.0579541,0
2024-12-11 14:33:48.813,-1.00319,3.10768,6.30838,0.100866,-0.130798,0.0597867,0
2024-12-11 14:33:48.816,-0.957727,3.12921,6.38973,0.105142,-0.162562,0.0610084,0
2024-12-11 14:33:48.819,-0.921835,3.15793,6.48575,0.111251,-0.193715,0.0610084,0
2024-12-11 14:33:48.820,-0.897907,3.19382,6.57428,0.116137,-0.227922,0.0610084,0
2024-12-11 14:33:48.824,-0.864407,3.22732,6.68196,0.133241,-0.293894,0.058565,0
2024-12-11 14:33:48.825,-0.825823,3.27039,6.80878,0.133241,-0.293894,0.058565,0
2024-12-11 14:33:48.830,-0.751645,3.38046,7.0026,0.145458,-0.32016,0.0548999,0
2024-12-11 14:33:48.832,-0.694218,3.4331,7.09143,0.171114,-0.373915,0.0487914,0
2024-12-11 14:33:48.834,-0.627219,3.48335,7.2015,0.186385,-0.394073,0.0445155,0
2024-12-11 14:33:48.834,-0.627219,3.48335,7.2015,0.186385,-0.394073,0.0445155,0
2024-12-11 14:33:48.838,-0.565005,3.5336,7.302,0.199213,-0.41362,0.0377962,0
2024-12-11 14:33:48.841,-0.502792,3.63649,7.44317,0.216927,-0.447217,0.0243575,0
2024-12-11 14:33:48.844,-0.495613,3.69183,7.50299,0.244415,-0.459433,0.0164165,0
2024-12-11 14:33:48.846,-0.478864,3.75883,7.54846,0.260297,-0.467375,0.0096972,0
2024-12-11 14:33:48.847,-0.478864,3.75883,7.54846,0.274347,-0.475926,0.00481042,0
2024-12-11 14:33:48.849,-0.447757,3.81147,7.59901,0.274347,-0.475926,0.00481042,0
2024-12-11 14:33:48.851,-0.423829,3.87129,7.62772,0.287785,-0.479591,-0.00129805,0
2024-12-11 14:33:48.853,-0.395115,3.93589,7.63251,0.29817,-0.480202,-0.00801737,0
2024-12-11 14:33:48.856,-0.354437,3.97179,7.63251,0.308554,-0.476537,-0.0141258,0
2024-12-11 14:33:48.858,-0.320937,4.0005,7.61336,0.314663,-0.469818,-0.0208452,0
2024-12-11 14:33:48.863,-0.253639,4.07707,7.55324,0.326269,-0.447827,-0.0367272,0
2024-12-11 14:33:48.864,-0.253639,4.07707,7.55324,0.325658,-0.433167,-0.0452791,0
2024-12-11 14:33:48.867,-0.210568,4.17996,7.47907,0.324436,-0.419118,-0.0519984,0
2024-12-11 14:33:48.867,-0.210568,4.17996,7.47907,0.324436,-0.419118,-0.0519984,0
2024-12-11 14:33:48.870,-0.208176,4.23769,7.42403,0.317717,-0.403236,-0.0629936,0
2024-12-11 14:33:48.872,-0.210568,4.29272,7.38575,0.312219,-0.384299,-0.0745997,0
2024-12-11 14:33:48.874,-0.217747,4.33819,7.34985,0.302446,-0.364752,-0.0849841,0
2024-12-11 14:33:48.877,-0.227318,4.39322,7.30439,0.290229,-0.344594,-0.093536,0
2024-12-11 14:33:48.880,-0.241675,4.44347,7.27568,0.263962,-0.297559,-0.114916,0
2024-12-11 14:33:48.882,-0.258425,4.48654,7.24696,0.263962,-0.297559,-0.114916,0
2024-12-11 14:33:48.884,-0.275175,4.53679,7.21586,0.24808,-0.274958,-0.125911,0
2024-12-11 14:33:48.888,-0.0885344,4.46979,7.15125,0.208986,-0.229144,-0.153399,0
2024-12-11 14:33:48.889,-0.0885344,4.46979,7.15125,0.208986,-0.229144,-0.153399,0
2024-12-11 14:33:48.891,-0.00717847,4.43629,7.17278,0.184552,-0.205321,-0.172946,0
2024-12-11 14:33:48.893,-0.160319,4.52722,7.20868,0.163783,-0.18272,-0.19005,0
2024-12-11 14:33:48.897,-0.371187,4.62533,7.24218,0.11797,-0.140571,-0.209597,0
2024-12-11 14:33:48.899,-0.521934,4.70429,7.30678,0.11797,-0.140571,-0.209597,0
2024-12-11 14:33:48.900,-0.600898,4.77637,7.4001,0.0947577,-0.1253,-0.218149,0
2024-12-11 14:33:48.904,-0.63679,4.81705,7.52453,0.0513875,-0.107585,-0.229755,0
2024-12-11 14:33:48.905,-0.632004,4.81944,7.65883,0.0513875,-0.107585,-0.229755,0
2024-12-11 14:33:48.908,-0.591326,4.77637,7.8,0.0348946,-0.100255,-0.237085,0
2024-12-11 14:33:48.910,-0.545863,4.73061,7.95075,0.0238994,-0.0917034,-0.250524,0
2024-12-11 14:33:48.913,-0.529113,4.71147,8.10629,0.00435229,-0.0721563,-0.276179,0
2024-12-11 14:33:48.915,-0.541077,4.71147,8.2669,0.00435229,-0.0721563,-0.276179,0
2024-12-11 14:33:48.919,-0.634397,4.71865,8.55883,7.63559e-05,-0.0642153,-0.289007,0
2024-12-11 14:33:48.920,-0.634397,4.71865,8.55883,-0.00297788,-0.0550526,-0.311608,0
2024-12-11 14:33:48.921,-0.703789,4.733,8.70748,-0.00297788,-0.0550526,-0.311608,0
2024-12-11 14:33:48.924,-0.766002,4.73779,8.85823,7.63559e-05,-0.0538309,-0.318939,0
2024-12-11 14:33:48.927,-0.82343,4.72104,8.98983,0.00984991,-0.0642153,-0.331156,0
2024-12-11 14:33:48.929,-0.895514,4.70907,9.1023,0.00984991,-0.0642153,-0.331156,0
2024-12-11 14:33:48.931,-0.952942,4.70907,9.18365,0.0159584,-0.073378,-0.337875,0
2024-12-11 14:33:48.933,-0.99362,4.69472,9.25065,0.0184018,-0.0843733,-0.340318,0
2024-12-11 14:33:48.936,-1.02951,4.67318,9.29642,0.0226777,-0.0978119,-0.340318,0
2024-12-11 14:33:48.938,-1.06301,4.66361,9.32513,0.0257319,-0.114305,-0.339707,0
2024-12-11 14:33:48.940,-1.08215,4.65883,9.37299,0.0269536,-0.130798,-0.337875,0
2024-12-11 14:33:48.943,-1.06301,4.66122,9.42323,0.0269536,-0.147901,-0.336042,0
2024-12-11 14:33:48.945,-1.02951,4.67558,9.49502,0.029397,-0.165616,-0.335431,0
2024-12-11 14:33:48.947,-1.0008,4.69233,9.6027,0.0281753,-0.183941,-0.335431,0
2024-12-11 14:33:48.950,-0.948156,4.68754,9.72712,0.0275645,-0.199213,-0.335431,0
2024-12-11 14:33:48.952,-0.888335,4.68754,9.86142,0.029397,-0.214484,-0.337264,0
2024-12-11 14:33:48.954,-0.825823,4.72343,9.99303,0.0312296,-0.225479,-0.339097,0
2024-12-11 14:33:48.957,-0.76361,4.7354,10.1198,0.033673,-0.23342,-0.343373,0
2024-12-11 14:33:48.960,-0.703789,4.73779,10.2658,0.0391706,-0.240139,-0.346427,0
2024-12-11 14:33:48.961,-0.658325,4.74018,10.4049,0.0452791,-0.243804,-0.352535,0
2024-12-11 14:33:48.964,-0.629611,4.733,10.5102,0.049555,-0.247469,-0.356811,0
2024-12-11 14:33:48.967,-0.598505,4.73061,10.6035,0.0544418,-0.250524,-0.36353,0
2024-12-11 14:33:48.969,-0.584148,4.73061,10.6849,0.0581068,-0.2548,-0.369639,0
2024-12-11 14:33:48.972,-0.591326,4.72822,10.759,0.065437,-0.257243,-0.378802,0
2024-12-11 14:33:48.973,-0.610469,4.71386,10.8356,0.065437,-0.257243,-0.378802,0
2024-12-11 14:33:48.976,-0.629611,4.70907,10.9002,0.0672696,-0.265184,-0.381856,0
2024-12-11 14:33:48.978,-0.646361,4.69472,10.9531,0.0672696,-0.270071,-0.384299,0
2024-12-11 14:33:48.980,-0.646361,4.66122,10.9914,0.0666587,-0.282899,-0.386743,0
2024-12-11 14:33:48.983,-0.643968,4.62293,11.0106,0.0666587,-0.282899,-0.386743,0
2024-12-11 14:33:48.986,-0.648754,4.57268,11.0273,0.0532201,-0.354979,-0.389797,0
2024-12-11 14:33:48.987,-0.634397,4.51526,11.0489,0.0532201,-0.354979,-0.389797,0
2024-12-11 14:33:48.991,-0.605683,4.46022,11.08,0.0391706,-0.391019,-0.389186,0
2024-12-11 14:33:48.992,-0.553041,4.40758,11.1206,0.0245102,-0.431335,-0.389797,0
2024-12-11 14:33:48.994,-0.488435,4.34537,11.1972,0.00984991,-0.473483,-0.389797,0
2024-12-11 14:33:48.997,-0.41665,4.27837,11.324,-0.00481042,-0.518686,-0.389797,0
2024-12-11 14:33:48.999,-0.34008,4.21615,11.4796,-0.0200816,-0.563888,-0.391019,0
2024-12-11 14:33:49.002,-0.256032,4.16321,11.6665,-0.0365745,-0.612756,-0.389797,0
2024-12-11 14:33:49.004,-0.198604,4.12493,11.8412,-0.0469589,-0.657348,-0.392851,0
2024-12-11 14:33:49.007,-0.177069,4.12014,12.023,-0.0579541,-0.699496,-0.391019,0
2024-12-11 14:33:49.009,-0.129212,4.09621,12.2961,-0.0677277,-0.744088,-0.389797,0
2024-12-11 14:33:49.011,-0.0454636,4.0005,12.641,-0.0720036,-0.792345,-0.387354,0
2024-12-11 14:33:49.013,0.0334995,3.89043,12.9616,-0.0701711,-0.83877,-0.387964,0
2024-12-11 14:33:49.016,0.0957129,3.80429,13.2419,-0.0616192,-0.876031,-0.386132,0
2024-12-11 14:33:49.018,0.143569,3.73011,13.5266,-0.0500131,-0.904741,-0.385521,0
2024-12-11 14:33:49.020,0.160319,3.65833,13.8236,-0.0347419,-0.929786,-0.383078,0
2024-12-11 14:33:49.023,0.157926,3.6006,14.1419,-0.0133623,-0.945668,-0.378191,0
2024-12-11 14:33:49.025,0.12682,3.57428,14.4317,0.0165692,-0.951776,-0.369028,0
2024-12-11 14:33:49.027,0.232104,3.51685,14.6279,0.0483333,-0.952998,-0.356811,0
2024-12-11 14:33:49.030,0.287438,3.48335,14.8576,0.0788757,-0.956663,-0.350092,0
2024-12-11 14:33:49.033,0.0454636,3.54556,15.1355,0.155842,-0.923067,-0.318939,0
2024-12-11 14:33:49.034,-0.297009,3.69183,15.248,0.155842,-0.923067,-0.318939,0
2024-12-11 14:33:49.037,-0.615255,3.89043,15.224,0.196158,-0.888859,-0.291451,0
2024-12-11 14:33:49.040,-0.835394,4.07946,15.1642,0.234642,-0.851597,-0.256021,0
2024-12-11 14:33:49.042,-0.931406,4.25444,15.0709,0.263962,-0.818001,-0.213262,0
2024-12-11 14:33:49.044,-0.909871,4.38844,14.9369,0.287175,-0.792956,-0.172946,0
2024-12-11 14:33:49.046,-0.813859,4.49372,14.738,0.303057,-0.778296,-0.134463,0
2024-12-11 14:33:49.049,-0.701396,4.57986,14.4844,0.304278,-0.770355,-0.0984228,0
2024-12-11 14:33:49.051,-0.569791,4.64447,14.1754,0.296948,-0.76669,-0.0660479,0
2024-12-11 14:33:49.053,-0.3999,4.67797,13.8715,0.276179,-0.771576,-0.0391706,0
2024-12-11 14:33:49.056,-0.174676,4.67558,13.6032,0.244415,-0.781961,-0.0122933,0
2024-12-11 14:33:49.058,0.0933201,4.68036,13.3807,0.201656,-0.797843,0.00908635,0
2024-12-11 14:33:49.060,0.392722,4.68993,13.2562,0.152177,-0.819223,0.0292443,0
2024-12-11 14:33:49.063,0.73011,4.69233,13.1892,0.0990336,-0.843046,0.0402396,0
2024-12-11 14:33:49.066,1.10369,4.70907,13.153,-0.0219141,-0.877253,0.0512348,0
2024-12-11 14:33:49.068,1.4677,4.72104,13.1794,-0.0219141,-0.877253,0.0512348,0
2024-12-11 14:33:49.070,1.83859,4.71147,13.2419,-0.0842206,-0.887637,0.046348,0
2024-12-11 14:33:49.072,2.22652,4.68036,13.3448,-0.147749,-0.891913,0.0359636,0
2024-12-11 14:33:49.074,2.6001,4.63729,13.4883,-0.20639,-0.887637,0.0206925,0
2024-12-11 14:33:49.079,3.268,4.48415,13.8093,-0.319397,-0.854041,-0.0263428,0
2024-12-11 14:33:49.079,3.268,4.48415,13.8093,-0.319397,-0.854041,-0.0263428,0
2024-12-11 14:33:49.083,3.56231,4.40758,14.0103,-0.414689,-0.782572,-0.0874275,0
2024-12-11 14:33:49.084,3.80429,4.31426,14.1945,-0.414689,-0.782572,-0.0874275,0
2024-12-11 14:33:49.087,4.06032,4.15843,14.3839,-0.456837,-0.733093,-0.120413,0
2024-12-11 14:33:49.089,4.36212,3.92393,14.604,-0.489823,-0.673841,-0.157064,0
2024-12-11 14:33:49.091,4.61815,3.65115,14.8217,-0.51609,-0.598707,-0.196158,0
2024-12-11 14:33:49.093,4.80987,3.34218,15.0206,-0.530139,-0.512577,-0.241361,0
2024-12-11 14:33:49.097,4.92712,3.04038,15.2073,-0.53808,-0.41362,-0.287175,0
2024-12-11 14:33:49.100,4.86969,2.48255,15.5402,-0.524031,-0.192493,-0.378191,1
2024-12-11 14:33:49.100,4.86969,2.48255,15.5402,-0.524031,-0.192493,-0.378191,1
2024-12-11 14:33:49.104,4.70429,2.25045,15.6311,-0.47333,0.0481806,-0.448438,0
2024-12-11 14:33:49.106,4.44586,2.04227,15.6479,-0.439734,0.17035,-0.477148,0
2024-12-11 14:33:49.108,4.06511,1.86012,15.612,-0.439734,0.17035,-0.477148,0
2024-12-11 14:33:49.111,3.6006,1.72134,15.5139,-0.351161,0.412856,-0.497306,0
2024-12-11 14:33:49.112,3.06192,1.63759,15.3676,-0.351161,0.412856,-0.497306,0
2024-12-11 14:33:49.119,1.63998,1.46291,14.7715,-0.351161,0.412856,-0.497306,0
2024-12-11 14:33:49.120,1.63998,1.46291,14.7715,-0.143473,0.811205,-0.420339,0
2024-12-11 14:33:49.123,1.28315,1.39083,14.5777,-0.0860531,0.882674,-0.383688,0
2024-12-11 14:33:49.124,0.952942,1.33101,14.3336,-0.0860531,0.882674,-0.383688,0
2024-12-11 14:33:49.125,0.952942,1.33101,14.3336,-0.0286335,0.939483,-0.344594,0
2024-12-11 14:33:49.126,0.632004,1.30469,14.0581,-0.0286335,0.939483,-0.344594,0
2024-12-11 14:33:49.130,0.337687,1.28076,13.783,0.0886492,1.01706,-0.256021,0
2024-12-11 14:33:49.132,0.0933201,1.27597,13.4572,0.147291,1.03722,-0.208986,0
2024-12-11 14:33:49.134,-0.122034,1.30229,13.0956,0.147291,1.03722,-0.208986,0
2024-12-11 14:33:49.136,-0.260818,1.34058,12.7367,0.203488,1.04333,-0.162562,0
2024-12-11 14:33:49.139,-0.335294,1.37886,12.3416,0.252967,1.03355,-0.113694,0
2024-12-11 14:33:49.140,-0.373579,1.41266,11.9536,0.296337,1.00973,-0.0703238,0
2024-12-11 14:33:49.144,-0.375972,1.46052,11.5899,0.373915,0.922379,0.0115297,0
2024-12-11 14:33:49.146,-0.344866,1.5347,11.2259,0.373915,0.922379,0.0115297,0
2024-12-11 14:33:49.147,-0.263211,1.60409,10.8715,0.402014,0.860073,0.0414613,0
2024-12-11 14:33:49.150,-0.117248,1.64716,10.5389,0.425226,0.788527,0.0683385,0
2024-12-11 14:33:49.152,0.112463,1.66869,10.2443,0.445384,0.706063,0.0860531,0
2024-12-11 14:33:49.155,0.260818,1.73569,10.0074,0.463099,0.619323,0.0927724,0
2024-12-11 14:33:49.158,0.30658,1.85773,9.79412,0.477148,0.528307,0.0994917,0
2024-12-11 14:33:49.159,0.368794,1.99442,9.58355,0.489976,0.431182,0.103157,0
2024-12-11 14:33:49.162,0.435793,2.11645,9.43041,0.498528,0.333446,0.104989,0
2024-12-11 14:33:49.164,0.521934,2.20977,9.30359,0.50769,0.233267,0.104379,0
2024-12-11 14:33:49.167,0.639183,2.28873,9.18605,0.515021,0.130645,0.104989,0
2024-12-11 14:33:49.169,0.804287,2.3342,9.06401,0.519907,0.0280226,0.100103,0
2024-12-11 14:33:49.173,1.25204,2.28873,8.85823,0.528459,-0.155232,0.0732253,0
2024-12-11 14:33:49.174,1.25204,2.28873,8.85823,0.528459,-0.155232,0.0732253,0
2024-12-11 14:33:49.176,1.50838,2.24566,8.76491,0.533346,-0.237085,0.0536782,0
2024-12-11 14:33:49.178,1.73091,2.19541,8.65454,0.534568,-0.306111,0.0286335,0
2024-12-11 14:33:49.180,1.91755,2.16909,8.55165,0.535789,-0.368417,0.00175619,0
2024-12-11 14:33:49.184,2.07099,2.17866,8.46072,0.527848,-0.467985,-0.065437,0
2024-12-11 14:33:49.186,2.20499,2.2002,8.35783,0.527848,-0.467985,-0.065437,0
2024-12-11 14:33:49.187,2.29591,2.22891,8.25255,0.522962,-0.510134,-0.102088,0
2024-12-11 14:33:49.191,2.34138,2.25524,8.14726,0.503415,-0.571829,-0.177833,0
2024-12-11 14:33:49.193,2.35095,2.28634,8.04168,0.491198,-0.592598,-0.218149,0
2024-12-11 14:33:49.195,2.32463,2.31027,7.92682,0.491198,-0.592598,-0.218149,0
2024-12-11 14:33:49.199,2.14995,2.31506,7.68276,0.460655,-0.616421,-0.29084,0
2024-12-11 14:33:49.199,2.14995,2.31506,7.68276,0.460655,-0.616421,-0.29084,0
2024-12-11 14:33:49.202,2.01117,2.32702,7.56521,0.444162,-0.618254,-0.325047,0
2024-12-11 14:33:49.204,1.85055,2.31745,7.45275,0.426448,-0.616421,-0.353757,0
2024-12-11 14:33:49.207,1.65434,2.29352,7.302,0.402014,-0.612756,-0.378191,0
2024-12-11 14:33:49.209,1.45334,2.25045,7.12971,0.376358,-0.604815,-0.395905,0
2024-12-11 14:33:49.211,1.28554,2.18106,6.96192,0.344594,-0.591987,-0.404457,0
2024-12-11 14:33:49.214,1.14437,2.11884,6.78963,0.310387,-0.575494,-0.414231,0
2024-12-11 14:33:49.217,1.0319,2.05902,6.62214,0.270071,-0.554115,-0.417285,0
2024-12-11 14:33:49.218,0.905085,2.00399,6.49532,0.228533,-0.533346,-0.417285,0
2024-12-11 14:33:49.220,0.794716,1.96062,6.40409,0.184552,-0.509523,-0.415452,0
2024-12-11 14:33:49.223,0.710967,1.92473,6.34906,0.138739,-0.481424,-0.411177,0
2024-12-11 14:33:49.225,0.612862,1.88883,6.31316,0.0929251,-0.451492,-0.405068,0
2024-12-11 14:33:49.228,0.512363,1.8673,6.25813,0.0422248,-0.417285,-0.397738,0
2024-12-11 14:33:49.230,0.411865,1.85533,6.21506,-0.00419957,-0.378802,-0.386132,0
2024-12-11 14:33:49.233,0.30658,1.82423,6.2342,-0.0524565,-0.338486,-0.375747,0
2024-12-11 14:33:49.235,0.200997,1.80269,6.26531,-0.0994917,-0.296337,-0.362309,0
2024-12-11 14:33:49.237,0.0957129,1.8003,6.29881,-0.144084,-0.252356,-0.348259,0
2024-12-11 14:33:49.240,0.0,1.78834,6.34666,-0.230213,-0.167449,-0.309165,0
2024-12-11 14:33:49.243,-0.0837488,1.77159,6.40888,-0.269307,-0.122857,-0.288396,0
2024-12-11 14:33:49.244,-0.155533,1.75484,6.48335,-0.269307,-0.122857,-0.288396,0
2024-12-11 14:33:49.246,-0.229711,1.72134,6.57189,-0.304126,-0.077654,-0.267627,0
2024-12-11 14:33:49.249,-0.308973,1.69502,6.67956,-0.33589,-0.0312296,-0.245026,0
2024-12-11 14:33:49.251,-0.380758,1.67827,6.78724,-0.362767,0.0127514,-0.223036,0
2024-12-11 14:33:49.253,-0.4334,1.65912,6.90688,-0.385979,0.0591758,-0.200434,0
2024-12-11 14:33:49.256,-0.478864,1.64477,7.03879,-0.404305,0.100103,-0.174779,0
2024-12-11 14:33:49.259,-0.519542,1.6352,7.15604,-0.424462,0.177069,-0.127743,0
2024-12-11 14:33:49.260,-0.550648,1.61127,7.2685,-0.424462,0.177069,-0.127743,0
2024-12-11 14:33:49.263,-0.588933,1.58255,7.37617,-0.426295,0.207612,-0.10392,0
2024-12-11 14:33:49.266,-0.617647,1.58016,7.4671,-0.420797,0.257701,-0.0550526,0
2024-12-11 14:33:49.269,-0.632004,1.58495,7.55564,-0.409802,0.277248,-0.0312296,0
2024-12-11 14:33:49.271,-0.651147,1.5658,7.65643,-0.409802,0.277248,-0.0312296,0
2024-12-11 14:33:49.272,-0.665504,1.5658,7.74018,-0.396364,0.293741,-0.00679568,0
2024-12-11 14:33:49.275,-0.665504,1.58255,7.79761,-0.379871,0.302293,0.0151948,0
2024-12-11 14:33:49.277,-0.643968,1.58734,7.84786,-0.358491,0.310234,0.0359636,0
2024-12-11 14:33:49.279,-0.598505,1.59212,7.89093,-0.332835,0.315121,0.0542891,0
2024-12-11 14:33:49.283,-0.56022,1.61366,7.94836,-0.27847,0.308401,0.0836097,0
2024-12-11 14:33:49.284,-0.538684,1.62084,8.02254,-0.27847,0.308401,0.0836097,0
2024-12-11 14:33:49.286,-0.512363,1.62802,8.07279,-0.246095,0.301682,0.0970484,0
2024-12-11 14:33:49.289,-0.474078,1.64237,8.12303,-0.208833,0.290687,0.108044,0
2024-12-11 14:33:49.291,-0.442971,1.64716,8.16401,-0.167296,0.281524,0.121482,0
2024-12-11 14:33:49.294,-0.419043,1.66391,8.16162,-0.126369,0.268696,0.129423,0
2024-12-11 14:33:49.296,-0.395115,1.6663,8.14726,-0.0836097,0.25648,0.139197,0
2024-12-11 14:33:49.299,-0.371187,1.68066,8.10868,0.00679568,0.230824,0.154468,0
2024-12-11 14:33:49.302,-0.352044,1.69741,8.0345,0.0489441,0.22044,0.159966,0
2024-12-11 14:33:49.303,-0.325723,1.70698,7.95314,0.0489441,0.22044,0.159966,0
2024-12-11 14:33:49.306,-0.301795,1.71416,7.87418,0.130798,0.198449,0.172793,0
2024-12-11 14:33:49.310,-0.265603,1.75005,7.70429,0.169892,0.189286,0.178902,0
2024-12-11 14:33:49.310,-0.265603,1.75005,7.70429,0.169892,0.189286,0.178902,0
2024-12-11 14:33:49.313,-0.251246,1.76441,7.61336,0.238918,0.176459,0.187454,0
2024-12-11 14:33:49.316,-0.263211,1.77398,7.50539,0.271293,0.176459,0.193562,0
2024-12-11 14:33:49.317,-0.275175,1.80269,7.38814,0.271293,0.176459,0.193562,0
2024-12-11 14:33:49.319,-0.265603,1.82662,7.28525,0.302446,0.178291,0.198449,0
2024-12-11 14:33:49.322,-0.244068,1.83859,7.17518,0.329323,0.180124,0.203336,0
2024-12-11 14:33:49.325,-0.239282,1.84816,7.05075,0.37758,0.197227,0.212498,0
2024-12-11 14:33:49.326,-0.246461,1.86251,6.95713,0.37758,0.197227,0.212498,0
2024-12-11 14:33:49.329,-0.263211,1.87926,6.86381,0.39957,0.207612,0.214942,0
2024-12-11 14:33:49.331,-0.287438,1.90558,6.76331,0.419118,0.219829,0.217996,0
2024-12-11 14:33:49.333,-0.311366,1.93669,6.67717,0.439886,0.232656,0.221661,0
2024-12-11 14:33:49.336,-0.342473,1.96301,6.58385,0.456379,0.246095,0.225326,0
2024-12-11 14:33:49.338,-0.383151,1.98963,6.46421,0.456379,0.246095,0.225326,0
2024-12-11 14:33:49.341,-0.438186,2.01835,6.32513,0.488143,0.27114,0.234489,0
2024-12-11 14:33:49.343,-0.500399,2.0351,6.18395,0.497917,0.280303,0.244873,0
2024-12-11 14:33:49.345,-0.562612,2.04945,6.02842,0.504636,0.288244,0.250982,0
2024-12-11 14:33:49.348,-0.622433,2.0662,5.86062,0.510134,0.295574,0.259534,0
2024-12-11 14:33:49.350,-0.658325,2.08056,5.69073,0.506469,0.296185,0.271751,0
2024-12-11 14:33:49.353,-0.694218,2.10688,5.5328,0.489976,0.289465,0.294352,0
2024-12-11 14:33:49.355,-0.722932,2.13081,5.41077,0.489976,0.289465,0.294352,0
2024-12-11 14:33:49.357,-0.732503,2.16192,5.30758,0.477148,0.281524,0.304126,0
2024-12-11 14:33:49.359,-0.734896,2.22652,5.24537,0.460655,0.272362,0.318786,0
2024-12-11 14:33:49.363,-0.725324,2.27916,5.19751,0.443551,0.261977,0.32917,0
2024-12-11 14:33:49.364,-0.71336,2.32223,5.17119,0.425837,0.249149,0.341387,0
2024-12-11 14:33:49.366,-0.672682,2.37966,5.1688,0.409955,0.234489,0.352383,0
2024-12-11 14:33:49.369,-0.610469,2.4323,5.17837,0.389186,0.22105,0.362156,0
2024-12-11 14:33:49.371,-0.529113,2.48495,5.23101,0.37025,0.203947,0.369486,0
2024-12-11 14:33:49.375,-0.428614,2.5331,5.30279,0.353146,0.1844,0.376816,0
2024-12-11 14:33:49.376,-0.311366,2.56182,5.41316,0.33421,0.164242,0.381092,0
2024-12-11 14:33:49.378,-0.184247,2.58574,5.56391,0.316495,0.142251,0.382314,0
2024-12-11 14:33:49.381,-0.0358923,2.60967,5.75294,0.304889,0.120871,0.381703,0
2024-12-11 14:33:49.383,0.11007,2.65514,5.98774,0.296337,0.101935,0.380481,0
2024-12-11 14:33:49.385,0.241675,2.67906,6.21506,0.292061,0.086664,0.376206,0
2024-12-11 14:33:49.388,0.366401,2.68385,6.4328,0.293894,0.0750579,0.373151,0
2024-12-11 14:33:49.390,0.452543,2.70778,6.65803,0.297559,0.0671168,0.365821,0
2024-12-11 14:33:49.393,0.505185,2.75324,6.86381,0.310998,0.0640626,0.363378,0
2024-12-11 14:33:49.396,0.545863,2.8011,7.03879,0.342762,0.0628409,0.360934,0
2024-12-11 14:33:49.398,0.574577,2.8322,7.19432,0.364752,0.0634518,0.360934,0
2024-12-11 14:33:49.399,0.600898,2.8657,7.31875,0.364752,0.0634518,0.360934,0
2024-12-11 14:33:49.403,0.63679,2.8992,7.40728,0.406901,0.0652843,0.362156,0
2024-12-11 14:33:49.404,0.663111,2.93031,7.47189,0.406901,0.0652843,0.362156,0
2024-12-11 14:33:49.406,0.682254,2.95424,7.50778,0.42828,0.0640626,0.361545,0
2024-12-11 14:33:49.409,0.701396,2.99252,7.54367,0.452103,0.0640626,0.36521,0
2024-12-11 14:33:49.411,0.720539,3.04756,7.56999,0.469818,0.0652843,0.368875,0
2024-12-11 14:33:49.414,0.725324,3.11486,7.58226,0.490587,0.0671168,0.371319,0
2024-12-11 14:33:49.416,0.727717,3.19382,7.58704,0.508912,0.0701711,0.373151,0
2024-12-11 14:33:49.419,0.739681,3.27757,7.58704,0.527238,0.0720036,0.374984,0
2024-12-11 14:33:49.421,0.737288,3.37328,7.57478,0.546785,0.0762796,0.376206,0
2024-12-11 14:33:49.423,0.710967,3.48096,7.53889,0.560834,0.0805555,0.377427,0
2024-12-11 14:33:49.426,0.687039,3.58385,7.49103,0.582825,0.0848314,0.376816,0
2024-12-11 14:33:49.428,0.648754,3.69661,7.42642,0.582825,0.0848314,0.376816,0
2024-12-11 14:33:49.430,0.600898,3.81625,7.34028,0.592598,0.0860531,0.374373,0
2024-12-11 14:33:49.433,0.56022,3.91197,7.26371,0.59382,0.0872748,0.374373,0
2024-12-11 14:33:49.435,0.524327,4.01007,7.18714,0.595042,0.0848314,0.37254,0
2024-12-11 14:33:49.437,0.569791,4.04596,7.11775,0.588933,0.0799446,0.370708,0
2024-12-11 14:33:49.439,0.773181,3.96461,7.08664,0.582214,0.0775012,0.360934,0
2024-12-11 14:33:49.442,0.761217,4.01246,7.02204,0.569997,0.0781121,0.35055,0
2024-12-11 14:33:49.444,0.447757,4.21615,6.90449,0.569997,0.0781121,0.35055,0
2024-12-11 14:33:49.448,0.229711,4.40519,6.84945,0.505247,0.0622301,0.356048,0
2024-12-11 14:33:49.449,0.12682,4.58226,6.87578,0.505247,0.0622301,0.356048,0
2024-12-11 14:33:49.451,0.0502493,4.72822,6.90928,0.476537,0.0481806,0.364599,0
2024-12-11 14:33:49.454,0.0215354,4.84098,6.94038,0.442941,0.0316877,0.373762,0
2024-12-11 14:33:49.456,0.040678,4.92473,7.00977,0.407511,0.0121406,0.379871,0
2024-12-11 14:33:49.458,0.0909273,4.94626,7.11296,0.375137,-0.00435229,0.38659,0
2024-12-11 14:33:49.462,0.191426,4.92473,7.235,0.340318,-0.0257319,0.389644,0
2024-12-11 14:33:49.463,0.332901,4.90319,7.39053,0.304889,-0.0458899,0.385979,0
2024-12-11 14:33:49.465,0.462114,4.87209,7.56521,0.273125,-0.065437,0.382925,0
2024-12-11 14:33:49.468,0.550648,4.83619,7.75693,0.242583,-0.0849841,0.378038,0
2024-12-11 14:33:49.471,0.610469,4.81944,7.96511,0.183941,-0.119192,0.37254,0
2024-12-11 14:33:49.472,0.658325,4.80509,8.21665,0.183941,-0.119192,0.37254,0
2024-12-11 14:33:49.475,0.708575,4.77159,8.5014,0.160118,-0.135684,0.373151,0
2024-12-11 14:33:49.477,0.76361,4.74497,8.80319,0.136906,-0.149123,0.376816,0
2024-12-11 14:33:49.479,0.821037,4.73779,9.11905,0.119192,-0.158897,0.378038,0
2024-12-11 14:33:49.482,0.885943,4.72822,9.44956,0.105142,-0.171724,0.383536,0
2024-12-11 14:33:49.485,0.957727,4.7019,9.78455,0.0941468,-0.187606,0.392088,0
2024-12-11 14:33:49.487,1.0319,4.68036,10.1222,0.0941468,-0.187606,0.392088,0
2024-12-11 14:33:49.489,1.07976,4.67797,10.4695,0.0947577,-0.192493,0.396974,0
2024-12-11 14:33:49.491,1.13719,4.67797,10.8045,0.100255,-0.194326,0.400029,0
2024-12-11 14:33:49.494,1.22812,4.68515,11.1206,0.110029,-0.191882,0.402472,0
2024-12-11 14:33:49.496,1.33579,4.70429,11.4413,0.124078,-0.18272,0.403083,0
2024-12-11 14:33:49.499,1.44616,4.72343,11.7622,0.166227,-0.147901,0.402472,0
2024-12-11 14:33:49.501,1.55623,4.73779,12.0664,0.166227,-0.147901,0.402472,0
2024-12-11 14:33:49.503,1.64237,4.75215,12.3464,0.166227,-0.147901,0.402472,0
2024-12-11 14:33:49.505,1.70937,4.76172,12.5928,0.225479,-0.0874275,0.397585,0
2024-12-11 14:33:49.508,1.75484,4.77398,12.7917,0.260908,-0.0477224,0.391477,0
2024-12-11 14:33:49.511,1.77876,4.78116,12.9616,0.336042,0.0402396,0.381092,0
2024-12-11 14:33:49.515,1.8003,4.8003,13.1411,0.372082,0.0836097,0.376816,0
2024-12-11 14:33:49.515,1.8003,4.8003,13.1411,0.372082,0.0836097,0.376816,0
2024-12-11 14:33:49.520,1.80509,4.78116,13.1267,0.440497,0.167296,0.369486,0
2024-12-11 14:33:49.522,1.78116,4.75454,13.1052,0.469818,0.201503,0.367654,0
2024-12-11 14:33:49.522,1.78116,4.75454,13.1052,0.469818,0.201503,0.367654,0
2024-12-11 14:33:49.525,1.75005,4.72582,13.0765,0.492419,0.231435,0.367043,0
2024-12-11 14:33:49.529,1.64955,4.62533,13.0813,0.538844,0.279692,0.367654,0
2024-12-11 14:33:49.529,1.64955,4.62533,13.0813,0.538844,0.279692,0.367654,0
2024-12-11 14:33:49.531,1.56102,4.59422,13.1243,0.559002,0.29985,0.371319,0
2024-12-11 14:33:49.534,1.45813,4.57747,13.1988,0.578549,0.32184,0.378038,0
2024-12-11 14:33:49.536,1.3669,4.57747,13.3041,0.602983,0.343831,0.385979,0
2024-12-11 14:33:49.541,1.1013,4.63968,13.474,0.664678,0.394531,0.411024,0
2024-12-11 14:33:49.541,1.1013,4.63968,13.474,0.664678,0.394531,0.411024,0
2024-12-11 14:33:49.544,0.948156,4.7019,13.4788,0.696442,0.429349,0.423852,0
2024-12-11 14:33:49.545,0.789931,4.78116,13.4166,0.73065,0.467833,0.438512,0
2024-12-11 14:33:49.548,0.634397,4.87687,13.2706,0.75997,0.50937,0.449507,0
2024-12-11 14:33:49.551,0.471685,4.97976,13.0525,0.79601,0.58145,0.464778,0
2024-12-11 14:33:49.552,0.258425,5.08983,12.7774,0.79601,0.58145,0.464778,0
2024-12-11 14:33:49.556,-0.00717847,5.23819,12.454,0.802119,0.621766,0.466,0
2024-12-11 14:33:49.557,-0.311366,5.41795,12.1071,0.802119,0.621766,0.466,0
2024-12-11 14:33:49.561,-0.646361,5.59502,11.767,0.760581,0.604662,0.456837,0
2024-12-11 14:33:49.562,-0.986441,5.79123,11.4652,0.760581,0.604662,0.456837,0
2024-12-11 14:33:49.565,-1.23769,5.95903,11.214,0.672619,0.491045,0.431182,0
2024-12-11 14:33:49.567,-1.33819,6.05235,11.0154,0.672619,0.491045,0.431182,0
2024-12-11 14:33:49.569,-1.31426,6.07149,10.8763,0.611534,0.385368,0.411635,0
2024-12-11 14:33:49.571,-1.22572,6.0021,10.8021,0.537011,0.245484,0.387812,0
2024-12-11 14:33:49.574,-1.05823,5.83191,10.7734,0.44966,0.0720036,0.361545,0
2024-12-11 14:33:49.577,-0.761217,5.52323,10.7949,0.34887,-0.127743,0.333446,0
2024-12-11 14:33:49.578,-0.337687,5.07787,10.946,0.231587,-0.343983,0.305958,0
2024-12-11 14:33:49.581,0.18664,4.53201,11.2857,0.106364,-0.571829,0.275416,0
2024-12-11 14:33:49.583,0.737288,3.92154,11.8531,-0.0200816,-0.799065,0.246095,0
2024-12-11 14:33:49.585,1.27119,3.335,12.6482,-0.14164,-1.01714,0.22044,0
2024-12-11 14:33:49.588,1.60648,2.9351,13.5601,-0.251593,-1.21811,0.194784,0
2024-12-11 14:33:49.590,1.74048,2.68624,14.525,-0.349328,-1.39098,0.1844,0
2024-12-11 14:33:49.592,2.09252,2.37248,15.6455,-0.428128,-1.53697,0.181956,0
2024-12-11 14:33:49.595,2.72692,1.95105,16.9047,-0.483715,-1.65181,0.179513,0
2024-12-11 14:33:49.598,3.41875,1.47966,18.1591,-0.517922,-1.73366,0.17035,0
2024-12-11 14:33:49.600,4.08425,0.981655,19.3899,-0.519755,-1.7642,0.152025,0
2024-12-11 14:33:49.602,4.67797,0.514756,20.5654,-0.496542,-1.73977,0.128202,0
2024-12-11 14:33:49.605,5.18315,0.0909273,21.6571,-0.367654,-1.53636,0.0677277,0
2024-12-11 14:33:49.608,5.61177,-0.299402,22.6481,-0.367654,-1.53636,0.0677277,0
2024-12-11 14:33:49.609,5.92074,-0.634397,23.4431,-0.266864,-1.36165,0.0329094,0
2024-12-11 14:33:49.612,6.10259,-0.945763,24.032,-0.142862,-1.14358,-0.00129805,0
2024-12-11 14:33:49.615,6.13849,-1.22333,24.4247,-0.00603212,-0.888248,-0.033673,1
2024-12-11 14:33:49.618,5.65723,-1.6352,24.5731,0.307333,-0.294505,-0.0758214,0
2024-12-11 14:33:49.619,5.65723,-1.6352,24.5731,0.307333,-0.294505,-0.0758214,0
2024-12-11 14:33:49.622,5.20708,-1.77159,24.2904,0.63719,0.353604,-0.0727672,0
2024-12-11 14:33:49.624,4.55115,-1.78594,23.6943,0.794789,0.685294,-0.0440574,0
2024-12-11 14:33:49.626,3.69183,-1.64716,22.7991,0.794789,0.685294,-0.0440574,0
2024-12-11 14:33:49.630,2.11167,-1.12044,20.7616,1.06051,1.29316,0.0762796,0
2024-12-11 14:33:49.631,2.11167,-1.12044,20.7616,1.06051,1.29316,0.0762796,0
2024-12-11 14:33:49.633,1.66391,-0.905085,19.6149,1.1613,1.53872,0.155079,0
2024-12-11 14:33:49.636,1.44377,-0.799502,18.4394,1.29202,1.91989,0.29313,0
2024-12-11 14:33:49.637,1.48684,-0.864407,17.2376,1.29202,1.91989,0.29313,0
2024-12-11 14:33:49.641,1.45334,-0.88355,16.031,1.32806,2.06833,0.339555,0
2024-12-11 14:33:49.644,0.708575,-0.423829,13.6798,1.34699,2.29251,0.4153,0
2024-12-11 14:33:49.644,0.708575,-0.423829,13.6798,1.34699,2.29251,0.4153,0
2024-12-11 14:33:49.647,0.330509,-0.0358923,12.5952,1.32745,2.35421,0.455005,0
2024-12-11 14:33:49.650,-0.00239282,0.421436,11.5612,1.2908,2.37742,0.491045,0
2024-12-11 14:33:49.651,-0.313759,0.921835,10.5676,1.23338,2.36459,0.525863,0
2024-12-11 14:33:49.654,-0.591326,1.40788,9.63859,1.16191,2.32122,0.561292,0
2024-12-11 14:33:49.658,-0.988834,2.24327,8.09432,0.973156,2.14407,0.627264,0
2024-12-11 14:33:49.661,-1.07976,2.55224,7.52932,0.860149,2.01885,0.65353,0
2024-12-11 14:33:49.662,-1.07976,2.55224,7.52932,0.742867,1.87225,0.673688,0
2024-12-11 14:33:49.663,-1.05823,2.77956,7.14168,0.742867,1.87225,0.673688,0
2024-12-11 14:33:49.665,-0.964906,2.93749,6.88535,0.628027,1.71098,0.684683,0
2024-12-11 14:33:49.668,-0.830609,3.06909,6.75135,0.511356,1.53384,0.692014,0
2024-12-11 14:33:49.670,-0.629611,3.14836,6.7681,0.398349,1.34447,0.691403,0
2024-12-11 14:33:49.673,-0.404686,3.18664,6.88774,0.295116,1.14717,0.687738,0
2024-12-11 14:33:49.675,-0.155533,3.20578,7.101,0.198602,0.941316,0.675521,0
2024-12-11 14:33:49.677,0.200997,3.134,7.44796,0.114916,0.727443,0.656584,0
2024-12-11 14:33:49.680,0.660718,2.98056,7.93639,0.0428357,0.512424,0.629707,0
2024-12-11 14:33:49.682,1.13719,2.83699,8.47508,-0.0121406,0.302904,0.593056,0
2024-12-11 14:33:49.684,1.56102,2.71735,9.05444,-0.050624,0.104379,0.547243,0
2024-12-11 14:33:49.687,1.91037,2.61685,9.65773,-0.0726145,-0.0788757,0.497764,0
2024-12-11 14:33:49.689,2.20499,2.54507,10.2203,-0.0787229,-0.238918,0.44401,0
2024-12-11 14:33:49.694,2.62881,2.40838,11.1206,-0.046348,-0.513799,0.3365,0
2024-12-11 14:33:49.695,2.62881,2.40838,11.1206,-0.046348,-0.513799,0.3365,0
2024-12-11 14:33:49.696,2.78913,2.30788,11.4245,-0.046348,-0.513799,0.3365,0
2024-12-11 14:33:49.698,2.92552,2.20499,11.6689,0.0141258,-0.734926,0.238154,0
2024-12-11 14:33:49.701,3.06909,2.0997,11.8579,0.0483333,-0.825331,0.190508,0
2024-12-11 14:33:49.704,3.21296,2.0016,12.0063,0.125911,-0.957885,0.0970484,0
2024-12-11 14:33:49.706,3.32303,1.92233,12.1454,0.125911,-0.957885,0.0970484,0
2024-12-11 14:33:49.708,3.38046,1.86251,12.2626,0.168059,-1.00492,0.0518457,0
2024-12-11 14:33:49.710,3.40439,1.80509,12.3368,0.209597,-1.03852,0.0096972,0
2024-12-11 14:33:49.713,3.41157,1.7668,12.3703,0.252356,-1.05684,-0.0318404,0
2024-12-11 14:33:49.715,3.39721,1.74287,12.3631,0.252356,-1.05684,-0.0318404,0
2024-12-11 14:33:49.717,3.38046,1.70219,12.3057,0.337264,-1.05867,-0.108196,0
2024-12-11 14:33:49.720,3.34218,1.65673,12.186,0.37758,-1.03913,-0.142404,0
2024-12-11 14:33:49.722,3.27518,1.62802,12.0063,0.41362,-1.01164,-0.174779,0
2024-12-11 14:33:49.724,3.17468,1.61127,11.7455,0.445384,-0.97621,-0.201656,0
2024-12-11 14:33:49.728,3.03799,1.6017,11.4293,0.468596,-0.932229,-0.225479,0
2024-12-11 14:33:49.729,2.87528,1.60409,11.0632,0.483257,-0.880918,-0.245026,0
2024-12-11 14:33:49.732,2.69581,1.61366,10.6585,0.488754,-0.82472,-0.260297,0
2024-12-11 14:33:49.735,2.51127,1.62323,10.2395,0.469207,-0.704383,-0.274958,0
2024-12-11 14:33:49.736,2.33659,1.63759,9.79412,0.469207,-0.704383,-0.274958,0
2024-12-11 14:33:49.738,2.17866,1.65194,9.34906,0.445384,-0.646353,-0.276179,0
2024-12-11 14:33:49.743,1.9681,1.68066,8.52293,0.359255,-0.533346,-0.266406,0
2024-12-11 14:33:49.744,2.04945,1.66152,8.52293,0.300613,-0.482646,-0.260297,0
2024-12-11 14:33:49.747,1.91516,1.71177,8.15205,0.23342,-0.433167,-0.249913,0
2024-12-11 14:33:49.749,1.89123,1.72852,7.81197,0.23342,-0.433167,-0.249913,0
2024-12-11 14:33:49.750,1.88166,1.74766,7.50539,0.157675,-0.386743,-0.238918,0
2024-12-11 14:33:49.753,1.87208,1.78116,7.27089,0.0764323,-0.340929,-0.229144,0
2024-12-11 14:33:49.755,1.88644,1.81944,7.11536,-0.0115297,-0.299392,-0.221203,0
2024-12-11 14:33:49.758,1.91037,1.85773,7.02922,-0.103768,-0.254189,-0.213873,0
2024-12-11 14:33:49.760,1.95583,1.90319,7.01217,-0.195395,-0.207764,-0.206543,0
2024-12-11 14:33:49.762,2.01835,1.93908,7.08186,-0.2858,-0.155842,-0.198602,0
2024-12-11 14:33:49.765,2.07577,1.97288,7.21107,-0.37193,-0.10331,-0.191882,0
2024-12-11 14:33:49.767,2.14517,1.99681,7.37857,-0.452561,-0.0440574,-0.188828,0
2024-12-11 14:33:49.770,2.22652,2.0016,7.58226,-0.590613,0.0689494,-0.186385,0
2024-12-11 14:33:49.772,2.3007,1.99202,7.8335,-0.590613,0.0689494,-0.186385,0
2024-12-11 14:33:49.774,2.3677,1.98485,8.12064,-0.648033,0.125147,-0.184552,0
2024-12-11 14:33:49.776,2.41077,1.97049,8.39133,-0.697511,0.178902,-0.184552,0
2024-12-11 14:33:49.780,2.42034,1.95823,8.65454,-0.765315,0.283968,-0.183331,0
2024-12-11 14:33:49.782,2.41316,1.94626,8.92044,-0.786084,0.335279,-0.180887,0
2024-12-11 14:33:49.784,2.39402,1.93669,9.15733,-0.786084,0.335279,-0.180887,0
2024-12-11 14:33:49.787,2.38923,1.9343,9.36581,-0.801355,0.428738,-0.170503,0
2024-12-11 14:33:49.789,2.38445,1.91994,9.55723,-0.798301,0.47333,-0.167449,0
2024-12-11 14:33:49.790,2.37248,1.88405,9.73191,-0.798301,0.47333,-0.167449,0
2024-12-11 14:33:49.793,2.37248,1.85773,9.90688,-0.789138,0.514868,-0.160118,0
2024-12-11 14:33:49.795,2.3677,1.84576,10.0576,-0.76898,0.553351,-0.156453,0
2024-12-11 14:33:49.797,2.35095,1.84576,10.1677,-0.745157,0.591835,-0.150345,0
2024-12-11 14:33:49.801,2.34377,1.84816,10.2634,-0.677353,0.655974,-0.143625,0
2024-12-11 14:33:49.802,2.35334,1.84576,10.3472,-0.677353,0.655974,-0.143625,0
2024-12-11 14:33:49.804,2.33659,1.85773,10.3857,-0.633983,0.678575,-0.138739,0
2024-12-11 14:33:49.808,2.28395,1.89841,10.3759,-0.585726,0.700565,-0.137517,0
2024-12-11 14:33:49.809,2.23131,1.94626,10.3256,-0.53808,0.712782,-0.135684,0
2024-12-11 14:33:49.819,1.92951,2.07099,9.84706,-0.337111,0.72561,-0.138739,0
2024-12-11 14:33:49.821,1.84816,2.10209,9.68884,-0.288854,0.71095,-0.140571,0
2024-12-11 14:33:49.823,1.74766,2.14038,9.51416,-0.24243,0.690181,-0.142404,0
2024-12-11 14:33:49.826,1.6352,2.16909,9.30838,-0.196006,0.664525,-0.145458,0
2024-12-11 14:33:49.828,1.51795,2.21456,9.1023,-0.152635,0.628486,-0.148512,0
2024-12-11 14:33:49.830,1.41984,2.26002,8.90848,-0.11293,0.586337,-0.152177,0
2024-12-11 14:33:49.830,1.41984,2.26002,8.90848,-0.11293,0.586337,-0.152177,0
2024-12-11 14:33:49.835,1.21376,2.37248,8.52772,-0.0432938,0.489823,-0.158897,0
2024-12-11 14:33:49.835,1.21376,2.37248,8.52772,-0.0432938,0.489823,-0.158897,0
2024-12-11 14:33:49.837,1.11087,2.41316,8.36022,-0.0115297,0.432404,-0.162562,0
2024-12-11 14:33:49.840,1.02712,2.43709,8.21187,0.0165692,0.37254,-0.166838,0
2024-12-11 14:33:49.842,0.962513,2.46341,8.05843,0.0434465,0.311456,-0.169892,0
2024-12-11 14:33:49.844,0.890728,2.48495,7.93639,0.0434465,0.311456,-0.169892,0
2024-12-11 14:33:49.847,0.813859,2.5017,7.82632,0.0880384,0.187454,-0.176,0
2024-12-11 14:33:49.848,0.813859,2.5017,7.82632,0.0880384,0.187454,-0.176,0
2024-12-11 14:33:49.852,0.677468,2.57378,7.6349,0.131409,0.0677277,-0.182109,0
2024-12-11 14:33:49.852,0.677468,2.57378,7.6349,0.131409,0.0677277,-0.182109,0
2024-12-11 14:33:49.854,0.615255,2.60489,7.56282,0.14668,0.00786466,-0.183331,0
2024-12-11 14:33:49.855,0.615255,2.60489,7.56282,0.165616,-0.0544418,-0.185163,0
2024-12-11 14:33:49.857,0.557827,2.62164,7.49582,0.165616,-0.0544418,-0.185163,0
2024-12-11 14:33:49.859,0.495613,2.63599,7.43839,0.179665,-0.110029,-0.186996,0
2024-12-11 14:33:49.862,0.438186,2.65274,7.37139,0.203488,-0.210819,-0.183941,0
2024-12-11 14:33:49.863,0.407079,2.67906,7.32832,0.203488,-0.210819,-0.183941,0
2024-12-11 14:33:49.867,0.387936,2.70778,7.29243,0.21143,-0.254189,-0.18272,0
2024-12-11 14:33:49.868,0.385544,2.69821,7.23978,0.21876,-0.290229,-0.180276,0
2024-12-11 14:33:49.870,0.385544,2.69342,7.20628,0.226701,-0.32016,-0.177833,0
2024-12-11 14:33:49.873,0.414257,2.70299,7.18953,0.229144,-0.342151,-0.172946,0
2024-12-11 14:33:49.876,0.469292,2.70539,7.168,0.226701,-0.361698,-0.169281,0
2024-12-11 14:33:49.877,0.533899,2.70539,7.12493,0.226701,-0.361698,-0.169281,0
2024-12-11 14:33:49.881,0.591326,2.71256,7.07707,0.213873,-0.355589,-0.162562,0
2024-12-11 14:33:49.883,0.65354,2.72931,7.034,0.203488,-0.342762,-0.161951,0
2024-12-11 14:33:49.885,0.722932,2.72931,6.99781,0.203488,-0.342762,-0.161951,0
2024-12-11 14:33:49.888,0.785145,2.73171,6.9667,0.174779,-0.306722,-0.16134,0
2024-12-11 14:33:49.889,0.842872,2.74128,6.9356,0.174779,-0.306722,-0.16134,0
2024-12-11 14:33:49.894,0.914656,2.77238,6.92124,0.135684,-0.251135,-0.16134,0
2024-12-11 14:33:49.895,0.914656,2.77238,6.92124,0.116748,-0.219981,-0.165616,0
2024-12-11 14:33:49.896,0.948156,2.77478,6.9356,0.116748,-0.219981,-0.165616,0
2024-12-11 14:33:49.899,0.967299,2.76999,6.93081,0.0953685,-0.189439,-0.165616,0
2024-12-11 14:33:49.901,0.984048,2.76281,6.93081,0.0953685,-0.189439,-0.165616,0
2024-12-11 14:33:49.903,0.991227,2.74367,6.95713,0.0507767,-0.121635,-0.16867,0
2024-12-11 14:33:49.906,0.99362,2.71256,6.99063,0.0245102,-0.0904818,-0.167449,0
2024-12-11 14:33:49.908,0.998405,2.67906,7.01486,0.00129805,-0.0623828,-0.167449,0
2024-12-11 14:33:49.910,0.996012,2.65274,7.05793,-0.0231358,-0.0361163,-0.169281,0
2024-12-11 14:33:49.913,0.986441,2.64317,7.11296,-0.0481806,-0.013515,-0.170503,0
2024-12-11 14:33:49.915,0.964906,2.65274,7.18236,-0.0695602,0.00786466,-0.170503,0
2024-12-11 14:33:49.917,0.948156,2.67428,7.26611,-0.090329,0.0261901,-0.172946,0
2024-12-11 14:33:49.920,0.919442,2.70299,7.35464,-0.109876,0.0420721,-0.176,0
2024-12-11 14:33:49.923,0.885943,2.72931,7.45514,-0.125758,0.0518457,-0.180887,0
2024-12-11 14:33:49.925,0.8668,2.75324,7.55085,-0.137364,0.0579541,-0.183941,0
2024-12-11 14:33:49.927,0.842872,2.78435,7.63968,-0.149581,0.0622301,-0.191272,0
2024-12-11 14:33:49.930,0.828216,2.80349,7.73061,-0.163631,0.0542891,-0.20471,0
2024-12-11 14:33:49.932,0.842872,2.79153,7.81436,-0.163631,0.0542891,-0.20471,0
2024-12-11 14:33:49.935,0.869193,2.78674,7.88854,-0.176459,0.0274118,-0.221203,0
2024-12-11 14:33:49.937,0.888335,2.78913,7.95793,-0.178291,0.010308,-0.232809,0
2024-12-11 14:33:49.940,0.9003,2.79153,8.03929,-0.178291,0.010308,-0.232809,0
2024-12-11 14:33:49.946,0.924228,2.78196,8.3028,-0.17768,-0.0629936,-0.267627,0
2024-12-11 14:33:49.946,0.924228,2.78196,8.3028,-0.17768,-0.0629936,-0.267627,0
2024-12-11 14:33:49.948,0.931406,2.80349,8.39133,-0.174626,-0.0923143,-0.280455,0
2024-12-11 14:33:49.948,0.931406,2.80349,8.39133,-0.174626,-0.0923143,-0.280455,0
2024-12-11 14:33:49.950,0.924228,2.80828,8.48465,-0.17035,-0.122857,-0.292672,0
2024-12-11 14:33:49.954,0.924228,2.81306,8.56122,-0.161798,-0.185774,-0.321993,0
2024-12-11 14:33:49.955,0.945763,2.80828,8.62822,-0.161798,-0.185774,-0.321993,0
2024-12-11 14:33:49.957,0.97687,2.80349,8.69283,-0.157522,-0.219981,-0.338486,0
2024-12-11 14:33:49.961,0.998405,2.79871,8.75055,-0.153857,-0.2548,-0.355589,0
2024-12-11 14:33:49.962,1.00558,2.79153,8.81516,-0.14897,-0.289618,-0.375137,0
2024-12-11 14:33:49.965,0.99362,2.77478,8.87976,-0.143473,-0.32688,-0.391019,0
2024-12-11 14:33:49.967,0.964906,2.75563,8.94916,-0.140419,-0.358033,-0.411177,0
2024-12-11 14:33:49.969,0.907478,2.74367,9.03769,-0.137975,-0.38491,-0.424615,0
2024-12-11 14:33:49.973,0.837787,2.71256,9.10708,-0.128202,-0.43561,-0.448438,0
2024-12-11 14:33:49.974,0.76361,2.68146,9.1693,-0.128202,-0.43561,-0.448438,0
2024-12-11 14:33:49.980,0.627219,2.63599,9.36581,-0.122093,-0.47104,-0.461877,0
2024-12-11 14:33:49.984,0.478864,2.57857,9.48066,-0.118428,-0.4857,-0.464931,0
2024-12-11 14:33:49.988,0.277567,2.56182,9.64577,-0.109876,-0.477759,-0.455158,0
2024-12-11 14:33:49.990,0.167498,2.55942,9.70798,-0.107433,-0.466764,-0.443551,0
2024-12-11 14:33:49.990,0.167498,2.55942,9.70798,-0.107433,-0.466764,-0.443551,0
2024-12-11 14:33:49.993,0.0741775,2.57617,9.78694,-0.101935,-0.452103,-0.430113,0
2024-12-11 14:33:49.993,0.0741775,2.57617,9.78694,-0.101935,-0.452103,-0.430113,0
2024-12-11 14:33:49.994,0.0741775,2.57617,9.78694,-0.101935,-0.452103,-0.430113,0
2024-12-11 14:33:49.995,-0.0287139,2.59532,9.85185,-0.100713,-0.430724,-0.41362,0
2024-12-11 14:33:49.998,-0.102891,2.61207,9.91646,-0.0976592,-0.407511,-0.393462,0
2024-12-11 14:33:50.000,-0.155533,2.63839,10.005,-0.0872748,-0.380023,-0.372082,0
2024-12-11 14:33:50.005,-0.224925,2.66231,10.139,-0.0707819,-0.312219,-0.323825,0
2024-12-11 14:33:50.006,-0.294616,2.7006,10.139,-0.0616192,-0.275568,-0.298781,0
2024-12-11 14:33:50.008,-0.349651,2.76281,10.1653,-0.0616192,-0.275568,-0.298781,0
2024-12-11 14:33:50.009,-0.409472,2.81306,10.1533,-0.0518457,-0.235863,-0.272514,0
2024-12-11 14:33:50.012,-0.4669,2.85853,10.127,-0.0420721,-0.195547,-0.245637,0
2024-12-11 14:33:50.014,-0.514756,2.91117,10.06,-0.0359636,-0.152177,-0.216927,0
2024-12-11 14:33:50.017,-0.550648,2.97099,9.95713,-0.0347419,-0.108807,-0.188828,0
2024-12-11 14:33:50.019,-0.562612,3.02363,9.83749,-0.030466,-0.0642153,-0.159507,0
2024-12-11 14:33:50.021,-0.56022,3.07149,9.72234,-0.0322986,-0.0251211,-0.132019,0
2024-12-11 14:33:50.023,-0.533899,3.13879,9.61227,-0.0371853,0.0127514,-0.10392,0
2024-12-11 14:33:50.026,-0.502792,3.201,9.48545,-0.0475697,0.0414613,-0.0788757,0
2024-12-11 14:33:50.029,-0.445364,3.26082,9.36581,-0.0573433,0.0671168,-0.057496,0
2024-12-11 14:33:50.030,-0.35683,3.33739,9.2677,-0.0701711,0.0878856,-0.0379489,0
2024-12-11 14:33:50.033,-0.258425,3.41396,9.19562,-0.0872748,0.101935,-0.021456,0
2024-12-11 14:33:50.035,-0.145962,3.49292,9.13819,-0.103157,0.111098,-0.0104608,0
2024-12-11 14:33:50.040,0.0789631,3.61974,9.05444,-0.139197,0.116595,0.00114534,0
2024-12-11 14:33:50.041,0.0789631,3.61974,9.05444,-0.158744,0.115985,-0.00374144,0
2024-12-11 14:33:50.042,0.189033,3.68226,9.0353,-0.158744,0.115985,-0.00374144,0
2024-12-11 14:33:50.045,0.285045,3.7349,9.01616,-0.177069,0.11232,-0.00862822,0
2024-12-11 14:33:50.048,0.378365,3.7995,8.99941,-0.209444,0.0952158,-0.0281753,0
2024-12-11 14:33:50.050,0.471685,3.85693,8.98983,-0.221661,0.0848314,-0.0434465,0
2024-12-11 14:33:50.053,0.536291,3.9,8.98026,-0.238154,0.0738362,-0.0599394,0
2024-12-11 14:33:50.055,0.593719,3.9335,8.98026,-0.253425,0.0579541,-0.0782648,0
2024-12-11 14:33:50.057,0.641576,3.95504,8.99941,-0.253425,0.0579541,-0.0782648,0
2024-12-11 14:33:50.059,0.677468,3.967,9.00898,-0.268086,0.0377962,-0.0996445,0
2024-12-11 14:33:50.061,0.691825,3.96939,9.0353,-0.279081,0.0170274,-0.122246,0
2024-12-11 14:33:50.063,0.667897,3.95504,9.08076,-0.292519,-0.00618483,-0.143015,0
2024-12-11 14:33:50.066,0.63679,3.9335,9.1358,-0.304736,-0.0318404,-0.163783,0
2024-12-11 14:33:50.068,0.62004,3.90479,9.20758,-0.312677,-0.0581068,-0.186385,0
2024-12-11 14:33:50.071,0.572184,3.8689,9.28924,-0.318786,-0.0898709,-0.208375,0
2024-12-11 14:33:50.073,0.495613,3.833,9.38256,-0.32184,-0.115526,-0.226701,0
2024-12-11 14:33:50.075,0.409472,3.7684,9.49502,-0.324894,-0.141182,-0.240139,0
2024-12-11 14:33:50.078,0.32333,3.70618,9.60509,-0.323673,-0.163173,-0.251745,0
2024-12-11 14:33:50.081,0.232104,3.64606,9.73191,-0.318175,-0.180887,-0.259686,0
2024-12-11 14:33:50.082,0.141177,3.56471,9.87578,-0.305347,-0.19738,-0.265795,0
2024-12-11 14:33:50.085,0.0646062,3.46421,10.0074,-0.291909,-0.210819,-0.267017,0
2024-12-11 14:33:50.088,-0.0119641,3.37328,10.1438,-0.27847,-0.220592,-0.262741,0
2024-12-11 14:33:50.089,-0.0909273,3.28714,10.2802,-0.258923,-0.227312,-0.259076,0
2024-12-11 14:33:50.092,-0.148355,3.20339,10.4097,-0.236932,-0.232198,-0.251135,0
2024-12-11 14:33:50.094,-0.189033,3.12921,10.5317,-0.210666,-0.232198,-0.241361,0
2024-12-11 14:33:50.096,-0.241675,3.05713,10.625,-0.181345,-0.228533,-0.228533,0
2024-12-11 14:33:50.099,-0.282652,2.97338,10.6944,-0.149581,-0.221814,-0.213873,0
2024-12-11 14:33:50.102,-0.308973,2.89442,10.7495,-0.0860531,-0.201656,-0.179665,0
2024-12-11 14:33:50.103,-0.337687,2.82263,10.7758,-0.0860531,-0.201656,-0.179665,0
2024-12-11 14:33:50.106,-0.354437,2.75563,10.7782,-0.050624,-0.190661,-0.161951,0
2024-12-11 14:33:50.111,-0.392722,2.70539,10.716,0.0147367,-0.161951,-0.122246,0
2024-12-11 14:33:50.112,-0.392722,2.70539,10.716,0.0452791,-0.14668,-0.102088,0
2024-12-11 14:33:50.114,-0.419043,2.68146,10.6226,0.073378,-0.127133,-0.0794865,0
2024-12-11 14:33:50.115,-0.447757,2.66949,10.5054,0.073378,-0.127133,-0.0794865,0
2024-12-11 14:33:50.120,-0.471685,2.68385,10.2323,0.121635,-0.0898709,-0.037338,0
2024-12-11 14:33:50.122,-0.488435,2.67667,10.0648,0.13996,-0.0715455,-0.0153475,0
2024-12-11 14:33:50.125,-0.486042,2.70539,9.87338,0.154621,-0.0532201,0.00236703,0
2024-12-11 14:33:50.127,-0.457328,2.75085,9.68166,0.154621,-0.0532201,0.00236703,0
2024-12-11 14:33:50.127,-0.457328,2.75085,9.68166,0.154621,-0.0532201,0.00236703,0
2024-12-11 14:33:50.134,-0.270389,2.84895,9.18126,0.166227,0.0261901,0.066506,0
2024-12-11 14:33:50.135,-0.270389,2.84895,9.18126,0.158897,0.0457372,0.0781121,0
2024-12-11 14:33:50.136,-0.184247,2.89681,9.03291,0.158897,0.0457372,0.0781121,0
2024-12-11 14:33:50.137,-0.184247,2.89681,9.03291,0.158897,0.0457372,0.0781121,0
2024-12-11 14:33:50.139,-0.107677,2.97099,8.89173,0.149123,0.0701711,0.0878856,0
2024-12-11 14:33:50.141,-0.0646062,3.03799,8.7673,0.133241,0.0891073,0.0939941,0
2024-12-11 14:33:50.143,-0.0239282,3.08584,8.65454,0.119192,0.111098,0.101324,0
2024-12-11 14:33:50.146,0.0215354,3.13639,8.5349,0.102699,0.131867,0.104379,0
2024-12-11 14:33:50.148,0.0789631,3.18186,8.45115,0.0862058,0.150803,0.106211,0
2024-12-11 14:33:50.151,0.138784,3.22253,8.38415,0.0678804,0.166685,0.103768,0
2024-12-11 14:33:50.154,0.174676,3.26082,8.31476,0.0275645,0.193562,0.0952158,0
2024-12-11 14:33:50.156,0.18664,3.30389,8.25015,0.0275645,0.193562,0.0952158,0
2024-12-11 14:33:50.158,0.191426,3.34935,8.1999,0.00679568,0.204557,0.090329,0
2024-12-11 14:33:50.160,0.181855,3.39721,8.15683,-0.0096972,0.212498,0.082388,0
2024-12-11 14:33:50.163,0.177069,3.43789,8.12064,-0.0286335,0.215553,0.0762796,0
2024-12-11 14:33:50.166,0.181855,3.46421,8.1015,-0.0487914,0.217996,0.0652843,0
2024-12-11 14:33:50.167,0.18664,3.48574,8.09432,-0.0652843,0.217385,0.0555107,0
2024-12-11 14:33:50.169,0.191426,3.48814,8.11107,-0.0811663,0.214331,0.0475697,0
2024-12-11 14:33:50.172,0.193819,3.48574,8.14248,-0.0970484,0.207001,0.0414613,0
2024-12-11 14:33:50.174,0.196211,3.48574,8.18555,-0.108654,0.201503,0.0280226,0
2024-12-11 14:33:50.176,0.179462,3.49292,8.24298,-0.11965,0.192951,0.0194708,0
2024-12-11 14:33:50.181,0.100499,3.45942,8.37697,-0.133699,0.167907,-0.0019089,0
2024-12-11 14:33:50.181,0.100499,3.45942,8.37697,-0.133699,0.167907,-0.0019089,0
2024-12-11 14:33:50.185,0.0717847,3.44746,8.44397,-0.138586,0.154468,-0.00801737,0
2024-12-11 14:33:50.186,0.040678,3.45224,8.52293,-0.14164,0.139197,-0.0159584,0
2024-12-11 14:33:50.188,0.00957129,3.45464,8.61386,-0.141029,0.123315,-0.0245102,0
2024-12-11 14:33:50.191,-0.0143569,3.44507,8.70509,-0.139197,0.106211,-0.0312296,0
2024-12-11 14:33:50.193,-0.0430708,3.4355,8.81277,-0.135532,0.0878856,-0.0355055,0
2024-12-11 14:33:50.196,-0.0622134,3.42592,8.91805,-0.130034,0.0695602,-0.0391706,0
2024-12-11 14:33:50.198,-0.0789631,3.402,9.01855,-0.130034,0.0695602,-0.0391706,0
2024-12-11 14:33:50.200,-0.0909273,3.37807,9.09273,-0.114763,0.0390179,-0.0471116,0
2024-12-11 14:33:50.202,-0.105284,3.37089,9.15973,-0.104989,0.0280226,-0.0483333,0
2024-12-11 14:33:50.206,-0.114855,3.34457,9.24108,-0.094605,0.0194708,-0.0483333,0
2024-12-11 14:33:50.207,-0.114855,3.32782,9.34427,-0.094605,0.0194708,-0.0483333,0
2024-12-11 14:33:50.210,-0.129212,3.3326,9.43281,-0.0732253,0.00786466,-0.0446682,0
2024-12-11 14:33:50.212,-0.136391,3.32543,9.47588,-0.0597867,0.00725381,-0.0397814,0
2024-12-11 14:33:50.214,-0.12682,3.31346,9.50938,-0.0487914,0.00603212,-0.0367272,0
2024-12-11 14:33:50.217,-0.131605,3.30868,9.52373,-0.0359636,0.00542127,-0.0312296,0
2024-12-11 14:33:50.219,-0.129212,3.30868,9.51895,-0.0280226,0.00786466,-0.0245102,0
2024-12-11 14:33:50.222,-0.114855,3.31825,9.50938,-0.0109189,0.0139731,-0.0153475,0
2024-12-11 14:33:50.225,-0.114855,3.31825,9.49023,-0.0109189,0.0139731,-0.0153475,0
2024-12-11 14:33:50.226,-0.107677,3.31825,9.45434,-0.00236703,0.0188599,-0.0110716,0
2024-12-11 14:33:50.228,-0.0957129,3.33978,9.40409,7.63559e-05,0.0268009,-0.00740652,0
2024-12-11 14:33:50.232,-0.0693919,3.35414,9.35384,-0.00114534,0.0487914,-0.000687203,0
2024-12-11 14:33:50.233,-0.0358923,3.36371,9.28684,-0.00114534,0.0487914,-0.000687203,0
2024-12-11 14:33:50.235,0.00239282,3.38764,9.20758,-0.00358873,0.0622301,0.00419957,0
2024-12-11 14:33:50.238,0.0502493,3.41396,9.11905,-0.00664296,0.0781121,0.00358873,0
2024-12-11 14:33:50.240,0.0909273,3.44507,9.0353,-0.014584,0.094605,0.00358873,0
2024-12-11 14:33:50.245,0.165105,3.47139,8.89891,-0.0359636,0.124536,0.00114534,0
2024-12-11 14:33:50.245,0.165105,3.47139,8.89891,-0.0359636,0.124536,0.00114534,0
2024-12-11 14:33:50.247,0.174676,3.48096,8.84626,-0.050624,0.137364,-0.0019089,0
2024-12-11 14:33:50.250,0.153141,3.4666,8.77209,-0.0671168,0.152025,-0.00313059,0
2024-12-11 14:33:50.252,0.12682,3.45224,8.68804,-0.0842206,0.163631,-0.00313059,0
2024-12-11 14:33:50.255,0.0957129,3.45942,8.63061,-0.1056,0.173404,-0.00435229,0
2024-12-11 14:33:50.257,0.0478565,3.46421,8.57797,-0.128202,0.178291,-0.00129805,0
2024-12-11 14:33:50.259,0.00717847,3.4666,8.51336,-0.14836,0.1844,0.00419957,0
2024-12-11 14:33:50.262,-0.0478565,3.46899,8.45833,-0.174626,0.182567,0.0127514,0
2024-12-11 14:33:50.264,-0.0957129,3.45942,8.42244,-0.200892,0.17768,0.0182491,0
2024-12-11 14:33:50.266,-0.117248,3.45224,8.42004,-0.228381,0.17035,0.0255792,0
2024-12-11 14:33:50.269,-0.117248,3.45464,8.46551,-0.284578,0.144084,0.0445155,0
2024-12-11 14:33:50.271,-0.0981057,3.47378,8.55643,-0.284578,0.144084,0.0445155,0
2024-12-11 14:33:50.273,-0.0358923,3.49292,8.6665,-0.306569,0.128812,0.0518457,0
2024-12-11 14:33:50.275,0.0646062,3.52642,8.79841,-0.328559,0.111098,0.0616192,0
2024-12-11 14:33:50.278,0.16989,3.56471,8.95873,-0.345663,0.094605,0.066506,0
2024-12-11 14:33:50.280,0.285045,3.58385,9.13101,-0.35788,0.0781121,0.0701711,0
2024-12-11 14:33:50.282,0.387936,3.58624,9.31077,-0.365821,0.0652843,0.0732253,0
2024-12-11 14:33:50.285,0.469292,3.6006,9.47827,-0.374373,0.0518457,0.0750579,0
2024-12-11 14:33:50.288,0.538684,3.61256,9.6362,-0.377427,0.0213033,0.0726145,0
2024-12-11 14:33:50.290,0.608076,3.60778,9.79652,-0.377427,0.0213033,0.0726145,0
2024-12-11 14:33:50.293,0.675075,3.60778,9.94517,-0.373762,0.00664296,0.0732253,0
2024-12-11 14:33:50.294,0.732503,3.6006,10.084,-0.370708,-0.00923906,0.0707819,0
2024-12-11 14:33:50.297,0.782752,3.59581,10.206,-0.359713,-0.0220669,0.0701711,0
2024-12-11 14:33:50.299,0.833001,3.58864,10.3041,-0.359713,-0.0220669,0.0701711,0
2024-12-11 14:33:50.301,0.912264,3.58146,10.3881,-0.33589,-0.0477224,0.0701711,0
2024-12-11 14:33:50.304,0.972084,3.57906,10.4432,-0.324894,-0.0532201,0.0677277,0
2024-12-11 14:33:50.307,1.01276,3.57189,10.4456,-0.29985,-0.0636045,0.0610084,0
2024-12-11 14:33:50.308,1.04626,3.5671,10.4216,-0.29985,-0.0636045,0.0610084,0
2024-12-11 14:33:50.311,1.05583,3.55753,10.3953,-0.288854,-0.0660479,0.0597867,0
2024-12-11 14:33:50.313,1.03669,3.55274,10.3807,-0.279081,-0.0642153,0.0555107,0
2024-12-11 14:33:50.316,1.0008,3.57189,10.3591,-0.269307,-0.0617719,0.0524565,0
2024-12-11 14:33:50.318,0.952942,3.57428,10.3184,-0.261977,-0.057496,0.0518457,0
2024-12-11 14:33:50.320,0.895514,3.57667,10.2778,-0.25648,-0.0507767,0.0555107,0
2024-12-11 14:33:50.322,0.842872,3.58624,10.2395,-0.250982,-0.0422248,0.0561216,0
2024-12-11 14:33:50.326,0.787538,3.57667,10.2084,-0.246095,-0.0196235,0.0658951,0
2024-12-11 14:33:50.328,0.737288,3.56231,10.1749,-0.246095,-0.0196235,0.0658951,0
2024-12-11 14:33:50.330,0.699003,3.55514,10.151,-0.24243,-0.00374144,0.0726145,0
2024-12-11 14:33:50.332,0.667897,3.53839,10.1533,-0.239987,0.0109189,0.082388,0
2024-12-11 14:33:50.337,0.588933,3.53599,10.1438,-0.22777,0.0536782,0.100103,0
2024-12-11 14:33:50.338,0.588933,3.53599,10.1438,-0.22777,0.0536782,0.100103,0
2024-12-11 14:33:50.339,0.56022,3.54796,10.1294,-0.223494,0.0762796,0.111709,0
2024-12-11 14:33:50.342,0.541077,3.56949,10.0959,-0.217996,0.0988809,0.123926,0
2024-12-11 14:33:50.347,0.514756,3.61496,10.0002,-0.202114,0.147749,0.143473,0
2024-12-11 14:33:50.347,0.514756,3.61496,10.0002,-0.202114,0.147749,0.143473,0
2024-12-11 14:33:50.348,0.507577,3.63171,9.94995,-0.202114,0.147749,0.143473,0
2024-12-11 14:33:50.353,0.495613,3.66311,9.81326,-0.180734,0.209444,0.173404,0
2024-12-11 14:33:50.354,0.495613,3.66311,9.81326,-0.172793,0.224715,0.181956,0
2024-12-11 14:33:50.355,0.474078,3.70379,9.74866,-0.172793,0.224715,0.181956,0
2024-12-11 14:33:50.360,0.440578,3.766,9.6003,-0.156911,0.247928,0.194784,0
2024-12-11 14:33:50.362,0.431007,3.7995,9.5357,-0.153246,0.251593,0.201503,0
2024-12-11 14:33:50.363,0.431007,3.7995,9.5357,-0.153246,0.251593,0.201503,0
2024-12-11 14:33:50.367,0.428614,3.85932,9.42323,-0.142862,0.25648,0.210666,0
2024-12-11 14:33:50.367,0.428614,3.85932,9.42323,-0.142862,0.25648,0.210666,0
2024-12-11 14:33:50.371,0.428614,3.8689,9.36102,-0.124536,0.248538,0.21372,0
2024-12-11 14:33:50.379,0.411865,3.9335,9.19083,-0.106822,0.217385,0.214331,0
2024-12-11 14:33:50.379,0.411865,3.9335,9.19083,-0.106822,0.217385,0.214331,0
2024-12-11 14:33:50.379,0.411865,3.9335,9.19083,-0.106822,0.217385,0.214331,0
2024-12-11 14:33:50.380,0.411865,3.9335,9.19083,-0.0988809,0.202725,0.21372,0
2024-12-11 14:33:50.382,0.395115,3.93111,9.15494,-0.0933833,0.183789,0.213109,0
2024-12-11 14:33:50.384,0.395115,3.92154,9.11905,-0.0933833,0.183789,0.213109,0
2024-12-11 14:33:50.386,0.419043,3.91675,9.09033,-0.086664,0.162409,0.211277,0
2024-12-11 14:33:50.388,0.438186,3.93829,9.08076,-0.0836097,0.140419,0.208833,0
2024-12-11 14:33:50.391,0.481256,3.96939,9.08076,-0.0781121,0.116595,0.205168,0
2024-12-11 14:33:50.393,0.545863,3.98136,9.08794,-0.0750579,0.0927724,0.200282,0
2024-12-11 14:33:50.396,0.632004,3.99093,9.08794,-0.0689494,0.0695602,0.194173,0
2024-12-11 14:33:50.399,0.739681,4.00289,9.09751,-0.0634518,0.0481806,0.1844,0
2024-12-11 14:33:50.400,0.837787,4.01486,9.12144,-0.0597867,0.0268009,0.173404,0
2024-12-11 14:33:50.404,0.912264,4.03639,9.13819,-0.0494023,-0.0153475,0.144084,0
2024-12-11 14:33:50.406,0.972084,4.05793,9.1669,-0.0494023,-0.0153475,0.144084,0
2024-12-11 14:33:50.407,1.03669,4.0675,9.18844,-0.0414613,-0.0330621,0.126369,0
2024-12-11 14:33:50.411,1.05583,4.07707,9.17887,-0.0353528,-0.0666587,0.090329,0
2024-12-11 14:33:50.413,1.07737,4.07707,9.17408,-0.0353528,-0.0666587,0.090329,0
2024-12-11 14:33:50.415,1.10608,4.07707,9.1693,-0.0335202,-0.0923143,0.0561216,0
2024-12-11 14:33:50.418,1.11326,4.06989,9.15255,-0.0353528,-0.0990336,0.0396287,0
2024-12-11 14:33:50.420,1.11326,4.03879,9.14058,-0.0353528,-0.0990336,0.0396287,0
2024-12-11 14:33:50.421,1.11326,4.01246,9.13101,-0.038407,-0.10331,0.0237467,0
2024-12-11 14:33:50.424,1.12044,3.99332,9.12623,-0.0420721,-0.104531,0.00542127,0
2024-12-11 14:33:50.426,1.13001,3.97418,9.14297,-0.0469589,-0.102088,-0.00984991,0
2024-12-11 14:33:50.428,1.13719,3.97657,9.14537,-0.0518457,-0.0972011,-0.0238994,0
2024-12-11 14:33:50.432,1.13958,3.97657,9.14058,-0.0579541,-0.0874275,-0.0397814,0
2024-12-11 14:33:50.434,1.11326,3.95743,9.13819,-0.0768904,-0.0660479,-0.065437,0
2024-12-11 14:33:50.435,1.0654,3.92872,9.14776,-0.0768904,-0.0660479,-0.065437,0
2024-12-11 14:33:50.438,1.01994,3.89761,9.1669,-0.0854423,-0.0519984,-0.0752106,0
2024-12-11 14:33:50.441,0.955334,3.8689,9.21715,-0.108654,-0.0232886,-0.0941468,0
2024-12-11 14:33:50.443,0.888335,3.83061,9.28445,-0.108654,-0.0232886,-0.0941468,0
2024-12-11 14:33:50.445,0.816252,3.78754,9.34906,-0.120261,-0.00984991,-0.101477,0
2024-12-11 14:33:50.447,0.718146,3.74925,9.42563,-0.126369,0.00542127,-0.106364,0
2024-12-11 14:33:50.450,0.612862,3.71336,9.51416,-0.126369,0.00542127,-0.106364,0
2024-12-11 14:33:50.452,0.519542,3.67747,9.6027,-0.139808,0.0365745,-0.105753,0
2024-12-11 14:33:50.454,0.442971,3.65354,9.67448,-0.143473,0.0561216,-0.105142,0
2024-12-11 14:33:50.457,0.368794,3.62453,9.72952,-0.145916,0.0707819,-0.0990336,0
2024-12-11 14:33:50.459,0.27996,3.59821,9.76302,-0.146527,0.0842206,-0.093536,0
2024-12-11 14:33:50.461,0.210568,3.57906,9.79173,-0.145916,0.0952158,-0.0843733,0
2024-12-11 14:33:50.465,0.153141,3.56471,9.82792,-0.145305,0.109265,-0.0672696,0
2024-12-11 14:33:50.466,0.114855,3.55274,9.85903,-0.145305,0.109265,-0.0672696,0
2024-12-11 14:33:50.468,0.081356,3.53839,9.87578,-0.145305,0.114152,-0.0556635,0
2024-12-11 14:33:50.471,0.0454636,3.51924,9.87817,-0.144694,0.115374,-0.0465007,0
2024-12-11 14:33:50.474,0.0454636,3.50967,9.89492,-0.140419,0.113541,-0.0269536,0
2024-12-11 14:33:50.475,0.0526421,3.51685,9.92124,-0.140419,0.113541,-0.0269536,0
2024-12-11 14:33:50.478,0.0550349,3.50967,9.94278,-0.135532,0.114152,-0.0171801,0
2024-12-11 14:33:50.481,0.0693919,3.48574,9.9691,-0.131256,0.109265,-0.00923906,0
2024-12-11 14:33:50.483,0.0741775,3.48814,10.0002,-0.12698,0.106211,-7.63559e-05,0
2024-12-11 14:33:50.485,0.0837488,3.49532,10.0217,-0.120261,0.100103,0.00725381,0
2024-12-11 14:33:50.487,0.100499,3.49053,10.0505,-0.114152,0.0933833,0.0151948,0
2024-12-11 14:33:50.490,0.102891,3.50489,10.0816,-0.106822,0.0854423,0.0219141,0
2024-12-11 14:33:50.492,0.112463,3.5336,10.1151,-0.0970484,0.0787229,0.0286335,0
2024-12-11 14:33:50.495,0.12682,3.55274,10.1486,-0.0878856,0.0707819,0.0359636,0
2024-12-11 14:33:50.497,0.150748,3.57428,10.1653,-0.074447,0.0652843,0.0439046,0
2024-12-11 14:33:50.499,0.174676,3.59342,10.1677,-0.0634518,0.0597867,0.0524565,0
2024-12-11 14:33:50.502,0.212961,3.61974,10.1557,-0.0518457,0.0524565,0.058565,0
2024-12-11 14:33:50.505,0.265603,3.63889,10.127,-0.0335202,0.042683,0.0683385,0
2024-12-11 14:33:50.506,0.320937,3.64876,10.0935,-0.0335202,0.042683,0.0683385,0
2024-12-11 14:33:50.511,0.423829,3.71575,10.0337,-0.0109189,0.0322986,0.0720036,0
2024-12-11 14:33:50.512,0.423829,3.71575,10.0337,-0.00481042,0.0274118,0.0756687,0
2024-12-11 14:33:50.513,0.4669,3.74686,10.005,-0.00481042,0.0274118,0.0756687,0
2024-12-11 14:33:50.517,0.493221,3.78275,9.96431,0.0116825,0.0268009,0.0762796,0
2024-12-11 14:33:50.518,0.507577,3.8354,9.92363,0.0116825,0.0268009,0.0762796,0
2024-12-11 14:33:50.520,0.514756,3.88804,9.89013,0.0202343,0.0292443,0.0768904,0
2024-12-11 14:33:50.523,0.507577,3.93589,9.86621,0.0263428,0.0329094,0.0756687,0
2024-12-11 14:33:50.525,0.498006,3.97897,9.83988,0.0355055,0.0371853,0.0762796,0
2024-12-11 14:33:50.527,0.488435,4.02921,9.78216,0.0440574,0.042683,0.0762796,0
2024-12-11 14:33:50.531,0.481256,4.06511,9.71516,0.0593285,0.0536782,0.0750579,0
2024-12-11 14:33:50.532,0.4669,4.09382,9.65773,0.0593285,0.0536782,0.0750579,0
2024-12-11 14:33:50.534,0.421436,4.1345,9.59073,0.0660479,0.0573433,0.0787229,0
2024-12-11 14:33:50.538,0.383151,4.14886,9.51416,0.0660479,0.0573433,0.0787229,0
2024-12-11 14:33:50.541,0.354437,4.19432,9.38256,0.0782648,0.0622301,0.0799446,0
2024-12-11 14:33:50.542,0.313759,4.19432,9.38256,0.0782648,0.0622301,0.0799446,0
2024-12-11 14:33:50.545,0.260818,4.20389,9.32513,0.0807082,0.0591758,0.0836097,0
2024-12-11 14:33:50.546,0.217747,4.22572,9.27966,0.0825407,0.0579541,0.0860531,0
2024-12-11 14:33:50.549,0.205783,4.23769,9.2363,0.0862058,0.0536782,0.0909399,0
2024-12-11 14:33:50.552,0.189033,4.23769,9.20758,0.0886492,0.0414613,0.0988809,0
2024-12-11 14:33:50.554,0.189033,4.24487,9.19562,0.0898709,0.0359636,0.103768,0
2024-12-11 14:33:50.556,0.196211,4.24487,9.1669,0.0898709,0.0359636,0.103768,0
2024-12-11 14:33:50.558,0.200997,4.23769,9.12623,0.0904818,0.0249684,0.111709,0
2024-12-11 14:33:50.560,0.217747,4.25205,9.10708,0.0904818,0.0164165,0.114152,0
2024-12-11 14:33:50.564,0.239282,4.25444,9.1023,0.0941468,0.010308,0.117817,0
2024-12-11 14:33:50.565,0.265603,4.25683,9.0999,0.0941468,0.00114534,0.122093,0
2024-12-11 14:33:50.567,0.289831,4.27837,9.0999,0.0965902,-0.00679568,0.123926,0
2024-12-11 14:33:50.570,0.328116,4.29033,9.09512,0.0996445,-0.0129041,0.126369,0
2024-12-11 14:33:50.572,0.373579,4.29751,9.0999,0.100866,-0.0190126,0.12698,0
2024-12-11 14:33:50.574,0.404686,4.31665,9.09033,0.105142,-0.0238994,0.127591,0
2024-12-11 14:33:50.577,0.45015,4.31426,9.0688,0.105142,-0.0263428,0.130645,0
2024-12-11 14:33:50.579,0.495613,4.30947,9.05923,0.108807,-0.0318404,0.128202,0
2024-12-11 14:33:50.582,0.521934,4.31665,9.03291,0.108196,-0.0342838,0.126369,0
2024-12-11 14:33:50.584,0.538684,4.30708,8.99941,0.111861,-0.037338,0.124536,0
2024-12-11 14:33:50.586,0.579362,4.30708,8.96351,0.109418,-0.0403923,0.120871,0
2024-12-11 14:33:50.589,0.622433,4.31905,8.92284,0.105753,-0.0428357,0.117817,0
2024-12-11 14:33:50.592,0.624826,4.31426,8.88216,0.101477,-0.0446682,0.113541,0
2024-12-11 14:33:50.593,0.629611,4.30947,8.81994,0.101477,-0.0446682,0.113541,0
2024-12-11 14:33:50.596,0.641576,4.30708,8.75773,0.0959794,-0.0434465,0.111098,0
2024-12-11 14:33:50.598,0.651147,4.2999,8.71466,0.0959794,-0.0434465,0.111098,0
2024-12-11 14:33:50.601,0.684646,4.29033,8.66172,0.0703238,-0.0434465,0.103157,0
2024-12-11 14:33:50.603,0.734896,4.28076,8.60668,0.0703238,-0.0434465,0.103157,0
2024-12-11 14:33:50.605,0.794716,4.27597,8.5684,0.0562743,-0.041614,0.100103,0
2024-12-11 14:33:50.610,0.919442,4.26162,8.52772,0.0330621,-0.0348946,0.086664,0
2024-12-11 14:33:50.611,0.919442,4.26162,8.52772,0.0196235,-0.0281753,0.0781121,0
2024-12-11 14:33:50.612,0.96012,4.25922,8.51576,0.0196235,-0.0281753,0.0781121,0
2024-12-11 14:33:50.619,1.06301,4.2688,8.51576,-0.014584,-0.00374144,0.0500131,0
2024-12-11 14:33:50.620,1.06301,4.2688,8.51576,-0.0274118,0.00542127,0.0402396,0
2024-12-11 14:33:50.621,1.06301,4.2688,8.51576,-0.0274118,0.00542127,0.0402396,0
2024-12-11 14:33:50.621,1.07019,4.25922,8.51576,-0.0274118,0.00542127,0.0402396,0
2024-12-11 14:33:50.624,1.06301,4.25205,8.49901,-0.0353528,0.0151948,0.0274118,0
2024-12-11 14:33:50.626,1.03669,4.24247,8.47269,-0.046348,0.0237467,0.0176382,0
2024-12-11 14:33:50.629,0.99362,4.22333,8.46311,-0.0603975,0.0286335,0.00786466,0
2024-12-11 14:33:50.632,0.940978,4.2015,8.4679,-0.0817772,0.0396287,-0.00923906,0
2024-12-11 14:33:50.633,0.873978,4.17757,8.47269,-0.0817772,0.0396287,-0.00923906,0
2024-12-11 14:33:50.636,0.797109,4.14646,8.47747,-0.090329,0.0414613,-0.0159584,0
2024-12-11 14:33:50.638,0.739681,4.11775,8.49183,-0.0994917,0.0432938,-0.0208452,0
2024-12-11 14:33:50.643,0.600898,4.05075,8.53969,-0.114763,0.0371853,-0.0281753,0
2024-12-11 14:33:50.643,0.600898,4.05075,8.53969,-0.114763,0.0371853,-0.0281753,0
2024-12-11 14:33:50.645,0.538684,4.02682,8.59472,-0.120261,0.0322986,-0.0287862,0
2024-12-11 14:33:50.647,0.471685,4.00529,8.64736,-0.122093,0.0261901,-0.029397,0
2024-12-11 14:33:50.651,0.397508,3.98375,8.69283,-0.124536,0.0121406,-0.0245102,0
2024-12-11 14:33:50.652,0.330509,3.967,8.74098,-0.124536,0.0121406,-0.0245102,0
2024-12-11 14:33:50.654,0.289831,3.95264,8.77687,-0.119039,0.00542127,-0.0208452,0
2024-12-11 14:33:50.657,0.258425,3.92872,8.81755,-0.119039,-0.00129805,-0.0165692,0
2024-12-11 14:33:50.660,0.244068,3.89522,8.85584,-0.111709,-0.0232886,-0.0104608,0
2024-12-11 14:33:50.662,0.246461,3.86172,8.89412,-0.111709,-0.0232886,-0.0104608,0
2024-12-11 14:33:50.665,0.239282,3.82822,8.93719,-0.102546,-0.0507767,-0.00435229,0
2024-12-11 14:33:50.666,0.232104,3.8019,8.95155,-0.102546,-0.0507767,-0.00435229,0
2024-12-11 14:33:50.670,0.244068,3.78754,8.94676,-0.0964375,-0.0666587,-0.0019089,0
2024-12-11 14:33:50.671,0.244068,3.77557,8.96351,-0.0878856,-0.0807082,-0.000687203,0
2024-12-11 14:33:50.673,0.253639,3.766,8.98744,-0.082388,-0.093536,0.00297788,0
2024-12-11 14:33:50.677,0.287438,3.75404,8.99941,-0.0695602,-0.120413,0.00542127,0
2024-12-11 14:33:50.678,0.325723,3.73729,8.99462,-0.0695602,-0.120413,0.00542127,0
2024-12-11 14:33:50.680,0.359223,3.71575,8.98266,-0.0646735,-0.129576,0.00481042,0
2024-12-11 14:33:50.683,0.3999,3.67747,8.98505,-0.0603975,-0.13996,0.00297788,0
2024-12-11 14:33:50.685,0.440578,3.64876,8.97308,-0.0548999,-0.148512,0.00114534,0
2024-12-11 14:33:50.687,0.471685,3.62931,8.96112,-0.050624,-0.152177,0.000534491,0
2024-12-11 14:33:50.690,0.481256,3.62214,8.96351,-0.0475697,-0.155232,-0.00313059,0
2024-12-11 14:33:50.692,0.476471,3.61974,8.94916,-0.0439046,-0.155232,-0.00679568,0
2024-12-11 14:33:50.695,0.457328,3.59821,8.92284,-0.0414613,-0.149734,-0.00740652,0
2024-12-11 14:33:50.697,0.4334,3.57906,8.88934,-0.038407,-0.144847,-0.00923906,0
2024-12-11 14:33:50.699,0.41665,3.55992,8.84148,-0.0365745,-0.136295,-0.00984991,0
2024-12-11 14:33:50.703,0.383151,3.55274,8.78644,-0.0359636,-0.111861,-0.00740652,0
2024-12-11 14:33:50.705,0.347258,3.53599,8.71945,-0.0371853,-0.0978119,-0.00557398,0
2024-12-11 14:33:50.707,0.311366,3.51207,8.62583,-0.0371853,-0.0978119,-0.00557398,0
2024-12-11 14:33:50.709,0.256032,3.50489,8.55883,-0.0371853,-0.0807082,-0.00618483,0
2024-12-11 14:33:50.711,0.193819,3.50728,8.49183,-0.0420721,-0.0642153,-0.0019089,0
2024-12-11 14:33:50.713,0.136391,3.51685,8.40808,-0.0481806,-0.0465007,0.00542127,0
2024-12-11 14:33:50.716,0.0741775,3.5336,8.33869,-0.0530674,-0.0275645,0.0109189,0
2024-12-11 14:33:50.718,0.0358923,3.54796,8.25733,-0.0616192,-0.00862822,0.0164165,0
2024-12-11 14:33:50.720,-0.00239282,3.55514,8.17837,-0.0720036,0.00908635,0.0219141,0
2024-12-11 14:33:50.724,-0.0550349,3.57428,8.10868,-0.0927724,0.0432938,0.0329094,0
2024-12-11 14:33:50.725,-0.0885344,3.58146,8.04886,-0.0927724,0.0432938,0.0329094,0
2024-12-11 14:33:50.727,-0.0861416,3.57189,8.00339,-0.107433,0.0536782,0.0402396,0
2024-12-11 14:33:50.730,-0.0981057,3.59821,7.96032,-0.122704,0.0628409,0.0457372,0
2024-12-11 14:33:50.732,-0.117248,3.63171,7.91247,-0.13431,0.0689494,0.050624,0
2024-12-11 14:33:50.735,-0.133998,3.63889,7.88615,-0.151414,0.074447,0.0561216,0
2024-12-11 14:33:50.738,-0.167498,3.65833,7.87657,-0.181345,0.0707819,0.0689494,0
2024-12-11 14:33:50.739,-0.181855,3.69661,7.88136,-0.181345,0.0707819,0.0689494,0
2024-12-11 14:33:50.742,-0.184247,3.71336,7.88615,-0.196616,0.0677277,0.0756687,0
2024-12-11 14:33:50.744,-0.174676,3.7325,7.91007,-0.21372,0.0567324,0.0836097,0
2024-12-11 14:33:50.746,-0.141177,3.76122,7.97468,-0.225937,0.042683,0.0891073,0
2024-12-11 14:33:50.750,-0.0885344,3.77557,8.05604,-0.24976,0.0139731,0.102546,0
2024-12-11 14:33:50.752,-0.0358923,3.7995,8.16401,-0.260145,-0.0019089,0.108044,0
2024-12-11 14:33:50.753,0.00957129,3.83061,8.28605,-0.260145,-0.0019089,0.108044,0
2024-12-11 14:33:50.756,0.0646062,3.84736,8.39133,-0.266864,-0.0165692,0.113541,0
2024-12-11 14:33:50.760,0.215354,3.84257,8.65454,-0.270529,-0.0403923,0.125147,0
2024-12-11 14:33:50.761,0.215354,3.84257,8.65454,-0.270529,-0.0403923,0.125147,0
2024-12-11 14:33:50.763,0.287438,3.85693,8.8008,-0.272972,-0.0550526,0.128202,0
2024-12-11 14:33:50.766,0.342473,3.87368,8.94916,-0.261366,-0.0770431,0.134921,0
2024-12-11 14:33:50.768,0.390329,3.89282,9.09033,-0.261366,-0.0770431,0.134921,0
2024-12-11 14:33:50.770,0.431007,3.92393,9.21237,-0.252814,-0.0843733,0.136143,0
2024-12-11 14:33:50.772,0.454935,3.95982,9.33231,-0.241208,-0.0917034,0.141029,0
2024-12-11 14:33:50.775,0.493221,3.99811,9.41606,-0.228381,-0.0953685,0.143473,0
2024-12-11 14:33:50.777,0.524327,4.034,9.46391,-0.215553,-0.0965902,0.14897,0
2024-12-11 14:33:50.779,0.550648,4.08425,9.51177,-0.200892,-0.0978119,0.153246,0
2024-12-11 14:33:50.782,0.586541,4.12971,9.53809,-0.188065,-0.100255,0.157522,0
2024-12-11 14:33:50.785,0.608076,4.17278,9.52134,-0.162409,-0.0947577,0.166685,0
2024-12-11 14:33:50.786,0.62004,4.21615,9.47827,-0.162409,-0.0947577,0.166685,0
2024-12-11 14:33:50.789,0.627219,4.2664,9.45434,-0.152635,-0.0923143,0.172793,0
2024-12-11 14:33:50.791,0.610469,4.32862,9.42323,-0.145916,-0.0917034,0.178902,0
2024-12-11 14:33:50.793,0.588933,4.39322,9.35863,-0.141029,-0.0886492,0.183789,0
2024-12-11 14:33:50.796,0.600898,4.45544,9.27727,-0.134921,-0.0800973,0.186843,0
2024-12-11 14:33:50.798,0.62004,4.52243,9.19562,-0.137364,-0.0745997,0.195395,0
2024-12-11 14:33:50.801,0.648754,4.58465,9.10708,-0.139808,-0.065437,0.201503,0
2024-12-11 14:33:50.803,0.691825,4.65883,9.02333,-0.146527,-0.0532201,0.203336,0
2024-12-11 14:33:50.805,0.720539,4.74018,8.94437,-0.156911,-0.0397814,0.207001,0
2024-12-11 14:33:50.808,0.742074,4.80748,8.86541,-0.167907,-0.0208452,0.211277,0
2024-12-11 14:33:50.810,0.766002,4.87209,8.80798,-0.182567,-0.0019089,0.214331,0
2024-12-11 14:33:50.813,0.794716,4.94866,8.76491,-0.217385,0.0377962,0.214942,0
2024-12-11 14:33:50.816,0.799502,5.02283,8.71466,-0.238154,0.0579541,0.217385,0
2024-12-11 14:33:50.817,0.792323,5.10419,8.68325,-0.238154,0.0579541,0.217385,0
2024-12-11 14:33:50.820,0.799502,5.1688,8.68565,-0.260755,0.0750579,0.218607,0
2024-12-11 14:33:50.822,0.797109,5.22383,8.71227,-0.283357,0.0970484,0.218607,0
2024-12-11 14:33:50.824,0.787538,5.29801,8.76491,-0.305958,0.116595,0.217996,0
2024-12-11 14:33:50.826,0.76361,5.36291,8.82712,-0.326727,0.13431,0.218607,0
2024-12-11 14:33:50.829,0.73011,5.4012,8.90369,-0.346274,0.150192,0.217996,0
2024-12-11 14:33:50.831,0.725324,5.43948,8.99701,-0.364599,0.161798,0.22105,0
2024-12-11 14:33:50.833,0.73011,5.48734,9.09273,-0.380481,0.174015,0.222883,0
2024-12-11 14:33:50.836,0.720539,5.51366,9.18126,-0.395753,0.183789,0.222883,0
2024-12-11 14:33:50.838,0.715753,5.52802,9.26531,-0.409802,0.192341,0.225326,0
2024-12-11 14:33:50.840,0.727717,5.5328,9.37538,-0.419576,0.197227,0.229602,0
2024-12-11 14:33:50.845,0.801895,5.51845,9.69123,-0.436679,0.194784,0.232656,0
2024-12-11 14:33:50.845,0.801895,5.51845,9.69123,-0.436679,0.194784,0.232656,0
2024-12-11 14:33:50.850,0.907478,5.46581,10.0505,-0.438512,0.183178,0.233267,0
2024-12-11 14:33:50.852,0.957727,5.44188,10.2419,-0.431182,0.175237,0.230824,0
2024-12-11 14:33:50.852,0.957727,5.44188,10.2419,-0.431182,0.175237,0.230824,0
2024-12-11 14:33:50.855,1.0008,5.41077,10.4384,-0.419576,0.169739,0.230824,0
2024-12-11 14:33:50.857,1.05823,5.38445,10.6226,-0.403694,0.164242,0.228991,0
2024-12-11 14:33:50.859,1.11326,5.35813,10.7686,-0.384147,0.160576,0.225326,0
2024-12-11 14:33:50.863,1.14676,5.3342,10.9026,-0.358491,0.15569,0.222883,0
2024-12-11 14:33:50.866,1.14197,5.25733,11.0919,-0.32917,0.150192,0.218607,0
2024-12-11 14:33:50.867,1.14197,5.25733,11.0919,-0.32917,0.150192,0.218607,0
2024-12-11 14:33:50.870,1.15872,5.21665,11.1565,-0.228991,0.142251,0.213109,0
2024-12-11 14:33:50.871,1.15155,5.18076,11.1852,-0.228991,0.142251,0.213109,0
2024-12-11 14:33:50.874,1.14197,5.15683,11.202,-0.191119,0.141029,0.214331,0
2024-12-11 14:33:50.876,1.13001,5.13051,11.1829,-0.154468,0.142251,0.213109,0
2024-12-11 14:33:50.878,1.11805,5.11137,11.123,-0.113541,0.143473,0.212498,0
2024-12-11 14:33:50.880,1.10369,5.08983,11.0393,-0.0750579,0.146527,0.21372,0
2024-12-11 14:33:50.884,1.08215,5.07308,10.9265,-0.00114534,0.15569,0.21372,0
2024-12-11 14:33:50.885,1.05583,5.0659,10.7806,-0.00114534,0.15569,0.21372,0
2024-12-11 14:33:50.888,1.02951,5.04676,10.6035,0.0324513,0.16302,0.214942,0
2024-12-11 14:33:50.890,1.00558,5.02762,10.4025,0.0636045,0.168517,0.217385,0
2024-12-11 14:33:50.893,0.984048,5.00608,10.2108,0.113694,0.180124,0.216774,0
2024-12-11 14:33:50.896,0.940978,4.97498,10.0026,0.130187,0.188675,0.216774,0
2024-12-11 14:33:50.897,0.893121,4.96301,9.79412,0.130187,0.188675,0.216774,0
2024-12-11 14:33:50.899,0.862014,4.94866,9.61705,0.14668,0.196616,0.217996,0
2024-12-11 14:33:50.903,0.837787,4.92951,9.43759,0.169892,0.217385,0.22105,0
2024-12-11 14:33:50.905,0.818644,4.92234,9.26531,0.177833,0.228991,0.221661,0
2024-12-11 14:33:50.906,0.801895,4.91037,9.09751,0.177833,0.228991,0.221661,0
2024-12-11 14:33:50.909,0.782752,4.89841,8.9348,0.186996,0.241208,0.222883,0
2024-12-11 14:33:50.911,0.758824,4.89123,8.78405,0.188828,0.255258,0.224105,0
2024-12-11 14:33:50.913,0.754038,4.87209,8.64018,0.191882,0.271751,0.223494,0
2024-12-11 14:33:50.917,0.754038,4.86012,8.50379,0.196158,0.30046,0.221661,0
2024-12-11 14:33:50.918,0.751645,4.82423,8.35783,0.196158,0.30046,0.221661,0
2024-12-11 14:33:50.923,0.737288,4.75693,8.06082,0.194937,0.330392,0.215553,0
2024-12-11 14:33:50.924,0.737288,4.75693,8.06082,0.190661,0.347496,0.211888,0
2024-12-11 14:33:50.926,0.737288,4.74018,7.91486,0.186996,0.359713,0.207001,0
2024-12-11 14:33:50.928,0.737288,4.71386,7.79043,0.186996,0.359713,0.207001,0
2024-12-11 14:33:50.931,0.71336,4.69233,7.67558,0.180887,0.37193,0.203947,0
2024-12-11 14:33:50.932,0.701396,4.67079,7.57478,0.171724,0.381703,0.19906,0
2024-12-11 14:33:50.935,0.684646,4.65883,7.47189,0.166227,0.391477,0.191119,0
2024-12-11 14:33:50.937,0.651147,4.65883,7.35703,0.157675,0.40125,0.186232,0
2024-12-11 14:33:50.939,0.62004,4.6349,7.25175,0.147291,0.412246,0.180124,0
2024-12-11 14:33:50.942,0.591326,4.61815,7.15125,0.135684,0.416521,0.175237,0
2024-12-11 14:33:50.945,0.584148,4.6014,7.0675,0.111861,0.428128,0.162409,0
2024-12-11 14:33:50.947,0.574577,4.58465,7.00738,0.111861,0.428128,0.162409,0
2024-12-11 14:33:50.949,0.588933,4.57747,6.93081,0.0984228,0.433014,0.154468,0
2024-12-11 14:33:50.951,0.610469,4.55833,6.82792,0.0825407,0.437901,0.146527,0
2024-12-11 14:33:50.953,0.596112,4.55354,6.74656,0.0678804,0.440955,0.137364,0
2024-12-11 14:33:50.957,0.584148,4.54876,6.68674,0.0501658,0.442177,0.128812,0
2024-12-11 14:33:50.958,0.565005,4.53679,6.61735,0.0501658,0.442177,0.128812,0
2024-12-11 14:33:50.966,0.517149,4.49133,6.40648,-0.042683,0.417743,0.0860531,0
2024-12-11 14:33:50.966,0.517149,4.49133,6.40648,-0.042683,0.417743,0.0860531,0
2024-12-11 14:33:50.966,0.517149,4.49133,6.40648,-0.042683,0.417743,0.0860531,0
2024-12-11 14:33:50.969,0.50997,4.45065,6.35145,-0.0689494,0.401861,0.0768904,0
2024-12-11 14:33:50.971,0.495613,4.4339,6.30598,-0.0689494,0.401861,0.0768904,0
2024-12-11 14:33:50.972,0.483649,4.41954,6.27488,-0.0939941,0.389033,0.0701711,0
2024-12-11 14:33:50.975,0.454935,4.39801,6.29163,-0.117817,0.369486,0.0640626,0
2024-12-11 14:33:50.978,0.426222,4.38604,6.34666,-0.167907,0.334057,0.050624,0
2024-12-11 14:33:50.980,0.397508,4.38126,6.40409,-0.167907,0.334057,0.050624,0
2024-12-11 14:33:50.982,0.395115,4.38365,6.49292,-0.186843,0.315121,0.0457372,0
2024-12-11 14:33:50.984,0.404686,4.37887,6.60778,-0.205779,0.294963,0.0402396,0
2024-12-11 14:33:50.986,0.426222,4.35733,6.71546,-0.222272,0.276027,0.0341311,0
2024-12-11 14:33:50.989,0.454935,4.33819,6.82792,-0.237543,0.258923,0.0255792,0
2024-12-11 14:33:50.992,0.469292,4.31665,6.95474,-0.258923,0.227159,0.010308,0
2024-12-11 14:33:50.994,0.462114,4.28555,7.09143,-0.258923,0.227159,0.010308,0
