timestamp,accel_x,accel_y,accel_z,gyro_x,gyro_y,gyro_z,step_timestamp
2024-12-11 14:31:39.258,0.294616,3.95025,8.58515,-0.164242,-0.182109,0.0286335,0
2024-12-11 14:31:39.258,0.294616,3.95025,8.58515,-0.164242,-0.182109,0.0286335,0
2024-12-11 14:31:39.258,0.294616,3.95025,8.58515,-0.164242,-0.182109,0.0286335,0
2024-12-11 14:31:39.259,0.337687,3.92154,8.7027,-0.164242,-0.182109,0.0286335,0
2024-12-11 14:31:39.259,0.337687,3.92154,8.7027,-0.164242,-0.182109,0.0286335,0
2024-12-11 14:31:39.259,0.337687,3.92154,8.7027,-0.164242,-0.182109,0.0286335,0
2024-12-11 14:31:39.259,0.337687,3.92154,8.7027,-0.164242,-0.182109,0.0286335,0
2024-12-11 14:31:39.260,0.337687,3.92154,8.7027,-0.164242,-0.182109,0.0286335,0
2024-12-11 14:31:39.262,0.397508,3.8665,8.80559,-0.174626,-0.191272,0.022525,0
2024-12-11 14:31:39.262,0.397508,3.8665,8.80559,-0.174626,-0.191272,0.022525,0
2024-12-11 14:31:39.263,0.397508,3.8665,8.80559,-0.1844,-0.198602,0.014584,0
2024-12-11 14:31:39.264,0.397508,3.8665,8.80559,-0.1844,-0.198602,0.014584,0
2024-12-11 14:31:39.264,0.457328,3.81865,8.90609,-0.1844,-0.198602,0.014584,0
2024-12-11 14:31:39.264,0.457328,3.81865,8.90609,-0.1844,-0.198602,0.014584,0
2024-12-11 14:31:39.264,0.457328,3.81865,8.90609,-0.1844,-0.198602,0.014584,0
2024-12-11 14:31:39.267,0.493221,3.79711,9.0018,-0.19173,-0.204099,0.010308,0
2024-12-11 14:31:39.267,0.493221,3.79711,9.0018,-0.19173,-0.204099,0.010308,0
2024-12-11 14:31:39.267,0.493221,3.79711,9.0018,-0.19173,-0.204099,0.010308,0
2024-12-11 14:31:39.267,0.493221,3.79711,9.0018,-0.19173,-0.204099,0.010308,0
2024-12-11 14:31:39.267,0.493221,3.79711,9.0018,-0.19173,-0.204099,0.010308,0
2024-12-11 14:31:39.267,0.493221,3.79711,9.0018,-0.19173,-0.204099,0.010308,0
2024-12-11 14:31:39.267,0.493221,3.79711,9.0018,-0.19173,-0.204099,0.010308,0
2024-12-11 14:31:39.268,0.493221,3.79711,9.0018,-0.19173,-0.204099,0.010308,0
2024-12-11 14:31:39.274,0.670289,3.67268,9.24587,-0.215553,-0.207154,-7.63559e-05,0
2024-12-11 14:31:39.274,0.670289,3.67268,9.24587,-0.215553,-0.207154,-7.63559e-05,0
2024-12-11 14:31:39.275,0.670289,3.67268,9.24587,-0.222883,-0.205321,-0.00251974,0
2024-12-11 14:31:39.277,0.720539,3.63889,9.38734,-0.227159,-0.20471,-0.00251974,0
2024-12-11 14:31:39.278,0.737288,3.62692,9.50698,-0.227159,-0.20471,-0.00251974,0
2024-12-11 14:31:39.278,0.737288,3.62692,9.50698,-0.227159,-0.20471,-0.00251974,0
2024-12-11 14:31:39.282,0.754038,3.62453,9.61227,-0.234489,-0.193715,-0.00251974,0
2024-12-11 14:31:39.282,0.754038,3.62453,9.61227,-0.234489,-0.193715,-0.00251974,0
2024-12-11 14:31:39.283,0.777966,3.62931,9.70319,-0.234489,-0.193715,-0.00251974,0
2024-12-11 14:31:39.284,0.777966,3.62931,9.70319,-0.233267,-0.180276,0.000534491,0
2024-12-11 14:31:39.285,0.777966,3.62931,9.7678,-0.233267,-0.180276,0.000534491,0
2024-12-11 14:31:39.286,0.813859,3.63171,9.7678,-0.233267,-0.180276,0.000534491,0
2024-12-11 14:31:39.286,0.813859,3.63171,9.7678,-0.233267,-0.180276,0.000534491,0
2024-12-11 14:31:39.288,0.833001,3.64367,9.87099,-0.232656,-0.160729,0.000534491,0
2024-12-11 14:31:39.288,0.833001,3.64367,9.87099,-0.232656,-0.160729,0.000534491,0
2024-12-11 14:31:39.288,0.833001,3.64367,9.87099,-0.232656,-0.160729,0.000534491,0
2024-12-11 14:31:39.290,0.830609,3.67986,9.98824,-0.230824,-0.142404,0.00419957,0
2024-12-11 14:31:39.290,0.830609,3.67986,9.98824,-0.230824,-0.142404,0.00419957,0
2024-12-11 14:31:39.291,0.830609,3.67986,9.98824,-0.225937,-0.121024,0.0096972,0
2024-12-11 14:31:39.293,0.830609,3.73011,10.0505,-0.225937,-0.121024,0.0096972,0
2024-12-11 14:31:39.293,0.830609,3.73011,10.0505,-0.225937,-0.121024,0.0096972,0
2024-12-11 14:31:39.295,0.82343,3.76361,10.0552,-0.218607,-0.100255,0.0158057,0
2024-12-11 14:31:39.295,0.82343,3.76361,10.0552,-0.218607,-0.100255,0.0158057,0
2024-12-11 14:31:39.297,0.82343,3.7995,10.0337,-0.216164,-0.077654,0.0206925,0
2024-12-11 14:31:39.297,0.794716,3.7995,10.0337,-0.216164,-0.077654,0.0206925,0
2024-12-11 14:31:39.298,0.794716,3.7995,10.0337,-0.212498,-0.0507767,0.0280226,0
2024-12-11 14:31:39.299,0.768395,3.84975,9.98345,-0.212498,-0.0507767,0.0280226,0
2024-12-11 14:31:39.300,0.768395,3.84975,9.98345,-0.212498,-0.0507767,0.0280226,0
2024-12-11 14:31:39.300,0.768395,3.84975,9.98345,-0.212498,-0.0507767,0.0280226,0
2024-12-11 14:31:39.302,0.720539,3.90239,9.92363,-0.210666,-0.0269536,0.0347419,0
2024-12-11 14:31:39.302,0.720539,3.90239,9.92363,-0.210666,-0.0269536,0.0347419,0
2024-12-11 14:31:39.304,0.679861,3.95743,9.84467,-0.212498,-0.00435229,0.0408504,0
2024-12-11 14:31:39.304,0.679861,3.95743,9.84467,-0.212498,-0.00435229,0.0408504,0
2024-12-11 14:31:39.305,0.679861,3.95743,9.84467,-0.216774,0.0127514,0.0457372,0
2024-12-11 14:31:39.307,0.663111,4.01007,9.74148,-0.216774,0.0127514,0.0457372,0
2024-12-11 14:31:39.310,0.62004,4.06032,9.64577,-0.222883,0.0268009,0.0555107,0
2024-12-11 14:31:39.311,0.576969,4.14168,9.55005,-0.222883,0.0268009,0.0555107,0
2024-12-11 14:31:39.314,0.541077,4.22333,9.46152,-0.245484,0.0420721,0.0677277,0
2024-12-11 14:31:39.314,0.541077,4.22333,9.46152,-0.245484,0.0420721,0.0677277,0
2024-12-11 14:31:39.317,0.541077,4.22333,9.38734,-0.261366,0.0445155,0.0750579,0
2024-12-11 14:31:39.321,0.512363,4.44347,9.31556,-0.298628,0.0402396,0.0836097,0
2024-12-11 14:31:39.322,0.512363,4.44347,9.31556,-0.315732,0.0353528,0.0854423,0
2024-12-11 14:31:39.323,0.524327,4.49372,9.31316,-0.315732,0.0353528,0.0854423,0
2024-12-11 14:31:39.324,0.524327,4.49372,9.31316,-0.335279,0.0261901,0.086664,0
2024-12-11 14:31:39.325,0.553041,4.55833,9.35624,-0.335279,0.0261901,0.086664,0
2024-12-11 14:31:39.325,0.553041,4.55833,9.35624,-0.335279,0.0261901,0.086664,0
2024-12-11 14:31:39.328,0.593719,4.63011,9.4017,-0.352993,0.0139731,0.0878856,0
2024-12-11 14:31:39.328,0.593719,4.63011,9.4017,-0.352993,0.0139731,0.0878856,0
2024-12-11 14:31:39.328,0.593719,4.63011,9.4017,-0.352993,0.0139731,0.0878856,0
2024-12-11 14:31:39.330,0.622433,4.68515,9.46631,-0.373151,0.00175619,0.0836097,0
2024-12-11 14:31:39.331,0.622433,4.68515,9.46631,-0.390866,-0.00862822,0.0811663,0
2024-12-11 14:31:39.333,0.651147,4.7354,9.54766,-0.390866,-0.00862822,0.0811663,0
2024-12-11 14:31:39.333,0.651147,4.7354,9.54766,-0.390866,-0.00862822,0.0811663,0
2024-12-11 14:31:39.335,0.699003,4.77398,9.6362,-0.405526,-0.0226777,0.0762796,0
2024-12-11 14:31:39.335,0.699003,4.77398,9.6362,-0.405526,-0.0226777,0.0762796,0
2024-12-11 14:31:39.336,0.699003,4.77398,9.6362,-0.422019,-0.0403923,0.0701711,0
2024-12-11 14:31:39.337,0.768395,4.79791,9.76062,-0.422019,-0.0403923,0.0701711,0
2024-12-11 14:31:39.338,0.768395,4.79791,9.76062,-0.433625,-0.0544418,0.0616192,0
2024-12-11 14:31:39.340,0.842872,4.78834,9.94517,-0.433625,-0.0544418,0.0616192,0
2024-12-11 14:31:39.341,0.842872,4.78834,9.94517,-0.439734,-0.0678804,0.0518457,0
2024-12-11 14:31:39.343,0.862014,4.78355,10.1533,-0.440955,-0.0843733,0.042683,0
2024-12-11 14:31:39.343,0.862014,4.78355,10.1533,-0.440955,-0.0843733,0.042683,0
2024-12-11 14:31:39.344,0.881157,4.81944,10.3328,-0.440955,-0.0843733,0.042683,0
2024-12-11 14:31:39.347,0.926621,4.85294,10.4791,-0.439123,-0.100255,0.0329094,0
2024-12-11 14:31:39.347,0.926621,4.85294,10.4791,-0.439123,-0.100255,0.0329094,0
2024-12-11 14:31:39.349,0.967299,4.84577,10.6107,-0.433625,-0.116748,0.0219141,0
2024-12-11 14:31:39.349,0.967299,4.84577,10.6107,-0.433625,-0.116748,0.0219141,0
2024-12-11 14:31:39.350,0.967299,4.84577,10.6107,-0.426906,-0.130187,0.0133623,0
2024-12-11 14:31:39.351,1.01276,4.80987,10.7351,-0.426906,-0.130187,0.0133623,0
2024-12-11 14:31:39.352,0.967299,4.84577,10.7351,-0.426906,-0.130187,0.0133623,0
2024-12-11 14:31:39.355,1.02233,4.75215,10.8284,-0.4153,-0.142404,0.00542127,0
2024-12-11 14:31:39.356,1.01755,4.68275,10.9074,-0.40797,-0.156453,-0.00496313,0
2024-12-11 14:31:39.358,1.02233,4.6014,10.9962,-0.395753,-0.171114,-0.013515,0
2024-12-11 14:31:39.364,1.07498,4.45065,11.2499,-0.351161,-0.203488,-0.0361163,0
2024-12-11 14:31:39.365,1.11565,4.38844,11.3862,-0.351161,-0.203488,-0.0361163,0
2024-12-11 14:31:39.366,1.11565,4.38844,11.3862,-0.351161,-0.203488,-0.0361163,0
2024-12-11 14:31:39.368,1.1324,4.35254,11.5158,-0.331614,-0.204099,-0.0434465,0
2024-12-11 14:31:39.370,1.1348,4.33579,11.6474,-0.302293,-0.201045,-0.0519984,0
2024-12-11 14:31:39.372,1.10369,4.3023,11.7766,-0.27114,-0.188217,-0.0587177,0
2024-12-11 14:31:39.375,1.05105,4.27358,11.8938,-0.234489,-0.16867,-0.0660479,0
2024-12-11 14:31:39.377,0.97687,4.26401,11.956,-0.197838,-0.146069,-0.0678804,0
2024-12-11 14:31:39.380,0.881157,4.24008,11.9489,-0.157522,-0.117359,-0.0703238,0
2024-12-11 14:31:39.383,0.770788,4.21855,11.8938,-0.0738362,-0.0483333,-0.0629936,0
2024-12-11 14:31:39.385,0.648754,4.19432,11.7814,-0.0738362,-0.0483333,-0.0629936,0
2024-12-11 14:31:39.387,0.517149,4.16321,11.6163,-0.0341311,-0.0122933,-0.0556635,0
2024-12-11 14:31:39.389,0.390329,4.14407,11.4221,0.00374144,0.0255792,-0.0465007,0
2024-12-11 14:31:39.392,0.265603,4.12014,11.1805,0.0623828,0.0964375,-0.0202343,0
2024-12-11 14:31:39.395,0.155533,4.11296,10.9074,0.0874275,0.128202,-0.00374144,0
2024-12-11 14:31:39.396,0.0646062,4.12493,10.6346,0.0874275,0.128202,-0.00374144,0
2024-12-11 14:31:39.398,-0.026321,4.13211,10.3759,0.108196,0.158133,0.0133623,0
2024-12-11 14:31:39.401,-0.105284,4.14646,10.1366,0.120413,0.18501,0.0316877,0
2024-12-11 14:31:39.403,-0.167498,4.17518,9.91646,0.128965,0.20639,0.0469589,0
2024-12-11 14:31:39.405,-0.208176,4.21376,9.70559,0.137517,0.227159,0.0634518,0
2024-12-11 14:31:39.409,-0.227318,4.24487,9.50459,0.144847,0.245484,0.0768904,0
2024-12-11 14:31:39.410,-0.239282,4.26162,9.31556,0.14668,0.261977,0.0872748,0
2024-12-11 14:31:39.415,-0.229711,4.32383,8.9683,0.148512,0.285189,0.109876,0
2024-12-11 14:31:39.416,-0.229711,4.32383,8.9683,0.145458,0.29313,0.117817,0
2024-12-11 14:31:39.417,-0.212961,4.34058,8.78884,0.145458,0.29313,0.117817,0
2024-12-11 14:31:39.420,-0.155533,4.34058,8.64497,0.141182,0.299239,0.120871,0
2024-12-11 14:31:39.424,-0.0550349,4.32622,8.42244,0.1253,0.301071,0.125147,0
2024-12-11 14:31:39.424,-0.0550349,4.32622,8.42244,0.1253,0.301071,0.125147,0
2024-12-11 14:31:39.427,0.0,4.32144,8.31476,0.11797,0.299239,0.123315,0
2024-12-11 14:31:39.429,0.0598206,4.32383,8.25972,0.108807,0.294963,0.11965,0
2024-12-11 14:31:39.431,0.105284,4.31905,8.20469,0.101477,0.289465,0.115985,0
2024-12-11 14:31:39.434,0.141177,4.29272,8.15205,0.0923143,0.280303,0.109265,0
2024-12-11 14:31:39.436,0.179462,4.27119,8.11586,0.0831516,0.270529,0.103157,0
2024-12-11 14:31:39.439,0.205783,4.25205,8.08475,0.077654,0.258923,0.0927724,0
2024-12-11 14:31:39.441,0.239282,4.22094,8.06082,0.0703238,0.247928,0.0836097,0
2024-12-11 14:31:39.443,0.282652,4.18475,8.02014,0.0599394,0.233267,0.0738362,0
2024-12-11 14:31:39.445,0.304188,4.15603,7.98425,0.0599394,0.233267,0.0738362,0
2024-12-11 14:31:39.448,0.316152,4.12253,7.9675,0.0452791,0.204557,0.0487914,0
2024-12-11 14:31:39.450,0.34008,4.07468,7.96272,0.0367272,0.191119,0.0377962,0
2024-12-11 14:31:39.454,0.344866,4.02682,7.98904,0.0300079,0.176459,0.0255792,0
2024-12-11 14:31:39.456,0.34008,3.99571,8.01297,0.0232886,0.147749,0.00419957,0
2024-12-11 14:31:39.457,0.299402,3.97418,8.05364,0.0232886,0.147749,0.00419957,0
2024-12-11 14:31:39.460,0.246461,3.95504,8.1015,0.0245102,0.134921,-0.00251974,0
2024-12-11 14:31:39.462,0.18664,3.93589,8.12782,0.0257319,0.123926,-0.00801737,0
2024-12-11 14:31:39.464,0.133998,3.89282,8.15205,0.0275645,0.114152,-0.0141258,0
2024-12-11 14:31:39.468,0.122034,3.82104,8.18315,0.0379489,0.094605,-0.0147367,0
2024-12-11 14:31:39.469,0.112463,3.77079,8.21665,0.0379489,0.094605,-0.0147367,0
2024-12-11 14:31:39.471,0.0789631,3.75643,8.2358,0.0465007,0.0848314,-0.0141258,0
2024-12-11 14:31:39.474,0.0358923,3.75165,8.24298,0.0532201,0.0775012,-0.0110716,0
2024-12-11 14:31:39.476,0.0167498,3.73968,8.22622,0.0599394,0.074447,-0.00862822,0
2024-12-11 14:31:39.478,0.0358923,3.72533,8.1999,0.0691021,0.0738362,-0.00313059,0
2024-12-11 14:31:39.481,0.0741775,3.71575,8.17119,0.0770431,0.0713928,0.00114534,0
2024-12-11 14:31:39.483,0.0957129,3.70858,8.14008,0.0831516,0.0713928,0.00603212,0
2024-12-11 14:31:39.486,0.0933201,3.69183,8.12303,0.0880384,0.0701711,0.0109189,0
2024-12-11 14:31:39.489,0.0789631,3.69661,8.08714,0.0978119,0.0738362,0.0200816,0
2024-12-11 14:31:39.490,0.0693919,3.71575,8.01297,0.0978119,0.0738362,0.0200816,0
2024-12-11 14:31:39.493,0.0693919,3.71815,7.94357,0.100255,0.0768904,0.0261901,0
2024-12-11 14:31:39.495,0.0861416,3.7325,7.87897,0.100255,0.0799446,0.0310769,0
2024-12-11 14:31:39.497,0.0933201,3.76122,7.81197,0.0953685,0.0842206,0.0377962,0
2024-12-11 14:31:39.501,0.0981057,3.7684,7.75454,0.0825407,0.0884965,0.0536782,0
2024-12-11 14:31:39.503,0.112463,3.77797,7.68276,0.0825407,0.0884965,0.0536782,0
2024-12-11 14:31:39.504,0.12682,3.79232,7.60379,0.0721563,0.090329,0.0591758,0
2024-12-11 14:31:39.507,0.160319,3.77797,7.54367,0.0593285,0.0921616,0.0683385,0
2024-12-11 14:31:39.510,0.212961,3.78275,7.49582,0.0452791,0.0933833,0.0713928,0
2024-12-11 14:31:39.511,0.260818,3.82343,7.44796,0.0452791,0.0933833,0.0713928,0
2024-12-11 14:31:39.514,0.285045,3.84975,7.40967,0.013515,0.0958267,0.0836097,0
2024-12-11 14:31:39.516,0.32333,3.8665,7.37378,-0.00603212,0.094605,0.0842206,0
2024-12-11 14:31:39.519,0.390329,3.89043,7.35225,-0.00603212,0.094605,0.0842206,0
2024-12-11 14:31:39.521,0.45015,3.92154,7.34985,-0.0451263,0.0927724,0.0897182,0
2024-12-11 14:31:39.523,0.524327,3.95743,7.37617,-0.0677277,0.0915507,0.090329,0
2024-12-11 14:31:39.527,0.581755,3.97897,7.40967,-0.109265,0.0927724,0.0860531,0
2024-12-11 14:31:39.528,0.639183,4.00529,7.44796,-0.109265,0.0927724,0.0860531,0
2024-12-11 14:31:39.530,0.701396,4.04836,7.51257,-0.128202,0.0927724,0.0829989,0
2024-12-11 14:31:39.534,0.751645,4.08903,7.56282,-0.164242,0.0921616,0.074447,0
2024-12-11 14:31:39.535,0.813859,4.11057,7.61815,-0.164242,0.0921616,0.074447,0
2024-12-11 14:31:39.537,0.869193,4.13689,7.71386,-0.178902,0.0933833,0.0677277,0
2024-12-11 14:31:39.541,0.909871,4.16561,7.82393,-0.203947,0.0909399,0.0530674,0
2024-12-11 14:31:39.542,0.926621,4.19671,7.91964,-0.203947,0.0909399,0.0530674,0
2024-12-11 14:31:39.547,0.912264,4.2664,8.11586,-0.213109,0.0878856,0.046348,0
2024-12-11 14:31:39.547,0.912264,4.2664,8.11586,-0.213109,0.0878856,0.046348,0
2024-12-11 14:31:39.552,0.869193,4.34776,8.29322,-0.222272,0.0842206,0.0298552,0
2024-12-11 14:31:39.554,0.821037,4.38365,8.36022,-0.222883,0.0829989,0.0188599,0
2024-12-11 14:31:39.554,0.821037,4.38365,8.36022,-0.222883,0.0829989,0.0188599,0
2024-12-11 14:31:39.556,0.770788,4.40758,8.42722,-0.221661,0.0781121,0.0133623,0
2024-12-11 14:31:39.559,0.720539,4.42672,8.47747,-0.219218,0.0726145,0.0096972,0
2024-12-11 14:31:39.561,0.684646,4.44108,8.52293,-0.214331,0.0677277,0.00786466,0
2024-12-11 14:31:39.563,0.663111,4.46022,8.5684,-0.210055,0.0591758,0.00725381,0
2024-12-11 14:31:39.566,0.65354,4.47936,8.60668,-0.204557,0.0494023,0.00725381,0
2024-12-11 14:31:39.568,0.639183,4.48415,8.65454,-0.201503,0.0420721,0.00542127,0
2024-12-11 14:31:39.571,0.624826,4.48894,8.7027,-0.194784,0.0322986,0.00725381,0
2024-12-11 14:31:39.575,0.615255,4.51286,8.74337,-0.182567,0.0164165,0.0115297,0
2024-12-11 14:31:39.576,0.596112,4.52243,8.78644,-0.182567,0.0164165,0.0115297,0
2024-12-11 14:31:39.577,0.576969,4.53201,8.83669,-0.172793,0.0109189,0.0115297,0
2024-12-11 14:31:39.580,0.572184,4.57029,8.88694,-0.163631,0.00358873,0.0139731,0
2024-12-11 14:31:39.582,0.576969,4.61097,8.94198,-0.153857,-7.63559e-05,0.0176382,0
2024-12-11 14:31:39.585,0.581755,4.64925,8.97787,-0.144694,-0.00313059,0.0188599,0
2024-12-11 14:31:39.587,0.598505,4.68036,8.99701,-0.136753,-0.00496313,0.0213033,0
2024-12-11 14:31:39.589,0.632004,4.70668,9.01137,-0.124536,-0.00557398,0.022525,0
2024-12-11 14:31:39.591,0.658325,4.72104,8.99941,-0.124536,-0.00557398,0.022525,0
2024-12-11 14:31:39.594,0.677468,4.72343,8.98026,-0.111709,-0.0019089,0.0219141,0
2024-12-11 14:31:39.596,0.691825,4.72822,8.97308,-0.108044,-0.00313059,0.0200816,0
2024-12-11 14:31:39.599,0.682254,4.7354,8.97548,-0.104989,0.000534491,0.0176382,0
2024-12-11 14:31:39.602,0.643968,4.74018,8.99941,-0.100713,0.00114534,0.0206925,0
2024-12-11 14:31:39.603,0.612862,4.75932,8.99701,-0.0988809,0.00297788,0.0182491,0
2024-12-11 14:31:39.606,0.60329,4.77877,9.00658,-0.0976592,0.00542127,0.0182491,0
2024-12-11 14:31:39.608,0.584148,4.78834,9.02812,-0.0958267,0.00847551,0.0176382,0
2024-12-11 14:31:39.611,0.56022,4.78834,9.02573,-0.0927724,0.0121406,0.022525,0
2024-12-11 14:31:39.613,0.555434,4.80509,9.03051,-0.0927724,0.0121406,0.022525,0
2024-12-11 14:31:39.615,0.553041,4.83619,9.03051,-0.0927724,0.014584,0.0249684,0
2024-12-11 14:31:39.617,0.555434,4.85534,9.04008,-0.0915507,0.0188599,0.0255792,0
2024-12-11 14:31:39.620,0.545863,4.87926,9.05683,-0.094605,0.0249684,0.0249684,0
2024-12-11 14:31:39.623,0.531506,4.90798,9.0688,-0.0982701,0.0353528,0.0243575,0
2024-12-11 14:31:39.625,0.519542,4.93191,9.07598,-0.0982701,0.0353528,0.0243575,0
2024-12-11 14:31:39.627,0.498006,4.95105,9.08794,-0.0982701,0.0402396,0.0261901,0
2024-12-11 14:31:39.629,0.486042,4.97258,9.09273,-0.101935,0.0439046,0.0243575,0
2024-12-11 14:31:39.632,0.474078,4.98933,9.11426,-0.106822,0.0469589,0.0255792,0
2024-12-11 14:31:39.635,0.457328,4.99412,9.15494,-0.111709,0.0487914,0.0213033,0
2024-12-11 14:31:39.636,0.440578,5.00369,9.18844,-0.111709,0.0487914,0.0213033,0
2024-12-11 14:31:39.639,0.419043,4.99173,9.23151,-0.111709,0.0487914,0.0213033,0
2024-12-11 14:31:39.641,0.409472,4.97737,9.27727,-0.119039,0.0487914,0.0200816,0
2024-12-11 14:31:39.643,0.3999,4.98216,9.32752,-0.120261,0.0494023,0.0164165,0
2024-12-11 14:31:39.646,0.385544,4.98455,9.38734,-0.120871,0.0469589,0.0158057,0
2024-12-11 14:31:39.648,0.375972,4.98216,9.44238,-0.123926,0.0445155,0.0139731,0
2024-12-11 14:31:39.651,0.366401,4.9678,9.49981,-0.123926,0.0414613,0.0115297,0
2024-12-11 14:31:39.655,0.349651,4.93191,9.61466,-0.125147,0.0329094,0.00725381,0
2024-12-11 14:31:39.655,0.330509,4.93191,9.61466,-0.125147,0.0329094,0.00725381,0
2024-12-11 14:31:39.657,0.313759,4.91037,9.65055,-0.123926,0.0286335,0.00481042,0
2024-12-11 14:31:39.660,0.289831,4.87687,9.70319,-0.123926,0.0237467,0.00542127,0
2024-12-11 14:31:39.664,0.193819,4.8338,9.84228,-0.125147,0.00725381,0.00297788,0
2024-12-11 14:31:39.667,0.160319,4.80748,9.9356,-0.123315,-0.000687203,0.00603212,0
2024-12-11 14:31:39.668,0.160319,4.80748,9.9356,-0.11965,-0.00740652,0.00847551,0
2024-12-11 14:31:39.670,0.124427,4.78355,10.0193,-0.117206,-0.0104608,0.00847551,0
2024-12-11 14:31:39.673,0.0981057,4.75932,10.1031,-0.117206,-0.0104608,0.00847551,0
2024-12-11 14:31:39.676,0.0550349,4.72104,10.2562,-0.100713,-0.0196235,0.0139731,0
2024-12-11 14:31:39.676,0.0550349,4.72104,10.2562,-0.100713,-0.0196235,0.0139731,0
2024-12-11 14:31:39.679,0.0191426,4.72582,10.3113,-0.094605,-0.0226777,0.0200816,0
2024-12-11 14:31:39.681,-0.0167498,4.72822,10.3591,-0.0872748,-0.0257319,0.0274118,0
2024-12-11 14:31:39.683,-0.0358923,4.71147,10.3929,-0.0829989,-0.029397,0.0347419,0
2024-12-11 14:31:39.686,-0.0454636,4.68515,10.4288,-0.0768904,-0.0330621,0.0432938,0
2024-12-11 14:31:39.688,-0.0430708,4.68275,10.4743,-0.0732253,-0.0391706,0.050624,0
2024-12-11 14:31:39.690,-0.040678,4.68993,10.5126,-0.0677277,-0.0428357,0.0603975,0
2024-12-11 14:31:39.693,-0.040678,4.67797,10.5461,-0.066506,-0.049555,0.0689494,0
2024-12-11 14:31:39.695,-0.0239282,4.66122,10.5939,-0.0616192,-0.0538309,0.0762796,0
2024-12-11 14:31:39.698,-0.0191426,4.67558,10.6394,-0.0591758,-0.0599394,0.0860531,0
2024-12-11 14:31:39.701,-0.0215354,4.70907,10.6825,-0.0548999,-0.0739889,0.104989,0
2024-12-11 14:31:39.703,-0.0119641,4.70429,10.7303,-0.0548999,-0.0739889,0.104989,0
2024-12-11 14:31:39.707,0.026321,4.70907,10.8141,-0.0536782,-0.0849841,0.126369,0
2024-12-11 14:31:39.707,0.026321,4.70907,10.8141,-0.0536782,-0.0849841,0.126369,0
2024-12-11 14:31:39.709,0.081356,4.70907,10.8643,-0.0573433,-0.0923143,0.139197,0
2024-12-11 14:31:39.713,0.153141,4.71625,10.9361,-0.0652843,-0.0959794,0.157522,0
2024-12-11 14:31:39.714,0.234497,4.73779,10.9938,-0.0652843,-0.0959794,0.157522,0
2024-12-11 14:31:39.716,0.313759,4.75693,11.0513,-0.0683385,-0.0953685,0.165463,0
2024-12-11 14:31:39.720,0.385544,4.77877,11.1087,-0.0781121,-0.0898709,0.180734,0
2024-12-11 14:31:39.721,0.442971,4.81705,11.1517,-0.0781121,-0.0898709,0.180734,0
2024-12-11 14:31:39.723,0.495613,4.84577,11.1948,-0.0848314,-0.0886492,0.188065,0
2024-12-11 14:31:39.726,0.545863,4.8673,11.2762,-0.0921616,-0.0843733,0.193562,0
2024-12-11 14:31:39.728,0.574577,4.90559,11.3623,-0.102546,-0.0831516,0.200282,0
2024-12-11 14:31:39.731,0.596112,4.94626,11.415,-0.109876,-0.073378,0.208223,0
2024-12-11 14:31:39.733,0.627219,4.99173,11.4867,-0.118428,-0.0642153,0.21372,0
2024-12-11 14:31:39.735,0.663111,5.04437,11.578,-0.126369,-0.0513875,0.222272,0
2024-12-11 14:31:39.737,0.71336,5.07069,11.6689,-0.135532,-0.0348946,0.233267,0
2024-12-11 14:31:39.741,0.749253,5.09223,11.7646,-0.150192,-0.00618483,0.249149,0
2024-12-11 14:31:39.742,0.775574,5.11615,11.8484,-0.150192,-0.00618483,0.249149,0
2024-12-11 14:31:39.745,0.811466,5.15444,11.9321,-0.154468,0.0115297,0.258312,0
2024-12-11 14:31:39.747,0.854836,5.20708,12.0183,-0.157522,0.0286335,0.266253,0
2024-12-11 14:31:39.749,0.885943,5.24058,12.0903,-0.164242,0.0469589,0.276027,0
2024-12-11 14:31:39.752,0.917049,5.28126,12.1549,-0.169128,0.0701711,0.285189,0
2024-12-11 14:31:39.755,0.967299,5.32194,12.2219,-0.173404,0.116595,0.299239,0
2024-12-11 14:31:39.757,1.02951,5.34138,12.2865,-0.17768,0.136143,0.304126,0
2024-12-11 14:31:39.760,1.08215,5.34856,12.3847,-0.177069,0.15569,0.309623,0
2024-12-11 14:31:39.761,1.1013,5.34856,12.4852,-0.177069,0.15569,0.309623,0
2024-12-11 14:31:39.763,1.09651,5.36052,12.5785,-0.178291,0.177069,0.316953,0
2024-12-11 14:31:39.766,1.09173,5.4012,12.6864,-0.173404,0.196616,0.322451,0
2024-12-11 14:31:39.771,1.12283,5.45623,12.8874,-0.159355,0.241208,0.3365,0
2024-12-11 14:31:39.773,1.17547,5.45623,12.9736,-0.144694,0.26381,0.342609,0
2024-12-11 14:31:39.775,1.1994,5.43709,13.098,-0.131867,0.283968,0.346885,0
2024-12-11 14:31:39.778,1.19701,5.41316,13.2012,-0.131867,0.283968,0.346885,0
2024-12-11 14:31:39.780,1.18265,5.40359,13.285,-0.0933833,0.31451,0.358491,0
2024-12-11 14:31:39.781,1.18265,5.40359,13.285,-0.0713928,0.332225,0.364599,0
2024-12-11 14:31:39.783,1.19462,5.41556,13.328,-0.0451263,0.347496,0.370097,0
2024-12-11 14:31:39.786,1.22572,5.42513,13.3448,-0.0451263,0.347496,0.370097,0
2024-12-11 14:31:39.787,1.26879,5.41556,13.3663,-0.0176382,0.36521,0.374984,0
2024-12-11 14:31:39.789,1.28315,5.41316,13.3687,0.0141258,0.379871,0.376206,0
2024-12-11 14:31:39.792,1.24487,5.41556,13.3472,0.0446682,0.395142,0.381092,0
2024-12-11 14:31:39.795,1.18983,5.4347,13.2993,0.101477,0.42996,0.38659,0
2024-12-11 14:31:39.797,1.11805,5.44906,13.2108,0.101477,0.42996,0.38659,0
2024-12-11 14:31:39.799,1.02473,5.48255,13.0717,0.133852,0.447064,0.390255,0
2024-12-11 14:31:39.801,0.933799,5.54716,12.8898,0.160118,0.462335,0.395753,0
2024-12-11 14:31:39.803,0.842872,5.60459,12.6793,0.160118,0.462335,0.395753,0
2024-12-11 14:31:39.806,0.773181,5.64527,12.4612,0.200434,0.48066,0.396974,0
2024-12-11 14:31:39.808,0.722932,5.66202,12.2172,0.212651,0.483104,0.395753,0
2024-12-11 14:31:39.810,0.687039,5.64287,11.9728,0.219981,0.475163,0.392088,0
2024-12-11 14:31:39.814,0.667897,5.61895,11.7526,0.215095,0.44462,0.365821,0
2024-12-11 14:31:39.816,0.646361,5.57348,11.5517,0.215095,0.44462,0.365821,0
2024-12-11 14:31:39.818,0.622433,5.48734,11.3839,0.205932,0.420187,0.349328,0
2024-12-11 14:31:39.820,0.627219,5.38924,11.2451,0.194937,0.388422,0.332225,0
2024-12-11 14:31:39.822,0.658325,5.26451,11.1398,0.179055,0.348717,0.312067,0
2024-12-11 14:31:39.825,0.689432,5.12573,11.0871,0.164394,0.302293,0.29313,0
2024-12-11 14:31:39.827,0.727717,4.97976,11.0632,0.145458,0.250371,0.272972,0
2024-12-11 14:31:39.830,0.80668,4.81227,11.0871,0.110029,0.140419,0.228991,0
2024-12-11 14:31:39.833,0.902692,4.64208,11.19,0.0959794,0.0842206,0.20639,0
2024-12-11 14:31:39.834,1.01994,4.45544,11.3575,0.0959794,0.0842206,0.20639,0
2024-12-11 14:31:39.839,1.27837,4.06271,11.7861,0.0764323,-0.0116825,0.161798,0
2024-12-11 14:31:39.840,1.27837,4.06271,11.7861,0.0745997,-0.0465007,0.140419,0
2024-12-11 14:31:39.841,1.40279,3.87607,12.035,0.0745997,-0.0465007,0.140419,0
2024-12-11 14:31:39.843,1.52273,3.68226,12.2626,0.0807082,-0.0739889,0.120871,0
2024-12-11 14:31:39.846,1.63998,3.48574,12.4923,0.0868167,-0.0941468,0.103157,0
2024-12-11 14:31:39.848,1.75005,3.28235,12.7223,0.100255,-0.105753,0.0842206,0
2024-12-11 14:31:39.851,1.84816,3.0667,12.9066,0.119192,-0.111861,0.0707819,0
2024-12-11 14:31:39.853,1.94387,2.86092,13.0693,0.138739,-0.113694,0.0555107,0
2024-12-11 14:31:39.856,1.93191,2.72213,13.1483,0.189439,-0.0874275,0.0396287,0
2024-12-11 14:31:39.859,1.67587,2.7341,13.0813,0.214484,-0.0691021,0.0432938,0
2024-12-11 14:31:39.861,1.62562,2.62881,13.1794,0.241361,-0.0581068,0.046348,0
2024-12-11 14:31:39.862,1.9343,2.32223,13.4524,0.241361,-0.0581068,0.046348,0
2024-12-11 14:31:39.866,2.14038,1.98485,13.5936,0.279234,-0.041614,0.0439046,0
2024-12-11 14:31:39.867,2.25524,1.64955,13.6128,0.323215,-0.0122933,0.0347419,0
2024-12-11 14:31:39.869,2.36052,1.38604,13.5912,0.370861,0.0280226,0.0268009,1
2024-12-11 14:31:39.872,2.42273,1.15872,13.5529,0.424004,0.0805555,0.0158057,0
2024-12-11 14:31:39.874,2.43709,0.955334,13.4907,0.479591,0.136143,0.00725381,0
2024-12-11 14:31:39.876,2.36291,0.830609,13.3926,0.538233,0.195395,0.000534491,0
2024-12-11 14:31:39.879,2.17388,0.801895,13.2084,0.599317,0.258312,0.000534491,0
2024-12-11 14:31:39.882,1.87687,0.854836,12.9257,0.710492,0.38659,0.0127514,0
2024-12-11 14:31:39.883,1.57059,0.955334,12.6072,0.710492,0.38659,0.0127514,0
2024-12-11 14:31:39.887,1.33101,1.06062,12.253,0.807616,0.500818,0.0402396,0
2024-12-11 14:31:39.888,1.14676,1.15872,11.8771,0.807616,0.500818,0.0402396,0
2024-12-11 14:31:39.892,0.99362,1.23051,11.47,0.849154,0.548464,0.0542891,0
2024-12-11 14:31:39.893,0.881157,1.26879,11.0393,0.881529,0.590613,0.0646735,0
2024-12-11 14:31:39.896,0.825823,1.28315,10.6226,0.93284,0.655363,0.0720036,0
2024-12-11 14:31:39.898,0.797109,1.28794,10.194,0.93284,0.655363,0.0720036,0
2024-12-11 14:31:39.900,0.749253,1.30947,9.75105,0.951166,0.680407,0.0707819,0
2024-12-11 14:31:39.905,0.643968,1.38844,8.89891,0.959107,0.6969,0.0689494,0
2024-12-11 14:31:39.907,0.572184,1.42941,8.47269,0.957274,0.71095,0.0561216,0
2024-12-11 14:31:39.908,0.572184,1.42941,8.47269,0.946279,0.705452,0.0512348,0
2024-12-11 14:31:39.909,0.476471,1.47488,8.05364,0.946279,0.705452,0.0512348,0
2024-12-11 14:31:39.913,0.387936,1.51316,7.66122,0.92551,0.688349,0.0420721,0
2024-12-11 14:31:39.914,0.330509,1.53948,7.28525,0.899244,0.662693,0.0341311,0
2024-12-11 14:31:39.917,0.301795,1.55384,6.94517,0.862593,0.628486,0.0237467,0
2024-12-11 14:31:39.920,0.277567,1.57059,6.66521,0.769744,0.530139,-0.00374144,0
2024-12-11 14:31:39.922,0.272782,1.59691,6.44477,0.769744,0.530139,-0.00374144,0
2024-12-11 14:31:39.924,0.256032,1.63041,6.27009,0.717211,0.470887,-0.0202343,0
2024-12-11 14:31:39.926,0.215354,1.68305,6.15763,0.659791,0.40797,-0.041614,0
2024-12-11 14:31:39.928,0.198604,1.74766,6.13849,0.605426,0.342609,-0.0611611,0
2024-12-11 14:31:39.932,0.215354,1.77637,6.18874,0.497917,0.202725,-0.106975,0
2024-12-11 14:31:39.934,0.263211,1.78594,6.29163,0.497917,0.202725,-0.106975,0
2024-12-11 14:31:39.935,0.328116,1.79312,6.4328,0.448438,0.131867,-0.133852,0
2024-12-11 14:31:39.938,0.3999,1.79073,6.58624,0.403846,0.0628409,-0.161951,0
2024-12-11 14:31:39.940,0.469292,1.75962,6.7681,0.366585,-0.00374144,-0.192493,0
2024-12-11 14:31:39.943,0.545863,1.71894,6.98824,0.329323,-0.0660479,-0.227312,0
2024-12-11 14:31:39.945,0.627219,1.68784,7.24457,0.299392,-0.1253,-0.26213,0
2024-12-11 14:31:39.947,0.689432,1.65434,7.50299,0.273736,-0.178444,-0.298781,0
2024-12-11 14:31:39.950,0.720539,1.60409,7.74258,0.256021,-0.225479,-0.335431,0
2024-12-11 14:31:39.952,0.739681,1.55145,7.97707,0.245026,-0.264573,-0.371471,0
2024-12-11 14:31:39.955,0.751645,1.51316,8.19033,0.234031,-0.32749,-0.438665,0
2024-12-11 14:31:39.956,0.742074,1.46052,8.36262,0.234031,-0.32749,-0.438665,0
2024-12-11 14:31:39.959,0.703789,1.39801,8.45833,0.229755,-0.353146,-0.47165,0
2024-12-11 14:31:39.961,0.65354,1.33101,8.50858,0.229144,-0.376358,-0.499139,0
2024-12-11 14:31:39.966,0.50997,1.20897,8.54447,0.219981,-0.40629,-0.546174,0
2024-12-11 14:31:39.967,0.50997,1.20897,8.54447,0.213262,-0.416063,-0.56511,0
2024-12-11 14:31:39.968,0.447757,1.13958,8.51815,0.213262,-0.416063,-0.56511,0
2024-12-11 14:31:39.971,0.395115,1.06062,8.48465,0.202878,-0.424615,-0.580381,0
2024-12-11 14:31:39.973,0.330509,1.00798,8.44158,0.19005,-0.429502,-0.595042,0
2024-12-11 14:31:39.975,0.258425,0.984048,8.41047,0.17539,-0.434389,-0.607259,0
2024-12-11 14:31:39.978,0.189033,0.940978,8.39133,0.157064,-0.433778,-0.61581,0
2024-12-11 14:31:39.981,0.129212,0.890728,8.37697,0.121024,-0.421561,-0.628027,0
2024-12-11 14:31:39.982,0.0933201,0.847657,8.35065,0.121024,-0.421561,-0.628027,0
2024-12-11 14:31:39.986,0.0550349,0.821037,8.34108,0.0745997,-0.409955,-0.639023,0
2024-12-11 14:31:39.988,-0.00239282,0.818644,8.34347,0.0745997,-0.409955,-0.639023,0
2024-12-11 14:31:39.989,-0.0646062,0.825823,8.33869,0.0532201,-0.397738,-0.640855,0
2024-12-11 14:31:39.995,-0.122034,0.864407,8.29562,-0.0243575,-0.351314,-0.643909,0
2024-12-11 14:31:39.997,-0.189033,0.869193,8.30997,-0.0243575,-0.351314,-0.643909,0
2024-12-11 14:31:39.997,-0.189033,0.869193,8.30997,-0.0243575,-0.351314,-0.643909,0
2024-12-11 14:31:39.999,-0.20339,0.893121,8.31237,-0.0524565,-0.334821,-0.640855,0
2024-12-11 14:31:40.001,-0.205783,0.907478,8.30758,-0.0524565,-0.334821,-0.640855,0
2024-12-11 14:31:40.005,-0.210568,0.897907,8.31476,-0.141029,-0.270682,-0.640855,0
2024-12-11 14:31:40.007,-0.222533,0.893121,8.32912,-0.17035,-0.250524,-0.640244,0
2024-12-11 14:31:40.009,-0.236889,0.9003,8.35783,-0.17035,-0.250524,-0.640244,0
2024-12-11 14:31:40.011,-0.251246,0.912264,8.39133,-0.201503,-0.230977,-0.639023,0
2024-12-11 14:31:40.014,-0.244068,0.926621,8.4344,-0.230213,-0.209597,-0.639023,0
2024-12-11 14:31:40.015,-0.256032,0.940978,8.49183,-0.25648,-0.190661,-0.635968,0
2024-12-11 14:31:40.020,-0.301795,0.94337,8.6665,-0.310234,-0.158286,-0.631692,0
2024-12-11 14:31:40.020,-0.301795,0.94337,8.6665,-0.310234,-0.158286,-0.631692,0
2024-12-11 14:31:40.027,-0.368794,0.962513,8.96112,-0.360934,-0.106975,-0.623751,0
2024-12-11 14:31:40.027,-0.402293,0.97687,8.96112,-0.360934,-0.106975,-0.623751,0
2024-12-11 14:31:40.029,-0.438186,0.996012,9.0688,-0.373762,-0.0904818,-0.619475,0
2024-12-11 14:31:40.029,-0.438186,0.996012,9.0688,-0.373762,-0.0904818,-0.619475,0
2024-12-11 14:31:40.034,-0.517149,1.00319,9.27727,-0.384147,-0.0538309,-0.609702,0
2024-12-11 14:31:40.037,-0.579362,1.02473,9.35624,-0.384757,-0.0385597,-0.601761,0
2024-12-11 14:31:40.038,-0.579362,1.02473,9.35624,-0.381703,-0.0177909,-0.592598,0
2024-12-11 14:31:40.040,-0.65354,1.07019,9.4352,-0.381703,-0.0177909,-0.592598,0
2024-12-11 14:31:40.042,-0.706182,1.1013,9.51177,-0.362156,0.0219141,-0.573662,0
2024-12-11 14:31:40.044,-0.758824,1.11805,9.55963,-0.362156,0.0219141,-0.573662,0
2024-12-11 14:31:40.046,-0.813859,1.13958,9.57159,-0.348717,0.0414613,-0.560223,0
2024-12-11 14:31:40.049,-0.864407,1.18026,9.55723,-0.335279,0.0628409,-0.551061,0
2024-12-11 14:31:40.051,-0.929013,1.22333,9.52134,-0.316953,0.0854423,-0.538233,0
2024-12-11 14:31:40.053,-0.972084,1.2664,9.46631,-0.301071,0.103768,-0.524794,0
2024-12-11 14:31:40.058,-1.05344,1.35733,9.27966,-0.265031,0.137364,-0.497306,0
2024-12-11 14:31:40.058,-1.05344,1.35733,9.27966,-0.265031,0.137364,-0.497306,0
2024-12-11 14:31:40.060,-1.08215,1.41506,9.14776,-0.247928,0.151414,-0.483867,0
2024-12-11 14:31:40.062,-1.12522,1.4677,9.01137,-0.233878,0.164242,-0.47165,0
2024-12-11 14:31:40.065,-1.17787,1.52034,8.85344,-0.22044,0.174015,-0.45699,0
2024-12-11 14:31:40.068,-1.21854,1.58016,8.68565,-0.197227,0.1844,-0.431945,0
2024-12-11 14:31:40.070,-1.24487,1.64955,8.54447,-0.197227,0.1844,-0.431945,0
2024-12-11 14:31:40.072,-1.25683,1.71655,8.42962,-0.191119,0.188065,-0.417896,0
2024-12-11 14:31:40.074,-1.26401,1.79551,8.31476,-0.183789,0.186843,-0.408733,0
2024-12-11 14:31:40.078,-1.27597,1.84576,8.21426,-0.17035,0.181345,-0.385521,0
2024-12-11 14:31:40.079,-1.29751,1.88405,8.12543,-0.17035,0.181345,-0.385521,0
2024-12-11 14:31:40.082,-1.31665,1.94387,8.03689,-0.156911,0.178902,-0.361698,0
2024-12-11 14:31:40.085,-1.3334,2.01117,7.95314,-0.156911,0.178902,-0.361698,0
2024-12-11 14:31:40.086,-1.33579,2.07817,7.88375,-0.146527,0.175848,-0.353146,0
2024-12-11 14:31:40.088,-1.34058,2.12124,7.82154,-0.137364,0.172183,-0.340318,0
2024-12-11 14:31:40.091,-1.36451,2.17388,7.72822,-0.131867,0.169128,-0.328101,0
2024-12-11 14:31:40.094,-1.38126,2.23131,7.63729,-0.116595,0.157522,-0.303667,0
2024-12-11 14:31:40.095,-1.36929,2.27199,7.55085,-0.116595,0.157522,-0.303667,0
2024-12-11 14:31:40.099,-1.35015,2.31266,7.47428,-0.103768,0.138586,-0.280455,0
2024-12-11 14:31:40.100,-1.34536,2.3342,7.4025,-0.103768,0.138586,-0.280455,0
2024-12-11 14:31:40.102,-1.3334,2.36291,7.35225,-0.0970484,0.125758,-0.271293,0
2024-12-11 14:31:40.105,-1.30708,2.40598,7.29482,-0.0921616,0.11293,-0.262741,0
2024-12-11 14:31:40.107,-1.30469,2.44905,7.23021,-0.0884965,0.0970484,-0.2548,0
2024-12-11 14:31:40.110,-1.2999,2.49691,7.18475,-0.0829989,0.0799446,-0.24808,0
2024-12-11 14:31:40.112,-1.28554,2.53549,7.14168,-0.0775012,0.0591758,-0.24075,0
2024-12-11 14:31:40.114,-1.28554,2.58574,7.10818,-0.0720036,0.0390179,-0.234642,0
2024-12-11 14:31:40.117,-1.2664,2.62881,7.09382,-0.0701711,0.0170274,-0.230366,0
2024-12-11 14:31:40.119,-1.24247,2.64796,7.0675,-0.0640626,-0.00679568,-0.223646,0
2024-12-11 14:31:40.121,-1.20419,2.68385,7.04357,-0.0628409,-0.0306187,-0.219371,0
2024-12-11 14:31:40.124,-1.16112,2.71017,7.04597,-0.0579541,-0.0538309,-0.216316,0
2024-12-11 14:31:40.126,-1.12522,2.72453,7.05793,-0.0530674,-0.0770431,-0.214484,0
2024-12-11 14:31:40.128,-1.09412,2.74606,7.06032,-0.0494023,-0.101477,-0.215705,0
2024-12-11 14:31:40.132,-1.07258,2.76521,7.07946,-0.0414613,-0.144847,-0.216316,0
2024-12-11 14:31:40.134,-1.04148,2.78196,7.11296,-0.0359636,-0.165616,-0.216927,0
2024-12-11 14:31:40.136,-1.00798,2.80588,7.1345,-0.0359636,-0.165616,-0.216927,0
2024-12-11 14:31:40.138,-0.974477,2.82981,7.16561,-0.030466,-0.187606,-0.219981,0
2024-12-11 14:31:40.140,-0.962513,2.85374,7.20868,-0.0261901,-0.207764,-0.220592,0
2024-12-11 14:31:40.143,-0.957727,2.88485,7.235,-0.0188599,-0.225479,-0.223646,0
2024-12-11 14:31:40.145,-0.955334,2.90878,7.25414,-0.0158057,-0.245637,-0.227922,0
2024-12-11 14:31:40.147,-0.950549,2.9327,7.28286,-0.0109189,-0.260908,-0.229755,0
2024-12-11 14:31:40.150,-0.948156,2.95663,7.30678,-0.0096972,-0.278012,-0.230366,0
2024-12-11 14:31:40.152,-0.952942,2.9686,7.34268,-0.00481042,-0.293283,-0.234031,0
2024-12-11 14:31:40.154,-0.96012,2.96381,7.37139,7.63559e-05,-0.309776,-0.237085,0
2024-12-11 14:31:40.157,-0.957727,2.97099,7.39771,0.00374144,-0.324436,-0.238918,0
2024-12-11 14:31:40.160,-0.94337,2.99013,7.44317,0.0110716,-0.347648,-0.241972,0
2024-12-11 14:31:40.161,-0.938585,3.00927,7.48624,0.0110716,-0.347648,-0.241972,0
2024-12-11 14:31:40.165,-0.929013,3.02363,7.52932,0.0165692,-0.364752,-0.241361,0
2024-12-11 14:31:40.166,-0.914656,3.02363,7.55564,0.0165692,-0.364752,-0.241361,0
2024-12-11 14:31:40.168,-0.905085,3.02842,7.56282,0.021456,-0.369028,-0.244415,0
2024-12-11 14:31:40.172,-0.893121,3.04277,7.59901,0.021456,-0.373915,-0.24808,0
2024-12-11 14:31:40.173,-0.878764,3.04995,7.63011,0.021456,-0.373915,-0.24808,0
2024-12-11 14:31:40.175,-0.8668,3.0667,7.65165,0.0220669,-0.373915,-0.250524,0
2024-12-11 14:31:40.178,-0.862014,3.08345,7.6684,0.0226777,-0.374526,-0.250524,0
2024-12-11 14:31:40.180,-0.854836,3.09093,7.67797,0.0220669,-0.370861,-0.252967,0
2024-12-11 14:31:40.183,-0.845265,3.09093,7.68036,0.0190126,-0.365974,-0.252356,0
2024-12-11 14:31:40.185,-0.85005,3.1005,7.68515,0.0153475,-0.361698,-0.251745,0
2024-12-11 14:31:40.188,-0.862014,3.12921,7.68754,0.00557398,-0.353146,-0.252356,0
2024-12-11 14:31:40.190,-0.8668,3.13161,7.68754,0.00557398,-0.353146,-0.252356,0
2024-12-11 14:31:40.192,-0.859622,3.12921,7.71147,-0.000534491,-0.352535,-0.253578,0
2024-12-11 14:31:40.194,-0.837787,3.14357,7.75454,-0.0109189,-0.350092,-0.2548,0
2024-12-11 14:31:40.198,-0.82343,3.14357,7.80958,-0.0268009,-0.342762,-0.260297,0
2024-12-11 14:31:40.199,-0.809073,3.17228,7.88136,-0.0268009,-0.342762,-0.260297,0
2024-12-11 14:31:40.201,-0.797109,3.20818,7.93639,-0.0310769,-0.336042,-0.264573,0
2024-12-11 14:31:40.204,-0.789931,3.22493,7.98664,-0.0365745,-0.330545,-0.268849,0
2024-12-11 14:31:40.206,-0.799502,3.23928,8.05843,-0.0439046,-0.321993,-0.271293,0
2024-12-11 14:31:40.209,-0.809073,3.25843,8.12543,-0.0481806,-0.317106,-0.278623,0
2024-12-11 14:31:40.211,-0.797109,3.27996,8.19512,-0.0530674,-0.310998,-0.284731,0
2024-12-11 14:31:40.213,-0.785145,3.3015,8.24298,-0.0561216,-0.304278,-0.292061,0
2024-12-11 14:31:40.216,-0.799502,3.30868,8.3004,-0.058565,-0.299392,-0.296337,0
2024-12-11 14:31:40.218,-0.809073,3.32303,8.36501,-0.0616192,-0.296948,-0.304889,0
2024-12-11 14:31:40.220,-0.813859,3.34218,8.42722,-0.0616192,-0.291451,-0.31283,0
2024-12-11 14:31:40.223,-0.857229,3.35175,8.49183,-0.0616192,-0.288396,-0.319549,0
2024-12-11 14:31:40.225,-0.9003,3.37807,8.56122,-0.0610084,-0.286564,-0.325658,0
2024-12-11 14:31:40.228,-0.926621,3.3996,8.62583,-0.0573433,-0.280455,-0.336042,0
2024-12-11 14:31:40.231,-0.957727,3.40917,8.67847,-0.0573433,-0.280455,-0.336042,0
2024-12-11 14:31:40.233,-0.969691,3.40678,8.74098,-0.0469589,-0.282288,-0.339707,0
2024-12-11 14:31:40.235,-0.969691,3.39242,8.82234,-0.0469589,-0.282288,-0.339707,0
2024-12-11 14:31:40.238,-0.988834,3.38764,8.92044,-0.0316877,-0.292672,-0.342762,0
2024-12-11 14:31:40.240,-1.01994,3.38285,9.02333,-0.0316877,-0.292672,-0.342762,0
2024-12-11 14:31:40.241,-1.04387,3.37089,9.11905,-0.0231358,-0.29817,-0.342151,0
2024-12-11 14:31:40.245,-1.04865,3.38046,9.20997,0.00679568,-0.304278,-0.34154,0
2024-12-11 14:31:40.247,-1.06301,3.41635,9.30599,0.0251211,-0.303057,-0.342151,0
2024-12-11 14:31:40.249,-1.08694,3.44985,9.39213,0.0251211,-0.303057,-0.342151,0
2024-12-11 14:31:40.251,-1.10848,3.47617,9.46391,0.0452791,-0.300002,-0.339707,0
2024-12-11 14:31:40.253,-1.10848,3.5001,9.54288,0.0678804,-0.294505,-0.338486,0
2024-12-11 14:31:40.256,-1.10608,3.51924,9.60509,0.0910926,-0.287785,-0.342151,0
2024-12-11 14:31:40.258,-1.14676,3.56471,9.62663,0.117359,-0.278012,-0.340318,0
2024-12-11 14:31:40.260,-1.21137,3.61974,9.62184,0.140571,-0.267017,-0.339097,0
2024-12-11 14:31:40.263,-1.28554,3.70379,9.60748,0.168059,-0.252356,-0.340318,0
2024-12-11 14:31:40.265,-1.37647,3.81625,9.54527,0.19005,-0.23342,-0.339707,0
2024-12-11 14:31:40.267,-1.49163,3.9335,9.43041,0.21204,-0.213262,-0.336653,0
2024-12-11 14:31:40.271,-1.61127,4.05793,9.27966,0.229144,-0.194937,-0.335431,0
2024-12-11 14:31:40.272,-1.75484,4.17039,9.09033,0.240139,-0.179665,-0.33421,0
2024-12-11 14:31:40.274,-1.91516,4.28076,8.87019,0.245637,-0.165616,-0.33421,0
2024-12-11 14:31:40.277,-2.04945,4.41236,8.64736,0.245026,-0.157675,-0.331766,0
2024-12-11 14:31:40.280,-2.18345,4.57508,8.42244,0.216316,-0.160729,-0.331766,0
2024-12-11 14:31:40.282,-2.3342,4.74018,8.19273,0.216316,-0.160729,-0.331766,0
2024-12-11 14:31:40.284,-2.45863,4.88644,7.99621,0.192493,-0.165616,-0.329323,0
2024-12-11 14:31:40.286,-2.54507,4.99412,7.84786,0.164394,-0.174779,-0.331156,0
2024-12-11 14:31:40.290,-2.6001,5.07069,7.76411,0.0892601,-0.208375,-0.335431,0
2024-12-11 14:31:40.291,-2.60249,5.13051,7.73779,0.0892601,-0.208375,-0.335431,0
2024-12-11 14:31:40.294,-2.59532,5.2023,7.75933,0.00618483,-0.260908,-0.350703,0
2024-12-11 14:31:40.297,-2.61446,5.27408,7.82393,-0.0390179,-0.29084,-0.356811,0
2024-12-11 14:31:40.298,-2.61446,5.31715,7.91964,-0.0390179,-0.29084,-0.356811,0
2024-12-11 14:31:40.301,-2.55703,5.32194,8.0345,-0.0829989,-0.324436,-0.364141,0
2024-12-11 14:31:40.305,-2.34616,5.29083,8.39133,-0.17035,-0.397738,-0.387964,0
2024-12-11 14:31:40.306,-2.34616,5.29083,8.39133,-0.209444,-0.438054,-0.402014,0
2024-12-11 14:31:40.308,-2.27677,5.23101,8.64736,-0.209444,-0.438054,-0.402014,0
2024-12-11 14:31:40.310,-2.25524,5.1688,8.89651,-0.247928,-0.480813,-0.414231,0
2024-12-11 14:31:40.312,-2.24806,5.09462,9.14297,-0.281524,-0.522962,-0.425837,0
2024-12-11 14:31:40.314,-2.21934,4.99173,9.43998,-0.310234,-0.564499,-0.436832,0
2024-12-11 14:31:40.317,-2.15713,4.89601,9.74627,-0.337111,-0.607869,-0.444162,0
2024-12-11 14:31:40.320,-2.08056,4.78834,10.0887,-0.378038,-0.68728,-0.453936,0
2024-12-11 14:31:40.322,-1.99442,4.67558,10.4767,-0.378038,-0.68728,-0.453936,0
2024-12-11 14:31:40.324,-1.90319,4.56551,10.8835,-0.385979,-0.719044,-0.459433,0
2024-12-11 14:31:40.327,-1.79791,4.45783,11.269,-0.383536,-0.753251,-0.466153,0
2024-12-11 14:31:40.330,-1.70937,4.37408,11.645,-0.383536,-0.753251,-0.466153,0
2024-12-11 14:31:40.331,-1.64477,4.29512,12.023,-0.370708,-0.755694,-0.46432,0
2024-12-11 14:31:40.333,-1.58016,4.2329,12.3894,-0.348107,-0.747753,-0.464931,0
2024-12-11 14:31:40.336,-1.52752,4.18235,12.7343,-0.324284,-0.73065,-0.46432,0
2024-12-11 14:31:40.338,-1.44616,4.12971,13.019,-0.291298,-0.704383,-0.463709,0
2024-12-11 14:31:40.340,-1.16112,4.02921,13.1964,-0.255258,-0.676284,-0.461877,0
2024-12-11 14:31:40.343,-1.10848,3.95264,13.4979,-0.216164,-0.653683,-0.46432,0
2024-12-11 14:31:40.345,-1.4677,3.94786,13.8188,-0.17035,-0.6152,-0.460044,0
2024-12-11 14:31:40.348,-1.73809,3.92632,13.8476,-0.118428,-0.554115,-0.445384,0
2024-12-11 14:31:40.350,-1.82901,3.88804,13.7758,-0.0689494,-0.478981,-0.426448,0
2024-12-11 14:31:40.353,-1.84098,3.84257,13.7638,-0.0194708,-0.397738,-0.402014,0
2024-12-11 14:31:40.355,-1.86491,3.78993,13.7519,0.0324513,-0.318328,-0.374526,0
2024-12-11 14:31:40.357,-1.94865,3.72533,13.6965,0.0764323,-0.249302,-0.339707,0
2024-12-11 14:31:40.360,-2.11645,3.67029,13.5721,0.150956,-0.145458,-0.260297,0
2024-12-11 14:31:40.362,-2.30548,3.61256,13.3424,0.150956,-0.145458,-0.260297,0
2024-12-11 14:31:40.364,-2.47537,3.55514,13.0789,0.181498,-0.10392,-0.214484,0
2024-12-11 14:31:40.367,-2.60728,3.53121,12.7989,0.215705,-0.0391706,-0.112472,0
2024-12-11 14:31:40.369,-2.71735,3.53839,12.5115,0.215705,-0.0391706,-0.112472,0
2024-12-11 14:31:40.371,-2.79392,3.58385,12.3057,0.222425,-0.0196235,-0.0581068,0
2024-12-11 14:31:40.373,-2.81785,3.64128,12.1884,0.22609,-0.00984991,-0.00618483,0
2024-12-11 14:31:40.376,-2.8346,3.71097,12.0999,0.224257,-0.0129041,0.0469589,0
2024-12-11 14:31:40.378,-2.81306,3.81865,12.0613,0.225479,-0.0208452,0.0982701,0
2024-12-11 14:31:40.380,-2.74367,3.91197,12.0541,0.221814,-0.037338,0.145916,0
2024-12-11 14:31:40.383,-2.6336,3.98614,12.0784,0.222425,-0.0568851,0.187454,0
2024-12-11 14:31:40.385,-2.49212,4.05793,12.1358,0.223036,-0.0819299,0.22777,0
2024-12-11 14:31:40.387,-2.31506,4.13211,12.2267,0.227922,-0.111251,0.261977,0
2024-12-11 14:31:40.390,-2.12842,4.22812,12.344,0.231587,-0.141793,0.292519,0
2024-12-11 14:31:40.392,-1.93669,4.32622,12.4588,0.238918,-0.177222,0.319397,0
2024-12-11 14:31:40.394,-1.7333,4.41236,12.5833,0.249913,-0.21143,0.340776,0
2024-12-11 14:31:40.397,-1.54666,4.49372,12.7032,0.263352,-0.245026,0.356048,0
2024-12-11 14:31:40.400,-1.40279,4.57508,12.8157,0.288396,-0.319549,0.382925,0
2024-12-11 14:31:40.402,-1.32383,4.65883,12.8922,0.288396,-0.319549,0.382925,0
2024-12-11 14:31:40.404,-1.27837,4.76411,12.9449,0.297559,-0.357422,0.396364,0
2024-12-11 14:31:40.406,-1.21376,4.88166,12.9879,0.310387,-0.390408,0.410413,0
2024-12-11 14:31:40.410,-1.13958,4.96541,12.9951,0.317717,-0.430113,0.423852,0
2024-12-11 14:31:40.411,-1.06062,5.05155,13.0071,0.320771,-0.467985,0.436069,0
2024-12-11 14:31:40.413,-0.984048,5.14726,13.019,0.328101,-0.50769,0.448286,0
2024-12-11 14:31:40.417,-0.864407,5.21905,13.0071,0.315884,-0.58649,0.479439,0
2024-12-11 14:31:40.418,-0.672682,5.27647,12.9736,0.315884,-0.58649,0.479439,0
2024-12-11 14:31:40.420,-0.438186,5.31954,12.9473,0.304278,-0.618254,0.489212,0
2024-12-11 14:31:40.423,-0.205783,5.36531,12.9544,0.29084,-0.645742,0.495932,0
2024-12-11 14:31:40.426,0.00957129,5.40838,12.9927,0.270071,-0.673841,0.50204,0
2024-12-11 14:31:40.427,0.236889,5.42513,13.0214,0.250524,-0.69461,0.505094,0
2024-12-11 14:31:40.430,0.483649,5.41795,13.0549,0.227312,-0.712935,0.505705,0
2024-12-11 14:31:40.432,0.73011,5.41556,13.098,0.200434,-0.725763,0.505094,0
2024-12-11 14:31:40.435,0.984048,5.39881,13.1243,0.171724,-0.732482,0.502651,0
2024-12-11 14:31:40.437,1.26162,5.34856,13.1746,0.140571,-0.734926,0.496542,0
2024-12-11 14:31:40.440,1.52513,5.28604,13.2538,0.0788757,-0.719044,0.479439,0
2024-12-11 14:31:40.443,1.77159,5.2023,13.3376,0.0477224,-0.699496,0.464778,0
2024-12-11 14:31:40.444,2.01595,5.12094,13.4453,0.0477224,-0.699496,0.464778,0
2024-12-11 14:31:40.447,2.25284,5.03958,13.5793,0.0190126,-0.674452,0.450729,0
2024-12-11 14:31:40.449,2.4658,4.94148,13.7085,-0.00847551,-0.642688,0.433625,0
2024-12-11 14:31:40.451,2.65992,4.84816,13.8165,-0.0310769,-0.602372,0.4153,0
2024-12-11 14:31:40.453,2.8681,4.75454,13.9313,-0.0512348,-0.553504,0.397585,0
2024-12-11 14:31:40.457,3.05713,4.63968,14.0557,-0.0768904,-0.44233,0.356658,0
2024-12-11 14:31:40.458,3.20818,4.47458,14.1778,-0.0768904,-0.44233,0.356658,0
2024-12-11 14:31:40.460,3.335,4.28076,14.2902,-0.0854423,-0.379413,0.332225,0
2024-12-11 14:31:40.464,3.44746,4.08664,14.3839,-0.0817772,-0.234031,0.286411,0
2024-12-11 14:31:40.465,3.50489,3.87607,14.4532,-0.0817772,-0.234031,0.286411,1
2024-12-11 14:31:40.468,3.49053,3.66072,14.5131,-0.0707819,-0.154621,0.26381,0
2024-12-11 14:31:40.470,3.37089,3.49532,14.5537,-0.0567324,-0.0709346,0.243652,0
2024-12-11 14:31:40.472,3.09571,3.41157,14.4867,-0.0377962,0.0158057,0.22777,0
2024-12-11 14:31:40.476,2.81785,3.30868,14.4221,0.013515,0.186232,0.22044,0
2024-12-11 14:31:40.478,2.74606,3.07388,14.4676,0.0465007,0.259534,0.212498,0
2024-12-11 14:31:40.480,2.71256,2.78674,14.4245,0.0862058,0.337111,0.205779,0
2024-12-11 14:31:40.482,2.61685,2.54267,14.24,0.0862058,0.337111,0.205779,0
2024-12-11 14:31:40.484,2.53071,2.35813,14.0031,0.126522,0.423852,0.198449,0
2024-12-11 14:31:40.487,2.40359,2.25284,13.7444,0.164394,0.513646,0.191119,0
2024-12-11 14:31:40.489,2.20259,2.21216,13.5362,0.207154,0.602219,0.185621,0
2024-12-11 14:31:40.491,1.93908,2.20259,13.3639,0.249302,0.687738,0.183178,0
2024-12-11 14:31:40.493,1.64955,2.20259,13.1507,0.293283,0.767148,0.185621,0
2024-12-11 14:31:40.496,1.37169,2.20738,12.909,0.336042,0.841137,0.194784,0
2024-12-11 14:31:40.498,1.13958,2.17149,12.6434,0.381245,0.905886,0.202114,0
2024-12-11 14:31:40.501,0.948156,2.09731,12.3583,0.428891,0.960863,0.214331,0
2024-12-11 14:31:40.503,0.773181,2.02313,12.023,0.473483,1.00912,0.22777,0
2024-12-11 14:31:40.505,0.608076,1.95823,11.6306,0.510745,1.0476,0.238154,0
2024-12-11 14:31:40.509,0.452543,1.87926,11.2092,0.552282,1.08059,0.252204,0
2024-12-11 14:31:40.510,0.294616,1.80987,10.8021,0.585268,1.09708,0.266864,0
2024-12-11 14:31:40.512,0.136391,1.75962,10.4145,0.612145,1.10502,0.283357,0
2024-12-11 14:31:40.515,0.00957129,1.7333,10.0217,0.632914,1.09891,0.30046,0
2024-12-11 14:31:40.517,-0.081356,1.72373,9.66012,0.65124,1.08609,0.318175,0
2024-12-11 14:31:40.519,-0.177069,1.72373,9.32034,0.661624,1.06104,0.334668,0
2024-12-11 14:31:40.523,-0.22014,1.73809,8.98026,0.667122,1.02561,0.351161,0
2024-12-11 14:31:40.524,-0.215354,1.74766,8.68565,0.668954,0.981632,0.365821,0
2024-12-11 14:31:40.526,-0.224925,1.77398,8.44876,0.666511,0.92971,0.378038,0
2024-12-11 14:31:40.529,-0.212961,1.79073,8.22862,0.662235,0.870457,0.387201,0
2024-12-11 14:31:40.531,-0.16989,1.80269,8.02493,0.656737,0.806318,0.394531,0
2024-12-11 14:31:40.533,-0.0981057,1.80509,7.86222,0.646964,0.735995,0.40125,0
2024-12-11 14:31:40.536,0.00957129,1.79551,7.70908,0.634747,0.662693,0.405526,0
2024-12-11 14:31:40.538,0.155533,1.77876,7.57747,0.621919,0.586337,0.407359,0
2024-12-11 14:31:40.540,0.325723,1.74287,7.46949,0.603593,0.507538,0.406137,0
2024-12-11 14:31:40.543,0.4669,1.72134,7.39771,0.584657,0.431182,0.400639,0
2024-12-11 14:31:40.546,0.574577,1.69502,7.37139,0.564499,0.358491,0.394531,0
2024-12-11 14:31:40.549,0.821037,1.64477,7.32593,0.522962,0.22105,0.368875,0
2024-12-11 14:31:40.550,1.19701,1.57059,7.28046,0.522962,0.22105,0.368875,0
2024-12-11 14:31:40.552,1.52752,1.50598,7.302,0.501582,0.150803,0.345663,0
2024-12-11 14:31:40.555,1.79312,1.47966,7.36182,0.476537,0.0781121,0.320008,0
2024-12-11 14:31:40.557,1.97288,1.45573,7.43121,0.455158,0.0109189,0.284578,0
2024-12-11 14:31:40.559,2.08535,1.43181,7.51735,0.431335,-0.0489441,0.247928,0
2024-12-11 14:31:40.563,2.19781,1.42463,7.6014,0.396516,-0.141793,0.167907,0
2024-12-11 14:31:40.564,2.31027,1.41984,7.69233,0.396516,-0.141793,0.167907,0
2024-12-11 14:31:40.566,2.3988,1.43181,7.81675,0.381245,-0.176611,0.127591,0
2024-12-11 14:31:40.569,2.4323,1.44377,7.94357,0.371471,-0.204099,0.0860531,0
2024-12-11 14:31:40.571,2.41077,1.45334,8.04646,0.361698,-0.226701,0.046348,0
2024-12-11 14:31:40.574,2.37727,1.42941,8.1015,0.355589,-0.241972,0.010308,0
2024-12-11 14:31:40.576,2.31745,1.37647,8.1015,0.346427,-0.2548,-0.0220669,0
2024-12-11 14:31:40.579,2.23609,1.31426,8.08714,0.336653,-0.260297,-0.0526092,0
2024-12-11 14:31:40.581,2.14038,1.24487,8.05843,0.32688,-0.263962,-0.077654,0
2024-12-11 14:31:40.583,2.02074,1.18983,8.01297,0.314052,-0.263352,-0.0978119,0
2024-12-11 14:31:40.585,1.88644,1.13719,7.97707,0.301835,-0.261519,-0.114916,0
2024-12-11 14:31:40.589,1.74527,1.09412,7.91964,0.289007,-0.256632,-0.127133,0
2024-12-11 14:31:40.591,1.62084,1.05823,7.86222,0.257854,-0.245637,-0.136906,0
2024-12-11 14:31:40.592,1.5012,1.0319,7.82393,0.257854,-0.245637,-0.136906,0
2024-12-11 14:31:40.595,1.38365,1.01755,7.77368,0.241361,-0.237085,-0.136295,0
2024-12-11 14:31:40.598,1.27358,1.02473,7.70908,0.201656,-0.209597,-0.130798,0
2024-12-11 14:31:40.600,1.17069,1.05105,7.65883,0.201656,-0.209597,-0.130798,0
2024-12-11 14:31:40.603,1.09651,1.08694,7.60618,0.163173,-0.169892,-0.116748,0
2024-12-11 14:31:40.604,1.04148,1.12044,7.56282,0.163173,-0.169892,-0.116748,0
2024-12-11 14:31:40.607,0.97687,1.15155,7.54128,0.142404,-0.144847,-0.107585,0
2024-12-11 14:31:40.609,0.9003,1.20897,7.50299,0.118581,-0.122246,-0.0984228,0
2024-12-11 14:31:40.611,0.80668,1.26162,7.4336,0.0996445,-0.0917034,-0.0862058,0
2024-12-11 14:31:40.614,0.715753,1.28794,7.35703,0.0758214,-0.0599394,-0.073378,0
2024-12-11 14:31:40.616,0.627219,1.30947,7.27328,0.0526092,-0.0238994,-0.0568851,0
2024-12-11 14:31:40.618,0.538684,1.35254,7.18236,0.0269536,0.010308,-0.0397814,0
2024-12-11 14:31:40.622,0.474078,1.40788,7.09861,-0.0329094,0.0726145,-0.000687203,0
2024-12-11 14:31:40.624,0.438186,1.44377,7.02204,-0.0329094,0.0726145,-0.000687203,0
2024-12-11 14:31:40.625,0.411865,1.46291,6.97388,-0.0640626,0.101935,0.0200816,0
2024-12-11 14:31:40.629,0.390329,1.47727,6.96192,-0.127591,0.171572,0.0579541,0
2024-12-11 14:31:40.630,0.387936,1.49163,6.96192,-0.127591,0.171572,0.0579541,0
2024-12-11 14:31:40.632,0.375972,1.52991,6.97388,-0.156911,0.207612,0.0787229,0
2024-12-11 14:31:40.636,0.354437,1.58255,7.01964,-0.203947,0.282135,0.115985,0
2024-12-11 14:31:40.638,0.342473,1.63998,7.09621,-0.203947,0.282135,0.115985,0
2024-12-11 14:31:40.639,0.328116,1.70219,7.14886,-0.219218,0.319397,0.13431,0
2024-12-11 14:31:40.642,0.318545,1.76919,7.17039,-0.234489,0.354826,0.155079,0
2024-12-11 14:31:40.645,0.313759,1.83859,7.2015,-0.247928,0.389033,0.171572,0
2024-12-11 14:31:40.646,0.328116,1.9008,7.23021,-0.25648,0.421408,0.188065,0
2024-12-11 14:31:40.649,0.34008,1.95344,7.25893,-0.260145,0.448286,0.205168,0
2024-12-11 14:31:40.651,0.361615,2.00638,7.28764,-0.263199,0.475163,0.218607,0
2024-12-11 14:31:40.655,0.395115,2.06142,7.28764,-0.26381,0.515479,0.241208,0
2024-12-11 14:31:40.656,0.41665,2.11884,7.29243,-0.26381,0.515479,0.241208,0
2024-12-11 14:31:40.658,0.428614,2.18584,7.31875,-0.259534,0.529528,0.24976,0
2024-12-11 14:31:40.662,0.457328,2.25045,7.33789,-0.244263,0.546021,0.263199,0
2024-12-11 14:31:40.663,0.498006,2.32223,7.34985,-0.244263,0.546021,0.263199,0
2024-12-11 14:31:40.665,0.517149,2.3988,7.35943,-0.232656,0.546632,0.268696,0
2024-12-11 14:31:40.668,0.524327,2.45863,7.36421,-0.215553,0.544799,0.274194,0
2024-12-11 14:31:40.671,0.538684,2.50887,7.37139,-0.199671,0.539302,0.277248,0
2024-12-11 14:31:40.672,0.54347,2.56182,7.369,-0.183789,0.527696,0.279081,0
2024-12-11 14:31:40.675,0.536291,2.59771,7.34268,-0.161798,0.512424,0.282135,0
2024-12-11 14:31:40.678,0.531506,2.65992,7.33071,-0.139197,0.495321,0.284578,0
2024-12-11 14:31:40.680,0.557827,2.75324,7.34507,-0.117206,0.476385,0.286411,0
2024-12-11 14:31:40.683,0.605683,2.8346,7.3355,-0.0683385,0.433014,0.283357,0
2024-12-11 14:31:40.684,0.629611,2.90878,7.31875,-0.0683385,0.433014,0.283357,0
2024-12-11 14:31:40.689,0.641576,2.98295,7.27089,-0.0200816,0.388422,0.277248,0
2024-12-11 14:31:40.691,0.687039,3.14596,7.25653,-0.0200816,0.388422,0.277248,0
2024-12-11 14:31:40.692,0.687039,3.14596,7.25653,0.0269536,0.337111,0.269307,0
2024-12-11 14:31:40.694,0.687039,3.20339,7.24936,0.0269536,0.337111,0.269307,0
2024-12-11 14:31:40.696,0.689432,3.268,7.23021,0.0513875,0.312677,0.263199,0
2024-12-11 14:31:40.698,0.687039,3.32303,7.21586,0.0782648,0.287022,0.25709,0
2024-12-11 14:31:40.701,0.670289,3.37567,7.20628,0.105142,0.263199,0.253425,0
2024-12-11 14:31:40.704,0.660718,3.43789,7.17518,0.152177,0.218607,0.241819,0
2024-12-11 14:31:40.706,0.677468,3.49053,7.12971,0.152177,0.218607,0.241819,0
2024-12-11 14:31:40.709,0.696611,3.52882,7.04836,0.195547,0.173404,0.228991,0
2024-12-11 14:31:40.710,0.696611,3.55992,6.9691,0.195547,0.173404,0.228991,0
2024-12-11 14:31:40.713,0.687039,3.58864,6.89253,0.21204,0.149581,0.223494,0
2024-12-11 14:31:40.716,0.708575,3.62692,6.78963,0.238307,0.102546,0.209444,0
2024-12-11 14:31:40.717,0.744467,3.6679,6.68914,0.238307,0.102546,0.209444,0
2024-12-11 14:31:40.720,0.761217,3.699,6.58624,0.245026,0.0793338,0.200282,0
2024-12-11 14:31:40.722,0.80668,3.72533,6.49532,0.247469,0.0542891,0.190508,0
2024-12-11 14:31:40.724,0.893121,3.72533,6.4352,0.245637,0.0292443,0.178902,0
2024-12-11 14:31:40.727,1.0343,3.69183,6.41605,0.241972,0.00603212,0.164242,0
2024-12-11 14:31:40.729,1.04148,3.73011,6.38495,0.237696,-0.0141258,0.145916,0
2024-12-11 14:31:40.732,0.864407,3.84497,6.31795,0.217538,-0.0452791,0.120871,0
2024-12-11 14:31:40.735,0.804287,3.9335,6.30598,0.217538,-0.0452791,0.120871,0
2024-12-11 14:31:40.736,0.890728,3.96939,6.37777,0.207764,-0.0587177,0.108654,0
2024-12-11 14:31:40.739,0.972084,3.96939,6.45942,0.186385,-0.0831516,0.0781121,0
2024-12-11 14:31:40.742,1.0343,3.94068,6.50728,0.17539,-0.0892601,0.0610084,0
2024-12-11 14:31:40.743,1.09651,3.90718,6.55035,0.17539,-0.0892601,0.0610084,0
2024-12-11 14:31:40.745,1.15394,3.87368,6.60539,0.164394,-0.0910926,0.0432938,0
2024-12-11 14:31:40.748,1.17547,3.82582,6.66042,0.15401,-0.0880384,0.0255792,0
2024-12-11 14:31:40.750,1.17069,3.78754,6.71546,0.141793,-0.0843733,0.00725381,0
2024-12-11 14:31:40.752,1.15155,3.766,6.76331,0.127133,-0.0794865,-0.00801737,0
2024-12-11 14:31:40.755,1.12044,3.7349,6.80638,0.114305,-0.0697129,-0.021456,0
2024-12-11 14:31:40.757,1.08694,3.70379,6.87099,0.0996445,-0.0611611,-0.033673,0
2024-12-11 14:31:40.760,1.04626,3.67029,6.95474,0.0849841,-0.0489441,-0.0428357,0
2024-12-11 14:31:40.763,1.00319,3.63171,7.034,0.0556635,-0.0251211,-0.0568851,0
2024-12-11 14:31:40.764,0.94337,3.61017,7.12493,0.0556635,-0.0251211,-0.0568851,0
2024-12-11 14:31:40.767,0.885943,3.6006,7.20389,0.0477224,-0.00984991,-0.0623828,0
2024-12-11 14:31:40.769,0.835394,3.58624,7.29721,0.0379489,0.00908635,-0.0642153,0
2024-12-11 14:31:40.771,0.777966,3.57428,7.41207,0.0287862,0.0292443,-0.0666587,0
2024-12-11 14:31:40.774,0.737288,3.56949,7.52214,0.0220669,0.0487914,-0.0672696,0
2024-12-11 14:31:40.777,0.696611,3.56471,7.63251,0.0159584,0.090329,-0.0623828,0
2024-12-11 14:31:40.779,0.632004,3.54317,7.74258,0.0159584,0.090329,-0.0623828,0
2024-12-11 14:31:40.781,0.586541,3.51924,7.85504,0.0141258,0.110487,-0.0568851,0
2024-12-11 14:31:40.783,0.565005,3.51446,7.98186,0.013515,0.130034,-0.0519984,0
2024-12-11 14:31:40.785,0.538684,3.5001,8.10629,0.0159584,0.147749,-0.0440574,0
2024-12-11 14:31:40.789,0.517149,3.48335,8.21905,0.0269536,0.183178,-0.0269536,0
2024-12-11 14:31:40.790,0.478864,3.48574,8.34587,0.0269536,0.183178,-0.0269536,0
2024-12-11 14:31:40.792,0.438186,3.47139,8.47029,0.0348946,0.200282,-0.0159584,0
2024-12-11 14:31:40.795,0.397508,3.45224,8.59233,0.0434465,0.211277,-0.00557398,0
2024-12-11 14:31:40.797,0.35683,3.47139,8.70748,0.0599394,0.226548,0.00358873,0
2024-12-11 14:31:40.800,0.318545,3.48814,8.79362,0.0752106,0.237543,0.0200816,0
2024-12-11 14:31:40.803,0.297009,3.49053,8.87976,0.0917034,0.244873,0.0329094,0
2024-12-11 14:31:40.804,0.301795,3.49771,8.94916,0.113083,0.250371,0.0475697,0
2024-12-11 14:31:40.807,0.289831,3.51207,8.98983,0.132019,0.257701,0.0622301,0
2024-12-11 14:31:40.809,0.297009,3.52882,9.00898,0.150345,0.260755,0.0762796,0
2024-12-11 14:31:40.811,0.328116,3.55753,8.99223,0.16867,0.264421,0.0921616,0
2024-12-11 14:31:40.815,0.366401,3.58624,8.97069,0.197991,0.268086,0.115985,0
2024-12-11 14:31:40.816,0.421436,3.58385,8.94916,0.197991,0.268086,0.115985,0
2024-12-11 14:31:40.819,0.454935,3.59581,8.9348,0.210819,0.266864,0.127591,0
2024-12-11 14:31:40.822,0.474078,3.62931,8.93959,0.223036,0.261977,0.137364,0
2024-12-11 14:31:40.823,0.498006,3.66311,8.95634,0.232809,0.257701,0.144084,0
2024-12-11 14:31:40.826,0.519542,3.70618,8.97308,0.243194,0.250982,0.14897,0
2024-12-11 14:31:40.829,0.524327,3.76361,8.98026,0.265184,0.244873,0.164242,0
2024-12-11 14:31:40.831,0.50997,3.84018,8.9683,0.274347,0.243041,0.170961,0
2024-12-11 14:31:40.832,0.514756,3.9,8.93241,0.274347,0.243041,0.170961,0
2024-12-11 14:31:40.835,0.548256,3.92393,8.89173,0.282288,0.241819,0.176459,0
2024-12-11 14:31:40.837,0.593719,3.92872,8.88216,0.284731,0.233878,0.180124,0
2024-12-11 14:31:40.841,0.617647,3.9335,8.90609,0.285953,0.224105,0.182567,0
2024-12-11 14:31:40.842,0.608076,3.94547,8.93719,0.288396,0.210055,0.183178,0
2024-12-11 14:31:40.844,0.574577,3.96222,8.98983,0.290229,0.194784,0.183178,0
2024-12-11 14:31:40.848,0.538684,3.98375,9.05923,0.292061,0.180124,0.183178,0
2024-12-11 14:31:40.849,0.514756,3.99571,9.14058,0.296337,0.166074,0.183178,0
2024-12-11 14:31:40.851,0.490828,3.99811,9.20758,0.304278,0.153857,0.185621,0
2024-12-11 14:31:40.855,0.474078,4.00289,9.25544,0.307333,0.138586,0.188065,0
2024-12-11 14:31:40.856,0.471685,3.99571,9.29881,0.315274,0.123315,0.19173,0
2024-12-11 14:31:40.858,0.459721,3.98614,9.35145,0.319549,0.104379,0.196006,0
2024-12-11 14:31:40.861,0.440578,3.96461,9.41127,0.324436,0.0854423,0.198449,0
2024-12-11 14:31:40.863,0.435793,3.92393,9.47348,0.329934,0.0646735,0.199671,0
2024-12-11 14:31:40.866,0.445364,3.88804,9.54048,0.335431,0.0451263,0.202114,0
2024-12-11 14:31:40.868,0.471685,3.84736,9.61705,0.337875,0.0249684,0.203947,0
2024-12-11 14:31:40.870,0.483649,3.81147,9.71516,0.342762,0.00664296,0.204557,0
2024-12-11 14:31:40.873,0.478864,3.78993,9.81326,0.34887,-0.00862822,0.205779,0
2024-12-11 14:31:40.876,0.474078,3.75883,9.92603,0.36353,-0.0312296,0.208833,0
2024-12-11 14:31:40.877,0.476471,3.71097,10.0433,0.36353,-0.0312296,0.208833,0
2024-12-11 14:31:40.881,0.493221,3.67029,10.1677,0.372082,-0.0410031,0.210666,0
2024-12-11 14:31:40.882,0.514756,3.61974,10.2778,0.381856,-0.0458899,0.214942,0
2024-12-11 14:31:40.884,0.519542,3.55753,10.3615,0.391629,-0.0507767,0.219218,0
2024-12-11 14:31:40.888,0.519542,3.47857,10.436,0.40629,-0.0526092,0.224105,0
2024-12-11 14:31:40.889,0.514756,3.41396,10.4958,0.40629,-0.0526092,0.224105,0
2024-12-11 14:31:40.892,0.502792,3.3685,10.5485,0.413009,-0.0513875,0.230213,0
2024-12-11 14:31:40.894,0.498006,3.30868,10.6131,0.421561,-0.0519984,0.233267,0
2024-12-11 14:31:40.896,0.478864,3.25125,10.6849,0.427059,-0.0532201,0.238765,0
2024-12-11 14:31:40.898,0.445364,3.20578,10.7495,0.431335,-0.0471116,0.247928,0
2024-12-11 14:31:40.902,0.438186,3.15793,10.8141,0.433778,-0.0440574,0.255869,0
2024-12-11 14:31:40.903,0.426222,3.11007,10.8906,0.436221,-0.037338,0.264421,0
2024-12-11 14:31:40.906,0.407079,3.06909,10.9651,0.441108,-0.0245102,0.277248,0
2024-12-11 14:31:40.909,0.375972,3.05713,11.0225,0.444773,0.0133623,0.301071,0
2024-12-11 14:31:40.910,0.301795,3.07149,11.08,0.444773,0.0133623,0.301071,0
2024-12-11 14:31:40.913,0.196211,3.09332,11.1517,0.449049,0.0414613,0.316343,0
2024-12-11 14:31:40.915,0.0574277,3.15075,11.2116,0.450271,0.0787229,0.332835,0
2024-12-11 14:31:40.917,-0.129212,3.268,11.2355,0.44966,0.123315,0.35055,0
2024-12-11 14:31:40.920,-0.354437,3.44267,11.2331,0.44966,0.176459,0.370708,0
2024-12-11 14:31:40.922,-0.605683,3.64606,11.1996,0.448438,0.233267,0.391477,0
2024-12-11 14:31:40.924,-0.873978,3.8689,11.1039,0.443551,0.290076,0.414689,0
2024-12-11 14:31:40.928,-1.14676,4.07707,10.9675,0.416674,0.385368,0.459281,0
2024-12-11 14:31:40.929,-1.37886,4.25683,10.8093,0.416674,0.385368,0.459281,0
2024-12-11 14:31:40.932,-1.59212,4.44826,10.6346,0.390408,0.4153,0.479439,0
2024-12-11 14:31:40.935,-1.84576,4.64208,10.4599,0.319549,0.441566,0.513035,0
2024-12-11 14:31:40.936,-2.08295,4.80748,10.2921,0.319549,0.441566,0.513035,0
2024-12-11 14:31:40.939,-2.26959,4.91994,10.194,0.26946,0.434236,0.531361,0
2024-12-11 14:31:40.941,-2.37966,4.98694,10.1773,0.216927,0.404915,0.546021,0
2024-12-11 14:31:40.943,-2.4012,5.01805,10.2323,0.158897,0.354826,0.558238,0
2024-12-11 14:31:40.947,-2.31266,4.99891,10.3424,0.0355055,0.185621,0.566179,0
2024-12-11 14:31:40.949,-2.12602,4.93191,10.4862,0.0355055,0.185621,0.566179,0
2024-12-11 14:31:40.950,-1.85533,4.79073,10.6825,-0.030466,0.0646735,0.563125,0
2024-12-11 14:31:40.953,-1.45813,4.56072,10.9627,-0.104379,-0.077654,0.553351,0
2024-12-11 14:31:40.955,-0.988834,4.26162,11.3815,-0.182567,-0.238307,0.537469,0
2024-12-11 14:31:40.958,-0.4669,3.91675,11.9369,-0.329781,-0.593209,0.486769,0
2024-12-11 14:31:40.961,0.107677,3.55274,12.5474,-0.329781,-0.593209,0.486769,0
2024-12-11 14:31:40.962,0.641576,3.19382,13.1916,-0.394531,-0.772798,0.454394,0
2024-12-11 14:31:40.965,1.12044,2.86092,13.9098,-0.45134,-0.943835,0.415911,0
2024-12-11 14:31:40.967,1.57537,2.58096,14.6638,-0.495932,-1.10754,0.374984,0
2024-12-11 14:31:40.969,1.97528,2.35813,15.4445,-0.528307,-1.2572,0.330392,0
2024-12-11 14:31:40.971,2.51366,2.1667,16.232,-0.549686,-1.38853,0.281524,0
2024-12-11 14:31:40.975,3.09093,1.99681,17.0674,-0.549686,-1.59744,0.167907,0
2024-12-11 14:31:40.976,3.07149,2.01356,17.9653,-0.549686,-1.59744,0.167907,0
2024-12-11 14:31:40.979,2.77717,2.10927,18.7696,-0.522809,-1.63898,0.123926,0
2024-12-11 14:31:40.981,2.84417,2.04945,19.4474,-0.479439,-1.63715,0.0878856,0
2024-12-11 14:31:40.983,3.09571,1.8673,20.0602,-0.419576,-1.59194,0.0512348,0
2024-12-11 14:31:40.986,3.41635,1.59691,20.5965,-0.348107,-1.51131,0.0133623,0
2024-12-11 14:31:40.988,3.7684,1.29512,21.0248,-0.260145,-1.40197,-0.0300079,0
2024-12-11 14:31:40.990,3.99093,0.991227,21.3506,-0.167907,-1.2682,-0.0764323,1
2024-12-11 14:31:40.994,4.02204,0.689432,21.5228,-0.0658951,-1.11854,-0.122246,0
2024-12-11 14:31:40.997,3.79711,0.138784,21.3601,0.143625,-0.776463,-0.193104,0
2024-12-11 14:31:40.997,3.79711,0.138784,21.3601,0.143625,-0.776463,-0.193104,0
2024-12-11 14:31:41.000,3.5671,-0.0311067,21.0105,0.245026,-0.600539,-0.220592,0
2024-12-11 14:31:41.003,2.80349,-0.0143569,20.4984,0.423394,-0.22609,-0.21876,0
2024-12-11 14:31:41.005,1.80987,0.143569,19.7513,0.423394,-0.22609,-0.21876,0
2024-12-11 14:31:41.007,0.938585,0.337687,18.8919,0.492419,-0.033673,-0.180276,0
2024-12-11 14:31:41.009,0.232104,0.533899,18.073,0.544341,0.149581,-0.128354,0
2024-12-11 14:31:41.012,-0.265603,0.71336,17.3094,0.585268,0.315121,-0.0678804,0
2024-12-11 14:31:41.015,-0.538684,0.862014,16.6056,0.624973,0.579007,0.0610084,0
2024-12-11 14:31:41.016,-0.73011,0.988834,15.9254,0.624973,0.579007,0.0610084,0
2024-12-11 14:31:41.019,-0.929013,1.13001,15.2121,0.628638,0.690792,0.117206,0
2024-12-11 14:31:41.021,-1.11565,1.2664,14.47,0.627416,0.787917,0.170961,0
2024-12-11 14:31:41.023,-1.24726,1.37886,13.7228,0.627416,0.787917,0.170961,0
2024-12-11 14:31:41.027,-1.16112,1.40788,13.0214,0.560834,1.02683,0.302293,0
2024-12-11 14:31:41.029,-1.07258,1.45573,12.3344,0.518686,1.08853,0.334668,0
2024-12-11 14:31:41.030,-1.21615,1.6352,11.6282,0.518686,1.08853,0.334668,0
2024-12-11 14:31:41.033,-1.4004,1.86251,10.989,0.462488,1.1374,0.366432,0
2024-12-11 14:31:41.036,-1.55145,2.1332,10.4192,0.322604,1.17955,0.428738,0
2024-12-11 14:31:41.037,-1.64237,2.38923,9.9356,0.322604,1.17955,0.428738,0
2024-12-11 14:31:41.040,-1.65434,2.61924,9.55723,0.239528,1.1716,0.455616,0
2024-12-11 14:31:41.042,-1.62802,2.82981,9.27488,0.150345,1.14656,0.478217,0
2024-12-11 14:31:41.044,-1.58973,3.00688,9.05444,0.0611611,1.10991,0.493488,0
2024-12-11 14:31:41.047,-1.51795,3.14357,8.91087,-0.0243575,1.0641,0.504483,0
2024-12-11 14:31:41.049,-1.42223,3.25125,8.86062,-0.109876,1.00729,0.510592,0
2024-12-11 14:31:41.051,-1.28076,3.33021,8.90609,-0.188065,0.948035,0.508759,0
2024-12-11 14:31:41.054,-1.08455,3.37089,9.01616,-0.263199,0.880231,0.501429,0
2024-12-11 14:31:41.056,-0.8668,3.37328,9.18844,-0.327949,0.808151,0.489212,0
2024-12-11 14:31:41.059,-0.579362,3.3015,9.45673,-0.382925,0.734162,0.470276,0
2024-12-11 14:31:41.062,-0.258425,3.15793,9.77977,-0.427517,0.656584,0.442788,0
2024-12-11 14:31:41.063,-0.00478565,3.00927,10.0935,-0.427517,0.656584,0.442788,0
2024-12-11 14:31:41.066,0.210568,2.88485,10.3977,-0.48005,0.51609,0.37193,0
2024-12-11 14:31:41.068,0.378365,2.77717,10.692,-0.48738,0.455005,0.333446,0
2024-12-11 14:31:41.070,0.507577,2.68864,10.9819,-0.483104,0.39392,0.290076,0
2024-12-11 14:31:41.073,0.593719,2.60967,11.2618,-0.470887,0.337722,0.247317,0
2024-12-11 14:31:41.076,0.612862,2.54267,11.5277,-0.448286,0.282746,0.208223,0
2024-12-11 14:31:41.078,0.579362,2.48016,11.7359,-0.420187,0.226548,0.168517,0
2024-12-11 14:31:41.080,0.514756,2.41077,11.8986,-0.384147,0.174015,0.133088,0
2024-12-11 14:31:41.082,0.435793,2.31745,12.0374,-0.345052,0.123315,0.101324,0
2024-12-11 14:31:41.085,0.344866,2.20499,12.1119,-0.301071,0.074447,0.0756687,0
2024-12-11 14:31:41.087,0.234497,2.08774,12.1358,-0.251593,0.0322986,0.0512348,0
2024-12-11 14:31:41.089,0.117248,1.96062,12.1143,-0.202725,-0.00251974,0.0353528,0
2024-12-11 14:31:41.091,-0.00478565,1.84337,12.0398,-0.154468,-0.0361163,0.0255792,0
2024-12-11 14:31:41.096,-0.177069,1.67827,11.7718,-0.0634518,-0.081319,0.014584,0
2024-12-11 14:31:41.097,-0.177069,1.67827,11.7718,-0.0206925,-0.0923143,0.0188599,0
2024-12-11 14:31:41.100,-0.244068,1.6017,11.5947,-0.0206925,-0.0923143,0.0188599,0
2024-12-11 14:31:41.101,-0.330509,1.54427,11.4269,0.0190126,-0.0965902,0.0219141,0
2024-12-11 14:31:41.104,-0.428614,1.50838,11.2522,0.0550526,-0.0929251,0.0310769,0
2024-12-11 14:31:41.106,-0.50997,1.5012,11.0728,0.0880384,-0.085595,0.0420721,0
2024-12-11 14:31:41.108,-0.572184,1.51555,10.917,0.119802,-0.0709346,0.0548999,0
2024-12-11 14:31:41.111,-0.624826,1.54905,10.7303,0.150956,-0.0501658,0.0701711,0
2024-12-11 14:31:41.115,-0.758824,1.59452,10.3137,0.206543,0.00297788,0.101324,0
2024-12-11 14:31:41.116,-0.758824,1.59452,10.3137,0.228533,0.0341311,0.119039,0
2024-12-11 14:31:41.117,-0.847657,1.60887,10.0552,0.228533,0.0341311,0.119039,0
2024-12-11 14:31:41.121,-0.919442,1.64237,9.76541,0.263352,0.101324,0.161187,0
2024-12-11 14:31:41.124,-0.972084,1.70459,9.19801,0.272514,0.133699,0.183789,0
2024-12-11 14:31:41.125,-0.972084,1.70459,9.19801,0.272514,0.133699,0.183789,0
2024-12-11 14:31:41.128,-0.969691,1.72373,8.92044,0.275568,0.198449,0.222272,0
2024-12-11 14:31:41.129,-0.957727,1.7668,8.6665,0.275568,0.198449,0.222272,0
2024-12-11 14:31:41.135,-0.921835,1.83859,8.21905,0.252356,0.288854,0.270529,0
2024-12-11 14:31:41.135,-0.921835,1.83859,8.21905,0.252356,0.288854,0.270529,0
2024-12-11 14:31:41.137,-0.909871,1.88405,8.00579,0.241361,0.318786,0.283968,0
2024-12-11 14:31:41.139,-0.895514,1.9343,7.79761,0.241361,0.318786,0.283968,0
2024-12-11 14:31:41.141,-0.835394,1.96301,7.58944,0.226701,0.344442,0.295574,0
2024-12-11 14:31:41.143,-0.775574,1.99202,7.38096,0.208375,0.368875,0.30718,0
2024-12-11 14:31:41.146,-0.727717,2.03031,7.18475,0.208375,0.368875,0.30718,0
2024-12-11 14:31:41.148,-0.679861,2.04706,6.98824,0.160729,0.404915,0.318786,0
2024-12-11 14:31:41.150,-0.632004,2.0351,6.80878,0.133241,0.4153,0.322451,0
2024-12-11 14:31:41.153,-0.565005,2.02552,6.67478,0.10331,0.424462,0.32184,0
2024-12-11 14:31:41.157,-0.600898,2.05185,6.53121,0.041614,0.429349,0.317564,0
2024-12-11 14:31:41.158,-0.600898,2.05185,6.53121,0.041614,0.429349,0.317564,0
2024-12-11 14:31:41.162,-0.428614,2.04227,6.44477,-0.0139731,0.433014,0.309623,0
2024-12-11 14:31:41.162,-0.428614,2.04227,6.44477,-0.0139731,0.433014,0.309623,0
2024-12-11 14:31:41.165,-0.246461,2.00399,6.4328,-0.0390179,0.42263,0.301682,0
2024-12-11 14:31:41.167,-0.136391,1.9681,6.45464,-0.0658951,0.403694,0.291909,0
2024-12-11 14:31:41.172,-0.174676,1.90798,6.58864,-0.108654,0.352383,0.263199,0
2024-12-11 14:31:41.172,-0.174676,1.90798,6.58864,-0.108654,0.352383,0.263199,0
2024-12-11 14:31:41.174,-0.205783,1.89362,6.63649,-0.126369,0.326116,0.252204,0
2024-12-11 14:31:41.176,-0.181855,1.8673,6.69871,-0.140419,0.302904,0.240597,0
2024-12-11 14:31:41.181,-0.122034,1.82901,6.8997,-0.154468,0.257701,0.214942,0
2024-12-11 14:31:41.181,-0.122034,1.82901,6.8997,-0.154468,0.257701,0.214942,0
2024-12-11 14:31:41.183,-0.0909273,1.81705,7.03639,-0.156911,0.235711,0.203947,0
2024-12-11 14:31:41.186,-0.0478565,1.79073,7.16082,-0.154468,0.212498,0.192341,0
2024-12-11 14:31:41.188,-0.00717847,1.74287,7.27328,-0.14836,0.185621,0.181345,0
2024-12-11 14:31:41.190,0.026321,1.69262,7.37378,-0.139808,0.161187,0.169739,0
2024-12-11 14:31:41.193,0.00957129,1.64716,7.47907,-0.129423,0.133088,0.155079,0
2024-12-11 14:31:41.195,-0.0311067,1.59691,7.56521,-0.115374,0.11232,0.144694,0
2024-12-11 14:31:41.197,0.0502493,1.52513,7.59661,-0.115374,0.11232,0.144694,0
2024-12-11 14:31:41.201,0.189033,1.44616,7.6684,-0.0842206,0.0677277,0.123315,0
2024-12-11 14:31:41.202,0.198604,1.38604,7.81197,-0.0652843,0.0408504,0.110487,0
2024-12-11 14:31:41.205,0.11007,1.35972,7.94836,-0.0457372,0.0139731,0.101935,0
2024-12-11 14:31:41.207,0.026321,1.33101,8.01775,-0.0237467,-0.0141258,0.0939941,0
2024-12-11 14:31:41.209,-0.026321,1.31186,8.05125,0.0019089,-0.0342838,0.0897182,0
2024-12-11 14:31:41.212,-0.0358923,1.31186,8.08714,0.0257319,-0.0544418,0.0878856,0
2024-12-11 14:31:41.216,-0.0334995,1.30708,8.10629,0.0727672,-0.0868167,0.0897182,0
2024-12-11 14:31:41.216,-0.0239282,1.30708,8.10629,0.0727672,-0.0868167,0.0897182,0
2024-12-11 14:31:41.219,-0.00239282,1.29033,8.10629,0.0929251,-0.0990336,0.0897182,0
2024-12-11 14:31:41.221,0.00957129,1.27837,8.09432,0.0929251,-0.0990336,0.0897182,0
2024-12-11 14:31:41.226,0.0311067,1.29033,8.00818,0.144847,-0.134463,0.0878856,0
2024-12-11 14:31:41.227,0.0622134,1.29033,8.00818,0.156453,-0.13996,0.0878856,0
2024-12-11 14:31:41.229,0.0861416,1.31426,7.93879,0.165616,-0.143625,0.0872748,0
2024-12-11 14:31:41.231,0.114855,1.3334,7.8694,0.165616,-0.143625,0.0872748,0
2024-12-11 14:31:41.233,0.160319,1.35733,7.78804,0.169281,-0.144236,0.0872748,0
2024-12-11 14:31:41.236,0.210568,1.38604,7.71147,0.165616,-0.147901,0.0799446,0
2024-12-11 14:31:41.238,0.256032,1.41266,7.65165,0.165616,-0.147901,0.0799446,0
2024-12-11 14:31:41.240,0.299402,1.43898,7.58704,0.16134,-0.148512,0.0750579,0
2024-12-11 14:31:41.242,0.352044,1.47009,7.51017,0.150345,-0.147291,0.0689494,0
2024-12-11 14:31:41.246,0.407079,1.49163,7.43121,0.136295,-0.145458,0.0640626,0
2024-12-11 14:31:41.247,0.447757,1.52034,7.38335,0.124689,-0.143625,0.0561216,0
2024-12-11 14:31:41.250,0.500399,1.55145,7.35464,0.10392,-0.13935,0.0469589,0
2024-12-11 14:31:41.252,0.533899,1.5658,7.3331,0.0819299,-0.136295,0.0371853,0
2024-12-11 14:31:41.254,0.548256,1.58973,7.33071,0.0605502,-0.131409,0.0268009,0
2024-12-11 14:31:41.257,0.553041,1.61605,7.34268,0.0385597,-0.126522,0.0176382,0
2024-12-11 14:31:41.259,0.555434,1.63041,7.35703,0.0147367,-0.122246,0.00725381,0
2024-12-11 14:31:41.261,0.572184,1.64237,7.369,-0.0109189,-0.116137,-0.00313059,0
2024-12-11 14:31:41.263,0.567398,1.64237,7.40967,-0.0359636,-0.112472,-0.0129041,0
2024-12-11 14:31:41.266,0.54347,1.63998,7.47667,-0.0610084,-0.107585,-0.021456,0
2024-12-11 14:31:41.268,0.548256,1.64477,7.52932,-0.086664,-0.10331,-0.0318404,0
2024-12-11 14:31:41.273,0.584148,1.62562,7.66122,-0.131867,-0.0953685,-0.0483333,0
2024-12-11 14:31:41.273,0.584148,1.62562,7.66122,-0.131867,-0.0953685,-0.0483333,0
2024-12-11 14:31:41.276,0.608076,1.62084,7.74497,-0.174626,-0.0959794,-0.0678804,0
2024-12-11 14:31:41.278,0.627219,1.60409,7.84786,-0.174626,-0.0959794,-0.0678804,0
2024-12-11 14:31:41.280,0.641576,1.60648,7.94357,-0.196616,-0.0965902,-0.0788757,0
2024-12-11 14:31:41.285,0.665504,1.62084,8.13769,-0.232656,-0.105753,-0.100255,0
2024-12-11 14:31:41.285,0.665504,1.62084,8.13769,-0.232656,-0.105753,-0.100255,0
2024-12-11 14:31:41.287,0.651147,1.64716,8.24776,-0.232656,-0.105753,-0.100255,0
2024-12-11 14:31:41.290,0.610469,1.67109,8.34826,-0.279692,-0.122246,-0.143015,0
2024-12-11 14:31:41.294,0.576969,1.72852,8.56122,-0.288854,-0.128354,-0.157064,0
2024-12-11 14:31:41.295,0.576969,1.72852,8.56122,-0.302293,-0.134463,-0.169281,0
2024-12-11 14:31:41.297,0.548256,1.71655,8.64258,-0.302293,-0.134463,-0.169281,0
2024-12-11 14:31:41.299,0.52672,1.70937,8.72662,-0.312677,-0.142404,-0.181498,0
2024-12-11 14:31:41.301,0.474078,1.70698,8.81037,-0.32184,-0.149734,-0.191882,0
2024-12-11 14:31:41.303,0.397508,1.70937,8.91087,-0.332225,-0.163783,-0.204099,0
2024-12-11 14:31:41.306,0.330509,1.70698,9.03769,-0.338944,-0.176611,-0.215095,0
2024-12-11 14:31:41.308,0.270389,1.68544,9.18605,-0.347496,-0.190661,-0.223036,0
2024-12-11 14:31:41.310,0.227318,1.64955,9.32513,-0.351161,-0.200434,-0.229755,0
2024-12-11 14:31:41.314,0.189033,1.61845,9.47348,-0.356048,-0.215705,-0.234642,0
2024-12-11 14:31:41.315,0.129212,1.60648,9.6362,-0.356658,-0.227922,-0.234642,0
2024-12-11 14:31:41.318,0.0550349,1.59452,9.79412,-0.355437,-0.237085,-0.235253,0
2024-12-11 14:31:41.321,-0.00717847,1.57298,9.95953,-0.344442,-0.253578,-0.227922,0
2024-12-11 14:31:41.323,-0.0334995,1.5682,10.1318,-0.344442,-0.253578,-0.227922,0
2024-12-11 14:31:41.326,-0.0502493,1.58016,10.2873,-0.335279,-0.260908,-0.221203,0
2024-12-11 14:31:41.327,-0.0622134,1.57777,10.4145,-0.323062,-0.267627,-0.214484,0
2024-12-11 14:31:41.332,-0.0478565,1.58016,10.6442,-0.295574,-0.26946,-0.196769,0
2024-12-11 14:31:41.334,-0.0358923,1.58016,10.7136,-0.27847,-0.26946,-0.188217,0
2024-12-11 14:31:41.335,-0.0358923,1.58016,10.7136,-0.264421,-0.266406,-0.179665,0
2024-12-11 14:31:41.336,-0.00957129,1.59212,10.7806,-0.264421,-0.266406,-0.179665,0
2024-12-11 14:31:41.339,0.0167498,1.63998,10.8188,-0.246706,-0.26213,-0.171724,0
2024-12-11 14:31:41.343,0.0454636,1.73569,10.8547,-0.211888,-0.245026,-0.15401,0
2024-12-11 14:31:41.344,0.0454636,1.73569,10.8547,-0.211888,-0.245026,-0.15401,0
2024-12-11 14:31:41.347,0.0598206,1.79791,10.8452,-0.180734,-0.224868,-0.143015,0
2024-12-11 14:31:41.351,0.0646062,1.9657,10.7638,-0.169128,-0.212651,-0.134463,0
2024-12-11 14:31:41.352,0.0646062,1.9657,10.7638,-0.15569,-0.200434,-0.127133,0
2024-12-11 14:31:41.353,0.0598206,2.05902,10.6992,-0.15569,-0.200434,-0.127133,0
2024-12-11 14:31:41.356,0.0358923,2.15713,10.6107,-0.142251,-0.177833,-0.119192,0
2024-12-11 14:31:41.360,0.0119641,2.31984,10.4432,-0.133699,-0.167449,-0.113694,0
2024-12-11 14:31:41.360,0.0119641,2.31984,10.4432,-0.133699,-0.167449,-0.113694,0
2024-12-11 14:31:41.363,0.0119641,2.4012,10.3687,-0.131867,-0.160118,-0.109418,0
2024-12-11 14:31:41.365,0.0358923,2.47777,10.2969,-0.12698,-0.150956,-0.107585,0
2024-12-11 14:31:41.367,0.0550349,2.54507,10.206,-0.128202,-0.143625,-0.106975,0
2024-12-11 14:31:41.370,0.0789631,2.60249,10.1198,-0.131256,-0.135684,-0.108196,0
2024-12-11 14:31:41.374,0.145962,2.71017,9.99063,-0.137364,-0.119192,-0.110029,0
2024-12-11 14:31:41.374,0.145962,2.71017,9.99063,-0.137364,-0.119192,-0.110029,0
2024-12-11 14:31:41.376,0.172283,2.77238,9.92842,-0.143473,-0.108196,-0.114305,0
2024-12-11 14:31:41.379,0.189033,2.81067,9.88056,-0.143473,-0.108196,-0.114305,0
2024-12-11 14:31:41.381,0.210568,2.86331,9.84706,-0.158744,-0.0953685,-0.126522,0
2024-12-11 14:31:41.384,0.239282,2.91117,9.81566,-0.166074,-0.085595,-0.133852,0
2024-12-11 14:31:41.386,0.265603,2.95663,9.79652,-0.172793,-0.077654,-0.142404,0
2024-12-11 14:31:41.388,0.258425,2.9997,9.78934,-0.180734,-0.0678804,-0.153399,0
2024-12-11 14:31:41.392,0.224925,3.0332,9.8013,-0.194173,-0.0452791,-0.171114,0
2024-12-11 14:31:41.394,0.200997,3.06431,9.81805,-0.194173,-0.0452791,-0.171114,0
2024-12-11 14:31:41.398,0.141177,3.09093,9.84946,-0.198449,-0.0287862,-0.19005,0
2024-12-11 14:31:41.399,0.141177,3.09093,9.84946,-0.198449,-0.0196235,-0.199823,0
2024-12-11 14:31:41.400,0.112463,3.09811,9.86381,-0.198449,-0.0196235,-0.199823,0
2024-12-11 14:31:41.402,0.081356,3.1005,9.86621,-0.19906,-0.0116825,-0.205932,0
2024-12-11 14:31:41.405,0.040678,3.11725,9.84706,-0.199671,-0.00557398,-0.21204,0
2024-12-11 14:31:41.407,0.00239282,3.11486,9.8351,-0.19906,-0.0019089,-0.219371,0
2024-12-11 14:31:41.409,-0.0239282,3.10768,9.83749,-0.200282,0.00419957,-0.221203,0
2024-12-11 14:31:41.413,-0.0646062,3.11246,9.8351,-0.19173,0.00725381,-0.232809,0
2024-12-11 14:31:41.414,-0.117248,3.11246,9.84706,-0.19173,0.00725381,-0.232809,0
2024-12-11 14:31:41.417,-0.16989,3.12204,9.8686,-0.187454,0.00725381,-0.237085,0
2024-12-11 14:31:41.419,-0.210568,3.14118,9.87817,-0.180124,0.00847551,-0.239528,0
2024-12-11 14:31:41.421,-0.265603,3.14836,9.87578,-0.175237,0.00603212,-0.243804,0
2024-12-11 14:31:41.424,-0.325723,3.15314,9.89253,-0.167907,0.00481042,-0.243804,0
2024-12-11 14:31:41.426,-0.366401,3.1675,9.91167,-0.153857,0.00481042,-0.243804,0
2024-12-11 14:31:41.428,-0.3999,3.16511,9.9332,-0.142862,-7.63559e-05,-0.245637,0
2024-12-11 14:31:41.431,-0.4334,3.16032,9.92842,-0.132477,-0.0019089,-0.246248,0
2024-12-11 14:31:41.434,-0.452543,3.15793,9.89731,-0.120871,-0.00374144,-0.245637,0
2024-12-11 14:31:41.435,-0.469292,3.14836,9.8686,-0.111098,-0.00801737,-0.245026,0
2024-12-11 14:31:41.438,-0.498006,3.14836,9.83988,-0.101324,-0.013515,-0.244415,0
2024-12-11 14:31:41.441,-0.519542,3.15314,9.80848,-0.0915507,-0.0190126,-0.242583,0
2024-12-11 14:31:41.445,-0.529113,3.16511,9.77259,-0.0750579,-0.033673,-0.242583,0
2024-12-11 14:31:41.445,-0.529113,3.16511,9.77259,-0.0750579,-0.033673,-0.242583,0
2024-12-11 14:31:41.448,-0.553041,3.15075,9.76541,-0.0591758,-0.0550526,-0.24075,0
2024-12-11 14:31:41.449,-0.572184,3.15314,9.78216,-0.0591758,-0.0550526,-0.24075,0
2024-12-11 14:31:41.454,-0.576969,3.1675,9.76302,-0.0414613,-0.0727672,-0.24075,0
2024-12-11 14:31:41.454,-0.576969,3.1675,9.76302,-0.0414613,-0.0727672,-0.24075,0
2024-12-11 14:31:41.456,-0.579362,3.17228,9.76541,-0.0335202,-0.0825407,-0.24075,0
2024-12-11 14:31:41.459,-0.569791,3.16989,9.75344,-0.0268009,-0.0910926,-0.241972,0
2024-12-11 14:31:41.461,-0.572184,3.16511,9.7343,-0.0200816,-0.0978119,-0.244415,0
2024-12-11 14:31:41.464,-0.591326,3.15075,9.71277,-0.0109189,-0.100255,-0.246248,0
2024-12-11 14:31:41.466,-0.596112,3.14357,9.69362,-0.00725381,-0.104531,-0.24808,0
2024-12-11 14:31:41.469,-0.579362,3.14357,9.64577,-0.00419957,-0.112472,-0.252967,0
2024-12-11 14:31:41.471,-0.565005,3.11964,9.56441,-0.00419957,-0.112472,-0.252967,0
2024-12-11 14:31:41.473,-0.555434,3.09332,9.49981,-0.00236703,-0.116748,-0.252967,0
2024-12-11 14:31:41.478,-0.533899,3.07627,9.40888,-0.0139731,-0.1253,-0.257243,0
2024-12-11 14:31:41.478,-0.50997,3.07627,9.40888,-0.0139731,-0.1253,-0.257243,0
2024-12-11 14:31:41.480,-0.490828,3.06431,9.37538,-0.0206925,-0.122246,-0.262741,0
2024-12-11 14:31:41.482,-0.483649,3.04995,9.35145,-0.0274118,-0.121635,-0.262741,0
2024-12-11 14:31:41.486,-0.481256,3.04277,9.33231,-0.0475697,-0.114305,-0.268849,0
2024-12-11 14:31:41.487,-0.488435,3.04038,9.32034,-0.0475697,-0.114305,-0.268849,0
2024-12-11 14:31:41.489,-0.498006,3.04517,9.33709,-0.0555107,-0.105753,-0.270071,0
2024-12-11 14:31:41.493,-0.507577,3.04995,9.32992,-0.0658951,-0.0972011,-0.271903,0
2024-12-11 14:31:41.494,-0.529113,3.03799,9.31316,-0.0762796,-0.0837624,-0.274347,0
2024-12-11 14:31:41.498,-0.553041,3.0332,9.30838,-0.0982701,-0.0611611,-0.272514,0
2024-12-11 14:31:41.500,-0.586541,3.02363,9.30838,-0.108654,-0.049555,-0.272514,0
2024-12-11 14:31:41.501,-0.615255,3.0021,9.30838,-0.108654,-0.049555,-0.272514,0
2024-12-11 14:31:41.505,-0.643968,2.97338,9.31316,-0.128812,-0.0257319,-0.265795,0
2024-12-11 14:31:41.507,-0.684646,2.95185,9.32274,-0.140419,-0.0153475,-0.260297,0
2024-12-11 14:31:41.512,-0.756431,2.91835,9.37059,-0.158133,0.00786466,-0.247469,0
2024-12-11 14:31:41.513,-0.773181,2.89203,9.39213,-0.158133,0.00786466,-0.247469,0
2024-12-11 14:31:41.513,-0.773181,2.89203,9.39213,-0.158133,0.00786466,-0.247469,0
2024-12-11 14:31:41.515,-0.792323,2.88485,9.42084,-0.167296,0.0182491,-0.239528,0
2024-12-11 14:31:41.520,-0.847657,2.88724,9.47109,-0.181345,0.0365745,-0.218149,0
2024-12-11 14:31:41.521,-0.816252,2.88724,9.47109,-0.181345,0.0365745,-0.218149,0
2024-12-11 14:31:41.525,-0.873978,2.95424,9.53809,-0.190508,0.0451263,-0.201656,0
2024-12-11 14:31:41.526,-0.873978,2.95424,9.53809,-0.194173,0.0487914,-0.189439,0
2024-12-11 14:31:41.527,-0.878764,2.97338,9.55723,-0.194173,0.0487914,-0.189439,0
2024-12-11 14:31:41.529,-0.8668,2.98535,9.5692,-0.196616,0.0451263,-0.180276,0
2024-12-11 14:31:41.532,-0.835394,2.9997,9.58116,-0.202725,0.0432938,-0.16867,0
2024-12-11 14:31:41.534,-0.780359,3.00927,9.60748,-0.211277,0.0335202,-0.158897,0
2024-12-11 14:31:41.537,-0.718146,3.01167,9.65773,-0.211277,0.0335202,-0.158897,0
2024-12-11 14:31:41.541,-0.643968,2.99252,9.74627,-0.225937,-0.00801737,-0.136906,0
2024-12-11 14:31:41.541,-0.56022,2.99252,9.74627,-0.225937,-0.00801737,-0.136906,0
2024-12-11 14:31:41.546,-0.471685,2.99013,9.81087,-0.232046,-0.0434465,-0.128965,0
2024-12-11 14:31:41.546,-0.375972,2.98535,9.87338,-0.232046,-0.0434465,-0.128965,0
2024-12-11 14:31:41.549,-0.277567,2.9662,9.94278,-0.238154,-0.0599394,-0.124078,0
2024-12-11 14:31:41.552,-0.172283,2.95185,10.0217,-0.241819,-0.0886492,-0.119802,0
2024-12-11 14:31:41.553,-0.0693919,2.93749,10.0959,-0.241819,-0.0886492,-0.119802,0
2024-12-11 14:31:41.555,0.0311067,2.90638,10.1868,-0.239987,-0.10392,-0.118581,0
2024-12-11 14:31:41.558,0.107677,2.88245,10.2826,-0.240597,-0.117359,-0.116137,0
2024-12-11 14:31:41.560,0.172283,2.87767,10.3735,-0.240597,-0.131409,-0.11797,0
2024-12-11 14:31:41.562,0.232104,2.88006,10.4886,-0.235711,-0.144236,-0.118581,0
2024-12-11 14:31:41.565,0.270389,2.87288,10.5724,-0.230824,-0.154621,-0.11797,0
2024-12-11 14:31:41.567,0.313759,2.85853,10.6322,-0.224715,-0.163783,-0.115526,0
2024-12-11 14:31:41.571,0.35683,2.84895,10.7088,-0.217996,-0.169892,-0.116137,0
2024-12-11 14:31:41.572,0.387936,2.83699,10.7734,-0.208833,-0.173557,-0.113083,0
2024-12-11 14:31:41.575,0.411865,2.82503,10.8188,-0.188065,-0.174168,-0.109418,0
2024-12-11 14:31:41.577,0.431007,2.82024,10.8476,-0.188065,-0.174168,-0.109418,0
2024-12-11 14:31:41.580,0.440578,2.82503,10.8667,-0.162409,-0.163173,-0.100866,0
2024-12-11 14:31:41.581,0.447757,2.82263,10.8811,-0.162409,-0.163173,-0.100866,0
2024-12-11 14:31:41.584,0.440578,2.82981,10.8954,-0.150803,-0.151566,-0.0984228,0
2024-12-11 14:31:41.587,0.407079,2.84417,10.893,-0.127591,-0.122857,-0.0849841,0
2024-12-11 14:31:41.588,0.373579,2.85135,10.8835,-0.127591,-0.122857,-0.0849841,0
2024-12-11 14:31:41.591,0.337687,2.85613,10.8763,-0.11293,-0.105753,-0.0764323,0
2024-12-11 14:31:41.593,0.292223,2.86331,10.8523,-0.100103,-0.0886492,-0.0672696,0
2024-12-11 14:31:41.595,0.234497,2.88963,10.8188,-0.0836097,-0.0678804,-0.0526092,0
2024-12-11 14:31:41.598,0.177069,2.9016,10.7614,-0.0695602,-0.0471116,-0.0397814,0
2024-12-11 14:31:41.601,0.124427,2.91835,10.6872,-0.0402396,-0.00496313,-0.00679568,0
2024-12-11 14:31:41.603,0.0981057,2.95185,10.6083,-0.0402396,-0.00496313,-0.00679568,0
2024-12-11 14:31:41.606,0.0885344,2.98056,10.4934,-0.0151948,0.030466,0.0268009,0
2024-12-11 14:31:41.608,0.0885344,3.00449,10.3759,-0.0151948,0.030466,0.0268009,0
2024-12-11 14:31:41.610,0.105284,3.03081,10.2586,-0.00481042,0.0457372,0.0414613,0
2024-12-11 14:31:41.613,0.133998,3.06192,10.1318,0.0129041,0.0677277,0.0689494,0
2024-12-11 14:31:41.614,0.174676,3.10289,10.0146,0.0129041,0.0677277,0.0689494,0
2024-12-11 14:31:41.617,0.215354,3.14118,9.90928,0.0196235,0.0768904,0.0805555,0
2024-12-11 14:31:41.619,0.256032,3.18425,9.82792,0.0245102,0.0848314,0.0884965,0
2024-12-11 14:31:41.621,0.304188,3.23928,9.76062,0.0306187,0.0915507,0.0958267,0
2024-12-11 14:31:41.624,0.354437,3.27518,9.67448,0.0367272,0.0958267,0.100103,0
2024-12-11 14:31:41.626,0.41665,3.30868,9.6027,0.0422248,0.101324,0.104379,0
2024-12-11 14:31:41.629,0.471685,3.35414,9.56202,0.0471116,0.102546,0.103768,0
2024-12-11 14:31:41.632,0.507577,3.402,9.50698,0.0519984,0.103157,0.100103,0
2024-12-11 14:31:41.633,0.531506,3.44746,9.43998,0.0562743,0.104379,0.0970484,0
2024-12-11 14:31:41.635,0.550648,3.48574,9.37777,0.0617719,0.106211,0.0921616,0
2024-12-11 14:31:41.639,0.576969,3.50728,9.30359,0.0684913,0.100713,0.0787229,0
2024-12-11 14:31:41.641,0.605683,3.52882,9.21955,0.0703238,0.0933833,0.0720036,0
2024-12-11 14:31:41.645,0.63679,3.55035,9.01137,0.0691021,0.0836097,0.0628409,0
2024-12-11 14:31:41.646,0.63679,3.55035,9.01137,0.0642153,0.0713928,0.0500131,0
2024-12-11 14:31:41.647,0.65354,3.55514,8.93001,0.0642153,0.0713928,0.0500131,0
2024-12-11 14:31:41.650,0.684646,3.57667,8.83909,0.0642153,0.0713928,0.0500131,0
2024-12-11 14:31:41.652,0.718146,3.58624,8.74816,0.0556635,0.0451263,0.0268009,0
2024-12-11 14:31:41.654,0.739681,3.60299,8.67608,0.0465007,0.0261901,0.0133623,0
2024-12-11 14:31:41.657,0.74686,3.63889,8.63061,0.0379489,0.00908635,-0.00313059,0
2024-12-11 14:31:41.661,0.751645,3.63889,8.5684,0.0220669,-0.0275645,-0.0348946,0
2024-12-11 14:31:41.661,0.751645,3.63889,8.5684,0.0220669,-0.0275645,-0.0348946,0
2024-12-11 14:31:41.664,0.742074,3.64606,8.55883,0.013515,-0.0452791,-0.0519984,0
2024-12-11 14:31:41.666,0.739681,3.66311,8.55883,0.000687203,-0.0636045,-0.0697129,0
2024-12-11 14:31:41.669,0.742074,3.66311,8.58036,-0.00786466,-0.081319,-0.0862058,0
2024-12-11 14:31:41.671,0.739681,3.63171,8.59711,-0.0158057,-0.0972011,-0.105753,0
2024-12-11 14:31:41.673,0.710967,3.6006,8.63301,-0.0231358,-0.115526,-0.122246,0
2024-12-11 14:31:41.676,0.687039,3.57428,8.68804,-0.0298552,-0.129576,-0.13996,0
2024-12-11 14:31:41.679,0.665504,3.53599,8.74577,-0.0414613,-0.146069,-0.170503,0
2024-12-11 14:31:41.681,0.63679,3.48574,8.79841,-0.0451263,-0.149123,-0.18272,0
2024-12-11 14:31:41.684,0.579362,3.44746,8.85584,-0.0451263,-0.149123,-0.18272,0
2024-12-11 14:31:41.685,0.500399,3.402,8.90848,-0.0494023,-0.147901,-0.193104,0
2024-12-11 14:31:41.687,0.409472,3.35892,8.94437,-0.0494023,-0.144236,-0.202878,0
2024-12-11 14:31:41.691,0.320937,3.335,8.96112,-0.0524565,-0.130798,-0.208375,0
2024-12-11 14:31:41.692,0.241675,3.30628,8.97548,-0.0524565,-0.130798,-0.208375,0
2024-12-11 14:31:41.694,0.165105,3.25843,8.96591,-0.0548999,-0.121635,-0.210819,0
2024-12-11 14:31:41.697,0.0837488,3.21057,8.94676,-0.0579541,-0.11064,-0.210208,0
2024-12-11 14:31:41.700,0.0167498,3.17468,8.93719,-0.0622301,-0.0886492,-0.202878,0
2024-12-11 14:31:41.702,-0.040678,3.14836,8.90369,-0.0622301,-0.0886492,-0.202878,0
2024-12-11 14:31:41.704,-0.0885344,3.12921,8.86302,-0.066506,-0.077654,-0.199213,0
2024-12-11 14:31:41.707,-0.117248,3.09571,8.82952,-0.0713928,-0.0666587,-0.194937,0
2024-12-11 14:31:41.708,-0.160319,3.06192,8.80319,-0.0775012,-0.0568851,-0.187606,0
2024-12-11 14:31:41.712,-0.20339,3.02602,8.8008,-0.090329,-0.0342838,-0.177222,0
2024-12-11 14:31:41.714,-0.227318,2.99492,8.79841,-0.0964375,-0.0269536,-0.170503,0
2024-12-11 14:31:41.717,-0.236889,2.98056,8.78884,-0.0964375,-0.0269536,-0.170503,0
2024-12-11 14:31:41.718,-0.251246,2.9686,8.77687,-0.103157,-0.0190126,-0.163783,0
2024-12-11 14:31:41.721,-0.258425,2.95902,8.76491,-0.114152,-0.00129805,-0.155842,0
2024-12-11 14:31:41.724,-0.246461,2.96381,8.7673,-0.114152,-0.00129805,-0.155842,0
2024-12-11 14:31:41.725,-0.260818,2.97577,8.7697,-0.121482,0.00419957,-0.152788,0
2024-12-11 14:31:41.728,-0.30658,2.97099,8.77687,-0.137975,0.0109189,-0.14668,0
2024-12-11 14:31:41.730,-0.335294,2.97338,8.77927,-0.137975,0.0109189,-0.14668,0
2024-12-11 14:31:41.733,-0.347258,2.98535,8.78884,-0.153246,0.010308,-0.136295,0
2024-12-11 14:31:41.734,-0.35683,2.99252,8.80559,-0.153246,0.010308,-0.136295,0
2024-12-11 14:31:41.737,-0.354437,3.01167,8.82712,-0.159966,0.00786466,-0.134463,0
2024-12-11 14:31:41.740,-0.368794,3.01884,8.86302,-0.172793,-0.00251974,-0.129576,0
2024-12-11 14:31:41.741,-0.383151,3.02124,8.91087,-0.172793,-0.00251974,-0.129576,0
2024-12-11 14:31:41.745,-0.383151,3.03081,8.96591,-0.181956,-0.0153475,-0.121635,0
2024-12-11 14:31:41.746,-0.390329,3.0332,9.01616,-0.181956,-0.0153475,-0.121635,0
2024-12-11 14:31:41.751,-0.359223,3.06192,9.13101,-0.186843,-0.0220669,-0.116748,0
2024-12-11 14:31:41.751,-0.359223,3.06192,9.13101,-0.186843,-0.0220669,-0.116748,0
2024-12-11 14:31:41.753,-0.344866,3.08345,9.2004,-0.188675,-0.0385597,-0.111251,0
2024-12-11 14:31:41.757,-0.344866,3.08854,9.26052,-0.189286,-0.0605502,-0.10392,0
2024-12-11 14:31:41.759,-0.335294,3.08345,9.31316,-0.18501,-0.0727672,-0.0984228,0
2024-12-11 14:31:41.760,-0.318545,3.09332,9.35863,-0.18501,-0.0727672,-0.0984228,0
2024-12-11 14:31:41.763,-0.32333,3.11964,9.4017,-0.182567,-0.0849841,-0.0959794,0
2024-12-11 14:31:41.765,-0.308973,3.14596,9.44477,-0.177069,-0.100255,-0.093536,0
2024-12-11 14:31:41.767,-0.301795,3.16032,9.4687,-0.17768,-0.113694,-0.0892601,0
2024-12-11 14:31:41.770,-0.297009,3.17468,9.48784,-0.177069,-0.129576,-0.0843733,0
2024-12-11 14:31:41.773,-0.270389,3.18425,9.52613,-0.169739,-0.157064,-0.0788757,0
2024-12-11 14:31:41.775,-0.248854,3.18664,9.5668,-0.169739,-0.157064,-0.0788757,0
2024-12-11 14:31:41.778,-0.22014,3.201,9.60748,-0.169128,-0.180276,-0.0703238,0
2024-12-11 14:31:41.780,-0.191426,3.21536,9.64337,-0.169128,-0.180276,-0.0703238,0
2024-12-11 14:31:41.782,-0.172283,3.23928,9.66491,-0.165463,-0.188828,-0.0672696,0
2024-12-11 14:31:41.784,-0.157926,3.25603,9.69362,-0.161187,-0.196158,-0.0636045,0
2024-12-11 14:31:41.786,-0.141177,3.26321,9.71994,-0.158744,-0.201656,-0.0581068,0
2024-12-11 14:31:41.789,-0.133998,3.27518,9.75823,-0.159355,-0.207764,-0.0538309,0
2024-12-11 14:31:41.801,-0.0717847,3.39242,9.93081,-0.150803,-0.186996,-0.0116825,0
2024-12-11 14:31:41.805,-0.00239282,3.41875,10.0337,-0.147138,-0.172335,-0.00374144,0
2024-12-11 14:31:41.807,0.0215354,3.44028,10.0959,-0.147138,-0.172335,-0.00374144,0
2024-12-11 14:31:41.810,0.0598206,3.46182,10.1629,-0.139808,-0.138739,0.0127514,0
2024-12-11 14:31:41.813,0.081356,3.49532,10.1988,-0.139808,-0.138739,0.0127514,0
2024-12-11 14:31:41.814,0.102891,3.51446,10.2227,-0.123315,-0.0984228,0.0268009,0
2024-12-11 14:31:41.814,0.102891,3.51446,10.2227,-0.123315,-0.0984228,0.0268009,0
2024-12-11 14:31:41.819,0.107677,3.54317,10.1892,-0.111709,-0.0477224,0.0439046,0
2024-12-11 14:31:41.821,0.107677,3.55753,10.1438,-0.111709,-0.0477224,0.0439046,0
2024-12-11 14:31:41.825,0.0861416,3.58385,10.1079,-0.0952158,0.0176382,0.0701711,0
2024-12-11 14:31:41.826,0.0717847,3.60539,10.0576,-0.0952158,0.0176382,0.0701711,0
2024-12-11 14:31:41.831,0.0622134,3.65593,9.95235,-0.0909399,0.0475697,0.0915507,0
2024-12-11 14:31:41.831,0.0502493,3.65593,9.95235,-0.0909399,0.0475697,0.0915507,0
2024-12-11 14:31:41.833,0.026321,3.70858,9.90449,-0.0891073,0.0610084,0.102546,0
2024-12-11 14:31:41.836,0.0,3.76361,9.84467,-0.0891073,0.0610084,0.102546,0
2024-12-11 14:31:41.840,0.066999,3.80907,9.74148,-0.086664,0.0927724,0.130645,0
2024-12-11 14:31:41.840,0.066999,3.80907,9.74148,-0.086664,0.0927724,0.130645,0
2024-12-11 14:31:41.843,0.11007,3.8354,9.7343,-0.0891073,0.0982701,0.137364,0
2024-12-11 14:31:41.845,0.160319,3.87847,9.73191,-0.0884965,0.0982701,0.141029,0
2024-12-11 14:31:41.845,0.160319,3.87847,9.73191,-0.0884965,0.0982701,0.141029,0
2024-12-11 14:31:41.847,0.208176,3.91436,9.72712,-0.0842206,0.0982701,0.144694,0
2024-12-11 14:31:41.850,0.258425,3.94307,9.73191,-0.0799446,0.0927724,0.144694,0
2024-12-11 14:31:41.852,0.335294,4.0005,9.72952,-0.0799446,0.0927724,0.144694,0
2024-12-11 14:31:41.855,0.397508,4.04836,9.70319,-0.0707819,0.082388,0.137975,0
2024-12-11 14:31:41.857,0.438186,4.07229,9.68405,-0.0628409,0.0732253,0.132477,0
2024-12-11 14:31:41.857,0.438186,4.07229,9.68405,-0.0628409,0.0732253,0.132477,0
2024-12-11 14:31:41.858,0.438186,4.07229,9.68405,-0.0567324,0.0628409,0.124536,0
2024-12-11 14:31:41.859,0.4669,4.09861,9.6673,-0.0567324,0.0628409,0.124536,0
2024-12-11 14:31:41.862,0.507577,4.11775,9.64577,-0.0518457,0.0494023,0.117206,0
2024-12-11 14:31:41.864,0.529113,4.13211,9.63141,-0.0445155,0.0353528,0.106211,0
2024-12-11 14:31:41.865,0.529113,4.13211,9.63141,-0.038407,0.0206925,0.0970484,0
2024-12-11 14:31:41.866,0.538684,4.14168,9.6027,-0.038407,0.0206925,0.0970484,0
2024-12-11 14:31:41.869,0.557827,4.15125,9.57159,-0.038407,0.00481042,0.0854423,0
2024-12-11 14:31:41.870,0.557827,4.15125,9.57159,-0.038407,0.00481042,0.0854423,0
2024-12-11 14:31:41.871,0.553041,4.15843,9.56202,-0.038407,0.00481042,0.0854423,0
2024-12-11 14:31:41.873,0.548256,4.15603,9.57159,-0.0231358,-0.0324513,0.066506,0
2024-12-11 14:31:41.877,0.545863,4.14886,9.55963,-0.0096972,-0.0648262,0.0500131,0
2024-12-11 14:31:41.879,0.545863,4.14646,9.53809,-0.0096972,-0.0648262,0.0500131,0
2024-12-11 14:31:41.880,0.565005,4.14886,9.5357,-0.00419957,-0.0782648,0.0408504,0
2024-12-11 14:31:41.883,0.565005,4.14407,9.5357,-0.000534491,-0.0892601,0.0322986,0
2024-12-11 14:31:41.885,0.565005,4.14407,9.52613,0.00496313,-0.0972011,0.0249684,0
2024-12-11 14:31:41.887,0.581755,4.14168,9.51895,0.00984991,-0.105142,0.0182491,0
2024-12-11 14:31:41.891,0.576969,4.12732,9.49741,0.0177909,-0.105142,0.00297788,0
2024-12-11 14:31:41.893,0.565005,4.12971,9.49023,0.0208452,-0.10392,-0.00496313,0
2024-12-11 14:31:41.894,0.557827,4.13211,9.48545,0.0208452,-0.10392,-0.00496313,0
2024-12-11 14:31:41.897,0.548256,4.11775,9.46391,0.0232886,-0.100866,-0.00984991,0
2024-12-11 14:31:41.899,0.521934,4.09861,9.44716,0.0251211,-0.0972011,-0.0153475,0
2024-12-11 14:31:41.902,0.490828,4.08664,9.42323,0.0287862,-0.0941468,-0.0184018,0
2024-12-11 14:31:41.904,0.454935,4.07229,9.41127,0.0245102,-0.0898709,-0.0226777,0
2024-12-11 14:31:41.906,0.41665,4.03639,9.41366,0.0269536,-0.0825407,-0.0257319,0
2024-12-11 14:31:41.910,0.3999,4.00768,9.4017,0.0287862,-0.0764323,-0.0257319,0
2024-12-11 14:31:41.911,0.392722,3.99093,9.40409,0.0312296,-0.0697129,-0.0275645,0
2024-12-11 14:31:41.913,0.383151,3.96222,9.39931,0.0287862,-0.0599394,-0.0281753,0
2024-12-11 14:31:41.916,0.375972,3.92632,9.38495,0.0269536,-0.0483333,-0.0281753,0
2024-12-11 14:31:41.920,0.371187,3.9,9.38495,0.0287862,-0.0226777,-0.0300079,0
2024-12-11 14:31:41.920,0.368794,3.87607,9.38016,0.0287862,-0.0226777,-0.0300079,0
2024-12-11 14:31:41.923,0.361615,3.85215,9.36102,0.0269536,-0.00435229,-0.0318404,0
2024-12-11 14:31:41.926,0.347258,3.84257,9.34188,0.0226777,0.0286335,-0.0300079,0
2024-12-11 14:31:41.927,0.32333,3.82822,9.32274,0.0226777,0.0286335,-0.0300079,0
2024-12-11 14:31:41.932,0.275175,3.79711,9.25065,0.0232886,0.0603975,-0.0275645,0
2024-12-11 14:31:41.936,0.27996,3.77318,9.2004,0.0232886,0.0915507,-0.029397,0
2024-12-11 14:31:41.936,0.27996,3.77318,9.2004,0.0232886,0.0915507,-0.029397,0
2024-12-11 14:31:41.937,0.27996,3.7349,9.15494,0.0232886,0.0915507,-0.029397,0
2024-12-11 14:31:41.943,0.289831,3.67747,9.08555,0.021456,0.123926,-0.0300079,0
2024-12-11 14:31:41.944,0.330509,3.65354,9.06162,0.021456,0.123926,-0.0300079,0
2024-12-11 14:31:41.946,0.383151,3.6341,9.04248,0.0171801,0.128202,-0.0318404,0
2024-12-11 14:31:41.947,0.383151,3.6341,9.04248,0.0159584,0.138586,-0.0361163,0
2024-12-11 14:31:41.949,0.428614,3.61974,9.01855,0.0159584,0.138586,-0.0361163,0
2024-12-11 14:31:41.953,0.442971,3.5671,8.95394,0.0190126,0.145305,-0.041614,0
2024-12-11 14:31:41.963,0.474078,3.49053,8.7338,0.0226777,0.158744,-0.0636045,0
2024-12-11 14:31:41.966,0.440578,3.45942,8.67847,0.0220669,0.145305,-0.0764323,0
2024-12-11 14:31:41.967,0.414257,3.42114,8.62822,0.0220669,0.145305,-0.0764323,0
2024-12-11 14:31:41.968,0.414257,3.42114,8.62822,0.0220669,0.145305,-0.0764323,0
2024-12-11 14:31:41.970,0.419043,3.402,8.59472,0.0153475,0.136143,-0.0800973,0
2024-12-11 14:31:41.972,0.440578,3.39242,8.58276,0.013515,0.127591,-0.0837624,0
2024-12-11 14:31:41.979,0.440578,3.34935,8.59711,0.0153475,0.118428,-0.0849841,0
2024-12-11 14:31:41.989,0.462114,3.29193,8.60668,0.0367272,0.0805555,-0.0898709,0
2024-12-11 14:31:41.993,0.490828,3.24407,8.6019,0.0367272,0.0805555,-0.0898709,0
2024-12-11 14:31:41.996,0.50997,3.23928,8.61147,0.0538309,0.0646735,-0.0849841,0
2024-12-11 14:31:41.996,0.50997,3.23928,8.61147,0.0538309,0.0646735,-0.0849841,0
2024-12-11 14:31:41.996,0.50997,3.23928,8.61147,0.0538309,0.0646735,-0.0849841,0
2024-12-11 14:31:41.998,0.514756,3.24168,8.61625,0.0617719,0.0628409,-0.0837624,0
2024-12-11 14:31:42.000,0.514756,3.24168,8.61147,0.0709346,0.0603975,-0.0819299,0
2024-12-11 14:31:42.001,0.507577,3.268,8.61147,0.0709346,0.0603975,-0.0819299,0
2024-12-11 14:31:42.003,0.502792,3.27757,8.60908,0.077654,0.0573433,-0.0770431,0
2024-12-11 14:31:42.004,0.502792,3.27757,8.60908,0.0886492,0.0573433,-0.0745997,0
2024-12-11 14:31:42.004,0.502792,3.27757,8.60908,0.0886492,0.0573433,-0.0745997,0
2024-12-11 14:31:42.005,0.507577,3.28953,8.59951,0.0886492,0.0573433,-0.0745997,0
2024-12-11 14:31:42.006,0.507577,3.28953,8.59951,0.0886492,0.0573433,-0.0745997,0
2024-12-11 14:31:42.006,0.507577,3.28953,8.59951,0.0886492,0.0573433,-0.0745997,0
2024-12-11 14:31:42.011,0.553041,3.30868,8.52054,0.10331,0.050624,-0.0648262,0
2024-12-11 14:31:42.012,0.584148,3.31346,8.46551,0.109418,0.0494023,-0.0587177,0
2024-12-11 14:31:42.015,0.627219,3.32303,8.4344,0.113083,0.0457372,-0.0544418,0
2024-12-11 14:31:42.015,0.627219,3.32303,8.4344,0.113083,0.0457372,-0.0544418,0
2024-12-11 14:31:42.017,0.665504,3.33739,8.40569,0.116748,0.0451263,-0.0519984,0
2024-12-11 14:31:42.018,0.665504,3.33739,8.40569,0.119802,0.0432938,-0.0465007,0
2024-12-11 14:31:42.018,0.665504,3.33739,8.40569,0.119802,0.0432938,-0.0465007,0
2024-12-11 14:31:42.020,0.708575,3.34457,8.35783,0.121635,0.0451263,-0.0446682,0
2024-12-11 14:31:42.022,0.742074,3.37807,8.32672,0.121635,0.0451263,-0.0446682,0
2024-12-11 14:31:42.024,0.766002,3.42114,8.31954,0.123468,0.046348,-0.0434465,0
2024-12-11 14:31:42.027,0.789931,3.44746,8.27887,0.124078,0.0475697,-0.0434465,0
2024-12-11 14:31:42.029,0.799502,3.50967,8.21665,0.124078,0.0487914,-0.0428357,0
2024-12-11 14:31:42.031,0.813859,3.58146,8.1664,0.1253,0.0536782,-0.0452791,0
2024-12-11 14:31:42.033,0.833001,3.65593,8.10389,0.121635,0.0579541,-0.0477224,0
2024-12-11 14:31:42.039,0.816252,3.77079,7.99143,0.106975,0.0732253,-0.0538309,0
2024-12-11 14:31:42.039,0.816252,3.77079,7.99143,0.106975,0.0732253,-0.0538309,0
2024-12-11 14:31:42.040,0.813859,3.84736,7.90768,0.106975,0.0732253,-0.0538309,0
2024-12-11 14:31:42.043,0.82343,3.90479,7.79043,0.0972011,0.0726145,-0.0568851,0
2024-12-11 14:31:42.045,0.797109,3.96939,7.68036,0.0837624,0.0720036,-0.0593285,0
2024-12-11 14:31:42.048,0.761217,4.02921,7.56282,0.0666587,0.0677277,-0.0648262,0
2024-12-11 14:31:42.050,0.718146,4.08425,7.44557,0.0471116,0.0579541,-0.065437,0
2024-12-11 14:31:42.052,0.696611,4.14407,7.33789,0.0202343,0.0432938,-0.0678804,0
2024-12-11 14:31:42.056,0.715753,4.18953,7.25175,-0.0396287,0.00297788,-0.0758214,0
2024-12-11 14:31:42.058,0.734896,4.2353,7.18236,-0.0720036,-0.0184018,-0.0770431,0
2024-12-11 14:31:42.059,0.751645,4.27119,7.11775,-0.0720036,-0.0184018,-0.0770431,0
2024-12-11 14:31:42.062,0.775574,4.30469,7.08425,-0.110487,-0.0440574,-0.0794865,0
2024-12-11 14:31:42.064,0.797109,4.35494,7.07468,-0.150803,-0.0703238,-0.0862058,0
2024-12-11 14:31:42.067,0.813859,4.39562,7.06511,-0.191119,-0.0947577,-0.0923143,0
2024-12-11 14:31:42.071,0.933799,4.45304,7.09861,-0.280913,-0.143015,-0.10392,0
2024-12-11 14:31:42.072,0.933799,4.45304,7.09861,-0.326116,-0.168059,-0.114916,0
2024-12-11 14:31:42.073,1.04865,4.45304,7.17996,-0.326116,-0.168059,-0.114916,0
2024-12-11 14:31:42.076,1.16351,4.46022,7.31635,-0.37254,-0.194937,-0.123468,0
2024-12-11 14:31:42.078,1.2664,4.43869,7.50299,-0.37254,-0.194937,-0.123468,0
2024-12-11 14:31:42.082,1.35494,4.41715,7.70668,-0.499597,-0.278012,-0.166227,0
2024-12-11 14:31:42.083,1.44138,4.41236,7.92204,-0.499597,-0.278012,-0.166227,0
2024-12-11 14:31:42.085,1.52513,4.39562,8.17358,-0.533804,-0.302446,-0.180887,0
2024-12-11 14:31:42.088,1.58016,4.37408,8.42722,-0.565568,-0.323825,-0.195547,0
2024-12-11 14:31:42.090,1.61605,4.34776,8.67368,-0.592445,-0.343983,-0.212651,0
2024-12-11 14:31:42.093,1.62562,4.32862,8.91326,-0.616269,-0.361087,-0.229144,0
2024-12-11 14:31:42.095,1.5993,4.30708,9.14058,-0.635205,-0.37758,-0.241361,0
2024-12-11 14:31:42.098,1.56341,4.26401,9.32274,-0.650476,-0.394684,-0.250524,0
2024-12-11 14:31:42.099,1.52991,4.22812,9.4687,-0.664525,-0.412398,-0.259076,0
2024-12-11 14:31:42.102,1.50598,4.18475,9.61705,-0.664525,-0.412398,-0.259076,0
2024-12-11 14:31:42.104,1.47009,4.14886,9.75344,-0.687738,-0.449049,-0.26946,0
2024-12-11 14:31:42.107,1.41027,4.12971,9.88774,-0.698733,-0.464931,-0.274958,0
2024-12-11 14:31:42.109,1.36211,4.12253,10.0337,-0.709117,-0.478981,-0.275568,0
2024-12-11 14:31:42.112,1.33819,4.11536,10.194,-0.720113,-0.497917,-0.271903,0
2024-12-11 14:31:42.117,1.35015,4.11057,10.582,-0.721334,-0.504025,-0.271293,0
2024-12-11 14:31:42.117,1.35015,4.11057,10.582,-0.721334,-0.504025,-0.271293,0
2024-12-11 14:31:42.118,1.34536,4.12253,10.8045,-0.717669,-0.50036,-0.267017,0
2024-12-11 14:31:42.123,1.31665,4.16321,11.2187,-0.694457,-0.477148,-0.260908,0
2024-12-11 14:31:42.123,1.31665,4.16321,11.2187,-0.694457,-0.477148,-0.260908,0
2024-12-11 14:31:42.125,1.31186,4.18475,11.4197,-0.67491,-0.458212,-0.256021,0
2024-12-11 14:31:42.128,1.28076,4.22572,11.6186,-0.649865,-0.430113,-0.251135,0
2024-12-11 14:31:42.130,1.25683,4.26401,11.7933,-0.622988,-0.398349,-0.244415,0
2024-12-11 14:31:42.132,1.24008,4.26401,11.9345,-0.58817,-0.361087,-0.237696,0
2024-12-11 14:31:42.135,1.22572,4.2688,12.0589,-0.547243,-0.317717,-0.230977,0
2024-12-11 14:31:42.137,1.1994,4.27358,12.1573,-0.506927,-0.274347,-0.225479,0
2024-12-11 14:31:42.140,1.17308,4.29272,12.198,-0.463557,-0.22609,-0.219371,0
2024-12-11 14:31:42.142,1.13719,4.30947,12.1884,-0.416521,-0.177833,-0.210819,0
2024-12-11 14:31:42.146,0.998405,4.34297,12.0278,-0.321229,-0.0843733,-0.196158,0
2024-12-11 14:31:42.146,0.998405,4.34297,12.0278,-0.321229,-0.0843733,-0.196158,0
2024-12-11 14:31:42.149,0.893121,4.38126,11.8531,-0.276027,-0.0385597,-0.185774,0
2024-12-11 14:31:42.152,0.780359,4.40758,11.633,-0.233878,-0.00251974,-0.174168,0
2024-12-11 14:31:42.157,0.670289,4.43869,11.3623,-0.13431,0.0726145,-0.134463,0
2024-12-11 14:31:42.157,0.553041,4.48176,11.056,-0.13431,0.0726145,-0.134463,0
2024-12-11 14:31:42.161,0.383151,4.57268,10.5341,-0.13431,0.0726145,-0.134463,0
2024-12-11 14:31:42.161,0.383151,4.57268,10.5341,-0.13431,0.0726145,-0.134463,0
2024-12-11 14:31:42.164,0.332901,4.61097,10.3161,-0.0689494,0.103768,-0.0984228,0
2024-12-11 14:31:42.166,0.292223,4.65883,10.1222,-0.0548999,0.109265,-0.0892601,0
2024-12-11 14:31:42.169,0.272782,4.68754,9.93799,-0.0548999,0.109265,-0.0892601,0
2024-12-11 14:31:42.170,0.272782,4.70668,9.77498,-0.0390179,0.114152,-0.081319,0
2024-12-11 14:31:42.173,0.251246,4.74975,9.62902,-0.0243575,0.116595,-0.0745997,0
2024-12-11 14:31:42.175,0.232104,4.78834,9.49981,-0.00847551,0.123926,-0.0678804,0
2024-12-11 14:31:42.177,0.224925,4.80987,9.35863,0.00374144,0.128202,-0.065437,0
2024-12-11 14:31:42.179,0.215354,4.83141,9.22912,0.0184018,0.136753,-0.0636045,0
2024-12-11 14:31:42.184,0.193819,4.89841,8.94198,0.0391706,0.14897,-0.0617719,0
2024-12-11 14:31:42.184,0.193819,4.89841,8.94198,0.0391706,0.14897,-0.0617719,0
2024-12-11 14:31:42.186,0.179462,4.92234,8.79602,0.0471116,0.152635,-0.0636045,0
2024-12-11 14:31:42.190,0.143569,4.94387,8.64975,0.0562743,0.158133,-0.065437,0
2024-12-11 14:31:42.191,0.0909273,4.95823,8.51097,0.0599394,0.160576,-0.0684913,0
2024-12-11 14:31:42.194,0.040678,4.97976,8.37458,0.065437,0.161187,-0.0709346,0
2024-12-11 14:31:42.197,-0.00478565,4.99651,8.24298,0.0697129,0.162409,-0.0794865,0
2024-12-11 14:31:42.199,-0.0382852,4.99891,8.10629,0.0672696,0.159966,-0.0819299,0
2024-12-11 14:31:42.202,-0.0693919,5.01326,7.98904,0.0672696,0.159966,-0.0819299,0
2024-12-11 14:31:42.203,-0.11007,5.01566,7.89093,0.0660479,0.156301,-0.085595,0
2024-12-11 14:31:42.205,-0.165105,5.00608,7.79283,0.0629936,0.153246,-0.0886492,0
2024-12-11 14:31:42.208,-0.234497,5.01326,7.70668,0.0636045,0.150803,-0.0947577,0
2024-12-11 14:31:42.210,-0.292223,5.00369,7.61576,0.0587177,0.145305,-0.0984228,0
2024-12-11 14:31:42.212,-0.318545,4.98216,7.52932,0.0538309,0.137364,-0.100866,0
2024-12-11 14:31:42.218,-0.35683,4.93909,7.39053,0.033673,0.100713,-0.114305,0
2024-12-11 14:31:42.219,-0.364008,4.89841,7.34985,0.033673,0.100713,-0.114305,0
2024-12-11 14:31:42.220,-0.364008,4.89841,7.34985,0.033673,0.100713,-0.114305,0
2024-12-11 14:31:42.222,-0.378365,4.8673,7.29243,0.0245102,0.0854423,-0.117359,0
2024-12-11 14:31:42.224,-0.404686,4.82184,7.23261,0.0141258,0.0695602,-0.119192,0
2024-12-11 14:31:42.227,-0.423829,4.77637,7.19671,0.00435229,0.0518457,-0.123468,0
2024-12-11 14:31:42.230,-0.41665,4.74497,7.16082,-0.010308,0.0341311,-0.127743,0
2024-12-11 14:31:42.231,-0.407079,4.71386,7.11057,-0.022525,0.0176382,-0.131409,0
2024-12-11 14:31:42.234,-0.404686,4.70429,7.08664,-0.0341311,0.000534491,-0.135684,0
2024-12-11 14:31:42.236,-0.402293,4.68036,7.101,-0.0469589,-0.0190126,-0.13996,0
2024-12-11 14:31:42.238,-0.414257,4.65404,7.12493,-0.0591758,-0.0355055,-0.144847,0
2024-12-11 14:31:42.242,-0.431007,4.63968,7.14168,-0.082388,-0.0660479,-0.15401,0
2024-12-11 14:31:42.243,-0.426222,4.62293,7.16321,-0.082388,-0.0660479,-0.15401,0
2024-12-11 14:31:42.245,-0.41665,4.60379,7.19911,-0.0921616,-0.081319,-0.156453,0
2024-12-11 14:31:42.249,-0.411865,4.56311,7.235,-0.113541,-0.11064,-0.161951,0
2024-12-11 14:31:42.250,-0.411865,4.51286,7.27568,-0.113541,-0.11064,-0.161951,0
2024-12-11 14:31:42.252,-0.402293,4.46501,7.30918,-0.121482,-0.122246,-0.164394,0
2024-12-11 14:31:42.255,-0.390329,4.41476,7.36182,-0.133699,-0.136906,-0.166838,0
2024-12-11 14:31:42.257,-0.397508,4.35972,7.43121,-0.141029,-0.149734,-0.167449,0
2024-12-11 14:31:42.259,-0.3999,4.32144,7.46949,-0.150803,-0.164394,-0.165616,0
2024-12-11 14:31:42.263,-0.383151,4.29033,7.51257,-0.166685,-0.188828,-0.163173,0
2024-12-11 14:31:42.265,-0.349651,4.24008,7.58465,-0.174015,-0.197991,-0.157675,0
2024-12-11 14:31:42.267,-0.30658,4.20389,7.65404,-0.174015,-0.197991,-0.157675,0
2024-12-11 14:31:42.269,-0.260818,4.18475,7.71865,-0.179513,-0.210208,-0.153399,0
2024-12-11 14:31:42.271,-0.227318,4.14646,7.8,-0.186232,-0.217538,-0.150345,0
2024-12-11 14:31:42.275,-0.198604,4.11296,7.88854,-0.194173,-0.224868,-0.143625,0
2024-12-11 14:31:42.276,-0.165105,4.08425,7.97468,-0.200282,-0.232809,-0.137517,0
2024-12-11 14:31:42.278,-0.124427,4.05554,8.07518,-0.204557,-0.240139,-0.128965,0
2024-12-11 14:31:42.282,-0.0861416,4.03639,8.19033,-0.21372,-0.246248,-0.108196,0
2024-12-11 14:31:42.283,-0.0550349,4.03161,8.3028,-0.21372,-0.246248,-0.108196,0
2024-12-11 14:31:42.286,-0.0191426,4.034,8.41287,-0.211888,-0.246248,-0.0978119,0
2024-12-11 14:31:42.289,0.0143569,4.02204,8.51336,-0.212498,-0.242583,-0.0837624,0
2024-12-11 14:31:42.290,0.0741775,4.01246,8.61147,-0.209444,-0.234031,-0.0697129,0
2024-12-11 14:31:42.292,0.143569,4.00768,8.7027,-0.20639,-0.22609,-0.057496,0
2024-12-11 14:31:42.295,0.205783,4.01964,8.78884,-0.203947,-0.213262,-0.0434465,0
2024-12-11 14:31:42.297,0.258425,4.03161,8.86062,-0.196006,-0.196158,-0.0306187,0
2024-12-11 14:31:42.300,0.299402,4.02682,8.92284,-0.192341,-0.177833,-0.0177909,0
2024-12-11 14:31:42.302,0.330509,4.04357,8.99701,-0.1844,-0.160118,-0.00557398,0
2024-12-11 14:31:42.304,0.330509,4.07229,9.03291,-0.177069,-0.134463,0.00786466,0
2024-12-11 14:31:42.307,0.311366,4.11296,9.05444,-0.167296,-0.112472,0.0231358,0
2024-12-11 14:31:42.309,0.294616,4.14886,9.08794,-0.167296,-0.112472,0.0231358,0
2024-12-11 14:31:42.311,0.275175,4.18235,9.0999,-0.151414,-0.0617719,0.0542891,0
2024-12-11 14:31:42.314,0.251246,4.23051,9.08555,-0.151414,-0.0617719,0.0542891,0
2024-12-11 14:31:42.317,0.241675,4.28555,9.05683,-0.133088,-0.0190126,0.086664,0
2024-12-11 14:31:42.318,0.217747,4.32622,9.02094,-0.128812,0.00297788,0.103157,0
2024-12-11 14:31:42.321,0.179462,4.36212,8.97787,-0.122093,0.0194708,0.122093,0
2024-12-11 14:31:42.323,0.143569,4.40997,8.9348,-0.117817,0.0341311,0.140419,0
2024-12-11 14:31:42.325,0.119641,4.46979,8.89891,-0.117817,0.0475697,0.158133,0
2024-12-11 14:31:42.328,0.100499,4.53679,8.86302,-0.117817,0.0475697,0.158133,0
2024-12-11 14:31:42.330,0.0837488,4.59661,8.84866,-0.115374,0.0634518,0.192341,0
2024-12-11 14:31:42.332,0.0837488,4.6684,8.83909,-0.113541,0.0683385,0.209444,0
2024-12-11 14:31:42.335,0.0981057,4.74736,8.84148,-0.111709,0.0695602,0.227159,0
2024-12-11 14:31:42.338,0.129212,4.79552,8.87259,-0.106822,0.0622301,0.259534,0
2024-12-11 14:31:42.340,0.174676,4.84816,8.88455,-0.106822,0.0622301,0.259534,0
2024-12-11 14:31:42.342,0.224925,4.93669,8.9013,-0.102546,0.0530674,0.272972,0
2024-12-11 14:31:42.344,0.289831,5.02523,8.96112,-0.100103,0.0432938,0.284578,0
2024-12-11 14:31:42.348,0.383151,5.08744,9.03051,-0.0964375,0.0298552,0.293741,0
2024-12-11 14:31:42.349,0.469292,5.15683,9.09512,-0.086664,0.0158057,0.30046,0
2024-12-11 14:31:42.351,0.56022,5.23101,9.1693,-0.0805555,-0.00251974,0.304736,0
2024-12-11 14:31:42.354,0.677468,5.30997,9.24347,-0.0701711,-0.0196235,0.307791,0
2024-12-11 14:31:42.356,0.785145,5.39402,9.31316,-0.0610084,-0.037338,0.306569,0
2024-12-11 14:31:42.358,0.862014,5.45384,9.38974,-0.0487914,-0.0538309,0.304126,0
2024-12-11 14:31:42.363,0.955334,5.59741,9.49023,-0.0231358,-0.0788757,0.294352,0
2024-12-11 14:31:42.363,0.955334,5.59741,9.49023,-0.0231358,-0.0788757,0.294352,0
2024-12-11 14:31:42.365,0.962513,5.65245,9.49741,-0.0096972,-0.0898709,0.289465,0
2024-12-11 14:31:42.368,0.979263,5.70269,9.49263,0.00435229,-0.0965902,0.284578,0
2024-12-11 14:31:42.370,1.06062,5.75055,9.45913,0.0110716,-0.10392,0.277248,0
2024-12-11 14:31:42.373,1.17069,5.77687,9.42084,0.0184018,-0.109418,0.27114,0
2024-12-11 14:31:42.375,1.2664,5.78884,9.4017,0.0226777,-0.115526,0.261977,0
2024-12-11 14:31:42.377,1.32622,5.80319,9.40409,0.0257319,-0.123468,0.248538,0
2024-12-11 14:31:42.382,1.35494,5.83909,9.44716,0.0281753,-0.136906,0.224715,0
2024-12-11 14:31:42.382,1.35494,5.83909,9.44716,0.0281753,-0.136906,0.224715,0
2024-12-11 14:31:42.385,1.33579,5.87258,9.48784,0.0312296,-0.136906,0.200892,0
2024-12-11 14:31:42.387,1.29751,5.89921,9.51895,0.0312296,-0.136906,0.200892,0
2024-12-11 14:31:42.390,1.2664,5.92074,9.54048,0.0348946,-0.128354,0.181956,0
2024-12-11 14:31:42.392,1.22572,5.92313,9.55723,0.0348946,-0.128354,0.181956,0
2024-12-11 14:31:42.394,1.15155,5.91356,9.57877,0.0367272,-0.122857,0.175237,0
2024-12-11 14:31:42.396,1.1013,5.91835,9.59313,0.0348946,-0.116748,0.165463,0
2024-12-11 14:31:42.399,1.06301,5.93749,9.60987,0.0348946,-0.109418,0.162409,0
2024-12-11 14:31:42.402,1.01276,5.93988,9.60987,0.0287862,-0.0892601,0.150803,0
2024-12-11 14:31:42.403,0.972084,5.94706,9.59073,0.0287862,-0.0892601,0.150803,0
2024-12-11 14:31:42.405,0.919442,5.97099,9.57877,0.0226777,-0.077654,0.146527,0
2024-12-11 14:31:42.408,0.859622,5.97338,9.55245,0.0159584,-0.0629936,0.145305,0
2024-12-11 14:31:42.411,0.816252,5.97338,9.51895,-0.00419957,-0.0422248,0.143473,0
2024-12-11 14:31:42.414,0.780359,5.97578,9.50938,-0.0176382,-0.0355055,0.144084,0
2024-12-11 14:31:42.415,0.737288,5.9686,9.53091,-0.0176382,-0.0355055,0.144084,0
2024-12-11 14:31:42.417,0.71336,5.96381,9.5668,-0.0322986,-0.0281753,0.14164,0
2024-12-11 14:31:42.420,0.699003,5.9662,9.60748,-0.0487914,-0.0238994,0.14164,0
2024-12-11 14:31:42.423,0.679861,5.98056,9.66012,-0.0634518,-0.0190126,0.143473,0
2024-12-11 14:31:42.427,0.694218,5.98056,9.85185,-0.0952158,-0.0153475,0.143473,0
2024-12-11 14:31:42.428,0.694218,5.98056,9.85185,-0.108654,-0.0147367,0.143473,0
2024-12-11 14:31:42.429,0.696611,5.99492,9.95235,-0.108654,-0.0147367,0.143473,0
2024-12-11 14:31:42.431,0.665504,6.02602,10.0624,-0.123315,-0.00984991,0.14164,0
2024-12-11 14:31:42.434,0.665504,6.06192,10.1414,-0.133088,-0.000687203,0.143473,0
2024-12-11 14:31:42.436,0.706182,6.04756,10.1868,-0.147138,0.00664296,0.143473,0
2024-12-11 14:31:42.438,0.739681,6.01406,10.261,-0.16302,0.010308,0.144084,0
2024-12-11 14:31:42.441,0.742074,5.99731,10.3448,-0.178902,0.00908635,0.142862,0
2024-12-11 14:31:42.443,0.720539,5.99492,10.4288,-0.192341,0.00725381,0.145305,0
2024-12-11 14:31:42.446,0.694218,5.99013,10.5245,-0.211888,0.00419957,0.149581,0
2024-12-11 14:31:42.449,0.677468,5.98535,10.625,-0.228381,-0.00129805,0.150803,0
2024-12-11 14:31:42.450,0.684646,5.9997,10.771,-0.228381,-0.00129805,0.150803,0
2024-12-11 14:31:42.453,0.710967,6.02124,10.9627,-0.252204,-0.00740652,0.157522,0
2024-12-11 14:31:42.455,0.739681,6.01885,11.1733,-0.265031,-0.0110716,0.162409,0
2024-12-11 14:31:42.458,0.766002,6.00927,11.3958,-0.270529,-0.0141258,0.166685,0
2024-12-11 14:31:42.460,0.775574,5.99253,11.6139,-0.274194,-0.0165692,0.169739,0
2024-12-11 14:31:42.462,0.794716,5.96381,11.8388,-0.273583,-0.0171801,0.172793,0
2024-12-11 14:31:42.465,0.84018,5.93988,12.0565,-0.268696,-0.0171801,0.174626,0
2024-12-11 14:31:42.467,0.905085,5.89921,12.2842,-0.259534,-0.0141258,0.177069,0
2024-12-11 14:31:42.469,0.952942,5.84866,12.5043,-0.244873,-0.00801737,0.178291,0
2024-12-11 14:31:42.471,0.991227,5.80798,12.7152,-0.228991,-0.00313059,0.17768,0
2024-12-11 14:31:42.474,1.02233,5.77687,12.9138,-0.207001,0.00481042,0.180734,0
2024-12-11 14:31:42.476,1.04626,5.74337,13.0837,-0.1844,0.0121406,0.180734,0
2024-12-11 14:31:42.481,1.11087,5.67637,13.3759,-0.129423,0.0261901,0.189897,0
2024-12-11 14:31:42.482,1.11087,5.67637,13.3759,-0.0994917,0.0341311,0.19173,0
2024-12-11 14:31:42.486,1.12522,5.62134,13.5075,-0.0720036,0.0420721,0.196006,0
2024-12-11 14:31:42.487,1.14197,5.57587,13.6343,-0.0402396,0.0500131,0.201503,0
2024-12-11 14:31:42.488,1.15633,5.53759,13.7468,-0.0402396,0.0500131,0.201503,1
2024-12-11 14:31:42.491,1.14197,5.49691,13.8428,0.0263428,0.0695602,0.213109,0
2024-12-11 14:31:42.495,1.1013,5.41795,14.0031,0.0263428,0.0695602,0.213109,0
2024-12-11 14:31:42.497,1.08215,5.37966,14.0462,0.0965902,0.101324,0.2351,0
2024-12-11 14:31:42.497,1.08215,5.37966,14.0462,0.0965902,0.101324,0.2351,0
2024-12-11 14:31:42.500,1.0678,5.31954,14.0462,0.133241,0.117817,0.247317,0
2024-12-11 14:31:42.504,1.05105,5.23819,13.9265,0.202267,0.153246,0.280303,0
2024-12-11 14:31:42.505,1.05105,5.23819,13.9265,0.202267,0.153246,0.280303,0
2024-12-11 14:31:42.509,1.0654,5.14965,13.7204,0.257854,0.196616,0.312677,0
2024-12-11 14:31:42.510,1.0654,5.14965,13.7204,0.284731,0.22105,0.332225,0
2024-12-11 14:31:42.511,1.05583,5.12333,13.5841,0.284731,0.22105,0.332225,0
2024-12-11 14:31:42.514,1.04387,5.09701,13.4453,0.306111,0.245484,0.35055,0
2024-12-11 14:31:42.516,1.02712,5.07548,13.3113,0.324436,0.269918,0.368265,0
2024-12-11 14:31:42.519,1.05344,5.05873,13.1818,0.343983,0.296185,0.387201,0
2024-12-11 14:31:42.522,1.11087,5.0324,13.0669,0.37025,0.342609,0.417743,0
2024-12-11 14:31:42.523,1.15633,4.99412,12.976,0.37025,0.342609,0.417743,0
2024-12-11 14:31:42.526,1.21137,4.95823,12.9066,0.386132,0.370097,0.428738,0
2024-12-11 14:31:42.528,1.27119,4.93909,12.842,0.398349,0.397585,0.438512,0
2024-12-11 14:31:42.530,1.34536,4.91994,12.7487,0.398349,0.397585,0.438512,0
2024-12-11 14:31:42.533,1.40788,4.88644,12.6168,0.426448,0.471498,0.447675,0
2024-12-11 14:31:42.535,1.40279,4.83859,12.4732,0.426448,0.471498,0.447675,0
2024-12-11 14:31:42.537,1.35254,4.78594,12.2961,0.455768,0.553962,0.453783,0
2024-12-11 14:31:42.540,1.2664,4.76172,12.0855,0.466153,0.600387,0.456227,0
2024-12-11 14:31:42.542,1.13001,4.77159,11.8412,0.470429,0.6462,0.459281,0
2024-12-11 14:31:42.545,0.969691,4.79312,11.5684,0.472872,0.691403,0.463557,0
2024-12-11 14:31:42.547,0.804287,4.82902,11.2738,0.469207,0.74027,0.467222,0
2024-12-11 14:31:42.549,0.670289,4.85773,10.9699,0.461266,0.782419,0.472109,0
2024-12-11 14:31:42.551,0.593719,4.86012,10.6585,0.449049,0.817924,0.476385,0
2024-12-11 14:31:42.554,0.569791,4.8338,10.3567,0.430724,0.844802,0.476385,0
2024-12-11 14:31:42.557,0.574577,4.79073,10.0863,0.374526,0.865571,0.462946,0
2024-12-11 14:31:42.562,0.675075,4.59183,9.65055,0.297559,0.837472,0.427517,0
2024-12-11 14:31:42.563,0.732503,4.46022,9.48066,0.297559,0.837472,0.427517,0
2024-12-11 14:31:42.566,0.797109,4.31665,9.38256,0.251135,0.808151,0.404305,0
2024-12-11 14:31:42.566,0.797109,4.31665,9.38256,0.251135,0.808151,0.404305,0
2024-12-11 14:31:42.568,0.854836,4.15364,9.36581,0.206543,0.768369,0.378038,0
2024-12-11 14:31:42.570,0.905085,3.97897,9.38974,0.164394,0.72561,0.345052,0
2024-12-11 14:31:42.573,0.926621,3.84018,9.44716,0.121024,0.674299,0.312067,0
2024-12-11 14:31:42.575,0.902692,3.699,9.55484,0.081319,0.619934,0.277859,0
2024-12-11 14:31:42.577,0.842872,3.54556,9.71755,0.0422248,0.561292,0.243041,0
2024-12-11 14:31:42.580,0.770788,3.40917,9.94517,0.0116825,0.502651,0.210666,0
2024-12-11 14:31:42.583,0.71336,3.27039,10.2275,-0.0341311,0.388422,0.14836,0
2024-12-11 14:31:42.584,0.646361,3.15793,10.558,-0.0341311,0.388422,0.14836,0
2024-12-11 14:31:42.587,0.576969,3.04038,10.917,-0.0420721,0.3365,0.11965,0
2024-12-11 14:31:42.589,0.541077,2.88485,11.2594,-0.0402396,0.291298,0.0909399,0
2024-12-11 14:31:42.594,0.500399,2.73171,11.5732,-0.0310769,0.250371,0.066506,0
2024-12-11 14:31:42.596,0.332901,2.43709,12.0183,-0.0310769,0.250371,0.066506,0
2024-12-11 14:31:42.599,0.212961,2.30309,12.1214,0.0355055,0.158744,0.00542127,0
2024-12-11 14:31:42.601,0.114855,2.17866,12.1597,0.0623828,0.131867,-0.00984991,0
2024-12-11 14:31:42.603,0.0358923,2.07338,12.1621,0.0898709,0.106822,-0.0226777,0
2024-12-11 14:31:42.607,-0.00957129,1.9657,12.1621,0.141182,0.0469589,-0.0477224,0
2024-12-11 14:31:42.609,-0.0382852,1.82662,12.143,0.141182,0.0469589,-0.0477224,0
2024-12-11 14:31:42.613,-0.0287139,1.50598,12.0613,0.181498,-0.0153475,-0.0715455,0
2024-12-11 14:31:42.613,-0.0287139,1.50598,12.0613,0.181498,-0.0153475,-0.0715455,0
2024-12-11 14:31:42.615,-0.00478565,1.31904,12.0063,0.200434,-0.0477224,-0.0807082,0
2024-12-11 14:31:42.617,0.0430708,1.1348,11.9417,0.215705,-0.0807082,-0.0892601,0
2024-12-11 14:31:42.617,0.0430708,1.1348,11.9417,0.215705,-0.0807082,-0.0892601,0
2024-12-11 14:31:42.621,0.0837488,0.957727,11.8938,0.239528,-0.147901,-0.106975,0
2024-12-11 14:31:42.623,0.133998,0.797109,11.8508,0.24808,-0.179055,-0.112472,0
2024-12-11 14:31:42.624,0.196211,0.670289,11.8005,0.24808,-0.179055,-0.112472,0
2024-12-11 14:31:42.627,0.251246,0.545863,11.7479,0.249913,-0.210208,-0.11797,0
2024-12-11 14:31:42.630,0.30658,0.435793,11.712,0.2548,-0.256632,-0.1253,0
2024-12-11 14:31:42.632,0.373579,0.352044,11.7191,0.2548,-0.256632,-0.1253,0
2024-12-11 14:31:42.634,0.452543,0.277567,11.7263,0.2548,-0.276179,-0.127133,0
2024-12-11 14:31:42.636,0.548256,0.198604,11.7359,0.252356,-0.291451,-0.130798,0
2024-12-11 14:31:42.639,0.641576,0.141177,11.7718,0.24808,-0.299392,-0.132019,0
2024-12-11 14:31:42.641,0.725324,0.112463,11.8196,0.251135,-0.300002,-0.135684,0
2024-12-11 14:31:42.643,0.794716,0.0885344,11.8555,0.250524,-0.29817,-0.138128,0
