timestamp,accel_x,accel_y,accel_z,gyro_x,gyro_y,gyro_z,step_timestamp
2024-12-11 14:41:06.183,0.129212,2.34856,9.82792,0.00496313,0.0255792,0.0219141,0
2024-12-11 14:41:06.183,0.129212,2.34856,9.82792,0.00496313,0.0255792,0.0219141,0
2024-12-11 14:41:06.183,0.129212,2.34856,9.82792,0.00496313,0.0255792,0.0219141,0
2024-12-11 14:41:06.183,0.129212,2.34856,9.82792,0.00496313,0.0255792,0.0219141,0
2024-12-11 14:41:06.183,0.129212,2.34856,9.82792,0.00496313,0.0255792,0.0219141,0
2024-12-11 14:41:06.183,0.129212,2.34856,9.82792,0.00496313,0.0255792,0.0219141,0
2024-12-11 14:41:06.183,0.129212,2.34856,9.82792,0.00496313,0.0255792,0.0219141,0
2024-12-11 14:41:06.183,0.129212,2.34856,9.82792,0.00496313,0.0255792,0.0219141,0
2024-12-11 14:41:06.183,0.129212,2.34856,9.82792,0.00496313,0.0255792,0.0219141,0
2024-12-11 14:41:06.183,0.129212,2.34856,9.82792,0.00496313,0.0255792,0.0219141,0
2024-12-11 14:41:06.183,0.129212,2.34856,9.82792,0.00496313,0.0255792,0.0219141,0
2024-12-11 14:41:06.183,0.129212,2.34856,9.82792,0.00496313,0.0255792,0.0219141,0
2024-12-11 14:41:06.183,0.129212,2.34856,9.82792,0.00496313,0.0255792,0.0219141,0
2024-12-11 14:41:06.183,0.129212,2.34856,9.82792,0.00496313,0.0255792,0.0219141,0
2024-12-11 14:41:06.183,0.129212,2.34856,9.82792,0.00496313,0.0255792,0.0219141,0
2024-12-11 14:41:06.183,0.129212,2.34856,9.82792,0.00496313,0.0255792,0.0219141,0
2024-12-11 14:41:06.183,0.129212,2.34856,9.82792,0.00496313,0.0255792,0.0219141,0
2024-12-11 14:41:06.183,0.129212,2.34856,9.82792,0.00496313,0.0255792,0.0219141,0
2024-12-11 14:41:06.183,0.129212,2.34856,9.82792,0.00496313,0.0255792,0.0219141,0
2024-12-11 14:41:06.183,0.129212,2.34856,9.82792,0.00496313,0.0255792,0.0219141,0
2024-12-11 14:41:06.183,0.129212,2.34856,9.82792,0.00496313,0.0255792,0.0219141,0
2024-12-11 14:41:06.183,0.129212,2.34856,9.82792,0.00496313,0.0255792,0.0219141,0
2024-12-11 14:41:06.183,0.129212,2.34856,9.82792,0.00496313,0.0255792,0.0219141,0
2024-12-11 14:41:06.183,0.129212,2.34856,9.82792,0.00496313,0.0255792,0.0219141,0
2024-12-11 14:41:06.183,0.129212,2.34856,9.82792,0.00496313,0.0255792,0.0219141,0
2024-12-11 14:41:06.183,0.129212,2.34856,9.82792,0.00496313,0.0255792,0.0219141,0
2024-12-11 14:41:06.183,0.129212,2.34856,9.82792,0.00496313,0.0255792,0.0219141,0
2024-12-11 14:41:06.183,0.129212,2.34856,9.82792,0.00496313,0.0255792,0.0219141,0
2024-12-11 14:41:06.183,0.129212,2.34856,9.82792,0.00496313,0.0255792,0.0219141,0
2024-12-11 14:41:06.183,0.129212,2.34856,9.82792,0.00496313,0.0255792,0.0219141,0
2024-12-11 14:41:06.183,0.129212,2.34856,9.82792,0.00496313,0.0255792,0.0219141,0
2024-12-11 14:41:06.183,0.129212,2.34856,9.82792,0.00496313,0.0255792,0.0219141,0
2024-12-11 14:41:06.183,0.129212,2.34856,9.82792,0.00496313,0.0255792,0.0219141,0
2024-12-11 14:41:06.183,0.129212,2.34856,9.82792,0.00496313,0.0255792,0.0219141,0
2024-12-11 14:41:06.183,0.129212,2.34856,9.82792,0.00496313,0.0255792,0.0219141,0
2024-12-11 14:41:06.183,0.129212,2.34856,9.82792,0.00496313,0.0255792,0.0219141,0
2024-12-11 14:41:06.183,0.129212,2.34856,9.82792,0.00496313,0.0255792,0.0219141,0
2024-12-11 14:41:06.183,0.129212,2.34856,9.82792,0.00496313,0.0255792,0.0219141,0
2024-12-11 14:41:06.183,0.129212,2.34856,9.82792,0.00496313,0.0255792,0.0219141,0
2024-12-11 14:41:06.183,0.129212,2.34856,9.82792,0.00496313,0.0255792,0.0219141,0
2024-12-11 14:41:06.183,0.129212,2.34856,9.82792,0.00496313,0.0255792,0.0219141,0
2024-12-11 14:41:06.183,0.129212,2.34856,9.82792,0.00496313,0.0255792,0.0219141,0
2024-12-11 14:41:06.183,0.129212,2.34856,9.82792,0.00496313,0.0255792,0.0219141,0
2024-12-11 14:41:06.184,0.129212,2.34856,9.82792,0.00496313,0.0255792,0.0194708,0
2024-12-11 14:41:06.184,0.129212,2.34856,9.82792,0.00496313,0.0255792,0.0194708,0
2024-12-11 14:41:06.184,0.129212,2.34856,9.82792,0.00496313,0.0255792,0.0194708,0
2024-12-11 14:41:06.184,0.129212,2.34856,9.82792,0.00496313,0.0255792,0.0194708,0
2024-12-11 14:41:06.184,0.129212,2.34856,9.82792,0.00496313,0.0255792,0.0194708,0
2024-12-11 14:41:06.184,0.129212,2.34856,9.82792,0.00496313,0.0255792,0.0194708,0
2024-12-11 14:41:06.184,0.129212,2.34856,9.82792,0.00496313,0.0255792,0.0194708,0
2024-12-11 14:41:06.184,0.129212,2.34856,9.82792,0.00496313,0.0255792,0.0194708,0
2024-12-11 14:41:06.184,0.129212,2.34856,9.82792,0.00496313,0.0255792,0.0194708,0
2024-12-11 14:41:06.184,0.129212,2.34856,9.82792,0.00496313,0.0255792,0.0194708,0
2024-12-11 14:41:06.184,0.129212,2.34856,9.82792,0.00496313,0.0255792,0.0194708,0
2024-12-11 14:41:06.184,0.129212,2.34856,9.82792,0.00496313,0.0255792,0.0194708,0
2024-12-11 14:41:06.184,0.129212,2.34856,9.82792,0.00496313,0.0255792,0.0194708,0
2024-12-11 14:41:06.184,0.129212,2.34856,9.82792,0.00496313,0.0255792,0.0194708,0
2024-12-11 14:41:06.184,0.129212,2.34856,9.82792,0.00496313,0.0255792,0.0194708,0
2024-12-11 14:41:06.184,0.129212,2.34856,9.82792,0.00496313,0.0255792,0.0194708,0
2024-12-11 14:41:06.184,0.129212,2.34856,9.82792,0.00496313,0.0255792,0.0194708,0
2024-12-11 14:41:06.184,0.129212,2.34856,9.82792,0.00496313,0.0255792,0.0194708,0
2024-12-11 14:41:06.184,0.129212,2.34856,9.82792,0.00496313,0.0255792,0.0194708,0
2024-12-11 14:41:06.190,0.131605,2.39402,9.77259,0.00496313,0.0255792,0.0194708,0
2024-12-11 14:41:06.202,0.246461,2.37966,9.67448,0.00313059,0.0341311,0.0213033,0
2024-12-11 14:41:06.209,0.196211,2.39641,9.66012,-0.0151948,0.046348,0.00725381,0
2024-12-11 14:41:06.209,0.196211,2.39641,9.66012,-0.0151948,0.046348,0.00725381,0
2024-12-11 14:41:06.210,0.196211,2.39641,9.66012,-0.0151948,0.046348,0.00725381,0
2024-12-11 14:41:06.210,0.196211,2.39641,9.66012,-0.0151948,0.046348,0.00725381,0
2024-12-11 14:41:06.210,0.196211,2.39641,9.66012,-0.0151948,0.046348,0.00725381,0
2024-12-11 14:41:06.210,0.196211,2.39641,9.66012,-0.0151948,0.046348,0.00725381,0
2024-12-11 14:41:06.213,0.133998,2.38684,9.66012,-0.0182491,0.0469589,0.00481042,0
2024-12-11 14:41:06.213,0.133998,2.38684,9.66012,-0.0182491,0.0469589,0.00481042,0
2024-12-11 14:41:06.213,0.133998,2.38684,9.66012,-0.0182491,0.0469589,0.00481042,0
2024-12-11 14:41:06.214,0.133998,2.38684,9.66012,-0.0206925,0.046348,0.00419957,0
2024-12-11 14:41:06.216,0.117248,2.37966,9.64577,-0.0206925,0.046348,0.00419957,0
2024-12-11 14:41:06.216,0.117248,2.37966,9.64577,-0.0206925,0.046348,0.00419957,0
2024-12-11 14:41:06.216,0.117248,2.37966,9.64577,-0.0206925,0.046348,0.00419957,0
2024-12-11 14:41:06.216,0.117248,2.37966,9.64577,-0.0206925,0.046348,0.00419957,0
2024-12-11 14:41:06.217,0.117248,2.37966,9.64577,-0.022525,0.0469589,0.00175619,0
2024-12-11 14:41:06.217,0.117248,2.37966,9.64577,-0.022525,0.0469589,0.00175619,0
2024-12-11 14:41:06.218,0.105284,2.37009,9.65055,-0.022525,0.0469589,0.00175619,0
2024-12-11 14:41:06.218,0.105284,2.37009,9.65055,-0.022525,0.0469589,0.00175619,0
2024-12-11 14:41:06.218,0.105284,2.37009,9.65055,-0.022525,0.0469589,0.00175619,0
2024-12-11 14:41:06.219,0.105284,2.37009,9.65055,-0.0261901,0.0451263,0.00419957,0
2024-12-11 14:41:06.220,0.081356,2.35813,9.6362,-0.0261901,0.0451263,0.00419957,0
2024-12-11 14:41:06.220,0.081356,2.35813,9.6362,-0.0261901,0.0451263,0.00419957,0
2024-12-11 14:41:06.220,0.081356,2.35813,9.6362,-0.0261901,0.0451263,0.00419957,0
2024-12-11 14:41:06.220,0.081356,2.35813,9.6362,-0.0261901,0.0451263,0.00419957,0
2024-12-11 14:41:06.220,0.081356,2.35813,9.6362,-0.0261901,0.0451263,0.00419957,0
2024-12-11 14:41:06.220,0.081356,2.35813,9.6362,-0.0261901,0.0451263,0.00419957,0
2024-12-11 14:41:06.220,0.081356,2.35813,9.6362,-0.0261901,0.0451263,0.00419957,0
2024-12-11 14:41:06.220,0.081356,2.35813,9.6362,-0.0261901,0.0451263,0.00419957,0
2024-12-11 14:41:06.221,0.081356,2.35813,9.6362,-0.0261901,0.0451263,0.00419957,0
2024-12-11 14:41:06.221,0.081356,2.35813,9.6362,-0.0261901,0.0451263,0.00419957,0
2024-12-11 14:41:06.221,0.081356,2.35813,9.6362,-0.0261901,0.0451263,0.00419957,0
2024-12-11 14:41:06.227,0.0550349,2.32941,9.6338,-0.030466,0.0390179,0.00725381,0
2024-12-11 14:41:06.227,0.0550349,2.32941,9.6338,-0.030466,0.0390179,0.00725381,0
2024-12-11 14:41:06.228,0.0550349,2.32941,9.6338,-0.030466,0.0390179,0.00725381,0
2024-12-11 14:41:06.228,0.0550349,2.32941,9.6338,-0.030466,0.0390179,0.00725381,0
2024-12-11 14:41:06.230,0.0382852,2.32463,9.62902,-0.0322986,0.0377962,0.00786466,0
2024-12-11 14:41:06.230,0.0382852,2.32463,9.62902,-0.0322986,0.0377962,0.00786466,0
2024-12-11 14:41:06.230,0.0382852,2.32463,9.62902,-0.0322986,0.0377962,0.00786466,0
2024-12-11 14:41:06.230,0.0382852,2.32463,9.62902,-0.0322986,0.0377962,0.00786466,0
2024-12-11 14:41:06.230,0.0382852,2.32463,9.62902,-0.0322986,0.0377962,0.00786466,0
2024-12-11 14:41:06.231,0.0382852,2.32463,9.62902,-0.0329094,0.0347419,0.00786466,0
2024-12-11 14:41:06.231,0.0382852,2.32463,9.62902,-0.0329094,0.0347419,0.00786466,0
2024-12-11 14:41:06.232,0.040678,2.31984,9.61705,-0.0329094,0.0347419,0.00786466,0
2024-12-11 14:41:06.232,0.040678,2.31984,9.61705,-0.0329094,0.0347419,0.00786466,0
2024-12-11 14:41:06.233,0.040678,2.31984,9.61705,-0.0359636,0.0329094,0.0096972,0
2024-12-11 14:41:06.233,0.040678,2.31984,9.61705,-0.0359636,0.0329094,0.0096972,0
2024-12-11 14:41:06.234,0.0502493,2.31027,9.60748,-0.0359636,0.0329094,0.0096972,0
2024-12-11 14:41:06.234,0.0502493,2.31027,9.60748,-0.0359636,0.0329094,0.0096972,0
2024-12-11 14:41:06.234,0.0502493,2.31027,9.60748,-0.0359636,0.0329094,0.0096972,0
2024-12-11 14:41:06.235,0.0502493,2.31027,9.60748,-0.0359636,0.0329094,0.0096972,0
2024-12-11 14:41:06.237,0.0382852,2.3007,9.60748,-0.0371853,0.0329094,0.0109189,0
2024-12-11 14:41:06.239,0.0239282,2.29113,9.60509,-0.0408504,0.0316877,0.0115297,0
2024-12-11 14:41:06.242,0.0454636,2.27916,9.6027,-0.0420721,0.0286335,0.0127514,0
2024-12-11 14:41:06.244,0.0574277,2.27438,9.59552,-0.0432938,0.0268009,0.0139731,0
2024-12-11 14:41:06.247,0.0334995,2.27438,9.6003,-0.0457372,0.0261901,0.0151948,0
2024-12-11 14:41:06.249,0.0191426,2.26959,9.6027,-0.046348,0.0237467,0.014584,0
2024-12-11 14:41:06.253,0.0287139,2.2672,9.61466,-0.0512348,0.0213033,0.0188599,0
2024-12-11 14:41:06.254,0.0287139,2.2672,9.61466,-0.0512348,0.0213033,0.0188599,0
2024-12-11 14:41:06.258,0.026321,2.24088,9.65773,-0.0555107,0.0206925,0.022525,0
2024-12-11 14:41:06.259,0.026321,2.24088,9.65773,-0.0579541,0.0170274,0.0231358,0
2024-12-11 14:41:06.260,0.0191426,2.22413,9.64816,-0.0579541,0.0170274,0.0231358,0
2024-12-11 14:41:06.263,0.0382852,2.22413,9.6338,-0.058565,0.0151948,0.0243575,0
2024-12-11 14:41:06.266,0.0598206,2.21934,9.63859,-0.0616192,0.0170274,0.0255792,0
2024-12-11 14:41:06.267,0.066999,2.20738,9.65055,-0.0616192,0.0170274,0.0255792,0
2024-12-11 14:41:06.271,0.081356,2.19541,9.67687,-0.0658951,0.014584,0.0274118,0
2024-12-11 14:41:06.272,0.0885344,2.18584,9.69362,-0.0658951,0.014584,0.0274118,0
2024-12-11 14:41:06.275,0.0861416,2.17866,9.69362,-0.0640626,0.0127514,0.0286335,0
2024-12-11 14:41:06.277,0.0837488,2.17866,9.69362,-0.0640626,0.0151948,0.0298552,0
2024-12-11 14:41:06.280,0.081356,2.19302,9.7008,-0.0658951,0.0176382,0.0310769,0
2024-12-11 14:41:06.282,0.0717847,2.19302,9.69841,-0.0640626,0.0182491,0.0316877,0
2024-12-11 14:41:06.285,0.066999,2.17866,9.69841,-0.0634518,0.0188599,0.0335202,0
2024-12-11 14:41:06.286,0.0622134,2.17866,9.70319,-0.0640626,0.0213033,0.0347419,0
2024-12-11 14:41:06.290,0.0598206,2.17149,9.69123,-0.0640626,0.0237467,0.0371853,0
2024-12-11 14:41:06.291,0.0574277,2.15952,9.68166,-0.0634518,0.0249684,0.0390179,0
2024-12-11 14:41:06.296,0.0550349,2.16909,9.66491,-0.0634518,0.0286335,0.0445155,0
2024-12-11 14:41:06.296,0.0550349,2.16909,9.66491,-0.0634518,0.0286335,0.0445155,0
2024-12-11 14:41:06.298,0.066999,2.16909,9.66252,-0.0634518,0.0286335,0.0445155,0
2024-12-11 14:41:06.300,0.0717847,2.16192,9.64337,-0.0616192,0.0280226,0.0487914,0
2024-12-11 14:41:06.304,0.0861416,2.16909,9.63141,-0.0634518,0.0292443,0.0512348,0
2024-12-11 14:41:06.306,0.0909273,2.18345,9.62902,-0.0634518,0.0292443,0.0512348,0
2024-12-11 14:41:06.307,0.0885344,2.20499,9.62423,-0.0634518,0.0292443,0.0512348,0
2024-12-11 14:41:06.311,0.081356,2.22891,9.61466,-0.0634518,0.0268009,0.0536782,0
2024-12-11 14:41:06.312,0.081356,2.25284,9.6003,-0.0634518,0.0268009,0.0536782,0
2024-12-11 14:41:06.315,0.0885344,2.26002,9.57638,-0.0652843,0.0255792,0.0542891,0
2024-12-11 14:41:06.317,0.0957129,2.25284,9.54288,-0.0689494,0.0249684,0.0542891,0
2024-12-11 14:41:06.320,0.105284,2.26241,9.52613,-0.0720036,0.0243575,0.0548999,0
2024-12-11 14:41:06.323,0.0981057,2.28873,9.51416,-0.0781121,0.0188599,0.0536782,0
2024-12-11 14:41:06.324,0.0909273,2.32463,9.50698,-0.0781121,0.0188599,0.0536782,0
2024-12-11 14:41:06.327,0.0909273,2.33659,9.51416,-0.0805555,0.0164165,0.0524565,0
2024-12-11 14:41:06.330,0.0861416,2.34616,9.52852,-0.0860531,0.0158057,0.0530674,0
2024-12-11 14:41:06.331,0.0789631,2.37248,9.54527,-0.0878856,0.0164165,0.0536782,0
2024-12-11 14:41:06.333,0.0885344,2.38445,9.55245,-0.0909399,0.0170274,0.0512348,0
2024-12-11 14:41:06.336,0.0957129,2.4012,9.5692,-0.0909399,0.0170274,0.0512348,0
2024-12-11 14:41:06.338,0.100499,2.41795,9.57638,-0.0952158,0.0151948,0.0548999,0
2024-12-11 14:41:06.341,0.11007,2.41795,9.58595,-0.0988809,0.0158057,0.0542891,0
2024-12-11 14:41:06.343,0.129212,2.41077,9.60509,-0.101324,0.014584,0.0536782,0
2024-12-11 14:41:06.345,0.165105,2.42273,9.62423,-0.101935,0.0158057,0.0542891,0
2024-12-11 14:41:06.348,0.179462,2.44188,9.65534,-0.106211,0.0151948,0.0524565,0
2024-12-11 14:41:06.350,0.196211,2.45145,9.68405,-0.107433,0.014584,0.0500131,0
2024-12-11 14:41:06.352,0.210568,2.45384,9.70559,-0.106822,0.0158057,0.0487914,0
2024-12-11 14:41:06.357,0.229711,2.4682,9.77737,-0.104989,0.0127514,0.0439046,0
2024-12-11 14:41:06.358,0.217747,2.45623,9.74627,-0.104989,0.0127514,0.0439046,0
2024-12-11 14:41:06.359,0.239282,2.48016,9.79891,-0.101935,0.0127514,0.0432938,0
2024-12-11 14:41:06.362,0.253639,2.47777,9.83271,-0.100103,0.0109189,0.0396287,0
2024-12-11 14:41:06.364,0.258425,2.48734,9.84706,-0.0952158,0.0115297,0.0377962,0
2024-12-11 14:41:06.367,0.258425,2.48973,9.85424,-0.0921616,0.0096972,0.0365745,0
2024-12-11 14:41:06.369,0.267996,2.48255,9.85185,-0.086664,0.0096972,0.0341311,0
2024-12-11 14:41:06.371,0.267996,2.47777,9.85903,-0.0805555,0.00908635,0.0329094,0
2024-12-11 14:41:06.373,0.253639,2.47777,9.87338,-0.0756687,0.00908635,0.0322986,0
2024-12-11 14:41:06.377,0.256032,2.47298,9.8686,-0.0628409,0.00603212,0.0310769,0
2024-12-11 14:41:06.379,0.258425,2.47777,9.87817,-0.0628409,0.00603212,0.0310769,0
2024-12-11 14:41:06.380,0.248854,2.48734,9.87338,-0.0573433,0.00542127,0.0322986,0
2024-12-11 14:41:06.385,0.234497,2.4993,9.81566,-0.0469589,0.00542127,0.0335202,0
2024-12-11 14:41:06.386,0.234497,2.4993,9.81566,-0.0469589,0.00542127,0.0335202,0
2024-12-11 14:41:06.388,0.224925,2.50409,9.79412,-0.0396287,0.00297788,0.0347419,0
2024-12-11 14:41:06.390,0.227318,2.51845,9.77737,-0.0365745,0.00358873,0.038407,0
2024-12-11 14:41:06.395,0.241675,2.54507,9.72952,-0.0298552,0.00236703,0.0390179,0
2024-12-11 14:41:06.395,0.241675,2.54507,9.72952,-0.0298552,0.00236703,0.0390179,0
2024-12-11 14:41:06.397,0.253639,2.55942,9.69123,-0.022525,0.00236703,0.0396287,0
2024-12-11 14:41:06.400,0.265603,2.56899,9.66252,-0.0158057,0.00419957,0.0377962,0
2024-12-11 14:41:06.403,0.275175,2.57139,9.6338,-0.0139731,0.00481042,0.0402396,0
2024-12-11 14:41:06.404,0.285045,2.58335,9.6027,-0.0139731,0.00481042,0.0402396,0
2024-12-11 14:41:06.409,0.32333,2.60489,9.54766,-0.00664296,0.00603212,0.0414613,0
2024-12-11 14:41:06.410,0.32333,2.60489,9.54766,-0.00908635,0.00542127,0.0396287,0
2024-12-11 14:41:06.411,0.354437,2.60728,9.51895,-0.00908635,0.00542127,0.0396287,0
2024-12-11 14:41:06.414,0.380758,2.60249,9.50698,-0.00664296,0.00603212,0.0402396,0
2024-12-11 14:41:06.416,0.419043,2.59053,9.47109,-0.00358873,0.00664296,0.0371853,0
2024-12-11 14:41:06.419,0.447757,2.58335,9.42802,0.00129805,0.00847551,0.0341311,0
2024-12-11 14:41:06.421,0.469292,2.58335,9.40648,0.00129805,0.00847551,0.0341311,0
2024-12-11 14:41:06.424,0.476471,2.58574,9.38974,0.00129805,0.00847551,0.0310769,0
2024-12-11 14:41:06.425,0.471685,2.58814,9.35624,0.00251974,0.010308,0.0261901,0
2024-12-11 14:41:06.428,0.464507,2.59532,9.28924,0.0019089,0.00847551,0.0249684,0
2024-12-11 14:41:06.432,0.445364,2.58096,9.18844,-0.00419957,0.00297788,0.0206925,0
2024-12-11 14:41:06.433,0.445364,2.58096,9.18844,-0.00419957,0.00542127,0.0176382,0
2024-12-11 14:41:06.435,0.445364,2.57617,9.15015,-0.00419957,0.00542127,0.0176382,0
2024-12-11 14:41:06.438,0.431007,2.58335,9.12623,-0.00603212,0.0127514,0.0176382,0
2024-12-11 14:41:06.440,0.423829,2.59053,9.11665,-0.00603212,0.0127514,0.0176382,0
2024-12-11 14:41:06.443,0.41665,2.6001,9.10708,-0.00603212,0.0151948,0.0170274,0
2024-12-11 14:41:06.444,0.409472,2.61207,9.08315,-0.00297788,0.0194708,0.0188599,0
2024-12-11 14:41:06.446,0.411865,2.60728,9.05683,-0.00297788,0.0231358,0.0182491,0
2024-12-11 14:41:06.452,0.426222,2.61924,8.98026,-0.00419957,0.0249684,0.0182491,0
2024-12-11 14:41:06.452,0.426222,2.61924,8.98026,-0.00419957,0.0249684,0.0182491,0
2024-12-11 14:41:06.458,0.431007,2.63839,8.83191,-0.0096972,0.0219141,0.0133623,0
2024-12-11 14:41:06.458,0.431007,2.63839,8.83191,-0.0096972,0.0219141,0.0133623,0
2024-12-11 14:41:06.458,0.431007,2.63839,8.83191,-0.0096972,0.0219141,0.0133623,0
2024-12-11 14:41:06.461,0.4334,2.63599,8.80559,-0.0115297,0.0200816,0.0127514,0
2024-12-11 14:41:06.464,0.435793,2.63599,8.78644,-0.0158057,0.014584,0.00542127,0
2024-12-11 14:41:06.466,0.438186,2.65514,8.74816,-0.0158057,0.014584,0.00542127,0
2024-12-11 14:41:06.469,0.442971,2.65753,8.7027,-0.022525,0.00725381,-0.0019089,0
2024-12-11 14:41:06.471,0.4334,2.64317,8.67129,-0.022525,0.00725381,-0.0019089,0
2024-12-11 14:41:06.475,0.435793,2.61446,8.58515,-0.0310769,-0.0122933,-0.0104608,0
2024-12-11 14:41:06.476,0.435793,2.61446,8.58515,-0.0377962,-0.021456,-0.0147367,0
2024-12-11 14:41:06.478,0.4669,2.61446,8.55165,-0.0377962,-0.021456,-0.0147367,0
2024-12-11 14:41:06.479,0.490828,2.61446,8.52293,-0.0481806,-0.0342838,-0.0208452,0
2024-12-11 14:41:06.484,0.519542,2.57857,8.51097,-0.0634518,-0.0642153,-0.0324513,0
2024-12-11 14:41:06.484,0.567398,2.57857,8.51097,-0.0634518,-0.0642153,-0.0324513,0
2024-12-11 14:41:06.489,0.65354,2.56899,8.49661,-0.0829989,-0.0959794,-0.0513875,0
2024-12-11 14:41:06.490,0.65354,2.56899,8.49661,-0.0829989,-0.0959794,-0.0513875,0
2024-12-11 14:41:06.491,0.699003,2.55942,8.52533,-0.0915507,-0.113083,-0.0605502,0
2024-12-11 14:41:06.493,0.749253,2.54507,8.5684,-0.101324,-0.130187,-0.0709346,0
2024-12-11 14:41:06.496,0.797109,2.52592,8.62822,-0.109876,-0.147901,-0.0825407,0
2024-12-11 14:41:06.498,0.845265,2.49212,8.68565,-0.117817,-0.163783,-0.0941468,0
2024-12-11 14:41:06.503,0.952942,2.4323,8.83909,-0.128812,-0.19738,-0.114916,0
2024-12-11 14:41:06.504,0.952942,2.4323,8.83909,-0.135532,-0.213873,-0.128354,0
2024-12-11 14:41:06.506,1.00558,2.37009,8.92284,-0.135532,-0.213873,-0.128354,0
2024-12-11 14:41:06.508,1.05823,2.31506,9.01376,-0.13431,-0.225479,-0.137517,0
2024-12-11 14:41:06.511,1.11805,2.28395,9.1023,-0.130645,-0.239528,-0.157064,0
2024-12-11 14:41:06.513,1.17069,2.25763,9.18126,-0.130645,-0.239528,-0.157064,0
2024-12-11 14:41:06.515,1.20658,2.22174,9.26531,-0.124536,-0.243804,-0.165005,0
2024-12-11 14:41:06.517,1.25204,2.18345,9.33709,-0.117206,-0.245026,-0.171114,0
2024-12-11 14:41:06.522,1.29751,2.10688,9.42084,-0.0964375,-0.239528,-0.180887,0
2024-12-11 14:41:06.522,1.29751,2.10688,9.42084,-0.0964375,-0.239528,-0.180887,0
2024-12-11 14:41:06.524,1.33579,2.10209,9.47109,-0.0854423,-0.230366,-0.180887,0
2024-12-11 14:41:06.527,1.38126,2.10209,9.49741,-0.0707819,-0.219981,-0.183331,0
2024-12-11 14:41:06.529,1.42702,2.09252,9.51177,-0.0573433,-0.202878,-0.185163,0
2024-12-11 14:41:06.531,1.4653,2.07577,9.49981,-0.0420721,-0.183331,-0.185774,0
2024-12-11 14:41:06.535,1.49402,2.0662,9.46152,-0.0255792,-0.162562,-0.185774,0
2024-12-11 14:41:06.536,1.50838,2.0997,9.40888,-0.00664296,-0.135684,-0.183941,0
2024-12-11 14:41:06.539,1.51555,2.12842,9.32274,0.0263428,-0.085595,-0.179665,0
2024-12-11 14:41:06.542,1.51795,2.15234,9.23151,0.0403923,-0.0550526,-0.177222,0
2024-12-11 14:41:06.544,1.50359,2.19063,9.12144,0.0532201,-0.0287862,-0.172335,0
2024-12-11 14:41:06.545,1.49402,2.23609,9.0018,0.0532201,-0.0287862,-0.172335,0
2024-12-11 14:41:06.549,1.49402,2.28395,8.87019,0.073378,0.0231358,-0.161951,0
2024-12-11 14:41:06.551,1.49641,2.33659,8.72184,0.0800973,0.0451263,-0.157675,0
2024-12-11 14:41:06.552,1.48445,2.38684,8.56361,0.0800973,0.0451263,-0.157675,0
2024-12-11 14:41:06.555,1.48205,2.44905,8.42244,0.0849841,0.0671168,-0.15401,0
2024-12-11 14:41:06.557,1.47248,2.54028,8.27647,0.0874275,0.0860531,-0.148512,0
2024-12-11 14:41:06.559,1.4342,2.6336,8.12064,0.0886492,0.1056,-0.145458,0
2024-12-11 14:41:06.562,1.39322,2.74367,7.98904,0.0874275,0.121482,-0.143625,0
2024-12-11 14:41:06.564,1.35254,2.87049,7.85265,0.0807082,0.139197,-0.141182,0
2024-12-11 14:41:06.569,1.30708,3.1005,7.57747,0.0678804,0.167296,-0.141182,0
2024-12-11 14:41:06.570,1.30708,3.1005,7.57747,0.0562743,0.178902,-0.143015,0
2024-12-11 14:41:06.571,1.29512,3.21296,7.436,0.0562743,0.178902,-0.143015,0
2024-12-11 14:41:06.574,1.24247,3.3326,7.27807,0.0385597,0.189286,-0.14668,0
2024-12-11 14:41:06.576,1.1683,3.4331,7.11536,0.021456,0.196616,-0.150956,0
2024-12-11 14:41:06.586,0.957727,3.80429,6.65564,-0.141029,0.156911,-0.176,0
2024-12-11 14:41:06.588,0.907478,3.88564,6.61257,-0.141029,0.156911,-0.176,0
2024-12-11 14:41:06.588,0.907478,3.88564,6.61257,-0.141029,0.156911,-0.176,0
2024-12-11 14:41:06.590,0.926621,3.89761,6.58624,-0.183178,0.131256,-0.184552,0
2024-12-11 14:41:06.591,0.926621,3.89761,6.58624,-0.225937,0.0970484,-0.199213,0
2024-12-11 14:41:06.592,1.0654,3.86411,6.59821,-0.225937,0.0970484,-0.199213,0
2024-12-11 14:41:06.593,1.0654,3.86411,6.59821,-0.225937,0.0970484,-0.199213,0
2024-12-11 14:41:06.596,1.05344,3.94547,6.60539,-0.32184,0.0286335,-0.229755,0
2024-12-11 14:41:06.597,0.8668,4.12253,6.58146,-0.32184,0.0286335,-0.229755,0
2024-12-11 14:41:06.602,0.813859,4.3669,6.67239,-0.426906,-0.0593285,-0.249913,0
2024-12-11 14:41:06.602,0.813859,4.3669,6.67239,-0.426906,-0.0593285,-0.249913,0
2024-12-11 14:41:06.604,0.84018,4.4674,6.75853,-0.481271,-0.110029,-0.261519,0
2024-12-11 14:41:06.607,0.88355,4.53679,6.83031,-0.537469,-0.165616,-0.271293,0
2024-12-11 14:41:06.610,1.01276,4.55115,6.95235,-0.654752,-0.277401,-0.309776,0
2024-12-11 14:41:06.611,1.20658,4.50568,7.1345,-0.654752,-0.277401,-0.309776,0
2024-12-11 14:41:06.615,1.38604,4.47458,7.31157,-0.769591,-0.394684,-0.36353,0
2024-12-11 14:41:06.616,1.51555,4.45783,7.49103,-0.769591,-0.394684,-0.36353,0
2024-12-11 14:41:06.619,1.62562,4.43869,7.68515,-0.825789,-0.447217,-0.394684,0
2024-12-11 14:41:06.621,1.71894,4.43869,7.88375,-0.881987,-0.50036,-0.424004,0
2024-12-11 14:41:06.623,1.80987,4.42911,8.09193,-0.939407,-0.553504,-0.456379,0
2024-12-11 14:41:06.625,1.89601,4.39801,8.31954,-0.995605,-0.604815,-0.484478,0
2024-12-11 14:41:06.629,1.98485,4.35015,8.58276,-1.05127,-0.654905,-0.51441,0
2024-12-11 14:41:06.630,2.09013,4.28076,8.89412,-1.10441,-0.704994,-0.544952,0
2024-12-11 14:41:06.635,2.3007,4.09621,9.57877,-1.20398,-0.801508,-0.605426,0
2024-12-11 14:41:06.636,2.3007,4.09621,9.57877,-1.20398,-0.801508,-0.605426,0
2024-12-11 14:41:06.637,2.38445,3.99332,9.97628,-1.20398,-0.801508,-0.605426,0
2024-12-11 14:41:06.639,2.42034,3.91675,10.3857,-1.284,-0.883972,-0.664678,0
2024-12-11 14:41:06.642,2.43709,3.8354,10.8165,-1.31454,-0.913293,-0.692777,0
2024-12-11 14:41:06.644,2.44666,3.75404,11.2379,-1.33837,-0.934673,-0.719044,0
2024-12-11 14:41:06.647,2.45145,3.66551,11.6761,-1.35303,-0.952387,-0.741645,0
2024-12-11 14:41:06.649,2.44427,3.57189,12.1382,-1.36158,-0.959717,-0.761192,0
2024-12-11 14:41:06.654,2.35813,3.3685,13.0741,-1.34875,-0.951776,-0.792345,0
2024-12-11 14:41:06.654,2.35813,3.3685,13.0741,-1.34875,-0.951776,-0.792345,0
2024-12-11 14:41:06.656,2.31266,3.25843,13.4955,-1.32981,-0.936505,-0.802119,0
2024-12-11 14:41:06.659,2.24566,3.16271,13.8643,-1.26812,-0.879086,-0.807616,0
2024-12-11 14:41:06.662,2.09731,3.09571,14.1826,-1.22475,-0.835715,-0.797232,0
2024-12-11 14:41:06.664,1.91755,3.04277,14.4485,-1.17894,-0.787458,-0.783793,0
2024-12-11 14:41:06.665,1.83141,2.93988,14.7141,-1.17894,-0.787458,-0.783793,0
2024-12-11 14:41:06.668,1.80987,2.82263,14.9465,-1.12396,-0.733093,-0.769744,0
2024-12-11 14:41:06.671,1.75962,2.69581,15.1092,-1.0641,-0.675673,-0.750197,0
2024-12-11 14:41:06.672,1.68784,2.56899,15.1929,-0.998659,-0.612145,-0.727595,0
2024-12-11 14:41:06.677,1.48923,2.47777,15.181,-0.865494,-0.467375,-0.681171,0
2024-12-11 14:41:06.678,1.48923,2.47777,15.181,-0.797079,-0.388575,-0.649407,0
2024-12-11 14:41:06.679,1.29751,2.50887,15.0685,-0.797079,-0.388575,-0.649407,0
2024-12-11 14:41:06.683,1.10369,2.57139,14.9225,-0.730497,-0.310998,-0.613978,0
2024-12-11 14:41:06.684,0.893121,2.65035,14.7619,-0.668191,-0.23342,-0.574884,0
2024-12-11 14:41:06.687,0.701396,2.72692,14.5657,-0.608328,-0.161951,-0.52907,0
2024-12-11 14:41:06.690,0.596112,2.77478,14.2854,-0.498986,-0.0281753,-0.439886,0
2024-12-11 14:41:06.691,0.550648,2.80588,13.9696,-0.498986,-0.0281753,-0.439886,0
2024-12-11 14:41:06.694,0.545863,2.83938,13.6606,-0.45134,0.030466,-0.398349,0
2024-12-11 14:41:06.697,0.562612,2.88245,13.3711,-0.370708,0.128812,-0.325658,0
2024-12-11 14:41:06.699,0.586541,2.94706,13.0525,-0.370708,0.128812,-0.325658,0
2024-12-11 14:41:06.701,0.629611,3.03081,12.7295,-0.333446,0.175848,-0.295116,0
2024-12-11 14:41:06.705,0.71336,3.21775,12.1693,-0.279081,0.253425,-0.245637,0
2024-12-11 14:41:06.706,0.71336,3.21775,12.1693,-0.279081,0.253425,-0.245637,0
2024-12-11 14:41:06.709,0.754038,3.31107,11.9297,-0.225937,0.318786,-0.215705,0
2024-12-11 14:41:06.711,0.777966,3.42353,11.7191,-0.199671,0.34322,-0.202267,0
2024-12-11 14:41:06.716,0.744467,3.61735,11.202,-0.159355,0.384147,-0.185774,0
2024-12-11 14:41:06.716,0.744467,3.61735,11.202,-0.159355,0.384147,-0.185774,0
2024-12-11 14:41:06.718,0.758824,3.71575,10.9313,-0.140419,0.396364,-0.180887,0
2024-12-11 14:41:06.720,0.787538,3.77318,10.6561,-0.140419,0.396364,-0.180887,0
2024-12-11 14:41:06.724,0.797109,3.833,10.1605,-0.11293,0.410413,-0.183331,0
2024-12-11 14:41:06.725,0.797109,3.833,10.1605,-0.11293,0.410413,-0.183331,0
2024-12-11 14:41:06.728,0.780359,3.89522,9.9356,-0.090329,0.407359,-0.190661,0
2024-12-11 14:41:06.729,0.739681,3.94786,9.74148,-0.090329,0.407359,-0.190661,0
2024-12-11 14:41:06.731,0.689432,3.99571,9.55963,-0.090329,0.407359,-0.190661,0
2024-12-11 14:41:06.734,0.63679,4.04836,9.37299,-0.0720036,0.39392,-0.203488,0
2024-12-11 14:41:06.737,0.584148,4.09143,9.22194,-0.0640626,0.384147,-0.209597,0
2024-12-11 14:41:06.738,0.533899,4.12014,9.07837,-0.0561216,0.371319,-0.218149,0
2024-12-11 14:41:06.742,0.4669,4.12971,8.94676,-0.0359636,0.341387,-0.23342,0
2024-12-11 14:41:06.743,0.409472,4.13928,8.83669,-0.0359636,0.341387,-0.23342,0
2024-12-11 14:41:06.745,0.352044,4.15364,8.7338,-0.0249684,0.321229,-0.241361,0
2024-12-11 14:41:06.748,0.30658,4.16082,8.64018,-0.014584,0.301682,-0.249913,0
2024-12-11 14:41:06.751,0.270389,4.168,8.53251,-0.00236703,0.280913,-0.257243,0
2024-12-11 14:41:06.752,0.241675,4.17039,8.45354,0.00740652,0.25648,-0.265795,0
2024-12-11 14:41:06.757,0.212961,4.14407,8.3339,0.033673,0.207612,-0.28412,0
2024-12-11 14:41:06.757,0.179462,4.14407,8.3339,0.033673,0.207612,-0.28412,0
2024-12-11 14:41:06.762,0.145962,4.08664,8.19512,0.0544418,0.151414,-0.301835,0
2024-12-11 14:41:06.763,0.145962,4.08664,8.19512,0.0617719,0.122704,-0.31283,0
2024-12-11 14:41:06.767,0.0957129,4.05793,8.04407,0.0697129,0.0933833,-0.325047,0
2024-12-11 14:41:06.768,0.0957129,4.05793,8.04407,0.0752106,0.0616192,-0.33421,0
2024-12-11 14:41:06.769,0.0502493,4.04596,7.97947,0.0752106,0.0616192,-0.33421,0
2024-12-11 14:41:06.772,0.0287139,4.01246,7.92922,0.0807082,0.0322986,-0.343983,0
2024-12-11 14:41:06.774,0.0239282,3.98854,7.88854,0.0886492,0.00603212,-0.353757,0
2024-12-11 14:41:06.776,-0.00239282,3.96939,7.84786,0.0947577,-0.0202343,-0.365363,0
2024-12-11 14:41:06.778,-0.0454636,3.94547,7.81675,0.0990336,-0.0440574,-0.375747,0
2024-12-11 14:41:06.781,-0.0861416,3.90957,7.78804,0.100255,-0.065437,-0.386132,0
2024-12-11 14:41:06.783,-0.117248,3.88804,7.75693,0.102699,-0.0886492,-0.39224,0
2024-12-11 14:41:06.785,-0.155533,3.87607,7.72343,0.105753,-0.11064,-0.400181,0
2024-12-11 14:41:06.788,-0.18664,3.83779,7.68036,0.102699,-0.129576,-0.40629,0
2024-12-11 14:41:06.791,-0.215354,3.78515,7.64686,0.100255,-0.149123,-0.412398,0
2024-12-11 14:41:06.795,-0.267996,3.72533,7.61097,0.0892601,-0.185163,-0.425837,0
2024-12-11 14:41:06.795,-0.267996,3.72533,7.61097,0.0892601,-0.185163,-0.425837,0
2024-12-11 14:41:06.797,-0.265603,3.69183,7.59901,0.0831516,-0.197991,-0.428891,0
2024-12-11 14:41:06.800,-0.282652,3.65593,7.6014,0.0758214,-0.21143,-0.433778,0
2024-12-11 14:41:06.804,-0.330509,3.59581,7.64686,0.0562743,-0.228533,-0.437443,0
2024-12-11 14:41:06.804,-0.330509,3.59581,7.64686,0.0562743,-0.228533,-0.437443,0
2024-12-11 14:41:06.807,-0.342473,3.55753,7.66601,0.0477224,-0.235863,-0.439886,0
2024-12-11 14:41:06.809,-0.354437,3.52164,7.68036,0.0361163,-0.238918,-0.439276,0
2024-12-11 14:41:06.812,-0.342473,3.48574,7.71147,0.0361163,-0.238918,-0.439276,0
2024-12-11 14:41:06.814,-0.32333,3.44746,7.75215,0.00984991,-0.241972,-0.43561,0
2024-12-11 14:41:06.818,-0.318545,3.39721,7.82393,-0.0200816,-0.240139,-0.431945,0
2024-12-11 14:41:06.819,-0.289831,3.35414,7.82393,-0.0200816,-0.240139,-0.431945,0
2024-12-11 14:41:06.822,-0.248854,3.32543,7.9005,-0.0494023,-0.234642,-0.427669,0
2024-12-11 14:41:06.824,-0.224925,3.28953,8.00579,-0.0658951,-0.226701,-0.421561,0
2024-12-11 14:41:06.825,-0.193819,3.25364,8.13261,-0.0658951,-0.226701,-0.421561,0
2024-12-11 14:41:06.829,-0.174676,3.2345,8.25015,-0.090329,-0.199823,-0.412398,0
2024-12-11 14:41:06.830,-0.167498,3.21775,8.38654,-0.090329,-0.199823,-0.412398,0
2024-12-11 14:41:06.833,-0.174676,3.20339,8.54686,-0.0982701,-0.185163,-0.406901,0
2024-12-11 14:41:06.835,-0.189033,3.20339,8.68565,-0.106211,-0.166227,-0.400792,0
2024-12-11 14:41:06.837,-0.205783,3.201,8.81755,-0.109876,-0.14668,-0.391629,0
2024-12-11 14:41:06.840,-0.224925,3.19621,8.95873,-0.11293,-0.126522,-0.383078,0
2024-12-11 14:41:06.842,-0.210568,3.18903,9.09512,-0.11293,-0.104531,-0.372693,0
2024-12-11 14:41:06.844,-0.205783,3.17946,9.20997,-0.111709,-0.0849841,-0.360476,0
2024-12-11 14:41:06.848,-0.222533,3.17707,9.32274,-0.1056,-0.0452791,-0.339707,0
2024-12-11 14:41:06.850,-0.227318,3.16271,9.42563,-0.0970484,-0.0257319,-0.329323,0
2024-12-11 14:41:06.852,-0.232104,3.14596,9.50938,-0.0970484,-0.0257319,-0.329323,0
2024-12-11 14:41:06.856,-0.246461,3.12921,9.70559,-0.0817772,0.00419957,-0.307333,0
2024-12-11 14:41:06.856,-0.246461,3.12921,9.70559,-0.0817772,0.00419957,-0.307333,0
2024-12-11 14:41:06.858,-0.260818,3.12682,9.79652,-0.0713928,0.014584,-0.293894,0
2024-12-11 14:41:06.862,-0.267996,3.11007,9.86142,-0.0524565,0.0292443,-0.270682,0
2024-12-11 14:41:06.863,-0.275175,3.08584,9.94038,-0.0524565,0.0292443,-0.270682,0
2024-12-11 14:41:06.865,-0.289831,3.08345,10.0241,-0.0432938,0.0322986,-0.259686,0
2024-12-11 14:41:06.869,-0.30658,3.10289,10.0959,-0.0298552,0.0353528,-0.246859,0
2024-12-11 14:41:06.870,-0.304188,3.11007,10.1749,-0.0170274,0.0408504,-0.232809,0
2024-12-11 14:41:06.873,-0.272782,3.11246,10.2586,-0.00358873,0.0377962,-0.221814,0
2024-12-11 14:41:06.876,-0.234497,3.12682,10.3137,0.0147367,0.038407,-0.21143,0
2024-12-11 14:41:06.877,-0.189033,3.13879,10.3905,0.0147367,0.038407,-0.21143,0
2024-12-11 14:41:06.880,-0.112463,3.15075,10.4743,0.0452791,0.0341311,-0.188828,0
2024-12-11 14:41:06.883,-0.0287139,3.14596,10.5317,0.0758214,0.0286335,-0.177222,0
2024-12-11 14:41:06.884,0.0334995,3.14596,10.57,0.0758214,0.0286335,-0.177222,0
2024-12-11 14:41:06.887,0.0957129,3.16271,10.5987,0.093536,0.0274118,-0.170503,0
2024-12-11 14:41:06.890,0.155533,3.17228,10.625,0.108807,0.0286335,-0.168059,0
2024-12-11 14:41:06.894,0.184247,3.17707,10.6394,0.13996,0.0322986,-0.165005,0
2024-12-11 14:41:06.894,0.212961,3.17707,10.6394,0.13996,0.0322986,-0.165005,0
2024-12-11 14:41:06.896,0.239282,3.19861,10.6155,0.15401,0.0347419,-0.163783,0
2024-12-11 14:41:06.898,0.241675,3.20818,10.5891,0.165005,0.0402396,-0.16134,0
2024-12-11 14:41:06.901,0.224925,3.20818,10.57,0.176,0.0451263,-0.158897,0
2024-12-11 14:41:06.903,0.210568,3.20578,10.5485,0.186385,0.0524565,-0.156453,0
2024-12-11 14:41:06.906,0.210568,3.19382,10.515,0.193104,0.058565,-0.153399,0
2024-12-11 14:41:06.909,0.200997,3.18664,10.5054,0.201656,0.0646735,-0.149734,0
2024-12-11 14:41:06.911,0.18664,3.17946,10.4958,0.213262,0.0811663,-0.137517,0
2024-12-11 14:41:06.914,0.177069,3.16989,10.4862,0.219981,0.094605,-0.130798,0
2024-12-11 14:41:06.916,0.153141,3.17707,10.4504,0.22609,0.1056,-0.124078,0
2024-12-11 14:41:06.917,0.148355,3.18425,10.4097,0.22609,0.1056,-0.124078,0
2024-12-11 14:41:06.921,0.155533,3.19382,10.3977,0.23342,0.130645,-0.107585,0
2024-12-11 14:41:06.922,0.150748,3.19143,10.3857,0.23342,0.130645,-0.107585,0
2024-12-11 14:41:06.925,0.165105,3.18903,10.3615,0.235253,0.140419,-0.0984228,0
2024-12-11 14:41:06.927,0.184247,3.19143,10.3352,0.234031,0.14836,-0.0898709,0
2024-12-11 14:41:06.929,0.200997,3.19143,10.3328,0.235863,0.155079,-0.0825407,0
2024-12-11 14:41:06.931,0.227318,3.201,10.3352,0.235253,0.161798,-0.0752106,0
2024-12-11 14:41:06.934,0.251246,3.20578,10.328,0.235253,0.164852,-0.0672696,0
2024-12-11 14:41:06.936,0.267996,3.20578,10.3208,0.234642,0.171572,-0.0611611,0
2024-12-11 14:41:06.939,0.294616,3.21296,10.3041,0.237085,0.175848,-0.0550526,0
2024-12-11 14:41:06.941,0.32333,3.22493,10.2969,0.234642,0.178902,-0.0501658,0
2024-12-11 14:41:06.946,0.325723,3.24168,10.328,0.237696,0.186843,-0.0385597,0
2024-12-11 14:41:06.946,0.325723,3.24168,10.328,0.237696,0.186843,-0.0385597,0
2024-12-11 14:41:06.949,0.328116,3.27039,10.3304,0.239528,0.191119,-0.0263428,0
2024-12-11 14:41:06.951,0.32333,3.29671,10.34,0.241972,0.192341,-0.0208452,0
2024-12-11 14:41:06.953,0.32333,3.30389,10.3591,0.241972,0.192341,-0.0208452,0
2024-12-11 14:41:06.955,0.335294,3.32303,10.3711,0.244415,0.195395,-0.0165692,0
2024-12-11 14:41:06.957,0.320937,3.34457,10.3905,0.244415,0.195395,-0.0165692,0
2024-12-11 14:41:06.960,0.318545,3.37567,10.4025,0.255411,0.201503,-0.00618483,0
2024-12-11 14:41:06.963,0.316152,3.40917,10.424,0.267627,0.210055,0.00481042,0
2024-12-11 14:41:06.965,0.311366,3.43789,10.4456,0.267627,0.210055,0.00481042,0
2024-12-11 14:41:06.968,0.316152,3.47378,10.4504,0.284731,0.218607,0.0194708,0
2024-12-11 14:41:06.970,0.299402,3.50249,10.4575,0.293283,0.22105,0.0231358,0
2024-12-11 14:41:06.975,0.270389,3.61256,10.4527,0.302446,0.225326,0.0310769,0
2024-12-11 14:41:06.975,0.270389,3.61256,10.4527,0.302446,0.225326,0.0310769,0
2024-12-11 14:41:06.976,0.253639,3.65593,10.4432,0.308554,0.226548,0.0371853,0
2024-12-11 14:41:06.979,0.256032,3.69661,10.4192,0.315884,0.225326,0.046348,0
2024-12-11 14:41:06.981,0.258425,3.74447,10.3783,0.32016,0.225326,0.0512348,0
2024-12-11 14:41:06.984,0.263211,3.80668,10.3352,0.328101,0.223494,0.0652843,0
2024-12-11 14:41:06.986,0.267996,3.87129,10.2945,0.328101,0.223494,0.0652843,0
2024-12-11 14:41:06.988,0.265603,3.91914,10.2538,0.328101,0.219218,0.0707819,0
2024-12-11 14:41:06.990,0.256032,3.97897,10.2299,0.325658,0.211888,0.0762796,0
2024-12-11 14:41:06.994,0.270389,4.03879,10.2084,0.317717,0.193562,0.086664,0
2024-12-11 14:41:06.997,0.330509,4.16561,10.1175,0.312219,0.181956,0.0891073,0
2024-12-11 14:41:06.997,0.330509,4.16561,10.1175,0.312219,0.181956,0.0891073,0
2024-12-11 14:41:07.001,0.368794,4.22333,10.0816,0.300002,0.169128,0.0939941,0
2024-12-11 14:41:07.002,0.402293,4.2664,10.0552,0.286564,0.155079,0.0921616,0
2024-12-11 14:41:07.005,0.438186,4.32622,10.0265,0.271903,0.138586,0.0915507,0
2024-12-11 14:41:07.007,0.481256,4.40279,10.017,0.255411,0.120871,0.0915507,0
2024-12-11 14:41:07.011,0.74686,4.43151,10.06,0.219981,0.086664,0.0787229,0
2024-12-11 14:41:07.012,0.74686,4.43151,10.06,0.219981,0.086664,0.0787229,0
2024-12-11 14:41:07.015,0.8668,4.43629,10.1175,0.200434,0.0713928,0.066506,0
2024-12-11 14:41:07.016,0.833001,4.5344,10.1605,0.180887,0.0561216,0.0542891,0
2024-12-11 14:41:07.019,0.756431,4.66361,10.1916,0.160118,0.0377962,0.0445155,0
2024-12-11 14:41:07.021,0.754038,4.75932,10.2515,0.135684,0.0164165,0.0377962,0
2024-12-11 14:41:07.023,0.842872,4.82423,10.3304,0.111251,-0.00862822,0.0310769,0
2024-12-11 14:41:07.026,0.981655,4.85534,10.424,0.0843733,-0.0330621,0.0188599,0
2024-12-11 14:41:07.030,1.24726,4.79552,10.625,0.0330621,-0.0837624,-0.0129041,0
2024-12-11 14:41:07.031,1.24726,4.79552,10.625,0.00496313,-0.107585,-0.0324513,0
2024-12-11 14:41:07.035,1.40279,4.71147,10.8523,-0.0255792,-0.129576,-0.0526092,0
2024-12-11 14:41:07.036,1.40279,4.71147,10.8523,-0.0518457,-0.148512,-0.073378,0
2024-12-11 14:41:07.037,1.46052,4.6684,11.013,-0.0518457,-0.148512,-0.073378,0
2024-12-11 14:41:07.040,1.52273,4.65883,11.1829,-0.0775012,-0.164394,-0.0959794,0
2024-12-11 14:41:07.045,1.55384,4.65883,11.5612,-0.121482,-0.185163,-0.135074,0
2024-12-11 14:41:07.045,1.55384,4.62293,11.5612,-0.121482,-0.185163,-0.135074,0
2024-12-11 14:41:07.047,1.55145,4.57268,11.7766,-0.142251,-0.191272,-0.153399,0
2024-12-11 14:41:07.050,1.56102,4.52243,11.9871,-0.17035,-0.185163,-0.18272,0
2024-12-11 14:41:07.052,1.55145,4.45783,12.21,-0.17035,-0.185163,-0.18272,0
2024-12-11 14:41:07.055,1.5323,4.39083,12.4253,-0.17768,-0.174779,-0.193715,0
2024-12-11 14:41:07.056,1.47727,4.35733,12.6386,-0.181345,-0.157675,-0.20471,0
2024-12-11 14:41:07.059,1.37647,4.37887,12.8683,-0.179513,-0.13263,-0.207764,0
2024-12-11 14:41:07.061,1.36451,4.32622,13.0669,-0.170961,-0.105753,-0.207154,0
2024-12-11 14:41:07.063,1.41745,4.1991,13.2347,-0.161798,-0.0703238,-0.207154,0
2024-12-11 14:41:07.066,1.42463,4.101,13.352,-0.161798,-0.0703238,-0.207154,0
2024-12-11 14:41:07.068,1.39083,4.01725,13.3711,-0.13431,0.00542127,-0.207154,0
2024-12-11 14:41:07.070,1.37169,3.92632,13.3783,-0.124536,0.0457372,-0.203488,0
2024-12-11 14:41:07.074,1.33819,3.83061,13.3831,-0.11232,0.0939941,-0.199823,0
2024-12-11 14:41:07.075,1.25204,3.76361,13.3472,-0.0976592,0.14836,-0.192493,0
2024-12-11 14:41:07.077,1.10848,3.75404,13.3017,-0.0836097,0.20639,-0.184552,0
2024-12-11 14:41:07.080,0.893121,3.7995,13.1964,-0.0701711,0.268086,-0.170503,0
2024-12-11 14:41:07.082,0.845265,3.8689,12.9449,-0.0628409,0.322451,-0.151566,0
2024-12-11 14:41:07.085,0.835394,3.92393,12.6769,-0.0683385,0.359102,-0.135684,0
2024-12-11 14:41:07.087,0.4669,3.96222,12.7367,-0.0707819,0.40125,-0.120413,0
2024-12-11 14:41:07.092,-0.435793,4.07229,12.641,-0.0677277,0.497764,-0.0678804,0
2024-12-11 14:41:07.093,-0.435793,4.07229,12.641,-0.0677277,0.497764,-0.0678804,0
2024-12-11 14:41:07.094,-0.622433,4.0675,12.4349,-0.0689494,0.531361,-0.037338,0
2024-12-11 14:41:07.096,-0.643968,4.05075,12.3057,-0.0726145,0.561292,-0.00801737,0
2024-12-11 14:41:07.099,-0.493221,4.034,12.21,-0.0793338,0.575953,0.0164165,0
2024-12-11 14:41:07.101,-0.234497,3.97897,12.2004,-0.0878856,0.574731,0.0316877,0
2024-12-11 14:41:07.103,-0.0478565,3.90479,12.2387,-0.094605,0.555795,0.0420721,0
2024-12-11 14:41:07.106,0.040678,3.87368,12.1023,-0.106822,0.518533,0.0475697,0
2024-12-11 14:41:07.110,0.428614,3.58385,11.9967,-0.156301,0.396974,0.0500131,0
2024-12-11 14:41:07.110,0.428614,3.58385,11.9967,-0.156301,0.396974,0.0500131,0
2024-12-11 14:41:07.113,0.725324,3.38046,12.119,-0.170961,0.33589,0.0414613,0
2024-12-11 14:41:07.116,0.97687,3.20818,12.3272,-0.179513,0.269918,0.0237467,0
2024-12-11 14:41:07.117,1.18505,3.09093,12.6072,-0.179513,0.269918,0.0237467,0
2024-12-11 14:41:07.120,1.35972,2.99731,12.9066,-0.17768,0.117206,-0.0281753,0
2024-12-11 14:41:07.123,1.5012,2.8681,13.218,-0.162409,-0.049555,-0.0923143,0
2024-12-11 14:41:07.124,1.62562,2.71735,13.4812,-0.162409,-0.049555,-0.0923143,0
2024-12-11 14:41:07.128,1.73091,2.56899,13.7372,-0.120871,-0.200434,-0.166838,0
2024-12-11 14:41:07.129,1.77398,2.42273,13.9576,-0.120871,-0.200434,-0.166838,0
2024-12-11 14:41:07.133,1.71894,2.31984,13.9768,-0.0976592,-0.266406,-0.202878,0
2024-12-11 14:41:07.135,1.6328,2.22413,13.8906,-0.0707819,-0.390408,-0.260908,0
2024-12-11 14:41:07.136,1.49641,2.15474,13.8954,-0.0707819,-0.390408,-0.260908,0
2024-12-11 14:41:07.139,1.35972,2.04945,14.0581,-0.0536782,-0.42095,-0.280455,0
2024-12-11 14:41:07.143,1.40788,1.64955,14.7212,0.0281753,-0.427669,-0.317106,0
2024-12-11 14:41:07.144,1.40788,1.64955,14.7212,0.0281753,-0.427669,-0.317106,0
2024-12-11 14:41:07.148,1.33579,1.18026,15.2312,0.157675,-0.385521,-0.347648,0
2024-12-11 14:41:07.148,1.33579,1.18026,15.2312,0.157675,-0.385521,-0.347648,0
2024-12-11 14:41:07.153,1.13001,0.701396,15.3772,0.317106,-0.322604,-0.37025,0
2024-12-11 14:41:07.154,1.13001,0.701396,15.3772,0.397738,-0.293283,-0.379413,0
2024-12-11 14:41:07.157,1.23529,0.419043,15.1546,0.480813,-0.270071,-0.393462,0
2024-12-11 14:41:07.157,1.23529,0.419043,15.1546,0.480813,-0.270071,-0.393462,0
2024-12-11 14:41:07.160,0.816252,0.30658,15.1714,0.562667,-0.240139,-0.396516,1
2024-12-11 14:41:07.162,0.304188,0.304188,14.9991,0.648796,-0.207154,-0.392851,0
2024-12-11 14:41:07.165,-0.153141,0.313759,14.6806,0.726374,-0.176,-0.376358,0
2024-12-11 14:41:07.167,-0.514756,0.267996,14.3504,0.801508,-0.147291,-0.350092,0
2024-12-11 14:41:07.170,-0.780359,0.177069,14.0318,0.870534,-0.122246,-0.314663,0
2024-12-11 14:41:07.172,-0.950549,0.0717847,13.7157,0.935283,-0.0996445,-0.279234,0
2024-12-11 14:41:07.174,-0.952942,-0.00957129,13.3591,0.987816,-0.0819299,-0.242583,0
2024-12-11 14:41:07.176,-0.84018,-0.0574277,12.964,1.03363,-0.0752106,-0.202878,0
2024-12-11 14:41:07.181,-0.859622,-0.0717847,12.3535,1.1051,-0.0709346,-0.14668,0
2024-12-11 14:41:07.182,-0.859622,-0.0717847,12.3535,1.13503,-0.0721563,-0.113694,0
2024-12-11 14:41:07.183,-0.97687,-0.0454636,12.1167,1.13503,-0.0721563,-0.113694,0
2024-12-11 14:41:07.187,-1.0989,-0.0191426,11.8627,1.16435,-0.0727672,-0.0794865,0
2024-12-11 14:41:07.188,-1.17787,0.0311067,11.5612,1.18329,-0.0831516,-0.0483333,0
2024-12-11 14:41:07.190,-1.18026,0.0909273,11.2834,1.19917,-0.0972011,-0.0153475,0
2024-12-11 14:41:07.193,-1.14197,0.12682,10.9914,1.20589,-0.116748,0.0115297,0
2024-12-11 14:41:07.195,-1.11087,0.174676,10.6609,1.201,-0.145458,0.0359636,0
2024-12-11 14:41:07.197,-1.05583,0.234497,10.3448,1.18756,-0.176611,0.0542891,0
2024-12-11 14:41:07.201,-0.981655,0.297009,10.0696,1.1387,-0.243194,0.0860531,0
2024-12-11 14:41:07.203,-0.907478,0.352044,9.84228,1.10632,-0.273125,0.0976592,0
2024-12-11 14:41:07.206,-0.809073,0.431007,9.6697,1.10632,-0.273125,0.0976592,0
2024-12-11 14:41:07.207,-0.677468,0.502792,9.54766,1.10632,-0.273125,0.0976592,0
2024-12-11 14:41:07.209,-0.553041,0.569791,9.45913,1.03607,-0.321993,0.108044,0
2024-12-11 14:41:07.212,-0.438186,0.639183,9.38734,0.998812,-0.339097,0.108044,0
2024-12-11 14:41:07.214,-0.304188,0.682254,9.32752,0.959717,-0.351314,0.106211,0
2024-12-11 14:41:07.216,-0.179462,0.739681,9.2677,0.91818,-0.362309,0.0994917,0
2024-12-11 14:41:07.219,-0.0574277,0.789931,9.21715,0.877864,-0.370861,0.0878856,0
2024-12-11 14:41:07.221,0.0693919,0.816252,9.18126,0.832661,-0.374526,0.0750579,0
2024-12-11 14:41:07.224,0.181855,0.852443,9.15733,0.789291,-0.378802,0.0548999,0
2024-12-11 14:41:07.228,0.411865,0.888335,9.15733,0.700718,-0.378802,0.0109189,0
2024-12-11 14:41:07.228,0.411865,0.888335,9.15733,0.700718,-0.378802,0.0109189,0
2024-12-11 14:41:07.230,0.519542,0.895514,9.16451,0.65857,-0.376358,-0.0171801,0
2024-12-11 14:41:07.234,0.612862,0.871586,9.1693,0.6152,-0.369639,-0.0471116,0
2024-12-11 14:41:07.238,0.682254,0.830609,9.2028,0.529681,-0.34887,-0.108196,0
2024-12-11 14:41:07.238,0.722932,0.804287,9.2028,0.529681,-0.34887,-0.108196,0
2024-12-11 14:41:07.240,0.742074,0.76361,9.20519,0.494252,-0.329934,-0.142404,0
2024-12-11 14:41:07.242,0.742074,0.727717,9.21955,0.455158,-0.310387,-0.174779,0
2024-12-11 14:41:07.245,0.703789,0.689432,9.24587,0.417285,-0.287175,-0.203488,0
2024-12-11 14:41:07.247,0.648754,0.641576,9.24347,0.383688,-0.262741,-0.230366,0
2024-12-11 14:41:07.249,0.576969,0.596112,9.24108,0.353757,-0.232198,-0.256021,0
2024-12-11 14:41:07.252,0.483649,0.54347,9.25065,0.318328,-0.201045,-0.279234,0
2024-12-11 14:41:07.254,0.371187,0.478864,9.24108,0.318328,-0.201045,-0.279234,0
2024-12-11 14:41:07.256,0.244068,0.41665,9.2004,0.26213,-0.130798,-0.31283,0
2024-12-11 14:41:07.259,0.133998,0.364008,9.16212,0.232809,-0.0923143,-0.325658,0
2024-12-11 14:41:07.261,0.0311067,0.313759,9.11665,0.208375,-0.0532201,-0.33421,0
2024-12-11 14:41:07.263,-0.0646062,0.270389,9.05923,0.180887,-0.013515,-0.342762,0
2024-12-11 14:41:07.266,-0.191426,0.236889,9.01616,0.155842,0.030466,-0.347038,0
2024-12-11 14:41:07.269,-0.354437,0.210568,8.96591,0.114916,0.119039,-0.348259,0
2024-12-11 14:41:07.271,-0.517149,0.196211,8.90609,0.114916,0.119039,-0.348259,0
2024-12-11 14:41:07.274,-0.687039,0.18664,8.85344,0.0770431,0.203947,-0.337264,0
2024-12-11 14:41:07.276,-0.847657,0.165105,8.79123,0.0770431,0.203947,-0.337264,0
2024-12-11 14:41:07.280,-1.09651,0.119641,8.67608,0.0477224,0.287022,-0.315884,0
2024-12-11 14:41:07.281,-1.09651,0.119641,8.67608,0.037338,0.325505,-0.301224,0
2024-12-11 14:41:07.282,-1.22333,0.0981057,8.59472,0.037338,0.325505,-0.301224,0
2024-12-11 14:41:07.285,-1.34776,0.0717847,8.52533,0.0281753,0.360324,-0.28412,0
2024-12-11 14:41:07.288,-1.4653,0.0574277,8.45115,0.00740652,0.425073,-0.244415,0
2024-12-11 14:41:07.289,-1.58255,0.0598206,8.37458,0.00740652,0.425073,-0.244415,0
2024-12-11 14:41:07.292,-1.67827,0.0646062,8.30758,0.00251974,0.450118,-0.218149,0
2024-12-11 14:41:07.295,-1.75723,0.0622134,8.2358,-0.0096972,0.492267,-0.165616,0
2024-12-11 14:41:07.296,-1.83859,0.0550349,8.17358,-0.0096972,0.492267,-0.165616,0
2024-12-11 14:41:07.300,-1.89362,0.0622134,8.10629,-0.0151948,0.519144,-0.109418,0
2024-12-11 14:41:07.302,-1.93191,0.0885344,8.01775,-0.0151948,0.519144,-0.109418,0
2024-12-11 14:41:07.303,-1.97049,0.112463,7.94836,-0.0158057,0.528917,-0.0807082,0
2024-12-11 14:41:07.308,-2.00638,0.155533,7.86222,-0.0121406,0.542356,-0.0257319,0
2024-12-11 14:41:07.309,-2.00638,0.155533,7.86222,-0.0121406,0.542356,-0.0257319,0
2024-12-11 14:41:07.311,-1.9992,0.189033,7.82872,-0.0121406,0.542356,-0.0257319,0
2024-12-11 14:41:07.313,-1.98245,0.236889,7.79761,0.00129805,0.54541,0.0237467,0
2024-12-11 14:41:07.315,-1.96301,0.267996,7.73779,0.00496313,0.542967,0.0487914,0
2024-12-11 14:41:07.319,-1.93191,0.304188,7.67797,0.0159584,0.539913,0.0707819,0
2024-12-11 14:41:07.322,-1.8673,0.368794,7.56042,0.0379489,0.527085,0.109876,0
2024-12-11 14:41:07.322,-1.8673,0.368794,7.56042,0.0379489,0.527085,0.109876,0
2024-12-11 14:41:07.325,-1.82662,0.402293,7.49342,0.0489441,0.518533,0.127591,0
2024-12-11 14:41:07.328,-1.77398,0.440578,7.42642,0.0739889,0.491656,0.154468,0
2024-12-11 14:41:07.329,-1.73809,0.4669,7.35943,0.0739889,0.491656,0.154468,0
2024-12-11 14:41:07.332,-1.69023,0.507577,7.29721,0.0868167,0.478217,0.164852,0
2024-12-11 14:41:07.334,-1.64237,0.553041,7.24696,0.0978119,0.463557,0.174626,0
2024-12-11 14:41:07.336,-1.62562,0.600898,7.19193,0.111251,0.445231,0.18501,0
2024-12-11 14:41:07.339,-1.59212,0.65354,7.1345,0.125911,0.428128,0.196006,0
2024-12-11 14:41:07.341,-1.57059,0.699003,7.09143,0.138128,0.409191,0.204557,0
2024-12-11 14:41:07.344,-1.55145,0.739681,7.04357,0.150956,0.390866,0.212498,0
2024-12-11 14:41:07.346,-1.51077,0.780359,6.97388,0.164394,0.37254,0.219829,0
2024-12-11 14:41:07.349,-1.47966,0.82343,6.91645,0.188217,0.33589,0.233267,0
2024-12-11 14:41:07.351,-1.44616,0.873978,6.86142,0.188217,0.33589,0.233267,0
2024-12-11 14:41:07.355,-1.40279,0.948156,6.71067,0.206543,0.297406,0.247317,0
2024-12-11 14:41:07.356,-1.40279,0.948156,6.71067,0.206543,0.297406,0.247317,0
2024-12-11 14:41:07.361,-1.37169,1.04626,6.61974,0.223036,0.261366,0.261366,0
2024-12-11 14:41:07.361,-1.37169,1.04626,6.61974,0.223036,0.261366,0.261366,0
2024-12-11 14:41:07.365,-1.32622,1.13958,6.57907,0.230366,0.244873,0.267475,0
2024-12-11 14:41:07.366,-1.32622,1.13958,6.57907,0.237696,0.210666,0.282746,0
2024-12-11 14:41:07.367,-1.29512,1.17787,6.5671,0.246248,0.210666,0.282746,0
2024-12-11 14:41:07.369,-1.27597,1.22094,6.55992,0.251135,0.195395,0.288244,0
2024-12-11 14:41:07.372,-1.24487,1.27119,6.56232,0.259686,0.181345,0.293741,0
2024-12-11 14:41:07.374,-1.20897,1.31904,6.57189,0.265795,0.171572,0.302293,0
2024-12-11 14:41:07.376,-1.17547,1.36211,6.6006,0.270682,0.163631,0.309012,0
2024-12-11 14:41:07.380,-1.13958,1.40548,6.60778,0.28412,0.152635,0.317564,0
2024-12-11 14:41:07.382,-1.10848,1.45573,6.60299,0.287785,0.147749,0.324894,0
2024-12-11 14:41:07.383,-1.07258,1.50838,6.59342,0.287785,0.147749,0.324894,0
2024-12-11 14:41:07.388,-1.03908,1.58255,6.5671,0.299392,0.142251,0.331614,0
2024-12-11 14:41:07.388,-1.03908,1.58255,6.5671,0.299392,0.142251,0.331614,0
2024-12-11 14:41:07.391,-1.03669,1.6352,6.54317,0.302446,0.137364,0.3365,0
2024-12-11 14:41:07.393,-1.0343,1.68066,6.54317,0.306111,0.132477,0.341998,0
2024-12-11 14:41:07.396,-1.01994,1.73091,6.52642,0.309165,0.120261,0.347496,0
2024-12-11 14:41:07.399,-1.00319,1.78834,6.49532,0.307333,0.113541,0.352383,0
2024-12-11 14:41:07.400,-0.979263,1.82901,6.45464,0.307333,0.113541,0.352383,0
2024-12-11 14:41:07.402,-0.96012,1.85294,6.41605,0.3055,0.104379,0.35788,0
2024-12-11 14:41:07.406,-0.921835,1.90558,6.4017,0.295116,0.0848314,0.363989,0
2024-12-11 14:41:07.408,-0.878764,1.96062,6.39691,0.295116,0.0848314,0.363989,0
2024-12-11 14:41:07.409,-0.835394,1.99202,6.39213,0.288396,0.0756687,0.364599,0
2024-12-11 14:41:07.412,-0.777966,2.03031,6.41366,0.282288,0.0628409,0.362156,0
2024-12-11 14:41:07.414,-0.732503,2.0686,6.45195,0.273125,0.0512348,0.359713,0
2024-12-11 14:41:07.416,-0.696611,2.12363,6.49532,0.263962,0.0396287,0.35788,0
2024-12-11 14:41:07.420,-0.663111,2.19063,6.53121,0.249913,0.0237467,0.347496,0
2024-12-11 14:41:07.421,-0.629611,2.25045,6.57428,0.249913,0.0237467,0.347496,0
2024-12-11 14:41:07.424,-0.591326,2.31506,6.61735,0.245026,0.0158057,0.341387,0
2024-12-11 14:41:07.426,-0.565005,2.36052,6.65085,0.24075,0.010308,0.3365,0
2024-12-11 14:41:07.431,-0.488435,2.44427,6.73699,0.224868,0.00114534,0.318175,0
2024-12-11 14:41:07.431,-0.488435,2.44427,6.73699,0.224868,0.00114534,0.318175,0
2024-12-11 14:41:07.433,-0.462114,2.47298,6.79442,0.224868,0.00114534,0.318175,0
2024-12-11 14:41:07.435,-0.426222,2.50648,6.85903,0.217538,-0.00984991,0.299239,0
2024-12-11 14:41:07.438,-0.385544,2.56421,6.92124,0.213262,-0.0141258,0.289465,0
2024-12-11 14:41:07.440,-0.352044,2.61207,6.97867,0.207154,-0.0202343,0.280913,0
2024-12-11 14:41:07.445,-0.318545,2.69103,7.10339,0.200434,-0.0220669,0.259534,0
2024-12-11 14:41:07.445,-0.318545,2.69103,7.10339,0.200434,-0.0220669,0.259534,0
2024-12-11 14:41:07.447,-0.294616,2.72692,7.19432,0.196769,-0.0208452,0.248538,0
2024-12-11 14:41:07.449,-0.265603,2.75803,7.30678,0.194937,-0.0184018,0.237543,0
2024-12-11 14:41:07.452,-0.256032,2.80828,7.41207,0.193715,-0.0141258,0.226548,0
2024-12-11 14:41:07.454,-0.236889,2.86331,7.49582,0.196769,-0.00374144,0.212498,0
2024-12-11 14:41:07.456,-0.217747,2.91356,7.56042,0.199213,0.0096972,0.202114,0
2024-12-11 14:41:07.460,-0.251246,2.96142,7.62054,0.205932,0.042683,0.181956,0
2024-12-11 14:41:07.462,-0.289831,2.99013,7.65643,0.209597,0.0579541,0.174626,0
2024-12-11 14:41:07.465,-0.30658,3.02842,7.68276,0.209597,0.0579541,0.174626,0
2024-12-11 14:41:07.466,-0.330509,3.05952,7.71865,0.21143,0.074447,0.170961,0
2024-12-11 14:41:07.469,-0.349651,3.08345,7.74497,0.21204,0.0891073,0.164242,0
2024-12-11 14:41:07.473,-0.409472,3.16032,7.75693,0.21204,0.0891073,0.164242,0
2024-12-11 14:41:07.475,-0.459721,3.19143,7.75933,0.207154,0.136753,0.156301,0
2024-12-11 14:41:07.478,-0.502792,3.23928,7.74497,0.202878,0.153246,0.155079,0
2024-12-11 14:41:07.479,-0.502792,3.23928,7.74497,0.202878,0.153246,0.155079,0
2024-12-11 14:41:07.480,-0.524327,3.30628,7.73779,0.19738,0.169739,0.159355,0
2024-12-11 14:41:07.482,-0.54347,3.34935,7.75454,0.192493,0.186843,0.158744,0
2024-12-11 14:41:07.486,-0.56022,3.40439,7.78804,0.179665,0.219218,0.158133,0
2024-12-11 14:41:07.487,-0.569791,3.47857,7.81436,0.179665,0.219218,0.158133,0
2024-12-11 14:41:07.489,-0.591326,3.54796,7.84547,0.170503,0.235711,0.158133,0
2024-12-11 14:41:07.493,-0.627219,3.61735,7.89332,0.15401,0.266864,0.157522,0
2024-12-11 14:41:07.494,-0.663111,3.68226,7.92922,0.15401,0.266864,0.157522,0
2024-12-11 14:41:07.496,-0.696611,3.73729,7.97947,0.143625,0.284578,0.154468,0
2024-12-11 14:41:07.500,-0.708575,3.79232,8.03929,0.135074,0.297406,0.152635,0
2024-12-11 14:41:07.501,-0.694218,3.84975,8.09432,0.127743,0.310234,0.147749,0
2024-12-11 14:41:07.504,-0.54347,3.81625,8.13769,0.123468,0.320008,0.141029,0
2024-12-11 14:41:07.506,-0.493221,3.83061,8.19273,0.116748,0.332835,0.127591,0
2024-12-11 14:41:07.509,-0.718146,3.98854,8.24058,0.100866,0.351161,0.117817,0
2024-12-11 14:41:07.512,-0.919442,4.14646,8.2693,0.0929251,0.352383,0.116595,0
2024-12-11 14:41:07.513,-0.998405,4.27837,8.35065,0.0929251,0.352383,0.116595,0
2024-12-11 14:41:07.515,-1.03669,4.39562,8.43919,0.0849841,0.346885,0.114763,0
2024-12-11 14:41:07.518,-1.06301,4.46261,8.48944,0.0782648,0.339555,0.117817,0
2024-12-11 14:41:07.520,-1.01276,4.47936,8.5349,0.0715455,0.328559,0.116595,0
2024-12-11 14:41:07.525,-0.76361,4.38365,8.63779,0.0556635,0.302904,0.103157,0
2024-12-11 14:41:07.525,-0.76361,4.38365,8.63779,0.0556635,0.302904,0.103157,0
2024-12-11 14:41:07.530,-0.576969,4.34058,8.7362,0.0385597,0.276027,0.0756687,0
2024-12-11 14:41:07.530,-0.576969,4.34058,8.7362,0.0385597,0.276027,0.0756687,0
2024-12-11 14:41:07.533,-0.502792,4.34776,8.79841,0.0324513,0.264421,0.0579541,0
2024-12-11 14:41:07.534,-0.442971,4.38126,8.86062,0.021456,0.246706,0.038407,0
2024-12-11 14:41:07.537,-0.385544,4.42672,8.95394,0.0122933,0.222883,0.0200816,0
2024-12-11 14:41:07.539,-0.337687,4.46501,9.0999,0.00496313,0.197227,0.000534491,0
2024-12-11 14:41:07.545,-0.292223,4.48654,9.25305,-0.0096972,0.141029,-0.0434465,0
2024-12-11 14:41:07.545,-0.246461,4.47697,9.42563,-0.0096972,0.141029,-0.0434465,0
2024-12-11 14:41:07.546,-0.20339,4.46261,9.62423,-0.0151948,0.110487,-0.0672696,0
2024-12-11 14:41:07.549,-0.167498,4.44108,9.82792,-0.0151948,0.0811663,-0.0917034,0
2024-12-11 14:41:07.553,-0.191426,4.39801,10.2227,-0.010308,0.0231358,-0.141182,0
2024-12-11 14:41:07.553,-0.191426,4.39801,10.2227,-0.010308,0.0231358,-0.141182,0
2024-12-11 14:41:07.555,-0.229711,4.37169,10.4312,-0.00419957,-0.00435229,-0.162562,0
2024-12-11 14:41:07.558,-0.297009,4.33819,10.6466,0.00496313,-0.0306187,-0.183331,0
2024-12-11 14:41:07.560,-0.385544,4.3023,10.8811,0.0159584,-0.0587177,-0.198602,0
2024-12-11 14:41:07.562,-0.481256,4.27119,11.123,0.0312296,-0.0849841,-0.212651,0
2024-12-11 14:41:07.565,-0.574577,4.24726,11.3264,0.0489441,-0.115526,-0.221814,0
2024-12-11 14:41:07.567,-0.655932,4.22333,11.5035,0.0672696,-0.143625,-0.226701,0
2024-12-11 14:41:07.570,-0.744467,4.20389,11.6665,0.0672696,-0.143625,-0.226701,0
2024-12-11 14:41:07.572,-0.816252,4.15603,11.8125,0.109418,-0.191272,-0.227312,0
2024-12-11 14:41:07.575,-0.857229,4.10339,11.9225,0.155842,-0.230977,-0.216927,0
2024-12-11 14:41:07.578,-0.9003,4.06511,12.0111,0.174168,-0.249913,-0.210208,0
2024-12-11 14:41:07.579,-0.938585,4.02682,12.1143,0.174168,-0.249913,-0.210208,0
2024-12-11 14:41:07.582,-0.972084,4.00289,12.1717,0.195547,-0.266406,-0.200434,0
2024-12-11 14:41:07.586,-1.01994,3.9335,12.253,0.225479,-0.297559,-0.172946,0
2024-12-11 14:41:07.586,-1.01994,3.9335,12.253,0.225479,-0.297559,-0.172946,0
2024-12-11 14:41:07.591,-1.02951,3.86411,12.3512,0.247469,-0.328101,-0.140571,0
2024-12-11 14:41:07.591,-1.02951,3.86411,12.3512,0.247469,-0.328101,-0.140571,0
2024-12-11 14:41:07.593,-1.00798,3.83061,12.387,0.254189,-0.347038,-0.125911,0
2024-12-11 14:41:07.595,-0.964906,3.80907,12.4397,0.259686,-0.362309,-0.106975,0
2024-12-11 14:41:07.598,-0.905085,3.78515,12.5234,0.259686,-0.362309,-0.106975,0
2024-12-11 14:41:07.601,-0.84018,3.73729,12.6096,0.26946,-0.386743,-0.0715455,0
2024-12-11 14:41:07.605,-0.655932,3.68465,12.8252,0.27679,-0.402625,-0.037338,0
2024-12-11 14:41:07.606,-0.655932,3.68465,12.8252,0.279234,-0.411177,-0.0190126,0
2024-12-11 14:41:07.607,-0.538684,3.65115,12.9377,0.279234,-0.411177,-0.0190126,0
2024-12-11 14:41:07.610,-0.41665,3.62214,13.0645,0.288396,-0.415452,-0.00313059,0
2024-12-11 14:41:07.615,-0.143569,3.56231,13.3232,0.303667,-0.421561,0.0292443,0
2024-12-11 14:41:07.615,-0.143569,3.56231,13.3232,0.303667,-0.421561,0.0292443,0
2024-12-11 14:41:07.617,-0.00478565,3.55274,13.4572,0.317106,-0.424615,0.0439046,0
2024-12-11 14:41:07.620,0.136391,3.55514,13.5888,0.329934,-0.425837,0.0573433,0
2024-12-11 14:41:07.621,0.275175,3.5336,13.7037,0.343373,-0.427059,0.0695602,0
2024-12-11 14:41:07.624,0.409472,3.52164,13.7877,0.360476,-0.427059,0.0793338,0
2024-12-11 14:41:07.627,0.517149,3.53599,13.8667,0.395295,-0.424004,0.0982701,0
2024-12-11 14:41:07.629,0.591326,3.54796,13.96,0.395295,-0.424004,0.0982701,0
2024-12-11 14:41:07.631,0.639183,3.59103,14.0533,0.413009,-0.419118,0.107433,0
2024-12-11 14:41:07.635,0.715753,3.78993,14.2017,0.451492,-0.40629,0.122093,0
2024-12-11 14:41:07.635,0.715753,3.78993,14.2017,0.451492,-0.40629,0.122093,0
2024-12-11 14:41:07.639,0.751645,3.9,14.2639,0.49303,-0.380023,0.129423,0
2024-12-11 14:41:07.640,0.789931,4.05075,14.3145,0.49303,-0.380023,0.129423,0
2024-12-11 14:41:07.642,0.825823,4.22094,14.3527,0.516853,-0.36353,0.128202,0
2024-12-11 14:41:07.645,0.857229,4.36451,14.3527,0.541898,-0.349481,0.12698,0
2024-12-11 14:41:07.648,0.888335,4.47458,14.295,0.561445,-0.335431,0.123315,0
2024-12-11 14:41:07.650,0.921835,4.56551,14.2113,0.576105,-0.321382,0.115985,0
2024-12-11 14:41:07.652,0.96012,4.6325,14.0845,0.587711,-0.310387,0.104989,0
2024-12-11 14:41:07.657,1.02233,4.65643,13.7013,0.590155,-0.301224,0.0842206,0
2024-12-11 14:41:07.657,1.02233,4.65643,13.7013,0.590155,-0.301224,0.0842206,0
2024-12-11 14:41:07.659,1.08455,4.61336,13.5003,0.57977,-0.3055,0.0720036,0
2024-12-11 14:41:07.661,1.17069,4.53918,13.3041,0.561445,-0.318328,0.0622301,0
2024-12-11 14:41:07.664,1.27358,4.48415,13.1387,0.532735,-0.336042,0.0494023,0
2024-12-11 14:41:07.666,1.41506,4.42433,12.9951,0.502193,-0.360476,0.0341311,0
2024-12-11 14:41:07.668,1.6017,4.33819,12.8898,0.467375,-0.388575,0.0200816,0
2024-12-11 14:41:07.672,1.8003,4.22333,12.8468,0.383078,-0.441108,-0.0171801,0
2024-12-11 14:41:07.673,1.99202,4.09382,12.8635,0.383078,-0.441108,-0.0171801,0
2024-12-11 14:41:07.676,2.18584,3.97657,12.9353,0.337264,-0.467375,-0.0361163,0
2024-12-11 14:41:07.679,2.37488,3.87368,13.0382,0.255411,-0.488143,-0.0868167,0
2024-12-11 14:41:07.680,2.5331,3.75883,13.1578,0.255411,-0.488143,-0.0868167,0
2024-12-11 14:41:07.684,2.65753,3.6341,13.2873,0.191272,-0.467985,-0.13935,0
2024-12-11 14:41:07.685,2.74128,3.51924,13.4596,0.191272,-0.467985,-0.13935,0
2024-12-11 14:41:07.688,2.78913,3.39721,13.6487,0.15401,-0.404457,-0.19005,0
2024-12-11 14:41:07.691,2.8011,3.27278,13.8093,0.15401,-0.404457,-0.19005,0
2024-12-11 14:41:07.692,2.79871,3.14596,13.9289,0.14668,-0.352535,-0.213873,0
2024-12-11 14:41:07.695,2.7341,3.02124,13.9983,0.148512,-0.219981,-0.249913,0
2024-12-11 14:41:07.697,2.61446,2.89442,14.0127,0.148512,-0.219981,-0.249913,0
2024-12-11 14:41:07.700,2.45384,2.76281,13.9792,0.165005,-0.0691021,-0.267017,1
2024-12-11 14:41:07.701,2.24327,2.69342,13.917,0.165005,-0.0691021,-0.267017,0
2024-12-11 14:41:07.705,2.04467,2.63121,13.7949,0.18272,0.0750579,-0.261519,0
2024-12-11 14:41:07.706,1.88644,2.51605,13.5888,0.18272,0.0750579,-0.261519,0
2024-12-11 14:41:07.709,1.78355,2.36291,13.3496,0.186996,0.139808,-0.251745,0
2024-12-11 14:41:07.712,1.70698,2.19302,13.1076,0.19005,0.25648,-0.234642,0
2024-12-11 14:41:07.713,1.61605,2.04467,12.8635,0.19005,0.25648,-0.234642,0
2024-12-11 14:41:07.718,1.3669,1.84816,12.399,0.181498,0.353604,-0.215095,0
2024-12-11 14:41:07.718,1.3669,1.84816,12.399,0.181498,0.353604,-0.215095,0
2024-12-11 14:41:07.721,1.21854,1.79312,12.2004,0.176611,0.390255,-0.199823,0
2024-12-11 14:41:07.724,1.07019,1.75484,12.0159,0.16134,0.437901,-0.169892,0
2024-12-11 14:41:07.725,0.948156,1.72373,11.8531,0.16134,0.437901,-0.169892,0
2024-12-11 14:41:07.727,0.852443,1.69502,11.7,0.150956,0.448286,-0.151566,0
2024-12-11 14:41:07.730,0.775574,1.65194,11.578,0.144236,0.447675,-0.133852,0
2024-12-11 14:41:07.732,0.706182,1.60409,11.4724,0.138128,0.440345,-0.114916,0
2024-12-11 14:41:07.734,0.655932,1.54905,11.3815,0.127743,0.426906,-0.0972011,0
2024-12-11 14:41:07.738,0.610469,1.49402,11.3169,0.118581,0.404915,-0.081319,0
2024-12-11 14:41:07.739,0.584148,1.44138,11.2714,0.118581,0.404915,-0.081319,0
2024-12-11 14:41:07.741,0.572184,1.41506,11.257,0.106975,0.347496,-0.0483333,0
2024-12-11 14:41:07.745,0.550648,1.39561,11.2762,0.104531,0.277859,-0.0165692,0
2024-12-11 14:41:07.746,0.541077,1.37408,11.3097,0.104531,0.277859,-0.0165692,0
2024-12-11 14:41:07.749,0.521934,1.37169,11.3599,0.109418,0.241208,-0.000687203,0
2024-12-11 14:41:07.752,0.505185,1.38126,11.4126,0.127743,0.169739,0.0322986,0
2024-12-11 14:41:07.754,0.486042,1.38844,11.4413,0.143625,0.135532,0.0500131,0
2024-12-11 14:41:07.756,0.478864,1.40548,11.4796,0.143625,0.135532,0.0500131,0
2024-12-11 14:41:07.758,0.495613,1.41266,11.5062,0.163173,0.102546,0.0671168,0
2024-12-11 14:41:07.760,0.517149,1.41266,11.4939,0.185774,0.0701711,0.0842206,0
2024-12-11 14:41:07.763,0.54347,1.42702,11.4724,0.185774,0.0701711,0.0842206,0
2024-12-11 14:41:07.766,0.572184,1.44616,11.4437,0.232198,0.00358873,0.115374,0
2024-12-11 14:41:07.767,0.615255,1.47009,11.3982,0.232198,0.00358873,0.115374,0
2024-12-11 14:41:07.770,0.663111,1.4988,11.3264,0.280455,-0.0593285,0.144694,0
2024-12-11 14:41:07.774,0.770788,1.56102,11.1685,0.32688,-0.120413,0.171572,0
2024-12-11 14:41:07.775,0.770788,1.56102,11.1685,0.32688,-0.120413,0.171572,0
2024-12-11 14:41:07.777,0.837787,1.59452,11.0513,0.347648,-0.147901,0.182567,0
2024-12-11 14:41:07.780,0.924228,1.64237,10.9241,0.386132,-0.197991,0.19906,0
2024-12-11 14:41:07.781,1.01276,1.69741,10.7925,0.386132,-0.197991,0.19906,0
2024-12-11 14:41:07.784,1.08455,1.75005,10.6466,0.401403,-0.221814,0.20639,0
2024-12-11 14:41:07.788,1.17069,1.82901,10.34,0.425837,-0.255411,0.210055,0
2024-12-11 14:41:07.788,1.27597,1.82901,10.34,0.425837,-0.255411,0.210055,0
2024-12-11 14:41:07.791,1.38365,1.8673,10.1749,0.436832,-0.273125,0.210666,0
2024-12-11 14:41:07.794,1.4677,1.91037,10.0002,0.442941,-0.299392,0.200892,0
2024-12-11 14:41:07.796,1.53948,1.94865,9.85424,0.442941,-0.299392,0.200892,0
2024-12-11 14:41:07.798,1.60648,1.98245,9.71037,0.442941,-0.307943,0.191119,0
2024-12-11 14:41:07.800,1.65194,2.00877,9.5357,0.441108,-0.319549,0.180124,0
2024-12-11 14:41:07.803,1.69023,2.05185,9.37777,0.436832,-0.326269,0.169128,0
2024-12-11 14:41:07.805,1.70937,2.09492,9.2363,0.42828,-0.335431,0.152635,0
2024-12-11 14:41:07.807,1.72373,2.11167,9.07598,0.418507,-0.342151,0.139808,0
2024-12-11 14:41:07.811,1.72612,2.12363,8.92044,0.405068,-0.350092,0.123926,0
2024-12-11 14:41:07.812,1.70698,2.15234,8.77448,0.391019,-0.353146,0.108654,0
2024-12-11 14:41:07.814,1.69023,2.18106,8.63061,0.375747,-0.354979,0.0939941,0
2024-12-11 14:41:07.817,1.67587,2.20499,8.50619,0.358033,-0.353146,0.0805555,0
2024-12-11 14:41:07.819,1.64477,2.21934,8.39372,0.337264,-0.348259,0.0658951,0
2024-12-11 14:41:07.821,1.58734,2.22174,8.28126,0.317106,-0.342762,0.0524565,0
2024-12-11 14:41:07.824,1.5323,2.23609,8.1688,0.298781,-0.330545,0.0414613,0
2024-12-11 14:41:07.827,1.47966,2.25284,8.07757,0.276179,-0.317106,0.0335202,0
2024-12-11 14:41:07.829,1.41745,2.25763,8.02254,0.258465,-0.300002,0.0237467,0
2024-12-11 14:41:07.831,1.35494,2.26959,7.95554,0.238307,-0.282288,0.0121406,0
2024-12-11 14:41:07.833,1.30708,2.28395,7.87897,0.238307,-0.282288,0.0121406,0
2024-12-11 14:41:07.836,1.24965,2.30309,7.81197,0.198602,-0.230977,-0.00251974,0
2024-12-11 14:41:07.840,1.10848,2.34856,7.67318,0.16867,-0.169281,-0.0177909,0
2024-12-11 14:41:07.841,1.17787,2.34856,7.67318,0.16867,-0.169281,-0.0177909,0
2024-12-11 14:41:07.845,0.948156,2.38206,7.54128,0.145458,-0.0965902,-0.0226777,0
2024-12-11 14:41:07.846,0.948156,2.38206,7.54128,0.132019,-0.0593285,-0.0245102,0
2024-12-11 14:41:07.848,0.9003,2.40838,7.45992,0.132019,-0.0593285,-0.0245102,0
2024-12-11 14:41:07.850,0.85005,2.42991,7.3666,0.122857,-0.0184018,-0.0263428,0
2024-12-11 14:41:07.854,0.694218,2.44427,7.15125,0.102699,0.0561216,-0.0245102,0
2024-12-11 14:41:07.855,0.694218,2.44427,7.15125,0.102699,0.0561216,-0.0245102,0
2024-12-11 14:41:07.857,0.629611,2.43948,7.03639,0.0904818,0.0897182,-0.0238994,0
2024-12-11 14:41:07.860,0.581755,2.44666,6.93799,0.0703238,0.154468,-0.013515,0
2024-12-11 14:41:07.861,0.54347,2.43948,6.8351,0.0703238,0.154468,-0.013515,0
2024-12-11 14:41:07.865,0.488435,2.4323,6.72742,0.0483333,0.211888,-0.00557398,0
2024-12-11 14:41:07.867,0.4334,2.44188,6.64128,0.0385597,0.237543,-0.00251974,0
2024-12-11 14:41:07.869,0.395115,2.45863,6.5671,0.0385597,0.237543,-0.00251974,0
2024-12-11 14:41:07.871,0.371187,2.47537,6.50967,0.0281753,0.261366,0.00175619,0
2024-12-11 14:41:07.873,0.359223,2.47777,6.46421,0.021456,0.281524,0.00847551,0
2024-12-11 14:41:07.877,0.361615,2.48734,6.40409,0.00740652,0.312067,0.0139731,0
2024-12-11 14:41:07.878,0.354437,2.5017,6.34906,0.00740652,0.312067,0.0139731,0
2024-12-11 14:41:07.880,0.337687,2.50887,6.29881,0.00496313,0.323062,0.0182491,0
2024-12-11 14:41:07.884,0.328116,2.52084,6.25334,-0.00358873,0.341998,0.0213033,0
2024-12-11 14:41:07.886,0.311366,2.54267,6.21745,-0.00603212,0.348717,0.0219141,0
2024-12-11 14:41:07.887,0.287438,2.56899,6.2007,-0.00603212,0.348717,0.0219141,0
2024-12-11 14:41:07.890,0.275175,2.58814,6.18874,-0.00664296,0.349939,0.022525,0
2024-12-11 14:41:07.892,0.285045,2.61924,6.1672,-0.00542127,0.354215,0.0213033,0
2024-12-11 14:41:07.895,0.294616,2.64556,6.14327,-0.00236703,0.356048,0.0188599,0
2024-12-11 14:41:07.897,0.297009,2.64796,6.10977,0.00374144,0.354215,0.0176382,0
2024-12-11 14:41:07.899,0.313759,2.65753,6.08345,0.00740652,0.353604,0.014584,0
2024-12-11 14:41:07.901,0.325723,2.66949,6.05474,0.0141258,0.348107,0.010308,0
2024-12-11 14:41:07.904,0.337687,2.68385,6.00688,0.0196235,0.34322,0.00542127,0
2024-12-11 14:41:07.906,0.359223,2.69342,5.95424,0.0245102,0.334668,-0.0019089,0
2024-12-11 14:41:07.910,0.364008,2.69342,5.89921,0.0355055,0.320618,-0.0165692,0
2024-12-11 14:41:07.912,0.373579,2.67667,5.84866,0.0355055,0.320618,-0.0165692,0
2024-12-11 14:41:07.913,0.380758,2.65035,5.80319,0.0410031,0.312677,-0.0251211,0
2024-12-11 14:41:07.916,0.368794,2.62881,5.75294,0.0477224,0.302293,-0.0342838,0
2024-12-11 14:41:07.919,0.359223,2.60967,5.69791,0.0562743,0.2858,-0.0550526,0
2024-12-11 14:41:07.920,0.342473,2.61207,5.65484,0.0562743,0.2858,-0.0550526,0
2024-12-11 14:41:07.924,0.304188,2.60728,5.62612,0.0599394,0.277859,-0.0623828,0
2024-12-11 14:41:07.925,0.253639,2.59053,5.59262,0.0648262,0.272362,-0.073378,0
2024-12-11 14:41:07.927,0.215354,2.56421,5.55673,0.0721563,0.265642,-0.0819299,0
2024-12-11 14:41:07.931,0.174676,2.54507,5.53041,0.0764323,0.25709,-0.0868167,0
2024-12-11 14:41:07.932,0.12682,2.54028,5.48734,0.0831516,0.248538,-0.0929251,0
2024-12-11 14:41:07.935,0.0646062,2.52084,5.43231,0.0892601,0.24243,-0.0984228,0
2024-12-11 14:41:07.939,-0.0334995,2.51366,5.29322,0.0947577,0.231435,-0.102088,0
2024-12-11 14:41:07.940,-0.0334995,2.51366,5.29322,0.0947577,0.231435,-0.102088,0
2024-12-11 14:41:07.941,-0.0550349,2.49452,5.23101,0.0941468,0.225937,-0.104531,0
2024-12-11 14:41:07.945,-0.0981057,2.48016,5.15205,0.0904818,0.22105,-0.10331,0
2024-12-11 14:41:07.946,-0.155533,2.45623,5.07308,0.0904818,0.22105,-0.10331,0
2024-12-11 14:41:07.950,-0.184247,2.44905,5.03001,0.0782648,0.217996,-0.102088,0
2024-12-11 14:41:07.952,-0.20339,2.44427,4.98694,0.0782648,0.217996,-0.102088,0
2024-12-11 14:41:07.953,-0.229711,2.4323,4.95344,0.0703238,0.217385,-0.0996445,0
2024-12-11 14:41:07.957,-0.239282,2.42513,4.94866,0.0556635,0.217996,-0.0947577,0
2024-12-11 14:41:07.958,-0.270389,2.4323,4.96062,0.0556635,0.217996,-0.0947577,0
2024-12-11 14:41:07.961,-0.308973,2.4323,4.99173,0.0458899,0.22044,-0.0886492,0
2024-12-11 14:41:07.964,-0.332901,2.41795,5.03958,0.0300079,0.217996,-0.0807082,0
2024-12-11 14:41:07.965,-0.359223,2.40838,5.11376,0.0300079,0.217996,-0.0807082,0
2024-12-11 14:41:07.968,-0.409472,2.3988,5.19272,0.0238994,0.216774,-0.0782648,0
2024-12-11 14:41:07.970,-0.462114,2.39402,5.25494,0.0184018,0.214942,-0.073378,0
2024-12-11 14:41:07.974,-0.555434,2.41795,5.42513,0.0122933,0.211888,-0.0605502,0
2024-12-11 14:41:07.975,-0.555434,2.41795,5.42513,0.0122933,0.211888,-0.0605502,0
2024-12-11 14:41:07.978,-0.608076,2.41795,5.51127,0.0110716,0.209444,-0.0544418,0
2024-12-11 14:41:07.979,-0.646361,2.42273,5.5998,0.0110716,0.209444,-0.0544418,0
2024-12-11 14:41:07.982,-0.691825,2.4347,5.68834,0.0165692,0.205168,-0.0330621,0
2024-12-11 14:41:07.984,-0.737288,2.43709,5.77448,0.0196235,0.203336,-0.0208452,0
2024-12-11 14:41:07.987,-0.785145,2.44905,5.85105,0.0330621,0.193562,0.00847551,0
2024-12-11 14:41:07.990,-0.828216,2.47059,5.92074,0.0422248,0.189286,0.0213033,0
2024-12-11 14:41:07.992,-0.869193,2.48495,5.99492,0.0513875,0.181345,0.0371853,0
2024-12-11 14:41:07.994,-0.885943,2.5017,6.04995,0.0623828,0.172793,0.0530674,0
2024-12-11 14:41:07.996,-0.9003,2.54028,6.08345,0.0623828,0.172793,0.0530674,0
2024-12-11 14:41:07.998,-0.921835,2.57617,6.12892,0.0703238,0.164242,0.066506,0
2024-12-11 14:41:08.001,-0.926621,2.61685,6.16002,0.0788757,0.150192,0.082388,0
2024-12-11 14:41:08.003,-0.926621,2.66471,6.17677,0.0880384,0.132477,0.0952158,0
2024-12-11 14:41:08.005,-0.931406,2.72453,6.18874,0.0929251,0.116595,0.109265,0
2024-12-11 14:41:08.008,-0.926621,2.77717,6.19113,0.0953685,0.0970484,0.123315,0
2024-12-11 14:41:08.010,-0.902692,2.81306,6.20549,0.0990336,0.0756687,0.134921,0
2024-12-11 14:41:08.013,-0.869193,2.8681,6.21984,0.0965902,0.0390179,0.154468,0
2024-12-11 14:41:08.015,-0.835394,2.93031,6.24138,0.0965902,0.0390179,0.154468,0
2024-12-11 14:41:08.017,-0.82343,2.98774,6.27727,0.0941468,0.0231358,0.163631,0
2024-12-11 14:41:08.019,-0.818644,3.05234,6.30598,0.0910926,0.00786466,0.17035,0
2024-12-11 14:41:08.022,-0.801895,3.12204,6.33948,0.0837624,-0.00618483,0.177069,0
2024-12-11 14:41:08.025,-0.785145,3.18664,6.3993,0.0678804,-0.029397,0.190508,0
2024-12-11 14:41:08.026,-0.751645,3.23689,6.45942,0.0678804,-0.029397,0.190508,0
2024-12-11 14:41:08.029,-0.715753,3.27757,6.51925,0.0562743,-0.0397814,0.195395,0
2024-12-11 14:41:08.033,-0.663111,3.35653,6.62931,0.0251211,-0.0605502,0.199671,0
2024-12-11 14:41:08.034,-0.663111,3.35653,6.62931,0.0251211,-0.0605502,0.199671,0
2024-12-11 14:41:08.036,-0.655932,3.37328,6.68914,0.00984991,-0.0678804,0.198449,0
2024-12-11 14:41:08.038,-0.646361,3.40439,6.76331,-0.010308,-0.0800973,0.197227,0
2024-12-11 14:41:08.040,-0.624826,3.42592,6.87099,-0.0316877,-0.0904818,0.197838,0
2024-12-11 14:41:08.043,-0.615255,3.4331,7.00977,-0.0518457,-0.102088,0.197227,0
2024-12-11 14:41:08.047,-0.586541,3.41396,7.30439,-0.0891073,-0.124078,0.193562,0
2024-12-11 14:41:08.047,-0.586541,3.41396,7.30439,-0.0891073,-0.124078,0.193562,0
2024-12-11 14:41:08.050,-0.591326,3.3996,7.44317,-0.110487,-0.133852,0.194173,0
2024-12-11 14:41:08.052,-0.584148,3.39482,7.59183,-0.127591,-0.146069,0.195395,0
2024-12-11 14:41:08.055,-0.574577,3.3661,7.73061,-0.147138,-0.158286,0.197227,0
2024-12-11 14:41:08.057,-0.562612,3.33978,7.87179,-0.164852,-0.168059,0.201503,0
2024-12-11 14:41:08.059,-0.557827,3.31346,8.02732,-0.183789,-0.181498,0.204557,0
2024-12-11 14:41:08.062,-0.553041,3.27757,8.18315,-0.203947,-0.193715,0.210666,0
2024-12-11 14:41:08.064,-0.541077,3.24885,8.34347,-0.219829,-0.20471,0.217385,0
2024-12-11 14:41:08.066,-0.519542,3.24168,8.53251,-0.236932,-0.218149,0.225937,0
2024-12-11 14:41:08.069,-0.486042,3.25125,8.72662,-0.247928,-0.224257,0.232656,0
2024-12-11 14:41:08.071,-0.481256,3.2656,8.92762,-0.261366,-0.232198,0.239376,0
2024-12-11 14:41:08.073,-0.478864,3.30389,9.14297,-0.269918,-0.238918,0.247317,0
2024-12-11 14:41:08.077,-0.447757,3.32303,9.3682,-0.277248,-0.240139,0.257701,0
2024-12-11 14:41:08.079,-0.395115,3.335,9.57638,-0.277248,-0.230366,0.272972,0
2024-12-11 14:41:08.081,-0.35683,3.36132,9.77498,-0.277248,-0.230366,0.272972,0
2024-12-11 14:41:08.085,-0.297009,3.39482,10.1462,-0.270529,-0.210819,0.290687,0
2024-12-11 14:41:08.086,-0.297009,3.39482,10.1462,-0.270529,-0.210819,0.290687,0
2024-12-11 14:41:08.087,-0.241675,3.402,10.3208,-0.266253,-0.19738,0.296795,0
2024-12-11 14:41:08.091,-0.16989,3.41635,10.5006,-0.255869,-0.157064,0.307791,0
2024-12-11 14:41:08.093,-0.112463,3.43789,10.6729,-0.255869,-0.157064,0.307791,0
2024-12-11 14:41:08.095,-0.0717847,3.46182,10.8356,-0.247928,-0.129576,0.312677,0
2024-12-11 14:41:08.099,0.0311067,3.48574,11.1733,-0.233267,-0.0715455,0.318786,0
2024-12-11 14:41:08.099,0.0311067,3.48574,11.1733,-0.233267,-0.0715455,0.318786,0
2024-12-11 14:41:08.103,0.0646062,3.50728,11.3671,-0.216164,-0.0110716,0.323062,0
2024-12-11 14:41:08.104,0.100499,3.51685,11.5684,-0.216164,-0.0110716,0.323062,0
2024-12-11 14:41:08.106,0.141177,3.52403,11.7646,-0.202114,0.0231358,0.325505,0
2024-12-11 14:41:08.110,0.150748,3.52403,11.9536,-0.170961,0.0982701,0.32917,0
2024-12-11 14:41:08.111,0.145962,3.50489,12.1406,-0.170961,0.0982701,0.32917,0
2024-12-11 14:41:08.113,0.155533,3.50249,12.3009,-0.153246,0.137975,0.332835,0
2024-12-11 14:41:08.117,0.145962,3.51207,12.4421,-0.11293,0.210666,0.345663,0
2024-12-11 14:41:08.118,0.114855,3.51207,12.5665,-0.11293,0.210666,0.345663,0
2024-12-11 14:41:08.123,0.0454636,3.47378,12.7965,-0.0677277,0.277859,0.362156,0
2024-12-11 14:41:08.124,0.0454636,3.47378,12.7965,-0.0432938,0.30718,0.37193,0
2024-12-11 14:41:08.125,-0.00239282,3.45703,12.8946,-0.0432938,0.30718,0.37193,0
2024-12-11 14:41:08.128,-0.0526421,3.43071,12.9521,-0.0200816,0.331614,0.382925,0
2024-12-11 14:41:08.131,-0.0957129,3.41157,13.0119,0.0287862,0.367654,0.4153,0
2024-12-11 14:41:08.132,-0.131605,3.40439,13.0932,0.0287862,0.367654,0.4153,0
2024-12-11 14:41:08.135,-0.150748,3.40917,13.1578,0.0538309,0.380481,0.431182,0
2024-12-11 14:41:08.137,-0.155533,3.42592,13.218,0.0752106,0.384147,0.45134,0
2024-12-11 14:41:08.140,-0.138784,3.4331,13.2921,0.135074,0.385368,0.489823,0
2024-12-11 14:41:08.142,-0.122034,3.46899,13.3854,0.135074,0.385368,0.489823,0
2024-12-11 14:41:08.146,-0.0358923,3.56231,13.474,0.165616,0.384147,0.509981,0
2024-12-11 14:41:08.146,-0.0358923,3.56231,13.474,0.165616,0.384147,0.509981,0
2024-12-11 14:41:08.149,0.040678,3.60778,13.4955,0.193715,0.381092,0.525863,0
2024-12-11 14:41:08.151,0.12682,3.65354,13.5458,0.254189,0.384147,0.557016,0
2024-12-11 14:41:08.154,0.196211,3.70858,13.5864,0.29084,0.394531,0.571066,0
2024-12-11 14:41:08.156,0.258425,3.76122,13.608,0.326269,0.410413,0.583894,0
2024-12-11 14:41:08.159,0.318545,3.81865,13.5936,0.364141,0.429349,0.594889,0
2024-12-11 14:41:08.160,0.378365,3.86411,13.5362,0.403236,0.452561,0.607106,0
2024-12-11 14:41:08.165,0.435793,3.97179,13.3352,0.477759,0.513646,0.63154,0
2024-12-11 14:41:08.165,0.435793,3.97179,13.3352,0.477759,0.513646,0.63154,0
2024-12-11 14:41:08.168,0.421436,4.07468,13.165,0.508301,0.551519,0.642535,0
2024-12-11 14:41:08.170,0.335294,4.20897,12.9903,0.5364,0.5955,0.652309,0
2024-12-11 14:41:08.176,-0.026321,4.61097,12.5904,0.598096,0.745157,0.681629,0
2024-12-11 14:41:08.176,-0.026321,4.61097,12.5904,0.598096,0.745157,0.681629,0
2024-12-11 14:41:08.177,-0.260818,4.82902,12.3296,0.598096,0.745157,0.681629,0
2024-12-11 14:41:08.179,-0.500399,5.0659,12.0589,0.60115,0.795247,0.692014,0
2024-12-11 14:41:08.182,-0.756431,5.33181,11.7455,0.595652,0.832585,0.702398,0
2024-12-11 14:41:08.184,-0.97687,5.59023,11.3743,0.576105,0.862516,0.709117,0
2024-12-11 14:41:08.189,-1.26879,5.94945,10.9074,0.493641,0.874733,0.723167,0
2024-12-11 14:41:08.190,-1.26879,5.94945,10.9074,0.442941,0.869236,0.726221,0
2024-12-11 14:41:08.192,-1.29272,6.05952,10.8212,0.442941,0.869236,0.726221,0
2024-12-11 14:41:08.193,-1.28315,6.14567,10.7375,0.386743,0.853354,0.720113,0
2024-12-11 14:41:08.196,-1.28315,6.23181,10.6633,0.323215,0.822811,0.710339,0
2024-12-11 14:41:08.199,-1.27358,6.29641,10.6011,0.252967,0.779976,0.695068,0
2024-12-11 14:41:08.200,-1.20658,6.30359,10.5724,0.252967,0.779976,0.695068,0
2024-12-11 14:41:08.204,-1.04626,6.27249,10.5939,0.0794865,0.619323,0.657806,0
2024-12-11 14:41:08.206,-0.818644,6.22463,10.5652,-0.0237467,0.497153,0.632151,0
2024-12-11 14:41:08.208,-0.457328,6.09781,10.6992,-0.147749,0.340776,0.602219,0
2024-12-11 14:41:08.210,0.081356,5.84148,11.1661,-0.147749,0.340776,0.602219,0
2024-12-11 14:41:08.212,0.679861,5.48495,11.7598,-0.39392,-0.0153475,0.508759,0
2024-12-11 14:41:08.215,1.27597,5.09462,12.4205,-0.511203,-0.210819,0.445842,0
2024-12-11 14:41:08.217,1.84576,4.70668,13.1674,-0.626042,-0.405679,0.373762,0
2024-12-11 14:41:08.219,2.36291,4.33819,14.0007,-0.721945,-0.594431,0.296185,0
2024-12-11 14:41:08.224,3.12921,3.62214,15.8249,-0.882598,-0.942614,0.136753,0
2024-12-11 14:41:08.225,3.12921,3.62214,15.8249,-0.92719,-1.088,0.0536782,0
2024-12-11 14:41:08.227,3.44267,3.23689,17.0578,-0.92719,-1.088,0.0536782,0
2024-12-11 14:41:08.230,3.63649,2.92552,18.2671,-0.92719,-1.31034,-0.0941468,0
2024-12-11 14:41:08.232,3.51207,2.7341,19.4163,-0.889317,-1.37876,-0.149123,0
2024-12-11 14:41:08.233,3.37328,2.4993,20.5295,-0.889317,-1.37876,-0.149123,0
2024-12-11 14:41:08.236,3.5671,2.08056,21.6332,-0.820292,-1.41602,-0.201656,0
2024-12-11 14:41:08.239,3.81865,1.58495,22.6552,-0.604662,-1.41052,-0.300613,0
2024-12-11 14:41:08.241,3.97418,1.02473,23.5077,-0.604662,-1.41052,-0.300613,0
2024-12-11 14:41:08.243,4.06032,0.457328,24.1564,-0.461724,-1.35127,-0.351314,0
2024-12-11 14:41:08.245,4.18235,-0.0311067,24.5827,-0.298628,-1.25964,-0.393462,0
2024-12-11 14:41:08.248,4.47219,-0.397508,24.8124,-0.122704,-1.15152,-0.437443,0
2024-12-11 14:41:08.250,4.46979,-0.751645,25.0926,0.0629936,-1.02141,-0.483257,1
2024-12-11 14:41:08.256,3.35175,-1.29751,24.9512,0.672008,-0.496695,-0.510134,0
2024-12-11 14:41:08.256,3.35175,-1.29751,24.9512,0.672008,-0.496695,-0.510134,0
2024-12-11 14:41:08.258,2.55703,-1.39561,24.3598,0.863814,-0.287785,-0.469818,0
2024-12-11 14:41:08.260,1.63998,-1.43181,23.6058,0.863814,-0.287785,-0.469818,0
2024-12-11 14:41:08.264,0.263211,-1.43898,21.6571,1.1955,0.102546,-0.318939,0
2024-12-11 14:41:08.265,0.263211,-1.43898,21.6571,1.32745,0.276027,-0.223036,0
2024-12-11 14:41:08.266,0.0167498,-1.45095,20.5152,1.32745,0.276027,-0.223036,0
2024-12-11 14:41:08.269,0.0119641,-1.44138,19.3756,1.43435,0.427517,-0.128354,0
2024-12-11 14:41:08.271,0.0143569,-1.41745,18.3724,1.51559,0.565568,-0.0385597,0
2024-12-11 14:41:08.273,-0.11007,-1.37886,17.4601,1.59011,0.698122,0.0408504,0
2024-12-11 14:41:08.276,-0.361615,-1.27837,16.3828,1.64333,0.806318,0.118428,0
2024-12-11 14:41:08.279,-0.596112,-1.10369,15.1283,1.6641,0.976745,0.274805,0
2024-12-11 14:41:08.281,-0.639183,-0.938585,13.9241,1.6641,0.976745,0.274805,0
2024-12-11 14:41:08.284,-0.373579,-0.902692,12.8587,1.60844,1.10808,0.387812,0
2024-12-11 14:41:08.286,-0.0526421,-0.864407,11.9273,1.55285,1.17038,0.420797,0
2024-12-11 14:41:08.289,0.00717847,-0.660718,11.0513,1.55285,1.17038,0.420797,0
2024-12-11 14:41:08.290,-0.0717847,-0.383151,10.2467,1.55285,1.17038,0.420797,0
2024-12-11 14:41:08.292,-0.136391,-0.081356,9.58595,1.40747,1.27789,0.484936,0
2024-12-11 14:41:08.295,-0.189033,0.217747,9.01137,1.31951,1.32126,0.511203,0
2024-12-11 14:41:08.297,-0.224925,0.529113,8.47508,1.22605,1.36036,0.533804,0
2024-12-11 14:41:08.299,-0.248854,0.821037,8.06561,1.12648,1.39334,0.556405,0
2024-12-11 14:41:08.302,-0.232104,1.06062,7.73779,1.02874,1.41778,0.576563,0
2024-12-11 14:41:08.304,-0.160319,1.25204,7.43121,0.923677,1.43427,0.590613,0
2024-12-11 14:41:08.306,-0.081356,1.4004,7.19432,0.81739,1.44465,0.596111,0
2024-12-11 14:41:08.309,0.0,1.51077,6.99063,0.81739,1.44465,0.596111,0
2024-12-11 14:41:08.312,0.0957129,1.57298,6.83271,0.604815,1.4416,0.593056,0
2024-12-11 14:41:08.315,0.193819,1.62562,6.75374,0.604815,1.4416,0.593056,0
2024-12-11 14:41:08.316,0.272782,1.66391,6.72024,0.39957,1.41289,0.563736,0
2024-12-11 14:41:08.318,0.332901,1.70219,6.74417,0.306722,1.39395,0.544189,0
2024-12-11 14:41:08.321,0.378365,1.74527,6.84467,0.222425,1.37196,0.517922,0
2024-12-11 14:41:08.323,0.442971,1.76441,6.94756,0.141182,1.34081,0.491045,0
2024-12-11 14:41:08.325,0.52672,1.74527,7.08904,0.0709346,1.3011,0.45867,0
2024-12-11 14:41:08.328,0.588933,1.70937,7.302,0.00984991,1.25224,0.422019,0
2024-12-11 14:41:08.331,0.612862,1.67587,7.51735,-0.0439046,1.19665,0.384147,0
2024-12-11 14:41:08.332,0.596112,1.63998,7.72343,-0.0854423,1.13984,0.344442,0
2024-12-11 14:41:08.335,0.557827,1.60409,7.91247,-0.119039,1.07692,0.305958,0
2024-12-11 14:41:08.337,0.507577,1.55623,8.068,-0.149581,1.00973,0.267475,0
2024-12-11 14:41:08.339,0.454935,1.51077,8.21187,-0.17035,0.938261,0.228991,0
2024-12-11 14:41:08.342,0.397508,1.47248,8.34108,-0.17035,0.938261,0.228991,0
2024-12-11 14:41:08.344,0.337687,1.40548,8.45354,-0.196006,0.787917,0.165463,0
2024-12-11 14:41:08.346,0.282652,1.34058,8.57079,-0.199671,0.709728,0.133088,0
2024-12-11 14:41:08.349,0.22014,1.29272,8.67368,-0.199671,0.630318,0.106211,0
2024-12-11 14:41:08.351,0.150748,1.23529,8.75055,-0.197227,0.549075,0.0768904,0
2024-12-11 14:41:08.354,0.0837488,1.16351,8.80319,-0.19173,0.465389,0.0530674,0
2024-12-11 14:41:08.356,0.0143569,1.10848,8.8343,-0.18501,0.37926,0.0329094,0
2024-12-11 14:41:08.358,-0.0622134,1.0678,8.8678,-0.179513,0.293741,0.0121406,0
2024-12-11 14:41:08.362,-0.145962,1.0008,8.91566,-0.161187,0.130645,-0.0220669,0
2024-12-11 14:41:08.364,-0.232104,0.929013,8.94198,-0.147749,0.0530674,-0.0348946,0
2024-12-11 14:41:08.366,-0.308973,0.873978,8.97787,-0.13431,-0.0159584,-0.0434465,0
2024-12-11 14:41:08.369,-0.383151,0.837787,8.99462,-0.121482,-0.081319,-0.0519984,0
2024-12-11 14:41:08.370,-0.457328,0.816252,8.98983,-0.121482,-0.081319,-0.0519984,0
2024-12-11 14:41:08.373,-0.533899,0.804287,8.96591,-0.111709,-0.143015,-0.0544418,0
2024-12-11 14:41:08.375,-0.608076,0.789931,8.93241,-0.101935,-0.19738,-0.0538309,0
2024-12-11 14:41:08.378,-0.682254,0.768395,8.9348,-0.0921616,-0.241972,-0.0519984,0
2024-12-11 14:41:08.379,-0.754038,0.768395,8.90609,-0.082388,-0.27679,-0.0452791,0
2024-12-11 14:41:08.383,-0.809073,0.780359,8.85584,-0.0652843,-0.32688,-0.0251211,0
2024-12-11 14:41:08.384,-0.859622,0.789931,8.79362,-0.0652843,-0.32688,-0.0251211,0
2024-12-11 14:41:08.387,-0.897907,0.794716,8.71227,-0.0591758,-0.342151,-0.0122933,0
2024-12-11 14:41:08.390,-0.921835,0.813859,8.62104,-0.0610084,-0.362309,0.0151948,0
2024-12-11 14:41:08.391,-0.950549,0.84018,8.54208,-0.0610084,-0.362309,0.0151948,0
2024-12-11 14:41:08.394,-0.97687,0.835394,8.45594,-0.0652843,-0.370861,0.0322986,0
2024-12-11 14:41:08.396,-0.986441,0.837787,8.37458,-0.0720036,-0.372082,0.0487914,0
2024-12-11 14:41:08.399,-0.97687,0.854836,8.3004,-0.100713,-0.371471,0.0842206,0
2024-12-11 14:41:08.401,-0.96012,0.859622,8.23101,-0.100713,-0.371471,0.0842206,0
2024-12-11 14:41:08.405,-0.931406,0.859622,8.17358,-0.133699,-0.355589,0.120261,0
2024-12-11 14:41:08.406,-0.931406,0.859622,8.17358,-0.133699,-0.355589,0.120261,0
2024-12-11 14:41:08.408,-0.897907,0.876371,8.15683,-0.153246,-0.340929,0.139197,0
2024-12-11 14:41:08.410,-0.854836,0.9003,8.1688,-0.172183,-0.329323,0.156911,0
2024-12-11 14:41:08.412,-0.816252,0.938585,8.18794,-0.193562,-0.312219,0.173404,0
2024-12-11 14:41:08.416,-0.775574,0.957727,8.24058,-0.211277,-0.293283,0.190508,0
2024-12-11 14:41:08.417,-0.727717,0.964906,8.32433,-0.228991,-0.273736,0.208833,0
2024-12-11 14:41:08.419,-0.658325,0.97687,8.42483,-0.241819,-0.252356,0.224105,0
2024-12-11 14:41:08.423,-0.576969,0.99362,8.55165,-0.262588,-0.202878,0.24976,0
2024-12-11 14:41:08.424,-0.50997,1.01994,8.68086,-0.262588,-0.202878,0.24976,0
2024-12-11 14:41:08.427,-0.438186,1.04387,8.81994,-0.262588,-0.202878,0.24976,0
2024-12-11 14:41:08.429,-0.344866,1.06062,8.93719,-0.27114,-0.143625,0.274194,0
2024-12-11 14:41:08.434,-0.179462,1.09173,9.0999,-0.262588,-0.0794865,0.288854,0
2024-12-11 14:41:08.434,-0.179462,1.09173,9.0999,-0.262588,-0.0794865,0.288854,0
2024-12-11 14:41:08.437,-0.100499,1.10608,9.16212,-0.257701,-0.0471116,0.293741,0
2024-12-11 14:41:08.439,-0.0382852,1.12044,9.2363,-0.236932,0.014584,0.302904,0
2024-12-11 14:41:08.441,0.00478565,1.14437,9.32992,-0.236932,0.014584,0.302904,0
2024-12-11 14:41:08.444,0.0382852,1.15633,9.41366,-0.211277,0.0738362,0.306569,0
2024-12-11 14:41:08.446,0.0622134,1.15633,9.48306,-0.211277,0.0738362,0.306569,0
2024-12-11 14:41:08.448,0.0693919,1.16112,9.54288,-0.189897,0.103157,0.307791,0
2024-12-11 14:41:08.450,0.0646062,1.17787,9.56441,-0.170961,0.130034,0.309012,0
2024-12-11 14:41:08.452,0.0574277,1.19462,9.5668,-0.14897,0.156301,0.312067,0
2024-12-11 14:41:08.456,0.040678,1.21137,9.55484,-0.108044,0.214331,0.32184,0
2024-12-11 14:41:08.458,0.0143569,1.23769,9.51895,-0.0854423,0.237543,0.327338,0
2024-12-11 14:41:08.459,-0.00717847,1.27119,9.46631,-0.0854423,0.237543,0.327338,0
2024-12-11 14:41:08.463,-0.026321,1.29751,9.38734,-0.046348,0.283968,0.341387,0
2024-12-11 14:41:08.464,-0.0454636,1.31665,9.28924,-0.046348,0.283968,0.341387,0
2024-12-11 14:41:08.467,-0.0454636,1.33101,9.2004,-0.0268009,0.30046,0.348107,0
2024-12-11 14:41:08.470,-0.0287139,1.35254,9.11187,-0.0115297,0.31451,0.352993,0
2024-12-11 14:41:08.472,-0.0430708,1.38365,9.00419,0.00129805,0.328559,0.360934,0
2024-12-11 14:41:08.476,-0.066999,1.45095,8.80559,0.0281753,0.347496,0.367654,0
2024-12-11 14:41:08.481,-0.0837488,1.53948,8.60668,0.0465007,0.356658,0.373762,0
2024-12-11 14:41:08.482,-0.0909273,1.53948,8.60668,0.0465007,0.356658,0.373762,0
2024-12-11 14:41:08.484,-0.11007,1.58016,8.51336,0.0465007,0.356658,0.373762,0
2024-12-11 14:41:08.485,-0.133998,1.64716,8.41287,0.0550526,0.356658,0.376816,0
2024-12-11 14:41:08.489,-0.141177,1.68544,8.32194,0.0550526,0.356658,0.376816,0
2024-12-11 14:41:08.490,-0.141177,1.72134,8.25255,0.0550526,0.356658,0.376816,0
2024-12-11 14:41:08.495,-0.119641,1.80269,8.15444,0.0568851,0.338333,0.375595,0
2024-12-11 14:41:08.495,-0.0957129,1.80269,8.15444,0.0568851,0.338333,0.375595,0
2024-12-11 14:41:08.497,-0.0909273,1.84098,8.11586,0.0556635,0.326116,0.37193,0
2024-12-11 14:41:08.497,-0.0909273,1.84098,8.11586,0.0556635,0.326116,0.37193,0
2024-12-11 14:41:08.500,-0.0957129,1.86969,8.07518,0.0544418,0.313899,0.370097,0
2024-12-11 14:41:08.502,-0.107677,1.90319,8.03689,0.0513875,0.29985,0.367043,0
2024-12-11 14:41:08.504,-0.12682,1.94865,8.01536,0.0489441,0.283357,0.358491,0
2024-12-11 14:41:08.508,-0.141177,1.98485,8.01536,0.0440574,0.24976,0.349328,0
2024-12-11 14:41:08.510,-0.148355,2.0016,8.00339,0.0452791,0.234489,0.343831,0
2024-12-11 14:41:08.512,-0.145962,2.02552,7.99143,0.0410031,0.214331,0.341387,0
2024-12-11 14:41:08.514,-0.148355,2.05424,8.01297,0.0410031,0.214331,0.341387,0
2024-12-11 14:41:08.518,-0.153141,2.09731,8.04886,0.0452791,0.17768,0.32917,0
2024-12-11 14:41:08.518,-0.153141,2.09731,8.04886,0.0452791,0.17768,0.32917,0
2024-12-11 14:41:08.522,-0.157926,2.11645,8.05364,0.0501658,0.132477,0.320008,0
2024-12-11 14:41:08.523,-0.143569,2.14517,8.08236,0.0501658,0.132477,0.320008,0
2024-12-11 14:41:08.525,-0.12682,2.18106,8.09911,0.0513875,0.106211,0.312067,0
2024-12-11 14:41:08.528,-0.0957129,2.19541,8.11586,0.0562743,0.0781121,0.305347,0
2024-12-11 14:41:08.531,-0.0550349,2.20259,8.12303,0.0568851,0.0487914,0.298017,0
2024-12-11 14:41:08.532,-0.00957129,2.2337,8.12782,0.0519984,0.0188599,0.289465,0
2024-12-11 14:41:08.535,0.0358923,2.24806,8.14248,0.0519984,-0.013515,0.279692,0
2024-12-11 14:41:08.538,0.0717847,2.25284,8.16162,0.0507767,-0.0458899,0.265642,0
2024-12-11 14:41:08.540,0.105284,2.27438,8.19512,0.0465007,-0.0764323,0.252814,0
2024-12-11 14:41:08.542,0.141177,2.29113,8.22862,0.0428357,-0.10392,0.239987,0
2024-12-11 14:41:08.545,0.198604,2.3007,8.25733,0.037338,-0.131409,0.225326,0
2024-12-11 14:41:08.547,0.277567,2.32702,8.30758,0.0300079,-0.155842,0.209444,0
2024-12-11 14:41:08.550,0.32333,2.36291,8.38176,0.0159584,-0.192493,0.174626,0
2024-12-11 14:41:08.551,0.34008,2.39402,8.44876,0.0159584,-0.192493,0.174626,0
2024-12-11 14:41:08.555,0.366401,2.41316,8.53011,0.00435229,-0.213262,0.134921,0
2024-12-11 14:41:08.556,0.378365,2.42513,8.60668,0.00435229,-0.213262,0.134921,0
2024-12-11 14:41:08.559,0.375972,2.44427,8.6689,-0.00419957,-0.219981,0.117817,0
2024-12-11 14:41:08.562,0.359223,2.44905,8.73141,-0.0115297,-0.220592,0.101935,0
2024-12-11 14:41:08.564,0.337687,2.44905,8.76491,-0.0194708,-0.220592,0.0848314,0
2024-12-11 14:41:08.565,0.32333,2.44188,8.81037,-0.0286335,-0.221203,0.0695602,0
2024-12-11 14:41:08.568,0.311366,2.42752,8.8678,-0.0286335,-0.221203,0.0695602,0
2024-12-11 14:41:08.570,0.294616,2.41077,8.89891,-0.0457372,-0.216316,0.042683,0
2024-12-11 14:41:08.573,0.248854,2.38923,8.93241,-0.058565,-0.213262,0.0310769,0
2024-12-11 14:41:08.575,0.20339,2.38445,8.98026,-0.0689494,-0.207764,0.0200816,0
2024-12-11 14:41:08.578,0.174676,2.37488,9.01855,-0.0933833,-0.194326,0.00297788,0
2024-12-11 14:41:08.580,0.143569,2.36531,9.07598,-0.0933833,-0.194326,0.00297788,0
2024-12-11 14:41:08.584,0.0909273,2.34616,9.18844,-0.1056,-0.188828,-0.00374144,0
2024-12-11 14:41:08.585,0.0909273,2.34616,9.18844,-0.1056,-0.188828,-0.00374144,0
2024-12-11 14:41:08.594,0.0143569,2.28873,9.52373,-0.158744,-0.16134,-0.0159584,0
2024-12-11 14:41:08.594,0.0143569,2.28873,9.52373,-0.158744,-0.16134,-0.0159584,0
2024-12-11 14:41:08.594,0.0143569,2.28873,9.52373,-0.158744,-0.16134,-0.0159584,0
2024-12-11 14:41:08.594,0.0143569,2.28873,9.52373,-0.158744,-0.16134,-0.0159584,0
2024-12-11 14:41:08.596,0.0215354,2.28634,9.61705,-0.164852,-0.154621,-0.0153475,0
2024-12-11 14:41:08.598,0.0287139,2.28395,9.7343,-0.168517,-0.150345,-0.0159584,0
2024-12-11 14:41:08.601,0.0526421,2.29113,9.82553,-0.170961,-0.147901,-0.0165692,0
2024-12-11 14:41:08.603,0.0861416,2.28156,9.92124,-0.171572,-0.145458,-0.0177909,0
2024-12-11 14:41:08.605,0.107677,2.27438,10.0193,-0.17035,-0.143015,-0.0184018,0
2024-12-11 14:41:08.609,0.114855,2.27438,10.0887,-0.166685,-0.141793,-0.0202343,0
2024-12-11 14:41:08.610,0.133998,2.26959,10.1629,-0.165463,-0.142404,-0.0220669,0
2024-12-11 14:41:08.613,0.162712,2.25284,10.218,-0.158744,-0.144236,-0.0257319,0
2024-12-11 14:41:08.615,0.179462,2.24566,10.2634,-0.153246,-0.148512,-0.0287862,0
2024-12-11 14:41:08.618,0.200997,2.24327,10.3184,-0.140419,-0.15401,-0.0324513,0
2024-12-11 14:41:08.620,0.234497,2.22891,10.3639,-0.140419,-0.15401,-0.0324513,0
2024-12-11 14:41:08.622,0.277567,2.21695,10.4145,-0.13431,-0.158897,-0.0385597,0
2024-12-11 14:41:08.624,0.30658,2.21216,10.4719,-0.12698,-0.161951,-0.0428357,0
2024-12-11 14:41:08.628,0.344866,2.21934,10.5437,-0.110487,-0.16134,-0.0593285,0
2024-12-11 14:41:08.630,0.390329,2.22174,10.5963,-0.0982701,-0.161951,-0.0678804,0
2024-12-11 14:41:08.631,0.426222,2.23609,10.6442,-0.0982701,-0.161951,-0.0678804,0
2024-12-11 14:41:08.634,0.462114,2.25524,10.6944,-0.0884965,-0.157675,-0.0770431,0
2024-12-11 14:41:08.637,0.488435,2.26002,10.716,-0.0603975,-0.135684,-0.0947577,0
2024-12-11 14:41:08.638,0.505185,2.27438,10.7279,-0.0603975,-0.135684,-0.0947577,0
2024-12-11 14:41:08.642,0.50997,2.29591,10.7303,-0.0329094,-0.106975,-0.114916,0
2024-12-11 14:41:08.644,0.514756,2.30788,10.7088,-0.0188599,-0.0880384,-0.125911,0
2024-12-11 14:41:08.645,0.507577,2.31745,10.692,-0.0188599,-0.0880384,-0.125911,0
2024-12-11 14:41:08.648,0.481256,2.31266,10.6585,-0.00847551,-0.0672696,-0.13263,0
2024-12-11 14:41:08.650,0.447757,2.32463,10.5844,0.00557398,-0.0434465,-0.143015,0
2024-12-11 14:41:08.654,0.3999,2.34616,10.503,0.021456,-7.63559e-05,-0.154621,0
2024-12-11 14:41:08.657,0.285045,2.37248,10.3184,0.0269536,0.0286335,-0.159507,0
2024-12-11 14:41:08.657,0.344866,2.37248,10.3184,0.0269536,0.0286335,-0.159507,0
2024-12-11 14:41:08.660,0.234497,2.3988,10.1988,0.0324513,0.0536782,-0.162562,0
2024-12-11 14:41:08.664,0.0957129,2.42991,9.9691,0.033673,0.104989,-0.157675,0
2024-12-11 14:41:08.665,0.0957129,2.42991,9.9691,0.033673,0.104989,-0.157675,0
2024-12-11 14:41:08.669,-0.0239282,2.48495,9.72473,0.0226777,0.144084,-0.152177,0
2024-12-11 14:41:08.669,-0.0239282,2.48495,9.72473,0.0226777,0.144084,-0.152177,0
2024-12-11 14:41:08.671,-0.0765703,2.50648,9.6362,0.0153475,0.162409,-0.149123,0
2024-12-11 14:41:08.675,-0.114855,2.52592,9.53809,-0.00419957,0.191119,-0.138739,0
2024-12-11 14:41:08.678,-0.138784,2.60249,9.41127,-0.0151948,0.201503,-0.135074,0
2024-12-11 14:41:08.678,-0.138784,2.60249,9.41127,-0.0151948,0.201503,-0.135074,0
2024-12-11 14:41:08.681,-0.131605,2.64078,9.37777,-0.0249684,0.211277,-0.13263,0
2024-12-11 14:41:08.683,-0.119641,2.68146,9.33709,-0.0359636,0.217996,-0.13263,0
2024-12-11 14:41:08.686,-0.100499,2.71735,9.31316,-0.0469589,0.225937,-0.133852,0
2024-12-11 14:41:08.688,-0.081356,2.74128,9.31077,-0.0548999,0.228381,-0.134463,0
2024-12-11 14:41:08.691,-0.0550349,2.76042,9.30599,-0.0683385,0.226548,-0.13996,0
2024-12-11 14:41:08.693,-0.0287139,2.76999,9.32034,-0.0683385,0.226548,-0.13996,0
2024-12-11 14:41:08.696,0.0191426,2.79392,9.3347,-0.0750579,0.207612,-0.149123,0
2024-12-11 14:41:08.698,0.066999,2.80828,9.34666,-0.0756687,0.194173,-0.15401,0
2024-12-11 14:41:08.700,0.112463,2.81785,9.3682,-0.0756687,0.194173,-0.15401,0
2024-12-11 14:41:08.702,0.157926,2.82503,9.39213,-0.0775012,0.178902,-0.162562,0
2024-12-11 14:41:08.704,0.191426,2.84178,9.42084,-0.0762796,0.159966,-0.171114,0
2024-12-11 14:41:08.707,0.22014,2.8681,9.44238,-0.0720036,0.139197,-0.180276,0
2024-12-11 14:41:08.709,0.236889,2.87288,9.47588,-0.0689494,0.117206,-0.192493,0
2024-12-11 14:41:08.711,0.227318,2.88724,9.52613,-0.0616192,0.0958267,-0.203488,0
2024-12-11 14:41:08.714,0.224925,2.89681,9.56202,-0.0548999,0.0756687,-0.215095,0
2024-12-11 14:41:08.717,0.244068,2.88485,9.59791,-0.046348,0.0548999,-0.22609,0
2024-12-11 14:41:08.718,0.246461,2.87288,9.6338,-0.0341311,0.0335202,-0.237696,0
2024-12-11 14:41:08.726,0.210568,2.85853,9.70319,0.00618483,-0.0196235,-0.265795,0
2024-12-11 14:41:08.726,0.210568,2.85853,9.70319,0.00618483,-0.0196235,-0.265795,0
2024-12-11 14:41:08.727,0.210568,2.85853,9.70319,0.0190126,-0.0324513,-0.271903,0
2024-12-11 14:41:08.728,0.172283,2.86331,9.69123,0.0190126,-0.0324513,-0.271903,0
2024-12-11 14:41:08.731,0.12682,2.88006,9.65534,0.0471116,-0.0538309,-0.283509,0
2024-12-11 14:41:08.733,0.0861416,2.89681,9.59552,0.0471116,-0.0538309,-0.283509,0
2024-12-11 14:41:08.735,0.0287139,2.92313,9.52852,0.0599394,-0.0605502,-0.287175,0
2024-12-11 14:41:08.737,-0.0334995,2.95663,9.46152,0.0709346,-0.0672696,-0.289007,0
2024-12-11 14:41:08.740,-0.081356,2.98774,9.38256,0.0807082,-0.0703238,-0.290229,0
2024-12-11 14:41:08.742,-0.129212,3.02363,9.29642,0.085595,-0.073378,-0.290229,0
2024-12-11 14:41:08.744,-0.184247,3.06192,9.19801,0.0910926,-0.0752106,-0.286564,0
2024-12-11 14:41:08.748,-0.210568,3.09811,9.0999,0.0917034,-0.0770431,-0.28412,0
2024-12-11 14:41:08.749,-0.241675,3.13639,9.00898,0.0917034,-0.0770431,-0.28412,0
2024-12-11 14:41:08.754,-0.299402,3.22732,8.81755,0.0800973,-0.0800973,-0.278012,0
2024-12-11 14:41:08.754,-0.299402,3.22732,8.81755,0.0800973,-0.0800973,-0.278012,0
2024-12-11 14:41:08.756,-0.318545,3.27278,8.74577,0.0691021,-0.0819299,-0.274347,0
2024-12-11 14:41:08.758,-0.308973,3.33021,8.69283,0.0587177,-0.0837624,-0.273125,0
2024-12-11 14:41:08.761,-0.27996,3.36371,8.65454,0.0440574,-0.0868167,-0.273125,0
2024-12-11 14:41:08.763,-0.263211,3.39003,8.61865,0.0269536,-0.0898709,-0.272514,0
2024-12-11 14:41:08.766,-0.224925,3.44507,8.59951,0.00923906,-0.093536,-0.273736,0
2024-12-11 14:41:08.769,-0.174676,3.48574,8.58036,-0.0359636,-0.106364,-0.287175,0
2024-12-11 14:41:08.770,-0.12682,3.51207,8.56361,-0.0359636,-0.106364,-0.287175,0
2024-12-11 14:41:08.773,-0.0861416,3.54078,8.57558,-0.0610084,-0.113083,-0.295116,0
2024-12-11 14:41:08.777,0.0167498,3.55035,8.65454,-0.110487,-0.133852,-0.314663,0
2024-12-11 14:41:08.777,0.0167498,3.55035,8.65454,-0.110487,-0.133852,-0.314663,0
2024-12-11 14:41:08.780,0.0646062,3.56231,8.71227,-0.137364,-0.143625,-0.326269,0
2024-12-11 14:41:08.782,0.117248,3.56949,8.77448,-0.161798,-0.155842,-0.339097,0
2024-12-11 14:41:08.785,0.165105,3.55992,8.84866,-0.185621,-0.166227,-0.351924,0
2024-12-11 14:41:08.788,0.20339,3.52882,8.94437,-0.232656,-0.188217,-0.383078,0
2024-12-11 14:41:08.789,0.248854,3.51207,9.06162,-0.232656,-0.188217,-0.383078,0
2024-12-11 14:41:08.791,0.287438,3.48335,9.1669,-0.255869,-0.201045,-0.398349,0
2024-12-11 14:41:08.795,0.292223,3.4355,9.27488,-0.29313,-0.225479,-0.430113,0
2024-12-11 14:41:08.796,0.27996,3.40917,9.4017,-0.29313,-0.225479,-0.430113,0
2024-12-11 14:41:08.799,0.275175,3.38764,9.52134,-0.311456,-0.231587,-0.445384,0
2024-12-11 14:41:08.801,0.260818,3.35175,9.62184,-0.326116,-0.237085,-0.459433,0
2024-12-11 14:41:08.804,0.215354,3.31107,9.73191,-0.351772,-0.241361,-0.481424,0
2024-12-11 14:41:08.807,0.177069,3.26321,9.84467,-0.351772,-0.241361,-0.481424,0
2024-12-11 14:41:08.808,0.133998,3.22493,9.95474,-0.363378,-0.241361,-0.489365,0
2024-12-11 14:41:08.810,0.0646062,3.18186,10.0624,-0.370097,-0.237085,-0.497306,0
2024-12-11 14:41:08.813,-0.00478565,3.14836,10.1557,-0.375595,-0.231587,-0.500971,0
2024-12-11 14:41:08.816,-0.0885344,3.11725,10.2395,-0.380481,-0.206543,-0.497306,0
2024-12-11 14:41:08.817,-0.191426,3.08584,10.3161,-0.380481,-0.206543,-0.497306,0
2024-12-11 14:41:08.820,-0.282652,3.07149,10.3783,-0.378038,-0.19005,-0.491198,0
2024-12-11 14:41:08.822,-0.375972,3.05713,10.4336,-0.378038,-0.19005,-0.491198,0
2024-12-11 14:41:08.824,-0.481256,3.04517,10.4886,-0.369486,-0.144236,-0.47104,0
2024-12-11 14:41:08.827,-0.569791,3.04038,10.5341,-0.369486,-0.144236,-0.47104,0
2024-12-11 14:41:08.830,-0.655932,3.02842,10.5604,-0.347496,-0.0623828,-0.420339,0
2024-12-11 14:41:08.831,-0.744467,3.03081,10.5652,-0.347496,-0.0623828,-0.420339,0
2024-12-11 14:41:08.834,-0.813859,3.04277,10.5532,-0.337111,-0.0312296,-0.39896,0
2024-12-11 14:41:08.837,-0.88355,3.05234,10.5245,-0.313288,0.0286335,-0.354368,0
2024-12-11 14:41:08.839,-0.952942,3.07149,10.4815,-0.313288,0.0286335,-0.354368,0
2024-12-11 14:41:08.841,-1.02951,3.09093,10.4073,-0.313288,0.0286335,-0.354368,0
2024-12-11 14:41:08.843,-1.08933,3.11486,10.3304,-0.289465,0.0897182,-0.308554,0
2024-12-11 14:41:08.847,-1.1324,3.15075,10.2491,-0.281524,0.117817,-0.283509,0
2024-12-11 14:41:08.848,-1.1683,3.17946,10.1366,-0.272972,0.140419,-0.26213,0
2024-12-11 14:41:08.850,-1.19701,3.21536,10.0337,-0.266864,0.160576,-0.24075,0
2024-12-11 14:41:08.853,-1.21376,3.26082,9.92363,-0.261366,0.183789,-0.217538,0
2024-12-11 14:41:08.857,-1.18505,3.335,9.73191,-0.258312,0.210666,-0.177833,0
2024-12-11 14:41:08.858,-1.18505,3.335,9.73191,-0.258312,0.210666,-0.177833,0
2024-12-11 14:41:08.860,-1.15394,3.34935,9.66012,-0.257701,0.22044,-0.160118,0
2024-12-11 14:41:08.862,-1.10608,3.37328,9.60509,-0.25709,0.225937,-0.145458,0
2024-12-11 14:41:08.865,-1.06301,3.42114,9.58834,-0.25709,0.225937,-0.145458,0
2024-12-11 14:41:08.868,-1.02951,3.48096,9.56441,-0.254647,0.225937,-0.114305,0
2024-12-11 14:41:08.869,-0.981655,3.53599,9.51895,-0.254647,0.225937,-0.114305,0
2024-12-11 14:41:08.872,-0.94337,3.57906,9.48545,-0.252204,0.224715,-0.111251,0
2024-12-11 14:41:08.875,-0.907478,3.62214,9.47827,-0.247928,0.221661,-0.105142,0
2024-12-11 14:41:08.876,-0.854836,3.65354,9.47348,-0.243041,0.216164,-0.104531,0
2024-12-11 14:41:08.880,-0.813859,3.67747,9.46152,-0.230824,0.200892,-0.105753,0
2024-12-11 14:41:08.881,-0.797109,3.7014,9.44956,-0.230824,0.200892,-0.105753,0
2024-12-11 14:41:08.884,-0.766002,3.71097,9.43281,-0.225937,0.19173,-0.108807,0
2024-12-11 14:41:08.886,-0.74686,3.71097,9.41845,-0.217996,0.180124,-0.113083,0
2024-12-11 14:41:08.888,-0.744467,3.71097,9.41127,-0.211888,0.164852,-0.120413,0
2024-12-11 14:41:08.890,-0.734896,3.70858,9.40648,-0.205779,0.14897,-0.125911,0
2024-12-11 14:41:08.893,-0.727717,3.68465,9.40888,-0.199671,0.131867,-0.134463,0
2024-12-11 14:41:08.895,-0.749253,3.67029,9.42084,-0.190508,0.11232,-0.141793,0
2024-12-11 14:41:08.898,-0.773181,3.65354,9.44477,-0.182567,0.0884965,-0.146069,0
2024-12-11 14:41:08.900,-0.789931,3.62692,9.46631,-0.17035,0.0677277,-0.152177,0
2024-12-11 14:41:08.903,-0.835394,3.6006,9.48306,-0.14836,0.0213033,-0.159507,0
2024-12-11 14:41:08.905,-0.854836,3.5671,9.49981,-0.14836,0.0213033,-0.159507,0
2024-12-11 14:41:08.907,-0.869193,3.53121,9.51177,-0.131867,-0.00251974,-0.159507,0
2024-12-11 14:41:08.909,-0.895514,3.49771,9.51655,-0.115985,-0.0245102,-0.160118,0
2024-12-11 14:41:08.913,-0.909871,3.4666,9.52613,-0.0897182,-0.0709346,-0.155232,0
2024-12-11 14:41:08.914,-0.917049,3.43071,9.5357,-0.0897182,-0.0709346,-0.155232,0
2024-12-11 14:41:08.916,-0.907478,3.39242,9.55484,-0.0726145,-0.0904818,-0.151566,0
2024-12-11 14:41:08.920,-0.895514,3.35892,9.59313,-0.0439046,-0.131409,-0.141793,0
2024-12-11 14:41:08.922,-0.890728,3.33021,9.61466,-0.0439046,-0.131409,-0.141793,0
2024-12-11 14:41:08.923,-0.893121,3.31107,9.61945,-0.0274118,-0.146069,-0.13935,0
2024-12-11 14:41:08.926,-0.888335,3.29432,9.62663,-0.0139731,-0.159507,-0.133852,0
2024-12-11 14:41:08.928,-0.88355,3.27996,9.61705,-0.000534491,-0.173557,-0.128965,0
2024-12-11 14:41:08.931,-0.881157,3.27757,9.59073,0.0147367,-0.179665,-0.122246,0
2024-12-11 14:41:08.933,-0.881157,3.27039,9.57398,0.0269536,-0.187606,-0.11797,0
2024-12-11 14:41:08.935,-0.873978,3.25125,9.56441,0.0330621,-0.194937,-0.108196,0
2024-12-11 14:41:08.937,-0.857229,3.24646,9.54048,0.0422248,-0.199213,-0.101477,0
2024-12-11 14:41:08.941,-0.845265,3.2345,9.49023,0.0538309,-0.207764,-0.0868167,0
2024-12-11 14:41:08.942,-0.837787,3.23211,9.44956,0.0538309,-0.207764,-0.0868167,0
2024-12-11 14:41:08.944,-0.821037,3.24168,9.43041,0.0550526,-0.210208,-0.0788757,0
2024-12-11 14:41:08.947,-0.777966,3.21775,9.4017,0.0581068,-0.210208,-0.0721563,0
2024-12-11 14:41:08.949,-0.734896,3.21775,9.37777,0.0556635,-0.208375,-0.0660479,0
2024-12-11 14:41:08.953,-0.708575,3.23689,9.35384,0.0477224,-0.199213,-0.0581068,0
2024-12-11 14:41:08.954,-0.670289,3.24168,9.32274,0.0477224,-0.199213,-0.0581068,0
2024-12-11 14:41:08.956,-0.612862,3.25364,9.29881,0.0422248,-0.190661,-0.0538309,0
2024-12-11 14:41:08.959,-0.548256,3.26321,9.27727,0.0379489,-0.183331,-0.0538309,0
2024-12-11 14:41:08.961,-0.481256,3.25603,9.25544,0.0269536,-0.174168,-0.0532201,0
2024-12-11 14:41:08.963,-0.431007,3.26082,9.24587,0.0177909,-0.162562,-0.0544418,0
2024-12-11 14:41:08.966,-0.387936,3.25843,9.2339,0.00740652,-0.152177,-0.0568851,0
2024-12-11 14:41:08.968,-0.335294,3.25364,9.22672,-0.00114534,-0.140571,-0.0581068,0
2024-12-11 14:41:08.973,-0.258425,3.25603,9.19801,-0.0121406,-0.127133,-0.0629936,0
2024-12-11 14:41:08.973,-0.258425,3.25603,9.19801,-0.0121406,-0.127133,-0.0629936,0
2024-12-11 14:41:08.976,-0.217747,3.24407,9.18844,-0.0536782,-0.0849841,-0.0782648,0
2024-12-11 14:41:08.977,-0.179462,3.23211,9.17408,-0.0536782,-0.0849841,-0.0782648,0
2024-12-11 14:41:08.981,-0.155533,3.22732,9.17169,-0.0811663,-0.0629936,-0.0917034,0
2024-12-11 14:41:08.985,-0.114855,3.20578,9.19801,-0.0970484,-0.0532201,-0.0996445,0
2024-12-11 14:41:08.986,-0.114855,3.20578,9.19801,-0.114152,-0.0446682,-0.105753,0
2024-12-11 14:41:08.989,-0.107677,3.19861,9.2339,-0.127591,-0.0397814,-0.114916,0
2024-12-11 14:41:08.990,-0.107677,3.19861,9.2339,-0.143473,-0.0330621,-0.122246,0
2024-12-11 14:41:08.992,-0.107677,3.19621,9.25783,-0.143473,-0.0330621,-0.122246,0
2024-12-11 14:41:08.995,-0.122034,3.18664,9.29642,-0.168517,-0.0232886,-0.133852,0
2024-12-11 14:41:08.999,-0.165105,3.16989,9.37299,-0.1844,-0.0171801,-0.13996,0
2024-12-11 14:41:08.999,-0.165105,3.16989,9.37299,-0.1844,-0.0171801,-0.13996,0
2024-12-11 14:41:09.001,-0.16989,3.15793,9.40648,-0.195395,-0.00801737,-0.144847,0
2024-12-11 14:41:09.004,-0.162712,3.13639,9.45195,-0.207612,-0.000687203,-0.148512,0
2024-12-11 14:41:09.007,-0.18664,3.12443,9.5022,-0.22105,0.00725381,-0.153399,0
2024-12-11 14:41:09.008,-0.205783,3.10529,9.56441,-0.228381,0.0151948,-0.157064,0
2024-12-11 14:41:09.013,-0.270389,3.06909,9.69362,-0.243041,0.0347419,-0.160729,0
2024-12-11 14:41:09.014,-0.270389,3.06909,9.69362,-0.246095,0.0451263,-0.158286,0
2024-12-11 14:41:09.016,-0.301795,3.04756,9.75344,-0.246095,0.0451263,-0.158286,0
2024-12-11 14:41:09.017,-0.344866,3.0332,9.80609,-0.250371,0.0579541,-0.156453,0
2024-12-11 14:41:09.020,-0.390329,3.01406,9.84706,-0.24976,0.0695602,-0.153399,0
2024-12-11 14:41:09.022,-0.3999,2.98295,9.89731,-0.249149,0.0799446,-0.149123,0
2024-12-11 14:41:09.026,-0.3999,2.96381,9.95474,-0.244263,0.0988809,-0.13935,0
2024-12-11 14:41:09.027,-0.411865,2.9662,10.005,-0.244263,0.0988809,-0.13935,0
2024-12-11 14:41:09.029,-0.447757,2.9662,10.0337,-0.238154,0.108044,-0.134463,0
2024-12-11 14:41:09.032,-0.514756,2.95185,10.0528,-0.231435,0.117206,-0.130798,0
2024-12-11 14:41:09.035,-0.579362,2.96381,10.0457,-0.218607,0.136143,-0.11064,0
2024-12-11 14:41:09.037,-0.63679,2.99013,10.0289,-0.218607,0.136143,-0.11064,0
2024-12-11 14:41:09.039,-0.684646,2.98295,10.005,-0.209444,0.144084,-0.100255,0
2024-12-11 14:41:09.041,-0.722932,2.97099,9.9691,-0.199671,0.150192,-0.085595,0
2024-12-11 14:41:09.044,-0.744467,2.97817,9.95953,-0.196006,0.153857,-0.0727672,0
2024-12-11 14:41:09.048,-0.737288,2.95663,9.9021,-0.186232,0.155079,-0.0483333,0
2024-12-11 14:41:09.049,-0.737288,2.95663,9.9021,-0.183789,0.153246,-0.0355055,0
2024-12-11 14:41:09.051,-0.739681,2.96381,9.88296,-0.183789,0.153246,-0.0355055,0
2024-12-11 14:41:09.055,-0.722932,2.97099,9.85903,-0.176459,0.150803,-0.0153475,0
2024-12-11 14:41:09.055,-0.722932,2.97099,9.85903,-0.176459,0.150803,-0.0153475,0
2024-12-11 14:41:09.060,-0.708575,3.02842,9.86142,-0.167296,0.143473,0.00664296,0
2024-12-11 14:41:09.060,-0.708575,3.02842,9.86142,-0.167296,0.143473,0.00664296,0
2024-12-11 14:41:09.065,-0.691825,3.11964,9.91885,-0.155079,0.131256,0.0249684,0
2024-12-11 14:41:09.065,-0.691825,3.11964,9.91885,-0.155079,0.131256,0.0249684,0
2024-12-11 14:41:09.067,-0.672682,3.15075,9.94278,-0.147749,0.125147,0.0316877,0
2024-12-11 14:41:09.070,-0.643968,3.18186,9.95474,-0.128812,0.107433,0.0469589,0
2024-12-11 14:41:09.072,-0.608076,3.20578,9.96192,-0.128812,0.107433,0.0469589,0
2024-12-11 14:41:09.075,-0.569791,3.22971,9.95953,-0.106211,0.0921616,0.0567324,0
2024-12-11 14:41:09.077,-0.519542,3.268,9.95713,-0.106211,0.0921616,0.0567324,0
2024-12-11 14:41:09.079,-0.474078,3.31346,9.95474,-0.0964375,0.082388,0.0591758,0
2024-12-11 14:41:09.081,-0.440578,3.35175,9.94278,-0.0829989,0.0726145,0.0603975,0
2024-12-11 14:41:09.083,-0.414257,3.38525,9.91885,-0.074447,0.0622301,0.0603975,0
2024-12-11 14:41:09.086,-0.395115,3.42832,9.89971,-0.0646735,0.0512348,0.0610084,0
2024-12-11 14:41:09.088,-0.395115,3.47617,9.8686,-0.0518457,0.0390179,0.0610084,0
2024-12-11 14:41:09.091,-0.409472,3.51924,9.82074,-0.0408504,0.0249684,0.0591758,0
2024-12-11 14:41:09.093,-0.407079,3.54796,9.77977,-0.0310769,0.0133623,0.0591758,0
2024-12-11 14:41:09.095,-0.411865,3.58146,9.74627,-0.0213033,0.00358873,0.058565,0
2024-12-11 14:41:09.098,-0.426222,3.63649,9.69362,-0.0115297,-0.0104608,0.0603975,0
2024-12-11 14:41:09.101,-0.45015,3.699,9.6362,0.00923906,-0.0318404,0.0597867,0
2024-12-11 14:41:09.102,-0.462114,3.7325,9.59073,0.00923906,-0.0318404,0.0597867,0
2024-12-11 14:41:09.105,-0.464507,3.75404,9.52613,0.0177909,-0.0428357,0.0591758,0
2024-12-11 14:41:09.107,-0.462114,3.78993,9.47588,0.0263428,-0.0538309,0.0610084,0
2024-12-11 14:41:09.112,-0.442971,3.84257,9.4017,0.0312296,-0.0764323,0.0616192,0
2024-12-11 14:41:09.112,-0.442971,3.84257,9.4017,0.0312296,-0.0764323,0.0616192,0
2024-12-11 14:41:09.114,-0.423829,3.8689,9.36341,0.0361163,-0.0917034,0.0610084,0
2024-12-11 14:41:09.117,-0.404686,3.90718,9.32513,0.0361163,-0.104531,0.0603975,0
2024-12-11 14:41:09.119,-0.390329,3.93829,9.28684,0.0361163,-0.11797,0.0610084,0
2024-12-11 14:41:09.121,-0.368794,3.96222,9.27009,0.0367272,-0.127743,0.0573433,0
2024-12-11 14:41:09.123,-0.352044,3.98375,9.2677,0.0348946,-0.13935,0.0561216,0
2024-12-11 14:41:09.126,-0.335294,4.00768,9.2677,0.0355055,-0.150345,0.0573433,0
2024-12-11 14:41:09.131,-0.282652,4.01725,9.35384,0.0342838,-0.165616,0.0494023,0
2024-12-11 14:41:09.132,-0.282652,4.01725,9.35384,0.0342838,-0.165616,0.0494023,0
2024-12-11 14:41:09.135,-0.27996,4.02682,9.4017,0.0367272,-0.178444,0.0445155,0
2024-12-11 14:41:09.135,-0.27996,4.02682,9.4017,0.0367272,-0.178444,0.0445155,0
2024-12-11 14:41:09.138,-0.265603,4.01486,9.44956,0.0361163,-0.179055,0.042683,0
2024-12-11 14:41:09.140,-0.241675,4.01007,9.48545,0.0391706,-0.181498,0.0396287,0
2024-12-11 14:41:09.143,-0.229711,4.00529,9.51416,0.0403923,-0.179665,0.0365745,0
2024-12-11 14:41:09.145,-0.222533,3.99811,9.54288,0.0440574,-0.177222,0.0365745,0
2024-12-11 14:41:09.148,-0.208176,3.99332,9.56441,0.0458899,-0.174779,0.0359636,0
2024-12-11 14:41:09.149,-0.205783,3.99571,9.57398,0.0465007,-0.172335,0.0347419,0
2024-12-11 14:41:09.152,-0.217747,3.99571,9.57638,0.0507767,-0.166838,0.0341311,0
2024-12-11 14:41:09.154,-0.22014,3.97897,9.5668,0.0507767,-0.162562,0.0341311,0
2024-12-11 14:41:09.156,-0.232104,3.95504,9.55005,0.0538309,-0.153399,0.0365745,0
2024-12-11 14:41:09.159,-0.224925,3.93829,9.5357,0.0544418,-0.148512,0.0377962,0
2024-12-11 14:41:09.163,-0.157926,3.92872,9.51655,0.0513875,-0.138128,0.0377962,0
2024-12-11 14:41:09.163,-0.157926,3.92872,9.51655,0.0513875,-0.138128,0.0377962,0
2024-12-11 14:41:09.168,-0.107677,3.88804,9.48066,0.049555,-0.125911,0.0371853,0
2024-12-11 14:41:09.169,-0.107677,3.88804,9.48066,0.0465007,-0.115526,0.0371853,0
2024-12-11 14:41:09.171,-0.0957129,3.89522,9.46631,0.0465007,-0.115526,0.0371853,0
2024-12-11 14:41:09.173,-0.0765703,3.88564,9.44716,0.0410031,-0.109418,0.0359636,0
2024-12-11 14:41:09.175,-0.0574277,3.88086,9.43281,0.0391706,-0.100866,0.0316877,0
2024-12-11 14:41:09.178,-0.0358923,3.87607,9.42563,0.0367272,-0.0910926,0.0298552,0
2024-12-11 14:41:09.181,-0.0167498,3.86411,9.41366,0.0281753,-0.0709346,0.0231358,0
2024-12-11 14:41:09.183,-0.00957129,3.8689,9.39931,0.0281753,-0.0709346,0.0231358,0
2024-12-11 14:41:09.185,-0.0119641,3.86411,9.38256,0.0245102,-0.0617719,0.0206925,0
2024-12-11 14:41:09.187,-0.00957129,3.84018,9.37299,0.0190126,-0.0550526,0.0164165,0
2024-12-11 14:41:09.189,0.0,3.82343,9.37059,0.0159584,-0.0434465,0.0127514,0
2024-12-11 14:41:09.192,-0.00478565,3.80668,9.35863,0.0110716,-0.0348946,0.00847551,0
2024-12-11 14:41:09.194,-0.00717847,3.79232,9.35624,0.00129805,-0.0281753,0.00419957,0
2024-12-11 14:41:09.196,-0.00478565,3.77318,9.35624,-0.00114534,-0.0171801,0.00175619,0
2024-12-11 14:41:09.200,-0.00717847,3.73729,9.33949,-0.0115297,0.00297788,-0.00374144,0
2024-12-11 14:41:09.201,-0.026321,3.71097,9.33709,-0.0115297,0.00297788,-0.00374144,0
2024-12-11 14:41:09.203,-0.0598206,3.69422,9.34666,-0.0158057,0.0127514,-0.00618483,0
2024-12-11 14:41:09.206,-0.100499,3.67268,9.34906,-0.022525,0.0194708,-0.00862822,0
2024-12-11 14:41:09.209,-0.150748,3.65115,9.34906,-0.0298552,0.0298552,-0.00374144,0
2024-12-11 14:41:09.212,-0.18664,3.62453,9.35145,-0.0329094,0.0341311,-0.0019089,0
2024-12-11 14:41:09.214,-0.222533,3.6006,9.37059,-0.0353528,0.0359636,0.000534491,0
2024-12-11 14:41:09.216,-0.246461,3.57428,9.38974,-0.0353528,0.0377962,0.00481042,0
2024-12-11 14:41:09.218,-0.267996,3.53839,9.39691,-0.0353528,0.0377962,0.00481042,0
2024-12-11 14:41:09.220,-0.304188,3.51446,9.40888,-0.038407,0.0377962,0.00725381,0
2024-12-11 14:41:09.223,-0.320937,3.5001,9.43759,-0.0353528,0.0371853,0.0139731,0
2024-12-11 14:41:09.226,-0.337687,3.48335,9.45673,-0.0335202,0.0335202,0.0231358,0
2024-12-11 14:41:09.227,-0.373579,3.47378,9.47348,-0.0335202,0.0335202,0.0231358,0
2024-12-11 14:41:09.230,-0.411865,3.46899,9.49502,-0.0280226,0.0316877,0.0280226,0
2024-12-11 14:41:09.232,-0.4334,3.45224,9.49741,-0.0213033,0.030466,0.0359636,0
2024-12-11 14:41:09.234,-0.435793,3.43789,9.49741,-0.0176382,0.0237467,0.0414613,0
2024-12-11 14:41:09.236,-0.435793,3.44267,9.49263,-0.0115297,0.0188599,0.0481806,0
2024-12-11 14:41:09.239,-0.45015,3.45703,9.48545,-0.00664296,0.0127514,0.0542891,0
2024-12-11 14:41:09.242,-0.442971,3.44507,9.48545,0.00374144,-0.00618483,0.0634518,0
2024-12-11 14:41:09.244,-0.423829,3.42114,9.47348,0.00374144,-0.00618483,0.0634518,0
2024-12-11 14:41:09.247,-0.407079,3.41635,9.45434,0.0165692,-0.0281753,0.0726145,0
2024-12-11 14:41:09.248,-0.378365,3.43789,9.44716,0.0165692,-0.0281753,0.0726145,0
2024-12-11 14:41:09.251,-0.34008,3.44985,9.42084,0.0171801,-0.0422248,0.074447,0
2024-12-11 14:41:09.253,-0.272782,3.44267,9.38256,0.0226777,-0.0544418,0.0768904,0
2024-12-11 14:41:09.255,-0.208176,3.44267,9.36102,0.0245102,-0.0660479,0.0781121,0
2024-12-11 14:41:09.258,-0.160319,3.44267,9.34188,0.0281753,-0.0764323,0.074447,0
2024-12-11 14:41:09.260,-0.148355,3.44985,9.33231,0.0287862,-0.0892601,0.0738362,0
2024-12-11 14:41:09.263,-0.129212,3.45942,9.31556,0.0287862,-0.0978119,0.0713928,0
2024-12-11 14:41:09.265,-0.102891,3.46421,9.31316,0.0281753,-0.104531,0.0671168,0
2024-12-11 14:41:09.267,-0.102891,3.47617,9.3347,0.0275645,-0.113083,0.0628409,0
2024-12-11 14:41:09.269,-0.0885344,3.48814,9.34188,0.029397,-0.115526,0.0597867,0
2024-12-11 14:41:09.274,-0.0933201,3.50489,9.3347,0.0287862,-0.118581,0.0567324,0
2024-12-11 14:41:09.274,-0.0933201,3.50489,9.3347,0.0287862,-0.118581,0.0567324,0
2024-12-11 14:41:09.276,-0.0909273,3.51446,9.31316,0.0275645,-0.113083,0.0567324,0
2024-12-11 14:41:09.279,-0.0933201,3.50249,9.28206,0.029397,-0.106975,0.0567324,0
2024-12-11 14:41:09.282,-0.124427,3.49053,9.24826,0.0269536,-0.0978119,0.0561216,0
2024-12-11 14:41:09.284,-0.155533,3.49292,9.2363,0.0232886,-0.0892601,0.0610084,0
2024-12-11 14:41:09.286,-0.172283,3.49292,9.21237,0.0171801,-0.0819299,0.0640626,0
2024-12-11 14:41:09.288,-0.177069,3.49292,9.18605,0.0129041,-0.0727672,0.0677277,0
2024-12-11 14:41:09.291,-0.18664,3.49771,9.16451,0.00679568,-0.0623828,0.0713928,0
2024-12-11 14:41:09.295,-0.208176,3.5336,9.1023,-0.00175619,-0.0532201,0.0768904,0
2024-12-11 14:41:09.298,-0.217747,3.54796,9.08076,-0.0176382,-0.0287862,0.0872748,0
2024-12-11 14:41:09.300,-0.224925,3.5671,9.06641,-0.0255792,-0.0147367,0.0933833,0
2024-12-11 14:41:09.300,-0.224925,3.5671,9.06641,-0.0255792,-0.0147367,0.0933833,0
2024-12-11 14:41:09.305,-0.260818,3.59342,9.04726,-0.0310769,-0.00251974,0.100713,0
2024-12-11 14:41:09.306,-0.260818,3.59342,9.04726,-0.0457372,0.0206925,0.113541,0
2024-12-11 14:41:09.307,-0.260818,3.60539,9.04008,-0.0457372,0.0206925,0.113541,0
2024-12-11 14:41:09.310,-0.251246,3.6341,9.04487,-0.050624,0.0316877,0.11965,0
2024-12-11 14:41:09.313,-0.236889,3.64876,9.05205,-0.0579541,0.0408504,0.126369,0
2024-12-11 14:41:09.314,-0.229711,3.65593,9.05923,-0.0597867,0.050624,0.131256,0
2024-12-11 14:41:09.318,-0.224925,3.66072,9.07837,-0.0640626,0.0561216,0.137364,0
2024-12-11 14:41:09.319,-0.217747,3.67029,9.09273,-0.0652843,0.0616192,0.14164,0
2024-12-11 14:41:09.321,-0.189033,3.68943,9.12623,-0.0640626,0.0652843,0.145916,0
2024-12-11 14:41:09.324,-0.143569,3.70858,9.17408,-0.066506,0.066506,0.149581,0
2024-12-11 14:41:09.326,-0.11007,3.72772,9.19562,-0.0634518,0.0652843,0.150803,0
2024-12-11 14:41:09.329,-0.081356,3.74925,9.21476,-0.050624,0.0640626,0.147749,0
2024-12-11 14:41:09.331,-0.0526421,3.7684,9.22912,-0.050624,0.0640626,0.147749,0
2024-12-11 14:41:09.333,-0.0311067,3.78515,9.23869,-0.0445155,0.0616192,0.146527,0
2024-12-11 14:41:09.336,-0.0334995,3.79711,9.2339,-0.0390179,0.0579541,0.144084,0
2024-12-11 14:41:09.338,-0.0311067,3.80429,9.22194,-0.0329094,0.0542891,0.141029,0
2024-12-11 14:41:09.341,-0.0191426,3.81147,9.21237,-0.0255792,0.0494023,0.136753,0
2024-12-11 14:41:09.342,-0.026321,3.82822,9.19083,-0.0194708,0.0432938,0.131867,0
2024-12-11 14:41:09.346,-0.0550349,3.83779,9.15733,-0.00725381,0.0255792,0.128812,0
2024-12-11 14:41:09.347,-0.0861416,3.84257,9.12144,-0.00725381,0.0255792,0.128812,0
2024-12-11 14:41:09.349,-0.114855,3.85932,9.07358,-0.00236703,0.0158057,0.124536,0
2024-12-11 14:41:09.352,-0.138784,3.86172,9.01616,-0.000534491,0.00358873,0.123315,0
2024-12-11 14:41:09.355,-0.138784,3.8689,8.96591,0.00374144,-0.021456,0.118428,0
2024-12-11 14:41:09.358,-0.119641,3.87847,8.92044,0.00129805,-0.037338,0.116595,0
2024-12-11 14:41:09.359,-0.100499,3.87368,8.88455,0.00129805,-0.037338,0.116595,0
2024-12-11 14:41:09.361,-0.0550349,3.88086,8.86302,0.000687203,-0.0507767,0.11293,0
2024-12-11 14:41:09.365,-0.00239282,3.88086,8.83191,-0.00603212,-0.0666587,0.108044,0
2024-12-11 14:41:09.366,0.0382852,3.87368,8.80798,-0.00725381,-0.0788757,0.101935,0
2024-12-11 14:41:09.368,0.0717847,3.88564,8.79602,-0.0133623,-0.0923143,0.0952158,0
2024-12-11 14:41:09.372,0.100499,3.88564,8.79841,-0.0188599,-0.102088,0.0854423,0
2024-12-11 14:41:09.374,0.119641,3.88564,8.81994,-0.0322986,-0.11797,0.0701711,0
2024-12-11 14:41:09.376,0.131605,3.89522,8.84387,-0.0322986,-0.11797,0.0701711,0
2024-12-11 14:41:09.378,0.133998,3.88325,8.87737,-0.0390179,-0.123468,0.0622301,0
2024-12-11 14:41:09.380,0.136391,3.88086,8.90369,-0.0457372,-0.125911,0.0561216,0
2024-12-11 14:41:09.382,0.141177,3.87607,8.9348,-0.0542891,-0.127743,0.0487914,0
2024-12-11 14:41:09.385,0.160319,3.86172,8.97308,-0.0597867,-0.128965,0.0414613,0
2024-12-11 14:41:09.388,0.177069,3.84736,9.00658,-0.0732253,-0.125911,0.0286335,0
2024-12-11 14:41:09.390,0.184247,3.82582,9.04248,-0.0732253,-0.125911,0.0286335,0
2024-12-11 14:41:09.393,0.20339,3.81147,9.08555,-0.0842206,-0.119192,0.0194708,0
2024-12-11 14:41:09.394,0.222533,3.7995,9.12383,-0.0842206,-0.119192,0.0194708,0
2024-12-11 14:41:09.397,0.229711,3.78275,9.15494,-0.0915507,-0.116137,0.0127514,0
2024-12-11 14:41:09.399,0.215354,3.76122,9.18365,-0.0988809,-0.111251,0.0109189,0
2024-12-11 14:41:09.402,0.189033,3.75404,9.20519,-0.108654,-0.0996445,0.00542127,0
2024-12-11 14:41:09.404,0.160319,3.73968,9.23151,-0.108654,-0.0996445,0.00542127,0
2024-12-11 14:41:09.406,0.129212,3.68943,9.26052,-0.115985,-0.093536,0.00542127,0
2024-12-11 14:41:09.409,0.112463,3.64606,9.29402,-0.120871,-0.0898709,0.00786466,0
2024-12-11 14:41:09.411,0.102891,3.61974,9.34666,-0.125758,-0.0831516,0.00847551,0
2024-12-11 14:41:09.413,0.0837488,3.6006,9.40888,-0.129423,-0.0764323,0.00786466,0
2024-12-11 14:41:09.415,0.0574277,3.5671,9.46391,-0.133699,-0.0660479,0.0115297,0
2024-12-11 14:41:09.418,0.0239282,3.54078,9.52134,-0.133699,-0.0599394,0.0170274,0
2024-12-11 14:41:09.420,0.00717847,3.52403,9.59073,-0.133699,-0.049555,0.0213033,0
2024-12-11 14:41:09.423,0.00239282,3.48814,9.64816,-0.131256,-0.0403923,0.0292443,0
2024-12-11 14:41:09.425,-0.0143569,3.46421,9.70319,-0.125147,-0.033673,0.0353528,0
2024-12-11 14:41:09.427,-0.0167498,3.45942,9.74866,-0.119039,-0.021456,0.0414613,0
2024-12-11 14:41:09.430,-0.0191426,3.43789,9.78694,-0.110487,-0.00984991,0.0487914,0
2024-12-11 14:41:09.432,-0.026321,3.42353,9.8013,-0.1056,-0.000687203,0.0530674,0
2024-12-11 14:41:09.434,-0.00478565,3.42353,9.79412,-0.0964375,0.00847551,0.0597867,0
2024-12-11 14:41:09.437,0.0119641,3.41396,9.79173,-0.0860531,0.0188599,0.0652843,0
2024-12-11 14:41:09.440,0.0334995,3.40917,9.77737,-0.0701711,0.0292443,0.074447,0
2024-12-11 14:41:09.441,0.0598206,3.42592,9.74148,-0.0701711,0.0292443,0.074447,0
2024-12-11 14:41:09.444,0.0717847,3.42114,9.70319,-0.0628409,0.030466,0.0787229,0
2024-12-11 14:41:09.446,0.081356,3.40917,9.66491,-0.0555107,0.0292443,0.0811663,0
2024-12-11 14:41:09.448,0.0933201,3.40678,9.60509,-0.050624,0.0274118,0.0817772,0
2024-12-11 14:41:09.451,0.107677,3.42832,9.56202,-0.0475697,0.0219141,0.0842206,0
2024-12-11 14:41:09.453,0.131605,3.44028,9.5333,-0.0451263,0.014584,0.0842206,0
2024-12-11 14:41:09.455,0.167498,3.43071,9.49981,-0.0414613,0.00664296,0.0848314,0
2024-12-11 14:41:09.459,0.200997,3.44507,9.48066,-0.0335202,-0.00862822,0.0811663,0
2024-12-11 14:41:09.460,0.222533,3.45942,9.47348,-0.0335202,-0.00862822,0.0811663,0
