timestamp,accel_x,accel_y,accel_z,gyro_x,gyro_y,gyro_z,step_timestamp
2024-12-11 14:27:43.012,0.119641,3.21775,8.61147,0.0770431,0.0316877,0.0182491,0
2024-12-11 14:27:43.014,0.107677,3.25843,8.51576,0.0703238,0.0335202,0.022525,0
2024-12-11 14:27:43.015,0.107677,3.25843,8.51576,0.0703238,0.0335202,0.022525,0
2024-12-11 14:27:43.018,0.107677,3.30628,8.41526,0.049555,0.0329094,0.0292443,0
2024-12-11 14:27:43.019,0.100499,3.3326,8.32912,0.049555,0.0329094,0.0292443,0
2024-12-11 14:27:43.022,0.081356,3.37567,8.25972,0.0391706,0.0310769,0.0316877,0
2024-12-11 14:27:43.024,0.0622134,3.42832,8.16401,0.021456,0.0268009,0.0329094,0
2024-12-11 14:27:43.024,0.0622134,3.42832,8.16401,0.021456,0.0268009,0.0329094,0
2024-12-11 14:27:43.029,0.0741775,3.50967,8.02254,-0.0170274,0.010308,0.0341311,0
2024-12-11 14:27:43.030,0.0526421,3.45464,8.08714,-0.0170274,-0.000687203,0.0359636,0
2024-12-11 14:27:43.032,0.102891,3.54796,7.96272,-0.0170274,-0.000687203,0.0359636,0
2024-12-11 14:27:43.033,0.133998,3.5671,7.91725,-0.0603975,-0.0122933,0.0329094,0
2024-12-11 14:27:43.037,0.133998,3.59342,7.91247,-0.111709,-0.0410031,0.0255792,0
2024-12-11 14:27:43.038,0.222533,3.62453,7.94836,-0.111709,-0.0410031,0.0255792,0
2024-12-11 14:27:43.040,0.267996,3.66551,7.98664,-0.137975,-0.0568851,0.0213033,0
2024-12-11 14:27:43.045,0.373579,3.69661,8.10868,-0.18501,-0.085595,0.00786466,0
2024-12-11 14:27:43.046,0.311366,3.68226,8.10868,-0.203336,-0.0984228,-0.00129805,0
2024-12-11 14:27:43.050,0.431007,3.71575,8.3028,-0.222883,-0.108807,-0.00984991,0
2024-12-11 14:27:43.052,0.529113,3.72772,8.42244,-0.222883,-0.108807,-0.00984991,0
2024-12-11 14:27:43.057,0.593719,3.72533,8.64018,-0.261366,-0.138128,-0.0355055,0
2024-12-11 14:27:43.058,0.593719,3.72533,8.64018,-0.27114,-0.146069,-0.0428357,0
2024-12-11 14:27:43.059,0.634397,3.71097,8.71466,-0.27114,-0.146069,-0.0428357,0
2024-12-11 14:27:43.060,0.634397,3.71097,8.71466,-0.281524,-0.15401,-0.0519984,0
2024-12-11 14:27:43.064,0.696611,3.67029,8.86302,-0.281524,-0.15401,-0.0519984,0
2024-12-11 14:27:43.065,0.696611,3.67029,8.86302,-0.301682,-0.168059,-0.0636045,0
2024-12-11 14:27:43.071,0.73011,3.58864,9.19322,-0.310845,-0.180276,-0.0752106,0
2024-12-11 14:27:43.072,0.73011,3.58864,9.19322,-0.310845,-0.180276,-0.0752106,0
2024-12-11 14:27:43.076,0.722932,3.59581,9.48545,-0.312677,-0.181498,-0.081319,0
2024-12-11 14:27:43.077,0.722932,3.59581,9.48545,-0.312677,-0.181498,-0.081319,0
2024-12-11 14:27:43.080,0.63679,3.63171,9.7343,-0.30046,-0.16867,-0.0794865,0
2024-12-11 14:27:43.085,0.521934,3.70618,9.9667,-0.276027,-0.14668,-0.0697129,0
2024-12-11 14:27:43.088,0.521934,3.75643,10.0433,-0.260145,-0.130798,-0.0642153,0
2024-12-11 14:27:43.091,0.364008,3.78993,10.0863,-0.244873,-0.102088,-0.0385597,0
2024-12-11 14:27:43.093,0.297009,3.82104,10.1055,-0.213109,-0.0880384,-0.0238994,0
2024-12-11 14:27:43.097,0.165105,3.95504,10.0792,-0.213109,-0.0880384,-0.0238994,0
2024-12-11 14:27:43.099,0.122034,4.02204,10.0265,-0.1844,-0.0629936,0.00481042,0
2024-12-11 14:27:43.100,0.122034,4.02204,10.0265,-0.1844,-0.0629936,0.00481042,0
2024-12-11 14:27:43.104,0.0574277,4.15125,9.89013,-0.163631,-0.0428357,0.0371853,0
2024-12-11 14:27:43.104,0.0574277,4.15125,9.89013,-0.163631,-0.0428357,0.0371853,0
2024-12-11 14:27:43.109,0.0693919,4.31187,9.71277,-0.151414,-0.0324513,0.0677277,0
2024-12-11 14:27:43.113,0.141177,4.47697,9.51416,-0.156301,-0.0361163,0.0878856,0
2024-12-11 14:27:43.117,0.189033,4.57508,9.44238,-0.16302,-0.041614,0.0952158,0
2024-12-11 14:27:43.119,0.258425,4.65165,9.36102,-0.183789,-0.0599394,0.101324,0
2024-12-11 14:27:43.120,0.342473,4.69711,9.27009,-0.183789,-0.0599394,0.101324,0
2024-12-11 14:27:43.120,0.342473,4.69711,9.27009,-0.183789,-0.0599394,0.101324,0
2024-12-11 14:27:43.127,0.318545,4.82662,8.99701,-0.183789,-0.0599394,0.101324,0
2024-12-11 14:27:43.146,1.26879,4.78834,9.80609,-0.425073,-0.249913,0.00847551,0
2024-12-11 14:27:43.146,1.26879,4.78834,9.80609,-0.425073,-0.249913,0.00847551,0
2024-12-11 14:27:43.151,1.33819,4.77637,10.139,-0.437901,-0.245026,-0.0361163,0
2024-12-11 14:27:43.154,1.34776,4.74736,10.2706,-0.438512,-0.234031,-0.0587177,0
2024-12-11 14:27:43.157,1.35254,4.70429,10.3953,-0.439123,-0.223646,-0.0794865,0
2024-12-11 14:27:43.161,1.28794,4.56072,10.6633,-0.433625,-0.207764,-0.116137,0
2024-12-11 14:27:43.161,1.28794,4.56072,10.6633,-0.433625,-0.207764,-0.116137,0
2024-12-11 14:27:43.165,1.12044,4.43151,10.9002,-0.396364,-0.152788,-0.14668,0
2024-12-11 14:27:43.169,1.01037,4.37408,11.0178,-0.396364,-0.152788,-0.14668,0
2024-12-11 14:27:43.172,0.751645,4.28555,11.1685,-0.328559,-0.0721563,-0.163173,0
2024-12-11 14:27:43.176,0.62004,4.22094,11.2092,-0.266253,-0.013515,-0.15401,0
2024-12-11 14:27:43.177,0.478864,4.17039,11.2164,-0.266253,-0.013515,-0.15401,0
2024-12-11 14:27:43.180,0.478864,4.12253,11.1661,-0.2351,0.014584,-0.145458,0
2024-12-11 14:27:43.182,0.200997,4.06989,11.068,-0.2351,0.014584,-0.145458,0
2024-12-11 14:27:43.186,-0.0143569,4.00768,10.8404,-0.17035,0.0634518,-0.114916,0
2024-12-11 14:27:43.189,-0.0837488,3.96222,10.6896,-0.113541,0.101935,-0.0807082,0
2024-12-11 14:27:43.189,-0.0837488,3.96222,10.6896,-0.113541,0.101935,-0.0807082,0
2024-12-11 14:27:43.194,-0.196211,3.92632,10.4169,-0.113541,0.101935,-0.0807082,0
2024-12-11 14:27:43.196,-0.222533,3.90718,10.2754,-0.0652843,0.131256,-0.0428357,0
2024-12-11 14:27:43.200,-0.239282,3.9,9.98824,-0.00481042,0.158133,0.00786466,0
2024-12-11 14:27:43.201,-0.239282,3.9,9.98824,-0.00481042,0.158133,0.00786466,0
2024-12-11 14:27:43.206,-0.198604,3.89761,9.71037,0.0397814,0.172183,0.0457372,0
2024-12-11 14:27:43.208,-0.174676,3.91675,9.57877,0.0397814,0.172183,0.0457372,0
2024-12-11 14:27:43.212,-0.0741775,3.91436,9.31316,0.0581068,0.177069,0.0610084,0
2024-12-11 14:27:43.213,-0.122034,3.91436,9.31316,0.0581068,0.177069,0.0610084,0
2024-12-11 14:27:43.217,0.00478565,3.91675,9.0688,0.0739889,0.181345,0.0713928,0
2024-12-11 14:27:43.219,0.00478565,3.91675,8.95155,0.081319,0.182567,0.0713928,0
2024-12-11 14:27:43.219,0.0311067,3.92154,8.95155,0.081319,0.182567,0.0713928,0
2024-12-11 14:27:43.224,0.0454636,3.9335,8.72184,0.081319,0.182567,0.0713928,0
2024-12-11 14:27:43.226,0.0574277,3.93589,8.6019,0.0923143,0.186232,0.0768904,0
2024-12-11 14:27:43.229,0.0693919,3.92154,8.49422,0.0923143,0.186232,0.0768904,0
2024-12-11 14:27:43.233,0.0933201,3.87847,8.2669,0.0953685,0.18501,0.0756687,0
2024-12-11 14:27:43.234,0.0837488,3.9,8.37697,0.0953685,0.18501,0.0756687,0
2024-12-11 14:27:43.239,0.0191426,3.90479,8.08953,0.0953685,0.180734,0.0750579,0
2024-12-11 14:27:43.241,-0.0143569,3.90718,8.01057,0.0953685,0.180734,0.0750579,0
2024-12-11 14:27:43.243,-0.0478565,3.91675,7.92682,0.0904818,0.167907,0.0787229,0
2024-12-11 14:27:43.245,-0.0717847,3.9335,7.84068,0.0904818,0.165463,0.0805555,0
2024-12-11 14:27:43.248,-0.0957129,3.94547,7.7689,0.0868167,0.16302,0.0836097,0
2024-12-11 14:27:43.251,-0.114855,3.93829,7.7019,0.0868167,0.16302,0.0836097,0
2024-12-11 14:27:43.255,-0.0550349,3.85693,7.60379,0.0764323,0.14897,0.0964375,0
2024-12-11 14:27:43.255,-0.0550349,3.85693,7.60379,0.0764323,0.14897,0.0964375,0
2024-12-11 14:27:43.259,-0.0765703,3.85693,7.56282,0.0703238,0.142251,0.0933833,0
2024-12-11 14:27:43.259,-0.0765703,3.85693,7.56282,0.0703238,0.142251,0.0933833,0
2024-12-11 14:27:43.265,-0.258425,3.95264,7.45514,0.0623828,0.145305,0.1056,0
2024-12-11 14:27:43.266,-0.234497,3.95264,7.42403,0.0623828,0.145305,0.1056,0
2024-12-11 14:27:43.269,-0.244068,3.96222,7.38814,0.0532201,0.140419,0.119039,0
2024-12-11 14:27:43.271,-0.304188,3.97418,7.35464,0.0513875,0.135532,0.12698,0
2024-12-11 14:27:43.276,-0.311366,3.95504,7.30918,0.0391706,0.121482,0.147138,0
2024-12-11 14:27:43.278,-0.270389,3.93111,7.29243,0.0391706,0.121482,0.147138,0
2024-12-11 14:27:43.281,-0.229711,3.87607,7.24696,0.0269536,0.107433,0.161187,0
2024-12-11 14:27:43.284,-0.208176,3.83779,7.18714,0.0110716,0.0988809,0.174015,0
2024-12-11 14:27:43.288,-0.198604,3.833,7.14886,0.00496313,0.0939941,0.178902,0
2024-12-11 14:27:43.288,-0.205783,3.84497,7.1345,0.00496313,0.0939941,0.178902,0
2024-12-11 14:27:43.292,-0.236889,3.85693,7.09861,-0.0164165,0.0836097,0.192341,0
2024-12-11 14:27:43.293,-0.236889,3.85693,7.09861,-0.0164165,0.0836097,0.192341,0
2024-12-11 14:27:43.297,-0.246461,3.88564,7.07946,-0.0359636,0.0720036,0.208223,0
2024-12-11 14:27:43.299,-0.229711,3.89761,7.08425,-0.0359636,0.0720036,0.208223,0
2024-12-11 14:27:43.302,-0.193819,3.89761,7.07946,-0.0610084,0.0579541,0.22105,0
2024-12-11 14:27:43.302,-0.193819,3.89761,7.07946,-0.0610084,0.0579541,0.22105,0
2024-12-11 14:27:43.307,-0.12682,3.90239,7.05793,-0.0848314,0.0432938,0.232046,0
2024-12-11 14:27:43.311,-0.0191426,3.92154,7.10579,-0.11293,0.0322986,0.239376,0
2024-12-11 14:27:43.311,-0.0191426,3.92154,7.10579,-0.11293,0.0322986,0.239376,0
2024-12-11 14:27:43.315,0.0334995,3.93829,7.12254,-0.136753,0.0188599,0.243652,0
2024-12-11 14:27:43.318,0.0909273,3.95264,7.21825,-0.147749,0.0127514,0.244263,0
2024-12-11 14:27:43.322,0.124427,3.96222,7.25893,-0.147749,0.0127514,0.244263,0
2024-12-11 14:27:43.323,0.124427,3.96222,7.2996,-0.170961,0.00419957,0.245484,0
2024-12-11 14:27:43.326,0.153141,3.98136,7.34746,-0.190508,-0.000687203,0.246706,0
2024-12-11 14:27:43.328,0.234497,3.98375,7.4001,-0.190508,-0.000687203,0.246706,0
2024-12-11 14:27:43.330,0.275175,3.97657,7.45753,-0.199671,-0.00374144,0.247928,0
2024-12-11 14:27:43.336,0.316152,3.98375,7.60618,-0.213109,-0.00313059,0.252204,0
2024-12-11 14:27:43.338,0.316152,3.98375,7.60618,-0.22105,-0.000687203,0.260755,0
2024-12-11 14:27:43.340,0.342473,3.97179,7.75215,-0.22105,-0.000687203,0.260755,0
2024-12-11 14:27:43.343,0.342473,3.97179,7.84307,-0.22777,0.00786466,0.272362,0
2024-12-11 14:27:43.345,0.366401,3.99093,7.934,-0.22777,0.00786466,0.272362,0
2024-12-11 14:27:43.349,0.373579,4.01486,8.02971,-0.222272,0.0200816,0.2858,0
2024-12-11 14:27:43.349,0.385544,4.02921,8.11825,-0.222272,0.0200816,0.2858,0
2024-12-11 14:27:43.351,0.385544,4.02921,8.18076,-0.217996,0.030466,0.29313,0
2024-12-11 14:27:43.356,0.459721,4.04596,8.28365,-0.20639,0.0536782,0.309012,0
2024-12-11 14:27:43.358,0.488435,4.03879,8.31954,-0.20639,0.0536782,0.309012,0
2024-12-11 14:27:43.359,0.488435,4.03879,8.31954,-0.19173,0.0762796,0.323062,0
2024-12-11 14:27:43.362,0.529113,4.05314,8.32672,-0.19173,0.0762796,0.323062,0
2024-12-11 14:27:43.366,0.658325,4.0675,8.33151,-0.178902,0.0933833,0.33589,0
2024-12-11 14:27:43.368,0.694218,4.07468,8.33151,-0.175848,0.101324,0.340776,0
2024-12-11 14:27:43.370,0.720539,4.08425,8.31715,-0.172793,0.109265,0.34322,0
2024-12-11 14:27:43.372,0.74686,4.101,8.30519,-0.170961,0.116595,0.348107,0
2024-12-11 14:27:43.377,0.751645,4.14886,8.31237,-0.167296,0.129423,0.352383,0
2024-12-11 14:27:43.380,0.739681,4.18235,8.29083,-0.167296,0.129423,0.352383,0
2024-12-11 14:27:43.382,0.725324,4.24008,8.28126,-0.168517,0.142862,0.357269,0
2024-12-11 14:27:43.382,0.725324,4.24008,8.28126,-0.168517,0.142862,0.357269,0
2024-12-11 14:27:43.387,0.718146,4.3334,8.28365,-0.171572,0.157522,0.360934,0
2024-12-11 14:27:43.391,0.701396,4.43629,8.25972,-0.178902,0.167296,0.359102,0
2024-12-11 14:27:43.391,0.701396,4.43629,8.25972,-0.178902,0.167296,0.359102,0
2024-12-11 14:27:43.392,0.701396,4.43629,8.25972,-0.178902,0.167296,0.359102,0
2024-12-11 14:27:43.396,0.689432,4.54876,8.21665,-0.188675,0.171572,0.356048,0
2024-12-11 14:27:43.398,0.670289,4.59661,8.18794,-0.197838,0.170961,0.353604,0
2024-12-11 14:27:43.402,0.667897,4.64447,8.19273,-0.22044,0.164242,0.348717,0
2024-12-11 14:27:43.403,0.675075,4.68993,8.23819,-0.22044,0.164242,0.348717,0
2024-12-11 14:27:43.406,0.682254,4.73061,8.27887,-0.22044,0.164242,0.348717,0
2024-12-11 14:27:43.409,0.694218,4.75693,8.30997,-0.261366,0.145916,0.332225,0
2024-12-11 14:27:43.412,0.701396,4.78355,8.44397,-0.277248,0.136143,0.328559,0
2024-12-11 14:27:43.416,0.694218,4.81944,8.56601,-0.304736,0.117206,0.313288,0
2024-12-11 14:27:43.417,0.660718,4.84816,8.69283,-0.304736,0.117206,0.313288,0
2024-12-11 14:27:43.420,0.63679,4.85773,8.82234,-0.304736,0.106822,0.309623,0
2024-12-11 14:27:43.424,0.629611,4.93909,9.09751,-0.33589,0.0842206,0.297406,0
2024-12-11 14:27:43.424,0.629611,4.93909,9.09751,-0.33589,0.0842206,0.297406,0
2024-12-11 14:27:43.429,0.615255,4.94626,9.27488,-0.353604,0.050624,0.290076,0
2024-12-11 14:27:43.429,0.608076,4.95344,9.44716,-0.353604,0.050624,0.290076,0
2024-12-11 14:27:43.431,0.622433,4.94148,9.62184,-0.35788,0.0322986,0.2858,0
2024-12-11 14:27:43.434,0.627219,4.91755,9.81566,-0.362767,0.0139731,0.281524,0
2024-12-11 14:27:43.438,0.624826,4.89123,10.0122,-0.367043,-0.021456,0.272362,0
2024-12-11 14:27:43.439,0.617647,4.87926,10.2203,-0.367043,-0.021456,0.272362,0
2024-12-11 14:27:43.443,0.600898,4.8673,10.704,-0.36521,-0.049555,0.265642,0
2024-12-11 14:27:43.445,0.600898,4.83141,10.9337,-0.36521,-0.049555,0.265642,0
2024-12-11 14:27:43.448,0.574577,4.81944,11.1565,-0.345663,-0.0764323,0.264421,0
2024-12-11 14:27:43.450,0.545863,4.8338,11.3934,-0.332225,-0.085595,0.263199,0
2024-12-11 14:27:43.455,0.56022,4.88405,11.846,-0.293741,-0.0923143,0.259534,0
2024-12-11 14:27:43.457,0.548256,4.89841,12.0541,-0.269307,-0.0898709,0.258923,0
2024-12-11 14:27:43.461,0.531506,4.90559,12.2219,-0.269307,-0.0898709,0.258923,0
2024-12-11 14:27:43.462,0.519542,4.89601,12.344,-0.216164,-0.0819299,0.25709,0
2024-12-11 14:27:43.464,0.519542,4.88405,12.4253,-0.185621,-0.0727672,0.258312,0
2024-12-11 14:27:43.468,0.533899,4.88405,12.4612,-0.130034,-0.0440574,0.260145,0
2024-12-11 14:27:43.470,0.533899,4.87448,12.4971,-0.101935,-0.0263428,0.26381,0
2024-12-11 14:27:43.471,0.545863,4.85534,12.5091,-0.101935,-0.0263428,0.26381,0
2024-12-11 14:27:43.476,0.579362,4.83859,12.4493,-0.058565,0.00786466,0.271751,0
2024-12-11 14:27:43.477,0.610469,4.83859,12.4493,-0.058565,0.00786466,0.271751,0
2024-12-11 14:27:43.481,0.655932,4.8673,12.3607,-0.0255792,0.0396287,0.277859,0
2024-12-11 14:27:43.481,0.655932,4.8673,12.3607,-0.0255792,0.0396287,0.277859,0
2024-12-11 14:27:43.485,0.689432,4.92473,12.2578,-0.00236703,0.0726145,0.287633,0
2024-12-11 14:27:43.488,0.706182,4.95344,12.2172,-0.00236703,0.0726145,0.293741,0
2024-12-11 14:27:43.490,0.734896,4.99412,12.1789,0.0110716,0.1056,0.298628,0
2024-12-11 14:27:43.495,0.777966,5.05633,12.1454,0.0196235,0.138586,0.307791,0
2024-12-11 14:27:43.497,0.777966,5.05633,12.1334,0.0196235,0.138586,0.307791,0
2024-12-11 14:27:43.497,0.789931,5.09701,12.1334,0.0196235,0.138586,0.307791,0
2024-12-11 14:27:43.502,0.835394,5.1688,12.1454,0.0263428,0.186232,0.322451,0
2024-12-11 14:27:43.505,0.835394,5.20947,12.1502,0.029397,0.215553,0.330392,0
2024-12-11 14:27:43.507,0.833001,5.27169,12.1693,0.029397,0.215553,0.330392,0
2024-12-11 14:27:43.509,0.82343,5.33181,12.186,0.0318404,0.230824,0.334057,0
2024-12-11 14:27:43.514,0.770788,5.46341,12.253,0.0403923,0.254036,0.339555,0
2024-12-11 14:27:43.515,0.80668,5.46341,12.253,0.0403923,0.254036,0.339555,0
2024-12-11 14:27:43.519,0.706182,5.5998,12.2842,0.0471116,0.27847,0.346274,0
2024-12-11 14:27:43.521,0.696611,5.6668,12.3009,0.057496,0.287022,0.347496,0
2024-12-11 14:27:43.523,0.701396,5.72662,12.3009,0.065437,0.294352,0.35055,0
2024-12-11 14:27:43.529,0.706182,5.82234,12.2554,0.0800973,0.305347,0.352993,0
2024-12-11 14:27:43.529,0.706182,5.82234,12.2554,0.0800973,0.305347,0.352993,0
2024-12-11 14:27:43.530,0.73011,5.83909,12.198,0.0800973,0.305347,0.352993,0
2024-12-11 14:27:43.536,0.789931,5.8678,12.1382,0.0794865,0.289465,0.348107,0
2024-12-11 14:27:43.537,0.871586,5.89203,12.1406,0.0794865,0.289465,0.348107,0
2024-12-11 14:27:43.540,0.905085,5.91596,12.1741,0.0794865,0.289465,0.348107,0
2024-12-11 14:27:43.541,0.871586,5.91596,12.1741,0.0794865,0.289465,0.348107,0
2024-12-11 14:27:43.544,0.979263,5.94228,12.2483,0.0721563,0.254036,0.329781,0
2024-12-11 14:27:43.548,1.02233,5.94228,12.3416,0.0745997,0.227159,0.311456,0
2024-12-11 14:27:43.549,1.05823,5.94228,12.454,0.0745997,0.227159,0.311456,0
2024-12-11 14:27:43.551,1.08215,5.9327,12.5665,0.0745997,0.227159,0.311456,0
2024-12-11 14:27:43.557,1.13719,5.89921,12.8109,0.0953685,0.197838,0.281524,0
2024-12-11 14:27:43.558,1.13719,5.89921,12.8109,0.10392,0.191119,0.27114,0
2024-12-11 14:27:43.561,1.12762,5.83909,13.0095,0.10392,0.191119,0.27114,1
2024-12-11 14:27:43.562,1.12762,5.83909,13.0095,0.135074,0.183178,0.252204,0
2024-12-11 14:27:43.566,1.06062,5.84148,13.1722,0.154621,0.183789,0.244263,0
2024-12-11 14:27:43.567,1.06062,5.84148,13.1722,0.176611,0.189897,0.236932,0
2024-12-11 14:27:43.570,0.936192,5.83669,13.2371,0.196158,0.19906,0.232046,0
2024-12-11 14:27:43.570,0.936192,5.83669,13.2371,0.196158,0.19906,0.232046,0
2024-12-11 14:27:43.576,0.715753,5.87737,13.1698,0.236474,0.230824,0.230213,0
2024-12-11 14:27:43.580,0.481256,5.92313,12.9855,0.271293,0.268086,0.234489,0
2024-12-11 14:27:43.580,0.481256,5.92313,12.9855,0.271293,0.268086,0.234489,0
2024-12-11 14:27:43.584,0.308973,5.98295,12.696,0.29084,0.310234,0.24243,0
2024-12-11 14:27:43.585,0.383151,5.95185,12.8492,0.29084,0.310234,0.24243,0
2024-12-11 14:27:43.587,0.251246,6.0021,12.5115,0.296948,0.326727,0.246706,0
2024-12-11 14:27:43.592,0.20339,5.99253,12.119,0.287785,0.351772,0.249149,0
2024-12-11 14:27:43.594,0.172283,5.98056,11.9225,0.287785,0.351772,0.249149,0
2024-12-11 14:27:43.597,0.160319,5.96381,11.7455,0.26213,0.364599,0.24243,0
2024-12-11 14:27:43.600,0.16989,5.93749,11.5971,0.215705,0.362767,0.222272,0
2024-12-11 14:27:43.601,0.229711,5.87498,11.458,0.215705,0.362767,0.222272,0
2024-12-11 14:27:43.603,0.301795,5.79841,11.324,0.191272,0.356658,0.208833,0
2024-12-11 14:27:43.606,0.368794,5.70509,11.2187,0.16134,0.342609,0.192341,0
2024-12-11 14:27:43.611,0.569791,5.43709,11.0513,0.0941468,0.264421,0.123926,0
2024-12-11 14:27:43.613,0.682254,5.26212,11.0034,0.0941468,0.264421,0.123926,0
2024-12-11 14:27:43.614,0.682254,5.26212,11.0034,0.0941468,0.264421,0.123926,0
2024-12-11 14:27:43.617,0.940978,4.85773,11.0369,-0.0164165,0.188675,0.0646735,0
2024-12-11 14:27:43.620,1.0678,4.64208,11.1206,-0.0164165,0.188675,0.0646735,0
2024-12-11 14:27:43.622,1.18744,4.41476,11.2499,-0.0848314,0.111709,-0.0019089,0
2024-12-11 14:27:43.624,1.30469,4.15843,11.4628,-0.111709,0.0768904,-0.0391706,0
2024-12-11 14:27:43.627,1.39801,3.90479,11.7096,-0.130034,0.046348,-0.0739889,0
2024-12-11 14:27:43.631,1.43659,3.40439,12.21,-0.130034,0.046348,-0.0739889,0
2024-12-11 14:27:43.631,1.43659,3.40439,12.21,-0.130034,0.046348,-0.0739889,0
2024-12-11 14:27:43.637,1.29033,2.89442,12.7319,-0.118428,-0.00251974,-0.206543,0
2024-12-11 14:27:43.639,1.21137,2.65992,13.0358,-0.0891073,0.0115297,-0.231587,0
2024-12-11 14:27:43.641,1.14676,2.41316,13.3352,-0.0891073,0.0115297,-0.231587,0
2024-12-11 14:27:43.644,1.0654,2.18824,13.5769,0.0825407,0.0933833,-0.298781,0
2024-12-11 14:27:43.646,0.933799,1.96062,13.7468,0.0825407,0.0933833,-0.298781,0
2024-12-11 14:27:43.649,0.732503,1.73569,13.8284,0.237696,0.144694,-0.321993,0
2024-12-11 14:27:43.650,0.483649,1.53709,13.8117,0.237696,0.144694,-0.321993,0
2024-12-11 14:27:43.655,0.00239282,1.13719,13.5266,0.402625,0.199671,-0.32749,0
2024-12-11 14:27:43.655,0.00239282,1.13719,13.5266,0.402625,0.199671,-0.32749,0
2024-12-11 14:27:43.660,-0.411865,0.804287,13.1004,0.577938,0.266253,-0.31283,0
2024-12-11 14:27:43.661,-0.411865,0.804287,13.1004,0.577938,0.266253,-0.31283,0
2024-12-11 14:27:43.664,-0.859622,0.531506,12.5426,0.747143,0.323673,-0.276179,0
2024-12-11 14:27:43.667,-1.08215,0.445364,12.1932,0.747143,0.323673,-0.276179,0
2024-12-11 14:27:43.669,-1.2999,0.366401,11.7861,0.903519,0.355437,-0.224868,0
2024-12-11 14:27:43.672,-1.2999,0.366401,11.336,0.972545,0.360324,-0.193104,0
2024-12-11 14:27:43.674,-1.69023,0.258425,10.8619,1.02996,0.360934,-0.158897,0
2024-12-11 14:27:43.676,-1.86012,0.236889,10.3759,1.08128,0.352993,-0.123468,0
2024-12-11 14:27:43.680,-1.9992,0.241675,9.89731,1.14786,0.318175,-0.0526092,0
2024-12-11 14:27:43.681,-2.12124,0.256032,9.41366,1.14786,0.318175,-0.0526092,0
2024-12-11 14:27:43.686,-2.22652,0.292223,8.94198,1.17351,0.268086,0.0151948,0
2024-12-11 14:27:43.689,-2.33659,0.368794,8.08714,1.15763,0.200892,0.0762796,0
2024-12-11 14:27:43.690,-2.35334,0.435793,7.70668,1.15763,0.200892,0.0762796,0
2024-12-11 14:27:43.693,-2.36531,0.495613,7.369,1.15763,0.200892,0.0762796,0
2024-12-11 14:27:43.695,-2.37248,0.567398,7.07229,1.10388,0.127591,0.127591,0
2024-12-11 14:27:43.697,-2.36291,0.648754,6.80878,1.06478,0.086664,0.152635,0
2024-12-11 14:27:43.702,-2.29352,0.775574,6.42323,0.96888,0.0096972,0.190508,0
2024-12-11 14:27:43.703,-2.29352,0.775574,6.42323,0.96888,0.0096972,0.190508,0
2024-12-11 14:27:43.707,-2.20499,0.919442,6.19352,0.854652,-0.0672696,0.219218,0
2024-12-11 14:27:43.708,-2.20499,0.919442,6.19352,0.854652,-0.0672696,0.219218,0
2024-12-11 14:27:43.713,-2.11884,0.984048,6.12413,0.731261,-0.137517,0.237543,0
2024-12-11 14:27:43.713,-2.01835,1.03908,6.08824,0.731261,-0.137517,0.237543,0
2024-12-11 14:27:43.716,-1.73809,1.11805,6.17677,0.602983,-0.198602,0.247317,0
2024-12-11 14:27:43.717,-1.73809,1.11805,6.17677,0.602983,-0.198602,0.247317,0
2024-12-11 14:27:43.721,-1.33101,1.14676,6.48335,0.476537,-0.253578,0.241819,0
2024-12-11 14:27:43.722,-1.33101,1.14676,6.48335,0.476537,-0.253578,0.241819,0
2024-12-11 14:27:43.727,-0.914656,1.18265,6.91406,0.320771,-0.292672,0.200892,0
2024-12-11 14:27:43.728,-0.725324,1.1659,7.14646,0.320771,-0.292672,0.200892,0
2024-12-11 14:27:43.730,-0.569791,1.15872,7.37139,0.320771,-0.292672,0.200892,0
2024-12-11 14:27:43.733,-0.457328,1.17069,7.5676,0.246859,-0.294505,0.158744,0
2024-12-11 14:27:43.738,-0.366401,1.15633,7.92922,0.185163,-0.284731,0.11232,0
2024-12-11 14:27:43.740,-0.285045,1.15633,7.92922,0.185163,-0.284731,0.11232,0
2024-12-11 14:27:43.742,-0.184247,1.11326,8.21905,0.137517,-0.267017,0.0628409,0
2024-12-11 14:27:43.745,-0.145962,1.07258,8.34108,0.117359,-0.257854,0.0390179,0
2024-12-11 14:27:43.747,-0.114855,1.03908,8.47986,0.105753,-0.246248,0.014584,0
2024-12-11 14:27:43.750,-0.0909273,0.998405,8.59951,0.0831516,-0.219981,-0.0312296,0
2024-12-11 14:27:43.753,-0.066999,0.950549,8.69043,0.0721563,-0.203488,-0.0507767,0
2024-12-11 14:27:43.754,-0.0765703,0.912264,8.76012,0.0721563,-0.203488,-0.0507767,0
2024-12-11 14:27:43.759,-0.174676,0.818644,8.81277,0.0544418,-0.171724,-0.0886492,0
2024-12-11 14:27:43.761,-0.174676,0.818644,8.81277,0.0458899,-0.152177,-0.101477,0
2024-12-11 14:27:43.763,-0.246461,0.770788,8.82473,0.037338,-0.133852,-0.110029,0
2024-12-11 14:27:43.766,-0.342473,0.749253,8.82952,0.037338,-0.133852,-0.110029,0
2024-12-11 14:27:43.768,-0.385544,0.725324,8.81277,0.0165692,-0.0972011,-0.125911,0
2024-12-11 14:27:43.771,-0.385544,0.725324,8.81277,0.0165692,-0.0972011,-0.125911,0
2024-12-11 14:27:43.773,-0.426222,0.696611,8.7362,-0.00481042,-0.0593285,-0.135684,0
2024-12-11 14:27:43.778,-0.447757,0.687039,8.68804,-0.0329094,-0.0177909,-0.13935,0
2024-12-11 14:27:43.778,-0.447757,0.687039,8.68804,-0.0329094,-0.0177909,-0.13935,0
2024-12-11 14:27:43.781,-0.483649,0.703789,8.67847,-0.046348,0.00297788,-0.142404,0
2024-12-11 14:27:43.785,-0.565005,0.768395,8.64736,-0.0756687,0.0518457,-0.144236,0
2024-12-11 14:27:43.787,-0.608076,0.797109,8.62822,-0.0756687,0.0518457,-0.144236,0
2024-12-11 14:27:43.790,-0.658325,0.821037,8.60908,-0.0976592,0.109876,-0.145458,0
2024-12-11 14:27:43.793,-0.727717,0.85005,8.59472,-0.0976592,0.109876,-0.145458,0
2024-12-11 14:27:43.796,-0.895514,0.929013,8.5349,-0.114763,0.175848,-0.138128,0
2024-12-11 14:27:43.802,-1.0678,0.97687,8.41287,-0.137364,0.301071,-0.106975,0
2024-12-11 14:27:43.803,-1.14915,1.01276,8.36262,-0.137364,0.301071,-0.106975,0
2024-12-11 14:27:43.806,-1.22094,1.05344,8.31715,-0.142251,0.32917,-0.0929251,0
2024-12-11 14:27:43.811,-1.37647,1.11805,8.2023,-0.145305,0.383536,-0.0599394,0
2024-12-11 14:27:43.813,-1.40788,1.1683,8.14008,-0.145305,0.383536,-0.0599394,0
2024-12-11 14:27:43.820,-1.49402,1.29512,7.867,-0.14164,0.45134,-0.00251974,0
2024-12-11 14:27:43.820,-1.4677,1.24965,7.96989,-0.14164,0.45134,-0.00251974,0
2024-12-11 14:27:43.825,-1.51555,1.43659,7.66361,-0.133699,0.503873,0.0530674,0
2024-12-11 14:27:43.826,-1.51555,1.43659,7.66361,-0.133699,0.503873,0.0530674,0
2024-12-11 14:27:43.829,-1.51077,1.53709,7.47667,-0.128202,0.527085,0.086664,0
2024-12-11 14:27:43.830,-1.51077,1.53709,7.47667,-0.128202,0.527085,0.086664,0
2024-12-11 14:27:43.835,-1.5012,1.69741,7.27568,-0.122704,0.543578,0.116595,0
2024-12-11 14:27:43.839,-1.48923,1.7668,7.08425,-0.117817,0.553351,0.142251,0
2024-12-11 14:27:43.839,-1.46291,1.84576,7.08425,-0.117817,0.553351,0.142251,0
2024-12-11 14:27:43.841,-1.42702,1.91276,6.96431,-0.115374,0.555184,0.152025,0
2024-12-11 14:27:43.843,-1.4004,1.96301,6.83988,-0.113541,0.553962,0.158744,0
2024-12-11 14:27:43.848,-1.36211,2.09252,6.60778,-0.116595,0.544799,0.173404,0
2024-12-11 14:27:43.848,-1.36211,2.09252,6.60778,-0.116595,0.544799,0.173404,0
2024-12-11 14:27:43.851,-1.35015,2.16431,6.5025,-0.116595,0.544799,0.173404,0
2024-12-11 14:27:43.854,-1.32622,2.21934,6.3993,-0.12698,0.511814,0.1844,0
2024-12-11 14:27:43.856,-1.29512,2.2672,6.31556,-0.134921,0.497153,0.186232,0
2024-12-11 14:27:43.860,-1.22094,2.36291,6.11695,-0.144694,0.48066,0.186843,0
2024-12-11 14:27:43.862,-1.18505,2.41077,6.04277,-0.155079,0.459281,0.18501,0
2024-12-11 14:27:43.865,-1.14437,2.44188,5.98774,-0.164242,0.436679,0.182567,0
2024-12-11 14:27:43.867,-1.14437,2.45623,5.93031,-0.17768,0.412856,0.178291,0
2024-12-11 14:27:43.869,-1.07019,2.48734,5.87737,-0.190508,0.385979,0.174015,0
2024-12-11 14:27:43.873,-1.04865,2.51845,5.85584,-0.190508,0.385979,0.174015,0
2024-12-11 14:27:43.874,-1.02233,2.54028,5.85344,-0.218607,0.326116,0.158744,0
2024-12-11 14:27:43.877,-0.988834,2.56899,5.85823,-0.230824,0.296185,0.149581,0
2024-12-11 14:27:43.882,-0.936192,2.61685,5.90638,-0.255258,0.232656,0.13431,0
2024-12-11 14:27:43.882,-0.936192,2.61685,5.90638,-0.255258,0.232656,0.13431,0
2024-12-11 14:27:43.886,-0.914656,2.67189,6.0332,-0.277248,0.169128,0.116595,0
2024-12-11 14:27:43.889,-0.921835,2.69103,6.07867,-0.292519,0.115985,0.0976592,0
2024-12-11 14:27:43.891,-0.940978,2.71256,6.12652,-0.292519,0.115985,0.0976592,0
2024-12-11 14:27:43.892,-0.940978,2.71256,6.12652,-0.292519,0.115985,0.0976592,0
2024-12-11 14:27:43.895,-0.936192,2.73171,6.22224,-0.305958,0.0713928,0.086664,0
2024-12-11 14:27:43.896,-0.936192,2.73171,6.22224,-0.311456,0.0481806,0.0817772,0
2024-12-11 14:27:43.900,-0.885943,2.68146,6.34427,-0.316343,0.0237467,0.0750579,0
2024-12-11 14:27:43.902,-0.881157,2.65514,6.41366,-0.316343,0.0237467,0.0750579,0
2024-12-11 14:27:43.906,-0.897907,2.64317,6.47857,-0.331003,-0.0275645,0.0634518,0
2024-12-11 14:27:43.907,-0.931406,2.6336,6.56949,-0.331003,-0.0275645,0.0634518,0
2024-12-11 14:27:43.909,-0.967299,2.64078,6.6676,-0.339555,-0.0697129,0.0622301,0
2024-12-11 14:27:43.913,-0.981655,2.65035,6.74656,-0.342609,-0.0849841,0.0646735,0
2024-12-11 14:27:43.916,-0.969691,2.60249,6.91167,-0.345052,-0.0996445,0.0677277,0
2024-12-11 14:27:43.916,-0.969691,2.60249,6.91167,-0.345052,-0.0996445,0.0677277,0
2024-12-11 14:27:43.921,-0.981655,2.60249,7.11296,-0.340166,-0.136295,0.0817772,0
2024-12-11 14:27:43.921,-1.01037,2.59771,7.11296,-0.340166,-0.136295,0.0817772,0
2024-12-11 14:27:43.927,-1.07498,2.6001,7.24457,-0.3365,-0.161951,0.101935,0
2024-12-11 14:27:43.929,-1.08933,2.61924,7.28525,-0.331003,-0.176,0.125758,0
2024-12-11 14:27:43.931,-1.07737,2.65035,7.34746,-0.332835,-0.176,0.125758,0
2024-12-11 14:27:43.934,-1.07737,2.67428,7.40967,-0.320618,-0.179665,0.14897,0
2024-12-11 14:27:43.936,-0.988834,2.69103,7.50539,-0.313288,-0.179055,0.160576,0
2024-12-11 14:27:43.939,-0.950549,2.7006,7.61815,-0.313288,-0.179055,0.160576,0
2024-12-11 14:27:43.940,-0.940978,2.73649,7.71147,-0.305958,-0.173557,0.168517,0
2024-12-11 14:27:43.942,-0.921835,2.79392,7.78325,-0.295574,-0.167449,0.175848,0
2024-12-11 14:27:43.947,-0.804287,2.88245,7.9005,-0.277248,-0.16134,0.192341,0
2024-12-11 14:27:43.947,-0.804287,2.88245,7.9005,-0.277248,-0.16134,0.192341,0
2024-12-11 14:27:43.952,-0.710967,2.97577,7.94118,-0.258312,-0.16134,0.202114,0
2024-12-11 14:27:43.952,-0.710967,2.97577,7.94118,-0.258312,-0.16134,0.202114,0
2024-12-11 14:27:43.958,-0.641576,3.06192,7.97947,-0.244873,-0.165616,0.207001,0
2024-12-11 14:27:43.960,-0.598505,3.09332,8.01057,-0.244873,-0.165616,0.207001,0
2024-12-11 14:27:43.961,-0.54347,3.12682,8.05604,-0.2351,-0.178444,0.208223,0
2024-12-11 14:27:43.962,-0.54347,3.12682,8.05604,-0.2351,-0.178444,0.208223,0
2024-12-11 14:27:43.966,-0.459721,3.20339,8.15683,-0.22105,-0.189439,0.203947,0
2024-12-11 14:27:43.971,-0.4334,3.27518,8.29801,-0.205168,-0.203488,0.200892,0
2024-12-11 14:27:43.971,-0.407079,3.27518,8.29801,-0.205168,-0.203488,0.200892,0
2024-12-11 14:27:43.972,-0.407079,3.27518,8.29801,-0.205168,-0.203488,0.200892,0
2024-12-11 14:27:43.975,-0.364008,3.3685,8.45354,-0.189286,-0.217538,0.192341,0
2024-12-11 14:27:43.978,-0.301795,3.39242,8.5349,-0.178902,-0.223036,0.188065,0
2024-12-11 14:27:43.981,-0.239282,3.4355,8.61865,-0.154468,-0.228533,0.174015,0
2024-12-11 14:27:43.985,-0.210568,3.48574,8.76252,-0.154468,-0.228533,0.174015,0
2024-12-11 14:27:43.986,-0.196211,3.5336,8.76252,-0.122704,-0.224868,0.157522,0
2024-12-11 14:27:43.987,-0.196211,3.58146,8.82234,-0.122704,-0.224868,0.157522,0
2024-12-11 14:27:43.992,-0.184247,3.68704,8.92284,-0.0878856,-0.220592,0.14164,0
2024-12-11 14:27:43.994,-0.172283,3.73968,8.94437,-0.0878856,-0.220592,0.14164,0
2024-12-11 14:27:43.997,-0.160319,3.80429,8.96591,-0.0573433,-0.215705,0.121482,0
2024-12-11 14:27:43.999,-0.167498,3.85215,8.97308,-0.0377962,-0.212651,0.11232,0
2024-12-11 14:27:44.001,-0.174676,3.90239,8.9683,-0.0255792,-0.207154,0.103768,0
2024-12-11 14:27:44.004,-0.167498,3.95743,8.95634,-0.0255792,-0.202267,0.0939941,0
2024-12-11 14:27:44.007,-0.177069,4.01486,8.95634,0.00374144,-0.196769,0.0848314,0
2024-12-11 14:27:44.007,-0.177069,4.01486,8.95634,0.00374144,-0.196769,0.0848314,0
2024-12-11 14:27:44.013,-0.316152,4.22572,8.91326,0.0403923,-0.179665,0.0555107,0
2024-12-11 14:27:44.014,-0.316152,4.22572,8.91326,0.0403923,-0.179665,0.0555107,0
2024-12-11 14:27:44.018,-0.419043,4.37647,8.82712,0.0532201,-0.169892,0.0414613,0
2024-12-11 14:27:44.021,-0.438186,4.44586,8.74337,0.0532201,-0.169892,0.0414613,0
2024-12-11 14:27:44.025,-0.474078,4.54397,8.64975,0.057496,-0.166838,0.0182491,0
2024-12-11 14:27:44.027,-0.512363,4.57747,8.64975,0.057496,-0.174168,0.0096972,0
2024-12-11 14:27:44.030,-0.56022,4.6349,8.6689,0.0452791,-0.185774,0.00175619,0
2024-12-11 14:27:44.032,-0.576969,4.6995,8.68804,0.0361163,-0.196769,-0.00740652,0
2024-12-11 14:27:44.034,-0.581755,4.75215,8.71705,0.0269536,-0.208986,-0.0147367,0
2024-12-11 14:27:44.039,-0.562612,4.81705,8.87498,0.0159584,-0.225479,-0.0245102,0
2024-12-11 14:27:44.041,-0.548256,4.84816,8.97548,-0.00236703,-0.257854,-0.0428357,0
2024-12-11 14:27:44.046,-0.517149,4.88405,9.21237,-0.0164165,-0.291451,-0.065437,0
2024-12-11 14:27:44.048,-0.476471,4.89601,9.3347,-0.0231358,-0.307333,-0.0770431,0
2024-12-11 14:27:44.052,-0.397508,4.91755,9.45673,-0.0353528,-0.334821,-0.106975,0
2024-12-11 14:27:44.055,-0.359223,4.92951,9.69602,-0.0408504,-0.350092,-0.121024,0
2024-12-11 14:27:44.055,-0.342473,4.93669,9.69602,-0.0408504,-0.350092,-0.121024,0
2024-12-11 14:27:44.060,-0.311366,4.95344,9.89731,-0.0451263,-0.37758,-0.152177,0
2024-12-11 14:27:44.063,-0.325723,4.95105,9.99303,-0.0487914,-0.37758,-0.166838,0
2024-12-11 14:27:44.068,-0.337687,4.94626,10.194,-0.066506,-0.430113,-0.204099,0
2024-12-11 14:27:44.068,-0.337687,4.94626,10.194,-0.066506,-0.430113,-0.204099,0
2024-12-11 14:27:44.072,-0.311366,4.93909,10.4575,-0.0720036,-0.445384,-0.215705,0
2024-12-11 14:27:44.074,-0.260818,4.92951,10.5963,-0.0720036,-0.445384,-0.215705,0
2024-12-11 14:27:44.077,-0.205783,4.91994,10.7542,-0.0787229,-0.47165,-0.241972,0
2024-12-11 14:27:44.080,-0.153141,4.91037,10.9337,-0.0805555,-0.482646,-0.256021,0
2024-12-11 14:27:44.084,-0.119641,4.84577,11.269,-0.0787229,-0.50036,-0.282288,0
2024-12-11 14:27:44.084,-0.102891,4.84577,11.269,-0.0787229,-0.50036,-0.282288,0
2024-12-11 14:27:44.088,-0.0957129,4.81466,11.6809,-0.0713928,-0.510745,-0.306722,0
2024-12-11 14:27:44.093,-0.0598206,4.73061,12.0975,-0.0518457,-0.525405,-0.329934,0
2024-12-11 14:27:44.096,-0.0334995,4.64925,12.3105,-0.0396287,-0.532124,-0.340929,0
2024-12-11 14:27:44.098,-0.026321,4.5679,12.5019,-0.0396287,-0.532124,-0.340929,0
2024-12-11 14:27:44.100,-0.0167498,4.49133,12.6793,-0.0109189,-0.548617,-0.361698,0
2024-12-11 14:27:44.105,-0.0167498,4.32862,13.0621,0.00740652,-0.554726,-0.369028,0
2024-12-11 14:27:44.108,-0.0430708,4.26401,13.2395,0.0544418,-0.562667,-0.383688,0
2024-12-11 14:27:44.111,-0.0909273,4.20628,13.4094,0.105142,-0.568775,-0.381245,0
2024-12-11 14:27:44.112,-0.157926,4.168,13.5793,0.105142,-0.568775,-0.381245,0
2024-12-11 14:27:44.114,-0.157926,4.12253,13.7372,0.105142,-0.568775,-0.381245,0
2024-12-11 14:27:44.119,-0.27996,4.07468,13.8739,0.196158,-0.569386,-0.365363,0
2024-12-11 14:27:44.120,-0.366401,4.04836,14.0031,0.227922,-0.568775,-0.353757,0
2024-12-11 14:27:44.124,-0.524327,4.06511,14.1969,0.227922,-0.568775,-0.353757,0
2024-12-11 14:27:44.124,-0.524327,4.06511,14.1969,0.227922,-0.568775,-0.353757,0
2024-12-11 14:27:44.128,-0.679861,4.15603,14.3719,0.332377,-0.541898,-0.307943,0
2024-12-11 14:27:44.131,-0.782752,4.27358,14.4269,0.365974,-0.530292,-0.287175,0
2024-12-11 14:27:44.133,-0.890728,4.41954,14.4413,0.39957,-0.513799,-0.268849,0
2024-12-11 14:27:44.135,-1.01515,4.55833,14.3839,0.39957,-0.513799,-0.268849,0
2024-12-11 14:27:44.140,-1.21615,4.8673,14.2089,0.480813,-0.463099,-0.202267,0
2024-12-11 14:27:44.141,-1.21615,4.8673,14.2089,0.480813,-0.463099,-0.202267,0
2024-12-11 14:27:44.145,-1.32622,5.15683,13.917,0.508912,-0.450882,-0.160729,0
2024-12-11 14:27:44.151,-1.2018,5.32194,13.5482,0.504636,-0.470429,-0.127743,0
2024-12-11 14:27:44.152,-1.0654,5.34856,13.3783,0.49303,-0.489976,-0.117359,0
2024-12-11 14:27:44.153,-1.0654,5.34856,13.3783,0.49303,-0.489976,-0.117359,0
2024-12-11 14:27:44.157,-0.694218,5.38684,13.0765,0.441108,-0.54373,-0.108807,0
2024-12-11 14:27:44.159,-0.442971,5.37488,12.9688,0.405068,-0.582825,-0.108807,0
2024-12-11 14:27:44.164,0.162712,5.30279,12.8061,0.312219,-0.670787,-0.127133,0
2024-12-11 14:27:44.165,0.162712,5.30279,12.8061,0.255411,-0.722098,-0.13935,0
2024-12-11 14:27:44.168,0.845265,5.1329,12.7511,0.195547,-0.775242,-0.157675,0
2024-12-11 14:27:44.171,1.22333,5.02283,12.7726,0.128965,-0.832661,-0.178444,0
2024-12-11 14:27:44.176,1.59691,4.80509,12.8779,-0.0121406,-0.937116,-0.23342,0
2024-12-11 14:27:44.176,1.94387,4.80509,12.8779,-0.0121406,-0.937116,-0.23342,0
2024-12-11 14:27:44.180,2.54267,4.55593,13.098,-0.158744,-1.02141,-0.303667,0
2024-12-11 14:27:44.183,2.54267,4.41476,13.2395,-0.158744,-1.02141,-0.303667,0
2024-12-11 14:27:44.187,3.31825,4.07946,13.6439,-0.363378,-1.06784,-0.418507,0
2024-12-11 14:27:44.188,3.08584,4.24965,13.6439,-0.363378,-1.06784,-0.418507,0
2024-12-11 14:27:44.192,3.67747,3.73729,14.106,-0.424462,-1.03241,-0.497917,0
2024-12-11 14:27:44.193,3.67747,3.73729,14.106,-0.475163,-1.00003,-0.532124,0
2024-12-11 14:27:44.197,3.89282,3.35175,14.6566,-0.553962,-0.958496,-0.568164,0
2024-12-11 14:27:44.200,3.94786,3.14357,14.9273,-0.579007,-0.901687,-0.602372,0
2024-12-11 14:27:44.201,3.99093,2.92552,15.1666,-0.599776,-0.838159,-0.630471,0
2024-12-11 14:27:44.206,3.95264,2.49212,15.5617,-0.610771,-0.769133,-0.657959,0
2024-12-11 14:27:44.209,3.88086,2.26959,15.6885,-0.607106,-0.599317,-0.70194,1
2024-12-11 14:27:44.211,3.77797,2.04945,15.7986,-0.593056,-0.500971,-0.7166,0
2024-12-11 14:27:44.213,3.6341,1.81705,15.8848,-0.573509,-0.394684,-0.727595,0
2024-12-11 14:27:44.216,3.4331,1.58495,15.9183,-0.573509,-0.394684,-0.727595,0
2024-12-11 14:27:44.220,2.86331,1.18744,15.8776,-0.470887,-0.0611611,-0.718433,0
2024-12-11 14:27:44.224,2.54746,1.01994,15.7962,-0.376816,0.140419,-0.675673,0
2024-12-11 14:27:44.226,2.2337,0.864407,15.6598,-0.376816,0.140419,-0.675673,0
2024-12-11 14:27:44.231,1.88166,0.734896,15.291,-0.217385,0.39392,-0.562667,0
2024-12-11 14:27:44.233,1.51316,0.646361,15.0805,-0.217385,0.39392,-0.562667,0
2024-12-11 14:27:44.234,0.940978,0.495613,14.8361,-0.217385,0.39392,-0.562667,0
2024-12-11 14:27:44.237,0.689432,0.459721,14.5657,-0.1056,0.526474,-0.461266,0
2024-12-11 14:27:44.238,0.689432,0.459721,14.5657,-0.1056,0.526474,-0.461266,0
2024-12-11 14:27:44.241,0.270389,0.3999,13.9576,0.00618483,0.615658,-0.359865,0
2024-12-11 14:27:44.244,0.0765703,0.411865,13.6104,0.0550526,0.63887,-0.307943,0
2024-12-11 14:27:44.249,-0.227318,0.476471,12.8707,0.144236,0.648643,-0.204099,0
2024-12-11 14:27:44.249,-0.0933201,0.476471,12.8707,0.144236,0.648643,-0.204099,0
2024-12-11 14:27:44.253,-0.378365,0.531506,12.1406,0.207764,0.599165,-0.101477,0
2024-12-11 14:27:44.256,-0.378365,0.531506,11.779,0.207764,0.599165,-0.101477,0
2024-12-11 14:27:44.258,-0.342473,0.605683,11.4461,0.245026,0.499597,-0.0141258,0
2024-12-11 14:27:44.260,-0.251246,0.639183,11.1446,0.256632,0.434236,0.0219141,0
2024-12-11 14:27:44.263,-0.131605,0.679861,10.8691,0.259076,0.359102,0.0548999,0
2024-12-11 14:27:44.266,-0.00239282,0.706182,10.6466,0.26213,0.194784,0.104989,0
2024-12-11 14:27:44.267,0.150748,0.727717,10.4623,0.26213,0.194784,0.104989,0
2024-12-11 14:27:44.270,0.337687,0.768395,10.3184,0.26213,0.194784,0.104989,0
2024-12-11 14:27:44.274,0.761217,0.862014,10.1605,0.251135,-0.0684913,0.138586,0
2024-12-11 14:27:44.278,0.99362,0.905085,10.127,0.244415,-0.235253,0.139808,0
2024-12-11 14:27:44.280,1.23769,0.929013,10.1127,0.244415,-0.235253,0.139808,0
2024-12-11 14:27:44.283,1.51316,0.962513,10.1294,0.242583,-0.386132,0.117817,0
2024-12-11 14:27:44.284,1.82423,0.981655,10.1773,0.242583,-0.386132,0.117817,0
2024-12-11 14:27:44.286,2.12842,1.00319,10.218,0.242583,-0.451492,0.0970484,0
2024-12-11 14:27:44.290,2.40838,1.03908,10.2251,0.255411,-0.555947,0.0432938,0
2024-12-11 14:27:44.293,2.88724,1.11565,10.1821,0.255411,-0.555947,0.0432938,0
2024-12-11 14:27:44.296,3.06192,1.16112,10.1127,0.265184,-0.632303,-0.0312296,0
2024-12-11 14:27:44.296,3.06192,1.16112,10.1127,0.265184,-0.632303,-0.0312296,0
2024-12-11 14:27:44.300,3.32064,1.20897,9.92842,0.263962,-0.681782,-0.117359,0
2024-12-11 14:27:44.304,3.41396,1.22333,9.80848,0.249913,-0.714157,-0.202267,0
2024-12-11 14:27:44.306,3.49292,1.22094,9.68645,0.249913,-0.714157,-0.202267,0
2024-12-11 14:27:44.307,3.53121,1.21615,9.56202,0.249913,-0.714157,-0.202267,0
2024-12-11 14:27:44.311,3.56231,1.2329,9.43759,0.207764,-0.733704,-0.332377,0
2024-12-11 14:27:44.313,3.58146,1.24487,9.32752,0.207764,-0.733704,-0.332377,0
2024-12-11 14:27:44.314,3.56949,1.24965,9.22912,0.188217,-0.730039,-0.375747,0
2024-12-11 14:27:44.319,3.51207,1.28794,9.07119,0.16867,-0.717822,-0.416063,0
2024-12-11 14:27:44.320,3.51207,1.28794,9.07119,0.128354,-0.671398,-0.491198,0
2024-12-11 14:27:44.324,3.39242,1.30708,8.94676,0.128354,-0.671398,-0.491198,0
2024-12-11 14:27:44.326,3.31346,1.29751,8.89651,0.128354,-0.671398,-0.491198,0
2024-12-11 14:27:44.329,3.22493,1.27358,8.82712,0.0648262,-0.555337,-0.591987,0
2024-12-11 14:27:44.331,3.09571,1.25922,8.75294,0.0471116,-0.508912,-0.62253,0
2024-12-11 14:27:44.336,2.72213,1.24965,8.55404,0.00862822,-0.403236,-0.668954,0
2024-12-11 14:27:44.338,2.72213,1.24487,8.42483,0.00862822,-0.403236,-0.668954,0
2024-12-11 14:27:44.338,2.5331,1.24487,8.42483,0.00862822,-0.403236,-0.668954,0
2024-12-11 14:27:44.343,2.11406,1.24965,8.1999,-0.0518457,-0.235253,-0.700107,0
2024-12-11 14:27:44.345,1.88405,1.23769,8.068,-0.0518457,-0.235253,-0.700107,0
2024-12-11 14:27:44.347,1.67348,1.20658,7.94118,-0.0988809,-0.129576,-0.697664,0
2024-12-11 14:27:44.347,1.67348,1.20658,7.94118,-0.0988809,-0.129576,-0.697664,0
2024-12-11 14:27:44.352,1.28076,1.11087,7.71865,-0.144694,-0.0324513,-0.677506,0
2024-12-11 14:27:44.355,1.09173,1.05105,7.63968,-0.144694,-0.0324513,-0.677506,0
2024-12-11 14:27:44.358,0.902692,1.01037,7.56282,-0.212498,0.090329,-0.6152,0
2024-12-11 14:27:44.362,0.521934,1.03669,7.43839,-0.232046,0.130034,-0.587711,0
2024-12-11 14:27:44.363,0.521934,1.03669,7.43839,-0.249149,0.165463,-0.55778,0
2024-12-11 14:27:44.365,0.368794,1.04865,7.42403,-0.249149,0.165463,-0.55778,0
2024-12-11 14:27:44.369,0.251246,1.04865,7.47667,-0.265642,0.238765,-0.489976,0
2024-12-11 14:27:44.369,0.138784,1.06301,7.49821,-0.265642,0.238765,-0.489976,0
2024-12-11 14:27:44.374,-0.0861416,1.16351,7.48864,-0.274194,0.281524,-0.422783,0
2024-12-11 14:27:44.377,-0.138784,1.20658,7.48864,-0.27847,0.309012,-0.353146,0
2024-12-11 14:27:44.379,-0.179462,1.24247,7.50539,-0.27847,0.309012,-0.353146,0
2024-12-11 14:27:44.380,-0.205783,1.28315,7.56042,-0.27847,0.309012,-0.353146,0
2024-12-11 14:27:44.383,-0.20339,1.32383,7.63968,-0.27847,0.309012,-0.353146,0
2024-12-11 14:27:44.385,-0.191426,1.36211,7.71147,-0.243041,0.345663,-0.26213,0
2024-12-11 14:27:44.390,-0.165105,1.47488,7.82154,-0.196006,0.374984,-0.213873,0
2024-12-11 14:27:44.392,-0.0454636,1.52273,7.85265,-0.196006,0.374984,-0.213873,0
2024-12-11 14:27:44.395,0.00239282,1.57777,7.867,-0.130034,0.392088,-0.173557,0
2024-12-11 14:27:44.398,0.0287139,1.62562,7.87897,-0.130034,0.392088,-0.173557,0
2024-12-11 14:27:44.403,0.0502493,1.69741,7.82154,0.0184018,0.390255,-0.113694,0
2024-12-11 14:27:44.404,0.0837488,1.72134,7.75933,0.0184018,0.390255,-0.113694,0
2024-12-11 14:27:44.406,0.122034,1.72612,7.70908,0.0184018,0.390255,-0.113694,0
2024-12-11 14:27:44.411,0.174676,1.78594,7.62772,0.0947577,0.364599,-0.0953685,0
2024-12-11 14:27:44.413,0.189033,1.82423,7.56999,0.169281,0.323673,-0.085595,0
2024-12-11 14:27:44.413,0.189033,1.82423,7.56999,0.169281,0.323673,-0.085595,0
2024-12-11 14:27:44.418,0.232104,1.8673,7.51257,0.244415,0.271751,-0.0800973,0
2024-12-11 14:27:44.420,0.232104,1.8673,7.51257,0.244415,0.271751,-0.0800973,0
2024-12-11 14:27:44.424,0.349651,1.90319,7.44796,0.347648,0.194784,-0.0831516,0
2024-12-11 14:27:44.425,0.414257,1.92233,7.38814,0.347648,0.194784,-0.0831516,0
2024-12-11 14:27:44.428,0.478864,1.94387,7.35943,0.380634,0.169739,-0.0917034,0
2024-12-11 14:27:44.430,0.536291,1.9681,7.34507,0.380634,0.147749,-0.100255,0
2024-12-11 14:27:44.432,0.586541,1.9992,7.31875,0.44233,0.132477,-0.110029,0
2024-12-11 14:27:44.435,0.608076,2.03749,7.25175,0.47165,0.121482,-0.124689,0
2024-12-11 14:27:44.439,0.62004,2.0686,6.98106,0.519907,0.107433,-0.15401,0
2024-12-11 14:27:44.442,0.627219,2.08056,6.85424,0.519907,0.107433,-0.15401,0
2024-12-11 14:27:44.444,0.605683,2.09492,6.75613,0.552282,0.0970484,-0.182109,0
2024-12-11 14:27:44.446,0.536291,2.09013,6.65085,0.566943,0.0897182,-0.191882,0
2024-12-11 14:27:44.449,0.50997,2.10209,6.38256,0.576105,0.0817772,-0.202267,0
2024-12-11 14:27:44.452,0.545863,2.14756,5.97099,0.554726,0.0915507,-0.223646,0
2024-12-11 14:27:44.456,0.442971,2.21216,5.54716,0.537622,0.090329,-0.230977,0
2024-12-11 14:27:44.456,0.442971,2.21216,5.54716,0.537622,0.090329,-0.230977,0
2024-12-11 14:27:44.461,0.342473,2.31266,5.24297,0.482646,0.0756687,-0.245637,0
2024-12-11 14:27:44.461,0.342473,2.31266,5.24297,0.482646,0.0756687,-0.245637,0
2024-12-11 14:27:44.466,0.193819,2.4323,5.0994,0.416674,0.0518457,-0.255411,0
2024-12-11 14:27:44.468,0.174676,2.4993,5.07548,0.416674,0.0518457,-0.255411,0
2024-12-11 14:27:44.471,0.20339,2.5666,5.05394,0.301224,0.0500131,-0.276179,0
2024-12-11 14:27:44.472,0.297009,2.65035,5.05394,0.301224,0.0500131,-0.276179,0
2024-12-11 14:27:44.478,0.414257,2.72213,5.09462,0.220592,0.0799446,-0.299392,0
2024-12-11 14:27:44.479,0.617647,2.8011,5.31237,0.220592,0.0799446,-0.299392,0
2024-12-11 14:27:44.482,0.655932,2.81067,5.44666,0.143625,0.122704,-0.325658,0
2024-12-11 14:27:44.485,0.632004,2.8011,5.59262,0.0715455,0.166685,-0.349481,0
2024-12-11 14:27:44.486,0.550648,2.79392,5.75773,0.0715455,0.166685,-0.349481,0
2024-12-11 14:27:44.489,0.421436,2.80349,5.9327,0.041614,0.189286,-0.355589,0
2024-12-11 14:27:44.492,0.289831,2.81067,6.09063,-0.00725381,0.229602,-0.357422,0
2024-12-11 14:27:44.497,0.167498,2.79871,6.36341,-0.00725381,0.229602,-0.357422,0
2024-12-11 14:27:44.498,-0.200997,2.78913,6.469,-0.0487914,0.257701,-0.335431,0
2024-12-11 14:27:44.501,-0.387936,2.78196,6.57189,-0.0487914,0.266253,-0.316495,0
2024-12-11 14:27:44.505,-0.715753,2.78674,6.80878,-0.0756687,0.269307,-0.265184,0
2024-12-11 14:27:44.505,-0.715753,2.78674,6.80878,-0.0756687,0.269307,-0.265184,0
2024-12-11 14:27:44.510,-0.862014,2.86092,7.06511,-0.101935,0.277248,-0.207764,0
2024-12-11 14:27:44.512,-0.902692,2.9016,7.19432,-0.101935,0.277248,-0.207764,0
2024-12-11 14:27:44.517,-0.924228,2.94945,7.45514,-0.0976592,0.269307,-0.116137,0
2024-12-11 14:27:44.518,-0.924228,2.94945,7.45514,-0.0976592,0.269307,-0.116137,0
2024-12-11 14:27:44.523,-0.799502,2.99013,7.74975,-0.0836097,0.265031,-0.0666587,0
2024-12-11 14:27:44.524,-0.706182,2.97338,7.91247,-0.0836097,0.265031,-0.0666587,0
2024-12-11 14:27:44.529,-0.605683,2.95902,8.27887,-0.050624,0.268086,-0.00251974,0
2024-12-11 14:27:44.532,-0.409472,2.90878,8.47747,-0.050624,0.268086,-0.00251974,0
2024-12-11 14:27:44.534,-0.342473,2.85135,8.68565,-0.0127514,0.279692,0.0335202,0
2024-12-11 14:27:44.536,-0.282652,2.77717,8.86062,0.00740652,0.283357,0.0487914,0
2024-12-11 14:27:44.538,-0.198604,2.71735,9.00898,0.0348946,0.283968,0.0658951,0
2024-12-11 14:27:44.541,-0.105284,2.67667,9.15015,0.0593285,0.286411,0.082388,0
2024-12-11 14:27:44.545,0.0885344,2.62642,9.32274,0.115526,0.29313,0.109876,0
2024-12-11 14:27:44.546,0.0885344,2.62642,9.32274,0.115526,0.29313,0.109876,0
2024-12-11 14:27:44.550,0.27996,2.62642,9.38974,0.167449,0.301682,0.133699,0
2024-12-11 14:27:44.550,0.27996,2.62642,9.38974,0.167449,0.301682,0.133699,0
2024-12-11 14:27:44.555,0.452543,2.67428,9.44956,0.219981,0.313288,0.151414,0
2024-12-11 14:27:44.558,0.517149,2.69581,9.44716,0.260908,0.321229,0.161187,0
2024-12-11 14:27:44.559,0.581755,2.72213,9.41845,0.260908,0.321229,0.161187,0
2024-12-11 14:27:44.563,0.643968,2.7676,9.35384,0.260908,0.321229,0.161187,0
2024-12-11 14:27:44.564,0.715753,2.78913,9.24826,0.293894,0.331614,0.167907,0
2024-12-11 14:27:44.567,0.744467,2.82263,9.15494,0.301835,0.337722,0.169128,0
2024-12-11 14:27:44.570,0.699003,2.88485,9.07358,0.307943,0.341387,0.169128,0
2024-12-11 14:27:44.571,0.60329,2.96381,9.03291,0.307943,0.341387,0.169128,0
2024-12-11 14:27:44.575,0.584148,3.04517,8.97787,0.303667,0.355437,0.178902,0
2024-12-11 14:27:44.577,0.799502,3.06909,8.87259,0.29084,0.345052,0.172793,0
2024-12-11 14:27:44.579,1.13001,3.04038,8.8008,0.29084,0.328559,0.161187,0
2024-12-11 14:27:44.582,1.11087,3.10768,8.78405,0.29084,0.328559,0.161187,0
2024-12-11 14:27:44.585,0.60329,3.32303,8.78405,0.243804,0.310234,0.147749,0
2024-12-11 14:27:44.585,0.60329,3.32303,8.78405,0.243804,0.310234,0.147749,0
2024-12-11 14:27:44.591,0.490828,3.38046,8.78884,0.208986,0.324894,0.140419,0
2024-12-11 14:27:44.592,0.490828,3.43071,8.94198,0.193715,0.331003,0.138586,0
2024-12-11 14:27:44.596,0.588933,3.38525,9.10708,0.179055,0.327949,0.135532,0
2024-12-11 14:27:44.598,0.462114,3.37567,9.32034,0.157064,0.307791,0.129423,0
2024-12-11 14:27:44.600,0.462114,3.402,9.51416,0.157064,0.307791,0.129423,0
2024-12-11 14:27:44.602,0.148355,3.3685,9.63859,0.157064,0.307791,0.129423,0
2024-12-11 14:27:44.604,0.122034,3.35175,9.71755,0.144847,0.287022,0.13431,0
2024-12-11 14:27:44.608,0.0933201,3.35414,9.82074,0.140571,0.284578,0.139197,0
2024-12-11 14:27:44.611,0.0215354,3.3685,10.1342,0.143625,0.285189,0.152635,0
2024-12-11 14:27:44.614,0.0215354,3.35653,10.328,0.143625,0.285189,0.152635,0
2024-12-11 14:27:44.616,-0.0622134,3.33739,10.57,0.158286,0.304736,0.171572,0
2024-12-11 14:27:44.618,-0.040678,3.30389,10.8308,0.174779,0.316953,0.183178,0
2024-12-11 14:27:44.624,-0.0693919,3.25843,11.2834,0.194937,0.332225,0.19906,0
2024-12-11 14:27:44.625,-0.136391,3.268,11.4604,0.194937,0.332225,0.19906,0
2024-12-11 14:27:44.629,-0.0885344,3.26321,11.5995,0.325047,0.440345,0.229602,0
2024-12-11 14:27:44.631,-0.0167498,3.28953,11.6976,0.36292,0.475774,0.237543,0
2024-12-11 14:27:44.632,0.0526421,3.31346,11.767,0.36292,0.475774,0.237543,0
2024-12-11 14:27:44.635,0.112463,3.33021,11.7933,0.401403,0.509981,0.244873,0
2024-12-11 14:27:44.640,0.20339,3.32303,11.6545,0.473483,0.579618,0.267475,0
2024-12-11 14:27:44.640,0.20339,3.32303,11.6545,0.473483,0.579618,0.267475,0
2024-12-11 14:27:44.644,0.234497,3.31346,11.3527,0.502193,0.613825,0.29313,0
2024-12-11 14:27:44.644,0.234497,3.31346,11.3527,0.502193,0.613825,0.29313,0
2024-12-11 14:27:44.649,0.215354,3.32064,11.0273,0.557169,0.717669,0.325505,0
2024-12-11 14:27:44.649,0.215354,3.32064,11.0273,0.557169,0.717669,0.325505,0
2024-12-11 14:27:44.654,0.191426,3.3326,10.8882,0.573051,0.765926,0.358491,0
2024-12-11 14:27:44.655,0.191426,3.3326,10.8882,0.573051,0.765926,0.358491,0
2024-12-11 14:27:44.658,0.148355,3.35175,10.8763,0.578549,0.789749,0.392088,0
2024-12-11 14:27:44.659,0.148355,3.35175,10.8763,0.578549,0.789749,0.392088,0
2024-12-11 14:27:44.663,0.105284,3.35414,10.9385,0.584657,0.787306,0.425073,0
2024-12-11 14:27:44.663,0.105284,3.35414,10.9385,0.584657,0.787306,0.425073,0
2024-12-11 14:27:44.668,0.148355,3.3661,11.0393,0.59382,0.779365,0.456227,0
2024-12-11 14:27:44.669,0.148355,3.3661,11.0393,0.599928,0.776921,0.472109,0
2024-12-11 14:27:44.675,0.184247,3.40917,11.2307,0.614589,0.773256,0.496542,0
2024-12-11 14:27:44.678,0.260818,3.4355,11.2929,0.623751,0.772645,0.505094,0
2024-12-11 14:27:44.678,0.260818,3.4355,11.2929,0.623751,0.772645,0.505094,0
2024-12-11 14:27:44.680,0.294616,3.44507,11.3647,0.623751,0.772645,0.505094,0
2024-12-11 14:27:44.684,0.328116,3.44028,11.4963,0.663456,0.781808,0.522809,0
2024-12-11 14:27:44.684,0.359223,3.45942,11.4963,0.663456,0.781808,0.522809,0
2024-12-11 14:27:44.687,0.35683,3.49292,11.5373,0.677506,0.789749,0.525252,0
2024-12-11 14:27:44.690,0.318545,3.53839,11.5828,0.704994,0.814259,0.530139,0
2024-12-11 14:27:44.691,0.260818,3.57667,11.621,0.704994,0.814259,0.530139,0
2024-12-11 14:27:44.694,0.181855,3.60539,11.645,0.722709,0.834417,0.530139,0
2024-12-11 14:27:44.698,-0.122034,3.74686,11.688,0.739812,0.855797,0.532582,0
2024-12-11 14:27:44.701,-0.320937,3.84018,11.6689,0.772187,0.899167,0.534415,0
2024-12-11 14:27:44.701,-0.320937,3.84018,11.6689,0.772187,0.899167,0.534415,0
2024-12-11 14:27:44.705,-0.828216,4.09143,11.5923,0.785015,0.921158,0.536858,0
2024-12-11 14:27:44.709,-1.05105,4.2688,11.4078,0.805173,0.962084,0.544799,0
2024-12-11 14:27:44.711,-1.4004,4.46501,11.2451,0.805173,0.962084,0.544799,0
2024-12-11 14:27:44.713,-1.86251,4.67797,11.1757,0.805784,0.992016,0.553962,0
2024-12-11 14:27:44.716,-1.97528,4.82184,11.056,0.787458,1.00057,0.55946,0
2024-12-11 14:27:44.720,-1.99202,5.19033,10.7758,0.7673,0.974301,0.553351,0
2024-12-11 14:27:44.720,-2.42752,5.19033,10.7758,0.7673,0.974301,0.553351,0
2024-12-11 14:27:44.723,-2.96381,5.46341,10.6035,0.739812,0.933375,0.549075,0
2024-12-11 14:27:44.724,-2.96381,5.46341,10.6035,0.739812,0.933375,0.549075,0
2024-12-11 14:27:44.729,-3.6341,5.98295,10.4001,0.620697,0.737216,0.555795,0
2024-12-11 14:27:44.729,-3.86172,5.98295,10.4001,0.620697,0.737216,0.555795,0
2024-12-11 14:27:44.734,-4.02443,6.02124,10.4097,0.499139,0.478217,0.582672,0
2024-12-11 14:27:44.737,-3.68943,5.87258,10.3328,0.325658,0.100713,0.613825,0
2024-12-11 14:27:44.738,-3.04038,5.62852,10.218,0.325658,0.100713,0.613825,0
2024-12-11 14:27:44.741,-2.2672,5.29562,10.1797,0.325658,0.100713,0.613825,0
2024-12-11 14:27:44.744,-1.45813,4.91037,10.3543,-0.0274118,-0.577327,0.589391,0
2024-12-11 14:27:44.746,-0.632004,4.50329,10.6681,-0.0274118,-0.577327,0.589391,0
2024-12-11 14:27:44.749,0.174676,4.08664,11.068,-0.268086,-0.971323,0.520366,0
2024-12-11 14:27:44.750,0.950549,3.67508,11.5899,-0.268086,-0.971323,0.520366,0
2024-12-11 14:27:44.754,1.71655,3.28475,12.2028,-0.461724,-1.24254,0.406748,0
2024-12-11 14:27:44.756,2.46102,2.91835,12.8779,-0.536248,-1.31279,0.33589,0
2024-12-11 14:27:44.760,3.70858,2.24088,14.2902,-0.591224,-1.33905,0.25709,0
2024-12-11 14:27:44.761,3.13639,2.24088,14.2902,-0.591224,-1.33905,0.25709,0
2024-12-11 14:27:44.764,4.45544,1.5993,15.4971,-0.651698,-1.29202,0.0891073,0
2024-12-11 14:27:44.764,4.45544,1.5993,15.4971,-0.651698,-1.29202,0.0891073,0
2024-12-11 14:27:44.769,4.64925,0.99362,16.4617,-0.648643,-1.11793,-0.0764323,0
2024-12-11 14:27:44.769,4.733,0.99362,16.4617,-0.648643,-1.11793,-0.0764323,0
2024-12-11 14:27:44.774,4.53918,0.483649,17.0172,-0.598554,-0.831439,-0.21876,1
2024-12-11 14:27:44.776,4.25444,0.251246,17.1443,-0.598554,-0.831439,-0.21876,0
2024-12-11 14:27:44.778,4.25444,0.0933201,17.1802,-0.50204,-0.459433,-0.323215,0
2024-12-11 14:27:44.781,3.28475,-0.0167498,17.1323,-0.50204,-0.257854,-0.351314,0
2024-12-11 14:27:44.783,2.68146,-0.0646062,16.9765,-0.373151,-0.0526092,-0.366585,0
2024-12-11 14:27:44.786,2.03988,-0.081356,16.7085,-0.373151,-0.0526092,-0.366585,0
2024-12-11 14:27:44.788,1.39083,-0.0909273,16.378,-0.222883,0.352993,-0.346427,0
2024-12-11 14:27:44.790,0.749253,-0.0574277,16.0119,-0.222883,0.352993,-0.312219,0
2024-12-11 14:27:44.793,0.107677,0.0191426,15.5857,-0.0762796,0.706063,-0.265184,0
2024-12-11 14:27:44.793,0.107677,0.0191426,15.5857,-0.0762796,0.706063,-0.265184,0
2024-12-11 14:27:44.797,-1.11087,0.248854,14.6399,0.0446682,0.943759,-0.141182,0
2024-12-11 14:27:44.801,-1.58255,0.402293,14.106,0.0910926,1.01401,-0.0691021,0
2024-12-11 14:27:44.802,-1.80987,0.555434,13.3998,0.126522,1.04516,0.00114534,0
2024-12-11 14:27:44.805,-2.0686,0.708575,12.8085,0.146069,1.04333,0.0646735,0
2024-12-11 14:27:44.807,-2.45145,0.859622,12.4732,0.163173,1.02622,0.130645,0
2024-12-11 14:27:44.809,-2.57378,1.00558,12.1525,0.171114,0.986518,0.189286,0
2024-12-11 14:27:44.812,-2.61924,1.15394,11.7861,0.176611,0.92299,0.239987,0
2024-12-11 14:27:44.814,-2.84656,1.34297,11.324,0.169281,0.838082,0.2858,0
2024-12-11 14:27:44.817,-3.09811,1.54188,10.85,0.15401,0.648033,0.37254,0
2024-12-11 14:27:44.820,-3.24168,1.70698,10.5054,0.15401,0.648033,0.37254,0
2024-12-11 14:27:44.821,-3.22253,1.87208,10.2706,0.106975,0.554573,0.413467,0
2024-12-11 14:27:44.824,-2.98295,2.03988,10.0672,0.0770431,0.447064,0.448896,0
2024-12-11 14:27:44.826,-2.6001,2.15713,9.9356,0.0391706,0.324284,0.476995,0
2024-12-11 14:27:44.828,-2.21695,2.20499,9.97388,0.0391706,0.196006,0.497153,0
2024-12-11 14:27:44.833,-1.5012,2.17627,10.2897,-0.0591758,-0.0483333,0.514868,0
2024-12-11 14:27:44.834,-1.86491,2.21216,10.1175,-0.0591758,-0.0483333,0.514868,0
2024-12-11 14:27:44.835,-1.08455,2.0997,10.4767,-0.0842206,-0.158897,0.51609,0
2024-12-11 14:27:44.837,-0.612862,2.01835,10.6609,-0.0988809,-0.256021,0.505705,0
2024-12-11 14:27:44.842,-0.145962,1.83859,11.0417,-0.123315,-0.414842,0.466,0
2024-12-11 14:27:44.842,0.267996,1.83859,11.0417,-0.123315,-0.414842,0.466,0
2024-12-11 14:27:44.848,0.648754,1.77876,11.2618,-0.127591,-0.532124,0.399418,0
2024-12-11 14:27:44.848,1.01515,1.74048,11.5182,-0.127591,-0.532124,0.399418,0
2024-12-11 14:27:44.849,1.35015,1.68066,11.7431,-0.127591,-0.532124,0.399418,0
2024-12-11 14:27:44.851,1.65912,1.62084,11.9393,-0.11965,-0.601761,0.30718,0
2024-12-11 14:27:44.856,2.10927,1.52513,12.2411,-0.0952158,-0.624973,0.197838,0
2024-12-11 14:27:44.856,2.10927,1.52513,12.2411,-0.0952158,-0.624973,0.197838,0
2024-12-11 14:27:44.860,2.26241,1.47248,12.344,-0.0634518,-0.617643,0.086664,0
2024-12-11 14:27:44.861,2.35095,1.42702,12.4182,-0.0634518,-0.617643,0.086664,0
2024-12-11 14:27:44.866,2.4012,1.33579,12.454,-0.030466,-0.581603,-0.0177909,0
2024-12-11 14:27:44.867,2.4012,1.33579,12.454,-0.030466,-0.581603,-0.0177909,0
2024-12-11 14:27:44.869,2.35334,1.28554,12.4158,-0.00603212,-0.52174,-0.107585,0
2024-12-11 14:27:44.870,2.25524,1.24247,12.3464,-0.00603212,-0.52174,-0.107585,0
2024-12-11 14:27:44.875,2.0327,1.1324,12.2052,0.0177909,-0.442941,-0.178444,0
2024-12-11 14:27:44.875,2.0327,1.1324,12.2052,0.0177909,-0.442941,-0.178444,0
2024-12-11 14:27:44.880,1.80748,1.05583,12.0302,0.0403923,-0.358644,-0.226701,0
2024-12-11 14:27:44.884,1.51316,0.986441,11.8316,0.0678804,-0.271293,-0.256021,0
2024-12-11 14:27:44.885,1.51316,0.986441,11.8316,0.0678804,-0.271293,-0.256021,0
2024-12-11 14:27:44.888,1.33819,0.964906,11.7072,0.0972011,-0.17539,-0.265795,0
2024-12-11 14:27:44.889,1.15155,0.952942,11.554,0.0972011,-0.17539,-0.265795,0
2024-12-11 14:27:44.889,1.15155,0.952942,11.554,0.0972011,-0.17539,-0.265795,0
2024-12-11 14:27:44.895,0.756431,0.936192,11.2259,0.121635,-0.0862058,-0.244415,0
2024-12-11 14:27:44.896,0.555434,0.948156,11.056,0.121635,-0.0862058,-0.244415,0
2024-12-11 14:27:44.899,0.373579,0.974477,10.8787,0.145458,0.00603212,-0.230977,0
2024-12-11 14:27:44.899,0.373579,0.974477,10.8787,0.145458,0.00603212,-0.230977,0
2024-12-11 14:27:44.903,0.0789631,1.04387,10.5054,0.171724,0.090329,-0.193104,0
2024-12-11 14:27:44.903,0.0789631,1.04387,10.5054,0.171724,0.090329,-0.193104,0
2024-12-11 14:27:44.908,-0.179462,1.12044,10.084,0.186996,0.157522,-0.145458,0
2024-12-11 14:27:44.913,-0.387936,1.19222,9.67927,0.199213,0.205168,-0.0910926,0
2024-12-11 14:27:44.914,-0.387936,1.19222,9.67927,0.199213,0.205168,-0.0910926,0
2024-12-11 14:27:44.916,-0.457328,1.22094,9.45434,0.209597,0.244263,-0.0355055,0
2024-12-11 14:27:44.918,-0.50997,1.24965,9.24108,0.209597,0.244263,-0.0355055,0
2024-12-11 14:27:44.921,-0.536291,1.29751,9.02333,0.210208,0.265642,0.0213033,0
2024-12-11 14:27:44.923,-0.555434,1.35972,8.82712,0.210208,0.265642,0.0213033,0
2024-12-11 14:27:44.925,-0.572184,1.42941,8.65215,0.210208,0.265642,0.0213033,0
2024-12-11 14:27:44.927,-0.56022,1.49402,8.48465,0.205932,0.272972,0.0683385,0
2024-12-11 14:27:44.930,-0.533899,1.56102,8.32433,0.205932,0.272972,0.0683385,0
2024-12-11 14:27:44.932,-0.483649,1.62084,8.19751,0.201045,0.268086,0.109265,0
2024-12-11 14:27:44.935,-0.407079,1.68544,8.09671,0.198602,0.261366,0.135532,0
2024-12-11 14:27:44.937,-0.330509,1.76919,7.98425,0.198602,0.261366,0.135532,0
2024-12-11 14:27:44.939,-0.229711,1.84576,7.89811,0.198602,0.261366,0.135532,0
2024-12-11 14:27:44.941,-0.124427,1.89601,7.80958,0.196158,0.246706,0.150192,0
2024-12-11 14:27:44.943,-0.0334995,1.95105,7.69711,0.196158,0.246706,0.150192,0
2024-12-11 14:27:44.946,0.0502493,1.98963,7.58944,0.194326,0.229602,0.152025,0
2024-12-11 14:27:44.949,0.133998,2.01356,7.49103,0.188828,0.203336,0.140419,0
2024-12-11 14:27:44.950,0.227318,2.03031,7.4001,0.188828,0.203336,0.140419,0
2024-12-11 14:27:44.951,0.227318,2.03031,7.4001,0.188828,0.203336,0.140419,0
2024-12-11 14:27:44.956,0.352044,2.05185,7.21825,0.176611,0.172183,0.120871,0
2024-12-11 14:27:44.961,0.476471,2.04227,7.06032,0.166227,0.132477,0.094605,0
2024-12-11 14:27:44.962,0.524327,2.04227,6.98585,0.166227,0.132477,0.094605,0
2024-12-11 14:27:44.962,0.524327,2.04227,6.98585,0.166227,0.132477,0.094605,0
2024-12-11 14:27:44.969,0.576969,2.03988,6.85424,0.124689,0.0310769,0.0310769,0
2024-12-11 14:27:44.972,0.584148,2.06381,6.85663,0.114916,0.00542127,0.0133623,0
2024-12-11 14:27:44.972,0.584148,2.06381,6.85663,0.114916,0.00542127,0.0133623,0
2024-12-11 14:27:44.973,0.584148,2.06381,6.85663,0.114916,0.00542127,0.0133623,0
2024-12-11 14:27:44.981,0.486042,2.08774,7.00499,0.0800973,-0.0953685,-0.0611611,0
2024-12-11 14:27:44.983,0.440578,2.08774,7.06511,0.0800973,-0.0953685,-0.0611611,0
2024-12-11 14:27:44.983,0.440578,2.08774,7.06511,0.0800973,-0.0953685,-0.0611611,0
2024-12-11 14:27:44.986,0.402293,2.08056,7.12493,0.0721563,-0.149123,-0.0947577,0
2024-12-11 14:27:44.991,0.30658,2.01595,7.22303,0.0660479,-0.201045,-0.121024,0
2024-12-11 14:27:44.993,0.265603,1.98724,7.25175,0.0660479,-0.201045,-0.121024,0
2024-12-11 14:27:44.998,0.239282,1.96301,7.2685,0.0483333,-0.260908,-0.14668,0
2024-12-11 14:27:44.999,0.210568,1.92712,7.28525,0.0410031,-0.274347,-0.150956,0
2024-12-11 14:27:45.002,0.177069,1.84816,7.32353,0.0342838,-0.287785,-0.154621,0
2024-12-11 14:27:45.002,0.177069,1.84816,7.32353,0.0342838,-0.287785,-0.154621,0
2024-12-11 14:27:45.007,0.179462,1.81226,7.35225,0.0104608,-0.304278,-0.155842,0
2024-12-11 14:27:45.007,0.177069,1.78834,7.35225,0.0104608,-0.304278,-0.155842,0
2024-12-11 14:27:45.013,0.193819,1.75005,7.40967,-0.0213033,-0.31283,-0.150345,0
2024-12-11 14:27:45.014,0.193819,1.75005,7.40967,-0.0213033,-0.31283,-0.150345,0
2024-12-11 14:27:45.016,0.244068,1.6998,7.52214,-0.0548999,-0.312219,-0.143015,0
2024-12-11 14:27:45.020,0.289831,1.68784,7.61336,-0.0921616,-0.308554,-0.133241,0
2024-12-11 14:27:45.021,0.332901,1.68544,7.72822,-0.0921616,-0.308554,-0.133241,0
2024-12-11 14:27:45.023,0.392722,1.67109,7.85265,-0.104989,-0.301224,-0.129576,0
2024-12-11 14:27:45.028,0.459721,1.66869,8.1015,-0.136143,-0.279234,-0.125911,0
2024-12-11 14:27:45.030,0.52672,1.6663,8.20948,-0.149581,-0.265184,-0.124689,0
2024-12-11 14:27:45.031,0.60329,1.6663,8.20948,-0.149581,-0.265184,-0.124689,0
2024-12-11 14:27:45.033,0.660718,1.65912,8.32194,-0.149581,-0.265184,-0.124689,0
2024-12-11 14:27:45.038,0.734896,1.63759,8.51097,-0.178902,-0.217538,-0.128965,0
2024-12-11 14:27:45.039,0.734896,1.63759,8.51097,-0.178902,-0.217538,-0.128965,0
2024-12-11 14:27:45.042,0.809073,1.62562,8.66411,-0.198449,-0.193104,-0.134463,0
2024-12-11 14:27:45.045,0.84018,1.61845,8.74098,-0.205168,-0.180276,-0.13996,0
2024-12-11 14:27:45.047,0.85005,1.59212,8.81277,-0.212498,-0.172335,-0.148512,0
2024-12-11 14:27:45.049,0.864407,1.57537,8.87498,-0.212498,-0.171114,-0.155232,0
2024-12-11 14:27:45.052,0.862014,1.58016,8.93959,-0.224715,-0.171114,-0.163173,0
2024-12-11 14:27:45.055,0.84018,1.58255,8.99941,-0.232656,-0.179665,-0.181498,0
2024-12-11 14:27:45.056,0.816252,1.57059,9.05923,-0.232656,-0.179665,-0.181498,0
2024-12-11 14:27:45.059,0.787538,1.57298,9.12862,-0.232656,-0.179665,-0.190661,0
2024-12-11 14:27:45.061,0.742074,1.58495,9.19083,-0.232656,-0.179665,-0.190661,0
2024-12-11 14:27:45.066,0.63679,1.60887,9.33231,-0.231435,-0.219371,-0.216316,0
2024-12-11 14:27:45.068,0.593719,1.5993,9.41366,-0.228381,-0.231587,-0.223646,0
2024-12-11 14:27:45.071,0.593719,1.60409,9.48066,-0.228381,-0.231587,-0.223646,0
2024-12-11 14:27:45.073,0.536291,1.59691,9.5357,-0.217385,-0.257854,-0.235863,0
2024-12-11 14:27:45.075,0.505185,1.57777,9.58355,-0.217385,-0.257854,-0.235863,0
2024-12-11 14:27:45.079,0.488435,1.5682,9.61945,-0.197227,-0.286564,-0.245026,0
2024-12-11 14:27:45.082,0.478864,1.55623,9.65295,-0.178291,-0.318328,-0.24808,0
2024-12-11 14:27:45.083,0.464507,1.55384,9.69123,-0.172793,-0.332377,-0.249913,0
2024-12-11 14:27:45.086,0.469292,1.55862,9.74148,-0.16302,-0.34154,-0.251135,0
2024-12-11 14:27:45.087,0.498006,1.55384,9.78455,-0.16302,-0.34154,-0.251135,0
2024-12-11 14:27:45.089,0.533899,1.54905,9.80848,-0.152025,-0.351924,-0.251745,0
2024-12-11 14:27:45.092,0.581755,1.54427,9.83031,-0.142862,-0.357422,-0.2548,0
2024-12-11 14:27:45.095,0.639183,1.55145,9.87578,-0.133699,-0.361087,-0.255411,0
2024-12-11 14:27:45.096,0.682254,1.55862,9.9356,-0.133699,-0.361087,-0.255411,0
2024-12-11 14:27:45.100,0.727717,1.55862,9.98585,-0.102546,-0.358644,-0.256632,0
2024-12-11 14:27:45.103,0.758824,1.56341,10.0696,-0.0897182,-0.3562,-0.257854,0
2024-12-11 14:27:45.104,0.794716,1.56341,10.0696,-0.0897182,-0.3562,-0.257854,0
2024-12-11 14:27:45.108,0.828216,1.57537,10.1677,-0.0658951,-0.345816,-0.257854,0
2024-12-11 14:27:45.111,0.854836,1.58255,10.2132,-0.0658951,-0.345816,-0.257854,0
2024-12-11 14:27:45.113,0.885943,1.59452,10.2586,-0.050624,-0.335431,-0.261519,0
2024-12-11 14:27:45.115,0.897907,1.6017,10.2873,-0.050624,-0.335431,-0.261519,0
2024-12-11 14:27:45.118,0.905085,1.61366,10.3065,-0.00419957,-0.293283,-0.266406,0
2024-12-11 14:27:45.122,0.9003,1.62802,10.3089,0.0281753,-0.259686,-0.273125,0
2024-12-11 14:27:45.122,0.902692,1.65673,10.3113,0.0281753,-0.259686,-0.273125,0
2024-12-11 14:27:45.126,0.895514,1.67348,10.3232,0.0599394,-0.226701,-0.281677,0
2024-12-11 14:27:45.127,0.8668,1.68066,10.3113,0.0599394,-0.226701,-0.281677,0
2024-12-11 14:27:45.129,0.84018,1.6998,10.2634,0.0745997,-0.214484,-0.285953,0
2024-12-11 14:27:45.132,0.794716,1.71177,10.2156,0.0880384,-0.204099,-0.289618,0
2024-12-11 14:27:45.134,0.725324,1.72612,10.1653,0.100255,-0.195547,-0.294505,0
2024-12-11 14:27:45.137,0.65354,1.75484,10.0959,0.110029,-0.19005,-0.297559,0
2024-12-11 14:27:45.142,0.512363,1.81226,9.94756,0.132019,-0.180276,-0.303667,0
2024-12-11 14:27:45.142,0.588933,1.78594,10.0289,0.132019,-0.180276,-0.303667,0
2024-12-11 14:27:45.144,0.426222,1.83859,9.86621,0.132019,-0.180276,-0.303667,0
2024-12-11 14:27:45.147,0.337687,1.87208,9.80609,0.136906,-0.182109,-0.301224,0
2024-12-11 14:27:45.148,0.251246,1.92473,9.74387,0.136906,-0.182109,-0.301224,0
2024-12-11 14:27:45.153,0.129212,1.98963,9.60509,0.135074,-0.186996,-0.295726,0
2024-12-11 14:27:45.154,0.129212,1.98963,9.60509,0.135074,-0.186996,-0.295726,0
2024-12-11 14:27:45.158,0.0693919,2.08295,9.48784,0.127133,-0.199823,-0.287785,0
2024-12-11 14:27:45.158,0.040678,2.08295,9.48784,0.127133,-0.199823,-0.287785,0
2024-12-11 14:27:45.162,0.040678,2.18345,9.4017,0.121024,-0.217538,-0.281677,0
2024-12-11 14:27:45.165,0.040678,2.18345,9.4017,0.121024,-0.217538,-0.279844,0
2024-12-11 14:27:45.167,0.102891,2.25524,9.34666,0.10392,-0.23342,-0.278012,0
2024-12-11 14:27:45.168,0.102891,2.25524,9.34666,0.0953685,-0.236474,-0.279234,0
2024-12-11 14:27:45.172,0.191426,2.30309,9.31316,0.0843733,-0.239528,-0.280455,0
2024-12-11 14:27:45.174,0.244068,2.31984,9.32513,0.073378,-0.241361,-0.283509,0
2024-12-11 14:27:45.177,0.285045,2.33898,9.33949,0.0617719,-0.237696,-0.286564,0
2024-12-11 14:27:45.180,0.335294,2.36052,9.34188,0.049555,-0.226701,-0.292672,0
2024-12-11 14:27:45.182,0.402293,2.36531,9.35863,0.041614,-0.218149,-0.295726,0
2024-12-11 14:27:45.184,0.474078,2.35573,9.40648,0.041614,-0.218149,-0.295726,0
2024-12-11 14:27:45.187,0.521934,2.34856,9.44238,0.0379489,-0.208986,-0.304889,0
2024-12-11 14:27:45.189,0.541077,2.34856,9.44956,0.0263428,-0.186385,-0.309165,0
2024-12-11 14:27:45.193,0.557827,2.35573,9.45195,0.0251211,-0.173557,-0.309776,0
2024-12-11 14:27:45.196,0.569791,2.36531,9.47588,0.0202343,-0.160729,-0.314052,0
2024-12-11 14:27:45.198,0.574577,2.38206,9.48066,0.0202343,-0.160729,-0.314052,0
2024-12-11 14:27:45.198,0.574577,2.38206,9.48066,0.0202343,-0.160729,-0.314052,0
2024-12-11 14:27:45.203,0.60329,2.41077,9.43281,0.0190126,-0.113083,-0.315884,0
2024-12-11 14:27:45.205,0.622433,2.42752,9.4352,0.0208452,-0.093536,-0.315274,0
2024-12-11 14:27:45.207,0.629611,2.45384,9.42802,0.0226777,-0.073378,-0.315884,0
2024-12-11 14:27:45.209,0.62004,2.48495,9.43041,0.0226777,-0.073378,-0.315884,0
2024-12-11 14:27:45.213,0.605683,2.5017,9.44477,0.0355055,-0.0147367,-0.317106,0
2024-12-11 14:27:45.214,0.586541,2.53789,9.45434,0.0355055,-0.0147367,-0.317106,0
2024-12-11 14:27:45.217,0.56022,2.59292,9.43759,0.0410031,0.00419957,-0.317717,0
2024-12-11 14:27:45.219,0.519542,2.65274,9.39452,0.0471116,0.0213033,-0.321382,0
2024-12-11 14:27:45.221,0.4669,2.69581,9.34427,0.0556635,0.0377962,-0.323825,0
2024-12-11 14:27:45.221,0.4669,2.69581,9.34427,0.0556635,0.0377962,-0.323825,0
2024-12-11 14:27:45.226,0.325723,2.81067,9.19562,0.0556635,0.0377962,-0.323825,0
2024-12-11 14:27:45.228,0.222533,2.85853,9.10469,0.0703238,0.0707819,-0.332377,0
2024-12-11 14:27:45.232,0.119641,2.93031,9.00658,0.0715455,0.0750579,-0.334821,0
2024-12-11 14:27:45.233,0.00957129,3.01406,8.92284,0.0715455,0.0750579,-0.334821,0
2024-12-11 14:27:45.238,-0.184247,3.12443,8.7673,0.0660479,0.0640626,-0.335431,0
2024-12-11 14:27:45.238,-0.184247,3.12443,8.7673,0.0660479,0.0640626,-0.335431,0
2024-12-11 14:27:45.243,-0.313759,3.24646,8.60908,0.0544418,0.0335202,-0.334821,0
2024-12-11 14:27:45.245,-0.366401,3.29193,8.55404,0.0544418,0.0335202,-0.334821,0
2024-12-11 14:27:45.247,-0.419043,3.31825,8.49901,0.029397,-0.0177909,-0.334821,0
2024-12-11 14:27:45.248,-0.419043,3.31825,8.49901,0.029397,-0.0177909,-0.334821,0
2024-12-11 14:27:45.252,-0.474078,3.35892,8.4679,-0.00175619,-0.0843733,-0.337264,0
2024-12-11 14:27:45.255,-0.493221,3.39721,8.46072,-0.0396287,-0.151566,-0.343983,0
2024-12-11 14:27:45.257,-0.490828,3.41875,8.46551,-0.0396287,-0.151566,-0.343983,0
2024-12-11 14:27:45.257,-0.490828,3.41875,8.46551,-0.0396287,-0.151566,-0.343983,0
2024-12-11 14:27:45.261,-0.452543,3.44267,8.54208,-0.0805555,-0.224257,-0.351314,0
2024-12-11 14:27:45.261,-0.452543,3.44267,8.54208,-0.0805555,-0.224257,-0.351314,0
2024-12-11 14:27:45.266,-0.404686,3.47378,8.71466,-0.120871,-0.285342,-0.36292,0
2024-12-11 14:27:45.268,-0.375972,3.49292,8.81994,-0.120871,-0.285342,-0.36292,0
2024-12-11 14:27:45.272,-0.328116,3.47857,8.92762,-0.158133,-0.342762,-0.376358,0
2024-12-11 14:27:45.273,-0.328116,3.47857,8.92762,-0.170961,-0.367806,-0.383078,0
2024-12-11 14:27:45.275,-0.232104,3.4355,9.15733,-0.185621,-0.387964,-0.389186,0
2024-12-11 14:27:45.278,-0.177069,3.42592,9.27966,-0.199671,-0.405679,-0.395295,0
2024-12-11 14:27:45.280,-0.124427,3.38764,9.41366,-0.212498,-0.420339,-0.400181,0
2024-12-11 14:27:45.282,-0.124427,3.38764,9.53809,-0.221661,-0.430724,-0.407511,0
2024-12-11 14:27:45.288,0.040678,3.30868,9.78934,-0.239376,-0.444773,-0.414231,0
2024-12-11 14:27:45.288,0.040678,3.30868,9.78934,-0.239376,-0.444773,-0.414231,0
2024-12-11 14:27:45.290,0.0933201,3.28714,9.89492,-0.246706,-0.450882,-0.416674,0
2024-12-11 14:27:45.294,0.162712,3.24407,10.0648,-0.257701,-0.450882,-0.422172,0
2024-12-11 14:27:45.295,0.162712,3.24407,10.0648,-0.261366,-0.446606,-0.423394,0
2024-12-11 14:27:45.298,0.217747,3.20818,10.139,-0.266253,-0.441719,-0.423394,0
2024-12-11 14:27:45.301,0.27996,3.15075,10.3041,-0.270529,-0.433778,-0.422783,0
2024-12-11 14:27:45.302,0.27996,3.15075,10.3041,-0.270529,-0.433778,-0.422783,0
2024-12-11 14:27:45.305,0.282652,3.134,10.3857,-0.272972,-0.419728,-0.422172,0
2024-12-11 14:27:45.306,0.292223,3.10289,10.4504,-0.275416,-0.402625,-0.420339,0
2024-12-11 14:27:45.311,0.304188,3.05474,10.6131,-0.277248,-0.36292,-0.411787,0
2024-12-11 14:27:45.312,0.311366,3.05474,10.6131,-0.277859,-0.34154,-0.404457,0
2024-12-11 14:27:45.314,0.318545,3.02602,10.6872,-0.276027,-0.311608,-0.396516,0
2024-12-11 14:27:45.318,0.342473,2.99731,10.8188,-0.271751,-0.280455,-0.387354,0
2024-12-11 14:27:45.320,0.335294,2.9686,10.8715,-0.264421,-0.247469,-0.375747,0
2024-12-11 14:27:45.324,0.335294,2.94467,10.917,-0.258923,-0.215095,-0.364752,0
2024-12-11 14:27:45.326,0.299402,2.94227,10.9484,-0.241819,-0.141182,-0.339707,0
2024-12-11 14:27:45.327,0.232104,2.9327,10.9508,-0.241819,-0.141182,-0.339707,0
2024-12-11 14:27:45.331,0.177069,2.9351,10.946,-0.222883,-0.0703238,-0.309776,0
2024-12-11 14:27:45.332,0.112463,2.96381,10.9313,-0.222883,-0.0703238,-0.309776,0
2024-12-11 14:27:45.334,0.0502493,2.98774,10.9026,-0.222883,-0.0703238,-0.309776,0
2024-12-11 14:27:45.334,0.0502493,2.98774,10.9026,-0.222883,-0.0703238,-0.309776,0
2024-12-11 14:27:45.340,-0.0191426,2.9997,10.8284,-0.181956,0.0591758,-0.241972,0
2024-12-11 14:27:45.342,-0.160319,3.03081,10.783,-0.181956,0.0591758,-0.241972,0
2024-12-11 14:27:45.342,-0.160319,3.03081,10.783,-0.181956,0.0591758,-0.241972,0
2024-12-11 14:27:45.347,-0.277567,3.05952,10.6777,-0.145305,0.12698,-0.184552,0
2024-12-11 14:27:45.348,-0.349651,3.06909,10.6131,-0.145305,0.12698,-0.184552,0
2024-12-11 14:27:45.351,-0.349651,3.09093,10.5341,-0.130034,0.141029,-0.164394,0
2024-12-11 14:27:45.352,-0.402293,3.09093,10.5341,-0.120261,0.152025,-0.143625,0
2024-12-11 14:27:45.355,-0.486042,3.09093,10.4264,-0.120261,0.152025,-0.143625,0
2024-12-11 14:27:45.359,-0.502792,3.08854,10.3807,-0.0909399,0.161798,-0.105753,0
2024-12-11 14:27:45.360,-0.512363,3.07867,10.3496,-0.0756687,0.159966,-0.0849841,0
2024-12-11 14:27:45.363,-0.52672,3.08345,10.3137,-0.0603975,0.152025,-0.0678804,0
2024-12-11 14:27:45.365,-0.524327,3.08106,10.285,-0.0439046,0.144084,-0.0513875,0
2024-12-11 14:27:45.370,-0.493221,3.05474,10.2347,-0.00786466,0.120261,-0.0184018,0
2024-12-11 14:27:45.371,-0.514756,3.06431,10.2347,0.013515,0.103768,-0.00496313,0
2024-12-11 14:27:45.372,-0.474078,3.06192,10.2108,0.013515,0.103768,-0.00496313,0
2024-12-11 14:27:45.375,-0.462114,3.04995,10.1916,0.0361163,0.0884965,0.00725381,0
2024-12-11 14:27:45.378,-0.442971,3.05234,10.1725,0.0843733,0.0561216,0.030466,0
2024-12-11 14:27:45.380,-0.411865,3.06909,10.1533,0.109418,0.0432938,0.0432938,0
2024-12-11 14:27:45.384,-0.335294,3.09093,10.0624,0.134463,0.0268009,0.0530674,0
2024-12-11 14:27:45.385,-0.371187,3.07388,10.1175,0.134463,0.0268009,0.0530674,0
2024-12-11 14:27:45.386,-0.282652,3.11246,10.0098,0.160729,0.010308,0.0628409,0
2024-12-11 14:27:45.388,-0.215354,3.13879,9.95474,0.183331,-0.00251974,0.0683385,0
2024-12-11 14:27:45.393,-0.0789631,3.17946,9.80848,0.226701,-0.0281753,0.0775012,0
2024-12-11 14:27:45.394,-0.0789631,3.17946,9.80848,0.245637,-0.0397814,0.0768904,0
2024-12-11 14:27:45.397,-0.0191426,3.20578,9.71516,0.26213,-0.0489441,0.0750579,0
2024-12-11 14:27:45.399,0.0191426,3.22732,9.60987,0.26213,-0.0489441,0.0750579,0
2024-12-11 14:27:45.403,0.124427,3.27518,9.3347,0.290229,-0.0636045,0.0677277,0
2024-12-11 14:27:45.404,0.0693919,3.25125,9.47827,0.294505,-0.073378,0.0610084,0
2024-12-11 14:27:45.406,0.16989,3.30628,9.20758,0.294505,-0.073378,0.0610084,0
2024-12-11 14:27:45.407,0.222533,3.34218,9.07598,0.294505,-0.073378,0.0610084,0
2024-12-11 14:27:45.412,0.282652,3.3996,8.77927,0.29084,-0.0953685,0.0353528,0
2024-12-11 14:27:45.413,0.282652,3.3996,8.77927,0.278623,-0.102088,0.0255792,0
2024-12-11 14:27:45.414,0.297009,3.42832,8.64258,0.278623,-0.102088,0.0255792,0
2024-12-11 14:27:45.418,0.299402,3.46421,8.53011,0.266406,-0.110029,0.0139731,0
2024-12-11 14:27:45.421,0.289831,3.51685,8.34347,0.227922,-0.132019,-0.00618483,0
2024-12-11 14:27:45.422,0.289831,3.51685,8.34347,0.227922,-0.132019,-0.00618483,0
2024-12-11 14:27:45.426,0.294616,3.58385,8.22862,0.180887,-0.158286,-0.0306187,0
2024-12-11 14:27:45.426,0.294616,3.58385,8.22862,0.180887,-0.158286,-0.0306187,0
2024-12-11 14:27:45.431,0.311366,3.59581,8.17358,0.125911,-0.185774,-0.0556635,0
2024-12-11 14:27:45.432,0.311366,3.59581,8.17358,0.0965902,-0.199213,-0.0672696,0
2024-12-11 14:27:45.437,0.30658,3.60778,8.16162,0.0666587,-0.209597,-0.081319,0
2024-12-11 14:27:45.437,0.30658,3.60778,8.16162,0.0666587,-0.209597,-0.081319,0
2024-12-11 14:27:45.441,0.313759,3.59103,8.17119,0.00435229,-0.225479,-0.10392,0
2024-12-11 14:27:45.441,0.313759,3.59103,8.17119,0.00435229,-0.225479,-0.10392,0
2024-12-11 14:27:45.445,0.330509,3.55274,8.2334,-0.0561216,-0.232809,-0.126522,0
2024-12-11 14:27:45.448,0.311366,3.51924,8.28605,-0.0561216,-0.232809,-0.126522,0
2024-12-11 14:27:45.450,0.292223,3.48574,8.35783,-0.115374,-0.224257,-0.145458,0
2024-12-11 14:27:45.453,0.289831,3.44985,8.4344,-0.173404,-0.204099,-0.161951,0
2024-12-11 14:27:45.454,0.27996,3.41396,8.53251,-0.173404,-0.204099,-0.161951,0
2024-12-11 14:27:45.454,0.27996,3.41396,8.53251,-0.173404,-0.204099,-0.161951,0
2024-12-11 14:27:45.460,0.227318,3.34935,8.74098,-0.217996,-0.173557,-0.173557,0
2024-12-11 14:27:45.461,0.181855,3.32543,8.84387,-0.217996,-0.173557,-0.173557,0
2024-12-11 14:27:45.465,0.129212,3.31107,8.94198,-0.249149,-0.148512,-0.180276,0
2024-12-11 14:27:45.467,0.0861416,3.28475,9.04965,-0.249149,-0.148512,-0.180276,0
2024-12-11 14:27:45.469,0.026321,3.25125,9.15255,-0.275416,-0.115526,-0.18272,0
2024-12-11 14:27:45.471,-0.026321,3.23211,9.24826,-0.275416,-0.115526,-0.18272,0
2024-12-11 14:27:45.473,-0.0646062,3.21536,9.33709,-0.287022,-0.0862058,-0.177222,0
2024-12-11 14:27:45.474,-0.0646062,3.21536,9.33709,-0.287022,-0.0862058,-0.177222,0
2024-12-11 14:27:45.478,-0.114855,3.19621,9.51895,-0.292519,-0.0593285,-0.165616,0
2024-12-11 14:27:45.483,-0.114855,3.19621,9.74627,-0.289465,-0.0397814,-0.155842,0
2024-12-11 14:27:45.483,-0.114855,3.19621,9.74627,-0.289465,-0.0397814,-0.155842,0
2024-12-11 14:27:45.485,-0.102891,3.19382,9.87099,-0.279081,-0.0238994,-0.148512,0
2024-12-11 14:27:45.488,-0.100499,3.19861,9.98824,-0.279081,-0.0238994,-0.148512,0
2024-12-11 14:27:45.492,-0.0334995,3.1675,10.1342,-0.260755,-0.00313059,-0.138128,0
2024-12-11 14:27:45.494,-0.0143569,3.15553,10.1797,-0.229602,0.0176382,-0.128354,0
2024-12-11 14:27:45.497,0.00239282,3.14357,10.206,-0.229602,0.0176382,-0.128354,0
2024-12-11 14:27:45.499,0.00239282,3.14357,10.2108,-0.198449,0.0353528,-0.118581,0
2024-12-11 14:27:45.502,-0.0119641,3.14357,10.2108,-0.198449,0.0353528,-0.118581,0
2024-12-11 14:27:45.504,-0.0143569,3.13879,10.2012,-0.166685,0.0475697,-0.111251,0
2024-12-11 14:27:45.506,-0.0167498,3.16032,10.1677,-0.150803,0.0487914,-0.106975,0
2024-12-11 14:27:45.506,-0.0167498,3.16032,10.1677,-0.150803,0.0487914,-0.106975,0
2024-12-11 14:27:45.516,-0.0167498,3.30389,10.0696,-0.150803,0.0487914,-0.106975,0
2024-12-11 14:27:45.523,-0.122034,3.36132,9.92363,-0.0701711,0.0445155,-0.0886492,0
2024-12-11 14:27:45.525,-0.124427,3.37567,9.84467,-0.0701711,0.0445155,-0.0886492,0
2024-12-11 14:27:45.527,-0.138784,3.40678,9.78216,-0.0402396,0.0347419,-0.0849841,0
2024-12-11 14:27:45.531,-0.162712,3.40439,9.74387,-0.0298552,0.0237467,-0.0825407,0
2024-12-11 14:27:45.534,-0.181855,3.3996,9.61945,-0.0268009,0.0188599,-0.0788757,0
2024-12-11 14:27:45.535,-0.172283,3.3996,9.61945,-0.0268009,0.0188599,-0.0788757,0
2024-12-11 14:27:45.537,-0.208176,3.40439,9.57638,-0.0219141,0.014584,-0.077654,0
2024-12-11 14:27:45.539,-0.205783,3.39482,9.51177,-0.0219141,0.014584,-0.077654,0
2024-12-11 14:27:45.544,-0.200997,3.38525,9.42084,-0.0213033,0.00175619,-0.065437,0
2024-12-11 14:27:45.544,-0.22014,3.38525,9.42084,-0.0213033,0.00175619,-0.065437,0
2024-12-11 14:27:45.546,-0.232104,3.3661,9.40648,-0.0213033,0.00175619,-0.065437,0
2024-12-11 14:27:45.550,-0.234497,3.34218,9.39691,-0.0219141,-0.00496313,-0.0581068,0
2024-12-11 14:27:45.551,-0.241675,3.335,9.39691,-0.022525,-0.00740652,-0.0519984,0
2024-12-11 14:27:45.553,-0.241675,3.30628,9.38974,-0.0237467,-0.0122933,-0.0452791,0
2024-12-11 14:27:45.558,-0.244068,3.268,9.37299,-0.0237467,-0.0165692,-0.0348946,0
2024-12-11 14:27:45.558,-0.234497,3.24407,9.37299,-0.0237467,-0.0165692,-0.0348946,0
2024-12-11 14:27:45.563,-0.224925,3.20339,9.32513,-0.0268009,-0.0226777,-0.0238994,0
2024-12-11 14:27:45.563,-0.224925,3.20339,9.32513,-0.0268009,-0.0226777,-0.0238994,0
2024-12-11 14:27:45.567,-0.205783,3.14357,9.31556,-0.0329094,-0.0238994,-0.0116825,0
2024-12-11 14:27:45.567,-0.205783,3.14357,9.31556,-0.0329094,-0.0238994,-0.0116825,0
2024-12-11 14:27:45.573,-0.205783,3.08854,9.31556,-0.0377962,-0.0202343,0.0127514,0
2024-12-11 14:27:45.575,-0.212961,3.05234,9.32034,-0.0377962,-0.0202343,0.0127514,0
2024-12-11 14:27:45.578,-0.244068,3.03081,9.32752,-0.0402396,-0.0196235,0.0219141,0
2024-12-11 14:27:45.579,-0.263211,3.00927,9.36341,-0.0402396,-0.0196235,0.0219141,0
2024-12-11 14:27:45.582,-0.277567,2.99731,9.39452,-0.0439046,-0.0153475,0.0439046,0
2024-12-11 14:27:45.584,-0.272782,2.99252,9.41845,-0.0439046,-0.0153475,0.0439046,0
2024-12-11 14:27:45.586,-0.277567,2.98774,9.45673,-0.042683,-0.00984991,0.0732253,0
2024-12-11 14:27:45.589,-0.275175,2.9997,9.49263,-0.042683,-0.00984991,0.0732253,0
2024-12-11 14:27:45.590,-0.277567,2.9997,9.49263,-0.0365745,-0.00251974,0.101935,0
2024-12-11 14:27:45.592,-0.272782,3.00449,9.51416,-0.0365745,-0.00251974,0.101935,0
2024-12-11 14:27:45.596,-0.256032,3.01167,9.52852,-0.0280226,0.00358873,0.133699,0
2024-12-11 14:27:45.596,-0.210568,3.03081,9.54527,-0.0280226,0.00358873,0.133699,0
2024-12-11 14:27:45.600,-0.143569,3.05474,9.51655,-0.0176382,0.0121406,0.159355,0
2024-12-11 14:27:45.601,-0.143569,3.05474,9.51655,-0.0176382,0.0121406,0.159355,0
2024-12-11 14:27:45.605,-0.081356,3.08584,9.47588,-0.00725381,0.0237467,0.18501,0
2024-12-11 14:27:45.610,-0.0191426,3.15075,9.39931,-0.000534491,0.0322986,0.202114,0
2024-12-11 14:27:45.611,-0.0502493,3.15075,9.39931,0.00435229,0.0365745,0.210666,0
2024-12-11 14:27:45.613,0.00239282,3.16989,9.36581,0.00435229,0.0365745,0.210666,0
2024-12-11 14:27:45.618,0.0861416,3.2345,9.29881,0.013515,0.0414613,0.22105,0
2024-12-11 14:27:45.619,0.105284,3.25364,9.25065,0.013515,0.0414613,0.22105,0
2024-12-11 14:27:45.623,0.119641,3.28714,9.21237,0.0159584,0.0298552,0.228381,0
2024-12-11 14:27:45.624,0.157926,3.32303,9.16451,0.0159584,0.0298552,0.228381,0
2024-12-11 14:27:45.630,0.217747,3.38525,9.05683,0.0104608,0.00419957,0.225326,0
2024-12-11 14:27:45.630,0.217747,3.38525,9.05683,0.0104608,0.00419957,0.225326,0
2024-12-11 14:27:45.633,0.275175,3.44985,8.9683,0.00679568,-0.00923906,0.22105,0
2024-12-11 14:27:45.633,0.275175,3.44985,8.9683,0.00679568,-0.00923906,0.22105,0
2024-12-11 14:27:45.638,0.304188,3.51924,8.9013,-0.00481042,-0.0324513,0.20639,0
2024-12-11 14:27:45.639,0.304188,3.51924,8.9013,-0.00481042,-0.0324513,0.20639,0
2024-12-11 14:27:45.644,0.325723,3.58146,8.84866,-0.0121406,-0.0477224,0.192341,0
2024-12-11 14:27:45.645,0.335294,3.61256,8.82473,-0.0121406,-0.0477224,0.192341,0
2024-12-11 14:27:45.648,0.342473,3.6341,8.81037,-0.0371853,-0.0886492,0.178902,0
2024-12-11 14:27:45.650,0.342473,3.66551,8.81037,-0.0451263,-0.10331,0.170961,0
2024-12-11 14:27:45.652,0.354437,3.69661,8.82712,-0.0561216,-0.116748,0.162409,0
2024-12-11 14:27:45.655,0.368794,3.72533,8.84866,-0.0561216,-0.116748,0.162409,0
2024-12-11 14:27:45.657,0.378365,3.74686,8.84866,-0.0762796,-0.136295,0.147138,0
2024-12-11 14:27:45.658,0.378365,3.74686,8.84866,-0.0762796,-0.136295,0.147138,0
2024-12-11 14:27:45.662,0.428614,3.77557,8.91087,-0.0952158,-0.151566,0.131256,0
2024-12-11 14:27:45.663,0.428614,3.77557,8.91087,-0.0952158,-0.151566,0.131256,0
2024-12-11 14:27:45.666,0.476471,3.80429,8.95155,-0.115374,-0.161951,0.114763,0
2024-12-11 14:27:45.666,0.476471,3.80429,8.95155,-0.115374,-0.161951,0.114763,0
2024-12-11 14:27:45.671,0.512363,3.83061,9.01616,-0.13431,-0.160729,0.0994917,0
2024-12-11 14:27:45.671,0.512363,3.83061,9.01616,-0.13431,-0.160729,0.0994917,0
2024-12-11 14:27:45.676,0.521934,3.84975,9.06641,-0.154468,-0.151566,0.0829989,0
2024-12-11 14:27:45.677,0.521934,3.84975,9.06641,-0.154468,-0.151566,0.0829989,0
2024-12-11 14:27:45.681,0.538684,3.87607,9.17169,-0.169739,-0.134463,0.0726145,0
2024-12-11 14:27:45.682,0.538684,3.87607,9.17169,-0.177069,-0.123468,0.0671168,0
2024-12-11 14:27:45.685,0.517149,3.87847,9.28445,-0.182567,-0.11064,0.0616192,0
2024-12-11 14:27:45.686,0.524327,3.87847,9.28445,-0.182567,-0.11064,0.0616192,0
2024-12-11 14:27:45.691,0.495613,3.9,9.37059,-0.19173,-0.0819299,0.0524565,0
2024-12-11 14:27:45.691,0.495613,3.9,9.37059,-0.19173,-0.0819299,0.0524565,0
2024-12-11 14:27:45.692,0.488435,3.89282,9.41845,-0.19173,-0.0819299,0.0524565,0
2024-12-11 14:27:45.695,0.476471,3.87129,9.45913,-0.199671,-0.0532201,0.046348,0
2024-12-11 14:27:45.699,0.435793,3.8665,9.49263,-0.204557,-0.0251211,0.0439046,0
2024-12-11 14:27:45.699,0.435793,3.8665,9.49263,-0.204557,-0.0251211,0.0439046,0
2024-12-11 14:27:45.704,0.378365,3.833,9.48784,-0.209444,0.010308,0.046348,0
2024-12-11 14:27:45.705,0.378365,3.833,9.48784,-0.209444,0.010308,0.046348,0
2024-12-11 14:27:45.709,0.265603,3.82104,9.45913,-0.217996,0.042683,0.0518457,0
2024-12-11 14:27:45.710,0.265603,3.82104,9.45913,-0.22105,0.0567324,0.0555107,0
2024-12-11 14:27:45.713,0.229711,3.80668,9.5357,-0.222883,0.0671168,0.0603975,0
2024-12-11 14:27:45.714,0.244068,3.81147,9.5357,-0.222883,0.0671168,0.0603975,0
2024-12-11 14:27:45.717,0.208176,3.80429,9.58355,-0.224715,0.0738362,0.0652843,0
2024-12-11 14:27:45.718,0.191426,3.81865,9.62902,-0.224715,0.0787229,0.0671168,0
2024-12-11 14:27:45.723,0.191426,3.84975,9.69841,-0.215553,0.086664,0.0750579,0
2024-12-11 14:27:45.723,0.200997,3.84975,9.69841,-0.215553,0.086664,0.0750579,0
2024-12-11 14:27:45.726,0.20339,3.86172,9.72712,-0.202114,0.0842206,0.0720036,0
2024-12-11 14:27:45.729,0.198604,3.8665,9.74387,-0.202114,0.0842206,0.0720036,0
2024-12-11 14:27:45.732,0.208176,3.8689,9.77977,-0.185621,0.0720036,0.0677277,0
2024-12-11 14:27:45.733,0.217747,3.8689,9.77977,-0.185621,0.0720036,0.0677277,0
2024-12-11 14:27:45.735,0.241675,3.85454,9.77977,-0.176459,0.0628409,0.0640626,0
2024-12-11 14:27:45.738,0.27996,3.82822,9.77019,-0.166685,0.050624,0.0567324,0
2024-12-11 14:27:45.739,0.308973,3.81625,9.76062,-0.159966,0.038407,0.0487914,0
2024-12-11 14:27:45.742,0.347258,3.7995,9.74148,-0.151414,0.0237467,0.0402396,0
2024-12-11 14:27:45.744,0.366401,3.77079,9.71037,-0.145305,0.010308,0.0310769,0
2024-12-11 14:27:45.747,0.35683,3.75643,9.67448,-0.139808,-0.00496313,0.0182491,0
2024-12-11 14:27:45.749,0.335294,3.74925,9.65055,-0.132477,-0.0208452,0.00786466,0
2024-12-11 14:27:45.752,0.30658,3.74447,9.64098,-0.124536,-0.0538309,-0.013515,0
2024-12-11 14:27:45.755,0.270389,3.74447,9.61945,-0.11965,-0.0721563,-0.021456,0
2024-12-11 14:27:45.756,0.222533,3.73729,9.6027,-0.11965,-0.0721563,-0.021456,0
2024-12-11 14:27:45.758,0.177069,3.71815,9.59313,-0.117817,-0.0898709,-0.0324513,0
2024-12-11 14:27:45.761,0.153141,3.71336,9.59073,-0.11965,-0.110029,-0.0385597,0
2024-12-11 14:27:45.765,0.112463,3.69661,9.57638,-0.122093,-0.146069,-0.0532201,0
2024-12-11 14:27:45.765,0.131605,3.69661,9.57638,-0.122093,-0.146069,-0.0532201,0
2024-12-11 14:27:45.771,0.107677,3.61974,9.58116,-0.133088,-0.186996,-0.0648262,0
2024-12-11 14:27:45.771,0.107677,3.61974,9.58116,-0.133088,-0.186996,-0.0648262,0
2024-12-11 14:27:45.775,0.11007,3.57189,9.58116,-0.137364,-0.194937,-0.0666587,0
2024-12-11 14:27:45.775,0.124427,3.54317,9.58355,-0.137364,-0.194937,-0.0666587,0
2024-12-11 14:27:45.779,0.191426,3.47857,9.55963,-0.152635,-0.20471,-0.0691021,0
2024-12-11 14:27:45.782,0.191426,3.47857,9.57159,-0.160576,-0.201045,-0.0678804,0
2024-12-11 14:27:45.782,0.212961,3.43071,9.57159,-0.160576,-0.201045,-0.0678804,0
2024-12-11 14:27:45.785,0.210568,3.39003,9.57638,-0.179513,-0.187606,-0.0666587,0
2024-12-11 14:27:45.787,0.208176,3.35653,9.57159,-0.179513,-0.187606,-0.0666587,0
2024-12-11 14:27:45.792,0.205783,3.32064,9.59552,-0.198449,-0.16867,-0.0593285,0
2024-12-11 14:27:45.792,0.18664,3.29432,9.64577,-0.198449,-0.16867,-0.0593285,0
2024-12-11 14:27:45.794,0.162712,3.27996,9.70559,-0.198449,-0.16867,-0.0593285,0
2024-12-11 14:27:45.796,0.138784,3.26082,9.75344,-0.214331,-0.141182,-0.0544418,0
2024-12-11 14:27:45.798,0.119641,3.2345,9.80848,-0.224715,-0.127743,-0.0483333,0
2024-12-11 14:27:45.802,0.112463,3.22014,9.85903,-0.238765,-0.0965902,-0.0342838,0
2024-12-11 14:27:45.805,0.0765703,3.14357,9.92603,-0.243652,-0.081319,-0.0275645,0
2024-12-11 14:27:45.808,0.066999,3.09093,9.95953,-0.249149,-0.0648262,-0.0171801,0
2024-12-11 14:27:45.809,0.0765703,3.14357,9.92603,-0.252814,-0.0501658,-0.00679568,0
2024-12-11 14:27:45.811,0.0717847,3.04277,9.98824,-0.258312,-0.0367272,0.000534491,0
2024-12-11 14:27:45.812,0.0885344,2.99731,10.0217,-0.258312,-0.0367272,0.000534491,0
2024-12-11 14:27:45.815,0.0957129,2.95424,10.0768,-0.263199,-0.0220669,0.0115297,0
2024-12-11 14:27:45.819,0.0789631,2.86331,10.1797,-0.265031,0.00481042,0.0329094,0
2024-12-11 14:27:45.819,0.0789631,2.86331,10.1797,-0.265031,0.00481042,0.0329094,0
2024-12-11 14:27:45.822,0.0622134,2.84656,10.2515,-0.261977,0.0176382,0.0445155,0
2024-12-11 14:27:45.824,0.0502493,2.8346,10.3256,-0.258312,0.0286335,0.0573433,0
2024-12-11 14:27:45.828,0.0287139,2.82263,10.3953,-0.254036,0.0390179,0.0671168,0
2024-12-11 14:27:45.829,0.00239282,2.82024,10.4527,-0.247317,0.0481806,0.0793338,0
2024-12-11 14:27:45.832,-0.0215354,2.8322,10.4982,-0.221661,0.0658951,0.1056,0
2024-12-11 14:27:45.835,-0.0430708,2.83938,10.558,-0.221661,0.0658951,0.119039,0
2024-12-11 14:27:45.836,-0.0765703,2.85374,10.6059,-0.221661,0.0658951,0.119039,0
2024-12-11 14:27:45.838,-0.0957129,2.86331,10.6346,-0.192951,0.0817772,0.133699,0
2024-12-11 14:27:45.841,-0.0837488,2.86092,10.6729,-0.171572,0.0884965,0.146527,0
2024-12-11 14:27:45.843,-0.0646062,2.8657,10.704,-0.152635,0.0927724,0.162409,0
2024-12-11 14:27:45.846,-0.0454636,2.87767,10.7064,-0.130034,0.0976592,0.174626,0
2024-12-11 14:27:45.848,-0.0143569,2.89681,10.6992,-0.107433,0.103157,0.187454,0
2024-12-11 14:27:45.850,0.0311067,2.90638,10.7016,-0.107433,0.103157,0.200282,0
2024-12-11 14:27:45.855,0.117248,2.97338,10.6346,-0.0396287,0.111709,0.219218,0
2024-12-11 14:27:45.856,0.117248,2.97338,10.6346,-0.014584,0.115985,0.225937,0
2024-12-11 14:27:45.860,0.181855,2.9997,10.5437,0.00862822,0.116595,0.231435,0
2024-12-11 14:27:45.861,0.234497,3.01884,10.5437,0.0312296,0.120261,0.235711,0
2024-12-11 14:27:45.864,0.32333,3.09811,10.4097,0.0550526,0.121482,0.236322,0
2024-12-11 14:27:45.865,0.277567,3.04995,10.4097,0.0758214,0.123315,0.238154,0
2024-12-11 14:27:45.869,0.385544,3.15793,10.2443,0.0959794,0.12698,0.237543,0
2024-12-11 14:27:45.870,0.385544,3.15793,10.2443,0.111861,0.129423,0.2351,0
2024-12-11 14:27:45.874,0.419043,3.21536,10.0624,0.127133,0.13431,0.231435,0
2024-12-11 14:27:45.874,0.419043,3.21536,10.0624,0.127133,0.13431,0.231435,0
2024-12-11 14:27:45.876,0.419043,3.23211,9.97149,0.144847,0.139197,0.228991,0
2024-12-11 14:27:45.878,0.423829,3.25843,9.86621,0.158897,0.143473,0.226548,0
2024-12-11 14:27:45.881,0.411865,3.28235,9.76302,0.170503,0.14897,0.222272,0
2024-12-11 14:27:45.883,0.387936,3.2991,9.65773,0.170503,0.14897,0.222272,0
2024-12-11 14:27:45.885,0.373579,3.31585,9.53809,0.187606,0.154468,0.219218,0
2024-12-11 14:27:45.891,0.352044,3.33021,9.32513,0.196158,0.157522,0.214942,0
2024-12-11 14:27:45.892,0.337687,3.34696,9.21955,0.196158,0.157522,0.214942,0
2024-12-11 14:27:45.893,0.337687,3.34696,9.21955,0.196158,0.157522,0.214942,0
2024-12-11 14:27:45.895,0.32333,3.34935,9.13101,0.196158,0.158133,0.211888,0
2024-12-11 14:27:45.898,0.328116,3.35892,9.05683,0.196769,0.162409,0.208833,0
2024-12-11 14:27:45.902,0.308973,3.37089,8.9348,0.193715,0.164242,0.205168,0
2024-12-11 14:27:45.902,0.308973,3.37089,8.9348,0.193715,0.164242,0.205168,0
2024-12-11 14:27:45.905,0.308973,3.37089,8.89173,0.189439,0.166074,0.203336,0
2024-12-11 14:27:45.907,0.311366,3.38046,8.83669,0.186996,0.167296,0.200892,0
2024-12-11 14:27:45.909,0.30658,3.37807,8.79362,0.183941,0.167296,0.197227,0
2024-12-11 14:27:45.912,0.30658,3.3661,8.75294,0.177833,0.171572,0.194173,0
2024-12-11 14:27:45.914,0.328116,3.36132,8.72184,0.177833,0.171572,0.194173,0
2024-12-11 14:27:45.916,0.347258,3.35414,8.69283,0.177833,0.171572,0.194173,0
2024-12-11 14:27:45.921,0.366401,3.29671,8.61625,0.171724,0.17768,0.186843,0
2024-12-11 14:27:45.922,0.366401,3.29671,8.61625,0.171724,0.177069,0.187454,0
2024-12-11 14:27:45.923,0.371187,3.27278,8.57318,0.171724,0.177069,0.187454,0
2024-12-11 14:27:45.926,0.378365,3.26082,8.5349,0.165005,0.176459,0.181956,0
2024-12-11 14:27:45.928,0.390329,3.25364,8.51336,0.164394,0.175237,0.17768,0
2024-12-11 14:27:45.930,0.414257,3.24168,8.49661,0.160729,0.175237,0.176459,0
2024-12-11 14:27:45.933,0.445364,3.22493,8.48465,0.156453,0.172183,0.171572,0
2024-12-11 14:27:45.933,0.445364,3.22493,8.48465,0.156453,0.172183,0.171572,0
2024-12-11 14:27:45.938,0.521934,3.20818,8.42483,0.148512,0.152635,0.155079,0
2024-12-11 14:27:45.942,0.565005,3.17707,8.38654,0.145458,0.143473,0.145916,0
2024-12-11 14:27:45.943,0.565005,3.17707,8.38654,0.145458,0.143473,0.145916,0
2024-12-11 14:27:45.945,0.591326,3.16271,8.34826,0.13935,0.134921,0.138586,0
2024-12-11 14:27:45.947,0.627219,3.14357,8.31237,0.13263,0.125147,0.131256,0
2024-12-11 14:27:45.949,0.658325,3.11486,8.29322,0.128965,0.118428,0.123926,0
2024-12-11 14:27:45.951,0.677468,3.1005,8.28844,0.128965,0.118428,0.123926,0
2024-12-11 14:27:45.954,0.715753,3.09811,8.30519,0.122246,0.104379,0.114152,0
2024-12-11 14:27:45.958,0.751645,3.08584,8.29322,0.10392,0.0671168,0.082388,0
2024-12-11 14:27:45.958,0.775574,3.05474,8.29322,0.10392,0.0671168,0.082388,0
2024-12-11 14:27:45.961,0.797109,3.02602,8.28126,0.0965902,0.0561216,0.0720036,0
2024-12-11 14:27:45.963,0.809073,3.01406,8.29322,0.0965902,0.0561216,0.0720036,0
2024-12-11 14:27:45.966,0.821037,2.99252,8.3028,0.0831516,0.0359636,0.0512348,0
2024-12-11 14:27:45.968,0.837787,2.95902,8.31237,0.0782648,0.0249684,0.0420721,0
2024-12-11 14:27:45.970,0.85005,2.9327,8.33151,0.0709346,0.0170274,0.0329094,0
2024-12-11 14:27:45.973,0.857229,2.91595,8.35065,0.065437,0.0121406,0.0243575,0
2024-12-11 14:27:45.975,0.85005,2.91117,8.38415,0.065437,0.0121406,0.0243575,0
2024-12-11 14:27:45.980,0.818644,2.90878,8.42004,0.0501658,0.00419957,0.00847551,0
2024-12-11 14:27:45.983,0.813859,2.8992,8.43201,0.0434465,-0.00374144,-0.0019089,0
2024-12-11 14:27:45.985,0.794716,2.92552,8.42962,0.0434465,-0.00374144,-0.0019089,0
2024-12-11 14:27:45.987,0.782752,2.92074,8.4344,0.0263428,-0.00923906,-0.0116825,0
2024-12-11 14:27:45.989,0.780359,2.92792,8.45115,0.0208452,-0.00984991,-0.013515,0
2024-12-11 14:27:45.992,0.766002,2.95424,8.48226,0.0153475,-0.0116825,-0.0153475,0
2024-12-11 14:27:45.994,0.74686,2.94706,8.50379,0.0153475,-0.0116825,-0.0153475,0
2024-12-11 14:27:45.997,0.727717,2.96381,8.50379,-0.0096972,-0.0159584,-0.0202343,0
2024-12-11 14:27:46.001,0.682254,2.98774,8.54926,-0.0096972,-0.0159584,-0.0202343,0
2024-12-11 14:27:46.002,0.682254,2.98774,8.54926,-0.0170274,-0.0159584,-0.0208452,0
2024-12-11 14:27:46.007,0.65354,3.04756,8.62822,-0.0347419,-0.0202343,-0.0147367,0
2024-12-11 14:27:46.009,0.658325,3.08345,8.67368,-0.0347419,-0.0202343,-0.0147367,0
2024-12-11 14:27:46.014,0.646361,3.11486,8.76491,-0.046348,-0.0355055,-0.00129805,0
2024-12-11 14:27:46.015,0.65354,3.11725,8.7673,-0.046348,-0.0355055,-0.00129805,0
2024-12-11 14:27:46.016,0.691825,3.11725,8.7673,-0.046348,-0.0355055,-0.00129805,0
2024-12-11 14:27:46.020,0.744467,3.12443,8.76491,-0.0555107,-0.0581068,0.00481042,0
2024-12-11 14:27:46.021,0.828216,3.12443,8.76491,-0.0555107,-0.0581068,0.00481042,0
2024-12-11 14:27:46.024,1.03908,3.13879,8.69761,-0.0738362,-0.0886492,0.0096972,0
2024-12-11 14:27:46.024,1.03908,3.13879,8.69761,-0.0738362,-0.0886492,0.0096972,0
2024-12-11 14:27:46.030,1.22572,3.16271,8.64736,-0.102546,-0.1253,0.00419957,0
2024-12-11 14:27:46.031,1.33579,3.17228,8.63779,-0.102546,-0.1253,0.00419957,0
2024-12-11 14:27:46.036,1.5658,3.22493,8.65933,-0.158744,-0.18272,-0.0245102,0
2024-12-11 14:27:46.037,1.45334,3.19621,8.64018,-0.181345,-0.205321,-0.0348946,0
2024-12-11 14:27:46.041,1.71416,3.28475,8.72662,-0.181345,-0.205321,-0.0348946,0
2024-12-11 14:27:46.043,1.80269,3.28714,8.78405,-0.201503,-0.244415,-0.0617719,0
2024-12-11 14:27:46.050,2.04706,3.29671,8.88455,-0.27847,-0.275568,-0.106975,0
2024-12-11 14:27:46.055,2.09013,3.27039,8.92762,-0.360934,-0.29084,-0.135684,0
2024-12-11 14:27:46.057,2.07577,3.27039,8.98983,-0.388422,-0.28412,-0.147291,0
2024-12-11 14:27:46.058,2.09013,3.27039,8.98983,-0.388422,-0.28412,-0.147291,0
2024-12-11 14:27:46.062,1.98245,3.29671,9.11426,-0.445842,-0.267017,-0.164394,0
2024-12-11 14:27:46.065,1.89362,3.33739,9.18365,-0.445842,-0.267017,-0.164394,0
2024-12-11 14:27:46.067,1.80269,3.40439,9.26531,-0.495321,-0.235253,-0.172946,0
2024-12-11 14:27:46.069,1.69502,3.49053,9.35624,-0.519755,-0.217538,-0.176,0
2024-12-11 14:27:46.071,1.5658,3.57428,9.44956,-0.542967,-0.193104,-0.173557,0
2024-12-11 14:27:46.074,1.43659,3.67508,9.55723,-0.563125,-0.166838,-0.169281,0
2024-12-11 14:27:46.079,1.17069,3.87847,9.77259,-0.592445,-0.106975,-0.152177,0
2024-12-11 14:27:46.081,1.17069,3.96939,9.8686,-0.592445,-0.106975,-0.152177,0
2024-12-11 14:27:46.083,0.914656,4.05793,9.95713,-0.602219,-0.0715455,-0.129576,0
2024-12-11 14:27:46.086,0.811466,4.12732,10.0337,-0.608328,-0.00313059,-0.114305,0
2024-12-11 14:27:46.090,0.622433,4.26162,10.1414,-0.609549,0.0603975,-0.0837624,0
2024-12-11 14:27:46.090,0.622433,4.26162,10.1414,-0.609549,0.0603975,-0.0837624,0
2024-12-11 14:27:46.093,0.555434,4.32144,10.1725,-0.609549,0.0603975,-0.0837624,0
2024-12-11 14:27:46.096,0.483649,4.36451,10.1749,-0.597332,0.115374,-0.0489441,0
2024-12-11 14:27:46.101,0.383151,4.44347,10.127,-0.582672,0.160576,-0.013515,0
2024-12-11 14:27:46.102,0.337687,4.49372,10.0528,-0.575953,0.178902,0.00358873,0
2024-12-11 14:27:46.104,0.292223,4.57508,9.98585,-0.568012,0.198449,0.0182491,0
2024-12-11 14:27:46.107,0.241675,4.61815,9.92363,-0.568012,0.217385,0.0347419,0
2024-12-11 14:27:46.109,0.196211,4.65643,9.85185,-0.558238,0.229602,0.0530674,0
2024-12-11 14:27:46.113,0.145962,4.733,9.80609,-0.548464,0.244263,0.0811663,0
2024-12-11 14:27:46.114,0.100499,4.80748,9.79891,-0.548464,0.244263,0.0811663,0
2024-12-11 14:27:46.116,0.0598206,4.88405,9.81805,-0.548464,0.244263,0.0811663,0
2024-12-11 14:27:46.119,0.0119641,4.9343,9.82792,-0.536248,0.26381,0.100103,0
2024-12-11 14:27:46.121,-0.0311067,4.95583,9.82074,-0.536248,0.26381,0.111098,0
2024-12-11 14:27:46.123,-0.0646062,4.97976,9.81566,-0.518533,0.260755,0.120871,0
2024-12-11 14:27:46.126,-0.0646062,4.97976,9.77737,-0.518533,0.260755,0.120871,0
2024-12-11 14:27:46.128,-0.0909273,5.06112,9.72952,-0.497764,0.261977,0.129423,0
2024-12-11 14:27:46.130,-0.102891,5.09223,9.7008,-0.497764,0.261977,0.130034,0
2024-12-11 14:27:46.133,-0.105284,5.12573,9.6673,-0.476995,0.258312,0.130034,0
2024-12-11 14:27:46.136,-0.117248,5.15444,9.64337,-0.476995,0.258312,0.130034,0
2024-12-11 14:27:46.137,-0.136391,5.16162,9.61945,-0.462335,0.244263,0.124536,0
2024-12-11 14:27:46.140,-0.136391,5.16162,9.61945,-0.462335,0.244263,0.120261,0
2024-12-11 14:27:46.143,-0.162712,5.2023,9.5333,-0.450118,0.225937,0.114152,0
2024-12-11 14:27:46.144,-0.150748,5.1999,9.50938,-0.450118,0.225937,0.114152,0
2024-12-11 14:27:46.147,-0.136391,5.20947,9.47109,-0.434236,0.209444,0.0964375,0
2024-12-11 14:27:46.148,-0.136391,5.20947,9.47109,-0.434236,0.209444,0.0964375,0
2024-12-11 14:27:46.152,-0.133998,5.18555,9.45195,-0.418965,0.19173,0.0750579,0
2024-12-11 14:27:46.152,-0.133998,5.18555,9.45195,-0.418965,0.19173,0.0750579,0
2024-12-11 14:27:46.156,-0.150748,5.1329,9.43998,-0.406748,0.173404,0.0518457,0
2024-12-11 14:27:46.156,-0.150748,5.1329,9.43998,-0.406748,0.173404,0.0518457,0
2024-12-11 14:27:46.161,-0.229711,5.12333,9.41606,-0.380481,0.15569,0.0249684,0
2024-12-11 14:27:46.162,-0.229711,5.12333,9.41606,-0.380481,0.15569,0.0249684,0
2024-12-11 14:27:46.166,-0.311366,5.03719,9.38974,-0.359713,0.137364,-0.00129805,0
2024-12-11 14:27:46.166,-0.311366,5.03719,9.38974,-0.359713,0.137364,-0.00129805,0
2024-12-11 14:27:46.170,-0.375972,4.99173,9.30599,-0.341387,0.127591,-0.0245102,0
2024-12-11 14:27:46.171,-0.375972,4.99173,9.30599,-0.341387,0.127591,-0.0245102,0
2024-12-11 14:27:46.175,-0.471685,4.91276,9.2339,-0.325505,0.123315,-0.0446682,0
2024-12-11 14:27:46.176,-0.471685,4.91276,9.2339,-0.325505,0.123315,-0.0446682,0
2024-12-11 14:27:46.180,-0.576969,4.82423,9.17408,-0.311456,0.121482,-0.0593285,0
2024-12-11 14:27:46.181,-0.576969,4.82423,9.17408,-0.311456,0.121482,-0.0593285,0
2024-12-11 14:27:46.185,-0.696611,4.71386,9.10948,-0.305958,0.119039,-0.0648262,0
2024-12-11 14:27:46.186,-0.696611,4.71386,9.10948,-0.305958,0.119039,-0.0648262,0
2024-12-11 14:27:46.189,-0.754038,4.62293,9.02573,-0.293741,0.117817,-0.073378,0
2024-12-11 14:27:46.190,-0.797109,4.62293,9.02573,-0.293741,0.117817,-0.073378,0
2024-12-11 14:27:46.192,-0.85005,4.54636,8.99223,-0.290076,0.119039,-0.0745997,0
2024-12-11 14:27:46.195,-0.897907,4.48894,8.97787,-0.2858,0.118428,-0.0739889,0
2024-12-11 14:27:46.197,-0.94337,4.43629,8.97548,-0.274805,0.11232,-0.0672696,0
2024-12-11 14:27:46.199,-0.998405,4.36929,8.98266,-0.274805,0.11232,-0.0672696,0
2024-12-11 14:27:46.201,-1.05105,4.31426,8.98983,-0.269307,0.107433,-0.0623828,0
2024-12-11 14:27:46.204,-1.09412,4.26401,8.98505,-0.269307,0.107433,-0.0556635,0
2024-12-11 14:27:46.208,-1.16351,4.15603,8.98744,-0.251593,0.0964375,-0.0403923,0
2024-12-11 14:27:46.208,-1.16351,4.15603,8.98744,-0.251593,0.0964375,-0.0403923,0
2024-12-11 14:27:46.210,-1.17069,4.11296,8.97069,-0.246095,0.0921616,-0.0312296,0
2024-12-11 14:27:46.214,-1.16351,4.06032,8.94198,-0.2351,0.0836097,-0.0122933,0
2024-12-11 14:27:46.216,-1.17069,4.00529,8.92762,-0.227159,0.0829989,-0.0019089,0
2024-12-11 14:27:46.217,-1.16351,3.96461,8.93241,-0.227159,0.0829989,-0.0019089,0
2024-12-11 14:27:46.220,-1.1348,3.92154,8.93719,-0.222272,0.0805555,0.00908635,0
2024-12-11 14:27:46.222,-1.10848,3.87129,8.92523,-0.218607,0.0793338,0.0170274,0
2024-12-11 14:27:46.223,-1.10848,3.87129,8.92523,-0.218607,0.0793338,0.0170274,0
2024-12-11 14:27:46.227,-1.00558,3.78275,8.92523,-0.207001,0.0781121,0.0371853,0
2024-12-11 14:27:46.229,-0.964906,3.76122,8.87976,-0.202725,0.0787229,0.0469589,0
2024-12-11 14:27:46.232,-0.9003,3.74925,8.83909,-0.197838,0.0793338,0.0530674,0
2024-12-11 14:27:46.234,-0.828216,3.7325,8.8008,-0.196616,0.0829989,0.0622301,0
2024-12-11 14:27:46.236,-0.775574,3.69661,8.73859,-0.196616,0.0829989,0.0622301,0
2024-12-11 14:27:46.239,-0.71336,3.66551,8.68086,-0.198449,0.0939941,0.0750579,0
2024-12-11 14:27:46.239,-0.71336,3.66551,8.68086,-0.198449,0.0939941,0.0750579,0
2024-12-11 14:27:46.242,-0.639183,3.66311,8.61386,-0.202725,0.101324,0.082388,0
2024-12-11 14:27:46.247,-0.541077,3.64606,8.51815,-0.225326,0.122093,0.0933833,0
2024-12-11 14:27:46.248,-0.514756,3.62692,8.50619,-0.225326,0.122093,0.0933833,0
2024-12-11 14:27:46.250,-0.490828,3.62214,8.52293,-0.225326,0.122093,0.0933833,0
2024-12-11 14:27:46.253,-0.4669,3.62692,8.55883,-0.243652,0.131867,0.0952158,0
2024-12-11 14:27:46.255,-0.440578,3.62692,8.60908,-0.243652,0.131867,0.0933833,0
2024-12-11 14:27:46.259,-0.419043,3.62214,8.66411,-0.258923,0.136143,0.0921616,0
2024-12-11 14:27:46.261,-0.402293,3.62453,8.72902,-0.266253,0.136753,0.0909399,0
2024-12-11 14:27:46.262,-0.373579,3.61017,8.80559,-0.266864,0.136753,0.0909399,0
2024-12-11 14:27:46.265,-0.344866,3.57189,8.88216,-0.266864,0.136753,0.0909399,0
2024-12-11 14:27:46.267,-0.347258,3.52403,8.94437,-0.265031,0.139808,0.086664,0
2024-12-11 14:27:46.269,-0.366401,3.47139,9.00419,-0.261366,0.140419,0.0884965,0
2024-12-11 14:27:46.273,-0.395115,3.42592,9.07358,-0.255258,0.136143,0.0897182,0
2024-12-11 14:27:46.274,-0.395115,3.38046,9.15015,-0.255258,0.136143,0.0897182,0
2024-12-11 14:27:46.276,-0.529113,3.34935,9.22194,-0.236322,0.121482,0.0982701,0
2024-12-11 14:27:46.277,-0.529113,3.34935,9.22194,-0.236322,0.121482,0.0982701,0
2024-12-11 14:27:46.281,-0.60329,3.34935,9.36581,-0.211888,0.094605,0.113541,0
2024-12-11 14:27:46.284,-0.665504,3.34935,9.36581,-0.211888,0.094605,0.113541,0
2024-12-11 14:27:46.286,-0.758824,3.40678,9.4352,-0.182567,0.0701711,0.132477,0
2024-12-11 14:27:46.289,-0.758824,3.42353,9.44956,-0.145916,0.0494023,0.159355,0
2024-12-11 14:27:46.291,-0.787538,3.44507,9.45434,-0.145916,0.0494023,0.159355,0
2024-12-11 14:27:46.291,-0.80668,3.44507,9.45434,-0.145916,0.0494023,0.159355,0
2024-12-11 14:27:46.295,-0.82343,3.43789,9.37059,-0.127591,0.0432938,0.174626,0
2024-12-11 14:27:46.298,-0.881157,3.42353,9.31316,-0.0970484,0.0390179,0.210055,0
2024-12-11 14:27:46.301,-0.912264,3.42114,9.29402,-0.0732253,0.0402396,0.252204,0
2024-12-11 14:27:46.302,-0.931406,3.41396,9.27966,-0.0732253,0.0402396,0.252204,0
2024-12-11 14:27:46.305,-0.931406,3.40439,9.27009,-0.0597867,0.042683,0.274194,0
2024-12-11 14:27:46.308,-0.933799,3.41157,9.28445,-0.0365745,0.0445155,0.317564,0
2024-12-11 14:27:46.308,-0.933799,3.41157,9.28445,-0.0365745,0.0445155,0.317564,0
2024-12-11 14:27:46.309,-0.940978,3.4355,9.30599,-0.0365745,0.0445155,0.317564,0
2024-12-11 14:27:46.312,-0.926621,3.48814,9.33709,-0.0261901,0.046348,0.338944,0
2024-12-11 14:27:46.314,-0.914656,3.55035,9.36102,-0.0109189,0.0439046,0.360934,0
2024-12-11 14:27:46.316,-0.893121,3.60539,9.37059,0.00313059,0.046348,0.381092,0
2024-12-11 14:27:46.319,-0.862014,3.6679,9.37538,0.0122933,0.046348,0.40125,0
2024-12-11 14:27:46.322,-0.825823,3.72772,9.36102,0.0220669,0.0475697,0.420797,0
2024-12-11 14:27:46.323,-0.782752,3.78515,9.34188,0.0342838,0.0500131,0.436679,0
2024-12-11 14:27:46.326,-0.727717,3.8354,9.30838,0.0440574,0.0524565,0.454394,0
2024-12-11 14:27:46.328,-0.658325,3.8689,9.26292,0.0440574,0.0524565,0.454394,0
2024-12-11 14:27:46.331,-0.579362,3.90239,9.21955,0.0599394,0.0603975,0.483715,0
2024-12-11 14:27:46.331,-0.579362,3.90239,9.21955,0.0599394,0.0603975,0.483715,0
2024-12-11 14:27:46.336,-0.423829,3.94547,9.11426,0.0672696,0.0805555,0.514868,0
2024-12-11 14:27:46.336,-0.423829,3.94547,9.11426,0.0672696,0.0805555,0.514868,0
2024-12-11 14:27:46.340,-0.246461,4.02204,9.01616,0.0660479,0.0872748,0.520976,0
2024-12-11 14:27:46.341,-0.246461,4.02204,9.01616,0.0660479,0.0872748,0.520976,0
2024-12-11 14:27:46.345,-0.081356,4.07468,8.96112,0.0629936,0.104379,0.530139,0
2024-12-11 14:27:46.348,-0.081356,4.09861,8.96351,0.0550526,0.124536,0.526474,0
2024-12-11 14:27:46.349,0.0837488,4.10578,8.95634,0.0550526,0.124536,0.526474,0
2024-12-11 14:27:46.353,0.160319,4.12253,8.93241,0.0477224,0.145305,0.519144,0
2024-12-11 14:27:46.354,0.210568,4.14886,8.90848,0.0477224,0.145305,0.519144,0
2024-12-11 14:27:46.355,0.210568,4.14886,8.90848,0.0477224,0.145305,0.519144,0
2024-12-11 14:27:46.359,0.251246,4.18714,8.87737,0.037338,0.166074,0.505705,0
2024-12-11 14:27:46.359,0.251246,4.18714,8.87737,0.037338,0.166074,0.505705,0
2024-12-11 14:27:46.365,0.285045,4.21855,8.82473,0.0257319,0.197227,0.485547,0
2024-12-11 14:27:46.365,0.285045,4.21855,8.82473,0.0257319,0.197227,0.485547,0
2024-12-11 14:27:46.368,0.267996,4.20897,8.86062,0.0226777,0.202725,0.476995,0
2024-12-11 14:27:46.369,0.267996,4.20897,8.86062,0.0190126,0.207612,0.469665,0
2024-12-11 14:27:46.373,0.212961,4.22333,8.91805,0.0159584,0.209444,0.461724,0
2024-12-11 14:27:46.373,0.212961,4.22333,8.91805,0.0159584,0.209444,0.461724,0
2024-12-11 14:27:46.378,0.153141,4.25683,8.98026,0.0226777,0.211888,0.447675,0
2024-12-11 14:27:46.378,0.153141,4.25683,8.98026,0.0226777,0.211888,0.447675,0
2024-12-11 14:27:46.380,0.107677,4.25922,9.02573,0.0269536,0.21372,0.441566,0
2024-12-11 14:27:46.385,0.0765703,4.2664,9.05923,0.0391706,0.215553,0.434236,0
2024-12-11 14:27:46.387,0.0119641,4.27358,9.04248,0.0471116,0.22044,0.430571,0
2024-12-11 14:27:46.388,0.0430708,4.2688,9.05923,0.0556635,0.223494,0.430571,0
2024-12-11 14:27:46.393,-0.122034,4.28555,9.02573,0.0678804,0.233267,0.434847,0
2024-12-11 14:27:46.393,-0.122034,4.28555,9.02573,0.0678804,0.233267,0.434847,0
2024-12-11 14:27:46.396,-0.181855,4.31187,9.00419,0.0727672,0.235711,0.438512,0
2024-12-11 14:27:46.396,-0.241675,4.3334,8.98505,0.0727672,0.235711,0.438512,0
2024-12-11 14:27:46.399,-0.297009,4.35733,8.98266,0.0788757,0.240597,0.44462,0
2024-12-11 14:27:46.401,-0.330509,4.37887,8.99223,0.0825407,0.243652,0.453783,0
2024-12-11 14:27:46.404,-0.344866,4.4004,9.01137,0.0880384,0.247317,0.459281,0
2024-12-11 14:27:46.406,-0.347258,4.42194,9.02094,0.0959794,0.249149,0.466611,0
2024-12-11 14:27:46.408,-0.359223,4.43869,9.02094,0.102088,0.252814,0.476385,0
2024-12-11 14:27:46.412,-0.364008,4.46261,9.01137,0.115526,0.255258,0.489212,0
2024-12-11 14:27:46.414,-0.344866,4.4674,8.99941,0.122246,0.255869,0.497764,0
2024-12-11 14:27:46.416,-0.335294,4.47458,8.98026,0.122246,0.255869,0.497764,0
2024-12-11 14:27:46.418,-0.332901,4.49372,8.94916,0.128965,0.260145,0.50204,0
2024-12-11 14:27:46.419,-0.332901,4.49372,8.94916,0.128965,0.260145,0.50204,0
2024-12-11 14:27:46.423,-0.299402,4.54158,8.85584,0.129576,0.266864,0.514868,0
2024-12-11 14:27:46.425,-0.299402,4.57029,8.82952,0.128965,0.267475,0.521587,0
2024-12-11 14:27:46.427,-0.335294,4.57986,8.78405,0.130187,0.269918,0.528307,0
2024-12-11 14:27:46.429,-0.349651,4.58943,8.74337,0.130187,0.273583,0.531972,0
2024-12-11 14:27:46.433,-0.366401,4.6014,8.71705,0.121635,0.270529,0.543578,0
2024-12-11 14:27:46.434,-0.368794,4.62533,8.68804,0.121635,0.270529,0.543578,0
2024-12-11 14:27:46.438,-0.34008,4.66361,8.64018,0.113694,0.269918,0.549075,0
2024-12-11 14:27:46.440,-0.282652,4.69233,8.60908,0.0965902,0.268086,0.55213,0
2024-12-11 14:27:46.442,-0.244068,4.71386,8.58276,0.0965902,0.268086,0.55213,0
2024-12-11 14:27:46.444,-0.181855,4.72582,8.55883,0.0965902,0.268086,0.55213,0
2024-12-11 14:27:46.446,-0.11007,4.74257,8.55883,0.077654,0.270529,0.551519,0
2024-12-11 14:27:46.448,-0.0526421,4.75932,8.55404,0.0666587,0.272972,0.549075,0
2024-12-11 14:27:46.451,0.00478565,4.77398,8.55883,0.0556635,0.275416,0.546021,0
2024-12-11 14:27:46.455,0.066999,4.81705,8.64497,0.0318404,0.275416,0.527085,0
2024-12-11 14:27:46.455,0.105284,4.81705,8.64497,0.0318404,0.275416,0.527085,0
2024-12-11 14:27:46.458,0.129212,4.85055,8.69283,0.0208452,0.272362,0.519144,0
2024-12-11 14:27:46.461,0.141177,4.90798,8.75773,0.00862822,0.265642,0.507538,0
2024-12-11 14:27:46.463,0.131605,4.9678,8.83909,0.00862822,0.265642,0.507538,0
2024-12-11 14:27:46.465,0.141177,5.00848,8.92762,-0.00603212,0.24976,0.48066,0
2024-12-11 14:27:46.466,0.141177,5.00848,8.92762,-0.0151948,0.241208,0.466,0
2024-12-11 14:27:46.470,0.234497,5.08026,9.05205,-0.0194708,0.233267,0.448286,0
2024-12-11 14:27:46.472,0.275175,5.10898,9.10708,-0.0255792,0.225326,0.42996,0
2024-12-11 14:27:46.473,0.275175,5.10898,9.10708,-0.0255792,0.225326,0.42996,0
2024-12-11 14:27:46.473,0.275175,5.10898,9.10708,-0.0255792,0.225326,0.42996,0
2024-12-11 14:27:46.480,0.234497,5.1688,9.19322,-0.042683,0.214331,0.376206,0
2024-12-11 14:27:46.481,0.198604,5.19033,9.23869,-0.042683,0.214331,0.376206,0
2024-12-11 14:27:46.481,0.198604,5.19033,9.23869,-0.042683,0.214331,0.376206,0
2024-12-11 14:27:46.485,0.160319,5.1664,9.29163,-0.0603975,0.207612,0.354215,0
2024-12-11 14:27:46.487,0.124427,5.14726,9.35863,-0.0713928,0.188675,0.33589,0
2024-12-11 14:27:46.489,0.0837488,5.15922,9.46391,-0.0713928,0.188675,0.33589,0
2024-12-11 14:27:46.493,-0.00478565,5.18315,9.7008,-0.0891073,0.158133,0.320008,0
2024-12-11 14:27:46.495,-0.318545,5.32672,9.82553,-0.0933833,0.140419,0.321229,0
2024-12-11 14:27:46.499,-0.442971,5.39163,9.9667,-0.0988809,0.123926,0.325505,0
2024-12-11 14:27:46.500,-0.442971,5.39163,10.127,-0.0988809,0.123926,0.325505,0
2024-12-11 14:27:46.505,-0.651147,5.38924,10.4839,-0.086664,0.0964375,0.341998,0
2024-12-11 14:27:46.506,-0.651147,5.38924,10.4839,-0.0781121,0.0915507,0.352383,0
2024-12-11 14:27:46.510,-0.715753,5.4012,10.8021,-0.0781121,0.0915507,0.352383,0
2024-12-11 14:27:46.511,-0.715753,5.4012,10.8021,-0.0781121,0.0915507,0.352383,0
2024-12-11 14:27:46.514,-0.667897,5.40598,10.9962,-0.0475697,0.090329,0.374984,0
2024-12-11 14:27:46.520,-0.694218,5.42991,10.9484,0.00557398,0.11293,0.442177,0
2024-12-11 14:27:46.521,-0.691825,5.41077,10.8763,0.00557398,0.11293,0.442177,0
2024-12-11 14:27:46.522,-0.691825,5.41077,10.8763,0.0129041,0.129423,0.462946,0
2024-12-11 14:27:46.528,-0.675075,5.36291,10.8978,0.0245102,0.161798,0.501429,0
2024-12-11 14:27:46.528,-0.675075,5.36291,10.8978,0.0245102,0.161798,0.501429,0
2024-12-11 14:27:46.531,-0.696611,5.43948,10.9122,0.0287862,0.176459,0.525252,0
2024-12-11 14:27:46.534,-0.696611,5.49452,10.9436,0.029397,0.180734,0.548464,0
2024-12-11 14:27:46.538,-0.612862,5.57109,11.0441,0.0306187,0.173404,0.58817,0
2024-12-11 14:27:46.540,-0.562612,5.58545,11.0919,0.0287862,0.162409,0.608328,0
2024-12-11 14:27:46.545,-0.371187,5.59262,11.214,0.0300079,0.142862,0.632761,0
2024-12-11 14:27:46.548,-0.265603,5.59023,11.2714,0.0300079,0.142862,0.632761,0
2024-12-11 14:27:46.552,-0.0311067,5.53998,11.3504,0.0287862,0.104379,0.656584,0
2024-12-11 14:27:46.553,-0.0311067,5.53998,11.3504,0.0287862,0.104379,0.656584,0
2024-12-11 14:27:46.554,0.136391,5.48973,11.403,0.0281753,0.094605,0.658417,0
2024-12-11 14:27:46.557,0.318545,5.43231,11.4532,0.0263428,0.082388,0.655974,0
2024-12-11 14:27:46.561,0.462114,5.45384,11.5445,0.0269536,0.058565,0.644978,0
2024-12-11 14:27:46.561,0.462114,5.45384,11.5445,0.0269536,0.058565,0.644978,0
2024-12-11 14:27:46.569,1.68544,4.84337,12.1884,0.0226777,-0.0342838,0.61016,0
2024-12-11 14:27:46.571,1.36451,4.87209,12.1597,0.0226777,-0.0342838,0.61016,0
2024-12-11 14:27:46.575,0.414257,5.71227,11.901,0.0519984,0.0127514,0.551519,0
2024-12-11 14:27:46.578,0.512363,5.9016,11.8675,0.0519984,0.0127514,0.551519,0
2024-12-11 14:27:46.580,0.670289,5.9351,11.8866,0.0568851,0.0860531,0.549075,0
2024-12-11 14:27:46.581,0.670289,5.9351,11.8866,0.0568851,0.0860531,0.549075,0
2024-12-11 14:27:46.585,0.742074,5.78166,12.0855,0.0617719,0.119039,0.544799,0
2024-12-11 14:27:46.587,0.82343,5.54238,12.1789,0.0617719,0.119039,0.544799,0
2024-12-11 14:27:46.593,1.02712,5.02044,12.21,0.0892601,0.203947,0.510592,0
2024-12-11 14:27:46.594,1.06301,4.82902,12.2267,0.0892601,0.203947,0.510592,0
2024-12-11 14:27:46.594,1.06301,4.82902,12.2267,0.0892601,0.203947,0.510592,0
2024-12-11 14:27:46.594,1.06301,4.82902,12.2267,0.0892601,0.203947,0.510592,0
2024-12-11 14:27:46.594,1.06301,4.82902,12.2267,0.0892601,0.203947,0.510592,0
2024-12-11 14:27:46.594,1.06301,4.82902,12.2267,0.0892601,0.203947,0.510592,0
2024-12-11 14:27:46.594,1.06301,4.82902,12.2267,0.0892601,0.203947,0.510592,0
2024-12-11 14:27:46.595,1.06301,4.82902,12.2267,0.0892601,0.203947,0.510592,0
2024-12-11 14:27:46.614,-0.0430708,4.99891,11.578,0.188217,0.583283,0.498375,0
2024-12-11 14:27:46.618,-0.208176,4.93191,11.147,0.179055,0.601608,0.49471,0
2024-12-11 14:27:46.619,-0.361615,4.93191,11.147,0.179055,0.601608,0.49471,0
2024-12-11 14:27:46.620,-0.476471,4.86012,10.9217,0.167449,0.610771,0.488601,0
2024-12-11 14:27:46.625,-0.665504,4.66361,10.5461,0.116137,0.580839,0.470887,0
2024-12-11 14:27:46.627,-0.710967,4.54636,10.4456,0.0825407,0.539913,0.461113,0
2024-12-11 14:27:46.630,-0.722932,4.42672,10.3735,0.0434465,0.484936,0.445231,0
2024-12-11 14:27:46.633,-0.722932,4.29512,10.3472,0.00129805,0.414689,0.431182,0
2024-12-11 14:27:46.637,-0.572184,3.98614,10.3834,-0.0958267,0.244263,0.395142,0
2024-12-11 14:27:46.640,-0.572184,3.98614,10.3834,-0.200282,0.0640626,0.358491,0
2024-12-11 14:27:46.640,-0.464507,3.81386,10.448,-0.200282,0.0640626,0.358491,0
2024-12-11 14:27:46.641,-0.325723,3.63171,10.5365,-0.200282,0.0640626,0.358491,0
2024-12-11 14:27:46.641,-0.325723,3.63171,10.5365,-0.200282,0.0640626,0.358491,0
2024-12-11 14:27:46.642,-0.325723,3.63171,10.5365,-0.200282,0.0640626,0.358491,0
2024-12-11 14:27:46.642,-0.325723,3.63171,10.5365,-0.200282,0.0640626,0.358491,0
2024-12-11 14:27:46.642,-0.325723,3.63171,10.5365,-0.200282,0.0640626,0.358491,0
2024-12-11 14:27:46.656,0.797109,2.23131,12.3464,-0.200282,0.0640626,0.358491,0
2024-12-11 14:27:46.661,1.24965,1.73091,13.5027,-0.47333,-0.521129,0.100103,0
2024-12-11 14:27:46.666,1.61605,1.25922,14.6112,-0.45134,-0.552282,0.0597867,0
2024-12-11 14:27:46.667,1.76201,1.02951,15.0972,-0.45134,-0.552282,0.0597867,0
2024-12-11 14:27:46.670,1.88644,0.794716,15.533,-0.364599,-0.566332,-0.021456,0
2024-12-11 14:27:46.672,1.98245,0.545863,15.8895,-0.364599,-0.566332,-0.021456,0
2024-12-11 14:27:46.674,2.0351,0.289831,16.1865,-0.233267,-0.519907,-0.0953685,1
2024-12-11 14:27:46.678,2.02552,0.0526421,16.4187,-0.152635,-0.474705,-0.127133,0
2024-12-11 14:27:46.680,1.97288,-0.143569,16.5577,0.0190126,-0.359865,-0.179055,0
2024-12-11 14:27:46.684,1.75244,-0.500399,16.6152,0.11064,-0.293894,-0.19738,0
2024-12-11 14:27:46.687,1.58973,-0.665504,16.5359,0.293894,-0.152788,-0.210819,0
2024-12-11 14:27:46.691,1.21376,-0.917049,16.1315,0.383078,-0.077654,-0.207764,0
2024-12-11 14:27:46.693,1.21376,-0.986441,15.8297,0.463709,-0.00862822,-0.198602,0
2024-12-11 14:27:46.697,0.830609,-1.02712,15.466,0.6152,0.119039,-0.161951,0
2024-12-11 14:27:46.699,0.605683,-1.01037,15.0494,0.6152,0.119039,-0.161951,0
2024-12-11 14:27:46.700,0.371187,-0.964906,14.592,0.6152,0.119039,-0.161951,0
2024-12-11 14:27:46.703,0.155533,-0.909871,14.094,0.730039,0.22044,-0.105142,0
2024-12-11 14:27:46.703,0.155533,-0.909871,14.094,0.730039,0.22044,-0.105142,0
2024-12-11 14:27:46.708,-0.0741775,-0.787538,13.098,0.796621,0.284578,-0.0348946,0
2024-12-11 14:27:46.710,-0.105284,-0.74686,12.6215,0.796621,0.284578,-0.0348946,0
2024-12-11 14:27:46.713,-0.081356,-0.710967,12.1741,0.819833,0.312067,0.0280226,0
2024-12-11 14:27:46.715,-0.0167498,-0.701396,11.7574,0.819833,0.312067,0.0280226,0
2024-12-11 14:27:46.717,0.0861416,-0.682254,11.3886,0.819833,0.312067,0.0280226,0
2024-12-11 14:27:46.720,0.198604,-0.643968,11.08,0.78135,0.321229,0.104989,0
2024-12-11 14:27:46.722,0.313759,-0.591326,10.8045,0.78135,0.321229,0.104989,0
2024-12-11 14:27:46.723,0.313759,-0.591326,10.8045,0.78135,0.321229,0.104989,0
2024-12-11 14:27:46.729,0.572184,-0.354437,10.1701,0.714157,0.311456,0.125758,0
2024-12-11 14:27:46.731,0.62004,-0.244068,10.0002,0.68728,0.308401,0.128202,0
2024-12-11 14:27:46.734,0.651147,-0.12682,9.87338,0.663456,0.310845,0.128202,0
2024-12-11 14:27:46.736,0.694218,-0.0143569,9.77259,0.663456,0.310845,0.128202,0
2024-12-11 14:27:46.738,0.718146,0.0909273,9.68645,0.617032,0.31451,0.119039,0
2024-12-11 14:27:46.740,0.71336,0.215354,9.59791,0.617032,0.31451,0.119039,0
2024-12-11 14:27:46.743,0.694218,0.344866,9.51416,0.57977,0.331614,0.100713,0
2024-12-11 14:27:46.746,0.632004,0.474078,9.4352,0.56511,0.343831,0.0891073,0
2024-12-11 14:27:46.748,0.545863,0.598505,9.33709,0.56511,0.343831,0.0891073,0
2024-12-11 14:27:46.750,0.45015,0.708575,9.23151,0.537011,0.361545,0.0683385,0
2024-12-11 14:27:46.753,0.335294,0.830609,9.11665,0.526016,0.369486,0.0591758,0
2024-12-11 14:27:46.754,0.22014,0.94337,8.99223,0.512577,0.373762,0.0530674,0
2024-12-11 14:27:46.759,-0.00239282,1.10848,8.71466,0.487532,0.37193,0.0408504,0
2024-12-11 14:27:46.759,-0.00239282,1.10848,8.71466,0.487532,0.37193,0.0408504,0
2024-12-11 14:27:46.764,-0.165105,1.25922,8.40329,0.453325,0.360324,0.0371853,0
2024-12-11 14:27:46.766,-0.165105,1.25922,8.40329,0.453325,0.360324,0.0371853,0
2024-12-11 14:27:46.769,-0.32333,1.39322,8.12064,0.409955,0.341998,0.0347419,0
2024-12-11 14:27:46.769,-0.32333,1.39322,8.12064,0.409955,0.341998,0.0347419,0
2024-12-11 14:27:46.773,-0.423829,1.52034,7.91964,0.359865,0.305958,0.0371853,0
2024-12-11 14:27:46.773,-0.423829,1.52034,7.91964,0.359865,0.305958,0.0371853,0
2024-12-11 14:27:46.779,-0.555434,1.63759,7.8335,0.31283,0.264421,0.0414613,0
2024-12-11 14:27:46.780,-0.608076,1.70219,7.83829,0.31283,0.264421,0.0414613,0
2024-12-11 14:27:46.783,-0.667897,1.75484,7.84068,0.271903,0.223494,0.0500131,0
2024-12-11 14:27:46.785,-0.699003,1.81944,7.84786,0.271903,0.223494,0.0500131,0
2024-12-11 14:27:46.787,-0.722932,1.88405,7.88136,0.239528,0.183789,0.0616192,0
2024-12-11 14:27:46.790,-0.74686,1.91516,7.91007,0.226701,0.166685,0.0646735,0
2024-12-11 14:27:46.795,-0.770788,1.97528,7.95554,0.21143,0.137975,0.074447,0
2024-12-11 14:27:46.798,-0.787538,2.0016,7.98664,0.205321,0.109876,0.082388,0
2024-12-11 14:27:46.799,-0.797109,2.02313,8.02254,0.205321,0.109876,0.082388,0
2024-12-11 14:27:46.800,-0.797109,2.02313,8.02254,0.206543,0.0952158,0.0884965,0
2024-12-11 14:27:46.804,-0.852443,2.06142,8.07757,0.210819,0.0811663,0.094605,0
2024-12-11 14:27:46.806,-0.876371,2.08056,8.08475,0.216927,0.0646735,0.100713,0
2024-12-11 14:27:46.809,-0.909871,2.10449,8.06321,0.224868,0.0487914,0.109876,0
2024-12-11 14:27:46.809,-0.909871,2.10449,8.06321,0.224868,0.0487914,0.109876,0
2024-12-11 14:27:46.816,-0.984048,2.14995,8.04886,0.255411,0.00297788,0.136753,0
2024-12-11 14:27:46.816,-1.02951,2.17627,8.04886,0.255411,0.00297788,0.136753,0
2024-12-11 14:27:46.820,-1.05105,2.20977,8.03689,0.283509,-0.0275645,0.156911,0
2024-12-11 14:27:46.820,-1.05823,2.23609,8.01536,0.283509,-0.0275645,0.156911,0
2024-12-11 14:27:46.825,-1.02951,2.26241,7.96511,0.314052,-0.0544418,0.178291,0
2024-12-11 14:27:46.827,-1.02233,2.27199,7.89811,0.330545,-0.0666587,0.185621,0
2024-12-11 14:27:46.830,-1.0008,2.30309,7.81675,0.330545,-0.0666587,0.185621,0
2024-12-11 14:27:46.832,-0.984048,2.3342,7.7354,0.36353,-0.0862058,0.201503,0
2024-12-11 14:27:46.835,-0.957727,2.34377,7.66122,0.36353,-0.0862058,0.201503,0
2024-12-11 14:27:46.838,-0.902692,2.34377,7.5676,0.401403,-0.114305,0.214942,0
2024-12-11 14:27:46.842,-0.787538,2.38445,7.35225,0.401403,-0.114305,0.214942,0
2024-12-11 14:27:46.844,-0.787538,2.38445,7.21586,0.416063,-0.137517,0.214942,0
2024-12-11 14:27:46.846,-0.708575,2.42273,7.05793,0.418507,-0.150956,0.213109,0
2024-12-11 14:27:46.849,-0.691825,2.44666,6.9356,0.417285,-0.160729,0.210666,0
2024-12-11 14:27:46.851,-0.679861,2.47059,6.79442,0.417285,-0.160729,0.210666,0
2024-12-11 14:27:46.854,-0.677468,2.48495,6.65085,0.403236,-0.190661,0.200892,0
2024-12-11 14:27:46.859,-0.646361,2.4993,6.43998,0.37758,-0.218149,0.189286,0
2024-12-11 14:27:46.860,-0.627219,2.50648,6.37538,0.37758,-0.218149,0.189286,0
2024-12-11 14:27:46.864,-0.610469,2.53549,6.32991,0.344594,-0.243194,0.177069,0
