timestamp,accel_x,accel_y,accel_z,gyro_x,gyro_y,gyro_z,step_timestamp
2024-12-11 14:39:22.361,-0.102891,3.14357,9.05683,0.0379489,-0.0330621,0.0261901,0
2024-12-11 14:39:22.361,-0.0885344,3.12443,9.05683,0.0379489,-0.0330621,0.0261901,0
2024-12-11 14:39:22.361,-0.102891,3.14357,9.05683,0.0379489,-0.0330621,0.0261901,0
2024-12-11 14:39:22.361,-0.102891,3.14357,9.05683,0.0379489,-0.0330621,0.0261901,0
2024-12-11 14:39:22.361,-0.102891,3.14357,9.05683,0.0379489,-0.0330621,0.0261901,0
2024-12-11 14:39:22.361,-0.102891,3.14357,9.05683,0.0379489,-0.0330621,0.0261901,0
2024-12-11 14:39:22.361,-0.102891,3.14357,9.05683,0.0379489,-0.0330621,0.0261901,0
2024-12-11 14:39:22.361,-0.102891,3.14357,9.05683,0.0379489,-0.0330621,0.0261901,0
2024-12-11 14:39:22.361,-0.102891,3.14357,9.05683,0.0379489,-0.0330621,0.0261901,0
2024-12-11 14:39:22.361,-0.102891,3.14357,9.05683,0.0379489,-0.0330621,0.0261901,0
2024-12-11 14:39:22.361,-0.102891,3.14357,9.05683,0.0379489,-0.0330621,0.0261901,0
2024-12-11 14:39:22.361,-0.102891,3.14357,9.05683,0.0379489,-0.0330621,0.0261901,0
2024-12-11 14:39:22.361,-0.102891,3.14357,9.05683,0.0379489,-0.0330621,0.0261901,0
2024-12-11 14:39:22.361,-0.102891,3.14357,9.05683,0.0379489,-0.0330621,0.0261901,0
2024-12-11 14:39:22.361,-0.102891,3.14357,9.05683,0.0379489,-0.0330621,0.0261901,0
2024-12-11 14:39:22.361,-0.102891,3.14357,9.05683,0.0379489,-0.0330621,0.0261901,0
2024-12-11 14:39:22.361,-0.102891,3.14357,9.05683,0.0379489,-0.0330621,0.0261901,0
2024-12-11 14:39:22.361,-0.102891,3.14357,9.05683,0.0379489,-0.0330621,0.0261901,0
2024-12-11 14:39:22.361,-0.102891,3.14357,9.05683,0.0379489,-0.0330621,0.0261901,0
2024-12-11 14:39:22.361,-0.102891,3.14357,9.05683,0.0379489,-0.0330621,0.0261901,0
2024-12-11 14:39:22.361,-0.102891,3.14357,9.05683,0.0379489,-0.0330621,0.0261901,0
2024-12-11 14:39:22.361,-0.102891,3.14357,9.05683,0.0379489,-0.0330621,0.0261901,0
2024-12-11 14:39:22.361,-0.102891,3.14357,9.05683,0.0379489,-0.0330621,0.0261901,0
2024-12-11 14:39:22.361,-0.102891,3.14357,9.05683,0.0379489,-0.0330621,0.0261901,0
2024-12-11 14:39:22.361,-0.102891,3.14357,9.05683,0.0379489,-0.0330621,0.0261901,0
2024-12-11 14:39:22.361,-0.102891,3.14357,9.05683,0.0379489,-0.0330621,0.0261901,0
2024-12-11 14:39:22.362,-0.102891,3.14357,9.05683,0.0379489,-0.0330621,0.0261901,0
2024-12-11 14:39:22.362,-0.102891,3.14357,9.05683,0.0379489,-0.0330621,0.0261901,0
2024-12-11 14:39:22.362,-0.102891,3.14357,9.05683,0.0379489,-0.0330621,0.0261901,0
2024-12-11 14:39:22.362,-0.102891,3.14357,9.05683,0.0379489,-0.0330621,0.0261901,0
2024-12-11 14:39:22.362,-0.102891,3.14357,9.05683,0.0379489,-0.0330621,0.0261901,0
2024-12-11 14:39:22.362,-0.102891,3.14357,9.05683,0.0379489,-0.0330621,0.0261901,0
2024-12-11 14:39:22.362,-0.102891,3.14357,9.05683,0.0379489,-0.0330621,0.0261901,0
2024-12-11 14:39:22.362,-0.102891,3.14357,9.05683,0.0379489,-0.0330621,0.0261901,0
2024-12-11 14:39:22.362,-0.102891,3.14357,9.05683,0.0379489,-0.0330621,0.0261901,0
2024-12-11 14:39:22.362,-0.102891,3.14357,9.05683,0.0379489,-0.0330621,0.0261901,0
2024-12-11 14:39:22.384,-0.275175,3.25125,8.69283,0.0513875,-0.0513875,0.0219141,0
2024-12-11 14:39:22.384,-0.275175,3.25125,8.69283,0.0513875,-0.0513875,0.0219141,0
2024-12-11 14:39:22.384,-0.275175,3.25125,8.69283,0.0513875,-0.0513875,0.0219141,0
2024-12-11 14:39:22.384,-0.275175,3.25125,8.69283,0.0513875,-0.0513875,0.0219141,0
2024-12-11 14:39:22.384,-0.275175,3.25125,8.69283,0.0513875,-0.0513875,0.0219141,0
2024-12-11 14:39:22.384,-0.275175,3.25125,8.69283,0.0513875,-0.0513875,0.0219141,0
2024-12-11 14:39:22.384,-0.275175,3.25125,8.69283,0.0513875,-0.0513875,0.0219141,0
2024-12-11 14:39:22.385,-0.275175,3.25125,8.69283,0.0513875,-0.0513875,0.0219141,0
2024-12-11 14:39:22.385,-0.275175,3.25125,8.69283,0.0513875,-0.0513875,0.0219141,0
2024-12-11 14:39:22.389,-0.265603,3.24168,8.64258,0.0379489,-0.0367272,0.0329094,0
2024-12-11 14:39:22.389,-0.265603,3.24168,8.64258,0.0379489,-0.0367272,0.0329094,0
2024-12-11 14:39:22.389,-0.265603,3.24168,8.64258,0.0379489,-0.0367272,0.0329094,0
2024-12-11 14:39:22.389,-0.265603,3.24168,8.64258,0.0379489,-0.0367272,0.0329094,0
2024-12-11 14:39:22.389,-0.265603,3.24168,8.64258,0.0379489,-0.0367272,0.0329094,0
2024-12-11 14:39:22.389,-0.265603,3.24168,8.64258,0.0379489,-0.0367272,0.0329094,0
2024-12-11 14:39:22.389,-0.265603,3.24168,8.64258,0.0379489,-0.0367272,0.0329094,0
2024-12-11 14:39:22.390,-0.265603,3.24168,8.64258,0.0257319,-0.0281753,0.038407,0
2024-12-11 14:39:22.390,-0.265603,3.24168,8.64258,0.0257319,-0.0281753,0.038407,0
2024-12-11 14:39:22.390,-0.265603,3.24168,8.64258,0.0257319,-0.0281753,0.038407,0
2024-12-11 14:39:22.391,-0.287438,3.2345,8.63301,0.0257319,-0.0281753,0.038407,0
2024-12-11 14:39:22.391,-0.287438,3.2345,8.63301,0.0257319,-0.0281753,0.038407,0
2024-12-11 14:39:22.391,-0.287438,3.2345,8.63301,0.0257319,-0.0281753,0.038407,0
2024-12-11 14:39:22.391,-0.287438,3.2345,8.63301,0.0257319,-0.0281753,0.038407,0
2024-12-11 14:39:22.391,-0.287438,3.2345,8.63301,0.0257319,-0.0281753,0.038407,0
2024-12-11 14:39:22.391,-0.287438,3.2345,8.63301,0.0257319,-0.0281753,0.038407,0
2024-12-11 14:39:22.391,-0.287438,3.2345,8.63301,0.0257319,-0.0281753,0.038407,0
2024-12-11 14:39:22.391,-0.287438,3.2345,8.63301,0.0257319,-0.0281753,0.038407,0
2024-12-11 14:39:22.391,-0.287438,3.2345,8.63301,0.0257319,-0.0281753,0.038407,0
2024-12-11 14:39:22.391,-0.287438,3.2345,8.63301,0.0257319,-0.0281753,0.038407,0
2024-12-11 14:39:22.392,-0.287438,3.2345,8.63301,0.0257319,-0.0281753,0.038407,0
2024-12-11 14:39:22.392,-0.287438,3.2345,8.63301,0.0257319,-0.0281753,0.038407,0
2024-12-11 14:39:22.392,-0.287438,3.2345,8.63301,0.0257319,-0.0281753,0.038407,0
2024-12-11 14:39:22.392,-0.287438,3.2345,8.63301,0.0257319,-0.0281753,0.038407,0
2024-12-11 14:39:22.392,-0.287438,3.2345,8.63301,0.0257319,-0.0281753,0.038407,0
2024-12-11 14:39:22.392,-0.287438,3.2345,8.63301,0.0257319,-0.0281753,0.038407,0
2024-12-11 14:39:22.401,-0.447757,3.30868,8.75773,-0.0206925,0.00114534,0.0720036,0
2024-12-11 14:39:22.401,-0.447757,3.30868,8.75773,-0.0206925,0.00114534,0.0720036,0
2024-12-11 14:39:22.403,-0.476471,3.35653,8.82473,-0.0341311,0.00419957,0.0799446,0
2024-12-11 14:39:22.403,-0.476471,3.35653,8.82473,-0.0341311,0.00419957,0.0799446,0
2024-12-11 14:39:22.403,-0.476471,3.35653,8.82473,-0.0341311,0.00419957,0.0799446,0
2024-12-11 14:39:22.403,-0.476471,3.35653,8.82473,-0.0341311,0.00419957,0.0799446,0
2024-12-11 14:39:22.407,-0.486042,3.39721,8.89173,-0.0548999,0.0121406,0.0976592,0
2024-12-11 14:39:22.408,-0.500399,3.42592,8.95634,-0.0548999,0.0121406,0.0976592,0
2024-12-11 14:39:22.408,-0.500399,3.42592,8.95634,-0.0548999,0.0121406,0.0976592,0
2024-12-11 14:39:22.408,-0.500399,3.42592,8.95634,-0.0548999,0.0121406,0.0976592,0
2024-12-11 14:39:22.409,-0.500399,3.42592,8.95634,-0.0597867,0.0151948,0.104989,0
2024-12-11 14:39:22.410,-0.50997,3.44507,9.02573,-0.0597867,0.0151948,0.104989,0
2024-12-11 14:39:22.410,-0.50997,3.44507,9.02573,-0.0597867,0.0151948,0.104989,0
2024-12-11 14:39:22.411,-0.50997,3.44507,9.02573,-0.0646735,0.0170274,0.106822,0
2024-12-11 14:39:22.411,-0.50997,3.44507,9.02573,-0.0646735,0.0170274,0.106822,0
2024-12-11 14:39:22.413,-0.514756,3.48096,9.10469,-0.0646735,0.0170274,0.106822,0
2024-12-11 14:39:22.413,-0.514756,3.48096,9.10469,-0.0646735,0.0170274,0.106822,0
2024-12-11 14:39:22.413,-0.514756,3.48096,9.10469,-0.0646735,0.0170274,0.106822,0
2024-12-11 14:39:22.413,-0.514756,3.48096,9.10469,-0.0646735,0.0170274,0.106822,0
2024-12-11 14:39:22.414,-0.514756,3.48096,9.10469,-0.0701711,0.0188599,0.111098,0
2024-12-11 14:39:22.414,-0.514756,3.48096,9.10469,-0.0701711,0.0188599,0.111098,0
2024-12-11 14:39:22.415,-0.521934,3.50489,9.17169,-0.0701711,0.0188599,0.111098,0
2024-12-11 14:39:22.415,-0.521934,3.50489,9.17169,-0.0701711,0.0188599,0.111098,0
2024-12-11 14:39:22.415,-0.521934,3.50489,9.17169,-0.0701711,0.0188599,0.111098,0
2024-12-11 14:39:22.417,-0.514756,3.53121,9.2363,-0.0732253,0.0188599,0.116595,0
2024-12-11 14:39:22.420,-0.517149,3.56471,9.31077,-0.0738362,0.0158057,0.117817,0
2024-12-11 14:39:22.422,-0.531506,3.57667,9.36341,-0.074447,0.0133623,0.120261,0
2024-12-11 14:39:22.424,-0.533899,3.59821,9.39931,-0.074447,0.00603212,0.122093,0
2024-12-11 14:39:22.427,-0.524327,3.61974,9.43998,-0.0713928,-0.000687203,0.122704,0
2024-12-11 14:39:22.429,-0.505185,3.63649,9.45434,-0.0732253,-0.00984991,0.122704,0
2024-12-11 14:39:22.432,-0.498006,3.65354,9.45434,-0.0732253,-0.0177909,0.125147,0
2024-12-11 14:39:22.434,-0.495613,3.67268,9.4687,-0.074447,-0.029397,0.126369,0
2024-12-11 14:39:22.436,-0.474078,3.68465,9.47588,-0.0762796,-0.0385597,0.125758,0
2024-12-11 14:39:22.439,-0.428614,3.67508,9.47109,-0.0793338,-0.0477224,0.12698,0
2024-12-11 14:39:22.441,-0.390329,3.67747,9.47827,-0.0860531,-0.0562743,0.127591,0
2024-12-11 14:39:22.444,-0.35683,3.68465,9.49981,-0.0970484,-0.0782648,0.125758,0
2024-12-11 14:39:22.447,-0.304188,3.67986,9.50698,-0.0970484,-0.0782648,0.125758,0
2024-12-11 14:39:22.448,-0.244068,3.67029,9.51895,-0.106211,-0.0862058,0.125147,0
2024-12-11 14:39:22.450,-0.196211,3.6679,9.55245,-0.114763,-0.0923143,0.123315,0
2024-12-11 14:39:22.454,-0.150748,3.68226,9.58355,-0.133699,-0.10331,0.117817,0
2024-12-11 14:39:22.456,-0.0981057,3.69183,9.62184,-0.133699,-0.10331,0.117817,0
2024-12-11 14:39:22.457,-0.0622134,3.68943,9.66252,-0.144694,-0.100866,0.116595,0
2024-12-11 14:39:22.460,-0.0334995,3.68226,9.69602,-0.154468,-0.0984228,0.113541,0
2024-12-11 14:39:22.462,0.0239282,3.68465,9.75584,-0.161187,-0.093536,0.109876,0
2024-12-11 14:39:22.464,0.0933201,3.67986,9.82314,-0.169128,-0.0849841,0.102546,0
2024-12-11 14:39:22.468,0.114855,3.66551,9.89253,-0.175237,-0.0550526,0.0884965,0
2024-12-11 14:39:22.470,0.0981057,3.67508,9.96431,-0.174015,-0.0458899,0.0854423,0
2024-12-11 14:39:22.473,0.0646062,3.71575,10.0193,-0.175848,-0.0410031,0.0842206,0
2024-12-11 14:39:22.474,0.0382852,3.74925,10.0481,-0.175848,-0.0410031,0.0842206,0
2024-12-11 14:39:22.476,0.0239282,3.74447,10.0481,-0.180734,-0.0391706,0.0836097,0
2024-12-11 14:39:22.479,0.0119641,3.72293,10.0505,-0.186843,-0.0330621,0.0860531,0
2024-12-11 14:39:22.482,0.0167498,3.68226,10.0385,-0.191119,-0.0306187,0.0872748,0
2024-12-11 14:39:22.483,0.0191426,3.60778,10.0361,-0.199671,-0.0306187,0.0872748,0
2024-12-11 14:39:22.486,0.0167498,3.54078,10.0576,-0.203947,-0.0281753,0.0891073,0
2024-12-11 14:39:22.488,0.00239282,3.52164,10.0887,-0.207612,-0.0245102,0.090329,0
2024-12-11 14:39:22.491,-0.0239282,3.50249,10.1486,-0.209444,-0.0196235,0.094605,0
2024-12-11 14:39:22.493,-0.0334995,3.48096,10.2347,-0.208223,-0.0141258,0.0958267,0
2024-12-11 14:39:22.495,-0.040678,3.45942,10.3161,-0.204557,-0.00923906,0.0994917,0
2024-12-11 14:39:22.497,-0.0622134,3.43789,10.4025,-0.200282,-0.00618483,0.104379,0
2024-12-11 14:39:22.500,-0.0789631,3.41875,10.503,-0.19173,-0.00313059,0.108654,0
2024-12-11 14:39:22.502,-0.0861416,3.39721,10.5844,-0.180734,-0.00374144,0.113541,0
2024-12-11 14:39:22.504,-0.0957129,3.38764,10.637,-0.168517,-0.00251974,0.120261,0
2024-12-11 14:39:22.507,-0.105284,3.3661,10.6681,-0.153246,-0.00129805,0.128202,0
2024-12-11 14:39:22.510,-0.102891,3.33739,10.6872,-0.123315,0.00419957,0.139808,0
2024-12-11 14:39:22.512,-0.100499,3.31585,10.7064,-0.123315,0.00419957,0.139808,0
2024-12-11 14:39:22.514,-0.0933201,3.27996,10.716,-0.104989,0.00358873,0.14836,0
2024-12-11 14:39:22.517,-0.0885344,3.26082,10.7207,-0.0878856,0.00114534,0.155079,0
2024-12-11 14:39:22.519,-0.0861416,3.25125,10.716,-0.0713928,-7.63559e-05,0.161187,0
2024-12-11 14:39:22.521,-0.0693919,3.25364,10.7088,-0.0555107,-0.0019089,0.167296,0
2024-12-11 14:39:22.523,-0.0622134,3.26082,10.6896,-0.0414613,-0.00435229,0.171572,0
2024-12-11 14:39:22.527,-0.0502493,3.268,10.6466,-0.0121406,-0.00374144,0.183178,0
2024-12-11 14:39:22.528,-0.0287139,3.27518,10.6011,-0.0121406,-0.00374144,0.183178,0
2024-12-11 14:39:22.530,-0.00478565,3.27278,10.5652,0.00313059,-0.00313059,0.18501,0
2024-12-11 14:39:22.533,0.0358923,3.28475,10.515,0.0165692,0.00114534,0.189286,0
2024-12-11 14:39:22.535,0.066999,3.29671,10.4408,0.0312296,0.00297788,0.192951,0
2024-12-11 14:39:22.537,0.0909273,3.29432,10.3663,0.0434465,0.00664296,0.194784,0
2024-12-11 14:39:22.540,0.117248,3.2991,10.2921,0.0526092,0.0109189,0.198449,0
2024-12-11 14:39:22.542,0.131605,3.31107,10.2156,0.0623828,0.0133623,0.198449,0
2024-12-11 14:39:22.545,0.150748,3.31825,10.1414,0.0727672,0.0158057,0.200892,0
2024-12-11 14:39:22.547,0.165105,3.32064,10.0576,0.0800973,0.0182491,0.204557,0
2024-12-11 14:39:22.549,0.18664,3.3326,9.97149,0.0862058,0.0182491,0.203947,0
2024-12-11 14:39:22.552,0.196211,3.35892,9.89253,0.0917034,0.0219141,0.203336,0
2024-12-11 14:39:22.554,0.20339,3.37089,9.81326,0.0972011,0.0237467,0.202725,0
2024-12-11 14:39:22.556,0.224925,3.40439,9.72952,0.100255,0.0268009,0.202114,0
2024-12-11 14:39:22.560,0.263211,3.44746,9.62902,0.100255,0.0390179,0.200282,0
2024-12-11 14:39:22.561,0.297009,3.47139,9.52373,0.100255,0.0390179,0.200282,0
2024-12-11 14:39:22.563,0.304188,3.49292,9.40888,0.0972011,0.0487914,0.198449,0
2024-12-11 14:39:22.566,0.32333,3.51446,9.29402,0.0941468,0.0616192,0.195395,0
2024-12-11 14:39:22.568,0.337687,3.5336,9.17647,0.085595,0.074447,0.189286,0
2024-12-11 14:39:22.570,0.335294,3.54078,9.06401,0.0739889,0.0848314,0.185621,0
2024-12-11 14:39:22.573,0.34008,3.55514,8.96112,0.065437,0.100713,0.178291,0
2024-12-11 14:39:22.577,0.311366,3.57667,8.77927,0.0361163,0.125147,0.169128,0
2024-12-11 14:39:22.578,0.311366,3.57667,8.77927,0.0361163,0.125147,0.169128,0
2024-12-11 14:39:22.580,0.282652,3.57667,8.71705,0.0171801,0.134921,0.164242,0
2024-12-11 14:39:22.583,0.241675,3.58146,8.65454,-0.014584,0.155079,0.157522,0
2024-12-11 14:39:22.587,0.165105,3.55274,8.5684,-0.0347419,0.161187,0.156911,0
2024-12-11 14:39:22.588,0.165105,3.55274,8.5684,-0.0347419,0.161187,0.156911,0
2024-12-11 14:39:22.589,0.136391,3.53599,8.54447,-0.0518457,0.166685,0.153246,0
2024-12-11 14:39:22.592,0.102891,3.51924,8.54686,-0.0689494,0.168517,0.153857,0
2024-12-11 14:39:22.595,0.0765703,3.51446,8.58276,-0.0836097,0.165463,0.154468,0
2024-12-11 14:39:22.596,0.066999,3.50489,8.64018,-0.0982701,0.159966,0.156911,0
2024-12-11 14:39:22.600,0.0933201,3.48814,8.74577,-0.117206,0.139808,0.157522,0
2024-12-11 14:39:22.602,0.12682,3.47378,8.88216,-0.117206,0.139808,0.157522,0
2024-12-11 14:39:22.603,0.141177,3.47139,9.02573,-0.120871,0.123926,0.157522,0
2024-12-11 14:39:22.607,0.148355,3.47378,9.18844,-0.115374,0.0958267,0.153857,0
2024-12-11 14:39:22.608,0.143569,3.48096,9.34427,-0.115374,0.0958267,0.153857,0
2024-12-11 14:39:22.610,0.122034,3.48096,9.49263,-0.103768,0.0811663,0.15569,0
2024-12-11 14:39:22.613,0.0933201,3.49053,9.63141,-0.0897182,0.0695602,0.157522,0
2024-12-11 14:39:22.615,0.0622134,3.50489,9.73909,-0.0732253,0.0616192,0.158744,0
2024-12-11 14:39:22.619,0.0119641,3.49771,9.82553,-0.0524565,0.0530674,0.166685,0
2024-12-11 14:39:22.620,-0.0119641,3.48096,9.89492,-0.0292443,0.0445155,0.174015,0
2024-12-11 14:39:22.622,-0.0215354,3.45942,9.93081,-0.00358873,0.038407,0.181956,0
2024-12-11 14:39:22.625,-0.0334995,3.45942,9.93799,-0.00358873,0.038407,0.181956,0
2024-12-11 14:39:22.629,0.0239282,3.46421,9.88056,0.0672696,0.0127514,0.213109,0
2024-12-11 14:39:22.630,0.0239282,3.46421,9.88056,0.0892601,0.00786466,0.222883,0
2024-12-11 14:39:22.632,0.0717847,3.47617,9.81326,0.0892601,0.00786466,0.222883,0
2024-12-11 14:39:22.635,0.131605,3.49292,9.7343,0.119192,-0.00251974,0.239987,0
2024-12-11 14:39:22.636,0.189033,3.51207,9.66012,0.119192,-0.00251974,0.239987,0
2024-12-11 14:39:22.640,0.267996,3.54796,9.56202,0.133852,-0.00679568,0.244873,0
2024-12-11 14:39:22.644,0.407079,3.65354,9.34427,0.151566,-0.0153475,0.245484,0
2024-12-11 14:39:22.644,0.407079,3.65354,9.34427,0.151566,-0.0153475,0.245484,0
2024-12-11 14:39:22.646,0.462114,3.71815,9.25065,0.155232,-0.0159584,0.246095,0
2024-12-11 14:39:22.648,0.505185,3.7684,9.14776,0.155232,-0.0147367,0.24243,0
2024-12-11 14:39:22.650,0.521934,3.81625,9.02333,0.152788,-0.0141258,0.238154,0
2024-12-11 14:39:22.653,0.533899,3.84018,8.90848,0.150956,-0.0129041,0.231435,0
2024-12-11 14:39:22.655,0.54347,3.87847,8.81994,0.146069,-0.00618483,0.227159,0
2024-12-11 14:39:22.659,0.541077,3.91914,8.73141,0.124689,0.00236703,0.217385,0
2024-12-11 14:39:22.660,0.533899,3.93589,8.64018,0.124689,0.00236703,0.217385,0
2024-12-11 14:39:22.663,0.545863,3.95025,8.56601,0.100255,0.0176382,0.203336,0
2024-12-11 14:39:22.665,0.550648,3.967,8.49183,0.100255,0.0176382,0.203336,0
2024-12-11 14:39:22.667,0.538684,3.97657,8.41526,0.100255,0.0176382,0.203336,0
2024-12-11 14:39:22.669,0.529113,3.98136,8.34826,0.0715455,0.0268009,0.194784,0
2024-12-11 14:39:22.673,0.519542,3.97897,8.3004,0.0715455,0.0268009,0.194784,0
2024-12-11 14:39:22.681,0.52672,4.0005,8.18076,0.0715455,0.0268009,0.194784,0
2024-12-11 14:39:22.681,0.52672,4.0005,8.18076,0.0715455,0.0268009,0.194784,0
2024-12-11 14:39:22.683,0.505185,4.00529,8.18555,-0.0481806,0.0329094,0.159355,0
2024-12-11 14:39:22.683,0.52672,4.00529,8.18555,-0.0481806,0.0329094,0.159355,0
2024-12-11 14:39:22.684,0.505185,4.00529,8.18555,-0.0481806,0.0329094,0.159355,0
2024-12-11 14:39:22.687,0.490828,4.0005,8.2334,-0.0897182,0.0280226,0.143473,0
2024-12-11 14:39:22.688,0.502792,3.99332,8.28605,-0.0897182,0.0280226,0.143473,0
2024-12-11 14:39:22.690,0.474078,3.97897,8.34347,-0.106211,0.022525,0.137364,0
2024-12-11 14:39:22.693,0.440578,3.97179,8.42722,-0.122093,0.0182491,0.130645,0
2024-12-11 14:39:22.695,0.442971,3.95504,8.52054,-0.135532,0.0133623,0.124536,0
2024-12-11 14:39:22.699,0.440578,3.9335,8.62583,-0.157522,-0.0019089,0.111098,0
2024-12-11 14:39:22.700,0.435793,3.92154,8.74098,-0.157522,-0.0019089,0.111098,0
2024-12-11 14:39:22.702,0.442971,3.9,8.85584,-0.162409,-0.0122933,0.106211,0
2024-12-11 14:39:22.706,0.447757,3.86411,8.97069,-0.161798,-0.0184018,0.0982701,0
2024-12-11 14:39:22.707,0.45015,3.84975,9.07598,-0.161798,-0.0245102,0.0927724,0
2024-12-11 14:39:22.709,0.45015,3.84257,9.18126,-0.156911,-0.0330621,0.090329,0
2024-12-11 14:39:22.713,0.469292,3.81147,9.28206,-0.14164,-0.0532201,0.0799446,0
2024-12-11 14:39:22.714,0.500399,3.77557,9.38016,-0.14164,-0.0532201,0.0799446,0
2024-12-11 14:39:22.716,0.502792,3.75404,9.47588,-0.130645,-0.0629936,0.0756687,0
2024-12-11 14:39:22.720,0.517149,3.73011,9.55484,-0.100103,-0.0788757,0.0652843,0
2024-12-11 14:39:22.721,0.533899,3.70858,9.61227,-0.100103,-0.0788757,0.0652843,0
2024-12-11 14:39:22.723,0.538684,3.70858,9.64816,-0.0836097,-0.0837624,0.0597867,0
2024-12-11 14:39:22.727,0.553041,3.72533,9.6697,-0.0494023,-0.0898709,0.0518457,0
2024-12-11 14:39:22.729,0.553041,3.73729,9.67687,-0.0298552,-0.0892601,0.0445155,0
2024-12-11 14:39:22.732,0.550648,3.7325,9.65295,-0.0298552,-0.0892601,0.0445155,0
2024-12-11 14:39:22.733,0.545863,3.74447,9.61945,-0.0139731,-0.0898709,0.0402396,0
2024-12-11 14:39:22.736,0.538684,3.77797,9.57877,0.0153475,-0.0923143,0.0298552,0
2024-12-11 14:39:22.739,0.541077,3.80907,9.51895,0.0153475,-0.0923143,0.0298552,0
2024-12-11 14:39:22.740,0.550648,3.84257,9.43759,0.0269536,-0.0904818,0.0249684,0
2024-12-11 14:39:22.742,0.550648,3.87607,9.3347,0.0361163,-0.0917034,0.0188599,0
2024-12-11 14:39:22.745,0.548256,3.91197,9.22672,0.041614,-0.0917034,0.0139731,0
2024-12-11 14:39:22.747,0.538684,3.95743,9.10708,0.0440574,-0.0910926,0.00603212,0
2024-12-11 14:39:22.750,0.545863,4.00289,8.98983,0.0434465,-0.0929251,-0.0019089,0
2024-12-11 14:39:22.752,0.579362,4.034,8.87259,0.0422248,-0.0923143,-0.00862822,0
2024-12-11 14:39:22.755,0.608076,4.05554,8.77448,0.0238994,-0.100255,-0.033673,0
2024-12-11 14:39:22.756,0.622433,4.06271,8.69522,0.0238994,-0.100255,-0.033673,0
2024-12-11 14:39:22.759,0.615255,4.07707,8.61147,0.013515,-0.104531,-0.0452791,0
2024-12-11 14:39:22.761,0.62004,4.09621,8.52772,-0.00114534,-0.113694,-0.0568851,0
2024-12-11 14:39:22.764,0.634397,4.09861,8.45115,-0.0200816,-0.124078,-0.0697129,0
2024-12-11 14:39:22.766,0.651147,4.09143,8.39372,-0.0396287,-0.135684,-0.0807082,0
2024-12-11 14:39:22.769,0.682254,4.08186,8.36022,-0.0829989,-0.159507,-0.100866,0
2024-12-11 14:39:22.772,0.71336,4.06989,8.35304,-0.103157,-0.170503,-0.109418,0
2024-12-11 14:39:22.773,0.737288,4.04596,8.37937,-0.103157,-0.170503,-0.109418,0
2024-12-11 14:39:22.775,0.754038,4.01964,8.42722,-0.123926,-0.177222,-0.11797,0
2024-12-11 14:39:22.779,0.74686,4.01007,8.50619,-0.161798,-0.183941,-0.132019,0
2024-12-11 14:39:22.780,0.74686,3.98136,8.62104,-0.161798,-0.183941,-0.132019,0
2024-12-11 14:39:22.783,0.835394,3.93589,8.68086,-0.169128,-0.180887,-0.136906,0
2024-12-11 14:39:22.785,0.94337,3.88804,8.71945,-0.18501,-0.177833,-0.143625,0
2024-12-11 14:39:22.787,1.01994,3.85454,8.83909,-0.197227,-0.173557,-0.149734,0
2024-12-11 14:39:22.789,1.05344,3.84257,8.98266,-0.200282,-0.163783,-0.159507,0
2024-12-11 14:39:22.792,1.0343,3.84497,9.11905,-0.199671,-0.151566,-0.168059,0
2024-12-11 14:39:22.794,0.988834,3.85693,9.2363,-0.202114,-0.141182,-0.174168,0
2024-12-11 14:39:22.797,0.957727,3.8665,9.30599,-0.196616,-0.128354,-0.179665,0
2024-12-11 14:39:22.799,0.938585,3.8689,9.34666,-0.189897,-0.115526,-0.180276,0
2024-12-11 14:39:22.801,0.921835,3.84736,9.39213,-0.181345,-0.0984228,-0.18272,0
2024-12-11 14:39:22.804,0.9003,3.81865,9.43998,-0.171572,-0.0807082,-0.180276,0
2024-12-11 14:39:22.806,0.862014,3.7995,9.46631,-0.160576,-0.0636045,-0.176,0
2024-12-11 14:39:22.808,0.809073,3.78275,9.47588,-0.144084,-0.0446682,-0.171114,0
2024-12-11 14:39:22.812,0.737288,3.77318,9.48306,-0.115374,-0.00862822,-0.158897,0
2024-12-11 14:39:22.813,0.65354,3.7995,9.47827,-0.115374,-0.00862822,-0.158897,0
2024-12-11 14:39:22.816,0.581755,3.8665,9.44238,-0.0854423,0.0292443,-0.13935,0
2024-12-11 14:39:22.818,0.519542,3.92154,9.37299,-0.0854423,0.0292443,-0.13935,0
2024-12-11 14:39:22.820,0.478864,3.97897,9.28924,-0.0713928,0.0500131,-0.128965,0
2024-12-11 14:39:22.823,0.459721,4.06032,9.19562,-0.0555107,0.0695602,-0.118581,0
2024-12-11 14:39:22.825,0.45015,4.14886,9.09033,-0.0445155,0.0878856,-0.108807,0
2024-12-11 14:39:22.827,0.447757,4.24726,8.99462,-0.0353528,0.102546,-0.100255,0
2024-12-11 14:39:22.829,0.438186,4.36451,8.88216,-0.0268009,0.117817,-0.0923143,0
2024-12-11 14:39:22.832,0.414257,4.48176,8.74577,-0.0237467,0.128812,-0.085595,0
2024-12-11 14:39:22.834,0.387936,4.59901,8.61625,-0.0219141,0.141029,-0.0843733,0
2024-12-11 14:39:22.837,0.332901,4.72104,8.50379,-0.0231358,0.153246,-0.0800973,0
2024-12-11 14:39:22.839,0.265603,4.84816,8.39372,-0.0261901,0.166074,-0.0782648,0
2024-12-11 14:39:22.841,0.267996,4.9343,8.23101,-0.0371853,0.179513,-0.077654,0
2024-12-11 14:39:22.845,0.292223,5.00369,8.04407,-0.0658951,0.189286,-0.0752106,0
2024-12-11 14:39:22.846,0.27996,5.09701,7.90289,-0.0658951,0.189286,-0.0752106,0
2024-12-11 14:39:22.849,0.253639,5.19033,7.80479,-0.110487,0.182567,-0.0758214,0
2024-12-11 14:39:22.852,0.224925,5.28365,7.73061,-0.110487,0.182567,-0.0758214,0
2024-12-11 14:39:22.853,0.200997,5.38445,7.65165,-0.137975,0.172183,-0.0758214,0
2024-12-11 14:39:22.855,0.177069,5.48734,7.56521,-0.168517,0.167296,-0.0752106,0
2024-12-11 14:39:22.858,0.174676,5.57348,7.5006,-0.19906,0.159355,-0.0758214,0
2024-12-11 14:39:22.861,0.191426,5.65245,7.46471,-0.267475,0.147138,-0.0764323,0
2024-12-11 14:39:22.863,0.208176,5.71944,7.44796,-0.267475,0.147138,-0.0764323,0
2024-12-11 14:39:22.865,0.215354,5.79841,7.45753,-0.304736,0.137364,-0.0758214,0
2024-12-11 14:39:22.867,0.208176,5.88694,7.48385,-0.341998,0.12698,-0.0758214,0
2024-12-11 14:39:22.870,0.119641,5.98056,7.56282,-0.382314,0.115985,-0.0745997,0
2024-12-11 14:39:22.873,0.143569,6.0356,7.62533,-0.460502,0.0958267,-0.077654,0
2024-12-11 14:39:22.874,0.349651,6.01406,7.63968,-0.460502,0.0958267,-0.077654,0
2024-12-11 14:39:22.877,0.545863,5.97338,7.68276,-0.498986,0.0805555,-0.0831516,0
2024-12-11 14:39:22.879,0.679861,5.95185,7.77129,-0.535026,0.0616192,-0.0953685,0
2024-12-11 14:39:22.882,0.694218,5.95185,7.92443,-0.574731,0.0439046,-0.105142,0
2024-12-11 14:39:22.885,0.632004,5.97578,8.12064,-0.637648,0.0176382,-0.121635,0
2024-12-11 14:39:22.886,0.584148,6.01167,8.3004,-0.637648,0.0176382,-0.121635,0
2024-12-11 14:39:22.888,0.598505,5.99731,8.46072,-0.663304,0.0096972,-0.129576,0
2024-12-11 14:39:22.892,0.622433,5.95185,8.61386,-0.707896,-0.00129805,-0.141182,0
2024-12-11 14:39:22.894,0.63679,5.90399,8.78166,-0.72561,-0.00618483,-0.148512,0
2024-12-11 14:39:22.896,0.646361,5.81755,8.97787,-0.72561,-0.00618483,-0.148512,0
2024-12-11 14:39:22.899,0.643968,5.71705,9.17887,-0.745157,-0.00618483,-0.157064,0
2024-12-11 14:39:22.900,0.639183,5.6333,9.38256,-0.745157,-0.00618483,-0.157064,0
2024-12-11 14:39:22.902,0.63679,5.55434,9.58595,-0.748212,-0.0019089,-0.158897,0
2024-12-11 14:39:22.906,0.608076,5.4682,9.77259,-0.750044,0.00481042,-0.160729,0
2024-12-11 14:39:22.907,0.574577,5.38924,9.94278,-0.746379,0.0109189,-0.160729,0
2024-12-11 14:39:22.909,0.533899,5.30997,10.0935,-0.73966,0.0200816,-0.162562,0
2024-12-11 14:39:22.913,0.464507,5.22622,10.2395,-0.714004,0.0457372,-0.155232,0
2024-12-11 14:39:22.915,0.375972,5.17119,10.3783,-0.6969,0.0561216,-0.150345,0
2024-12-11 14:39:22.918,0.285045,5.10898,10.5197,-0.6969,0.0561216,-0.150345,0
2024-12-11 14:39:22.919,0.189033,5.0348,10.6346,-0.676742,0.0695602,-0.144236,0
2024-12-11 14:39:22.921,0.0885344,4.98694,10.7207,-0.649865,0.0793338,-0.136295,0
2024-12-11 14:39:22.925,-0.00717847,4.9343,10.7949,-0.597332,0.0964375,-0.109418,0
2024-12-11 14:39:22.927,-0.117248,4.88405,10.85,-0.56679,0.104989,-0.0941468,0
2024-12-11 14:39:22.928,-0.22014,4.85055,10.893,-0.56679,0.104989,-0.0941468,0
2024-12-11 14:39:22.932,-0.316152,4.81227,10.9313,-0.500818,0.118428,-0.0581068,0
2024-12-11 14:39:22.933,-0.411865,4.7665,10.9531,-0.500818,0.118428,-0.0581068,0
2024-12-11 14:39:22.935,-0.498006,4.72582,10.9555,-0.465389,0.125147,-0.0367272,0
2024-12-11 14:39:22.938,-0.572184,4.71147,10.9436,-0.430571,0.130645,-0.0141258,0
2024-12-11 14:39:22.940,-0.634397,4.69472,10.9146,-0.395142,0.133088,0.00786466,0
2024-12-11 14:39:22.943,-0.687039,4.67558,10.8811,-0.359102,0.13431,0.0322986,0
2024-12-11 14:39:22.945,-0.720539,4.67079,10.85,-0.326727,0.134921,0.0555107,0
2024-12-11 14:39:22.947,-0.751645,4.6684,10.8117,-0.288854,0.133088,0.0775012,0
2024-12-11 14:39:22.949,-0.766002,4.66361,10.783,-0.252814,0.129423,0.0994917,0
2024-12-11 14:39:22.952,-0.758824,4.67079,10.7351,-0.217996,0.122704,0.120261,0
2024-12-11 14:39:22.955,-0.737288,4.67797,10.6633,-0.1844,0.115985,0.137364,0
2024-12-11 14:39:22.957,-0.691825,4.68036,10.5891,-0.151414,0.108044,0.151414,0
2024-12-11 14:39:22.959,-0.648754,4.67558,10.5078,-0.115374,0.101324,0.163631,0
2024-12-11 14:39:22.961,-0.62004,4.67079,10.4216,-0.0860531,0.0909399,0.175848,0
2024-12-11 14:39:22.965,-0.610469,4.68754,10.34,-0.0561216,0.0805555,0.183789,0
2024-12-11 14:39:22.966,-0.593719,4.70429,10.2562,-0.0255792,0.0726145,0.190508,0
2024-12-11 14:39:22.968,-0.553041,4.71625,10.1581,0.00435229,0.0634518,0.196616,0
2024-12-11 14:39:22.971,-0.495613,4.73061,10.0648,0.0324513,0.0591758,0.198449,0
2024-12-11 14:39:22.973,-0.431007,4.74975,9.95713,0.057496,0.0536782,0.198449,0
2024-12-11 14:39:22.975,-0.375972,4.75693,9.83988,0.0782648,0.0451263,0.197838,0
2024-12-11 14:39:22.978,-0.330509,4.73779,9.71277,0.0972011,0.0420721,0.194784,0
2024-12-11 14:39:22.980,-0.292223,4.73061,9.59073,0.119802,0.038407,0.19173,0
2024-12-11 14:39:22.982,-0.263211,4.733,9.4687,0.134463,0.0353528,0.1844,0
2024-12-11 14:39:22.986,-0.258425,4.72582,9.34188,0.158286,0.0292443,0.167907,0
2024-12-11 14:39:22.987,-0.263211,4.71147,9.22672,0.158286,0.0292443,0.167907,0
2024-12-11 14:39:22.991,-0.260818,4.69233,9.14058,0.17539,0.0322986,0.151414,0
2024-12-11 14:39:22.992,-0.253639,4.67558,9.07598,0.17539,0.0322986,0.151414,0
2024-12-11 14:39:22.994,-0.236889,4.65165,9.02573,0.183331,0.0341311,0.142862,0
2024-12-11 14:39:22.997,-0.222533,4.62772,8.98744,0.19005,0.0402396,0.131867,0
2024-12-11 14:39:22.999,-0.217747,4.6014,8.94198,0.195547,0.0469589,0.122704,0
2024-12-11 14:39:23.002,-0.22014,4.57268,8.89412,0.202878,0.0573433,0.11232,0
2024-12-11 14:39:23.004,-0.236889,4.5344,8.81994,0.207764,0.0713928,0.100713,0
2024-12-11 14:39:23.006,-0.256032,4.46979,8.74337,0.212651,0.090329,0.0897182,0
2024-12-11 14:39:23.009,-0.294616,4.41715,8.67368,0.21143,0.111709,0.082388,0
2024-12-11 14:39:23.011,-0.35683,4.37647,8.6019,0.214484,0.136143,0.0781121,0
2024-12-11 14:39:23.013,-0.431007,4.32862,8.52772,0.21204,0.160576,0.0726145,0
2024-12-11 14:39:23.015,-0.517149,4.29272,8.46311,0.209597,0.18501,0.074447,0
2024-12-11 14:39:23.018,-0.581755,4.25922,8.37937,0.20471,0.208833,0.0726145,0
2024-12-11 14:39:23.020,-0.617647,4.20897,8.29562,0.197991,0.230213,0.074447,0
2024-12-11 14:39:23.023,-0.648754,4.15364,8.24058,0.190661,0.253425,0.0781121,0
2024-12-11 14:39:23.025,-0.710967,4.11057,8.17119,0.179665,0.272972,0.0842206,0
2024-12-11 14:39:23.027,-0.80668,4.08664,8.09911,0.169892,0.291298,0.0891073,0
2024-12-11 14:39:23.030,-0.895514,4.06989,8.03689,0.157064,0.30718,0.0988809,0
2024-12-11 14:39:23.032,-0.981655,4.034,7.97229,0.144847,0.323062,0.109876,0
2024-12-11 14:39:23.034,-1.05105,4.00289,7.91486,0.130798,0.335279,0.123926,0
2024-12-11 14:39:23.038,-1.1013,3.97897,7.87897,0.0996445,0.354826,0.158744,0
2024-12-11 14:39:23.039,-1.15155,3.97418,7.84786,0.0996445,0.354826,0.158744,0
2024-12-11 14:39:23.041,-1.2018,3.967,7.82393,0.085595,0.364599,0.175237,0
2024-12-11 14:39:23.045,-1.26162,3.94307,7.81436,0.0599394,0.377427,0.215553,0
2024-12-11 14:39:23.046,-1.2999,3.93589,7.8,0.0599394,0.377427,0.215553,0
2024-12-11 14:39:23.048,-1.32622,3.93829,7.81436,0.0452791,0.380481,0.238765,0
2024-12-11 14:39:23.052,-1.35733,3.95025,7.82872,0.0245102,0.382925,0.285189,0
2024-12-11 14:39:23.053,-1.37647,3.96461,7.84068,0.0245102,0.382925,0.285189,0
2024-12-11 14:39:23.056,-1.37408,3.97657,7.867,0.0147367,0.384147,0.310845,0
2024-12-11 14:39:23.058,-1.35733,3.98136,7.87897,0.00679568,0.380481,0.332835,0
2024-12-11 14:39:23.060,-1.32144,3.98854,7.90529,-0.00358873,0.377427,0.35788,0
2024-12-11 14:39:23.064,-1.27597,4.00289,7.94118,-0.0158057,0.362767,0.404305,0
2024-12-11 14:39:23.065,-1.22333,4.00529,7.97707,-0.0158057,0.362767,0.404305,0
2024-12-11 14:39:23.067,-1.15633,4.00768,8.03689,-0.0213033,0.357269,0.428128,0
2024-12-11 14:39:23.071,-1.0654,4.02921,8.11586,-0.0292443,0.342609,0.465389,0
2024-12-11 14:39:23.072,-0.974477,4.05793,8.21426,-0.0292443,0.342609,0.465389,0
2024-12-11 14:39:23.074,-0.893121,4.08664,8.32433,-0.0292443,0.327338,0.48005,0
2024-12-11 14:39:23.078,-0.804287,4.12971,8.43679,-0.0164165,0.291909,0.502651,0
2024-12-11 14:39:23.079,-0.71336,4.18475,8.54208,-0.0164165,0.291909,0.502651,0
2024-12-11 14:39:23.081,-0.629611,4.22812,8.63301,-0.00542127,0.274194,0.508759,0
2024-12-11 14:39:23.085,-0.557827,4.25205,8.72662,0.0220669,0.231435,0.517311,0
2024-12-11 14:39:23.086,-0.50997,4.26401,8.80319,0.0220669,0.231435,0.517311,0
2024-12-11 14:39:23.089,-0.500399,4.2688,8.84148,0.0367272,0.208223,0.520366,0
2024-12-11 14:39:23.092,-0.474078,4.27358,8.88934,0.0715455,0.156911,0.529528,0
2024-12-11 14:39:23.093,-0.395115,4.26162,8.93719,0.0715455,0.156911,0.529528,0
2024-12-11 14:39:23.096,-0.313759,4.22572,8.95634,0.0886492,0.133088,0.531361,0
2024-12-11 14:39:23.098,-0.246461,4.21615,8.97787,0.104531,0.107433,0.533804,0
2024-12-11 14:39:23.100,-0.177069,4.22812,8.98266,0.119802,0.0842206,0.535026,0
2024-12-11 14:39:23.104,-0.119641,4.2353,8.98026,0.14668,0.0390179,0.531361,0
2024-12-11 14:39:23.105,-0.0741775,4.24008,8.98744,0.14668,0.0390179,0.531361,0
2024-12-11 14:39:23.107,-0.040678,4.24247,8.96112,0.156453,0.0176382,0.530139,0
2024-12-11 14:39:23.110,-0.0191426,4.25205,8.93001,0.165005,-0.00129805,0.529528,0
2024-12-11 14:39:23.112,0.00478565,4.2353,8.93241,0.172946,-0.0202343,0.527085,0
2024-12-11 14:39:23.114,0.0167498,4.2015,8.93001,0.180887,-0.0361163,0.527085,0
2024-12-11 14:39:23.117,0.0,4.18714,8.93001,0.186385,-0.049555,0.526474,0
2024-12-11 14:39:23.119,-0.0215354,4.18475,8.93719,0.192493,-0.0617719,0.527085,0
2024-12-11 14:39:23.121,-0.0454636,4.19671,8.95394,0.201656,-0.0715455,0.528917,0
2024-12-11 14:39:23.124,-0.0765703,4.21855,8.97308,0.207154,-0.0770431,0.535026,0
2024-12-11 14:39:23.126,-0.081356,4.21855,8.99701,0.210819,-0.0843733,0.541745,0
2024-12-11 14:39:23.129,-0.0693919,4.21615,9.01616,0.216927,-0.085595,0.549075,0
2024-12-11 14:39:23.131,-0.0646062,4.22333,9.01616,0.225479,-0.0862058,0.553962,0
2024-12-11 14:39:23.133,-0.0646062,4.22094,9.01855,0.229755,-0.0849841,0.562514,0
2024-12-11 14:39:23.137,-0.0646062,4.22333,9.03291,0.235253,-0.0807082,0.571677,0
2024-12-11 14:39:23.138,-0.0550349,4.23051,9.05444,0.24075,-0.0745997,0.580229,0
2024-12-11 14:39:23.140,-0.0311067,4.24487,9.04726,0.244415,-0.0666587,0.586337,0
2024-12-11 14:39:23.143,0.0119641,4.24487,9.02573,0.249302,-0.0550526,0.596111,0
2024-12-11 14:39:23.145,0.0646062,4.23769,8.99223,0.252967,-0.041614,0.603441,0
2024-12-11 14:39:23.148,0.107677,4.23769,8.94916,0.251135,-0.0251211,0.607106,0
2024-12-11 14:39:23.150,0.141177,4.23769,8.9013,0.251135,-0.00557398,0.611382,0
2024-12-11 14:39:23.152,0.184247,4.25444,8.85584,0.249302,0.0151948,0.614436,0
2024-12-11 14:39:23.154,0.222533,4.27837,8.82952,0.243804,0.0371853,0.619323,0
2024-12-11 14:39:23.158,0.260818,4.30708,8.78405,0.237085,0.0561216,0.619934,0
2024-12-11 14:39:23.159,0.311366,4.32862,8.72184,0.228533,0.0738362,0.620544,0
2024-12-11 14:39:23.161,0.354437,4.33819,8.67608,0.217538,0.0933833,0.622988,0
2024-12-11 14:39:23.164,0.407079,4.33819,8.64258,0.205932,0.11293,0.620544,0
2024-12-11 14:39:23.166,0.459721,4.3334,8.61625,0.189439,0.128812,0.618712,0
2024-12-11 14:39:23.169,0.498006,4.32383,8.58754,0.172946,0.147749,0.613825,0
2024-12-11 14:39:23.171,0.52672,4.30708,8.54686,0.156453,0.164852,0.607717,0
2024-12-11 14:39:23.174,0.548256,4.29512,8.52293,0.136906,0.181345,0.603441,0
2024-12-11 14:39:23.177,0.567398,4.28555,8.5349,0.120413,0.194784,0.599165,0
2024-12-11 14:39:23.178,0.586541,4.2688,8.54686,0.101477,0.207001,0.591835,0
2024-12-11 14:39:23.180,0.60329,4.24008,8.58276,0.081319,0.216164,0.582672,0
2024-12-11 14:39:23.183,0.615255,4.20897,8.65454,0.0660479,0.221661,0.577174,0
2024-12-11 14:39:23.185,0.632004,4.18953,8.7338,0.0477224,0.228381,0.569233,0
2024-12-11 14:39:23.188,0.632004,4.17278,8.81755,0.0330621,0.234489,0.560681,0
2024-12-11 14:39:23.190,0.634397,4.14886,8.90609,0.0251211,0.239376,0.553962,0
2024-12-11 14:39:23.192,0.65354,4.14168,8.97548,0.0165692,0.24243,0.548464,0
2024-12-11 14:39:23.194,0.677468,4.12971,9.06401,0.0110716,0.248538,0.544799,0
2024-12-11 14:39:23.197,0.710967,4.11536,9.17169,0.00740652,0.254036,0.538691,0
2024-12-11 14:39:23.199,0.737288,4.08664,9.25544,0.00618483,0.260755,0.532582,0
2024-12-11 14:39:23.201,0.74686,4.06511,9.33949,0.00679568,0.266253,0.528307,0
2024-12-11 14:39:23.204,0.761217,4.06989,9.39931,0.00984991,0.27114,0.524641,0
2024-12-11 14:39:23.206,0.768395,4.06511,9.46391,0.0190126,0.273583,0.521587,0
2024-12-11 14:39:23.209,0.768395,4.05314,9.55723,0.0251211,0.274805,0.519144,0
2024-12-11 14:39:23.211,0.770788,4.05554,9.62423,0.037338,0.277248,0.517922,0
2024-12-11 14:39:23.213,0.766002,4.07707,9.68166,0.0501658,0.279692,0.5167,0
2024-12-11 14:39:23.216,0.768395,4.09861,9.73669,0.0642153,0.282135,0.515479,0
2024-12-11 14:39:23.218,0.768395,4.12253,9.74866,0.0794865,0.284578,0.51609,0
2024-12-11 14:39:23.221,0.737288,4.15603,9.74627,0.0953685,0.287022,0.51609,0
2024-12-11 14:39:23.223,0.699003,4.21137,9.73669,0.11064,0.289465,0.519144,0
2024-12-11 14:39:23.225,0.672682,4.25683,9.71994,0.127133,0.293741,0.521587,0
2024-12-11 14:39:23.227,0.65354,4.28315,9.7008,0.144236,0.295574,0.524031,0
2024-12-11 14:39:23.230,0.643968,4.31426,9.67687,0.157675,0.296185,0.529528,0
2024-12-11 14:39:23.232,0.677468,4.35254,9.65055,0.172946,0.297406,0.534415,0
2024-12-11 14:39:23.235,0.706182,4.39562,9.62184,0.186996,0.298628,0.539302,0
2024-12-11 14:39:23.237,0.706182,4.44826,9.57877,0.197991,0.299239,0.540523,0
2024-12-11 14:39:23.240,0.710967,4.51765,9.52613,0.219981,0.299239,0.547243,0
2024-12-11 14:39:23.241,0.725324,4.58465,9.47348,0.219981,0.299239,0.547243,0
2024-12-11 14:39:23.244,0.756431,4.65165,9.42323,0.228533,0.299239,0.547854,0
2024-12-11 14:39:23.246,0.777966,4.70907,9.37538,0.235253,0.298628,0.549686,0
2024-12-11 14:39:23.250,0.789931,4.7689,9.31556,0.245637,0.291298,0.549686,0
2024-12-11 14:39:23.251,0.80668,4.83141,9.27009,0.245637,0.291298,0.549686,0
2024-12-11 14:39:23.253,0.811466,4.89601,9.25305,0.248691,0.285189,0.549075,0
2024-12-11 14:39:23.256,0.84018,4.96062,9.24587,0.249913,0.27847,0.547243,0
2024-12-11 14:39:23.258,0.88355,5.01566,9.22672,0.252967,0.27114,0.544799,0
2024-12-11 14:39:23.260,0.905085,5.0659,9.19801,0.251745,0.266253,0.537469,0
2024-12-11 14:39:23.264,0.895514,5.11137,9.1693,0.248691,0.261977,0.53075,0
2024-12-11 14:39:23.265,0.88355,5.15205,9.1669,0.248691,0.261977,0.53075,0
2024-12-11 14:39:23.267,0.871586,5.18076,9.15733,0.244415,0.257701,0.527696,0
2024-12-11 14:39:23.271,0.84018,5.21905,9.13819,0.238918,0.251593,0.52342,0
2024-12-11 14:39:23.272,0.813859,5.26212,9.15255,0.238918,0.251593,0.52342,0
2024-12-11 14:39:23.275,0.794716,5.28365,9.18605,0.235253,0.249149,0.525863,0
2024-12-11 14:39:23.277,0.773181,5.30279,9.22194,0.230366,0.251593,0.52342,0
2024-12-11 14:39:23.279,0.758824,5.33181,9.27249,0.230977,0.252204,0.526474,0
2024-12-11 14:39:23.281,0.758824,5.35334,9.34427,0.232198,0.255258,0.530139,0
2024-12-11 14:39:23.284,0.739681,5.38445,9.41606,0.23342,0.255869,0.530139,0
2024-12-11 14:39:23.286,0.677468,5.45145,9.4687,0.234642,0.253425,0.531361,0
2024-12-11 14:39:23.290,0.557827,5.55195,9.49263,0.237085,0.247928,0.540523,0
2024-12-11 14:39:23.291,0.423829,5.65723,9.50459,0.235863,0.236322,0.549686,0
2024-12-11 14:39:23.293,0.366401,5.72423,9.52134,0.234031,0.224715,0.561292,0
2024-12-11 14:39:23.296,0.375972,5.73619,9.54766,0.235253,0.21372,0.575342,0
2024-12-11 14:39:23.298,0.414257,5.72423,9.57159,0.235253,0.197227,0.586948,0
2024-12-11 14:39:23.301,0.474078,5.70987,9.59073,0.234642,0.183789,0.597943,0
2024-12-11 14:39:23.303,0.538684,5.72423,9.6027,0.235863,0.171572,0.608328,0
2024-12-11 14:39:23.306,0.579362,5.75055,9.59313,0.236474,0.156301,0.616879,0
2024-12-11 14:39:23.307,0.588933,5.77926,9.58116,0.235253,0.143473,0.626653,0
2024-12-11 14:39:23.310,0.598505,5.84148,9.5692,0.232809,0.128812,0.635816,0
2024-12-11 14:39:23.312,0.629611,5.90878,9.57877,0.229755,0.11232,0.644978,0
2024-12-11 14:39:23.315,0.670289,5.94945,9.62423,0.224257,0.0897182,0.656584,0
2024-12-11 14:39:23.317,0.737288,6.00927,9.6697,0.21876,0.0597867,0.662693,0
2024-12-11 14:39:23.319,0.842872,6.07388,9.71994,0.210819,0.0292443,0.666969,0
2024-12-11 14:39:23.323,0.94337,6.11695,9.78455,0.207764,-0.00435229,0.671856,0
2024-12-11 14:39:23.324,1.01515,6.16002,9.8686,0.201045,-0.0385597,0.676132,0
2024-12-11 14:39:23.326,1.09651,6.20788,9.95235,0.191882,-0.0745997,0.676132,0
2024-12-11 14:39:23.329,1.1994,6.2342,10.0217,0.188217,-0.107585,0.671245,0
2024-12-11 14:39:23.331,1.33819,6.22941,10.127,0.185163,-0.133852,0.665136,0
2024-12-11 14:39:23.333,1.45334,6.23181,10.2802,0.184552,-0.154621,0.657195,0
2024-12-11 14:39:23.337,1.45573,6.31556,10.4216,0.186385,-0.174779,0.648033,0
2024-12-11 14:39:23.338,1.37647,6.49532,10.5293,0.187606,-0.20471,0.643757,0
2024-12-11 14:39:23.341,1.27837,6.66521,10.6226,0.189439,-0.232198,0.643146,0
2024-12-11 14:39:23.343,1.24965,6.78006,10.7136,0.193715,-0.257243,0.648033,0
2024-12-11 14:39:23.345,1.29272,6.82792,10.7853,0.193104,-0.282288,0.652309,0
2024-12-11 14:39:23.348,1.3669,6.8351,10.8308,0.193104,-0.301835,0.655363,0
2024-12-11 14:39:23.351,1.45813,6.83031,10.8643,0.196769,-0.315884,0.657195,0
2024-12-11 14:39:23.352,1.52752,6.84228,10.8571,0.199823,-0.325658,0.655363,0
2024-12-11 14:39:23.354,1.57059,6.88295,10.8284,0.198602,-0.330545,0.65353,0
2024-12-11 14:39:23.358,1.59452,6.93799,10.7806,0.190661,-0.339097,0.640702,0
2024-12-11 14:39:23.360,1.63041,7.00738,10.7064,0.177222,-0.347038,0.633372,0
2024-12-11 14:39:23.363,1.67587,7.05075,10.6226,0.16134,-0.361087,0.621766,0
2024-12-11 14:39:23.364,1.74527,7.05554,10.5365,0.16134,-0.361087,0.621766,0
2024-12-11 14:39:23.366,1.85294,7.03879,10.4839,0.137517,-0.380023,0.607717,0
2024-12-11 14:39:23.369,1.97528,7.01486,10.448,0.113083,-0.403236,0.58817,0
2024-12-11 14:39:23.372,2.08295,7.0002,10.3905,0.0422248,-0.479591,0.53808,0
2024-12-11 14:39:23.374,2.15234,7.01725,10.3328,0.0422248,-0.479591,0.53808,0
2024-12-11 14:39:23.376,2.19541,7.034,10.285,-0.00786466,-0.528459,0.512424,0
2024-12-11 14:39:23.378,2.26002,7.01217,10.2802,-0.0597867,-0.58649,0.481882,0
2024-12-11 14:39:23.381,2.36052,6.93799,10.3232,-0.117206,-0.640855,0.447675,0
2024-12-11 14:39:23.383,2.47537,6.83031,10.4097,-0.174015,-0.697053,0.413467,0
2024-12-11 14:39:23.386,2.58574,6.72024,10.5461,-0.289465,-0.796621,0.3365,0
2024-12-11 14:39:23.388,2.68864,6.61017,10.7279,-0.289465,-0.796621,0.3365,0
2024-12-11 14:39:23.391,2.78913,6.49292,10.9385,-0.39392,-0.87542,0.25709,0
2024-12-11 14:39:23.393,2.88245,6.37777,11.1948,-0.438512,-0.90413,0.215553,0
2024-12-11 14:39:23.395,2.9662,6.2677,11.4772,-0.438512,-0.90413,0.215553,0
2024-12-11 14:39:23.397,3.04995,6.1337,11.7814,-0.475774,-0.92551,0.175237,0
2024-12-11 14:39:23.400,3.14596,5.98056,12.1023,-0.531972,-0.951166,0.0952158,0
2024-12-11 14:39:23.403,3.23928,5.81516,12.4205,-0.547854,-0.956663,0.0548999,0
2024-12-11 14:39:23.404,3.32782,5.62852,12.7702,-0.547854,-0.956663,0.0548999,0
2024-12-11 14:39:23.406,3.40439,5.42513,13.1219,-0.561292,-0.958496,0.0158057,0
2024-12-11 14:39:23.410,3.48096,5.18794,13.4429,-0.557016,-0.94017,-0.0593285,0
2024-12-11 14:39:23.411,3.5336,4.96062,13.7782,-0.557016,-0.94017,-0.0593285,0
2024-12-11 14:39:23.413,3.51685,4.75454,14.1203,-0.542967,-0.91818,-0.0959794,0
2024-12-11 14:39:23.416,3.48574,4.55115,14.4245,-0.519755,-0.88947,-0.130187,0
2024-12-11 14:39:23.419,3.50967,4.34058,14.6614,-0.450118,-0.811892,-0.193715,0
2024-12-11 14:39:23.421,3.55992,4.09861,14.8938,-0.450118,-0.811892,-0.193715,0
2024-12-11 14:39:23.423,3.47378,3.90479,15.157,-0.403083,-0.763025,-0.225479,1
2024-12-11 14:39:23.425,3.22014,3.77797,15.3532,-0.349328,-0.706827,-0.251745,0
2024-12-11 14:39:23.428,2.94227,3.65593,15.4708,-0.287022,-0.645131,-0.268849,0
2024-12-11 14:39:23.430,2.69103,3.54796,15.5522,-0.218607,-0.573051,-0.27679,0
2024-12-11 14:39:23.432,2.45863,3.4331,15.5737,-0.142862,-0.493641,-0.27679,0
2024-12-11 14:39:23.435,2.25045,3.28714,15.5522,-0.0610084,-0.404457,-0.271293,0
2024-12-11 14:39:23.437,2.0327,3.14596,15.4636,0.0202343,-0.308554,-0.257243,0
2024-12-11 14:39:23.444,1.50838,2.7341,14.7571,0.274347,0.00236703,-0.189439,0
2024-12-11 14:39:23.445,1.50838,2.7341,14.7571,0.360476,0.110487,-0.16134,0
2024-12-11 14:39:23.446,1.32144,2.63121,14.4509,0.360476,0.110487,-0.16134,0
2024-12-11 14:39:23.447,1.32144,2.63121,14.4509,0.360476,0.110487,-0.16134,0
2024-12-11 14:39:23.451,0.893121,2.56182,13.6223,0.517464,0.312677,-0.0990336,0
2024-12-11 14:39:23.452,0.893121,2.56182,13.6223,0.581603,0.399418,-0.0666587,0
2024-12-11 14:39:23.454,0.667897,2.58335,13.11,0.581603,0.399418,-0.0666587,0
2024-12-11 14:39:23.456,0.464507,2.61685,12.5904,0.633525,0.474552,-0.0355055,0
2024-12-11 14:39:23.458,0.325723,2.6671,12.0832,0.679949,0.542356,-0.00740652,0
2024-12-11 14:39:23.460,0.215354,2.71974,11.5517,0.708659,0.600387,0.0188599,0
2024-12-11 14:39:23.463,0.0885344,2.7676,11.0321,0.733093,0.65353,0.038407,0
2024-12-11 14:39:23.465,-0.0358923,2.81306,10.5293,0.748364,0.698733,0.0555107,0
2024-12-11 14:39:23.468,-0.143569,2.8681,10.0528,0.756916,0.74027,0.0677277,0
2024-12-11 14:39:23.470,-0.256032,2.94467,9.6027,0.757527,0.775089,0.0756687,0
2024-12-11 14:39:23.473,-0.383151,3.04517,9.18126,0.733704,0.817314,0.0921616,0
2024-12-11 14:39:23.476,-0.481256,3.14357,8.78644,0.710492,0.829531,0.0964375,0
2024-12-11 14:39:23.477,-0.52672,3.201,8.43201,0.710492,0.829531,0.0964375,0
2024-12-11 14:39:23.479,-0.593719,3.24646,8.10389,0.683004,0.835028,0.0958267,0
2024-12-11 14:39:23.483,-0.675075,3.3015,7.81197,0.610924,0.824033,0.086664,0
2024-12-11 14:39:23.485,-0.74686,3.34218,7.57239,0.569997,0.80754,0.0793338,0
2024-12-11 14:39:23.486,-0.811466,3.37807,7.34746,0.569997,0.80754,0.0793338,0
2024-12-11 14:39:23.489,-0.8668,3.41635,7.16321,0.523572,0.784862,0.0713928,0
2024-12-11 14:39:23.491,-0.931406,3.4355,7.02204,0.475926,0.757985,0.0591758,0
2024-12-11 14:39:23.494,-1.0008,3.44507,6.92363,0.427669,0.728664,0.0481806,0
2024-12-11 14:39:23.496,-1.07737,3.44985,6.88535,0.382467,0.693235,0.0316877,0
2024-12-11 14:39:23.498,-1.14915,3.44746,6.89731,0.335431,0.654752,0.0158057,0
2024-12-11 14:39:23.500,-1.20658,3.45942,6.9356,0.295726,0.612603,-0.000687203,0
2024-12-11 14:39:23.503,-1.2664,3.47617,6.99063,0.255411,0.568622,-0.0190126,0
2024-12-11 14:39:23.506,-1.32144,3.47378,7.07946,0.219371,0.521587,-0.0330621,0
2024-12-11 14:39:23.508,-1.3669,3.45224,7.18236,0.187606,0.475774,-0.0489441,0
2024-12-11 14:39:23.510,-1.40279,3.4331,7.29721,0.160729,0.42996,-0.065437,0
2024-12-11 14:39:23.512,-1.41266,3.40678,7.42164,0.138128,0.385368,-0.081319,0
2024-12-11 14:39:23.515,-1.40788,3.36371,7.55085,0.11797,0.340776,-0.0959794,0
2024-12-11 14:39:23.517,-1.40788,3.3015,7.67797,0.104531,0.296795,-0.113083,0
2024-12-11 14:39:23.520,-1.39561,3.24885,7.8024,0.0904818,0.211277,-0.146069,0
2024-12-11 14:39:23.523,-1.37886,3.201,7.94118,0.0886492,0.166685,-0.163173,0
2024-12-11 14:39:23.524,-1.37647,3.14118,8.07039,0.0886492,0.166685,-0.163173,0
2024-12-11 14:39:23.527,-1.38604,3.10289,8.1688,0.0904818,0.12698,-0.180887,0
2024-12-11 14:39:23.529,-1.38604,3.05952,8.24058,0.0923143,0.0854423,-0.195547,0
2024-12-11 14:39:23.532,-1.40279,3.00927,8.29322,0.101477,0.0115297,-0.22609,0
2024-12-11 14:39:23.534,-1.41266,2.97817,8.35065,0.101477,0.0115297,-0.22609,0
2024-12-11 14:39:23.537,-1.41745,2.92552,8.39612,0.111861,-0.0636045,-0.2548,0
2024-12-11 14:39:23.538,-1.4342,2.85135,8.42483,0.111861,-0.0636045,-0.2548,0
2024-12-11 14:39:23.541,-1.45334,2.79153,8.43679,0.115526,-0.0990336,-0.267017,0
2024-12-11 14:39:23.543,-1.47488,2.74606,8.44158,0.119802,-0.133852,-0.278012,0
2024-12-11 14:39:23.546,-1.49641,2.69821,8.45594,0.126522,-0.197991,-0.293894,0
2024-12-11 14:39:23.548,-1.51795,2.65753,8.47508,0.126522,-0.197991,-0.293894,0
2024-12-11 14:39:23.550,-1.5323,2.61685,8.48465,0.128354,-0.227922,-0.297559,0
2024-12-11 14:39:23.552,-1.53948,2.56899,8.46311,0.126522,-0.256632,-0.302446,0
2024-12-11 14:39:23.556,-1.5347,2.52323,8.44876,0.1253,-0.283509,-0.304889,0
2024-12-11 14:39:23.557,-1.50838,2.48255,8.44158,0.122857,-0.306111,-0.306111,0
2024-12-11 14:39:23.560,-1.4653,2.4347,8.43919,0.112472,-0.350703,-0.308554,0
2024-12-11 14:39:23.563,-1.41506,2.3988,8.45833,0.106975,-0.369639,-0.310998,0
2024-12-11 14:39:23.564,-1.36211,2.37488,8.48226,0.106975,-0.369639,-0.310998,0
2024-12-11 14:39:23.567,-1.30469,2.35334,8.50858,0.100255,-0.38491,-0.312219,0
2024-12-11 14:39:23.570,-1.24247,2.32941,8.52293,0.081319,-0.411787,-0.318939,0
2024-12-11 14:39:23.572,-1.18265,2.29831,8.54686,0.081319,-0.411787,-0.318939,0
2024-12-11 14:39:23.573,-1.11087,2.26959,8.55643,0.0703238,-0.42095,-0.324436,0
2024-12-11 14:39:23.576,-1.02712,2.22652,8.55404,0.0599394,-0.430724,-0.328712,0
2024-12-11 14:39:23.579,-0.940978,2.19063,8.58036,0.0324513,-0.439276,-0.342762,0
2024-12-11 14:39:23.581,-0.85005,2.1667,8.61625,0.0324513,-0.439276,-0.342762,0
2024-12-11 14:39:23.583,-0.751645,2.13081,8.66172,0.0177909,-0.441719,-0.34887,0
2024-12-11 14:39:23.585,-0.660718,2.08295,8.70509,0.00557398,-0.439886,-0.355589,0
2024-12-11 14:39:23.588,-0.574577,2.0327,8.74577,-0.00908635,-0.432556,-0.361698,0
2024-12-11 14:39:23.590,-0.493221,1.99442,8.79841,-0.0255792,-0.425226,-0.37025,0
2024-12-11 14:39:23.592,-0.431007,1.95823,8.83669,-0.0371853,-0.411787,-0.37758,0
2024-12-11 14:39:23.595,-0.383151,1.92473,8.86302,-0.0500131,-0.391019,-0.386132,0
2024-12-11 14:39:23.597,-0.342473,1.89123,8.90609,-0.0603975,-0.366585,-0.392851,0
2024-12-11 14:39:23.599,-0.320937,1.85055,8.95155,-0.0713928,-0.336653,-0.398349,0
2024-12-11 14:39:23.603,-0.308973,1.82184,8.99223,-0.0775012,-0.303667,-0.405068,0
2024-12-11 14:39:23.606,-0.285045,1.74527,9.05444,-0.0939941,-0.225479,-0.406901,0
2024-12-11 14:39:23.609,-0.287438,1.70459,9.08555,-0.0988809,-0.181498,-0.406901,0
2024-12-11 14:39:23.609,-0.287438,1.70459,9.08555,-0.0988809,-0.181498,-0.406901,0
2024-12-11 14:39:23.613,-0.263211,1.65673,9.11905,-0.1056,-0.0886492,-0.402014,0
2024-12-11 14:39:23.614,-0.263211,1.65673,9.11905,-0.1056,-0.0886492,-0.402014,0
2024-12-11 14:39:23.616,-0.294616,1.62562,9.1358,-0.108654,-0.041614,-0.394684,0
2024-12-11 14:39:23.619,-0.349651,1.60648,9.13819,-0.106211,0.0622301,-0.375137,0
2024-12-11 14:39:23.621,-0.41665,1.6017,9.14058,-0.106211,0.0622301,-0.375137,0
2024-12-11 14:39:23.623,-0.476471,1.59452,9.14537,-0.101935,0.114763,-0.36292,0
2024-12-11 14:39:23.625,-0.555434,1.5993,9.14776,-0.0982701,0.167296,-0.344594,0
2024-12-11 14:39:23.629,-0.627219,1.5993,9.13819,-0.0811663,0.270529,-0.301835,0
2024-12-11 14:39:23.631,-0.684646,1.60648,9.11187,-0.0811663,0.270529,-0.301835,0
2024-12-11 14:39:23.632,-0.768395,1.62323,9.05205,-0.0720036,0.319397,-0.275568,0
2024-12-11 14:39:23.635,-0.837787,1.64237,8.97787,-0.0616192,0.367043,-0.24808,0
2024-12-11 14:39:23.637,-0.9003,1.68784,8.88216,-0.050624,0.410413,-0.219371,0
2024-12-11 14:39:23.640,-0.96012,1.7333,8.76012,-0.0420721,0.449507,-0.190661,0
2024-12-11 14:39:23.644,-1.02473,1.82901,8.47269,-0.0274118,0.519755,-0.127133,0
2024-12-11 14:39:23.645,-1.02473,1.82901,8.47269,-0.0237467,0.548464,-0.0947577,0
2024-12-11 14:39:23.647,-1.01994,1.87687,8.31715,-0.0237467,0.548464,-0.0947577,0
2024-12-11 14:39:23.649,-1.00798,1.92951,8.18076,-0.022525,0.579007,-0.0678804,0
2024-12-11 14:39:23.651,-0.974477,1.97528,8.04407,-0.0231358,0.604662,-0.0397814,0
2024-12-11 14:39:23.653,-0.905085,2.01595,7.91007,-0.0261901,0.626042,-0.0147367,0
2024-12-11 14:39:23.657,-0.816252,2.07099,7.77847,-0.0365745,0.662082,0.0243575,0
2024-12-11 14:39:23.658,-0.739681,2.14277,7.65643,-0.0365745,0.662082,0.0243575,0
2024-12-11 14:39:23.661,-0.675075,2.20977,7.55085,-0.0408504,0.678575,0.0414613,0
2024-12-11 14:39:23.663,-0.612862,2.27677,7.44796,-0.0481806,0.688959,0.0524565,0
2024-12-11 14:39:23.665,-0.557827,2.35095,7.35943,-0.0548999,0.697511,0.0628409,0
2024-12-11 14:39:23.668,-0.495613,2.42034,7.26371,-0.0634518,0.704841,0.0707819,0
2024-12-11 14:39:23.670,-0.4669,2.48495,7.2015,-0.0713928,0.709117,0.0762796,0
2024-12-11 14:39:23.672,-0.442971,2.54746,7.12971,-0.082388,0.711561,0.0811663,0
2024-12-11 14:39:23.675,-0.471685,2.65035,7.07229,-0.0921616,0.709728,0.0811663,0
2024-12-11 14:39:23.677,-0.581755,2.77478,7.11296,-0.0970484,0.716447,0.0836097,0
2024-12-11 14:39:23.679,-0.490828,2.82981,7.03639,-0.103157,0.731108,0.0848314,0
2024-12-11 14:39:23.683,-0.253639,2.79153,6.85663,-0.122093,0.730497,0.0756687,0
2024-12-11 14:39:23.684,-0.0646062,2.73649,6.73939,-0.122093,0.730497,0.0756687,0
2024-12-11 14:39:23.686,0.0358923,2.70778,6.64606,-0.134921,0.721334,0.066506,0
2024-12-11 14:39:23.690,0.0598206,2.70539,6.57667,-0.162409,0.681018,0.0432938,0
2024-12-11 14:39:23.692,0.0550349,2.72213,6.52403,-0.162409,0.681018,0.0432938,0
2024-12-11 14:39:23.694,0.026321,2.74367,6.48096,-0.180124,0.650476,0.0347419,0
2024-12-11 14:39:23.696,0.0,2.79392,6.42323,-0.196006,0.618712,0.0268009,0
2024-12-11 14:39:23.698,-0.00957129,2.83699,6.35623,-0.213109,0.585726,0.0188599,0
2024-12-11 14:39:23.702,-0.00717847,2.86331,6.29881,-0.230213,0.553351,0.010308,0
2024-12-11 14:39:23.703,-0.00957129,2.88963,6.25095,-0.24976,0.524031,0.00603212,0
2024-12-11 14:39:23.706,-0.0215354,2.8992,6.22224,-0.282746,0.467222,-0.00923906,0
2024-12-11 14:39:23.708,-0.0622134,2.90399,6.21745,-0.282746,0.467222,-0.00923906,0
2024-12-11 14:39:23.710,-0.081356,2.91595,6.22941,-0.303515,0.441566,-0.0122933,0
2024-12-11 14:39:23.713,-0.0957129,2.92552,6.24616,-0.318786,0.414689,-0.0171801,0
2024-12-11 14:39:23.716,-0.150748,2.93749,6.27009,-0.333446,0.390866,-0.0220669,0
2024-12-11 14:39:23.717,-0.184247,2.95424,6.31316,-0.344442,0.366432,-0.021456,0
2024-12-11 14:39:23.719,-0.205783,2.95663,6.37059,-0.35788,0.343831,-0.0226777,0
2024-12-11 14:39:23.722,-0.241675,2.96381,6.42323,-0.367654,0.321229,-0.0202343,0
2024-12-11 14:39:23.724,-0.282652,2.97338,6.47139,-0.376206,0.298017,-0.0202343,0
2024-12-11 14:39:23.727,-0.299402,2.98295,6.51207,-0.383536,0.277248,-0.0141258,0
2024-12-11 14:39:23.729,-0.308973,3.00449,6.57667,-0.389033,0.252814,-0.00801737,0
2024-12-11 14:39:23.732,-0.337687,3.02124,6.67239,-0.395142,0.212498,0.00297788,0
2024-12-11 14:39:23.735,-0.364008,3.04277,6.75374,-0.394531,0.194784,0.0127514,0
2024-12-11 14:39:23.736,-0.366401,3.04517,6.84228,-0.394531,0.194784,0.0127514,0
2024-12-11 14:39:23.738,-0.364008,3.05713,6.92602,-0.395142,0.181345,0.0194708,0
2024-12-11 14:39:23.742,-0.366401,3.06909,6.97627,-0.389644,0.158744,0.0347419,0
2024-12-11 14:39:23.743,-0.352044,3.07627,7.0026,-0.389644,0.158744,0.0347419,0
2024-12-11 14:39:23.746,-0.316152,3.08854,7.05314,-0.384147,0.151414,0.0414613,0
2024-12-11 14:39:23.749,-0.285045,3.09093,7.11536,-0.374373,0.131867,0.0561216,0
2024-12-11 14:39:23.751,-0.270389,3.1005,7.168,-0.368265,0.123315,0.0628409,0
2024-12-11 14:39:23.752,-0.263211,3.12443,7.22303,-0.368265,0.123315,0.0628409,0
2024-12-11 14:39:23.755,-0.285045,3.13639,7.25414,-0.362767,0.115985,0.0689494,0
2024-12-11 14:39:23.757,-0.292223,3.134,7.26371,-0.356658,0.1056,0.0768904,0
2024-12-11 14:39:23.760,-0.297009,3.13879,7.27568,-0.351161,0.0970484,0.0854423,0
2024-12-11 14:39:23.763,-0.308973,3.14357,7.28525,-0.347496,0.0842206,0.0958267,0
2024-12-11 14:39:23.764,-0.311366,3.17707,7.31635,-0.341387,0.0720036,0.102546,0
2024-12-11 14:39:23.767,-0.318545,3.21057,7.34746,-0.3365,0.0597867,0.114152,0
2024-12-11 14:39:23.769,-0.294616,3.2345,7.34746,-0.333446,0.0451263,0.123926,0
2024-12-11 14:39:23.771,-0.251246,3.26321,7.34507,-0.32917,0.0292443,0.133088,0
2024-12-11 14:39:23.774,-0.215354,3.30868,7.37857,-0.328559,0.014584,0.14164,0
2024-12-11 14:39:23.776,-0.200997,3.36371,7.42642,-0.326727,-0.00374144,0.146527,0
2024-12-11 14:39:23.779,-0.215354,3.4331,7.45992,-0.320618,-0.0355055,0.15569,0
2024-12-11 14:39:23.781,-0.210568,3.51207,7.48385,-0.320618,-0.0355055,0.15569,0
2024-12-11 14:39:23.783,-0.174676,3.57906,7.51257,-0.318175,-0.0519984,0.158744,0
2024-12-11 14:39:23.786,-0.133998,3.64876,7.54846,-0.316953,-0.0666587,0.156911,0
2024-12-11 14:39:23.788,-0.117248,3.72293,7.59183,-0.31451,-0.081319,0.154468,0
2024-12-11 14:39:23.791,-0.129212,3.79711,7.62293,-0.310845,-0.108807,0.150192,0
2024-12-11 14:39:23.792,-0.16989,3.89522,7.63729,-0.310845,-0.108807,0.150192,0
2024-12-11 14:39:23.796,-0.215354,3.99093,7.67318,-0.307791,-0.129576,0.14164,0
2024-12-11 14:39:23.797,-0.246461,4.06511,7.70429,-0.307791,-0.129576,0.14164,0
2024-12-11 14:39:23.802,-0.332901,4.17757,7.75215,-0.308401,-0.157064,0.134921,0
2024-12-11 14:39:23.803,-0.292223,4.17757,7.75215,-0.308401,-0.157064,0.134921,0
2024-12-11 14:39:23.804,-0.395115,4.24247,7.79761,-0.307791,-0.169892,0.131867,0
2024-12-11 14:39:23.807,-0.471685,4.28794,7.84068,-0.312677,-0.186996,0.130645,0
2024-12-11 14:39:23.809,-0.524327,4.32383,7.87418,-0.311456,-0.205932,0.131256,0
2024-12-11 14:39:23.812,-0.557827,4.35494,7.90529,-0.318786,-0.243804,0.128812,0
2024-12-11 14:39:23.814,-0.579362,4.37887,7.94836,-0.318786,-0.243804,0.128812,0
2024-12-11 14:39:23.816,-0.596112,4.40279,7.99861,-0.320618,-0.265795,0.130034,0
2024-12-11 14:39:23.818,-0.612862,4.41476,8.05125,-0.326727,-0.287175,0.132477,0
2024-12-11 14:39:23.821,-0.634397,4.43869,8.10868,-0.32917,-0.306111,0.129423,0
2024-12-11 14:39:23.824,-0.660718,4.45783,8.18315,-0.338333,-0.34887,0.133699,0
2024-12-11 14:39:23.826,-0.687039,4.46979,8.26451,-0.338333,-0.34887,0.133699,0
2024-12-11 14:39:23.829,-0.682254,4.49133,8.34826,-0.343831,-0.39224,0.131867,0
2024-12-11 14:39:23.831,-0.675075,4.50808,8.44158,-0.343831,-0.39224,0.131867,0
2024-12-11 14:39:23.832,-0.691825,4.52722,8.54686,-0.343831,-0.412398,0.133699,0
2024-12-11 14:39:23.835,-0.710967,4.56311,8.65215,-0.344442,-0.435,0.134921,0
2024-12-11 14:39:23.837,-0.701396,4.58704,8.75773,-0.34322,-0.452714,0.135532,0
2024-12-11 14:39:23.840,-0.689432,4.60858,8.86302,-0.341387,-0.472261,0.137975,0
2024-12-11 14:39:23.842,-0.672682,4.61336,8.96591,-0.339555,-0.491808,0.140419,0
2024-12-11 14:39:23.844,-0.617647,4.62293,9.07119,-0.33589,-0.511966,0.141029,0
2024-12-11 14:39:23.847,-0.557827,4.64447,9.17408,-0.334057,-0.529681,0.143473,0
2024-12-11 14:39:23.849,-0.517149,4.64686,9.28684,-0.331003,-0.55045,0.142862,0
2024-12-11 14:39:23.852,-0.478864,4.65883,9.42323,-0.323673,-0.594431,0.144694,0
2024-12-11 14:39:23.854,-0.440578,4.65883,9.56202,-0.323673,-0.594431,0.144694,0
2024-12-11 14:39:23.856,-0.41665,4.66361,9.69602,-0.317564,-0.616421,0.144694,0
2024-12-11 14:39:23.858,-0.387936,4.67318,9.85185,-0.312677,-0.640244,0.142251,0
2024-12-11 14:39:23.861,-0.354437,4.65165,10.017,-0.308401,-0.664067,0.14164,0
2024-12-11 14:39:23.863,-0.32333,4.64208,10.1773,-0.301071,-0.68789,0.139808,0
2024-12-11 14:39:23.866,-0.277567,4.65643,10.3256,-0.290687,-0.711713,0.142251,0
2024-12-11 14:39:23.868,-0.215354,4.66122,10.4815,-0.280303,-0.734926,0.142251,0
2024-12-11 14:39:23.870,-0.157926,4.66361,10.6394,-0.27114,-0.754473,0.143473,0
2024-12-11 14:39:23.872,-0.100499,4.67558,10.7806,-0.258312,-0.77402,0.146527,0
2024-12-11 14:39:23.875,-0.0382852,4.67318,10.9122,-0.247928,-0.792345,0.146527,0
2024-12-11 14:39:23.877,0.0215354,4.64686,11.0584,-0.232046,-0.808227,0.146527,0
2024-12-11 14:39:23.881,0.0885344,4.6349,11.2068,-0.19906,-0.83205,0.152025,0
2024-12-11 14:39:23.882,0.141177,4.65165,11.3336,-0.19906,-0.83205,0.152025,0
2024-12-11 14:39:23.885,0.165105,4.67079,11.4556,-0.162409,-0.835715,0.157522,0
2024-12-11 14:39:23.888,0.193819,4.68993,11.578,-0.142251,-0.831439,0.159966,0
2024-12-11 14:39:23.889,0.239282,4.71386,11.6856,-0.142251,-0.831439,0.159966,0
2024-12-11 14:39:23.892,0.263211,4.74257,11.7933,-0.0982701,-0.813114,0.171572,0
2024-12-11 14:39:23.895,0.275175,4.77637,11.8843,-0.0982701,-0.813114,0.171572,0
2024-12-11 14:39:23.896,0.311366,4.80269,11.9584,-0.0762796,-0.796621,0.177069,0
2024-12-11 14:39:23.898,0.364008,4.81227,12.0206,-0.0518457,-0.779517,0.180734,0
2024-12-11 14:39:23.902,0.387936,4.80748,12.0565,-0.0286335,-0.757527,0.188065,0
2024-12-11 14:39:23.904,0.421436,4.82184,12.0903,0.021456,-0.704383,0.196006,0
2024-12-11 14:39:23.906,0.459721,4.83619,12.1143,0.021456,-0.704383,0.196006,0
2024-12-11 14:39:23.908,0.481256,4.8338,12.1358,0.0403923,-0.679949,0.202114,0
2024-12-11 14:39:23.911,0.498006,4.86012,12.1549,0.0837624,-0.626195,0.208833,0
2024-12-11 14:39:23.912,0.493221,4.89601,12.143,0.0837624,-0.626195,0.208833,0
2024-12-11 14:39:23.916,0.478864,4.91755,12.119,0.1253,-0.571829,0.217996,0
2024-12-11 14:39:23.918,0.474078,4.94866,12.0712,0.143015,-0.546174,0.224105,0
2024-12-11 14:39:23.921,0.469292,4.98216,11.9943,0.143015,-0.546174,0.224105,0
2024-12-11 14:39:23.922,0.464507,5.0013,11.913,0.160118,-0.518686,0.230824,0
2024-12-11 14:39:23.924,0.459721,5.0348,11.8268,0.173557,-0.495473,0.236322,0
2024-12-11 14:39:23.928,0.447757,5.0683,11.7239,0.185163,-0.473483,0.243041,0
2024-12-11 14:39:23.929,0.4334,5.0994,11.578,0.190661,-0.455768,0.247317,0
2024-12-11 14:39:23.932,0.426222,5.14008,11.4174,0.193104,-0.440497,0.252204,0
2024-12-11 14:39:23.934,0.409472,5.19033,11.2762,0.191272,-0.42828,0.25709,0
2024-12-11 14:39:23.937,0.397508,5.22383,11.1446,0.171114,-0.414842,0.269918,0
2024-12-11 14:39:23.939,0.419043,5.2358,11.0225,0.171114,-0.414842,0.269918,0
2024-12-11 14:39:23.941,0.478864,5.24537,10.9289,0.15401,-0.413009,0.270529,0
2024-12-11 14:39:23.943,0.557827,5.25015,10.8739,0.135074,-0.417285,0.272362,0
2024-12-11 14:39:23.946,0.634397,5.25015,10.8212,0.111251,-0.419118,0.268086,0
2024-12-11 14:39:23.948,0.689432,5.25494,10.7949,0.0904818,-0.423394,0.26381,0
2024-12-11 14:39:23.951,0.725324,5.2669,10.8212,0.0440574,-0.429502,0.250371,0
2024-12-11 14:39:23.954,0.768395,5.29562,10.8523,0.0202343,-0.431335,0.24243,0
2024-12-11 14:39:23.955,0.804287,5.31715,10.8954,0.0202343,-0.431335,0.24243,0
2024-12-11 14:39:23.958,0.818644,5.30997,10.9795,-0.00236703,-0.433778,0.235711,0
2024-12-11 14:39:23.960,0.825823,5.30997,11.0728,-0.00236703,-0.433778,0.235711,0
2024-12-11 14:39:23.962,0.845265,5.30758,11.1541,-0.0322986,-0.440497,0.223494,0
2024-12-11 14:39:23.964,0.845265,5.28604,11.2259,-0.0469589,-0.439886,0.217996,0
2024-12-11 14:39:23.968,0.835394,5.27169,11.3145,-0.058565,-0.440497,0.211888,0
2024-12-11 14:39:23.969,0.84018,5.25733,11.4293,-0.066506,-0.440497,0.210055,0
2024-12-11 14:39:23.971,0.854836,5.24297,11.5493,-0.0707819,-0.436221,0.209444,0
2024-12-11 14:39:23.974,0.845265,5.22383,11.6689,-0.0732253,-0.430113,0.20639,0
2024-12-11 14:39:23.977,0.835394,5.22144,11.7838,-0.0677277,-0.416063,0.203947,0
2024-12-11 14:39:23.981,0.816252,5.24297,11.9321,-0.0597867,-0.405068,0.203336,0
2024-12-11 14:39:23.981,0.816252,5.24297,11.9321,-0.0597867,-0.405068,0.203336,0
2024-12-11 14:39:23.984,0.799502,5.27408,12.0063,-0.0396287,-0.385521,0.205779,0
2024-12-11 14:39:23.985,0.782752,5.27887,12.0736,-0.0396287,-0.385521,0.205779,0
2024-12-11 14:39:23.988,0.74686,5.31237,12.1119,-0.0255792,-0.376358,0.203336,0
2024-12-11 14:39:23.990,0.720539,5.35574,12.1262,-0.010308,-0.367196,0.203336,0
2024-12-11 14:39:23.995,0.687039,5.42991,12.1047,0.0122933,-0.357422,0.203947,0
2024-12-11 14:39:23.995,0.663111,5.42991,12.1047,0.0122933,-0.357422,0.203947,0
2024-12-11 14:39:23.997,0.634397,5.47059,12.0784,0.0245102,-0.358644,0.203336,0
2024-12-11 14:39:24.001,0.600898,5.49691,12.0326,0.0434465,-0.367196,0.193562,0
2024-12-11 14:39:24.002,0.586541,5.52323,11.98,0.0434465,-0.367196,0.193562,0
2024-12-11 14:39:24.004,0.584148,5.52323,11.9154,0.0519984,-0.375747,0.188065,0
2024-12-11 14:39:24.007,0.581755,5.51127,11.8077,0.0568851,-0.391629,0.179513,0
2024-12-11 14:39:24.010,0.62004,5.49452,11.688,0.0562743,-0.411787,0.172793,0
2024-12-11 14:39:24.012,0.682254,5.43948,11.5732,0.0501658,-0.436832,0.164852,0
2024-12-11 14:39:24.014,0.74686,5.36531,11.458,0.0385597,-0.469207,0.154468,0
2024-12-11 14:39:24.017,0.852443,5.28365,11.348,0.00435229,-0.54373,0.126369,0
2024-12-11 14:39:24.019,0.988834,5.19512,11.2475,0.00435229,-0.54373,0.126369,0
2024-12-11 14:39:24.021,1.13958,5.08265,11.1589,-0.0219141,-0.587101,0.109876,0
2024-12-11 14:39:24.023,1.30947,4.97258,11.0967,-0.0512348,-0.632914,0.0897182,0
2024-12-11 14:39:24.026,1.49163,4.86969,11.0632,-0.0848314,-0.677506,0.0658951,0
2024-12-11 14:39:24.028,1.6663,4.74257,11.0417,-0.122093,-0.720265,0.038407,0
2024-12-11 14:39:24.030,1.83141,4.59661,11.0393,-0.159355,-0.760581,0.010308,0
2024-12-11 14:39:24.033,2.00399,4.44108,11.0536,-0.19906,-0.799675,-0.0202343,0
2024-12-11 14:39:24.035,2.18584,4.25444,11.0991,-0.239376,-0.83205,-0.0507767,0
2024-12-11 14:39:24.037,2.35334,4.04118,11.1924,-0.27847,-0.858928,-0.0837624,0
2024-12-11 14:39:24.040,2.50648,3.833,11.2977,-0.320008,-0.883972,-0.116748,0
2024-12-11 14:39:24.042,2.67428,3.61496,11.4078,-0.360324,-0.898022,-0.150956,0
2024-12-11 14:39:24.044,2.83699,3.38046,11.5277,-0.394531,-0.908406,-0.188217,0
2024-12-11 14:39:24.047,2.97817,3.134,11.6785,-0.428128,-0.909017,-0.225479,0
2024-12-11 14:39:24.049,3.08584,2.87528,11.8675,-0.455616,-0.893135,-0.262741,0
2024-12-11 14:39:24.051,3.15314,2.60967,12.0637,-0.478828,-0.871145,-0.299392,0
2024-12-11 14:39:24.055,3.18186,2.35813,12.2554,-0.505094,-0.801508,-0.366585,0
2024-12-11 14:39:24.057,3.15314,2.12124,12.4564,-0.505094,-0.801508,-0.366585,0
2024-12-11 14:39:24.058,3.07388,1.89123,12.6793,-0.507538,-0.754473,-0.395295,0
2024-12-11 14:39:24.063,2.99252,1.48205,13.1868,-0.482493,-0.618254,-0.453936,0
2024-12-11 14:39:24.063,2.99252,1.48205,13.1868,-0.482493,-0.618254,-0.453936,0
2024-12-11 14:39:24.067,2.80828,1.32144,13.4022,-0.458059,-0.546785,-0.47837,0
2024-12-11 14:39:24.069,2.54507,1.18744,13.5793,-0.378038,-0.392851,-0.497306,1
2024-12-11 14:39:24.071,2.2672,1.0654,13.6989,-0.331003,-0.31283,-0.489976,0
2024-12-11 14:39:24.073,1.98724,0.929013,13.7686,-0.331003,-0.31283,-0.489976,0
2024-12-11 14:39:24.076,1.70698,0.794716,13.7901,-0.225937,-0.140571,-0.450882,0
2024-12-11 14:39:24.078,1.4342,0.660718,13.771,-0.167296,-0.0513875,-0.420339,0
2024-12-11 14:39:24.081,1.18744,0.505185,13.7228,-0.106822,0.0371853,-0.38491,0
2024-12-11 14:39:24.083,0.955334,0.361615,13.6223,-0.042683,0.123926,-0.340318,0
2024-12-11 14:39:24.084,0.737288,0.258425,13.4764,-0.042683,0.123926,-0.340318,0
2024-12-11 14:39:24.087,0.569791,0.212961,13.3089,0.0226777,0.21372,-0.294505,0
2024-12-11 14:39:24.090,0.4334,0.208176,13.0932,0.085595,0.295574,-0.242583,0
2024-12-11 14:39:24.092,0.294616,0.210568,12.8228,0.144236,0.37254,-0.186385,0
2024-12-11 14:39:24.094,0.167498,0.212961,12.5163,0.197991,0.440345,-0.127743,0
2024-12-11 14:39:24.096,0.0622134,0.22014,12.1956,0.244415,0.498986,-0.0697129,0
2024-12-11 14:39:24.100,-0.0119641,0.234497,11.8795,0.319549,0.582672,0.0487914,0
2024-12-11 14:39:24.101,-0.0502493,0.239282,11.5588,0.319549,0.582672,0.0487914,0
2024-12-11 14:39:24.103,-0.0622134,0.253639,11.2355,0.346427,0.611382,0.103157,0
2024-12-11 14:39:24.106,-0.026321,0.308973,10.9289,0.368417,0.625431,0.153857,0
2024-12-11 14:39:24.108,0.066999,0.414257,10.649,0.382467,0.632761,0.199671,0
2024-12-11 14:39:24.110,0.212961,0.555434,10.3905,0.391629,0.630318,0.241208,0
2024-12-11 14:39:24.113,0.390329,0.699003,10.1629,0.396516,0.621766,0.27114,0
2024-12-11 14:39:24.115,0.576969,0.830609,9.98106,0.397738,0.605884,0.298628,0
2024-12-11 14:39:24.117,0.787538,0.950549,9.84228,0.395295,0.585726,0.316343,0
2024-12-11 14:39:24.120,1.01276,1.07737,9.72712,0.394073,0.561903,0.328559,0
2024-12-11 14:39:24.123,1.23769,1.18505,9.62663,0.386743,0.506316,0.331614,0
2024-12-11 14:39:24.125,1.47009,1.26401,9.52613,0.386743,0.506316,0.331614,0
2024-12-11 14:39:24.127,1.70937,1.34776,9.44238,0.383078,0.476995,0.326116,0
2024-12-11 14:39:24.129,1.9657,1.44377,9.34906,0.379413,0.448896,0.312067,0
2024-12-11 14:39:24.131,2.18106,1.54905,9.23869,0.375747,0.419576,0.294963,0
2024-12-11 14:39:24.134,2.3988,1.62562,9.13819,0.372082,0.391477,0.274194,0
2024-12-11 14:39:24.137,2.62403,1.68305,9.04487,0.368417,0.36521,0.245484,0
2024-12-11 14:39:24.140,2.80828,1.7333,8.96591,0.358033,0.309623,0.182567,0
2024-12-11 14:39:24.141,2.97099,1.78594,8.8678,0.358033,0.309623,0.182567,0
2024-12-11 14:39:24.143,3.08106,1.85294,8.75773,0.348259,0.280303,0.144694,0
2024-12-11 14:39:24.146,3.16511,1.89841,8.63301,0.337264,0.254036,0.106822,0
2024-12-11 14:39:24.148,3.2345,1.92712,8.51097,0.325658,0.224715,0.0701711,0
2024-12-11 14:39:24.150,3.26321,1.97767,8.39612,0.310998,0.196616,0.0310769,0
2024-12-11 14:39:24.154,3.29432,2.02313,8.24776,0.274347,0.14836,-0.049555,0
2024-12-11 14:39:24.157,3.31107,2.05185,8.10868,0.255411,0.126369,-0.0880384,0
2024-12-11 14:39:24.157,3.28953,2.09013,7.99621,0.255411,0.126369,-0.0880384,0
2024-12-11 14:39:24.160,3.08584,2.18345,7.98904,0.236474,0.108044,-0.125911,0
2024-12-11 14:39:24.162,2.87767,2.2672,8.02493,0.215705,0.106822,-0.157064,0
2024-12-11 14:39:24.165,2.92792,2.25284,7.86461,0.195547,0.101324,-0.186385,0
2024-12-11 14:39:24.167,3.05474,2.18584,7.63968,0.171724,0.094605,-0.215705,0
2024-12-11 14:39:24.169,3.11246,2.12602,7.48146,0.146069,0.090329,-0.244415,0
2024-12-11 14:39:24.172,3.08345,2.06142,7.35703,0.115526,0.0836097,-0.273736,0
2024-12-11 14:39:24.175,2.97099,1.99442,7.28286,0.0800973,0.0775012,-0.29817,0
2024-12-11 14:39:24.176,2.78435,1.97767,7.25414,0.0428357,0.0695602,-0.319549,0
2024-12-11 14:39:24.180,2.58096,2.0016,7.22064,-0.0353528,0.0597867,-0.345205,0
2024-12-11 14:39:24.181,2.4323,2.02313,7.15843,-0.0353528,0.0597867,-0.345205,0
2024-12-11 14:39:24.184,2.33659,2.02552,7.10818,-0.11965,0.0634518,-0.356811,0
2024-12-11 14:39:24.187,2.25763,2.05424,7.08186,-0.160576,0.0750579,-0.359255,0
2024-12-11 14:39:24.188,2.18345,2.08295,7.09621,-0.160576,0.0750579,-0.359255,0
2024-12-11 14:39:24.191,2.10927,2.09013,7.15604,-0.199671,0.0884965,-0.356811,0
2024-12-11 14:39:24.193,2.04227,2.12602,7.23739,-0.234489,0.109876,-0.353757,0
2024-12-11 14:39:24.195,1.98006,2.16431,7.31396,-0.270529,0.135532,-0.350703,0
2024-12-11 14:39:24.197,1.9008,2.18584,7.39771,-0.298017,0.167907,-0.347648,0
2024-12-11 14:39:24.200,1.82184,2.21456,7.5006,-0.324894,0.203947,-0.343983,0
2024-12-11 14:39:24.203,1.73809,2.24566,7.60858,-0.34322,0.243652,-0.337875,0
2024-12-11 14:39:24.204,1.63041,2.27677,7.72104,-0.360934,0.285189,-0.331156,0
2024-12-11 14:39:24.207,1.5323,2.29113,7.8359,-0.376816,0.324894,-0.323825,0
2024-12-11 14:39:24.213,1.35015,2.29831,8.00339,-0.395753,0.436679,-0.293283,0
2024-12-11 14:39:24.213,1.35015,2.29831,8.00339,-0.395753,0.436679,-0.293283,0
2024-12-11 14:39:24.214,1.28076,2.30788,8.07518,-0.395753,0.436679,-0.293283,0
2024-12-11 14:39:24.216,1.22094,2.29831,8.14726,-0.395753,0.470276,-0.281677,0
2024-12-11 14:39:24.219,1.15633,2.28156,8.19751,-0.395142,0.50204,-0.268849,0
2024-12-11 14:39:24.221,1.07498,2.27438,8.22862,-0.388422,0.53075,-0.254189,0
2024-12-11 14:39:24.223,1.0008,2.29591,8.27887,-0.380481,0.555184,-0.240139,0
2024-12-11 14:39:24.227,0.940978,2.31984,8.34826,-0.356658,0.594889,-0.208375,0
2024-12-11 14:39:24.228,0.88355,2.34377,8.40329,-0.356658,0.594889,-0.208375,0
2024-12-11 14:39:24.230,0.830609,2.38206,8.43201,-0.33589,0.61016,-0.192493,0
2024-12-11 14:39:24.233,0.782752,2.39402,8.4344,-0.319397,0.622988,-0.17539,0
2024-12-11 14:39:24.237,0.708575,2.3988,8.46551,-0.277248,0.632151,-0.141182,0
2024-12-11 14:39:24.238,0.708575,2.3988,8.46551,-0.277248,0.632151,-0.141182,0
2024-12-11 14:39:24.241,0.687039,2.4012,8.47508,-0.252814,0.628486,-0.125911,0
2024-12-11 14:39:24.242,0.672682,2.41077,8.49661,-0.225937,0.622377,-0.111251,0
2024-12-11 14:39:24.244,0.682254,2.4323,8.5014,-0.200282,0.611993,-0.0965902,0
2024-12-11 14:39:24.247,0.732503,2.44666,8.49422,-0.174015,0.600997,-0.0843733,0
2024-12-11 14:39:24.249,0.787538,2.45145,8.47029,-0.144694,0.586948,-0.0715455,0
2024-12-11 14:39:24.252,0.818644,2.47537,8.42244,-0.117206,0.566179,-0.0611611,0
2024-12-11 14:39:24.255,0.864407,2.51127,8.40329,-0.0616192,0.536248,-0.0465007,0
2024-12-11 14:39:24.256,0.950549,2.54746,8.40808,-0.0616192,0.536248,-0.0465007,0
2024-12-11 14:39:24.260,1.03908,2.57857,8.40329,-0.00114534,0.510592,-0.0440574,0
2024-12-11 14:39:24.262,1.11565,2.58096,8.39133,0.0318404,0.49471,-0.0489441,0
2024-12-11 14:39:24.263,1.17308,2.59771,8.36262,0.0318404,0.49471,-0.0489441,0
2024-12-11 14:39:24.266,1.18983,2.64796,8.3363,0.0642153,0.48066,-0.0544418,0
2024-12-11 14:39:24.268,1.17787,2.69103,8.29801,0.0990336,0.466611,-0.0593285,0
2024-12-11 14:39:24.270,1.14197,2.74606,8.24537,0.131409,0.452561,-0.0660479,0
2024-12-11 14:39:24.273,1.12044,2.8011,8.19512,0.166227,0.438512,-0.0703238,0
2024-12-11 14:39:24.275,1.10369,2.83699,8.12303,0.199213,0.424462,-0.0770431,0
2024-12-11 14:39:24.277,1.06301,2.85853,8.02732,0.229755,0.411635,-0.0837624,0
2024-12-11 14:39:24.280,1.02473,2.85613,7.934,0.259686,0.397585,-0.0917034,0
2024-12-11 14:39:24.282,0.981655,2.85853,7.84547,0.289618,0.384147,-0.0965902,0
2024-12-11 14:39:24.285,0.917049,2.87528,7.74736,0.314052,0.37193,-0.100255,0
2024-12-11 14:39:24.287,0.845265,2.89442,7.61097,0.339097,0.362767,-0.102088,0
2024-12-11 14:39:24.290,0.773181,2.90878,7.47428,0.378802,0.348717,-0.110029,0
2024-12-11 14:39:24.292,0.694218,2.91835,7.36182,0.378802,0.348717,-0.110029,0
2024-12-11 14:39:24.295,0.610469,2.9327,7.24457,0.40629,0.342609,-0.109418,0
2024-12-11 14:39:24.297,0.507577,2.95185,7.09861,0.40629,0.342609,-0.109418,0
2024-12-11 14:39:24.299,0.404686,2.95424,6.94995,0.414842,0.339555,-0.108196,0
2024-12-11 14:39:24.301,0.318545,2.95663,6.84467,0.421561,0.338333,-0.106975,0
2024-12-11 14:39:24.303,0.0598206,3.04277,6.85903,0.430724,0.339555,-0.101477,0
2024-12-11 14:39:24.306,-0.124427,3.09332,6.8351,0.435,0.351161,-0.093536,0
2024-12-11 14:39:24.308,-0.0574277,3.05474,6.66999,0.441719,0.356658,-0.0868167,0
2024-12-11 14:39:24.310,0.0167498,3.02363,6.5001,0.444773,0.359102,-0.0770431,0
2024-12-11 14:39:24.313,0.0526421,2.98774,6.36102,0.445384,0.357269,-0.0721563,0
2024-12-11 14:39:24.315,0.00957129,2.95185,6.25334,0.437443,0.354826,-0.0666587,0
2024-12-11 14:39:24.317,-0.0885344,2.92792,6.16959,0.430113,0.349939,-0.0568851,0
2024-12-11 14:39:24.320,-0.215354,2.9327,6.09781,0.418507,0.342609,-0.0483333,0
2024-12-11 14:39:24.322,-0.330509,2.97577,6.02124,0.405068,0.330392,-0.037338,0
2024-12-11 14:39:24.326,-0.428614,3.0332,5.95903,0.368417,0.310234,-0.0129041,0
2024-12-11 14:39:24.327,-0.495613,3.07867,5.90878,0.368417,0.310234,-0.0129041,0
2024-12-11 14:39:24.330,-0.507577,3.10529,5.84387,0.325658,0.301682,0.0133623,0
2024-12-11 14:39:24.333,-0.500399,3.12921,5.80559,0.3055,0.299239,0.0268009,0
2024-12-11 14:39:24.335,-0.512363,3.14836,5.78405,0.3055,0.299239,0.0268009,0
2024-12-11 14:39:24.336,-0.529113,3.16271,5.78166,0.282899,0.294963,0.0371853,0
2024-12-11 14:39:24.339,-0.536291,3.18903,5.82234,0.260908,0.29313,0.0500131,0
2024-12-11 14:39:24.341,-0.56022,3.22253,5.87019,0.239528,0.287022,0.0610084,0
2024-12-11 14:39:24.344,-0.591326,3.2656,5.93031,0.218149,0.280913,0.0732253,0
2024-12-11 14:39:24.347,-0.600898,3.31585,6.01406,0.182109,0.265031,0.0964375,0
2024-12-11 14:39:24.349,-0.588933,3.36132,6.12174,0.182109,0.265031,0.0964375,0
2024-12-11 14:39:24.350,-0.553041,3.39721,6.24377,0.163173,0.25648,0.107433,0
2024-12-11 14:39:24.353,-0.521934,3.44267,6.35145,0.145458,0.247928,0.118428,0
2024-12-11 14:39:24.356,-0.474078,3.5001,6.4666,0.122246,0.22777,0.136753,0
2024-12-11 14:39:24.359,-0.404686,3.55753,6.61496,0.112472,0.221661,0.144084,0
2024-12-11 14:39:24.360,-0.361615,3.61017,6.79203,0.112472,0.221661,0.144084,0
2024-12-11 14:39:24.363,-0.32333,3.64876,6.95235,0.0984228,0.210666,0.157522,0
2024-12-11 14:39:24.366,-0.289831,3.69661,7.08904,0.0953685,0.205168,0.163631,0
2024-12-11 14:39:24.368,-0.260818,3.74686,7.23978,0.0959794,0.200892,0.17035,0
2024-12-11 14:39:24.370,-0.236889,3.79472,7.37617,0.0965902,0.195395,0.17768,0
2024-12-11 14:39:24.373,-0.224925,3.833,7.49582,0.0959794,0.188675,0.185621,0
2024-12-11 14:39:24.374,-0.208176,3.87607,7.63011,0.0959794,0.188675,0.185621,0
2024-12-11 14:39:24.377,-0.177069,3.92632,7.77129,0.0984228,0.181956,0.192951,0
2024-12-11 14:39:24.379,-0.141177,3.96222,7.90289,0.0996445,0.171572,0.203336,0
2024-12-11 14:39:24.381,-0.114855,3.99571,8.03211,0.105142,0.164852,0.212498,0
2024-12-11 14:39:24.383,-0.0717847,4.03639,8.1688,0.111861,0.157522,0.218607,0
2024-12-11 14:39:24.386,-0.0311067,4.07229,8.3004,0.116137,0.149581,0.226548,0
2024-12-11 14:39:24.388,-0.00478565,4.10578,8.41765,0.124689,0.143473,0.236932,0
2024-12-11 14:39:24.390,0.0143569,4.14407,8.50379,0.13263,0.13431,0.244263,0
2024-12-11 14:39:24.394,0.0239282,4.168,8.58036,0.152177,0.120871,0.26381,0
2024-12-11 14:39:24.395,0.0430708,4.18953,8.67847,0.152177,0.120871,0.26381,0
2024-12-11 14:39:24.398,0.081356,4.21855,8.79602,0.160729,0.114763,0.273583,0
2024-12-11 14:39:24.401,0.119641,4.24247,8.90848,0.180276,0.106822,0.288244,0
2024-12-11 14:39:24.402,0.153141,4.28555,9.00658,0.180276,0.106822,0.288244,0
2024-12-11 14:39:24.405,0.177069,4.33101,9.1023,0.192493,0.103768,0.295574,0
2024-12-11 14:39:24.407,0.193819,4.36212,9.18365,0.204099,0.100713,0.302293,0
2024-12-11 14:39:24.409,0.224925,4.38604,9.25065,0.214484,0.101324,0.309623,0
2024-12-11 14:39:24.412,0.251246,4.40758,9.3012,0.226701,0.103768,0.316343,0
2024-12-11 14:39:24.414,0.270389,4.41954,9.35145,0.24075,0.109265,0.32184,0
2024-12-11 14:39:24.416,0.270389,4.43629,9.40648,0.24808,0.11293,0.326727,0
2024-12-11 14:39:24.419,0.260818,4.44108,9.42323,0.259686,0.120871,0.332835,0
2024-12-11 14:39:24.422,0.260818,4.45783,9.43759,0.276179,0.135532,0.347496,0
2024-12-11 14:39:24.423,0.258425,4.50329,9.47348,0.276179,0.135532,0.347496,0
2024-12-11 14:39:24.426,0.253639,4.51286,9.49741,0.276179,0.135532,0.347496,0
2024-12-11 14:39:24.429,0.275175,4.52004,9.5022,0.289618,0.155079,0.365821,0
2024-12-11 14:39:24.430,0.304188,4.54397,9.52134,0.289618,0.155079,0.365821,0
2024-12-11 14:39:24.433,0.316152,4.5679,9.5357,0.292061,0.159966,0.370708,0
2024-12-11 14:39:24.435,0.313759,4.57986,9.54766,0.290229,0.165463,0.373151,0
2024-12-11 14:39:24.438,0.330509,4.58704,9.57638,0.288396,0.169128,0.375595,0
2024-12-11 14:39:24.440,0.352044,4.60618,9.61705,0.287785,0.173404,0.377427,0
2024-12-11 14:39:24.443,0.359223,4.62293,9.65773,0.282899,0.187454,0.378038,0
2024-12-11 14:39:24.446,0.375972,4.64925,9.68645,0.282899,0.187454,0.378038,0
2024-12-11 14:39:24.447,0.392722,4.666,9.71755,0.280455,0.194173,0.376816,0
2024-12-11 14:39:24.449,0.397508,4.67318,9.77977,0.278012,0.199671,0.378038,0
2024-12-11 14:39:24.452,0.3999,4.69233,9.85185,0.275568,0.207001,0.374373,0
2024-12-11 14:39:24.454,0.402293,4.70907,9.92363,0.273125,0.210666,0.37254,0
2024-12-11 14:39:24.457,0.402293,4.72343,9.99781,0.272514,0.217996,0.370097,0
2024-12-11 14:39:24.460,0.397508,4.73061,10.0792,0.272514,0.224105,0.363989,0
2024-12-11 14:39:24.462,0.383151,4.7354,10.1605,0.272514,0.224105,0.363989,0
2024-12-11 14:39:24.464,0.378365,4.74257,10.2251,0.272514,0.224105,0.363989,0
2024-12-11 14:39:24.468,0.385544,4.72582,10.3615,0.273125,0.226548,0.356658,0
2024-12-11 14:39:24.468,0.385544,4.72582,10.3615,0.273125,0.226548,0.356658,0
2024-12-11 14:39:24.471,0.383151,4.733,10.4384,0.274347,0.225326,0.354215,0
2024-12-11 14:39:24.473,0.332901,4.74975,10.5126,0.273125,0.224105,0.351161,0
2024-12-11 14:39:24.475,0.287438,4.75454,10.5628,0.275568,0.225326,0.35055,0
2024-12-11 14:39:24.478,0.287438,4.75215,10.5891,0.278623,0.225937,0.351161,0
2024-12-11 14:39:24.480,0.289831,4.74497,10.6226,0.277401,0.226548,0.352383,0
2024-12-11 14:39:24.483,0.285045,4.74497,10.649,0.273736,0.222272,0.357269,0
2024-12-11 14:39:24.485,0.272782,4.73779,10.6872,0.273736,0.222272,0.357269,0
2024-12-11 14:39:24.488,0.272782,4.71865,10.7423,0.267017,0.219829,0.360934,0
2024-12-11 14:39:24.489,0.304188,4.70668,10.7877,0.267017,0.219829,0.360934,0
2024-12-11 14:39:24.494,0.402293,4.65643,10.9098,0.259076,0.216164,0.363989,0
2024-12-11 14:39:24.494,0.402293,4.65643,10.9098,0.259076,0.216164,0.363989,0
2024-12-11 14:39:24.496,0.442971,4.62772,10.9866,0.253578,0.213109,0.362156,0
2024-12-11 14:39:24.499,0.471685,4.57508,11.0536,0.249913,0.212498,0.362767,0
2024-12-11 14:39:24.501,0.478864,4.55115,11.1278,0.245026,0.211888,0.362767,0
2024-12-11 14:39:24.503,0.488435,4.53201,11.214,0.243804,0.216164,0.362767,0
2024-12-11 14:39:24.506,0.505185,4.50329,11.3169,0.240139,0.219218,0.362767,0
2024-12-11 14:39:24.509,0.54347,4.46979,11.4413,0.245026,0.232046,0.366432,0
2024-12-11 14:39:24.512,0.588933,4.43869,11.5828,0.252967,0.243652,0.369486,0
2024-12-11 14:39:24.513,0.62004,4.41954,11.6952,0.252967,0.243652,0.369486,0
2024-12-11 14:39:24.515,0.655932,4.40997,11.8053,0.259686,0.255258,0.369486,0
2024-12-11 14:39:24.518,0.691825,4.38365,11.9369,0.272514,0.269918,0.37193,0
2024-12-11 14:39:24.520,0.720539,4.35733,12.0613,0.289007,0.288244,0.375595,0
2024-12-11 14:39:24.522,0.74686,4.33579,12.1789,0.310387,0.30718,0.378649,0
2024-12-11 14:39:24.525,0.761217,4.29751,12.2818,0.329934,0.329781,0.384147,0
2024-12-11 14:39:24.527,0.761217,4.27837,12.3607,0.354368,0.353604,0.389033,0
2024-12-11 14:39:24.529,0.754038,4.27597,12.411,0.380023,0.377427,0.396364,0
2024-12-11 14:39:24.532,0.739681,4.2664,12.4421,0.408733,0.403694,0.404305,0
2024-12-11 14:39:24.534,0.725324,4.25444,12.466,0.435,0.431793,0.411024,0
2024-12-11 14:39:24.542,0.553041,4.30708,12.4301,0.562056,0.550297,0.464778,0
2024-12-11 14:39:24.542,0.553041,4.30708,12.4301,0.562056,0.550297,0.464778,0
2024-12-11 14:39:24.544,0.380758,4.36451,12.3847,0.562056,0.550297,0.464778,0
2024-12-11 14:39:24.545,0.380758,4.36451,12.3847,0.592598,0.582061,0.483715,0
2024-12-11 14:39:24.547,0.160319,4.47219,12.3129,0.621308,0.616269,0.506927,0
2024-12-11 14:39:24.549,-0.100499,4.6325,12.2076,0.621308,0.616269,0.506927,0
2024-12-11 14:39:24.551,-0.361615,4.81227,12.0589,0.649407,0.648643,0.534415,0
2024-12-11 14:39:24.554,-0.610469,5.00369,11.8747,0.671398,0.681629,0.558849,0
2024-12-11 14:39:24.555,-0.881157,5.20708,11.6713,0.693388,0.712172,0.584504,0
2024-12-11 14:39:24.558,-1.1683,5.42752,11.4317,0.707437,0.734162,0.612603,0
2024-12-11 14:39:24.561,-1.4004,5.64048,11.1541,0.708659,0.753709,0.665747,0
2024-12-11 14:39:24.563,-1.54188,5.81037,10.8523,0.708659,0.753709,0.665747,0
2024-12-11 14:39:24.565,-1.61845,5.92792,10.5365,0.69461,0.744546,0.685905,0
2024-12-11 14:39:24.567,-1.66391,6.0356,10.2036,0.672008,0.721334,0.701176,0
2024-12-11 14:39:24.569,-1.64955,6.11217,9.88296,0.638412,0.682851,0.711561,0
2024-12-11 14:39:24.572,-1.55862,6.16481,9.59313,0.59382,0.626042,0.714004,0
2024-12-11 14:39:24.574,-1.39801,6.21027,9.32752,0.535789,0.549686,0.706674,0
2024-12-11 14:39:24.576,-1.17308,6.20788,9.08315,0.467985,0.453783,0.693235,0
2024-12-11 14:39:24.579,-0.917049,6.1672,8.86541,0.385521,0.335279,0.675521,0
2024-12-11 14:39:24.581,-0.62004,6.09302,8.69283,0.292672,0.196006,0.648643,0
2024-12-11 14:39:24.585,-0.270389,5.97817,8.61865,0.186385,0.0396287,0.616269,0
2024-12-11 14:39:24.588,0.536291,5.6333,8.79841,-0.0573433,-0.303667,0.531361,0
2024-12-11 14:39:24.588,0.536291,5.6333,8.79841,-0.0573433,-0.303667,0.531361,0
2024-12-11 14:39:24.591,0.885943,5.38924,9.07119,-0.182567,-0.47165,0.481271,0
2024-12-11 14:39:24.594,1.22333,5.12333,9.45195,-0.304736,-0.633525,0.425073,0
2024-12-11 14:39:24.595,1.61366,4.91755,9.94517,-0.425073,-0.784404,0.367043,0
2024-12-11 14:39:24.598,1.97767,4.71865,10.5054,-0.531972,-0.916958,0.308401,0
2024-12-11 14:39:24.602,2.65514,4.24487,11.8149,-0.706063,-1.13381,0.183178,0
2024-12-11 14:39:24.603,2.65514,4.24487,11.8149,-0.706063,-1.13381,0.183178,0
2024-12-11 14:39:24.605,2.94945,3.98375,12.5737,-0.770202,-1.21627,0.117817,0
2024-12-11 14:39:24.607,3.20339,3.699,13.395,-0.817848,-1.27491,0.0524565,0
2024-12-11 14:39:24.609,3.46421,3.38046,14.2041,-0.849001,-1.31157,-0.013515,0
2024-12-11 14:39:24.612,3.93829,2.9662,14.8385,-0.863051,-1.33905,-0.0819299,0
2024-12-11 14:39:24.614,4.22572,2.56899,15.5019,-0.864273,-1.35555,-0.152788,0
2024-12-11 14:39:24.616,4.05793,2.27677,16.2894,-0.847169,-1.34638,-0.218149,0
2024-12-11 14:39:24.621,3.48335,1.80987,17.5247,-0.750044,-1.26942,-0.310998,0
2024-12-11 14:39:24.622,3.48335,1.80987,17.5247,-0.750044,-1.26942,-0.310998,0
2024-12-11 14:39:24.625,3.27278,1.5993,17.9868,-0.58878,-1.0941,-0.368417,0
2024-12-11 14:39:24.626,3.07867,1.39801,18.3341,-0.58878,-1.0941,-0.368417,0
2024-12-11 14:39:24.628,2.8011,1.25204,18.5495,-0.490434,-0.973767,-0.38491,1
2024-12-11 14:39:24.631,2.45623,1.1348,18.6428,-0.380481,-0.837548,-0.39224,0
2024-12-11 14:39:24.634,2.06381,1.00798,18.5997,-0.268696,-0.690945,-0.38491,0
2024-12-11 14:39:24.635,1.6663,0.869193,18.449,-0.156911,-0.539454,-0.364752,0
2024-12-11 14:39:24.639,1.29272,0.708575,18.1687,0.0623828,-0.24808,-0.285953,0
2024-12-11 14:39:24.640,0.962513,0.529113,17.7859,0.0623828,-0.24808,-0.285953,0
2024-12-11 14:39:24.643,0.658325,0.361615,17.3525,0.162562,-0.114305,-0.229755,0
2024-12-11 14:39:24.646,0.337687,0.239282,16.8544,0.33421,0.120871,-0.0929251,0
2024-12-11 14:39:24.647,0.0239282,0.162712,16.2775,0.33421,0.120871,-0.0929251,0
2024-12-11 14:39:24.649,-0.22014,0.119641,15.6526,0.404457,0.226548,-0.0184018,0
2024-12-11 14:39:24.652,-0.397508,0.114855,15.0111,0.460655,0.319397,0.0567324,0
2024-12-11 14:39:24.655,-0.56022,0.138784,14.3743,0.534568,0.467222,0.207612,0
2024-12-11 14:39:24.657,-0.682254,0.212961,13.7276,0.534568,0.467222,0.207612,0
2024-12-11 14:39:24.659,-0.761217,0.316152,13.1004,0.552282,0.525252,0.274194,0
2024-12-11 14:39:24.661,-0.809073,0.445364,12.4875,0.559002,0.575953,0.335279,0
2024-12-11 14:39:24.664,-0.825823,0.596112,11.8843,0.552893,0.616879,0.391477,0
2024-12-11 14:39:24.666,-0.837787,0.780359,11.3312,0.5364,0.648643,0.437901,0
2024-12-11 14:39:24.668,-0.816252,0.969691,10.8356,0.511356,0.672466,0.479439,0
2024-12-11 14:39:24.671,-0.742074,1.11565,10.3857,0.480202,0.690792,0.515479,0
2024-12-11 14:39:24.674,-0.665504,1.25683,9.99303,0.39957,0.705452,0.561903,0
2024-12-11 14:39:24.676,-0.622433,1.42223,9.65534,0.39957,0.705452,0.561903,0
2024-12-11 14:39:24.678,-0.588933,1.57298,9.36581,0.350703,0.702398,0.577785,0
2024-12-11 14:39:24.680,-0.54347,1.69502,9.09512,0.298781,0.692624,0.58817,0
2024-12-11 14:39:24.682,-0.486042,1.81226,8.86302,0.245026,0.678575,0.5955,0
2024-12-11 14:39:24.685,-0.402293,1.92473,8.68086,0.193104,0.657806,0.596721,0
2024-12-11 14:39:24.687,-0.313759,2.01835,8.51336,0.138128,0.632761,0.593056,0
2024-12-11 14:39:24.689,-0.215354,2.09252,8.37458,0.0837624,0.603441,0.58817,0
2024-12-11 14:39:24.692,-0.100499,2.16431,8.28126,0.0281753,0.569233,0.575953,0
2024-12-11 14:39:24.694,0.00478565,2.21456,8.22622,-0.0268009,0.531972,0.560071,0
2024-12-11 14:39:24.697,0.129212,2.24088,8.1999,-0.0775012,0.491656,0.539913,0
2024-12-11 14:39:24.699,0.256032,2.24806,8.21426,-0.131256,0.449507,0.514868,0
2024-12-11 14:39:24.701,0.368794,2.23849,8.26212,-0.178902,0.402472,0.486769,0
2024-12-11 14:39:24.705,0.469292,2.23609,8.33151,-0.261977,0.313899,0.419576,0
2024-12-11 14:39:24.706,0.548256,2.23849,8.41765,-0.261977,0.313899,0.419576,0
2024-12-11 14:39:24.708,0.60329,2.22891,8.51336,-0.29985,0.274194,0.381092,0
2024-12-11 14:39:24.712,0.632004,2.2002,8.62343,-0.330392,0.236932,0.339555,0
2024-12-11 14:39:24.713,0.622433,2.16909,8.74098,-0.356048,0.199671,0.301071,0
2024-12-11 14:39:24.715,0.586541,2.14277,8.86541,-0.376206,0.167907,0.260145,0
2024-12-11 14:39:24.718,0.538684,2.11406,9.01376,-0.391477,0.141029,0.218607,0
2024-12-11 14:39:24.720,0.471685,2.05185,9.16212,-0.399418,0.114763,0.180734,0
2024-12-11 14:39:24.722,0.3999,1.98006,9.29163,-0.403694,0.0915507,0.143473,0
2024-12-11 14:39:24.725,0.313759,1.9008,9.4017,-0.399418,0.0726145,0.110487,0
2024-12-11 14:39:24.727,0.20339,1.80748,9.48784,-0.396364,0.0561216,0.082388,0
2024-12-11 14:39:24.730,0.100499,1.70937,9.55005,-0.38659,0.0420721,0.0555107,0
2024-12-11 14:39:24.732,0.0239282,1.6017,9.59073,-0.376206,0.0329094,0.0329094,0
2024-12-11 14:39:24.734,-0.0598206,1.51077,9.62423,-0.363378,0.0268009,0.0151948,0
2024-12-11 14:39:24.737,-0.174676,1.41506,9.62663,-0.346885,0.0261901,0.00114534,0
2024-12-11 14:39:24.739,-0.299402,1.30708,9.59791,-0.331614,0.0274118,-0.0104608,0
2024-12-11 14:39:24.741,-0.41665,1.20419,9.57877,-0.316343,0.0280226,-0.0177909,0
2024-12-11 14:39:24.744,-0.514756,1.11087,9.56441,-0.298628,0.030466,-0.0184018,0
2024-12-11 14:39:24.746,-0.62004,1.02951,9.54766,-0.280913,0.0316877,-0.0159584,0
2024-12-11 14:39:24.749,-0.718146,0.972084,9.5333,-0.266253,0.030466,-0.013515,0
2024-12-11 14:39:24.753,-0.897907,0.895514,9.53091,-0.231435,0.0359636,0.00481042,0
2024-12-11 14:39:24.753,-0.897907,0.895514,9.53091,-0.231435,0.0359636,0.00481042,0
2024-12-11 14:39:24.756,-0.981655,0.873978,9.51655,-0.212498,0.038407,0.0151948,0
2024-12-11 14:39:24.759,-1.07976,0.859622,9.47348,-0.196006,0.0445155,0.0298552,0
2024-12-11 14:39:24.760,-1.17787,0.833001,9.41606,-0.175237,0.0524565,0.0481806,0
2024-12-11 14:39:24.763,-1.25683,0.833001,9.37299,-0.155079,0.0634518,0.066506,0
2024-12-11 14:39:24.765,-1.31665,0.835394,9.3347,-0.137364,0.0720036,0.0872748,0
2024-12-11 14:39:24.767,-1.35015,0.830609,9.29402,-0.115374,0.0848314,0.109876,0
2024-12-11 14:39:24.771,-1.36211,0.830609,9.24587,-0.115374,0.0848314,0.109876,0
2024-12-11 14:39:24.772,-1.36211,0.835394,9.18605,-0.0762796,0.106211,0.156301,0
2024-12-11 14:39:24.775,-1.34776,0.857229,9.11665,-0.0573433,0.11965,0.178902,0
2024-12-11 14:39:24.777,-1.31904,0.888335,9.05205,-0.0408504,0.135532,0.201503,0
2024-12-11 14:39:24.779,-1.25683,0.9003,8.95873,-0.0261901,0.14897,0.22044,0
2024-12-11 14:39:24.782,-1.1994,0.914656,8.86302,7.63559e-05,0.176459,0.262588,0
2024-12-11 14:39:24.784,-1.15394,0.955334,8.78405,7.63559e-05,0.176459,0.262588,0
2024-12-11 14:39:24.786,-1.09651,0.998405,8.7027,0.00984991,0.188675,0.277859,0
2024-12-11 14:39:24.788,-1.05344,1.0319,8.62583,0.021456,0.202725,0.291298,0
2024-12-11 14:39:24.792,-1.02233,1.07498,8.54208,0.0306187,0.211277,0.304736,0
2024-12-11 14:39:24.793,-0.981655,1.12522,8.46072,0.037338,0.22105,0.315121,0
2024-12-11 14:39:24.796,-0.945763,1.15872,8.39612,0.041614,0.230213,0.325505,0
2024-12-11 14:39:24.799,-0.912264,1.18026,8.32912,0.0465007,0.238765,0.3365,0
2024-12-11 14:39:24.800,-0.871586,1.21376,8.2669,0.0507767,0.243041,0.344442,0
2024-12-11 14:39:24.804,-0.845265,1.24247,8.21665,0.0550526,0.252814,0.356048,0
2024-12-11 14:39:24.806,-0.813859,1.27597,8.15444,0.0556635,0.252204,0.360934,0
2024-12-11 14:39:24.808,-0.751645,1.30229,8.09193,0.0538309,0.253425,0.363378,0
2024-12-11 14:39:24.810,-0.699003,1.32861,8.0345,0.0538309,0.253425,0.363378,0
2024-12-11 14:39:24.812,-0.665504,1.37169,7.97947,0.0538309,0.252204,0.36521,0
2024-12-11 14:39:24.815,-0.62004,1.40279,7.94597,0.0483333,0.240597,0.362767,0
2024-12-11 14:39:24.819,-0.555434,1.46052,7.92204,0.0440574,0.232656,0.360324,0
2024-12-11 14:39:24.819,-0.555434,1.46052,7.92204,0.0440574,0.232656,0.360324,0
2024-12-11 14:39:24.821,-0.519542,1.48445,7.90529,0.0422248,0.223494,0.357269,0
2024-12-11 14:39:24.826,-0.493221,1.5347,7.90768,0.0324513,0.208833,0.347496,0
2024-12-11 14:39:24.827,-0.490828,1.58016,7.93639,0.029397,0.199671,0.341998,0
2024-12-11 14:39:24.828,-0.495613,1.6017,7.95554,0.029397,0.199671,0.341998,0
2024-12-11 14:39:24.831,-0.495613,1.63041,7.96989,0.0287862,0.189897,0.337722,0
2024-12-11 14:39:24.833,-0.50997,1.67348,7.99143,0.0257319,0.180124,0.331003,0
2024-12-11 14:39:24.836,-0.519542,1.67827,7.99382,0.0257319,0.180124,0.331003,0
2024-12-11 14:39:24.841,-0.521934,1.67587,7.99382,0.0165692,0.14897,0.320618,0
2024-12-11 14:39:24.841,-0.529113,1.69023,8.01536,0.0165692,0.14897,0.320618,0
2024-12-11 14:39:24.844,-0.529113,1.69262,8.05125,0.0165692,0.14897,0.320618,0
2024-12-11 14:39:24.845,-0.536291,1.70219,8.09671,0.0153475,0.140419,0.318786,0
2024-12-11 14:39:24.848,-0.56022,1.72134,8.12064,0.0159584,0.126369,0.321229,0
2024-12-11 14:39:24.850,-0.56022,1.74287,8.135,0.0159584,0.126369,0.321229,0
2024-12-11 14:39:24.852,-0.54347,1.76201,8.16162,0.0153475,0.11965,0.321229,0
2024-12-11 14:39:24.854,-0.54347,1.77637,8.17119,0.0184018,0.115374,0.32184,0
2024-12-11 14:39:24.857,-0.557827,1.79312,8.18076,0.021456,0.108044,0.322451,0
2024-12-11 14:39:24.859,-0.574577,1.81705,8.19273,0.0251211,0.103157,0.325505,0
2024-12-11 14:39:24.861,-0.586541,1.84098,8.18794,0.0257319,0.0952158,0.326727,0
2024-12-11 14:39:24.866,-0.581755,1.88644,8.1688,0.0269536,0.082388,0.329781,0
2024-12-11 14:39:24.866,-0.581755,1.88644,8.1688,0.0269536,0.082388,0.329781,0
2024-12-11 14:39:24.868,-0.553041,1.89601,8.13261,0.029397,0.0726145,0.331003,0
2024-12-11 14:39:24.871,-0.533899,1.90558,8.11346,0.0263428,0.0610084,0.32917,0
2024-12-11 14:39:24.873,-0.519542,1.92473,8.09671,0.0251211,0.0487914,0.329781,0
2024-12-11 14:39:24.875,-0.498006,1.96062,8.05604,0.0196235,0.0371853,0.328559,0
2024-12-11 14:39:24.878,-0.481256,1.98485,7.99861,0.0184018,0.0268009,0.326727,0
2024-12-11 14:39:24.881,-0.45015,1.99681,7.93161,-0.00358873,-0.000687203,0.325505,0
2024-12-11 14:39:24.884,-0.390329,2.00877,7.88375,-0.0188599,-0.0141258,0.318786,0
2024-12-11 14:39:24.886,-0.337687,2.03031,7.867,-0.0335202,-0.0275645,0.313288,0
2024-12-11 14:39:24.887,-0.30658,2.05185,7.85504,-0.0335202,-0.0275645,0.313288,0
2024-12-11 14:39:24.890,-0.270389,2.0662,7.8359,-0.0481806,-0.0391706,0.309012,0
2024-12-11 14:39:24.894,-0.191426,2.12602,7.8024,-0.0848314,-0.0544418,0.29313,0
2024-12-11 14:39:24.894,-0.191426,2.12602,7.8024,-0.0848314,-0.0544418,0.29313,0
2024-12-11 14:39:24.898,-0.153141,2.13799,7.79761,-0.1056,-0.0587177,0.286411,0
2024-12-11 14:39:24.899,-0.141177,2.14756,7.81436,-0.125758,-0.0611611,0.279692,0
2024-12-11 14:39:24.901,-0.155533,2.15952,7.85504,-0.146527,-0.0623828,0.273583,0
2024-12-11 14:39:24.904,-0.174676,2.17627,7.87179,-0.169128,-0.0629936,0.267475,0
2024-12-11 14:39:24.906,-0.167498,2.19302,7.88136,-0.19173,-0.0642153,0.261977,0
2024-12-11 14:39:24.908,-0.141177,2.19063,7.89811,-0.215553,-0.0623828,0.25709,0
2024-12-11 14:39:24.911,-0.122034,2.16431,7.92443,-0.238154,-0.0629936,0.254036,0
2024-12-11 14:39:24.913,-0.114855,2.13799,7.96989,-0.264421,-0.0623828,0.250371,0
2024-12-11 14:39:24.917,-0.105284,2.10927,8.02493,-0.312067,-0.0611611,0.245484,0
2024-12-11 14:39:24.918,-0.100499,2.08295,8.07996,-0.312067,-0.0611611,0.245484,0
2024-12-11 14:39:24.921,-0.0837488,2.05663,8.14726,-0.359713,-0.0629936,0.241819,0
2024-12-11 14:39:24.924,-0.0382852,2.04467,8.25733,-0.359713,-0.0629936,0.241819,0
2024-12-11 14:39:24.925,0.00239282,2.04467,8.37937,-0.359713,-0.0629936,0.241819,0
2024-12-11 14:39:24.927,0.0334995,2.03031,8.49901,-0.399418,-0.0684913,0.241819,0
2024-12-11 14:39:24.931,0.0693919,2.00638,8.63061,-0.417132,-0.0739889,0.239987,0
2024-12-11 14:39:24.932,0.119641,1.99202,8.76252,-0.433014,-0.0788757,0.241819,0
2024-12-11 14:39:24.935,0.172283,1.9657,8.88216,-0.44462,-0.0868167,0.243041,0
2024-12-11 14:39:24.937,0.222533,1.94387,9.01616,-0.452561,-0.093536,0.243041,0
2024-12-11 14:39:24.939,0.263211,1.92712,9.17408,-0.460502,-0.101477,0.241819,0
2024-12-11 14:39:24.941,0.297009,1.90798,9.31316,-0.466611,-0.11064,0.24243,0
2024-12-11 14:39:24.945,0.332901,1.88883,9.42563,-0.470887,-0.127133,0.237543,0
2024-12-11 14:39:24.946,0.373579,1.87926,9.5357,-0.470887,-0.127133,0.237543,0
2024-12-11 14:39:24.949,0.414257,1.88166,9.65295,-0.471498,-0.13996,0.236322,0
2024-12-11 14:39:24.951,0.447757,1.87926,9.75823,-0.468443,-0.148512,0.2351,0
2024-12-11 14:39:24.953,0.462114,1.87448,9.84228,-0.462335,-0.155842,0.233267,0
2024-12-11 14:39:24.956,0.4669,1.85773,9.92842,-0.455616,-0.163783,0.232656,0
2024-12-11 14:39:24.959,0.483649,1.85533,10.0146,-0.449507,-0.174168,0.234489,0
2024-12-11 14:39:24.960,0.498006,1.87448,10.0959,-0.441566,-0.182109,0.234489,0
2024-12-11 14:39:24.963,0.495613,1.87687,10.1749,-0.430571,-0.188217,0.236932,0
2024-12-11 14:39:24.966,0.481256,1.87448,10.2395,-0.40858,-0.20471,0.24243,0
2024-12-11 14:39:24.968,0.486042,1.88405,10.2969,-0.396364,-0.212651,0.244263,0
2024-12-11 14:39:24.970,0.505185,1.89362,10.3615,-0.396364,-0.212651,0.244263,0
2024-12-11 14:39:24.972,0.524327,1.9008,10.4216,-0.382925,-0.217538,0.248538,0
2024-12-11 14:39:24.974,0.548256,1.91516,10.4575,-0.368875,-0.223036,0.253425,0
2024-12-11 14:39:24.977,0.567398,1.93908,10.4839,-0.355437,-0.228533,0.25648,0
2024-12-11 14:39:24.980,0.581755,1.97049,10.515,-0.324894,-0.236474,0.26381,0
2024-12-11 14:39:24.981,0.615255,1.99442,10.5389,-0.324894,-0.236474,0.26381,0
2024-12-11 14:39:24.985,0.679861,2.02313,10.5461,-0.298628,-0.243194,0.269918,0
2024-12-11 14:39:24.986,0.742074,2.05902,10.5676,-0.298628,-0.243194,0.269918,0
2024-12-11 14:39:24.989,0.768395,2.07338,10.5867,-0.286411,-0.243804,0.269918,0
2024-12-11 14:39:24.992,0.792323,2.08774,10.6083,-0.261366,-0.251135,0.271751,0
2024-12-11 14:39:24.994,0.82343,2.12363,10.637,-0.24976,-0.2548,0.271751,0
2024-12-11 14:39:24.997,0.859622,2.15952,10.6657,-0.24976,-0.2548,0.271751,0
2024-12-11 14:39:24.998,0.895514,2.19541,10.6825,-0.236322,-0.2548,0.27114,0
2024-12-11 14:39:25.001,0.929013,2.22891,10.6992,-0.210666,-0.24808,0.266253,0
2024-12-11 14:39:25.004,0.974477,2.27677,10.7183,-0.210666,-0.24808,0.266253,0
2024-12-11 14:39:25.007,1.02951,2.36531,10.7471,-0.186232,-0.237696,0.258923,0
2024-12-11 14:39:25.008,1.02951,2.36531,10.7471,-0.186232,-0.237696,0.258923,0
2024-12-11 14:39:25.010,1.06062,2.39163,10.7566,-0.172793,-0.232198,0.255258,0
2024-12-11 14:39:25.012,1.08694,2.42273,10.759,-0.161798,-0.221814,0.24976,0
2024-12-11 14:39:25.015,1.11805,2.45145,10.7638,-0.150803,-0.213873,0.243652,0
2024-12-11 14:39:25.017,1.14676,2.48255,10.7758,-0.137975,-0.201656,0.236932,0
2024-12-11 14:39:25.019,1.14676,2.5331,10.7758,-0.137975,-0.201656,0.236932,0
2024-12-11 14:39:25.021,1.15155,2.55703,10.7614,-0.115985,-0.178444,0.227159,0
2024-12-11 14:39:25.025,1.17308,2.58335,10.7255,-0.0927724,-0.147291,0.216774,0
2024-12-11 14:39:25.027,1.18265,2.62164,10.6992,-0.0805555,-0.133852,0.210055,0
2024-12-11 14:39:25.029,1.18026,2.65035,10.6801,-0.0805555,-0.133852,0.210055,0
2024-12-11 14:39:25.031,1.18026,2.68146,10.6561,-0.0695602,-0.11797,0.20639,0
2024-12-11 14:39:25.034,1.19462,2.71974,10.6537,-0.0500131,-0.0904818,0.194784,0
2024-12-11 14:39:25.036,1.21137,2.75563,10.6274,-0.0500131,-0.0904818,0.194784,0
2024-12-11 14:39:25.038,1.22333,2.78435,10.5796,-0.0414613,-0.0800973,0.188675,0
2024-12-11 14:39:25.040,1.22812,2.81545,10.5365,-0.0298552,-0.0660479,0.181345,0
2024-12-11 14:39:25.044,1.23051,2.84178,10.4958,-0.0200816,-0.0538309,0.174015,0
2024-12-11 14:39:25.045,1.23051,2.8657,10.4623,-0.0115297,-0.0434465,0.167296,0
2024-12-11 14:39:25.047,1.23769,2.9016,10.4288,-0.00481042,-0.0361163,0.159355,0
2024-12-11 14:39:25.051,1.2329,2.93988,10.3759,0.00923906,-0.0251211,0.145916,0
2024-12-11 14:39:25.052,1.21615,2.94467,10.328,0.00923906,-0.0251211,0.145916,0
2024-12-11 14:39:25.054,1.23529,2.95185,10.2826,0.0165692,-0.0196235,0.136753,0
2024-12-11 14:39:25.057,1.2664,2.98295,10.2251,0.0220669,-0.0202343,0.129423,0
2024-12-11 14:39:25.059,1.28076,3.00927,10.1797,0.0251211,-0.0190126,0.117817,0
2024-12-11 14:39:25.063,1.31186,3.02842,10.1414,0.0287862,-0.021456,0.104379,0
2024-12-11 14:39:25.064,1.34776,3.04995,10.0935,0.029397,-0.0251211,0.0921616,0
2024-12-11 14:39:25.066,1.3669,3.05474,10.0409,0.0318404,-0.029397,0.0787229,0
2024-12-11 14:39:25.070,1.38604,3.06192,10.0026,0.0306187,-0.0397814,0.0457372,0
2024-12-11 14:39:25.071,1.41027,3.08106,9.96192,0.0306187,-0.0397814,0.0457372,0
2024-12-11 14:39:25.073,1.44138,3.10529,9.91406,0.029397,-0.0428357,0.0286335,0
2024-12-11 14:39:25.076,1.44855,3.10768,9.9021,0.0257319,-0.0477224,0.00725381,0
2024-12-11 14:39:25.078,1.44616,3.09811,9.89253,0.0226777,-0.0526092,-0.0129041,0
2024-12-11 14:39:25.080,1.43659,3.08854,9.88296,0.0202343,-0.0568851,-0.0355055,0
2024-12-11 14:39:25.083,1.40788,3.0667,9.87338,0.0177909,-0.0611611,-0.0568851,0
2024-12-11 14:39:25.085,1.37408,3.06192,9.86621,0.0153475,-0.065437,-0.0770431,0
2024-12-11 14:39:25.087,1.34058,3.04277,9.8686,0.0129041,-0.0721563,-0.0965902,0
2024-12-11 14:39:25.090,1.31665,3.00927,9.85424,0.00862822,-0.0782648,-0.116748,0
2024-12-11 14:39:25.092,1.27119,2.97577,9.86381,0.00984991,-0.0843733,-0.134463,0
2024-12-11 14:39:25.094,1.22333,2.9351,9.9021,0.00679568,-0.0917034,-0.152788,0
2024-12-11 14:39:25.097,1.18744,2.8992,9.92603,0.00496313,-0.0996445,-0.171114,0
2024-12-11 14:39:25.099,1.12762,2.8681,9.94038,0.00313059,-0.105753,-0.187606,0
2024-12-11 14:39:25.103,1.0678,2.83699,9.95235,0.00251974,-0.113694,-0.215705,0
2024-12-11 14:39:25.104,1.02473,2.80349,9.98106,0.00251974,-0.113694,-0.215705,0
2024-12-11 14:39:25.106,0.97687,2.77956,10.0289,0.00435229,-0.113083,-0.230366,0
2024-12-11 14:39:25.110,0.924228,2.75803,10.0744,0.00435229,-0.113083,-0.230366,0
2024-12-11 14:39:25.111,0.885943,2.73888,10.1103,0.0104608,-0.113083,-0.256632,0
2024-12-11 14:39:25.114,0.857229,2.72213,10.139,0.0232886,-0.106975,-0.276179,0
2024-12-11 14:39:25.116,0.799502,2.67428,10.1653,0.0232886,-0.106975,-0.276179,0
2024-12-11 14:39:25.118,0.737288,2.63839,10.1916,0.0312296,-0.10331,-0.284731,0
2024-12-11 14:39:25.120,0.691825,2.62642,10.2108,0.0385597,-0.0984228,-0.293894,0
2024-12-11 14:39:25.123,0.646361,2.59771,10.2156,0.0452791,-0.0929251,-0.298781,0
2024-12-11 14:39:25.125,0.593719,2.57617,10.2275,0.0544418,-0.0862058,-0.301835,0
2024-12-11 14:39:25.127,0.54347,2.5331,10.2323,0.0617719,-0.0782648,-0.307333,0
2024-12-11 14:39:25.130,0.481256,2.50887,10.2275,0.0691021,-0.0703238,-0.310387,0
2024-12-11 14:39:25.132,0.438186,2.50409,10.218,0.0794865,-0.0587177,-0.312219,0
2024-12-11 14:39:25.135,0.402293,2.47059,10.1916,0.0880384,-0.0477224,-0.311608,0
2024-12-11 14:39:25.137,0.364008,2.45623,10.1653,0.0984228,-0.0355055,-0.313441,0
2024-12-11 14:39:25.139,0.30658,2.45623,10.1414,0.106364,-0.0245102,-0.311608,0
2024-12-11 14:39:25.142,0.256032,2.46102,10.0935,0.116137,-0.0122933,-0.310998,0
2024-12-11 14:39:25.144,0.229711,2.45863,10.0385,0.122246,-0.0019089,-0.306722,0
2024-12-11 14:39:25.147,0.18664,2.45623,9.99063,0.133241,0.0213033,-0.300613,0
2024-12-11 14:39:25.150,0.155533,2.46102,9.93799,0.137517,0.030466,-0.296948,0
2024-12-11 14:39:25.151,0.150748,2.47298,9.86381,0.137517,0.030466,-0.296948,0
2024-12-11 14:39:25.153,0.143569,2.48973,9.78934,0.13935,0.0402396,-0.295726,0
2024-12-11 14:39:25.156,0.143569,2.50409,9.72473,0.140571,0.0530674,-0.29084,0
2024-12-11 14:39:25.160,0.102891,2.58574,9.62902,0.141793,0.0707819,-0.289618,0
2024-12-11 14:39:25.160,0.102891,2.58574,9.62902,0.141793,0.0707819,-0.289618,0
2024-12-11 14:39:25.163,0.0885344,2.61446,9.5692,0.142404,0.0811663,-0.289618,0
2024-12-11 14:39:25.167,0.124427,2.68385,9.45673,0.140571,0.0884965,-0.288396,0
2024-12-11 14:39:25.170,0.136391,2.72692,9.39931,0.135074,0.103768,-0.292672,0
2024-12-11 14:39:25.170,0.136391,2.72692,9.39931,0.135074,0.103768,-0.292672,0
2024-12-11 14:39:25.172,0.153141,2.76521,9.32513,0.128965,0.109265,-0.297559,0
2024-12-11 14:39:25.177,0.157926,2.81785,9.18844,0.119802,0.130034,-0.310998,0
2024-12-11 14:39:25.177,0.157926,2.81785,9.18844,0.119802,0.130034,-0.310998,0
2024-12-11 14:39:25.180,0.153141,2.83699,9.10708,0.0996445,0.137975,-0.325658,0
2024-12-11 14:39:25.182,0.141177,2.84656,9.03291,0.0996445,0.137975,-0.325658,0
2024-12-11 14:39:25.186,0.153141,2.88006,8.91566,0.0800973,0.139808,-0.342151,0
2024-12-11 14:39:25.189,0.150748,2.88485,8.86541,0.0666587,0.13431,-0.350703,0
2024-12-11 14:39:25.189,0.150748,2.88485,8.86541,0.0666587,0.13431,-0.350703,0
2024-12-11 14:39:25.192,0.136391,2.9016,8.81755,0.0513875,0.130645,-0.361698,0
2024-12-11 14:39:25.193,0.112463,2.92313,8.78166,0.0391706,0.124536,-0.370861,0
2024-12-11 14:39:25.196,0.0885344,2.94227,8.74577,0.021456,0.11965,-0.379413,0
2024-12-11 14:39:25.198,0.0646062,2.95424,8.70509,0.00496313,0.115374,-0.387354,0
2024-12-11 14:39:25.200,0.0550349,2.94945,8.67368,-0.0127514,0.111709,-0.394684,0
2024-12-11 14:39:25.203,0.0598206,2.92313,8.63779,-0.030466,0.107433,-0.402625,0
2024-12-11 14:39:25.207,0.00957129,2.89681,8.68086,-0.0683385,0.0964375,-0.420339,0
2024-12-11 14:39:25.207,0.00957129,2.89681,8.68086,-0.0683385,0.0964375,-0.420339,0
2024-12-11 14:39:25.210,-0.0215354,2.87767,8.74577,-0.0829989,0.0897182,-0.42828,0
2024-12-11 14:39:25.213,-0.0502493,2.8657,8.82952,-0.114763,0.0695602,-0.437443,0
2024-12-11 14:39:25.215,-0.0693919,2.8657,8.90609,-0.114763,0.0695602,-0.437443,0
2024-12-11 14:39:25.217,-0.0789631,2.8657,8.97548,-0.114763,0.0695602,-0.437443,0
2024-12-11 14:39:25.219,-0.0693919,2.8346,9.05683,-0.139808,0.0524565,-0.444162,0
2024-12-11 14:39:25.222,-0.0646062,2.78435,9.15255,-0.150192,0.0445155,-0.444773,0
2024-12-11 14:39:25.224,-0.0717847,2.74846,9.26052,-0.160576,0.0365745,-0.445384,0
2024-12-11 14:39:25.226,-0.0741775,2.70539,9.36341,-0.166685,0.0298552,-0.444162,0
2024-12-11 14:39:25.229,-0.066999,2.68624,9.45673,-0.171572,0.0261901,-0.441108,0
2024-12-11 14:39:25.233,-0.026321,2.66471,9.62423,-0.182567,0.0194708,-0.433167,0
2024-12-11 14:39:25.234,-0.0526421,2.68385,9.54288,-0.182567,0.0194708,-0.433167,0
2024-12-11 14:39:25.237,0.00957129,2.64796,9.71037,-0.186232,0.0158057,-0.427669,0
2024-12-11 14:39:25.238,0.040678,2.63121,9.80609,-0.189897,0.014584,-0.422172,0
2024-12-11 14:39:25.240,0.0622134,2.62164,9.89731,-0.19173,0.0127514,-0.414231,0
2024-12-11 14:39:25.243,0.0789631,2.62881,9.97388,-0.189286,0.0109189,-0.409344,0
2024-12-11 14:39:25.246,0.0981057,2.65035,10.0576,-0.191119,0.00847551,-0.395905,0
2024-12-11 14:39:25.248,0.12682,2.63839,10.1342,-0.191119,0.00847551,-0.395905,0
2024-12-11 14:39:25.255,0.184247,2.65035,10.3208,-0.191119,0.00847551,-0.395905,0
2024-12-11 14:39:25.257,0.248854,2.64317,10.3591,-0.17768,0.0096972,-0.367806,0
2024-12-11 14:39:25.257,0.248854,2.64317,10.3591,-0.17768,0.0096972,-0.367806,0
2024-12-11 14:39:25.262,0.304188,2.65514,10.4001,-0.168517,0.0164165,-0.354979,0
2024-12-11 14:39:25.264,0.364008,2.65514,10.4025,-0.164242,0.0188599,-0.348259,0
2024-12-11 14:39:25.264,0.364008,2.65514,10.4025,-0.164242,0.0188599,-0.348259,0
2024-12-11 14:39:25.265,0.364008,2.65514,10.4025,-0.16302,0.0206925,-0.342151,0
2024-12-11 14:39:25.267,0.41665,2.65992,10.3881,-0.16302,0.0206925,-0.342151,0
2024-12-11 14:39:25.270,0.45015,2.66949,10.3783,-0.159355,0.0286335,-0.332988,0
2024-12-11 14:39:25.272,0.469292,2.66949,10.3783,-0.156911,0.0322986,-0.328712,0
2024-12-11 14:39:25.274,0.474078,2.67667,10.3687,-0.156911,0.0322986,-0.328712,0
2024-12-11 14:39:25.276,0.498006,2.69581,10.3472,-0.154468,0.0341311,-0.32688,0
2024-12-11 14:39:25.279,0.519542,2.69581,10.3184,-0.153857,0.038407,-0.320771,0
2024-12-11 14:39:25.281,0.524327,2.68624,10.2969,-0.153857,0.038407,-0.320771,0
2024-12-11 14:39:25.285,0.548256,2.67906,10.261,-0.153857,0.0420721,-0.315274,0
2024-12-11 14:39:25.288,0.548256,2.6671,10.2562,-0.154468,0.0420721,-0.314663,0
2024-12-11 14:39:25.289,0.545863,2.6671,10.2562,-0.153857,0.0451263,-0.315274,0
2024-12-11 14:39:25.290,0.541077,2.65514,10.2323,-0.153857,0.0451263,-0.315274,0
2024-12-11 14:39:25.292,0.533899,2.65035,10.2227,-0.152635,0.0445155,-0.312219,0
2024-12-11 14:39:25.296,0.50997,2.65753,10.2251,-0.150803,0.0518457,-0.307943,0
2024-12-11 14:39:25.297,0.478864,2.66471,10.2156,-0.150803,0.0518457,-0.307943,0
2024-12-11 14:39:25.300,0.438186,2.64796,10.1964,-0.14897,0.0616192,-0.298781,0
2024-12-11 14:39:25.302,0.392722,2.62642,10.1653,-0.14897,0.0616192,-0.298781,0
2024-12-11 14:39:25.306,0.297009,2.58574,10.1318,-0.142251,0.0683385,-0.285953,0
2024-12-11 14:39:25.306,0.297009,2.58574,10.1318,-0.142251,0.0683385,-0.285953,0
2024-12-11 14:39:25.310,0.265603,2.57139,10.1127,-0.133088,0.0713928,-0.26946,0
2024-12-11 14:39:25.311,0.232104,2.56182,10.0863,-0.133088,0.0713928,-0.26946,0
2024-12-11 14:39:25.313,0.215354,2.54507,10.0768,-0.127591,0.0713928,-0.261519,0
2024-12-11 14:39:25.317,0.210568,2.53549,10.0816,-0.121482,0.0689494,-0.253578,0
2024-12-11 14:39:25.318,0.198604,2.53789,10.0935,-0.115374,0.0652843,-0.243804,0
2024-12-11 14:39:25.321,0.16989,2.52832,10.1198,-0.115374,0.0652843,-0.243804,0
2024-12-11 14:39:25.323,0.124427,2.51127,10.1462,-0.100713,0.0518457,-0.22609,0
2024-12-11 14:39:25.325,0.100499,2.51605,10.1653,-0.086664,0.0439046,-0.216316,0
2024-12-11 14:39:25.328,0.0741775,2.51366,10.1773,-0.0732253,0.0335202,-0.206543,0
2024-12-11 14:39:25.331,0.0550349,2.50409,10.1892,-0.0469589,0.0121406,-0.182109,0
2024-12-11 14:39:25.333,0.0334995,2.48973,10.1964,-0.0316877,-0.000687203,-0.171724,0
2024-12-11 14:39:25.335,0.0191426,2.48255,10.1964,-0.0316877,-0.000687203,-0.171724,0
2024-12-11 14:39:25.337,0.0119641,2.48016,10.194,-0.014584,-0.013515,-0.158897,0
2024-12-11 14:39:25.339,0.00717847,2.48734,10.1821,0.00313059,-0.0275645,-0.149123,0
2024-12-11 14:39:25.342,0.0143569,2.51605,10.1773,0.0184018,-0.0440574,-0.135074,0
2024-12-11 14:39:25.344,0.00957129,2.53789,10.1533,0.0361163,-0.0587177,-0.1253,0
2024-12-11 14:39:25.347,-0.00239282,2.55224,10.1246,0.0562743,-0.0752106,-0.113083,0
2024-12-11 14:39:25.349,-0.00717847,2.57378,10.0983,0.0739889,-0.0923143,-0.102088,0
2024-12-11 14:39:25.351,0.00478565,2.60489,10.0672,0.0910926,-0.105753,-0.0910926,0
2024-12-11 14:39:25.353,0.0119641,2.64796,10.0385,0.107585,-0.121024,-0.0800973,0
2024-12-11 14:39:25.358,0.0741775,2.73649,9.94278,0.13935,-0.140571,-0.0648262,0
2024-12-11 14:39:25.358,0.0741775,2.73649,9.94278,0.13935,-0.140571,-0.0648262,0
2024-12-11 14:39:25.361,0.117248,2.77478,9.88056,0.153399,-0.150956,-0.0587177,0
2024-12-11 14:39:25.363,0.165105,2.82024,9.80848,0.168059,-0.157064,-0.0556635,0
2024-12-11 14:39:25.365,0.215354,2.86092,9.74148,0.179665,-0.158897,-0.0519984,0
2024-12-11 14:39:25.368,0.263211,2.8992,9.64577,0.19005,-0.161951,-0.0501658,0
2024-12-11 14:39:25.370,0.316152,2.94467,9.54766,0.198602,-0.16134,-0.0507767,0
2024-12-11 14:39:25.372,0.368794,2.98774,9.46391,0.202267,-0.161951,-0.0532201,0
2024-12-11 14:39:25.376,0.411865,3.02363,9.36102,0.203488,-0.160118,-0.0617719,0
2024-12-11 14:39:25.377,0.4334,3.07627,9.26292,0.203488,-0.160118,-0.0617719,0
2024-12-11 14:39:25.379,0.445364,3.12204,9.18605,0.201045,-0.158286,-0.0660479,0
2024-12-11 14:39:25.382,0.464507,3.15553,9.11187,0.199213,-0.157675,-0.073378,0
2024-12-11 14:39:25.384,0.469292,3.18903,9.02812,0.190661,-0.152177,-0.0788757,0
2024-12-11 14:39:25.386,0.474078,3.22253,8.95634,0.185774,-0.149734,-0.085595,0
2024-12-11 14:39:25.389,0.481256,3.25603,8.91805,0.17539,-0.146069,-0.0917034,0
2024-12-11 14:39:25.392,0.486042,3.28953,8.87976,0.16867,-0.137517,-0.0996445,0
2024-12-11 14:39:25.396,0.498006,3.33739,8.79123,0.147901,-0.121024,-0.113083,0
2024-12-11 14:39:25.397,0.498006,3.33739,8.79123,0.138739,-0.106975,-0.122246,0
2024-12-11 14:39:25.399,0.495613,3.34696,8.74337,0.128354,-0.0947577,-0.129576,0
2024-12-11 14:39:25.401,0.474078,3.35175,8.70987,0.128354,-0.0947577,-0.129576,0
2024-12-11 14:39:25.403,0.447757,3.3661,8.66172,0.114305,-0.0807082,-0.135684,0
2024-12-11 14:39:25.405,0.426222,3.36371,8.61386,0.102088,-0.065437,-0.141182,0
2024-12-11 14:39:25.409,0.407079,3.37567,8.57079,0.0745997,-0.0367272,-0.155842,0
2024-12-11 14:39:25.411,0.385544,3.39003,8.52293,0.0745997,-0.0367272,-0.155842,0
2024-12-11 14:39:25.413,0.352044,3.39482,8.47747,0.0562743,-0.0269536,-0.160118,0
2024-12-11 14:39:25.415,0.320937,3.38764,8.42722,0.0385597,-0.0190126,-0.165616,0
2024-12-11 14:39:25.418,0.292223,3.38525,8.38894,0.021456,-0.0116825,-0.172946,0
2024-12-11 14:39:25.420,0.265603,3.37328,8.38176,0.00251974,-0.00618483,-0.176611,0
2024-12-11 14:39:25.422,0.234497,3.34696,8.38415,0.00251974,-0.00618483,-0.176611,0
2024-12-11 14:39:25.424,0.20339,3.32782,8.39133,-0.0353528,-0.00374144,-0.185163,0
2024-12-11 14:39:25.426,0.174676,3.30389,8.40329,-0.0542891,-0.00251974,-0.187606,0
2024-12-11 14:39:25.429,0.153141,3.27996,8.42483,-0.0713928,-0.00557398,-0.194326,0
2024-12-11 14:39:25.432,0.136391,3.26321,8.47029,-0.0848314,-0.00740652,-0.199823,0
2024-12-11 14:39:25.434,0.114855,3.24646,8.54926,-0.0994917,-0.00923906,-0.204099,0
2024-12-11 14:39:25.437,0.0885344,3.22253,8.62104,-0.120871,-0.0147367,-0.208375,0
2024-12-11 14:39:25.439,0.066999,3.18186,8.69283,-0.129423,-0.0177909,-0.210208,0
2024-12-11 14:39:25.442,0.0550349,3.13639,8.78884,-0.134921,-0.0226777,-0.21143,0
2024-12-11 14:39:25.444,0.0717847,3.11007,8.88934,-0.138586,-0.0263428,-0.21143,0
2024-12-11 14:39:25.446,0.0717847,3.08345,8.99223,-0.138586,-0.0263428,-0.21143,0
2024-12-11 14:39:25.448,0.0478565,3.04995,9.1023,-0.137975,-0.0281753,-0.213262,0
2024-12-11 14:39:25.451,0.040678,3.02363,9.21476,-0.134921,-0.0306187,-0.21143,0
2024-12-11 14:39:25.452,0.0287139,2.98535,9.31556,-0.130034,-0.0300079,-0.208986,0
2024-12-11 14:39:25.456,-0.00239282,2.95663,9.41127,-0.11293,-0.0238994,-0.200434,0
2024-12-11 14:39:25.458,-0.026321,2.93988,9.48784,-0.11293,-0.0238994,-0.200434,0
2024-12-11 14:39:25.459,-0.0382852,2.91117,9.55963,-0.101935,-0.0208452,-0.193104,0
2024-12-11 14:39:25.462,-0.0550349,2.88963,9.61705,-0.090329,-0.0177909,-0.186385,0
2024-12-11 14:39:25.465,-0.0574277,2.8681,9.66252,-0.0622301,-0.0153475,-0.173557,0
2024-12-11 14:39:25.467,-0.0454636,2.85135,9.71037,-0.0622301,-0.0153475,-0.173557,0
2024-12-11 14:39:25.469,-0.0239282,2.85853,9.75584,-0.0469589,-0.0129041,-0.165616,0
2024-12-11 14:39:25.474,0.0215354,2.88245,9.79891,-0.0170274,-0.0019089,-0.153399,0
2024-12-11 14:39:25.475,0.0215354,2.88245,9.79891,-0.0170274,-0.0019089,-0.153399,0
2024-12-11 14:39:25.476,0.026321,2.89442,9.75823,-0.00236703,0.0096972,-0.147291,0
2024-12-11 14:39:25.478,0.0574277,2.88485,9.71755,0.00984991,0.022525,-0.138739,0
2024-12-11 14:39:25.481,0.102891,2.87528,9.69841,0.0238994,0.0359636,-0.133241,0
2024-12-11 14:39:25.483,0.12682,2.89442,9.68884,0.0348946,0.0487914,-0.128354,0
2024-12-11 14:39:25.486,0.148355,2.92074,9.69362,0.0471116,0.058565,-0.122857,0
2024-12-11 14:39:25.488,0.150748,2.96142,9.68645,0.0568851,0.0689494,-0.11797,0
2024-12-11 14:39:25.490,0.150748,3.01645,9.66252,0.0709346,0.0811663,-0.113694,0
2024-12-11 14:39:25.495,0.153141,3.09332,9.57877,0.0917034,0.1056,-0.106364,0
2024-12-11 14:39:25.496,0.153141,3.09332,9.57877,0.100255,0.118428,-0.100866,0
2024-12-11 14:39:25.498,0.172283,3.13639,9.52134,0.107585,0.128812,-0.0990336,0
2024-12-11 14:39:25.499,0.191426,3.17228,9.45913,0.107585,0.128812,-0.0990336,0
2024-12-11 14:39:25.503,0.208176,3.18664,9.4017,0.121024,0.150192,-0.0941468,0
2024-12-11 14:39:25.505,0.215354,3.20339,9.32513,0.127743,0.163631,-0.093536,0
2024-12-11 14:39:25.507,0.18664,3.24646,9.24108,0.127743,0.163631,-0.093536,0
2024-12-11 14:39:25.509,0.136391,3.27518,9.15255,0.130187,0.169739,-0.0880384,0
2024-12-11 14:39:25.511,0.0981057,3.28953,9.05205,0.13263,0.174626,-0.0807082,0
2024-12-11 14:39:25.514,0.0789631,3.29671,8.97787,0.133241,0.179513,-0.0764323,0
2024-12-11 14:39:25.517,0.0622134,3.3015,8.90609,0.128965,0.183789,-0.0648262,0
2024-12-11 14:39:25.518,0.0454636,3.32303,8.82234,0.128965,0.183789,-0.0648262,0
2024-12-11 14:39:25.521,0.0239282,3.34457,8.76252,0.123468,0.188065,-0.0593285,0
2024-12-11 14:39:25.524,-0.00239282,3.37089,8.70748,0.11797,0.189897,-0.0556635,0
2024-12-11 14:39:25.525,-0.0143569,3.38285,8.64497,0.114916,0.192951,-0.0483333,0
2024-12-11 14:39:25.528,-0.026321,3.39482,8.59951,0.106975,0.194784,-0.0410031,0
2024-12-11 14:39:25.530,-0.040678,3.42592,8.56122,0.102699,0.196616,-0.037338,0
2024-12-11 14:39:25.532,-0.066999,3.46899,8.50858,0.0953685,0.197227,-0.0324513,0
2024-12-11 14:39:25.535,-0.0909273,3.50967,8.45594,0.0892601,0.197838,-0.029397,0
2024-12-11 14:39:25.537,-0.114855,3.5336,8.42004,0.0800973,0.198449,-0.0238994,0
2024-12-11 14:39:25.539,-0.136391,3.56471,8.39372,0.0721563,0.19906,-0.0196235,0
2024-12-11 14:39:25.542,-0.162712,3.59581,8.37458,0.0611611,0.196616,-0.0159584,0
2024-12-11 14:39:25.544,-0.208176,3.61735,8.3674,0.0544418,0.194173,-0.0122933,0
2024-12-11 14:39:25.547,-0.263211,3.65115,8.35065,0.0458899,0.191119,-0.00984991,0
2024-12-11 14:39:25.550,-0.30658,3.67747,8.34108,0.0275645,0.183178,-7.63559e-05,0
2024-12-11 14:39:25.551,-0.34008,3.699,8.34826,0.0275645,0.183178,-7.63559e-05,0
2024-12-11 14:39:25.554,-0.368794,3.72054,8.36262,0.0190126,0.176459,0.00236703,0
2024-12-11 14:39:25.557,-0.395115,3.73968,8.38894,0.00496313,0.15569,0.0121406,0
2024-12-11 14:39:25.558,-0.41665,3.74686,8.42004,0.00496313,0.15569,0.0121406,0
2024-12-11 14:39:25.561,-0.411865,3.73968,8.46551,-0.00542127,0.140419,0.0176382,0
2024-12-11 14:39:25.563,-0.395115,3.74447,8.53011,-0.0133623,0.124536,0.0219141,0
2024-12-11 14:39:25.565,-0.390329,3.75404,8.59233,-0.0176382,0.109876,0.0255792,0
2024-12-11 14:39:25.569,-0.385544,3.77079,8.62583,-0.0310769,0.0683385,0.0377962,0
2024-12-11 14:39:25.570,-0.373579,3.8019,8.65933,-0.0310769,0.0683385,0.0377962,0
2024-12-11 14:39:25.573,-0.359223,3.81865,8.69761,-0.0359636,0.0481806,0.0432938,0
2024-12-11 14:39:25.575,-0.328116,3.81147,8.71227,-0.0439046,0.0292443,0.0487914,0
2024-12-11 14:39:25.577,-0.263211,3.8019,8.72662,-0.0524565,0.00603212,0.0548999,0
2024-12-11 14:39:25.580,-0.179462,3.79711,8.76252,-0.0603975,-0.0177909,0.0573433,0
2024-12-11 14:39:25.582,-0.0837488,3.78993,8.8008,-0.0738362,-0.0440574,0.0616192,0
2024-12-11 14:39:25.584,0.0191426,3.80668,8.83669,-0.0829989,-0.0703238,0.0610084,0
2024-12-11 14:39:25.588,0.122034,3.84497,8.89173,-0.100713,-0.120413,0.0603975,0
2024-12-11 14:39:25.589,0.236889,3.86172,8.9348,-0.100713,-0.120413,0.0603975,0
2024-12-11 14:39:25.591,0.349651,3.88325,8.95873,-0.113541,-0.147901,0.0555107,0
2024-12-11 14:39:25.594,0.459721,3.90957,8.98983,-0.125147,-0.174779,0.0530674,0
2024-12-11 14:39:25.596,0.588933,3.92154,9.03051,-0.136753,-0.198602,0.0457372,0
2024-12-11 14:39:25.598,0.715753,3.9335,9.06162,-0.150803,-0.223646,0.0371853,0
2024-12-11 14:39:25.601,0.85005,3.9335,9.09512,-0.163631,-0.245637,0.0274118,0
2024-12-11 14:39:25.603,0.974477,3.93589,9.13101,-0.181956,-0.267017,0.0133623,0
2024-12-11 14:39:25.606,1.07258,3.94786,9.16212,-0.200892,-0.284731,-7.63559e-05,0
2024-12-11 14:39:25.608,1.17308,3.94786,9.20997,-0.218607,-0.300613,-0.0153475,0
2024-12-11 14:39:25.610,1.26879,3.93111,9.28445,-0.239376,-0.315884,-0.0330621,0
2024-12-11 14:39:25.612,1.34776,3.92632,9.35863,-0.259534,-0.326269,-0.0507767,0
2024-12-11 14:39:25.615,1.41506,3.92632,9.45434,-0.27847,-0.332988,-0.0697129,0
2024-12-11 14:39:25.620,1.50598,3.90479,9.7008,-0.309623,-0.334821,-0.107585,0
2024-12-11 14:39:25.621,1.50598,3.90479,9.7008,-0.322451,-0.329323,-0.125911,0
2024-12-11 14:39:25.622,1.51077,3.89522,9.83988,-0.322451,-0.329323,-0.125911,0
2024-12-11 14:39:25.624,1.51555,3.88325,9.98345,-0.330392,-0.319549,-0.143625,0
2024-12-11 14:39:25.627,1.4988,3.86411,10.1175,-0.338333,-0.306722,-0.160118,0
2024-12-11 14:39:25.629,1.45334,3.81147,10.2467,-0.340166,-0.287785,-0.17539,0
2024-12-11 14:39:25.631,1.39801,3.766,10.3663,-0.340776,-0.267017,-0.186996,0
2024-12-11 14:39:25.635,1.31904,3.7349,10.4767,-0.335279,-0.244415,-0.193715,0
2024-12-11 14:39:25.637,1.22812,3.68226,10.5556,-0.32184,-0.194937,-0.207154,0
2024-12-11 14:39:25.638,1.1683,3.61256,10.625,-0.32184,-0.194937,-0.207154,0
2024-12-11 14:39:25.642,1.12283,3.55753,10.7088,-0.294963,-0.13996,-0.205932,0
2024-12-11 14:39:25.643,1.06062,3.49771,10.771,-0.294963,-0.13996,-0.205932,0
2024-12-11 14:39:25.648,0.929013,3.38046,10.8045,-0.26381,-0.0843733,-0.196158,0
2024-12-11 14:39:25.648,0.929013,3.38046,10.8045,-0.26381,-0.0843733,-0.196158,0
2024-12-11 14:39:25.650,0.854836,3.32543,10.7877,-0.246095,-0.0550526,-0.190661,0
2024-12-11 14:39:25.653,0.794716,3.3015,10.7614,-0.225937,-0.0251211,-0.180887,0
2024-12-11 14:39:25.655,0.727717,3.2991,10.716,-0.208223,0.00175619,-0.169892,0
2024-12-11 14:39:25.658,0.675075,3.27278,10.6561,-0.165463,0.0487914,-0.13996,0
2024-12-11 14:39:25.660,0.632004,3.24168,10.5939,-0.165463,0.0487914,-0.13996,0
2024-12-11 14:39:25.662,0.593719,3.23928,10.5174,-0.147749,0.0775012,-0.125911,0
2024-12-11 14:39:25.664,0.555434,3.25364,10.4145,-0.130645,0.0939941,-0.111251,0
2024-12-11 14:39:25.667,0.514756,3.268,10.3137,-0.114763,0.111709,-0.0947577,0
2024-12-11 14:39:25.670,0.505185,3.28714,10.2227,-0.0994917,0.129423,-0.0782648,0
2024-12-11 14:39:25.671,0.50997,3.30628,10.1222,-0.0854423,0.139197,-0.0636045,0
2024-12-11 14:39:25.676,0.536291,3.3326,9.91406,-0.058565,0.153857,-0.0422248,0
2024-12-11 14:39:25.676,0.536291,3.3326,9.91406,-0.058565,0.153857,-0.0422248,0
2024-12-11 14:39:25.678,0.557827,3.3685,9.81566,-0.0481806,0.156911,-0.0306187,0
2024-12-11 14:39:25.682,0.596112,3.40917,9.70798,-0.0310769,0.153857,-0.0147367,0
2024-12-11 14:39:25.683,0.65354,3.4355,9.59552,-0.0310769,0.153857,-0.0147367,0
2024-12-11 14:39:25.688,0.773181,3.49771,9.40409,-0.0182491,0.142251,-0.00435229,0
2024-12-11 14:39:25.689,0.706182,3.45942,9.49023,-0.0182491,0.142251,-0.00435229,0
2024-12-11 14:39:25.690,0.852443,3.53599,9.32034,-0.0133623,0.130645,-7.63559e-05,0
2024-12-11 14:39:25.693,0.929013,3.5671,9.2363,-0.010308,0.115374,-0.000687203,0
2024-12-11 14:39:25.696,1.00558,3.61017,9.15015,-0.00908635,0.0842206,-0.00496313,0
2024-12-11 14:39:25.698,1.1013,3.66072,9.06401,-0.00908635,0.0842206,-0.00496313,0
2024-12-11 14:39:25.700,1.2018,3.699,8.98026,-0.00908635,0.0677277,-0.0110716,0
2024-12-11 14:39:25.702,1.29033,3.74447,8.88934,-0.010308,0.0512348,-0.0184018,0
2024-12-11 14:39:25.705,1.3669,3.79232,8.81755,-0.0127514,0.0341311,-0.0306187,0
2024-12-11 14:39:25.707,1.44138,3.84018,8.77209,-0.0176382,0.0176382,-0.0403923,0
2024-12-11 14:39:25.709,1.50838,3.88325,8.71705,-0.022525,0.00175619,-0.0550526,0
2024-12-11 14:39:25.714,1.61127,3.95982,8.58754,-0.0359636,-0.0226777,-0.0825407,0
2024-12-11 14:39:25.715,1.61127,3.95982,8.58754,-0.0359636,-0.0226777,-0.0825407,0
