timestamp,accel_x,accel_y,accel_z,gyro_x,gyro_y,gyro_z,step_timestamp
2024-12-11 19:38:28.135,-0.481256,3.01884,10.2012,0.0605502,-0.0538309,-0.00679568,0
2024-12-11 19:38:28.136,-0.4669,3.04277,10.1222,0.0605502,-0.0538309,-0.00679568,0
2024-12-11 19:38:28.136,-0.4669,3.04277,10.1222,0.0605502,-0.0538309,-0.00679568,0
2024-12-11 19:38:28.136,-0.4669,3.04277,10.1222,0.0605502,-0.0538309,-0.00679568,0
2024-12-11 19:38:28.136,-0.4669,3.04277,10.1222,0.0605502,-0.0538309,-0.00679568,0
2024-12-11 19:38:28.136,-0.4669,3.04277,10.1222,0.0605502,-0.0538309,-0.00679568,0
2024-12-11 19:38:28.136,-0.4669,3.04277,10.1222,0.0605502,-0.0538309,-0.00679568,0
2024-12-11 19:38:28.136,-0.4669,3.04277,10.1222,0.0605502,-0.0538309,-0.00679568,0
2024-12-11 19:38:28.136,-0.4669,3.04277,10.1222,0.0605502,-0.0538309,-0.00679568,0
2024-12-11 19:38:28.137,-0.4669,3.04277,10.1222,0.0605502,-0.0538309,-0.00618483,0
2024-12-11 19:38:28.137,-0.4669,3.04277,10.1222,0.0605502,-0.0538309,-0.00618483,0
2024-12-11 19:38:28.137,-0.4669,3.04277,10.1222,0.0605502,-0.0538309,-0.00618483,0
2024-12-11 19:38:28.137,-0.4669,3.04277,10.1222,0.0605502,-0.0538309,-0.00618483,0
2024-12-11 19:38:28.143,-0.404686,3.08345,9.83271,0.0947577,-0.0819299,-0.00618483,0
2024-12-11 19:38:28.143,-0.404686,3.08345,9.83271,0.0947577,-0.0819299,-0.00618483,0
2024-12-11 19:38:28.145,-0.373579,3.08854,9.7343,0.10331,-0.0904818,-0.00740652,0
2024-12-11 19:38:28.146,-0.404686,3.08854,9.7343,0.10331,-0.0904818,-0.00740652,0
2024-12-11 19:38:28.146,-0.373579,3.08854,9.7343,0.10331,-0.0904818,-0.00740652,0
2024-12-11 19:38:28.148,-0.328116,3.10768,9.62902,0.106364,-0.0984228,-0.00801737,0
2024-12-11 19:38:28.148,-0.328116,3.10768,9.62902,0.106364,-0.0984228,-0.00801737,0
2024-12-11 19:38:28.148,-0.328116,3.10768,9.62902,0.106364,-0.0984228,-0.00801737,0
2024-12-11 19:38:28.150,-0.289831,3.11007,9.49981,0.106364,-0.102699,-0.00923906,0
2024-12-11 19:38:28.150,-0.289831,3.11007,9.49981,0.106364,-0.102699,-0.00923906,0
2024-12-11 19:38:28.153,-0.289831,3.11007,9.49981,0.105753,-0.105753,-0.0110716,0
2024-12-11 19:38:28.153,-0.248854,3.10529,9.38495,0.105753,-0.105753,-0.0110716,0
2024-12-11 19:38:28.153,-0.248854,3.10529,9.38495,0.105753,-0.105753,-0.0110716,0
2024-12-11 19:38:28.155,-0.217747,3.1005,9.28206,0.100255,-0.110029,-0.013515,0
2024-12-11 19:38:28.156,-0.217747,3.1005,9.28206,0.100255,-0.110029,-0.013515,0
2024-12-11 19:38:28.157,-0.179462,3.1005,9.18365,0.0929251,-0.113083,-0.0159584,0
2024-12-11 19:38:28.157,-0.179462,3.1005,9.18365,0.0929251,-0.113083,-0.0159584,0
2024-12-11 19:38:28.160,-0.172283,3.11486,9.10469,0.081319,-0.114305,-0.0208452,0
2024-12-11 19:38:28.160,-0.172283,3.11486,9.10469,0.081319,-0.114305,-0.0208452,0
2024-12-11 19:38:28.162,-0.212961,3.11007,9.04487,0.0715455,-0.114305,-0.0251211,0
2024-12-11 19:38:28.162,-0.212961,3.11007,9.04487,0.0715455,-0.114305,-0.0251211,0
2024-12-11 19:38:28.165,-0.270389,3.11007,9.0018,0.0477224,-0.106975,-0.0257319,0
2024-12-11 19:38:28.167,-0.320937,3.11246,8.9683,0.0477224,-0.106975,-0.0257319,0
2024-12-11 19:38:28.167,-0.320937,3.11246,8.9683,0.0477224,-0.106975,-0.0257319,0
2024-12-11 19:38:28.168,-0.320937,3.11246,8.9683,0.0361163,-0.100255,-0.0251211,0
2024-12-11 19:38:28.169,-0.347258,3.09811,8.95634,0.0361163,-0.100255,-0.0251211,0
2024-12-11 19:38:28.169,-0.347258,3.09811,8.95634,0.0361163,-0.100255,-0.0251211,0
2024-12-11 19:38:28.171,-0.361615,3.08854,8.94676,0.0232886,-0.0941468,-0.0251211,0
2024-12-11 19:38:28.172,-0.361615,3.08854,8.94676,0.0232886,-0.0941468,-0.0251211,0
2024-12-11 19:38:28.174,-0.349651,3.07627,8.90848,0.00923906,-0.0862058,-0.0275645,0
2024-12-11 19:38:28.174,-0.349651,3.07627,8.90848,0.00923906,-0.0862058,-0.0275645,0
2024-12-11 19:38:28.176,-0.316152,3.06909,8.88216,-0.00481042,-0.0788757,-0.0306187,0
2024-12-11 19:38:28.176,-0.316152,3.06909,8.88216,-0.00481042,-0.0788757,-0.0306187,0
2024-12-11 19:38:28.178,-0.292223,3.06909,8.87737,-0.0194708,-0.0691021,-0.0330621,0
2024-12-11 19:38:28.179,-0.292223,3.06909,8.87737,-0.0194708,-0.0691021,-0.0330621,0
2024-12-11 19:38:28.181,-0.294616,3.08584,8.87498,-0.0347419,-0.0593285,-0.0355055,0
2024-12-11 19:38:28.183,-0.294616,3.09093,8.88455,-0.0457372,-0.0489441,-0.0403923,0
2024-12-11 19:38:28.183,-0.294616,3.09093,8.88455,-0.0457372,-0.0489441,-0.0403923,0
2024-12-11 19:38:28.184,-0.294616,3.09093,8.88455,-0.0610084,-0.0385597,-0.0440574,0
2024-12-11 19:38:28.186,-0.292223,3.09571,8.89891,-0.0610084,-0.0385597,-0.0440574,0
2024-12-11 19:38:28.187,-0.292223,3.09571,8.89891,-0.0750579,-0.0281753,-0.0471116,0
2024-12-11 19:38:28.188,-0.285045,3.11007,8.92044,-0.0750579,-0.0281753,-0.0471116,0
2024-12-11 19:38:28.189,-0.285045,3.11007,8.92044,-0.0878856,-0.0153475,-0.0501658,0
2024-12-11 19:38:28.190,-0.270389,3.10768,8.94916,-0.0878856,-0.0153475,-0.0501658,0
2024-12-11 19:38:28.191,-0.270389,3.10768,8.94916,-0.0878856,-0.0153475,-0.0501658,0
2024-12-11 19:38:28.193,-0.246461,3.10768,8.98983,-0.0988809,-0.00435229,-0.0526092,0
2024-12-11 19:38:28.193,-0.246461,3.10768,8.98983,-0.0988809,-0.00435229,-0.0526092,0
2024-12-11 19:38:28.195,-0.210568,3.11486,9.02333,-0.109265,0.00481042,-0.0550526,0
2024-12-11 19:38:28.197,-0.191426,3.09332,9.05923,-0.123315,0.0121406,-0.0587177,0
2024-12-11 19:38:28.198,-0.191426,3.09332,9.05923,-0.131867,0.0176382,-0.0587177,0
2024-12-11 19:38:28.200,-0.191426,3.07388,9.10469,-0.131867,0.0176382,-0.0587177,0
2024-12-11 19:38:28.201,-0.191426,3.07388,9.10469,-0.140419,0.0182491,-0.0599394,0
2024-12-11 19:38:28.202,-0.196211,3.07149,9.16212,-0.131867,0.0176382,-0.0599394,0
2024-12-11 19:38:28.203,-0.196211,3.07149,9.16212,-0.146527,0.0219141,-0.0623828,0
2024-12-11 19:38:28.203,-0.196211,3.07149,9.16212,-0.146527,0.0219141,-0.0623828,0
2024-12-11 19:38:28.204,-0.200997,3.05952,9.24108,-0.146527,0.0219141,-0.0623828,0
2024-12-11 19:38:28.207,-0.210568,3.05474,9.29881,-0.152025,0.0231358,-0.0611611,0
2024-12-11 19:38:28.207,-0.210568,3.05474,9.29881,-0.152025,0.0231358,-0.0611611,0
2024-12-11 19:38:28.208,-0.210568,3.05474,9.29881,-0.158133,0.0213033,-0.057496,0
2024-12-11 19:38:28.209,-0.224925,3.0667,9.37059,-0.158133,0.0213033,-0.057496,0
2024-12-11 19:38:28.210,-0.224925,3.0667,9.37059,-0.161798,0.0206925,-0.0544418,0
2024-12-11 19:38:28.211,-0.270389,3.06909,9.46391,-0.161798,0.0206925,-0.0544418,0
2024-12-11 19:38:28.211,-0.270389,3.06909,9.46391,-0.161798,0.0206925,-0.0544418,0
2024-12-11 19:38:28.215,-0.311366,3.07388,9.56202,-0.159966,0.0176382,-0.0477224,0
2024-12-11 19:38:28.216,-0.320937,3.06431,9.64816,-0.159966,0.0176382,-0.0477224,0
2024-12-11 19:38:28.216,-0.320937,3.06431,9.64816,-0.159966,0.0176382,-0.0477224,0
2024-12-11 19:38:28.217,-0.320937,3.06431,9.64816,-0.15569,0.0133623,-0.0440574,0
2024-12-11 19:38:28.218,-0.308973,3.04517,9.71516,-0.15569,0.0133623,-0.0440574,0
2024-12-11 19:38:28.219,-0.308973,3.04517,9.71516,-0.15569,0.0133623,-0.0440574,0
2024-12-11 19:38:28.221,-0.30658,3.04277,9.76302,-0.150192,0.00908635,-0.0397814,0
2024-12-11 19:38:28.222,-0.30658,3.04277,9.76302,-0.144084,0.00603212,-0.0355055,0
2024-12-11 19:38:28.223,-0.304188,3.04277,9.79652,-0.144084,0.00603212,-0.0355055,0
2024-12-11 19:38:28.223,-0.304188,3.04277,9.79652,-0.144084,0.00603212,-0.0355055,0
2024-12-11 19:38:28.227,-0.308973,3.03799,9.83988,-0.123315,-0.00129805,-0.0300079,0
2024-12-11 19:38:28.228,-0.289831,3.03559,9.88296,-0.123315,-0.00129805,-0.0300079,0
2024-12-11 19:38:28.230,-0.289831,3.03559,9.9332,-0.114763,-0.00801737,-0.0287862,0
2024-12-11 19:38:28.230,-0.258425,3.0332,9.9332,-0.114763,-0.00801737,-0.0287862,0
2024-12-11 19:38:28.233,-0.258425,3.02363,9.97388,-0.101324,-0.0104608,-0.0300079,0
2024-12-11 19:38:28.233,-0.256032,3.02363,9.97388,-0.101324,-0.0104608,-0.0300079,0
2024-12-11 19:38:28.234,-0.256032,3.02363,9.97388,-0.0891073,-0.0141258,-0.0275645,0
2024-12-11 19:38:28.235,-0.258425,3.01406,9.97867,-0.0891073,-0.0141258,-0.0275645,0
2024-12-11 19:38:28.235,-0.258425,3.01406,9.97867,-0.0891073,-0.0141258,-0.0275645,0
2024-12-11 19:38:28.237,-0.258425,2.98774,9.97149,-0.0713928,-0.0184018,-0.0269536,0
2024-12-11 19:38:28.240,-0.253639,2.97099,9.97388,-0.0713928,-0.0184018,-0.0275645,0
2024-12-11 19:38:28.240,-0.253639,2.97099,9.97388,-0.0713928,-0.0184018,-0.0275645,0
2024-12-11 19:38:28.240,-0.253639,2.97099,9.97388,-0.0713928,-0.0184018,-0.0275645,0
2024-12-11 19:38:28.243,-0.253639,2.96381,9.96431,-0.0365745,-0.0324513,-0.0269536,0
2024-12-11 19:38:28.244,-0.263211,2.94467,9.95474,-0.0365745,-0.0324513,-0.0269536,0
2024-12-11 19:38:28.244,-0.263211,2.94467,9.95474,-0.0365745,-0.0324513,-0.0269536,0
2024-12-11 19:38:28.248,-0.27996,2.92552,9.92842,-0.0139731,-0.0446682,-0.0300079,0
2024-12-11 19:38:28.249,-0.304188,2.91835,9.87099,-0.022525,-0.0446682,-0.0300079,0
2024-12-11 19:38:28.251,-0.332901,2.90638,9.80848,-0.00297788,-0.0501658,-0.0300079,0
2024-12-11 19:38:28.252,-0.304188,2.91835,9.87099,-0.00297788,-0.0501658,-0.0300079,0
2024-12-11 19:38:28.254,-0.337687,2.88963,9.74148,0.00496313,-0.0532201,-0.0318404,0
2024-12-11 19:38:28.254,-0.337687,2.88963,9.74148,0.00496313,-0.0532201,-0.0318404,0
2024-12-11 19:38:28.256,-0.335294,2.88006,9.68166,0.0104608,-0.0587177,-0.0324513,0
2024-12-11 19:38:28.257,-0.335294,2.88006,9.68166,0.0122933,-0.0636045,-0.0306187,0
2024-12-11 19:38:28.259,-0.344866,2.87767,9.62184,0.0122933,-0.0636045,-0.0306187,0
2024-12-11 19:38:28.260,-0.344866,2.87767,9.62184,0.0122933,-0.0636045,-0.0306187,0
2024-12-11 19:38:28.261,-0.371187,2.88724,9.5692,0.0122933,-0.0636045,-0.0306187,0
2024-12-11 19:38:28.264,-0.359223,2.91595,9.51895,0.0110716,-0.0715455,-0.0312296,0
2024-12-11 19:38:28.267,-0.347258,2.9351,9.44956,0.0110716,-0.0715455,-0.0312296,0
2024-12-11 19:38:28.267,-0.347258,2.9351,9.44956,0.0110716,-0.0715455,-0.0312296,0
2024-12-11 19:38:28.268,-0.368794,2.9351,9.38256,0.00618483,-0.0691021,-0.0324513,0
2024-12-11 19:38:28.270,-0.371187,2.95424,9.32513,-0.00114534,-0.0697129,-0.0330621,0
2024-12-11 19:38:28.273,-0.35683,2.9686,9.28924,-0.00664296,-0.0672696,-0.0318404,0
2024-12-11 19:38:28.274,-0.35683,2.9686,9.28924,-0.014584,-0.065437,-0.0324513,0
2024-12-11 19:38:28.275,-0.344866,2.98056,9.25305,-0.014584,-0.065437,-0.0324513,0
2024-12-11 19:38:28.275,-0.344866,2.98056,9.25305,-0.014584,-0.065437,-0.0324513,0
2024-12-11 19:38:28.277,-0.349651,2.99492,9.21715,-0.022525,-0.0593285,-0.0330621,0
2024-12-11 19:38:28.278,-0.349651,2.99492,9.21715,-0.022525,-0.0593285,-0.0330621,0
2024-12-11 19:38:28.280,-0.347258,2.98535,9.18844,-0.0322986,-0.0513875,-0.0312296,0
2024-12-11 19:38:28.282,-0.330509,2.97338,9.16451,-0.042683,-0.0465007,-0.0324513,0
2024-12-11 19:38:28.284,-0.332901,2.96381,9.14297,-0.0518457,-0.0397814,-0.0312296,0
2024-12-11 19:38:28.288,-0.337687,2.97338,9.1334,-0.0707819,-0.0220669,-0.029397,0
2024-12-11 19:38:28.290,-0.352044,2.98774,9.13819,-0.0805555,-0.0141258,-0.0281753,0
2024-12-11 19:38:28.292,-0.364008,2.99731,9.1358,-0.0805555,-0.0141258,-0.0281753,0
2024-12-11 19:38:28.294,-0.373579,3.01406,9.1358,-0.090329,-0.00862822,-0.0257319,0
2024-12-11 19:38:28.297,-0.387936,3.02124,9.1334,-0.106822,0.00725381,-0.0208452,0
2024-12-11 19:38:28.301,-0.404686,3.02363,9.15015,-0.114763,0.0158057,-0.0165692,0
2024-12-11 19:38:28.301,-0.428614,3.03799,9.15015,-0.114763,0.0158057,-0.0165692,0
2024-12-11 19:38:28.303,-0.426222,3.04277,9.17887,-0.120261,0.0206925,-0.0129041,0
2024-12-11 19:38:28.307,-0.421436,3.04517,9.20997,-0.127591,0.0280226,-0.00923906,0
2024-12-11 19:38:28.308,-0.421436,3.05234,9.25305,-0.132477,0.0359636,-0.00557398,0
2024-12-11 19:38:28.311,-0.407079,3.06431,9.3012,-0.135532,0.0402396,-0.0019089,0
2024-12-11 19:38:28.313,-0.390329,3.07388,9.35384,-0.137364,0.0439046,-0.000687203,0
2024-12-11 19:38:28.317,-0.371187,3.08106,9.38974,-0.144084,0.0524565,0.00725381,0
2024-12-11 19:38:28.317,-0.371187,3.08106,9.38974,-0.144084,0.0524565,0.00725381,0
2024-12-11 19:38:28.322,-0.347258,3.08584,9.45195,-0.143473,0.0579541,0.0133623,0
2024-12-11 19:38:28.322,-0.318545,3.08584,9.45195,-0.143473,0.0579541,0.0133623,0
2024-12-11 19:38:28.325,-0.30658,3.11007,9.47827,-0.140419,0.0634518,0.0164165,0
2024-12-11 19:38:28.328,-0.313759,3.1005,9.48784,-0.138586,0.0646735,0.0176382,0
2024-12-11 19:38:28.329,-0.313759,3.09093,9.50459,-0.137364,0.0640626,0.0164165,0
2024-12-11 19:38:28.332,-0.294616,3.08854,9.52613,-0.135532,0.0616192,0.0188599,0
2024-12-11 19:38:28.335,-0.282652,3.08106,9.5357,-0.128202,0.0512348,0.0182491,0
2024-12-11 19:38:28.336,-0.282652,3.07867,9.55963,-0.128202,0.0512348,0.0182491,0
2024-12-11 19:38:28.340,-0.270389,3.07867,9.57159,-0.126369,0.0487914,0.0194708,0
2024-12-11 19:38:28.341,-0.272782,3.06909,9.57638,-0.123926,0.0408504,0.0219141,0
2024-12-11 19:38:28.344,-0.27996,3.06192,9.58355,-0.114763,0.0353528,0.0200816,0
2024-12-11 19:38:28.347,-0.285045,3.05234,9.5668,-0.11293,0.038407,0.0231358,0
2024-12-11 19:38:28.348,-0.272782,3.05234,9.5668,-0.108654,0.0439046,0.0243575,0
2024-12-11 19:38:28.351,-0.263211,3.04995,9.59073,-0.108654,0.0439046,0.0243575,0
2024-12-11 19:38:28.353,-0.267996,3.04995,9.58116,-0.100713,0.0347419,0.022525,0
2024-12-11 19:38:28.355,-0.253639,3.07627,9.54288,-0.0921616,0.0310769,0.0213033,0
2024-12-11 19:38:28.358,-0.253639,3.1005,9.51895,-0.0878856,0.0286335,0.0188599,0
2024-12-11 19:38:28.360,-0.246461,3.11007,9.48784,-0.0854423,0.0280226,0.0158057,0
2024-12-11 19:38:28.362,-0.224925,3.13161,9.45673,-0.0811663,0.0268009,0.0127514,0
2024-12-11 19:38:28.365,-0.241675,3.14836,9.42563,-0.0805555,0.0268009,0.00908635,0
2024-12-11 19:38:28.367,-0.265603,3.14596,9.38974,-0.0793338,0.0274118,0.00786466,0
2024-12-11 19:38:28.369,-0.258425,3.15553,9.3682,-0.0750579,0.0274118,0.00603212,0
2024-12-11 19:38:28.373,-0.263211,3.17468,9.35384,-0.074447,0.0219141,0.00297788,0
2024-12-11 19:38:28.376,-0.275175,3.20339,9.27727,-0.0738362,0.014584,0.00175619,0
2024-12-11 19:38:28.376,-0.275175,3.20339,9.27727,-0.0738362,0.014584,0.00175619,0
2024-12-11 19:38:28.381,-0.287438,3.20339,9.23869,-0.0738362,-0.00496313,-0.00313059,0
2024-12-11 19:38:28.381,-0.287438,3.20339,9.23869,-0.0738362,-0.00496313,-0.00313059,0
2024-12-11 19:38:28.383,-0.287438,3.201,9.22672,-0.0689494,-0.00862822,-0.00496313,0
2024-12-11 19:38:28.387,-0.30658,3.19861,9.22672,-0.0677277,-0.0245102,-0.00251974,0
2024-12-11 19:38:28.388,-0.308973,3.21296,9.22194,-0.0677277,-0.0245102,-0.00251974,0
2024-12-11 19:38:28.390,-0.256032,3.21536,9.20758,-0.0652843,-0.0367272,-0.00374144,0
2024-12-11 19:38:28.394,-0.12682,3.20339,9.28206,-0.0579541,-0.0642153,-0.0110716,0
2024-12-11 19:38:28.395,-0.0526421,3.20578,9.41606,-0.0579541,-0.0642153,-0.0110716,0
2024-12-11 19:38:28.399,-0.066999,3.22253,9.44238,-0.0518457,-0.0831516,-0.0153475,0
2024-12-11 19:38:28.400,-0.081356,3.25364,9.44238,-0.0457372,-0.10392,-0.0171801,0
2024-12-11 19:38:28.403,-0.143569,3.3015,9.50459,-0.0292443,-0.140571,-0.0226777,0
2024-12-11 19:38:28.406,-0.18664,3.335,9.53809,-0.0292443,-0.140571,-0.0226777,0
2024-12-11 19:38:28.407,-0.172283,3.35653,9.5357,-0.0243575,-0.150956,-0.0238994,0
2024-12-11 19:38:28.409,-0.141177,3.38046,9.55484,-0.0158057,-0.166838,-0.0208452,0
2024-12-11 19:38:28.412,-0.117248,3.38285,9.57638,-0.00542127,-0.182109,-0.0220669,0
2024-12-11 19:38:28.415,-0.105284,3.38046,9.6027,0.00374144,-0.191882,-0.0245102,0
2024-12-11 19:38:28.416,-0.0909273,3.37567,9.62423,0.0129041,-0.203488,-0.0275645,0
2024-12-11 19:38:28.419,-0.081356,3.34935,9.61945,0.0202343,-0.215095,-0.0287862,0
2024-12-11 19:38:28.421,-0.0837488,3.33978,9.60748,0.0257319,-0.223036,-0.0318404,0
2024-12-11 19:38:28.424,-0.0909273,3.335,9.60987,0.0257319,-0.223036,-0.0318404,0
2024-12-11 19:38:28.426,-0.0957129,3.33021,9.63859,0.0367272,-0.241361,-0.0342838,0
2024-12-11 19:38:28.429,-0.0933201,3.32782,9.64337,0.0471116,-0.263352,-0.0306187,0
2024-12-11 19:38:28.430,-0.0598206,3.33978,9.65773,0.0471116,-0.263352,-0.0306187,0
2024-12-11 19:38:28.435,-0.0478565,3.34457,9.77019,0.0636045,-0.287785,-0.0269536,0
2024-12-11 19:38:28.435,-0.0478565,3.34457,9.77019,0.0636045,-0.287785,-0.0269536,0
2024-12-11 19:38:28.438,-0.0454636,3.31346,9.82074,0.0703238,-0.300002,-0.0245102,0
2024-12-11 19:38:28.440,-0.0334995,3.30389,9.85664,0.0788757,-0.310387,-0.0251211,0
2024-12-11 19:38:28.442,-0.0287139,3.28475,9.90928,0.0923143,-0.32016,-0.0226777,0
2024-12-11 19:38:28.446,-0.00957129,3.27039,9.94756,0.117359,-0.332377,-0.0196235,0
2024-12-11 19:38:28.447,0.0287139,3.27039,9.98106,0.117359,-0.332377,-0.0196235,0
2024-12-11 19:38:28.450,0.0502493,3.27996,10.0193,0.146069,-0.336653,-0.0208452,0
2024-12-11 19:38:28.453,0.0693919,3.27518,10.0289,0.160118,-0.337264,-0.0226777,0
2024-12-11 19:38:28.454,0.0837488,3.2656,10.0433,0.160118,-0.337264,-0.0226777,0
2024-12-11 19:38:28.457,0.0765703,3.27996,10.0481,0.174779,-0.336042,-0.0226777,0
2024-12-11 19:38:28.459,0.0765703,3.27757,10.0265,0.190661,-0.330545,-0.0232886,0
2024-12-11 19:38:28.462,0.0717847,3.25603,9.99542,0.21876,-0.321382,-0.0251211,0
2024-12-11 19:38:28.463,0.0909273,3.24407,9.95713,0.21876,-0.321382,-0.0251211,0
2024-12-11 19:38:28.466,0.133998,3.24168,9.9021,0.23342,-0.314663,-0.0251211,0
2024-12-11 19:38:28.469,0.167498,3.2345,9.8351,0.246248,-0.3055,-0.0281753,0
2024-12-11 19:38:28.471,0.181855,3.23211,9.76062,0.256632,-0.296948,-0.0312296,0
2024-12-11 19:38:28.474,0.181855,3.24168,9.67209,0.275568,-0.271293,-0.033673,0
2024-12-11 19:38:28.475,0.172283,3.25603,9.57159,0.275568,-0.271293,-0.033673,0
2024-12-11 19:38:28.479,0.179462,3.2656,9.46152,0.289007,-0.242583,-0.0367272,0
2024-12-11 19:38:28.481,0.200997,3.27518,9.35145,0.289007,-0.242583,-0.0367272,0
2024-12-11 19:38:28.482,0.217747,3.28235,9.25065,0.289618,-0.229144,-0.0379489,0
2024-12-11 19:38:28.485,0.222533,3.2991,9.13819,0.292061,-0.212651,-0.0379489,0
2024-12-11 19:38:28.488,0.234497,3.3326,9.01376,0.293283,-0.196158,-0.0397814,0
2024-12-11 19:38:28.489,0.275175,3.35414,8.89412,0.293894,-0.182109,-0.041614,0
2024-12-11 19:38:28.492,0.30658,3.3685,8.75773,0.293894,-0.182109,-0.041614,0
2024-12-11 19:38:28.494,0.34008,3.39003,8.6019,0.287785,-0.150956,-0.0452791,0
2024-12-11 19:38:28.496,0.368794,3.41875,8.46072,0.281677,-0.13935,-0.0501658,0
2024-12-11 19:38:28.499,0.385544,3.45464,8.32433,0.276179,-0.125911,-0.0538309,0
2024-12-11 19:38:28.501,0.428614,3.48335,8.17358,0.267627,-0.117359,-0.0562743,0
2024-12-11 19:38:28.504,0.483649,3.50489,8.01297,0.257243,-0.109418,-0.0636045,0
2024-12-11 19:38:28.506,0.536291,3.53121,7.87179,0.246859,-0.108196,-0.0703238,0
2024-12-11 19:38:28.508,0.60329,3.56231,7.71625,0.234031,-0.108807,-0.077654,0
2024-12-11 19:38:28.512,0.682254,3.60539,7.56521,0.199823,-0.122857,-0.0972011,0
2024-12-11 19:38:28.513,0.744467,3.65354,7.45753,0.199823,-0.122857,-0.0972011,0
2024-12-11 19:38:28.516,0.787538,3.70618,7.3666,0.155232,-0.152788,-0.123468,0
2024-12-11 19:38:28.518,0.789931,3.76361,7.27089,0.155232,-0.152788,-0.123468,0
2024-12-11 19:38:28.522,0.782752,3.89761,7.06989,0.101477,-0.208375,-0.150956,0
2024-12-11 19:38:28.522,0.80668,3.89761,7.06989,0.101477,-0.208375,-0.150956,0
2024-12-11 19:38:28.526,0.842872,3.95264,7.0026,0.0379489,-0.282899,-0.180276,0
2024-12-11 19:38:28.528,0.88355,4.00768,6.99302,0.0379489,-0.282899,-0.180276,0
2024-12-11 19:38:28.532,0.909871,4.09382,7.03879,-0.022525,-0.366585,-0.207154,0
2024-12-11 19:38:28.533,0.94337,4.09382,7.03879,-0.0536782,-0.410566,-0.220592,0
2024-12-11 19:38:28.535,0.998405,4.12014,7.07468,-0.0829989,-0.454547,-0.237085,0
2024-12-11 19:38:28.537,1.06301,4.12732,7.15364,-0.0829989,-0.454547,-0.237085,0
2024-12-11 19:38:28.539,1.12283,4.11057,7.24696,-0.11232,-0.496084,-0.253578,0
2024-12-11 19:38:28.542,1.16351,4.08425,7.35464,-0.164852,-0.562056,-0.288396,0
2024-12-11 19:38:28.544,1.21376,4.05793,7.44796,-0.164852,-0.562056,-0.288396,0
2024-12-11 19:38:28.546,1.28794,4.02682,7.54846,-0.19173,-0.591987,-0.304278,0
2024-12-11 19:38:28.549,1.37647,3.99811,7.67558,-0.214331,-0.614589,-0.337875,0
2024-12-11 19:38:28.551,1.46291,3.96222,7.79043,-0.238154,-0.633525,-0.337875,0
2024-12-11 19:38:28.553,1.51316,3.94307,7.91725,-0.261977,-0.649407,-0.357422,0
2024-12-11 19:38:28.555,1.54905,3.9335,8.03211,-0.284578,-0.661624,-0.373304,0
2024-12-11 19:38:28.558,1.59212,3.93111,8.09911,-0.30718,-0.666511,-0.388575,0
2024-12-11 19:38:28.560,1.6328,3.92872,8.18076,-0.328559,-0.667122,-0.403846,0
2024-12-11 19:38:28.562,1.67109,3.92872,8.28126,-0.351772,-0.664678,-0.420339,0
2024-12-11 19:38:28.565,1.71177,3.9335,8.37937,-0.373151,-0.657959,-0.430113,0
2024-12-11 19:38:28.567,1.74048,3.9335,8.49422,-0.393309,-0.646964,-0.440497,0
2024-12-11 19:38:28.569,1.72612,3.92632,8.60908,-0.4153,-0.632914,-0.452103,0
2024-12-11 19:38:28.572,1.69023,3.93589,8.71945,-0.434847,-0.614589,-0.460044,0
2024-12-11 19:38:28.575,1.65194,3.95982,8.82473,-0.467222,-0.568775,-0.464931,0
2024-12-11 19:38:28.578,1.60409,3.967,8.95394,-0.467222,-0.568775,-0.464931,0
2024-12-11 19:38:28.580,1.55862,3.97897,9.09512,-0.492877,-0.513188,-0.461266,0
2024-12-11 19:38:28.584,1.45095,4.04596,9.34666,-0.499597,-0.483867,-0.455158,0
2024-12-11 19:38:28.585,1.45095,4.04596,9.34666,-0.503873,-0.451492,-0.449049,0
2024-12-11 19:38:28.587,1.39322,4.06511,9.45673,-0.505705,-0.419118,-0.439886,0
2024-12-11 19:38:28.588,1.34058,4.10818,9.56202,-0.505705,-0.419118,-0.439886,0
2024-12-11 19:38:28.591,1.29033,4.13928,9.6338,-0.511203,-0.387964,-0.42828,0
2024-12-11 19:38:28.593,1.23769,4.15603,9.68645,-0.50937,-0.358644,-0.418507,0
2024-12-11 19:38:28.595,1.18265,4.17278,9.71755,-0.511203,-0.332377,-0.408122,0
2024-12-11 19:38:28.598,1.10369,4.18475,9.73669,-0.511814,-0.304889,-0.39896,0
2024-12-11 19:38:28.600,0.991227,4.1991,9.75105,-0.512424,-0.278012,-0.385521,0
2024-12-11 19:38:28.610,0.596112,4.18235,9.89013,-0.52342,-0.207764,-0.344594,0
2024-12-11 19:38:28.612,0.308973,4.16321,9.93081,-0.532582,-0.159507,-0.315884,0
2024-12-11 19:38:28.612,0.308973,4.16321,9.93081,-0.532582,-0.159507,-0.315884,0
2024-12-11 19:38:28.617,0.0382852,4.11775,10.0289,-0.554573,-0.114305,-0.284731,0
2024-12-11 19:38:28.618,0.0382852,4.11775,10.0289,-0.56679,-0.0874275,-0.271293,0
2024-12-11 19:38:28.619,-0.0717847,4.08903,10.0887,-0.56679,-0.0874275,-0.271293,0
2024-12-11 19:38:28.621,-0.177069,4.06511,10.1749,-0.579007,-0.0636045,-0.256632,0
2024-12-11 19:38:28.624,-0.272782,4.05314,10.2682,-0.593667,-0.0410031,-0.241972,0
2024-12-11 19:38:28.626,-0.380758,4.04836,10.3687,-0.606495,-0.0122933,-0.228533,0
2024-12-11 19:38:28.626,-0.380758,4.04836,10.3687,-0.606495,-0.0122933,-0.228533,0
2024-12-11 19:38:28.627,-0.380758,4.04836,10.3687,-0.606495,-0.0122933,-0.228533,0
2024-12-11 19:38:28.633,-0.608076,4.02682,10.7949,-0.629707,0.0829989,-0.192493,0
2024-12-11 19:38:28.635,-0.608076,4.02921,10.9484,-0.632761,0.120871,-0.180276,0
2024-12-11 19:38:28.638,-0.816252,4.00768,11.0895,-0.629096,0.164242,-0.171114,0
2024-12-11 19:38:28.638,-0.816252,4.00768,11.0895,-0.629096,0.164242,-0.171114,0
2024-12-11 19:38:28.643,-1.00558,3.93829,11.4006,-0.607717,0.25648,-0.147291,0
2024-12-11 19:38:28.643,-1.00558,3.93829,11.4006,-0.607717,0.25648,-0.147291,0
2024-12-11 19:38:28.645,-1.07737,3.89282,11.5205,-0.594889,0.302293,-0.137517,0
2024-12-11 19:38:28.647,-1.12044,3.81865,11.6163,-0.594889,0.348717,-0.126522,0
2024-12-11 19:38:28.648,-1.12044,3.81865,11.6163,-0.594889,0.348717,-0.126522,0
2024-12-11 19:38:28.650,-1.14676,3.766,11.6928,-0.594889,0.348717,-0.126522,0
2024-12-11 19:38:28.652,-1.17787,3.73968,11.7287,-0.525252,0.439123,-0.106975,0
2024-12-11 19:38:28.655,-1.22094,3.7014,11.7144,-0.495932,0.476385,-0.0965902,0
2024-12-11 19:38:28.658,-1.25444,3.66551,11.6689,-0.461113,0.547243,-0.0739889,0
2024-12-11 19:38:28.659,-1.26162,3.64606,11.6186,-0.429349,0.547243,-0.0739889,0
2024-12-11 19:38:28.661,-1.27837,3.64367,11.5445,-0.39392,0.576563,-0.0629936,0
2024-12-11 19:38:28.664,-1.30947,3.64128,11.4485,-0.355437,0.599165,-0.0483333,0
2024-12-11 19:38:28.666,-1.32622,3.65593,11.348,-0.316953,0.618101,-0.037338,0
2024-12-11 19:38:28.669,-1.31904,3.6679,11.2307,-0.27847,0.630318,-0.0245102,0
2024-12-11 19:38:28.671,-1.31426,3.66551,11.1063,-0.239987,0.639481,-0.0141258,0
2024-12-11 19:38:28.673,-1.30229,3.66311,10.9747,-0.19906,0.639481,-0.00618483,0
2024-12-11 19:38:28.675,-1.25922,3.64606,10.8141,-0.159355,0.635205,0.00419957,0
2024-12-11 19:38:28.681,-1.27119,3.59103,10.5269,-0.0316877,0.576563,0.0329094,0
2024-12-11 19:38:28.683,-1.34297,3.59581,10.3639,-0.0316877,0.576563,0.0329094,0
2024-12-11 19:38:28.683,-1.34297,3.59581,10.3639,-0.0316877,0.576563,0.0329094,0
2024-12-11 19:38:28.685,-1.34058,3.62453,10.1821,0.0116825,0.544189,0.042683,0
2024-12-11 19:38:28.687,-1.34058,3.63649,10.005,0.0532201,0.505094,0.0518457,0
2024-12-11 19:38:28.690,-1.37647,3.6341,9.84467,0.093536,0.464168,0.0646735,0
2024-12-11 19:38:28.693,-1.39322,3.65115,9.68405,0.178444,0.370097,0.090329,0
2024-12-11 19:38:28.694,-1.41266,3.64876,9.50459,0.178444,0.370097,0.090329,0
2024-12-11 19:38:28.698,-1.43898,3.65115,9.31556,0.21876,0.320008,0.100713,0
2024-12-11 19:38:28.699,-1.45095,3.66072,9.15255,0.257854,0.269307,0.113541,0
2024-12-11 19:38:28.701,-1.4677,3.68704,9.02094,0.294505,0.216164,0.127591,0
2024-12-11 19:38:28.704,-1.47488,3.70618,8.88694,0.328101,0.166685,0.140419,0
2024-12-11 19:38:28.706,-1.47009,3.72772,8.74816,0.361698,0.115374,0.150803,0
2024-12-11 19:38:28.708,-1.45334,3.77079,8.6019,0.393462,0.0646735,0.16302,0
2024-12-11 19:38:28.712,-1.42223,3.7995,8.44158,0.423394,0.0219141,0.173404,0
2024-12-11 19:38:28.713,-1.3669,3.81625,8.29083,0.449049,-0.0153475,0.181345,0
2024-12-11 19:38:28.715,-1.31426,3.8354,8.13769,0.47104,-0.0507767,0.187454,0
2024-12-11 19:38:28.720,-1.25683,3.88804,7.80958,0.47104,-0.0507767,0.187454,0
2024-12-11 19:38:28.723,-1.22812,3.91197,7.66601,0.515021,-0.124078,0.196006,0
2024-12-11 19:38:28.725,-1.16351,3.95743,7.5341,0.518686,-0.14668,0.197838,0
2024-12-11 19:38:28.725,-1.16351,3.95743,7.5341,0.518686,-0.14668,0.197838,0
2024-12-11 19:38:28.731,-1.10848,4.06032,7.31635,0.515021,-0.168059,0.193562,0
2024-12-11 19:38:28.731,-1.10848,4.06032,7.31635,0.515021,-0.168059,0.193562,0
2024-12-11 19:38:28.734,-1.06062,4.09382,7.11536,0.506469,-0.168059,0.190508,0
2024-12-11 19:38:28.734,-1.06062,4.09382,7.11536,0.506469,-0.168059,0.190508,0
2024-12-11 19:38:28.737,-1.0654,4.11057,6.98585,0.497917,-0.166838,0.192341,0
2024-12-11 19:38:28.740,-1.06301,4.09861,6.86142,0.465542,-0.155232,0.188675,0
2024-12-11 19:38:28.742,-1.02712,4.10578,6.7681,0.465542,-0.155232,0.188675,0
2024-12-11 19:38:28.744,-1.00798,4.12014,6.67956,0.445995,-0.141793,0.186232,0
2024-12-11 19:38:28.746,-0.984048,4.11775,6.59103,0.420339,-0.122246,0.18501,0
2024-12-11 19:38:28.748,-0.96012,4.10339,6.51446,0.397738,-0.102088,0.182567,0
2024-12-11 19:38:28.751,-0.945763,4.08664,6.44238,0.370861,-0.0770431,0.179513,0
2024-12-11 19:38:28.754,-0.950549,4.0675,6.36581,0.304278,-0.0190126,0.174015,0
2024-12-11 19:38:28.758,-0.948156,4.00768,6.21027,0.267627,0.0109189,0.174015,0
2024-12-11 19:38:28.759,-0.948156,4.00768,6.21027,0.227312,0.0408504,0.172183,0
2024-12-11 19:38:28.760,-0.909871,3.99811,6.16242,0.227312,0.0408504,0.172183,0
2024-12-11 19:38:28.763,-0.88355,4.00289,6.15045,0.185163,0.0683385,0.168517,0
2024-12-11 19:38:28.765,-0.869193,4.01486,6.1337,0.143625,0.0988809,0.165463,0
2024-12-11 19:38:28.767,-0.845265,4.01725,6.10738,0.0965902,0.129423,0.166074,0
2024-12-11 19:38:28.770,-0.775574,4.03161,6.11217,0.0483333,0.158744,0.164852,0
2024-12-11 19:38:28.773,-0.682254,4.05075,6.12174,-0.0494023,0.213109,0.158133,0
2024-12-11 19:38:28.775,-0.576969,4.05793,6.15284,-0.0494023,0.213109,0.158133,0
2024-12-11 19:38:28.778,-0.488435,4.07229,6.22224,-0.0970484,0.239376,0.153246,0
2024-12-11 19:38:28.779,-0.435793,4.07707,6.32034,-0.142862,0.260755,0.146527,0
2024-12-11 19:38:28.782,-0.383151,4.06511,6.50728,-0.189286,0.280303,0.141029,0
2024-12-11 19:38:28.784,-0.354437,4.0675,6.72981,-0.233878,0.299239,0.135532,0
2024-12-11 19:38:28.787,-0.352044,4.08664,6.9356,-0.272972,0.318175,0.128812,0
2024-12-11 19:38:28.788,-0.35683,4.09621,7.14646,-0.308401,0.33589,0.12698,0
2024-12-11 19:38:28.791,-0.380758,4.101,7.37139,-0.342609,0.352383,0.124536,0
2024-12-11 19:38:28.794,-0.395115,4.11296,7.60379,-0.395142,0.381092,0.124536,0
2024-12-11 19:38:28.797,-0.385544,4.13928,7.8359,-0.395142,0.381092,0.124536,0
2024-12-11 19:38:28.798,-0.373579,4.17518,8.05604,-0.417132,0.391477,0.125758,0
2024-12-11 19:38:28.801,-0.359223,4.21615,8.27887,-0.451951,0.403083,0.130645,0
2024-12-11 19:38:28.803,-0.325723,4.27597,8.49901,-0.451951,0.403083,0.130645,0
2024-12-11 19:38:28.807,-0.275175,4.38604,8.91326,-0.465389,0.405526,0.131867,0
2024-12-11 19:38:28.811,-0.241675,4.43869,9.11187,-0.481271,0.404915,0.13431,0
2024-12-11 19:38:28.811,-0.241675,4.43869,9.11187,-0.481271,0.404915,0.13431,0
2024-12-11 19:38:28.813,-0.234497,4.49611,9.29642,-0.477606,0.399418,0.137975,0
2024-12-11 19:38:28.814,-0.232104,4.57029,9.46631,-0.477606,0.399418,0.137975,0
2024-12-11 19:38:28.817,-0.200997,4.62293,9.64337,-0.472719,0.39392,0.14164,0
2024-12-11 19:38:28.822,-0.105284,4.74257,10.0002,-0.466,0.385979,0.142251,0
2024-12-11 19:38:28.825,-0.0191426,4.8003,10.151,-0.439734,0.369486,0.142251,0
2024-12-11 19:38:28.826,0.0550349,4.84816,10.2921,-0.427517,0.359102,0.138586,0
2024-12-11 19:38:28.826,0.0550349,4.84816,10.2921,-0.427517,0.359102,0.138586,0
2024-12-11 19:38:28.830,0.112463,4.88644,10.4073,-0.409191,0.349328,0.133699,0
2024-12-11 19:38:28.831,0.155533,4.93191,10.491,-0.390255,0.337722,0.129423,0
2024-12-11 19:38:28.833,0.205783,4.98216,10.5652,-0.374984,0.324894,0.122704,0
2024-12-11 19:38:28.836,0.253639,5.02523,10.637,-0.353604,0.31451,0.117817,0
2024-12-11 19:38:28.839,0.287438,5.07069,10.6849,-0.317564,0.286411,0.103157,0
2024-12-11 19:38:28.841,0.299402,5.11855,10.716,-0.297406,0.272362,0.0939941,0
2024-12-11 19:38:28.843,0.301795,5.1688,10.7327,-0.297406,0.272362,0.0939941,0
2024-12-11 19:38:28.845,0.289831,5.21905,10.7566,-0.277248,0.257701,0.0872748,0
2024-12-11 19:38:28.848,0.256032,5.27408,10.771,-0.259534,0.245484,0.0793338,0
2024-12-11 19:38:28.850,0.217747,5.32194,10.7877,-0.239987,0.236322,0.0726145,0
2024-12-11 19:38:28.853,0.184247,5.35574,10.8141,-0.22105,0.229602,0.0683385,0
2024-12-11 19:38:28.854,0.133998,5.4012,10.85,-0.19906,0.222883,0.0640626,0
2024-12-11 19:38:28.859,0.00717847,5.47538,10.9385,-0.178291,0.219218,0.0622301,0
2024-12-11 19:38:28.862,-0.0598206,5.48973,10.989,-0.132477,0.22044,0.0622301,0
2024-12-11 19:38:28.862,-0.0598206,5.48973,10.989,-0.132477,0.22044,0.0622301,0
2024-12-11 19:38:28.864,-0.138784,5.52323,11.0273,-0.103157,0.224715,0.0652843,0
2024-12-11 19:38:28.866,-0.222533,5.54955,11.0225,-0.074447,0.235711,0.0695602,0
2024-12-11 19:38:28.869,-0.301795,5.54477,11.0082,-0.0475697,0.247317,0.0707819,0
2024-12-11 19:38:28.871,-0.361615,5.54238,10.9723,-0.0182491,0.260145,0.0768904,0
2024-12-11 19:38:28.874,-0.404686,5.56152,10.9026,0.0391706,0.287633,0.0878856,0
2024-12-11 19:38:28.876,-0.442971,5.59262,10.8188,0.0391706,0.287633,0.0878856,0
2024-12-11 19:38:28.879,-0.483649,5.61416,10.7136,0.085595,0.302293,0.100713,0
2024-12-11 19:38:28.880,-0.557827,5.62852,10.5963,0.085595,0.302293,0.100713,0
2024-12-11 19:38:28.883,-0.663111,5.65723,10.4791,0.105142,0.301682,0.106211,0
2024-12-11 19:38:28.890,-0.890728,5.70269,10.2251,0.138128,0.292519,0.142862,0
2024-12-11 19:38:28.891,-0.996012,5.71227,10.2251,0.138128,0.292519,0.142862,0
2024-12-11 19:38:28.892,-1.1013,5.70269,10.1749,0.144236,0.291909,0.159355,0
2024-12-11 19:38:28.894,-1.15633,5.6668,10.1533,0.144236,0.291909,0.177069,0
2024-12-11 19:38:28.897,-1.10369,5.65484,10.1462,0.143015,0.294963,0.196616,0
2024-12-11 19:38:28.899,-1.00319,5.67637,10.1438,0.143015,0.302904,0.212498,0
2024-12-11 19:38:28.899,-1.00319,5.67637,10.1438,0.143015,0.302904,0.212498,0
2024-12-11 19:38:28.904,-0.972084,5.73859,10.2658,0.127743,0.315121,0.237543,0
2024-12-11 19:38:28.904,-0.972084,5.73859,10.2658,0.127743,0.315121,0.237543,0
2024-12-11 19:38:28.906,-0.938585,5.78405,10.3472,0.121024,0.322451,0.249149,0
2024-12-11 19:38:28.909,-0.902692,5.8008,10.4073,0.113694,0.33589,0.258923,0
2024-12-11 19:38:28.911,-0.890728,5.80798,10.4671,0.10392,0.354215,0.266253,0
2024-12-11 19:38:28.913,-0.909871,5.83191,10.5556,0.0904818,0.373762,0.274194,0
2024-12-11 19:38:28.917,-0.926621,5.8678,10.6729,0.0709346,0.412856,0.287022,0
2024-12-11 19:38:28.921,-0.957727,5.94228,10.8356,0.0709346,0.412856,0.287022,0
2024-12-11 19:38:28.923,-1.00319,5.98056,10.8787,0.0477224,0.456227,0.294963,0
2024-12-11 19:38:28.924,-1.00319,5.98056,10.8787,0.0477224,0.456227,0.294963,0
2024-12-11 19:38:28.925,-1.08455,6.0021,10.9436,0.0330621,0.473941,0.30046,0
2024-12-11 19:38:28.927,-1.1659,6.00688,11.0154,0.021456,0.487991,0.302293,0
2024-12-11 19:38:28.931,-1.24247,6.00449,11.0848,0.00618483,0.498986,0.311456,0
2024-12-11 19:38:28.932,-1.32144,6.0021,11.1661,-0.00908635,0.505705,0.317564,0
2024-12-11 19:38:28.936,-1.39083,5.97817,11.2546,-0.038407,0.50937,0.332835,0
2024-12-11 19:38:28.938,-1.4342,5.94945,11.3815,-0.0487914,0.508149,0.340166,0
2024-12-11 19:38:28.939,-1.49402,5.93988,11.5229,-0.0487914,0.508149,0.340166,0
2024-12-11 19:38:28.942,-1.56341,5.94945,11.6713,-0.058565,0.497764,0.349328,0
2024-12-11 19:38:28.944,-1.63041,5.9662,11.8412,-0.058565,0.497764,0.349328,0
2024-12-11 19:38:28.947,-1.7333,5.97817,11.9776,-0.0762796,0.461724,0.391477,0
2024-12-11 19:38:28.949,-1.87448,5.97578,12.0784,-0.0762796,0.461724,0.391477,0
2024-12-11 19:38:28.951,-1.94626,5.93988,12.1932,-0.0836097,0.446453,0.413467,0
2024-12-11 19:38:28.954,-1.9008,5.91117,12.3823,-0.0836097,0.434236,0.433625,0
2024-12-11 19:38:28.957,-1.81226,5.91835,12.5498,-0.0738362,0.405526,0.471498,0
2024-12-11 19:38:28.958,-1.71416,5.94228,12.6601,-0.0738362,0.405526,0.471498,0
2024-12-11 19:38:28.963,-1.55145,5.89681,12.9688,-0.0573433,0.367043,0.501429,0
2024-12-11 19:38:28.963,-1.55145,5.89681,12.9688,-0.0573433,0.367043,0.501429,0
2024-12-11 19:38:28.966,-1.45813,5.86062,13.0741,-0.0255792,0.328559,0.524641,0
2024-12-11 19:38:28.969,-1.34536,5.79841,13.1483,-0.00725381,0.313288,0.533193,0
2024-12-11 19:38:28.970,-1.22812,5.72902,13.2108,-0.00725381,0.313288,0.533193,0
2024-12-11 19:38:28.972,-1.11805,5.65723,13.2754,0.0116825,0.29985,0.541745,0
2024-12-11 19:38:28.975,-1.0343,5.59023,13.3424,0.0330621,0.286411,0.549075,0
2024-12-11 19:38:28.977,-0.97687,5.55195,13.3854,0.0556635,0.274805,0.555184,0
2024-12-11 19:38:28.979,-0.914656,5.51605,13.3711,0.0770431,0.266253,0.563125,0
2024-12-11 19:38:28.982,-0.835394,5.46581,13.3137,0.0972011,0.257701,0.571677,0
2024-12-11 19:38:28.985,-0.73011,5.43709,13.2515,0.133852,0.25648,0.58817,0
2024-12-11 19:38:28.986,-0.598505,5.44666,13.1794,0.133852,0.25648,0.58817,0
2024-12-11 19:38:28.989,-0.435793,5.48734,13.0693,0.151566,0.261977,0.593667,0
2024-12-11 19:38:28.991,-0.241675,5.5328,12.9401,0.167449,0.266864,0.598554,0
2024-12-11 19:38:28.993,-0.0311067,5.57348,12.8085,0.180887,0.274194,0.598554,0
2024-12-11 19:38:28.997,0.184247,5.61895,12.6697,0.194326,0.281524,0.5955,0
2024-12-11 19:38:28.998,0.395115,5.65245,12.5115,0.204099,0.288244,0.586948,0
2024-12-11 19:38:29.001,0.572184,5.66202,12.3583,0.215705,0.290076,0.57412,0
2024-12-11 19:38:29.003,0.718146,5.65245,12.2172,0.223646,0.287633,0.55946,0
2024-12-11 19:38:29.006,0.82343,5.5998,12.0784,0.237696,0.264421,0.514868,0
2024-12-11 19:38:29.008,0.88355,5.52802,11.9536,0.237696,0.264421,0.514868,0
2024-12-11 19:38:29.011,0.914656,5.44906,11.8436,0.238918,0.216164,0.464778,0
2024-12-11 19:38:29.013,0.917049,5.35334,11.7479,0.235863,0.183178,0.439123,0
2024-12-11 19:38:29.016,0.897907,5.2358,11.6474,0.235863,0.183178,0.439123,0
2024-12-11 19:38:29.018,0.845265,5.11137,11.5564,0.216927,0.102546,0.389033,0
2024-12-11 19:38:29.019,0.794716,4.99891,11.4772,0.216927,0.102546,0.389033,0
2024-12-11 19:38:29.022,0.751645,4.88644,11.4006,0.202267,0.058565,0.363989,0
2024-12-11 19:38:29.024,0.655932,4.7689,11.3408,0.182109,0.0151948,0.341998,0
2024-12-11 19:38:29.026,0.576969,4.6325,11.2786,0.157675,-0.0281753,0.32184,0
2024-12-11 19:38:29.031,0.624826,4.35494,11.2666,0.0990336,-0.104531,0.285189,0
2024-12-11 19:38:29.032,0.624826,4.35494,11.2666,0.0636045,-0.142404,0.266864,0
2024-12-11 19:38:29.033,0.65354,4.21137,11.3145,0.0636045,-0.142404,0.266864,0
2024-12-11 19:38:29.037,0.682254,4.05793,11.4269,-0.0121406,-0.21204,0.232656,0
2024-12-11 19:38:29.039,0.749253,3.90718,11.5684,-0.0121406,-0.21204,0.232656,0
2024-12-11 19:38:29.041,0.833001,3.76122,11.7144,-0.046348,-0.241972,0.21372,0
2024-12-11 19:38:29.043,0.902692,3.61256,11.8603,-0.0854423,-0.266406,0.194173,0
2024-12-11 19:38:29.046,0.952942,3.46421,12.0159,-0.155079,-0.293894,0.15569,0
2024-12-11 19:38:29.048,0.981655,3.3326,12.2028,-0.155079,-0.293894,0.15569,0
2024-12-11 19:38:29.052,1.07737,3.07149,12.6239,-0.217385,-0.301224,0.116595,0
2024-12-11 19:38:29.055,1.13001,2.95902,12.8492,-0.240597,-0.296948,0.0988809,0
2024-12-11 19:38:29.055,1.13001,2.95902,12.8492,-0.240597,-0.296948,0.0988809,0
2024-12-11 19:38:29.058,1.21376,2.8681,13.0478,-0.260145,-0.289007,0.0817772,0
2024-12-11 19:38:29.060,1.32383,2.77956,13.2299,-0.260145,-0.289007,0.0817772,0
2024-12-11 19:38:29.062,1.39561,2.7006,13.4812,-0.283357,-0.255411,0.0451263,0
2024-12-11 19:38:29.064,1.42702,2.61685,13.73,-0.284578,-0.231587,0.0255792,0
2024-12-11 19:38:29.066,1.47009,2.51127,13.9265,-0.280913,-0.202267,0.00847551,0
2024-12-11 19:38:29.069,1.50598,2.41555,14.106,-0.271751,-0.165005,-0.00862822,0
2024-12-11 19:38:29.071,1.53709,2.30548,14.2591,-0.254647,-0.123468,-0.0238994,0
2024-12-11 19:38:29.074,1.57537,2.17627,14.4006,-0.232656,-0.0831516,-0.0379489,0
2024-12-11 19:38:29.077,1.58734,2.04706,14.5011,-0.170961,-0.00740652,-0.0642153,0
2024-12-11 19:38:29.081,1.58734,1.78116,14.5872,-0.170961,-0.00740652,-0.0642153,1
2024-12-11 19:38:29.083,1.56102,1.64716,14.5992,-0.082388,0.0622301,-0.0843733,0
2024-12-11 19:38:29.083,1.56102,1.64716,14.5992,-0.082388,0.0622301,-0.0843733,0
2024-12-11 19:38:29.086,1.51555,1.50838,14.6016,0.0281753,0.121482,-0.0910926,0
2024-12-11 19:38:29.089,1.45334,1.37169,14.5681,0.0904818,0.146527,-0.0917034,0
2024-12-11 19:38:29.091,1.3669,1.23051,14.5226,0.156453,0.169128,-0.0849841,0
2024-12-11 19:38:29.093,1.26879,1.0989,14.4532,0.156453,0.169128,-0.0849841,0
2024-12-11 19:38:29.096,1.17308,0.974477,14.348,0.225479,0.188675,-0.0745997,0
2024-12-11 19:38:29.097,1.08215,0.864407,14.1993,0.296948,0.211888,-0.0642153,0
2024-12-11 19:38:29.100,1.00319,0.758824,14.027,0.371471,0.231435,-0.0507767,0
2024-12-11 19:38:29.102,0.948156,0.651147,13.8188,0.447217,0.24976,-0.0385597,0
2024-12-11 19:38:29.105,0.895514,0.56022,13.5936,0.60115,0.288244,-0.00740652,0
2024-12-11 19:38:29.107,0.82343,0.483649,13.3496,0.60115,0.288244,-0.00740652,0
2024-12-11 19:38:29.109,0.744467,0.421436,13.0717,0.675063,0.304736,0.00786466,0
2024-12-11 19:38:29.112,0.641576,0.385544,12.7893,0.81739,0.335279,0.0329094,0
2024-12-11 19:38:29.115,0.505185,0.378365,12.5091,0.885194,0.348107,0.0445155,0
2024-12-11 19:38:29.116,0.35683,0.366401,12.2411,0.885194,0.348107,0.0445155,0
2024-12-11 19:38:29.119,0.205783,0.347258,11.9608,1.00859,0.367043,0.0707819,0
2024-12-11 19:38:29.122,0.0622134,0.337687,11.633,1.06478,0.377427,0.0829989,0
2024-12-11 19:38:29.123,-0.0789631,0.332901,11.2857,1.06478,0.377427,0.0829989,0
2024-12-11 19:38:29.126,-0.196211,0.328116,10.9361,1.15641,0.392088,0.102546,0
2024-12-11 19:38:29.129,-0.337687,0.320937,10.5676,1.19428,0.395142,0.114152,0
2024-12-11 19:38:29.131,-0.493221,0.308973,10.2084,1.22544,0.395753,0.124536,0
2024-12-11 19:38:29.133,-0.62004,0.289831,9.87099,1.22544,0.395753,0.124536,0
2024-12-11 19:38:29.135,-0.742074,0.287438,9.55484,1.22544,0.395753,0.124536,0
2024-12-11 19:38:29.139,-0.964906,0.22014,8.91566,1.2798,0.374984,0.151414,0
2024-12-11 19:38:29.139,-0.964906,0.22014,8.91566,1.2798,0.374984,0.151414,0
2024-12-11 19:38:29.143,-1.05823,0.179462,8.58515,1.28652,0.35788,0.167907,0
2024-12-11 19:38:29.144,-1.1324,0.157926,8.24776,1.28652,0.35788,0.167907,0
2024-12-11 19:38:29.148,-1.2018,0.165105,7.91486,1.26331,0.349328,0.181345,0
2024-12-11 19:38:29.151,-1.32383,0.184247,7.33071,1.24437,0.344442,0.189286,0
2024-12-11 19:38:29.152,-1.32383,0.184247,7.33071,1.24437,0.344442,0.189286,0
2024-12-11 19:38:29.154,-1.39801,0.227318,7.03639,1.21811,0.339555,0.191119,0
2024-12-11 19:38:29.156,-1.49163,0.285045,6.73939,1.18573,0.333446,0.196006,0
2024-12-11 19:38:29.158,-1.58016,0.332901,6.469,1.14847,0.323673,0.202114,0
2024-12-11 19:38:29.162,-1.65194,0.366401,6.22941,1.10693,0.31451,0.205168,0
2024-12-11 19:38:29.163,-1.71177,0.419043,6.04517,1.05929,0.305958,0.212498,0
2024-12-11 19:38:29.165,-1.78116,0.471685,5.88216,1.0092,0.298017,0.217385,0
2024-12-11 19:38:29.171,-1.86969,0.569791,5.57109,0.844878,0.282746,0.233267,0
2024-12-11 19:38:29.172,-1.89841,0.624826,5.45623,0.844878,0.282746,0.233267,0
2024-12-11 19:38:29.173,-1.89841,0.624826,5.45623,0.844878,0.282746,0.233267,0
2024-12-11 19:38:29.176,-1.91516,0.691825,5.36531,0.725152,0.273583,0.237543,0
2024-12-11 19:38:29.178,-1.91516,0.727717,5.26451,0.725152,0.273583,0.237543,0
2024-12-11 19:38:29.179,-1.92233,0.742074,5.19512,0.665289,0.268696,0.236322,0
2024-12-11 19:38:29.182,-1.93191,0.770788,5.15205,0.604204,0.262588,0.2351,0
2024-12-11 19:38:29.185,-1.96062,0.787538,5.11376,0.540065,0.252204,0.235711,0
2024-12-11 19:38:29.187,-1.98006,0.825823,5.08505,0.478981,0.243041,0.232046,0
2024-12-11 19:38:29.189,-1.9681,0.857229,5.06112,0.414231,0.230213,0.228991,0
2024-12-11 19:38:29.192,-1.95583,0.864407,5.04915,0.351314,0.217996,0.222272,0
2024-12-11 19:38:29.194,-1.95583,0.888335,5.04437,0.290229,0.205168,0.217385,0
2024-12-11 19:38:29.196,-1.9657,0.912264,5.05155,0.226701,0.192341,0.210666,0
2024-12-11 19:38:29.198,-1.98485,0.940978,5.10419,0.164394,0.180124,0.204557,0
2024-12-11 19:38:29.201,-1.98963,0.967299,5.15683,0.105753,0.168517,0.19906,0
2024-12-11 19:38:29.203,-1.98485,0.996012,5.20947,0.0446682,0.150803,0.193562,0
2024-12-11 19:38:29.206,-1.9657,1.00798,5.31715,-0.0121406,0.133088,0.187454,0
2024-12-11 19:38:29.209,-1.94387,1.01755,5.45145,-0.066506,0.114763,0.180124,0
2024-12-11 19:38:29.210,-1.91755,1.04148,5.6022,-0.117206,0.0921616,0.176459,0
2024-12-11 19:38:29.212,-1.88883,1.05105,5.78884,-0.163631,0.0689494,0.169128,0
2024-12-11 19:38:29.215,-1.86491,1.0654,5.98535,-0.207001,0.0457372,0.161798,0
2024-12-11 19:38:29.218,-1.83141,1.09651,6.15763,-0.248538,0.022525,0.156301,0
2024-12-11 19:38:29.220,-1.80509,1.12522,6.35145,-0.279692,0.000534491,0.150803,0
2024-12-11 19:38:29.223,-1.77637,1.14915,6.55753,-0.3365,-0.0452791,0.137975,0
2024-12-11 19:38:29.224,-1.75244,1.17547,6.73939,-0.3365,-0.0452791,0.137975,0
2024-12-11 19:38:29.227,-1.72852,1.21137,6.90928,-0.354826,-0.0623828,0.133699,0
2024-12-11 19:38:29.229,-1.68784,1.24965,7.07229,-0.354826,-0.0623828,0.133699,0
2024-12-11 19:38:29.234,-1.60409,1.30708,7.34507,-0.39392,-0.10331,0.119039,0
2024-12-11 19:38:29.234,-1.60409,1.30708,7.34507,-0.39392,-0.10331,0.119039,0
2024-12-11 19:38:29.239,-1.51316,1.41506,7.56521,-0.403083,-0.120413,0.111709,0
2024-12-11 19:38:29.239,-1.51316,1.41506,7.56521,-0.403083,-0.120413,0.111709,0
2024-12-11 19:38:29.241,-1.45573,1.4677,7.66601,-0.406137,-0.127133,0.108654,0
2024-12-11 19:38:29.244,-1.40788,1.52034,7.75215,-0.407359,-0.134463,0.101324,0
2024-12-11 19:38:29.245,-1.35733,1.57059,7.82154,-0.407359,-0.134463,0.101324,0
2024-12-11 19:38:29.248,-1.29272,1.62562,7.87657,-0.404305,-0.137517,0.0970484,0
2024-12-11 19:38:29.250,-1.22094,1.67348,7.91247,-0.404305,-0.137517,0.0970484,0
2024-12-11 19:38:29.253,-1.1324,1.73809,7.93161,-0.398807,-0.138739,0.0927724,0
2024-12-11 19:38:29.256,-1.05105,1.80269,7.94357,-0.393309,-0.141793,0.0848314,0
2024-12-11 19:38:29.260,-0.964906,1.93669,7.94597,-0.392698,-0.147901,0.0805555,0
2024-12-11 19:38:29.260,-0.964906,1.93669,7.94597,-0.392698,-0.147901,0.0805555,0
2024-12-11 19:38:29.262,-0.933799,2.01595,7.92682,-0.390866,-0.153399,0.0756687,0
2024-12-11 19:38:29.264,-0.902692,2.0686,7.89332,-0.391477,-0.160729,0.0732253,0
2024-12-11 19:38:29.268,-0.878764,2.12842,7.85743,-0.394531,-0.171724,0.0707819,0
2024-12-11 19:38:29.269,-0.837787,2.18824,7.84068,-0.394531,-0.171724,0.0707819,0
2024-12-11 19:38:29.271,-0.804287,2.24566,7.82872,-0.395142,-0.178444,0.0720036,0
2024-12-11 19:38:29.275,-0.801895,2.27677,7.79761,-0.394531,-0.180276,0.0713928,0
2024-12-11 19:38:29.276,-0.782752,2.30309,7.77608,-0.399418,-0.185163,0.074447,0
2024-12-11 19:38:29.278,-0.749253,2.34138,7.78086,-0.400639,-0.188217,0.0781121,0
2024-12-11 19:38:29.281,-0.710967,2.38206,7.77368,-0.403083,-0.188828,0.0817772,0
2024-12-11 19:38:29.283,-0.667897,2.43948,7.7689,-0.407359,-0.187606,0.0860531,0
2024-12-11 19:38:29.285,-0.634397,2.48255,7.79283,-0.407359,-0.185774,0.0921616,0
2024-12-11 19:38:29.289,-0.600898,2.51366,7.81197,-0.405526,-0.183941,0.0970484,0
2024-12-11 19:38:29.294,-0.555434,2.59292,7.83111,-0.406137,-0.174779,0.119039,0
2024-12-11 19:38:29.296,-0.538684,2.62642,7.85025,-0.404305,-0.171724,0.128202,0
2024-12-11 19:38:29.298,-0.514756,2.64556,7.867,-0.398807,-0.16867,0.136753,0
2024-12-11 19:38:29.298,-0.514756,2.64556,7.867,-0.398807,-0.16867,0.136753,0
2024-12-11 19:38:29.300,-0.483649,2.66231,7.87418,-0.398807,-0.16867,0.136753,0
2024-12-11 19:38:29.303,-0.435793,2.68146,7.88854,-0.39392,-0.164394,0.14836,0
2024-12-11 19:38:29.304,-0.390329,2.69821,7.91007,-0.38659,-0.158286,0.156301,0
2024-12-11 19:38:29.307,-0.347258,2.72453,7.90768,-0.380481,-0.148512,0.167907,0
2024-12-11 19:38:29.310,-0.289831,2.7341,7.90768,-0.370708,-0.137517,0.175848,0
2024-12-11 19:38:29.311,-0.244068,2.72692,7.91964,-0.362767,-0.1253,0.185621,0
2024-12-11 19:38:29.314,-0.22014,2.73888,7.94597,-0.352993,-0.113083,0.194173,0
2024-12-11 19:38:29.316,-0.177069,2.75563,7.97707,-0.339555,-0.0996445,0.202725,0
2024-12-11 19:38:29.318,-0.131605,2.76999,7.98664,-0.324284,-0.0843733,0.213109,0
2024-12-11 19:38:29.322,-0.0885344,2.76281,7.99382,-0.296795,-0.049555,0.228991,0
2024-12-11 19:38:29.324,-0.0382852,2.74606,7.99861,-0.280303,-0.0287862,0.236932,0
2024-12-11 19:38:29.327,-0.00717847,2.75803,7.99143,-0.260755,-0.00618483,0.245484,0
2024-12-11 19:38:29.330,0.0550349,2.79631,7.94597,-0.246706,0.0176382,0.252814,0
2024-12-11 19:38:29.331,0.0143569,2.79631,7.94597,-0.246706,0.0176382,0.252814,0
2024-12-11 19:38:29.333,0.119641,2.81785,7.89093,-0.229602,0.0408504,0.260755,0
2024-12-11 19:38:29.335,0.18664,2.84895,7.84307,-0.211888,0.0652843,0.26381,0
2024-12-11 19:38:29.340,0.270389,2.9016,7.74736,-0.181956,0.11232,0.273583,0
2024-12-11 19:38:29.341,0.270389,2.9016,7.74736,-0.166074,0.135532,0.274194,0
2024-12-11 19:38:29.343,0.289831,2.93988,7.70429,-0.152025,0.156301,0.275416,0
2024-12-11 19:38:29.345,0.299402,2.97577,7.64686,-0.152025,0.156301,0.275416,0
2024-12-11 19:38:29.347,0.308973,2.99492,7.56999,-0.139197,0.175237,0.276637,0
2024-12-11 19:38:29.349,0.313759,3.02602,7.51257,-0.130034,0.192341,0.275416,0
2024-12-11 19:38:29.351,0.275175,3.06909,7.45992,-0.116595,0.204557,0.275416,0
2024-12-11 19:38:29.355,0.198604,3.10768,7.41207,-0.0964375,0.227159,0.274194,0
2024-12-11 19:38:29.356,0.122034,3.14118,7.35943,-0.0964375,0.227159,0.274194,0
2024-12-11 19:38:29.358,0.0646062,3.16511,7.31396,-0.0891073,0.235711,0.275416,0
2024-12-11 19:38:29.361,0.0167498,3.18664,7.27807,-0.0768904,0.245484,0.276027,0
2024-12-11 19:38:29.363,-0.0191426,3.22493,7.22303,-0.0652843,0.251593,0.275416,0
2024-12-11 19:38:29.366,-0.0334995,3.25603,7.15604,-0.0567324,0.252814,0.277248,0
2024-12-11 19:38:29.369,-0.0358923,3.24168,7.09861,-0.0390179,0.251593,0.276637,0
2024-12-11 19:38:29.371,-0.0454636,3.22493,7.05314,-0.0316877,0.250371,0.276027,0
2024-12-11 19:38:29.374,-0.0717847,3.22493,7.00977,-0.0231358,0.244263,0.276027,0
2024-12-11 19:38:29.378,-0.141177,3.24168,6.94756,-0.0158057,0.233267,0.276027,0
2024-12-11 19:38:29.378,-0.141177,3.24168,6.94756,-0.0158057,0.233267,0.276027,0
2024-12-11 19:38:29.383,-0.184247,3.28235,6.92363,-0.00175619,0.200892,0.272362,0
2024-12-11 19:38:29.383,-0.184247,3.28235,6.92363,-0.00175619,0.200892,0.272362,0
2024-12-11 19:38:29.387,-0.205783,3.34696,6.94756,0.00801737,0.153857,0.268086,0
2024-12-11 19:38:29.388,-0.205783,3.34696,6.94756,0.0129041,0.128202,0.267475,0
2024-12-11 19:38:29.392,-0.239282,3.47139,6.99781,0.0165692,0.103157,0.26381,0
2024-12-11 19:38:29.394,-0.267996,3.52164,7.03879,0.0245102,0.0768904,0.260145,0
2024-12-11 19:38:29.397,-0.277567,3.55753,7.08186,0.0312296,0.0536782,0.260145,0
2024-12-11 19:38:29.401,-0.313759,3.64876,7.16082,0.0452791,0.00664296,0.24976,0
2024-12-11 19:38:29.402,-0.313759,3.64876,7.16082,0.0562743,-0.0159584,0.243041,0
2024-12-11 19:38:29.403,-0.325723,3.69661,7.20868,0.0562743,-0.0159584,0.243041,0
2024-12-11 19:38:29.403,-0.325723,3.69661,7.20868,0.0562743,-0.0159584,0.243041,0
2024-12-11 19:38:29.407,-0.34008,3.73729,7.23978,0.0684913,-0.0587177,0.229602,0
2024-12-11 19:38:29.409,-0.349651,3.78275,7.25653,0.0684913,-0.0587177,0.229602,0
2024-12-11 19:38:29.410,-0.368794,3.833,7.28764,0.077654,-0.0800973,0.22044,0
2024-12-11 19:38:29.414,-0.385544,3.87607,7.31157,0.0898709,-0.123468,0.198449,0
2024-12-11 19:38:29.415,-0.378365,3.91436,7.33789,0.0898709,-0.123468,0.198449,0
2024-12-11 19:38:29.417,-0.375972,3.94307,7.37617,0.0953685,-0.142404,0.186232,0
2024-12-11 19:38:29.420,-0.375972,3.98854,7.39292,0.0996445,-0.159507,0.171572,0
2024-12-11 19:38:29.422,-0.354437,4.02204,7.39532,0.106364,-0.17539,0.155079,0
2024-12-11 19:38:29.424,-0.34008,4.03639,7.40728,0.105753,-0.190661,0.139808,0
2024-12-11 19:38:29.428,-0.337687,4.06032,7.4336,0.105753,-0.190661,0.139808,0
2024-12-11 19:38:29.432,-0.373579,4.06989,7.5341,0.0965902,-0.239528,0.0939941,0
2024-12-11 19:38:29.434,-0.392722,4.07229,7.60858,0.0886492,-0.251745,0.0799446,0
2024-12-11 19:38:29.434,-0.392722,4.07229,7.60858,0.0886492,-0.251745,0.0799446,0
2024-12-11 19:38:29.436,-0.435793,4.06989,7.6995,0.0770431,-0.26946,0.066506,0
2024-12-11 19:38:29.439,-0.486042,4.06989,7.79043,0.0703238,-0.285953,0.0518457,0
2024-12-11 19:38:29.441,-0.550648,4.05314,7.88854,0.0519984,-0.303667,0.0414613,0
2024-12-11 19:38:29.443,-0.643968,4.04836,8.01536,0.0355055,-0.318939,0.0316877,0
2024-12-11 19:38:29.446,-0.725324,4.0675,8.15205,0.0177909,-0.335431,0.0219141,0
2024-12-11 19:38:29.448,-0.80668,4.06511,8.28605,-0.00236703,-0.351924,0.0164165,0
2024-12-11 19:38:29.450,-0.876371,4.06271,8.42483,-0.0200816,-0.359255,0.0115297,0
2024-12-11 19:38:29.453,-0.952942,4.08903,8.60429,-0.0377962,-0.365974,0.00786466,0
2024-12-11 19:38:29.455,-1.01755,4.11296,8.83669,-0.0597867,-0.367196,0.00603212,0
2024-12-11 19:38:29.458,-1.04865,4.1345,9.06401,-0.0799446,-0.365363,0.00419957,0
2024-12-11 19:38:29.460,-1.06301,4.15843,9.28924,-0.0799446,-0.365363,0.00419957,0
2024-12-11 19:38:29.464,-1.04626,4.26162,9.74866,-0.123926,-0.347038,0.00725381,0
2024-12-11 19:38:29.464,-1.04626,4.26162,9.74866,-0.123926,-0.347038,0.00725381,0
2024-12-11 19:38:29.468,-0.988834,4.32383,10.0026,-0.14164,-0.328101,0.00603212,0
2024-12-11 19:38:29.470,-0.929013,4.40758,10.2515,-0.14164,-0.328101,0.00603212,0
2024-12-11 19:38:29.472,-0.873978,4.50568,10.5006,-0.146527,-0.315884,0.00786466,0
2024-12-11 19:38:29.474,-0.80668,4.61097,10.7447,-0.14897,-0.301224,0.00603212,0
2024-12-11 19:38:29.476,-0.715753,4.72104,10.9531,-0.147749,-0.287785,0.00297788,0
2024-12-11 19:38:29.480,-0.639183,4.84337,11.1446,-0.135532,-0.257854,-0.00557398,0
2024-12-11 19:38:29.481,-0.555434,4.95105,11.324,-0.135532,-0.257854,-0.00557398,0
2024-12-11 19:38:29.483,-0.423829,5.03001,11.5035,-0.129423,-0.241972,-0.0104608,0
2024-12-11 19:38:29.486,-0.241675,5.11855,11.6521,-0.115985,-0.226701,-0.0190126,0
2024-12-11 19:38:29.488,-0.0311067,5.21426,11.7455,-0.106822,-0.213873,-0.0312296,0
2024-12-11 19:38:29.493,0.325723,5.38924,11.8843,-0.0854423,-0.200434,-0.0617719,0
2024-12-11 19:38:29.493,0.325723,5.38924,11.8843,-0.0854423,-0.200434,-0.0617719,0
2024-12-11 19:38:29.495,0.471685,5.43231,11.9034,-0.0762796,-0.201656,-0.0819299,0
2024-12-11 19:38:29.497,0.588933,5.44188,11.8866,-0.0695602,-0.210208,-0.102699,0
2024-12-11 19:38:29.500,0.677468,5.43948,11.8627,-0.0603975,-0.224868,-0.125911,0
2024-12-11 19:38:29.502,0.710967,5.42273,11.846,-0.0579541,-0.244415,-0.147291,0
2024-12-11 19:38:29.506,0.675075,5.39163,11.8651,-0.0591758,-0.299392,-0.186385,0
2024-12-11 19:38:29.508,0.62004,5.35095,11.8699,-0.0640626,-0.331156,-0.204099,0
2024-12-11 19:38:29.509,0.569791,5.3004,11.8723,-0.0640626,-0.331156,-0.204099,0
2024-12-11 19:38:29.513,0.524327,5.25733,11.9082,-0.0817772,-0.403236,-0.236474,0
2024-12-11 19:38:29.514,0.462114,5.20947,11.9465,-0.0817772,-0.403236,-0.236474,0
2024-12-11 19:38:29.517,0.395115,5.1688,11.9776,-0.0921616,-0.437443,-0.249913,0
2024-12-11 19:38:29.519,0.34008,5.14965,12.0183,-0.0921616,-0.437443,-0.249913,0
2024-12-11 19:38:29.521,0.289831,5.13051,12.0736,-0.108654,-0.472872,-0.260297,0
2024-12-11 19:38:29.524,0.270389,5.14008,12.143,-0.135532,-0.541287,-0.279234,0
2024-12-11 19:38:29.527,0.260818,5.14248,12.2459,-0.151414,-0.574884,-0.289007,0
2024-12-11 19:38:29.529,0.263211,5.1329,12.3703,-0.188675,-0.645131,-0.308554,0
2024-12-11 19:38:29.531,0.297009,5.14726,12.5091,-0.188675,-0.645131,-0.308554,0
2024-12-11 19:38:29.534,0.34008,5.15922,12.6434,-0.224715,-0.704383,-0.331766,0
2024-12-11 19:38:29.535,0.371187,5.17597,12.7846,-0.224715,-0.704383,-0.331766,0
2024-12-11 19:38:29.538,0.371187,5.21426,12.9544,-0.239987,-0.730039,-0.346427,0
2024-12-11 19:38:29.542,0.347258,5.25494,13.1076,-0.266253,-0.763635,-0.373304,0
2024-12-11 19:38:29.545,0.224925,5.28604,13.4142,-0.27847,-0.773409,-0.386743,0
2024-12-11 19:38:29.545,0.224925,5.28604,13.4142,-0.27847,-0.773409,-0.386743,0
2024-12-11 19:38:29.548,0.114855,5.24776,13.6008,-0.294352,-0.768522,-0.406901,0
2024-12-11 19:38:29.550,0.107677,5.19751,13.8308,-0.294352,-0.768522,-0.406901,0
2024-12-11 19:38:29.554,0.133998,5.14726,14.1658,-0.301071,-0.741034,-0.427669,0
2024-12-11 19:38:29.554,0.133998,5.14726,14.1658,-0.301071,-0.741034,-0.427669,0
2024-12-11 19:38:29.557,0.0909273,5.10658,14.3145,-0.297406,-0.726374,-0.436221,0
2024-12-11 19:38:29.559,0.0287139,5.04915,14.4652,-0.29313,-0.715379,-0.446606,0
2024-12-11 19:38:29.563,-0.0837488,4.91994,14.7093,-0.272362,-0.675673,-0.451492,0
2024-12-11 19:38:29.563,-0.0837488,4.91994,14.7093,-0.272362,-0.675673,-0.451492,0
2024-12-11 19:38:29.566,-0.145962,4.89362,14.8122,-0.257701,-0.645131,-0.449049,0
2024-12-11 19:38:29.568,-0.191426,4.90319,14.9058,-0.233878,-0.607869,-0.444773,0
2024-12-11 19:38:29.570,-0.234497,4.93669,14.9345,-0.207001,-0.562056,-0.434389,0
2024-12-11 19:38:29.574,-0.270389,5.0013,14.9178,-0.142862,-0.477759,-0.409955,0
2024-12-11 19:38:29.575,-0.301795,5.07548,14.8795,-0.142862,-0.477759,-0.409955,1
2024-12-11 19:38:29.580,-0.265603,5.17119,14.7356,-0.0750579,-0.423394,-0.373915,0
2024-12-11 19:38:29.580,-0.265603,5.17119,14.7356,-0.0750579,-0.423394,-0.373915,0
2024-12-11 19:38:29.582,-0.208176,5.1688,14.6303,-0.0402396,-0.409344,-0.357422,0
2024-12-11 19:38:29.586,-0.100499,5.13051,14.5107,0.0202343,-0.397738,-0.332988,0
2024-12-11 19:38:29.587,0.0478565,5.0659,14.3839,0.0202343,-0.397738,-0.332988,0
2024-12-11 19:38:29.589,0.165105,4.96301,14.2448,0.0465007,-0.39896,-0.325658,0
2024-12-11 19:38:29.592,0.253639,4.84816,14.0892,0.0684913,-0.403236,-0.320771,0
2024-12-11 19:38:29.594,0.328116,4.72343,13.9385,0.0868167,-0.409344,-0.319549,0
2024-12-11 19:38:29.597,0.364008,4.57747,13.8212,0.102699,-0.412398,-0.319549,0
2024-12-11 19:38:29.600,0.375972,4.41715,13.7228,0.111251,-0.416063,-0.318939,0
2024-12-11 19:38:29.601,0.35683,4.22333,13.6582,0.117359,-0.414231,-0.318939,0
2024-12-11 19:38:29.603,0.289831,4.01964,13.6104,0.119802,-0.40629,-0.313441,0
2024-12-11 19:38:29.607,0.217747,3.81625,13.5625,0.117359,-0.397127,-0.307333,0
2024-12-11 19:38:29.608,0.155533,3.62214,13.5434,0.114916,-0.381856,-0.302446,0
2024-12-11 19:38:29.612,0.122034,3.41635,13.5386,0.108807,-0.333599,-0.291451,0
2024-12-11 19:38:29.613,0.112463,3.20578,13.5601,0.112472,-0.361698,-0.291451,0
2024-12-11 19:38:29.615,0.0693919,3.03799,13.6439,0.100866,-0.306722,-0.288396,0
2024-12-11 19:38:29.618,0.0215354,2.89442,13.7566,0.0959794,-0.271293,-0.288396,0
2024-12-11 19:38:29.623,-0.138784,2.60967,14.0486,0.10331,-0.15401,-0.290229,0
2024-12-11 19:38:29.625,-0.138784,2.60967,14.0486,0.10331,-0.15401,-0.290229,0
2024-12-11 19:38:29.626,-0.208176,2.48495,14.2232,0.10331,-0.15401,-0.290229,0
2024-12-11 19:38:29.627,-0.241675,2.37248,14.4102,0.114916,-0.113694,-0.292061,0
2024-12-11 19:38:29.632,-0.212961,2.14517,14.738,0.153399,-0.0184018,-0.303057,0
2024-12-11 19:38:29.633,-0.212961,2.14517,14.738,0.153399,-0.0184018,-0.303057,0
2024-12-11 19:38:29.636,-0.131605,1.95344,14.913,0.224257,0.0933833,-0.324436,0
2024-12-11 19:38:29.639,-0.040678,1.87926,14.9273,0.26946,0.140419,-0.336042,0
2024-12-11 19:38:29.641,-0.040678,1.87926,14.8962,0.26946,0.140419,-0.336042,0
2024-12-11 19:38:29.644,0.0574277,1.7668,14.8265,0.37758,0.248538,-0.365974,0
2024-12-11 19:38:29.647,0.129212,1.68784,14.6949,0.494863,0.334668,-0.402625,0
2024-12-11 19:38:29.647,0.129212,1.68784,14.6949,0.494863,0.334668,-0.402625,0
2024-12-11 19:38:29.648,0.212961,1.61605,14.4891,0.494863,0.334668,-0.402625,0
2024-12-11 19:38:29.652,0.27996,1.56341,14.2113,0.617032,0.362156,-0.438665,0
2024-12-11 19:38:29.653,0.313759,1.52752,13.8763,0.617032,0.362156,-0.438665,0
2024-12-11 19:38:29.655,0.414257,1.48205,13.6008,0.679949,0.373151,-0.454547,0
2024-12-11 19:38:29.658,0.536291,1.41745,13.3472,0.744088,0.384147,-0.47165,0
2024-12-11 19:38:29.661,0.576969,1.35254,12.9999,0.857095,0.352993,-0.504025,0
2024-12-11 19:38:29.662,0.567398,1.29751,12.5785,0.857095,0.352993,-0.504025,0
2024-12-11 19:38:29.665,0.521934,1.24247,12.1071,0.906574,0.313288,-0.515021,0
2024-12-11 19:38:29.667,0.474078,1.18265,11.6521,0.949944,0.261977,-0.526016,0
2024-12-11 19:38:29.670,0.41665,1.11565,11.2522,0.987206,0.20639,-0.530903,0
2024-12-11 19:38:29.672,0.352044,1.05583,10.893,1.01836,0.146527,-0.533957,0
2024-12-11 19:38:29.674,0.270389,1.01276,10.5532,1.04585,0.0854423,-0.530903,0
2024-12-11 19:38:29.676,0.198604,0.964906,10.2323,1.06723,0.022525,-0.526016,0
2024-12-11 19:38:29.679,0.172283,0.924228,9.90688,1.08189,-0.0458899,-0.516242,0
2024-12-11 19:38:29.681,0.138784,0.926621,9.58355,1.09288,-0.11797,-0.504636,0
2024-12-11 19:38:29.685,0.107677,0.929013,9.29163,1.09594,-0.194326,-0.49303,0
2024-12-11 19:38:29.686,0.145962,0.895514,9.07358,1.09594,-0.265184,-0.479591,0
2024-12-11 19:38:29.688,0.20339,0.869193,8.87976,1.08861,-0.33421,-0.463709,0
2024-12-11 19:38:29.691,0.246461,0.878764,8.64736,1.077,-0.398349,-0.449049,0
2024-12-11 19:38:29.695,0.359223,0.936192,8.17358,1.03729,-0.52174,-0.42095,0
2024-12-11 19:38:29.696,0.359223,0.936192,8.17358,1.00614,-0.575494,-0.410566,0
2024-12-11 19:38:29.699,0.4334,0.99362,7.96272,0.969491,-0.618254,-0.39896,0
2024-12-11 19:38:29.701,0.521934,1.04865,7.78804,0.969491,-0.618254,-0.39896,0
2024-12-11 19:38:29.702,0.610469,1.09412,7.66122,0.931008,-0.648796,-0.391019,0
2024-12-11 19:38:29.705,0.667897,1.11565,7.56999,0.888859,-0.671398,-0.383078,0
2024-12-11 19:38:29.708,0.708575,1.14676,7.5006,0.841824,-0.683614,-0.37758,0
2024-12-11 19:38:29.709,0.751645,1.18026,7.45514,0.792345,-0.68789,-0.373915,0
2024-12-11 19:38:29.713,0.787538,1.19222,7.4336,0.68789,-0.673841,-0.365363,0
2024-12-11 19:38:29.714,0.825823,1.18265,7.42403,0.68789,-0.673841,-0.365363,0
2024-12-11 19:38:29.718,0.859622,1.16112,7.40967,0.577938,-0.624973,-0.359255,0
2024-12-11 19:38:29.720,0.9003,1.12522,7.38814,0.524183,-0.588933,-0.358033,0
2024-12-11 19:38:29.722,0.94337,1.09412,7.36182,0.466153,-0.548617,-0.3562,0
2024-12-11 19:38:29.725,0.967299,1.06301,7.3355,0.412398,-0.502804,-0.359255,0
2024-12-11 19:38:29.727,1.0008,1.02473,7.28764,0.357422,-0.453325,-0.361087,0
2024-12-11 19:38:29.728,1.05823,0.996012,7.23978,0.357422,-0.453325,-0.361087,0
2024-12-11 19:38:29.731,1.12283,0.972084,7.21107,0.298781,-0.408733,-0.36353,0
2024-12-11 19:38:29.734,1.17547,0.952942,7.17757,0.185774,-0.309165,-0.373304,0
2024-12-11 19:38:29.738,1.24487,0.905085,7.17278,0.127743,-0.259076,-0.378802,0
2024-12-11 19:38:29.738,1.31665,0.905085,7.17278,0.127743,-0.259076,-0.378802,0
2024-12-11 19:38:29.740,1.3669,0.897907,7.17757,0.073378,-0.21143,-0.384299,0
2024-12-11 19:38:29.742,1.40548,0.895514,7.17039,0.0171801,-0.160729,-0.387964,0
2024-12-11 19:38:29.745,1.41745,0.888335,7.18714,-0.0347419,-0.111251,-0.392851,0
2024-12-11 19:38:29.748,1.41984,0.862014,7.20868,-0.134921,-0.00984991,-0.39896,0
2024-12-11 19:38:29.750,1.40548,0.847657,7.23978,-0.134921,-0.00984991,-0.39896,0
2024-12-11 19:38:29.752,1.38604,0.845265,7.28525,-0.180734,0.0365745,-0.400181,0
2024-12-11 19:38:29.755,1.3669,0.82343,7.34746,-0.260755,0.123315,-0.400181,0
2024-12-11 19:38:29.757,1.33579,0.799502,7.41925,-0.260755,0.123315,-0.400181,0
2024-12-11 19:38:29.759,1.28794,0.782752,7.49582,-0.294963,0.167296,-0.396516,0
2024-12-11 19:38:29.761,1.19462,0.787538,7.57239,-0.320008,0.216164,-0.39224,0
2024-12-11 19:38:29.764,1.11805,0.801895,7.65883,-0.341998,0.265642,-0.389186,0
2024-12-11 19:38:29.766,1.05105,0.804287,7.74018,-0.362156,0.313288,-0.384299,0
2024-12-11 19:38:29.769,0.986441,0.816252,7.79522,-0.377427,0.362767,-0.378191,0
2024-12-11 19:38:29.771,0.938585,0.85005,7.85982,-0.38659,0.40797,-0.372693,0
2024-12-11 19:38:29.773,0.873978,0.88355,7.92443,-0.394531,0.453172,-0.367806,0
2024-12-11 19:38:29.778,0.739681,0.998405,8.03211,-0.390866,0.543578,-0.355589,0
2024-12-11 19:38:29.780,0.694218,1.07737,8.07518,-0.384147,0.585115,-0.350092,0
2024-12-11 19:38:29.781,0.739681,1.07737,8.07518,-0.373151,0.626653,-0.345205,0
2024-12-11 19:38:29.782,0.643968,1.15394,8.09911,-0.373151,0.626653,-0.345205,0
2024-12-11 19:38:29.785,0.533899,1.22094,8.10389,-0.358491,0.66086,-0.340318,0
2024-12-11 19:38:29.787,0.404686,1.29512,8.10629,-0.34322,0.695068,-0.334821,0
2024-12-11 19:38:29.790,0.277567,1.34536,8.12543,-0.322451,0.729886,-0.32749,0
2024-12-11 19:38:29.792,0.138784,1.39561,8.13021,-0.301071,0.762872,-0.317717,0
2024-12-11 19:38:29.795,0.00717847,1.47488,8.068,-0.252204,0.797079,-0.293283,0
2024-12-11 19:38:29.797,-0.0981057,1.56341,7.99621,-0.252204,0.797079,-0.293283,0
2024-12-11 19:38:29.801,-0.27996,1.67109,7.87418,-0.203336,0.812427,-0.265795,0
2024-12-11 19:38:29.804,-0.364008,1.71177,7.80479,-0.176459,0.814259,-0.251745,0
2024-12-11 19:38:29.804,-0.364008,1.71177,7.80479,-0.176459,0.814259,-0.251745,0
2024-12-11 19:38:29.806,-0.442971,1.77159,7.71386,-0.150192,0.809373,-0.236474,0
2024-12-11 19:38:29.811,-0.596112,1.91037,7.51974,-0.124536,0.795247,-0.221203,0
2024-12-11 19:38:29.814,-0.682254,1.97528,7.42164,-0.0683385,0.757985,-0.190661,0
2024-12-11 19:38:29.815,-0.756431,2.04945,7.32353,-0.0683385,0.757985,-0.190661,0
2024-12-11 19:38:29.818,-0.816252,2.11406,7.22543,-0.0139731,0.70362,-0.157675,0
2024-12-11 19:38:29.818,-0.816252,2.11406,7.22543,-0.0139731,0.70362,-0.157675,0
2024-12-11 19:38:29.820,-0.895514,2.17388,7.13211,0.0147367,0.668191,-0.140571,0
2024-12-11 19:38:29.824,-0.972084,2.21456,7.03879,0.0660479,0.582061,-0.105142,0
2024-12-11 19:38:29.826,-1.02473,2.24327,6.9332,0.0917034,0.533804,-0.085595,0
2024-12-11 19:38:29.827,-1.07258,2.27916,6.8351,0.0917034,0.533804,-0.085595,0
2024-12-11 19:38:29.832,-1.15155,2.3677,6.67717,0.118581,0.434236,-0.0477224,0
2024-12-11 19:38:29.833,-1.15155,2.3677,6.67717,0.163173,0.385979,-0.029397,0
2024-12-11 19:38:29.835,-1.1994,2.42991,6.57189,0.163173,0.385979,-0.029397,0
2024-12-11 19:38:29.838,-1.21854,2.47059,6.45703,0.205321,0.294352,0.010308,0
2024-12-11 19:38:29.840,-1.20897,2.50409,6.38016,0.224257,0.25648,0.0268009,0
2024-12-11 19:38:29.841,-1.18265,2.54985,6.31795,0.224257,0.25648,0.0268009,0
2024-12-11 19:38:29.844,-1.12522,2.6001,6.23181,0.242583,0.222272,0.0445155,0
2024-12-11 19:38:29.847,-1.05105,2.65274,6.13849,0.272514,0.161187,0.0738362,0
2024-12-11 19:38:29.849,-0.97687,2.70299,6.02363,0.272514,0.161187,0.0738362,0
2024-12-11 19:38:29.851,-0.905085,2.73649,5.91356,0.28412,0.137975,0.0829989,0
2024-12-11 19:38:29.853,-0.818644,2.77238,5.83191,0.294505,0.116595,0.0915507,0
2024-12-11 19:38:29.856,-0.732503,2.8011,5.73619,0.303057,0.100713,0.100103,0
2024-12-11 19:38:29.860,-0.643968,2.87049,5.56391,0.309165,0.0836097,0.106822,0
2024-12-11 19:38:29.861,-0.643968,2.87049,5.56391,0.311608,0.0829989,0.108044,0
2024-12-11 19:38:29.864,-0.593719,2.88245,5.54238,0.311608,0.0884965,0.109265,0
2024-12-11 19:38:29.865,-0.588933,2.89442,5.48734,0.311608,0.0884965,0.109265,0
2024-12-11 19:38:29.867,-0.60329,2.91117,5.39881,0.313441,0.0970484,0.111709,0
2024-12-11 19:38:29.870,-0.598505,2.94706,5.31237,0.307333,0.104989,0.111098,0
2024-12-11 19:38:29.874,-0.639183,3.01884,5.21426,0.300613,0.131867,0.111098,0
2024-12-11 19:38:29.875,-0.639183,3.01884,5.21426,0.300613,0.131867,0.111098,0
2024-12-11 19:38:29.877,-0.648754,3.04038,5.14965,0.289618,0.145916,0.110487,0
2024-12-11 19:38:29.879,-0.660718,3.08854,5.08983,0.280455,0.164852,0.109876,0
2024-12-11 19:38:29.882,-0.660718,3.13879,5.04198,0.272514,0.18501,0.108044,0
2024-12-11 19:38:29.886,-0.651147,3.22732,4.98694,0.261519,0.203336,0.108654,0
2024-12-11 19:38:29.888,-0.622433,3.28475,5.01326,0.239528,0.243041,0.101935,0
2024-12-11 19:38:29.889,-0.622433,3.28475,5.01326,0.239528,0.243041,0.101935,0
2024-12-11 19:38:29.892,-0.615255,3.32303,4.99651,0.216316,0.282135,0.0939941,0
2024-12-11 19:38:29.893,-0.596112,3.3661,4.96062,0.216316,0.282135,0.0939941,0
2024-12-11 19:38:29.896,-0.553041,3.40439,4.93669,0.202878,0.294352,0.0860531,0
2024-12-11 19:38:29.899,-0.533899,3.44028,4.91755,0.172335,0.305958,0.0695602,0
2024-12-11 19:38:29.901,-0.531506,3.49532,4.90559,0.157064,0.304736,0.0622301,0
2024-12-11 19:38:29.904,-0.56022,3.55514,4.91037,0.137517,0.29985,0.0530674,0
2024-12-11 19:38:29.905,-0.598505,3.61017,4.92712,0.137517,0.29985,0.0530674,0
2024-12-11 19:38:29.910,-0.651147,3.766,4.92951,0.118581,0.292519,0.0432938,0
2024-12-11 19:38:29.912,-0.71336,3.84257,4.95823,0.0782648,0.262588,0.0298552,0
2024-12-11 19:38:29.915,-0.751645,3.89522,5.0348,0.057496,0.244873,0.0255792,0
2024-12-11 19:38:29.917,-0.789931,3.95743,5.10898,0.0391706,0.228381,0.0213033,0
2024-12-11 19:38:29.917,-0.789931,3.95743,5.10898,0.0391706,0.228381,0.0213033,0
2024-12-11 19:38:29.919,-0.835394,4.02204,5.15444,0.0165692,0.209444,0.0194708,0
2024-12-11 19:38:29.921,-0.828216,4.07468,5.19512,-0.00542127,0.187454,0.0200816,0
2024-12-11 19:38:29.924,-0.801895,4.11296,5.27647,-0.0286335,0.164852,0.0182491,0
2024-12-11 19:38:29.926,-0.782752,4.15364,5.39163,-0.0524565,0.140419,0.0158057,0
2024-12-11 19:38:29.929,-0.761217,4.19671,5.50888,-0.0732253,0.119039,0.014584,0
2024-12-11 19:38:29.931,-0.751645,4.24008,5.6333,-0.0952158,0.0970484,0.0109189,0
2024-12-11 19:38:29.933,-0.737288,4.28076,5.77209,-0.117206,0.074447,0.0109189,0
2024-12-11 19:38:29.937,-0.703789,4.32622,5.90878,-0.158744,0.0310769,0.00725381,0
2024-12-11 19:38:29.940,-0.687039,4.35254,6.22463,-0.158744,0.0310769,0.00725381,0
2024-12-11 19:38:29.944,-0.660718,4.37647,6.42563,-0.211277,-0.0318404,0.00603212,0
2024-12-11 19:38:29.945,-0.655932,4.39322,6.62931,-0.211277,-0.0318404,0.00603212,0
2024-12-11 19:38:29.945,-0.655932,4.39322,6.62931,-0.211277,-0.0318404,0.00603212,0
2024-12-11 19:38:29.947,-0.655932,4.42911,6.84467,-0.224715,-0.0471116,0.00664296,0
2024-12-11 19:38:29.951,-0.646361,4.45544,7.05793,-0.250982,-0.0739889,0.00908635,0
2024-12-11 19:38:29.952,-0.648754,4.48654,7.2685,-0.250982,-0.0739889,0.00908635,0
2024-12-11 19:38:29.954,-0.65354,4.51286,7.4671,-0.260145,-0.0849841,0.0133623,0
2024-12-11 19:38:29.957,-0.660718,4.51526,7.67318,-0.266864,-0.0953685,0.0164165,0
2024-12-11 19:38:29.961,-0.684646,4.57268,8.08953,-0.280303,-0.110029,0.0243575,0
2024-12-11 19:38:29.962,-0.672682,4.5344,7.88375,-0.280303,-0.110029,0.0243575,0
2024-12-11 19:38:29.964,-0.706182,4.61097,8.32194,-0.287633,-0.116748,0.0292443,0
2024-12-11 19:38:29.966,-0.732503,4.63011,8.56601,-0.288854,-0.122246,0.0322986,0
2024-12-11 19:38:29.969,-0.751645,4.64447,8.8008,-0.289465,-0.1253,0.0359636,0
2024-12-11 19:38:29.971,-0.766002,4.67797,9.03051,-0.288244,-0.128354,0.0408504,0
2024-12-11 19:38:29.974,-0.787538,4.71625,9.25783,-0.284578,-0.131409,0.0457372,0
2024-12-11 19:38:29.977,-0.821037,4.74018,9.48784,-0.284578,-0.131409,0.0457372,0
2024-12-11 19:38:29.978,-0.862014,4.76411,9.71755,-0.279692,-0.129576,0.0500131,0
2024-12-11 19:38:29.980,-0.893121,4.79312,9.96192,-0.27847,-0.127743,0.0561216,0
2024-12-11 19:38:29.983,-0.924228,4.82184,10.2084,-0.272362,-0.124689,0.0573433,0
2024-12-11 19:38:29.985,-0.964906,4.83619,10.4671,-0.266864,-0.119802,0.0603975,0
2024-12-11 19:38:29.990,-0.998405,4.88166,11.0321,-0.258923,-0.112472,0.0677277,0
2024-12-11 19:38:29.992,-1.00319,4.89841,11.3025,-0.239376,-0.093536,0.0805555,0
2024-12-11 19:38:29.993,-0.998405,4.88166,11.3025,-0.225937,-0.0800973,0.0860531,0
2024-12-11 19:38:29.994,-1.01276,4.91755,11.5588,-0.225937,-0.0800973,0.0860531,0
2024-12-11 19:38:29.997,-1.00319,4.9343,11.7838,-0.214942,-0.0623828,0.0933833,0
2024-12-11 19:38:29.999,-0.991227,4.94626,11.9919,-0.202114,-0.0452791,0.103157,0
2024-12-11 19:38:30.003,-0.974477,4.96541,12.1621,-0.17768,-0.0104608,0.117817,0
2024-12-11 19:38:30.004,-0.945763,4.98694,12.2889,-0.17768,-0.0104608,0.117817,0
2024-12-11 19:38:30.006,-0.933799,4.97498,12.4086,-0.169739,0.00664296,0.125147,0
2024-12-11 19:38:30.009,-0.921835,4.95105,12.533,-0.163631,0.0249684,0.131867,0
2024-12-11 19:38:30.012,-0.907478,4.92951,12.6793,-0.157522,0.0579541,0.146527,0
2024-12-11 19:38:30.013,-0.902692,4.89123,12.8539,-0.157522,0.0579541,0.146527,0
2024-12-11 19:38:30.016,-0.924228,4.8673,13.0262,-0.156911,0.0720036,0.154468,0
2024-12-11 19:38:30.019,-0.962513,4.86012,13.194,-0.158744,0.0860531,0.162409,0
2024-12-11 19:38:30.021,-0.998405,4.86012,13.3878,-0.160576,0.102546,0.172183,0
2024-12-11 19:38:30.023,-1.0343,4.88405,13.5864,-0.161187,0.116595,0.183789,0
2024-12-11 19:38:30.025,-1.05344,4.91516,13.7782,-0.161187,0.132477,0.195395,0
2024-12-11 19:38:30.028,-1.04626,4.93191,13.9792,-0.16302,0.150803,0.208223,0
2024-12-11 19:38:30.030,-1.05344,4.9343,14.1658,-0.162409,0.167907,0.222883,0
2024-12-11 19:38:30.033,-1.05823,4.93191,14.3336,-0.161187,0.18501,0.235711,0
2024-12-11 19:38:30.034,-1.05344,4.92473,14.4915,-0.158133,0.202725,0.246706,0
2024-12-11 19:38:30.038,-1.04148,4.93669,14.6327,-0.15569,0.222272,0.25709,0
2024-12-11 19:38:30.039,-1.05344,4.94387,14.7691,-0.15569,0.222272,0.25709,0
2024-12-11 19:38:30.045,-1.11565,4.89601,15.0159,-0.121482,0.30718,0.294352,0
2024-12-11 19:38:30.046,-1.15872,4.87926,15.1283,-0.121482,0.30718,0.294352,0
2024-12-11 19:38:30.047,-1.11565,4.89601,15.0159,-0.107433,0.326727,0.302293,0
2024-12-11 19:38:30.049,-1.20897,4.88405,15.2264,-0.107433,0.326727,0.302293,0
2024-12-11 19:38:30.051,-1.25922,4.87209,15.3245,-0.0927724,0.35055,0.310845,0
2024-12-11 19:38:30.053,-1.31665,4.87448,15.3939,-0.0732253,0.376816,0.320008,0
2024-12-11 19:38:30.056,-1.3669,4.89601,15.4155,-0.0518457,0.404305,0.32917,0
2024-12-11 19:38:30.059,-1.38126,4.92234,15.4155,-0.00786466,0.469665,0.346885,0
2024-12-11 19:38:30.060,-1.36451,4.96062,15.3676,-0.00786466,0.469665,0.346885,0
2024-12-11 19:38:30.063,-1.30229,5.03719,15.2456,0.0184018,0.511203,0.355437,0
2024-12-11 19:38:30.065,-1.22812,5.14726,15.0446,0.0465007,0.554573,0.364599,0
2024-12-11 19:38:30.068,-1.16351,5.25972,14.8098,0.0770431,0.597943,0.368265,0
2024-12-11 19:38:30.071,-1.07976,5.35095,14.5418,0.131409,0.662082,0.373151,0
2024-12-11 19:38:30.072,-0.981655,5.4012,14.2232,0.131409,0.662082,0.373151,0
2024-12-11 19:38:30.075,-0.862014,5.44666,13.9313,0.152177,0.668801,0.370097,0
2024-12-11 19:38:30.078,-0.727717,5.45623,13.6941,0.183941,0.618712,0.35055,0
2024-12-11 19:38:30.079,-0.63679,5.42513,13.4716,0.183941,0.618712,0.35055,0
2024-12-11 19:38:30.082,-0.598505,5.38206,13.2491,0.193104,0.567401,0.334057,0
2024-12-11 19:38:30.085,-0.588933,5.30519,13.0597,0.194937,0.427517,0.290076,0
2024-12-11 19:38:30.086,-0.643968,5.21187,12.9688,0.194937,0.427517,0.290076,0
2024-12-11 19:38:30.090,-0.830609,5.14726,12.9114,0.189439,0.335279,0.266864,0
2024-12-11 19:38:30.091,-1.10608,5.08744,12.8181,0.178444,0.226548,0.247928,0
2024-12-11 19:38:30.093,-1.38844,5.01566,12.7343,0.163173,0.108654,0.237543,0
2024-12-11 19:38:30.096,-1.65434,4.94387,12.7295,0.142404,-0.0165692,0.229602,0
2024-12-11 19:38:30.098,-1.89601,4.82902,12.8013,0.115526,-0.145458,0.226548,0
2024-12-11 19:38:30.100,-2.08295,4.67558,12.9233,0.0843733,-0.276179,0.231435,0
2024-12-11 19:38:30.103,-2.16192,4.5009,13.0908,0.0501658,-0.403846,0.238765,0
2024-12-11 19:38:30.108,-2.04467,4.034,13.6391,-0.0255792,-0.62253,0.262588,0
2024-12-11 19:38:30.109,-2.04467,4.034,13.6391,-0.0255792,-0.62253,0.262588,0
2024-12-11 19:38:30.110,-1.92473,3.77318,13.9552,-0.0591758,-0.706216,0.274805,0
2024-12-11 19:38:30.112,-1.78355,3.51924,14.2567,-0.0891073,-0.778907,0.287022,0
2024-12-11 19:38:30.116,-1.62562,3.34218,14.5514,-0.132477,-0.871755,0.313899,0
2024-12-11 19:38:30.118,-1.49641,3.22014,14.8914,-0.132477,-0.871755,0.313899,0
2024-12-11 19:38:30.120,-1.36211,3.11486,15.236,-0.14836,-0.884583,0.339555,0
2024-12-11 19:38:30.124,-1.01515,3.02602,15.8991,-0.139808,-0.863814,0.351772,0
2024-12-11 19:38:30.125,-1.01515,3.02602,15.8991,-0.122093,-0.822277,0.362767,0
2024-12-11 19:38:30.126,-0.792323,2.99013,16.1889,-0.122093,-0.822277,0.362767,0
2024-12-11 19:38:30.130,-0.488435,2.91356,16.4258,-0.094605,-0.763635,0.371319,0
2024-12-11 19:38:30.131,-0.12682,2.82263,16.5912,-0.058565,-0.689723,0.374984,0
2024-12-11 19:38:30.133,0.232104,2.70299,16.6893,-0.0151948,-0.606037,0.374984,0
2024-12-11 19:38:30.136,0.574577,2.54985,16.7109,0.0342838,-0.517464,0.368265,1
2024-12-11 19:38:30.138,0.907478,2.37248,16.6463,0.0898709,-0.417896,0.360324,0
2024-12-11 19:38:30.140,1.1994,2.18106,16.5,0.149123,-0.31283,0.347496,0
2024-12-11 19:38:30.144,1.41266,1.98485,16.2823,0.277401,-0.0929251,0.320618,0
2024-12-11 19:38:30.145,1.56341,1.79551,15.9927,0.277401,-0.0929251,0.320618,0
2024-12-11 19:38:30.148,1.66869,1.60887,15.6479,0.342762,0.0170274,0.304736,0
2024-12-11 19:38:30.151,1.68305,1.43659,15.2456,0.405679,0.129423,0.29313,0
2024-12-11 19:38:30.152,1.61366,1.29272,14.7858,0.465542,0.235711,0.283968,0
2024-12-11 19:38:30.155,1.48445,1.17787,14.2926,0.524183,0.337111,0.277859,0
2024-12-11 19:38:30.157,1.28554,1.0989,13.7614,0.57916,0.425684,0.275416,0
2024-12-11 19:38:30.159,1.0343,1.05583,13.2084,0.626195,0.501429,0.279081,0
2024-12-11 19:38:30.163,0.775574,1.03669,12.6721,0.705605,0.611993,0.298628,0
2024-12-11 19:38:30.164,0.536291,1.05105,12.1525,0.705605,0.611993,0.298628,0
2024-12-11 19:38:30.166,0.325723,1.07976,11.6426,0.736758,0.643757,0.310234,0
2024-12-11 19:38:30.169,0.141177,1.11087,11.1254,0.761192,0.659639,0.327949,0
2024-12-11 19:38:30.171,-0.0358923,1.14197,10.6059,0.779517,0.663915,0.345663,0
2024-12-11 19:38:30.173,-0.212961,1.15633,10.1151,0.792345,0.657195,0.363378,0
2024-12-11 19:38:30.176,-0.371187,1.17787,9.6697,0.798454,0.637648,0.381092,0
2024-12-11 19:38:30.178,-0.514756,1.21376,9.2677,0.797232,0.607106,0.400029,0
2024-12-11 19:38:30.181,-0.643968,1.24726,8.89651,0.793567,0.565568,0.4153,0
2024-12-11 19:38:30.183,-0.751645,1.28076,8.56122,0.78135,0.514257,0.427517,0
2024-12-11 19:38:30.186,-0.85005,1.29272,8.25255,0.747143,0.402472,0.449507,0
2024-12-11 19:38:30.188,-0.931406,1.31904,7.94357,0.747143,0.402472,0.449507,0
2024-12-11 19:38:30.191,-1.01515,1.38604,7.63968,0.72393,0.339555,0.456227,0
2024-12-11 19:38:30.192,-1.11087,1.46052,7.36182,0.696442,0.276637,0.460502,0
2024-12-11 19:38:30.195,-1.19222,1.52034,7.13929,0.667732,0.217385,0.462946,0
2024-12-11 19:38:30.197,-1.28315,1.58255,6.97867,0.634747,0.159355,0.466611,0
2024-12-11 19:38:30.203,-1.46052,1.72373,6.75853,0.563888,0.0536782,0.463557,0
2024-12-11 19:38:30.204,-1.51795,1.77159,6.6676,0.524183,0.010308,0.461113,0
2024-12-11 19:38:30.204,-1.51795,1.77159,6.6676,0.524183,0.010308,0.461113,0
2024-12-11 19:38:30.206,-1.55862,1.79791,6.59582,0.481424,-0.0312296,0.459281,0
2024-12-11 19:38:30.210,-1.56341,1.79312,6.56232,0.388575,-0.0953685,0.445842,0
2024-12-11 19:38:30.211,-1.53709,1.78594,6.54796,0.388575,-0.0953685,0.445842,0
2024-12-11 19:38:30.214,-1.48923,1.78116,6.53121,0.340318,-0.11797,0.434236,0
2024-12-11 19:38:30.216,-1.42941,1.76441,6.53121,0.289007,-0.135074,0.42263,0
2024-12-11 19:38:30.218,-1.33579,1.74048,6.54796,0.238307,-0.147901,0.409191,0
2024-12-11 19:38:30.221,-1.22094,1.71416,6.56232,0.183941,-0.153399,0.390866,0
2024-12-11 19:38:30.223,-1.11087,1.68784,6.60778,0.127133,-0.153399,0.37193,0
2024-12-11 19:38:30.225,-0.979263,1.63998,6.6676,0.0709346,-0.152177,0.349939,0
2024-12-11 19:38:30.229,-0.85005,1.59212,6.69631,-0.0451263,-0.130798,0.302904,0
2024-12-11 19:38:30.232,-0.732503,1.57059,6.91645,-0.101324,-0.115526,0.280303,0
2024-12-11 19:38:30.233,-0.641576,1.52991,6.91645,-0.101324,-0.115526,0.280303,0
2024-12-11 19:38:30.235,-0.579362,1.47488,7.09143,-0.159355,-0.0990336,0.255258,0
2024-12-11 19:38:30.237,-0.50997,1.41984,7.22064,-0.210055,-0.0800973,0.235711,0
2024-12-11 19:38:30.243,-0.442971,1.3669,7.32593,-0.308401,-0.033673,0.195395,0
2024-12-11 19:38:30.244,-0.289831,1.30469,7.56521,-0.35055,-0.00984991,0.176459,0
2024-12-11 19:38:30.244,-0.289831,1.30469,7.56521,-0.35055,-0.00984991,0.176459,0
2024-12-11 19:38:30.246,-0.210568,1.27837,7.69472,-0.391477,0.0158057,0.157522,0
2024-12-11 19:38:30.249,-0.122034,1.28315,7.82154,-0.426906,0.0414613,0.136753,0
2024-12-11 19:38:30.251,-0.040678,1.30229,7.934,-0.462335,0.0652843,0.118428,0
2024-12-11 19:38:30.254,0.0478565,1.31186,8.04646,-0.488601,0.0884965,0.0976592,0
2024-12-11 19:38:30.258,0.16989,1.36451,8.25015,-0.528917,0.134921,0.0567324,0
2024-12-11 19:38:30.258,0.124427,1.32861,8.16162,-0.528917,0.134921,0.0567324,0
2024-12-11 19:38:30.261,0.196211,1.4004,8.31954,-0.544799,0.153857,0.0371853,0
2024-12-11 19:38:30.263,0.217747,1.43659,8.38415,-0.554573,0.173404,0.0170274,0
2024-12-11 19:38:30.268,0.244068,1.48923,8.46072,-0.564957,0.210055,-0.0122933,0
2024-12-11 19:38:30.269,0.234497,1.48923,8.46072,-0.564957,0.210055,-0.0122933,0
2024-12-11 19:38:30.271,0.246461,1.52034,8.49183,-0.561292,0.233267,-0.0391706,0
2024-12-11 19:38:30.273,0.229711,1.55145,8.53251,-0.561292,0.233267,-0.0391706,0
2024-12-11 19:38:30.276,0.196211,1.57059,8.55165,-0.553962,0.239376,-0.049555,0
2024-12-11 19:38:30.277,0.174676,1.59452,8.58036,-0.540523,0.243041,-0.0562743,0
2024-12-11 19:38:30.279,0.153141,1.62323,8.6019,-0.527085,0.243652,-0.0599394,0
2024-12-11 19:38:30.283,0.12682,1.65434,8.6019,-0.487991,0.243652,-0.0636045,0
2024-12-11 19:38:30.285,0.114855,1.69262,8.59951,-0.487991,0.243652,-0.0636045,0
2024-12-11 19:38:30.287,0.11007,1.72373,8.59233,-0.461724,0.241208,-0.0611611,0
2024-12-11 19:38:30.292,0.0287139,1.79791,8.58993,-0.367043,0.225326,-0.0477224,0
2024-12-11 19:38:30.294,0.00239282,1.83859,8.57318,-0.367043,0.225326,-0.0477224,0
2024-12-11 19:38:30.294,0.00239282,1.83859,8.57318,-0.367043,0.225326,-0.0477224,0
2024-12-11 19:38:30.298,-0.040678,1.89841,8.53011,-0.292519,0.202114,-0.0312296,0
2024-12-11 19:38:30.299,-0.040678,1.89841,8.53011,-0.252204,0.192341,-0.0196235,0
2024-12-11 19:38:30.302,-0.0598206,1.92951,8.5014,-0.252204,0.192341,-0.0196235,0
2024-12-11 19:38:30.303,-0.0693919,1.95105,8.46551,-0.207612,0.182567,-0.00923906,0
2024-12-11 19:38:30.306,-0.0598206,1.99681,8.4009,-0.16302,0.172183,0.00542127,0
2024-12-11 19:38:30.308,-0.0693919,2.03749,8.31954,-0.117206,0.161798,0.0188599,0
2024-12-11 19:38:30.310,-0.0789631,2.05902,8.21905,-0.0701711,0.153857,0.0298552,0
2024-12-11 19:38:30.313,-0.0693919,2.08774,8.135,-0.022525,0.145916,0.046348,0
2024-12-11 19:38:30.315,-0.0717847,2.10927,8.02732,0.0220669,0.144084,0.0616192,0
2024-12-11 19:38:30.318,-0.0741775,2.13081,7.87418,0.0636045,0.142251,0.0762796,0
2024-12-11 19:38:30.319,-0.0837488,2.15952,7.7019,0.106975,0.139808,0.0927724,0
2024-12-11 19:38:30.322,-0.105284,2.20259,7.52214,0.145458,0.134921,0.107433,0
2024-12-11 19:38:30.325,-0.124427,2.22891,7.37617,0.213873,0.127591,0.137975,0
2024-12-11 19:38:30.327,-0.145962,2.22652,7.23978,0.213873,0.127591,0.137975,0
2024-12-11 19:38:30.331,-0.193819,2.2337,6.91645,0.276179,0.122093,0.166685,0
2024-12-11 19:38:30.331,-0.193819,2.2337,6.91645,0.276179,0.122093,0.166685,0
2024-12-11 19:38:30.334,-0.227318,2.22174,6.76331,0.301224,0.11965,0.180124,0
2024-12-11 19:38:30.337,-0.260818,2.22413,6.60778,0.342762,0.114763,0.207001,0
2024-12-11 19:38:30.338,-0.287438,2.22891,6.44477,0.342762,0.114763,0.207001,0
2024-12-11 19:38:30.341,-0.32333,2.23609,6.27966,0.361698,0.114152,0.219218,0
2024-12-11 19:38:30.343,-0.35683,2.24088,6.12413,0.376969,0.111709,0.229602,0
2024-12-11 19:38:30.346,-0.366401,2.23849,5.97817,0.386743,0.108044,0.243041,0
2024-12-11 19:38:30.349,-0.373579,2.22891,5.85584,0.395905,0.106822,0.253425,0
2024-12-11 19:38:30.352,-0.34008,2.19541,5.64527,0.400181,0.103768,0.262588,0
2024-12-11 19:38:30.355,-0.294616,2.17388,5.55195,0.40629,0.0994917,0.272362,0
2024-12-11 19:38:30.355,-0.294616,2.17388,5.55195,0.40629,0.0994917,0.272362,0
2024-12-11 19:38:30.357,-0.263211,2.17388,5.45863,0.403846,0.0976592,0.277859,0
2024-12-11 19:38:30.360,-0.253639,2.17627,5.35574,0.395295,0.0958267,0.279081,0
2024-12-11 19:38:30.362,-0.253639,2.18345,5.27887,0.388575,0.094605,0.277248,0
2024-12-11 19:38:30.364,-0.267996,2.21216,5.2023,0.381856,0.094605,0.274194,0
2024-12-11 19:38:30.367,-0.292223,2.2337,5.12812,0.369639,0.0970484,0.272972,0
2024-12-11 19:38:30.369,-0.308973,2.25524,5.07069,0.354368,0.0976592,0.27114,0
2024-12-11 19:38:30.374,-0.320937,2.33659,4.96541,0.323215,0.0982701,0.26381,0
2024-12-11 19:38:30.374,-0.320937,2.33659,4.96541,0.323215,0.0982701,0.26381,0
2024-12-11 19:38:30.376,-0.337687,2.3677,4.94387,0.307333,0.101935,0.257701,0
2024-12-11 19:38:30.379,-0.352044,2.40598,4.93909,0.290229,0.102546,0.253425,0
2024-12-11 19:38:30.382,-0.364008,2.4347,4.93909,0.254189,0.109876,0.239376,0
2024-12-11 19:38:30.384,-0.371187,2.45384,4.96301,0.254189,0.109876,0.239376,0
2024-12-11 19:38:30.385,-0.366401,2.47537,5.0013,0.254189,0.109876,0.239376,0
2024-12-11 19:38:30.388,-0.368794,2.5017,5.0348,0.22609,0.122093,0.223494,0
2024-12-11 19:38:30.390,-0.371187,2.52832,5.0683,0.208375,0.128812,0.213109,0
2024-12-11 19:38:30.393,-0.373579,2.55942,5.09223,0.195547,0.136753,0.204557,0
2024-12-11 19:38:30.396,-0.3999,2.58574,5.11137,0.183941,0.145916,0.192341,0
2024-12-11 19:38:30.397,-0.440578,2.60967,5.1329,0.169892,0.156301,0.183178,0
2024-12-11 19:38:30.400,-0.498006,2.65035,5.16162,0.158286,0.165463,0.172183,0
2024-12-11 19:38:30.402,-0.550648,2.67906,5.18555,0.149123,0.171572,0.162409,0
2024-12-11 19:38:30.404,-0.593719,2.70778,5.20708,0.138128,0.174626,0.152635,0
2024-12-11 19:38:30.407,-0.641576,2.73888,5.24297,0.128965,0.17768,0.142251,0
2024-12-11 19:38:30.409,-0.679861,2.75803,5.28126,0.121024,0.180734,0.132477,0
2024-12-11 19:38:30.411,-0.696611,2.79153,5.31237,0.113694,0.180124,0.121482,0
2024-12-11 19:38:30.414,-0.706182,2.83699,5.35095,0.105142,0.17768,0.11232,0
2024-12-11 19:38:30.417,-0.701396,2.88245,5.38445,0.0874275,0.167907,0.0891073,0
2024-12-11 19:38:30.419,-0.679861,2.94227,5.39881,0.0874275,0.167907,0.0891073,0
2024-12-11 19:38:30.421,-0.65354,3.01167,5.39641,0.0727672,0.159966,0.0775012,0
2024-12-11 19:38:30.423,-0.641576,3.09571,5.39881,0.0623828,0.14897,0.0640626,0
2024-12-11 19:38:30.425,-0.615255,3.16032,5.42273,0.0489441,0.133699,0.0475697,0
2024-12-11 19:38:30.429,-0.610469,3.23928,5.45863,0.0159584,0.0909399,0.0158057,0
2024-12-11 19:38:30.431,-0.641576,3.32782,5.51127,0.0159584,0.0909399,0.0158057,0
2024-12-11 19:38:30.433,-0.675075,3.40917,5.5687,-0.00175619,0.0646735,0.000534491,0
2024-12-11 19:38:30.435,-0.725324,3.50249,5.6333,-0.00175619,0.0646735,0.000534491,0
2024-12-11 19:38:30.440,-0.835394,3.67029,5.80559,-0.0555107,-0.0275645,-0.0434465,0
2024-12-11 19:38:30.440,-0.835394,3.67029,5.80559,-0.0555107,-0.0275645,-0.0434465,0
2024-12-11 19:38:30.443,-0.914656,3.74447,5.92553,-0.0933833,-0.0880384,-0.0660479,0
2024-12-11 19:38:30.445,-0.967299,3.81386,6.0332,-0.0933833,-0.0880384,-0.0660479,0
2024-12-11 19:38:30.447,-1.01276,3.89043,6.16242,-0.11232,-0.121024,-0.0782648,0
2024-12-11 19:38:30.449,-1.03908,3.95743,6.31795,-0.126369,-0.155842,-0.0904818,0
2024-12-11 19:38:30.451,-1.06301,4.01486,6.47857,-0.143473,-0.193104,-0.101477,0
2024-12-11 19:38:30.455,-1.10369,4.07946,6.65324,-0.158744,-0.232809,-0.112472,0
2024-12-11 19:38:30.456,-1.13719,4.13928,6.84945,-0.174015,-0.271293,-0.122246,0
2024-12-11 19:38:30.458,-1.15872,4.1991,7.06272,-0.188675,-0.310387,-0.135074,0
2024-12-11 19:38:30.461,-1.17308,4.25444,7.28046,-0.199671,-0.345205,-0.144847,0
2024-12-11 19:38:30.463,-1.19462,4.31426,7.50778,-0.210666,-0.382467,-0.154621,0
2024-12-11 19:38:30.466,-1.19462,4.3669,7.72343,-0.22105,-0.413009,-0.168059,0
2024-12-11 19:38:30.469,-1.1659,4.41236,7.96032,-0.232656,-0.439276,-0.177222,0
2024-12-11 19:38:30.470,-1.12522,4.46022,8.19512,-0.239987,-0.464931,-0.188217,0
2024-12-11 19:38:30.473,-1.08455,4.49611,8.43679,-0.248538,-0.486922,-0.202267,0
2024-12-11 19:38:30.475,-1.03908,4.52722,8.6689,-0.258923,-0.504636,-0.214484,0
2024-12-11 19:38:30.478,-0.979263,4.54636,8.86062,-0.279081,-0.537622,-0.243194,0
2024-12-11 19:38:30.480,-0.885943,4.57029,9.07119,-0.279081,-0.537622,-0.243194,0
2024-12-11 19:38:30.482,-0.768395,4.61815,9.29163,-0.289465,-0.549839,-0.261519,0
2024-12-11 19:38:30.484,-0.665504,4.66361,9.49741,-0.302293,-0.556558,-0.27679,0
2024-12-11 19:38:30.489,-0.483649,4.73779,9.9332,-0.32184,-0.55045,-0.311608,0
2024-12-11 19:38:30.491,-0.483649,4.73779,10.1222,-0.329781,-0.541287,-0.329323,0
2024-12-11 19:38:30.491,-0.387936,4.77398,10.1222,-0.329781,-0.541287,-0.329323,0
2024-12-11 19:38:30.495,-0.292223,4.79552,10.2945,-0.349328,-0.513799,-0.367806,0
2024-12-11 19:38:30.499,-0.210568,4.81227,10.6298,-0.360324,-0.502193,-0.383688,0
2024-12-11 19:38:30.500,-0.131605,4.81227,10.6298,-0.360324,-0.502193,-0.383688,0
2024-12-11 19:38:30.501,-0.0598206,4.80748,10.7806,-0.369486,-0.490587,-0.402014,0
2024-12-11 19:38:30.504,-0.00239282,4.79073,10.9289,-0.395142,-0.469207,-0.436832,0
2024-12-11 19:38:30.506,0.026321,4.78834,11.0967,-0.395142,-0.469207,-0.436832,0
2024-12-11 19:38:30.509,0.0382852,4.82184,11.2714,-0.404305,-0.459433,-0.452103,0
2024-12-11 19:38:30.510,0.0574277,4.86251,11.4389,-0.415911,-0.452714,-0.46432,0
2024-12-11 19:38:30.513,0.0741775,4.88405,11.6115,-0.415911,-0.452714,-0.46432,0
2024-12-11 19:38:30.515,0.0981057,4.91276,11.7814,-0.427517,-0.444162,-0.476537,0
2024-12-11 19:38:30.517,0.124427,4.95344,11.9536,-0.441566,-0.426448,-0.496084,0
2024-12-11 19:38:30.520,0.157926,4.99412,12.143,-0.445231,-0.420339,-0.502804,0
2024-12-11 19:38:30.523,0.200997,5.02523,12.3464,-0.448896,-0.413009,-0.51441,0
2024-12-11 19:38:30.524,0.253639,5.05873,12.5306,-0.448896,-0.413009,-0.51441,0
2024-12-11 19:38:30.527,0.325723,5.09462,12.7032,-0.44401,-0.408733,-0.518686,0
2024-12-11 19:38:30.531,0.421436,5.09462,13.0238,-0.436069,-0.402014,-0.528459,0
2024-12-11 19:38:30.531,0.421436,5.09462,13.0238,-0.436069,-0.402014,-0.528459,0
2024-12-11 19:38:30.535,0.447757,5.10419,13.1964,-0.418965,-0.395905,-0.532735,0
2024-12-11 19:38:30.536,0.457328,5.10898,13.3735,-0.418965,-0.395905,-0.532735,0
2024-12-11 19:38:30.540,0.45015,5.10658,13.5458,-0.405526,-0.395295,-0.532735,0
2024-12-11 19:38:30.541,0.447757,5.08983,13.73,-0.392698,-0.394073,-0.535179,0
2024-12-11 19:38:30.543,0.445364,5.06351,13.917,-0.376206,-0.395905,-0.531513,0
2024-12-11 19:38:30.546,0.435793,5.05155,14.0916,-0.360324,-0.394684,-0.52907,0
2024-12-11 19:38:30.551,0.421436,5.06351,14.2615,-0.340776,-0.392851,-0.526016,0
2024-12-11 19:38:30.554,0.3999,5.07787,14.5849,-0.301071,-0.390408,-0.510745,0
2024-12-11 19:38:30.554,0.3999,5.07787,14.5849,-0.301071,-0.390408,-0.510745,0
2024-12-11 19:38:30.555,0.3999,5.08505,14.7045,-0.277248,-0.389186,-0.508301,0
2024-12-11 19:38:30.560,0.409472,5.08744,14.8866,-0.228991,-0.393462,-0.49303,0
2024-12-11 19:38:30.561,0.404686,5.09701,14.8866,-0.202725,-0.392851,-0.484478,0
2024-12-11 19:38:30.563,0.402293,5.07787,14.9704,-0.202725,-0.392851,-0.484478,0
2024-12-11 19:38:30.564,0.392722,5.04915,15.0326,-0.172793,-0.391019,-0.47837,0
2024-12-11 19:38:30.567,0.380758,5.01087,15.09,-0.144694,-0.389186,-0.47104,0
2024-12-11 19:38:30.569,0.366401,4.97258,15.1666,-0.114152,-0.383688,-0.462488,1
2024-12-11 19:38:30.572,0.349651,4.95583,15.2336,-0.0836097,-0.378191,-0.456379,0
2024-12-11 19:38:30.574,0.337687,4.9343,15.2432,-0.0494023,-0.37025,-0.445995,0
2024-12-11 19:38:30.576,0.320937,4.91755,15.2169,-0.0170274,-0.361087,-0.434389,0
2024-12-11 19:38:30.580,0.320937,4.95105,15.181,0.0196235,-0.348259,-0.424004,0
2024-12-11 19:38:30.581,0.347258,5.02762,15.0853,0.0556635,-0.335431,-0.415452,0
2024-12-11 19:38:30.583,0.411865,5.13769,14.9178,0.0910926,-0.314663,-0.410566,0
2024-12-11 19:38:30.587,0.512363,5.29562,14.6997,0.124078,-0.292061,-0.404457,0
2024-12-11 19:38:30.588,0.608076,5.48016,14.4365,0.155232,-0.273125,-0.40629,0
2024-12-11 19:38:30.590,0.687039,5.64766,14.1419,0.183941,-0.257854,-0.407511,0
2024-12-11 19:38:30.593,0.74686,5.78884,13.8308,0.203488,-0.253578,-0.411787,0
2024-12-11 19:38:30.596,0.809073,5.88216,13.5242,0.23342,-0.286564,-0.432556,0
2024-12-11 19:38:30.600,0.94337,5.87498,13.0071,0.237696,-0.319549,-0.444773,0
2024-12-11 19:38:30.601,0.873978,5.87498,13.0071,0.232809,-0.365974,-0.463099,0
2024-12-11 19:38:30.605,1.01515,5.65962,12.5737,0.224257,-0.419118,-0.482646,0
2024-12-11 19:38:30.605,1.08215,5.65962,12.5737,0.224257,-0.419118,-0.482646,0
2024-12-11 19:38:30.607,1.16112,5.50888,12.4134,0.207764,-0.476537,-0.504636,0
2024-12-11 19:38:30.609,1.23769,5.34856,12.2865,0.18272,-0.537622,-0.527848,0
2024-12-11 19:38:30.613,1.28076,5.2023,12.1645,0.119802,-0.648796,-0.578549,0
2024-12-11 19:38:30.614,1.30708,5.05155,12.0808,0.119802,-0.648796,-0.578549,0
2024-12-11 19:38:30.617,1.33579,4.90798,12.0446,0.0800973,-0.692777,-0.604815,0
2024-12-11 19:38:30.619,1.34776,4.75454,12.0446,0.0391706,-0.727595,-0.628027,0
2024-12-11 19:38:30.621,1.3669,4.56072,12.0712,-0.00725381,-0.75264,-0.649407,0
2024-12-11 19:38:30.624,1.41984,4.35972,12.0664,-0.0518457,-0.768522,-0.670176,0
2024-12-11 19:38:30.626,1.43898,4.18475,12.1095,-0.101935,-0.771576,-0.68789,0
2024-12-11 19:38:30.630,1.37886,3.88564,12.3009,-0.190508,-0.747753,-0.70927,0
2024-12-11 19:38:30.631,1.37886,3.88564,12.3009,-0.190508,-0.747753,-0.70927,0
2024-12-11 19:38:30.633,1.32383,3.78515,12.4445,-0.227159,-0.712324,-0.712935,0
2024-12-11 19:38:30.635,1.20419,3.62931,12.5474,-0.262588,-0.657348,-0.717211,0
2024-12-11 19:38:30.637,1.06062,3.42114,12.6215,-0.29985,-0.599928,-0.719654,0
2024-12-11 19:38:30.640,0.9003,3.21296,12.7965,-0.332835,-0.54373,-0.718433,0
2024-12-11 19:38:30.642,0.739681,3.0021,13.0573,-0.355437,-0.488754,-0.715989,0
2024-12-11 19:38:30.646,0.632004,2.77717,13.2706,-0.387812,-0.3562,-0.705605,0
2024-12-11 19:38:30.648,0.576969,2.55703,13.4118,-0.387812,-0.3562,-0.705605,0
2024-12-11 19:38:30.652,0.493221,2.14517,13.7566,-0.396974,-0.198602,-0.693999,0
2024-12-11 19:38:30.653,0.493221,2.14517,13.7566,-0.391477,-0.114305,-0.691555,0
2024-12-11 19:38:30.655,0.440578,1.95344,13.9696,-0.382314,-0.0257319,-0.686669,0
2024-12-11 19:38:30.657,0.3999,1.78355,14.1562,-0.365821,0.0683385,-0.679339,0
2024-12-11 19:38:30.659,0.35683,1.63759,14.324,-0.365821,0.0683385,-0.679339,0
2024-12-11 19:38:30.662,0.292223,1.52034,14.4915,-0.315732,0.265031,-0.663456,0
2024-12-11 19:38:30.663,0.222533,1.4342,14.604,-0.315732,0.265031,-0.663456,0
2024-12-11 19:38:30.666,0.177069,1.38365,14.671,-0.2858,0.369486,-0.653072,0
2024-12-11 19:38:30.668,0.153141,1.38126,14.7045,-0.247928,0.472719,-0.642688,0
2024-12-11 19:38:30.670,0.148355,1.40279,14.6997,-0.205168,0.573509,-0.631082,0
2024-12-11 19:38:30.673,0.181855,1.43659,14.6399,-0.157522,0.669412,-0.621308,0
2024-12-11 19:38:30.676,0.248854,1.48923,14.5011,-0.106822,0.752487,-0.616421,0
2024-12-11 19:38:30.678,0.337687,1.51795,14.2854,-0.0573433,0.824033,-0.612145,0
2024-12-11 19:38:30.681,0.414257,1.54427,14.0342,0.0483333,0.925434,-0.611534,0
2024-12-11 19:38:30.683,0.459721,1.58495,13.7566,0.104531,0.954754,-0.611534,0
2024-12-11 19:38:30.685,0.447757,1.61845,13.4477,0.104531,0.954754,-0.611534,0
2024-12-11 19:38:30.687,0.375972,1.66152,13.1243,0.158897,0.971858,-0.610924,0
2024-12-11 19:38:30.690,0.277567,1.71655,12.7965,0.268238,0.957808,-0.599928,0
2024-12-11 19:38:30.692,0.160319,1.75723,12.4469,0.268238,0.957808,-0.599928,0
2024-12-11 19:38:30.694,0.0502493,1.78116,12.0832,0.324436,0.926044,-0.591376,0
2024-12-11 19:38:30.697,-0.0311067,1.80509,11.7359,0.375747,0.875955,-0.580381,0
2024-12-11 19:38:30.700,-0.136391,1.79551,11.4174,0.483867,0.748822,-0.549228,0
2024-12-11 19:38:30.704,-0.229711,1.78834,11.0967,0.533346,0.663915,-0.533346,0
2024-12-11 19:38:30.704,-0.294616,1.82184,10.7327,0.533346,0.663915,-0.533346,0
2024-12-11 19:38:30.706,-0.32333,1.84098,10.3711,0.582825,0.571677,-0.51441,0
2024-12-11 19:38:30.708,-0.301795,1.84337,10.0265,0.628638,0.473941,-0.495473,0
2024-12-11 19:38:30.711,-0.267996,1.83859,9.67927,0.672619,0.373762,-0.482646,0
2024-12-11 19:38:30.714,-0.239282,1.82423,9.34427,0.752029,0.15569,-0.457601,0
2024-12-11 19:38:30.716,-0.234497,1.81944,9.01855,0.787458,0.0445155,-0.448438,0
2024-12-11 19:38:30.718,-0.227318,1.8338,8.69283,0.787458,0.0445155,-0.448438,0
2024-12-11 19:38:30.720,-0.198604,1.84816,8.36979,0.787458,0.0445155,-0.448438,0
2024-12-11 19:38:30.723,-0.181855,1.86012,8.06321,0.836937,-0.183331,-0.434389,0
2024-12-11 19:38:30.725,-0.177069,1.86491,7.77608,0.858317,-0.292672,-0.429502,0
2024-12-11 19:38:30.727,-0.18664,1.86012,7.50539,0.865647,-0.397127,-0.424615,0
2024-12-11 19:38:30.729,-0.217747,1.87687,7.235,0.868701,-0.493641,-0.42095,0
2024-12-11 19:38:30.732,-0.272782,1.9008,6.99302,0.863814,-0.582214,-0.41362,0
2024-12-11 19:38:30.735,-0.347258,1.91994,6.78724,0.833272,-0.733704,-0.400181,0
2024-12-11 19:38:30.737,-0.414257,1.94148,6.59582,0.833272,-0.733704,-0.400181,0
2024-12-11 19:38:30.739,-0.447757,1.95583,6.44238,0.833272,-0.733704,-0.400181,0
2024-12-11 19:38:30.741,-0.438186,1.97049,6.34427,0.81006,-0.79601,-0.391019,0
2024-12-11 19:38:30.743,-0.385544,1.97049,6.27727,0.744699,-0.892524,-0.367196,0
2024-12-11 19:38:30.746,-0.304188,1.95344,6.23899,0.707437,-0.922456,-0.357422,0
2024-12-11 19:38:30.749,-0.18664,1.94148,6.26531,0.626806,-0.956663,-0.340318,0
2024-12-11 19:38:30.751,-0.0693919,1.91516,6.32513,0.626806,-0.956663,-0.340318,0
2024-12-11 19:38:30.753,0.0334995,1.86251,6.39452,0.582825,-0.957274,-0.334821,0
2024-12-11 19:38:30.755,0.143569,1.81466,6.47857,0.540065,-0.945057,-0.329934,0
2024-12-11 19:38:30.758,0.236889,1.77159,6.58146,0.494863,-0.926121,-0.32749,0
2024-12-11 19:38:30.760,0.316152,1.71416,6.67717,0.446606,-0.8968,-0.325658,0
2024-12-11 19:38:30.763,0.402293,1.65912,6.75613,0.351924,-0.81006,-0.326269,0
2024-12-11 19:38:30.765,0.478864,1.60648,6.81117,0.351924,-0.81006,-0.326269,0
2024-12-11 19:38:30.767,0.574577,1.54666,6.86381,0.300613,-0.755694,-0.326269,0
2024-12-11 19:38:30.769,0.696611,1.47966,6.94277,0.249302,-0.692777,-0.329934,0
2024-12-11 19:38:30.772,0.816252,1.41506,7.04357,0.193715,-0.624362,-0.336042,0
2024-12-11 19:38:30.775,0.912264,1.37169,7.14168,0.138739,-0.551061,-0.34154,0
2024-12-11 19:38:30.776,0.962513,1.32861,7.21825,0.085595,-0.470429,-0.347648,0
2024-12-11 19:38:30.781,0.950549,1.23769,7.32593,0.0287862,-0.387354,-0.357422,0
2024-12-11 19:38:30.782,0.950549,1.23769,7.32593,-0.0805555,-0.210208,-0.369028,0
2024-12-11 19:38:30.785,0.905085,1.19462,7.39532,-0.0805555,-0.210208,-0.369028,0
2024-12-11 19:38:30.786,0.85005,1.16351,7.5006,-0.133699,-0.123468,-0.376358,0
2024-12-11 19:38:30.788,0.787538,1.13719,7.62772,-0.187454,-0.0422248,-0.380634,0
2024-12-11 19:38:30.792,0.710967,1.11326,7.77129,-0.238765,0.0371853,-0.38491,0
2024-12-11 19:38:30.795,0.629611,1.1013,8.09193,-0.327338,0.182567,-0.393462,0
2024-12-11 19:38:30.795,0.548256,1.1013,8.09193,-0.327338,0.182567,-0.393462,0
2024-12-11 19:38:30.799,0.459721,1.12762,8.2669,-0.392088,0.307791,-0.405068,0
2024-12-11 19:38:30.800,0.375972,1.16112,8.44876,-0.392088,0.307791,-0.405068,0
2024-12-11 19:38:30.802,0.301795,1.2018,8.62822,-0.416521,0.360934,-0.411787,0
2024-12-11 19:38:30.807,0.141177,1.33101,8.93959,-0.440345,0.454394,-0.42828,0
2024-12-11 19:38:30.807,0.141177,1.33101,8.93959,-0.440345,0.454394,-0.42828,0
2024-12-11 19:38:30.809,0.0717847,1.39801,9.09033,-0.445842,0.492877,-0.43561,0
2024-12-11 19:38:30.812,-0.00957129,1.45813,9.20997,-0.442177,0.522198,-0.443551,0
2024-12-11 19:38:30.815,-0.0789631,1.5323,9.31077,-0.42263,0.563736,-0.460044,0
2024-12-11 19:38:30.816,-0.162712,1.60409,9.39452,-0.42263,0.563736,-0.460044,0
2024-12-11 19:38:30.819,-0.265603,1.66391,9.47348,-0.403083,0.571677,-0.469207,0
2024-12-11 19:38:30.821,-0.361615,1.72852,9.54288,-0.381092,0.57412,-0.477759,0
2024-12-11 19:38:30.825,-0.469292,1.79073,9.58834,-0.326727,0.548464,-0.484478,0
2024-12-11 19:38:30.826,-0.579362,1.84098,9.62663,-0.326727,0.548464,-0.484478,0
2024-12-11 19:38:30.829,-0.691825,1.9008,9.67209,-0.290076,0.526474,-0.485089,0
2024-12-11 19:38:30.831,-0.789931,1.95583,9.70559,-0.252814,0.495932,-0.482646,0
2024-12-11 19:38:30.833,-0.871586,2.00638,9.72473,-0.208223,0.462335,-0.477759,0
2024-12-11 19:38:30.835,-0.940978,2.05185,9.72712,-0.16302,0.421408,-0.47104,0
2024-12-11 19:38:30.840,-0.991227,2.09252,9.65055,-0.0646735,0.334057,-0.451492,0
2024-12-11 19:38:30.841,-0.991227,2.09252,9.65055,-0.0646735,0.334057,-0.451492,0
2024-12-11 19:38:30.842,-0.99362,2.11406,9.5668,-0.0121406,0.284578,-0.438665,0
2024-12-11 19:38:30.845,-0.991227,2.14277,9.47109,0.0428357,0.232046,-0.427059,0
2024-12-11 19:38:30.847,-0.967299,2.15234,9.36581,0.0965902,0.179513,-0.415452,0
2024-12-11 19:38:30.849,-0.931406,2.15713,9.25065,0.150345,0.129423,-0.403236,0
2024-12-11 19:38:30.852,-0.897907,2.15952,9.13101,0.201045,0.0799446,-0.390408,0
2024-12-11 19:38:30.854,-0.890728,2.17866,8.98983,0.248691,0.0347419,-0.376358,0
2024-12-11 19:38:30.857,-0.88355,2.21695,8.81277,0.298781,-0.00862822,-0.361087,0
2024-12-11 19:38:30.861,-0.82343,2.29591,8.45115,0.384299,-0.0825407,-0.329934,0
2024-12-11 19:38:30.861,-0.82343,2.29591,8.45115,0.384299,-0.0825407,-0.329934,0
2024-12-11 19:38:30.864,-0.792323,2.33181,8.25972,0.42095,-0.114305,-0.315884,0
2024-12-11 19:38:30.866,-0.742074,2.35334,8.07757,0.454547,-0.143015,-0.29817,0
2024-12-11 19:38:30.869,-0.684646,2.37966,7.90768,0.483257,-0.167449,-0.281066,0
2024-12-11 19:38:30.871,-0.632004,2.41077,7.72104,0.50769,-0.187606,-0.266406,0
2024-12-11 19:38:30.873,-0.572184,2.42273,7.56042,0.526627,-0.20471,-0.252967,0
2024-12-11 19:38:30.875,-0.495613,2.4323,7.41207,0.542509,-0.215705,-0.239528,0
2024-12-11 19:38:30.878,-0.411865,2.4682,7.25414,0.542509,-0.215705,-0.239528,0
2024-12-11 19:38:30.882,-0.208176,2.50887,6.96431,0.569997,-0.224868,-0.205932,0
2024-12-11 19:38:30.882,-0.208176,2.50887,6.96431,0.569997,-0.224868,-0.205932,0
2024-12-11 19:38:30.887,-0.0311067,2.54028,6.69153,0.566332,-0.21143,-0.190661,0
2024-12-11 19:38:30.889,0.0334995,2.56899,6.55274,0.560223,-0.196769,-0.187606,0
2024-12-11 19:38:30.892,0.0789631,2.60489,6.43041,0.551061,-0.179055,-0.18272,0
2024-12-11 19:38:30.893,0.0789631,2.60489,6.43041,0.551061,-0.179055,-0.18272,0
2024-12-11 19:38:30.894,0.11007,2.64317,6.31316,0.535179,-0.161951,-0.181498,0
2024-12-11 19:38:30.897,0.12682,2.69581,6.20788,0.516242,-0.143015,-0.180276,0
2024-12-11 19:38:30.900,0.160319,2.76999,6.13131,0.498528,-0.120413,-0.183941,0
2024-12-11 19:38:30.901,0.196211,2.84178,6.05235,0.477148,-0.0947577,-0.186385,0
2024-12-11 19:38:30.904,0.200997,2.88724,5.94945,0.450882,-0.0648262,-0.188217,0
2024-12-11 19:38:30.907,0.217747,2.91117,5.86062,0.397738,-0.00313059,-0.199823,0
2024-12-11 19:38:30.908,0.229711,2.95902,5.79601,0.397738,-0.00313059,-0.199823,0
2024-12-11 19:38:30.912,0.212961,3.01167,5.75773,0.337875,0.0487914,-0.215705,0
2024-12-11 19:38:30.914,0.22014,3.04756,5.73141,0.309165,0.074447,-0.225479,0
2024-12-11 19:38:30.916,0.22014,3.08345,5.71466,0.309165,0.074447,-0.225479,0
2024-12-11 19:38:30.919,0.196211,3.12204,5.73141,0.246859,0.11293,-0.243804,0
2024-12-11 19:38:30.920,0.174676,3.15793,5.76012,0.246859,0.11293,-0.243804,0
2024-12-11 19:38:30.922,0.153141,3.20339,5.80319,0.21876,0.128202,-0.251135,0
2024-12-11 19:38:30.925,0.133998,3.23689,5.85105,0.192493,0.14164,-0.259686,0
2024-12-11 19:38:30.928,0.112463,3.24646,5.89681,0.144236,0.162409,-0.274347,0
2024-12-11 19:38:30.933,0.0622134,3.27518,6.04277,0.119802,0.172793,-0.287175,0
2024-12-11 19:38:30.934,0.0358923,3.31825,6.12892,0.0996445,0.172793,-0.287175,0
2024-12-11 19:38:30.935,0.0358923,3.31825,6.12892,0.0807082,0.174015,-0.292061,0
2024-12-11 19:38:30.937,0.00717847,3.37328,6.23659,0.0807082,0.174015,-0.292061,0
2024-12-11 19:38:30.940,-0.00478565,3.41875,6.33709,0.0623828,0.171572,-0.297559,0
2024-12-11 19:38:30.944,-0.0143569,3.51446,6.5001,0.033673,0.166074,-0.306722,0
2024-12-11 19:38:30.945,-0.0143569,3.51446,6.5001,0.0238994,0.161798,-0.311608,0
2024-12-11 19:38:30.947,-0.0239282,3.5671,6.61017,0.013515,0.157522,-0.314052,0
2024-12-11 19:38:30.949,-0.040678,3.62931,6.72981,0.013515,0.157522,-0.314052,0
2024-12-11 19:38:30.952,-0.0526421,3.67986,6.8662,7.63559e-05,0.14897,-0.32016,0
2024-12-11 19:38:30.953,-0.0646062,3.71097,7.01486,7.63559e-05,0.14897,-0.32016,0
2024-12-11 19:38:30.955,-0.0933201,3.73968,7.13689,-0.00114534,0.145916,-0.319549,0
2024-12-11 19:38:30.960,-0.155533,3.79232,7.39053,7.63559e-05,0.134921,-0.317717,0
2024-12-11 19:38:30.963,-0.20339,3.80907,7.51735,0.00374144,0.129423,-0.313441,0
2024-12-11 19:38:30.963,-0.155533,3.79232,7.39053,0.00374144,0.129423,-0.313441,0
2024-12-11 19:38:30.965,-0.258425,3.84257,7.65404,0.00984991,0.120261,-0.309165,0
2024-12-11 19:38:30.967,-0.311366,3.87129,7.78565,0.0153475,0.110487,-0.302446,0
2024-12-11 19:38:30.970,-0.344866,3.89522,7.93161,0.0245102,0.0988809,-0.295726,0
2024-12-11 19:38:30.972,-0.352044,3.91197,8.08236,0.0361163,0.0854423,-0.287785,0
2024-12-11 19:38:30.974,-0.337687,3.93111,8.2334,0.0465007,0.0732253,-0.280455,0
2024-12-11 19:38:30.978,-0.297009,3.96222,8.38654,0.0727672,0.0469589,-0.267627,0
2024-12-11 19:38:30.981,-0.260818,3.97897,8.53251,0.0880384,0.0365745,-0.261519,0
2024-12-11 19:38:30.982,-0.222533,3.98854,8.68086,0.0880384,0.0365745,-0.261519,0
2024-12-11 19:38:30.984,-0.191426,4.01486,8.81037,0.106364,0.030466,-0.257854,0
2024-12-11 19:38:30.986,-0.155533,4.04596,8.9348,0.122246,0.0274118,-0.251135,0
2024-12-11 19:38:30.988,-0.114855,4.06032,9.04726,0.141182,0.0274118,-0.249913,0
2024-12-11 19:38:30.991,-0.114855,4.07468,9.14537,0.157064,0.0329094,-0.243194,0
2024-12-11 19:38:30.994,-0.12682,4.10578,9.23151,0.196158,0.0561216,-0.235253,0
2024-12-11 19:38:30.995,-0.148355,4.14646,9.31316,0.196158,0.0561216,-0.235253,0
2024-12-11 19:38:30.998,-0.189033,4.17996,9.37299,0.213262,0.0701711,-0.229755,0
2024-12-11 19:38:31.003,-0.294616,4.27837,9.46152,0.251745,0.106211,-0.219981,0
2024-12-11 19:38:31.006,-0.311366,4.31187,9.48306,0.289618,0.147138,-0.208375,0
2024-12-11 19:38:31.006,-0.311366,4.31187,9.48306,0.289618,0.147138,-0.208375,0
2024-12-11 19:38:31.008,-0.30658,4.34776,9.48306,0.306111,0.167907,-0.205932,0
2024-12-11 19:38:31.010,-0.285045,4.37169,9.47827,0.306111,0.167907,-0.205932,0
2024-12-11 19:38:31.013,-0.277567,4.37647,9.46391,0.336042,0.214331,-0.208986,0
2024-12-11 19:38:31.014,-0.308973,4.40279,9.43281,0.336042,0.214331,-0.208986,0
2024-12-11 19:38:31.017,-0.332901,4.4339,9.39452,0.347038,0.237543,-0.21204,0
2024-12-11 19:38:31.022,-0.414257,4.50808,9.26052,0.357422,0.258923,-0.217538,0
2024-12-11 19:38:31.025,-0.452543,4.53679,9.18844,0.36353,0.311456,-0.232198,0
2024-12-11 19:38:31.025,-0.452543,4.53679,9.18844,0.36353,0.311456,-0.232198,0
2024-12-11 19:38:31.026,-0.483649,4.56311,9.11426,0.36353,0.311456,-0.232198,0
2024-12-11 19:38:31.031,-0.493221,4.62772,8.98026,0.350703,0.34322,-0.243194,0
2024-12-11 19:38:31.032,-0.493221,4.62772,8.98026,0.336653,0.351772,-0.24808,0
2024-12-11 19:38:31.033,-0.495613,4.65404,8.92762,0.336653,0.351772,-0.24808,0
2024-12-11 19:38:31.036,-0.524327,4.67558,8.87737,0.322604,0.361545,-0.255411,0
2024-12-11 19:38:31.039,-0.569791,4.6995,8.8343,0.277401,0.376206,-0.271293,0
2024-12-11 19:38:31.040,-0.598505,4.72822,8.81755,0.277401,0.376206,-0.271293,0
2024-12-11 19:38:31.043,-0.622433,4.7354,8.81037,0.248691,0.378038,-0.280455,0
2024-12-11 19:38:31.045,-0.665504,4.73779,8.86062,0.21876,0.373762,-0.287175,0
2024-12-11 19:38:31.047,-0.727717,4.76172,8.94198,0.186996,0.367654,-0.293894,0
2024-12-11 19:38:31.052,-0.859622,4.80509,9.17408,0.120413,0.348107,-0.3055,0
2024-12-11 19:38:31.053,-0.859622,4.80509,9.17408,0.0849841,0.337722,-0.309776,0
2024-12-11 19:38:31.054,-0.897907,4.84816,9.31556,0.0849841,0.337722,-0.309776,0
2024-12-11 19:38:31.057,-0.893121,4.88405,9.52134,0.0501658,0.329781,-0.314052,0
2024-12-11 19:38:31.060,-0.864407,4.91037,9.73669,0.0171801,0.316953,-0.318939,0
2024-12-11 19:38:31.061,-0.847657,4.92234,9.98106,-0.0151948,0.298628,-0.323825,0
2024-12-11 19:38:31.065,-0.830609,4.93191,10.2275,-0.0671168,0.266253,-0.333599,0
2024-12-11 19:38:31.067,-0.813859,4.92712,10.4695,-0.0884965,0.250982,-0.339097,0
2024-12-11 19:38:31.070,-0.794716,4.89123,10.7351,-0.1056,0.235711,-0.342762,0
2024-12-11 19:38:31.071,-0.749253,4.82662,11.0034,-0.1056,0.235711,-0.342762,0
2024-12-11 19:38:31.073,-0.703789,4.7665,11.269,-0.121482,0.221661,-0.345205,0
2024-12-11 19:38:31.076,-0.665504,4.71386,11.5349,-0.133699,0.20639,-0.350703,0
2024-12-11 19:38:31.079,-0.608076,4.65643,11.7694,-0.144694,0.180734,-0.351314,0
2024-12-11 19:38:31.080,-0.538684,4.59183,11.9967,-0.144694,0.180734,-0.351314,0
2024-12-11 19:38:31.083,-0.476471,4.51765,12.2363,-0.144084,0.170961,-0.349481,0
2024-12-11 19:38:31.086,-0.395115,4.45065,12.4588,-0.139808,0.167907,-0.349481,0
2024-12-11 19:38:31.087,-0.299402,4.39083,12.6673,-0.131867,0.164852,-0.346427,0
2024-12-11 19:38:31.090,-0.193819,4.34537,12.8396,-0.119039,0.166074,-0.342762,0
2024-12-11 19:38:31.093,-0.0789631,4.32862,13.0095,-0.0854423,0.174015,-0.338486,0
2024-12-11 19:38:31.095,0.0454636,4.31187,13.1578,-0.0854423,0.174015,-0.338486,0
2024-12-11 19:38:31.097,0.181855,4.29033,13.2706,-0.0628409,0.179513,-0.336042,0
2024-12-11 19:38:31.100,0.311366,4.28076,13.3615,-0.0127514,0.19173,-0.33421,0
2024-12-11 19:38:31.102,0.438186,4.27837,13.4237,-0.0127514,0.19173,-0.33421,0
2024-12-11 19:38:31.104,0.565005,4.28555,13.462,0.0141258,0.198449,-0.329323,0
2024-12-11 19:38:31.106,0.682254,4.28794,13.4644,0.0428357,0.200892,-0.328101,0
2024-12-11 19:38:31.109,0.797109,4.28076,13.4429,0.0721563,0.203947,-0.32749,0
2024-12-11 19:38:31.112,0.897907,4.27119,13.407,0.101477,0.204557,-0.325658,0
2024-12-11 19:38:31.114,0.984048,4.25922,13.3567,0.135074,0.202114,-0.32688,0
2024-12-11 19:38:31.116,1.07019,4.25922,13.2658,0.163173,0.199671,-0.325658,0
2024-12-11 19:38:31.119,1.15633,4.26162,13.1411,0.220592,0.178902,-0.330545,0
2024-12-11 19:38:31.121,1.25444,4.24247,13.0286,0.220592,0.178902,-0.330545,0
2024-12-11 19:38:31.123,1.37169,4.24008,12.897,0.242583,0.16302,-0.334821,0
2024-12-11 19:38:31.125,1.4988,4.2688,12.7367,0.263352,0.14164,-0.34154,0
2024-12-11 19:38:31.127,1.62323,4.29033,12.5856,0.281677,0.120261,-0.351924,0
2024-12-11 19:38:31.131,1.75244,4.32622,12.4373,0.311608,0.074447,-0.379413,0
2024-12-11 19:38:31.132,1.8673,4.37169,12.2865,0.311608,0.074447,-0.379413,0
2024-12-11 19:38:31.137,2.10209,4.44108,12.047,0.32749,0.0316877,-0.416674,0
2024-12-11 19:38:31.138,2.10209,4.44108,12.047,0.331156,0.0115297,-0.438665,0
2024-12-11 19:38:31.139,2.18106,4.49133,11.9249,0.331156,0.0115297,-0.438665,0
2024-12-11 19:38:31.142,2.27438,4.54397,11.822,0.329323,-0.00801737,-0.463099,0
2024-12-11 19:38:31.144,2.39402,4.58465,11.7096,0.32749,-0.0232886,-0.491808,0
2024-12-11 19:38:31.147,2.51366,4.64208,11.5756,0.314663,-0.0465007,-0.549839,0
2024-12-11 19:38:31.149,2.63839,4.70668,11.4054,0.314663,-0.0465007,-0.549839,0
2024-12-11 19:38:31.151,2.77238,4.75932,11.2187,0.303667,-0.057496,-0.587101,0
2024-12-11 19:38:31.154,2.9016,4.79791,11.0273,0.278012,-0.0929251,-0.673841,0
2024-12-11 19:38:31.156,2.98774,4.8003,10.85,0.278012,-0.0929251,-0.673841,0
2024-12-11 19:38:31.158,3.01167,4.78116,10.7112,0.257854,-0.135074,-0.726985,0
2024-12-11 19:38:31.161,2.99013,4.70429,10.6083,0.234031,-0.19005,-0.783183,0
2024-12-11 19:38:31.164,2.93031,4.57029,10.5796,0.166838,-0.371471,-0.8968,0
2024-12-11 19:38:31.166,2.79871,4.41236,10.6442,0.166838,-0.371471,-0.8968,0
2024-12-11 19:38:31.167,2.60967,4.18714,10.7973,0.126522,-0.502804,-0.956663,0
2024-12-11 19:38:31.170,2.37966,3.93589,11.056,0.0807082,-0.648796,-1.01714,0
2024-12-11 19:38:31.173,2.13799,3.68226,11.4341,-0.0182491,-0.96155,-1.12831,0
2024-12-11 19:38:31.175,1.92473,3.38525,11.9178,-0.0182491,-0.96155,-1.12831,0
2024-12-11 19:38:31.177,1.74766,3.08584,12.4445,-0.0671168,-1.11854,-1.17779,0
2024-12-11 19:38:31.180,1.62084,2.78913,13.0238,-0.150192,-1.38303,-1.26148,0
2024-12-11 19:38:31.183,1.56341,2.51605,13.596,-0.182567,-1.48688,-1.29996,0
2024-12-11 19:38:31.185,1.57777,2.29113,14.1299,-0.207001,-1.56568,-1.33661,0
2024-12-11 19:38:31.187,1.67109,2.07817,14.6638,-0.207001,-1.56568,-1.33661,0
2024-12-11 19:38:31.191,2.08774,1.75244,15.6646,-0.228381,-1.6347,-1.41052,0
2024-12-11 19:38:31.192,2.08774,1.75244,15.6646,-0.227159,-1.62676,-1.45145,0
2024-12-11 19:38:31.194,2.40598,1.64955,16.098,-0.227159,-1.62676,-1.45145,0
2024-12-11 19:38:31.196,2.8011,1.5682,16.512,-0.215553,-1.6005,-1.49604,0
2024-12-11 19:38:31.199,3.25125,1.50359,16.8784,-0.158744,-1.50032,-1.60172,0
2024-12-11 19:38:31.200,3.69183,1.42223,17.173,-0.158744,-1.50032,-1.60172,0
2024-12-11 19:38:31.203,4.06511,1.2999,17.4529,-0.11232,-1.4264,-1.65975,0
2024-12-11 19:38:31.207,4.40279,0.996012,17.8265,0.0159584,-1.2401,-1.7868,0
2024-12-11 19:38:31.207,4.72582,0.996012,17.8265,0.0159584,-1.2401,-1.7868,0
2024-12-11 19:38:31.212,5.33899,0.572184,17.5415,0.176,-1.02447,-1.91997,1
2024-12-11 19:38:31.212,5.33899,0.572184,17.5415,0.176,-1.02447,-1.91997,1
2024-12-11 19:38:31.215,5.57109,0.361615,17.2208,0.254189,-0.924899,-1.98602,0
2024-12-11 19:38:31.217,5.71944,0.174676,16.8353,0.333599,-0.834494,-2.05077,0
2024-12-11 19:38:31.219,5.76012,0.0239282,16.4187,0.406901,-0.757527,-2.11063,0
2024-12-11 19:38:31.222,5.71466,-0.133998,15.9422,0.477759,-0.697053,-2.16622,0
2024-12-11 19:38:31.224,5.63091,-0.265603,15.4226,0.545563,-0.648796,-2.21325,0
2024-12-11 19:38:31.227,5.52802,-0.361615,14.9345,0.602372,-0.617032,-2.25479,0
2024-12-11 19:38:31.229,5.39641,-0.438186,14.4532,0.653683,-0.597485,-2.28655,0
2024-12-11 19:38:31.232,5.25254,-0.500399,13.96,0.697053,-0.590766,-2.3116,0
2024-12-11 19:38:31.233,5.09462,-0.562612,13.4285,0.734315,-0.59382,-2.32931,0
2024-12-11 19:38:31.236,4.93191,-0.60329,12.8898,0.760581,-0.609702,-2.34092,0
2024-12-11 19:38:31.238,4.77398,-0.622433,12.4086,0.78135,-0.635357,-2.34581,0
2024-12-11 19:38:31.241,4.61815,-0.646361,11.9417,0.791734,-0.668954,-2.34581,0
2024-12-11 19:38:31.244,4.48415,-0.677468,11.4915,0.794789,-0.75997,-2.33787,0
2024-12-11 19:38:31.245,4.37169,-0.694218,11.0776,0.794789,-0.75997,-2.33787,0
2024-12-11 19:38:31.248,4.19193,-0.734896,10.6777,0.787458,-0.811282,-2.32687,0
2024-12-11 19:38:31.253,3.91197,-0.885943,9.98106,0.75264,-0.909628,-2.30366,0
2024-12-11 19:38:31.257,3.99811,-0.82343,9.54048,0.697664,-1.00431,-2.27922,0
2024-12-11 19:38:31.259,4.07707,-0.754038,9.4352,0.697664,-1.00431,-2.27922,0
2024-12-11 19:38:31.263,4.07468,-0.643968,9.38734,0.603593,-1.11182,-2.25723,0
2024-12-11 19:38:31.264,4.03161,-0.493221,9.41127,0.603593,-1.11182,-2.25723,0
2024-12-11 19:38:31.267,3.96461,-0.349651,9.50698,0.574273,-1.13075,-2.2499,0
2024-12-11 19:38:31.271,3.65354,-0.181855,9.72712,0.548006,-1.1387,-2.24013,0
2024-12-11 19:38:31.278,3.3326,-0.196211,9.99303,0.488754,-1.16679,-2.20959,0
2024-12-11 19:38:31.279,3.3326,-0.196211,9.99303,0.488754,-1.16679,-2.20959,0
2024-12-11 19:38:31.283,3.16271,-0.272782,10.2251,0.468596,-1.14908,-2.18271,0
2024-12-11 19:38:31.285,3.09093,-0.318545,10.3137,0.47165,-1.13075,-2.18088,0
2024-12-11 19:38:31.290,2.91356,-0.419043,10.4288,0.480202,-1.08983,-2.18027,0
2024-12-11 19:38:31.291,2.91356,-0.419043,10.4288,0.488143,-1.0715,-2.18332,0
2024-12-11 19:38:31.293,2.82024,-0.464507,10.4288,0.488143,-1.0715,-2.18332,0
2024-12-11 19:38:31.296,2.73171,-0.50997,10.424,0.504025,-1.03302,-2.18638,0
2024-12-11 19:38:31.297,2.65274,-0.545863,10.4049,0.504025,-1.03302,-2.18638,0
2024-12-11 19:38:31.298,2.65274,-0.545863,10.4049,0.510134,-1.01653,-2.18882,0
2024-12-11 19:38:31.299,2.58096,-0.574577,10.3759,0.504025,-1.03302,-2.18638,0
2024-12-11 19:38:31.299,2.58096,-0.574577,10.3759,0.504025,-1.03302,-2.18638,0
2024-12-11 19:38:31.302,2.53071,-0.605683,10.3424,0.515021,-1.00003,-2.19554,0
2024-12-11 19:38:31.303,2.53071,-0.605683,10.3424,0.517464,-0.98354,-2.19676,0
2024-12-11 19:38:31.304,2.48734,-0.634397,10.2945,0.517464,-0.98354,-2.19676,0
2024-12-11 19:38:31.306,2.42034,-0.665504,10.2562,0.519907,-0.974378,-2.19859,0
2024-12-11 19:38:31.306,2.42034,-0.665504,10.2562,0.519907,-0.974378,-2.19859,0
2024-12-11 19:38:31.307,2.42034,-0.665504,10.2562,0.519907,-0.974378,-2.19859,0
2024-12-11 19:38:31.311,2.31506,-0.737288,10.1916,0.511966,-0.971323,-2.20837,0
2024-12-11 19:38:31.311,2.31506,-0.737288,10.1916,0.511966,-0.971323,-2.20837,0
2024-12-11 19:38:31.313,2.26241,-0.751645,10.1605,0.506469,-0.975599,-2.21447,0
2024-12-11 19:38:31.316,2.21934,-0.766002,10.1366,0.503415,-0.982319,-2.22058,0
2024-12-11 19:38:31.318,2.20977,-0.785145,10.1198,0.496695,-0.996368,-2.22975,0
2024-12-11 19:38:31.321,2.21695,-0.811466,10.084,0.49303,-1.0092,-2.24013,0
2024-12-11 19:38:31.324,2.19063,-0.835394,10.0361,0.484478,-1.03241,-2.26823,0
2024-12-11 19:38:31.326,2.17388,-0.85005,10.0002,0.484478,-1.03241,-2.26823,0
2024-12-11 19:38:31.330,2.43709,-0.82343,9.89013,0.472261,-1.07944,-2.31343,0
2024-12-11 19:38:31.331,2.43709,-0.82343,9.89013,0.472261,-1.07944,-2.31343,0
2024-12-11 19:38:31.332,2.21216,-0.825823,9.92603,0.468596,-1.09899,-2.34214,0
2024-12-11 19:38:31.335,1.95105,-0.787538,9.84706,0.461877,-1.11671,-2.36902,0
2024-12-11 19:38:31.339,1.71655,-0.715753,9.77498,0.45699,-1.13259,-2.39345,0
2024-12-11 19:38:31.340,1.71655,-0.715753,9.77498,0.45699,-1.13259,-2.39345,0
2024-12-11 19:38:31.344,1.2999,-0.608076,9.81087,0.448438,-1.18695,-2.46126,0
2024-12-11 19:38:31.344,1.2999,-0.608076,9.81087,0.448438,-1.18695,-2.46126,0
2024-12-11 19:38:31.346,1.19222,-0.555434,9.69602,0.444773,-1.21688,-2.48019,0
2024-12-11 19:38:31.349,1.14197,-0.474078,9.58355,0.437443,-1.24926,-2.50157,0
2024-12-11 19:38:31.351,1.1013,-0.387936,9.49263,0.430724,-1.28163,-2.52295,0
2024-12-11 19:38:31.356,1.00558,-0.193819,9.32513,0.416674,-1.33478,-2.56571,0
2024-12-11 19:38:31.356,1.00558,-0.193819,9.32513,0.416674,-1.33478,-2.56571,0
2024-12-11 19:38:31.359,0.967299,-0.107677,9.29402,0.403846,-1.37998,-2.60481,0
2024-12-11 19:38:31.362,0.926621,-0.0143569,9.26531,0.39957,-1.40258,-2.62191,0
2024-12-11 19:38:31.363,0.9003,0.0741775,9.22194,0.39957,-1.40258,-2.62191,0
2024-12-11 19:38:31.365,0.890728,0.136391,9.17647,0.392851,-1.42702,-2.64023,0
2024-12-11 19:38:31.369,0.897907,0.193819,9.11665,0.380023,-1.46855,-2.67261,0
2024-12-11 19:38:31.370,0.902692,0.258425,9.05923,0.380023,-1.46855,-2.67261,0
2024-12-11 19:38:31.373,0.888335,0.313759,8.99701,0.373304,-1.48566,-2.68605,0
2024-12-11 19:38:31.376,0.862014,0.361615,8.93959,0.357422,-1.51314,-2.70804,0
2024-12-11 19:38:31.377,0.835394,0.3999,8.87976,0.357422,-1.51314,-2.70804,0
2024-12-11 19:38:31.380,0.799502,0.435793,8.8008,0.34887,-1.52414,-2.71415,0
2024-12-11 19:38:31.383,0.773181,0.471685,8.72902,0.339707,-1.53391,-2.72209,0
2024-12-11 19:38:31.386,0.770788,0.529113,8.61386,0.316495,-1.54247,-2.73369,0
2024-12-11 19:38:31.387,0.758824,0.529113,8.61386,0.316495,-1.54247,-2.73369,0
2024-12-11 19:38:31.390,0.739681,0.567398,8.56122,0.292672,-1.54919,-2.74102,0
2024-12-11 19:38:31.391,0.742074,0.586541,8.50858,0.292672,-1.54919,-2.74102,0
2024-12-11 19:38:31.394,0.742074,0.588933,8.44636,0.281677,-1.55285,-2.74591,0
2024-12-11 19:38:31.396,0.727717,0.593719,8.38176,0.267017,-1.55285,-2.7508,0
2024-12-11 19:38:31.398,0.708575,0.586541,8.32672,0.252967,-1.55468,-2.75446,0
2024-12-11 19:38:31.402,0.677468,0.596112,8.28844,0.234031,-1.55835,-2.76057,0
2024-12-11 19:38:31.408,0.536291,0.584148,8.19751,0.179055,-1.56873,-2.77584,0
2024-12-11 19:38:31.408,0.536291,0.584148,8.19751,0.179055,-1.56873,-2.77584,0
2024-12-11 19:38:31.410,0.464507,0.569791,8.18315,0.155842,-1.56629,-2.78256,0
2024-12-11 19:38:31.412,0.392722,0.548256,8.17119,0.135684,-1.56751,-2.78623,0
2024-12-11 19:38:31.413,0.392722,0.548256,8.17119,0.135684,-1.56751,-2.78623,0
2024-12-11 19:38:31.416,0.311366,0.553041,8.18315,0.113694,-1.56568,-2.79172,0
2024-12-11 19:38:31.417,0.217747,0.557827,8.21665,0.0898709,-1.56323,-2.796,0
2024-12-11 19:38:31.422,0.0837488,0.572184,8.3004,0.041614,-1.56079,-2.80394,0
2024-12-11 19:38:31.422,0.0837488,0.572184,8.3004,0.041614,-1.56079,-2.80394,0
2024-12-11 19:38:31.424,0.00957129,0.62004,8.35783,0.0177909,-1.5614,-2.807,0
2024-12-11 19:38:31.428,-0.0550349,0.658325,8.40329,-0.0298552,-1.57362,-2.81433,0
2024-12-11 19:38:31.429,-0.11007,0.677468,8.45833,-0.0298552,-1.57362,-2.81433,0
2024-12-11 19:38:31.432,-0.167498,0.708575,8.54208,-0.0518457,-1.58034,-2.8186,0
2024-12-11 19:38:31.434,-0.246461,0.749253,8.6354,-0.0738362,-1.59072,-2.82105,0
2024-12-11 19:38:31.437,-0.318545,0.770788,8.72184,-0.11232,-1.61027,-2.82471,0
2024-12-11 19:38:31.438,-0.35683,0.766002,8.80319,-0.11232,-1.61027,-2.82471,0
2024-12-11 19:38:31.442,-0.404686,0.758824,8.89891,-0.147138,-1.62921,-2.82349,0
2024-12-11 19:38:31.443,-0.493221,0.770788,9.02333,-0.147138,-1.62921,-2.82349,0
2024-12-11 19:38:31.445,-0.591326,0.770788,9.13819,-0.161187,-1.63409,-2.82043,0
2024-12-11 19:38:31.448,-0.679861,0.782752,9.23869,-0.171572,-1.6347,-2.81555,0
2024-12-11 19:38:31.450,-0.768395,0.811466,9.34906,-0.180734,-1.63043,-2.80577,0
2024-12-11 19:38:31.452,-0.85005,0.828216,9.44238,-0.190508,-1.62249,-2.79356,0
2024-12-11 19:38:31.455,-0.909871,0.857229,9.5357,-0.198449,-1.60783,-2.78256,0
2024-12-11 19:38:31.457,-0.936192,0.873978,9.62663,-0.203947,-1.59011,-2.7679,0
2024-12-11 19:38:31.461,-0.936192,0.878764,9.68166,-0.210055,-1.54857,-2.73614,0
2024-12-11 19:38:31.463,-0.926621,0.895514,9.71755,-0.210055,-1.54857,-2.73614,0
2024-12-11 19:38:31.464,-0.926621,0.921835,9.77498,-0.214942,-1.51864,-2.71842,0
2024-12-11 19:38:31.467,-0.948156,0.945763,9.82074,-0.216164,-1.47466,-2.70132,0
2024-12-11 19:38:31.469,-0.948156,0.974477,9.84946,-0.218607,-1.42396,-2.68544,0
2024-12-11 19:38:31.472,-0.940978,1.00558,9.88535,-0.224105,-1.32134,-2.65062,0
2024-12-11 19:38:31.474,-0.969691,1.03669,9.9356,-0.224105,-1.32134,-2.65062,0
2024-12-11 19:38:31.476,-1.01755,1.07737,9.96192,-0.221661,-1.2627,-2.63168,0
2024-12-11 19:38:31.478,-1.04387,1.10369,9.94278,-0.22105,-1.19734,-2.61275,0
2024-12-11 19:38:31.481,-1.05823,1.12283,9.90928,-0.218607,-1.12892,-2.5932,0
2024-12-11 19:38:31.483,-1.09412,1.14676,9.88296,-0.217996,-1.05684,-2.57426,0
2024-12-11 19:38:31.485,-1.1659,1.16351,9.84946,-0.216774,-0.987816,-2.55349,0
2024-12-11 19:38:31.488,-1.25683,1.18983,9.79412,-0.216774,-0.917569,-2.53211,0
2024-12-11 19:38:31.491,-1.33579,1.21615,9.73191,-0.22105,-0.778907,-2.48997,0
2024-12-11 19:38:31.492,-1.41266,1.23051,9.64577,-0.22105,-0.778907,-2.48997,0
2024-12-11 19:38:31.496,-1.50838,1.25444,9.57877,-0.232046,-0.640855,-2.44415,0
2024-12-11 19:38:31.497,-1.61845,1.27119,9.51416,-0.232046,-0.640855,-2.44415,0
2024-12-11 19:38:31.500,-1.72134,1.29033,9.44238,-0.237543,-0.574884,-2.42338,0
2024-12-11 19:38:31.502,-1.81226,1.33101,9.40409,-0.247928,-0.508912,-2.39895,0
