timestamp,accel_x,accel_y,accel_z,gyro_x,gyro_y,gyro_z,step_timestamp
2024-12-11 19:40:38.630,0.114855,1.88883,10.0481,-0.0359636,-0.049555,-0.0202343,0
2024-12-11 19:40:38.630,0.114855,1.88883,10.0481,-0.0359636,-0.049555,-0.0202343,0
2024-12-11 19:40:38.630,0.114855,1.88883,10.0481,-0.0359636,-0.049555,-0.0202343,0
2024-12-11 19:40:38.630,0.114855,1.88883,10.0481,-0.0359636,-0.049555,-0.0202343,0
2024-12-11 19:40:38.630,0.114855,1.88883,10.0481,-0.0359636,-0.049555,-0.0202343,0
2024-12-11 19:40:38.630,0.114855,1.88883,10.0481,-0.0359636,-0.049555,-0.0202343,0
2024-12-11 19:40:38.630,0.114855,1.88883,10.0481,-0.0359636,-0.049555,-0.0202343,0
2024-12-11 19:40:38.630,0.114855,1.88883,10.0481,-0.0359636,-0.049555,-0.0202343,0
2024-12-11 19:40:38.630,0.114855,1.88883,10.0481,-0.0359636,-0.049555,-0.0202343,0
2024-12-11 19:40:38.630,0.114855,1.88883,10.0481,-0.0359636,-0.049555,-0.0202343,0
2024-12-11 19:40:38.630,0.114855,1.88883,10.0481,-0.0359636,-0.049555,-0.0202343,0
2024-12-11 19:40:38.630,0.114855,1.88883,10.0481,-0.0359636,-0.049555,-0.0202343,0
2024-12-11 19:40:38.630,0.114855,1.88883,10.0481,-0.0359636,-0.049555,-0.0202343,0
2024-12-11 19:40:38.630,0.114855,1.88883,10.0481,-0.0359636,-0.049555,-0.0202343,0
2024-12-11 19:40:38.630,0.114855,1.88883,10.0481,-0.0359636,-0.049555,-0.0202343,0
2024-12-11 19:40:38.630,0.114855,1.88883,10.0481,-0.0359636,-0.049555,-0.0202343,0
2024-12-11 19:40:38.630,0.114855,1.88883,10.0481,-0.0359636,-0.049555,-0.0202343,0
2024-12-11 19:40:38.630,0.114855,1.88883,10.0481,-0.0359636,-0.049555,-0.0202343,0
2024-12-11 19:40:38.630,0.114855,1.88883,10.0481,-0.0359636,-0.049555,-0.0202343,0
2024-12-11 19:40:38.630,0.114855,1.88883,10.0481,-0.0359636,-0.049555,-0.0202343,0
2024-12-11 19:40:38.631,0.114855,1.88883,10.0481,-0.0359636,-0.049555,-0.0202343,0
2024-12-11 19:40:38.631,0.114855,1.88883,10.0481,-0.0359636,-0.049555,-0.0202343,0
2024-12-11 19:40:38.631,0.114855,1.88883,10.0481,-0.0359636,-0.049555,-0.0202343,0
2024-12-11 19:40:38.631,0.114855,1.88883,10.0481,-0.0359636,-0.049555,-0.0202343,0
2024-12-11 19:40:38.631,0.114855,1.88883,10.0481,-0.0359636,-0.049555,-0.0202343,0
2024-12-11 19:40:38.631,0.114855,1.88883,10.0481,-0.0359636,-0.049555,-0.0202343,0
2024-12-11 19:40:38.631,0.114855,1.88883,10.0481,-0.0359636,-0.049555,-0.0202343,0
2024-12-11 19:40:38.631,0.114855,1.88883,10.0481,-0.0359636,-0.049555,-0.0202343,0
2024-12-11 19:40:38.631,0.114855,1.88883,10.0481,-0.0359636,-0.049555,-0.0202343,0
2024-12-11 19:40:38.631,0.114855,1.88883,10.0481,-0.0359636,-0.049555,-0.0202343,0
2024-12-11 19:40:38.631,0.114855,1.88883,10.0481,-0.0359636,-0.049555,-0.0202343,0
2024-12-11 19:40:38.652,-0.105284,1.86491,9.72952,-0.0329094,-0.037338,-0.0483333,0
2024-12-11 19:40:38.656,-0.189033,1.89601,9.64816,-0.0268009,0.058565,0.0274118,0
2024-12-11 19:40:38.656,-0.189033,1.89601,9.64816,-0.0268009,0.058565,0.0274118,0
2024-12-11 19:40:38.656,-0.189033,1.89601,9.64816,-0.0268009,0.058565,0.0274118,0
2024-12-11 19:40:38.656,-0.189033,1.89601,9.64816,-0.0268009,0.058565,0.0274118,0
2024-12-11 19:40:38.657,-0.189033,1.89601,9.64816,-0.0310769,0.0597867,0.0188599,0
2024-12-11 19:40:38.660,-0.181855,1.9008,9.60509,-0.0365745,0.0597867,0.0213033,0
2024-12-11 19:40:38.661,-0.157926,1.91276,9.5668,-0.0365745,0.0597867,0.0213033,0
2024-12-11 19:40:38.661,-0.157926,1.91276,9.5668,-0.0365745,0.0597867,0.0213033,0
2024-12-11 19:40:38.661,-0.157926,1.91276,9.5668,-0.0365745,0.0597867,0.0213033,0
2024-12-11 19:40:38.662,-0.157926,1.91276,9.5668,-0.0402396,0.0573433,0.0402396,0
2024-12-11 19:40:38.663,-0.148355,1.92712,9.5357,-0.0402396,0.0573433,0.0402396,0
2024-12-11 19:40:38.664,-0.148355,1.92712,9.5357,-0.0402396,0.0573433,0.0402396,0
2024-12-11 19:40:38.668,-0.0837488,1.96062,9.47588,-0.0451263,0.0518457,0.0390179,0
2024-12-11 19:40:38.668,-0.0837488,1.96062,9.47588,-0.0451263,0.0518457,0.0390179,0
2024-12-11 19:40:38.673,-0.0430708,2.00638,9.45434,-0.0634518,0.0347419,0.0439046,0
2024-12-11 19:40:38.673,-0.0430708,2.00638,9.45434,-0.0634518,0.0347419,0.0439046,0
2024-12-11 19:40:38.675,-0.0215354,2.01356,9.44956,-0.0695602,0.0268009,0.0335202,0
2024-12-11 19:40:38.676,-0.0215354,2.01356,9.44956,-0.074447,0.0182491,0.0249684,0
2024-12-11 19:40:38.678,0.0119641,2.03031,9.45434,-0.074447,0.0182491,0.0249684,0
2024-12-11 19:40:38.681,0.0334995,2.06381,9.45913,-0.086664,-0.0019089,0.0274118,0
2024-12-11 19:40:38.683,0.0574277,2.0686,9.47109,-0.0909399,-0.013515,0.0133623,0
2024-12-11 19:40:38.685,0.0957129,2.08535,9.5022,-0.0909399,-0.013515,0.0133623,0
2024-12-11 19:40:38.687,0.11007,2.10927,9.54048,-0.0988809,-0.0251211,0.0096972,0
2024-12-11 19:40:38.690,0.131605,2.11884,9.57159,-0.109265,-0.0465007,-0.0019089,0
2024-12-11 19:40:38.694,0.172283,2.14038,9.62902,-0.113541,-0.0532201,-0.013515,0
2024-12-11 19:40:38.694,0.172283,2.14038,9.62902,-0.113541,-0.0532201,-0.013515,0
2024-12-11 19:40:38.696,0.184247,2.14038,9.67448,-0.114152,-0.0599394,-0.0159584,0
2024-12-11 19:40:38.699,0.18664,2.15474,9.71755,-0.117817,-0.0684913,-0.0190126,0
2024-12-11 19:40:38.701,0.160319,2.16431,9.7678,-0.122093,-0.0709346,-0.029397,0
2024-12-11 19:40:38.703,0.150748,2.16192,9.83271,-0.122704,-0.0739889,-0.0361163,0
2024-12-11 19:40:38.706,0.157926,2.1667,9.88056,-0.122704,-0.0770431,-0.0342838,0
2024-12-11 19:40:38.709,0.145962,2.16909,9.90928,-0.123315,-0.0727672,-0.0483333,0
2024-12-11 19:40:38.711,0.136391,2.1667,9.94995,-0.123315,-0.0727672,-0.0483333,0
2024-12-11 19:40:38.713,0.122034,2.16192,10.0074,-0.120871,-0.0691021,-0.0465007,0
2024-12-11 19:40:38.716,0.102891,2.15234,10.0433,-0.118428,-0.0636045,-0.0507767,0
2024-12-11 19:40:38.718,0.0909273,2.14277,10.0696,-0.118428,-0.0636045,-0.0507767,0
2024-12-11 19:40:38.720,0.0837488,2.12842,10.1103,-0.11293,-0.057496,-0.0501658,0
2024-12-11 19:40:38.722,0.0789631,2.11884,10.1366,-0.111098,-0.0507767,-0.0471116,0
2024-12-11 19:40:38.726,0.081356,2.12363,10.1414,-0.107433,-0.0428357,-0.0458899,0
2024-12-11 19:40:38.727,0.0765703,2.11645,10.151,-0.1056,-0.0379489,-0.0471116,0
2024-12-11 19:40:38.729,0.0430708,2.12124,10.1581,-0.101935,-0.0287862,-0.0434465,0
2024-12-11 19:40:38.732,0.0143569,2.13081,10.151,-0.0988809,-0.0208452,-0.037338,0
2024-12-11 19:40:38.734,0.00478565,2.11406,10.1533,-0.0939941,-0.0141258,-0.0348946,0
2024-12-11 19:40:38.736,-0.00957129,2.11645,10.1486,-0.0939941,-0.00557398,-0.0330621,0
2024-12-11 19:40:38.739,-0.0167498,2.13559,10.139,-0.0884965,0.00236703,-0.0269536,0
2024-12-11 19:40:38.741,-0.00957129,2.14038,10.1222,-0.0884965,0.0115297,-0.0220669,0
2024-12-11 19:40:38.743,0.00478565,2.14517,10.1079,-0.0891073,0.0170274,-0.0190126,0
2024-12-11 19:40:38.746,0.0,2.1667,10.0959,-0.0860531,0.0255792,-0.0141258,0
2024-12-11 19:40:38.749,0.00239282,2.18106,10.0768,-0.0836097,0.0347419,-0.00251974,0
2024-12-11 19:40:38.751,0.026321,2.18584,10.0696,-0.0836097,0.0347419,-0.00251974,0
2024-12-11 19:40:38.753,0.0334995,2.20977,10.0528,-0.0817772,0.0420721,0.000534491,0
2024-12-11 19:40:38.755,0.0502493,2.23849,10.0433,-0.0799446,0.0432938,0.00358873,0
2024-12-11 19:40:38.758,0.0741775,2.25763,10.0409,-0.0793338,0.0481806,0.00664296,0
2024-12-11 19:40:38.760,0.081356,2.27438,10.0265,-0.0787229,0.0567324,0.0096972,0
2024-12-11 19:40:38.763,0.107677,2.29591,10.0193,-0.0762796,0.0677277,0.0139731,0
2024-12-11 19:40:38.766,0.122034,2.32463,9.99542,-0.0720036,0.074447,0.014584,0
2024-12-11 19:40:38.767,0.12682,2.35334,9.9667,-0.0720036,0.074447,0.014584,0
2024-12-11 19:40:38.769,0.157926,2.37488,9.94995,-0.0677277,0.0811663,0.0139731,0
2024-12-11 19:40:38.772,0.196211,2.39641,9.93081,-0.0652843,0.0891073,0.0133623,0
2024-12-11 19:40:38.774,0.217747,2.41316,9.89492,-0.0652843,0.0921616,0.0139731,0
2024-12-11 19:40:38.777,0.234497,2.41795,9.84946,-0.0610084,0.0964375,0.0109189,0
2024-12-11 19:40:38.780,0.253639,2.42273,9.79891,-0.0567324,0.101935,0.00542127,0
2024-12-11 19:40:38.782,0.287438,2.42991,9.73191,-0.0567324,0.101935,0.00542127,0
2024-12-11 19:40:38.783,0.347258,2.42752,9.68884,-0.0548999,0.100713,0.00114534,0
2024-12-11 19:40:38.787,0.364008,2.42991,9.66252,-0.0518457,0.0976592,-0.00496313,0
2024-12-11 19:40:38.788,0.349651,2.4347,9.6338,-0.0524565,0.0927724,-0.0110716,0
2024-12-11 19:40:38.791,0.352044,2.44666,9.57877,-0.0542891,0.0860531,-0.0171801,0
2024-12-11 19:40:38.793,0.368794,2.46341,9.51177,-0.0542891,0.074447,-0.0232886,0
2024-12-11 19:40:38.795,0.366401,2.46102,9.47348,-0.0579541,0.0677277,-0.0312296,0
2024-12-11 19:40:38.798,0.349651,2.45384,9.44238,-0.0610084,0.0530674,-0.0385597,0
2024-12-11 19:40:38.800,0.347258,2.45384,9.41127,-0.0622301,0.0420721,-0.0458899,0
2024-12-11 19:40:38.803,0.352044,2.4658,9.38974,-0.0701711,0.0280226,-0.0526092,0
2024-12-11 19:40:38.805,0.34008,2.48734,9.39691,-0.0732253,0.0139731,-0.0599394,0
2024-12-11 19:40:38.807,0.318545,2.48973,9.42802,-0.0787229,-0.00129805,-0.0648262,0
2024-12-11 19:40:38.809,0.304188,2.47537,9.44716,-0.0817772,-0.0159584,-0.0727672,0
2024-12-11 19:40:38.812,0.292223,2.48016,9.47827,-0.0872748,-0.0300079,-0.0807082,0
2024-12-11 19:40:38.814,0.277567,2.48016,9.51895,-0.0878856,-0.0397814,-0.0862058,0
2024-12-11 19:40:38.816,0.251246,2.48255,9.55723,-0.0915507,-0.0507767,-0.0917034,0
2024-12-11 19:40:38.819,0.227318,2.48495,9.60509,-0.0897182,-0.0593285,-0.0972011,0
2024-12-11 19:40:38.821,0.22014,2.4682,9.64816,-0.0884965,-0.0697129,-0.10392,0
2024-12-11 19:40:38.824,0.208176,2.45145,9.69602,-0.0884965,-0.0745997,-0.11064,0
2024-12-11 19:40:38.826,0.18664,2.42991,9.74866,-0.0854423,-0.0794865,-0.115526,0
2024-12-11 19:40:38.828,0.165105,2.42034,9.79891,-0.0811663,-0.0880384,-0.117359,0
2024-12-11 19:40:38.831,0.145962,2.39641,9.83271,-0.0775012,-0.0923143,-0.122857,0
2024-12-11 19:40:38.833,0.12682,2.37009,9.84706,-0.0750579,-0.0917034,-0.126522,0
2024-12-11 19:40:38.835,0.0981057,2.36052,9.86381,-0.0707819,-0.0959794,-0.128354,0
2024-12-11 19:40:38.838,0.0693919,2.35334,9.8686,-0.0634518,-0.0941468,-0.132019,0
2024-12-11 19:40:38.840,0.040678,2.33659,9.85424,-0.0603975,-0.0886492,-0.133852,0
2024-12-11 19:40:38.842,0.00478565,2.30548,9.85424,-0.0561216,-0.0868167,-0.13263,0
2024-12-11 19:40:38.845,-0.0334995,2.29113,9.84467,-0.0548999,-0.0837624,-0.130187,0
2024-12-11 19:40:38.847,-0.0550349,2.28873,9.82553,-0.0512348,-0.081319,-0.127133,0
2024-12-11 19:40:38.849,-0.0741775,2.28395,9.80609,-0.0494023,-0.077654,-0.124689,0
2024-12-11 19:40:38.852,-0.100499,2.2672,9.79412,-0.050624,-0.0739889,-0.121024,0
2024-12-11 19:40:38.854,-0.119641,2.25763,9.77498,-0.0512348,-0.0672696,-0.116137,0
2024-12-11 19:40:38.858,-0.122034,2.25045,9.75823,-0.0500131,-0.0617719,-0.113083,0
2024-12-11 19:40:38.859,-0.129212,2.25524,9.74387,-0.0518457,-0.0587177,-0.106364,0
2024-12-11 19:40:38.861,-0.138784,2.24566,9.71994,-0.0524565,-0.0556635,-0.101477,0
2024-12-11 19:40:38.864,-0.122034,2.23131,9.70319,-0.0561216,-0.0526092,-0.0972011,0
2024-12-11 19:40:38.866,-0.0909273,2.22652,9.69602,-0.0616192,-0.0483333,-0.093536,0
2024-12-11 19:40:38.869,-0.0693919,2.22174,9.69123,-0.0646735,-0.0391706,-0.0910926,0
2024-12-11 19:40:38.872,-0.0550349,2.21934,9.68405,-0.0707819,-0.0367272,-0.0904818,0
2024-12-11 19:40:38.873,-0.0358923,2.22652,9.67927,-0.0707819,-0.0367272,-0.0904818,0
2024-12-11 19:40:38.876,-0.026321,2.2337,9.6697,-0.0799446,-0.0367272,-0.0892601,0
2024-12-11 19:40:38.878,-0.0143569,2.23849,9.6673,-0.0860531,-0.0330621,-0.0892601,0
2024-12-11 19:40:38.881,0.00239282,2.2672,9.67687,-0.0909399,-0.0306187,-0.0910926,0
2024-12-11 19:40:38.882,0.0119641,2.27677,9.66491,-0.0952158,-0.029397,-0.0923143,0
2024-12-11 19:40:38.885,0.026321,2.27916,9.65295,-0.100713,-0.0287862,-0.0953685,0
2024-12-11 19:40:38.888,0.0430708,2.29113,9.6697,-0.113541,-0.0287862,-0.101477,0
2024-12-11 19:40:38.890,0.0526421,2.29831,9.68405,-0.113541,-0.0287862,-0.101477,0
2024-12-11 19:40:38.892,0.0598206,2.29831,9.69362,-0.123926,-0.0281753,-0.105753,0
2024-12-11 19:40:38.894,0.0622134,2.3007,9.69841,-0.125758,-0.0281753,-0.110029,0
2024-12-11 19:40:38.897,0.066999,2.30548,9.71516,-0.133699,-0.0300079,-0.116137,0
2024-12-11 19:40:38.899,0.0717847,2.3007,9.73909,-0.137364,-0.0318404,-0.118581,0
2024-12-11 19:40:38.901,0.0622134,2.29113,9.76541,-0.140419,-0.0306187,-0.122857,0
2024-12-11 19:40:38.904,0.0598206,2.29352,9.79652,-0.144084,-0.0342838,-0.127133,0
2024-12-11 19:40:38.906,0.0502493,2.30309,9.83749,-0.147749,-0.0348946,-0.130798,0
2024-12-11 19:40:38.908,0.0239282,2.30309,9.87099,-0.150803,-0.0361163,-0.132019,0
2024-12-11 19:40:38.912,0.00717847,2.29831,9.89492,-0.149581,-0.0385597,-0.133852,0
2024-12-11 19:40:38.914,-0.0119641,2.30548,9.93799,-0.14836,-0.041614,-0.133852,0
2024-12-11 19:40:38.916,-0.0239282,2.30309,9.99063,-0.14836,-0.041614,-0.133852,0
2024-12-11 19:40:38.919,-0.0382852,2.29113,10.0337,-0.141029,-0.0403923,-0.130798,0
2024-12-11 19:40:38.920,-0.0382852,2.28634,10.0672,-0.141029,-0.0403923,-0.130798,0
2024-12-11 19:40:38.922,-0.026321,2.27677,10.1007,-0.134921,-0.0397814,-0.127743,0
2024-12-11 19:40:38.927,-0.0334995,2.25524,10.1486,-0.11965,-0.0342838,-0.124078,0
2024-12-11 19:40:38.928,-0.0239282,2.25524,10.1486,-0.111098,-0.0306187,-0.121024,0
2024-12-11 19:40:38.930,-0.0334995,2.24088,10.1557,-0.111098,-0.0306187,-0.121024,0
2024-12-11 19:40:38.932,-0.0215354,2.22652,10.1629,-0.100103,-0.0306187,-0.11797,0
2024-12-11 19:40:38.934,-0.00957129,2.21456,10.1629,-0.0891073,-0.0263428,-0.116137,0
2024-12-11 19:40:38.937,0.00717847,2.19781,10.1414,-0.0793338,-0.0245102,-0.114305,0
2024-12-11 19:40:38.940,0.0287139,2.17149,10.1318,-0.0597867,-0.0190126,-0.11064,0
2024-12-11 19:40:38.941,0.0454636,2.16192,10.1007,-0.0597867,-0.0190126,-0.11064,0
2024-12-11 19:40:38.944,0.040678,2.15713,10.0528,-0.046348,-0.0165692,-0.111251,0
2024-12-11 19:40:38.946,0.040678,2.14277,10.017,-0.0353528,-0.0177909,-0.110029,0
2024-12-11 19:40:38.948,0.0526421,2.13559,9.97149,-0.0237467,-0.0177909,-0.109418,0
2024-12-11 19:40:38.951,0.0502493,2.12842,9.92842,-0.0176382,-0.0184018,-0.111251,0
2024-12-11 19:40:38.954,0.066999,2.12842,9.89253,0.00129805,-0.0226777,-0.112472,0
2024-12-11 19:40:38.955,0.0933201,2.12124,9.85185,0.00129805,-0.0226777,-0.112472,0
2024-12-11 19:40:38.959,0.105284,2.10927,9.81087,0.0159584,-0.0263428,-0.112472,0
2024-12-11 19:40:38.960,0.122034,2.08056,9.76541,0.0159584,-0.0263428,-0.112472,0
2024-12-11 19:40:38.964,0.12682,2.0662,9.72234,0.0257319,-0.0287862,-0.114916,0
2024-12-11 19:40:38.965,0.138784,2.0686,9.68405,0.0318404,-0.0269536,-0.115526,0
2024-12-11 19:40:38.967,0.16989,2.04706,9.64098,0.0397814,-0.0263428,-0.11797,0
2024-12-11 19:40:38.971,0.181855,2.01595,9.59791,0.0440574,-0.0269536,-0.116137,0
2024-12-11 19:40:38.972,0.179462,1.99442,9.55245,0.0513875,-0.0196235,-0.119192,0
2024-12-11 19:40:38.975,0.165105,1.99681,9.50459,0.0636045,-0.00862822,-0.117359,0
2024-12-11 19:40:38.978,0.143569,1.98724,9.46391,0.0684913,0.00297788,-0.118581,0
2024-12-11 19:40:38.979,0.131605,1.96062,9.42084,0.0684913,0.00297788,-0.118581,0
2024-12-11 19:40:38.981,0.112463,1.95344,9.35863,0.077654,0.0139731,-0.11797,0
2024-12-11 19:40:38.984,0.0837488,1.96062,9.30838,0.0831516,0.0268009,-0.113694,0
2024-12-11 19:40:38.986,0.0454636,1.95583,9.27966,0.0868167,0.0402396,-0.11064,0
2024-12-11 19:40:38.989,0.0167498,1.95105,9.2677,0.0984228,0.0524565,-0.107585,0
2024-12-11 19:40:38.991,-0.0287139,1.94387,9.25544,0.102088,0.0622301,-0.101477,0
2024-12-11 19:40:38.994,-0.0454636,1.93191,9.1669,0.11797,0.104379,-0.0880384,0
2024-12-11 19:40:38.996,-0.00717847,1.93908,9.00898,0.11797,0.104379,-0.0880384,0
2024-12-11 19:40:38.998,-0.00239282,1.92473,8.88216,0.121635,0.134921,-0.0770431,0
2024-12-11 19:40:39.000,-0.0526421,1.89601,8.8008,0.122246,0.158133,-0.0648262,0
2024-12-11 19:40:39.003,-0.107677,1.87687,8.73859,0.122246,0.175237,-0.0562743,0
2024-12-11 19:40:39.005,-0.141177,1.86012,8.65454,0.126522,0.18501,-0.0471116,0
2024-12-11 19:40:39.007,-0.138784,1.84816,8.54208,0.123468,0.188065,-0.0403923,0
2024-12-11 19:40:39.010,-0.11007,1.85055,8.42722,0.118581,0.189897,-0.0324513,0
2024-12-11 19:40:39.012,-0.0646062,1.87448,8.32433,0.114305,0.188675,-0.0263428,0
2024-12-11 19:40:39.014,-0.0191426,1.90798,8.23819,0.105753,0.187454,-0.0220669,0
2024-12-11 19:40:39.017,0.00478565,1.92233,8.14248,0.0965902,0.187454,-0.0159584,0
2024-12-11 19:40:39.020,0.0119641,1.95105,8.068,0.073378,0.167907,-0.0104608,0
2024-12-11 19:40:39.022,0.0119641,1.99442,8.02493,0.073378,0.167907,-0.0104608,0
2024-12-11 19:40:39.024,0.0191426,2.02792,7.96272,0.0581068,0.149581,-0.00862822,0
2024-12-11 19:40:39.026,0.040678,2.0662,7.91964,0.0440574,0.130034,-0.00740652,0
2024-12-11 19:40:39.028,0.102891,2.10209,7.90529,0.0263428,0.109265,-0.00679568,0
2024-12-11 19:40:39.031,0.189033,2.1332,7.9005,0.00923906,0.0891073,-0.00679568,0
2024-12-11 19:40:39.033,0.241675,2.15713,7.91007,-0.0121406,0.0652843,-0.00984991,0
2024-12-11 19:40:39.038,0.404686,2.22174,8.00339,-0.0329094,0.0316877,-0.0141258,0
2024-12-11 19:40:39.038,0.404686,2.22174,8.00339,-0.0329094,0.0316877,-0.0141258,0
2024-12-11 19:40:39.041,0.490828,2.26241,8.04646,-0.0897182,-0.0709346,-0.0403923,0
2024-12-11 19:40:39.043,0.579362,2.28634,8.12303,-0.0897182,-0.0709346,-0.0403923,0
2024-12-11 19:40:39.045,0.665504,2.31266,8.22383,-0.109876,-0.11064,-0.0526092,0
2024-12-11 19:40:39.047,0.754038,2.34616,8.32912,-0.12698,-0.144847,-0.0684913,0
2024-12-11 19:40:39.050,0.852443,2.36531,8.43919,-0.145305,-0.185163,-0.0849841,0
2024-12-11 19:40:39.053,0.94337,2.39163,8.57318,-0.179513,-0.268238,-0.123468,0
2024-12-11 19:40:39.055,1.04626,2.42273,8.74577,-0.179513,-0.268238,-0.123468,0
2024-12-11 19:40:39.057,1.15633,2.44905,8.91087,-0.191119,-0.307333,-0.146069,0
2024-12-11 19:40:39.059,1.27119,2.47298,9.06401,-0.205779,-0.344594,-0.171724,0
2024-12-11 19:40:39.061,1.37647,2.48973,9.2339,-0.215553,-0.380634,-0.19738,0
2024-12-11 19:40:39.064,1.4677,2.48734,9.41127,-0.228991,-0.416063,-0.225479,0
2024-12-11 19:40:39.066,1.54666,2.49212,9.59313,-0.234489,-0.443551,-0.254189,0
2024-12-11 19:40:39.068,1.58973,2.50409,9.76062,-0.243041,-0.470429,-0.284731,0
2024-12-11 19:40:39.071,1.62084,2.51127,9.92603,-0.251593,-0.488754,-0.310387,0
2024-12-11 19:40:39.074,1.64477,2.54028,10.0983,-0.255258,-0.498528,-0.337875,0
2024-12-11 19:40:39.076,1.64955,2.58814,10.2682,-0.253425,-0.502804,-0.364752,0
2024-12-11 19:40:39.079,1.63759,2.62642,10.4288,-0.25709,-0.499749,-0.387964,0
2024-12-11 19:40:39.080,1.61127,2.65274,10.582,-0.252814,-0.489365,-0.410566,0
2024-12-11 19:40:39.083,1.5682,2.67667,10.6872,-0.249149,-0.47104,-0.431945,0
2024-12-11 19:40:39.087,1.41984,2.69821,10.8452,-0.238765,-0.414842,-0.466153,0
2024-12-11 19:40:39.090,1.35733,2.67428,10.8858,-0.230824,-0.382467,-0.481424,0
2024-12-11 19:40:39.091,1.35733,2.67428,10.8858,-0.221661,-0.351314,-0.493641,0
2024-12-11 19:40:39.093,1.29272,2.65992,10.9098,-0.215553,-0.315884,-0.502193,0
2024-12-11 19:40:39.094,1.1994,2.65514,10.9146,-0.215553,-0.315884,-0.502193,0
2024-12-11 19:40:39.097,1.11326,2.63599,10.8906,-0.210055,-0.279234,-0.50769,0
2024-12-11 19:40:39.100,1.03669,2.62642,10.8547,-0.20639,-0.214484,-0.511356,0
2024-12-11 19:40:39.102,0.948156,2.62164,10.7973,-0.20639,-0.214484,-0.511356,0
2024-12-11 19:40:39.104,0.852443,2.61924,10.7088,-0.207612,-0.182109,-0.510745,0
2024-12-11 19:40:39.106,0.76361,2.62403,10.5963,-0.211888,-0.14668,-0.506469,0
2024-12-11 19:40:39.109,0.684646,2.63121,10.4934,-0.221661,-0.108196,-0.498528,0
2024-12-11 19:40:39.111,0.598505,2.64078,10.3807,-0.230824,-0.0691021,-0.490587,0
2024-12-11 19:40:39.114,0.536291,2.66471,10.2491,-0.246706,-0.0306187,-0.481424,0
2024-12-11 19:40:39.116,0.478864,2.69581,10.1557,-0.263199,0.00786466,-0.466764,0
2024-12-11 19:40:39.119,0.409472,2.73649,10.0744,-0.311456,0.0768904,-0.439886,0
2024-12-11 19:40:39.121,0.359223,2.78674,9.98345,-0.311456,0.0768904,-0.439886,0
2024-12-11 19:40:39.123,0.313759,2.84656,9.90928,-0.339555,0.106822,-0.423394,0
2024-12-11 19:40:39.125,0.258425,2.91356,9.84228,-0.373762,0.133088,-0.405679,0
2024-12-11 19:40:39.127,0.222533,3.00449,9.77737,-0.403694,0.159355,-0.389797,0
2024-12-11 19:40:39.131,0.20339,3.09093,9.73669,-0.471498,0.203336,-0.354368,0
2024-12-11 19:40:39.133,0.193819,3.15793,9.72712,-0.471498,0.203336,-0.354368,0
2024-12-11 19:40:39.134,0.196211,3.22014,9.73191,-0.506316,0.219829,-0.337264,0
2024-12-11 19:40:39.137,0.210568,3.28714,9.74866,-0.54541,0.233267,-0.321382,0
2024-12-11 19:40:39.139,0.246461,3.35892,9.8013,-0.580229,0.239376,-0.307943,0
2024-12-11 19:40:39.142,0.301795,3.43071,9.89492,-0.611382,0.241208,-0.296337,0
2024-12-11 19:40:39.144,0.366401,3.50249,10.0146,-0.643146,0.239376,-0.287175,0
2024-12-11 19:40:39.147,0.45015,3.55035,10.1581,-0.695679,0.226548,-0.277401,0
2024-12-11 19:40:39.149,0.536291,3.59103,10.3089,-0.695679,0.226548,-0.277401,0
2024-12-11 19:40:39.151,0.60329,3.62692,10.4862,-0.712782,0.217385,-0.27679,0
2024-12-11 19:40:39.153,0.643968,3.65115,10.6657,-0.726221,0.208833,-0.278012,0
2024-12-11 19:40:39.156,0.684646,3.66551,10.8404,-0.735995,0.205779,-0.280455,0
2024-12-11 19:40:39.158,0.732503,3.68226,11.0297,-0.736605,0.202114,-0.285342,0
2024-12-11 19:40:39.160,0.76361,3.72054,11.1948,-0.73294,0.202725,-0.289007,0
2024-12-11 19:40:39.163,0.758824,3.766,11.3671,-0.723778,0.205168,-0.294505,0
2024-12-11 19:40:39.165,0.732503,3.79232,11.5445,-0.704841,0.208833,-0.298781,0
2024-12-11 19:40:39.168,0.722932,3.82343,11.7024,-0.685905,0.214942,-0.3055,0
2024-12-11 19:40:39.170,0.715753,3.84257,11.8268,-0.659028,0.228991,-0.308554,0
2024-12-11 19:40:39.172,0.689432,3.8354,11.9058,-0.627264,0.244263,-0.312219,0
2024-12-11 19:40:39.174,0.648754,3.82343,11.9632,-0.587559,0.265642,-0.31283,0
2024-12-11 19:40:39.177,0.615255,3.80429,11.98,-0.548464,0.287633,-0.316495,0
2024-12-11 19:40:39.180,0.581755,3.7684,11.9632,-0.506927,0.309012,-0.315884,0
2024-12-11 19:40:39.182,0.533899,3.72533,11.9201,-0.462335,0.334057,-0.313441,0
2024-12-11 19:40:39.184,0.452543,3.68226,11.8316,-0.416521,0.35788,-0.308554,0
2024-12-11 19:40:39.186,0.368794,3.63171,11.7191,-0.373151,0.379871,-0.304278,0
2024-12-11 19:40:39.190,0.289831,3.59342,11.5756,-0.324284,0.400639,-0.295726,0
2024-12-11 19:40:39.191,0.200997,3.55753,11.4078,-0.27847,0.418354,-0.286564,0
2024-12-11 19:40:39.194,0.102891,3.51685,11.2427,-0.241208,0.431793,-0.274347,0
2024-12-11 19:40:39.196,0.00478565,3.48335,11.068,-0.199671,0.440955,-0.257854,0
2024-12-11 19:40:39.198,-0.081356,3.45703,10.8858,-0.158744,0.451951,-0.241361,0
2024-12-11 19:40:39.200,-0.174676,3.42592,10.7136,-0.121482,0.458059,-0.222425,0
2024-12-11 19:40:39.203,-0.267996,3.40678,10.5509,-0.0897182,0.460502,-0.202267,0
2024-12-11 19:40:39.205,-0.342473,3.3996,10.3711,-0.0573433,0.464778,-0.178444,0
2024-12-11 19:40:39.207,-0.395115,3.39003,10.1845,-0.0261901,0.469054,-0.154621,0
2024-12-11 19:40:39.210,-0.442971,3.38046,10.0026,-0.0261901,0.469054,-0.154621,0
2024-12-11 19:40:39.215,-0.529113,3.34935,9.70559,0.0544418,0.478217,-0.0788757,0
2024-12-11 19:40:39.216,-0.529113,3.34935,9.70559,0.0782648,0.48066,-0.0532201,0
2024-12-11 19:40:39.217,-0.557827,3.34696,9.55245,0.0782648,0.48066,-0.0532201,0
2024-12-11 19:40:39.220,-0.574577,3.34218,9.41127,0.101477,0.483104,-0.0257319,0
2024-12-11 19:40:39.222,-0.569791,3.33021,9.28924,0.124078,0.484936,-0.0019089,0
2024-12-11 19:40:39.224,-0.576969,3.31585,9.15015,0.141182,0.48738,0.0194708,0
2024-12-11 19:40:39.226,-0.579362,3.30389,9.01376,0.162562,0.490434,0.0420721,0
2024-12-11 19:40:39.230,-0.579362,3.30389,8.87976,0.195547,0.497764,0.0805555,0
2024-12-11 19:40:39.231,-0.574577,3.30868,8.75294,0.195547,0.497764,0.0805555,0
2024-12-11 19:40:39.234,-0.548256,3.31346,8.63061,0.209597,0.500818,0.0958267,0
2024-12-11 19:40:39.236,-0.533899,3.31585,8.51097,0.221814,0.499597,0.111098,0
2024-12-11 19:40:39.238,-0.52672,3.31107,8.4009,0.23342,0.498375,0.123315,0
2024-12-11 19:40:39.240,-0.512363,3.31825,8.27887,0.242583,0.497764,0.137364,0
2024-12-11 19:40:39.243,-0.495613,3.34457,8.14965,0.251135,0.49471,0.144084,0
2024-12-11 19:40:39.245,-0.481256,3.35175,8.03929,0.257243,0.491656,0.150192,0
2024-12-11 19:40:39.249,-0.4669,3.35175,7.93161,0.260908,0.481271,0.161798,0
2024-12-11 19:40:39.251,-0.452543,3.37567,7.79761,0.260908,0.481271,0.161798,0
2024-12-11 19:40:39.252,-0.447757,3.38764,7.68515,0.259076,0.475163,0.164852,0
2024-12-11 19:40:39.255,-0.435793,3.39721,7.59901,0.259686,0.469054,0.164852,0
2024-12-11 19:40:39.257,-0.419043,3.43071,7.51735,0.253578,0.459281,0.164852,0
2024-12-11 19:40:39.259,-0.423829,3.44985,7.42642,0.249302,0.451951,0.166074,0
2024-12-11 19:40:39.263,-0.423829,3.45703,7.35225,0.232809,0.428738,0.157522,0
2024-12-11 19:40:39.264,-0.431007,3.48335,7.2996,0.232809,0.428738,0.157522,0
2024-12-11 19:40:39.267,-0.440578,3.50489,7.24936,0.221203,0.414689,0.155079,0
2024-12-11 19:40:39.270,-0.431007,3.51924,7.21586,0.199823,0.387201,0.145305,0
2024-12-11 19:40:39.271,-0.421436,3.52164,7.18714,0.199823,0.387201,0.145305,0
2024-12-11 19:40:39.273,-0.428614,3.52403,7.15125,0.188217,0.374984,0.14164,0
2024-12-11 19:40:39.277,-0.428614,3.54556,7.11536,0.164394,0.34322,0.128202,0
2024-12-11 19:40:39.279,-0.407079,3.55992,7.09382,0.153399,0.328559,0.122093,0
2024-12-11 19:40:39.281,-0.397508,3.55992,7.08186,0.153399,0.328559,0.122093,0
2024-12-11 19:40:39.283,-0.397508,3.54796,7.07946,0.140571,0.313899,0.116595,0
2024-12-11 19:40:39.285,-0.375972,3.54078,7.08186,0.128354,0.29985,0.109876,0
2024-12-11 19:40:39.288,-0.349651,3.52882,7.07229,0.116748,0.287022,0.102546,0
2024-12-11 19:40:39.290,-0.308973,3.50967,7.07468,0.102088,0.272362,0.0970484,0
2024-12-11 19:40:39.292,-0.275175,3.51446,7.07707,0.0917034,0.259534,0.0891073,0
2024-12-11 19:40:39.299,-0.200997,3.49053,7.12014,0.0556635,0.212498,0.0640626,0
2024-12-11 19:40:39.299,-0.200997,3.49053,7.12014,0.0556635,0.212498,0.0640626,0
2024-12-11 19:40:39.300,-0.200997,3.49053,7.12014,0.0556635,0.212498,0.0640626,0
2024-12-11 19:40:39.302,-0.179462,3.48574,7.12493,0.0446682,0.195395,0.0536782,0
2024-12-11 19:40:39.304,-0.160319,3.46421,7.14886,0.0312296,0.175848,0.0445155,0
2024-12-11 19:40:39.306,-0.122034,3.44267,7.17039,0.0147367,0.15569,0.0341311,0
2024-12-11 19:40:39.309,-0.105284,3.44028,7.18236,0.00313059,0.135532,0.0243575,0
2024-12-11 19:40:39.311,-0.081356,3.44985,7.21586,-0.010308,0.111709,0.0151948,0
2024-12-11 19:40:39.313,-0.0526421,3.44746,7.27089,-0.0261901,0.0854423,0.000534491,0
2024-12-11 19:40:39.316,-0.0334995,3.44028,7.31875,-0.0402396,0.0591758,-0.0110716,0
2024-12-11 19:40:39.318,-0.0287139,3.44985,7.38814,-0.0548999,0.0316877,-0.0232886,0
2024-12-11 19:40:39.321,-0.0239282,3.44985,7.46949,-0.0701711,0.00664296,-0.0367272,0
2024-12-11 19:40:39.323,-0.0215354,3.44267,7.54367,-0.082388,-0.0208452,-0.0489441,0
2024-12-11 19:40:39.325,-0.026321,3.44746,7.6349,-0.0952158,-0.0465007,-0.0636045,0
2024-12-11 19:40:39.328,-0.0311067,3.45224,7.72822,-0.107433,-0.0709346,-0.0782648,0
2024-12-11 19:40:39.330,-0.0382852,3.44028,7.82393,-0.116595,-0.093536,-0.0904818,0
2024-12-11 19:40:39.333,-0.0526421,3.44746,7.93161,-0.12698,-0.116137,-0.107585,0
2024-12-11 19:40:39.335,-0.0717847,3.44507,8.0345,-0.137364,-0.137517,-0.119192,0
2024-12-11 19:40:39.338,-0.0981057,3.42832,8.13261,-0.143473,-0.159507,-0.132019,0
2024-12-11 19:40:39.339,-0.131605,3.41157,8.2334,-0.150803,-0.176611,-0.146069,0
2024-12-11 19:40:39.342,-0.179462,3.39721,8.34108,-0.156911,-0.192493,-0.160118,0
2024-12-11 19:40:39.345,-0.234497,3.38764,8.45354,-0.168517,-0.224868,-0.180276,0
2024-12-11 19:40:39.347,-0.277567,3.35653,8.56601,-0.168517,-0.224868,-0.180276,0
2024-12-11 19:40:39.350,-0.311366,3.33021,8.67129,-0.174015,-0.252967,-0.198602,0
2024-12-11 19:40:39.351,-0.335294,3.30868,8.77448,-0.174015,-0.252967,-0.198602,0
2024-12-11 19:40:39.354,-0.359223,3.27996,8.89173,-0.174626,-0.266406,-0.20471,0
2024-12-11 19:40:39.356,-0.387936,3.24646,8.97548,-0.183178,-0.278012,-0.207764,0
2024-12-11 19:40:39.358,-0.435793,3.22493,9.05444,-0.186843,-0.288396,-0.21204,0
2024-12-11 19:40:39.361,-0.474078,3.18425,9.14297,-0.192951,-0.298781,-0.215095,0
2024-12-11 19:40:39.363,-0.495613,3.13879,9.24108,-0.195395,-0.306111,-0.216316,0
2024-12-11 19:40:39.366,-0.536291,3.12443,9.35145,-0.201503,-0.314663,-0.216927,0
2024-12-11 19:40:39.368,-0.562612,3.1005,9.44716,-0.205779,-0.319549,-0.213873,0
2024-12-11 19:40:39.370,-0.593719,3.07388,9.55484,-0.210055,-0.321993,-0.209597,0
2024-12-11 19:40:39.372,-0.63679,3.05952,9.66252,-0.216774,-0.323825,-0.204099,0
2024-12-11 19:40:39.375,-0.687039,3.05474,9.75344,-0.216774,-0.323825,-0.204099,0
2024-12-11 19:40:39.378,-0.734896,3.05234,9.85424,-0.22777,-0.318939,-0.189439,0
2024-12-11 19:40:39.379,-0.785145,3.05713,9.9667,-0.234489,-0.31283,-0.180276,0
2024-12-11 19:40:39.382,-0.828216,3.0667,10.0887,-0.236932,-0.303667,-0.169892,0
2024-12-11 19:40:39.385,-0.857229,3.07627,10.218,-0.239987,-0.274958,-0.142404,0
2024-12-11 19:40:39.386,-0.873978,3.09811,10.3448,-0.239987,-0.274958,-0.142404,0
2024-12-11 19:40:39.390,-0.878764,3.10768,10.4719,-0.240597,-0.256632,-0.126522,0
2024-12-11 19:40:39.394,-0.881157,3.08584,10.6872,-0.233267,-0.207764,-0.0984228,0
2024-12-11 19:40:39.394,-0.881157,3.08584,10.6872,-0.233267,-0.207764,-0.0984228,0
2024-12-11 19:40:39.396,-0.8668,3.07867,10.771,-0.228381,-0.180887,-0.0837624,0
2024-12-11 19:40:39.399,-0.8668,3.06192,10.8452,-0.226548,-0.15401,-0.0709346,0
2024-12-11 19:40:39.401,-0.869193,3.03081,10.9098,-0.222883,-0.128354,-0.0581068,0
2024-12-11 19:40:39.404,-0.857229,3.00449,10.9579,-0.214942,-0.0752106,-0.037338,0
2024-12-11 19:40:39.405,-0.857229,2.99252,10.9914,-0.214942,-0.0752106,-0.037338,0
2024-12-11 19:40:39.408,-0.857229,2.98535,11.0082,-0.214942,-0.0544418,-0.0281753,0
2024-12-11 19:40:39.412,-0.830609,2.98295,11.0297,-0.221661,-0.013515,-0.0116825,0
2024-12-11 19:40:39.413,-0.830609,2.98295,11.0297,-0.221661,-0.013515,-0.0116825,0
2024-12-11 19:40:39.415,-0.835394,2.98535,11.0465,-0.223494,0.00236703,-0.00740652,0
2024-12-11 19:40:39.417,-0.835394,2.99252,11.056,-0.228991,0.0139731,0.00114534,0
2024-12-11 19:40:39.420,-0.825823,2.99492,11.0656,-0.237543,0.0249684,0.00786466,0
2024-12-11 19:40:39.422,-0.80668,3.0021,11.08,-0.246706,0.0347419,0.0127514,0
2024-12-11 19:40:39.425,-0.777966,3.02602,11.0871,-0.259534,0.0420721,0.0182491,0
2024-12-11 19:40:39.427,-0.73011,3.02842,11.0871,-0.272362,0.050624,0.022525,0
2024-12-11 19:40:39.429,-0.684646,3.01406,11.0967,-0.272362,0.050624,0.022525,0
2024-12-11 19:40:39.431,-0.665504,3.01406,11.1206,-0.302293,0.0622301,0.0268009,0
2024-12-11 19:40:39.435,-0.62004,3.03081,11.1494,-0.340166,0.0726145,0.0255792,0
2024-12-11 19:40:39.436,-0.569791,3.03559,11.1661,-0.340166,0.0726145,0.0255792,0
2024-12-11 19:40:39.441,-0.507577,3.00927,11.1829,-0.379871,0.0799446,0.0249684,0
2024-12-11 19:40:39.443,-0.490828,3.01406,11.2187,-0.401861,0.0829989,0.0237467,0
2024-12-11 19:40:39.444,-0.490828,3.01406,11.2187,-0.425684,0.0793338,0.0194708,0
2024-12-11 19:40:39.445,-0.464507,3.00688,11.2714,-0.425684,0.0793338,0.0194708,0
2024-12-11 19:40:39.448,-0.419043,3.0021,11.3145,-0.425684,0.0793338,0.0194708,0
2024-12-11 19:40:39.450,-0.3999,2.9997,11.3575,-0.476995,0.0695602,0.0127514,0
2024-12-11 19:40:39.452,-0.397508,2.99252,11.403,-0.503873,0.0597867,0.00786466,0
2024-12-11 19:40:39.455,-0.385544,2.98295,11.458,-0.528917,0.0475697,0.00114534,0
2024-12-11 19:40:39.459,-0.373579,2.9686,11.6115,-0.585726,0.0200816,-0.0110716,0
2024-12-11 19:40:39.460,-0.373579,2.9686,11.6115,-0.585726,0.0200816,-0.0110716,0
2024-12-11 19:40:39.462,-0.347258,2.95663,11.688,-0.585726,0.0200816,-0.0110716,0
2024-12-11 19:40:39.468,-0.27996,2.93988,11.8579,-0.671856,-0.0251211,-0.0379489,0
2024-12-11 19:40:39.469,-0.260818,2.92074,11.9393,-0.701176,-0.0422248,-0.0452791,0
2024-12-11 19:40:39.469,-0.260818,2.92074,11.9393,-0.701176,-0.0422248,-0.0452791,0
2024-12-11 19:40:39.471,-0.246461,2.9016,12.0302,-0.726221,-0.0519984,-0.0550526,0
2024-12-11 19:40:39.474,-0.229711,2.88724,12.1502,-0.750655,-0.0648262,-0.0648262,0
2024-12-11 19:40:39.476,-0.212961,2.84895,12.2674,-0.776921,-0.0764323,-0.0770431,0
2024-12-11 19:40:39.478,-0.208176,2.82742,12.3775,-0.800744,-0.0910926,-0.0886492,0
2024-12-11 19:40:39.481,-0.205783,2.82263,12.4804,-0.823957,-0.100255,-0.100866,0
2024-12-11 19:40:39.483,-0.210568,2.81785,12.5928,-0.847169,-0.111861,-0.112472,0
2024-12-11 19:40:39.485,-0.234497,2.80828,12.7128,-0.866105,-0.116748,-0.122246,0
2024-12-11 19:40:39.489,-0.258425,2.8011,12.8252,-0.897869,-0.123468,-0.141182,0
2024-12-11 19:40:39.492,-0.316152,2.78674,13.0549,-0.908864,-0.123468,-0.147901,0
2024-12-11 19:40:39.493,-0.316152,2.78674,13.0549,-0.908864,-0.123468,-0.147901,0
2024-12-11 19:40:39.497,-0.423829,2.78196,13.2299,-0.930244,-0.110029,-0.153399,0
2024-12-11 19:40:39.497,-0.423829,2.78196,13.2299,-0.930244,-0.110029,-0.153399,0
2024-12-11 19:40:39.500,-0.4669,2.77238,13.3041,-0.935131,-0.0984228,-0.150345,0
2024-12-11 19:40:39.503,-0.517149,2.75563,13.3878,-0.940628,-0.0727672,-0.138739,0
2024-12-11 19:40:39.504,-0.56022,2.72931,13.4644,-0.940628,-0.0727672,-0.138739,0
2024-12-11 19:40:39.507,-0.608076,2.71496,13.5529,-0.936352,-0.0605502,-0.128354,0
2024-12-11 19:40:39.510,-0.660718,2.7006,13.6295,-0.922303,-0.0269536,-0.0978119,0
2024-12-11 19:40:39.512,-0.703789,2.67189,13.6893,-0.922303,-0.0269536,-0.0978119,0
2024-12-11 19:40:39.514,-0.734896,2.61924,13.7686,-0.909475,-0.00801737,-0.0788757,0
2024-12-11 19:40:39.516,-0.754038,2.5666,13.8595,-0.893593,0.0158057,-0.0599394,0
2024-12-11 19:40:39.519,-0.766002,2.4993,13.9505,-0.870381,0.042683,-0.0361163,0
2024-12-11 19:40:39.522,-0.766002,2.44666,14.0175,-0.812961,0.104989,0.0164165,0
2024-12-11 19:40:39.525,-0.787538,2.40838,14.0725,-0.778754,0.142251,0.0469589,0
2024-12-11 19:40:39.525,-0.830609,2.35334,14.0725,-0.778754,0.142251,0.0469589,0
2024-12-11 19:40:39.528,-0.876371,2.31027,14.0557,-0.73966,0.181956,0.0781121,0
2024-12-11 19:40:39.530,-0.936192,2.26959,14.0103,-0.699955,0.224715,0.111709,0
2024-12-11 19:40:39.533,-0.974477,2.21456,13.9217,-0.662693,0.264421,0.14836,0
2024-12-11 19:40:39.535,-1.01037,2.16431,13.8093,-0.622377,0.302904,0.188065,0
2024-12-11 19:40:39.537,-1.03908,2.11884,13.6893,-0.586337,0.334668,0.22777,0
2024-12-11 19:40:39.540,-1.0319,2.07338,13.5553,-0.55213,0.358491,0.268696,0
2024-12-11 19:40:39.543,-1.01755,2.01835,13.3974,-0.498375,0.368875,0.348717,0
2024-12-11 19:40:39.545,-0.998405,1.9657,13.218,-0.479439,0.356658,0.383536,0
2024-12-11 19:40:39.548,-0.967299,1.94865,13.0382,-0.466611,0.3365,0.413467,0
2024-12-11 19:40:39.550,-0.924228,1.93669,12.8563,-0.461113,0.30046,0.440955,0
2024-12-11 19:40:39.551,-0.854836,1.91516,12.7008,-0.461113,0.30046,0.440955,0
2024-12-11 19:40:39.554,-0.76361,1.91037,12.588,-0.461724,0.252814,0.462946,0
2024-12-11 19:40:39.556,-0.660718,1.91516,12.5115,-0.464778,0.19906,0.478217,0
2024-12-11 19:40:39.558,-0.56022,1.91516,12.4756,-0.475163,0.136143,0.490434,0
2024-12-11 19:40:39.561,-0.447757,1.91994,12.4708,-0.475163,0.136143,0.490434,0
2024-12-11 19:40:39.563,-0.328116,1.92951,12.5019,-0.497153,-0.0110716,0.496542,0
2024-12-11 19:40:39.565,-0.210568,1.9343,12.5952,-0.508149,-0.0910926,0.492267,0
2024-12-11 19:40:39.569,-0.0885344,1.90558,12.7295,-0.53075,-0.258465,0.470887,0
2024-12-11 19:40:39.570,0.0358923,1.86251,12.9138,-0.53075,-0.258465,0.470887,0
2024-12-11 19:40:39.573,0.160319,1.82901,13.1267,-0.536858,-0.340929,0.455005,0
2024-12-11 19:40:39.577,0.41665,1.75484,13.5984,-0.535026,-0.486311,0.415911,0
2024-12-11 19:40:39.577,0.41665,1.75484,13.5984,-0.535026,-0.486311,0.415911,0
2024-12-11 19:40:39.581,0.50997,1.72134,13.8452,-0.515479,-0.604815,0.367654,0
2024-12-11 19:40:39.582,0.596112,1.68544,14.0797,-0.515479,-0.604815,0.367654,0
2024-12-11 19:40:39.587,0.739681,1.59452,14.5944,-0.497153,-0.654294,0.341387,0
2024-12-11 19:40:39.588,0.739681,1.59452,14.5944,-0.442788,-0.749586,0.29313,0
2024-12-11 19:40:39.590,0.825823,1.51555,14.8481,-0.442788,-0.749586,0.29313,0
2024-12-11 19:40:39.591,0.917049,1.39083,15.0541,-0.407359,-0.79601,0.268696,0
2024-12-11 19:40:39.595,1.04148,1.24726,15.2312,-0.324894,-0.899854,0.213109,0
2024-12-11 19:40:39.596,1.17547,1.09412,15.425,-0.324894,-0.899854,0.213109,0
2024-12-11 19:40:39.599,1.30947,0.94337,15.6622,-0.276637,-0.954831,0.183789,0
2024-12-11 19:40:39.601,1.44138,0.794716,15.8967,-0.222883,-1.01042,0.152635,0
2024-12-11 19:40:39.604,1.55623,0.643968,16.1076,-0.0897182,-1.10327,0.0909399,0
2024-12-11 19:40:39.606,1.64477,0.512363,16.2775,-0.0897182,-1.10327,0.0909399,0
2024-12-11 19:40:39.609,1.71894,0.3999,16.4067,-0.0182491,-1.13808,0.0616192,0
2024-12-11 19:40:39.610,1.76201,0.313759,16.4689,0.065437,-1.15702,0.0377962,0
2024-12-11 19:40:39.613,1.78594,0.22014,16.4857,0.147291,-1.16374,0.0158057,0
2024-12-11 19:40:39.615,1.81705,0.117248,16.5455,0.235253,-1.15763,-0.00251974,0
2024-12-11 19:40:39.617,1.82184,0.0358923,16.6008,0.326269,-1.14541,-0.0159584,0
2024-12-11 19:40:39.620,1.79312,-0.0478565,16.5673,0.421561,-1.12098,-0.0226777,0
2024-12-11 19:40:39.622,1.76919,-0.150748,16.5,0.421561,-1.12098,-0.0226777,1
2024-12-11 19:40:39.624,1.70937,-0.22014,16.4067,0.619475,-1.04279,-0.0245102,0
2024-12-11 19:40:39.628,1.60887,-0.265603,16.2177,0.819223,-0.924899,0.00114534,0
2024-12-11 19:40:39.629,1.52034,-0.342473,15.9853,0.819223,-0.924899,0.00114534,0
2024-12-11 19:40:39.631,1.45573,-0.442971,15.7436,0.916347,-0.845489,0.0200816,0
2024-12-11 19:40:39.634,1.38126,-0.529113,15.4684,1.01592,-0.755694,0.0432938,0
2024-12-11 19:40:39.636,1.27837,-0.629611,15.1618,1.11609,-0.65857,0.0738362,0
2024-12-11 19:40:39.640,1.1659,-0.732503,14.8552,1.21078,-0.556558,0.108044,0
2024-12-11 19:40:39.641,1.05823,-0.809073,14.5466,1.3024,-0.451492,0.147749,0
2024-12-11 19:40:39.643,0.974477,-0.897907,14.1897,1.39281,-0.347648,0.189286,0
2024-12-11 19:40:39.648,0.912264,-0.979263,13.3424,1.56262,-0.141182,0.283357,0
2024-12-11 19:40:39.649,0.854836,-1.04626,13.3424,1.636,-0.0410031,0.331003,0
2024-12-11 19:40:39.650,0.797109,-1.08694,12.8994,1.636,-0.0410031,0.331003,0
2024-12-11 19:40:39.653,0.725324,-1.08933,12.454,1.70564,0.0561216,0.377427,0
2024-12-11 19:40:39.655,0.655932,-1.11087,11.9967,1.76733,0.143473,0.421408,0
2024-12-11 19:40:39.657,0.600898,-1.12762,11.5253,1.82414,0.224715,0.464168,0
2024-12-11 19:40:39.660,0.548256,-1.12522,11.0417,1.87545,0.298628,0.502651,0
2024-12-11 19:40:39.662,0.4669,-1.11565,10.5317,1.91699,0.362156,0.539913,0
2024-12-11 19:40:39.667,0.292223,-1.04865,9.58595,1.97197,0.461724,0.604052,0
2024-12-11 19:40:39.667,0.292223,-1.04865,9.58595,1.97197,0.461724,0.604052,0
2024-12-11 19:40:39.669,0.277567,-1.03669,9.17887,1.98602,0.497153,0.63154,0
2024-12-11 19:40:39.672,0.270389,-1.02951,8.78166,1.99457,0.518533,0.654141,0
2024-12-11 19:40:39.674,0.246461,-1.00558,8.36262,1.99579,0.531361,0.673688,0
2024-12-11 19:40:39.676,0.208176,-0.950549,7.91247,1.98357,0.539913,0.687738,0
2024-12-11 19:40:39.679,0.155533,-0.873978,7.51974,1.96403,0.546632,0.699955,0
2024-12-11 19:40:39.681,0.102891,-0.80668,7.15843,1.93837,0.544799,0.707285,0
2024-12-11 19:40:39.683,0.040678,-0.715753,6.81356,1.90416,0.538691,0.715226,0
2024-12-11 19:40:39.687,-0.0311067,-0.598505,6.51446,1.86385,0.527696,0.717058,0
2024-12-11 19:40:39.690,-0.174676,-0.332901,5.98774,1.77161,0.493488,0.720723,0
2024-12-11 19:40:39.693,-0.236889,-0.20339,5.74577,1.71541,0.472109,0.715837,0
2024-12-11 19:40:39.694,-0.236889,-0.20339,5.74577,1.65494,0.443399,0.714615,0
2024-12-11 19:40:39.695,-0.263211,-0.0693919,5.52323,1.65494,0.443399,0.714615,0
2024-12-11 19:40:39.697,-0.272782,0.0550349,5.34138,1.65494,0.443399,0.714615,0
2024-12-11 19:40:39.700,-0.272782,0.157926,5.18555,1.52781,0.382314,0.695068,0
2024-12-11 19:40:39.702,-0.258425,0.244068,5.05873,1.52781,0.382314,0.695068,0
2024-12-11 19:40:39.704,-0.232104,0.325723,4.96301,1.39098,0.304736,0.663304,0
2024-12-11 19:40:39.708,-0.208176,0.392722,4.89601,1.24926,0.216164,0.620544,0
2024-12-11 19:40:39.710,-0.181855,0.447757,4.84816,1.17596,0.17035,0.593667,0
2024-12-11 19:40:39.713,-0.133998,0.512363,4.81466,1.10388,0.123926,0.563736,0
2024-12-11 19:40:39.715,-0.066999,0.562612,4.79312,1.03241,0.0762796,0.529528,0
2024-12-11 19:40:39.716,-0.0167498,0.605683,4.79312,1.03241,0.0762796,0.529528,0
2024-12-11 19:40:39.719,0.0358923,0.648754,4.81705,0.964604,0.0298552,0.491656,0
2024-12-11 19:40:39.722,0.0909273,0.710967,4.86012,0.828996,-0.0550526,0.412856,0
2024-12-11 19:40:39.724,0.138784,0.785145,4.92712,0.828996,-0.0550526,0.412856,0
2024-12-11 19:40:39.726,0.227318,0.794716,4.99412,0.764857,-0.0929251,0.37254,0
2024-12-11 19:40:39.728,0.332901,0.799502,5.05633,0.702551,-0.127743,0.32917,0
2024-12-11 19:40:39.730,0.411865,0.804287,5.14726,0.702551,-0.127743,0.32917,0
2024-12-11 19:40:39.734,0.488435,0.801895,5.24297,0.522351,-0.224257,0.186843,0
2024-12-11 19:40:39.735,0.562612,0.785145,5.3342,0.522351,-0.224257,0.186843,0
2024-12-11 19:40:39.737,0.615255,0.758824,5.42991,0.466153,-0.251745,0.141029,0
2024-12-11 19:40:39.740,0.670289,0.74686,5.53041,0.412398,-0.272514,0.0909399,0
2024-12-11 19:40:39.742,0.718146,0.718146,5.6333,0.359255,-0.288396,0.042683,0
2024-12-11 19:40:39.748,0.766002,0.629611,5.85344,0.213262,-0.294505,-0.0886492,0
2024-12-11 19:40:39.749,0.76361,0.593719,5.96142,0.213262,-0.294505,-0.0886492,0
2024-12-11 19:40:39.752,0.744467,0.555434,6.04995,0.165616,-0.28412,-0.125911,0
2024-12-11 19:40:39.753,0.744467,0.555434,6.04995,0.165616,-0.28412,-0.125911,0
2024-12-11 19:40:39.754,0.71336,0.514756,6.15763,0.118581,-0.270071,-0.161951,0
2024-12-11 19:40:39.759,0.641576,0.440578,6.37298,0.0361163,-0.227922,-0.220592,0
2024-12-11 19:40:39.759,0.641576,0.440578,6.37298,0.0361163,-0.227922,-0.220592,0
2024-12-11 19:40:39.762,0.572184,0.3999,6.4666,-0.00481042,-0.201656,-0.243804,0
2024-12-11 19:40:39.763,0.500399,0.35683,6.57428,-0.0420721,-0.172335,-0.266406,0
2024-12-11 19:40:39.768,0.308973,0.304188,6.76092,-0.114763,-0.116748,-0.295116,0
2024-12-11 19:40:39.769,0.308973,0.304188,6.76092,-0.152635,-0.0917034,-0.303057,0
2024-12-11 19:40:39.770,0.217747,0.275175,6.85185,-0.152635,-0.0917034,-0.303057,0
2024-12-11 19:40:39.773,0.11007,0.263211,6.97627,-0.180734,-0.0672696,-0.308554,0
2024-12-11 19:40:39.775,-0.00717847,0.241675,7.12493,-0.209444,-0.0465007,-0.311608,0
2024-12-11 19:40:39.777,-0.11007,0.200997,7.24936,-0.209444,-0.0465007,-0.311608,0
2024-12-11 19:40:39.781,-0.20339,0.177069,7.35943,-0.274194,0.00603212,-0.303667,0
2024-12-11 19:40:39.783,-0.294616,0.179462,7.48146,-0.274194,0.00603212,-0.303667,0
2024-12-11 19:40:39.785,-0.375972,0.16989,7.61336,-0.291298,0.0237467,-0.295116,0
2024-12-11 19:40:39.789,-0.512363,0.172283,7.8335,-0.305958,0.0573433,-0.275568,0
2024-12-11 19:40:39.789,-0.512363,0.172283,7.8335,-0.305958,0.0573433,-0.275568,0
2024-12-11 19:40:39.794,-0.658325,0.172283,8.05125,-0.312067,0.0848314,-0.249913,0
2024-12-11 19:40:39.794,-0.658325,0.172283,8.05125,-0.312067,0.0848314,-0.249913,0
2024-12-11 19:40:39.801,-0.830609,0.18664,8.31476,-0.296185,0.101324,-0.205321,0
2024-12-11 19:40:39.801,-0.830609,0.18664,8.31476,-0.296185,0.101324,-0.205321,0
2024-12-11 19:40:39.802,-0.775574,0.18664,8.31476,-0.296185,0.101324,-0.205321,0
2024-12-11 19:40:39.803,-0.873978,0.198604,8.37219,-0.289465,0.104379,-0.19005,0
2024-12-11 19:40:39.808,-0.897907,0.205783,8.46072,-0.264421,0.106822,-0.157675,0
2024-12-11 19:40:39.808,-0.897907,0.205783,8.46072,-0.264421,0.106822,-0.157675,0
2024-12-11 19:40:39.810,-0.921835,0.222533,8.49422,-0.252204,0.103768,-0.141182,0
2024-12-11 19:40:39.813,-0.948156,0.234497,8.52054,-0.236932,0.101935,-0.1253,0
2024-12-11 19:40:39.818,-0.940978,0.253639,8.55883,-0.203947,0.0927724,-0.0904818,0
2024-12-11 19:40:39.819,-0.940978,0.253639,8.55883,-0.187454,0.0884965,-0.0727672,0
2024-12-11 19:40:39.822,-0.919442,0.292223,8.57558,-0.170961,0.0805555,-0.057496,0
2024-12-11 19:40:39.822,-0.919442,0.292223,8.57558,-0.170961,0.0805555,-0.057496,0
2024-12-11 19:40:39.827,-0.869193,0.325723,8.54926,-0.137975,0.066506,-0.0263428,0
2024-12-11 19:40:39.828,-0.869193,0.325723,8.54926,-0.11965,0.0591758,-0.0110716,0
2024-12-11 19:40:39.829,-0.833001,0.354437,8.54686,-0.11965,0.0591758,-0.0110716,0
2024-12-11 19:40:39.832,-0.794716,0.359223,8.52772,-0.103768,0.0518457,0.000534491,0
2024-12-11 19:40:39.834,-0.74686,0.366401,8.5014,-0.0860531,0.0451263,0.0151948,0
2024-12-11 19:40:39.836,-0.701396,0.392722,8.46311,-0.0738362,0.038407,0.0268009,0
2024-12-11 19:40:39.840,-0.663111,0.411865,8.42483,-0.046348,0.0268009,0.0481806,0
2024-12-11 19:40:39.841,-0.610469,0.428614,8.38894,-0.046348,0.0268009,0.0481806,0
2024-12-11 19:40:39.843,-0.557827,0.445364,8.34826,-0.0322986,0.0231358,0.0555107,0
2024-12-11 19:40:39.846,-0.519542,0.462114,8.30519,-0.0219141,0.0164165,0.0634518,0
2024-12-11 19:40:39.848,-0.483649,0.481256,8.25972,-0.0109189,0.0151948,0.0707819,0
2024-12-11 19:40:39.851,-0.462114,0.514756,8.21187,-0.00297788,0.0133623,0.0768904,0
2024-12-11 19:40:39.856,-0.421436,0.541077,8.12543,0.021456,0.00603212,0.0878856,0
2024-12-11 19:40:39.859,-0.426222,0.56022,8.08236,0.021456,0.00603212,0.0878856,0
2024-12-11 19:40:39.860,-0.421436,0.593719,8.03929,0.029397,0.00419957,0.0933833,0
2024-12-11 19:40:39.860,-0.421436,0.593719,8.03929,0.029397,0.00419957,0.0933833,0
2024-12-11 19:40:39.862,-0.407079,0.615255,8.00818,0.0348946,-0.000687203,0.0964375,0
2024-12-11 19:40:39.865,-0.404686,0.646361,7.9675,0.0379489,-0.00435229,0.0982701,0
2024-12-11 19:40:39.868,-0.395115,0.655932,7.90529,0.0446682,-0.00679568,0.100713,0
2024-12-11 19:40:39.869,-0.380758,0.663111,7.85265,0.0446682,-0.00679568,0.100713,0
2024-12-11 19:40:39.873,-0.368794,0.670289,7.81915,0.0471116,-0.00801737,0.100103,0
2024-12-11 19:40:39.874,-0.354437,0.670289,7.79283,0.0519984,-0.00801737,0.100713,0
2024-12-11 19:40:39.876,-0.337687,0.684646,7.76172,0.0532201,-0.00862822,0.101324,0
2024-12-11 19:40:39.880,-0.313759,0.694218,7.71865,0.0519984,-0.00923906,0.0964375,0
2024-12-11 19:40:39.881,-0.292223,0.694218,7.68754,0.0519984,-0.00923906,0.0964375,0
2024-12-11 19:40:39.883,-0.282652,0.699003,7.65883,0.0538309,-0.0110716,0.0927724,0
2024-12-11 19:40:39.887,-0.270389,0.703789,7.63011,0.0507767,-0.0147367,0.086664,0
2024-12-11 19:40:39.889,-0.272782,0.71336,7.60858,0.0489441,-0.013515,0.0793338,0
2024-12-11 19:40:39.893,-0.270389,0.756431,7.54128,0.0458899,-0.0147367,0.074447,0
2024-12-11 19:40:39.893,-0.270389,0.756431,7.54128,0.0458899,-0.0147367,0.074447,0
2024-12-11 19:40:39.898,-0.304188,0.818644,7.51017,0.0391706,-0.00801737,0.066506,0
2024-12-11 19:40:39.898,-0.304188,0.818644,7.51017,0.0391706,-0.00801737,0.066506,0
2024-12-11 19:40:39.903,-0.344866,0.907478,7.47907,0.0257319,0.010308,0.0530674,0
2024-12-11 19:40:39.903,-0.344866,0.907478,7.47907,0.0257319,0.010308,0.0530674,0
2024-12-11 19:40:39.905,-0.392722,0.948156,7.4671,0.0257319,0.010308,0.0530674,0
2024-12-11 19:40:39.908,-0.431007,0.972084,7.44796,0.0202343,0.0188599,0.0494023,0
2024-12-11 19:40:39.909,-0.4669,0.998405,7.41207,0.0141258,0.0322986,0.0481806,0
2024-12-11 19:40:39.913,-0.495613,1.05583,7.39053,0.00740652,0.0610084,0.0451263,0
2024-12-11 19:40:39.914,-0.531506,1.1013,7.37378,0.00740652,0.0610084,0.0451263,0
2024-12-11 19:40:39.916,-0.565005,1.10848,7.3331,7.63559e-05,0.0750579,0.0445155,0
2024-12-11 19:40:39.921,-0.610469,1.15155,7.28525,-0.014584,0.102546,0.0494023,0
2024-12-11 19:40:39.921,-0.610469,1.15155,7.28525,-0.014584,0.102546,0.0494023,0
2024-12-11 19:40:39.924,-0.639183,1.18983,7.25893,-0.0237467,0.119039,0.050624,0
2024-12-11 19:40:39.926,-0.687039,1.22333,7.24696,-0.0310769,0.133699,0.0524565,0
2024-12-11 19:40:39.929,-0.727717,1.25444,7.235,-0.0500131,0.158744,0.0616192,0
2024-12-11 19:40:39.931,-0.749253,1.29272,7.21107,-0.0500131,0.158744,0.0616192,0
2024-12-11 19:40:39.934,-0.768395,1.33819,7.19911,-0.0622301,0.170961,0.0683385,0
2024-12-11 19:40:39.935,-0.777966,1.38365,7.21346,-0.0622301,0.170961,0.0683385,0
2024-12-11 19:40:39.941,-0.742074,1.4988,7.24936,-0.094605,0.203336,0.0817772,0
2024-12-11 19:40:39.942,-0.73011,1.5682,7.27568,-0.104379,0.215553,0.0891073,0
2024-12-11 19:40:39.942,-0.73011,1.5682,7.27568,-0.104379,0.215553,0.0891073,0
2024-12-11 19:40:39.945,-0.718146,1.61366,7.29721,-0.114763,0.227159,0.0939941,0
2024-12-11 19:40:39.949,-0.679861,1.76441,7.36182,-0.137975,0.24243,0.102546,0
2024-12-11 19:40:39.950,-0.679861,1.76441,7.36182,-0.137975,0.24243,0.102546,0
2024-12-11 19:40:39.954,-0.646361,1.92951,7.46232,-0.164242,0.251593,0.109876,0
2024-12-11 19:40:39.954,-0.646361,1.92951,7.46232,-0.164242,0.251593,0.109876,0
2024-12-11 19:40:39.956,-0.624826,2.01595,7.49821,-0.177069,0.251593,0.11293,0
2024-12-11 19:40:39.959,-0.605683,2.09731,7.54128,-0.190508,0.250982,0.111098,0
2024-12-11 19:40:39.964,-0.562612,2.23609,7.63011,-0.219829,0.239987,0.114152,0
2024-12-11 19:40:39.964,-0.562612,2.23609,7.63011,-0.219829,0.239987,0.114152,0
2024-12-11 19:40:39.968,-0.545863,2.31027,7.66601,-0.254036,0.219218,0.111098,0
2024-12-11 19:40:39.969,-0.538684,2.37966,7.71147,-0.254036,0.219218,0.111098,0
2024-12-11 19:40:39.971,-0.538684,2.43948,7.75933,-0.274194,0.203947,0.107433,0
2024-12-11 19:40:39.973,-0.54347,2.49691,7.81197,-0.293741,0.186232,0.102546,0
2024-12-11 19:40:39.978,-0.576969,2.65274,7.91964,-0.338944,0.13431,0.0952158,0
2024-12-11 19:40:39.980,-0.617647,2.72692,7.98425,-0.365821,0.102546,0.0915507,0
2024-12-11 19:40:39.981,-0.576969,2.65274,7.98425,-0.394531,0.0695602,0.0878856,0
2024-12-11 19:40:39.982,-0.672682,2.80588,8.08236,-0.394531,0.0695602,0.0878856,0
2024-12-11 19:40:39.985,-0.742074,2.9016,8.21426,-0.422019,0.0322986,0.0854423,0
2024-12-11 19:40:39.987,-0.794716,2.99731,8.35304,-0.455005,-0.00801737,0.0842206,0
2024-12-11 19:40:39.989,-0.847657,3.08584,8.49901,-0.486769,-0.0513875,0.0829989,0
2024-12-11 19:40:39.993,-0.909871,3.17228,8.66172,-0.518533,-0.102699,0.0842206,0
2024-12-11 19:40:39.995,-0.955334,3.24168,8.86541,-0.58145,-0.21143,0.090329,0
2024-12-11 19:40:39.998,-1.00319,3.29193,9.09512,-0.613214,-0.26946,0.0958267,0
2024-12-11 19:40:40.000,-1.04148,3.33739,9.33949,-0.63887,-0.326269,0.102546,0
2024-12-11 19:40:40.002,-1.04148,3.37567,9.60987,-0.665747,-0.378802,0.108654,0
2024-12-11 19:40:40.004,-1.0319,3.41396,9.89731,-0.665747,-0.378802,0.108654,0
2024-12-11 19:40:40.006,-0.998405,3.44507,10.2299,-0.690181,-0.429502,0.117206,0
2024-12-11 19:40:40.009,-0.921835,3.45703,10.5867,-0.726221,-0.518686,0.13431,0
2024-12-11 19:40:40.012,-0.837787,3.45703,10.9337,-0.726221,-0.518686,0.13431,0
2024-12-11 19:40:40.014,-0.734896,3.43071,11.3025,-0.746379,-0.588933,0.152025,0
2024-12-11 19:40:40.015,-0.591326,3.39003,11.6785,-0.746379,-0.588933,0.152025,0
2024-12-11 19:40:40.018,-0.440578,3.32303,12.0183,-0.751266,-0.621308,0.159966,0
2024-12-11 19:40:40.021,-0.289831,3.24168,12.344,-0.758596,-0.649407,0.168517,0
2024-12-11 19:40:40.026,-0.00478565,3.11725,13.0095,-0.761039,-0.711103,0.191119,0
2024-12-11 19:40:40.026,-0.00478565,3.11725,13.0095,-0.761039,-0.711103,0.191119,0
2024-12-11 19:40:40.027,0.138784,3.06431,13.3328,-0.761039,-0.711103,0.191119,0
2024-12-11 19:40:40.030,0.275175,3.02842,13.675,-0.761039,-0.725763,0.19906,0
2024-12-11 19:40:40.034,0.505185,3.01645,14.3575,-0.760428,-0.745921,0.216774,0
2024-12-11 19:40:40.035,0.505185,3.01645,14.3575,-0.758596,-0.751418,0.224105,0
2024-12-11 19:40:40.037,0.643968,3.05234,14.6973,-0.758596,-0.751418,0.224105,0
2024-12-11 19:40:40.040,0.797109,3.09332,15.047,-0.755542,-0.752029,0.230824,0
2024-12-11 19:40:40.041,0.94337,3.12682,15.4059,-0.750655,-0.741034,0.239376,0
2024-12-11 19:40:40.045,1.08215,3.16032,15.7579,-0.745768,-0.72393,0.244873,0
2024-12-11 19:40:40.046,1.18983,3.20339,16.0956,-0.737827,-0.695221,0.254036,0
2024-12-11 19:40:40.049,1.29512,3.24407,16.4282,-0.728054,-0.65857,0.261366,0
2024-12-11 19:40:40.051,1.41506,3.27757,16.7611,-0.728054,-0.65857,0.261366,0
2024-12-11 19:40:40.053,1.51795,3.30389,17.0913,-0.698122,-0.567553,0.27114,0
2024-12-11 19:40:40.056,1.60409,3.34218,17.3907,-0.679797,-0.517464,0.275416,0
2024-12-11 19:40:40.059,1.68784,3.38525,17.6731,-0.638259,-0.402625,0.282746,0
2024-12-11 19:40:40.060,1.78355,3.41157,17.9581,-0.638259,-0.402625,0.282746,0
2024-12-11 19:40:40.062,1.88166,3.4331,18.2046,-0.611993,-0.339097,0.286411,0
2024-12-11 19:40:40.065,1.95583,3.44267,18.4202,-0.585115,-0.273736,0.286411,0
2024-12-11 19:40:40.067,1.9992,3.45464,18.6093,-0.55274,-0.205321,0.290687,0
2024-12-11 19:40:40.071,2.02313,3.48335,18.7672,-0.518533,-0.132019,0.29313,0
2024-12-11 19:40:40.072,2.01356,3.52164,18.8967,-0.48066,-0.0532201,0.299239,0
2024-12-11 19:40:40.075,1.95105,3.57189,18.9948,-0.40125,0.108044,0.320008,1
2024-12-11 19:40:40.080,1.86251,3.73729,19.069,-0.358491,0.194173,0.334668,0
2024-12-11 19:40:40.080,1.7668,3.73729,19.069,-0.358491,0.194173,0.334668,0
2024-12-11 19:40:40.081,1.69023,3.78993,19.0499,-0.315121,0.279692,0.356658,0
2024-12-11 19:40:40.085,1.6352,3.82343,19.0068,-0.228381,0.441566,0.40858,0
2024-12-11 19:40:40.086,1.6017,3.84257,18.9183,-0.228381,0.441566,0.40858,0
2024-12-11 19:40:40.089,1.64477,3.81386,18.7768,-0.188065,0.511814,0.436679,0
2024-12-11 19:40:40.091,1.73569,3.75883,18.6045,-0.149581,0.568622,0.464168,0
2024-12-11 19:40:40.095,2.06381,3.59821,18.2623,-0.117206,0.610771,0.48738,0
2024-12-11 19:40:40.099,2.29591,3.48814,18.0491,-0.0316877,0.648033,0.521587,0
2024-12-11 19:40:40.101,2.51366,3.36132,17.8481,-0.0115297,0.637648,0.519144,0
2024-12-11 19:40:40.103,2.75085,3.26082,17.6516,-0.0115297,0.637648,0.519144,0
2024-12-11 19:40:40.104,2.75085,3.26082,17.6516,0.00557398,0.61749,0.505094,0
2024-12-11 19:40:40.106,3.01406,3.17228,17.4553,0.00557398,0.61749,0.505094,0
2024-12-11 19:40:40.107,3.27278,3.11007,17.2902,0.0232886,0.593667,0.483104,0
2024-12-11 19:40:40.111,3.5001,3.07867,17.1491,0.0513875,0.526474,0.412246,0
2024-12-11 19:40:40.112,3.68226,3.05234,17.0028,0.0513875,0.526474,0.412246,0
2024-12-11 19:40:40.114,3.83779,3.03081,16.8664,0.0684913,0.487991,0.367043,0
2024-12-11 19:40:40.117,3.99332,3.01406,16.742,0.0831516,0.456227,0.315121,0
2024-12-11 19:40:40.120,4.12971,3.00688,16.6223,0.0990336,0.424462,0.25709,0
2024-12-11 19:40:40.121,4.21615,2.97338,16.5191,0.120413,0.396974,0.192341,0
2024-12-11 19:40:40.125,4.27119,2.92552,16.4187,0.16867,0.359713,0.0469589,0
2024-12-11 19:40:40.126,4.28315,2.8681,16.3182,0.16867,0.359713,0.0469589,0
2024-12-11 19:40:40.128,4.23769,2.78435,16.2392,0.198602,0.346885,-0.0287862,0
2024-12-11 19:40:40.132,4.12732,2.70539,16.1554,0.271903,0.337722,-0.18272,0
2024-12-11 19:40:40.134,3.99332,2.60728,16.0478,0.271903,0.337722,-0.18272,0
2024-12-11 19:40:40.138,3.63889,2.32941,15.8345,0.365974,0.347496,-0.326269,0
2024-12-11 19:40:40.138,3.63889,2.32941,15.8345,0.365974,0.347496,-0.326269,0
2024-12-11 19:40:40.140,3.4331,2.17388,15.6598,0.420339,0.359102,-0.393462,0
2024-12-11 19:40:40.143,3.22253,1.96301,15.4564,0.479591,0.376206,-0.455768,0
2024-12-11 19:40:40.147,2.77478,1.52513,15.0159,0.603593,0.406748,-0.560834,0
2024-12-11 19:40:40.148,2.77478,1.52513,15.0159,0.667732,0.423852,-0.606037,0
2024-12-11 19:40:40.152,2.26481,1.11087,14.47,0.734315,0.441566,-0.642688,0
2024-12-11 19:40:40.152,2.26481,1.11087,14.47,0.734315,0.441566,-0.642688,0
2024-12-11 19:40:40.155,2.01835,0.88355,14.1323,0.802119,0.45867,-0.672008,0
2024-12-11 19:40:40.157,1.76919,0.691825,13.8045,0.868701,0.478217,-0.693388,0
2024-12-11 19:40:40.159,1.51795,0.505185,13.4812,0.934062,0.495321,-0.709881,0
2024-12-11 19:40:40.162,1.28794,0.32333,13.1435,0.998812,0.509981,-0.718433,0
2024-12-11 19:40:40.166,0.845265,0.0143569,12.4038,1.12648,0.541134,-0.7166,0
2024-12-11 19:40:40.167,0.845265,0.0143569,12.4038,1.18695,0.551519,-0.708048,0
2024-12-11 19:40:40.168,0.639183,-0.129212,12.0206,1.18695,0.551519,-0.708048,0
2024-12-11 19:40:40.171,0.459721,-0.253639,11.6354,1.24498,0.560681,-0.69461,0
2024-12-11 19:40:40.173,0.308973,-0.368794,11.2642,1.29874,0.570455,-0.675673,0
2024-12-11 19:40:40.176,0.177069,-0.474078,10.8906,1.29874,0.570455,-0.675673,0
2024-12-11 19:40:40.178,0.0622134,-0.576969,10.5269,1.39892,0.564957,-0.626195,0
2024-12-11 19:40:40.180,-0.040678,-0.670289,10.1581,1.44412,0.556405,-0.598096,0
2024-12-11 19:40:40.184,-0.105284,-0.739681,9.79173,1.51742,0.517311,-0.540065,0
2024-12-11 19:40:40.185,-0.157926,-0.821037,9.43998,1.51742,0.517311,-0.540065,0
2024-12-11 19:40:40.187,-0.198604,-0.885943,9.09273,1.54613,0.488601,-0.511966,0
2024-12-11 19:40:40.190,-0.22014,-0.924228,8.74098,1.56873,0.450729,-0.485089,0
2024-12-11 19:40:40.192,-0.229711,-0.945763,8.40329,1.58889,0.404915,-0.45699,0
2024-12-11 19:40:40.194,-0.22014,-0.955334,8.068,1.60233,0.352993,-0.431945,0
2024-12-11 19:40:40.197,-0.222533,-0.950549,7.74975,1.60722,0.294352,-0.409344,0
2024-12-11 19:40:40.199,-0.229711,-0.907478,7.4671,1.60722,0.230213,-0.389797,0
2024-12-11 19:40:40.201,-0.217747,-0.862014,7.20389,1.60294,0.160576,-0.372082,0
2024-12-11 19:40:40.205,-0.196211,-0.82343,6.94277,1.5724,0.014584,-0.348259,0
2024-12-11 19:40:40.206,-0.179462,-0.758824,6.71306,1.5724,0.014584,-0.348259,0
2024-12-11 19:40:40.210,-0.162712,-0.670289,6.49053,1.55163,-0.0587177,-0.339707,0
2024-12-11 19:40:40.211,-0.119641,-0.567398,6.27249,1.52597,-0.133852,-0.33421,0
2024-12-11 19:40:40.214,-0.0693919,-0.469292,6.1002,1.45939,-0.278623,-0.331766,0
2024-12-11 19:40:40.217,-0.0311067,-0.366401,5.94945,1.4203,-0.349481,-0.33421,0
2024-12-11 19:40:40.218,0.0143569,-0.265603,5.81994,1.4203,-0.349481,-0.33421,0
2024-12-11 19:40:40.223,0.133998,-0.0765703,5.60698,1.33111,-0.487532,-0.34887,0
2024-12-11 19:40:40.223,0.133998,-0.0765703,5.60698,1.33111,-0.487532,-0.34887,0
2024-12-11 19:40:40.225,0.208176,0.026321,5.54955,1.28408,-0.549839,-0.359865,0
2024-12-11 19:40:40.228,0.289831,0.107677,5.48734,1.23582,-0.610313,-0.372693,0
2024-12-11 19:40:40.230,0.371187,0.174676,5.46341,1.18329,-0.668343,-0.387964,0
2024-12-11 19:40:40.232,0.464507,0.22014,5.46341,1.13014,-0.7166,-0.407511,0
2024-12-11 19:40:40.234,0.584148,0.253639,5.48255,1.07761,-0.762414,-0.429502,0
2024-12-11 19:40:40.238,0.71336,0.275175,5.52084,1.02325,-0.801508,-0.452103,0
2024-12-11 19:40:40.239,0.833001,0.256032,5.54955,0.970102,-0.830829,-0.475926,0
2024-12-11 19:40:40.243,0.945763,0.224925,5.59741,0.861982,-0.876031,-0.530292,0
2024-12-11 19:40:40.244,1.04387,0.212961,5.65962,0.861982,-0.876031,-0.530292,0
2024-12-11 19:40:40.246,1.12522,0.20339,5.72184,0.81006,-0.885805,-0.557169,0
2024-12-11 19:40:40.249,1.18983,0.177069,5.77926,0.758138,-0.888248,-0.584046,0
2024-12-11 19:40:40.251,1.25444,0.136391,5.82951,0.706827,-0.881529,-0.609091,0
2024-12-11 19:40:40.253,1.32144,0.117248,5.89203,0.659181,-0.873588,-0.635357,0
2024-12-11 19:40:40.256,1.37408,0.112463,5.9327,0.610313,-0.862593,-0.660402,0
2024-12-11 19:40:40.258,1.41027,0.100499,5.9351,0.562056,-0.844267,-0.684836,0
2024-12-11 19:40:40.260,1.43898,0.105284,5.93749,0.513799,-0.823498,-0.708659,0
2024-12-11 19:40:40.263,1.44377,0.11007,5.97578,0.467985,-0.79601,-0.736147,0
2024-12-11 19:40:40.266,1.41266,0.114855,6.02363,0.42095,-0.770966,-0.758749,0
2024-12-11 19:40:40.267,1.4004,0.122034,6.05713,0.42095,-0.770966,-0.758749,0
2024-12-11 19:40:40.271,1.37886,0.133998,6.07627,0.328712,-0.705605,-0.797232,0
2024-12-11 19:40:40.272,1.34058,0.143569,6.08345,0.284731,-0.668343,-0.814947,0
2024-12-11 19:40:40.274,1.30229,0.157926,6.09542,0.238918,-0.625584,-0.828385,0
2024-12-11 19:40:40.279,1.20897,0.181855,6.10259,0.154621,-0.532124,-0.854652,0
2024-12-11 19:40:40.279,1.20897,0.181855,6.10259,0.154621,-0.532124,-0.854652,0
2024-12-11 19:40:40.282,1.14676,0.205783,6.11695,0.112472,-0.482035,-0.865647,0
2024-12-11 19:40:40.285,1.07737,0.210568,6.12652,0.0727672,-0.431945,-0.872977,0
2024-12-11 19:40:40.286,1.0008,0.224925,6.1337,0.0727672,-0.431945,-0.872977,0
2024-12-11 19:40:40.289,0.909871,0.236889,6.15284,-0.00847551,-0.328712,-0.884583,0
2024-12-11 19:40:40.293,0.739681,0.265603,6.15524,-0.0842206,-0.223036,-0.888859,0
2024-12-11 19:40:40.293,0.739681,0.265603,6.15524,-0.0842206,-0.223036,-0.888859,0
2024-12-11 19:40:40.296,0.639183,0.287438,6.1672,-0.122704,-0.171724,-0.890692,0
2024-12-11 19:40:40.298,0.529113,0.30658,6.19352,-0.156301,-0.118581,-0.887637,0
2024-12-11 19:40:40.301,0.414257,0.325723,6.21506,-0.187454,-0.0672696,-0.885194,0
2024-12-11 19:40:40.304,0.292223,0.34008,6.22941,-0.249149,0.0274118,-0.869923,0
2024-12-11 19:40:40.305,0.174676,0.364008,6.25574,-0.249149,0.0274118,-0.869923,0
2024-12-11 19:40:40.308,0.0550349,0.385544,6.29163,-0.275416,0.0701711,-0.860149,0
2024-12-11 19:40:40.313,-0.0622134,0.404686,6.37777,-0.323673,0.147749,-0.83205,0
2024-12-11 19:40:40.313,-0.179462,0.404686,6.37777,-0.323673,0.147749,-0.83205,0
2024-12-11 19:40:40.317,-0.387936,0.476471,6.46182,-0.362156,0.211277,-0.800286,0
2024-12-11 19:40:40.318,-0.387936,0.476471,6.46182,-0.378649,0.239987,-0.779517,0
2024-12-11 19:40:40.320,-0.486042,0.521934,6.5001,-0.392088,0.265642,-0.761803,0
2024-12-11 19:40:40.323,-0.548256,0.538684,6.54557,-0.403083,0.2858,-0.744699,0
2024-12-11 19:40:40.324,-0.617647,0.569791,6.61257,-0.403083,0.2858,-0.744699,0
2024-12-11 19:40:40.326,-0.682254,0.622433,6.68914,-0.40797,0.303515,-0.725152,0
2024-12-11 19:40:40.329,-0.737288,0.655932,6.74896,-0.412856,0.318786,-0.704383,0
2024-12-11 19:40:40.331,-0.785145,0.675075,6.80638,-0.416521,0.329781,-0.684836,0
2024-12-11 19:40:40.334,-0.821037,0.71336,6.85903,-0.415911,0.33589,-0.663456,0
2024-12-11 19:40:40.336,-0.842872,0.756431,6.89731,-0.4153,0.339555,-0.642688,0
2024-12-11 19:40:40.338,-0.857229,0.785145,6.94517,-0.411024,0.340166,-0.623751,0
2024-12-11 19:40:40.340,-0.890728,0.801895,6.99063,-0.40797,0.338333,-0.606648,0
2024-12-11 19:40:40.343,-0.909871,0.825823,7.03879,-0.396974,0.335279,-0.585879,0
2024-12-11 19:40:40.345,-0.912264,0.85005,7.07707,-0.390866,0.327338,-0.567553,0
2024-12-11 19:40:40.347,-0.905085,0.873978,7.11057,-0.390866,0.327338,-0.567553,0
2024-12-11 19:40:40.350,-0.893121,0.912264,7.16321,-0.371319,0.31451,-0.527848,0
2024-12-11 19:40:40.353,-0.876371,0.94337,7.22782,-0.346274,0.302293,-0.489365,0
2024-12-11 19:40:40.356,-0.857229,0.97687,7.29243,-0.346274,0.302293,-0.489365,0
2024-12-11 19:40:40.357,-0.82343,0.998405,7.33071,-0.32917,0.297406,-0.469207,0
2024-12-11 19:40:40.359,-0.777966,1.02712,7.3666,-0.313899,0.291909,-0.450271,0
2024-12-11 19:40:40.362,-0.734896,1.04865,7.42642,-0.293741,0.288244,-0.430113,0
2024-12-11 19:40:40.364,-0.687039,1.04865,7.48146,-0.276027,0.284578,-0.412398,0
2024-12-11 19:40:40.366,-0.639183,1.05105,7.53649,-0.254036,0.282135,-0.394684,0
2024-12-11 19:40:40.370,-0.60329,1.07737,7.57239,-0.209444,0.277859,-0.356811,0
2024-12-11 19:40:40.371,-0.584148,1.11565,7.60618,-0.209444,0.277859,-0.356811,0
2024-12-11 19:40:40.374,-0.567398,1.14437,7.63011,-0.185621,0.276027,-0.340929,0
2024-12-11 19:40:40.376,-0.553041,1.1683,7.64208,-0.161798,0.274194,-0.321993,0
2024-12-11 19:40:40.379,-0.557827,1.19222,7.67558,-0.136143,0.269918,-0.303057,0
2024-12-11 19:40:40.380,-0.557827,1.22094,7.70668,-0.110487,0.266864,-0.285342,0
2024-12-11 19:40:40.383,-0.538684,1.25444,7.72822,-0.082388,0.259534,-0.267017,0
2024-12-11 19:40:40.385,-0.52672,1.28794,7.74018,-0.0536782,0.24976,-0.24808,0
2024-12-11 19:40:40.389,-0.514756,1.30708,7.74497,7.63559e-05,0.224105,-0.21204,0
2024-12-11 19:40:40.390,-0.500399,1.32383,7.74975,7.63559e-05,0.224105,-0.21204,0
2024-12-11 19:40:40.392,-0.486042,1.36929,7.74736,0.0287862,0.207612,-0.193715,0
2024-12-11 19:40:40.397,-0.4334,1.4677,7.71386,0.085595,0.170961,-0.157064,0
2024-12-11 19:40:40.398,-0.4334,1.4677,7.71386,0.116137,0.149581,-0.138739,0
2024-12-11 19:40:40.399,-0.414257,1.51795,7.69472,0.116137,0.149581,-0.138739,0
2024-12-11 19:40:40.402,-0.402293,1.57537,7.65883,0.142404,0.128202,-0.124078,0
2024-12-11 19:40:40.406,-0.330509,1.67348,7.56282,0.168059,0.109876,-0.108196,0
2024-12-11 19:40:40.410,-0.299402,1.72373,7.49582,0.215095,0.066506,-0.0794865,0
2024-12-11 19:40:40.411,-0.251246,1.77159,7.4336,0.236474,0.0469589,-0.0678804,0
2024-12-11 19:40:40.413,-0.196211,1.82662,7.34028,0.251745,0.0280226,-0.0587177,0
2024-12-11 19:40:40.413,-0.196211,1.82662,7.34028,0.251745,0.0280226,-0.0587177,0
2024-12-11 19:40:40.416,-0.150748,1.88405,7.235,0.263352,0.0109189,-0.0507767,0
2024-12-11 19:40:40.419,-0.100499,1.94148,7.15364,0.279844,-0.0269536,-0.0422248,0
2024-12-11 19:40:40.421,-0.0526421,2.00638,7.06511,0.279844,-0.0269536,-0.0422248,0
2024-12-11 19:40:40.423,-0.0215354,2.07577,6.98824,0.280455,-0.0446682,-0.0397814,0
2024-12-11 19:40:40.426,-0.00957129,2.14038,6.9332,0.276179,-0.0593285,-0.0385597,0
2024-12-11 19:40:40.428,0.00239282,2.22174,6.88056,0.273736,-0.073378,-0.0397814,0
2024-12-11 19:40:40.430,0.0119641,2.32702,6.8351,0.263962,-0.0868167,-0.0391706,0
2024-12-11 19:40:40.432,0.0239282,2.42752,6.79442,0.263962,-0.0868167,-0.0391706,0
2024-12-11 19:40:40.435,0.0358923,2.50648,6.75613,0.237696,-0.105142,-0.0458899,0
2024-12-11 19:40:40.437,0.0287139,2.59053,6.7346,0.221814,-0.108807,-0.0471116,0
2024-12-11 19:40:40.442,0.0143569,2.74846,6.74656,0.183941,-0.113083,-0.0538309,0
2024-12-11 19:40:40.442,0.00717847,2.74846,6.74656,0.183941,-0.113083,-0.0538309,0
2024-12-11 19:40:40.444,0.0143569,2.81545,6.75374,0.161951,-0.111251,-0.0568851,0
2024-12-11 19:40:40.446,0.0119641,2.87528,6.75853,0.137517,-0.111251,-0.0605502,0
2024-12-11 19:40:40.450,-0.00239282,2.92792,6.79681,0.0868167,-0.100866,-0.0697129,0
2024-12-11 19:40:40.451,-0.00957129,2.97577,6.84706,0.0868167,-0.100866,-0.0697129,0
2024-12-11 19:40:40.453,-0.00478565,3.01167,6.89253,0.0636045,-0.0953685,-0.0764323,0
2024-12-11 19:40:40.457,0.00957129,3.05474,6.94038,0.00496313,-0.0819299,-0.0868167,0
2024-12-11 19:40:40.458,0.00957129,3.11486,6.97627,0.00496313,-0.0819299,-0.0868167,0
2024-12-11 19:40:40.461,0.0119641,3.16271,7.02204,-0.0261901,-0.0703238,-0.0923143,0
2024-12-11 19:40:40.463,0.026321,3.20578,7.06989,-0.0567324,-0.0568851,-0.0984228,0
2024-12-11 19:40:40.469,0.0430708,3.2991,7.17278,-0.163631,0.00358873,-0.119802,0
2024-12-11 19:40:40.469,0.0765703,3.2991,7.17278,-0.163631,0.00358873,-0.119802,0
2024-12-11 19:40:40.470,0.11007,3.34218,7.19911,-0.163631,0.00358873,-0.119802,0
2024-12-11 19:40:40.473,0.136391,3.37807,7.23739,-0.201503,0.0249684,-0.127743,0
2024-12-11 19:40:40.475,0.172283,3.41396,7.29721,-0.201503,0.0249684,-0.127743,0
2024-12-11 19:40:40.477,0.18664,3.44985,7.36182,-0.287022,0.0689494,-0.147901,0
2024-12-11 19:40:40.480,0.181855,3.47139,7.44317,-0.328559,0.0927724,-0.156453,0
2024-12-11 19:40:40.482,0.191426,3.48096,7.53889,-0.374984,0.115985,-0.165005,0
2024-12-11 19:40:40.485,0.349651,3.40678,7.733,-0.422019,0.135532,-0.174168,0
2024-12-11 19:40:40.486,1.17547,2.99731,8.61625,-0.459892,0.117206,-0.194937,0
2024-12-11 19:40:40.489,1.35254,2.84895,9.12623,-0.478217,0.0750579,-0.241361,0
2024-12-11 19:40:40.492,0.208176,3.34935,8.34826,-0.535637,0.213109,-0.268849,0
2024-12-11 19:40:40.495,-0.368794,3.74447,8.04168,-0.565568,0.274194,-0.263352,0
2024-12-11 19:40:40.496,-0.287438,3.87368,8.49901,-0.565568,0.274194,-0.263352,0
2024-12-11 19:40:40.498,-0.308973,3.96939,8.85823,-0.596111,0.29985,-0.256632,0
2024-12-11 19:40:40.502,-0.395115,4.08903,9.05205,-0.626042,0.308401,-0.249913,0
2024-12-11 19:40:40.504,-0.464507,4.14646,9.15494,-0.694457,0.305958,-0.237085,0
2024-12-11 19:40:40.506,-0.454935,4.12014,9.25305,-0.729886,0.298017,-0.235863,0
2024-12-11 19:40:40.510,-0.395115,3.97897,9.41845,-0.765926,0.295574,-0.239528,0
2024-12-11 19:40:40.511,-0.395115,3.97897,9.41845,-0.765926,0.295574,-0.239528,0
2024-12-11 19:40:40.512,-0.361615,3.87607,9.51655,-0.765926,0.295574,-0.239528,0
2024-12-11 19:40:40.516,-0.335294,3.79472,9.67448,-0.868548,0.283968,-0.282899,0
2024-12-11 19:40:40.519,-0.414257,3.70618,10.1797,-0.896037,0.265642,-0.302446,0
2024-12-11 19:40:40.520,-0.414257,3.70618,10.1797,-0.896037,0.265642,-0.302446,0
2024-12-11 19:40:40.522,-0.52672,3.69183,10.4647,-0.924136,0.241819,-0.324436,0
2024-12-11 19:40:40.524,-0.682254,3.68943,10.7638,-0.944904,0.213109,-0.345816,0
2024-12-11 19:40:40.527,-0.852443,3.71336,11.0632,-0.963841,0.178902,-0.365974,0
2024-12-11 19:40:40.530,-1.02473,3.75165,11.3551,-0.976058,0.144694,-0.383688,0
2024-12-11 19:40:40.531,-1.20419,3.77797,11.6713,-0.98522,0.106211,-0.395295,0
2024-12-11 19:40:40.534,-1.36211,3.77079,12.0063,-0.99194,0.0671168,-0.405068,0
2024-12-11 19:40:40.536,-1.49402,3.74925,12.3129,-0.994383,0.0292443,-0.409344,0
2024-12-11 19:40:40.538,-1.60409,3.71097,12.5928,-0.99194,-0.00679568,-0.410566,0
2024-12-11 19:40:40.543,-1.74287,3.55035,13.1507,-0.976668,-0.0745997,-0.406901,0
2024-12-11 19:40:40.543,-1.74287,3.55035,13.1507,-0.976668,-0.0745997,-0.406901,0
2024-12-11 19:40:40.548,-1.87448,3.33739,13.7085,-0.953456,-0.133241,-0.390408,0
2024-12-11 19:40:40.548,-1.87448,3.33739,13.7085,-0.953456,-0.133241,-0.390408,0
2024-12-11 19:40:40.551,-1.88166,3.23211,13.9792,-0.92047,-0.185774,-0.359865,0
2024-12-11 19:40:40.553,-1.88883,3.134,14.2424,-0.92047,-0.185774,-0.359865,0
2024-12-11 19:40:40.556,-1.88644,3.03799,14.5059,-0.900312,-0.210208,-0.339097,0
2024-12-11 19:40:40.557,-1.87448,2.94945,14.7667,-0.876489,-0.234031,-0.317106,0
2024-12-11 19:40:40.559,-1.89601,2.86331,15.0015,-0.849001,-0.247469,-0.292061,0
2024-12-11 19:40:40.562,-1.89123,2.77717,15.2169,-0.821513,-0.256632,-0.262741,0
2024-12-11 19:40:40.567,-1.79791,2.65992,15.6933,-0.791582,-0.258465,-0.229755,0
2024-12-11 19:40:40.569,-1.74527,2.61446,15.9422,-0.721945,-0.243194,-0.163783,0
2024-12-11 19:40:40.570,-1.74527,2.61446,15.9422,-0.721945,-0.243194,-0.163783,0
2024-12-11 19:40:40.571,-1.72612,2.59292,16.1459,-0.681629,-0.221203,-0.1253,0
2024-12-11 19:40:40.574,-1.71655,2.58096,16.3086,-0.637648,-0.183331,-0.0849841,0
2024-12-11 19:40:40.576,-1.69262,2.58814,16.4498,-0.592445,-0.130187,-0.0428357,0
2024-12-11 19:40:40.581,-1.5323,2.58574,16.6893,-0.495321,-0.00374144,0.0439046,0
2024-12-11 19:40:40.581,-1.5323,2.58574,16.6893,-0.495321,-0.00374144,0.0439046,0
2024-12-11 19:40:40.583,-1.42941,2.56899,16.7181,-0.443399,0.066506,0.0842206,0
2024-12-11 19:40:40.586,-1.28315,2.54507,16.675,-0.392698,0.136753,0.120871,0
2024-12-11 19:40:40.589,-1.11805,2.49212,16.5936,-0.30718,0.243041,0.178291,0
2024-12-11 19:40:40.590,-0.967299,2.42273,16.4689,-0.30718,0.243041,0.178291,0
2024-12-11 19:40:40.592,-0.821037,2.35813,16.2559,-0.271751,0.274805,0.19173,0
2024-12-11 19:40:40.596,-0.655932,2.28634,16.0071,-0.236932,0.279692,0.200282,0
2024-12-11 19:40:40.597,-0.519542,2.22652,15.7603,-0.236932,0.279692,0.200282,0
2024-12-11 19:40:40.601,-0.404686,2.16192,15.5234,-0.236932,0.197838,0.173404,0
2024-12-11 19:40:40.603,-0.285045,2.10209,15.3006,-0.254647,0.128202,0.14897,0
2024-12-11 19:40:40.605,-0.172283,2.07099,15.1068,-0.254647,0.128202,0.14897,0
2024-12-11 19:40:40.607,-0.0693919,2.04706,14.9776,-0.282746,0.0420721,0.11965,0
2024-12-11 19:40:40.609,0.0287139,1.99681,14.9249,-0.320008,-0.0556635,0.086664,0
2024-12-11 19:40:40.612,0.107677,1.9657,14.9465,-0.402472,-0.267627,0.00725381,0
2024-12-11 19:40:40.615,0.172283,1.95823,15.0589,-0.445231,-0.373915,-0.0361163,0
2024-12-11 19:40:40.616,0.215354,1.95344,15.2743,-0.445231,-0.373915,-0.0361163,0
2024-12-11 19:40:40.619,0.256032,1.96062,15.5785,-0.484936,-0.468596,-0.0794865,0
2024-12-11 19:40:40.623,0.292223,1.94626,16.3373,-0.541134,-0.611534,-0.163783,0
2024-12-11 19:40:40.624,0.292223,1.94626,16.3373,-0.541134,-0.611534,-0.163783,0
2024-12-11 19:40:40.625,0.275175,1.91037,16.7228,-0.556405,-0.656737,-0.201656,0
2024-12-11 19:40:40.628,0.241675,1.88644,17.0674,-0.55946,-0.681171,-0.237085,0
2024-12-11 19:40:40.630,0.191426,1.86012,17.4027,-0.553962,-0.682393,-0.267627,0
2024-12-11 19:40:40.633,0.162712,1.77876,17.7619,-0.537469,-0.664678,-0.290229,0
2024-12-11 19:40:40.637,0.162712,1.47966,18.3509,-0.472719,-0.591376,-0.331156,0
2024-12-11 19:40:40.637,0.162712,1.47966,18.3509,-0.472719,-0.591376,-0.331156,0
2024-12-11 19:40:40.642,0.160319,1.25922,18.5542,-0.368875,-0.47837,-0.359865,0
2024-12-11 19:40:40.642,0.184247,1.03669,18.7122,-0.368875,-0.47837,-0.359865,0
2024-12-11 19:40:40.647,0.215354,0.586541,18.7672,-0.234489,-0.310998,-0.381245,1
2024-12-11 19:40:40.649,0.215354,0.586541,18.6404,-0.159355,-0.208986,-0.382467,0
2024-12-11 19:40:40.650,0.174676,0.361615,18.6404,-0.0805555,-0.0959794,-0.378802,0
2024-12-11 19:40:40.651,0.107677,0.165105,18.4083,-0.0805555,-0.0959794,-0.378802,0
2024-12-11 19:40:40.655,0.0167498,-0.0287139,18.2022,0.0807082,0.137364,-0.350092,0
2024-12-11 19:40:40.657,-0.0693919,-0.232104,18.0538,0.165005,0.244263,-0.32749,0
2024-12-11 19:40:40.659,-0.165105,-0.407079,17.7787,0.165005,0.244263,-0.32749,0
2024-12-11 19:40:40.661,-0.313759,-0.531506,17.386,0.24808,0.355437,-0.300613,0
2024-12-11 19:40:40.664,-0.471685,-0.641576,16.9549,0.326269,0.472109,-0.265795,0
2024-12-11 19:40:40.665,-0.629611,-0.74686,16.5048,0.403846,0.593056,-0.223036,0
2024-12-11 19:40:40.669,-0.787538,-0.813859,16.0334,0.545563,0.816703,-0.121024,0
2024-12-11 19:40:40.671,-0.974477,-0.871586,15.5378,0.610924,0.914438,-0.0599394,0
2024-12-11 19:40:40.674,-1.17069,-0.905085,15.0302,0.610924,0.914438,-0.0599394,0
2024-12-11 19:40:40.675,-1.35254,-0.912264,14.5274,0.667122,1.00301,0.00297788,0
2024-12-11 19:40:40.677,-1.50598,-0.895514,14.0366,0.717211,1.0757,0.0671168,0
2024-12-11 19:40:40.680,-1.61605,-0.881157,13.5434,0.763635,1.1319,0.136143,0
2024-12-11 19:40:40.685,-1.77876,-0.85005,12.5928,0.866258,1.22902,0.327338,0
2024-12-11 19:40:40.687,-1.77876,-0.828216,12.1167,0.866258,1.22902,0.327338,0
2024-12-11 19:40:40.687,-1.8338,-0.828216,12.1167,0.866258,1.22902,0.327338,0
2024-12-11 19:40:40.691,-1.87208,-0.732503,11.2427,0.908406,1.24552,0.443399,0
2024-12-11 19:40:40.691,-1.87208,-0.732503,11.2427,0.908406,1.24552,0.443399,0
2024-12-11 19:40:40.694,-1.85773,-0.701396,10.9074,0.924288,1.24002,0.49471,0
2024-12-11 19:40:40.698,-1.79551,-0.596112,10.3184,0.9475,1.20398,0.582672,0
2024-12-11 19:40:40.699,-1.79551,-0.596112,10.3184,0.9475,1.20398,0.582672,0
2024-12-11 19:40:40.702,-1.73809,-0.555434,10.0744,0.964604,1.14351,0.650476,0
2024-12-11 19:40:40.704,-1.66869,-0.514756,9.83749,0.964604,1.14351,0.650476,0
2024-12-11 19:40:40.708,-1.55384,-0.41665,9.35624,0.980486,1.07082,0.697511,0
2024-12-11 19:40:40.708,-1.55384,-0.41665,9.35624,0.980486,1.07082,0.697511,0
2024-12-11 19:40:40.710,-1.48205,-0.349651,9.15494,0.987206,1.03111,0.713393,0
2024-12-11 19:40:40.713,-1.42463,-0.282652,8.95873,0.990871,0.985297,0.723167,0
2024-12-11 19:40:40.717,-1.35254,-0.236889,8.5684,0.998201,0.883285,0.730497,0
2024-12-11 19:40:40.718,-1.29751,-0.167498,8.5684,0.998201,0.883285,0.730497,0
2024-12-11 19:40:40.720,-1.28315,-0.100499,8.38654,0.994536,0.825255,0.726221,0
2024-12-11 19:40:40.723,-1.27597,-0.0287139,8.22144,0.993314,0.76165,0.717058,0
2024-12-11 19:40:40.728,-1.24726,0.150748,7.8694,0.98354,0.568012,0.679186,0
2024-12-11 19:40:40.729,-1.22812,0.210568,7.69472,0.974378,0.568012,0.679186,0
2024-12-11 19:40:40.730,-1.22812,0.210568,7.69472,0.963382,0.500208,0.661471,0
2024-12-11 19:40:40.731,-1.20897,0.282652,7.54367,0.963382,0.500208,0.661471,0
2024-12-11 19:40:40.734,-1.18983,0.352044,7.41925,0.949944,0.433625,0.643757,0
2024-12-11 19:40:40.737,-1.15872,0.411865,7.28525,0.917569,0.30046,0.604052,0
2024-12-11 19:40:40.738,-1.12522,0.452543,7.16561,0.917569,0.30046,0.604052,0
2024-12-11 19:40:40.741,-1.08933,0.486042,7.06989,0.900465,0.232656,0.582672,0
2024-12-11 19:40:40.746,-0.974477,0.52672,6.91885,0.879696,0.161187,0.557627,0
2024-12-11 19:40:40.749,-0.909871,0.54347,6.86142,0.814947,-0.037338,0.484936,0
2024-12-11 19:40:40.749,-0.909871,0.54347,6.86142,0.814947,-0.037338,0.484936,0
2024-12-11 19:40:40.751,-0.85005,0.538684,6.80399,0.792956,-0.0990336,0.460502,0
2024-12-11 19:40:40.753,-0.787538,0.50997,6.75613,0.792956,-0.0990336,0.460502,0
2024-12-11 19:40:40.755,-0.715753,0.464507,6.71785,0.766079,-0.160729,0.433625,0
2024-12-11 19:40:40.757,-0.65354,0.411865,6.69392,0.745921,-0.215705,0.407359,0
2024-12-11 19:40:40.760,-0.588933,0.347258,6.69871,0.720876,-0.268238,0.384757,0
2024-12-11 19:40:40.762,-0.531506,0.289831,6.73699,0.698275,-0.317106,0.359102,0
2024-12-11 19:40:40.764,-0.476471,0.234497,6.77767,0.675673,-0.361087,0.334057,0
2024-12-11 19:40:40.768,-0.419043,0.172283,6.82074,0.654905,-0.39896,0.31451,0
2024-12-11 19:40:40.769,-0.385544,0.107677,6.87099,0.636579,-0.42828,0.294352,0
2024-12-11 19:40:40.771,-0.359223,0.0622134,6.9356,0.618865,-0.451492,0.275416,0
2024-12-11 19:40:40.775,-0.325723,0.0334995,6.99781,0.591376,-0.470429,0.241208,0
2024-12-11 19:40:40.779,-0.30658,-0.0167498,7.10339,0.57916,-0.47104,0.228381,0
2024-12-11 19:40:40.779,-0.299402,-0.0167498,7.10339,0.57916,-0.47104,0.228381,0
2024-12-11 19:40:40.782,-0.304188,-0.0334995,7.15843,0.562056,-0.457601,0.203947,0
2024-12-11 19:40:40.784,-0.311366,-0.0382852,7.19193,0.562056,-0.457601,0.203947,0
2024-12-11 19:40:40.786,-0.313759,-0.0287139,7.22543,0.552893,-0.445384,0.196616,0
2024-12-11 19:40:40.788,-0.34008,-0.0334995,7.26611,0.545563,-0.430113,0.183178,0
2024-12-11 19:40:40.790,-0.380758,-0.0215354,7.27807,0.540676,-0.412398,0.175237,0
2024-12-11 19:40:40.794,-0.423829,-0.00239282,7.2685,0.532124,-0.37025,0.161798,0
2024-12-11 19:40:40.796,-0.488435,0.0191426,7.25414,0.527238,-0.344594,0.157522,0
2024-12-11 19:40:40.798,-0.56022,0.026321,7.23261,0.527238,-0.344594,0.157522,0
2024-12-11 19:40:40.800,-0.627219,0.0239282,7.20628,0.524183,-0.313441,0.152025,0
2024-12-11 19:40:40.802,-0.701396,0.0334995,7.16321,0.518075,-0.284731,0.152025,0
2024-12-11 19:40:40.807,-0.82343,0.0167498,7.07468,0.506469,-0.224868,0.155079,0
2024-12-11 19:40:40.807,-0.82343,0.0167498,7.07468,0.506469,-0.224868,0.155079,0
2024-12-11 19:40:40.809,-0.897907,0.0143569,7.01725,0.50036,-0.19738,0.156301,0
2024-12-11 19:40:40.812,-0.972084,0.0334995,6.97149,0.494252,-0.165616,0.160576,0
2024-12-11 19:40:40.814,-1.0319,0.0382852,6.92363,0.486922,-0.13935,0.166074,0
2024-12-11 19:40:40.816,-1.07976,0.0478565,6.87578,0.480813,-0.111251,0.17035,0
2024-12-11 19:40:40.819,-1.11565,0.0478565,6.82313,0.472872,-0.0849841,0.17768,0
2024-12-11 19:40:40.821,-1.14197,0.0358923,6.76571,0.46432,-0.0581068,0.1844,0
2024-12-11 19:40:40.823,-1.17787,0.0430708,6.72024,0.458212,-0.0318404,0.194173,0
2024-12-11 19:40:40.826,-1.21854,0.0430708,6.67239,0.452103,-0.00801737,0.202114,0
2024-12-11 19:40:40.828,-1.25683,0.0526421,6.60778,0.452103,-0.00801737,0.202114,0
2024-12-11 19:40:40.830,-1.29033,0.0598206,6.54557,0.438665,0.0445155,0.223494,0
2024-12-11 19:40:40.833,-1.33819,0.0526421,6.49053,0.428891,0.0671168,0.236322,0
2024-12-11 19:40:40.835,-1.36929,0.0550349,6.43998,0.422783,0.0915507,0.24976,0
2024-12-11 19:40:40.837,-1.39083,0.0693919,6.38495,0.419118,0.114763,0.26381,0
2024-12-11 19:40:40.840,-1.44377,0.0885344,6.33231,0.412398,0.133088,0.277859,0
2024-12-11 19:40:40.842,-1.48684,0.119641,6.28924,0.40629,0.150803,0.29313,0
2024-12-11 19:40:40.845,-1.51795,0.138784,6.24616,0.398349,0.165463,0.310234,0
2024-12-11 19:40:40.847,-1.54427,0.145962,6.21027,0.393462,0.180124,0.326727,0
2024-12-11 19:40:40.849,-1.56102,0.174676,6.16242,0.386743,0.192951,0.344442,0
2024-12-11 19:40:40.853,-1.57298,0.22014,6.10977,0.376969,0.211888,0.379871,0
2024-12-11 19:40:40.854,-1.57298,0.248854,6.05474,0.376969,0.211888,0.379871,0
2024-12-11 19:40:40.856,-1.57059,0.258425,6.00688,0.372693,0.219829,0.396974,0
2024-12-11 19:40:40.859,-1.5658,0.265603,5.95903,0.369028,0.225937,0.418965,0
2024-12-11 19:40:40.861,-1.55384,0.277567,5.91356,0.364141,0.233267,0.436679,0
2024-12-11 19:40:40.864,-1.54427,0.285045,5.88933,0.358644,0.237543,0.455005,0
2024-12-11 19:40:40.868,-1.51077,0.342473,5.81276,0.351924,0.240597,0.494099,0
2024-12-11 19:40:40.870,-1.49163,0.371187,5.76012,0.348259,0.239987,0.511814,0
2024-12-11 19:40:40.870,-1.49163,0.371187,5.76012,0.348259,0.239987,0.511814,0
2024-12-11 19:40:40.873,-1.45813,0.407079,5.71227,0.345816,0.24243,0.53075,0
2024-12-11 19:40:40.875,-1.42941,0.4334,5.6668,0.343373,0.239987,0.549075,0
2024-12-11 19:40:40.877,-1.4004,0.469292,5.62852,0.339707,0.238765,0.56679,0
2024-12-11 19:40:40.880,-1.35972,0.507577,5.59502,0.335431,0.232656,0.583894,0
2024-12-11 19:40:40.883,-1.30708,0.514756,5.55434,0.330545,0.228991,0.599776,0
2024-12-11 19:40:40.888,-1.22094,0.588933,5.48016,0.314663,0.207001,0.649254,0
2024-12-11 19:40:40.890,-1.17547,0.634397,5.44906,0.314663,0.207001,0.649254,0
2024-12-11 19:40:40.890,-1.17547,0.634397,5.44906,0.314663,0.207001,0.649254,0
2024-12-11 19:40:40.892,-1.12283,0.682254,5.41795,0.308554,0.196616,0.662693,0
2024-12-11 19:40:40.894,-1.07976,0.720539,5.38445,0.301224,0.187454,0.679186,0
2024-12-11 19:40:40.896,-1.02712,0.777966,5.35095,0.292061,0.178291,0.692014,0
2024-12-11 19:40:40.899,-0.969691,0.842872,5.32194,0.28412,0.166074,0.706063,0
2024-12-11 19:40:40.901,-0.917049,0.902692,5.29562,0.274347,0.153857,0.717058,0
2024-12-11 19:40:40.903,-0.862014,0.964906,5.28365,0.264573,0.146527,0.728664,0
2024-12-11 19:40:40.906,-0.804287,1.0343,5.26212,0.254189,0.137364,0.739736,0
2024-12-11 19:40:40.908,-0.749253,1.10848,5.24058,0.241972,0.130034,0.750731,0
2024-12-11 19:40:40.910,-0.703789,1.18265,5.25254,0.228533,0.120871,0.759283,0
2024-12-11 19:40:40.914,-0.663111,1.26879,5.26451,0.203488,0.101935,0.773943,0
2024-12-11 19:40:40.916,-0.610469,1.34297,5.27169,0.186996,0.0927724,0.77883,0
2024-12-11 19:40:40.918,-0.555434,1.40788,5.29801,0.186996,0.0927724,0.77883,0
2024-12-11 19:40:40.920,-0.507577,1.49641,5.33181,0.172946,0.082388,0.782495,0
2024-12-11 19:40:40.923,-0.454935,1.58973,5.35813,0.158897,0.0720036,0.783106,0
2024-12-11 19:40:40.925,-0.385544,1.66869,5.40838,0.144847,0.0573433,0.784939,0
2024-12-11 19:40:40.927,-0.289831,1.74287,5.46581,0.131409,0.042683,0.78555,0
2024-12-11 19:40:40.930,-0.160319,1.81226,5.50888,0.11797,0.0280226,0.782495,0
2024-12-11 19:40:40.932,-0.0358923,1.89601,5.56391,0.10331,0.0115297,0.776387,0
2024-12-11 19:40:40.934,0.0741775,1.98006,5.6333,0.0880384,-0.00557398,0.766613,0
2024-12-11 19:40:40.937,0.196211,2.05663,5.69552,0.0678804,-0.0232886,0.754396,0
2024-12-11 19:40:40.941,0.397508,2.18824,5.77926,0.0312296,-0.0501658,0.723167,0
2024-12-11 19:40:40.942,0.397508,2.18824,5.77926,0.013515,-0.0587177,0.70362,0
2024-12-11 19:40:40.943,0.502792,2.26481,5.8343,0.013515,-0.0587177,0.70362,0
2024-12-11 19:40:40.946,0.608076,2.35095,5.91356,-0.00542127,-0.0642153,0.681629,0
2024-12-11 19:40:40.948,0.708575,2.4323,5.98535,-0.0268009,-0.0703238,0.655974,0
2024-12-11 19:40:40.950,0.809073,2.52323,6.07149,-0.0500131,-0.0770431,0.629096,0
2024-12-11 19:40:40.953,0.881157,2.62881,6.15524,-0.0713928,-0.0794865,0.60283,0
2024-12-11 19:40:40.958,0.909871,2.79392,6.33231,-0.116595,-0.0831516,0.540523,0
2024-12-11 19:40:40.958,0.909871,2.79392,6.33231,-0.116595,-0.0831516,0.540523,0
2024-12-11 19:40:40.961,0.897907,2.88724,6.44238,-0.160576,-0.0880384,0.476385,0
2024-12-11 19:40:40.963,0.871586,2.98056,6.55035,-0.182567,-0.0880384,0.445231,0
2024-12-11 19:40:40.967,0.773181,3.13161,6.72742,-0.205168,-0.0929251,0.413467,0
2024-12-11 19:40:40.967,0.773181,3.13161,6.72742,-0.205168,-0.0929251,0.413467,0
2024-12-11 19:40:40.969,0.742074,3.20578,6.82074,-0.230824,-0.101477,0.384757,0
2024-12-11 19:40:40.972,0.696611,3.27518,6.91885,-0.254647,-0.112472,0.354215,0
2024-12-11 19:40:40.977,0.584148,3.37328,7.10818,-0.304736,-0.140571,0.296795,0
2024-12-11 19:40:40.980,0.545863,3.41635,7.21107,-0.332835,-0.160118,0.269918,0
2024-12-11 19:40:40.981,0.498006,3.44746,7.32832,-0.360324,-0.182109,0.241819,0
2024-12-11 19:40:40.981,0.498006,3.44746,7.32832,-0.360324,-0.182109,0.241819,0
2024-12-11 19:40:40.983,0.438186,3.46899,7.436,-0.389644,-0.207764,0.217996,0
2024-12-11 19:40:40.986,0.375972,3.49532,7.55324,-0.42263,-0.234031,0.197227,0
2024-12-11 19:40:40.988,0.332901,3.52642,7.69233,-0.454394,-0.265184,0.174626,0
2024-12-11 19:40:40.992,0.285045,3.56949,7.85504,-0.487991,-0.295116,0.153246,0
2024-12-11 19:40:40.994,0.227318,3.61017,8.04168,-0.548464,-0.354979,0.117206,0
2024-12-11 19:40:40.995,0.155533,3.63649,8.25733,-0.548464,-0.354979,0.117206,0
2024-12-11 19:40:40.998,0.0957129,3.66072,8.49183,-0.578396,-0.381856,0.102546,0
2024-12-11 19:40:41.001,0.0550349,3.67747,8.7338,-0.630318,-0.427669,0.0793338,0
2024-12-11 19:40:41.005,0.0287139,3.72293,9.25065,-0.651698,-0.446606,0.0689494,0
2024-12-11 19:40:41.005,0.0287139,3.72293,9.25065,-0.651698,-0.446606,0.0689494,0
2024-12-11 19:40:41.007,0.0311067,3.72293,9.52613,-0.67491,-0.462488,0.0616192,0
2024-12-11 19:40:41.010,0.0454636,3.7349,9.81087,-0.690181,-0.477759,0.0567324,0
2024-12-11 19:40:41.013,0.0741775,3.7349,10.1103,-0.719502,-0.505858,0.0469589,0
2024-12-11 19:40:41.015,0.114855,3.71097,10.4073,-0.728664,-0.517464,0.0420721,0
2024-12-11 19:40:41.017,0.177069,3.69422,10.7183,-0.728664,-0.517464,0.0420721,0
2024-12-11 19:40:41.019,0.232104,3.7014,11.0321,-0.738438,-0.531513,0.0359636,0
2024-12-11 19:40:41.021,0.287438,3.72054,11.3169,-0.74027,-0.541898,0.0316877,0
2024-12-11 19:40:41.024,0.34008,3.74925,11.6067,-0.743936,-0.551061,0.0268009,0
2024-12-11 19:40:41.026,0.387936,3.75883,11.9249,-0.745157,-0.559612,0.0219141,0
2024-12-11 19:40:41.028,0.452543,3.77318,12.2339,-0.743936,-0.566332,0.0170274,0
2024-12-11 19:40:41.034,0.63679,3.81386,12.8037,-0.721945,-0.577327,-0.000687203,0
2024-12-11 19:40:41.034,0.63679,3.81386,12.8037,-0.721945,-0.577327,-0.000687203,0
2024-12-11 19:40:41.035,0.739681,3.84497,13.086,-0.721945,-0.577327,-0.000687203,0
2024-12-11 19:40:41.039,0.852443,3.86172,13.3783,-0.710339,-0.57916,-0.00862822,0
2024-12-11 19:40:41.040,0.964906,3.87847,13.6558,-0.693846,-0.57977,-0.0171801,0
2024-12-11 19:40:41.042,1.09651,3.9,13.9217,-0.68224,-0.584657,-0.0275645,0
2024-12-11 19:40:41.046,1.24965,3.91436,14.1826,-0.649865,-0.587711,-0.057496,0
2024-12-11 19:40:41.048,1.38604,3.91675,14.4078,-0.633983,-0.588933,-0.0752106,0
2024-12-11 19:40:41.050,1.51795,3.92393,14.6184,-0.633983,-0.588933,-0.0752106,0
2024-12-11 19:40:41.052,1.65673,3.93589,14.8289,-0.615047,-0.590766,-0.093536,0
2024-12-11 19:40:41.054,1.77398,3.94307,15.0374,-0.598554,-0.588933,-0.115526,0
2024-12-11 19:40:41.056,1.90558,3.95504,15.2336,-0.580229,-0.588933,-0.140571,0
2024-12-11 19:40:41.059,2.02313,3.96222,15.4179,-0.562514,-0.584046,-0.164394,0
2024-12-11 19:40:41.061,2.09731,3.96461,15.5976,-0.543578,-0.580992,-0.19005,0
2024-12-11 19:40:41.065,2.17149,3.96461,15.7747,-0.543578,-0.580992,-0.19005,0
2024-12-11 19:40:41.066,2.27199,3.967,15.9613,-0.505705,-0.569386,-0.245637,0
2024-12-11 19:40:41.069,2.35573,3.97179,16.1291,-0.464168,-0.546174,-0.296948,0
2024-12-11 19:40:41.071,2.39163,3.98375,16.2823,-0.464168,-0.546174,-0.296948,0
2024-12-11 19:40:41.073,2.42034,3.98136,16.4258,-0.440955,-0.529681,-0.323825,0
2024-12-11 19:40:41.076,2.4323,3.98854,16.5745,-0.414689,-0.508301,-0.349481,0
2024-12-11 19:40:41.080,2.41316,4.02682,16.8425,-0.365821,-0.456379,-0.39224,0
2024-12-11 19:40:41.080,2.41316,4.02682,16.8425,-0.365821,-0.456379,-0.39224,0
2024-12-11 19:40:41.082,2.37248,4.04836,16.9621,-0.334668,-0.422172,-0.410566,0
2024-12-11 19:40:41.085,2.30548,4.06271,17.0674,-0.30046,-0.386132,-0.427059,0
2024-12-11 19:40:41.088,2.21456,4.08425,17.1634,-0.266253,-0.345205,-0.436832,0
2024-12-11 19:40:41.089,2.0997,4.11775,17.2113,-0.226548,-0.296948,-0.445384,0
2024-12-11 19:40:41.092,1.9681,4.15125,17.2208,-0.179513,-0.23342,-0.449049,0
2024-12-11 19:40:41.094,1.82423,4.19671,17.1969,-0.134921,-0.163783,-0.444162,0
2024-12-11 19:40:41.098,1.69023,4.26162,17.1129,-0.0359636,-0.00679568,-0.42095,1
2024-12-11 19:40:41.100,1.55384,4.31426,16.9478,-0.0359636,-0.00679568,-0.42095,0
2024-12-11 19:40:41.102,1.42941,4.34776,16.7252,0.0532201,0.135532,-0.388575,0
2024-12-11 19:40:41.105,1.37886,4.34297,16.4545,0.0862058,0.183178,-0.373304,0
2024-12-11 19:40:41.107,1.37886,4.31665,16.1243,0.112472,0.211888,-0.359255,0
2024-12-11 19:40:41.109,1.42702,4.26162,15.7747,0.127133,0.221661,-0.348259,0
2024-12-11 19:40:41.112,1.5323,4.16082,15.425,0.127133,0.221661,-0.348259,0
2024-12-11 19:40:41.113,1.67587,4.03639,15.0613,0.135074,0.214942,-0.342762,0
2024-12-11 19:40:41.115,1.85533,3.90957,14.7045,0.131409,0.19173,-0.342762,0
2024-12-11 19:40:41.118,2.03031,3.81386,14.3719,0.117359,0.162409,-0.350092,0
2024-12-11 19:40:41.120,2.21456,3.75165,14.0821,0.0965902,0.122093,-0.364752,0
2024-12-11 19:40:41.122,2.38684,3.72533,13.8523,0.0691021,0.074447,-0.385521,0
2024-12-11 19:40:41.127,2.67189,3.68943,13.5362,0.00251974,-0.0287862,-0.445995,0
2024-12-11 19:40:41.128,2.67189,3.68943,13.5362,0.00251974,-0.0287862,-0.445995,0
2024-12-11 19:40:41.129,2.78435,3.72054,13.4501,-0.0316877,-0.077654,-0.483257,0
2024-12-11 19:40:41.133,2.90878,3.74686,13.4094,-0.0658951,-0.1253,-0.522351,0
2024-12-11 19:40:41.135,3.4355,3.51207,13.8141,-0.119039,-0.238918,-0.638412,0
2024-12-11 19:40:41.137,3.8019,3.2991,14.2256,-0.119039,-0.238918,-0.638412,0
2024-12-11 19:40:41.139,3.268,3.53839,13.7877,-0.130645,-0.251135,-0.702551,0
2024-12-11 19:40:41.141,2.8657,3.78754,13.3041,-0.151414,-0.195547,-0.750808,0
2024-12-11 19:40:41.144,2.97338,3.81865,13.3878,-0.169128,-0.135684,-0.794789,0
2024-12-11 19:40:41.146,3.04995,3.78515,13.5888,-0.183789,-0.093536,-0.839991,0
2024-12-11 19:40:41.149,3.03081,3.71575,13.6295,-0.196006,-0.0623828,-0.88947,0
2024-12-11 19:40:41.151,2.9686,3.58624,13.5314,-0.211888,-0.0324513,-0.935283,0
2024-12-11 19:40:41.153,2.9327,3.38764,13.4118,-0.227159,-0.0019089,-0.980486,0
2024-12-11 19:40:41.155,2.91356,3.13161,13.3065,-0.24243,0.0298552,-1.03119,0
2024-12-11 19:40:41.158,2.90399,2.85135,13.2371,-0.25709,0.0683385,-1.0825,0
2024-12-11 19:40:41.160,2.87528,2.56182,13.1916,-0.265031,0.109265,-1.13442,0
2024-12-11 19:40:41.165,2.59292,2.04945,13.0645,-0.269307,0.192951,-1.23338,0
2024-12-11 19:40:41.165,2.59292,2.04945,13.0645,-0.269307,0.192951,-1.23338,0
2024-12-11 19:40:41.167,2.40359,1.80748,12.9975,-0.267475,0.236322,-1.28041,0
2024-12-11 19:40:41.170,2.2002,1.58495,12.9544,-0.260145,0.277859,-1.32439,0
2024-12-11 19:40:41.173,1.96062,1.36211,12.9066,-0.235711,0.353604,-1.39342,0
2024-12-11 19:40:41.175,1.70937,1.17787,12.8228,-0.235711,0.353604,-1.39342,0
2024-12-11 19:40:41.179,1.14197,0.845265,12.629,-0.197838,0.42996,-1.43557,0
2024-12-11 19:40:41.180,1.14197,0.845265,12.629,-0.197838,0.42996,-1.43557,0
2024-12-11 19:40:41.181,0.835394,0.706182,12.5067,-0.171572,0.466,-1.44778,0
2024-12-11 19:40:41.185,0.529113,0.572184,12.3703,-0.142862,0.503262,-1.45206,0
2024-12-11 19:40:41.187,0.22014,0.4334,12.21,-0.114763,0.539302,-1.44901,0
2024-12-11 19:40:41.191,-0.3999,0.18664,11.8244,-0.0542891,0.611382,-1.42213,0
2024-12-11 19:40:41.191,-0.3999,0.18664,11.8244,-0.0542891,0.611382,-1.42213,0
2024-12-11 19:40:41.193,-0.670289,0.0622134,11.6426,-0.022525,0.640092,-1.39953,0
2024-12-11 19:40:41.196,-0.917049,-0.040678,11.4556,0.00740652,0.662693,-1.36715,0
2024-12-11 19:40:41.199,-1.13958,-0.133998,11.257,0.0648262,0.688959,-1.29263,0
2024-12-11 19:40:41.204,-1.54905,-0.267996,10.9074,0.121024,0.683462,-1.19856,0
2024-12-11 19:40:41.204,-1.54905,-0.267996,10.9074,0.121024,0.683462,-1.19856,0
2024-12-11 19:40:41.207,-1.89123,-0.373579,10.5915,0.121024,0.683462,-1.19856,0
2024-12-11 19:40:41.208,-1.89123,-0.373579,10.5915,0.177833,0.651698,-1.09166,0
2024-12-11 19:40:41.210,-2.02074,-0.414257,10.4288,0.177833,0.651698,-1.09166,0
2024-12-11 19:40:41.213,-2.11167,-0.459721,10.273,0.206543,0.625431,-1.03485,0
2024-12-11 19:40:41.214,-2.16431,-0.521934,10.1438,0.235253,0.591835,-0.979264,0
2024-12-11 19:40:41.217,-2.19541,-0.548256,10.005,0.26213,0.553962,-0.924288,0
2024-12-11 19:40:41.219,-2.20738,-0.555434,9.87099,0.289618,0.509981,-0.868701,0
2024-12-11 19:40:41.221,-2.20259,-0.557827,9.75823,0.315884,0.460502,-0.815557,0
2024-12-11 19:40:41.225,-2.18106,-0.574577,9.64337,0.340318,0.40797,-0.765468,0
2024-12-11 19:40:41.226,-2.14038,-0.593719,9.51655,0.340318,0.40797,-0.765468,0
2024-12-11 19:40:41.229,-2.08774,-0.584148,9.39213,0.389797,0.2858,-0.670176,0
2024-12-11 19:40:41.232,-2.02552,-0.565005,9.28445,0.427669,0.151414,-0.587101,0
2024-12-11 19:40:41.233,-1.96062,-0.536291,9.17647,0.427669,0.151414,-0.587101,0
2024-12-11 19:40:41.236,-1.89362,-0.498006,9.06162,0.442941,0.0817772,-0.549839,0
2024-12-11 19:40:41.240,-1.72373,-0.404686,8.86302,0.467375,-0.065437,-0.484478,0
2024-12-11 19:40:41.240,-1.72373,-0.404686,8.86302,0.467375,-0.065437,-0.484478,0
2024-12-11 19:40:41.243,-1.63759,-0.359223,8.7673,0.474705,-0.138128,-0.457601,0
2024-12-11 19:40:41.245,-1.5682,-0.30658,8.69761,0.478981,-0.208986,-0.433167,0
2024-12-11 19:40:41.248,-1.48205,-0.239282,8.64018,0.478981,-0.34887,-0.39224,0
2024-12-11 19:40:41.251,-1.37647,-0.18664,8.60668,0.477759,-0.415452,-0.374526,0
2024-12-11 19:40:41.253,-1.26879,-0.133998,8.60908,0.472872,-0.477148,-0.359865,0
2024-12-11 19:40:41.255,-1.16351,-0.0717847,8.64497,0.472872,-0.477148,-0.359865,0
2024-12-11 19:40:41.257,-1.05823,-0.0191426,8.69283,0.468596,-0.5364,-0.345205,0
2024-12-11 19:40:41.259,-0.938585,0.026321,8.75294,0.465542,-0.590766,-0.333599,0
2024-12-11 19:40:41.264,-0.682254,0.0454636,8.86541,0.462488,-0.685447,-0.314663,0
2024-12-11 19:40:41.264,-0.682254,0.0454636,8.86541,0.462488,-0.685447,-0.314663,0
2024-12-11 19:40:41.266,-0.548256,0.0215354,8.91566,0.457601,-0.72332,-0.3055,0
2024-12-11 19:40:41.268,-0.414257,-0.0143569,8.96351,0.454547,-0.756916,-0.300613,0
2024-12-11 19:40:41.271,-0.287438,-0.0287139,9.01376,0.454547,-0.756916,-0.300613,0
2024-12-11 19:40:41.274,-0.153141,-0.0454636,9.05683,0.449049,-0.812503,-0.292672,0
2024-12-11 19:40:41.276,-0.00957129,-0.0598206,9.09512,0.449049,-0.812503,-0.292672,0
2024-12-11 19:40:41.278,0.122034,-0.0574277,9.11426,0.444162,-0.850987,-0.289618,0
2024-12-11 19:40:41.280,0.236889,-0.0526421,9.12383,0.436221,-0.868701,-0.290229,0
2024-12-11 19:40:41.284,0.352044,-0.0358923,9.15733,0.424004,-0.898022,-0.297559,0
2024-12-11 19:40:41.286,0.469292,-0.00957129,9.20519,0.424004,-0.898022,-0.297559,0
2024-12-11 19:40:41.287,0.579362,0.0119641,9.23869,0.41362,-0.90413,-0.303057,0
2024-12-11 19:40:41.290,0.687039,0.040678,9.24826,0.40629,-0.907795,-0.310998,0
2024-12-11 19:40:41.292,0.785145,0.0789631,9.25544,0.396516,-0.90413,-0.320771,0
2024-12-11 19:40:41.297,0.921835,0.162712,9.27249,0.375137,-0.880307,-0.342151,0
2024-12-11 19:40:41.297,0.921835,0.162712,9.27249,0.375137,-0.880307,-0.342151,0
2024-12-11 19:40:41.301,0.984048,0.256032,9.26052,0.351924,-0.830829,-0.362309,0
2024-12-11 19:40:41.301,0.984048,0.256032,9.26052,0.351924,-0.830829,-0.362309,0
2024-12-11 19:40:41.307,0.988834,0.368794,9.29402,0.307943,-0.72332,-0.394073,0
2024-12-11 19:40:41.307,0.988834,0.368794,9.29402,0.307943,-0.72332,-0.394073,0
2024-12-11 19:40:41.309,0.969691,0.419043,9.30359,0.307943,-0.72332,-0.394073,0
2024-12-11 19:40:41.312,0.94337,0.4669,9.32752,0.285953,-0.633525,-0.413009,0
2024-12-11 19:40:41.314,0.905085,0.517149,9.33949,0.285953,-0.633525,-0.413009,0
2024-12-11 19:40:41.316,0.85005,0.567398,9.36341,0.27679,-0.584657,-0.42095,0
2024-12-11 19:40:41.318,0.768395,0.605683,9.38974,0.270682,-0.533346,-0.42828,0
2024-12-11 19:40:41.320,0.682254,0.648754,9.38495,0.266406,-0.477759,-0.433778,0
2024-12-11 19:40:41.325,0.483649,0.727717,9.38495,0.265795,-0.362309,-0.437443,0
2024-12-11 19:40:41.325,0.483649,0.727717,9.38495,0.265795,-0.362309,-0.437443,0
2024-12-11 19:40:41.330,0.248854,0.761217,9.30359,0.270682,-0.241361,-0.432556,0
2024-12-11 19:40:41.330,0.248854,0.761217,9.30359,0.270682,-0.241361,-0.432556,0
2024-12-11 19:40:41.333,0.133998,0.770788,9.24587,0.283509,-0.129576,-0.417285,0
2024-12-11 19:40:41.335,0.00239282,0.789931,9.1669,0.283509,-0.129576,-0.417285,0
2024-12-11 19:40:41.337,-0.102891,0.801895,9.05923,0.289618,-0.077654,-0.408122,0
2024-12-11 19:40:41.339,-0.208176,0.813859,8.9348,0.297559,-0.0287862,-0.397127,0
2024-12-11 19:40:41.341,-0.325723,0.821037,8.81037,0.304889,0.0176382,-0.383688,0
2024-12-11 19:40:41.344,-0.4334,0.830609,8.67368,0.309776,0.0597867,-0.369028,0
2024-12-11 19:40:41.347,-0.517149,0.857229,8.54208,0.318328,0.130645,-0.335431,0
2024-12-11 19:40:41.350,-0.588933,0.893121,8.40808,0.321993,0.159355,-0.315274,0
2024-12-11 19:40:41.352,-0.658325,0.919442,8.27408,0.321993,0.159355,-0.315274,0
2024-12-11 19:40:41.353,-0.722932,0.936192,8.15683,0.323825,0.183789,-0.295116,0
2024-12-11 19:40:41.358,-0.818644,0.988834,7.94357,0.326269,0.221661,-0.253578,0
2024-12-11 19:40:41.359,-0.818644,0.988834,7.94357,0.326269,0.221661,-0.253578,0
2024-12-11 19:40:41.360,-0.830609,0.998405,7.867,0.32749,0.2351,-0.229755,0
2024-12-11 19:40:41.363,-0.833001,1.04387,7.78804,0.330545,0.248538,-0.206543,0
2024-12-11 19:40:41.365,-0.833001,1.08215,7.72343,0.332377,0.257701,-0.184552,0
2024-12-11 19:40:41.370,-0.789931,1.1324,7.61815,0.342762,0.270529,-0.138739,0
2024-12-11 19:40:41.371,-0.789931,1.1324,7.61815,0.351314,0.273583,-0.11797,0
2024-12-11 19:40:41.372,-0.749253,1.15633,7.59422,0.351314,0.273583,-0.11797,0
2024-12-11 19:40:41.374,-0.701396,1.17308,7.56999,0.357422,0.274194,-0.0972011,0
2024-12-11 19:40:41.377,-0.672682,1.2018,7.52932,0.372082,0.273583,-0.077654,0
2024-12-11 19:40:41.379,-0.646361,1.22333,7.49582,0.380634,0.274805,-0.0544418,0
2024-12-11 19:40:41.382,-0.608076,1.24008,7.4671,0.391629,0.274805,-0.0361163,0
2024-12-11 19:40:41.384,-0.574577,1.28076,7.43121,0.405068,0.274805,-0.0177909,0
2024-12-11 19:40:41.389,-0.493221,1.35015,7.37378,0.436221,0.275416,0.0188599,0
2024-12-11 19:40:41.389,-0.493221,1.35015,7.37378,0.436221,0.275416,0.0188599,0
2024-12-11 19:40:41.392,-0.454935,1.38844,7.32593,0.469207,0.272362,0.0518457,0
2024-12-11 19:40:41.394,-0.428614,1.42941,7.28764,0.486311,0.268696,0.0658951,0
2024-12-11 19:40:41.397,-0.3999,1.45813,7.24696,0.504636,0.261366,0.0817772,0
2024-12-11 19:40:41.399,-0.368794,1.49163,7.19193,0.52174,0.254647,0.0970484,0
2024-12-11 19:40:41.401,-0.335294,1.5323,7.13689,0.52174,0.254647,0.0970484,0
2024-12-11 19:40:41.403,-0.285045,1.55862,7.08664,0.538233,0.244263,0.109876,0
2024-12-11 19:40:41.405,-0.217747,1.58255,7.01217,0.555947,0.232046,0.122093,0
2024-12-11 19:40:41.407,-0.141177,1.60648,6.92842,0.555947,0.232046,0.122093,0
2024-12-11 19:40:41.411,-0.066999,1.64716,6.85903,0.584046,0.20639,0.139197,0
2024-12-11 19:40:41.412,0.0167498,1.69023,6.76092,0.584046,0.20639,0.139197,0
2024-12-11 19:40:41.416,0.0957129,1.71894,6.65564,0.610924,0.181345,0.14836,0
2024-12-11 19:40:41.418,0.181855,1.75005,6.57428,0.614589,0.175848,0.14836,0
2024-12-11 19:40:41.420,0.253639,1.79073,6.47857,0.618254,0.169739,0.145916,0
2024-12-11 19:40:41.423,0.318545,1.83859,6.38016,0.618254,0.169739,0.145916,0
2024-12-11 19:40:41.424,0.368794,1.86491,6.28924,0.614589,0.163631,0.143473,0
2024-12-11 19:40:41.426,0.409472,1.90558,6.20788,0.61581,0.159355,0.138586,0
2024-12-11 19:40:41.430,0.447757,1.97049,6.15763,0.604815,0.138586,0.124536,0
2024-12-11 19:40:41.431,0.481256,2.00877,6.10977,0.604815,0.138586,0.124536,0
2024-12-11 19:40:41.434,0.529113,2.06381,6.04517,0.595652,0.128202,0.115985,0
2024-12-11 19:40:41.436,0.567398,2.11406,5.99731,0.595652,0.128202,0.115985,0
2024-12-11 19:40:41.440,0.605683,2.16431,5.96142,0.55778,0.0848314,0.0817772,0
2024-12-11 19:40:41.440,0.641576,2.21456,5.92313,0.55778,0.0848314,0.0817772,0
2024-12-11 19:40:41.443,0.658325,2.25045,5.89203,0.54373,0.074447,0.0677277,0
2024-12-11 19:40:41.447,0.701396,2.33898,5.84626,0.526016,0.0628409,0.0536782,0
2024-12-11 19:40:41.450,0.718146,2.36291,5.82234,0.486922,0.0377962,0.0249684,0
2024-12-11 19:40:41.450,0.718146,2.36291,5.82234,0.486922,0.0377962,0.0249684,0
2024-12-11 19:40:41.452,0.744467,2.38684,5.79841,0.46432,0.0255792,0.00786466,0
2024-12-11 19:40:41.457,0.737288,2.46341,5.77687,0.417285,-7.63559e-05,-0.0226777,0
2024-12-11 19:40:41.458,0.737288,2.46341,5.77687,0.394684,-0.013515,-0.0391706,0
2024-12-11 19:40:41.460,0.768395,2.4993,5.77209,0.367196,-0.0275645,-0.0538309,0
2024-12-11 19:40:41.462,0.789931,2.53789,5.77448,0.367196,-0.0275645,-0.0538309,0
2024-12-11 19:40:41.464,0.782752,2.57378,5.78644,0.336653,-0.041614,-0.0697129,0
2024-12-11 19:40:41.467,0.780359,2.61446,5.81994,0.277401,-0.073378,-0.102088,0
2024-12-11 19:40:41.471,0.737288,2.70539,5.94467,0.246248,-0.0892601,-0.116748,0
2024-12-11 19:40:41.471,0.737288,2.70539,5.94467,0.246248,-0.0892601,-0.116748,0
2024-12-11 19:40:41.473,0.71336,2.73649,6.03799,0.21876,-0.105753,-0.130798,0
2024-12-11 19:40:41.476,0.701396,2.78674,6.11217,0.189439,-0.117359,-0.145458,0
2024-12-11 19:40:41.480,0.699003,2.87767,6.33948,0.134463,-0.144236,-0.171114,0
2024-12-11 19:40:41.481,0.694218,2.84656,6.21506,0.134463,-0.144236,-0.171114,0
2024-12-11 19:40:41.484,0.720539,2.9016,6.46421,0.0849841,-0.169892,-0.194937,0
2024-12-11 19:40:41.485,0.766002,2.92313,6.61974,0.0849841,-0.169892,-0.194937,0
2024-12-11 19:40:41.488,0.828216,2.94706,6.77049,0.0617719,-0.179055,-0.21204,0
2024-12-11 19:40:41.490,0.8668,2.94945,6.92124,0.0410031,-0.188217,-0.224257,0
2024-12-11 19:40:41.492,0.905085,2.94227,7.09382,0.0220669,-0.192493,-0.237696,0
2024-12-11 19:40:41.495,0.950549,2.94467,7.24936,0.00618483,-0.193715,-0.2548,0
2024-12-11 19:40:41.497,0.986441,2.93988,7.40489,-0.0109189,-0.19005,-0.268849,0
2024-12-11 19:40:41.499,1.02233,2.94706,7.55803,-0.0243575,-0.178444,-0.283509,0
2024-12-11 19:40:41.502,1.0343,2.94945,7.71386,-0.0347419,-0.164394,-0.29817,0
2024-12-11 19:40:41.505,1.02712,2.95663,7.86461,-0.0500131,-0.1253,-0.321382,0
2024-12-11 19:40:41.506,1.01755,2.95663,7.99861,-0.0500131,-0.1253,-0.321382,0
2024-12-11 19:40:41.509,0.996012,2.94706,8.14008,-0.0555107,-0.102699,-0.332377,0
2024-12-11 19:40:41.513,0.905085,2.97577,8.41765,-0.0628409,-0.0617719,-0.345816,0
2024-12-11 19:40:41.513,0.905085,2.97577,8.41765,-0.0628409,-0.0617719,-0.345816,0
2024-12-11 19:40:41.516,0.85005,2.97338,8.53969,-0.0634518,-0.0397814,-0.351314,0
2024-12-11 19:40:41.518,0.80668,2.97577,8.66172,-0.0603975,-0.0184018,-0.354368,0
2024-12-11 19:40:41.520,0.74686,2.98056,8.76012,-0.0597867,0.00236703,-0.3562,0
2024-12-11 19:40:41.524,0.699003,2.98774,8.86062,-0.0481806,0.0439046,-0.354979,0
2024-12-11 19:40:41.525,0.646361,2.9997,8.97787,-0.0481806,0.0439046,-0.354979,0
2024-12-11 19:40:41.529,0.593719,3.01645,9.06641,-0.0365745,0.0811663,-0.34887,0
2024-12-11 19:40:41.530,0.54347,3.0332,9.14537,-0.0365745,0.0811663,-0.34887,0
2024-12-11 19:40:41.533,0.490828,3.05952,9.2363,-0.0237467,0.115374,-0.336653,0
2024-12-11 19:40:41.537,0.440578,3.08854,9.38495,-0.014584,0.131256,-0.329323,0
2024-12-11 19:40:41.537,0.397508,3.08854,9.38495,-0.014584,0.131256,-0.329323,0
2024-12-11 19:40:41.540,0.371187,3.12204,9.44956,-0.00664296,0.142251,-0.321382,0
2024-12-11 19:40:41.543,0.344866,3.15075,9.49502,7.63559e-05,0.152635,-0.311608,0
2024-12-11 19:40:41.544,0.32333,3.18664,9.52852,7.63559e-05,0.152635,-0.311608,0
2024-12-11 19:40:41.546,0.308973,3.22014,9.58116,0.0141258,0.165463,-0.293283,0
2024-12-11 19:40:41.549,0.294616,3.25125,9.64577,0.0226777,0.167907,-0.284731,0
2024-12-11 19:40:41.551,0.285045,3.28475,9.67448,0.0281753,0.169128,-0.273736,0
2024-12-11 19:40:41.554,0.287438,3.2991,9.68645,0.033673,0.169739,-0.266406,0
2024-12-11 19:40:41.556,0.285045,3.34218,9.72234,0.0379489,0.169128,-0.256632,0
2024-12-11 19:40:41.558,0.287438,3.38046,9.75823,0.0422248,0.167296,-0.249913,0
2024-12-11 19:40:41.561,0.289831,3.41157,9.78934,0.0440574,0.162409,-0.241361,0
2024-12-11 19:40:41.563,0.289831,3.4355,9.82314,0.0471116,0.156911,-0.234642,0
2024-12-11 19:40:41.565,0.308973,3.43789,9.85424,0.0483333,0.150192,-0.229755,0
2024-12-11 19:40:41.568,0.337687,3.42832,9.9021,0.0471116,0.139808,-0.225479,0
2024-12-11 19:40:41.571,0.35683,3.43071,9.95474,0.0471116,0.131256,-0.219981,0
2024-12-11 19:40:41.572,0.380758,3.44985,10.0026,0.0440574,0.11965,-0.216316,0
2024-12-11 19:40:41.575,0.397508,3.46899,10.0648,0.0434465,0.110487,-0.21143,0
2024-12-11 19:40:41.577,0.402293,3.48096,10.139,0.0410031,0.104379,-0.210208,0
2024-12-11 19:40:41.579,0.431007,3.49053,10.2203,0.0379489,0.0970484,-0.206543,0
2024-12-11 19:40:41.582,0.483649,3.50728,10.3017,0.0367272,0.0915507,-0.202878,0
2024-12-11 19:40:41.585,0.529113,3.53599,10.3857,0.0348946,0.0860531,-0.204099,0
2024-12-11 19:40:41.586,0.574577,3.54556,10.4695,0.0318404,0.0817772,-0.205321,0
2024-12-11 19:40:41.589,0.622433,3.55274,10.5437,0.0306187,0.0793338,-0.206543,0
2024-12-11 19:40:41.591,0.672682,3.55753,10.6131,0.0300079,0.0775012,-0.209597,0
2024-12-11 19:40:41.594,0.71336,3.54796,10.6872,0.0287862,0.0750579,-0.213262,0
2024-12-11 19:40:41.598,0.82343,3.49532,10.8404,0.0238994,0.0787229,-0.226701,0
2024-12-11 19:40:41.599,0.82343,3.49532,10.8404,0.0190126,0.082388,-0.232198,0
2024-12-11 19:40:41.603,0.988834,3.46182,10.9938,0.0171801,0.0872748,-0.239528,0
2024-12-11 19:40:41.603,0.988834,3.46182,10.9938,0.0171801,0.0872748,-0.239528,0
2024-12-11 19:40:41.609,1.08694,3.44267,11.1494,0.00984991,0.114152,-0.270071,0
2024-12-11 19:40:41.610,1.11087,3.4355,11.2379,0.00984991,0.114152,-0.270071,0
2024-12-11 19:40:41.612,1.08694,3.44507,11.3336,0.00862822,0.139197,-0.281066,0
2024-12-11 19:40:41.612,1.08694,3.44507,11.3336,0.00862822,0.139197,-0.281066,0
2024-12-11 19:40:41.616,1.04387,3.46421,11.4221,0.00923906,0.177069,-0.289618,0
2024-12-11 19:40:41.617,0.996012,3.50967,11.4963,0.0147367,0.230824,-0.295116,0
2024-12-11 19:40:41.620,0.933799,3.54556,11.5229,0.0202343,0.295574,-0.300613,0
2024-12-11 19:40:41.622,0.84018,3.53839,11.4915,0.0263428,0.37254,-0.300613,0
2024-12-11 19:40:41.626,0.632004,3.51446,11.2618,0.0324513,0.528307,-0.301835,0
2024-12-11 19:40:41.631,0.447757,3.39721,10.9122,0.0269536,0.594278,-0.300613,0
2024-12-11 19:40:41.632,0.447757,3.39721,10.9122,-0.00725381,0.664525,-0.304889,0
2024-12-11 19:40:41.635,0.431007,3.29193,10.7638,-0.0396287,0.662082,-0.311608,0
2024-12-11 19:40:41.637,0.407079,3.20818,10.5939,-0.0756687,0.643757,-0.320771,0
2024-12-11 19:40:41.639,0.407079,3.16271,10.3977,-0.0756687,0.643757,-0.320771,0
2024-12-11 19:40:41.639,0.349651,3.16271,10.3977,-0.0756687,0.643757,-0.320771,0
2024-12-11 19:40:41.642,0.313759,3.15075,10.2562,-0.178291,0.535637,-0.345205,0
2024-12-11 19:40:41.645,0.349651,3.14118,10.1103,-0.178291,0.441566,-0.36292,0
2024-12-11 19:40:41.648,0.414257,3.16511,10.0863,-0.319397,0.317564,-0.383688,0
2024-12-11 19:40:41.649,0.414257,3.16511,10.0863,-0.407359,0.159966,-0.411177,0
2024-12-11 19:40:41.650,0.488435,3.17468,10.1079,-0.407359,0.159966,-0.411177,0
2024-12-11 19:40:41.652,0.605683,3.1675,10.2108,-0.507538,-0.0232886,-0.445384,0
2024-12-11 19:40:41.656,0.679861,3.19621,10.3977,-0.731108,-0.441108,-0.527238,0
2024-12-11 19:40:41.657,0.727717,3.268,10.6825,-0.731108,-0.441108,-0.527238,0
2024-12-11 19:40:41.659,0.821037,3.34935,11.0895,-0.849612,-0.659181,-0.57244,0
2024-12-11 19:40:41.662,0.888335,3.44267,11.6426,-0.968727,-0.866258,-0.618254,0
2024-12-11 19:40:41.665,0.950549,3.5336,12.3655,-1.17405,-1.22483,-0.717822,0
2024-12-11 19:40:41.668,1.05823,3.58864,13.2251,-1.25529,-1.36165,-0.765468,0
2024-12-11 19:40:41.670,1.20419,3.58385,14.1993,-1.31882,-1.471,-0.81739,0
2024-12-11 19:40:41.671,1.35015,3.53599,15.2671,-1.31882,-1.471,-0.81739,0
2024-12-11 19:40:41.674,1.4653,3.48574,16.3923,-1.35425,-1.54857,-0.868701,0
2024-12-11 19:40:41.676,1.61127,3.39721,17.5439,-1.36769,-1.59317,-0.916958,0
2024-12-11 19:40:41.679,1.82184,3.19382,18.6882,-1.31821,-1.61027,-1.01836,0
2024-12-11 19:40:41.682,2.08774,2.91117,19.7441,-1.31821,-1.61027,-1.01836,0
2024-12-11 19:40:41.683,2.36531,2.59532,20.7209,-1.26384,-1.58522,-1.06967,0
2024-12-11 19:40:41.689,2.81067,1.86012,22.3083,-1.08425,-1.46428,-1.17474,0
2024-12-11 19:40:41.689,2.81067,1.86012,22.3083,-1.08425,-1.46428,-1.17474,0
2024-12-11 19:40:41.690,2.98535,1.48445,22.8637,-0.973003,-1.36227,-1.22483,0
2024-12-11 19:40:41.692,3.08854,1.12283,23.2801,-0.843504,-1.23216,-1.27003,1
2024-12-11 19:40:41.696,3.12921,0.782752,23.5005,-0.702398,-1.077,-1.31095,0
2024-12-11 19:40:41.697,3.09571,0.454935,23.5173,-0.558849,-0.901687,-1.34333,0
2024-12-11 19:40:41.700,2.9997,0.143569,23.3641,-0.558849,-0.901687,-1.34333,0
2024-12-11 19:40:41.703,2.84895,-0.119641,23.0551,-0.271751,-0.50769,-1.36715,0
2024-12-11 19:40:41.707,2.37488,-0.548256,21.9993,-0.010308,-0.101477,-1.33966,0
2024-12-11 19:40:41.708,2.37488,-0.548256,21.9993,0.102699,0.0976592,-1.30485,0
2024-12-11 19:40:41.709,2.08295,-0.684646,21.341,0.102699,0.0976592,-1.30485,0
2024-12-11 19:40:41.711,1.78355,-0.789931,20.6061,0.202267,0.295574,-1.25476,0
2024-12-11 19:40:41.715,1.4988,-0.828216,19.8374,0.361698,0.663915,-1.11915,0
2024-12-11 19:40:41.717,1.24008,-0.809073,19.0738,0.361698,0.663915,-1.11915,0
2024-12-11 19:40:41.718,0.996012,-0.777966,18.2886,0.421561,0.83625,-1.03729,0
2024-12-11 19:40:41.721,0.780359,-0.737288,17.5008,0.466764,1.00362,-0.948722,0
2024-12-11 19:40:41.725,0.4669,-0.615255,16.098,0.526627,1.29194,-0.762414,0
2024-12-11 19:40:41.725,0.4669,-0.615255,16.098,0.526627,1.29194,-0.762414,0
2024-12-11 19:40:41.729,0.402293,-0.555434,15.454,0.555947,1.51796,-0.587711,0
2024-12-11 19:40:41.731,0.421436,-0.512363,14.8672,0.562056,1.60836,-0.510745,0
2024-12-11 19:40:41.732,0.469292,-0.4669,14.348,0.562056,1.60836,-0.510745,0
2024-12-11 19:40:41.735,0.54347,-0.407079,13.8691,0.566332,1.67372,-0.443551,0
2024-12-11 19:40:41.737,0.670289,-0.344866,13.4548,0.568164,1.72992,-0.385521,0
2024-12-11 19:40:41.740,0.801895,-0.272782,13.1052,0.570608,1.76657,-0.339097,0
2024-12-11 19:40:41.743,0.94337,-0.205783,12.7846,0.570608,1.79223,-0.302446,0
2024-12-11 19:40:41.744,1.67348,-0.488435,13.0167,0.574884,1.79039,-0.28412,0
2024-12-11 19:40:41.747,2.34856,-0.773181,13.3256,0.60115,1.73847,-0.300002,0
2024-12-11 19:40:41.750,1.9008,-0.490828,12.6817,0.657348,1.75008,-0.337264,0
2024-12-11 19:40:41.751,1.46052,-0.145962,12.0183,0.657348,1.75008,-0.337264,0
2024-12-11 19:40:41.755,1.59452,0.00717847,11.9943,0.688501,1.76596,-0.354368,0
2024-12-11 19:40:41.756,1.64716,0.198604,11.9704,0.726985,1.74091,-0.373915,0
2024-12-11 19:40:41.758,1.54427,0.435793,11.7838,0.761192,1.69571,-0.39896,0
2024-12-11 19:40:41.762,1.43898,0.655932,11.5732,0.821666,1.543,-0.444773,0
2024-12-11 19:40:41.764,1.35972,0.84018,11.3025,0.844267,1.44038,-0.469207,0
2024-12-11 19:40:41.765,1.34297,0.97687,10.9962,0.844267,1.44038,-0.469207,0
2024-12-11 19:40:41.769,1.39322,1.05344,10.6968,0.871145,1.19787,-0.522962,0
2024-12-11 19:40:41.773,1.61845,1.08455,10.1557,0.876642,1.06226,-0.554726,0
2024-12-11 19:40:41.773,1.61845,1.08455,10.1557,0.876642,1.06226,-0.554726,0
2024-12-11 19:40:41.777,1.84098,1.1324,9.6027,0.866869,0.775089,-0.630471,0
2024-12-11 19:40:41.777,1.84098,1.1324,9.6027,0.866869,0.775089,-0.630471,0
2024-12-11 19:40:41.780,1.97528,1.10608,9.4017,0.852819,0.629096,-0.670176,0
2024-12-11 19:40:41.782,2.2002,1.01515,9.36341,0.836326,0.472719,-0.713546,0
2024-12-11 19:40:41.784,2.45623,0.893121,9.41845,0.836326,0.472719,-0.713546,0
2024-12-11 19:40:41.787,2.69103,0.754038,9.49263,0.801508,0.119039,-0.818612,0
2024-12-11 19:40:41.789,2.89442,0.605683,9.60987,0.785015,-0.0617719,-0.876031,0
2024-12-11 19:40:41.791,3.09093,0.438186,9.75105,0.773409,-0.231587,-0.937727,0
2024-12-11 19:40:41.794,3.24885,0.272782,9.89013,0.769133,-0.387354,-1.00003,0
2024-12-11 19:40:41.797,3.39003,0.131605,10.0816,0.77402,-0.652461,-1.11548,0
2024-12-11 19:40:41.798,3.52642,-0.0215354,10.2826,0.77402,-0.652461,-1.11548,0
2024-12-11 19:40:41.801,3.65593,-0.184247,10.4432,0.78135,-0.764246,-1.17168,0
2024-12-11 19:40:41.803,3.8019,-0.342473,10.5556,0.78135,-0.764246,-1.17168,0
2024-12-11 19:40:41.806,3.94786,-0.495613,10.6418,0.810671,-0.942614,-1.27675,0
2024-12-11 19:40:41.808,4.08903,-0.639183,10.7638,0.825331,-1.01714,-1.33172,0
2024-12-11 19:40:41.811,4.1991,-0.782752,10.9193,0.866258,-1.15152,-1.43862,0
2024-12-11 19:40:41.813,4.27837,-0.917049,11.0297,0.866258,-1.15152,-1.43862,0
2024-12-11 19:40:41.816,4.35494,-1.0343,11.0919,0.888248,-1.201,-1.49054,0
2024-12-11 19:40:41.817,4.41954,-1.14676,11.147,0.915736,-1.23949,-1.54002,0
2024-12-11 19:40:41.820,4.46022,-1.24247,11.1924,0.945668,-1.26148,-1.58889,0
2024-12-11 19:40:41.823,4.46261,-1.33579,11.2403,1.00187,-1.27491,-1.6738,0
2024-12-11 19:40:41.825,4.44826,-1.43181,11.2929,1.00187,-1.27491,-1.6738,0
2024-12-11 19:40:41.827,4.45065,-1.50598,11.3073,1.0318,-1.26697,-1.71167,0
2024-12-11 19:40:41.829,4.45304,-1.57059,11.269,1.066,-1.24743,-1.74832,0
2024-12-11 19:40:41.834,4.42672,-1.75723,11.1087,1.13014,-1.18573,-1.80635,0
2024-12-11 19:40:41.835,4.42672,-1.75723,11.1087,1.13014,-1.18573,-1.80635,0
2024-12-11 19:40:41.836,4.39562,-1.8338,10.9699,1.15885,-1.1448,-1.8314,0
2024-12-11 19:40:41.838,4.35972,-1.91516,10.7973,1.18451,-1.10143,-1.85339,0
2024-12-11 19:40:41.841,4.31187,-1.98724,10.6107,1.2065,-1.05318,-1.86988,0
2024-12-11 19:40:41.843,4.2353,-2.04945,10.3977,1.22544,-1.00553,-1.88698,0
2024-12-11 19:40:41.849,4.07707,-2.14517,9.91167,1.24804,-0.852819,-1.91936,0
2024-12-11 19:40:41.850,3.99093,-2.17149,9.65055,1.24804,-0.852819,-1.91936,0
2024-12-11 19:40:41.850,3.99093,-2.17149,9.65055,1.24804,-0.852819,-1.91936,0
2024-12-11 19:40:41.853,3.91675,-2.16431,9.38016,1.24498,-0.797232,-1.92852,0
2024-12-11 19:40:41.858,3.7325,-2.09252,8.88455,1.20406,-0.631692,-1.94265,0
2024-12-11 19:40:41.860,3.6341,-2.03749,8.61147,1.20406,-0.631692,-1.94265,0
2024-12-11 19:40:41.860,3.6341,-2.03749,8.61147,1.20406,-0.631692,-1.94265,0
2024-12-11 19:40:41.863,3.53121,-1.95823,8.35544,1.18207,-0.57916,-1.94692,0
2024-12-11 19:40:41.867,3.35653,-1.81226,7.95075,1.12953,-0.488143,-1.95059,0
2024-12-11 19:40:41.869,3.27996,-1.74048,7.78565,1.09655,-0.450882,-1.95853,0
2024-12-11 19:40:41.871,3.21536,-1.66869,7.61336,1.06417,-0.422172,-1.96464,0
2024-12-11 19:40:41.872,3.21536,-1.66869,7.61336,1.06417,-0.422172,-1.96464,0
2024-12-11 19:40:41.876,3.12443,-1.55384,7.36421,0.992703,-0.380634,-1.97869,0
2024-12-11 19:40:41.877,3.12443,-1.55384,7.36421,0.955441,-0.366585,-1.99029,0
2024-12-11 19:40:41.879,3.08854,-1.5012,7.27089,0.955441,-0.366585,-1.99029,0
2024-12-11 19:40:41.881,3.07149,-1.4342,7.17757,0.921234,-0.359255,-2.00495,0
2024-12-11 19:40:41.883,3.04517,-1.36929,7.09861,0.885805,-0.353757,-2.01961,0
2024-12-11 19:40:41.886,3.01406,-1.30947,7.01486,0.850987,-0.347648,-2.03672,0
2024-12-11 19:40:41.888,3.00449,-1.24726,6.94038,0.813725,-0.342762,-2.05321,0
2024-12-11 19:40:41.890,2.98774,-1.18265,6.8686,0.777074,-0.339097,-2.0752,0
2024-12-11 19:40:41.893,2.9662,-1.1013,6.8016,0.741645,-0.339097,-2.0978,0
2024-12-11 19:40:41.895,2.94467,-1.05344,6.76092,0.706216,-0.339097,-2.1204,0
2024-12-11 19:40:41.897,2.92313,-1.00798,6.72264,0.669565,-0.347038,-2.14423,0
2024-12-11 19:40:41.901,2.88963,-0.929013,6.67478,0.598096,-0.36353,-2.19676,0
2024-12-11 19:40:41.902,2.84895,-0.854836,6.62931,0.598096,-0.36353,-2.19676,0
2024-12-11 19:40:41.904,2.80588,-0.787538,6.62214,0.561445,-0.380023,-2.22364,0
2024-12-11 19:40:41.907,2.75563,-0.727717,6.60778,0.524794,-0.397738,-2.25051,0
2024-12-11 19:40:41.910,2.69821,-0.682254,6.6006,0.452714,-0.449049,-2.30549,0
2024-12-11 19:40:41.911,2.63121,-0.615255,6.63171,0.452714,-0.449049,-2.30549,0
2024-12-11 19:40:41.914,2.55703,-0.529113,6.67717,0.417285,-0.482035,-2.33542,0
2024-12-11 19:40:41.917,2.49212,-0.469292,6.7346,0.386132,-0.52174,-2.36596,0
2024-12-11 19:40:41.919,2.4347,-0.428614,6.81117,0.354979,-0.568775,-2.39467,0
2024-12-11 19:40:41.923,2.3007,-0.347258,6.99781,0.301224,-0.672008,-2.45454,0
2024-12-11 19:40:41.924,2.3007,-0.347258,6.99781,0.278623,-0.731261,-2.48508,0
2024-12-11 19:40:41.927,2.24088,-0.313759,7.10818,0.278623,-0.731261,-2.48508,0
2024-12-11 19:40:41.928,2.18584,-0.282652,7.23261,0.255411,-0.790513,-2.5144,0
2024-12-11 19:40:41.930,2.1332,-0.251246,7.34985,0.238307,-0.850987,-2.54433,0
2024-12-11 19:40:41.933,2.08056,-0.210568,7.47189,0.219371,-0.913904,-2.57671,0
2024-12-11 19:40:41.935,2.03031,-0.160319,7.60618,0.208986,-0.979875,-2.60664,0
2024-12-11 19:40:41.938,1.98006,-0.11007,7.73061,0.194937,-1.04707,-2.64023,0
2024-12-11 19:40:41.943,1.88883,-0.0646062,7.97707,0.180276,-1.17779,-2.70743,0
2024-12-11 19:40:41.943,1.88883,-0.0646062,7.97707,0.180276,-1.17779,-2.70743,0
2024-12-11 19:40:41.944,1.83141,-0.0550349,8.08714,0.173557,-1.2401,-2.74408,0
2024-12-11 19:40:41.947,1.78355,-0.0622134,8.17598,0.165616,-1.3024,-2.77951,0
2024-12-11 19:40:41.949,1.7333,-0.066999,8.2693,0.160118,-1.36227,-2.81494,0
2024-12-11 19:40:41.952,1.67587,-0.0622134,8.35304,0.150956,-1.41969,-2.84792,0
2024-12-11 19:40:41.954,1.5993,-0.0550349,8.41287,0.143625,-1.47039,-2.88274,0
2024-12-11 19:40:41.956,1.5012,-0.0550349,8.47029,0.137517,-1.5217,-2.91512,0
2024-12-11 19:40:41.959,1.40279,-0.0478565,8.51576,0.128965,-1.5669,-2.94749,0
2024-12-11 19:40:41.961,1.28315,-0.0334995,8.56361,0.119192,-1.61027,-2.97864,0
2024-12-11 19:40:41.966,1.03669,-0.0358923,8.68086,0.093536,-1.68663,-3.02812,0
2024-12-11 19:40:41.967,1.03669,-0.0358923,8.68086,0.0794865,-1.71717,-3.05317,0
2024-12-11 19:40:41.968,0.912264,-0.0311067,8.74337,0.0794865,-1.71717,-3.05317,0
2024-12-11 19:40:41.971,0.787538,-0.0311067,8.80319,0.0629936,-1.7471,-3.07271,0
2024-12-11 19:40:41.973,0.658325,-0.0167498,8.85823,0.0452791,-1.77459,-3.09165,0
2024-12-11 19:40:41.975,0.54347,-0.00478565,8.92284,0.0238994,-1.79536,-3.10692,0
2024-12-11 19:40:41.977,0.435793,0.00717847,8.99462,0.0238994,-1.79536,-3.10692,0
2024-12-11 19:40:41.980,0.318545,0.00957129,9.07598,-0.0182491,-1.82712,-3.13319,0
2024-12-11 19:40:41.982,0.224925,-0.00717847,9.15973,-0.0408504,-1.83873,-3.14541,0
2024-12-11 19:40:41.985,0.133998,-0.00957129,9.26052,-0.0646735,-1.8485,-3.15151,0
2024-12-11 19:40:41.987,0.0287139,-0.0167498,9.38495,-0.0878856,-1.85522,-3.16007,0
2024-12-11 19:40:41.989,-0.0598206,-0.0215354,9.51177,-0.111098,-1.85827,-3.16617,0
2024-12-11 19:40:41.993,-0.155533,-0.0215354,9.61945,-0.131867,-1.85339,-3.17045,0
2024-12-11 19:40:41.994,-0.251246,-0.0191426,9.74387,-0.152635,-1.84606,-3.17228,0
2024-12-11 19:40:41.999,-0.41665,-0.0215354,10.0576,-0.187454,-1.82712,-3.17228,0
2024-12-11 19:40:41.999,-0.41665,-0.0215354,10.0576,-0.187454,-1.82712,-3.17228,0
2024-12-11 19:40:42.001,-0.521934,-0.0287139,10.194,-0.202725,-1.81429,-3.16984,0
2024-12-11 19:40:42.003,-0.612862,-0.0382852,10.3857,-0.216164,-1.79475,-3.16495,0
2024-12-11 19:40:42.006,-0.701396,-0.0239282,10.5389,-0.223494,-1.77581,-3.15762,0
2024-12-11 19:40:42.008,-0.773181,-0.00478565,10.6322,-0.231435,-1.75199,-3.14968,0
2024-12-11 19:40:42.010,-0.847657,-0.00957129,10.716,-0.236932,-1.71839,-3.13869,0
2024-12-11 19:40:42.014,-0.878764,-0.0239282,10.826,-0.243652,-1.65425,-3.11608,0
2024-12-11 19:40:42.016,-0.890728,-0.0287139,10.9337,-0.243652,-1.65425,-3.11608,0
2024-12-11 19:40:42.017,-0.931406,-0.026321,11.013,-0.245484,-1.62249,-3.10448,0
2024-12-11 19:40:42.020,-0.950549,-0.0287139,11.0895,-0.246706,-1.59011,-3.09165,0
2024-12-11 19:40:42.022,-0.948156,-0.0358923,11.1326,-0.246095,-1.55529,-3.08004,0
2024-12-11 19:40:42.027,-0.962513,-0.0167498,11.1446,-0.246706,-1.47466,-3.05439,0
2024-12-11 19:40:42.030,-0.984048,-0.00239282,11.2259,-0.248538,-1.39403,-3.02934,0
2024-12-11 19:40:42.032,-1.01755,0.0119641,11.3025,-0.248538,-1.39403,-3.02934,0
2024-12-11 19:40:42.034,-1.06301,0.0358923,11.336,-0.247928,-1.35371,-3.01713,0
2024-12-11 19:40:42.035,-1.06301,0.0358923,11.336,-0.244263,-1.30912,-3.00308,0
2024-12-11 19:40:42.036,-1.09173,0.0789631,11.3384,-0.244263,-1.30912,-3.00308,0
2024-12-11 19:40:42.039,-1.12522,0.11007,11.3432,-0.24243,-1.26087,-2.98903,0
2024-12-11 19:40:42.042,-1.17308,0.145962,11.3599,-0.239987,-1.20955,-2.97254,0
2024-12-11 19:40:42.046,-1.24965,0.248854,11.3647,-0.2351,-1.15458,-2.95665,0
2024-12-11 19:40:42.048,-1.31665,0.30658,11.3504,-0.227159,-1.04646,-2.92428,0
2024-12-11 19:40:42.048,-1.31665,0.30658,11.3504,-0.227159,-1.04646,-2.92428,0
2024-12-11 19:40:42.050,-1.37169,0.347258,11.3264,-0.22044,-0.991481,-2.90656,0
2024-12-11 19:40:42.054,-1.39322,0.390329,11.2929,-0.207001,-0.884583,-2.87297,0
2024-12-11 19:40:42.056,-1.41027,0.431007,11.2618,-0.200892,-0.833272,-2.85403,0
2024-12-11 19:40:42.060,-1.43898,0.519542,11.1829,-0.19173,-0.782572,-2.83632,0
2024-12-11 19:40:42.061,-1.43898,0.519542,11.1829,-0.182567,-0.733093,-2.82288,0
2024-12-11 19:40:42.062,-1.46291,0.541077,11.1494,-0.182567,-0.733093,-2.82288,0
