timestamp,accel_x,accel_y,accel_z,gyro_x,gyro_y,gyro_z,step_timestamp
2024-12-11 19:39:45.308,-0.184247,2.66949,9.76302,0.0251211,-0.00984991,0.00542127,0
2024-12-11 19:39:45.308,-0.184247,2.66949,9.76302,0.0251211,-0.00984991,0.00542127,0
2024-12-11 19:39:45.308,-0.184247,2.66949,9.76302,0.0251211,-0.00984991,0.00542127,0
2024-12-11 19:39:45.308,-0.184247,2.66949,9.76302,0.0251211,-0.00984991,0.00542127,0
2024-12-11 19:39:45.309,-0.184247,2.66949,9.76302,0.0251211,-0.00984991,0.00542127,0
2024-12-11 19:39:45.309,-0.184247,2.66949,9.76302,0.0251211,-0.00984991,0.00542127,0
2024-12-11 19:39:45.310,-0.189033,2.6671,9.74387,0.0245102,-0.00557398,0.00542127,0
2024-12-11 19:39:45.310,-0.189033,2.6671,9.74387,0.0245102,-0.00557398,0.00542127,0
2024-12-11 19:39:45.310,-0.189033,2.6671,9.74387,0.0245102,-0.00557398,0.00542127,0
2024-12-11 19:39:45.310,-0.189033,2.6671,9.74387,0.0245102,-0.00557398,0.00542127,0
2024-12-11 19:39:45.310,-0.189033,2.6671,9.74387,0.0245102,-0.00557398,0.00542127,0
2024-12-11 19:39:45.313,-0.215354,2.66471,9.73191,0.0245102,-0.00251974,0.00847551,0
2024-12-11 19:39:45.313,-0.215354,2.66471,9.73191,0.0245102,-0.00251974,0.00847551,0
2024-12-11 19:39:45.313,-0.215354,2.66471,9.73191,0.0245102,-0.00251974,0.00847551,0
2024-12-11 19:39:45.313,-0.215354,2.66471,9.73191,0.0245102,-0.00251974,0.00847551,0
2024-12-11 19:39:45.313,-0.215354,2.66471,9.73191,0.0245102,-0.00251974,0.00847551,0
2024-12-11 19:39:45.314,-0.215354,2.66471,9.73191,0.0245102,-0.00251974,0.00847551,0
2024-12-11 19:39:45.314,-0.215354,2.66471,9.73191,0.0245102,-0.00251974,0.00847551,0
2024-12-11 19:39:45.314,-0.215354,2.66471,9.73191,0.0245102,-0.00251974,0.00847551,0
2024-12-11 19:39:45.318,-0.222533,2.66471,9.72234,0.0220669,0.00664296,0.0127514,0
2024-12-11 19:39:45.321,-0.193819,2.65035,9.72952,0.0220669,0.00664296,0.0127514,0
2024-12-11 19:39:45.322,-0.189033,2.65514,9.70798,0.0220669,0.00664296,0.0127514,0
2024-12-11 19:39:45.325,-0.200997,2.65274,9.69123,0.0141258,0.00297788,0.0170274,0
2024-12-11 19:39:45.325,-0.200997,2.65274,9.69123,0.0141258,0.00297788,0.0170274,0
2024-12-11 19:39:45.327,-0.215354,2.65274,9.69841,0.0141258,0.00297788,0.0170274,0
2024-12-11 19:39:45.327,-0.215354,2.65274,9.69841,0.0141258,0.00297788,0.0170274,0
2024-12-11 19:39:45.328,-0.215354,2.65274,9.69841,0.00923906,0.00297788,0.0158057,0
2024-12-11 19:39:45.329,-0.217747,2.6671,9.70798,0.00923906,0.00297788,0.0158057,0
2024-12-11 19:39:45.329,-0.217747,2.6671,9.70798,0.00923906,0.00297788,0.0158057,0
2024-12-11 19:39:45.329,-0.217747,2.6671,9.70798,0.00923906,0.00297788,0.0158057,0
2024-12-11 19:39:45.330,-0.217747,2.6671,9.70798,0.00679568,-0.0019089,0.0139731,0
2024-12-11 19:39:45.330,-0.217747,2.6671,9.70798,0.00679568,-0.0019089,0.0139731,0
2024-12-11 19:39:45.332,-0.212961,2.68864,9.71516,0.00679568,-0.0019089,0.0139731,0
2024-12-11 19:39:45.332,-0.212961,2.68864,9.71516,0.00679568,-0.0019089,0.0139731,0
2024-12-11 19:39:45.334,-0.208176,2.69103,9.71516,0.00435229,-0.00374144,0.0151948,0
2024-12-11 19:39:45.335,-0.208176,2.69103,9.71516,0.0019089,-0.00923906,0.0151948,0
2024-12-11 19:39:45.336,-0.208176,2.69581,9.71994,0.0019089,-0.00923906,0.0151948,0
2024-12-11 19:39:45.336,-0.208176,2.69581,9.71994,0.0019089,-0.00923906,0.0151948,0
2024-12-11 19:39:45.338,-0.210568,2.69821,9.74387,0.000687203,-0.0122933,0.0139731,0
2024-12-11 19:39:45.338,-0.210568,2.69821,9.74387,0.000687203,-0.0122933,0.0139731,0
2024-12-11 19:39:45.338,-0.210568,2.69821,9.74387,0.000687203,-0.0122933,0.0139731,0
2024-12-11 19:39:45.339,-0.210568,2.69821,9.74387,0.000687203,-0.0122933,0.0139731,0
2024-12-11 19:39:45.341,-0.205783,2.7006,9.75823,-0.00542127,-0.0171801,0.0133623,0
2024-12-11 19:39:45.342,-0.205783,2.7006,9.75823,-0.00847551,-0.0238994,0.0115297,0
2024-12-11 19:39:45.343,-0.208176,2.69821,9.76302,-0.00847551,-0.0238994,0.0115297,0
2024-12-11 19:39:45.343,-0.208176,2.69821,9.76302,-0.00847551,-0.0238994,0.0115297,0
2024-12-11 19:39:45.344,-0.208176,2.69821,9.76302,-0.0127514,-0.029397,0.0096972,0
2024-12-11 19:39:45.345,-0.229711,2.69581,9.77498,-0.0127514,-0.029397,0.0096972,0
2024-12-11 19:39:45.345,-0.229711,2.69581,9.77498,-0.0127514,-0.029397,0.0096972,0
2024-12-11 19:39:45.348,-0.246461,2.69581,9.78455,-0.0133623,-0.029397,0.0096972,0
2024-12-11 19:39:45.348,-0.246461,2.69581,9.78455,-0.0133623,-0.029397,0.0096972,0
2024-12-11 19:39:45.348,-0.246461,2.69581,9.78455,-0.0133623,-0.029397,0.0096972,0
2024-12-11 19:39:45.350,-0.253639,2.68146,9.77977,-0.0164165,-0.0324513,0.00725381,0
2024-12-11 19:39:45.350,-0.253639,2.68146,9.77977,-0.0164165,-0.0324513,0.00725381,0
2024-12-11 19:39:45.351,-0.253639,2.68146,9.77977,-0.0188599,-0.037338,0.00542127,0
2024-12-11 19:39:45.351,-0.253639,2.68146,9.77977,-0.0188599,-0.037338,0.00542127,0
2024-12-11 19:39:45.353,-0.236889,2.67906,9.78455,-0.0188599,-0.037338,0.00542127,0
2024-12-11 19:39:45.354,-0.236889,2.67906,9.78455,-0.0200816,-0.0391706,0.00419957,0
2024-12-11 19:39:45.355,-0.232104,2.67667,9.8013,-0.0200816,-0.0391706,0.00419957,0
2024-12-11 19:39:45.355,-0.232104,2.67667,9.8013,-0.0200816,-0.0391706,0.00419957,0
2024-12-11 19:39:45.355,-0.232104,2.67667,9.8013,-0.0200816,-0.0391706,0.00419957,0
2024-12-11 19:39:45.356,-0.232104,2.67667,9.8013,-0.0219141,-0.0403923,0.00297788,0
2024-12-11 19:39:45.357,-0.232104,2.65514,9.79891,-0.0219141,-0.0403923,0.00297788,0
2024-12-11 19:39:45.357,-0.232104,2.65514,9.79891,-0.0219141,-0.0403923,0.00297788,0
2024-12-11 19:39:45.358,-0.232104,2.65514,9.79891,-0.0231358,-0.041614,0.00114534,0
2024-12-11 19:39:45.358,-0.232104,2.65514,9.79891,-0.0231358,-0.041614,0.00114534,0
2024-12-11 19:39:45.360,-0.215354,2.63839,9.8013,-0.0231358,-0.041614,0.00114534,0
2024-12-11 19:39:45.360,-0.215354,2.63839,9.8013,-0.0231358,-0.041614,0.00114534,0
2024-12-11 19:39:45.362,-0.212961,2.62881,9.80848,-0.0249684,-0.0434465,-0.0019089,0
2024-12-11 19:39:45.365,-0.234497,2.61685,9.80369,-0.0249684,-0.0458899,-0.00313059,0
2024-12-11 19:39:45.367,-0.256032,2.61446,9.81326,-0.0255792,-0.0501658,-0.00374144,0
2024-12-11 19:39:45.369,-0.260818,2.61685,9.82792,-0.022525,-0.0519984,-0.00435229,0
2024-12-11 19:39:45.371,-0.246461,2.61685,9.82553,-0.0243575,-0.0538309,-0.00557398,0
2024-12-11 19:39:45.375,-0.239282,2.62164,9.82074,-0.0219141,-0.0538309,-0.00740652,0
2024-12-11 19:39:45.376,-0.244068,2.61924,9.82074,-0.0219141,-0.0538309,-0.00740652,0
2024-12-11 19:39:45.378,-0.232104,2.61685,9.81087,-0.0219141,-0.0513875,-0.00740652,0
2024-12-11 19:39:45.381,-0.227318,2.61207,9.80848,-0.0151948,-0.0471116,-0.00984991,0
2024-12-11 19:39:45.383,-0.227318,2.59771,9.81566,-0.0127514,-0.0422248,-0.0110716,0
2024-12-11 19:39:45.386,-0.224925,2.59292,9.80609,-0.0127514,-0.0391706,-0.00923906,0
2024-12-11 19:39:45.389,-0.217747,2.59292,9.8013,-0.00725381,-0.0342838,-0.0116825,0
2024-12-11 19:39:45.390,-0.198604,2.57857,9.78694,-0.00786466,-0.0312296,-0.0116825,0
2024-12-11 19:39:45.395,-0.189033,2.56899,9.75823,-0.00114534,-0.0238994,-0.0153475,0
2024-12-11 19:39:45.396,-0.181855,2.56899,9.75823,0.0019089,-0.0226777,-0.0171801,0
2024-12-11 19:39:45.397,-0.157926,2.57378,9.74148,0.0019089,-0.0226777,-0.0171801,0
2024-12-11 19:39:45.401,-0.153141,2.56182,9.71037,0.00251974,-0.0159584,-0.0226777,0
2024-12-11 19:39:45.403,-0.172283,2.56899,9.68645,0.00251974,-0.0159584,-0.0226777,0
2024-12-11 19:39:45.405,-0.179462,2.57617,9.66252,0.00496313,-0.0129041,-0.0226777,0
2024-12-11 19:39:45.408,-0.181855,2.56899,9.65055,0.00557398,-0.00801737,-0.0275645,0
2024-12-11 19:39:45.409,-0.189033,2.56421,9.6362,0.00557398,-0.00801737,-0.0275645,0
2024-12-11 19:39:45.414,-0.20339,2.59053,9.61705,0.00313059,-0.00435229,-0.0269536,0
2024-12-11 19:39:45.415,-0.20339,2.59053,9.61705,0.00251974,-0.00374144,-0.0275645,0
2024-12-11 19:39:45.417,-0.210568,2.59532,9.61945,-0.00297788,-0.00801737,-0.0269536,0
2024-12-11 19:39:45.420,-0.224925,2.60489,9.60987,-0.00297788,-0.00801737,-0.0269536,0
2024-12-11 19:39:45.421,-0.224925,2.6001,9.6003,-0.00419957,-0.00618483,-0.0257319,0
2024-12-11 19:39:45.423,-0.212961,2.6001,9.58355,-0.00542127,-0.00801737,-0.0238994,0
2024-12-11 19:39:45.426,-0.189033,2.59771,9.57638,-0.00542127,-0.0104608,-0.0251211,0
2024-12-11 19:39:45.428,-0.167498,2.57857,9.58834,-0.0115297,-0.0171801,-0.0245102,0
2024-12-11 19:39:45.431,-0.138784,2.57617,9.57877,-0.0164165,-0.029397,-0.0238994,0
2024-12-11 19:39:45.433,-0.122034,2.58096,9.57398,-0.0164165,-0.029397,-0.0238994,0
2024-12-11 19:39:45.436,-0.12682,2.55224,9.57638,-0.0206925,-0.0397814,-0.0287862,0
2024-12-11 19:39:45.438,-0.119641,2.53549,9.59073,-0.0206925,-0.0397814,-0.0287862,0
2024-12-11 19:39:45.441,-0.105284,2.53549,9.60509,-0.0206925,-0.0440574,-0.0306187,0
2024-12-11 19:39:45.442,-0.0909273,2.52323,9.59313,-0.022525,-0.0477224,-0.0300079,0
2024-12-11 19:39:45.445,-0.0765703,2.51845,9.58595,-0.0231358,-0.0489441,-0.0300079,0
2024-12-11 19:39:45.447,-0.0622134,2.51605,9.6003,-0.0274118,-0.0513875,-0.0312296,0
2024-12-11 19:39:45.449,-0.0478565,2.51127,9.6027,-0.0255792,-0.0526092,-0.0330621,0
2024-12-11 19:39:45.451,-0.0502493,2.50409,9.6003,-0.0261901,-0.0550526,-0.0330621,0
2024-12-11 19:39:45.454,-0.0478565,2.51366,9.59073,-0.0261901,-0.0581068,-0.0348946,0
2024-12-11 19:39:45.456,-0.0598206,2.52084,9.57638,-0.0322986,-0.0623828,-0.0348946,0
2024-12-11 19:39:45.460,-0.0765703,2.52084,9.57159,-0.0341311,-0.0648262,-0.037338,0
2024-12-11 19:39:45.461,-0.0837488,2.5331,9.56202,-0.0341311,-0.0648262,-0.037338,0
2024-12-11 19:39:45.463,-0.102891,2.54507,9.55005,-0.0353528,-0.0666587,-0.0403923,0
2024-12-11 19:39:45.467,-0.122034,2.55224,9.54527,-0.0371853,-0.0672696,-0.0403923,0
2024-12-11 19:39:45.468,-0.12682,2.57378,9.53091,-0.0377962,-0.0660479,-0.0397814,0
2024-12-11 19:39:45.471,-0.129212,2.58335,9.51655,-0.0402396,-0.065437,-0.0403923,0
2024-12-11 19:39:45.473,-0.153141,2.57139,9.49981,-0.0451263,-0.0617719,-0.037338,0
2024-12-11 19:39:45.475,-0.162712,2.56182,9.49263,-0.0445155,-0.0587177,-0.0379489,0
2024-12-11 19:39:45.478,-0.174676,2.53789,9.49502,-0.0475697,-0.0550526,-0.0379489,0
2024-12-11 19:39:45.480,-0.189033,2.52832,9.49502,-0.0500131,-0.0501658,-0.0379489,0
2024-12-11 19:39:45.482,-0.191426,2.52832,9.48066,-0.0512348,-0.0458899,-0.0355055,0
2024-12-11 19:39:45.487,-0.205783,2.50409,9.45673,-0.0561216,-0.0361163,-0.033673,0
2024-12-11 19:39:45.487,-0.205783,2.50409,9.45673,-0.0561216,-0.0361163,-0.033673,0
2024-12-11 19:39:45.489,-0.212961,2.48973,9.45434,-0.058565,-0.0318404,-0.0330621,0
2024-12-11 19:39:45.493,-0.212961,2.47777,9.44956,-0.0610084,-0.029397,-0.0330621,0
2024-12-11 19:39:45.494,-0.227318,2.47537,9.45913,-0.0610084,-0.0220669,-0.0318404,0
2024-12-11 19:39:45.497,-0.232104,2.48495,9.46631,-0.0652843,-0.0177909,-0.0312296,0
2024-12-11 19:39:45.499,-0.229711,2.48255,9.46152,-0.0658951,-0.0141258,-0.0306187,0
2024-12-11 19:39:45.504,-0.212961,2.47537,9.46391,-0.0689494,-0.00984991,-0.0287862,0
2024-12-11 19:39:45.506,-0.210568,2.47777,9.46631,-0.0713928,-0.0110716,-0.0281753,0
2024-12-11 19:39:45.506,-0.210568,2.47777,9.46631,-0.0713928,-0.0110716,-0.0281753,0
2024-12-11 19:39:45.508,-0.196211,2.48255,9.47109,-0.0750579,-0.0147367,-0.0269536,0
2024-12-11 19:39:45.510,-0.196211,2.50409,9.49263,-0.0775012,-0.0196235,-0.0281753,0
2024-12-11 19:39:45.514,-0.18664,2.52592,9.49981,-0.0842206,-0.0355055,-0.0287862,0
2024-12-11 19:39:45.516,-0.165105,2.54746,9.47588,-0.0842206,-0.0355055,-0.0287862,0
2024-12-11 19:39:45.517,-0.153141,2.5666,9.47827,-0.086664,-0.0440574,-0.0300079,0
2024-12-11 19:39:45.521,-0.145962,2.59532,9.5022,-0.0976592,-0.065437,-0.0324513,0
2024-12-11 19:39:45.523,-0.124427,2.62164,9.50698,-0.0976592,-0.065437,-0.0324513,0
2024-12-11 19:39:45.525,-0.105284,2.64078,9.50938,-0.0994917,-0.0752106,-0.033673,0
2024-12-11 19:39:45.527,-0.0909273,2.67428,9.51655,-0.103157,-0.085595,-0.0342838,0
2024-12-11 19:39:45.529,-0.0693919,2.70299,9.52373,-0.109876,-0.0972011,-0.0385597,0
2024-12-11 19:39:45.533,-0.0550349,2.71496,9.52613,-0.11232,-0.107585,-0.0397814,0
2024-12-11 19:39:45.534,-0.0430708,2.73649,9.51416,-0.117206,-0.11797,-0.0410031,0
2024-12-11 19:39:45.536,-0.0215354,2.75324,9.49981,-0.117206,-0.11797,-0.0410031,0
2024-12-11 19:39:45.539,0.00717847,2.74846,9.49981,-0.126369,-0.136906,-0.0446682,0
2024-12-11 19:39:45.542,0.026321,2.75324,9.49263,-0.139808,-0.152788,-0.0501658,0
2024-12-11 19:39:45.543,0.0526421,2.75803,9.49502,-0.139808,-0.152788,-0.0501658,0
2024-12-11 19:39:45.546,0.0789631,2.76999,9.51177,-0.143473,-0.156453,-0.0532201,0
2024-12-11 19:39:45.549,0.12682,2.79392,9.47348,-0.150192,-0.147291,-0.0544418,0
2024-12-11 19:39:45.550,0.150748,2.8011,9.44477,-0.150192,-0.147291,-0.0544418,0
2024-12-11 19:39:45.553,0.0933201,2.81545,9.4687,-0.158133,-0.140571,-0.0562743,0
2024-12-11 19:39:45.555,0.0334995,2.83699,9.48545,-0.160576,-0.133241,-0.0556635,0
2024-12-11 19:39:45.558,0.0143569,2.8346,9.49023,-0.167907,-0.134463,-0.0562743,0
2024-12-11 19:39:45.560,0.0191426,2.8346,9.49023,-0.173404,-0.133852,-0.0550526,0
2024-12-11 19:39:45.566,0.0382852,2.85613,9.49502,-0.18501,-0.123468,-0.0526092,0
2024-12-11 19:39:45.567,0.0502493,2.8657,9.49023,-0.18501,-0.123468,-0.0526092,0
2024-12-11 19:39:45.567,0.0502493,2.8657,9.49023,-0.18501,-0.123468,-0.0526092,0
2024-12-11 19:39:45.570,0.0574277,2.8681,9.47348,-0.189897,-0.11064,-0.0513875,0
2024-12-11 19:39:45.572,0.0693919,2.85853,9.44477,-0.192341,-0.0910926,-0.049555,0
2024-12-11 19:39:45.579,-0.00478565,2.85135,9.47348,-0.19906,-0.0385597,-0.0471116,0
2024-12-11 19:39:45.580,-0.00478565,2.85135,9.47348,-0.202725,-0.0238994,-0.0458899,0
2024-12-11 19:39:45.582,-0.026321,2.84656,9.50459,-0.205779,-0.0122933,-0.0434465,0
2024-12-11 19:39:45.584,-0.0550349,2.84895,9.53809,-0.205779,-0.0122933,-0.0434465,0
2024-12-11 19:39:45.586,-0.0885344,2.84417,9.55723,-0.207001,0.00236703,-0.0397814,0
2024-12-11 19:39:45.586,-0.0885344,2.84417,9.55723,-0.207001,0.00236703,-0.0397814,0
2024-12-11 19:39:45.589,-0.122034,2.82742,9.59552,-0.207612,0.0139731,-0.0367272,0
2024-12-11 19:39:45.593,-0.181855,2.81306,9.68645,-0.211888,0.0390179,-0.0275645,0
2024-12-11 19:39:45.594,-0.181855,2.81306,9.68645,-0.210666,0.0542891,-0.0238994,0
2024-12-11 19:39:45.595,-0.227318,2.79392,9.72712,-0.210666,0.0542891,-0.0238994,0
2024-12-11 19:39:45.598,-0.258425,2.76999,9.76302,-0.211888,0.0671168,-0.0177909,0
2024-12-11 19:39:45.600,-0.27996,2.76521,9.79412,-0.211277,0.0805555,-0.0116825,0
2024-12-11 19:39:45.602,-0.297009,2.75803,9.8351,-0.209444,0.0939941,-0.00679568,0
2024-12-11 19:39:45.605,-0.316152,2.75324,9.8686,-0.20639,0.1056,-0.0019089,0
2024-12-11 19:39:45.608,-0.335294,2.76042,9.91167,-0.205168,0.12698,0.00908635,0
2024-12-11 19:39:45.609,-0.354437,2.74606,9.96431,-0.205168,0.12698,0.00908635,0
2024-12-11 19:39:45.613,-0.395115,2.73649,9.99063,-0.204557,0.133088,0.0139731,0
2024-12-11 19:39:45.614,-0.435793,2.74606,10.0074,-0.202725,0.14164,0.0194708,0
2024-12-11 19:39:45.617,-0.454935,2.7341,10.0433,-0.200282,0.152025,0.0237467,0
2024-12-11 19:39:45.620,-0.431007,2.70539,10.0696,-0.197227,0.161187,0.0298552,0
2024-12-11 19:39:45.621,-0.414257,2.70299,10.0887,-0.194173,0.17035,0.0347419,0
2024-12-11 19:39:45.623,-0.488435,2.7341,10.1079,-0.190508,0.178902,0.0396287,0
2024-12-11 19:39:45.629,-0.517149,2.75563,10.1127,-0.176459,0.195395,0.0500131,0
2024-12-11 19:39:45.629,-0.517149,2.75563,10.1127,-0.176459,0.195395,0.0500131,0
2024-12-11 19:39:45.631,-0.569791,2.76042,10.139,-0.176459,0.195395,0.0500131,0
2024-12-11 19:39:45.633,-0.627219,2.76999,10.1198,-0.173404,0.196616,0.0518457,0
2024-12-11 19:39:45.636,-0.648754,2.78913,10.0863,-0.169739,0.193562,0.0561216,0
2024-12-11 19:39:45.638,-0.643968,2.80588,10.0624,-0.164852,0.189286,0.0591758,0
2024-12-11 19:39:45.640,-0.63679,2.81545,10.0265,-0.162409,0.1844,0.0616192,0
2024-12-11 19:39:45.643,-0.639183,2.82024,9.98585,-0.158744,0.181956,0.0646735,0
2024-12-11 19:39:45.645,-0.646361,2.81785,9.93799,-0.15569,0.180734,0.0646735,0
2024-12-11 19:39:45.648,-0.639183,2.80588,9.89013,-0.154468,0.179513,0.066506,0
2024-12-11 19:39:45.649,-0.632004,2.79871,9.84706,-0.154468,0.179513,0.066506,0
2024-12-11 19:39:45.653,-0.629611,2.77717,9.79652,-0.144084,0.174626,0.0646735,0
2024-12-11 19:39:45.654,-0.62004,2.74846,9.75344,-0.144084,0.174626,0.0646735,0
2024-12-11 19:39:45.657,-0.60329,2.71974,9.72473,-0.143473,0.169739,0.0610084,0
2024-12-11 19:39:45.659,-0.60329,2.70539,9.69362,-0.143473,0.163631,0.0597867,0
2024-12-11 19:39:45.661,-0.632004,2.72453,9.65534,-0.139197,0.15569,0.0555107,0
2024-12-11 19:39:45.663,-0.648754,2.72931,9.62663,-0.137975,0.14836,0.0530674,0
2024-12-11 19:39:45.666,-0.651147,2.71496,9.59313,-0.137364,0.142251,0.0500131,0
2024-12-11 19:39:45.668,-0.646361,2.70539,9.54527,-0.136143,0.130034,0.0487914,0
2024-12-11 19:39:45.671,-0.646361,2.71256,9.49023,-0.134921,0.121482,0.0469589,0
2024-12-11 19:39:45.673,-0.65354,2.72453,9.45913,-0.13431,0.117817,0.042683,0
2024-12-11 19:39:45.675,-0.648754,2.72931,9.45195,-0.133699,0.11232,0.0414613,0
2024-12-11 19:39:45.678,-0.622433,2.71735,9.42084,-0.133088,0.103157,0.0396287,0
2024-12-11 19:39:45.681,-0.581755,2.71017,9.38495,-0.129423,0.0964375,0.0377962,0
2024-12-11 19:39:45.682,-0.548256,2.71256,9.36102,-0.127591,0.086664,0.0353528,0
2024-12-11 19:39:45.686,-0.512363,2.68864,9.33949,-0.125147,0.0768904,0.030466,0
2024-12-11 19:39:45.687,-0.488435,2.6671,9.31316,-0.123315,0.0677277,0.0255792,0
2024-12-11 19:39:45.689,-0.462114,2.65035,9.27488,-0.121482,0.0573433,0.0200816,0
2024-12-11 19:39:45.692,-0.409472,2.63599,9.22433,-0.11965,0.0487914,0.0158057,0
2024-12-11 19:39:45.694,-0.368794,2.60728,9.18126,-0.118428,0.0365745,0.0115297,0
2024-12-11 19:39:45.696,-0.335294,2.58814,9.1334,-0.115374,0.0280226,0.00542127,0
2024-12-11 19:39:45.700,-0.287438,2.58096,9.08794,-0.108044,0.0115297,-0.00251974,0
2024-12-11 19:39:45.701,-0.241675,2.56421,9.04965,-0.108044,0.0115297,-0.00251974,0
2024-12-11 19:39:45.704,-0.196211,2.54746,9.00419,-0.1056,0.00358873,-0.00740652,0
2024-12-11 19:39:45.706,-0.138784,2.52832,8.97308,-0.100103,-0.000687203,-0.0129041,0
2024-12-11 19:39:45.708,-0.0861416,2.51366,8.94676,-0.0976592,-0.00923906,-0.0165692,0
2024-12-11 19:39:45.711,-0.0598206,2.49452,8.90848,-0.0933833,-0.0177909,-0.0238994,0
2024-12-11 19:39:45.715,-0.026321,2.50887,8.81277,-0.0842206,-0.0306187,-0.0318404,0
2024-12-11 19:39:45.715,-0.026321,2.50887,8.81277,-0.0842206,-0.0306187,-0.0318404,0
2024-12-11 19:39:45.719,-0.0167498,2.50648,8.77687,-0.0726145,-0.0440574,-0.0397814,0
2024-12-11 19:39:45.720,-0.00478565,2.51845,8.75294,-0.0726145,-0.0440574,-0.0397814,0
2024-12-11 19:39:45.723,-0.00478565,2.52084,8.72423,-0.0677277,-0.0538309,-0.0422248,0
2024-12-11 19:39:45.725,0.0215354,2.53789,8.68565,-0.0616192,-0.0593285,-0.041614,0
2024-12-11 19:39:45.728,0.0646062,2.55464,8.64258,-0.046348,-0.0697129,-0.0440574,0
2024-12-11 19:39:45.729,0.0957129,2.57617,8.58754,-0.046348,-0.0697129,-0.0440574,0
2024-12-11 19:39:45.732,0.11007,2.61207,8.53011,-0.0390179,-0.0758214,-0.0446682,0
2024-12-11 19:39:45.734,0.114855,2.65753,8.4679,-0.0341311,-0.0849841,-0.0422248,0
2024-12-11 19:39:45.737,0.124427,2.71496,8.40329,-0.0261901,-0.0929251,-0.0422248,0
2024-12-11 19:39:45.739,0.0622134,2.7341,8.31715,-0.0176382,-0.102088,-0.0385597,0
2024-12-11 19:39:45.741,-0.0765703,2.71496,8.23101,-0.0096972,-0.111861,-0.0281753,0
2024-12-11 19:39:45.745,-0.0741775,2.75563,8.15923,-0.00175619,-0.131409,-0.00862822,0
2024-12-11 19:39:45.746,0.066999,2.83938,8.08714,-0.00175619,-0.131409,-0.00862822,0
2024-12-11 19:39:45.748,0.200997,2.88724,8.01057,0.0019089,-0.144847,-0.00374144,0
2024-12-11 19:39:45.751,0.325723,2.93988,7.91725,0.00740652,-0.156453,0.000534491,0
2024-12-11 19:39:45.755,0.586541,3.09332,7.72104,0.00435229,-0.170503,0.00114534,0
2024-12-11 19:39:45.758,0.586541,3.09332,7.72104,7.63559e-05,-0.185774,-0.00740652,0
2024-12-11 19:39:45.759,0.679861,3.17946,7.66601,7.63559e-05,-0.185774,-0.00740652,0
2024-12-11 19:39:45.760,0.76361,3.25843,7.63968,-0.00786466,-0.195547,-0.0129041,0
2024-12-11 19:39:45.765,0.924228,3.4355,7.57986,-0.0151948,-0.201656,-0.0238994,0
2024-12-11 19:39:45.768,1.00558,3.51685,7.53171,-0.0377962,-0.232809,-0.0434465,0
2024-12-11 19:39:45.769,1.00558,3.51685,7.53171,-0.0536782,-0.253578,-0.057496,0
2024-12-11 19:39:45.769,1.08694,3.57428,7.50539,-0.0536782,-0.253578,-0.057496,0
2024-12-11 19:39:45.772,1.17787,3.61974,7.50778,-0.0726145,-0.279234,-0.0721563,0
2024-12-11 19:39:45.774,1.24965,3.67029,7.51974,-0.0927724,-0.311608,-0.0874275,0
2024-12-11 19:39:45.777,1.29751,3.70618,7.53889,-0.115985,-0.345205,-0.105142,0
2024-12-11 19:39:45.779,1.33819,3.71815,7.57986,-0.139197,-0.384299,-0.121635,0
2024-12-11 19:39:45.781,1.37169,3.70618,7.64686,-0.166074,-0.429502,-0.13935,0
2024-12-11 19:39:45.784,1.40788,3.67986,7.72583,-0.194784,-0.474094,-0.156453,0
2024-12-11 19:39:45.787,1.45334,3.65833,7.80718,-0.226548,-0.518686,-0.171724,0
2024-12-11 19:39:45.791,1.53948,3.59342,7.98186,-0.291298,-0.606037,-0.206543,0
2024-12-11 19:39:45.791,1.53948,3.59342,7.98186,-0.291298,-0.606037,-0.206543,0
2024-12-11 19:39:45.793,1.58734,3.55514,8.11586,-0.322451,-0.65124,-0.223646,0
2024-12-11 19:39:45.795,1.6352,3.50967,8.26212,-0.354215,-0.695831,-0.244415,0
2024-12-11 19:39:45.799,1.67109,3.4331,8.41765,-0.418965,-0.77402,-0.278623,0
2024-12-11 19:39:45.801,1.69741,3.34457,8.56601,-0.449507,-0.801508,-0.296948,0
2024-12-11 19:39:45.802,1.74048,3.25603,8.70987,-0.449507,-0.801508,-0.296948,0
2024-12-11 19:39:45.805,1.79073,3.15793,8.85823,-0.482493,-0.825331,-0.31283,0
2024-12-11 19:39:45.807,1.81226,3.10768,8.99701,-0.513646,-0.83877,-0.324436,0
2024-12-11 19:39:45.810,1.80269,3.08854,9.11426,-0.544189,-0.846711,-0.334821,0
2024-12-11 19:39:45.812,1.85773,3.01167,9.22672,-0.570455,-0.843656,-0.343373,0
2024-12-11 19:39:45.814,1.92951,2.93988,9.38495,-0.600997,-0.829607,-0.354368,0
2024-12-11 19:39:45.817,1.90558,2.96381,9.56441,-0.626653,-0.81739,-0.36353,0
2024-12-11 19:39:45.820,1.84816,3.01884,9.71277,-0.675521,-0.785626,-0.365974,0
2024-12-11 19:39:45.824,1.71655,3.12921,9.98585,-0.693235,-0.764857,-0.36292,0
2024-12-11 19:39:45.824,1.71655,3.12921,9.98585,-0.693235,-0.764857,-0.36292,0
2024-12-11 19:39:45.828,1.57777,3.27996,10.206,-0.731108,-0.710492,-0.345205,0
2024-12-11 19:39:45.828,1.57777,3.27996,10.206,-0.731108,-0.710492,-0.345205,0
2024-12-11 19:39:45.831,1.5323,3.32543,10.3065,-0.742714,-0.676895,-0.331156,0
2024-12-11 19:39:45.834,1.51316,3.38285,10.4073,-0.764704,-0.596263,-0.298781,0
2024-12-11 19:39:45.836,1.52991,3.4331,10.5054,-0.764704,-0.596263,-0.298781,0
2024-12-11 19:39:45.839,1.55862,3.4666,10.6035,-0.772035,-0.551671,-0.285953,0
2024-12-11 19:39:45.840,1.58973,3.5001,10.6968,-0.777532,-0.505858,-0.26946,0
2024-12-11 19:39:45.842,1.64237,3.51446,10.783,-0.784252,-0.458212,-0.258465,0
2024-12-11 19:39:45.845,1.70937,3.51924,10.8691,-0.786695,-0.410566,-0.248691,0
2024-12-11 19:39:45.847,1.75005,3.51924,10.9385,-0.787917,-0.36292,-0.24075,0
2024-12-11 19:39:45.850,1.78116,3.49771,10.9938,-0.789138,-0.314052,-0.236474,0
2024-12-11 19:39:45.855,1.8338,3.44985,11.1206,-0.78303,-0.180276,-0.232809,0
2024-12-11 19:39:45.857,1.81944,3.402,11.1757,-0.78303,-0.180276,-0.232809,0
2024-12-11 19:39:45.858,1.81944,3.402,11.1757,-0.78303,-0.180276,-0.232809,0
2024-12-11 19:39:45.859,1.76441,3.36132,11.2211,-0.780586,-0.135684,-0.235253,0
2024-12-11 19:39:45.861,1.67587,3.335,11.281,-0.772035,-0.0917034,-0.240139,0
2024-12-11 19:39:45.868,1.36451,3.2345,11.4915,-0.743936,0.0243575,-0.255411,0
2024-12-11 19:39:45.868,1.36451,3.2345,11.4915,-0.743936,0.0243575,-0.255411,0
2024-12-11 19:39:45.869,1.36451,3.2345,11.4915,-0.743936,0.0243575,-0.255411,0
2024-12-11 19:39:45.872,1.25444,3.18186,11.5899,-0.733551,0.0542891,-0.260297,0
2024-12-11 19:39:45.873,1.10848,3.11725,11.6904,-0.733551,0.0542891,-0.260297,0
2024-12-11 19:39:45.876,0.972084,3.0332,11.7694,-0.703009,0.120261,-0.266406,0
2024-12-11 19:39:45.878,0.833001,2.97099,11.8579,-0.685905,0.146527,-0.265184,0
2024-12-11 19:39:45.881,0.665504,2.95424,11.9154,-0.663915,0.177069,-0.265795,0
2024-12-11 19:39:45.883,0.486042,2.94227,11.9369,-0.642535,0.209444,-0.261519,0
2024-12-11 19:39:45.885,0.316152,2.8992,11.9776,-0.618101,0.239987,-0.259686,0
2024-12-11 19:39:45.887,0.172283,2.88245,11.9919,-0.590002,0.269307,-0.2548,0
2024-12-11 19:39:45.890,0.0311067,2.88245,11.9776,-0.561903,0.294352,-0.246248,0
2024-12-11 19:39:45.892,-0.0861416,2.8322,11.9632,-0.531361,0.317564,-0.240139,0
2024-12-11 19:39:45.894,-0.16989,2.78913,11.9608,-0.501429,0.338333,-0.231587,0
2024-12-11 19:39:45.898,-0.229711,2.75563,11.956,-0.430571,0.379871,-0.21143,0
2024-12-11 19:39:45.900,-0.289831,2.69581,11.9106,-0.394531,0.401861,-0.199213,0
2024-12-11 19:39:45.901,-0.344866,2.66231,11.846,-0.394531,0.401861,-0.199213,0
2024-12-11 19:39:45.904,-0.385544,2.66471,11.7694,-0.357269,0.420797,-0.19005,0
2024-12-11 19:39:45.906,-0.385544,2.68146,11.7,-0.320008,0.443399,-0.180887,0
2024-12-11 19:39:45.909,-0.387936,2.68864,11.6378,-0.280913,0.460502,-0.172335,0
2024-12-11 19:39:45.911,-0.411865,2.69342,11.5564,-0.239376,0.478828,-0.164394,0
2024-12-11 19:39:45.913,-0.411865,2.70539,11.4461,-0.19906,0.497153,-0.155842,0
2024-12-11 19:39:45.916,-0.419043,2.71735,11.3001,-0.16302,0.514257,-0.14668,0
2024-12-11 19:39:45.918,-0.462114,2.7341,11.1398,-0.121482,0.529528,-0.138128,0
2024-12-11 19:39:45.923,-0.588933,2.81067,10.6681,-0.0481806,0.568012,-0.114916,0
2024-12-11 19:39:45.923,-0.588933,2.81067,10.6681,-0.0481806,0.568012,-0.114916,0
2024-12-11 19:39:45.925,-0.593719,2.85853,10.491,-0.0121406,0.582672,-0.104531,0
2024-12-11 19:39:45.928,-0.56022,2.9016,10.3256,0.0507767,0.586337,-0.0843733,0
2024-12-11 19:39:45.930,-0.514756,2.94945,10.1414,0.0507767,0.586337,-0.0843733,0
2024-12-11 19:39:45.932,-0.476471,2.97099,9.92124,0.081319,0.580839,-0.0770431,0
2024-12-11 19:39:45.934,-0.426222,2.98774,9.70559,0.106975,0.574731,-0.0697129,0
2024-12-11 19:39:45.937,-0.373579,3.02363,9.50459,0.130798,0.568622,-0.0684913,0
2024-12-11 19:39:45.940,-0.349651,3.05474,9.29642,0.174779,0.546632,-0.0629936,0
2024-12-11 19:39:45.941,-0.344866,3.08854,9.08315,0.174779,0.546632,-0.0629936,0
2024-12-11 19:39:45.944,-0.349651,3.12921,8.88934,0.192493,0.536248,-0.0660479,0
2024-12-11 19:39:45.946,-0.368794,3.16032,8.72662,0.192493,0.536248,-0.0660479,0
2024-12-11 19:39:45.948,-0.407079,3.18903,8.56361,0.224257,0.513035,-0.0623828,0
2024-12-11 19:39:45.951,-0.438186,3.22732,8.40329,0.237696,0.500818,-0.0629936,0
2024-12-11 19:39:45.953,-0.478864,3.27278,8.24298,0.252356,0.488601,-0.0605502,0
2024-12-11 19:39:45.956,-0.54347,3.32543,8.08236,0.261519,0.473941,-0.0587177,0
2024-12-11 19:39:45.959,-0.605683,3.36371,7.93639,0.281677,0.441566,-0.0519984,0
2024-12-11 19:39:45.961,-0.643968,3.41157,7.79761,0.281677,0.441566,-0.0519984,0
2024-12-11 19:39:45.963,-0.682254,3.45224,7.65643,0.287785,0.424462,-0.0458899,0
2024-12-11 19:39:45.965,-0.742074,3.46899,7.51974,0.298781,0.409802,-0.0428357,0
2024-12-11 19:39:45.967,-0.792323,3.49292,7.38096,0.303057,0.393309,-0.0391706,0
2024-12-11 19:39:45.970,-0.816252,3.51685,7.23978,0.307333,0.37926,-0.033673,0
2024-12-11 19:39:45.974,-0.85005,3.56231,7.00738,0.308554,0.36521,-0.0263428,0
2024-12-11 19:39:45.975,-0.85005,3.56231,7.00738,0.308554,0.36521,-0.0263428,0
2024-12-11 19:39:45.977,-0.871586,3.56231,6.90688,0.312219,0.340166,-0.0159584,0
2024-12-11 19:39:45.980,-0.876371,3.5671,6.83031,0.31283,0.330392,-0.0122933,0
2024-12-11 19:39:45.981,-0.873978,3.58385,6.76331,0.312219,0.321229,-0.00679568,0
2024-12-11 19:39:45.984,-0.890728,3.59342,6.72742,0.310998,0.312067,-0.000687203,0
2024-12-11 19:39:45.987,-0.912264,3.61974,6.70828,0.302446,0.298017,0.00603212,0
2024-12-11 19:39:45.990,-0.919442,3.6341,6.67478,0.302446,0.298017,0.00603212,0
2024-12-11 19:39:45.991,-0.919442,3.63171,6.65085,0.294505,0.294352,0.00786466,0
2024-12-11 19:39:45.993,-0.933799,3.65115,6.63171,0.294505,0.293741,0.0115297,0
2024-12-11 19:39:45.996,-0.950549,3.67747,6.62214,0.288396,0.291909,0.0151948,0
2024-12-11 19:39:45.998,-0.96012,3.699,6.62214,0.280455,0.293741,0.0194708,0
2024-12-11 19:39:46.001,-0.902692,3.68704,6.62453,0.257854,0.304126,0.0182491,0
2024-12-11 19:39:46.003,-0.754038,3.62931,6.67717,0.257854,0.304126,0.0182491,0
2024-12-11 19:39:46.005,-0.732503,3.64606,6.70828,0.249913,0.312677,0.0139731,0
2024-12-11 19:39:46.008,-0.933799,3.74925,6.67239,0.240139,0.326727,0.0096972,0
2024-12-11 19:39:46.011,-1.16351,3.85693,6.64846,0.230366,0.346885,0.0115297,0
2024-12-11 19:39:46.012,-1.33101,3.95743,6.66042,0.218149,0.362156,0.0158057,0
2024-12-11 19:39:46.014,-1.42702,4.03161,6.7011,0.198602,0.37254,0.0237467,0
2024-12-11 19:39:46.017,-1.47009,4.09621,6.74178,0.18272,0.378038,0.0335202,0
2024-12-11 19:39:46.019,-1.4988,4.15125,6.75853,0.163173,0.380481,0.0469589,0
2024-12-11 19:39:46.021,-1.51316,4.17757,6.75613,0.144847,0.384147,0.0622301,0
2024-12-11 19:39:46.025,-1.49402,4.18714,6.74896,0.0996445,0.404915,0.0836097,0
2024-12-11 19:39:46.026,-1.45573,4.17757,6.75613,0.0996445,0.404915,0.0836097,0
2024-12-11 19:39:46.030,-1.42702,4.15125,6.77528,0.0501658,0.440345,0.101935,0
2024-12-11 19:39:46.032,-1.39801,4.1345,6.81356,0.0275645,0.458059,0.109265,0
2024-12-11 19:39:46.034,-1.35972,4.11775,6.88535,0.0275645,0.458059,0.109265,0
2024-12-11 19:39:46.036,-1.29512,4.09621,6.95713,0.00129805,0.470276,0.11293,0
2024-12-11 19:39:46.040,-1.18265,4.08664,7.11775,-0.0548999,0.484326,0.11965,0
2024-12-11 19:39:46.041,-1.18265,4.08664,7.11775,-0.0548999,0.484326,0.11965,0
2024-12-11 19:39:46.043,-1.12762,4.11296,7.17518,-0.0848314,0.489212,0.117817,0
2024-12-11 19:39:46.045,-1.09651,4.14407,7.24936,-0.115374,0.491045,0.117206,0
2024-12-11 19:39:46.047,-1.09173,4.17518,7.32832,-0.144084,0.487991,0.115985,0
2024-12-11 19:39:46.051,-1.08694,4.2329,7.4001,-0.210055,0.48066,0.109876,0
2024-12-11 19:39:46.054,-1.0989,4.31905,7.57478,-0.210055,0.48066,0.109876,0
2024-12-11 19:39:46.054,-1.0989,4.31905,7.57478,-0.210055,0.48066,0.109876,0
2024-12-11 19:39:46.057,-1.07976,4.36212,7.6684,-0.274194,0.463557,0.100103,0
2024-12-11 19:39:46.059,-1.0678,4.39083,7.79043,-0.307791,0.453783,0.0970484,0
2024-12-11 19:39:46.063,-1.07019,4.42911,7.93161,-0.374984,0.42996,0.0897182,0
2024-12-11 19:39:46.066,-1.08455,4.47936,8.25255,-0.405526,0.417743,0.0848314,0
2024-12-11 19:39:46.066,-1.08455,4.47936,8.25255,-0.405526,0.417743,0.0848314,0
2024-12-11 19:39:46.070,-1.08455,4.50329,8.42483,-0.469665,0.392088,0.0775012,0
2024-12-11 19:39:46.072,-1.08933,4.49611,8.59711,-0.469665,0.392088,0.0775012,0
2024-12-11 19:39:46.073,-1.08455,4.47936,8.78884,-0.500208,0.381703,0.0732253,0
2024-12-11 19:39:46.076,-1.08455,4.46022,9.00898,-0.528307,0.371319,0.0695602,0
2024-12-11 19:39:46.078,-1.07737,4.44826,9.21476,-0.555795,0.361545,0.066506,0
2024-12-11 19:39:46.080,-1.07498,4.44108,9.42323,-0.579007,0.349939,0.0634518,0
2024-12-11 19:39:46.083,-1.07498,4.42194,9.63141,-0.604052,0.338333,0.0610084,0
2024-12-11 19:39:46.085,-1.09412,4.38365,9.81326,-0.626042,0.32917,0.0591758,0
2024-12-11 19:39:46.087,-1.14437,4.34297,9.98824,-0.643146,0.319397,0.0561216,0
2024-12-11 19:39:46.090,-1.1659,4.32144,10.1677,-0.659028,0.312067,0.0542891,0
2024-12-11 19:39:46.092,-1.17787,4.2999,10.3448,-0.674299,0.304736,0.0536782,0
2024-12-11 19:39:46.096,-1.23051,4.26162,10.5197,-0.68957,0.285189,0.0530674,0
2024-12-11 19:39:46.098,-1.29751,4.22094,10.7207,-0.68957,0.285189,0.0530674,0
2024-12-11 19:39:46.099,-1.35494,4.18235,10.9361,-0.695068,0.274194,0.0561216,0
2024-12-11 19:39:46.103,-1.35015,4.12493,11.1446,-0.6969,0.253425,0.0646735,0
2024-12-11 19:39:46.104,-1.15872,4.07468,11.1565,-0.6969,0.253425,0.0646735,0
2024-12-11 19:39:46.106,-0.964906,4.08664,11.2331,-0.6969,0.246095,0.0640626,0
2024-12-11 19:39:46.109,-1.04387,4.09382,11.7096,-0.693235,0.238765,0.0628409,0
2024-12-11 19:39:46.111,-1.22094,4.08903,12.1406,-0.677964,0.224715,0.0689494,0
2024-12-11 19:39:46.113,-1.26879,4.06032,12.2172,-0.659639,0.22105,0.0720036,0
2024-12-11 19:39:46.116,-1.30947,4.03639,12.2339,-0.638259,0.232656,0.0805555,0
2024-12-11 19:39:46.120,-1.59452,3.96222,12.6841,-0.579007,0.25648,0.108044,0
2024-12-11 19:39:46.121,-1.59452,3.96222,12.6841,-0.579007,0.25648,0.108044,0
2024-12-11 19:39:46.124,-1.61366,3.87368,12.8779,-0.542356,0.265031,0.125147,0
2024-12-11 19:39:46.125,-1.60648,3.78036,13.0262,-0.502651,0.272972,0.142862,0
2024-12-11 19:39:46.130,-1.62084,3.6006,13.3472,-0.456227,0.281524,0.159355,0
2024-12-11 19:39:46.130,-1.62084,3.6006,13.3472,-0.456227,0.281524,0.159355,0
2024-12-11 19:39:46.136,-1.55623,3.43789,13.3424,-0.244263,0.346885,0.222272,0
2024-12-11 19:39:46.136,-1.55623,3.43789,13.3424,-0.244263,0.346885,0.222272,0
2024-12-11 19:39:46.138,-1.5682,3.33978,13.3854,-0.244263,0.346885,0.222272,0
2024-12-11 19:39:46.139,-1.5323,3.27278,13.328,-0.185621,0.363378,0.237543,0
2024-12-11 19:39:46.142,-1.39801,3.26082,13.1363,-0.130645,0.380481,0.250982,0
2024-12-11 19:39:46.145,-1.27597,3.27518,12.9784,-0.0280226,0.40858,0.272972,0
2024-12-11 19:39:46.147,-1.24726,3.31107,12.8683,-0.0280226,0.40858,0.272972,0
2024-12-11 19:39:46.149,-1.27837,3.34696,12.7199,0.0165692,0.421408,0.287022,0
2024-12-11 19:39:46.151,-1.32622,3.3996,12.5402,0.0636045,0.434847,0.30046,0
2024-12-11 19:39:46.153,-1.35015,3.47857,12.3655,0.105142,0.446453,0.317564,0
2024-12-11 19:39:46.157,-1.34058,3.57667,12.2148,0.169892,0.45134,0.353604,0
2024-12-11 19:39:46.158,-1.33579,3.67986,12.0712,0.169892,0.45134,0.353604,0
2024-12-11 19:39:46.160,-1.3334,3.78754,11.9345,0.198602,0.442788,0.37254,0
2024-12-11 19:39:46.163,-1.30469,3.92154,11.8053,0.220592,0.428128,0.391477,0
2024-12-11 19:39:46.165,-1.27597,4.05554,11.6593,0.243194,0.40858,0.407359,0
2024-12-11 19:39:46.168,-1.2329,4.17039,11.4963,0.258465,0.390255,0.425684,0
2024-12-11 19:39:46.170,-1.1659,4.28315,11.3599,0.267627,0.36521,0.439123,0
2024-12-11 19:39:46.173,-0.933799,4.34297,11.269,0.280455,0.322451,0.456837,0
2024-12-11 19:39:46.176,-0.550648,4.32622,11.2905,0.287175,0.309623,0.456227,0
2024-12-11 19:39:46.178,-0.471685,4.37647,11.2164,0.287175,0.309623,0.456227,0
2024-12-11 19:39:46.179,-0.50997,4.55115,11.0225,0.288396,0.309012,0.451951,0
2024-12-11 19:39:46.183,-0.512363,4.68754,11.0034,0.284731,0.30046,0.443399,0
2024-12-11 19:39:46.184,-0.703789,4.76172,11.0704,0.279844,0.279692,0.438512,0
2024-12-11 19:39:46.186,-0.9003,4.8338,11.1326,0.273125,0.254036,0.440955,0
2024-12-11 19:39:46.190,-1.0319,4.88405,11.202,0.260908,0.22044,0.446453,0
2024-12-11 19:39:46.193,-1.07498,4.88884,11.3815,0.235863,0.15569,0.461724,0
2024-12-11 19:39:46.194,-1.07498,4.88884,11.3815,0.235863,0.15569,0.461724,0
2024-12-11 19:39:46.197,-1.01515,4.87209,11.4054,0.199213,0.0994917,0.477606,0
2024-12-11 19:39:46.198,-0.955334,4.85055,11.4317,0.199213,0.0994917,0.477606,0
2024-12-11 19:39:46.203,-0.907478,4.76172,11.5899,0.152788,0.0591758,0.484936,0
2024-12-11 19:39:46.205,-0.871586,4.73061,11.6976,0.132019,0.0439046,0.484936,0
2024-12-11 19:39:46.206,-0.871586,4.73061,11.6976,0.108807,0.0255792,0.486158,0
2024-12-11 19:39:46.209,-0.739681,4.666,11.779,0.0758214,0.00908635,0.48066,0
2024-12-11 19:39:46.210,-0.524327,4.62533,11.7646,0.0758214,0.00908635,0.48066,0
2024-12-11 19:39:46.212,-0.454935,4.62054,11.956,0.0428357,-0.00496313,0.473941,0
2024-12-11 19:39:46.215,-0.584148,4.62054,12.332,0.013515,-0.0245102,0.467222,0
2024-12-11 19:39:46.218,-0.694218,4.63011,12.4684,-0.0121406,-0.0403923,0.462335,0
2024-12-11 19:39:46.219,-0.734896,4.61097,12.5115,-0.0402396,-0.0446682,0.460502,0
2024-12-11 19:39:46.222,-0.756431,4.56551,12.6841,-0.0689494,-0.049555,0.461113,0
2024-12-11 19:39:46.224,-0.739681,4.5009,12.9449,-0.0976592,-0.0599394,0.462335,0
2024-12-11 19:39:46.226,-0.710967,4.44826,13.2203,-0.122093,-0.0715455,0.463557,0
2024-12-11 19:39:46.229,-0.670289,4.38126,13.4022,-0.144694,-0.0862058,0.466,0
2024-12-11 19:39:46.231,-0.634397,4.30708,13.5482,-0.167296,-0.0947577,0.464778,0
2024-12-11 19:39:46.234,-0.608076,4.22572,13.7276,-0.186843,-0.101477,0.465389,0
2024-12-11 19:39:46.236,-0.553041,4.12253,13.8667,-0.20639,-0.10331,0.464778,0
2024-12-11 19:39:46.239,-0.502792,4.034,14.0294,-0.235711,-0.0898709,0.462946,0
2024-12-11 19:39:46.242,-0.457328,3.967,14.2113,-0.246706,-0.077654,0.466,0
2024-12-11 19:39:46.244,-0.397508,3.90239,14.3384,-0.246706,-0.077654,0.466,0
2024-12-11 19:39:46.250,-0.318545,3.82104,14.6638,-0.25648,-0.0629936,0.475163,0
2024-12-11 19:39:46.253,-0.35683,3.80429,14.8433,-0.261977,-0.00496313,0.492267,0
2024-12-11 19:39:46.256,-0.368794,3.79711,15.0254,-0.253425,0.014584,0.507538,0
2024-12-11 19:39:46.257,-0.330509,3.79232,15.1834,-0.232656,0.0390179,0.522198,1
2024-12-11 19:39:46.257,-0.330509,3.79232,15.1834,-0.232656,0.0390179,0.522198,1
2024-12-11 19:39:46.259,-0.22014,3.78515,15.2504,-0.20639,0.0646735,0.537469,0
2024-12-11 19:39:46.262,-0.0526421,3.81386,15.2073,-0.20639,0.0646735,0.551519,0
2024-12-11 19:39:46.264,0.129212,3.8689,15.0733,-0.144084,0.115374,0.561903,0
2024-12-11 19:39:46.264,0.129212,3.8689,15.0733,-0.144084,0.115374,0.561903,0
2024-12-11 19:39:46.266,0.316152,3.94068,14.9058,-0.109265,0.138586,0.568012,0
2024-12-11 19:39:46.270,0.505185,4.02921,14.7045,-0.050624,0.187454,0.563736,0
2024-12-11 19:39:46.271,0.694218,4.13211,14.4437,-0.050624,0.187454,0.563736,0
2024-12-11 19:39:46.274,0.85005,4.23769,14.1419,-0.0237467,0.210666,0.55274,0
2024-12-11 19:39:46.277,0.952942,4.32383,13.8452,0.00801737,0.24976,0.512424,0
2024-12-11 19:39:46.279,1.0319,4.39322,13.5721,0.0171801,0.260145,0.483715,0
2024-12-11 19:39:46.281,1.07976,4.45065,13.3448,0.0171801,0.260145,0.483715,0
2024-12-11 19:39:46.283,1.05583,4.50329,13.1578,0.0208452,0.265031,0.453783,0
2024-12-11 19:39:46.285,1.0008,4.53201,12.9975,0.0232886,0.267475,0.418354,0
2024-12-11 19:39:46.289,0.938585,4.51286,12.8755,0.0177909,0.250982,0.35055,0
2024-12-11 19:39:46.290,0.854836,4.46979,12.7893,0.0177909,0.250982,0.35055,0
2024-12-11 19:39:46.295,0.670289,4.3023,12.6817,0.0171801,0.205168,0.272362,0
2024-12-11 19:39:46.296,0.670289,4.3023,12.6817,0.0141258,0.170961,0.233267,0
2024-12-11 19:39:46.298,0.584148,4.17518,12.6625,0.0122933,0.12698,0.194173,0
2024-12-11 19:39:46.299,0.507577,4.03639,12.6936,0.0122933,0.12698,0.194173,0
2024-12-11 19:39:46.302,0.423829,3.88564,12.7702,0.00923906,0.0793338,0.152635,0
2024-12-11 19:39:46.304,0.318545,3.71575,12.8539,0.00984991,0.0237467,0.111709,0
2024-12-11 19:39:46.310,0.105284,3.3661,13.098,0.0269536,-0.152177,-0.00679568,0
2024-12-11 19:39:46.310,0.105284,3.3661,13.098,0.0269536,-0.152177,-0.00679568,0
2024-12-11 19:39:46.311,-0.0119641,3.18186,13.2132,0.0269536,-0.152177,-0.00679568,0
2024-12-11 19:39:46.314,-0.112463,3.00927,13.3328,0.0385597,-0.209597,-0.0434465,0
2024-12-11 19:39:46.316,-0.196211,2.82503,13.4524,0.0526092,-0.263962,-0.0770431,0
2024-12-11 19:39:46.318,-0.265603,2.62403,13.5577,0.0672696,-0.320771,-0.106975,0
2024-12-11 19:39:46.322,-0.328116,2.45863,13.663,0.0886492,-0.371471,-0.13263,0
2024-12-11 19:39:46.330,-0.493221,2.05902,13.6965,0.0886492,-0.371471,-0.13263,0
2024-12-11 19:39:46.332,-0.469292,1.91037,13.7444,0.199823,-0.491808,-0.206543,0
2024-12-11 19:39:46.336,-0.469292,1.91037,13.7806,0.251135,-0.515631,-0.21876,0
2024-12-11 19:39:46.336,-0.428614,1.73809,13.7806,0.251135,-0.515631,-0.21876,0
2024-12-11 19:39:46.338,-0.383151,1.52752,13.8356,0.277401,-0.523572,-0.227312,0
2024-12-11 19:39:46.339,-0.308973,1.29751,13.905,0.277401,-0.523572,-0.227312,0
2024-12-11 19:39:46.339,-0.308973,1.29751,13.905,0.277401,-0.523572,-0.227312,0
2024-12-11 19:39:46.340,-0.308973,1.29751,13.905,0.277401,-0.523572,-0.227312,0
2024-12-11 19:39:46.344,-0.119641,0.897907,13.838,0.340929,-0.524183,-0.239528,0
2024-12-11 19:39:46.344,-0.119641,0.897907,13.838,0.340929,-0.524183,-0.239528,0
2024-12-11 19:39:46.347,-0.0454636,0.727717,13.7396,0.375137,-0.511966,-0.246248,0
2024-12-11 19:39:46.351,0.0646062,0.447757,13.5075,0.453936,-0.463099,-0.260908,0
2024-12-11 19:39:46.351,0.0646062,0.447757,13.5075,0.453936,-0.463099,-0.260908,0
2024-12-11 19:39:46.354,0.20339,0.337687,13.3304,0.496084,-0.430113,-0.266406,0
2024-12-11 19:39:46.356,0.426222,0.248854,13.1387,0.535179,-0.396516,-0.274958,0
2024-12-11 19:39:46.358,0.56022,0.177069,12.9784,0.578549,-0.361698,-0.287785,0
2024-12-11 19:39:46.362,0.507577,0.0981057,12.8181,0.671398,-0.264573,-0.304278,0
2024-12-11 19:39:46.363,0.435793,0.0,12.5976,0.671398,-0.264573,-0.304278,0
2024-12-11 19:39:46.366,0.402293,-0.117248,12.3631,0.718433,-0.20471,-0.307333,0
2024-12-11 19:39:46.368,0.368794,-0.236889,12.1358,0.76669,-0.143015,-0.309776,0
2024-12-11 19:39:46.371,0.277567,-0.34008,11.9345,0.867479,-0.00496313,-0.3055,0
2024-12-11 19:39:46.372,0.160319,-0.426222,11.7168,0.867479,-0.00496313,-0.3055,0
2024-12-11 19:39:46.375,0.066999,-0.521934,11.4413,0.919401,0.0640626,-0.299392,0
2024-12-11 19:39:46.377,-0.00239282,-0.605683,11.1494,0.967048,0.131867,-0.288396,0
2024-12-11 19:39:46.381,-0.0574277,-0.701396,10.85,1.01225,0.196006,-0.275568,0
2024-12-11 19:39:46.382,-0.136391,-0.804287,10.5532,1.05745,0.254647,-0.263962,0
2024-12-11 19:39:46.384,-0.215354,-0.8668,10.2491,1.09777,0.310234,-0.24808,0
2024-12-11 19:39:46.387,-0.289831,-0.929013,9.91646,1.13625,0.359713,-0.228533,0
2024-12-11 19:39:46.389,-0.383151,-0.988834,9.61227,1.17168,0.402472,-0.213262,0
2024-12-11 19:39:46.391,-0.474078,-1.0343,9.32752,1.20283,0.436679,-0.194937,0
2024-12-11 19:39:46.395,-0.550648,-1.05583,8.98266,1.25537,0.485547,-0.157064,0
2024-12-11 19:39:46.396,-0.632004,-1.04865,8.63301,1.25537,0.485547,-0.157064,0
2024-12-11 19:39:46.398,-0.751645,-1.0319,8.3363,1.27247,0.503873,-0.138128,0
2024-12-11 19:39:46.402,-0.9003,-1.01276,8.11107,1.29691,0.500818,-0.0953685,0
2024-12-11 19:39:46.404,-1.04387,-0.996012,7.91486,1.30301,0.48005,-0.0721563,0
2024-12-11 19:39:46.405,-1.2018,-0.981655,7.73061,1.30301,0.48005,-0.0721563,0
2024-12-11 19:39:46.409,-1.40788,-0.967299,7.54607,1.30362,0.420187,-0.0184018,0
2024-12-11 19:39:46.410,-1.63041,-0.96012,7.34507,1.30362,0.420187,-0.0184018,0
2024-12-11 19:39:46.412,-1.80509,-0.950549,7.18236,1.29813,0.385979,0.0121406,0
2024-12-11 19:39:46.416,-1.94865,-0.940978,7.01725,1.29019,0.348107,0.0439046,0
2024-12-11 19:39:46.417,-2.0662,-0.919442,6.88535,1.28286,0.309012,0.0775012,0
2024-12-11 19:39:46.420,-2.19781,-0.9003,6.81596,1.27003,0.272972,0.11232,0
2024-12-11 19:39:46.423,-2.34856,-0.88355,6.7346,1.2462,0.202114,0.186843,0
2024-12-11 19:39:46.424,-2.44905,-0.857229,6.66999,1.2462,0.202114,0.186843,0
2024-12-11 19:39:46.427,-2.51366,-0.835394,6.6341,1.2346,0.17035,0.225326,0
2024-12-11 19:39:46.429,-2.56421,-0.833001,6.56949,1.22421,0.145305,0.265642,0
2024-12-11 19:39:46.431,-2.59053,-0.847657,6.50489,1.212,0.126369,0.305347,0
2024-12-11 19:39:46.434,-2.6001,-0.854836,6.48575,1.19673,0.115985,0.344442,0
2024-12-11 19:39:46.436,-2.59053,-0.864407,6.48575,1.18817,0.106822,0.382314,0
2024-12-11 19:39:46.438,-2.5666,-0.888335,6.5001,1.17474,0.101324,0.418354,0
2024-12-11 19:39:46.441,-2.54028,-0.921835,6.50967,1.16435,0.0970484,0.45134,0
2024-12-11 19:39:46.443,-2.48495,-0.940978,6.49292,1.15213,0.0964375,0.481882,0
2024-12-11 19:39:46.445,-2.40359,-0.950549,6.44477,1.14236,0.104989,0.510592,0
2024-12-11 19:39:46.448,-2.31745,-0.940978,6.38734,1.12892,0.114152,0.536248,0
2024-12-11 19:39:46.450,-2.24327,-0.897907,6.32034,1.11548,0.12698,0.555184,0
2024-12-11 19:39:46.453,-2.12602,-0.837787,6.21027,1.10327,0.14897,0.574731,0
2024-12-11 19:39:46.455,-1.98724,-0.770788,6.11456,1.08433,0.175237,0.58878,0
2024-12-11 19:39:46.457,-1.91516,-0.708575,6.09781,1.06723,0.201503,0.599776,0
2024-12-11 19:39:46.460,-1.86012,-0.65354,6.12174,1.04463,0.225937,0.608938,0
2024-12-11 19:39:46.462,-1.78594,-0.600898,6.11695,1.02202,0.255258,0.614436,0
2024-12-11 19:39:46.467,-1.61605,-0.488435,6.08824,0.972545,0.31451,0.616269,0
2024-12-11 19:39:46.468,-1.61605,-0.488435,6.08824,0.945057,0.345052,0.615047,0
2024-12-11 19:39:46.469,-1.55384,-0.426222,6.09063,0.945057,0.345052,0.615047,0
2024-12-11 19:39:46.471,-1.50838,-0.361615,6.12174,0.915126,0.368875,0.610771,0
2024-12-11 19:39:46.475,-1.4988,-0.289831,6.14806,0.880307,0.389644,0.60283,0
2024-12-11 19:39:46.476,-1.50598,-0.22014,6.15045,0.841213,0.407359,0.594278,0
2024-12-11 19:39:46.478,-1.51077,-0.138784,6.15045,0.804562,0.426295,0.585726,0
2024-12-11 19:39:46.483,-1.58734,0.0526421,6.2007,0.720265,0.44401,0.561903,0
2024-12-11 19:39:46.484,-1.58734,0.0526421,6.2007,0.720265,0.44401,0.561903,0
2024-12-11 19:39:46.486,-1.61845,0.124427,6.20788,0.673841,0.448286,0.549686,0
2024-12-11 19:39:46.488,-1.64237,0.20339,6.19831,0.626195,0.450118,0.53808,0
2024-12-11 19:39:46.490,-1.64716,0.294616,6.21027,0.576105,0.448286,0.525863,0
2024-12-11 19:39:46.493,-1.63998,0.35683,6.23899,0.523572,0.439123,0.512424,0
2024-12-11 19:39:46.495,-1.63041,0.411865,6.22702,0.472872,0.425073,0.497764,0
2024-12-11 19:39:46.497,-1.60648,0.483649,6.2007,0.420339,0.407359,0.484936,0
2024-12-11 19:39:46.501,-1.56341,0.545863,6.18634,0.309165,0.368875,0.448896,0
2024-12-11 19:39:46.504,-1.51555,0.665504,6.18156,0.256632,0.345052,0.42996,0
2024-12-11 19:39:46.505,-1.51555,0.665504,6.18156,0.256632,0.345052,0.42996,0
2024-12-11 19:39:46.507,-1.4677,0.722932,6.20549,0.202267,0.316343,0.412856,0
2024-12-11 19:39:46.509,-1.41745,0.787538,6.24138,0.146069,0.287022,0.389033,0
2024-12-11 19:39:46.511,-1.37408,0.833001,6.25574,0.0953685,0.258312,0.367043,0
2024-12-11 19:39:46.514,-1.34297,0.8668,6.26052,0.0446682,0.228991,0.343831,0
2024-12-11 19:39:46.516,-1.35254,0.917049,6.30598,-0.00786466,0.19906,0.320618,0
2024-12-11 19:39:46.518,-1.39801,0.948156,6.41127,-0.0555107,0.168517,0.298628,0
2024-12-11 19:39:46.522,-1.44616,0.955334,6.5336,-0.139808,0.0921616,0.259534,0
2024-12-11 19:39:46.526,-1.46291,0.996012,6.69392,-0.175848,0.0512348,0.241819,0
2024-12-11 19:39:46.526,-1.46291,0.996012,6.69392,-0.175848,0.0512348,0.241819,0
2024-12-11 19:39:46.528,-1.44855,1.02473,6.75613,-0.208833,0.0121406,0.222272,0
2024-12-11 19:39:46.530,-1.41745,1.07498,6.82074,-0.239376,-0.0275645,0.204557,0
2024-12-11 19:39:46.533,-1.36451,1.13001,6.87099,-0.265642,-0.0660479,0.190508,0
2024-12-11 19:39:46.536,-1.27837,1.18265,6.91406,-0.291909,-0.104531,0.174626,0
2024-12-11 19:39:46.537,-1.17069,1.23051,6.97388,-0.312067,-0.141182,0.156911,0
2024-12-11 19:39:46.541,-1.0678,1.26401,7.03639,-0.333446,-0.176,0.140419,0
2024-12-11 19:39:46.542,-0.974477,1.30469,7.10579,-0.333446,-0.176,0.140419,0
2024-12-11 19:39:46.544,-0.907478,1.35015,7.18236,-0.363989,-0.23342,0.101324,0
2024-12-11 19:39:46.547,-0.8668,1.39801,7.28046,-0.374984,-0.259686,0.0842206,0
2024-12-11 19:39:46.549,-0.82343,1.4653,7.36421,-0.383536,-0.282288,0.066506,0
2024-12-11 19:39:46.554,-0.715753,1.59691,7.51974,-0.389033,-0.321993,0.0377962,0
2024-12-11 19:39:46.555,-0.715753,1.59691,7.51974,-0.391477,-0.339707,0.0237467,0
2024-12-11 19:39:46.556,-0.684646,1.67827,7.59661,-0.391477,-0.339707,0.0237467,0
2024-12-11 19:39:46.559,-0.646361,1.75962,7.65883,-0.390255,-0.353146,0.0133623,0
2024-12-11 19:39:46.561,-0.600898,1.84816,7.72343,-0.384757,-0.365363,0.00419957,0
2024-12-11 19:39:46.567,-0.50997,2.01356,7.86222,-0.359102,-0.385521,-0.0122933,0
2024-12-11 19:39:46.567,-0.50997,2.01356,7.86222,-0.359102,-0.385521,-0.0122933,0
2024-12-11 19:39:46.568,-0.45015,2.11167,7.91486,-0.359102,-0.385521,-0.0122933,0
2024-12-11 19:39:46.570,-0.375972,2.19541,7.93879,-0.344442,-0.38491,-0.0165692,0
2024-12-11 19:39:46.575,-0.210568,2.32941,7.934,-0.323673,-0.384299,-0.0232886,0
2024-12-11 19:39:46.576,-0.210568,2.32941,7.934,-0.309012,-0.383078,-0.0257319,0
2024-12-11 19:39:46.578,-0.148355,2.40359,7.934,-0.309012,-0.383078,-0.0257319,0
2024-12-11 19:39:46.581,-0.189033,2.55703,7.95314,-0.288244,-0.39224,-0.0251211,0
2024-12-11 19:39:46.583,-0.215354,2.67189,7.89332,-0.280303,-0.395295,-0.0220669,0
2024-12-11 19:39:46.584,-0.0741775,2.67428,7.83829,-0.280303,-0.395295,-0.0220669,0
2024-12-11 19:39:46.587,0.0334995,2.70299,7.867,-0.271751,-0.408733,-0.0220669,0
2024-12-11 19:39:46.590,0.100499,2.71017,7.83829,-0.259534,-0.437443,-0.0220669,0
2024-12-11 19:39:46.592,0.179462,2.68864,7.78086,-0.259534,-0.437443,-0.0220669,0
2024-12-11 19:39:46.595,0.248854,2.68624,7.74497,-0.250371,-0.463709,-0.0275645,0
2024-12-11 19:39:46.597,0.318545,2.68864,7.71625,-0.243041,-0.477148,-0.0318404,0
2024-12-11 19:39:46.600,0.387936,2.67906,7.68754,-0.24243,-0.490587,-0.0348946,0
2024-12-11 19:39:46.601,0.428614,2.68864,7.67079,-0.24243,-0.490587,-0.0348946,0
2024-12-11 19:39:46.604,0.440578,2.72931,7.63968,-0.233878,-0.510134,-0.0410031,0
2024-12-11 19:39:46.607,0.431007,2.74846,7.61576,-0.233878,-0.510134,-0.0410031,0
2024-12-11 19:39:46.608,0.41665,2.76042,7.60618,-0.226548,-0.517464,-0.0428357,0
2024-12-11 19:39:46.610,0.383151,2.79871,7.59183,-0.22105,-0.522351,-0.041614,0
2024-12-11 19:39:46.613,0.354437,2.82263,7.57478,-0.217385,-0.526627,-0.0385597,0
2024-12-11 19:39:46.615,0.342473,2.84656,7.5676,-0.211888,-0.530903,-0.0342838,0
2024-12-11 19:39:46.618,0.32333,2.87288,7.54607,-0.207001,-0.530292,-0.0275645,0
2024-12-11 19:39:46.620,0.30658,2.88245,7.52692,-0.202725,-0.531513,-0.0202343,0
2024-12-11 19:39:46.623,0.27996,2.89681,7.51974,-0.200282,-0.530292,-0.0110716,0
2024-12-11 19:39:46.624,0.265603,2.91595,7.50539,-0.197838,-0.526016,-7.63559e-05,0
2024-12-11 19:39:46.627,0.239282,2.93988,7.51496,-0.194784,-0.521129,0.0133623,0
2024-12-11 19:39:46.629,0.16989,2.94227,7.52932,-0.194784,-0.513188,0.0249684,0
2024-12-11 19:39:46.632,0.114855,2.94945,7.53889,-0.193562,-0.504025,0.0390179,0
2024-12-11 19:39:46.634,0.0957129,2.96142,7.54367,-0.192341,-0.492419,0.0548999,0
2024-12-11 19:39:46.637,0.0861416,2.9662,7.56521,-0.19173,-0.479591,0.0683385,0
2024-12-11 19:39:46.639,0.0909273,2.98535,7.59422,-0.189897,-0.466764,0.0817772,0
2024-12-11 19:39:46.641,0.0957129,3.01167,7.61576,-0.189286,-0.451492,0.0964375,0
2024-12-11 19:39:46.643,0.102891,3.03559,7.63251,-0.19173,-0.440497,0.11293,0
2024-12-11 19:39:46.646,0.124427,3.05952,7.66601,-0.19173,-0.425226,0.127591,0
2024-12-11 19:39:46.648,0.148355,3.1005,7.69472,-0.192341,-0.411177,0.140419,0
2024-12-11 19:39:46.650,0.174676,3.13161,7.71386,-0.193562,-0.398349,0.152025,0
2024-12-11 19:39:46.654,0.20339,3.16989,7.76411,-0.194173,-0.382467,0.16302,0
2024-12-11 19:39:46.655,0.215354,3.23211,7.81197,-0.197227,-0.367196,0.172793,0
2024-12-11 19:39:46.657,0.210568,3.28714,7.85025,-0.197227,-0.351924,0.178902,0
2024-12-11 19:39:46.661,0.208176,3.33021,7.89093,-0.196006,-0.315274,0.197227,0
2024-12-11 19:39:46.662,0.208176,3.37328,7.92682,-0.196006,-0.315274,0.197227,0
2024-12-11 19:39:46.665,0.198604,3.42353,7.9675,-0.197838,-0.293283,0.202114,0
2024-12-11 19:39:46.667,0.181855,3.47378,8.01775,-0.194173,-0.271293,0.207001,0
2024-12-11 19:39:46.669,0.172283,3.50967,8.07518,-0.192341,-0.249302,0.21372,0
2024-12-11 19:39:46.672,0.16989,3.5336,8.12543,-0.189286,-0.223646,0.221661,0
2024-12-11 19:39:46.674,0.174676,3.57428,8.17358,-0.189286,-0.19738,0.226548,0
2024-12-11 19:39:46.677,0.177069,3.60299,8.24776,-0.181345,-0.135074,0.232046,0
2024-12-11 19:39:46.680,0.172283,3.61735,8.3363,-0.175848,-0.104531,0.232046,0
2024-12-11 19:39:46.681,0.174676,3.6341,8.43201,-0.175848,-0.104531,0.232046,0
2024-12-11 19:39:46.684,0.172283,3.64876,8.52533,-0.170961,-0.0745997,0.230824,0
2024-12-11 19:39:46.686,0.172283,3.67029,8.6019,-0.163631,-0.0465007,0.227159,0
2024-12-11 19:39:46.689,0.16989,3.67747,8.68086,-0.153857,-0.0245102,0.222272,0
2024-12-11 19:39:46.690,0.155533,3.69422,8.77927,-0.144084,-0.0019089,0.214942,0
2024-12-11 19:39:46.693,0.141177,3.72293,8.87019,-0.135532,0.0133623,0.20639,0
2024-12-11 19:39:46.696,0.119641,3.75643,8.95394,-0.116595,0.038407,0.189286,0
2024-12-11 19:39:46.699,0.0741775,3.8019,9.04008,-0.1056,0.0494023,0.181345,0
2024-12-11 19:39:46.700,0.00717847,3.85215,9.12623,-0.1056,0.0494023,0.181345,0
2024-12-11 19:39:46.702,-0.0382852,3.89522,9.19562,-0.0970484,0.0573433,0.171572,0
2024-12-11 19:39:46.705,-0.0789631,3.94547,9.24347,-0.0842206,0.0628409,0.163631,0
2024-12-11 19:39:46.707,-0.107677,4.01725,9.27727,-0.0726145,0.0646735,0.156911,0
2024-12-11 19:39:46.709,-0.0550349,4.08664,9.30599,-0.0610084,0.0707819,0.14897,0
2024-12-11 19:39:46.712,-0.0287139,4.14886,9.38974,-0.0487914,0.0781121,0.141029,0
2024-12-11 19:39:46.714,-0.133998,4.21855,9.48306,-0.0365745,0.0860531,0.133088,0
2024-12-11 19:39:46.719,-0.347258,4.35254,9.67927,-0.00847551,0.0939941,0.114152,0
2024-12-11 19:39:46.719,-0.347258,4.35254,9.67927,-0.00847551,0.0939941,0.114152,0
2024-12-11 19:39:46.722,-0.383151,4.39083,9.77737,0.0153475,0.0738362,0.100713,0
2024-12-11 19:39:46.723,-0.390329,4.41715,9.85903,0.0153475,0.0738362,0.100713,0
2024-12-11 19:39:46.726,-0.411865,4.42433,9.91885,0.0269536,0.0591758,0.0921616,0
2024-12-11 19:39:46.729,-0.457328,4.43629,9.9667,0.037338,0.042683,0.0842206,0
2024-12-11 19:39:46.730,-0.488435,4.44586,10.0146,0.0446682,0.0249684,0.0781121,0
2024-12-11 19:39:46.738,-0.52672,4.48176,10.1868,0.0587177,-0.00740652,0.0634518,0
2024-12-11 19:39:46.738,-0.521934,4.48176,10.1868,0.0587177,-0.00740652,0.0634518,0
2024-12-11 19:39:46.739,-0.521934,4.48176,10.1868,0.0672696,-0.0348946,0.046348,0
2024-12-11 19:39:46.740,-0.498006,4.50329,10.2515,0.0672696,-0.0348946,0.046348,0
2024-12-11 19:39:46.745,-0.481256,4.56072,10.4073,0.0764323,-0.0587177,0.0249684,0
2024-12-11 19:39:46.747,-0.335294,4.60618,10.4958,0.0788757,-0.0703238,0.0121406,0
2024-12-11 19:39:46.747,-0.335294,4.60618,10.4958,0.0788757,-0.0703238,0.0121406,0
2024-12-11 19:39:46.750,-0.282652,4.6349,10.5245,0.0837624,-0.077654,-0.0019089,0
2024-12-11 19:39:46.753,-0.368794,4.65165,10.5269,0.0825407,-0.0819299,-0.0159584,0
2024-12-11 19:39:46.754,-0.452543,4.7019,10.6107,0.0794865,-0.0886492,-0.0330621,0
2024-12-11 19:39:46.757,-0.493221,4.74257,10.7279,0.0788757,-0.104531,-0.0477224,0
2024-12-11 19:39:46.759,-0.50997,4.7665,10.838,0.0739889,-0.132019,-0.0611611,0
2024-12-11 19:39:46.761,-0.550648,4.80509,10.9508,0.0678804,-0.160729,-0.0752106,0
2024-12-11 19:39:46.763,-0.605683,4.85534,11.0393,0.0617719,-0.186385,-0.0892601,0
2024-12-11 19:39:46.766,-0.658325,4.89123,11.1446,0.0550526,-0.213873,-0.101477,0
2024-12-11 19:39:46.769,-0.682254,4.91755,11.2594,0.037338,-0.256021,-0.123468,0
2024-12-11 19:39:46.772,-0.689432,4.9343,11.3647,0.0269536,-0.275568,-0.130798,0
2024-12-11 19:39:46.773,-0.694218,4.95583,11.482,0.0269536,-0.275568,-0.130798,0
2024-12-11 19:39:46.775,-0.651147,4.96541,11.6139,0.0141258,-0.29817,-0.138739,0
2024-12-11 19:39:46.779,-0.588933,4.95344,11.7503,0.00129805,-0.317106,-0.147291,0
2024-12-11 19:39:46.780,-0.584148,4.93909,11.8651,-0.0151948,-0.333599,-0.153399,0
2024-12-11 19:39:46.783,-0.610469,4.92951,12.0111,-0.0261901,-0.345205,-0.16134,0
2024-12-11 19:39:46.785,-0.634397,4.90559,12.1884,-0.0432938,-0.364752,-0.169281,0
2024-12-11 19:39:46.787,-0.643968,4.86491,12.3583,-0.0610084,-0.389797,-0.178444,0
2024-12-11 19:39:46.790,-0.598505,4.81705,12.5569,-0.0811663,-0.421561,-0.187606,0
2024-12-11 19:39:46.792,-0.52672,4.77159,12.7893,-0.0994917,-0.451492,-0.196769,0
2024-12-11 19:39:46.795,-0.464507,4.73779,13.0167,-0.135532,-0.513799,-0.220592,0
2024-12-11 19:39:46.796,-0.390329,4.71625,13.2443,-0.135532,-0.513799,-0.220592,0
2024-12-11 19:39:46.799,-0.320937,4.7019,13.4883,-0.152025,-0.5364,-0.230366,0
2024-12-11 19:39:46.802,-0.22014,4.6995,13.7157,-0.179513,-0.557169,-0.255411,0
2024-12-11 19:39:46.804,-0.117248,4.69711,13.905,-0.179513,-0.557169,-0.255411,0
2024-12-11 19:39:46.806,-0.100499,4.68993,14.094,-0.194173,-0.555947,-0.267017,0
2024-12-11 19:39:46.808,-0.0909273,4.68754,14.3264,-0.207001,-0.551061,-0.27679,0
2024-12-11 19:39:46.812,-0.0287139,4.69711,14.6016,-0.219829,-0.560223,-0.298781,0
2024-12-11 19:39:46.814,0.0622134,4.666,14.8552,-0.225937,-0.56511,-0.309165,0
2024-12-11 19:39:46.816,0.155533,4.60379,15.0733,-0.225937,-0.56511,-0.309165,0
2024-12-11 19:39:46.818,0.258425,4.57747,15.2671,-0.227159,-0.564499,-0.319549,0
2024-12-11 19:39:46.820,0.378365,4.57029,15.4373,-0.22777,-0.559612,-0.332988,0
2024-12-11 19:39:46.822,0.498006,4.5679,15.5904,-0.225937,-0.545563,-0.347648,0
2024-12-11 19:39:46.825,0.593719,4.58943,15.6861,-0.217996,-0.527238,-0.359255,0
2024-12-11 19:39:46.827,0.658325,4.64208,15.7292,-0.21372,-0.504025,-0.373915,0
2024-12-11 19:39:46.830,0.725324,4.71147,15.7436,-0.207001,-0.472872,-0.389797,1
2024-12-11 19:39:46.832,0.794716,4.78116,15.7173,-0.195395,-0.436832,-0.403236,0
2024-12-11 19:39:46.835,0.869193,4.87448,15.655,-0.171572,-0.357422,-0.432556,0
2024-12-11 19:39:46.836,0.938585,4.97258,15.5641,-0.171572,-0.357422,-0.432556,0
2024-12-11 19:39:46.839,0.984048,5.07787,15.466,-0.156301,-0.325658,-0.447827,0
2024-12-11 19:39:46.841,0.99362,5.18315,15.3485,-0.142251,-0.300002,-0.462488,0
2024-12-11 19:39:46.845,1.0008,5.24776,15.1834,-0.128812,-0.277401,-0.477148,0
2024-12-11 19:39:46.846,1.04148,5.27169,14.9991,-0.115985,-0.26213,-0.494252,0
2024-12-11 19:39:46.849,1.12762,5.26929,14.8146,-0.103768,-0.253578,-0.515631,0
2024-12-11 19:39:46.851,1.2664,5.22862,14.616,-0.094605,-0.251135,-0.537622,0
2024-12-11 19:39:46.853,1.42463,5.15205,14.4269,-0.0872748,-0.255411,-0.562667,0
2024-12-11 19:39:46.856,1.60409,5.04676,14.2567,-0.082388,-0.264573,-0.591987,0
2024-12-11 19:39:46.858,1.7668,4.91276,14.0892,-0.0793338,-0.274347,-0.623751,0
2024-12-11 19:39:46.860,1.90558,4.74497,13.9505,-0.0756687,-0.287175,-0.659181,0
2024-12-11 19:39:46.863,2.03031,4.56311,13.8547,-0.0738362,-0.301835,-0.693388,0
2024-12-11 19:39:46.865,2.14038,4.37887,13.8021,-0.074447,-0.322604,-0.731871,0
2024-12-11 19:39:46.868,2.23131,4.17278,13.7925,-0.0799446,-0.361698,-0.798454,0
2024-12-11 19:39:46.870,2.22174,4.034,13.8428,-0.0799446,-0.361698,-0.798454,0
2024-12-11 19:39:46.872,2.17866,3.8665,13.8643,-0.0860531,-0.384299,-0.825942,0
2024-12-11 19:39:46.874,2.19063,3.57906,13.8906,-0.0970484,-0.398349,-0.85343,0
2024-12-11 19:39:46.878,2.21456,3.28475,14.0079,-0.1056,-0.404457,-0.904741,0
2024-12-11 19:39:46.879,2.19541,3.04038,14.161,-0.1056,-0.404457,-0.904741,0
2024-12-11 19:39:46.882,2.1667,2.82263,14.2807,-0.113541,-0.403236,-0.924899,0
2024-12-11 19:39:46.885,2.16909,2.58335,14.3575,-0.122093,-0.392851,-0.943835,0
2024-12-11 19:39:46.887,2.17627,2.39402,14.4413,-0.127591,-0.336042,-0.974989,0
2024-12-11 19:39:46.889,2.18106,2.21695,14.5226,-0.127591,-0.336042,-0.974989,0
2024-12-11 19:39:46.891,2.19063,2.02552,14.6136,-0.12698,-0.294505,-0.989649,0
2024-12-11 19:39:46.894,2.2002,1.85773,14.7165,-0.117817,-0.177833,-1.00492,0
2024-12-11 19:39:46.896,2.1667,1.70219,14.8122,-0.117817,-0.177833,-1.00492,0
2024-12-11 19:39:46.898,2.09492,1.55384,14.9106,-0.104379,-0.104531,-1.0092,0
2024-12-11 19:39:46.900,2.01356,1.38126,14.9848,-0.0878856,-0.0275645,-1.01042,0
2024-12-11 19:39:46.902,1.91516,1.19222,15.0254,-0.0652843,0.058565,-1.0092,0
2024-12-11 19:39:46.905,1.80509,1.01755,15.0422,-0.0408504,0.147138,-1.00248,0
2024-12-11 19:39:46.907,1.65673,0.854836,15.0446,-0.0096972,0.241819,-0.995147,0
2024-12-11 19:39:46.910,1.47488,0.701396,15.0422,0.0245102,0.341387,-0.981097,0
2024-12-11 19:39:46.912,1.32383,0.56022,15.0254,0.0660479,0.445842,-0.964604,0
2024-12-11 19:39:46.915,1.20897,0.445364,14.9895,0.110029,0.554573,-0.943225,0
2024-12-11 19:39:46.917,1.10848,0.347258,14.8914,0.156453,0.669412,-0.921845,0
2024-12-11 19:39:46.919,0.99362,0.258425,14.75,0.210208,0.789138,-0.899854,0
2024-12-11 19:39:46.921,0.881157,0.196211,14.6088,0.26213,0.902221,-0.876031,0
2024-12-11 19:39:46.925,0.770788,0.165105,14.4293,0.379413,1.09891,-0.832661,0
2024-12-11 19:39:46.926,0.651147,0.172283,14.2208,0.379413,1.09891,-0.832661,0
2024-12-11 19:39:46.929,0.545863,0.193819,13.9911,0.438665,1.1771,-0.811892,0
2024-12-11 19:39:46.932,0.4669,0.222533,13.6989,0.50036,1.24979,-0.791734,0
2024-12-11 19:39:46.933,0.375972,0.260818,13.34,0.559002,1.31271,-0.773409,0
2024-12-11 19:39:46.935,0.27996,0.308973,12.9425,0.61581,1.37196,-0.759359,0
2024-12-11 19:39:46.938,0.193819,0.342473,12.5258,0.670176,1.42388,-0.742256,0
2024-12-11 19:39:46.941,0.102891,0.383151,12.0832,0.769744,1.49535,-0.714768,0
2024-12-11 19:39:46.943,0.0334995,0.431007,11.6354,0.769744,1.49535,-0.714768,0
2024-12-11 19:39:46.947,-0.0789631,0.438186,10.7686,0.814336,1.52895,-0.695831,0
2024-12-11 19:39:46.950,-0.165105,0.45015,10.3472,0.887637,1.5204,-0.68789,0
2024-12-11 19:39:46.952,-0.30658,0.462114,9.93081,0.887637,1.50085,-0.681171,0
2024-12-11 19:39:46.953,-0.30658,0.462114,9.93081,0.943835,1.47397,-0.67323,0
2024-12-11 19:39:46.955,-0.462114,0.474078,9.55723,0.968269,1.43977,-0.664067,0
2024-12-11 19:39:46.958,-0.639183,0.490828,9.12383,0.987206,1.40434,-0.650018,0
2024-12-11 19:39:46.959,-0.854836,0.52672,8.64975,0.987206,1.40434,-0.650018,0
2024-12-11 19:39:46.962,-1.06062,0.562612,8.34108,1.00003,1.35914,-0.635357,0
2024-12-11 19:39:46.964,-1.22333,0.565005,8.12303,1.0092,1.29988,-0.616421,0
2024-12-11 19:39:46.967,-1.36929,0.572184,7.90768,1.02447,1.15328,-0.568164,0
2024-12-11 19:39:46.969,-1.50598,0.586541,7.67797,1.02447,1.15328,-0.568164,0
2024-12-11 19:39:46.971,-1.60887,0.610469,7.38096,1.0263,1.06593,-0.541287,0
2024-12-11 19:39:46.973,-1.69502,0.646361,7.03879,1.02447,0.974301,-0.513799,0
2024-12-11 19:39:46.975,-1.77159,0.670289,6.71785,1.01958,0.874733,-0.485089,0
2024-12-11 19:39:46.978,-1.8338,0.703789,6.45464,1.01408,0.775089,-0.45699,0
2024-12-11 19:39:46.980,-1.86251,0.734896,6.24138,1.00553,0.673077,-0.426448,0
2024-12-11 19:39:46.983,-1.86491,0.756431,5.9997,0.995757,0.568622,-0.39896,0
2024-12-11 19:39:46.985,-1.85294,0.768395,5.76012,0.976821,0.459281,-0.373304,0
2024-12-11 19:39:46.987,-1.83141,0.777966,5.60937,0.960939,0.351772,-0.347038,0
2024-12-11 19:39:46.990,-1.79791,0.797109,5.52323,0.942614,0.24243,-0.325047,0
2024-12-11 19:39:46.992,-1.75962,0.833001,5.46581,0.919401,0.133088,-0.302446,0
2024-12-11 19:39:46.995,-1.71177,0.893121,5.38206,0.899854,0.0286335,-0.281066,0
2024-12-11 19:39:46.997,-1.62323,0.948156,5.28126,0.88214,-0.0739889,-0.260297,0
2024-12-11 19:39:46.999,-1.52752,0.988834,5.2334,0.858317,-0.171724,-0.247469,0
2024-12-11 19:39:47.001,-1.43898,1.02951,5.22622,0.839381,-0.261519,-0.229755,0
2024-12-11 19:39:47.005,-1.34297,1.07976,5.18555,0.794789,-0.438054,-0.207154,0
2024-12-11 19:39:47.006,-1.26401,1.13719,5.11855,0.794789,-0.438054,-0.207154,0
2024-12-11 19:39:47.008,-1.1994,1.20419,5.07308,0.772798,-0.517464,-0.19738,0
2024-12-11 19:39:47.011,-1.14197,1.27837,5.03719,0.750808,-0.598707,-0.191882,0
2024-12-11 19:39:47.014,-1.16351,1.35015,5.01087,0.728206,-0.673841,-0.185774,0
2024-12-11 19:39:47.015,-1.45813,1.34058,4.85773,0.702551,-0.744699,-0.177222,0
2024-12-11 19:39:47.018,-1.65912,1.32383,4.74975,0.67323,-0.810671,-0.158897,0
2024-12-11 19:39:47.020,-1.5323,1.39801,4.88884,0.646964,-0.869312,-0.13935,0
2024-12-11 19:39:47.023,-1.41266,1.50838,5.05155,0.623751,-0.920012,-0.123468,0
2024-12-11 19:39:47.025,-1.29512,1.61127,5.12573,0.601761,-0.966437,-0.108807,0
2024-12-11 19:39:47.027,-1.14676,1.67109,5.14008,0.577938,-1.01592,-0.0978119,0
2024-12-11 19:39:47.031,-0.972084,1.72852,5.14487,0.553504,-1.06662,-0.0892601,0
2024-12-11 19:39:47.032,-0.787538,1.78594,5.1353,0.526627,-1.11793,-0.0874275,0
2024-12-11 19:39:47.035,-0.617647,1.81705,5.11855,0.501582,-1.16435,-0.0880384,0
2024-12-11 19:39:47.037,-0.474078,1.83619,5.08744,0.472872,-1.20467,-0.0923143,0
2024-12-11 19:39:47.039,-0.368794,1.85533,5.04915,0.44233,-1.23338,-0.10392,0
2024-12-11 19:39:47.041,-0.308973,1.89123,5.03001,0.413009,-1.24987,-0.114916,0
2024-12-11 19:39:47.045,-0.292223,1.89601,5.02762,0.353146,-1.25659,-0.137517,0
2024-12-11 19:39:47.046,-0.294616,1.86969,5.0348,0.353146,-1.25659,-0.137517,0
2024-12-11 19:39:47.049,-0.328116,1.85773,5.07069,0.325658,-1.24743,-0.147901,0
2024-12-11 19:39:47.051,-0.387936,1.84816,5.18794,0.293894,-1.23704,-0.15401,0
2024-12-11 19:39:47.053,-0.502792,1.81466,5.32194,0.267017,-1.2236,-0.158286,0
2024-12-11 19:39:47.057,-0.643968,1.77876,5.42034,0.215095,-1.18268,-0.15401,0
2024-12-11 19:39:47.059,-0.754038,1.75484,5.47777,0.19005,-1.15885,-0.147901,0
2024-12-11 19:39:47.060,-0.845265,1.71416,5.53998,0.19005,-1.15885,-0.147901,0
2024-12-11 19:39:47.063,-0.919442,1.67348,5.60698,0.163173,-1.12709,-0.140571,0
2024-12-11 19:39:47.065,-0.97687,1.6352,5.69312,0.142404,-1.09288,-0.128354,0
2024-12-11 19:39:47.067,-1.01755,1.59691,5.77209,0.11797,-1.05196,-0.116748,0
2024-12-11 19:39:47.070,-1.04387,1.56102,5.82712,0.0972011,-1.00614,-0.0990336,0
2024-12-11 19:39:47.073,-1.05344,1.54188,5.88933,0.0587177,-0.901687,-0.0678804,0
2024-12-11 19:39:47.075,-1.04626,1.52991,5.94945,0.0587177,-0.901687,-0.0678804,0
2024-12-11 19:39:47.077,-1.02473,1.51316,5.9997,0.0422248,-0.847322,-0.0526092,0
2024-12-11 19:39:47.079,-0.998405,1.50838,6.03799,0.0251211,-0.786237,-0.0355055,0
2024-12-11 19:39:47.081,-0.955334,1.48923,6.07388,0.00862822,-0.727595,-0.0232886,0
2024-12-11 19:39:47.084,-0.888335,1.47966,6.10259,-0.00664296,-0.668343,-0.0129041,0
2024-12-11 19:39:47.086,-0.811466,1.49641,6.11456,-0.0188599,-0.607869,-0.00435229,0
2024-12-11 19:39:47.088,-0.739681,1.5012,6.10499,-0.038407,-0.544341,0.00114534,0
2024-12-11 19:39:47.091,-0.672682,1.50598,6.1002,-0.050624,-0.482646,0.00542127,0
2024-12-11 19:39:47.093,-0.605683,1.53948,6.11217,-0.0640626,-0.419118,0.00664296,0
2024-12-11 19:39:47.097,-0.533899,1.58495,6.10499,-0.0927724,-0.304889,0.00236703,0
2024-12-11 19:39:47.098,-0.457328,1.63998,6.08824,-0.0927724,-0.304889,0.00236703,0
2024-12-11 19:39:47.100,-0.392722,1.6998,6.07149,-0.109265,-0.249302,-0.00251974,0
2024-12-11 19:39:47.103,-0.349651,1.75244,6.04756,-0.122093,-0.194937,-0.00984991,0
2024-12-11 19:39:47.105,-0.320937,1.81466,6.02842,-0.136753,-0.144847,-0.0165692,0
2024-12-11 19:39:47.107,-0.299402,1.88405,6.01167,-0.150803,-0.0965902,-0.0269536,0
2024-12-11 19:39:47.110,-0.294616,1.94387,6.00449,-0.164242,-0.0507767,-0.0361163,0
2024-12-11 19:39:47.113,-0.308973,1.9992,5.9997,-0.194173,0.0322986,-0.0581068,0
2024-12-11 19:39:47.115,-0.332901,2.07817,5.98774,-0.194173,0.0322986,-0.0581068,0
2024-12-11 19:39:47.117,-0.364008,2.15474,5.95663,-0.210666,0.0646735,-0.0691021,0
2024-12-11 19:39:47.119,-0.397508,2.21456,5.95185,-0.22777,0.0939941,-0.0782648,0
2024-12-11 19:39:47.121,-0.426222,2.27199,5.97099,-0.243652,0.114763,-0.0886492,0
2024-12-11 19:39:47.124,-0.459721,2.32941,5.98295,-0.258923,0.131867,-0.0972011,0
2024-12-11 19:39:47.126,-0.490828,2.39163,5.99492,-0.269918,0.150192,-0.104531,0
2024-12-11 19:39:47.130,-0.507577,2.43948,6.0021,-0.283968,0.159966,-0.108196,0
2024-12-11 19:39:47.131,-0.541077,2.47777,6.01645,-0.297406,0.165463,-0.114916,0
2024-12-11 19:39:47.134,-0.567398,2.50887,6.02124,-0.309623,0.169128,-0.119192,0
2024-12-11 19:39:47.136,-0.591326,2.53789,6.03081,-0.319397,0.17035,-0.121024,0
2024-12-11 19:39:47.139,-0.629611,2.56899,6.05713,-0.345663,0.153857,-0.124078,0
2024-12-11 19:39:47.140,-0.672682,2.59532,6.10738,-0.345663,0.153857,-0.124078,0
2024-12-11 19:39:47.144,-0.715753,2.62881,6.17438,-0.354826,0.141029,-0.124689,0
2024-12-11 19:39:47.145,-0.751645,2.64796,6.23899,-0.360324,0.119039,-0.122857,0
2024-12-11 19:39:47.148,-0.787538,2.66231,6.32034,-0.369486,0.094605,-0.119192,0
2024-12-11 19:39:47.150,-0.830609,2.69342,6.4017,-0.371319,0.0671168,-0.117359,0
2024-12-11 19:39:47.152,-0.869193,2.71735,6.49771,-0.374984,0.0414613,-0.113694,0
2024-12-11 19:39:47.155,-0.907478,2.73649,6.62214,-0.376816,0.00908635,-0.108196,0
2024-12-11 19:39:47.157,-0.924228,2.77717,6.72742,-0.376206,-0.0208452,-0.0990336,0
2024-12-11 19:39:47.159,-0.919442,2.82742,6.81835,-0.373762,-0.0501658,-0.093536,0
2024-12-11 19:39:47.163,-0.9003,2.88245,6.92363,-0.367043,-0.0764323,-0.0849841,0
2024-12-11 19:39:47.164,-0.852443,2.94467,7.02922,-0.359102,-0.104531,-0.0739889,0
2024-12-11 19:39:47.167,-0.80668,3.01167,7.12254,-0.334668,-0.157064,-0.0568851,0
2024-12-11 19:39:47.169,-0.749253,3.05234,7.21586,-0.334668,-0.157064,-0.0568851,0
2024-12-11 19:39:47.171,-0.694218,3.07388,7.29482,-0.323062,-0.180276,-0.0477224,0
2024-12-11 19:39:47.174,-0.658325,3.11246,7.35225,-0.292519,-0.219981,-0.0287862,0
2024-12-11 19:39:47.177,-0.600898,3.15075,7.40728,-0.274805,-0.231587,-0.021456,0
2024-12-11 19:39:47.179,-0.550648,3.201,7.46949,-0.258312,-0.241361,-0.0110716,0
2024-12-11 19:39:47.181,-0.521934,3.25125,7.53889,-0.258312,-0.241361,-0.0110716,0
2024-12-11 19:39:47.183,-0.500399,3.27278,7.62054,-0.241208,-0.243194,-0.00251974,0
2024-12-11 19:39:47.185,-0.462114,3.28953,7.68993,-0.219218,-0.244415,0.00542127,0
2024-12-11 19:39:47.187,-0.404686,3.31825,7.73061,-0.198449,-0.24075,0.0133623,0
2024-12-11 19:39:47.190,-0.364008,3.34457,7.76411,-0.179513,-0.23342,0.0219141,0
2024-12-11 19:39:47.193,-0.332901,3.38525,7.78804,-0.138586,-0.206543,0.042683,0
2024-12-11 19:39:47.194,-0.316152,3.44746,7.80958,-0.138586,-0.206543,0.042683,0
2024-12-11 19:39:47.198,-0.292223,3.50728,7.82393,-0.102546,-0.176611,0.0610084,0
2024-12-11 19:39:47.200,-0.253639,3.59342,7.82632,-0.102546,-0.176611,0.0610084,0
2024-12-11 19:39:47.202,-0.236889,3.70379,7.8359,-0.0842206,-0.156453,0.0689494,0
2024-12-11 19:39:47.204,-0.236889,3.80429,7.84786,-0.0658951,-0.13935,0.0762796,0
2024-12-11 19:39:47.207,-0.246461,3.91914,7.85265,-0.046348,-0.110029,0.0964375,0
2024-12-11 19:39:47.209,-0.239282,4.03879,7.87897,-0.046348,-0.110029,0.0964375,0
2024-12-11 19:39:47.212,-0.227318,4.15843,7.94118,-0.0261901,-0.0843733,0.113541,0
2024-12-11 19:39:47.213,-0.20339,4.29272,7.99621,-0.0261901,-0.0843733,0.113541,0
2024-12-11 19:39:47.217,-0.162712,4.39083,8.04646,-0.0115297,-0.0623828,0.127591,0
2024-12-11 19:39:47.218,-0.129212,4.46979,8.10868,-0.0115297,-0.0623828,0.127591,0
2024-12-11 19:39:47.221,-0.102891,4.53679,8.1688,-0.00603212,-0.0538309,0.132477,0
2024-12-11 19:39:47.224,-0.105284,4.57508,8.22622,0.00129805,-0.0465007,0.139197,0
2024-12-11 19:39:47.225,-0.124427,4.61815,8.28126,0.00129805,-0.0465007,0.139197,0
2024-12-11 19:39:47.227,-0.157926,4.63011,8.35304,0.000687203,-0.0465007,0.14164,0
2024-12-11 19:39:47.230,-0.189033,4.59183,8.44158,-0.00236703,-0.0446682,0.14164,0
2024-12-11 19:39:47.232,-0.208176,4.55115,8.54208,-0.00481042,-0.0422248,0.141029,0
2024-12-11 19:39:47.235,-0.244068,4.51526,8.67847,-0.0164165,-0.0440574,0.140419,0
2024-12-11 19:39:47.237,-0.297009,4.46979,8.80319,-0.0231358,-0.0410031,0.140419,0
2024-12-11 19:39:47.239,-0.361615,4.40279,8.92044,-0.0341311,-0.0428357,0.136753,0
2024-12-11 19:39:47.243,-0.438186,4.35254,9.05923,-0.0597867,-0.0519984,0.131867,0
2024-12-11 19:39:47.244,-0.555434,4.31905,9.2004,-0.0597867,-0.0519984,0.131867,0
2024-12-11 19:39:47.246,-0.679861,4.27597,9.36102,-0.0768904,-0.057496,0.133088,0
2024-12-11 19:39:47.249,-0.787538,4.22572,9.52852,-0.0964375,-0.0629936,0.134921,0
2024-12-11 19:39:47.251,-0.907478,4.17996,9.70319,-0.115985,-0.0684913,0.139197,0
2024-12-11 19:39:47.253,-0.979263,4.12732,9.86621,-0.134921,-0.0697129,0.143473,0
2024-12-11 19:39:47.256,-1.00319,4.04118,10.0026,-0.156301,-0.0672696,0.145916,0
2024-12-11 19:39:47.258,-1.02473,4.01725,10.1701,-0.181345,-0.0629936,0.152025,0
2024-12-11 19:39:47.261,-1.09173,4.06511,10.3977,-0.205168,-0.0587177,0.158744,0
2024-12-11 19:39:47.264,-1.18983,4.08664,10.649,-0.249149,-0.0562743,0.177069,0
2024-12-11 19:39:47.266,-1.25683,4.08425,10.9313,-0.249149,-0.0562743,0.177069,0
2024-12-11 19:39:47.268,-1.30229,4.09143,11.2522,-0.267475,-0.0562743,0.185621,0
2024-12-11 19:39:47.270,-1.32144,4.07946,11.5684,-0.287633,-0.0562743,0.200282,0
2024-12-11 19:39:47.273,-1.27358,4.03161,11.8555,-0.321229,-0.0538309,0.219218,0
2024-12-11 19:39:47.276,-1.18265,4.00768,12.1262,-0.33589,-0.0471116,0.229602,0
2024-12-11 19:39:47.277,-1.11326,4.01246,12.4038,-0.33589,-0.0471116,0.229602,0
2024-12-11 19:39:47.279,-1.0654,4.02204,12.6697,-0.348107,-0.0403923,0.2351,0
2024-12-11 19:39:47.283,-1.00798,4.03879,12.9281,-0.373151,-0.0312296,0.244263,0
2024-12-11 19:39:47.284,-0.955334,4.08425,13.206,-0.373151,-0.0312296,0.244263,0
2024-12-11 19:39:47.287,-0.902692,4.12493,13.5051,-0.385368,-0.0226777,0.246706,0
2024-12-11 19:39:47.290,-0.830609,4.16321,13.7949,-0.401861,-0.00740652,0.249149,0
2024-12-11 19:39:47.291,-0.737288,4.21137,14.0725,-0.401861,-0.00740652,0.249149,0
2024-12-11 19:39:47.294,-0.639183,4.27119,14.3504,-0.406137,0.00297788,0.247928,0
2024-12-11 19:39:47.296,-0.565005,4.3334,14.5825,-0.411635,0.0151948,0.246706,0
2024-12-11 19:39:47.298,-0.495613,4.38126,14.7811,-0.411635,0.0274118,0.245484,0
2024-12-11 19:39:47.300,-0.421436,4.41715,14.956,-0.415911,0.0420721,0.243652,0
2024-12-11 19:39:47.303,-0.347258,4.45304,15.09,-0.417132,0.0561216,0.239987,0
2024-12-11 19:39:47.305,-0.318545,4.51526,15.1977,-0.419576,0.0707819,0.240597,0
2024-12-11 19:39:47.309,-0.471685,4.61336,15.2504,-0.416521,0.0854423,0.239376,0
2024-12-11 19:39:47.310,-0.581755,4.67558,15.2192,-0.415911,0.110487,0.244873,0
2024-12-11 19:39:47.313,-0.45015,4.7019,15.1355,-0.419576,0.17035,0.266253,0
2024-12-11 19:39:47.316,-0.248854,4.74257,15.0996,-0.421408,0.186843,0.273583,0
2024-12-11 19:39:47.317,-0.107677,4.79552,15.1618,-0.421408,0.186843,0.273583,0
2024-12-11 19:39:47.319,-0.0382852,4.82902,15.2551,-0.423241,0.19173,0.280303,0
2024-12-11 19:39:47.322,-0.00717847,4.85773,15.2815,-0.423241,0.189286,0.286411,0
2024-12-11 19:39:47.324,0.00717847,4.89601,15.2073,-0.424462,0.188675,0.290687,0
2024-12-11 19:39:47.327,0.0143569,4.94626,15.0278,-0.423852,0.195395,0.298017,0
2024-12-11 19:39:47.330,0.0191426,5.00608,14.7882,-0.415911,0.249149,0.309623,0
2024-12-11 19:39:47.332,0.0430708,5.0994,14.537,-0.407359,0.29313,0.312067,0
2024-12-11 19:39:47.334,0.0957129,5.1999,14.2926,-0.407359,0.29313,0.312067,0
2024-12-11 19:39:47.336,0.184247,5.29322,14.0821,-0.402472,0.3365,0.315732,0
2024-12-11 19:39:47.338,0.297009,5.39163,13.9217,-0.395142,0.374984,0.317564,0
2024-12-11 19:39:47.342,0.395115,5.47538,13.8021,-0.390866,0.420187,0.309012,0
2024-12-11 19:39:47.344,0.490828,5.5328,13.6989,-0.390866,0.420187,0.309012,0
2024-12-11 19:39:47.345,0.569791,5.57587,13.6176,-0.395142,0.422019,0.295574,0
2024-12-11 19:39:47.349,0.593719,5.59502,13.5577,-0.409191,0.390255,0.262588,0
2024-12-11 19:39:47.350,0.584148,5.55673,13.5266,-0.409191,0.390255,0.262588,0
2024-12-11 19:39:47.353,0.557827,5.48255,13.5458,-0.434847,0.318175,0.216774,0
2024-12-11 19:39:47.356,0.454935,5.37009,13.6223,-0.452561,0.274194,0.19173,0
2024-12-11 19:39:47.357,0.292223,5.1999,13.7614,-0.452561,0.274194,0.19173,0
2024-12-11 19:39:47.359,0.0909273,4.97498,13.9816,-0.469665,0.229602,0.169739,0
2024-12-11 19:39:47.362,-0.160319,4.69711,14.2328,-0.485547,0.179513,0.152635,0
2024-12-11 19:39:47.364,-0.371187,4.39083,14.4891,-0.504483,0.125147,0.140419,0
2024-12-11 19:39:47.366,-0.495613,4.06032,14.7212,-0.524031,0.0579541,0.130645,0
2024-12-11 19:39:47.369,-0.62004,3.75643,14.8914,-0.548464,-0.00801737,0.125758,0
2024-12-11 19:39:47.372,-0.773181,3.51924,15.0613,-0.597332,-0.129576,0.123315,0
2024-12-11 19:39:47.375,-0.964906,3.30868,15.2551,-0.597332,-0.129576,0.123315,0
2024-12-11 19:39:47.376,-1.15633,3.12921,15.4493,-0.621155,-0.177222,0.130034,0
2024-12-11 19:39:47.379,-1.27358,2.94706,15.6526,-0.665136,-0.246248,0.153246,0
2024-12-11 19:39:47.381,-1.33101,2.75324,15.868,-0.665136,-0.246248,0.153246,0
2024-12-11 19:39:47.383,-1.36211,2.57139,16.1028,-0.682851,-0.271293,0.170961,0
2024-12-11 19:39:47.385,-1.36211,2.39402,16.3493,-0.698122,-0.292061,0.192951,0
2024-12-11 19:39:47.388,-1.30229,2.20499,16.5769,-0.706674,-0.306722,0.215553,0
2024-12-11 19:39:47.390,-1.20897,1.98963,16.7492,-0.71095,-0.310387,0.238154,0
2024-12-11 19:39:47.392,-1.11326,1.77398,16.8592,-0.713393,-0.3055,0.263199,1
2024-12-11 19:39:47.396,-0.986441,1.58255,16.9286,-0.688959,-0.253578,0.30718,0
2024-12-11 19:39:47.397,-0.794716,1.39801,16.9526,-0.688959,-0.253578,0.30718,0
2024-12-11 19:39:47.399,-0.569791,1.20897,16.931,-0.668801,-0.21204,0.327949,0
2024-12-11 19:39:47.402,-0.344866,1.04865,16.876,-0.644368,-0.162562,0.345052,0
2024-12-11 19:39:47.404,-0.114855,0.895514,16.7898,-0.613825,-0.102088,0.356048,0
2024-12-11 19:39:47.407,0.124427,0.773181,16.6917,-0.579618,-0.0391706,0.366432,0
2024-12-11 19:39:47.409,0.34008,0.682254,16.5817,-0.541745,0.0268009,0.371319,0
2024-12-11 19:39:47.411,0.517149,0.612862,16.4378,-0.499597,0.094605,0.371319,0
2024-12-11 19:39:47.415,0.677468,0.572184,16.2512,-0.450729,0.157522,0.370097,0
2024-12-11 19:39:47.416,0.809073,0.548256,16.0549,-0.400029,0.225326,0.362156,0
2024-12-11 19:39:47.418,0.897907,0.52672,15.8369,-0.345052,0.285189,0.352383,0
2024-12-11 19:39:47.421,0.967299,0.50997,15.5928,-0.287633,0.346885,0.341998,0
2024-12-11 19:39:47.423,0.986441,0.505185,15.3485,-0.224105,0.409802,0.330392,0
2024-12-11 19:39:47.426,0.972084,0.507577,15.0805,-0.159966,0.471498,0.316343,0
2024-12-11 19:39:47.428,0.926621,0.521934,14.7763,-0.094605,0.535026,0.305958,0
2024-12-11 19:39:47.430,0.821037,0.541077,14.4341,-0.0298552,0.598554,0.295574,0
2024-12-11 19:39:47.433,0.691825,0.576969,14.0581,0.0391706,0.659639,0.288244,0
2024-12-11 19:39:47.435,0.550648,0.632004,13.6726,0.110029,0.718891,0.283357,0
2024-12-11 19:39:47.437,0.397508,0.701396,13.2873,0.176611,0.768369,0.279081,0
2024-12-11 19:39:47.439,0.244068,0.761217,12.8922,0.245026,0.817314,0.277248,0
2024-12-11 19:39:47.442,0.107677,0.797109,12.5043,0.310998,0.861905,0.277859,0
2024-12-11 19:39:47.445,-0.0191426,0.828216,12.1286,0.444162,0.928488,0.280913,0
2024-12-11 19:39:47.447,-0.122034,0.845265,11.7168,0.444162,0.928488,0.280913,0
2024-12-11 19:39:47.449,-0.244068,0.835394,11.2834,0.505858,0.948035,0.281524,0
2024-12-11 19:39:47.452,-0.392722,0.84018,10.85,0.621308,0.974301,0.286411,0
2024-12-11 19:39:47.455,-0.519542,0.842872,10.3953,0.621308,0.974301,0.286411,0
2024-12-11 19:39:47.456,-0.639183,0.84018,9.97149,0.672008,0.984686,0.291298,0
2024-12-11 19:39:47.459,-0.756431,0.84018,9.59791,0.722709,0.990183,0.293741,0
2024-12-11 19:39:47.461,-0.873978,0.84018,9.2677,0.766079,0.992016,0.294963,0
2024-12-11 19:39:47.464,-1.00558,0.830609,8.98266,0.847322,0.966971,0.297406,0
2024-12-11 19:39:47.466,-1.11565,0.818644,8.70748,0.847322,0.966971,0.297406,0
2024-12-11 19:39:47.468,-1.20419,0.816252,8.42962,0.879696,0.942537,0.30046,0
2024-12-11 19:39:47.470,-1.29272,0.804287,8.15923,0.909017,0.907719,0.30046,0
2024-12-11 19:39:47.473,-1.32144,0.737288,7.90529,0.934673,0.867403,0.304126,0
2024-12-11 19:39:47.475,-1.37886,0.701396,7.74497,0.957274,0.818535,0.312067,0
2024-12-11 19:39:47.477,-1.52752,0.754038,7.55803,0.976821,0.776921,0.317564,0
2024-12-11 19:39:47.479,-1.68066,0.785145,7.32353,0.995757,0.737216,0.323062,0
2024-12-11 19:39:47.482,-1.79791,0.797109,7.14168,1.0092,0.695679,0.328559,0
2024-12-11 19:39:47.484,-1.89362,0.801895,6.94995,1.02508,0.656584,0.334057,0
2024-12-11 19:39:47.488,-1.53948,0.859622,6.59821,1.03241,0.535637,0.318786,0
2024-12-11 19:39:47.489,-1.21615,0.909871,6.41845,1.03241,0.535637,0.318786,0
2024-12-11 19:39:47.491,-1.45334,0.902692,6.44477,1.03302,0.484326,0.305347,0
2024-12-11 19:39:47.495,-1.67827,0.914656,6.24138,1.03424,0.436679,0.296185,0
2024-12-11 19:39:47.496,-1.81466,0.924228,6.04995,1.02386,0.381703,0.288244,0
2024-12-11 19:39:47.499,-1.89841,0.936192,6.00449,1.01286,0.331614,0.282746,0
2024-12-11 19:39:47.501,-1.96062,0.948156,5.97338,1.00064,0.280913,0.280913,0
2024-12-11 19:39:47.503,-1.97049,0.945763,5.90878,0.984762,0.230824,0.282746,0
2024-12-11 19:39:47.506,-1.92233,0.909871,5.85823,0.963993,0.17768,0.282746,0
2024-12-11 19:39:47.508,-1.87448,0.864407,5.82712,0.943225,0.117817,0.283968,0
2024-12-11 19:39:47.510,-1.80987,0.854836,5.78884,0.915126,0.0591758,0.2858,0
2024-12-11 19:39:47.512,-1.68305,0.878764,5.72423,0.883362,-7.63559e-05,0.287633,0
2024-12-11 19:39:47.515,-1.54666,0.909871,5.67877,0.851597,-0.0587177,0.285189,0
2024-12-11 19:39:47.517,-1.41266,0.94337,5.61177,0.851597,-0.0587177,0.285189,0
2024-12-11 19:39:47.522,-1.25922,1.04387,5.50888,0.742256,-0.221814,0.263199,0
2024-12-11 19:39:47.522,-1.13958,1.04387,5.50888,0.742256,-0.221814,0.263199,0
2024-12-11 19:39:47.525,-0.988834,1.08455,5.46341,0.706827,-0.261519,0.250371,0
2024-12-11 19:39:47.528,-0.804287,1.13958,5.4012,0.62253,-0.323825,0.22105,0
2024-12-11 19:39:47.530,-0.624826,1.2018,5.32672,0.57977,-0.346427,0.205779,0
2024-12-11 19:39:47.532,-0.459721,1.24965,5.27408,0.534568,-0.367196,0.185621,0
2024-12-11 19:39:47.534,-0.30658,1.29272,5.2334,0.534568,-0.367196,0.185621,0
2024-12-11 19:39:47.536,-0.208176,1.32622,5.20947,0.488754,-0.375747,0.164242,0
2024-12-11 19:39:47.538,-0.100499,1.33101,5.15444,0.44233,-0.384299,0.14164,0
2024-12-11 19:39:47.541,0.00957129,1.32622,5.1018,0.395295,-0.389186,0.119039,0
2024-12-11 19:39:47.544,0.0622134,1.31186,5.06112,0.345816,-0.387354,0.0988809,0
2024-12-11 19:39:47.545,0.0765703,1.30708,4.99173,0.296948,-0.380023,0.0738362,0
2024-12-11 19:39:47.548,0.0430708,1.31665,4.94626,0.248691,-0.373915,0.0518457,0
2024-12-11 19:39:47.551,-0.00478565,1.31904,4.88405,0.195547,-0.369028,0.0310769,0
2024-12-11 19:39:47.553,-0.0478565,1.32861,4.80987,0.144236,-0.361087,0.0096972,0
2024-12-11 19:39:47.555,-0.117248,1.34058,4.78355,0.0941468,-0.3562,-0.00740652,0
2024-12-11 19:39:47.557,-0.193819,1.34297,4.77637,0.0452791,-0.351924,-0.0232886,0
2024-12-11 19:39:47.561,-0.265603,1.33579,4.77159,-0.00481042,-0.349481,-0.0361163,0
2024-12-11 19:39:47.562,-0.318545,1.33579,4.77398,-0.0530674,-0.340929,-0.0452791,0
2024-12-11 19:39:47.564,-0.354437,1.33819,4.78594,-0.0964375,-0.336042,-0.0507767,0
2024-12-11 19:39:47.567,-0.3999,1.31426,4.80987,-0.145305,-0.32688,-0.0550526,0
2024-12-11 19:39:47.569,-0.459721,1.28315,4.83141,-0.189897,-0.310998,-0.0532201,0
2024-12-11 19:39:47.571,-0.553041,1.24487,4.86491,-0.228991,-0.290229,-0.0489441,0
2024-12-11 19:39:47.574,-0.71336,1.20897,4.92234,-0.272362,-0.258465,-0.0391706,0
2024-12-11 19:39:47.576,-0.82343,1.18265,4.97019,-0.307791,-0.216927,-0.0238994,0
2024-12-11 19:39:47.578,-0.789931,1.16351,5.00369,-0.338944,-0.179665,-0.00618483,0
2024-12-11 19:39:47.581,-0.718146,1.15633,5.04676,-0.373762,-0.144847,0.014584,0
2024-12-11 19:39:47.583,-0.677468,1.14437,5.10419,-0.404305,-0.111861,0.0359636,0
2024-12-11 19:39:47.586,-0.639183,1.14676,5.1664,-0.430571,-0.0800973,0.0555107,0
2024-12-11 19:39:47.588,-0.60329,1.17069,5.22862,-0.456227,-0.0507767,0.0750579,0
2024-12-11 19:39:47.590,-0.557827,1.18505,5.29562,-0.477606,-0.021456,0.0964375,0
2024-12-11 19:39:47.593,-0.507577,1.18505,5.3677,-0.500208,0.00725381,0.120261,0
2024-12-11 19:39:47.595,-0.4334,1.22333,5.42991,-0.518533,0.0402396,0.140419,0
2024-12-11 19:39:47.598,-0.32333,1.28794,5.4993,-0.531972,0.0720036,0.16302,0
2024-12-11 19:39:47.600,-0.200997,1.34776,5.57348,-0.540523,0.1056,0.180734,0
2024-12-11 19:39:47.602,-0.0789631,1.41745,5.63091,-0.549686,0.134921,0.194173,0
2024-12-11 19:39:47.605,0.00717847,1.49402,5.71227,-0.555795,0.167907,0.207001,0
2024-12-11 19:39:47.607,0.0646062,1.57298,5.81516,-0.557627,0.196616,0.219218,0
2024-12-11 19:39:47.610,0.119641,1.63998,5.89203,-0.551519,0.261366,0.236932,0
2024-12-11 19:39:47.612,0.18664,1.70219,5.92792,-0.551519,0.261366,0.236932,0
2024-12-11 19:39:47.614,0.256032,1.75723,5.94467,-0.541745,0.301682,0.24243,0
2024-12-11 19:39:47.617,0.342473,1.79791,5.9662,-0.524031,0.378649,0.255258,0
2024-12-11 19:39:47.619,0.402293,1.84337,6.00449,-0.524031,0.378649,0.255258,0
2024-12-11 19:39:47.621,0.435793,1.90558,6.08106,-0.511814,0.416521,0.255869,0
2024-12-11 19:39:47.623,0.469292,1.95105,6.15763,-0.495932,0.447675,0.257701,0
2024-12-11 19:39:47.626,0.486042,1.97288,6.21745,-0.482493,0.471498,0.25709,0
2024-12-11 19:39:47.628,0.474078,2.01595,6.28924,-0.465389,0.491656,0.25648,0
2024-12-11 19:39:47.630,0.476471,2.07099,6.35863,-0.449507,0.503873,0.253425,0
2024-12-11 19:39:47.633,0.495613,2.10209,6.43998,-0.430571,0.50937,0.251593,0
2024-12-11 19:39:47.635,0.502792,2.09731,6.53839,-0.40858,0.510592,0.247928,0
2024-12-11 19:39:47.638,0.529113,2.08295,6.60778,-0.387201,0.506927,0.24243,0
2024-12-11 19:39:47.640,0.548256,2.06381,6.64846,-0.370708,0.507538,0.235711,0
2024-12-11 19:39:47.642,0.517149,2.04945,6.69153,-0.348717,0.511203,0.22777,0
2024-12-11 19:39:47.644,0.445364,2.02552,6.75374,-0.327949,0.508149,0.224105,0
2024-12-11 19:39:47.648,0.344866,2.00399,6.79921,-0.286411,0.493488,0.210055,0
2024-12-11 19:39:47.649,0.215354,1.9992,6.84228,-0.286411,0.493488,0.210055,0
2024-12-11 19:39:47.652,0.0646062,1.99442,6.92602,-0.264421,0.471498,0.209444,0
2024-12-11 19:39:47.654,-0.141177,2.00399,6.97627,-0.243041,0.441566,0.210055,0
2024-12-11 19:39:47.656,-0.478864,2.05902,6.87817,-0.219829,0.414078,0.210666,0
2024-12-11 19:39:47.660,-0.744467,2.13081,6.84228,-0.19906,0.385368,0.216774,0
2024-12-11 19:39:47.661,-0.825823,2.18106,6.98585,-0.178291,0.338944,0.228991,0
2024-12-11 19:39:47.663,-0.885943,2.22652,7.10579,-0.156911,0.276637,0.241208,0
2024-12-11 19:39:47.667,-0.940978,2.26959,7.17996,-0.114152,0.136143,0.265031,0
2024-12-11 19:39:47.668,-0.962513,2.31027,7.24696,-0.114152,0.136143,0.265031,0
2024-12-11 19:39:47.670,-0.967299,2.33659,7.29482,-0.094605,0.0646735,0.276027,0
2024-12-11 19:39:47.676,-0.907478,2.37488,7.28286,-0.0341311,-0.117359,0.291909,0
2024-12-11 19:39:47.676,-0.907478,2.37488,7.28286,-0.0341311,-0.117359,0.291909,0
2024-12-11 19:39:47.678,-0.761217,2.40838,7.25175,-0.0341311,-0.117359,0.291909,0
2024-12-11 19:39:47.680,-0.667897,2.42991,7.29721,-0.0182491,-0.170503,0.288244,0
2024-12-11 19:39:47.683,-0.655932,2.43709,7.41207,0.0153475,-0.274347,0.276027,0
2024-12-11 19:39:47.685,-0.655932,2.44427,7.52932,0.0153475,-0.274347,0.276027,0
2024-12-11 19:39:47.687,-0.612862,2.45145,7.58704,0.0312296,-0.321382,0.264421,0
2024-12-11 19:39:47.690,-0.548256,2.4658,7.60618,0.0611611,-0.401403,0.239376,0
2024-12-11 19:39:47.691,-0.478864,2.49452,7.6014,0.0611611,-0.401403,0.239376,0
2024-12-11 19:39:47.694,-0.41665,2.52832,7.6349,0.0764323,-0.436832,0.225326,0
2024-12-11 19:39:47.696,-0.3999,2.56182,7.71386,0.0886492,-0.468596,0.209444,0
2024-12-11 19:39:47.699,-0.407079,2.60249,7.80479,0.100255,-0.499749,0.195395,0
2024-12-11 19:39:47.701,-0.390329,2.64796,7.89572,0.100255,-0.499749,0.195395,0
2024-12-11 19:39:47.703,-0.359223,2.69581,7.97229,0.121024,-0.55778,0.162409,0
2024-12-11 19:39:47.706,-0.337687,2.74128,8.05604,0.13263,-0.580381,0.149581,0
2024-12-11 19:39:47.709,-0.304188,2.79392,8.14965,0.14668,-0.609091,0.120261,0
2024-12-11 19:39:47.710,-0.260818,2.82981,8.2334,0.14668,-0.609091,0.120261,0
2024-12-11 19:39:47.713,-0.229711,2.86331,8.31954,0.152788,-0.616421,0.108654,0
2024-12-11 19:39:47.715,-0.193819,2.92313,8.42244,0.157675,-0.620086,0.0970484,0
2024-12-11 19:39:47.718,-0.143569,2.97338,8.52054,0.158897,-0.624973,0.0854423,0
2024-12-11 19:39:47.720,-0.0957129,3.04517,8.58754,0.161951,-0.627416,0.0750579,0
2024-12-11 19:39:47.723,-0.040678,3.14118,8.66411,0.160729,-0.634747,0.0542891,0
2024-12-11 19:39:47.725,0.0119641,3.24407,8.75534,0.160729,-0.634747,0.0542891,0
2024-12-11 19:39:47.727,0.191426,3.33978,8.84148,0.155842,-0.630471,0.046348,0
2024-12-11 19:39:47.729,0.500399,3.37089,8.87498,0.155842,-0.630471,0.046348,0
2024-12-11 19:39:47.732,0.596112,3.40439,8.87259,0.145458,-0.578549,0.0219141,0
2024-12-11 19:39:47.734,0.483649,3.48335,8.94916,0.137517,-0.526627,0.00847551,0
2024-12-11 19:39:47.736,0.404686,3.55514,9.10948,0.131409,-0.480813,-0.00313059,0
2024-12-11 19:39:47.740,0.366401,3.60539,9.2677,0.122857,-0.450882,-0.0122933,0
2024-12-11 19:39:47.741,0.349651,3.64876,9.39452,0.113083,-0.427669,-0.0208452,0
2024-12-11 19:39:47.743,0.375972,3.72054,9.52613,0.0972011,-0.419118,-0.0312296,0
2024-12-11 19:39:47.747,0.423829,3.78036,9.68645,0.0678804,-0.416063,-0.0526092,0
2024-12-11 19:39:47.749,0.4669,3.80907,9.84706,0.0538309,-0.416674,-0.0666587,0
2024-12-11 19:39:47.750,0.512363,3.86411,10.0146,0.0538309,-0.416674,-0.0666587,0
2024-12-11 19:39:47.753,0.524327,3.91675,10.1964,0.0367272,-0.419728,-0.081319,0
2024-12-11 19:39:47.756,0.502792,3.93829,10.3834,0.00557398,-0.428891,-0.107585,0
2024-12-11 19:39:47.758,0.495613,3.96222,10.5724,0.00557398,-0.428891,-0.107585,0
2024-12-11 19:39:47.760,0.483649,3.98614,10.7423,-0.00664296,-0.441108,-0.121635,0
2024-12-11 19:39:47.762,0.452543,3.98854,10.905,-0.0231358,-0.455768,-0.137517,0
2024-12-11 19:39:47.765,0.407079,3.99571,11.0728,-0.0402396,-0.474094,-0.15401,0
2024-12-11 19:39:47.768,0.35683,4.02204,11.2355,-0.0713928,-0.526016,-0.185774,0
2024-12-11 19:39:47.770,0.292223,4.05793,11.4341,-0.0713928,-0.526016,-0.185774,0
2024-12-11 19:39:47.772,0.251246,4.101,11.6426,-0.090329,-0.557169,-0.200434,0
2024-12-11 19:39:47.774,0.234497,4.15603,11.8196,-0.104989,-0.585879,-0.216927,0
2024-12-11 19:39:47.776,0.20339,4.20628,11.9919,-0.121482,-0.612756,-0.232198,0
2024-12-11 19:39:47.779,0.162712,4.24487,12.1741,-0.137364,-0.639023,-0.248691,0
2024-12-11 19:39:47.782,0.136391,4.27597,12.3823,-0.167296,-0.679949,-0.277401,0
2024-12-11 19:39:47.783,0.155533,4.29272,12.6024,-0.167296,-0.679949,-0.277401,0
2024-12-11 19:39:47.788,0.184247,4.29512,12.7989,-0.189897,-0.70194,-0.314052,0
2024-12-11 19:39:47.789,0.191426,4.27119,12.9975,-0.201503,-0.70927,-0.335431,0
2024-12-11 19:39:47.790,0.227318,4.24487,13.2275,-0.201503,-0.70927,-0.335431,0
2024-12-11 19:39:47.794,0.275175,4.24965,13.5003,-0.20639,-0.714157,-0.380023,0
2024-12-11 19:39:47.795,0.270389,4.25444,13.742,-0.20639,-0.714157,-0.380023,0
2024-12-11 19:39:47.798,0.244068,4.23051,13.9289,-0.207612,-0.708048,-0.397127,0
2024-12-11 19:39:47.801,0.215354,4.20389,14.1395,-0.203336,-0.683004,-0.423394,0
2024-12-11 19:39:47.802,0.215354,4.17278,14.3288,-0.203336,-0.683004,-0.423394,0
2024-12-11 19:39:47.805,0.22014,4.13211,14.4628,-0.197838,-0.665289,-0.438054,0
2024-12-11 19:39:47.807,0.205783,4.09143,14.5849,-0.186843,-0.640244,-0.450882,0
2024-12-11 19:39:47.809,0.234497,4.03639,14.659,-0.17768,-0.610313,-0.460044,0
2024-12-11 19:39:47.812,0.253639,3.97897,14.7452,-0.170961,-0.584046,-0.467375,0
2024-12-11 19:39:47.814,0.210568,3.95743,14.8747,-0.158133,-0.552893,-0.474094,0
2024-12-11 19:39:47.816,0.162712,3.93829,14.9513,-0.146527,-0.522962,-0.477759,0
2024-12-11 19:39:47.820,0.16989,3.92872,15.0398,-0.131867,-0.487532,-0.481424,0
2024-12-11 19:39:47.821,0.224925,3.93111,15.1858,-0.114152,-0.458823,-0.484478,0
2024-12-11 19:39:47.823,0.251246,3.9,15.291,-0.0921616,-0.423394,-0.482035,0
2024-12-11 19:39:47.826,0.267996,3.89282,15.3293,-0.0732253,-0.384299,-0.474094,0
2024-12-11 19:39:47.828,0.320937,3.93829,15.3628,-0.050624,-0.349481,-0.466153,0
2024-12-11 19:39:47.830,0.373579,3.99093,15.382,-0.0249684,-0.318328,-0.459433,0
2024-12-11 19:39:47.833,0.431007,4.03639,15.3126,0.000687203,-0.280455,-0.453325,0
2024-12-11 19:39:47.836,0.519542,4.09621,15.1977,0.0562743,-0.190661,-0.439276,0
2024-12-11 19:39:47.838,0.574577,4.19432,15.0876,0.0562743,-0.190661,-0.439276,0
2024-12-11 19:39:47.841,0.569791,4.32383,14.9201,0.0831516,-0.136906,-0.431335,0
2024-12-11 19:39:47.842,0.517149,4.49851,14.6925,0.110029,-0.0752106,-0.424615,0
2024-12-11 19:39:47.847,0.428614,4.92712,14.1275,0.156453,0.0524565,-0.402014,0
2024-12-11 19:39:47.847,0.335294,4.92712,14.1275,0.156453,0.0524565,-0.402014,0
2024-12-11 19:39:47.849,0.253639,5.14248,13.7997,0.176611,0.106822,-0.388575,0
2024-12-11 19:39:47.852,0.210568,5.32672,13.4812,0.190661,0.151414,-0.376969,0
2024-12-11 19:39:47.855,0.282652,5.43948,13.2036,0.20471,0.178902,-0.36353,0
2024-12-11 19:39:47.860,0.490828,5.52802,12.6984,0.20471,0.213109,-0.345816,0
2024-12-11 19:39:47.860,0.490828,5.52802,12.6984,0.20471,0.213109,-0.345816,0
2024-12-11 19:39:47.861,0.227318,5.58545,12.5234,0.20471,0.213109,-0.345816,0
2024-12-11 19:39:47.863,0.026321,5.5998,12.4421,0.193715,0.199671,-0.340929,0
2024-12-11 19:39:47.868,-0.081356,5.47298,12.3464,0.157064,0.114763,-0.337264,0
2024-12-11 19:39:47.868,-0.081356,5.47298,12.3464,0.157064,0.114763,-0.337264,0
2024-12-11 19:39:47.870,-0.0646062,5.3342,12.3248,0.130187,0.0640626,-0.336042,0
2024-12-11 19:39:47.874,-0.0646062,5.1688,12.3583,0.0721563,-0.0312296,-0.332988,0
2024-12-11 19:39:47.875,-0.114855,4.97498,12.4588,0.0721563,-0.0312296,-0.332988,0
2024-12-11 19:39:47.878,-0.215354,4.75215,12.5952,0.0410031,-0.0745997,-0.33421,0
2024-12-11 19:39:47.880,-0.395115,4.50808,12.7869,0.00984991,-0.118581,-0.332988,0
2024-12-11 19:39:47.882,-0.608076,4.24247,12.9736,-0.0237467,-0.156453,-0.326269,0
2024-12-11 19:39:47.885,-0.739681,3.99571,13.1507,-0.0542891,-0.192493,-0.317717,0
2024-12-11 19:39:47.887,-0.835394,3.77079,13.3376,-0.0860531,-0.218149,-0.307333,0
2024-12-11 19:39:47.892,-0.998405,3.40439,13.7133,-0.120871,-0.234642,-0.296337,0
2024-12-11 19:39:47.894,-1.07976,3.26321,13.9959,-0.182567,-0.244415,-0.265795,0
2024-12-11 19:39:47.894,-1.07976,3.26321,13.9959,-0.182567,-0.244415,-0.265795,0
2024-12-11 19:39:47.896,-1.13719,3.09571,14.2878,-0.208833,-0.237696,-0.24808,0
2024-12-11 19:39:47.902,-1.02951,2.77238,14.7811,-0.252814,-0.179055,-0.19738,0
2024-12-11 19:39:47.902,-1.02951,2.77238,14.7811,-0.252814,-0.179055,-0.19738,0
2024-12-11 19:39:47.903,-0.88355,2.61685,14.9895,-0.269307,-0.179055,-0.19738,0
2024-12-11 19:39:47.906,-0.682254,2.47298,15.1881,-0.281524,-0.144847,-0.185774,0
2024-12-11 19:39:47.909,-0.486042,2.32463,15.4298,-0.29313,-0.077654,-0.179665,0
2024-12-11 19:39:47.911,-0.335294,2.14517,15.679,-0.29313,-0.077654,-0.179665,0
2024-12-11 19:39:47.915,-0.167498,1.93908,15.8824,-0.283968,0.0194708,-0.190661,0
2024-12-11 19:39:47.916,0.026321,1.77159,16.031,-0.272972,0.0775012,-0.202878,0
2024-12-11 19:39:47.920,0.344866,1.55145,16.2177,-0.252204,0.138586,-0.217538,0
2024-12-11 19:39:47.920,0.344866,1.55145,16.2177,-0.252204,0.138586,-0.217538,0
2024-12-11 19:39:47.925,0.555434,1.33819,16.1818,-0.228991,0.207612,-0.234031,0
2024-12-11 19:39:47.927,0.63679,1.25922,16.0454,-0.167907,0.351772,-0.268238,1
2024-12-11 19:39:47.927,0.63679,1.25922,16.0454,-0.167907,0.351772,-0.268238,1
2024-12-11 19:39:47.930,0.71336,1.21854,15.8465,-0.131256,0.418354,-0.284731,0
2024-12-11 19:39:47.932,0.766002,1.16112,15.5761,-0.0878856,0.483104,-0.304278,0
2024-12-11 19:39:47.934,0.797109,1.11565,15.2695,-0.0439046,0.546632,-0.318939,0
2024-12-11 19:39:47.936,0.792323,1.08694,14.9656,0.000687203,0.604052,-0.336042,0
2024-12-11 19:39:47.939,0.718146,1.04148,14.6614,0.049555,0.656584,-0.34887,0
2024-12-11 19:39:47.941,0.624826,1.00798,14.348,0.0965902,0.700565,-0.358033,0
2024-12-11 19:39:47.946,0.447757,0.962513,13.6534,0.194937,0.756763,-0.369639,0
2024-12-11 19:39:47.947,0.447757,0.962513,13.6534,0.194937,0.756763,-0.369639,0
2024-12-11 19:39:47.948,0.342473,0.909871,13.2467,0.244415,0.772035,-0.373304,0
2024-12-11 19:39:47.951,0.234497,0.845265,12.83,0.29084,0.7757,-0.373304,0
2024-12-11 19:39:47.954,0.157926,0.785145,12.4253,0.379413,0.761039,-0.36292,0
2024-12-11 19:39:47.958,0.0861416,0.675075,11.6234,0.421561,0.738438,-0.357422,0
2024-12-11 19:39:47.958,0.0861416,0.675075,11.6234,0.421561,0.738438,-0.357422,0
2024-12-11 19:39:47.961,0.0765703,0.622433,11.202,0.500971,0.668801,-0.343983,0
2024-12-11 19:39:47.962,0.0765703,0.598505,10.7997,0.500971,0.668801,-0.343983,0
2024-12-11 19:39:47.966,0.0311067,0.572184,10.4671,0.532735,0.621766,-0.335431,0
2024-12-11 19:39:47.967,-0.0239282,0.550648,10.1198,0.565721,0.569233,-0.328712,0
2024-12-11 19:39:47.969,-0.0789631,0.541077,9.75344,0.596263,0.50937,-0.318939,0
2024-12-11 19:39:47.972,-0.12682,0.521934,9.39931,0.623751,0.449507,-0.307333,0
2024-12-11 19:39:47.974,-0.167498,0.52672,9.03291,0.648185,0.390255,-0.293283,0
2024-12-11 19:39:47.976,-0.165105,0.533899,8.68325,0.667732,0.331614,-0.278623,0
2024-12-11 19:39:47.980,-0.153141,0.529113,8.41287,0.684836,0.272972,-0.263962,0
2024-12-11 19:39:47.981,-0.181855,0.52672,8.21187,0.700107,0.211277,-0.250524,0
2024-12-11 19:39:47.986,-0.22014,0.591326,7.8335,0.730039,0.0811663,-0.216927,0
2024-12-11 19:39:47.987,-0.22014,0.591326,7.8335,0.738591,0.0164165,-0.202878,0
2024-12-11 19:39:47.989,-0.224925,0.634397,7.64447,0.748364,-0.0513875,-0.189439,0
2024-12-11 19:39:47.992,-0.200997,0.663111,7.436,0.748364,-0.0513875,-0.189439,0
2024-12-11 19:39:47.993,-0.172283,0.71336,7.24218,0.754473,-0.113694,-0.17539,0
2024-12-11 19:39:47.995,-0.155533,0.768395,7.07707,0.761803,-0.174168,-0.16134,0
2024-12-11 19:39:47.999,-0.129212,0.816252,6.90928,0.773409,-0.278623,-0.135684,0
2024-12-11 19:39:48.000,-0.0741775,0.864407,6.74178,0.773409,-0.278623,-0.135684,0
2024-12-11 19:39:48.002,-0.0119641,0.895514,6.59342,0.773409,-0.329934,-0.123468,0
2024-12-11 19:39:48.005,0.0526421,0.919442,6.49292,0.77402,-0.373915,-0.115526,0
2024-12-11 19:39:48.007,0.112463,0.938585,6.4328,0.771576,-0.417896,-0.106364,0
2024-12-11 19:39:48.009,0.165105,0.945763,6.36341,0.769133,-0.460044,-0.0984228,0
2024-12-11 19:39:48.013,0.224925,0.952942,6.29881,0.763635,-0.499749,-0.0929251,0
2024-12-11 19:39:48.014,0.282652,0.945763,6.25334,0.754473,-0.537622,-0.0849841,0
2024-12-11 19:39:48.017,0.35683,0.924228,6.19113,0.74531,-0.570608,-0.0788757,0
2024-12-11 19:39:48.019,0.452543,0.9003,6.12413,0.733704,-0.596263,-0.0745997,0
2024-12-11 19:39:48.021,0.565005,0.885943,6.06192,0.719654,-0.619475,-0.0697129,0
2024-12-11 19:39:48.024,0.682254,0.893121,6.0021,0.703772,-0.640244,-0.0703238,0
2024-12-11 19:39:48.026,0.777966,0.893121,5.95424,0.681171,-0.656737,-0.073378,0
2024-12-11 19:39:48.029,0.859622,0.905085,5.92313,0.637801,-0.681171,-0.081319,0
2024-12-11 19:39:48.032,0.933799,0.931406,5.90638,0.611534,-0.689112,-0.0874275,0
2024-12-11 19:39:48.034,0.998405,0.94337,5.89681,0.611534,-0.689112,-0.0874275,0
2024-12-11 19:39:48.035,1.06301,0.967299,5.89681,0.585268,-0.689723,-0.0929251,0
2024-12-11 19:39:48.039,1.11087,0.988834,5.89921,0.518075,-0.685447,-0.109418,0
2024-12-11 19:39:48.041,1.15394,1.00798,5.89681,0.483257,-0.676895,-0.115526,0
2024-12-11 19:39:48.043,1.18983,1.05344,5.89203,0.483257,-0.676895,-0.115526,0
2024-12-11 19:39:48.045,1.21615,1.09651,5.88455,0.446606,-0.664067,-0.126522,0
2024-12-11 19:39:48.047,1.23529,1.12762,5.89203,0.409344,-0.64452,-0.134463,0
2024-12-11 19:39:48.050,1.24008,1.16112,5.92313,0.366585,-0.624973,-0.140571,0
2024-12-11 19:39:48.053,1.24965,1.18983,5.94706,0.280455,-0.574884,-0.157675,0
2024-12-11 19:39:48.054,1.25683,1.22572,5.95424,0.280455,-0.574884,-0.157675,0
2024-12-11 19:39:48.057,1.27358,1.26879,5.95903,0.237085,-0.548006,-0.165616,0
2024-12-11 19:39:48.059,1.28794,1.31665,5.96142,0.190661,-0.513799,-0.170503,0
2024-12-11 19:39:48.061,1.29033,1.36929,5.99253,0.144236,-0.475926,-0.178444,0
2024-12-11 19:39:48.067,1.27358,1.44855,6.07149,0.0471116,-0.395295,-0.189439,0
2024-12-11 19:39:48.068,1.25444,1.49641,6.10499,0.0471116,-0.395295,-0.189439,0
2024-12-11 19:39:48.069,1.25444,1.49641,6.10499,0.0471116,-0.395295,-0.189439,0
2024-12-11 19:39:48.071,1.22572,1.50838,6.1337,-0.050624,-0.301224,-0.198602,0
2024-12-11 19:39:48.073,1.18744,1.50838,6.15763,-0.0982701,-0.251745,-0.20471,0
2024-12-11 19:39:48.075,1.1659,1.51316,6.17917,-0.144694,-0.196158,-0.207764,0
2024-12-11 19:39:48.079,1.15633,1.51555,6.2342,-0.234489,-0.0831516,-0.215705,0
2024-12-11 19:39:48.081,1.12762,1.51795,6.3012,-0.274805,-0.0281753,-0.218149,0
2024-12-11 19:39:48.082,1.07737,1.51795,6.38973,-0.274805,-0.0281753,-0.218149,0
2024-12-11 19:39:48.086,1.01276,1.51077,6.47857,-0.351772,0.0775012,-0.224868,0
2024-12-11 19:39:48.088,0.94337,1.51555,6.55274,-0.384757,0.128202,-0.22609,0
2024-12-11 19:39:48.091,0.864407,1.51077,6.64367,-0.417743,0.177069,-0.229144,0
2024-12-11 19:39:48.092,0.789931,1.4988,6.75135,-0.417743,0.177069,-0.229144,0
2024-12-11 19:39:48.095,0.725324,1.50838,6.85663,-0.464778,0.266864,-0.234031,0
2024-12-11 19:39:48.097,0.663111,1.50359,6.95235,-0.464778,0.266864,-0.234031,0
2024-12-11 19:39:48.099,0.608076,1.4988,7.05314,-0.48738,0.302293,-0.23342,0
2024-12-11 19:39:48.104,0.469292,1.50598,7.22782,-0.515479,0.368875,-0.236474,0
2024-12-11 19:39:48.106,0.387936,1.51795,7.31875,-0.525252,0.397585,-0.235863,0
2024-12-11 19:39:48.106,0.387936,1.51795,7.31875,-0.525252,0.397585,-0.235863,0
2024-12-11 19:39:48.109,0.32333,1.5658,7.41446,-0.531972,0.423852,-0.23342,0
2024-12-11 19:39:48.111,0.246461,1.60409,7.50778,-0.533804,0.447675,-0.230977,0
2024-12-11 19:39:48.113,0.177069,1.62562,7.59661,-0.531972,0.467222,-0.228533,0
2024-12-11 19:39:48.116,0.107677,1.6663,7.68276,-0.528307,0.483715,-0.224868,0
2024-12-11 19:39:48.118,0.040678,1.70459,7.74258,-0.522198,0.497153,-0.219371,0
2024-12-11 19:39:48.121,-0.00239282,1.72852,7.79043,-0.499597,0.515479,-0.209597,0
2024-12-11 19:39:48.123,-0.0382852,1.74766,7.84786,-0.499597,0.515479,-0.209597,0
2024-12-11 19:39:48.125,-0.0598206,1.77876,7.9005,-0.499597,0.515479,-0.209597,0
2024-12-11 19:39:48.128,-0.0478565,1.82184,7.95314,-0.449507,0.522809,-0.190661,0
2024-12-11 19:39:48.130,-0.0358923,1.85055,8.00339,-0.449507,0.522809,-0.190661,0
2024-12-11 19:39:48.133,-0.00478565,1.87687,8.03929,-0.407359,0.5167,-0.179055,0
2024-12-11 19:39:48.134,0.0287139,1.92233,8.07518,-0.407359,0.5167,-0.179055,0
2024-12-11 19:39:48.137,0.0598206,1.9681,8.07996,-0.384147,0.515479,-0.173557,0
2024-12-11 19:39:48.139,0.100499,2.0016,8.05843,-0.362156,0.513646,-0.169281,0
2024-12-11 19:39:48.141,0.136391,2.05185,8.04886,-0.337111,0.511203,-0.165005,0
2024-12-11 19:39:48.145,0.16989,2.09731,8.03929,-0.310234,0.506927,-0.161951,0
2024-12-11 19:39:48.148,0.248854,2.1667,7.97229,-0.258923,0.495321,-0.157064,0
2024-12-11 19:39:48.152,0.267996,2.20259,7.94357,-0.210666,0.475163,-0.155842,0
2024-12-11 19:39:48.153,0.270389,2.22652,7.91964,-0.210666,0.475163,-0.155842,0
2024-12-11 19:39:48.157,0.275175,2.23849,7.88854,-0.164852,0.445231,-0.157064,0
2024-12-11 19:39:48.158,0.275175,2.24566,7.85743,-0.164852,0.445231,-0.157064,0
2024-12-11 19:39:48.158,0.275175,2.24566,7.85743,-0.164852,0.445231,-0.157064,0
2024-12-11 19:39:48.160,0.260818,2.24806,7.82393,-0.144694,0.431793,-0.157064,0
2024-12-11 19:39:48.165,0.282652,2.29352,7.733,-0.125147,0.403083,-0.155232,0
2024-12-11 19:39:48.170,0.272782,2.33181,7.74018,-0.0603975,0.375595,-0.152788,0
2024-12-11 19:39:48.171,0.224925,2.38684,7.7354,-0.0402396,0.358491,-0.149734,0
2024-12-11 19:39:48.172,0.191426,2.45145,7.6995,-0.0402396,0.358491,-0.149734,0
2024-12-11 19:39:48.173,0.191426,2.45145,7.6995,-0.0237467,0.346885,-0.144236,0
2024-12-11 19:39:48.174,0.184247,2.52592,7.63968,-0.0237467,0.346885,-0.144236,0
2024-12-11 19:39:48.179,0.122034,2.65514,7.53171,0.0104608,0.327949,-0.135074,0
2024-12-11 19:39:48.180,0.122034,2.65514,7.53171,0.0275645,0.319397,-0.125911,0
2024-12-11 19:39:48.181,0.100499,2.71974,7.48624,0.0275645,0.319397,-0.125911,0
2024-12-11 19:39:48.184,0.0933201,2.76042,7.44557,0.0440574,0.312067,-0.119192,0
2024-12-11 19:39:48.186,0.100499,2.79392,7.40489,0.0568851,0.304126,-0.113694,0
2024-12-11 19:39:48.188,0.122034,2.82742,7.37857,0.0678804,0.296185,-0.107585,0
2024-12-11 19:39:48.193,0.18664,2.85853,7.35943,0.0910926,0.283357,-0.0972011,0
2024-12-11 19:39:48.194,0.18664,2.85853,7.35943,0.0984228,0.274194,-0.0923143,0
2024-12-11 19:39:48.196,0.184247,2.84417,7.34985,0.0984228,0.274194,-0.0923143,0
2024-12-11 19:39:48.198,0.181855,2.84656,7.3355,0.10392,0.266864,-0.0898709,0
2024-12-11 19:39:48.201,0.193819,2.87767,7.34028,0.113694,0.24243,-0.085595,0
2024-12-11 19:39:48.204,0.193819,2.90638,7.33789,0.113694,0.24243,-0.085595,0
2024-12-11 19:39:48.205,0.191426,2.95185,7.33071,0.116137,0.230213,-0.0819299,0
2024-12-11 19:39:48.207,0.172283,3.02363,7.32593,0.116748,0.214942,-0.0807082,0
2024-12-11 19:39:48.210,0.143569,3.07867,7.33071,0.114916,0.197227,-0.077654,0
2024-12-11 19:39:48.212,0.133998,3.12682,7.36182,0.114916,0.180124,-0.0739889,0
2024-12-11 19:39:48.214,0.133998,3.17707,7.42164,0.111251,0.161187,-0.0684913,0
2024-12-11 19:39:48.217,0.131605,3.2345,7.46232,0.109418,0.144084,-0.0642153,0
2024-12-11 19:39:48.220,0.160319,3.2991,7.51496,0.0990336,0.106211,-0.0519984,0
2024-12-11 19:39:48.222,0.210568,3.35414,7.58465,0.0990336,0.106211,-0.0519984,0
2024-12-11 19:39:48.226,0.297009,3.45703,7.71625,0.0898709,0.0750579,-0.0452791,0
2024-12-11 19:39:48.227,0.297009,3.45703,7.71625,0.085595,0.0646735,-0.0428357,0
2024-12-11 19:39:48.231,0.414257,3.54796,7.87897,0.085595,0.0646735,-0.0428357,0
2024-12-11 19:39:48.231,0.414257,3.54796,7.87897,0.085595,0.0646735,-0.0428357,0
2024-12-11 19:39:48.234,0.474078,3.5671,7.98904,0.0727672,0.0561216,-0.0385597,0
2024-12-11 19:39:48.236,0.538684,3.57906,8.10868,0.0684913,0.0567324,-0.037338,0
2024-12-11 19:39:48.239,0.615255,3.59103,8.22622,0.0629936,0.0658951,-0.0361163,0
2024-12-11 19:39:48.241,0.694218,3.61974,8.3339,0.0629936,0.0658951,-0.0361163,0
2024-12-11 19:39:48.243,0.766002,3.64876,8.4344,0.0593285,0.0720036,-0.0385597,0
2024-12-11 19:39:48.245,0.82343,3.66072,8.52533,0.0513875,0.0781121,-0.0434465,0
2024-12-11 19:39:48.247,0.869193,3.65833,8.64018,0.0507767,0.0842206,-0.049555,0
2024-12-11 19:39:48.250,0.917049,3.65115,8.75055,0.0471116,0.0933833,-0.0550526,0
2024-12-11 19:39:48.252,0.945763,3.63171,8.85584,0.0489441,0.1056,-0.0611611,0
2024-12-11 19:39:48.255,1.1348,3.48335,8.93001,0.0471116,0.118428,-0.0715455,0
2024-12-11 19:39:48.257,1.38844,3.27996,9.11187,0.049555,0.137364,-0.0904818,0
2024-12-11 19:39:48.259,1.37408,3.24885,9.35384,0.0581068,0.144694,-0.111251,0
2024-12-11 19:39:48.261,1.14676,3.35414,9.42084,0.0593285,0.14836,-0.130187,0
2024-12-11 19:39:48.266,0.821037,3.58146,9.55245,0.0715455,0.182567,-0.157675,0
2024-12-11 19:39:48.269,0.655932,3.68943,9.67687,0.0788757,0.192341,-0.163173,0
2024-12-11 19:39:48.269,0.655932,3.68943,9.67687,0.0788757,0.192341,-0.163173,0
2024-12-11 19:39:48.272,0.486042,3.80429,9.74387,0.0868167,0.200892,-0.163783,0
2024-12-11 19:39:48.273,0.361615,3.89282,9.82074,0.0972011,0.21372,-0.159507,0
2024-12-11 19:39:48.276,0.267996,3.94547,9.90688,0.105142,0.225326,-0.152177,0
2024-12-11 19:39:48.279,0.191426,3.99093,10.0098,0.127743,0.248538,-0.134463,0
2024-12-11 19:39:48.281,0.141177,4.034,10.1127,0.127743,0.248538,-0.134463,0
2024-12-11 19:39:48.283,0.122034,4.0675,10.2036,0.138739,0.259534,-0.125911,0
2024-12-11 19:39:48.285,0.12682,4.08903,10.2993,0.138739,0.259534,-0.125911,0
2024-12-11 19:39:48.287,0.148355,4.08186,10.3953,0.165616,0.282746,-0.104531,0
2024-12-11 19:39:48.290,0.165105,4.0675,10.4695,0.181498,0.298017,-0.0972011,0
2024-12-11 19:39:48.292,0.155533,4.04596,10.5174,0.19738,0.315121,-0.0923143,0
2024-12-11 19:39:48.294,0.157926,4.034,10.5485,0.216316,0.335279,-0.0849841,0
2024-12-11 19:39:48.297,0.189033,4.02921,10.5987,0.230366,0.352993,-0.0800973,0
2024-12-11 19:39:48.299,0.229711,4.01007,10.6657,0.24808,0.374373,-0.0758214,0
2024-12-11 19:39:48.302,0.258425,3.99811,10.7064,0.265795,0.392698,-0.0727672,0
2024-12-11 19:39:48.304,0.282652,3.99571,10.7231,0.28412,0.413467,-0.0727672,0
2024-12-11 19:39:48.306,0.289831,3.99571,10.7303,0.301835,0.436679,-0.0752106,0
2024-12-11 19:39:48.309,0.299402,3.99332,10.7136,0.319549,0.458059,-0.077654,0
2024-12-11 19:39:48.311,0.304188,4.01486,10.6801,0.332988,0.481271,-0.0788757,0
2024-12-11 19:39:48.313,0.275175,4.04596,10.6585,0.345816,0.503262,-0.0819299,0
2024-12-11 19:39:48.317,0.244068,4.07468,10.6585,0.365974,0.550908,-0.0868167,0
2024-12-11 19:39:48.319,0.205783,4.11296,10.6442,0.365974,0.550908,-0.0868167,0
2024-12-11 19:39:48.320,0.155533,4.14168,10.6107,0.375747,0.570455,-0.0892601,0
2024-12-11 19:39:48.323,0.112463,4.17039,10.5796,0.381856,0.58878,-0.0898709,0
2024-12-11 19:39:48.328,0.0957129,4.19671,10.5556,0.38491,0.61749,-0.0941468,0
2024-12-11 19:39:48.328,0.184247,4.16561,10.5532,0.38491,0.61749,-0.0941468,0
2024-12-11 19:39:48.330,0.153141,4.14407,10.5197,0.384299,0.629707,-0.0996445,0
2024-12-11 19:39:48.332,-0.0765703,4.18475,10.4408,0.383078,0.649254,-0.105142,0
2024-12-11 19:39:48.335,-0.304188,4.22094,10.4264,0.375137,0.662693,-0.107585,0
2024-12-11 19:39:48.338,-0.462114,4.22094,10.448,0.360476,0.665136,-0.106975,0
2024-12-11 19:39:48.339,-0.548256,4.22812,10.4551,0.360476,0.665136,-0.106975,0
2024-12-11 19:39:48.343,-0.622433,4.25922,10.4743,0.349481,0.659639,-0.10392,0
2024-12-11 19:39:48.344,-0.679861,4.28794,10.5293,0.332377,0.649254,-0.0990336,0
2024-12-11 19:39:48.346,-0.720539,4.29512,10.6155,0.317106,0.641924,-0.0947577,0
2024-12-11 19:39:48.349,-0.754038,4.29033,10.7207,0.302446,0.636427,-0.0904818,0
2024-12-11 19:39:48.352,-0.76361,4.28076,10.8356,0.273736,0.629707,-0.0837624,0
2024-12-11 19:39:48.353,-0.76361,4.27119,10.917,0.273736,0.629707,-0.0837624,0
2024-12-11 19:39:48.356,-0.720539,4.27597,10.9938,0.259076,0.628486,-0.0825407,0
2024-12-11 19:39:48.358,-0.646361,4.30708,11.0776,0.243804,0.63154,-0.0825407,0
2024-12-11 19:39:48.363,-0.428614,4.46979,11.1159,0.210819,0.659028,-0.0862058,0
2024-12-11 19:39:48.363,-0.428614,4.46979,11.1159,0.210819,0.659028,-0.0862058,0
2024-12-11 19:39:48.365,-0.272782,4.6014,11.0824,0.195547,0.690792,-0.0904818,0
2024-12-11 19:39:48.367,-0.0646062,4.73061,11.0465,0.180276,0.730497,-0.0996445,0
2024-12-11 19:39:48.371,0.122034,4.85534,10.989,0.148512,0.839915,-0.125911,0
2024-12-11 19:39:48.373,0.208176,4.96301,10.9436,0.130798,0.899167,-0.141793,0
2024-12-11 19:39:48.375,0.227318,5.04676,10.9313,0.130798,0.899167,-0.141793,0
2024-12-11 19:39:48.380,0.210568,5.09701,10.9555,0.0587177,1.04211,-0.204099,0
2024-12-11 19:39:48.382,0.119641,4.98694,11.1063,0.0587177,1.04211,-0.204099,0
2024-12-11 19:39:48.383,0.179462,5.07069,11.1063,0.0306187,1.06898,-0.227922,0
2024-12-11 19:39:48.385,0.00478565,4.8673,11.2355,0.0306187,1.06898,-0.227922,0
2024-12-11 19:39:48.386,-0.172283,4.68036,11.415,-0.00114534,1.08303,-0.246859,0
2024-12-11 19:39:48.390,-0.373579,4.42911,11.6402,-0.0726145,1.06287,-0.291451,0
2024-12-11 19:39:48.391,-0.553041,4.14407,11.901,-0.0726145,1.06287,-0.291451,0
2024-12-11 19:39:48.394,-0.710967,3.84257,12.2004,-0.115374,1.01767,-0.309165,0
2024-12-11 19:39:48.396,-0.902692,3.51685,12.5067,-0.161798,0.952922,-0.329934,0
2024-12-11 19:39:48.399,-1.13958,3.20818,12.8444,-0.214331,0.868014,-0.354979,0
2024-12-11 19:39:48.400,-1.40788,2.92792,13.2682,-0.269918,0.758596,-0.376969,0
2024-12-11 19:39:48.403,-1.67348,2.66231,13.7228,-0.333446,0.633983,-0.400181,0
2024-12-11 19:39:48.406,-1.87448,2.44427,14.1371,-0.469665,0.349939,-0.441719,0
2024-12-11 19:39:48.410,-2.25763,2.21934,15.0541,-0.542356,0.196006,-0.460655,0
2024-12-11 19:39:48.410,-2.25763,2.21934,15.0541,-0.542356,0.196006,-0.460655,0
2024-12-11 19:39:48.412,-2.45384,2.16431,15.5952,-0.613214,0.0396287,-0.475926,0
2024-12-11 19:39:48.415,-2.67906,2.13081,16.1554,-0.677353,-0.107585,-0.487532,0
2024-12-11 19:39:48.417,-2.89442,2.14995,16.7204,-0.735995,-0.245026,-0.491198,0
2024-12-11 19:39:48.419,-2.87049,2.14277,17.2041,-0.787917,-0.360476,-0.489976,0
2024-12-11 19:39:48.423,-2.57857,2.05185,17.7093,-0.855721,-0.556558,-0.494863,0
2024-12-11 19:39:48.424,-2.30548,1.9343,18.3485,-0.855721,-0.556558,-0.494863,0
2024-12-11 19:39:48.426,-2.05902,1.82901,18.9829,-0.875879,-0.664067,-0.500971,0
2024-12-11 19:39:48.430,-1.72612,1.77398,19.445,-0.880765,-0.7673,-0.508912,0
2024-12-11 19:39:48.431,-1.30947,1.75484,19.7178,-0.880765,-0.7673,-0.508912,0
2024-12-11 19:39:48.436,-0.435793,1.76201,20.2301,-0.81907,-0.924288,-0.563278,0
2024-12-11 19:39:48.438,0.0358923,1.73569,20.4814,-0.771424,-0.929786,-0.585879,0
2024-12-11 19:39:48.439,0.0358923,1.73569,20.4814,-0.709117,-0.915736,-0.617643,0
2024-12-11 19:39:48.441,0.569791,1.67827,20.6635,-0.709117,-0.915736,-0.617643,0
2024-12-11 19:39:48.444,1.11565,1.58495,20.7233,-0.557627,-0.836326,-0.692777,1
2024-12-11 19:39:48.446,1.63998,1.4653,20.6731,-0.557627,-0.836326,-0.692777,0
2024-12-11 19:39:48.448,2.12842,1.33579,20.5439,-0.469054,-0.776463,-0.739202,0
2024-12-11 19:39:48.451,2.55224,1.20419,20.333,-0.376206,-0.713546,-0.789291,0
2024-12-11 19:39:48.452,2.9016,1.06062,20.0387,-0.279692,-0.642077,-0.841213,0
2024-12-11 19:39:48.455,3.18903,0.895514,19.6555,-0.182567,-0.567553,-0.895578,0
2024-12-11 19:39:48.458,3.44028,0.73011,19.2006,-0.0829989,-0.484478,-0.949333,0
2024-12-11 19:39:48.463,3.70618,0.431007,18.14,0.105142,-0.322604,-1.0544,0
2024-12-11 19:39:48.463,3.70618,0.431007,18.14,0.105142,-0.322604,-1.0544,0
2024-12-11 19:39:48.464,3.71575,0.316152,17.5391,0.192493,-0.242583,-1.10143,0
2024-12-11 19:39:48.466,3.65354,0.22014,16.9382,0.277401,-0.163783,-1.14541,0
2024-12-11 19:39:48.469,3.53599,0.143569,16.3397,0.353757,-0.0874275,-1.18145,0
2024-12-11 19:39:48.472,3.36132,0.105284,15.7364,0.425837,-0.0159584,-1.21078,0
2024-12-11 19:39:48.473,3.18186,0.0861416,15.1259,0.488754,0.050624,-1.23338,0
2024-12-11 19:39:48.476,2.99731,0.0430708,14.5274,0.546785,0.114763,-1.25109,0
2024-12-11 19:39:48.479,2.82024,0.00717847,13.9313,0.648796,0.230213,-1.26514,0
2024-12-11 19:39:48.481,2.65753,-0.0454636,13.3567,0.648796,0.230213,-1.26514,0
2024-12-11 19:39:48.486,2.34377,-0.0861416,12.3392,0.750808,0.366432,-1.24987,0
2024-12-11 19:39:48.488,2.21695,-0.119641,11.8771,0.750808,0.366432,-1.24987,0
2024-12-11 19:39:48.488,2.21695,-0.119641,11.8771,0.750808,0.366432,-1.24987,0
2024-12-11 19:39:48.491,2.11645,-0.157926,11.4293,0.777074,0.396364,-1.23704,0
2024-12-11 19:39:48.492,2.04467,-0.18664,11.0154,0.797843,0.422019,-1.22727,0
2024-12-11 19:39:48.495,1.98963,-0.210568,10.6322,0.813725,0.436069,-1.21688,0
2024-12-11 19:39:48.497,1.95344,-0.248854,10.2802,0.828996,0.44401,-1.20711,0
2024-12-11 19:39:48.499,1.95105,-0.287438,9.95713,0.841824,0.445231,-1.19856,0
2024-12-11 19:39:48.504,1.99202,-0.344866,9.39691,0.85343,0.42263,-1.19489,0
2024-12-11 19:39:48.506,1.99202,-0.373579,9.19562,0.855873,0.40125,-1.19673,0
2024-12-11 19:39:48.507,2.00638,-0.373579,9.19562,0.855873,0.40125,-1.19673,0
2024-12-11 19:39:48.509,2.0351,-0.411865,9.00898,0.857706,0.371319,-1.20345,0
2024-12-11 19:39:48.512,2.0662,-0.454935,8.83909,0.858317,0.291298,-1.22421,0
2024-12-11 19:39:48.514,2.0997,-0.512363,8.70748,0.858317,0.291298,-1.22421,0
2024-12-11 19:39:48.516,2.11884,-0.565005,8.60908,0.854652,0.241208,-1.23887,0
2024-12-11 19:39:48.518,2.13799,-0.591326,8.53729,0.847322,0.183178,-1.25659,0
2024-12-11 19:39:48.521,2.15713,-0.622433,8.48944,0.840602,0.123926,-1.27614,0
2024-12-11 19:39:48.524,2.14756,-0.648754,8.47508,0.834494,0.0616192,-1.29691,0
2024-12-11 19:39:48.525,2.13799,-0.663111,8.48226,0.834494,0.0616192,-1.29691,0
2024-12-11 19:39:48.531,2.12124,-0.71336,8.54926,0.807006,-0.13935,-1.35982,0
2024-12-11 19:39:48.531,2.12124,-0.71336,8.54926,0.807006,-0.13935,-1.35982,0
2024-12-11 19:39:48.532,2.10688,-0.744467,8.59711,0.804562,-0.20471,-1.38059,0
2024-12-11 19:39:48.535,2.08774,-0.761217,8.65215,0.797232,-0.268238,-1.40319,0
2024-12-11 19:39:48.538,2.08774,-0.787538,8.72184,0.784404,-0.39224,-1.44656,0
2024-12-11 19:39:48.539,2.10688,-0.82343,8.77448,0.784404,-0.39224,-1.44656,0
2024-12-11 19:39:48.542,2.12842,-0.871586,8.8343,0.778296,-0.447217,-1.46855,0
2024-12-11 19:39:48.544,2.17627,-0.938585,8.91326,0.770966,-0.502193,-1.49238,0
2024-12-11 19:39:48.547,2.24566,-1.02712,8.97069,0.763635,-0.553504,-1.51803,0
2024-12-11 19:39:48.550,2.32702,-1.10369,9.02812,0.756916,-0.602983,-1.54552,0
2024-12-11 19:39:48.551,2.41077,-1.17787,9.08076,0.748975,-0.648185,-1.57423,0
2024-12-11 19:39:48.554,2.51127,-1.27837,9.12144,0.740423,-0.689112,-1.6066,0
2024-12-11 19:39:48.557,2.62642,-1.3669,9.14537,0.719654,-0.750808,-1.67807,0
2024-12-11 19:39:48.559,2.70299,-1.42702,9.17647,0.719654,-0.750808,-1.67807,0
2024-12-11 19:39:48.561,2.74606,-1.48923,9.24347,0.70927,-0.776463,-1.71839,0
2024-12-11 19:39:48.565,2.77238,-1.57298,9.32513,0.696442,-0.800897,-1.75993,0
2024-12-11 19:39:48.566,2.77238,-1.57298,9.32513,0.696442,-0.800897,-1.75993,0
2024-12-11 19:39:48.568,2.8011,-1.5993,9.31556,0.668954,-0.835105,-1.84178,0
2024-12-11 19:39:48.570,2.84417,-1.63998,9.2677,0.653683,-0.8461,-1.88393,0
2024-12-11 19:39:48.573,2.87767,-1.67587,9.19322,0.635968,-0.854652,-1.92608,0
2024-12-11 19:39:48.575,2.92313,-1.68305,9.14776,0.635968,-0.854652,-1.92608,0
2024-12-11 19:39:48.577,2.9686,-1.6998,9.12144,0.598096,-0.866258,-2.01167,0
2024-12-11 19:39:48.580,2.98295,-1.71894,9.09033,0.577327,-0.864425,-2.05565,0
2024-12-11 19:39:48.582,2.94706,-1.73809,9.07119,0.554726,-0.863814,-2.09597,0
2024-12-11 19:39:48.585,2.84656,-1.73809,9.04008,0.508301,-0.857095,-2.17416,0
2024-12-11 19:39:48.587,2.74128,-1.74048,9.01616,0.508301,-0.857095,-2.17416,0
2024-12-11 19:39:48.590,2.65753,-1.73809,8.99462,0.458823,-0.852819,-2.23952,0
2024-12-11 19:39:48.591,2.55942,-1.70698,8.95394,0.458823,-0.852819,-2.23952,0
2024-12-11 19:39:48.595,2.44905,-1.66391,8.91326,0.411177,-0.847932,-2.29205,0
2024-12-11 19:39:48.596,2.34616,-1.62802,8.88694,0.411177,-0.847932,-2.29205,0
2024-12-11 19:39:48.599,2.26002,-1.59452,8.86541,0.362309,-0.843046,-2.33359,0
2024-12-11 19:39:48.601,2.19063,-1.55623,8.83909,0.362309,-0.843046,-2.33359,0
2024-12-11 19:39:48.604,2.13559,-1.52034,8.81516,0.343983,-0.8461,-2.3513,0
2024-12-11 19:39:48.605,2.09492,-1.47966,8.80319,0.317106,-0.8461,-2.36658,0
2024-12-11 19:39:48.608,2.05185,-1.4342,8.78166,0.301224,-0.841824,-2.38368,0
2024-12-11 19:39:48.610,2.03031,-1.41745,8.77448,0.28412,-0.839991,-2.39895,0
2024-12-11 19:39:48.613,2.0351,-1.41027,8.75055,0.271293,-0.834494,-2.41605,0
2024-12-11 19:39:48.616,2.04227,-1.38844,8.72184,0.257243,-0.827774,-2.43194,0
2024-12-11 19:39:48.617,2.03988,-1.36211,8.70987,0.245026,-0.821055,-2.44721,0
2024-12-11 19:39:48.621,2.03988,-1.33101,8.6689,0.225479,-0.80273,-2.47958,0
2024-12-11 19:39:48.623,2.0351,-1.2999,8.62583,0.21876,-0.79601,-2.4973,0
2024-12-11 19:39:48.627,1.9657,-1.2018,8.57318,0.21204,-0.788069,-2.51562,0
2024-12-11 19:39:48.627,1.9657,-1.2018,8.57318,0.21204,-0.788069,-2.51562,0
2024-12-11 19:39:48.629,1.93191,-1.13958,8.53011,0.205932,-0.777685,-2.53089,0
2024-12-11 19:39:48.632,1.88405,-1.08694,8.50379,0.19738,-0.758138,-2.55716,0
2024-12-11 19:39:48.635,1.81705,-1.03669,8.46551,0.194326,-0.749586,-2.56877,0
2024-12-11 19:39:48.636,1.75244,-0.988834,8.43201,0.194326,-0.749586,-2.56877,0
2024-12-11 19:39:48.638,1.71177,-0.957727,8.38654,0.194326,-0.74531,-2.58098,0
2024-12-11 19:39:48.641,1.67348,-0.929013,8.35783,0.191882,-0.739202,-2.59442,0
2024-12-11 19:39:48.643,1.64716,-0.924228,8.32672,0.188217,-0.738591,-2.60542,0
2024-12-11 19:39:48.645,1.64955,-0.931406,8.29083,0.184552,-0.743477,-2.61763,0
2024-12-11 19:39:48.649,1.63041,-0.907478,8.27169,0.179055,-0.7673,-2.64329,0
2024-12-11 19:39:48.650,1.61127,-0.881157,8.24537,0.179055,-0.7673,-2.64329,0
2024-12-11 19:39:48.652,1.58255,-0.859622,8.21905,0.173557,-0.787458,-2.65551,0
2024-12-11 19:39:48.655,1.53948,-0.833001,8.22622,0.169892,-0.811282,-2.66956,0
2024-12-11 19:39:48.658,1.48923,-0.797109,8.24058,0.163173,-0.871755,-2.69765,0
2024-12-11 19:39:48.660,1.42941,-0.756431,8.25015,0.163173,-0.871755,-2.69765,0
2024-12-11 19:39:48.662,1.36929,-0.722932,8.28365,0.158897,-0.905963,-2.71231,0
2024-12-11 19:39:48.665,1.3334,-0.684646,8.30758,0.154621,-0.943225,-2.72453,0
2024-12-11 19:39:48.669,1.31426,-0.584148,8.38415,0.153399,-0.984762,-2.73919,0
2024-12-11 19:39:48.671,1.31426,-0.529113,8.44158,0.146069,-1.07517,-2.76729,0
2024-12-11 19:39:48.671,1.30469,-0.529113,8.44158,0.146069,-1.07517,-2.76729,0
2024-12-11 19:39:48.674,1.29751,-0.478864,8.50619,0.144847,-1.12037,-2.78317,0
2024-12-11 19:39:48.677,1.26401,-0.423829,8.57558,0.149734,-1.21505,-2.81372,0
2024-12-11 19:39:48.679,1.1994,-0.380758,8.64497,0.149734,-1.21505,-2.81372,0
2024-12-11 19:39:48.682,1.14197,-0.354437,8.72662,0.152788,-1.3134,-2.8467,0
2024-12-11 19:39:48.683,1.07976,-0.337687,8.79841,0.152788,-1.3134,-2.8467,0
2024-12-11 19:39:48.685,0.988834,-0.34008,8.85584,0.157675,-1.35799,-2.86075,0
2024-12-11 19:39:48.688,0.9003,-0.344866,8.91087,0.159507,-1.40258,-2.87602,0
2024-12-11 19:39:48.690,0.825823,-0.34008,8.96351,0.166227,-1.44717,-2.89007,0
2024-12-11 19:39:48.693,0.758824,-0.368794,9.00419,0.169892,-1.48566,-2.90473,0
2024-12-11 19:39:48.695,0.684646,-0.385544,9.02812,0.171724,-1.52109,-2.91451,0
2024-12-11 19:39:48.697,0.624826,-0.390329,9.06401,0.172946,-1.55774,-2.92794,0
2024-12-11 19:39:48.700,0.56022,-0.402293,9.10469,0.17539,-1.58706,-2.94016,0
2024-12-11 19:39:48.702,0.471685,-0.397508,9.13101,0.176,-1.61638,-2.95055,0
2024-12-11 19:39:48.704,0.368794,-0.395115,9.15015,0.176611,-1.63959,-2.95971,0
