timestamp,accel_x,accel_y,accel_z,gyro_x,gyro_y,gyro_z,step_timestamp
2024-12-11 19:45:47.298,-0.184247,2.54985,9.39452,-0.0878856,0.0341311,0.0329094,0
2024-12-11 19:45:47.298,-0.205783,2.53789,9.40888,-0.0878856,0.0341311,0.0329094,0
2024-12-11 19:45:47.298,-0.184247,2.54985,9.39452,-0.0878856,0.0341311,0.0329094,0
2024-12-11 19:45:47.298,-0.184247,2.54985,9.39452,-0.0878856,0.0341311,0.0329094,0
2024-12-11 19:45:47.298,-0.184247,2.54985,9.39452,-0.0878856,0.0341311,0.0329094,0
2024-12-11 19:45:47.298,-0.184247,2.54985,9.39452,-0.0878856,0.0341311,0.0329094,0
2024-12-11 19:45:47.298,-0.184247,2.54985,9.39452,-0.0878856,0.0341311,0.0329094,0
2024-12-11 19:45:47.298,-0.184247,2.54985,9.39452,-0.0878856,0.0341311,0.0329094,0
2024-12-11 19:45:47.298,-0.184247,2.54985,9.39452,-0.0878856,0.0341311,0.0329094,0
2024-12-11 19:45:47.298,-0.184247,2.54985,9.39452,-0.0878856,0.0341311,0.0329094,0
2024-12-11 19:45:47.298,-0.184247,2.54985,9.39452,-0.0878856,0.0341311,0.0329094,0
2024-12-11 19:45:47.298,-0.184247,2.54985,9.39452,-0.0878856,0.0341311,0.0329094,0
2024-12-11 19:45:47.298,-0.184247,2.54985,9.39452,-0.0878856,0.0341311,0.0329094,0
2024-12-11 19:45:47.298,-0.184247,2.54985,9.39452,-0.0878856,0.0341311,0.0329094,0
2024-12-11 19:45:47.298,-0.184247,2.54985,9.39452,-0.0878856,0.0341311,0.0329094,0
2024-12-11 19:45:47.298,-0.184247,2.54985,9.39452,-0.0878856,0.0341311,0.0329094,0
2024-12-11 19:45:47.298,-0.184247,2.54985,9.39452,-0.0878856,0.0341311,0.0329094,0
2024-12-11 19:45:47.298,-0.184247,2.54985,9.39452,-0.0878856,0.0341311,0.0329094,0
2024-12-11 19:45:47.298,-0.184247,2.54985,9.39452,-0.0878856,0.0341311,0.0329094,0
2024-12-11 19:45:47.298,-0.184247,2.54985,9.39452,-0.0878856,0.0341311,0.0329094,0
2024-12-11 19:45:47.298,-0.184247,2.54985,9.39452,-0.0878856,0.0341311,0.0329094,0
2024-12-11 19:45:47.298,-0.184247,2.54985,9.39452,-0.0878856,0.0341311,0.0329094,0
2024-12-11 19:45:47.298,-0.184247,2.54985,9.39452,-0.0878856,0.0341311,0.0329094,0
2024-12-11 19:45:47.298,-0.184247,2.54985,9.39452,-0.0878856,0.0341311,0.0329094,0
2024-12-11 19:45:47.298,-0.184247,2.54985,9.39452,-0.0878856,0.0341311,0.0329094,0
2024-12-11 19:45:47.298,-0.184247,2.54985,9.39452,-0.0878856,0.0341311,0.0329094,0
2024-12-11 19:45:47.298,-0.184247,2.54985,9.39452,-0.0878856,0.0341311,0.0329094,0
2024-12-11 19:45:47.298,-0.184247,2.54985,9.39452,-0.0878856,0.0341311,0.0329094,0
2024-12-11 19:45:47.298,-0.184247,2.54985,9.39452,-0.0878856,0.0341311,0.0329094,0
2024-12-11 19:45:47.298,-0.184247,2.54985,9.39452,-0.0878856,0.0341311,0.0329094,0
2024-12-11 19:45:47.298,-0.184247,2.54985,9.39452,-0.0878856,0.0341311,0.0329094,0
2024-12-11 19:45:47.298,-0.184247,2.54985,9.39452,-0.0878856,0.0341311,0.0329094,0
2024-12-11 19:45:47.298,-0.184247,2.54985,9.39452,-0.0878856,0.0341311,0.0329094,0
2024-12-11 19:45:47.298,-0.184247,2.54985,9.39452,-0.0878856,0.0341311,0.0329094,0
2024-12-11 19:45:47.298,-0.184247,2.54985,9.39452,-0.0878856,0.0341311,0.0329094,0
2024-12-11 19:45:47.298,-0.184247,2.54985,9.39452,-0.0878856,0.0341311,0.0329094,0
2024-12-11 19:45:47.298,-0.184247,2.54985,9.39452,-0.0878856,0.0341311,0.0329094,0
2024-12-11 19:45:47.298,-0.184247,2.54985,9.39452,-0.0878856,0.0341311,0.0329094,0
2024-12-11 19:45:47.299,-0.184247,2.54985,9.39452,-0.0878856,0.0341311,0.0329094,0
2024-12-11 19:45:47.299,-0.184247,2.54985,9.39452,-0.0878856,0.0341311,0.0329094,0
2024-12-11 19:45:47.299,-0.184247,2.54985,9.39452,-0.0878856,0.0341311,0.0329094,0
2024-12-11 19:45:47.299,-0.184247,2.54985,9.39452,-0.0878856,0.0341311,0.0329094,0
2024-12-11 19:45:47.299,-0.184247,2.54985,9.39452,-0.0878856,0.0341311,0.0329094,0
2024-12-11 19:45:47.299,-0.184247,2.54985,9.39452,-0.0878856,0.0341311,0.0329094,0
2024-12-11 19:45:47.299,-0.184247,2.54985,9.39452,-0.0878856,0.0341311,0.0329094,0
2024-12-11 19:45:47.299,-0.184247,2.54985,9.39452,-0.0878856,0.0341311,0.0329094,0
2024-12-11 19:45:47.299,-0.184247,2.54985,9.39452,-0.0878856,0.0341311,0.0329094,0
2024-12-11 19:45:47.299,-0.184247,2.54985,9.39452,-0.0878856,0.0341311,0.0329094,0
2024-12-11 19:45:47.299,-0.184247,2.54985,9.39452,-0.0878856,0.0341311,0.0329094,0
2024-12-11 19:45:47.299,-0.184247,2.54985,9.39452,-0.0878856,0.0341311,0.0329094,0
2024-12-11 19:45:47.299,-0.184247,2.54985,9.39452,-0.0878856,0.0341311,0.0329094,0
2024-12-11 19:45:47.299,-0.184247,2.54985,9.39452,-0.0878856,0.0341311,0.0329094,0
2024-12-11 19:45:47.299,-0.184247,2.54985,9.39452,-0.0878856,0.0341311,0.0329094,0
2024-12-11 19:45:47.299,-0.184247,2.54985,9.39452,-0.0878856,0.0341311,0.0329094,0
2024-12-11 19:45:47.299,-0.184247,2.54985,9.39452,-0.0878856,0.0341311,0.0329094,0
2024-12-11 19:45:47.299,-0.184247,2.54985,9.39452,-0.0878856,0.0341311,0.0329094,0
2024-12-11 19:45:47.299,-0.184247,2.54985,9.39452,-0.0878856,0.0341311,0.0329094,0
2024-12-11 19:45:47.299,-0.184247,2.54985,9.39452,-0.0878856,0.0341311,0.0329094,0
2024-12-11 19:45:47.306,-0.162712,2.59771,9.36581,-0.0878856,0.0341311,0.0329094,0
2024-12-11 19:45:47.322,0.00239282,2.71735,9.48784,-0.145305,-0.0196235,0.0127514,0
2024-12-11 19:45:47.322,0.00239282,2.71735,9.48784,-0.145305,-0.0196235,0.0127514,0
2024-12-11 19:45:47.322,0.00239282,2.71735,9.48784,-0.145305,-0.0196235,0.0127514,0
2024-12-11 19:45:47.322,0.00239282,2.71735,9.48784,-0.145305,-0.0196235,0.0127514,0
2024-12-11 19:45:47.322,0.00239282,2.71735,9.48784,-0.145305,-0.0196235,0.0127514,0
2024-12-11 19:45:47.322,0.00239282,2.71735,9.48784,-0.145305,-0.0196235,0.0127514,0
2024-12-11 19:45:47.322,0.00239282,2.71735,9.48784,-0.145305,-0.0196235,0.0127514,0
2024-12-11 19:45:47.322,0.00239282,2.71735,9.48784,-0.145305,-0.0196235,0.0127514,0
2024-12-11 19:45:47.323,0.00239282,2.71735,9.48784,-0.145305,-0.0196235,0.0127514,0
2024-12-11 19:45:47.327,0.026321,2.73649,9.55963,-0.153857,-0.0342838,0.00114534,0
2024-12-11 19:45:47.328,0.026321,2.73649,9.55963,-0.158133,-0.041614,-0.00251974,0
2024-12-11 19:45:47.328,0.026321,2.73649,9.55963,-0.158133,-0.041614,-0.00251974,0
2024-12-11 19:45:47.328,0.026321,2.73649,9.55963,-0.158133,-0.041614,-0.00251974,0
2024-12-11 19:45:47.329,0.0311067,2.74846,9.59073,-0.158133,-0.041614,-0.00251974,0
2024-12-11 19:45:47.329,0.0311067,2.74846,9.59073,-0.158133,-0.041614,-0.00251974,0
2024-12-11 19:45:47.329,0.0311067,2.74846,9.59073,-0.158133,-0.041614,-0.00251974,0
2024-12-11 19:45:47.330,0.0311067,2.74846,9.59073,-0.160576,-0.0483333,-0.00801737,0
2024-12-11 19:45:47.331,0.0358923,2.75085,9.62423,-0.160576,-0.0483333,-0.00801737,0
2024-12-11 19:45:47.331,0.0358923,2.75085,9.62423,-0.160576,-0.0483333,-0.00801737,0
2024-12-11 19:45:47.331,0.0358923,2.75085,9.62423,-0.160576,-0.0483333,-0.00801737,0
2024-12-11 19:45:47.331,0.0358923,2.75085,9.62423,-0.160576,-0.0483333,-0.00801737,0
2024-12-11 19:45:47.331,0.0358923,2.75085,9.62423,-0.160576,-0.0483333,-0.00801737,0
2024-12-11 19:45:47.332,0.0358923,2.75085,9.62423,-0.163631,-0.0550526,-0.0147367,0
2024-12-11 19:45:47.334,0.040678,2.75324,9.67927,-0.163631,-0.0550526,-0.0147367,0
2024-12-11 19:45:47.334,0.040678,2.75324,9.67927,-0.163631,-0.0550526,-0.0147367,0
2024-12-11 19:45:47.336,0.040678,2.75324,9.67927,-0.162409,-0.0611611,-0.0196235,0
2024-12-11 19:45:47.336,0.0478565,2.74128,9.7343,-0.162409,-0.0611611,-0.0196235,0
2024-12-11 19:45:47.336,0.0478565,2.74128,9.7343,-0.162409,-0.0611611,-0.0196235,0
2024-12-11 19:45:47.336,0.0478565,2.74128,9.7343,-0.162409,-0.0611611,-0.0196235,0
2024-12-11 19:45:47.336,0.0478565,2.74128,9.7343,-0.162409,-0.0611611,-0.0196235,0
2024-12-11 19:45:47.337,0.0478565,2.74128,9.7343,-0.161798,-0.0660479,-0.0238994,0
2024-12-11 19:45:47.338,0.0334995,2.73649,9.77019,-0.161798,-0.0660479,-0.0238994,0
2024-12-11 19:45:47.338,0.0334995,2.73649,9.77019,-0.161798,-0.0660479,-0.0238994,0
2024-12-11 19:45:47.338,0.0334995,2.73649,9.77019,-0.161798,-0.0660479,-0.0238994,0
2024-12-11 19:45:47.339,0.0334995,2.73649,9.77019,-0.161798,-0.0660479,-0.0238994,0
2024-12-11 19:45:47.341,0.0311067,2.72692,9.8013,-0.161187,-0.0697129,-0.029397,0
2024-12-11 19:45:47.341,0.0311067,2.72692,9.8013,-0.161187,-0.0697129,-0.029397,0
2024-12-11 19:45:47.341,0.0311067,2.72692,9.8013,-0.161187,-0.0697129,-0.029397,0
2024-12-11 19:45:47.341,0.0311067,2.72692,9.8013,-0.161187,-0.0697129,-0.029397,0
2024-12-11 19:45:47.341,0.0311067,2.72692,9.8013,-0.161187,-0.0697129,-0.029397,0
2024-12-11 19:45:47.341,0.0311067,2.72692,9.8013,-0.161187,-0.0697129,-0.029397,0
2024-12-11 19:45:47.342,0.0311067,2.72692,9.8013,-0.161187,-0.0697129,-0.029397,0
2024-12-11 19:45:47.342,0.0311067,2.72692,9.8013,-0.161187,-0.0697129,-0.029397,0
2024-12-11 19:45:47.342,0.0311067,2.72692,9.8013,-0.161187,-0.0697129,-0.029397,0
2024-12-11 19:45:47.342,0.0311067,2.72692,9.8013,-0.161187,-0.0697129,-0.029397,0
2024-12-11 19:45:47.342,0.0311067,2.72692,9.8013,-0.161187,-0.0697129,-0.029397,0
2024-12-11 19:45:47.344,0.0454636,2.71017,9.82553,-0.161187,-0.0697129,-0.029397,0
2024-12-11 19:45:47.350,0.0646062,2.64078,9.91885,-0.14164,-0.0782648,-0.0519984,0
2024-12-11 19:45:47.350,0.0646062,2.64078,9.91885,-0.14164,-0.0782648,-0.0519984,0
2024-12-11 19:45:47.350,0.0646062,2.64078,9.91885,-0.14164,-0.0782648,-0.0519984,0
2024-12-11 19:45:47.353,0.066999,2.62881,9.9356,-0.138586,-0.081319,-0.0550526,0
2024-12-11 19:45:47.356,0.0741775,2.60728,9.9691,-0.127591,-0.081319,-0.0648262,0
2024-12-11 19:45:47.358,0.0550349,2.59292,9.98345,-0.123926,-0.0788757,-0.0684913,0
2024-12-11 19:45:47.360,0.0358923,2.59053,9.99303,-0.123926,-0.0788757,-0.0684913,0
2024-12-11 19:45:47.363,-0.00239282,2.59292,10.0026,-0.111098,-0.0727672,-0.0709346,0
2024-12-11 19:45:47.364,-0.0334995,2.60249,9.99781,-0.111098,-0.0727672,-0.0709346,0
2024-12-11 19:45:47.367,-0.0550349,2.60249,10.0026,-0.1056,-0.0697129,-0.0703238,0
2024-12-11 19:45:47.370,-0.0981057,2.60489,9.99542,-0.0958267,-0.0587177,-0.0691021,0
2024-12-11 19:45:47.372,-0.138784,2.60489,9.97867,-0.0958267,-0.0587177,-0.0691021,0
2024-12-11 19:45:47.375,-0.177069,2.60728,9.97867,-0.086664,-0.0507767,-0.0629936,0
2024-12-11 19:45:47.376,-0.193819,2.61924,9.97628,-0.086664,-0.0507767,-0.0629936,0
2024-12-11 19:45:47.378,-0.200997,2.61446,9.96192,-0.0848314,-0.0452791,-0.0593285,0
2024-12-11 19:45:47.381,-0.22014,2.60489,9.94038,-0.0836097,-0.0391706,-0.0562743,0
2024-12-11 19:45:47.383,-0.229711,2.6001,9.90928,-0.0817772,-0.033673,-0.0501658,0
2024-12-11 19:45:47.386,-0.232104,2.60489,9.88296,-0.0750579,-0.0281753,-0.0483333,0
2024-12-11 19:45:47.389,-0.229711,2.61207,9.86142,-0.0750579,-0.0122933,-0.0397814,0
2024-12-11 19:45:47.390,-0.22014,2.60728,9.84706,-0.0750579,-0.0122933,-0.0397814,0
2024-12-11 19:45:47.394,-0.224925,2.60249,9.81566,-0.0701711,0.00419957,-0.033673,0
2024-12-11 19:45:47.395,-0.241675,2.59532,9.77737,-0.0701711,0.00419957,-0.033673,0
2024-12-11 19:45:47.397,-0.239282,2.59771,9.74148,-0.0689494,0.0115297,-0.0342838,0
2024-12-11 19:45:47.400,-0.227318,2.59771,9.70559,-0.0701711,0.0170274,-0.0318404,0
2024-12-11 19:45:47.402,-0.234497,2.6001,9.68166,-0.0701711,0.0213033,-0.0275645,0
2024-12-11 19:45:47.404,-0.234497,2.61685,9.6362,-0.0720036,0.0274118,-0.0251211,0
2024-12-11 19:45:47.407,-0.224925,2.61207,9.59791,-0.0720036,0.0292443,-0.0251211,0
2024-12-11 19:45:47.411,-0.217747,2.58814,9.5357,-0.0756687,0.0322986,-0.0238994,0
2024-12-11 19:45:47.412,-0.217747,2.58814,9.5357,-0.0756687,0.0322986,-0.0238994,0
2024-12-11 19:45:47.414,-0.217747,2.59292,9.5022,-0.0762796,0.0316877,-0.0226777,0
2024-12-11 19:45:47.417,-0.215354,2.59292,9.47348,-0.082388,0.0316877,-0.0226777,0
2024-12-11 19:45:47.418,-0.210568,2.58335,9.46152,-0.0836097,0.030466,-0.0245102,0
2024-12-11 19:45:47.421,-0.196211,2.56899,9.46391,-0.0872748,0.0268009,-0.0257319,0
2024-12-11 19:45:47.423,-0.191426,2.57617,9.44956,-0.090329,0.0219141,-0.0275645,0
2024-12-11 19:45:47.426,-0.18664,2.59292,9.4352,-0.0939941,0.0170274,-0.0281753,0
2024-12-11 19:45:47.428,-0.179462,2.60249,9.43281,-0.0939941,0.0170274,-0.0281753,0
2024-12-11 19:45:47.431,-0.174676,2.61446,9.42802,-0.101935,-0.00679568,-0.0330621,0
2024-12-11 19:45:47.434,-0.177069,2.61685,9.42802,-0.101935,-0.00679568,-0.0330621,0
2024-12-11 19:45:47.435,-0.160319,2.62642,9.44716,-0.106211,-0.0129041,-0.0361163,0
2024-12-11 19:45:47.437,-0.153141,2.64078,9.46152,-0.108654,-0.021456,-0.037338,0
2024-12-11 19:45:47.440,-0.155533,2.65274,9.45434,-0.110487,-0.0281753,-0.0367272,0
2024-12-11 19:45:47.443,-0.138784,2.65992,9.47109,-0.11232,-0.0361163,-0.0385597,0
2024-12-11 19:45:47.444,-0.122034,2.66231,9.49263,-0.111709,-0.0410031,-0.0422248,0
2024-12-11 19:45:47.447,-0.105284,2.65753,9.51655,-0.111709,-0.0465007,-0.0440574,0
2024-12-11 19:45:47.449,-0.0861416,2.64556,9.5357,-0.11232,-0.0532201,-0.0471116,0
2024-12-11 19:45:47.451,-0.0598206,2.63599,9.55723,-0.111709,-0.057496,-0.0519984,0
2024-12-11 19:45:47.454,-0.0287139,2.62881,9.57638,-0.111098,-0.0623828,-0.0562743,0
2024-12-11 19:45:47.456,-0.00717847,2.61924,9.58595,-0.107433,-0.0666587,-0.0593285,0
2024-12-11 19:45:47.459,0.0215354,2.6001,9.59552,-0.108654,-0.0715455,-0.0672696,0
2024-12-11 19:45:47.461,0.0598206,2.6001,9.60987,-0.106211,-0.0745997,-0.0758214,0
2024-12-11 19:45:47.463,0.081356,2.60249,9.61945,-0.1056,-0.0770431,-0.0807082,0
2024-12-11 19:45:47.466,0.0765703,2.59771,9.6362,-0.1056,-0.0782648,-0.0886492,0
2024-12-11 19:45:47.469,0.0789631,2.6001,9.65534,-0.101324,-0.0794865,-0.0959794,0
2024-12-11 19:45:47.470,0.0885344,2.58096,9.65773,-0.100103,-0.0782648,-0.10331,0
2024-12-11 19:45:47.474,0.0741775,2.57139,9.65773,-0.0982701,-0.0770431,-0.109418,0
2024-12-11 19:45:47.475,0.0574277,2.57617,9.66491,-0.0964375,-0.0764323,-0.117359,0
2024-12-11 19:45:47.477,0.0550349,2.55703,9.67209,-0.0976592,-0.0794865,-0.123468,0
2024-12-11 19:45:47.481,0.0502493,2.54507,9.67687,-0.0952158,-0.0807082,-0.134463,0
2024-12-11 19:45:47.482,0.0358923,2.5331,9.67448,-0.0952158,-0.0807082,-0.134463,0
2024-12-11 19:45:47.484,0.0167498,2.5017,9.67209,-0.0976592,-0.0825407,-0.138128,0
2024-12-11 19:45:47.487,0.00478565,2.48016,9.67209,-0.0976592,-0.0831516,-0.141793,0
2024-12-11 19:45:47.490,0.00239282,2.46341,9.66491,-0.0952158,-0.081319,-0.143625,0
2024-12-11 19:45:47.491,-0.00717847,2.4323,9.6673,-0.0964375,-0.0843733,-0.144847,0
2024-12-11 19:45:47.494,-0.0119641,2.3988,9.66491,-0.0964375,-0.0843733,-0.144847,0
2024-12-11 19:45:47.496,-0.0143569,2.37727,9.66252,-0.0982701,-0.081319,-0.149123,0
2024-12-11 19:45:47.500,-0.0143569,2.34138,9.67209,-0.0988809,-0.0764323,-0.149123,0
2024-12-11 19:45:47.501,-0.0287139,2.30548,9.67209,-0.0988809,-0.0764323,-0.149123,0
2024-12-11 19:45:47.506,-0.0502493,2.2672,9.68166,-0.0982701,-0.0691021,-0.147901,0
2024-12-11 19:45:47.507,-0.0502493,2.2672,9.68166,-0.0970484,-0.0642153,-0.143015,0
2024-12-11 19:45:47.508,-0.0598206,2.24566,9.68884,-0.0970484,-0.0642153,-0.143015,0
2024-12-11 19:45:47.511,-0.0741775,2.22174,9.68166,-0.0964375,-0.0587177,-0.140571,0
2024-12-11 19:45:47.513,-0.0765703,2.20499,9.6697,-0.0964375,-0.0587177,-0.140571,0
2024-12-11 19:45:47.515,-0.0550349,2.18345,9.67209,-0.0933833,-0.041614,-0.127743,0
2024-12-11 19:45:47.517,-0.040678,2.16431,9.6697,-0.090329,-0.0324513,-0.123468,0
2024-12-11 19:45:47.520,-0.0215354,2.14756,9.65295,-0.0878856,-0.0245102,-0.117359,0
2024-12-11 19:45:47.522,-0.00478565,2.13081,9.62902,-0.0829989,-0.0147367,-0.109418,0
2024-12-11 19:45:47.525,0.00239282,2.10927,9.59791,-0.0805555,-0.0019089,-0.10392,0
2024-12-11 19:45:47.527,0.0287139,2.09013,9.55963,-0.0781121,0.00786466,-0.0947577,0
2024-12-11 19:45:47.529,0.0646062,2.07817,9.52852,-0.0738362,0.022525,-0.0874275,0
2024-12-11 19:45:47.532,0.0741775,2.07817,9.50459,-0.0720036,0.0359636,-0.0788757,0
2024-12-11 19:45:47.534,0.0837488,2.11406,9.47348,-0.0689494,0.050624,-0.0691021,0
2024-12-11 19:45:47.536,0.107677,2.14277,9.43281,-0.0646735,0.0652843,-0.0617719,0
2024-12-11 19:45:47.539,0.136391,2.15952,9.38256,-0.0610084,0.0787229,-0.0532201,0
2024-12-11 19:45:47.541,0.174676,2.17866,9.33231,-0.0591758,0.0897182,-0.0428357,0
2024-12-11 19:45:47.543,0.224925,2.19781,9.27727,-0.0542891,0.100103,-0.0348946,0
2024-12-11 19:45:47.546,0.27996,2.21934,9.22912,-0.0524565,0.108044,-0.0287862,0
2024-12-11 19:45:47.548,0.344866,2.25045,9.16451,-0.0530674,0.118428,-0.0238994,0
2024-12-11 19:45:47.550,0.409472,2.28395,9.10948,-0.0542891,0.123926,-0.0159584,0
2024-12-11 19:45:47.553,0.476471,2.29591,9.07119,-0.0548999,0.121482,-0.0122933,0
2024-12-11 19:45:47.555,0.548256,2.32941,9.03769,-0.0524565,0.122093,-0.013515,0
2024-12-11 19:45:47.558,0.615255,2.36291,8.99223,-0.0548999,0.11965,-0.013515,0
2024-12-11 19:45:47.560,0.679861,2.38684,8.95155,-0.0567324,0.114152,-0.0153475,0
2024-12-11 19:45:47.563,0.74686,2.4323,8.92762,-0.0610084,0.106822,-0.0184018,0
2024-12-11 19:45:47.564,0.811466,2.47537,8.89173,-0.066506,0.0970484,-0.0232886,0
2024-12-11 19:45:47.567,0.869193,2.50409,8.86541,-0.074447,0.0842206,-0.0306187,0
2024-12-11 19:45:47.569,0.907478,2.53789,8.84626,-0.0805555,0.0707819,-0.0385597,0
2024-12-11 19:45:47.573,0.938585,2.57378,8.8343,-0.0921616,0.0512348,-0.0477224,0
2024-12-11 19:45:47.581,1.07258,2.72453,8.87498,-0.131256,-0.0465007,-0.0953685,0
2024-12-11 19:45:47.581,1.07258,2.72453,8.87498,-0.131256,-0.0465007,-0.0953685,0
2024-12-11 19:45:47.581,1.07258,2.72453,8.87498,-0.131256,-0.0465007,-0.0953685,0
2024-12-11 19:45:47.582,1.07258,2.72453,8.87498,-0.131256,-0.0465007,-0.0953685,0
2024-12-11 19:45:47.586,1.18026,2.76042,8.9683,-0.157522,-0.114305,-0.122246,0
2024-12-11 19:45:47.588,1.20897,2.77238,9.02812,-0.169739,-0.14668,-0.138739,0
2024-12-11 19:45:47.589,1.20897,2.77238,9.02812,-0.181956,-0.177833,-0.15401,0
2024-12-11 19:45:47.590,1.2329,2.78674,9.07837,-0.181956,-0.177833,-0.15401,0
2024-12-11 19:45:47.595,1.32144,2.79631,9.22672,-0.201503,-0.244415,-0.183331,0
2024-12-11 19:45:47.596,1.32144,2.79631,9.22672,-0.201503,-0.244415,-0.183331,0
2024-12-11 19:45:47.597,1.35733,2.79153,9.31795,-0.210666,-0.271903,-0.197991,0
2024-12-11 19:45:47.601,1.39083,2.77238,9.40888,-0.219829,-0.29817,-0.212651,0
2024-12-11 19:45:47.603,1.4342,2.75563,9.50698,-0.232046,-0.338486,-0.239528,0
2024-12-11 19:45:47.605,1.47248,2.7341,9.60987,-0.232046,-0.338486,-0.239528,0
2024-12-11 19:45:47.607,1.47966,2.71735,9.71277,-0.2351,-0.351314,-0.252967,0
2024-12-11 19:45:47.609,1.47727,2.70778,9.80369,-0.236932,-0.358644,-0.26213,0
2024-12-11 19:45:47.613,1.47488,2.70299,9.89971,-0.235711,-0.355589,-0.278012,0
2024-12-11 19:45:47.614,1.45334,2.71256,9.99063,-0.235711,-0.355589,-0.278012,0
2024-12-11 19:45:47.616,1.41984,2.70539,10.0481,-0.234489,-0.347038,-0.281677,0
2024-12-11 19:45:47.620,1.37647,2.70539,10.1055,-0.230213,-0.331156,-0.281066,0
2024-12-11 19:45:47.621,1.31904,2.72931,10.1557,-0.225937,-0.309165,-0.278012,0
2024-12-11 19:45:47.623,1.23051,2.75803,10.1845,-0.219829,-0.282899,-0.273736,0
2024-12-11 19:45:47.628,1.00319,2.86092,10.1964,-0.202114,-0.214484,-0.249913,0
2024-12-11 19:45:47.629,1.00319,2.86092,10.1964,-0.196006,-0.174779,-0.23342,0
2024-12-11 19:45:47.630,0.878764,2.92074,10.1653,-0.196006,-0.174779,-0.23342,0
2024-12-11 19:45:47.633,0.770788,2.9662,10.1007,-0.185621,-0.130798,-0.212651,0
2024-12-11 19:45:47.635,0.677468,2.9997,10.0217,-0.176459,-0.0831516,-0.19005,0
2024-12-11 19:45:47.639,0.586541,3.05234,9.92124,-0.161798,0.00297788,-0.133852,0
2024-12-11 19:45:47.640,0.521934,3.09093,9.79891,-0.161798,0.00297788,-0.133852,0
2024-12-11 19:45:47.642,0.442971,3.12682,9.68166,-0.157522,0.0420721,-0.105142,0
2024-12-11 19:45:47.645,0.366401,3.17468,9.56202,-0.153857,0.0732253,-0.0758214,0
2024-12-11 19:45:47.647,0.299402,3.22493,9.44238,-0.151414,0.0982701,-0.0446682,0
2024-12-11 19:45:47.652,0.222533,3.335,9.18844,-0.152025,0.133699,0.0158057,0
2024-12-11 19:45:47.653,0.222533,3.335,9.18844,-0.156911,0.144084,0.0432938,0
2024-12-11 19:45:47.654,0.248854,3.39242,9.0688,-0.156911,0.144084,0.0432938,0
2024-12-11 19:45:47.656,0.282652,3.4666,8.93719,-0.165463,0.153246,0.0720036,0
2024-12-11 19:45:47.660,0.32333,3.54556,8.80319,-0.18501,0.160576,0.121482,0
2024-12-11 19:45:47.661,0.361615,3.60539,8.70987,-0.18501,0.160576,0.121482,0
2024-12-11 19:45:47.663,0.447757,3.6679,8.65693,-0.201503,0.153857,0.142251,0
2024-12-11 19:45:47.667,0.545863,3.73729,8.59472,-0.217996,0.142862,0.157522,0
2024-12-11 19:45:47.668,0.624826,3.80668,8.5349,-0.237543,0.124536,0.167907,0
2024-12-11 19:45:47.670,0.737288,3.87368,8.51336,-0.258312,0.101324,0.175848,0
2024-12-11 19:45:47.675,0.967299,4.00289,8.52533,-0.30718,0.0396287,0.173404,0
2024-12-11 19:45:47.675,0.967299,4.00289,8.52533,-0.30718,0.0396287,0.173404,0
2024-12-11 19:45:47.679,1.1013,4.05793,8.54926,-0.362767,-0.0361163,0.154468,0
2024-12-11 19:45:47.680,1.21615,4.11775,8.60908,-0.362767,-0.0361163,0.154468,0
2024-12-11 19:45:47.682,1.31186,4.18953,8.67129,-0.392088,-0.0782648,0.136143,0
2024-12-11 19:45:47.686,1.41027,4.26401,8.76491,-0.419576,-0.119802,0.115985,0
2024-12-11 19:45:47.689,1.59691,4.36212,9.01855,-0.468443,-0.201656,0.0634518,0
2024-12-11 19:45:47.690,1.59691,4.36212,9.01855,-0.468443,-0.201656,0.0634518,0
2024-12-11 19:45:47.692,1.66152,4.40519,9.15494,-0.492267,-0.238307,0.030466,0
2024-12-11 19:45:47.694,1.72134,4.42911,9.31556,-0.513035,-0.271903,-0.0019089,0
2024-12-11 19:45:47.700,1.8338,4.49133,9.6338,-0.539913,-0.321382,-0.0770431,0
2024-12-11 19:45:47.700,1.8338,4.49133,9.6338,-0.539913,-0.321382,-0.0770431,0
2024-12-11 19:45:47.702,1.87208,4.50329,9.8013,-0.554573,-0.340929,-0.158897,0
2024-12-11 19:45:47.704,1.88644,4.5009,9.9332,-0.554573,-0.340929,-0.158897,0
2024-12-11 19:45:47.706,1.89601,4.49611,10.0672,-0.557627,-0.337875,-0.202878,0
2024-12-11 19:45:47.708,1.88644,4.46261,10.1892,-0.553351,-0.330545,-0.246248,0
2024-12-11 19:45:47.713,1.83859,4.39562,10.2754,-0.536248,-0.304889,-0.33421,0
2024-12-11 19:45:47.714,1.77159,4.31665,10.34,-0.525252,-0.28412,-0.376358,0
2024-12-11 19:45:47.715,1.69741,4.2329,10.3905,-0.525252,-0.28412,-0.376358,0
2024-12-11 19:45:47.718,1.61127,4.14886,10.4312,-0.50937,-0.259686,-0.417896,0
2024-12-11 19:45:47.721,1.50598,4.05314,10.4264,-0.489212,-0.231587,-0.455158,0
2024-12-11 19:45:47.722,1.39083,3.94307,10.3834,-0.47333,-0.20471,-0.488143,0
2024-12-11 19:45:47.725,1.26879,3.84736,10.3496,-0.47333,-0.20471,-0.488143,0
2024-12-11 19:45:47.727,1.1324,3.75643,10.3089,-0.434236,-0.143015,-0.547396,0
2024-12-11 19:45:47.732,0.85005,3.59103,10.1414,-0.396974,-0.0807082,-0.585268,0
2024-12-11 19:45:47.732,0.85005,3.59103,10.1414,-0.396974,-0.0807082,-0.585268,0
2024-12-11 19:45:47.736,0.519542,3.44985,9.97149,-0.361545,-0.0251211,-0.609091,0
2024-12-11 19:45:47.737,0.519542,3.44985,9.97149,-0.361545,-0.0251211,-0.609091,0
2024-12-11 19:45:47.739,0.354437,3.39721,9.87338,-0.34322,-7.63559e-05,-0.611534,0
2024-12-11 19:45:47.742,0.181855,3.31107,9.77259,-0.328559,0.0194708,-0.610313,0
2024-12-11 19:45:47.746,-0.136391,3.21775,9.5668,-0.313288,0.0377962,-0.592598,0
2024-12-11 19:45:47.748,-0.297009,3.18186,9.4687,-0.291298,0.0603975,-0.576105,0
2024-12-11 19:45:47.749,-0.136391,3.18186,9.4687,-0.291298,0.0603975,-0.576105,0
2024-12-11 19:45:47.751,-0.421436,3.14596,9.39931,-0.282746,0.0707819,-0.557169,0
2024-12-11 19:45:47.755,-0.646361,3.07867,9.28445,-0.263199,0.0829989,-0.511356,0
2024-12-11 19:45:47.756,-0.538684,3.11007,9.28445,-0.255258,0.0897182,-0.485089,0
2024-12-11 19:45:47.758,-0.737288,3.05234,9.22912,-0.255258,0.0897182,-0.485089,0
2024-12-11 19:45:47.761,-0.809073,3.05234,9.18605,-0.237543,0.0994917,-0.428891,0
2024-12-11 19:45:47.762,-0.864407,3.04517,9.15255,-0.237543,0.0994917,-0.428891,0
2024-12-11 19:45:47.765,-0.914656,3.01645,9.12862,-0.22777,0.103768,-0.39957,0
2024-12-11 19:45:47.772,-1.03669,2.98774,9.07119,-0.196616,0.127591,-0.31283,0
2024-12-11 19:45:47.772,-1.03669,2.98774,9.07119,-0.196616,0.127591,-0.31283,0
2024-12-11 19:45:47.773,-1.03669,2.98774,9.07119,-0.196616,0.127591,-0.31283,0
2024-12-11 19:45:47.777,-1.12762,3.02602,9.02094,-0.174015,0.147749,-0.256632,0
2024-12-11 19:45:47.779,-1.12762,3.02124,9.0018,-0.161187,0.161187,-0.229755,0
2024-12-11 19:45:47.779,-1.12762,3.02124,9.0018,-0.161187,0.161187,-0.229755,0
2024-12-11 19:45:47.781,-1.14197,3.01406,8.97548,-0.14897,0.177069,-0.204099,0
2024-12-11 19:45:47.784,-1.16112,3.02363,8.95394,-0.135532,0.186843,-0.179665,0
2024-12-11 19:45:47.787,-1.17547,3.03559,8.93241,-0.106211,0.211888,-0.135074,0
2024-12-11 19:45:47.788,-1.17787,3.04517,8.89891,-0.106211,0.211888,-0.135074,0
2024-12-11 19:45:47.793,-1.15633,3.05952,8.83191,-0.0811663,0.234489,-0.0978119,0
2024-12-11 19:45:47.794,-1.15633,3.05952,8.83191,-0.0695602,0.241819,-0.0819299,0
2024-12-11 19:45:47.796,-1.1348,3.05713,8.79841,-0.0695602,0.241819,-0.0819299,0
2024-12-11 19:45:47.798,-1.11565,3.04517,8.75294,-0.0561216,0.250371,-0.0684913,0
2024-12-11 19:45:47.800,-1.08933,3.05952,8.71945,-0.0445155,0.254647,-0.0538309,0
2024-12-11 19:45:47.802,-1.06301,3.08584,8.6665,-0.0347419,0.260145,-0.0440574,0
2024-12-11 19:45:47.806,-1.05823,3.09332,8.60908,-0.0176382,0.264421,-0.0275645,0
2024-12-11 19:45:47.807,-1.04626,3.10529,8.57318,-0.0176382,0.264421,-0.0275645,0
2024-12-11 19:45:47.809,-1.01276,3.11725,8.53251,-0.00908635,0.260755,-0.021456,0
2024-12-11 19:45:47.812,-0.998405,3.13161,8.47986,-0.00358873,0.255258,-0.013515,0
2024-12-11 19:45:47.814,-0.986441,3.15075,8.43679,0.000687203,0.245484,-0.00984991,0
2024-12-11 19:45:47.818,-0.979263,3.16511,8.40808,0.00557398,0.233878,-0.00435229,0
2024-12-11 19:45:47.819,-0.981655,3.17946,8.39133,0.00862822,0.217385,-0.00129805,0
2024-12-11 19:45:47.821,-0.979263,3.19382,8.39133,0.00923906,0.201503,0.00175619,0
2024-12-11 19:45:47.824,-0.964906,3.22014,8.39851,0.0110716,0.178902,0.00664296,0
2024-12-11 19:45:47.826,-0.940978,3.2345,8.40808,0.0141258,0.156301,0.00908635,0
2024-12-11 19:45:47.828,-0.921835,3.24646,8.4344,0.0159584,0.132477,0.0115297,0
2024-12-11 19:45:47.831,-0.897907,3.26082,8.46311,0.0177909,0.108044,0.0127514,0
2024-12-11 19:45:47.836,-0.84018,3.32543,8.54208,0.0208452,0.0591758,0.014584,0
2024-12-11 19:45:47.836,-0.84018,3.32543,8.54208,0.0208452,0.0591758,0.014584,0
2024-12-11 19:45:47.838,-0.816252,3.33978,8.57318,0.0263428,0.038407,0.0133623,0
2024-12-11 19:45:47.841,-0.801895,3.34457,8.60668,0.0318404,0.00419957,0.0109189,0
2024-12-11 19:45:47.845,-0.734896,3.38046,8.69522,0.0318404,0.00419957,0.0109189,0
2024-12-11 19:45:47.847,-0.696611,3.3996,8.74337,0.0367272,-0.0287862,0.00419957,0
2024-12-11 19:45:47.848,-0.696611,3.3996,8.74337,0.041614,-0.0422248,0.000534491,0
2024-12-11 19:45:47.849,-0.663111,3.40917,8.78405,0.041614,-0.0422248,0.000534491,0
2024-12-11 19:45:47.852,-0.632004,3.42592,8.81994,0.0465007,-0.0556635,-0.000687203,0
2024-12-11 19:45:47.854,-0.596112,3.43789,8.87019,0.0483333,-0.0678804,-0.00740652,0
2024-12-11 19:45:47.857,-0.569791,3.4355,8.93001,0.0501658,-0.0788757,-0.0122933,0
2024-12-11 19:45:47.859,-0.524327,3.44028,8.9683,0.0550526,-0.0892601,-0.0190126,0
2024-12-11 19:45:47.862,-0.462114,3.44028,9.00658,0.0562743,-0.109418,-0.033673,0
2024-12-11 19:45:47.865,-0.421436,3.4355,9.05683,0.057496,-0.115526,-0.0428357,0
2024-12-11 19:45:47.868,-0.35683,3.44507,9.12383,0.057496,-0.121635,-0.0519984,0
2024-12-11 19:45:47.868,-0.35683,3.44507,9.12383,0.057496,-0.121635,-0.0519984,0
2024-12-11 19:45:47.872,-0.34008,3.45224,9.16451,0.0550526,-0.126522,-0.0648262,0
2024-12-11 19:45:47.874,-0.354437,3.44985,9.21715,0.0550526,-0.127743,-0.0715455,0
2024-12-11 19:45:47.875,-0.361615,3.46899,9.28924,0.0550526,-0.127743,-0.0715455,0
2024-12-11 19:45:47.878,-0.375972,3.49053,9.34188,0.0538309,-0.127743,-0.0794865,0
2024-12-11 19:45:47.880,-0.404686,3.52164,9.37777,0.0471116,-0.128965,-0.0819299,0
2024-12-11 19:45:47.883,-0.4334,3.56231,9.43759,0.0422248,-0.125911,-0.081319,0
2024-12-11 19:45:47.885,-0.462114,3.59342,9.50698,0.0379489,-0.123468,-0.0819299,0
2024-12-11 19:45:47.887,-0.488435,3.6341,9.57638,0.0306187,-0.120413,-0.0764323,0
2024-12-11 19:45:47.892,-0.512363,3.71336,9.67209,0.0165692,-0.108807,-0.0623828,0
2024-12-11 19:45:47.893,-0.512363,3.71336,9.67209,0.0104608,-0.102699,-0.0538309,0
2024-12-11 19:45:47.894,-0.524327,3.74208,9.73909,0.0104608,-0.102699,-0.0538309,0
2024-12-11 19:45:47.897,-0.531506,3.7684,9.80609,0.00313059,-0.0965902,-0.0446682,0
2024-12-11 19:45:47.899,-0.529113,3.79472,9.88535,-0.00603212,-0.0917034,-0.0361163,0
2024-12-11 19:45:47.902,-0.529113,3.82104,9.98106,-0.022525,-0.081319,-0.00984991,0
2024-12-11 19:45:47.906,-0.507577,3.85454,10.1725,-0.0280226,-0.077654,0.00297788,0
2024-12-11 19:45:47.907,-0.507577,3.85454,10.1725,-0.0335202,-0.0691021,0.0151948,0
2024-12-11 19:45:47.908,-0.498006,3.87129,10.2706,-0.0335202,-0.0691021,0.0151948,0
2024-12-11 19:45:47.912,-0.478864,3.90479,10.3567,-0.0494023,-0.0507767,0.0396287,0
2024-12-11 19:45:47.913,-0.469292,3.92872,10.4504,-0.0494023,-0.0507767,0.0396287,0
2024-12-11 19:45:47.915,-0.452543,3.94786,10.5532,-0.0542891,-0.0397814,0.0518457,0
2024-12-11 19:45:47.919,-0.421436,3.98854,10.6466,-0.0622301,-0.0129041,0.0732253,0
2024-12-11 19:45:47.920,-0.383151,4.01725,10.7495,-0.0622301,-0.0129041,0.0732253,0
2024-12-11 19:45:47.923,-0.34008,4.01246,10.8571,-0.0646735,0.00481042,0.0817772,0
2024-12-11 19:45:47.925,-0.297009,4.02682,10.9385,-0.0677277,0.0206925,0.090329,0
2024-12-11 19:45:47.927,-0.270389,4.05793,11.0345,-0.0713928,0.0341311,0.0964375,0
2024-12-11 19:45:47.930,-0.246461,4.08425,11.1254,-0.0738362,0.0518457,0.103157,0
2024-12-11 19:45:47.932,-0.224925,4.10339,11.1972,-0.0750579,0.0707819,0.106822,0
2024-12-11 19:45:47.934,-0.215354,4.1345,11.257,-0.0805555,0.090329,0.108654,0
2024-12-11 19:45:47.937,-0.210568,4.17757,11.3288,-0.0811663,0.108654,0.110487,0
2024-12-11 19:45:47.939,-0.208176,4.20628,11.3982,-0.0836097,0.128812,0.113541,0
2024-12-11 19:45:47.941,-0.224925,4.22333,11.4389,-0.086664,0.14897,0.11232,0
2024-12-11 19:45:47.944,-0.244068,4.22572,11.4748,-0.0921616,0.167907,0.111709,0
2024-12-11 19:45:47.947,-0.253639,4.2329,11.5035,-0.100713,0.203947,0.111098,0
2024-12-11 19:45:47.948,-0.265603,4.23769,11.5421,-0.100713,0.203947,0.111098,0
2024-12-11 19:45:47.952,-0.260818,4.25683,11.5708,-0.111709,0.244873,0.103157,0
2024-12-11 19:45:47.953,-0.258425,4.26162,11.5875,-0.111709,0.244873,0.103157,0
2024-12-11 19:45:47.955,-0.27996,4.25683,11.6091,-0.11965,0.266864,0.0994917,0
2024-12-11 19:45:47.958,-0.304188,4.26401,11.6067,-0.12698,0.286411,0.0933833,0
2024-12-11 19:45:47.960,-0.332901,4.2688,11.621,-0.135532,0.305958,0.0884965,0
2024-12-11 19:45:47.963,-0.366401,4.2688,11.633,-0.145305,0.326116,0.082388,0
2024-12-11 19:45:47.965,-0.395115,4.2688,11.6258,-0.159966,0.346274,0.0793338,0
2024-12-11 19:45:47.968,-0.419043,4.25683,11.6402,-0.196006,0.382925,0.0695602,0
2024-12-11 19:45:47.972,-0.452543,4.20628,11.6785,-0.210666,0.397585,0.0646735,0
2024-12-11 19:45:47.973,-0.452543,4.20628,11.6785,-0.210666,0.397585,0.0646735,0
2024-12-11 19:45:47.978,-0.476471,4.16321,11.7383,-0.246706,0.426295,0.0561216,0
2024-12-11 19:45:47.978,-0.476471,4.16321,11.7383,-0.246706,0.426295,0.0561216,0
2024-12-11 19:45:47.979,-0.474078,4.1345,11.779,-0.27114,0.436679,0.0481806,0
2024-12-11 19:45:47.981,-0.464507,4.09382,11.822,-0.298628,0.447064,0.0414613,0
2024-12-11 19:45:47.986,-0.438186,4.05314,11.9201,-0.348717,0.45867,0.0255792,0
2024-12-11 19:45:47.986,-0.438186,4.05314,11.9201,-0.348717,0.45867,0.0255792,0
2024-12-11 19:45:47.988,-0.452543,4.03161,11.9871,-0.374373,0.463557,0.0170274,0
2024-12-11 19:45:47.991,-0.493221,4.01007,12.076,-0.404305,0.467833,0.00847551,0
2024-12-11 19:45:47.996,-0.533899,4.01486,12.3105,-0.460502,0.466,-0.00679568,0
2024-12-11 19:45:47.996,-0.576969,4.01486,12.3105,-0.460502,0.466,-0.00679568,0
2024-12-11 19:45:47.998,-0.624826,4.04118,12.4277,-0.489212,0.464168,-0.0141258,0
2024-12-11 19:45:48.001,-0.687039,4.04836,12.5593,-0.538691,0.452561,-0.0177909,0
2024-12-11 19:45:48.004,-0.756431,4.04596,12.7176,-0.538691,0.452561,-0.0177909,0
2024-12-11 19:45:48.006,-0.82343,4.06271,12.8803,-0.560681,0.445842,-0.0177909,0
2024-12-11 19:45:48.007,-0.881157,4.08186,13.0406,-0.582672,0.440345,-0.0153475,0
2024-12-11 19:45:48.010,-0.940978,4.08186,13.2203,-0.602219,0.433625,-0.0116825,0
2024-12-11 19:45:48.012,-0.984048,4.0675,13.4166,-0.616269,0.42996,-0.00435229,0
2024-12-11 19:45:48.014,-1.0008,4.04118,13.6199,-0.627875,0.428738,0.000534491,0
2024-12-11 19:45:48.017,-0.998405,4.01007,13.8188,-0.634594,0.430571,0.00725381,0
2024-12-11 19:45:48.019,-0.97687,3.97179,14.0127,-0.639481,0.434236,0.0133623,0
2024-12-11 19:45:48.021,-0.969691,3.91675,14.1802,-0.640702,0.441566,0.022525,0
2024-12-11 19:45:48.024,-0.974477,3.84736,14.3504,-0.638259,0.448286,0.0316877,0
2024-12-11 19:45:48.026,-0.972084,3.78275,14.5274,-0.629096,0.45867,0.038407,0
2024-12-11 19:45:48.030,-0.991227,3.7325,14.683,-0.604662,0.481882,0.0610084,0
2024-12-11 19:45:48.031,-1.02233,3.68943,14.8385,-0.604662,0.481882,0.0610084,0
2024-12-11 19:45:48.033,-1.04865,3.63649,14.9776,-0.586948,0.492877,0.0768904,0
2024-12-11 19:45:48.036,-1.07019,3.59342,15.0876,-0.566179,0.506927,0.0921616,0
2024-12-11 19:45:48.038,-1.10608,3.54796,15.2001,-0.541134,0.518533,0.110487,0
2024-12-11 19:45:48.040,-1.15155,3.50728,15.2982,-0.515479,0.531361,0.131256,0
2024-12-11 19:45:48.043,-1.19701,3.49532,15.3963,-0.483715,0.546632,0.15569,0
2024-12-11 19:45:48.045,-1.26162,3.48335,15.4684,-0.451951,0.557627,0.180734,0
2024-12-11 19:45:48.047,-1.32383,3.46421,15.5163,-0.4153,0.567401,0.211277,0
2024-12-11 19:45:48.050,-1.38604,3.45942,15.5569,-0.378038,0.577174,0.24243,1
2024-12-11 19:45:48.052,-1.42702,3.44985,15.5689,-0.338333,0.586337,0.277248,0
2024-12-11 19:45:48.054,-1.46291,3.43789,15.5809,-0.338333,0.586337,0.277248,0
2024-12-11 19:45:48.058,-1.50359,3.44746,15.5809,-0.212498,0.610771,0.398196,0
2024-12-11 19:45:48.059,-1.51555,3.44985,15.545,-0.212498,0.610771,0.398196,0
2024-12-11 19:45:48.061,-1.51795,3.45224,15.4852,-0.164242,0.620544,0.442788,0
2024-12-11 19:45:48.066,-1.47009,3.48574,15.3389,-0.0701711,0.6462,0.533193,0
2024-12-11 19:45:48.067,-1.47009,3.48574,15.3389,-0.0219141,0.665136,0.580229,0
2024-12-11 19:45:48.070,-1.41506,3.50728,15.2145,0.0263428,0.68957,0.628486,0
2024-12-11 19:45:48.072,-1.32622,3.53121,15.0637,0.0263428,0.68957,0.628486,0
2024-12-11 19:45:48.076,-1.1683,3.55514,14.6973,0.121635,0.740881,0.716447,0
2024-12-11 19:45:48.076,-1.1683,3.55514,14.6973,0.121635,0.740881,0.716447,0
2024-12-11 19:45:48.078,-1.05583,3.55992,14.5059,0.165005,0.765926,0.758672,0
2024-12-11 19:45:48.081,-0.905085,3.55035,14.2878,0.208986,0.782419,0.798988,0
2024-12-11 19:45:48.083,-0.739681,3.5336,14.0629,0.246248,0.794025,0.830752,0
2024-12-11 19:45:48.085,-0.56022,3.49532,13.8428,0.281066,0.794636,0.861295,0
2024-12-11 19:45:48.087,-0.368794,3.44985,13.6176,0.312219,0.782419,0.885118,0
2024-12-11 19:45:48.091,-0.157926,3.402,13.4142,0.362309,0.72561,0.911995,0
2024-12-11 19:45:48.094,0.267996,3.30389,13.0143,0.382467,0.683462,0.913217,0
2024-12-11 19:45:48.094,0.267996,3.30389,13.0143,0.382467,0.683462,0.913217,0
2024-12-11 19:45:48.098,0.469292,3.25364,12.8228,0.412398,0.575953,0.897945,0
2024-12-11 19:45:48.099,0.660718,3.21057,12.6721,0.412398,0.575953,0.897945,0
2024-12-11 19:45:48.102,0.852443,3.18186,12.5234,0.42095,0.515479,0.876566,0
2024-12-11 19:45:48.104,1.03669,3.16032,12.399,0.429502,0.447675,0.85091,0
2024-12-11 19:45:48.106,1.19701,3.134,12.3009,0.438054,0.37926,0.819757,0
2024-12-11 19:45:48.109,1.35733,3.08854,12.2243,0.442941,0.306569,0.781884,0
2024-12-11 19:45:48.111,1.52752,3.0332,12.186,0.450882,0.230824,0.73546,0
2024-12-11 19:45:48.113,1.69262,2.97099,12.1621,0.45699,0.153246,0.685294,0
2024-12-11 19:45:48.116,1.83859,2.90638,12.1693,0.463099,0.0695602,0.628486,0
2024-12-11 19:45:48.118,1.98006,2.8322,12.1813,0.472261,-0.00862822,0.568622,0
2024-12-11 19:45:48.120,2.09492,2.74367,12.1932,0.483867,-0.0880384,0.502651,0
2024-12-11 19:45:48.123,2.18345,2.65274,12.2291,0.496695,-0.161951,0.433014,0
2024-12-11 19:45:48.126,2.24566,2.56899,12.2674,0.52907,-0.293283,0.286411,0
2024-12-11 19:45:48.127,2.27916,2.47537,12.3081,0.52907,-0.293283,0.286411,0
2024-12-11 19:45:48.130,2.29831,2.34616,12.3751,0.552893,-0.347648,0.21372,0
2024-12-11 19:45:48.132,2.28395,2.21934,12.4373,0.576716,-0.395295,0.142251,0
2024-12-11 19:45:48.135,2.2337,2.11406,12.4852,0.604204,-0.434389,0.0713928,0
2024-12-11 19:45:48.138,2.15474,1.98963,12.5091,0.67323,-0.483257,-0.0526092,0
2024-12-11 19:45:48.139,2.06142,1.84576,12.5019,0.67323,-0.483257,-0.0526092,0
2024-12-11 19:45:48.143,1.95823,1.71177,12.4804,0.750808,-0.49303,-0.160729,0
2024-12-11 19:45:48.144,1.85533,1.58016,12.4708,0.750808,-0.49303,-0.160729,0
2024-12-11 19:45:48.146,1.75484,1.43898,12.4588,0.791124,-0.488143,-0.203488,0
2024-12-11 19:45:48.149,1.66391,1.29272,12.4182,0.836937,-0.469818,-0.243194,0
2024-12-11 19:45:48.152,1.58495,1.16112,12.3512,0.933451,-0.404457,-0.310998,0
2024-12-11 19:45:48.156,1.41984,0.835394,12.1502,0.98293,-0.356811,-0.338486,0
2024-12-11 19:45:48.156,1.41984,0.835394,12.1502,0.98293,-0.356811,-0.338486,0
2024-12-11 19:45:48.158,1.32383,0.687039,12.0063,1.03241,-0.303057,-0.361698,0
2024-12-11 19:45:48.160,1.22812,0.529113,11.846,1.08494,-0.238918,-0.381856,0
2024-12-11 19:45:48.163,1.12283,0.368794,11.6521,1.13503,-0.164394,-0.392851,0
2024-12-11 19:45:48.165,1.01994,0.236889,11.4054,1.18268,-0.0862058,-0.400792,0
2024-12-11 19:45:48.167,0.897907,0.114855,11.1278,1.22727,-0.00251974,-0.404457,0
2024-12-11 19:45:48.170,0.751645,0.00239282,10.8571,1.27308,0.0848314,-0.40629,0
2024-12-11 19:45:48.172,0.605683,-0.107677,10.558,1.31523,0.172793,-0.400792,0
2024-12-11 19:45:48.175,0.459721,-0.224925,10.2467,1.35127,0.258923,-0.389797,0
2024-12-11 19:45:48.177,0.316152,-0.316152,9.93799,1.38426,0.340776,-0.375747,0
2024-12-11 19:45:48.180,0.184247,-0.387936,9.61466,1.43862,0.487991,-0.340318,0
2024-12-11 19:45:48.183,0.0598206,-0.476471,9.3012,1.45756,0.548464,-0.317717,0
2024-12-11 19:45:48.185,-0.0430708,-0.545863,8.98744,1.471,0.602219,-0.292672,0
2024-12-11 19:45:48.186,-0.12682,-0.605683,8.6689,1.471,0.602219,-0.292672,0
2024-12-11 19:45:48.189,-0.193819,-0.667897,8.36979,1.47955,0.650476,-0.270071,0
2024-12-11 19:45:48.192,-0.258425,-0.732503,8.07279,1.48505,0.690792,-0.244415,0
2024-12-11 19:45:48.193,-0.335294,-0.785145,7.7689,1.48321,0.721334,-0.21876,0
2024-12-11 19:45:48.196,-0.3999,-0.816252,7.48624,1.47649,0.745768,-0.193104,0
2024-12-11 19:45:48.199,-0.474078,-0.828216,7.22303,1.46672,0.763483,-0.168059,0
2024-12-11 19:45:48.200,-0.550648,-0.825823,6.97627,1.46672,0.763483,-0.168059,0
2024-12-11 19:45:48.203,-0.615255,-0.80668,6.74178,1.43435,0.78303,-0.116748,0
2024-12-11 19:45:48.208,-0.675075,-0.761217,6.31316,1.38548,0.776311,-0.0691021,0
2024-12-11 19:45:48.209,-0.734896,-0.761217,6.31316,1.35371,0.765926,-0.0434465,0
2024-12-11 19:45:48.210,-0.785145,-0.720539,6.1337,1.35371,0.765926,-0.0434465,0
2024-12-11 19:45:48.212,-0.837787,-0.665504,5.97817,1.32195,0.750655,-0.0196235,0
2024-12-11 19:45:48.215,-0.878764,-0.605683,5.84626,1.28591,0.732329,0.00358873,0
2024-12-11 19:45:48.217,-0.905085,-0.553041,5.72902,1.25048,0.709728,0.0261901,0
2024-12-11 19:45:48.220,-0.945763,-0.490828,5.61895,1.17168,0.657806,0.066506,0
2024-12-11 19:45:48.223,-0.988834,-0.435793,5.52802,1.17168,0.657806,0.066506,0
2024-12-11 19:45:48.224,-1.02712,-0.373579,5.44906,1.13075,0.630318,0.086664,0
2024-12-11 19:45:48.227,-1.06301,-0.297009,5.37249,1.088,0.604662,0.103157,0
2024-12-11 19:45:48.229,-1.08455,-0.222533,5.3004,1.04524,0.579007,0.118428,0
2024-12-11 19:45:48.231,-1.0989,-0.150748,5.24058,0.999422,0.550297,0.131867,0
2024-12-11 19:45:48.234,-1.11087,-0.081356,5.2023,0.957274,0.521587,0.142862,0
2024-12-11 19:45:48.236,-1.10848,-0.00478565,5.1664,0.912071,0.492267,0.154468,0
2024-12-11 19:45:48.239,-1.09173,0.0502493,5.15205,0.868701,0.461113,0.164242,0
2024-12-11 19:45:48.242,-1.0654,0.0861416,5.15444,0.825331,0.431182,0.169739,0
2024-12-11 19:45:48.244,-1.04148,0.138784,5.14965,0.738591,0.363989,0.17768,0
2024-12-11 19:45:48.246,-1.02712,0.174676,5.15683,0.738591,0.363989,0.17768,0
2024-12-11 19:45:48.248,-1.00319,0.198604,5.1664,0.695221,0.331003,0.177069,0
2024-12-11 19:45:48.251,-0.964906,0.227318,5.17358,0.612145,0.260755,0.166685,0
2024-12-11 19:45:48.253,-0.931406,0.256032,5.19272,0.571219,0.225326,0.159966,0
2024-12-11 19:45:48.255,-0.907478,0.289831,5.22862,0.571219,0.225326,0.159966,0
2024-12-11 19:45:48.258,-0.876371,0.320937,5.28126,0.490587,0.150803,0.136753,0
2024-12-11 19:45:48.259,-0.847657,0.347258,5.33181,0.490587,0.150803,0.136753,0
2024-12-11 19:45:48.263,-0.811466,0.383151,5.38684,0.417285,0.0713928,0.104989,0
2024-12-11 19:45:48.265,-0.789931,0.41665,5.45145,0.37758,0.0298552,0.0860531,0
2024-12-11 19:45:48.267,-0.792323,0.454935,5.51366,0.37758,0.0298552,0.0860531,0
2024-12-11 19:45:48.270,-0.799502,0.493221,5.5998,0.303057,-0.057496,0.0469589,0
2024-12-11 19:45:48.271,-0.792323,0.529113,5.67637,0.303057,-0.057496,0.0469589,0
2024-12-11 19:45:48.274,-0.782752,0.584148,5.73619,0.268238,-0.100255,0.0268009,0
2024-12-11 19:45:48.276,-0.789931,0.632004,5.81755,0.234642,-0.142404,0.00786466,0
2024-12-11 19:45:48.278,-0.809073,0.677468,5.91596,0.200434,-0.180276,-0.0116825,0
2024-12-11 19:45:48.282,-0.82343,0.734896,6.02363,0.135684,-0.249302,-0.0501658,0
2024-12-11 19:45:48.283,-0.825823,0.768395,6.11695,0.135684,-0.249302,-0.0501658,0
2024-12-11 19:45:48.285,-0.816252,0.794716,6.20788,0.10331,-0.280455,-0.0678804,0
2024-12-11 19:45:48.288,-0.809073,0.821037,6.32273,0.0764323,-0.310387,-0.0849841,0
2024-12-11 19:45:48.291,-0.801895,0.84018,6.44238,0.0196235,-0.369639,-0.115526,0
2024-12-11 19:45:48.293,-0.799502,0.84018,6.55514,0.0196235,-0.369639,-0.115526,0
2024-12-11 19:45:48.295,-0.804287,0.82343,6.6676,-0.00725381,-0.392851,-0.131409,0
2024-12-11 19:45:48.297,-0.825823,0.816252,6.78485,-0.0329094,-0.417285,-0.145458,0
2024-12-11 19:45:48.299,-0.854836,0.804287,6.8997,-0.0555107,-0.441719,-0.158286,0
2024-12-11 19:45:48.303,-0.885943,0.787538,7.00977,-0.0768904,-0.463099,-0.170503,0
2024-12-11 19:45:48.304,-0.914656,0.782752,7.1345,-0.0958267,-0.482035,-0.182109,0
2024-12-11 19:45:48.306,-0.945763,0.794716,7.25893,-0.114152,-0.499749,-0.19005,0
2024-12-11 19:45:48.309,-0.984048,0.794716,7.3666,-0.132477,-0.516242,-0.197991,0
2024-12-11 19:45:48.311,-1.02473,0.792323,7.48624,-0.147749,-0.531513,-0.205321,0
2024-12-11 19:45:48.315,-1.0654,0.797109,7.62533,-0.172183,-0.555337,-0.21204,0
2024-12-11 19:45:48.317,-1.08933,0.799502,7.74736,-0.181345,-0.56511,-0.216927,0
2024-12-11 19:45:48.321,-1.14437,0.782752,7.97468,-0.188065,-0.57244,-0.216927,0
2024-12-11 19:45:48.321,-1.14437,0.782752,7.97468,-0.188065,-0.57244,-0.216927,0
2024-12-11 19:45:48.324,-1.15394,0.773181,8.07279,-0.192951,-0.577938,-0.216927,0
2024-12-11 19:45:48.325,-1.17547,0.770788,8.1688,-0.200892,-0.581603,-0.216927,0
2024-12-11 19:45:48.328,-1.18983,0.770788,8.27408,-0.201503,-0.582825,-0.214484,0
2024-12-11 19:45:48.330,-1.21137,0.777966,8.3674,-0.204557,-0.581603,-0.210208,0
2024-12-11 19:45:48.332,-1.2329,0.770788,8.44397,-0.207001,-0.578549,-0.206543,0
2024-12-11 19:45:48.336,-1.25444,0.766002,8.51097,-0.208833,-0.577327,-0.202267,0
2024-12-11 19:45:48.337,-1.27597,0.777966,8.57558,-0.208223,-0.571829,-0.197991,0
2024-12-11 19:45:48.339,-1.29751,0.787538,8.63301,-0.208223,-0.56511,-0.191882,0
2024-12-11 19:45:48.344,-1.31665,0.777966,8.74816,-0.207612,-0.545563,-0.179055,0
2024-12-11 19:45:48.345,-1.31665,0.777966,8.74816,-0.203947,-0.533346,-0.171724,0
2024-12-11 19:45:48.347,-1.31186,0.758824,8.81516,-0.203947,-0.533346,-0.171724,0
2024-12-11 19:45:48.349,-1.31426,0.773181,8.89651,-0.199671,-0.516853,-0.163783,0
2024-12-11 19:45:48.351,-1.3334,0.794716,8.95634,-0.192341,-0.498528,-0.154621,0
2024-12-11 19:45:48.355,-1.37169,0.816252,9.01137,-0.181345,-0.464931,-0.130798,0
2024-12-11 19:45:48.356,-1.39801,0.862014,9.06641,-0.181345,-0.464931,-0.130798,0
2024-12-11 19:45:48.359,-1.42223,0.893121,9.09273,-0.166685,-0.429502,-0.104531,0
2024-12-11 19:45:48.362,-1.45334,0.917049,9.10708,-0.166685,-0.429502,-0.104531,0
2024-12-11 19:45:48.363,-1.47727,0.948156,9.13101,-0.158133,-0.409344,-0.0868167,0
2024-12-11 19:45:48.365,-1.48684,0.99362,9.14537,-0.150803,-0.38491,-0.0697129,0
2024-12-11 19:45:48.369,-1.50359,1.02951,9.14058,-0.130034,-0.33421,-0.0275645,0
2024-12-11 19:45:48.371,-1.52034,1.05105,9.1358,-0.11965,-0.306722,-0.00313059,0
2024-12-11 19:45:48.373,-1.52991,1.08455,9.12623,-0.11965,-0.306722,-0.00313059,0
2024-12-11 19:45:48.375,-1.52752,1.12044,9.0999,-0.11232,-0.276179,0.022525,0
2024-12-11 19:45:48.377,-1.51316,1.17787,9.06162,-0.101935,-0.243194,0.0451263,0
2024-12-11 19:45:48.379,-1.4988,1.21854,9.02094,-0.0939941,-0.210819,0.0713928,0
2024-12-11 19:45:48.382,-1.47009,1.25204,8.97308,-0.0842206,-0.177833,0.0982701,0
2024-12-11 19:45:48.384,-1.43659,1.28554,8.90609,-0.0775012,-0.144236,0.126369,0
2024-12-11 19:45:48.387,-1.40548,1.31904,8.8343,-0.0658951,-0.109418,0.15569,0
2024-12-11 19:45:48.389,-1.36929,1.36211,8.78166,-0.0616192,-0.0745997,0.182567,0
2024-12-11 19:45:48.391,-1.3334,1.41027,8.7003,-0.0555107,-0.0410031,0.211888,0
2024-12-11 19:45:48.394,-1.29272,1.46291,8.60429,-0.0500131,-0.00496313,0.239376,0
2024-12-11 19:45:48.397,-1.24965,1.51555,8.51336,-0.046348,0.030466,0.266253,0
2024-12-11 19:45:48.398,-1.20419,1.5682,8.42244,-0.0432938,0.0658951,0.296185,0
2024-12-11 19:45:48.402,-1.16112,1.62084,8.32433,-0.0402396,0.0976592,0.323673,0
2024-12-11 19:45:48.405,-1.11565,1.67827,8.22383,-0.0365745,0.159966,0.37254,0
2024-12-11 19:45:48.405,-1.04626,1.74766,8.13769,-0.0365745,0.159966,0.37254,0
2024-12-11 19:45:48.408,-0.964906,1.81944,8.05364,-0.0365745,0.159966,0.37254,0
2024-12-11 19:45:48.410,-0.88355,1.88166,7.96272,-0.0390179,0.208833,0.416521,0
2024-12-11 19:45:48.413,-0.818644,1.93908,7.85982,-0.0408504,0.233267,0.434847,0
2024-12-11 19:45:48.416,-0.744467,1.98724,7.77847,-0.042683,0.252814,0.448286,0
2024-12-11 19:45:48.417,-0.667897,2.03988,7.69711,-0.0457372,0.269307,0.464778,0
2024-12-11 19:45:48.420,-0.596112,2.10449,7.61336,-0.0487914,0.282135,0.475774,0
2024-12-11 19:45:48.423,-0.519542,2.16909,7.54607,-0.0548999,0.302293,0.491045,0
2024-12-11 19:45:48.424,-0.462114,2.22652,7.47667,-0.0548999,0.302293,0.491045,0
2024-12-11 19:45:48.427,-0.421436,2.27199,7.40728,-0.0579541,0.310234,0.495321,0
2024-12-11 19:45:48.430,-0.385544,2.32463,7.34507,-0.0646735,0.315732,0.497764,0
2024-12-11 19:45:48.431,-0.352044,2.3988,7.29721,-0.0683385,0.319397,0.498986,0
2024-12-11 19:45:48.435,-0.32333,2.46341,7.25414,-0.0781121,0.320008,0.495321,0
2024-12-11 19:45:48.437,-0.297009,2.52084,7.21586,-0.0781121,0.320008,0.495321,0
2024-12-11 19:45:48.439,-0.287438,2.58335,7.18714,-0.0817772,0.319397,0.491045,0
2024-12-11 19:45:48.441,-0.289831,2.65035,7.16082,-0.0872748,0.313899,0.487991,0
2024-12-11 19:45:48.443,-0.299402,2.72453,7.12971,-0.0915507,0.308401,0.483104,0
2024-12-11 19:45:48.445,-0.301795,2.79631,7.10339,-0.0952158,0.301071,0.474552,0
2024-12-11 19:45:48.449,-0.301795,2.8657,7.08904,-0.100713,0.289465,0.465389,0
2024-12-11 19:45:48.451,-0.30658,2.91595,7.07229,-0.108044,0.265642,0.445842,0
2024-12-11 19:45:48.453,-0.299402,2.95902,7.06511,-0.108044,0.265642,0.445842,0
2024-12-11 19:45:48.455,-0.275175,3.01645,7.08425,-0.110487,0.252204,0.434847,0
2024-12-11 19:45:48.457,-0.265603,3.04995,7.11057,-0.113541,0.236932,0.422019,0
2024-12-11 19:45:48.461,-0.265603,3.09093,7.14168,-0.118428,0.202114,0.39392,0
2024-12-11 19:45:48.463,-0.267996,3.16271,7.17039,-0.117817,0.1844,0.375595,0
2024-12-11 19:45:48.464,-0.267996,3.22014,7.19432,-0.117817,0.1844,0.375595,0
2024-12-11 19:45:48.467,-0.267996,3.27996,7.235,-0.117817,0.163631,0.358491,0
2024-12-11 19:45:48.469,-0.267996,3.32543,7.28046,-0.120261,0.142251,0.341387,0
2024-12-11 19:45:48.471,-0.277567,3.36132,7.31157,-0.11965,0.121482,0.323062,0
2024-12-11 19:45:48.475,-0.304188,3.41635,7.35225,-0.120261,0.0829989,0.2858,0
2024-12-11 19:45:48.477,-0.320937,3.47139,7.40489,-0.119039,0.0628409,0.265642,0
2024-12-11 19:45:48.478,-0.332901,3.50967,7.47189,-0.119039,0.0628409,0.265642,0
2024-12-11 19:45:48.481,-0.35683,3.54078,7.52692,-0.117206,0.0445155,0.246706,0
2024-12-11 19:45:48.483,-0.368794,3.57667,7.57478,-0.114152,0.0213033,0.227159,0
2024-12-11 19:45:48.485,-0.378365,3.60299,7.6349,-0.11293,-0.00557398,0.208223,0
2024-12-11 19:45:48.488,-0.414257,3.61735,7.69233,-0.11232,-0.0330621,0.188675,0
2024-12-11 19:45:48.491,-0.440578,3.6341,7.74018,-0.113541,-0.0593285,0.169739,0
2024-12-11 19:45:48.493,-0.459721,3.64876,7.7689,-0.11293,-0.0892601,0.150192,0
2024-12-11 19:45:48.495,-0.498006,3.6679,7.8,-0.113541,-0.114916,0.131867,0
2024-12-11 19:45:48.497,-0.562612,3.70858,7.8359,-0.118428,-0.146069,0.114763,0
2024-12-11 19:45:48.501,-0.641576,3.74925,7.89811,-0.127591,-0.202267,0.0836097,0
2024-12-11 19:45:48.502,-0.703789,3.77557,7.9675,-0.127591,-0.202267,0.0836097,0
2024-12-11 19:45:48.504,-0.761217,3.80429,8.0345,-0.133699,-0.230977,0.0732253,0
2024-12-11 19:45:48.507,-0.821037,3.84018,8.11825,-0.139197,-0.262741,0.0616192,0
2024-12-11 19:45:48.509,-0.878764,3.86411,8.20469,-0.144694,-0.291451,0.0512348,0
2024-12-11 19:45:48.511,-0.931406,3.87847,8.30997,-0.154468,-0.324436,0.0439046,0
2024-12-11 19:45:48.515,-0.962513,3.90239,8.40569,-0.170961,-0.383688,0.0310769,0
2024-12-11 19:45:48.516,-0.991227,3.90957,8.50619,-0.170961,-0.383688,0.0310769,0
2024-12-11 19:45:48.518,-1.02473,3.91914,8.62343,-0.182567,-0.411177,0.0255792,0
2024-12-11 19:45:48.521,-1.05105,3.93589,8.72423,-0.194784,-0.437443,0.0231358,0
2024-12-11 19:45:48.524,-1.0678,3.95504,8.83909,-0.217996,-0.477759,0.0176382,0
2024-12-11 19:45:48.527,-1.07498,3.97897,8.96112,-0.217996,-0.477759,0.0176382,0
2024-12-11 19:45:48.528,-1.07737,3.97657,9.07119,-0.228991,-0.497917,0.0151948,0
2024-12-11 19:45:48.531,-1.08215,3.99571,9.2028,-0.259534,-0.534568,0.0151948,0
2024-12-11 19:45:48.533,-1.11087,4.01246,9.34427,-0.259534,-0.534568,0.0151948,0
2024-12-11 19:45:48.535,-1.12283,4.00529,9.49023,-0.274805,-0.552893,0.014584,0
2024-12-11 19:45:48.538,-1.09173,4.01007,9.66012,-0.307791,-0.592598,0.0109189,0
2024-12-11 19:45:48.541,-1.06301,4.00768,9.85185,-0.307791,-0.592598,0.0109189,0
2024-12-11 19:45:48.542,-1.03669,4.00768,10.0337,-0.324894,-0.612145,0.0096972,0
2024-12-11 19:45:48.544,-0.998405,4.01725,10.2227,-0.339555,-0.634136,0.00847551,0
2024-12-11 19:45:48.547,-0.964906,4.01246,10.4504,-0.356048,-0.65185,0.00847551,0
2024-12-11 19:45:48.551,-0.893121,4.07946,10.9385,-0.384757,-0.683004,0.00419957,0
2024-12-11 19:45:48.551,-0.893121,4.07946,10.9385,-0.384757,-0.683004,0.00419957,0
2024-12-11 19:45:48.557,-0.744467,4.10339,11.4796,-0.411635,-0.703772,-0.013515,0
2024-12-11 19:45:48.557,-0.744467,4.10339,11.4796,-0.411635,-0.703772,-0.013515,0
2024-12-11 19:45:48.558,-0.641576,4.101,11.779,-0.411635,-0.703772,-0.013515,0
2024-12-11 19:45:48.561,-0.553041,4.12253,12.0736,-0.409802,-0.703772,-0.0232886,0
2024-12-11 19:45:48.563,-0.481256,4.168,12.3416,-0.411024,-0.707437,-0.0330621,0
2024-12-11 19:45:48.567,-0.428614,4.20897,12.5856,-0.406137,-0.7166,-0.0599394,0
2024-12-11 19:45:48.569,-0.385544,4.2353,12.7893,-0.404915,-0.722709,-0.0739889,0
2024-12-11 19:45:48.570,-0.328116,4.2329,12.964,-0.404915,-0.722709,-0.0739889,0
2024-12-11 19:45:48.573,-0.260818,4.2329,13.1435,-0.401861,-0.72393,-0.0910926,0
2024-12-11 19:45:48.575,-0.189033,4.23769,13.3304,-0.400639,-0.724541,-0.108196,0
2024-12-11 19:45:48.577,-0.11007,4.21855,13.5218,-0.400029,-0.722098,-0.126522,0
2024-12-11 19:45:48.580,-0.0334995,4.18714,13.7181,-0.396974,-0.719044,-0.145458,0
2024-12-11 19:45:48.582,0.0454636,4.15843,13.9193,-0.392698,-0.720265,-0.166227,0
2024-12-11 19:45:48.584,0.114855,4.12014,14.1084,-0.389644,-0.719044,-0.188217,0
2024-12-11 19:45:48.587,0.184247,4.07229,14.295,-0.390255,-0.720876,-0.21204,0
2024-12-11 19:45:48.589,0.270389,4.04357,14.4915,-0.387201,-0.726374,-0.237696,0
2024-12-11 19:45:48.592,0.35683,4.01246,14.6734,-0.385979,-0.728206,-0.262741,0
2024-12-11 19:45:48.594,0.426222,3.98136,14.8385,-0.385979,-0.730039,-0.289007,0
2024-12-11 19:45:48.599,0.588933,3.9,15.1594,-0.383536,-0.720876,-0.340929,0
2024-12-11 19:45:48.600,0.588933,3.9,15.1594,-0.379871,-0.712935,-0.367196,0
2024-12-11 19:45:48.601,0.643968,3.88086,15.3197,-0.379871,-0.712935,-0.367196,0
2024-12-11 19:45:48.603,0.677468,3.84497,15.4899,-0.37926,-0.702551,-0.392851,0
2024-12-11 19:45:48.606,0.691825,3.79711,15.655,-0.376206,-0.688501,-0.418507,0
2024-12-11 19:45:48.609,0.691825,3.77557,15.8106,-0.36521,-0.642077,-0.46432,0
2024-12-11 19:45:48.611,0.648754,3.76361,15.9541,-0.357269,-0.60848,-0.477759,0
2024-12-11 19:45:48.613,0.541077,3.766,16.0813,-0.357269,-0.60848,-0.477759,0
2024-12-11 19:45:48.615,0.407079,3.78515,16.1722,-0.351161,-0.567553,-0.489365,0
2024-12-11 19:45:48.617,0.236889,3.82343,16.2344,-0.341387,-0.511966,-0.494252,0
2024-12-11 19:45:48.620,0.0526421,3.88804,16.2966,-0.327949,-0.447827,-0.492419,0
2024-12-11 19:45:48.622,-0.136391,3.94068,16.3325,-0.313899,-0.379413,-0.484478,0
2024-12-11 19:45:48.624,-0.30658,3.96461,16.3253,-0.301682,-0.308554,-0.467375,0
2024-12-11 19:45:48.628,-0.411865,3.94547,16.2894,-0.272972,-0.176611,-0.419728,1
2024-12-11 19:45:48.630,-0.454935,3.89761,16.2224,-0.259534,-0.124078,-0.391019,0
2024-12-11 19:45:48.633,-0.435793,3.82582,16.1267,-0.259534,-0.124078,-0.391019,0
2024-12-11 19:45:48.635,-0.359223,3.69422,15.9927,-0.243041,-0.0306187,-0.339097,0
2024-12-11 19:45:48.636,-0.222533,3.52882,15.8369,-0.243041,-0.0306187,-0.339097,0
2024-12-11 19:45:48.640,-0.0622134,3.36371,15.679,-0.233267,0.0335202,-0.301835,0
2024-12-11 19:45:48.641,0.112463,3.19382,15.5282,-0.233267,0.0335202,-0.301835,0
2024-12-11 19:45:48.644,0.30658,3.03559,15.3724,-0.239376,0.0628409,-0.285953,0
2024-12-11 19:45:48.647,0.486042,2.91117,15.2049,-0.244873,0.0750579,-0.287785,0
2024-12-11 19:45:48.649,0.648754,2.81545,15.0637,-0.252204,0.0787229,-0.293283,0
2024-12-11 19:45:48.651,0.801895,2.73888,14.9536,-0.252204,0.0787229,-0.293283,0
2024-12-11 19:45:48.653,0.924228,2.67906,14.8747,-0.262588,0.0817772,-0.303057,0
2024-12-11 19:45:48.655,1.00798,2.65992,14.8122,-0.272972,0.0854423,-0.314663,0
2024-12-11 19:45:48.658,1.05105,2.65514,14.7523,-0.282135,0.0897182,-0.328712,0
2024-12-11 19:45:48.660,1.07019,2.66471,14.7284,-0.291298,0.0970484,-0.345205,0
2024-12-11 19:45:48.663,1.08455,2.68864,14.7236,-0.296795,0.107433,-0.361698,0
2024-12-11 19:45:48.665,1.08455,2.69821,14.7356,-0.301071,0.121482,-0.37758,0
2024-12-11 19:45:48.669,1.06301,2.71735,14.7906,-0.295574,0.166074,-0.413009,0
2024-12-11 19:45:48.669,1.04387,2.71974,14.7906,-0.295574,0.166074,-0.413009,0
2024-12-11 19:45:48.672,1.0343,2.67906,14.8122,-0.288854,0.194784,-0.428891,0
2024-12-11 19:45:48.674,1.0343,2.62881,14.8193,-0.274194,0.225326,-0.444162,0
2024-12-11 19:45:48.676,1.02233,2.56421,14.7763,-0.259534,0.25709,-0.457601,0
2024-12-11 19:45:48.679,0.99362,2.47777,14.6758,-0.238765,0.287633,-0.47165,0
2024-12-11 19:45:48.681,0.981655,2.37727,14.5466,-0.22044,0.317564,-0.483867,0
2024-12-11 19:45:48.683,0.986441,2.25524,14.4126,-0.202725,0.354215,-0.496084,0
2024-12-11 19:45:48.687,0.981655,2.11884,14.2615,-0.158133,0.442788,-0.518686,0
2024-12-11 19:45:48.688,0.969691,1.98724,14.0916,-0.158133,0.442788,-0.518686,0
2024-12-11 19:45:48.690,0.955334,1.85773,13.9241,-0.13431,0.494099,-0.527238,0
2024-12-11 19:45:48.693,0.926621,1.72134,13.7662,-0.106822,0.547854,-0.5364,0
2024-12-11 19:45:48.695,0.890728,1.56341,13.5912,-0.0756687,0.601608,-0.541898,0
2024-12-11 19:45:48.697,0.862014,1.41745,13.3878,-0.0469589,0.654752,-0.547396,0
2024-12-11 19:45:48.701,0.811466,1.27837,13.1698,-0.0133623,0.707896,-0.549839,0
2024-12-11 19:45:48.702,0.751645,1.1324,12.9425,0.0165692,0.762872,-0.551061,0
2024-12-11 19:45:48.706,0.687039,1.0008,12.7104,0.0807082,0.868014,-0.546785,0
2024-12-11 19:45:48.707,0.612862,0.873978,12.4517,0.0807082,0.868014,-0.546785,0
2024-12-11 19:45:48.709,0.519542,0.768395,12.2004,0.114305,0.922379,-0.537622,0
2024-12-11 19:45:48.712,0.407079,0.689432,11.9417,0.149123,0.971858,-0.52907,0
2024-12-11 19:45:48.714,0.270389,0.62004,11.6665,0.18272,1.02011,-0.513188,0
2024-12-11 19:45:48.717,0.114855,0.567398,11.4006,0.216316,1.06593,-0.494252,0
2024-12-11 19:45:48.719,-0.0239282,0.500399,11.1135,0.216316,1.06593,-0.494252,0
2024-12-11 19:45:48.722,-0.179462,0.452543,10.8165,0.310387,1.1826,-0.411177,0
2024-12-11 19:45:48.723,-0.34008,0.431007,10.5413,0.310387,1.1826,-0.411177,0
2024-12-11 19:45:48.726,-0.474078,0.407079,10.2754,0.339097,1.2107,-0.374526,0
2024-12-11 19:45:48.728,-0.593719,0.380758,10.0026,0.369028,1.23574,-0.33421,0
2024-12-11 19:45:48.731,-0.694218,0.364008,9.73191,0.395295,1.25346,-0.293283,0
2024-12-11 19:45:48.734,-0.792323,0.361615,9.46391,0.445384,1.27423,-0.201045,0
2024-12-11 19:45:48.735,-0.871586,0.342473,9.20519,0.445384,1.27423,-0.201045,0
2024-12-11 19:45:48.739,-0.936192,0.325723,8.95634,0.488754,1.26568,-0.106364,0
2024-12-11 19:45:48.741,-0.97687,0.308973,8.73141,0.508912,1.25163,-0.0593285,0
2024-12-11 19:45:48.743,-0.984048,0.301795,8.52293,0.527238,1.22719,-0.013515,0
2024-12-11 19:45:48.746,-0.979263,0.297009,8.32912,0.527238,1.22719,-0.013515,0
2024-12-11 19:45:48.747,-0.952942,0.27996,8.14487,0.544341,1.19543,0.030466,0
2024-12-11 19:45:48.749,-0.912264,0.267996,7.97468,0.560834,1.1545,0.0707819,0
2024-12-11 19:45:48.752,-0.873978,0.256032,7.8335,0.574273,1.10869,0.107433,0
2024-12-11 19:45:48.754,-0.825823,0.270389,7.70429,0.590155,1.05493,0.140419,0
2024-12-11 19:45:48.756,-0.768395,0.297009,7.59422,0.604815,0.996292,0.167907,0
2024-12-11 19:45:48.760,-0.71336,0.330509,7.50539,0.626195,0.853354,0.21372,0
2024-12-11 19:45:48.761,-0.665504,0.383151,7.40728,0.626195,0.853354,0.21372,0
2024-12-11 19:45:48.763,-0.632004,0.442971,7.30918,0.634136,0.767759,0.228991,0
2024-12-11 19:45:48.766,-0.600898,0.536291,7.20628,0.635357,0.67491,0.243041,0
2024-12-11 19:45:48.768,-0.569791,0.632004,7.10339,0.633525,0.574731,0.254647,0
2024-12-11 19:45:48.774,-0.490828,0.828216,6.97149,0.626195,0.362767,0.263199,0
2024-12-11 19:45:48.774,-0.490828,0.828216,6.97149,0.626195,0.362767,0.263199,0
2024-12-11 19:45:48.775,-0.431007,0.948156,6.92363,0.61581,0.252814,0.265031,0
2024-12-11 19:45:48.779,-0.361615,1.07737,6.91645,0.593209,0.0390179,0.255258,0
2024-12-11 19:45:48.781,-0.292223,1.18265,6.94995,0.582825,-0.0629936,0.247317,0
2024-12-11 19:45:48.783,-0.22014,1.28076,6.97149,0.582825,-0.0629936,0.247317,0
2024-12-11 19:45:48.785,-0.136391,1.36929,6.99063,0.569997,-0.160118,0.238154,0
2024-12-11 19:45:48.787,-0.0430708,1.44138,7.05075,0.557169,-0.256021,0.224105,0
2024-12-11 19:45:48.789,0.0574277,1.49163,7.12014,0.546174,-0.347648,0.205779,0
2024-12-11 19:45:48.792,0.18664,1.51316,7.2015,0.535789,-0.440497,0.186843,0
2024-12-11 19:45:48.795,0.32333,1.52513,7.30918,0.52174,-0.611534,0.135532,0
2024-12-11 19:45:48.796,0.471685,1.51555,7.42642,0.52174,-0.611534,0.135532,0
2024-12-11 19:45:48.801,0.789931,1.47488,7.62054,0.510745,-0.760581,0.0713928,0
2024-12-11 19:45:48.801,0.789931,1.47488,7.62054,0.510745,-0.760581,0.0713928,0
2024-12-11 19:45:48.803,0.931406,1.46052,7.73061,0.509523,-0.82472,0.0365745,0
2024-12-11 19:45:48.806,1.05344,1.44377,7.82393,0.505858,-0.880918,-0.000687203,0
2024-12-11 19:45:48.809,1.15633,1.40788,7.89811,0.50769,-0.960328,-0.0764323,0
2024-12-11 19:45:48.812,1.23529,1.37886,7.9675,0.510745,-0.985984,-0.114305,0
2024-12-11 19:45:48.814,1.2999,1.3669,8.01775,0.512577,-1.0037,-0.152177,0
2024-12-11 19:45:48.815,1.32383,1.3669,8.06561,0.512577,-1.0037,-0.152177,0
2024-12-11 19:45:48.818,1.32383,1.37647,8.1015,0.516853,-1.01286,-0.187606,0
2024-12-11 19:45:48.820,1.31904,1.4004,8.12064,0.517464,-1.01164,-0.222425,0
2024-12-11 19:45:48.823,1.26162,1.42941,8.14965,0.52174,-0.987816,-0.28412,0
2024-12-11 19:45:48.826,1.1994,1.45334,8.16162,0.522962,-0.966437,-0.310387,0
2024-12-11 19:45:48.827,1.14915,1.47727,8.12782,0.522962,-0.966437,-0.310387,0
2024-12-11 19:45:48.829,1.07498,1.50359,8.09193,0.522351,-0.938949,-0.33421,0
2024-12-11 19:45:48.834,0.921835,1.53709,7.98904,0.518075,-0.863204,-0.370861,0
2024-12-11 19:45:48.834,0.921835,1.53709,7.98904,0.518075,-0.863204,-0.370861,0
2024-12-11 19:45:48.839,0.761217,1.55384,7.84307,0.509523,-0.769744,-0.398349,0
2024-12-11 19:45:48.840,0.761217,1.55384,7.84307,0.509523,-0.769744,-0.398349,0
2024-12-11 19:45:48.841,0.679861,1.55384,7.74736,0.500971,-0.717822,-0.404457,0
2024-12-11 19:45:48.846,0.495613,1.5323,7.57239,0.4857,-0.607869,-0.41362,0
2024-12-11 19:45:48.847,0.586541,1.54905,7.57239,0.473483,-0.551671,-0.415452,0
2024-12-11 19:45:48.848,0.390329,1.52991,7.47428,0.473483,-0.551671,-0.415452,0
2024-12-11 19:45:48.851,0.285045,1.51555,7.369,0.45699,-0.493641,-0.411787,0
2024-12-11 19:45:48.853,0.191426,1.49402,7.29003,0.444773,-0.433167,-0.406901,0
2024-12-11 19:45:48.855,0.0933201,1.49402,7.21346,0.427059,-0.373915,-0.397738,0
2024-12-11 19:45:48.858,0.00478565,1.47966,7.11296,0.411787,-0.314663,-0.388575,0
2024-12-11 19:45:48.861,-0.0717847,1.47009,7.01964,0.391629,-0.263352,-0.375137,0
2024-12-11 19:45:48.862,-0.153141,1.47248,6.92842,0.370861,-0.210819,-0.36292,0
2024-12-11 19:45:48.865,-0.229711,1.48445,6.83749,0.370861,-0.210819,-0.36292,0
2024-12-11 19:45:48.867,-0.27996,1.51077,6.79442,0.329323,-0.114305,-0.32749,0
2024-12-11 19:45:48.869,-0.318545,1.51795,6.82553,0.312219,-0.0562743,-0.309776,0
2024-12-11 19:45:48.873,-0.373579,1.5347,6.82792,0.286564,0.0469589,-0.273736,0
2024-12-11 19:45:48.876,-0.442971,1.5658,6.73939,0.268238,0.0811663,-0.252967,0
2024-12-11 19:45:48.877,-0.502792,1.59452,6.73939,0.268238,0.0811663,-0.252967,0
2024-12-11 19:45:48.880,-0.565005,1.64477,6.65803,0.227312,0.125758,-0.21204,0
2024-12-11 19:45:48.882,-0.622433,1.69502,6.58624,0.227312,0.125758,-0.21204,0
2024-12-11 19:45:48.886,-0.663111,1.75005,6.46421,0.188217,0.176459,-0.16867,0
2024-12-11 19:45:48.887,-0.663111,1.75005,6.46421,0.169892,0.204557,-0.147901,0
2024-12-11 19:45:48.888,-0.667897,1.79073,6.4328,0.169892,0.204557,-0.147901,0
2024-12-11 19:45:48.891,-0.672682,1.83141,6.43759,0.152788,0.227159,-0.128965,0
2024-12-11 19:45:48.894,-0.663111,1.87208,6.47617,0.126522,0.268086,-0.0898709,0
2024-12-11 19:45:48.896,-0.663111,1.91276,6.52403,0.118581,0.2858,-0.0721563,0
2024-12-11 19:45:48.900,-0.639183,1.93669,6.57667,0.114916,0.298017,-0.057496,0
2024-12-11 19:45:48.900,-0.60329,1.94626,6.64606,0.114916,0.298017,-0.057496,0
2024-12-11 19:45:48.903,-0.584148,1.96062,6.73221,0.112472,0.310845,-0.0440574,0
2024-12-11 19:45:48.905,-0.54347,1.98006,6.81117,0.113083,0.322451,-0.0312296,0
2024-12-11 19:45:48.907,-0.498006,1.99681,6.85903,0.119192,0.331614,-0.0220669,0
2024-12-11 19:45:48.909,-0.474078,2.01117,6.8997,0.125911,0.340166,-0.0110716,0
2024-12-11 19:45:48.914,-0.414257,2.04227,7.00499,0.150345,0.353604,0.00236703,0
2024-12-11 19:45:48.914,-0.414257,2.04227,7.00499,0.150345,0.353604,0.00236703,0
2024-12-11 19:45:48.918,-0.387936,2.05185,7.04118,0.163783,0.357269,0.00908635,0
2024-12-11 19:45:48.919,-0.375972,2.07099,7.04597,0.180276,0.360934,0.0151948,0
2024-12-11 19:45:48.921,-0.368794,2.10209,7.04357,0.198602,0.360324,0.0206925,0
2024-12-11 19:45:48.925,-0.359223,2.14038,7.0675,0.215705,0.356658,0.0268009,0
2024-12-11 19:45:48.926,-0.347258,2.17866,7.07229,0.230977,0.352993,0.0316877,0
2024-12-11 19:45:48.928,-0.330509,2.21695,7.06511,0.252967,0.346274,0.0371853,0
2024-12-11 19:45:48.931,-0.313759,2.2672,7.07229,0.270682,0.338944,0.0420721,0
2024-12-11 19:45:48.933,-0.294616,2.30548,7.06032,0.290229,0.331614,0.0451263,0
2024-12-11 19:45:48.936,-0.297009,2.34138,7.04597,0.307943,0.323673,0.0518457,0
2024-12-11 19:45:48.939,-0.299402,2.38206,7.01964,0.344594,0.308401,0.058565,0
2024-12-11 19:45:48.940,-0.299402,2.4323,6.97867,0.344594,0.308401,0.058565,0
2024-12-11 19:45:48.942,-0.311366,2.49691,6.94756,0.358644,0.301071,0.0652843,0
2024-12-11 19:45:48.945,-0.320937,2.54746,6.89731,0.375747,0.294352,0.0695602,0
2024-12-11 19:45:48.947,-0.335294,2.6001,6.85424,0.387354,0.2858,0.0732253,0
2024-12-11 19:45:48.949,-0.366401,2.64556,6.81835,0.397738,0.277859,0.0775012,0
2024-12-11 19:45:48.952,-0.411865,2.69581,6.77288,0.411787,0.27114,0.082388,0
2024-12-11 19:45:48.957,-0.498006,2.81306,6.68435,0.425226,0.250982,0.0915507,0
2024-12-11 19:45:48.957,-0.498006,2.81306,6.68435,0.425226,0.250982,0.0915507,0
2024-12-11 19:45:48.960,-0.54347,2.88006,6.62453,0.428891,0.233878,0.104989,0
2024-12-11 19:45:48.961,-0.586541,2.9327,6.55753,0.428891,0.233878,0.104989,0
2024-12-11 19:45:48.966,-0.651147,3.02363,6.46182,0.423394,0.216774,0.117206,0
2024-12-11 19:45:48.966,-0.651147,3.02363,6.46182,0.423394,0.216774,0.117206,0
2024-12-11 19:45:48.971,-0.670289,3.13879,6.3682,0.405068,0.196616,0.125758,0
2024-12-11 19:45:48.971,-0.670289,3.13879,6.3682,0.405068,0.196616,0.125758,0
2024-12-11 19:45:48.973,-0.689432,3.21536,6.34188,0.392851,0.185621,0.130645,0
2024-12-11 19:45:48.976,-0.71336,3.28714,6.31077,0.376358,0.173404,0.13431,0
2024-12-11 19:45:48.978,-0.742074,3.35175,6.29881,0.359255,0.161798,0.139197,0
2024-12-11 19:45:48.980,-0.758824,3.41635,6.30359,0.337875,0.151414,0.139808,0
2024-12-11 19:45:48.982,-0.76361,3.47857,6.30838,0.31283,0.135532,0.141029,0
2024-12-11 19:45:48.985,-0.773181,3.52403,6.32752,0.288396,0.120871,0.142251,0
2024-12-11 19:45:48.987,-0.799502,3.57906,6.37298,0.257854,0.101935,0.142862,0
2024-12-11 19:45:48.990,-0.837787,3.65354,6.4352,0.230366,0.086664,0.142251,0
2024-12-11 19:45:48.992,-0.873978,3.71097,6.50728,0.19738,0.0683385,0.139808,0
2024-12-11 19:45:48.995,-0.924228,3.766,6.60778,0.130798,0.0414613,0.137364,0
2024-12-11 19:45:48.997,-0.974477,3.82582,6.7346,0.130798,0.0414613,0.137364,0
2024-12-11 19:45:48.999,-1.02473,3.89522,6.87578,0.100255,0.0316877,0.136753,0
2024-12-11 19:45:49.002,-1.10369,3.967,7.02682,0.0684913,0.0206925,0.137364,0
2024-12-11 19:45:49.004,-1.1994,4.04596,7.19193,0.0367272,0.014584,0.141029,0
2024-12-11 19:45:49.006,-1.29512,4.13689,7.37857,0.00801737,0.0115297,0.144084,0
2024-12-11 19:45:49.008,-1.37169,4.22094,7.58465,-0.0213033,0.00786466,0.147749,0
2024-12-11 19:45:49.011,-1.42702,4.30469,7.81675,-0.0487914,0.00603212,0.156301,0
2024-12-11 19:45:49.013,-1.4677,4.39083,8.03929,-0.0707819,0.00419957,0.162409,0
2024-12-11 19:45:49.015,-1.50359,4.44347,8.25494,-0.0921616,0.00786466,0.172183,0
2024-12-11 19:45:49.018,-1.5012,4.48894,8.48465,-0.115985,0.0139731,0.177069,0
2024-12-11 19:45:49.020,-1.45813,4.53918,8.68804,-0.131256,0.0231358,0.183178,0
2024-12-11 19:45:49.023,-1.4342,4.57508,8.88216,-0.147138,0.0353528,0.186843,0
2024-12-11 19:45:49.025,-1.39322,4.60618,9.07598,-0.161798,0.0524565,0.19173,0
2024-12-11 19:45:49.027,-1.33579,4.63011,9.24826,-0.175848,0.0695602,0.191119,0
2024-12-11 19:45:49.032,-1.25204,4.63729,9.55005,-0.19906,0.113541,0.189897,0
2024-12-11 19:45:49.032,-1.25204,4.63729,9.55005,-0.19906,0.113541,0.189897,0
2024-12-11 19:45:49.035,-1.22812,4.65643,9.66491,-0.22105,0.158744,0.180734,0
2024-12-11 19:45:49.037,-1.20419,4.666,9.77737,-0.22105,0.158744,0.180734,0
2024-12-11 19:45:49.039,-1.18026,4.67079,9.88774,-0.232046,0.176459,0.175237,0
2024-12-11 19:45:49.041,-1.17069,4.68275,9.99542,-0.243652,0.194784,0.167907,0
2024-12-11 19:45:49.045,-1.16351,4.6995,10.1079,-0.265642,0.218607,0.150803,0
2024-12-11 19:45:49.046,-1.14197,4.72343,10.2275,-0.265642,0.218607,0.150803,0
2024-12-11 19:45:49.048,-1.11805,4.73779,10.3328,-0.277248,0.225937,0.139808,0
2024-12-11 19:45:49.051,-1.08694,4.74018,10.4073,-0.287633,0.22777,0.128202,0
2024-12-11 19:45:49.053,-1.06062,4.733,10.4886,-0.301071,0.22777,0.115985,0
2024-12-11 19:45:49.055,-1.04387,4.71386,10.5724,-0.315732,0.223494,0.101935,0
2024-12-11 19:45:49.059,-1.03669,4.68754,10.6585,-0.340776,0.207001,0.0768904,0
2024-12-11 19:45:49.061,-1.03669,4.68275,10.7375,-0.340776,0.207001,0.0768904,0
2024-12-11 19:45:49.063,-1.02233,4.67558,10.8356,-0.340776,0.207001,0.0768904,0
2024-12-11 19:45:49.066,-0.988834,4.65883,10.9361,-0.387201,0.162409,0.0316877,0
2024-12-11 19:45:49.067,-0.957727,4.62533,11.0297,-0.387201,0.162409,0.0316877,0
2024-12-11 19:45:49.071,-0.945763,4.57986,11.1087,-0.404305,0.141029,0.0164165,0
2024-12-11 19:45:49.072,-0.933799,4.55354,11.19,-0.42263,0.117206,0.00114534,0
2024-12-11 19:45:49.074,-0.926621,4.51047,11.3145,-0.442788,0.0897182,-0.0171801,0
2024-12-11 19:45:49.077,-0.924228,4.4674,11.4317,-0.464778,0.0561216,-0.0330621,0
2024-12-11 19:45:49.079,-0.921835,4.44826,11.5421,-0.484326,0.0200816,-0.0501658,0
2024-12-11 19:45:49.082,-0.919442,4.42194,11.6833,-0.50937,-0.0177909,-0.0691021,0
2024-12-11 19:45:49.084,-0.909871,4.39083,11.8436,-0.53075,-0.057496,-0.0862058,0
2024-12-11 19:45:49.088,-0.926621,4.30947,12.2219,-0.572287,-0.138128,-0.116137,0
2024-12-11 19:45:49.088,-0.926621,4.30947,12.2219,-0.572287,-0.138128,-0.116137,0
2024-12-11 19:45:49.091,-0.955334,4.29033,12.4588,-0.58817,-0.176,-0.128354,0
2024-12-11 19:45:49.094,-0.979263,4.27358,12.7152,-0.60283,-0.21204,-0.142404,0
2024-12-11 19:45:49.097,-1.01276,4.25205,12.976,-0.622988,-0.271903,-0.158286,0
2024-12-11 19:45:49.099,-1.04626,4.2353,13.2515,-0.627875,-0.297559,-0.164394,0
2024-12-11 19:45:49.100,-1.08455,4.24247,13.5266,-0.627875,-0.297559,-0.164394,0
2024-12-11 19:45:49.103,-1.13719,4.2329,13.8069,-0.626653,-0.313441,-0.166227,0
2024-12-11 19:45:49.105,-1.19222,4.20628,14.1036,-0.620544,-0.323215,-0.168059,0
2024-12-11 19:45:49.107,-1.27119,4.18475,14.3839,-0.609549,-0.325047,-0.164394,0
2024-12-11 19:45:49.111,-1.37647,4.17518,14.6399,-0.589391,-0.315274,-0.158286,0
2024-12-11 19:45:49.112,-1.49163,4.17039,14.86,-0.569844,-0.294505,-0.147291,0
2024-12-11 19:45:49.115,-1.62323,4.17996,15.0398,-0.541745,-0.26213,-0.129576,0
2024-12-11 19:45:49.118,-1.76201,4.20628,15.2121,-0.472109,-0.170503,-0.0837624,0
2024-12-11 19:45:49.119,-1.89601,4.22572,15.3485,-0.472109,-0.170503,-0.0837624,0
2024-12-11 19:45:49.121,-2.01835,4.23051,15.4349,-0.433014,-0.119802,-0.0513875,0
2024-12-11 19:45:49.124,-2.11884,4.22333,15.478,-0.394531,-0.0727672,-0.0165692,0
2024-12-11 19:45:49.126,-2.18345,4.21615,15.4588,-0.359102,-0.0324513,0.0249684,0
2024-12-11 19:45:49.130,-2.2002,4.19193,15.3963,-0.298628,0.0194708,0.1056,0
2024-12-11 19:45:49.131,-2.17627,4.13928,15.2862,-0.298628,0.0194708,0.1056,0
2024-12-11 19:45:49.134,-2.11884,4.08186,15.1451,-0.26381,0.0206925,0.181956,0
2024-12-11 19:45:49.136,-2.02313,4.01246,15.0183,-0.26381,0.0206925,0.181956,0
2024-12-11 19:45:49.138,-1.9008,3.95504,14.8938,-0.255869,0.00358873,0.216164,0
2024-12-11 19:45:49.141,-1.74527,3.90479,14.7882,-0.25709,-0.0611611,0.271751,0
2024-12-11 19:45:49.143,-1.53709,3.85215,14.7141,-0.25709,-0.0611611,0.271751,0
2024-12-11 19:45:49.145,-1.30947,3.79711,14.6949,-0.271751,-0.108807,0.290076,0
2024-12-11 19:45:49.147,-1.08694,3.77079,14.7189,-0.271751,-0.108807,0.290076,0
2024-12-11 19:45:49.150,-0.845265,3.76361,14.7811,-0.304736,-0.228533,0.311456,0
2024-12-11 19:45:49.154,-0.390329,3.74925,15.0781,-0.346885,-0.364141,0.308401,0
2024-12-11 19:45:49.155,-0.390329,3.74925,15.0781,-0.346885,-0.364141,0.308401,0
2024-12-11 19:45:49.158,-0.181855,3.75643,15.2599,-0.376206,-0.486311,0.288244,0
2024-12-11 19:45:49.160,0.0143569,3.78036,15.4588,-0.387812,-0.533346,0.270529,0
2024-12-11 19:45:49.162,0.196211,3.78754,15.7125,-0.387812,-0.533346,0.270529,0
2024-12-11 19:45:49.166,0.555434,3.78754,16.3062,-0.38659,-0.583435,0.224105,0
2024-12-11 19:45:49.170,0.689432,3.77557,16.6008,-0.352383,-0.575494,0.173404,0
2024-12-11 19:45:49.171,0.787538,3.7349,16.876,-0.352383,-0.575494,0.173404,0
2024-12-11 19:45:49.171,0.787538,3.7349,16.876,-0.352383,-0.575494,0.173404,0
2024-12-11 19:45:49.173,0.9003,3.6679,17.1419,-0.32184,-0.545563,0.145916,0
2024-12-11 19:45:49.176,1.01515,3.57667,17.3836,-0.282135,-0.505247,0.116595,0
2024-12-11 19:45:49.179,1.09651,3.4666,17.563,-0.2351,-0.452714,0.0878856,0
2024-12-11 19:45:49.180,1.17308,3.31825,17.6707,-0.180734,-0.392851,0.0603975,1
2024-12-11 19:45:49.183,1.23769,3.14836,17.7165,-0.116595,-0.325658,0.0298552,0
2024-12-11 19:45:49.186,1.25683,2.98056,17.7069,0.0177909,-0.176611,-0.0238994,0
2024-12-11 19:45:49.187,1.24726,2.78674,17.6204,0.0177909,-0.176611,-0.0238994,0
2024-12-11 19:45:49.190,1.21854,2.59532,17.4386,0.0898709,-0.0953685,-0.0465007,0
2024-12-11 19:45:49.192,1.17308,2.3988,17.1921,0.160118,-0.0153475,-0.0666587,0
2024-12-11 19:45:49.195,1.09412,2.19781,16.9095,0.23342,0.0689494,-0.0837624,0
2024-12-11 19:45:49.197,0.962513,2.01835,16.5864,0.303667,0.15569,-0.0953685,0
2024-12-11 19:45:49.200,0.80668,1.87448,16.22,0.437443,0.325505,-0.105753,0
2024-12-11 19:45:49.202,0.627219,1.76441,15.8225,0.437443,0.325505,-0.105753,0
2024-12-11 19:45:49.204,0.419043,1.66391,15.4059,0.497306,0.410413,-0.101477,0
2024-12-11 19:45:49.207,0.200997,1.58255,14.9704,0.555947,0.496542,-0.0904818,0
2024-12-11 19:45:49.209,-0.0191426,1.52273,14.5035,0.555947,0.496542,-0.0904818,0
2024-12-11 19:45:49.211,-0.239282,1.48445,14.0246,0.664067,0.671856,-0.0483333,0
2024-12-11 19:45:49.213,-0.471685,1.45813,13.5625,0.712324,0.756763,-0.0190126,0
2024-12-11 19:45:49.216,-0.689432,1.42463,13.1004,0.758138,0.835028,0.0170274,0
2024-12-11 19:45:49.220,-0.869193,1.31665,12.1549,0.837548,0.977966,0.0994917,0
2024-12-11 19:45:49.221,-1.02233,1.31665,12.1549,0.837548,0.977966,0.0994917,0
2024-12-11 19:45:49.224,-1.15633,1.26401,11.688,0.899244,1.09464,0.189897,0
2024-12-11 19:45:49.226,-1.25204,1.21137,11.214,0.899244,1.09464,0.189897,0
2024-12-11 19:45:49.230,-1.41745,1.07976,10.3161,0.9475,1.18138,0.283968,0
2024-12-11 19:45:49.230,-1.41745,1.07976,10.3161,0.9475,1.18138,0.283968,0
2024-12-11 19:45:49.232,-1.46291,1.01276,9.89253,0.968269,1.21559,0.32917,0
2024-12-11 19:45:49.235,-1.47727,0.950549,9.48545,0.98354,1.24246,0.373151,0
2024-12-11 19:45:49.237,-1.48205,0.909871,9.08555,0.994536,1.2614,0.414078,0
2024-12-11 19:45:49.240,-1.5012,0.873978,8.71705,1.00736,1.28095,0.48738,0
2024-12-11 19:45:49.242,-1.52991,0.85005,8.34347,1.00736,1.28095,0.48738,0
2024-12-11 19:45:49.245,-1.55145,0.84018,7.96511,1.0092,1.27911,0.519755,0
2024-12-11 19:45:49.246,-1.57777,0.847657,7.61576,1.00553,1.27239,0.550908,0
2024-12-11 19:45:49.249,-1.60409,0.869193,7.28525,0.998812,1.25835,0.580839,0
2024-12-11 19:45:49.252,-1.61845,0.893121,6.98585,0.989038,1.23635,0.607106,0
2024-12-11 19:45:49.253,-1.6328,0.931406,6.68196,0.974989,1.20887,0.629096,0
2024-12-11 19:45:49.256,-1.63041,0.998405,6.39691,0.957885,1.17405,0.648643,0
2024-12-11 19:45:49.258,-1.65434,1.07258,6.14088,0.935283,1.13312,0.665747,0
2024-12-11 19:45:49.260,-1.69741,1.13958,5.88933,0.91085,1.08914,0.677964,0
2024-12-11 19:45:49.263,-1.71655,1.21376,5.64287,0.883972,1.03966,0.688959,0
2024-12-11 19:45:49.267,-1.75962,1.39322,5.2669,0.818001,0.923601,0.704231,0
2024-12-11 19:45:49.267,-1.75962,1.39322,5.2669,0.818001,0.923601,0.704231,0
2024-12-11 19:45:49.270,-1.77159,1.47966,5.08026,0.78135,0.85763,0.707285,0
2024-12-11 19:45:49.272,-1.77159,1.57298,4.9343,0.743477,0.789749,0.707285,0
2024-12-11 19:45:49.276,-1.75723,1.65673,4.85294,0.665289,0.637037,0.701176,0
2024-12-11 19:45:49.278,-1.74527,1.72134,4.77398,0.619475,0.55274,0.692014,0
2024-12-11 19:45:49.280,-1.72612,1.79791,4.70429,0.57916,0.466,0.682851,0
2024-12-11 19:45:49.282,-1.69741,1.86251,4.666,0.57916,0.466,0.682851,0
2024-12-11 19:45:49.284,-1.64716,1.90558,4.6349,0.535179,0.378038,0.670634,0
2024-12-11 19:45:49.286,-1.60409,1.95583,4.62293,0.494252,0.287022,0.65353,0
2024-12-11 19:45:49.289,-1.54427,1.99681,4.64686,0.451492,0.196616,0.632761,0
2024-12-11 19:45:49.292,-1.46291,2.02313,4.68515,0.409955,0.106211,0.608938,0
2024-12-11 19:45:49.293,-1.38604,2.05663,4.73779,0.409955,0.106211,0.608938,0
2024-12-11 19:45:49.296,-1.29751,2.07817,4.81227,0.333599,-0.0745997,0.557016,0
2024-12-11 19:45:49.298,-1.18983,2.07338,4.91516,0.299392,-0.163173,0.526474,0
2024-12-11 19:45:49.300,-1.08215,2.0662,5.03001,0.267627,-0.250524,0.492877,0
2024-12-11 19:45:49.305,-0.854836,2.00877,5.3004,0.205932,-0.414842,0.420187,0
2024-12-11 19:45:49.308,-0.854836,1.96062,5.46341,0.179055,-0.490587,0.380481,0
2024-12-11 19:45:49.308,-0.742074,1.96062,5.46341,0.179055,-0.490587,0.380481,0
2024-12-11 19:45:49.310,-0.63679,1.91516,5.61895,0.157064,-0.560834,0.341387,0
2024-12-11 19:45:49.312,-0.550648,1.8673,5.76491,0.135074,-0.624973,0.302293,0
2024-12-11 19:45:49.316,-0.486042,1.81226,5.91117,0.0996445,-0.738591,0.223494,0
2024-12-11 19:45:49.318,-0.411865,1.75962,6.0332,0.0825407,-0.783793,0.187454,0
2024-12-11 19:45:49.319,-0.344866,1.69262,6.14567,0.0825407,-0.783793,0.187454,0
2024-12-11 19:45:49.322,-0.294616,1.62562,6.26291,0.065437,-0.82472,0.151414,0
2024-12-11 19:45:49.325,-0.260818,1.58973,6.38256,0.049555,-0.860149,0.114763,0
2024-12-11 19:45:49.326,-0.246461,1.54427,6.5025,0.049555,-0.860149,0.114763,0
2024-12-11 19:45:49.329,-0.227318,1.48923,6.60778,0.0226777,-0.913293,0.0457372,0
2024-12-11 19:45:49.333,-0.232104,1.40548,6.8016,-0.00358873,-0.948111,-0.0184018,0
2024-12-11 19:45:49.334,-0.232104,1.40548,6.8016,-0.00358873,-0.948111,-0.0184018,0
2024-12-11 19:45:49.336,-0.241675,1.35733,6.89492,-0.0133623,-0.958496,-0.0477224,0
2024-12-11 19:45:49.338,-0.267996,1.33101,7.01217,-0.0255792,-0.959717,-0.0721563,0
2024-12-11 19:45:49.340,-0.294616,1.29272,7.12971,-0.0335202,-0.957274,-0.0965902,0
2024-12-11 19:45:49.344,-0.332901,1.24247,7.22782,-0.0494023,-0.939559,-0.136295,0
2024-12-11 19:45:49.346,-0.378365,1.21854,7.32832,-0.0494023,-0.939559,-0.136295,0
2024-12-11 19:45:49.349,-0.431007,1.19462,7.41925,-0.0591758,-0.906574,-0.166838,0
2024-12-11 19:45:49.350,-0.50997,1.16112,7.48624,-0.0591758,-0.906574,-0.166838,0
2024-12-11 19:45:49.353,-0.598505,1.14197,7.56042,-0.0671168,-0.86076,-0.185163,0
2024-12-11 19:45:49.357,-0.744467,1.08215,7.68036,-0.0695602,-0.833883,-0.190661,0
2024-12-11 19:45:49.358,-0.744467,1.08215,7.68036,-0.0695602,-0.833883,-0.190661,0
2024-12-11 19:45:49.359,-0.825823,1.06301,7.733,-0.0689494,-0.803951,-0.194937,0
2024-12-11 19:45:49.363,-0.902692,1.02473,7.77368,-0.0695602,-0.770966,-0.193104,0
2024-12-11 19:45:49.364,-0.984048,1.0008,7.82632,-0.0701711,-0.737369,-0.188217,0
2024-12-11 19:45:49.366,-1.05583,0.991227,7.85265,-0.0707819,-0.703772,-0.185163,0
2024-12-11 19:45:49.369,-1.1013,0.964906,7.87657,-0.0701711,-0.666511,-0.178444,0
2024-12-11 19:45:49.372,-1.16112,0.938585,7.91007,-0.0713928,-0.592598,-0.156453,0
2024-12-11 19:45:49.373,-1.22572,0.924228,7.92443,-0.0713928,-0.592598,-0.156453,0
2024-12-11 19:45:49.376,-1.28315,0.895514,7.94118,-0.0726145,-0.552893,-0.140571,0
2024-12-11 19:45:49.379,-1.34058,0.873978,7.96272,-0.0720036,-0.472261,-0.106975,0
2024-12-11 19:45:49.382,-1.40279,0.857229,7.97229,-0.0701711,-0.428891,-0.0843733,0
2024-12-11 19:45:49.383,-1.46052,0.85005,7.96511,-0.0701711,-0.428891,-0.0843733,0
2024-12-11 19:45:49.386,-1.52034,0.854836,7.95554,-0.0683385,-0.342151,-0.0367272,0
2024-12-11 19:45:49.389,-1.5682,0.854836,7.9675,-0.0671168,-0.296337,-0.00984991,0
2024-12-11 19:45:49.390,-1.5993,0.847657,7.9675,-0.0671168,-0.296337,-0.00984991,0
2024-12-11 19:45:49.395,-1.67827,0.862014,7.91964,-0.0646735,-0.205321,0.050624,0
2024-12-11 19:45:49.395,-1.67827,0.862014,7.91964,-0.0646735,-0.205321,0.050624,0
2024-12-11 19:45:49.398,-1.69502,0.862014,7.89572,-0.0646735,-0.158897,0.0836097,0
2024-12-11 19:45:49.399,-1.71894,0.873978,7.85504,-0.0616192,-0.113694,0.118428,0
2024-12-11 19:45:49.403,-1.7333,0.893121,7.82154,-0.0591758,-0.0703238,0.154468,0
2024-12-11 19:45:49.404,-1.73091,0.881157,7.8,-0.0561216,-0.0269536,0.189897,0
2024-12-11 19:45:49.406,-1.70219,0.88355,7.75933,-0.0542891,0.014584,0.226548,0
2024-12-11 19:45:49.409,-1.66391,0.919442,7.72104,-0.0512348,0.0542891,0.265031,0
2024-12-11 19:45:49.411,-1.63041,0.938585,7.68276,-0.0494023,0.0927724,0.303515,0
2024-12-11 19:45:49.414,-1.58495,0.962513,7.64447,-0.0469589,0.128202,0.338944,0
2024-12-11 19:45:49.416,-1.52513,1.00558,7.61815,-0.042683,0.165463,0.376816,0
2024-12-11 19:45:49.418,-1.45095,1.04148,7.58465,-0.038407,0.199671,0.413467,0
2024-12-11 19:45:49.422,-1.38126,1.08215,7.54128,-0.0353528,0.230213,0.447064,0
2024-12-11 19:45:49.423,-1.31186,1.12283,7.5006,-0.0298552,0.262588,0.48066,0
2024-12-11 19:45:49.425,-1.22333,1.1683,7.4671,-0.0261901,0.291298,0.513035,0
2024-12-11 19:45:49.428,-1.1324,1.22812,7.4336,-0.0200816,0.319397,0.542356,0
2024-12-11 19:45:49.431,-1.04387,1.28076,7.39771,-0.00908635,0.370097,0.596111,0
2024-12-11 19:45:49.432,-0.931406,1.34058,7.35943,-0.00908635,0.370097,0.596111,0
2024-12-11 19:45:49.437,-0.734896,1.45095,7.302,0.00313059,0.411024,0.637648,0
2024-12-11 19:45:49.437,-0.734896,1.45095,7.302,0.00313059,0.411024,0.637648,0
2024-12-11 19:45:49.439,-0.629611,1.52273,7.27568,0.00313059,0.411024,0.637648,0
2024-12-11 19:45:49.442,-0.533899,1.59212,7.24696,0.0165692,0.445231,0.669412,0
2024-12-11 19:45:49.444,-0.445364,1.63998,7.19911,0.0263428,0.459281,0.678575,0
2024-12-11 19:45:49.446,-0.35683,1.68544,7.13929,0.0361163,0.469665,0.687738,0
2024-12-11 19:45:49.449,-0.256032,1.74048,7.11296,0.0428357,0.48005,0.692624,0
2024-12-11 19:45:49.452,-0.153141,1.80987,7.07229,0.0611611,0.488601,0.699955,0
2024-12-11 19:45:49.456,0.026321,1.92233,6.98345,0.0691021,0.492877,0.700565,0
2024-12-11 19:45:49.456,0.026321,1.92233,6.98345,0.0691021,0.492877,0.700565,0
2024-12-11 19:45:49.459,0.0933201,1.99442,6.9356,0.0758214,0.492267,0.698733,0
2024-12-11 19:45:49.461,0.153141,2.0686,6.89253,0.0837624,0.489823,0.691403,0
2024-12-11 19:45:49.465,0.285045,2.21456,6.79442,0.0929251,0.481882,0.675521,0
2024-12-11 19:45:49.466,0.285045,2.21456,6.79442,0.0929251,0.481882,0.675521,0
2024-12-11 19:45:49.469,0.335294,2.27677,6.7346,0.0990336,0.470276,0.65353,0
2024-12-11 19:45:49.471,0.366401,2.36052,6.68196,0.100255,0.459281,0.642535,0
2024-12-11 19:45:49.472,0.402293,2.42752,6.63171,0.100255,0.459281,0.642535,0
2024-12-11 19:45:49.475,0.431007,2.48973,6.57189,0.0996445,0.449507,0.627264,0
2024-12-11 19:45:49.477,0.459721,2.56421,6.50728,0.0959794,0.435458,0.611382,0
2024-12-11 19:45:49.479,0.486042,2.64556,6.4666,0.0910926,0.419576,0.594889,0
2024-12-11 19:45:49.482,0.488435,2.72931,6.43759,0.0862058,0.404915,0.577174,0
2024-12-11 19:45:49.485,0.476471,2.81545,6.38016,0.0703238,0.365821,0.537469,0
2024-12-11 19:45:49.489,0.423829,2.9686,6.31795,0.0593285,0.34322,0.517311,0
2024-12-11 19:45:49.489,0.423829,2.9686,6.31795,0.0593285,0.34322,0.517311,0
2024-12-11 19:45:49.491,0.390329,3.04277,6.29402,0.0593285,0.34322,0.517311,0
2024-12-11 19:45:49.494,0.35683,3.12682,6.27488,0.0324513,0.296185,0.47333,0
2024-12-11 19:45:49.497,0.30658,3.20818,6.27488,-0.000534491,0.235711,0.431182,0
2024-12-11 19:45:49.499,0.251246,3.28475,6.28924,-0.000534491,0.235711,0.431182,0
2024-12-11 19:45:49.501,0.212961,3.35653,6.31795,-0.0188599,0.203336,0.410413,0
2024-12-11 19:45:49.503,0.162712,3.44267,6.34427,-0.0359636,0.166074,0.389033,0
2024-12-11 19:45:49.505,0.119641,3.52882,6.38973,-0.0542891,0.12698,0.367043,0
2024-12-11 19:45:49.508,0.081356,3.59821,6.44955,-0.0750579,0.0836097,0.347496,0
2024-12-11 19:45:49.510,0.0550349,3.67508,6.51925,-0.0952158,0.0371853,0.325505,0
2024-12-11 19:45:49.512,0.0334995,3.75883,6.61257,-0.117817,-0.0104608,0.302904,0
2024-12-11 19:45:49.515,0.00957129,3.82822,6.71067,-0.140419,-0.0648262,0.281524,0
2024-12-11 19:45:49.517,0.00478565,3.89522,6.81596,-0.161187,-0.116137,0.260755,0
2024-12-11 19:45:49.521,0.0119641,3.93829,6.9332,-0.205779,-0.231587,0.214942,0
2024-12-11 19:45:49.523,0.0215354,3.97657,7.05554,-0.205779,-0.231587,0.214942,0
2024-12-11 19:45:49.527,0.0215354,4.06989,7.33789,-0.250371,-0.344594,0.167296,0
2024-12-11 19:45:49.528,0.0215354,4.06989,7.33789,-0.273583,-0.401403,0.144694,0
2024-12-11 19:45:49.529,0.0215354,4.101,7.50299,-0.273583,-0.401403,0.144694,0
2024-12-11 19:45:49.531,0.0215354,4.12253,7.68036,-0.296795,-0.458823,0.120871,0
2024-12-11 19:45:49.535,0.0311067,4.168,7.87657,-0.340166,-0.569997,0.074447,0
2024-12-11 19:45:49.537,0.0239282,4.1991,8.08475,-0.360324,-0.621919,0.050624,0
2024-12-11 19:45:49.538,0.0191426,4.20897,8.31237,-0.360324,-0.621919,0.050624,0
2024-12-11 19:45:49.541,0.0215354,4.23051,8.56361,-0.380481,-0.672619,0.0280226,0
2024-12-11 19:45:49.543,0.00717847,4.25922,8.83909,-0.398196,-0.719654,0.00847551,0
2024-12-11 19:45:49.545,-0.00957129,4.28555,9.12144,-0.417132,-0.763635,-0.0104608,0
2024-12-11 19:45:49.549,-0.0311067,4.2999,9.41366,-0.445842,-0.831439,-0.041614,0
2024-12-11 19:45:49.553,-0.0693919,4.3023,10.0002,-0.456227,-0.859538,-0.0568851,0
2024-12-11 19:45:49.553,-0.107677,4.31426,10.0002,-0.456227,-0.859538,-0.0568851,0
2024-12-11 19:45:49.555,-0.122034,4.32862,10.3208,-0.462335,-0.881529,-0.0660479,0
2024-12-11 19:45:49.557,-0.133998,4.32862,10.637,-0.467833,-0.899244,-0.0752106,0
2024-12-11 19:45:49.562,-0.122034,4.32862,11.1972,-0.47333,-0.927342,-0.0874275,0
2024-12-11 19:45:49.562,-0.122034,4.32862,11.1972,-0.47333,-0.927342,-0.0874275,0
2024-12-11 19:45:49.565,-0.0789631,4.31905,11.4724,-0.469665,-0.944446,-0.100866,0
2024-12-11 19:45:49.567,-0.0287139,4.29751,11.7359,-0.469665,-0.944446,-0.100866,0
2024-12-11 19:45:49.570,0.0478565,4.25683,11.9441,-0.467222,-0.949333,-0.108807,0
2024-12-11 19:45:49.571,0.141177,4.2015,12.119,-0.466,-0.950555,-0.116748,0
2024-12-11 19:45:49.575,0.241675,4.14168,12.3081,-0.467833,-0.952387,-0.138128,0
2024-12-11 19:45:49.576,0.332901,4.10578,12.4804,-0.467833,-0.952387,-0.138128,0
2024-12-11 19:45:49.579,0.421436,4.06032,12.6215,-0.472719,-0.948722,-0.147291,0
2024-12-11 19:45:49.581,0.521934,4.01246,12.775,-0.476995,-0.943835,-0.160118,0
2024-12-11 19:45:49.583,0.612862,3.98136,12.9209,-0.486769,-0.941392,-0.176,0
2024-12-11 19:45:49.585,0.672682,3.94786,13.0765,-0.498986,-0.938338,-0.191882,0
2024-12-11 19:45:49.588,0.71336,3.93589,13.2467,-0.498986,-0.938338,-0.191882,0
2024-12-11 19:45:49.590,0.756431,3.94786,13.4166,-0.525252,-0.923067,-0.219371,0
2024-12-11 19:45:49.593,0.789931,3.96222,13.6008,-0.542356,-0.913293,-0.234642,0
2024-12-11 19:45:49.595,0.821037,3.97418,13.7925,-0.555184,-0.898633,-0.248691,0
2024-12-11 19:45:49.598,0.857229,3.97897,13.9935,-0.58145,-0.858928,-0.275568,0
2024-12-11 19:45:49.600,0.890728,3.99571,14.2017,-0.58145,-0.858928,-0.275568,0
2024-12-11 19:45:49.602,0.929013,4.01486,14.4174,-0.591835,-0.830829,-0.288396,0
2024-12-11 19:45:49.604,0.957727,4.02443,14.6184,-0.600997,-0.799065,-0.301835,0
2024-12-11 19:45:49.607,0.979263,4.034,14.8122,-0.607717,-0.75997,-0.314663,0
2024-12-11 19:45:49.609,1.00558,4.04118,15.0039,-0.612603,-0.715989,-0.32688,0
2024-12-11 19:45:49.612,0.998405,4.04596,15.1762,-0.615047,-0.668343,-0.339097,0
2024-12-11 19:45:49.615,0.957727,4.04357,15.3413,-0.611382,-0.544952,-0.361087,0
2024-12-11 19:45:49.616,0.885943,4.07468,15.5019,-0.611382,-0.544952,-0.361087,0
2024-12-11 19:45:49.618,0.789931,4.12732,15.6048,-0.606495,-0.475316,-0.367806,0
2024-12-11 19:45:49.622,0.696611,4.17278,15.6766,-0.593056,-0.326269,-0.375137,0
2024-12-11 19:45:49.623,0.591326,4.21615,15.734,-0.593056,-0.326269,-0.375137,0
2024-12-11 19:45:49.626,0.493221,4.23769,15.7627,-0.587559,-0.256021,-0.373304,0
2024-12-11 19:45:49.629,0.431007,4.24247,15.7723,-0.583894,-0.193715,-0.369028,0
2024-12-11 19:45:49.630,0.397508,4.21615,15.7579,-0.582061,-0.142404,-0.367806,0
2024-12-11 19:45:49.634,0.383151,4.18714,15.6957,-0.585115,-0.0978119,-0.365363,0
2024-12-11 19:45:49.635,0.395115,4.15843,15.6215,-0.58878,-0.0623828,-0.362309,0
2024-12-11 19:45:49.637,0.440578,4.101,15.5545,-0.598554,-0.0379489,-0.361087,0
2024-12-11 19:45:49.640,0.50997,4.02443,15.478,-0.613825,-0.0196235,-0.362309,0
2024-12-11 19:45:49.642,0.586541,3.94786,15.4226,-0.630318,-0.00801737,-0.365363,0
2024-12-11 19:45:49.644,0.65354,3.88325,15.3987,-0.649254,-0.000687203,-0.369639,0
2024-12-11 19:45:49.648,0.703789,3.82343,15.3891,-0.68957,0.00175619,-0.38491,0
2024-12-11 19:45:49.650,0.734896,3.77797,15.4226,-0.68957,0.00175619,-0.38491,0
2024-12-11 19:45:49.651,0.770788,3.74447,15.4828,-0.711561,0.00236703,-0.390408,0
2024-12-11 19:45:49.655,0.801895,3.71815,15.5378,-0.748212,-7.63559e-05,-0.402625,0
2024-12-11 19:45:49.657,0.833001,3.69422,15.6479,-0.759818,0.00114534,-0.410566,0
2024-12-11 19:45:49.659,0.876371,3.66311,15.8034,-0.759818,0.00114534,-0.410566,0
2024-12-11 19:45:49.661,0.912264,3.62453,15.9494,-0.769591,0.00481042,-0.414231,0
2024-12-11 19:45:49.663,0.964906,3.56949,16.1243,-0.772035,0.0139731,-0.420339,0
2024-12-11 19:45:49.666,1.0343,3.50249,16.3134,-0.767148,0.0261901,-0.427669,0
2024-12-11 19:45:49.668,1.08215,3.42832,16.4665,-0.75432,0.042683,-0.433778,0
2024-12-11 19:45:49.670,1.1348,3.34935,16.596,-0.73966,0.0646735,-0.439886,0
2024-12-11 19:45:49.673,1.17787,3.27039,16.7252,-0.716447,0.094605,-0.447217,0
2024-12-11 19:45:49.675,1.19222,3.19621,16.8186,-0.685905,0.129423,-0.455158,0
2024-12-11 19:45:49.677,1.18744,3.11725,16.8832,-0.647422,0.17035,-0.460044,0
2024-12-11 19:45:49.681,1.18265,3.02124,16.9406,-0.603441,0.214331,-0.465542,1
2024-12-11 19:45:49.682,1.19222,2.91835,16.9813,-0.555184,0.261366,-0.47165,0
2024-12-11 19:45:49.684,1.19462,2.80588,16.9789,-0.498986,0.308401,-0.475926,0
2024-12-11 19:45:49.688,1.18026,2.68624,16.931,-0.439123,0.356658,-0.476537,0
2024-12-11 19:45:49.689,1.15633,2.5666,16.8425,-0.374373,0.400639,-0.476537,0
2024-12-11 19:45:49.691,1.12283,2.44666,16.7133,-0.306569,0.447675,-0.475926,0
2024-12-11 19:45:49.694,1.09173,2.31266,16.5503,-0.234489,0.498375,-0.473483,0
2024-12-11 19:45:49.696,1.07498,2.16192,16.3588,-0.160576,0.547854,-0.47104,0
2024-12-11 19:45:49.699,1.0343,2.01117,16.1195,-0.0848314,0.597943,-0.469818,0
2024-12-11 19:45:49.701,0.974477,1.88405,15.8297,-0.00908635,0.650476,-0.46432,0
2024-12-11 19:45:49.703,0.926621,1.74766,15.5187,0.0660479,0.702398,-0.458823,0
2024-12-11 19:45:49.706,0.845265,1.60887,15.1953,0.144847,0.754931,-0.452714,0
2024-12-11 19:45:49.708,0.737288,1.50359,14.8552,0.222425,0.803875,-0.445384,0
2024-12-11 19:45:49.710,0.634397,1.4342,14.5059,0.293283,0.851521,-0.433778,0
2024-12-11 19:45:49.713,0.514756,1.37886,14.1347,0.364141,0.896724,-0.422783,0
2024-12-11 19:45:49.716,0.364008,1.32861,13.7372,0.432556,0.941926,-0.408122,0
2024-12-11 19:45:49.717,0.210568,1.29512,13.3376,0.493641,0.985907,-0.388575,0
2024-12-11 19:45:49.720,0.0502493,1.26879,12.9401,0.55778,1.02928,-0.366585,0
2024-12-11 19:45:49.722,-0.112463,1.24247,12.5258,0.618254,1.07387,-0.342151,0
2024-12-11 19:45:49.724,-0.275175,1.2329,12.0951,0.671398,1.1148,-0.314052,0
2024-12-11 19:45:49.727,-0.4334,1.23769,11.6641,0.719654,1.15206,-0.281677,0
2024-12-11 19:45:49.730,-0.572184,1.24726,11.2499,0.804562,1.21192,-0.209597,0
2024-12-11 19:45:49.732,-0.691825,1.24008,10.85,0.804562,1.21192,-0.209597,0
2024-12-11 19:45:49.734,-0.799502,1.21137,10.4599,0.841824,1.23513,-0.169281,0
2024-12-11 19:45:49.736,-0.881157,1.18983,10.0792,0.871755,1.24918,-0.130798,0
2024-12-11 19:45:49.739,-0.931406,1.17069,9.68884,0.8968,1.25957,-0.0886492,0
2024-12-11 19:45:49.741,-0.952942,1.14437,9.31556,0.923067,1.26018,-0.0519984,0
2024-12-11 19:45:49.744,-0.931406,1.11326,8.97308,0.9475,1.23391,0.0249684,0
2024-12-11 19:45:49.746,-0.890728,1.07498,8.61865,0.9475,1.23391,0.0249684,0
2024-12-11 19:45:49.748,-0.854836,1.03908,8.25494,0.95422,1.21559,0.0555107,0
2024-12-11 19:45:49.750,-0.818644,1.01515,7.92204,0.956663,1.18749,0.0836097,0
2024-12-11 19:45:49.753,-0.773181,1.00798,7.61097,0.951166,1.15572,0.111709,0
2024-12-11 19:45:49.755,-0.718146,1.02473,7.31396,0.941392,1.11174,0.133699,0
2024-12-11 19:45:49.757,-0.658325,1.06301,7.04836,0.92551,1.06532,0.153246,0
2024-12-11 19:45:49.760,-0.608076,1.10848,6.81835,0.909017,1.01645,0.169128,0
2024-12-11 19:45:49.762,-0.548256,1.14915,6.61496,0.888859,0.962084,0.182567,0
2024-12-11 19:45:49.764,-0.498006,1.21137,6.41845,0.860149,0.902221,0.195395,0
2024-12-11 19:45:49.768,-0.462114,1.29272,6.25813,0.796621,0.78303,0.211888,0
2024-12-11 19:45:49.769,-0.409472,1.36451,6.14567,0.796621,0.78303,0.211888,0
2024-12-11 19:45:49.773,-0.347258,1.42463,6.05713,0.738591,0.66086,0.216164,0
2024-12-11 19:45:49.774,-0.294616,1.49641,5.96381,0.738591,0.66086,0.216164,0
2024-12-11 19:45:49.776,-0.222533,1.58495,5.91117,0.704994,0.599776,0.217385,0
2024-12-11 19:45:49.779,-0.150748,1.66391,5.88694,0.671398,0.540523,0.21372,0
2024-12-11 19:45:49.781,-0.0837488,1.72373,5.85584,0.635968,0.483715,0.207612,0
2024-12-11 19:45:49.783,-0.00239282,1.76441,5.85105,0.606648,0.430571,0.199671,0
2024-12-11 19:45:49.787,0.11007,1.77637,6.06192,0.552893,0.295574,0.175848,0
2024-12-11 19:45:49.788,0.167498,1.80987,6.01645,0.552893,0.295574,0.175848,0
2024-12-11 19:45:49.790,0.189033,1.86969,5.7673,0.522962,0.253425,0.160576,0
2024-12-11 19:45:49.793,0.34008,1.87448,5.87019,0.498528,0.21372,0.145305,0
2024-12-11 19:45:49.795,0.514756,1.8673,6.01885,0.473483,0.161187,0.123315,0
2024-12-11 19:45:49.797,0.605683,1.88166,6.06192,0.44966,0.103768,0.0958267,0
2024-12-11 19:45:49.800,0.660718,1.89362,6.05952,0.422783,0.0445155,0.0707819,0
2024-12-11 19:45:49.803,0.744467,1.89601,6.0691,0.401403,-0.0104608,0.0414613,0
2024-12-11 19:45:49.806,0.85005,1.89841,6.10738,0.354368,-0.127133,-0.0251211,0
2024-12-11 19:45:49.807,0.933799,1.88883,6.15045,0.354368,-0.127133,-0.0251211,0
2024-12-11 19:45:49.809,1.02473,1.89123,6.18156,0.331156,-0.180276,-0.0617719,0
2024-12-11 19:45:49.813,1.11087,1.89123,6.2342,0.289618,-0.285953,-0.141793,0
2024-12-11 19:45:49.814,1.1659,1.87926,6.29641,0.289618,-0.285953,-0.141793,0
2024-12-11 19:45:49.817,1.21854,1.88166,6.34666,0.265795,-0.335431,-0.18272,0
2024-12-11 19:45:49.819,1.28315,1.87687,6.39691,0.243804,-0.382467,-0.223646,0
2024-12-11 19:45:49.821,1.32622,1.86251,6.46421,0.218149,-0.430724,-0.266406,0
2024-12-11 19:45:49.823,1.35254,1.83619,6.52882,0.19738,-0.473483,-0.307943,0
2024-12-11 19:45:49.826,1.37169,1.82423,6.61257,0.176611,-0.513799,-0.348259,0
2024-12-11 19:45:49.828,1.37169,1.8003,6.69392,0.15401,-0.552893,-0.39224,0
2024-12-11 19:45:49.830,1.35972,1.77637,6.75853,0.133241,-0.584657,-0.432556,0
2024-12-11 19:45:49.834,1.34776,1.76441,6.84467,0.0898709,-0.635357,-0.511966,0
2024-12-11 19:45:49.835,1.31426,1.74527,6.92602,0.0898709,-0.635357,-0.511966,0
2024-12-11 19:45:49.838,1.24965,1.71894,7.00977,0.0721563,-0.656737,-0.548617,0
2024-12-11 19:45:49.840,1.17787,1.6998,7.10339,0.0550526,-0.673841,-0.584046,0
2024-12-11 19:45:49.843,1.09173,1.69262,7.21346,0.0269536,-0.695831,-0.646353,0
2024-12-11 19:45:49.845,1.00558,1.67587,7.32832,0.0269536,-0.695831,-0.646353,0
2024-12-11 19:45:49.847,0.919442,1.67587,7.42882,0.0171801,-0.700107,-0.675673,0
2024-12-11 19:45:49.849,0.830609,1.67827,7.54128,0.00740652,-0.700718,-0.700718,0
2024-12-11 19:45:49.852,0.742074,1.65194,7.64447,0.00129805,-0.695221,-0.72332,0
2024-12-11 19:45:49.854,0.634397,1.6352,7.71147,-0.00481042,-0.685447,-0.742256,0
2024-12-11 19:45:49.856,0.512363,1.63759,7.78086,-0.00725381,-0.668954,-0.756916,0
2024-12-11 19:45:49.860,0.397508,1.62323,7.84547,-0.00786466,-0.628027,-0.780739,0
2024-12-11 19:45:49.861,0.292223,1.59691,7.88854,-0.00786466,-0.628027,-0.780739,0
2024-12-11 19:45:49.864,0.18664,1.58734,7.93161,-0.00358873,-0.599928,-0.786237,0
2024-12-11 19:45:49.866,0.0789631,1.5658,7.97947,-0.000534491,-0.569386,-0.790513,0
2024-12-11 19:45:49.868,-0.0191426,1.54905,8.01536,0.00374144,-0.540676,-0.791124,0
2024-12-11 19:45:49.871,-0.114855,1.54666,8.02971,0.00923906,-0.504636,-0.78868,0
2024-12-11 19:45:49.873,-0.222533,1.54905,8.0345,0.0165692,-0.47104,-0.784404,0
2024-12-11 19:45:49.875,-0.318545,1.5347,8.02493,0.0208452,-0.434389,-0.775242,0
2024-12-11 19:45:49.879,-0.409472,1.5012,8.01297,0.0281753,-0.395295,-0.763635,0
2024-12-11 19:45:49.880,-0.502792,1.48923,7.98425,0.0348946,-0.356811,-0.749586,0
2024-12-11 19:45:49.883,-0.579362,1.47727,7.94118,0.0465007,-0.285953,-0.7166,0
2024-12-11 19:45:49.886,-0.629611,1.45573,7.91007,0.0519984,-0.252967,-0.696442,0
2024-12-11 19:45:49.887,-0.675075,1.42702,7.85025,0.0519984,-0.252967,-0.696442,0
2024-12-11 19:45:49.889,-0.722932,1.4004,7.78565,0.0513875,-0.222425,-0.675063,0
2024-12-11 19:45:49.892,-0.754038,1.37647,7.74258,0.0568851,-0.189439,-0.652461,0
2024-12-11 19:45:49.894,-0.782752,1.36451,7.69711,0.0568851,-0.163173,-0.628027,0
2024-12-11 19:45:49.897,-0.80668,1.3669,7.64447,0.057496,-0.135074,-0.604815,0
2024-12-11 19:45:49.900,-0.837787,1.36929,7.58704,0.0538309,-0.106975,-0.577327,0
2024-12-11 19:45:49.901,-0.859622,1.38126,7.56042,0.0507767,-0.0800973,-0.549839,0
2024-12-11 19:45:49.904,-0.864407,1.4004,7.54607,0.0465007,-0.0538309,-0.521129,0
2024-12-11 19:45:49.906,-0.852443,1.41266,7.52453,0.0458899,-0.0287862,-0.49303,0
2024-12-11 19:45:49.908,-0.85005,1.43181,7.53649,0.0422248,-0.0019089,-0.462488,0
2024-12-11 19:45:49.912,-0.852443,1.4677,7.56282,0.0379489,0.0243575,-0.433167,0
2024-12-11 19:45:49.913,-0.830609,1.50838,7.56042,0.0422248,0.0494023,-0.403236,0
2024-12-11 19:45:49.916,-0.809073,1.55862,7.57239,0.0428357,0.0939941,-0.344594,0
2024-12-11 19:45:49.919,-0.780359,1.57777,7.61097,0.0465007,0.114152,-0.319549,0
2024-12-11 19:45:49.920,-0.734896,1.60409,7.63011,0.0465007,0.114152,-0.319549,0
2024-12-11 19:45:49.922,-0.687039,1.64477,7.64926,0.0544418,0.13431,-0.294505,0
2024-12-11 19:45:49.925,-0.643968,1.67827,7.68036,0.0636045,0.155079,-0.268849,0
2024-12-11 19:45:49.927,-0.600898,1.73091,7.70668,0.0703238,0.172183,-0.249302,0
2024-12-11 19:45:49.930,-0.555434,1.77159,7.72104,0.0800973,0.190508,-0.229755,0
2024-12-11 19:45:49.933,-0.507577,1.81705,7.72343,0.106975,0.222883,-0.199213,0
2024-12-11 19:45:49.934,-0.442971,1.87687,7.72343,0.106975,0.222883,-0.199213,0
2024-12-11 19:45:49.937,-0.395115,1.91516,7.71625,0.121635,0.232046,-0.186996,0
2024-12-11 19:45:49.939,-0.349651,1.94387,7.7019,0.136906,0.238154,-0.177222,0
2024-12-11 19:45:49.941,-0.292223,1.97528,7.67558,0.150956,0.243652,-0.16867,0
2024-12-11 19:45:49.943,-0.267996,2.01117,7.63968,0.165005,0.244873,-0.165005,0
2024-12-11 19:45:49.946,-0.256032,2.04945,7.58944,0.176,0.245484,-0.159507,0
2024-12-11 19:45:49.948,-0.251246,2.09492,7.53649,0.191882,0.24243,-0.153399,0
2024-12-11 19:45:49.952,-0.248854,2.13799,7.48385,0.213873,0.231435,-0.148512,0
2024-12-11 19:45:49.954,-0.241675,2.18584,7.42882,0.224257,0.224105,-0.144847,0
2024-12-11 19:45:49.956,-0.251246,2.24327,7.37857,0.224257,0.224105,-0.144847,0
2024-12-11 19:45:49.958,-0.267996,2.29591,7.32832,0.232809,0.211888,-0.141793,0
2024-12-11 19:45:49.960,-0.289831,2.34856,7.27328,0.242583,0.199671,-0.136906,0
2024-12-11 19:45:49.962,-0.30658,2.39163,7.24218,0.252356,0.186843,-0.13263,0
2024-12-11 19:45:49.966,-0.316152,2.41555,7.22303,0.265184,0.152025,-0.122857,0
2024-12-11 19:45:49.968,-0.325723,2.45145,7.19671,0.265184,0.152025,-0.122857,0
2024-12-11 19:45:49.969,-0.330509,2.48973,7.16321,0.268849,0.134921,-0.118581,0
2024-12-11 19:45:49.972,-0.320937,2.50887,7.13929,0.270071,0.115374,-0.112472,0
2024-12-11 19:45:49.974,-0.32333,2.54028,7.10818,0.273736,0.0952158,-0.106975,0
2024-12-11 19:45:49.976,-0.328116,2.57378,7.08186,0.273736,0.0775012,-0.100866,0
2024-12-11 19:45:49.979,-0.32333,2.59771,7.07229,0.273736,0.0591758,-0.0965902,0
2024-12-11 19:45:49.982,-0.318545,2.62164,7.07707,0.274347,0.038407,-0.0917034,0
2024-12-11 19:45:49.984,-0.311366,2.66471,7.08664,0.272514,0.0206925,-0.0849841,0
2024-12-11 19:45:49.986,-0.30658,2.71496,7.09382,0.270682,0.00175619,-0.0794865,0
2024-12-11 19:45:49.988,-0.287438,2.76521,7.11296,0.267627,-0.0153475,-0.0764323,0
2024-12-11 19:45:49.991,-0.263211,2.80828,7.13211,0.26213,-0.0318404,-0.0697129,0
2024-12-11 19:45:49.993,-0.236889,2.84178,7.14886,0.257243,-0.0483333,-0.0660479,0
2024-12-11 19:45:49.995,-0.217747,2.87767,7.17757,0.252356,-0.0672696,-0.0623828,0
2024-12-11 19:45:49.999,-0.212961,2.9351,7.20868,0.235863,-0.101477,-0.0581068,0
2024-12-11 19:45:50.000,-0.193819,2.99013,7.23978,0.235863,-0.101477,-0.0581068,0
2024-12-11 19:45:50.002,-0.174676,3.03559,7.2685,0.224868,-0.115526,-0.0550526,0
2024-12-11 19:45:50.005,-0.165105,3.08345,7.31396,0.215705,-0.129576,-0.0568851,0
2024-12-11 19:45:50.007,-0.143569,3.12921,7.37378,0.20471,-0.14668,-0.0544418,0
2024-12-11 19:45:50.010,-0.114855,3.17468,7.436,0.193104,-0.158286,-0.0538309,0
2024-12-11 19:45:50.013,-0.0861416,3.22253,7.51257,0.169281,-0.186385,-0.0581068,0
2024-12-11 19:45:50.015,-0.0646062,3.26321,7.59183,0.155232,-0.197991,-0.0623828,0
2024-12-11 19:45:50.018,-0.0478565,3.30868,7.67079,0.144236,-0.210208,-0.065437,0
2024-12-11 19:45:50.019,-0.0239282,3.35414,7.73779,0.144236,-0.210208,-0.065437,0
2024-12-11 19:45:50.021,-0.0119641,3.39003,7.81436,0.127133,-0.221814,-0.0660479,0
2024-12-11 19:45:50.025,0.0143569,3.44507,7.91486,0.113083,-0.227922,-0.0715455,0
2024-12-11 19:45:50.026,0.0239282,3.49532,8.02732,0.101477,-0.230977,-0.077654,0
2024-12-11 19:45:50.029,0.026321,3.54796,8.135,0.0721563,-0.232198,-0.0868167,0
2024-12-11 19:45:50.032,0.0215354,3.60539,8.23819,0.0611611,-0.228533,-0.0947577,0
2024-12-11 19:45:50.034,0.00239282,3.65354,8.35065,0.0465007,-0.223036,-0.0990336,0
2024-12-11 19:45:50.035,-0.00717847,3.72054,8.47508,0.0465007,-0.223036,-0.0990336,0
2024-12-11 19:45:50.038,-0.0287139,3.79472,8.60668,0.0330621,-0.215095,-0.100255,0
2024-12-11 19:45:50.040,-0.0502493,3.85215,8.73859,0.021456,-0.205321,-0.105753,0
2024-12-11 19:45:50.042,-0.0837488,3.92393,8.87498,0.0116825,-0.191272,-0.11064,0
2024-12-11 19:45:50.045,-0.107677,3.99332,9.00658,0.00129805,-0.174168,-0.113083,0
2024-12-11 19:45:50.047,-0.136391,4.04357,9.12623,-0.00358873,-0.152788,-0.116137,0
2024-12-11 19:45:50.050,-0.162712,4.08903,9.24587,-0.010308,-0.129576,-0.119802,0
2024-12-11 19:45:50.052,-0.196211,4.14646,9.36102,-0.0121406,-0.101477,-0.121024,0
2024-12-11 19:45:50.054,-0.241675,4.20897,9.46152,-0.014584,-0.0715455,-0.122857,0
2024-12-11 19:45:50.058,-0.289831,4.24965,9.54288,-0.0164165,-0.041614,-0.1253,0
2024-12-11 19:45:50.059,-0.337687,4.26162,9.62663,-0.0170274,-0.0141258,-0.129576,0
2024-12-11 19:45:50.062,-0.378365,4.2688,9.69602,-0.0188599,0.0457372,-0.134463,0
2024-12-11 19:45:50.064,-0.431007,4.28794,9.72952,-0.0188599,0.0457372,-0.134463,0
2024-12-11 19:45:50.066,-0.464507,4.30469,9.7678,-0.0213033,0.0726145,-0.137517,0
2024-12-11 19:45:50.068,-0.483649,4.31187,9.79412,-0.0206925,0.0988809,-0.142404,0
2024-12-11 19:45:50.071,-0.524327,4.31187,9.8013,-0.022525,0.125758,-0.143625,0
2024-12-11 19:45:50.073,-0.567398,4.3023,9.80369,-0.0280226,0.144694,-0.147901,0
2024-12-11 19:45:50.075,-0.612862,4.29272,9.80369,-0.0335202,0.167296,-0.151566,0
2024-12-11 19:45:50.078,-0.655932,4.28794,9.80848,-0.0414613,0.182567,-0.154621,0
2024-12-11 19:45:50.080,-0.694218,4.28076,9.81087,-0.0481806,0.199671,-0.158286,0
2024-12-11 19:45:50.082,-0.744467,4.2999,9.79891,-0.058565,0.216164,-0.16134,0
2024-12-11 19:45:50.085,-0.789931,4.31905,9.8013,-0.0701711,0.224715,-0.165616,0
2024-12-11 19:45:50.087,-0.842872,4.32383,9.82553,-0.0848314,0.231435,-0.167449,0
2024-12-11 19:45:50.091,-0.890728,4.31665,9.87338,-0.094605,0.239376,-0.165005,0
2024-12-11 19:45:50.092,-0.929013,4.3023,9.9332,-0.106822,0.243041,-0.168059,0
2024-12-11 19:45:50.094,-0.967299,4.29751,9.99063,-0.118428,0.246095,-0.166227,0
2024-12-11 19:45:50.097,-0.97687,4.29751,10.0505,-0.132477,0.24976,-0.162562,0
2024-12-11 19:45:50.099,-0.991227,4.28315,10.1175,-0.140419,0.252814,-0.163173,0
2024-12-11 19:45:50.102,-1.01276,4.25444,10.1964,-0.145916,0.254036,-0.162562,0
2024-12-11 19:45:50.104,-1.00798,4.22094,10.2802,-0.15569,0.254036,-0.159507,0
2024-12-11 19:45:50.106,-0.981655,4.17757,10.3591,-0.161798,0.254036,-0.158286,0
2024-12-11 19:45:50.108,-0.952942,4.13211,10.4456,-0.168517,0.252814,-0.157675,0
2024-12-11 19:45:50.111,-0.936192,4.07229,10.5221,-0.172183,0.252204,-0.155842,0
2024-12-11 19:45:50.113,-0.938585,4.00529,10.5963,-0.174626,0.251593,-0.155232,0
2024-12-11 19:45:50.115,-0.931406,3.96222,10.6681,-0.177069,0.254647,-0.15401,0
2024-12-11 19:45:50.119,-0.933799,3.95264,10.7375,-0.174015,0.273583,-0.149123,0
2024-12-11 19:45:50.120,-0.984048,3.94068,10.8093,-0.174015,0.273583,-0.149123,0
2024-12-11 19:45:50.123,-1.04148,3.94068,10.8428,-0.169739,0.290076,-0.143625,0
2024-12-11 19:45:50.126,-1.09412,3.96939,10.8452,-0.16302,0.334668,-0.126522,0
2024-12-11 19:45:50.127,-1.17787,4.0005,10.8332,-0.16302,0.334668,-0.126522,0
2024-12-11 19:45:50.131,-1.25922,4.00768,10.7925,-0.161798,0.377427,-0.105142,0
2024-12-11 19:45:50.132,-1.2999,4.00768,10.7279,-0.161798,0.377427,-0.105142,0
2024-12-11 19:45:50.134,-1.33101,4.0005,10.6394,-0.168517,0.38659,-0.093536,0
2024-12-11 19:45:50.137,-1.37408,3.98375,10.5269,-0.178291,0.388422,-0.0825407,0
2024-12-11 19:45:50.139,-1.41027,3.967,10.4192,-0.19173,0.380481,-0.0727672,0
2024-12-11 19:45:50.142,-1.37647,3.93829,10.3065,-0.214331,0.362767,-0.0660479,0
2024-12-11 19:45:50.145,-1.2999,3.91914,10.2203,-0.273583,0.286411,-0.0593285,0
2024-12-11 19:45:50.147,-1.19701,3.88804,10.1773,-0.273583,0.286411,-0.0593285,0
2024-12-11 19:45:50.148,-1.04148,3.82822,10.1605,-0.315121,0.22044,-0.065437,0
2024-12-11 19:45:50.151,-0.835394,3.77557,10.2036,-0.362156,0.132477,-0.0770431,0
2024-12-11 19:45:50.153,-0.581755,3.71815,10.2921,-0.417743,0.0200816,-0.0959794,0
2024-12-11 19:45:50.155,-0.32333,3.64367,10.4216,-0.478828,-0.112472,-0.124078,0
2024-12-11 19:45:50.159,-0.0550349,3.56231,10.6083,-0.625431,-0.428891,-0.205321,0
2024-12-11 19:45:50.160,0.239282,3.50967,10.8643,-0.625431,-0.428891,-0.205321,0
2024-12-11 19:45:50.163,0.548256,3.44985,11.202,-0.707896,-0.604815,-0.257854,0
2024-12-11 19:45:50.165,0.85005,3.38525,11.6258,-0.787306,-0.780128,-0.316495,0
2024-12-11 19:45:50.167,1.11565,3.32782,12.1214,-0.866105,-0.945057,-0.381245,0
2024-12-11 19:45:50.171,1.36451,3.28714,12.6769,-0.943072,-1.10021,-0.450271,0
2024-12-11 19:45:50.172,1.6017,3.26321,13.328,-1.00843,-1.23154,-0.52174,0
2024-12-11 19:45:50.174,1.81944,3.23211,14.1084,-1.06776,-1.34516,-0.595652,0
2024-12-11 19:45:50.178,2.01356,3.19382,14.9728,-1.11113,-1.43984,-0.669565,0
2024-12-11 19:45:50.179,2.15234,3.15075,15.8728,-1.1374,-1.51131,-0.74531,0
2024-12-11 19:45:50.181,2.23849,3.1005,16.8114,-1.14595,-1.55468,-0.81739,0
2024-12-11 19:45:50.184,2.31027,3.02363,17.7571,-1.13373,-1.57301,-0.890692,0
2024-12-11 19:45:50.186,2.36531,2.90878,18.6882,-1.0983,-1.56873,-0.956663,0
2024-12-11 19:45:50.188,2.38206,2.74846,19.555,-1.04394,-1.54369,-1.01836,0
2024-12-11 19:45:50.192,2.36052,2.55703,20.3115,-0.878322,-1.43557,-1.13014,0
2024-12-11 19:45:50.193,2.30788,2.34377,20.9626,-0.878322,-1.43557,-1.13014,0
2024-12-11 19:45:50.196,2.25524,2.10927,21.4846,-0.771424,-1.35371,-1.17535,0
2024-12-11 19:45:50.198,2.17866,1.82901,21.839,-0.66025,-1.2517,-1.20894,0
2024-12-11 19:45:50.200,2.07338,1.53709,22.0448,-0.536858,-1.1387,-1.23643,0
2024-12-11 19:45:50.203,1.94387,1.2664,22.107,-0.409191,-1.00553,-1.25292,0
2024-12-11 19:45:50.205,1.79312,0.998405,22.0376,-0.277859,-0.851597,-1.25781,1
2024-12-11 19:45:50.207,1.60409,0.754038,21.8438,-0.142862,-0.681782,-1.25048,0
2024-12-11 19:45:50.211,1.39083,0.533899,21.5324,0.118581,-0.315884,-1.19734,0
2024-12-11 19:45:50.212,1.17069,0.35683,21.1137,0.118581,-0.315884,-1.19734,0
2024-12-11 19:45:50.215,0.919442,0.224925,20.6061,0.239528,-0.133241,-1.15152,0
2024-12-11 19:45:50.217,0.63679,0.141177,20.0243,0.350703,0.0457372,-1.09471,0
2024-12-11 19:45:50.219,0.368794,0.0693919,19.3612,0.450271,0.224715,-1.02569,0
2024-12-11 19:45:50.222,0.117248,0.0143569,18.6284,0.541287,0.398196,-0.942614,0
2024-12-11 19:45:50.224,-0.0933201,0.00478565,17.8863,0.6152,0.558849,-0.849154,0
2024-12-11 19:45:50.226,-0.258425,0.0239282,17.1538,0.675673,0.717058,-0.750808,0
2024-12-11 19:45:50.229,-0.402293,0.0526421,16.4306,0.724541,0.863127,-0.645131,0
2024-12-11 19:45:50.231,-0.495613,0.0789631,15.7196,0.760581,0.998124,-0.535789,0
2024-12-11 19:45:50.234,-0.52672,0.119641,15.0254,0.796621,1.22292,-0.323825,0
2024-12-11 19:45:50.237,-0.502792,0.153141,14.3623,0.796621,1.22292,-0.323825,0
2024-12-11 19:45:50.238,-0.440578,0.184247,13.7519,0.800286,1.31454,-0.227312,0
2024-12-11 19:45:50.240,-0.361615,0.227318,13.1794,0.792956,1.3964,-0.135684,0
2024-12-11 19:45:50.244,-0.270389,0.299402,12.6386,0.763025,1.52895,0.022525,0
2024-12-11 19:45:50.246,-0.16989,0.402293,12.1765,0.744088,1.58393,0.086664,0
2024-12-11 19:45:50.247,-0.0598206,0.505185,11.7885,0.744088,1.58393,0.086664,0
2024-12-11 19:45:50.250,0.0550349,0.617647,11.4365,0.722709,1.62974,0.142251,0
2024-12-11 19:45:50.252,0.172283,0.732503,11.1183,0.70194,1.67067,0.188065,0
2024-12-11 19:45:50.255,0.277567,0.842872,10.8476,0.683004,1.70121,0.224715,0
2024-12-11 19:45:50.257,0.380758,0.952942,10.6226,0.667122,1.72381,0.252814,0
2024-12-11 19:45:50.259,0.490828,1.07019,10.4264,0.652461,1.73542,0.27114,0
2024-12-11 19:45:50.262,0.598505,1.19222,10.2203,0.642688,1.74275,0.279081,0
2024-12-11 19:45:50.264,0.722932,1.28315,10.0241,0.638412,1.73542,0.276637,0
2024-12-11 19:45:50.266,0.862014,1.37169,9.85424,0.634747,1.71831,0.266253,0
2024-12-11 19:45:50.270,1.01276,1.45813,9.69362,0.635968,1.69266,0.243041,0
2024-12-11 19:45:50.271,1.18265,1.5012,9.53809,0.639633,1.65479,0.208223,0
2024-12-11 19:45:50.273,1.35015,1.5323,9.38495,0.642077,1.60347,0.164242,0
2024-12-11 19:45:50.277,1.48684,1.57777,9.2363,0.661013,1.47031,0.0414613,0
2024-12-11 19:45:50.279,1.60409,1.63759,9.08076,0.669565,1.38662,-0.0300079,0
2024-12-11 19:45:50.280,1.6998,1.69262,8.91326,0.669565,1.38662,-0.0300079,0
2024-12-11 19:45:50.283,1.77159,1.72852,8.74577,0.674452,1.2895,-0.106364,0
2024-12-11 19:45:50.285,1.8003,1.7668,8.58754,0.681171,1.1826,-0.189439,0
2024-12-11 19:45:50.288,1.80269,1.80748,8.42962,0.685447,1.06532,-0.274347,0
2024-12-11 19:45:50.290,1.79073,1.84337,8.25733,0.68789,0.93704,-0.359255,0
2024-12-11 19:45:50.292,1.76201,1.87926,8.07518,0.689112,0.805097,-0.447217,0
2024-12-11 19:45:50.294,1.73091,1.89841,7.90768,0.684225,0.664525,-0.531513,0
2024-12-11 19:45:50.297,1.68305,1.88644,7.75454,0.675063,0.522198,-0.61581,0
2024-12-11 19:45:50.299,1.63759,1.86012,7.61097,0.663456,0.376206,-0.697053,0
2024-12-11 19:45:50.303,1.60648,1.81705,7.51496,0.630471,0.0793338,-0.852208,0
2024-12-11 19:45:50.304,1.58495,1.74287,7.45753,0.630471,0.0793338,-0.852208,0
2024-12-11 19:45:50.306,1.57777,1.63998,7.39053,0.607869,-0.0697129,-0.924288,0
2024-12-11 19:45:50.310,1.58255,1.53709,7.35225,0.580992,-0.220592,-0.995757,0
2024-12-11 19:45:50.311,1.59691,1.40548,7.37139,0.551671,-0.368417,-1.06234,0
2024-12-11 19:45:50.313,1.62084,1.24247,7.43121,0.524183,-0.516242,-1.12648,0
2024-12-11 19:45:50.316,1.64955,1.0678,7.53889,0.492419,-0.661013,-1.18879,0
2024-12-11 19:45:50.318,1.68784,0.873978,7.67079,0.457601,-0.799065,-1.25048,0
2024-12-11 19:45:50.321,1.72852,0.699003,7.8359,0.429502,-0.928564,-1.30668,0
2024-12-11 19:45:50.324,1.76201,0.553041,8.02971,0.39957,-1.0489,-1.36043,0
2024-12-11 19:45:50.325,1.79312,0.409472,8.2334,0.376358,-1.15702,-1.41297,0
2024-12-11 19:45:50.327,1.80269,0.270389,8.46551,0.352535,-1.25903,-1.46367,0
2024-12-11 19:45:50.330,1.79073,0.165105,8.74816,0.333599,-1.35005,-1.5107,0
2024-12-11 19:45:50.332,1.76441,0.081356,9.02573,0.318939,-1.4374,-1.55407,0
2024-12-11 19:45:50.336,1.71655,-0.00478565,9.27249,0.304278,-1.58889,-1.6286,0
2024-12-11 19:45:50.337,1.66391,-0.0717847,9.54766,0.304278,-1.58889,-1.6286,0
2024-12-11 19:45:50.339,1.62084,-0.148355,9.8351,0.300002,-1.65425,-1.65975,0
2024-12-11 19:45:50.342,1.60409,-0.251246,10.1175,0.302446,-1.71106,-1.68846,0
2024-12-11 19:45:50.344,1.61127,-0.361615,10.3783,0.307943,-1.76176,-1.71472,0
2024-12-11 19:45:50.346,1.61605,-0.498006,10.6059,0.314663,-1.8033,-1.73733,0
2024-12-11 19:45:50.349,1.61366,-0.627219,10.8212,0.326269,-1.83445,-1.75993,0
2024-12-11 19:45:50.351,1.62323,-0.737288,11.0249,0.340318,-1.85705,-1.77825,0
2024-12-11 19:45:50.353,1.64477,-0.8668,11.2451,0.356811,-1.87118,-1.79597,0
2024-12-11 19:45:50.356,1.65673,-0.988834,11.4556,0.374526,-1.87362,-1.80818,0
2024-12-11 19:45:50.358,1.66391,-1.07258,11.633,0.395295,-1.86873,-1.81918,0
2024-12-11 19:45:50.360,1.64955,-1.15155,11.8005,0.416063,-1.85522,-1.82773,0
2024-12-11 19:45:50.363,1.62323,-1.22333,11.956,0.43561,-1.82834,-1.83323,0
2024-12-11 19:45:50.365,1.60648,-1.29751,12.0855,0.463099,-1.79658,-1.83689,0
2024-12-11 19:45:50.368,1.59452,-1.36211,12.1813,0.4857,-1.75565,-1.83934,0
2024-12-11 19:45:50.370,1.58255,-1.4004,12.2722,0.510134,-1.70617,-1.8375,0
2024-12-11 19:45:50.372,1.57298,-1.4342,12.3416,0.534568,-1.65181,-1.83079,0
2024-12-11 19:45:50.376,1.56102,-1.47248,12.3799,0.577938,-1.52597,-1.81979,0
2024-12-11 19:45:50.377,1.54905,-1.50838,12.3966,0.577938,-1.52597,-1.81979,0
2024-12-11 19:45:50.379,1.55623,-1.52752,12.3894,0.599317,-1.45634,-1.8088,0
2024-12-11 19:45:50.382,1.57059,-1.54188,12.3607,0.617032,-1.38181,-1.79963,0
2024-12-11 19:45:50.384,1.57777,-1.55145,12.2865,0.631082,-1.30668,-1.78742,0
2024-12-11 19:45:50.386,1.58255,-1.53709,12.1956,0.643299,-1.2291,-1.77642,0
2024-12-11 19:45:50.389,1.57537,-1.51795,12.076,0.652461,-1.14847,-1.76542,0
2024-12-11 19:45:50.391,1.58016,-1.50838,11.9393,0.660402,-1.06723,-1.75443,0
2024-12-11 19:45:50.394,1.58495,-1.47966,11.8077,0.663456,-0.978654,-1.74282,0
2024-12-11 19:45:50.396,1.59691,-1.4342,11.6474,0.657959,-0.892524,-1.72938,0
2024-12-11 19:45:50.398,1.60887,-1.39801,11.4652,0.650018,-0.808838,-1.72022,0
2024-12-11 19:45:50.400,1.5993,-1.37408,11.2714,0.643299,-0.72332,-1.71106,0
2024-12-11 19:45:50.403,1.59212,-1.32622,11.08,0.625584,-0.641466,-1.70006,0
2024-12-11 19:45:50.406,1.6017,-1.25922,10.8906,0.610924,-0.562667,-1.69334,0
2024-12-11 19:45:50.408,1.62323,-1.21137,10.6777,0.587711,-0.487532,-1.68601,0
2024-12-11 19:45:50.411,1.65912,-1.15633,10.4862,0.537011,-0.345205,-1.68113,0
2024-12-11 19:45:50.412,1.6998,-1.09173,10.3328,0.537011,-0.345205,-1.68113,0
2024-12-11 19:45:50.415,1.71655,-1.04148,10.194,0.50769,-0.280455,-1.68235,0
2024-12-11 19:45:50.417,1.74527,-0.984048,10.0624,0.477759,-0.220592,-1.68724,0
2024-12-11 19:45:50.420,1.79073,-0.919442,9.93081,0.446606,-0.166227,-1.69457,0
2024-12-11 19:45:50.423,1.82901,-0.864407,9.83031,0.383688,-0.0617719,-1.71534,0
2024-12-11 19:45:50.424,1.87208,-0.799502,9.75584,0.383688,-0.0617719,-1.71534,0
2024-12-11 19:45:50.427,1.89123,-0.732503,9.69123,0.354368,-0.013515,-1.72877,0
2024-12-11 19:45:50.429,1.91276,-0.677468,9.62902,0.329323,0.0310769,-1.74466,0
2024-12-11 19:45:50.431,1.93908,-0.627219,9.58116,0.303057,0.074447,-1.76115,0
2024-12-11 19:45:50.433,1.95344,-0.576969,9.54766,0.281677,0.116595,-1.78192,0
2024-12-11 19:45:50.437,1.95583,-0.533899,9.51895,0.244415,0.181956,-1.82468,0
2024-12-11 19:45:50.439,1.94387,-0.498006,9.48784,0.230366,0.211277,-1.84545,0
2024-12-11 19:45:50.441,1.93191,-0.4669,9.43998,0.230366,0.211277,-1.84545,0
2024-12-11 19:45:50.444,1.90798,-0.440578,9.4017,0.209597,0.249149,-1.89004,0
2024-12-11 19:45:50.445,1.89362,-0.414257,9.37059,0.209597,0.249149,-1.89004,0
2024-12-11 19:45:50.448,1.86251,-0.387936,9.32274,0.205932,0.266253,-1.91325,0
2024-12-11 19:45:50.450,1.80269,-0.371187,9.28445,0.201045,0.274194,-1.93715,0
2024-12-11 19:45:50.453,1.73809,-0.349651,9.26292,0.199213,0.274194,-1.9793,0
2024-12-11 19:45:50.456,1.66152,-0.304188,9.23869,0.202267,0.266253,-1.99946,0
2024-12-11 19:45:50.457,1.58255,-0.267996,9.20519,0.202267,0.266253,-1.99946,0
2024-12-11 19:45:50.460,1.50838,-0.236889,9.1669,0.205932,0.254036,-2.01778,0
2024-12-11 19:45:50.462,1.4342,-0.193819,9.11905,0.208375,0.237543,-2.0355,0
2024-12-11 19:45:50.464,1.3334,-0.138784,9.06162,0.215705,0.211888,-2.05504,0
2024-12-11 19:45:50.466,1.22572,-0.100499,9.02333,0.221814,0.181345,-2.07154,0
2024-12-11 19:45:50.470,1.1324,-0.0717847,8.99462,0.242583,0.109265,-2.10147,0
2024-12-11 19:45:50.472,1.02712,-0.0215354,8.94916,0.251745,0.0652843,-2.11368,0
2024-12-11 19:45:50.474,0.917049,0.0287139,8.90848,0.251745,0.0652843,-2.11368,0
2024-12-11 19:45:50.476,0.816252,0.0741775,8.87976,0.262741,0.0182491,-2.12651,0
2024-12-11 19:45:50.478,0.725324,0.114855,8.86302,0.274958,-0.0361163,-2.13873,0
2024-12-11 19:45:50.481,0.639183,0.172283,8.84387,0.287175,-0.0941468,-2.15034,0
2024-12-11 19:45:50.483,0.553041,0.222533,8.82473,0.300002,-0.158286,-2.16011,0
2024-12-11 19:45:50.486,0.464507,0.260818,8.81516,0.32749,-0.300002,-2.17904,0
2024-12-11 19:45:50.489,0.383151,0.313759,8.79123,0.338486,-0.375137,-2.18699,0
2024-12-11 19:45:50.490,0.313759,0.383151,8.78884,0.338486,-0.375137,-2.18699,0
2024-12-11 19:45:50.492,0.253639,0.452543,8.82473,0.350092,-0.452103,-2.19554,0
2024-12-11 19:45:50.495,0.20339,0.507577,8.84148,0.364752,-0.535789,-2.20653,0
2024-12-11 19:45:50.497,0.160319,0.567398,8.86062,0.375747,-0.620086,-2.2157,0
2024-12-11 19:45:50.499,0.131605,0.646361,8.88934,0.387964,-0.706216,-2.22669,0
2024-12-11 19:45:50.503,0.112463,0.71336,8.92523,0.408122,-0.873588,-2.25051,0
2024-12-11 19:45:50.504,0.0957129,0.773181,8.9683,0.408122,-0.873588,-2.25051,0
2024-12-11 19:45:50.506,0.066999,0.837787,9.01376,0.417896,-0.958496,-2.26517,0
2024-12-11 19:45:50.509,0.0454636,0.895514,9.07837,0.430113,-1.03485,-2.27922,0
2024-12-11 19:45:50.511,0.0311067,0.945763,9.1334,0.440497,-1.11243,-2.29266,0
2024-12-11 19:45:50.514,0.0191426,1.00798,9.19562,0.450271,-1.18512,-2.30854,0
2024-12-11 19:45:50.516,0.00478565,1.07498,9.27488,0.456379,-1.25476,-2.32748,0
2024-12-11 19:45:50.519,0.0,1.11805,9.35863,0.467375,-1.32073,-2.34458,0
2024-12-11 19:45:50.521,0.00478565,1.12762,9.42563,0.476537,-1.38303,-2.36108,0
2024-12-11 19:45:50.524,0.00478565,1.1324,9.47588,0.496084,-1.48505,-2.39467,0
2024-12-11 19:45:50.525,0.00957129,1.13958,9.51655,0.496084,-1.48505,-2.39467,0
2024-12-11 19:45:50.529,0.00957129,1.13719,9.5668,0.505858,-1.56995,-2.42644,0
2024-12-11 19:45:50.530,0.00478565,1.13001,9.62184,0.505858,-1.56995,-2.42644,0
2024-12-11 19:45:50.533,0.00717847,1.11326,9.64337,0.513188,-1.60599,-2.44354,0
2024-12-11 19:45:50.536,0.00957129,1.08455,9.64816,0.515631,-1.66586,-2.47531,0
2024-12-11 19:45:50.538,0.0215354,1.07737,9.6673,0.513799,-1.68907,-2.4918,0
2024-12-11 19:45:50.540,0.0358923,1.07019,9.68166,0.513799,-1.68907,-2.4918,0
2024-12-11 19:45:50.542,0.0287139,1.04148,9.69362,0.509523,-1.71167,-2.50768,0
2024-12-11 19:45:50.544,-0.00478565,1.02712,9.71516,0.502804,-1.72816,-2.51929,0
2024-12-11 19:45:50.547,-0.026321,1.0319,9.74627,0.491198,-1.73977,-2.53273,0
2024-12-11 19:45:50.550,-0.040678,1.04148,9.77977,0.475926,-1.74893,-2.55655,0
2024-12-11 19:45:50.552,-0.0598206,1.04865,9.82553,0.475926,-1.74893,-2.55655,0
2024-12-11 19:45:50.554,-0.081356,1.04148,9.85424,0.466153,-1.74466,-2.56388,0
2024-12-11 19:45:50.556,-0.11007,1.04148,9.87817,0.454547,-1.73916,-2.57243,0
2024-12-11 19:45:50.558,-0.129212,1.04626,9.92842,0.44233,-1.72755,-2.58037,0
2024-12-11 19:45:50.562,-0.138784,1.04148,9.97149,0.424615,-1.69212,-2.58831,0
2024-12-11 19:45:50.563,-0.145962,1.0343,10.0074,0.424615,-1.69212,-2.58831,0
2024-12-11 19:45:50.565,-0.153141,1.02233,10.0313,0.416674,-1.6683,-2.59137,0
2024-12-11 19:45:50.569,-0.16989,1.01515,10.0528,0.397127,-1.61943,-2.59198,0
2024-12-11 19:45:50.570,-0.167498,0.986441,10.0792,0.397127,-1.61943,-2.59198,0
2024-12-11 19:45:50.573,-0.160319,0.955334,10.0935,0.387964,-1.58828,-2.5932,0
2024-12-11 19:45:50.575,-0.177069,0.938585,10.0887,0.381245,-1.55713,-2.5932,0
2024-12-11 19:45:50.577,-0.18664,0.921835,10.0768,0.372693,-1.52414,-2.59137,0
2024-12-11 19:45:50.579,-0.198604,0.926621,10.0552,0.365363,-1.48749,-2.59015,0
2024-12-11 19:45:50.583,-0.212961,0.929013,10.0313,0.354979,-1.45267,-2.58892,0
2024-12-11 19:45:50.585,-0.22014,0.907478,9.99781,0.336653,-1.37448,-2.57976,0
2024-12-11 19:45:50.588,-0.236889,0.912264,9.95953,0.32749,-1.336,-2.57548,0
2024-12-11 19:45:50.590,-0.251246,0.921835,9.90688,0.316495,-1.29874,-2.5706,0
2024-12-11 19:45:50.591,-0.265603,0.914656,9.83988,0.316495,-1.29874,-2.5706,0
2024-12-11 19:45:50.595,-0.27996,0.917049,9.7678,0.306111,-1.26209,-2.56571,0
2024-12-11 19:45:50.596,-0.285045,0.912264,9.67927,0.292672,-1.22544,-2.56205,0
2024-12-11 19:45:50.598,-0.297009,0.9003,9.59791,0.278012,-1.19184,-2.56021,0
2024-12-11 19:45:50.601,-0.299402,0.888335,9.5333,0.264573,-1.16069,-2.55899,0
2024-12-11 19:45:50.603,-0.313759,0.878764,9.47348,0.245637,-1.13137,-2.55716,0
2024-12-11 19:45:50.605,-0.337687,0.885943,9.41606,0.232198,-1.10449,-2.55594,0
