timestamp,accel_x,accel_y,accel_z,gyro_x,gyro_y,gyro_z,step_timestamp
2024-12-11 19:36:53.478,-0.318545,2.83938,9.45913,-0.144694,0.0518457,-0.0403923,0
2024-12-11 19:36:53.479,-0.308973,2.84417,9.42084,-0.144694,0.0518457,-0.0403923,0
2024-12-11 19:36:53.479,-0.308973,2.84417,9.42084,-0.144694,0.0518457,-0.0403923,0
2024-12-11 19:36:53.479,-0.308973,2.84417,9.42084,-0.144694,0.0518457,-0.0403923,0
2024-12-11 19:36:53.481,-0.308973,2.84895,9.39691,-0.143473,0.0414613,-0.0428357,0
2024-12-11 19:36:53.482,-0.311366,2.84895,9.39691,-0.143473,0.0414613,-0.0428357,0
2024-12-11 19:36:53.484,-0.299402,2.86331,9.38495,-0.145916,0.0292443,-0.0471116,0
2024-12-11 19:36:53.484,-0.299402,2.86331,9.38495,-0.145916,0.0292443,-0.0471116,0
2024-12-11 19:36:53.486,-0.27996,2.87288,9.37059,-0.144694,0.0133623,-0.0532201,0
2024-12-11 19:36:53.486,-0.27996,2.87288,9.37059,-0.144694,0.0133623,-0.0532201,0
2024-12-11 19:36:53.489,-0.265603,2.8681,9.35863,-0.147749,-0.00313059,-0.0605502,0
2024-12-11 19:36:53.491,-0.251246,2.88245,9.37059,-0.150192,-0.0196235,-0.0660479,0
2024-12-11 19:36:53.492,-0.251246,2.88245,9.37059,-0.15569,-0.0379489,-0.0727672,0
2024-12-11 19:36:53.493,-0.241675,2.88963,9.38974,-0.15569,-0.0379489,-0.0727672,0
2024-12-11 19:36:53.493,-0.241675,2.88963,9.38974,-0.15569,-0.0379489,-0.0727672,0
2024-12-11 19:36:53.496,-0.227318,2.9016,9.4017,-0.164852,-0.0532201,-0.0819299,0
2024-12-11 19:36:53.498,-0.22014,2.90878,9.42323,-0.169128,-0.0739889,-0.0898709,0
2024-12-11 19:36:53.500,-0.193819,2.91356,9.46631,-0.17768,-0.0910926,-0.0978119,0
2024-12-11 19:36:53.503,-0.172283,2.93988,9.49741,-0.185621,-0.109418,-0.108196,0
2024-12-11 19:36:53.504,-0.172283,2.93988,9.49741,-0.19173,-0.127133,-0.117359,0
2024-12-11 19:36:53.505,-0.172283,2.94227,9.53091,-0.19173,-0.127133,-0.117359,0
2024-12-11 19:36:53.506,-0.167498,2.94227,9.53091,-0.19173,-0.127133,-0.117359,0
2024-12-11 19:36:53.507,-0.155533,2.9327,9.59791,-0.19173,-0.127133,-0.117359,0
2024-12-11 19:36:53.510,-0.153141,2.91595,9.67927,-0.200282,-0.157675,-0.136906,0
2024-12-11 19:36:53.511,-0.153141,2.91595,9.67927,-0.214942,-0.16867,-0.146069,0
2024-12-11 19:36:53.514,-0.145962,2.90638,9.80369,-0.214942,-0.16867,-0.146069,0
2024-12-11 19:36:53.514,-0.131605,2.90638,9.80369,-0.214942,-0.16867,-0.146069,0
2024-12-11 19:36:53.518,-0.133998,2.89681,9.86621,-0.228381,-0.194326,-0.174168,0
2024-12-11 19:36:53.519,-0.148355,2.87767,9.91885,-0.228381,-0.194326,-0.174168,0
2024-12-11 19:36:53.520,-0.148355,2.87767,9.91885,-0.232046,-0.199213,-0.183941,0
2024-12-11 19:36:53.525,-0.165105,2.85853,10.0193,-0.232046,-0.199213,-0.188828,0
2024-12-11 19:36:53.525,-0.177069,2.8657,10.0193,-0.232046,-0.199213,-0.188828,0
2024-12-11 19:36:53.526,-0.179462,2.87049,10.0648,-0.228991,-0.200434,-0.196158,0
2024-12-11 19:36:53.527,-0.179462,2.87049,10.0648,-0.230213,-0.199213,-0.201656,0
2024-12-11 19:36:53.529,-0.179462,2.85135,10.0959,-0.230213,-0.199213,-0.201656,0
2024-12-11 19:36:53.531,-0.172283,2.84178,10.1175,-0.228381,-0.197991,-0.205932,0
2024-12-11 19:36:53.534,-0.165105,2.85374,10.1246,-0.228381,-0.197991,-0.205932,0
2024-12-11 19:36:53.536,-0.155533,2.85135,10.1079,-0.222272,-0.195547,-0.216316,0
2024-12-11 19:36:53.538,-0.141177,2.83938,10.084,-0.217996,-0.192493,-0.216927,0
2024-12-11 19:36:53.544,-0.0741775,2.83938,10.0289,-0.205779,-0.19005,-0.219371,0
2024-12-11 19:36:53.546,-0.0550349,2.83699,9.99303,-0.195395,-0.186385,-0.21876,0
2024-12-11 19:36:53.548,-0.0239282,2.84895,9.95235,-0.195395,-0.186385,-0.21876,0
2024-12-11 19:36:53.551,-0.00239282,2.8657,9.89253,-0.189286,-0.186996,-0.218149,0
2024-12-11 19:36:53.553,0.0382852,2.87288,9.82792,-0.174626,-0.19005,-0.213873,0
2024-12-11 19:36:53.554,0.0837488,2.89203,9.77737,-0.174626,-0.19005,-0.213873,0
2024-12-11 19:36:53.557,0.102891,2.92552,9.75344,-0.174626,-0.19005,-0.213873,0
2024-12-11 19:36:53.560,0.114855,2.95663,9.71277,-0.147749,-0.210208,-0.195547,0
2024-12-11 19:36:53.562,0.153141,2.99013,9.65295,-0.147749,-0.210208,-0.195547,0
2024-12-11 19:36:53.564,0.222533,3.04517,9.60987,-0.137364,-0.220592,-0.188217,0
2024-12-11 19:36:53.566,0.289831,3.06192,9.5668,-0.137364,-0.231587,-0.180276,0
2024-12-11 19:36:53.567,0.289831,3.06192,9.5668,-0.113541,-0.241361,-0.174779,0
2024-12-11 19:36:53.570,0.352044,3.0667,9.5022,-0.101324,-0.254189,-0.169281,0
2024-12-11 19:36:53.571,0.409472,3.10768,9.43759,-0.101324,-0.254189,-0.169281,0
2024-12-11 19:36:53.573,0.4334,3.13879,9.38495,-0.0872748,-0.267017,-0.163173,0
2024-12-11 19:36:53.573,0.4334,3.13879,9.38495,-0.0872748,-0.267017,-0.163173,0
2024-12-11 19:36:53.578,0.505185,3.14836,9.3347,-0.0591758,-0.296948,-0.152177,0
2024-12-11 19:36:53.579,0.505185,3.14836,9.3347,-0.0591758,-0.296948,-0.152177,0
2024-12-11 19:36:53.583,0.617647,3.20578,9.24587,-0.0219141,-0.335431,-0.141793,0
2024-12-11 19:36:53.583,0.617647,3.20578,9.24587,-0.0219141,-0.335431,-0.141793,0
2024-12-11 19:36:53.585,0.667897,3.23689,9.20758,-0.00786466,-0.357422,-0.13935,0
2024-12-11 19:36:53.585,0.667897,3.23689,9.20758,-0.00786466,-0.357422,-0.13935,0
2024-12-11 19:36:53.588,0.708575,3.25364,9.1669,-0.00786466,-0.357422,-0.13935,0
2024-12-11 19:36:53.592,0.770788,3.34696,9.05444,0.033673,-0.404457,-0.133852,0
2024-12-11 19:36:53.593,0.770788,3.34696,9.05444,0.033673,-0.404457,-0.133852,0
2024-12-11 19:36:53.595,0.770788,3.402,9.01616,0.033673,-0.404457,-0.133852,0
2024-12-11 19:36:53.597,0.833001,3.44267,8.96351,0.0568851,-0.429502,-0.138128,0
2024-12-11 19:36:53.600,0.835394,3.49532,8.90609,0.0715455,-0.44966,-0.138128,0
2024-12-11 19:36:53.602,0.833001,3.55992,8.85584,0.0715455,-0.44966,-0.138128,0
2024-12-11 19:36:53.602,0.833001,3.55992,8.85584,0.0715455,-0.44966,-0.138128,0
2024-12-11 19:36:53.604,0.84018,3.63171,8.77448,0.0715455,-0.44966,-0.138128,0
2024-12-11 19:36:53.606,0.842872,3.72772,8.68086,0.0794865,-0.470429,-0.146069,0
2024-12-11 19:36:53.610,0.84018,3.81147,8.58036,0.0721563,-0.494863,-0.155842,0
2024-12-11 19:36:53.611,0.845265,3.8689,8.47986,0.0721563,-0.494863,-0.155842,0
2024-12-11 19:36:53.613,0.842872,3.90957,8.36979,0.0636045,-0.501582,-0.160118,0
2024-12-11 19:36:53.616,0.830609,3.93829,8.25972,0.0636045,-0.508301,-0.163783,0
2024-12-11 19:36:53.616,0.830609,3.93829,8.25972,0.0636045,-0.508301,-0.163783,0
2024-12-11 19:36:53.619,0.811466,3.95743,8.18794,0.0129041,-0.517464,-0.180887,0
2024-12-11 19:36:53.621,0.773181,3.97897,8.14008,0.0129041,-0.517464,-0.180887,0
2024-12-11 19:36:53.623,0.725324,3.99093,8.09671,0.0129041,-0.517464,-0.180887,0
2024-12-11 19:36:53.626,0.689432,3.97179,8.10629,-0.0652843,-0.513188,-0.202267,0
2024-12-11 19:36:53.628,0.689432,3.97179,8.10629,-0.0652843,-0.513188,-0.202267,0
2024-12-11 19:36:53.630,0.634397,3.87847,8.20948,-0.0982701,-0.505858,-0.209597,0
2024-12-11 19:36:53.631,0.634397,3.87847,8.20948,-0.131867,-0.494252,-0.213873,0
2024-12-11 19:36:53.632,0.610469,3.83779,8.27647,-0.131867,-0.494252,-0.213873,0
2024-12-11 19:36:53.633,0.610469,3.83779,8.27647,-0.131867,-0.494252,-0.213873,0
2024-12-11 19:36:53.635,0.591326,3.78036,8.36501,-0.162409,-0.474705,-0.219981,0
2024-12-11 19:36:53.637,0.569791,3.72533,8.45594,-0.194784,-0.448438,-0.225479,0
2024-12-11 19:36:53.639,0.54347,3.67268,8.5684,-0.228991,-0.422783,-0.228533,0
2024-12-11 19:36:53.642,0.502792,3.61256,8.71466,-0.26381,-0.391629,-0.230366,0
2024-12-11 19:36:53.644,0.438186,3.57189,8.85105,-0.298628,-0.353146,-0.230977,0
2024-12-11 19:36:53.647,0.373579,3.53839,8.97308,-0.298628,-0.353146,-0.230977,0
2024-12-11 19:36:53.650,0.320937,3.51207,9.10469,-0.390866,-0.231587,-0.232198,0
2024-12-11 19:36:53.650,0.320937,3.51207,9.10469,-0.390866,-0.231587,-0.232198,0
2024-12-11 19:36:53.652,0.256032,3.48335,9.26531,-0.418354,-0.189439,-0.229755,0
2024-12-11 19:36:53.654,0.172283,3.46182,9.43998,-0.418354,-0.189439,-0.229755,0
2024-12-11 19:36:53.656,0.0981057,3.44507,9.59791,-0.443399,-0.146069,-0.22609,0
2024-12-11 19:36:53.658,0.0430708,3.43071,9.76062,-0.464168,-0.104531,-0.221814,0
2024-12-11 19:36:53.659,0.0430708,3.43071,9.76062,-0.483104,-0.0642153,-0.21876,0
2024-12-11 19:36:53.661,-0.00478565,3.42114,9.94756,-0.483104,-0.0642153,-0.21876,0
2024-12-11 19:36:53.663,-0.0382852,3.3996,10.127,-0.494099,-0.0251211,-0.213262,0
2024-12-11 19:36:53.663,-0.0382852,3.3996,10.127,-0.494099,-0.0251211,-0.213262,0
2024-12-11 19:36:53.664,-0.0382852,3.3996,10.127,-0.494099,-0.0251211,-0.213262,0
2024-12-11 19:36:53.669,-0.119641,3.34218,10.4767,-0.505705,0.00908635,-0.206543,0
2024-12-11 19:36:53.670,-0.148355,3.33021,10.6418,-0.508149,0.0738362,-0.195547,0
2024-12-11 19:36:53.673,-0.167498,3.32543,10.8045,-0.491045,0.121482,-0.180887,0
2024-12-11 19:36:53.675,-0.177069,3.30868,10.9385,-0.491045,0.121482,-0.180887,0
2024-12-11 19:36:53.675,-0.177069,3.30868,10.9385,-0.491045,0.121482,-0.180887,0
2024-12-11 19:36:53.678,-0.181855,3.29193,11.0608,-0.459281,0.160576,-0.169892,0
2024-12-11 19:36:53.679,-0.184247,3.26082,11.1541,-0.459281,0.160576,-0.169892,0
2024-12-11 19:36:53.682,-0.193819,3.24168,11.2092,-0.434847,0.170961,-0.162562,0
2024-12-11 19:36:53.682,-0.193819,3.24168,11.2092,-0.434847,0.170961,-0.162562,0
2024-12-11 19:36:53.685,-0.196211,3.24885,11.2427,-0.377427,0.17768,-0.155842,0
2024-12-11 19:36:53.686,-0.191426,3.25125,11.2522,-0.377427,0.17768,-0.155842,0
2024-12-11 19:36:53.689,-0.196211,3.24168,11.2475,-0.345052,0.172183,-0.15401,0
2024-12-11 19:36:53.691,-0.196211,3.24168,11.2092,-0.309623,0.16302,-0.148512,0
2024-12-11 19:36:53.691,-0.200997,3.24646,11.2092,-0.309623,0.16302,-0.148512,0
2024-12-11 19:36:53.696,-0.198604,3.26321,11.1398,-0.2351,0.12698,-0.147901,0
2024-12-11 19:36:53.696,-0.212961,3.268,11.0632,-0.2351,0.12698,-0.147901,0
2024-12-11 19:36:53.696,-0.212961,3.268,11.0632,-0.2351,0.12698,-0.147901,0
2024-12-11 19:36:53.698,-0.241675,3.26321,10.9555,-0.19906,0.106822,-0.145458,0
2024-12-11 19:36:53.701,-0.256032,3.28235,10.838,-0.159966,0.0762796,-0.143625,0
2024-12-11 19:36:53.702,-0.256032,3.28235,10.838,-0.159966,0.0762796,-0.143625,0
2024-12-11 19:36:53.704,-0.267996,3.2991,10.7279,-0.120871,0.0481806,-0.141182,0
2024-12-11 19:36:53.705,-0.282652,3.2991,10.6011,-0.0872748,0.0170274,-0.13996,0
2024-12-11 19:36:53.705,-0.282652,3.2991,10.6011,-0.0872748,0.0170274,-0.13996,0
2024-12-11 19:36:53.710,-0.297009,3.31107,10.3184,-0.0109189,-0.0434465,-0.138739,0
2024-12-11 19:36:53.711,-0.297009,3.31107,10.3184,0.0232886,-0.0721563,-0.138128,0
2024-12-11 19:36:53.712,-0.297009,3.30868,10.1868,0.0232886,-0.0721563,-0.138128,0
2024-12-11 19:36:53.715,-0.275175,3.3015,10.0457,0.0587177,-0.0990336,-0.138739,0
2024-12-11 19:36:53.718,-0.260818,3.30389,9.91406,0.123468,-0.143625,-0.13935,0
2024-12-11 19:36:53.718,-0.260818,3.30389,9.91406,0.123468,-0.143625,-0.13935,0
2024-12-11 19:36:53.718,-0.260818,3.30389,9.91406,0.123468,-0.143625,-0.13935,0
2024-12-11 19:36:53.719,-0.236889,3.30389,9.77498,0.123468,-0.143625,-0.13935,0
2024-12-11 19:36:53.724,-0.205783,3.30389,9.46152,0.176611,-0.174779,-0.143625,0
2024-12-11 19:36:53.726,-0.18664,3.31107,9.28684,0.176611,-0.174779,-0.143625,0
2024-12-11 19:36:53.729,-0.18664,3.31107,9.09512,0.219981,-0.201045,-0.147901,0
2024-12-11 19:36:53.729,-0.191426,3.3326,9.09512,0.219981,-0.201045,-0.147901,0
2024-12-11 19:36:53.731,-0.200997,3.36371,8.90609,0.237085,-0.212651,-0.149123,0
2024-12-11 19:36:53.734,-0.205783,3.39003,8.70987,0.250524,-0.217538,-0.147901,0
2024-12-11 19:36:53.735,-0.205783,3.39003,8.70987,0.259076,-0.220592,-0.148512,0
2024-12-11 19:36:53.737,-0.198604,3.40439,8.52054,0.264573,-0.221814,-0.149123,0
2024-12-11 19:36:53.739,-0.174676,3.40917,8.34347,0.264573,-0.221814,-0.149123,0
2024-12-11 19:36:53.741,-0.165105,3.41635,8.18315,0.264573,-0.221814,-0.149123,0
2024-12-11 19:36:53.743,-0.165105,3.42353,8.0345,0.265795,-0.21876,-0.143625,0
2024-12-11 19:36:53.744,-0.165105,3.42353,8.0345,0.258465,-0.216316,-0.143015,0
2024-12-11 19:36:53.748,-0.150748,3.42114,7.77368,0.249302,-0.210208,-0.13996,0
2024-12-11 19:36:53.748,-0.138784,3.42114,7.77368,0.249302,-0.210208,-0.13996,0
2024-12-11 19:36:53.750,-0.107677,3.41396,7.65883,0.238307,-0.199823,-0.135074,0
2024-12-11 19:36:53.750,-0.107677,3.41396,7.65883,0.238307,-0.199823,-0.135074,0
2024-12-11 19:36:53.751,-0.107677,3.41396,7.65883,0.224868,-0.190661,-0.134463,0
2024-12-11 19:36:53.752,-0.0622134,3.40917,7.57478,0.224868,-0.190661,-0.134463,0
2024-12-11 19:36:53.757,0.026321,3.3996,7.41685,0.195547,-0.164394,-0.130798,0
2024-12-11 19:36:53.757,0.026321,3.3996,7.41685,0.195547,-0.164394,-0.130798,0
2024-12-11 19:36:53.759,0.0765703,3.38764,7.35225,0.176,-0.152788,-0.128965,0
2024-12-11 19:36:53.762,0.107677,3.38046,7.32593,0.160729,-0.143015,-0.129576,0
2024-12-11 19:36:53.764,0.119641,3.37567,7.2996,0.142404,-0.134463,-0.129576,0
2024-12-11 19:36:53.766,0.131605,3.38764,7.28286,0.121635,-0.125911,-0.131409,0
2024-12-11 19:36:53.767,0.131605,3.38764,7.28286,0.121635,-0.125911,-0.131409,0
2024-12-11 19:36:53.769,0.150748,3.41635,7.28286,0.102088,-0.116137,-0.131409,0
2024-12-11 19:36:53.771,0.165105,3.43789,7.29482,0.0794865,-0.107585,-0.133852,0
2024-12-11 19:36:53.772,0.165105,3.43789,7.29482,0.0794865,-0.107585,-0.133852,0
2024-12-11 19:36:53.774,0.198604,3.44507,7.32114,0.0794865,-0.107585,-0.133852,0
2024-12-11 19:36:53.776,0.232104,3.44746,7.34985,0.0397814,-0.0886492,-0.130798,0
2024-12-11 19:36:53.778,0.251246,3.45703,7.38814,0.0245102,-0.0782648,-0.133241,0
2024-12-11 19:36:53.779,0.251246,3.45703,7.38814,0.00923906,-0.0703238,-0.134463,0
2024-12-11 19:36:53.782,0.258425,3.47378,7.43839,0.00923906,-0.0703238,-0.134463,0
2024-12-11 19:36:53.783,0.265603,3.48335,7.49821,0.00923906,-0.0703238,-0.134463,0
2024-12-11 19:36:53.785,0.27996,3.49292,7.55085,-0.0255792,-0.0519984,-0.13935,0
2024-12-11 19:36:53.786,0.27996,3.49292,7.55085,-0.0255792,-0.0519984,-0.13935,0
2024-12-11 19:36:53.788,0.297009,3.50728,7.58704,-0.0371853,-0.0446682,-0.140571,0
2024-12-11 19:36:53.790,0.32333,3.52642,7.63011,-0.0371853,-0.0446682,-0.140571,0
2024-12-11 19:36:53.792,0.337687,3.54796,7.67558,-0.0677277,-0.0251211,-0.146069,0
2024-12-11 19:36:53.795,0.366401,3.55753,7.71386,-0.0799446,-0.0177909,-0.145458,0
2024-12-11 19:36:53.795,0.366401,3.55753,7.71386,-0.0799446,-0.0177909,-0.145458,0
2024-12-11 19:36:53.797,0.366401,3.55753,7.71386,-0.0799446,-0.0177909,-0.145458,0
2024-12-11 19:36:53.799,0.361615,3.6006,7.7665,-0.103157,0.00542127,-0.149734,0
2024-12-11 19:36:53.799,0.361615,3.6006,7.7665,-0.103157,0.00542127,-0.149734,0
2024-12-11 19:36:53.804,0.337687,3.64876,7.87657,-0.124536,0.0206925,-0.147901,0
2024-12-11 19:36:53.805,0.337687,3.64876,7.87657,-0.134921,0.0255792,-0.146069,0
2024-12-11 19:36:53.808,0.34008,3.67508,7.91725,-0.134921,0.0255792,-0.146069,0
2024-12-11 19:36:53.809,0.332901,3.699,7.9675,-0.134921,0.0255792,-0.146069,0
2024-12-11 19:36:53.811,0.330509,3.72054,8.03929,-0.147138,0.0353528,-0.143015,0
2024-12-11 19:36:53.811,0.330509,3.72054,8.03929,-0.147138,0.0353528,-0.143015,0
2024-12-11 19:36:53.815,0.337687,3.73011,8.11107,-0.155079,0.0396287,-0.13935,0
2024-12-11 19:36:53.816,0.352044,3.73011,8.17598,-0.15569,0.0445155,-0.135684,0
2024-12-11 19:36:53.818,0.359223,3.75165,8.24776,-0.156301,0.0481806,-0.131409,0
2024-12-11 19:36:53.819,0.359223,3.75165,8.24776,-0.156301,0.0481806,-0.131409,0
2024-12-11 19:36:53.823,0.359223,3.79232,8.38894,-0.161798,0.050624,-0.122246,0
2024-12-11 19:36:53.823,0.359223,3.79232,8.38894,-0.161798,0.050624,-0.122246,0
2024-12-11 19:36:53.825,0.390329,3.81147,8.45594,-0.158133,0.0512348,-0.120413,0
2024-12-11 19:36:53.828,0.390329,3.81147,8.45594,-0.154468,0.046348,-0.117359,0
2024-12-11 19:36:53.829,0.426222,3.83061,8.53011,-0.153246,0.0432938,-0.113083,0
2024-12-11 19:36:53.832,0.454935,3.89282,8.66172,-0.147138,0.042683,-0.112472,0
2024-12-11 19:36:53.832,0.454935,3.89282,8.66172,-0.147138,0.042683,-0.112472,0
2024-12-11 19:36:53.835,0.459721,3.94547,8.70987,-0.144694,0.0414613,-0.109418,0
2024-12-11 19:36:53.838,0.459721,3.99571,8.74816,-0.135532,0.0359636,-0.105142,0
2024-12-11 19:36:53.838,0.459721,3.99571,8.74816,-0.135532,0.0359636,-0.105142,0
2024-12-11 19:36:53.840,0.459721,4.04836,8.80319,-0.135532,0.0359636,-0.105142,0
2024-12-11 19:36:53.843,0.452543,4.08903,8.85344,-0.128202,0.0261901,-0.0978119,0
2024-12-11 19:36:53.844,0.452543,4.08903,8.85344,-0.128202,0.0261901,-0.0978119,0
2024-12-11 19:36:53.844,0.457328,4.12493,8.88934,-0.128202,0.0261901,-0.0978119,0
2024-12-11 19:36:53.848,0.45015,4.17518,8.93959,-0.122093,0.0255792,-0.0965902,0
2024-12-11 19:36:53.850,0.45015,4.21137,8.98744,-0.122093,0.0170274,-0.0892601,0
2024-12-11 19:36:53.851,0.447757,4.2329,9.02094,-0.122704,0.0170274,-0.0892601,0
2024-12-11 19:36:53.851,0.447757,4.2329,9.02094,-0.122704,0.0170274,-0.0892601,0
2024-12-11 19:36:53.854,0.452543,4.27119,9.06401,-0.120871,0.0139731,-0.0874275,0
2024-12-11 19:36:53.857,0.459721,4.31187,9.10708,-0.120871,0.0115297,-0.0849841,0
2024-12-11 19:36:53.858,0.462114,4.34537,9.14058,-0.122704,0.00786466,-0.081319,0
2024-12-11 19:36:53.858,0.462114,4.34537,9.14058,-0.122704,0.00786466,-0.081319,0
2024-12-11 19:36:53.861,0.4669,4.38126,9.17169,-0.123926,0.00297788,-0.0800973,0
2024-12-11 19:36:53.863,0.474078,4.42194,9.2004,-0.123926,0.00297788,-0.0800973,0
2024-12-11 19:36:53.865,0.481256,4.46022,9.2339,-0.134921,-0.00618483,-0.0739889,0
2024-12-11 19:36:53.866,0.481256,4.46022,9.2339,-0.134921,-0.00618483,-0.0739889,0
2024-12-11 19:36:53.870,0.531506,4.58226,9.29402,-0.145305,-0.0147367,-0.073378,0
2024-12-11 19:36:53.870,0.531506,4.58226,9.29402,-0.145305,-0.0147367,-0.073378,0
2024-12-11 19:36:53.872,0.545863,4.64447,9.31316,-0.152025,-0.021456,-0.0739889,0
2024-12-11 19:36:53.875,0.553041,4.6995,9.32274,-0.152025,-0.021456,-0.0727672,0
2024-12-11 19:36:53.877,0.545863,4.75693,9.33231,-0.174015,-0.0306187,-0.0745997,0
2024-12-11 19:36:53.881,0.545863,4.75693,9.33231,-0.183789,-0.0355055,-0.0739889,0
2024-12-11 19:36:53.882,0.529113,4.81944,9.38734,-0.196616,-0.0410031,-0.0727672,0
2024-12-11 19:36:53.882,0.507577,4.87926,9.38734,-0.196616,-0.0410031,-0.0727672,0
2024-12-11 19:36:53.884,0.502792,4.94148,9.45673,-0.210055,-0.0489441,-0.0745997,0
2024-12-11 19:36:53.885,0.502792,4.94148,9.45673,-0.210055,-0.0489441,-0.0745997,0
2024-12-11 19:36:53.889,0.54347,5.08026,9.61227,-0.239376,-0.0660479,-0.0758214,0
2024-12-11 19:36:53.890,0.54347,5.08026,9.61227,-0.239376,-0.0660479,-0.0758214,0
2024-12-11 19:36:53.891,0.548256,5.13051,9.69841,-0.25648,-0.0709346,-0.0770431,0
2024-12-11 19:36:53.894,0.52672,5.18794,9.77259,-0.268696,-0.0788757,-0.0788757,0
2024-12-11 19:36:53.896,0.50997,5.24297,9.84706,-0.283968,-0.0862058,-0.0800973,0
2024-12-11 19:36:53.899,0.481256,5.27408,9.92842,-0.303515,-0.0929251,-0.0843733,0
2024-12-11 19:36:53.899,0.481256,5.27408,9.92842,-0.303515,-0.0929251,-0.0843733,0
2024-12-11 19:36:53.902,0.438186,5.29562,10.0313,-0.316343,-0.0996445,-0.0874275,0
2024-12-11 19:36:53.903,0.3999,5.30519,10.1366,-0.327338,-0.108196,-0.0892601,0
2024-12-11 19:36:53.904,0.3999,5.30519,10.1366,-0.343831,-0.121635,-0.0929251,0
2024-12-11 19:36:53.908,0.301795,5.27408,10.3759,-0.343831,-0.121635,-0.0929251,0
2024-12-11 19:36:53.909,0.361615,5.27408,10.3759,-0.37254,-0.147901,-0.0953685,0
2024-12-11 19:36:53.910,0.22014,5.26451,10.5221,-0.37254,-0.147901,-0.0953685,0
2024-12-11 19:36:53.913,0.129212,5.25494,10.6681,-0.389033,-0.162562,-0.0978119,0
2024-12-11 19:36:53.913,0.129212,5.25494,10.6681,-0.389033,-0.162562,-0.0978119,0
2024-12-11 19:36:53.915,0.0334995,5.26212,10.8308,-0.403083,-0.172946,-0.0959794,0
2024-12-11 19:36:53.917,-0.0454636,5.26451,11.0082,-0.417743,-0.183331,-0.0917034,0
2024-12-11 19:36:53.917,-0.0454636,5.26451,11.0082,-0.417743,-0.183331,-0.0917034,0
2024-12-11 19:36:53.922,-0.114855,5.26929,11.1876,-0.442788,-0.196769,-0.0862058,0
2024-12-11 19:36:53.923,-0.189033,5.27647,11.3647,-0.461724,-0.199823,-0.0794865,0
2024-12-11 19:36:53.924,-0.246461,5.27408,11.5708,-0.461724,-0.199823,-0.0794865,0
2024-12-11 19:36:53.927,-0.301795,5.27647,11.7742,-0.473941,-0.201045,-0.0727672,0
2024-12-11 19:36:53.929,-0.347258,5.27408,11.9704,-0.484326,-0.201045,-0.0660479,0
2024-12-11 19:36:53.929,-0.347258,5.27408,11.9704,-0.484326,-0.201045,-0.0660479,0
2024-12-11 19:36:53.932,-0.383151,5.29083,12.1693,-0.49471,-0.19738,-0.0568851,0
2024-12-11 19:36:53.935,-0.4334,5.33181,12.3918,-0.49471,-0.19738,-0.0568851,0
2024-12-11 19:36:53.936,-0.469292,5.37488,12.6482,-0.514868,-0.177833,-0.0361163,0
2024-12-11 19:36:53.936,-0.469292,5.37488,12.6482,-0.514868,-0.177833,-0.0361163,0
2024-12-11 19:36:53.938,-0.471685,5.41077,12.8827,-0.5167,-0.161951,-0.0251211,0
2024-12-11 19:36:53.942,-0.474078,5.43948,13.1315,-0.5167,-0.13935,-0.0122933,0
2024-12-11 19:36:53.943,-0.464507,5.47059,13.3807,-0.515479,-0.114305,-0.000687203,0
2024-12-11 19:36:53.943,-0.464507,5.47059,13.3807,-0.515479,-0.114305,-0.000687203,0
2024-12-11 19:36:53.946,-0.445364,5.4993,13.6032,-0.515479,-0.0862058,0.0127514,0
2024-12-11 19:36:53.948,-0.4334,5.52084,13.8284,-0.515479,-0.0862058,0.0127514,0
2024-12-11 19:36:53.950,-0.411865,5.54716,14.0438,-0.494099,-0.0165692,0.0347419,0
2024-12-11 19:36:53.950,-0.411865,5.54716,14.0438,-0.494099,-0.0165692,0.0347419,0
2024-12-11 19:36:53.951,-0.411865,5.54716,14.0438,-0.494099,-0.0165692,0.0347419,0
2024-12-11 19:36:53.955,-0.390329,5.57348,14.4197,-0.494099,-0.0165692,0.0347419,0
2024-12-11 19:36:53.956,-0.390329,5.57348,14.4197,-0.436069,0.103768,0.0713928,0
2024-12-11 19:36:53.957,-0.383151,5.58305,14.5872,-0.436069,0.103768,0.0713928,0
2024-12-11 19:36:53.961,-0.383151,5.5998,14.7189,-0.412856,0.146527,0.0836097,0
2024-12-11 19:36:53.962,-0.371187,5.59741,14.8122,-0.412856,0.186843,0.0952158,0
2024-12-11 19:36:53.964,-0.361615,5.59741,14.8843,-0.352993,0.228991,0.1056,0
2024-12-11 19:36:53.967,-0.361615,5.59741,14.9297,-0.316953,0.268086,0.115374,0
2024-12-11 19:36:53.968,-0.352044,5.59741,14.9297,-0.316953,0.268086,0.115374,0
2024-12-11 19:36:53.970,-0.34008,5.60937,14.9369,-0.246706,0.340776,0.136143,0
2024-12-11 19:36:53.972,-0.325723,5.62373,14.9249,-0.246706,0.340776,0.136143,0
2024-12-11 19:36:53.974,-0.294616,5.6333,14.8843,-0.207612,0.373151,0.144084,1
2024-12-11 19:36:53.975,-0.294616,5.6333,14.8843,-0.207612,0.373151,0.144084,0
2024-12-11 19:36:53.976,-0.294616,5.64527,14.8002,-0.207612,0.373151,0.144084,0
2024-12-11 19:36:53.979,-0.210568,5.64287,14.6949,-0.126369,0.42263,0.153246,0
2024-12-11 19:36:53.981,-0.189033,5.62852,14.5346,-0.0878856,0.439734,0.153246,0
2024-12-11 19:36:53.982,-0.210568,5.62852,14.5346,-0.0878856,0.439734,0.153246,0
2024-12-11 19:36:53.984,-0.198604,5.59023,14.3456,-0.0512348,0.44401,0.151414,0
2024-12-11 19:36:53.986,-0.227318,5.51366,14.1658,-0.0151948,0.435458,0.147749,0
2024-12-11 19:36:53.988,-0.270389,5.42034,13.9768,0.0122933,0.412856,0.141029,0
2024-12-11 19:36:53.989,-0.270389,5.42034,13.9768,0.0122933,0.412856,0.141029,0
2024-12-11 19:36:53.991,-0.320937,5.31476,13.7806,0.0678804,0.340166,0.121482,0
2024-12-11 19:36:53.993,-0.395115,5.19272,13.5936,0.0678804,0.340166,0.121482,0
2024-12-11 19:36:53.995,-0.507577,5.0683,13.4405,0.0880384,0.290076,0.109876,0
2024-12-11 19:36:53.995,-0.507577,5.0683,13.4405,0.0880384,0.290076,0.109876,0
2024-12-11 19:36:53.998,-0.617647,4.94626,13.3089,0.10392,0.233267,0.0976592,0
2024-12-11 19:36:54.000,-0.703789,4.82902,13.1964,0.119192,0.174626,0.0854423,0
2024-12-11 19:36:54.000,-0.703789,4.82902,13.1964,0.119192,0.174626,0.0854423,0
2024-12-11 19:36:54.002,-0.768395,4.74018,13.1028,0.128354,0.111098,0.0738362,0
2024-12-11 19:36:54.004,-0.821037,4.65643,13.0286,0.138128,0.0469589,0.0597867,0
2024-12-11 19:36:54.007,-0.919442,4.58226,12.9568,0.143015,-0.021456,0.0451263,0
2024-12-11 19:36:54.010,-0.919442,4.58226,12.9568,0.145458,-0.149123,0.022525,0
2024-12-11 19:36:54.011,-1.1348,4.38604,12.8755,0.145458,-0.149123,0.022525,0
2024-12-11 19:36:54.011,-1.1348,4.38604,12.8755,0.145458,-0.149123,0.022525,0
2024-12-11 19:36:54.014,-1.18744,4.2664,12.8659,0.142404,-0.209597,0.0115297,0
2024-12-11 19:36:54.016,-1.19462,4.14168,12.8468,0.142404,-0.209597,0.0115297,0
2024-12-11 19:36:54.017,-1.19462,4.14168,12.8468,0.13263,-0.316495,-0.00679568,0
2024-12-11 19:36:54.019,-1.1994,4.02921,12.8348,0.13263,-0.316495,-0.00679568,0
2024-12-11 19:36:54.021,-1.18265,3.9,12.8348,0.124689,-0.358644,-0.0177909,0
2024-12-11 19:36:54.021,-1.18265,3.9,12.8348,0.124689,-0.358644,-0.0177909,0
2024-12-11 19:36:54.026,-1.1013,3.62214,12.8827,0.0996445,-0.424004,-0.0355055,0
2024-12-11 19:36:54.026,-1.1013,3.62214,12.8827,0.0996445,-0.424004,-0.0355055,0
2024-12-11 19:36:54.028,-1.04387,3.46899,12.9138,0.0849841,-0.447217,-0.0434465,0
2024-12-11 19:36:54.030,-0.981655,3.31107,12.9353,0.0709346,-0.464931,-0.0519984,0
2024-12-11 19:36:54.033,-0.981655,3.31107,12.9353,0.0526092,-0.479591,-0.0605502,0
2024-12-11 19:36:54.033,-0.924228,3.14357,12.9497,0.0526092,-0.479591,-0.0605502,0
2024-12-11 19:36:54.035,-0.864407,2.97577,12.9521,0.0318404,-0.485089,-0.065437,0
2024-12-11 19:36:54.038,-0.794716,2.81306,12.9449,0.0159584,-0.485089,-0.0709346,0
2024-12-11 19:36:54.041,-0.71336,2.65274,12.9544,-0.00297788,-0.481424,-0.0764323,0
2024-12-11 19:36:54.042,-0.641576,2.49212,12.976,-0.00297788,-0.481424,-0.0764323,0
2024-12-11 19:36:54.047,-0.498006,2.23609,13.0669,-0.050624,-0.438054,-0.0892601,0
2024-12-11 19:36:54.048,-0.498006,2.23609,13.0669,-0.0640626,-0.414842,-0.0917034,0
2024-12-11 19:36:54.049,-0.442971,2.11884,13.1124,-0.0640626,-0.414842,-0.0917034,0
2024-12-11 19:36:54.051,-0.385544,2.0016,13.1578,-0.0640626,-0.414842,-0.0917034,0
2024-12-11 19:36:54.054,-0.318545,1.89362,13.2251,-0.0829989,-0.358033,-0.0941468,0
2024-12-11 19:36:54.056,-0.385544,1.91755,13.3161,-0.0884965,-0.326269,-0.0947577,0
2024-12-11 19:36:54.059,-0.419043,1.88405,13.3161,-0.0872748,-0.289007,-0.0874275,0
2024-12-11 19:36:54.061,-0.263211,1.6998,13.3161,-0.0817772,-0.238918,-0.0837624,0
2024-12-11 19:36:54.063,-0.136391,1.56102,13.4189,-0.0713928,-0.189439,-0.0825407,0
2024-12-11 19:36:54.066,-0.112463,1.45334,13.5003,-0.058565,-0.14668,-0.0794865,0
2024-12-11 19:36:54.069,-0.0765703,1.29512,13.5051,-0.0237467,-0.0434465,-0.0752106,0
2024-12-11 19:36:54.071,0.0,1.12044,13.4668,-0.0237467,-0.0434465,-0.0752106,0
2024-12-11 19:36:54.073,0.0430708,0.967299,13.4261,-0.00175619,0.0096972,-0.0758214,0
2024-12-11 19:36:54.077,0.0215354,0.632004,13.3065,0.0226777,0.0622301,-0.0752106,0
2024-12-11 19:36:54.080,-0.0478565,0.486042,13.2203,0.0831516,0.169739,-0.0739889,0
2024-12-11 19:36:54.082,-0.143569,0.364008,13.1004,0.118581,0.22105,-0.0721563,0
2024-12-11 19:36:54.083,-0.143569,0.364008,13.1004,0.118581,0.22105,-0.0721563,0
2024-12-11 19:36:54.085,-0.232104,0.224925,12.9616,0.153399,0.275416,-0.0666587,0
2024-12-11 19:36:54.088,-0.318545,0.100499,12.83,0.191272,0.326727,-0.0581068,0
2024-12-11 19:36:54.093,-0.565005,-0.0430708,12.5306,0.270071,0.426295,-0.0397814,0
2024-12-11 19:36:54.093,-0.565005,-0.0430708,12.5306,0.270071,0.426295,-0.0397814,0
2024-12-11 19:36:54.096,-0.789931,-0.148355,12.21,0.315884,0.524031,-0.00923906,0
2024-12-11 19:36:54.099,-0.890728,-0.179462,12.0494,0.402014,0.572287,0.010308,0
2024-12-11 19:36:54.099,-0.890728,-0.179462,12.0494,0.402014,0.572287,0.010308,0
2024-12-11 19:36:54.102,-0.962513,-0.200997,11.8819,0.499139,0.663304,0.0530674,0
2024-12-11 19:36:54.107,-1.01037,-0.217747,11.4844,0.547396,0.701787,0.0726145,0
2024-12-11 19:36:54.107,-1.03669,-0.227318,11.4844,0.547396,0.701787,0.0726145,0
2024-12-11 19:36:54.108,-1.06062,-0.246461,11.2618,0.592598,0.734162,0.0921616,0
2024-12-11 19:36:54.110,-1.08694,-0.272782,11.0273,0.592598,0.734162,0.0921616,0
2024-12-11 19:36:54.113,-1.12283,-0.32333,10.7734,0.640855,0.798301,0.130034,0
2024-12-11 19:36:54.115,-1.13719,-0.371187,10.5245,0.733704,0.824033,0.146527,0
2024-12-11 19:36:54.117,-1.16112,-0.392722,10.2634,0.777074,0.846023,0.161187,0
2024-12-11 19:36:54.122,-1.2664,-0.478864,9.71516,0.855873,0.875344,0.191119,0
2024-12-11 19:36:54.122,-1.2664,-0.478864,9.71516,0.855873,0.875344,0.191119,0
2024-12-11 19:36:54.124,-1.33101,-0.486042,9.45673,0.885194,0.881453,0.207001,0
2024-12-11 19:36:54.128,-1.45095,-0.478864,9.17647,0.942614,0.893059,0.236322,0
2024-12-11 19:36:54.130,-1.59212,-0.4669,8.86541,0.960939,0.89428,0.253425,0
2024-12-11 19:36:54.133,-1.72134,-0.442971,8.58276,0.960939,0.89428,0.253425,0
2024-12-11 19:36:54.134,-1.80987,-0.421436,8.33869,0.974989,0.888172,0.273583,0
2024-12-11 19:36:54.139,-1.94148,-0.361615,7.84068,0.984762,0.875344,0.296795,0
2024-12-11 19:36:54.141,-2.03031,-0.342473,7.60618,0.99759,0.84358,0.340776,0
2024-12-11 19:36:54.141,-2.03031,-0.342473,7.60618,0.99759,0.84358,0.340776,0
2024-12-11 19:36:54.144,-2.10927,-0.318545,7.36421,0.993314,0.825866,0.360934,0
2024-12-11 19:36:54.147,-2.15234,-0.294616,7.14646,0.979264,0.788527,0.407359,0
2024-12-11 19:36:54.149,-2.18345,-0.275175,6.96431,0.979264,0.788527,0.407359,0
2024-12-11 19:36:54.153,-2.19781,-0.251246,6.57667,0.949333,0.732329,0.445231,0
2024-12-11 19:36:54.153,-2.19302,-0.232104,6.57667,0.949333,0.732329,0.445231,0
2024-12-11 19:36:54.155,-2.20977,-0.205783,6.39452,0.927342,0.703009,0.465389,0
2024-12-11 19:36:54.157,-2.21456,-0.172283,6.22702,0.901687,0.671856,0.483715,0
2024-12-11 19:36:54.160,-2.2002,-0.138784,6.04995,0.87481,0.638259,0.495932,0
2024-12-11 19:36:54.162,-2.18345,-0.11007,5.87976,0.840602,0.602219,0.508759,0
2024-12-11 19:36:54.166,-2.1332,-0.0885344,5.71944,0.764246,0.520366,0.530139,0
2024-12-11 19:36:54.167,-2.08295,-0.0454636,5.58784,0.764246,0.520366,0.530139,0
2024-12-11 19:36:54.172,-2.03749,0.040678,5.36531,0.672008,0.429349,0.542356,0
2024-12-11 19:36:54.172,-2.03749,0.040678,5.36531,0.672008,0.429349,0.542356,0
2024-12-11 19:36:54.174,-2.03749,0.0789631,5.2358,0.672008,0.429349,0.542356,0
2024-12-11 19:36:54.176,-2.0351,0.12682,5.14487,0.562056,0.338944,0.549075,0
2024-12-11 19:36:54.180,-2.0351,0.200997,5.08983,0.50036,0.294963,0.551519,0
2024-12-11 19:36:54.181,-2.03988,0.277567,5.07069,0.433167,0.250371,0.553351,0
2024-12-11 19:36:54.184,-2.02792,0.352044,5.08744,0.364141,0.203336,0.553962,0
2024-12-11 19:36:54.187,-1.99681,0.438186,5.1353,0.226701,0.115374,0.55274,0
2024-12-11 19:36:54.188,-1.94387,0.521934,5.2023,0.226701,0.115374,0.55274,0
2024-12-11 19:36:54.191,-1.87687,0.588933,5.30279,0.15401,0.0707819,0.551519,0
2024-12-11 19:36:54.195,-1.6998,0.725324,5.57827,0.00923906,-0.00374144,0.539913,0
2024-12-11 19:36:54.198,-1.60887,0.768395,5.73859,-0.0610084,-0.0385597,0.531361,0
2024-12-11 19:36:54.199,-1.60887,0.768395,5.73859,-0.0610084,-0.0385597,0.531361,0
2024-12-11 19:36:54.200,-1.52273,0.799502,5.9016,-0.127591,-0.0684913,0.520976,0
2024-12-11 19:36:54.205,-1.42463,0.811466,6.07627,-0.255869,-0.119192,0.491656,0
2024-12-11 19:36:54.205,-1.34058,0.792323,6.25574,-0.255869,-0.119192,0.491656,0
2024-12-11 19:36:54.209,-1.21854,0.756431,6.65564,-0.312067,-0.137517,0.475774,0
2024-12-11 19:36:54.212,-1.17308,0.727717,6.85185,-0.409802,-0.172335,0.440955,0
2024-12-11 19:36:54.215,-1.11565,0.718146,7.03639,-0.490434,-0.20471,0.405526,0
2024-12-11 19:36:54.216,-1.0343,0.715753,7.22303,-0.490434,-0.20471,0.405526,0
2024-12-11 19:36:54.220,-0.967299,0.725324,7.43121,-0.55213,-0.234642,0.371319,0
2024-12-11 19:36:54.221,-0.895514,0.749253,7.63729,-0.55213,-0.234642,0.371319,0
2024-12-11 19:36:54.224,-0.82343,0.777966,7.82393,-0.55213,-0.234642,0.371319,0
2024-12-11 19:36:54.226,-0.768395,0.818644,7.99143,-0.5955,-0.259686,0.338944,0
2024-12-11 19:36:54.228,-0.720539,0.857229,8.16162,-0.5955,-0.259686,0.338944,0
2024-12-11 19:36:54.233,-0.567398,0.955334,8.48944,-0.618712,-0.268849,0.289465,0
2024-12-11 19:36:54.233,-0.567398,0.955334,8.48944,-0.618712,-0.268849,0.289465,0
2024-12-11 19:36:54.235,-0.471685,0.996012,8.64736,-0.619323,-0.268238,0.272972,0
2024-12-11 19:36:54.238,-0.383151,1.01755,8.78166,-0.613825,-0.266406,0.25648,0
2024-12-11 19:36:54.240,-0.30658,1.04387,8.89891,-0.605884,-0.262741,0.241819,0
2024-12-11 19:36:54.242,-0.244068,1.05583,9.0018,-0.605884,-0.262741,0.241819,0
2024-12-11 19:36:54.245,-0.184247,1.0678,9.10469,-0.580229,-0.257243,0.205779,0
2024-12-11 19:36:54.248,-0.129212,1.10608,9.19562,-0.54541,-0.251135,0.173404,0
2024-12-11 19:36:54.250,-0.0861416,1.14197,9.25544,-0.54541,-0.251135,0.173404,0
2024-12-11 19:36:54.252,-0.0478565,1.15394,9.32034,-0.527085,-0.246859,0.159355,0
2024-12-11 19:36:54.255,-0.0167498,1.15633,9.37299,-0.505705,-0.239528,0.145305,0
2024-12-11 19:36:54.256,0.00957129,1.15872,9.39213,-0.482493,-0.230366,0.131867,0
2024-12-11 19:36:54.259,0.00957129,1.15872,9.39213,-0.459281,-0.224257,0.122093,0
2024-12-11 19:36:54.260,0.0287139,1.17069,9.39452,-0.434847,-0.217538,0.113541,0
2024-12-11 19:36:54.262,0.0358923,1.19462,9.39452,-0.414078,-0.210208,0.1056,0
2024-12-11 19:36:54.263,0.0287139,1.2329,9.36102,-0.414078,-0.210208,0.1056,0
2024-12-11 19:36:54.267,0.026321,1.26401,9.31316,-0.395753,-0.202878,0.0976592,0
2024-12-11 19:36:54.271,0.0119641,1.33579,9.24347,-0.351161,-0.185774,0.0909399,0
2024-12-11 19:36:54.273,0.0119641,1.33579,9.19322,-0.328559,-0.177833,0.0884965,0
2024-12-11 19:36:54.274,0.0143569,1.38126,9.19322,-0.307791,-0.168059,0.086664,0
2024-12-11 19:36:54.275,0.00239282,1.41027,9.15015,-0.307791,-0.168059,0.086664,0
2024-12-11 19:36:54.281,-0.0550349,1.51077,9.0353,-0.276637,-0.143625,0.0909399,0
2024-12-11 19:36:54.281,-0.0550349,1.51077,9.0353,-0.276637,-0.143625,0.0909399,0
2024-12-11 19:36:54.283,-0.0789631,1.56341,8.95873,-0.245484,-0.123468,0.0988809,0
2024-12-11 19:36:54.286,-0.112463,1.62084,8.89173,-0.245484,-0.123468,0.0988809,0
2024-12-11 19:36:54.289,-0.167498,1.71416,8.73859,-0.230824,-0.108807,0.104379,0
2024-12-11 19:36:54.289,-0.167498,1.71416,8.73859,-0.230824,-0.108807,0.104379,0
2024-12-11 19:36:54.293,-0.165105,1.77398,8.65215,-0.197838,-0.0642153,0.130645,0
2024-12-11 19:36:54.294,-0.174676,1.83619,8.58276,-0.197838,-0.0642153,0.130645,0
2024-12-11 19:36:54.297,-0.167498,1.89123,8.50379,-0.189897,-0.0477224,0.139197,0
2024-12-11 19:36:54.299,-0.153141,1.93908,8.42962,-0.181345,-0.0318404,0.149581,0
2024-12-11 19:36:54.301,-0.141177,1.97528,8.36262,-0.177069,-0.013515,0.161187,0
2024-12-11 19:36:54.304,-0.107677,2.02792,8.29801,-0.172183,-7.63559e-05,0.171572,0
2024-12-11 19:36:54.306,-0.0933201,2.08535,8.24537,-0.166074,0.0170274,0.181345,0
2024-12-11 19:36:54.308,-0.0981057,2.13799,8.19033,-0.164242,0.0347419,0.194173,0
2024-12-11 19:36:54.313,-0.122034,2.25284,8.10868,-0.150192,0.066506,0.219829,0
2024-12-11 19:36:54.313,-0.122034,2.25284,8.10868,-0.150192,0.066506,0.219829,0
2024-12-11 19:36:54.316,-0.136391,2.30309,8.068,-0.145305,0.0988809,0.24976,0
2024-12-11 19:36:54.319,-0.133998,2.34377,8.02014,-0.142251,0.11232,0.262588,0
2024-12-11 19:36:54.323,-0.148355,2.42991,7.92204,-0.139808,0.130034,0.279081,0
2024-12-11 19:36:54.323,-0.148355,2.42991,7.92204,-0.139808,0.130034,0.279081,0
2024-12-11 19:36:54.325,-0.160319,2.4682,7.89572,-0.133699,0.146527,0.295574,0
2024-12-11 19:36:54.327,-0.184247,2.51127,7.87179,-0.130034,0.158744,0.312677,0
2024-12-11 19:36:54.329,-0.210568,2.54507,7.82872,-0.122704,0.176459,0.32917,0
2024-12-11 19:36:54.333,-0.227318,2.56182,7.80718,-0.106211,0.205779,0.369486,0
2024-12-11 19:36:54.337,-0.289831,2.59532,7.8024,-0.0964375,0.22105,0.389033,0
2024-12-11 19:36:54.337,-0.289831,2.59532,7.8024,-0.0964375,0.22105,0.389033,0
2024-12-11 19:36:54.340,-0.325723,2.60967,7.79043,-0.0860531,0.2351,0.409802,0
2024-12-11 19:36:54.341,-0.366401,2.63121,7.75933,-0.0750579,0.245484,0.433014,0
2024-12-11 19:36:54.346,-0.419043,2.67428,7.70908,-0.0439046,0.264421,0.475163,0
2024-12-11 19:36:54.347,-0.419043,2.67428,7.70908,-0.0439046,0.264421,0.475163,0
2024-12-11 19:36:54.351,-0.471685,2.70778,7.67558,-0.0133623,0.272972,0.5167,0
2024-12-11 19:36:54.351,-0.471685,2.70778,7.67558,-0.0133623,0.272972,0.5167,0
2024-12-11 19:36:54.353,-0.495613,2.72453,7.65883,-0.0133623,0.272972,0.537469,0
2024-12-11 19:36:54.356,-0.50997,2.74128,7.6349,0.037338,0.265031,0.576563,0
2024-12-11 19:36:54.360,-0.514756,2.79392,7.57239,0.0501658,0.262588,0.596721,0
2024-12-11 19:36:54.360,-0.514756,2.79392,7.57239,0.0501658,0.262588,0.596721,0
2024-12-11 19:36:54.362,-0.481256,2.81306,7.54128,0.0672696,0.261366,0.611382,0
2024-12-11 19:36:54.365,-0.407079,2.82981,7.51735,0.0788757,0.257701,0.622988,0
2024-12-11 19:36:54.369,-0.289831,2.83699,7.45275,0.110029,0.245484,0.641924,0
2024-12-11 19:36:54.369,-0.289831,2.83699,7.45275,0.110029,0.245484,0.641924,0
2024-12-11 19:36:54.373,-0.260818,2.87528,7.42164,0.135684,0.226548,0.647422,0
2024-12-11 19:36:54.375,-0.260818,2.92313,7.39053,0.147901,0.212498,0.647422,0
2024-12-11 19:36:54.378,-0.253639,2.98056,7.39053,0.154621,0.197838,0.645589,0
2024-12-11 19:36:54.379,-0.246461,3.00927,7.4001,0.154621,0.197838,0.645589,0
2024-12-11 19:36:54.384,-0.260818,3.05234,7.40967,0.169281,0.162409,0.635205,0
2024-12-11 19:36:54.385,-0.260818,3.05234,7.40967,0.169281,0.162409,0.635205,0
2024-12-11 19:36:54.388,-0.27996,3.10289,7.44078,0.180276,0.125758,0.614436,0
2024-12-11 19:36:54.388,-0.297009,3.10289,7.44078,0.180276,0.125758,0.614436,0
2024-12-11 19:36:54.391,-0.320937,3.13879,7.45275,0.183331,0.104379,0.600997,0
2024-12-11 19:36:54.394,-0.335294,3.15075,7.46232,0.193104,0.0878856,0.585115,0
2024-12-11 19:36:54.395,-0.342473,3.18425,7.48385,0.193104,0.0658951,0.568622,0
2024-12-11 19:36:54.398,-0.347258,3.22971,7.51496,0.196769,0.042683,0.546632,0
2024-12-11 19:36:54.403,-0.407079,3.34935,7.59422,0.199213,-0.00129805,0.499597,0
2024-12-11 19:36:54.403,-0.407079,3.34935,7.59422,0.199213,-0.00129805,0.499597,0
2024-12-11 19:36:54.405,-0.447757,3.41396,7.62772,0.201656,-0.0238994,0.473941,0
2024-12-11 19:36:54.408,-0.445364,3.49053,7.6684,0.19738,-0.0477224,0.446453,0
2024-12-11 19:36:54.410,-0.438186,3.55274,7.70668,0.19738,-0.0477224,0.446453,0
2024-12-11 19:36:54.412,-0.440578,3.61496,7.74258,0.187606,-0.0892601,0.390866,0
2024-12-11 19:36:54.414,-0.419043,3.69183,7.79043,0.187606,-0.0892601,0.390866,0
2024-12-11 19:36:54.418,-0.421436,3.77797,7.82632,0.167449,-0.147901,0.301071,0
2024-12-11 19:36:54.420,-0.459721,3.86172,7.867,0.157675,-0.170503,0.27114,0
2024-12-11 19:36:54.422,-0.500399,3.94068,7.934,0.14668,-0.190661,0.243652,0
2024-12-11 19:36:54.424,-0.529113,4.02921,8.00339,0.14668,-0.190661,0.243652,0
2024-12-11 19:36:54.427,-0.538684,4.10818,8.07757,0.118581,-0.23342,0.188675,0
2024-12-11 19:36:54.428,-0.514756,4.168,8.16401,0.118581,-0.23342,0.188675,0
2024-12-11 19:36:54.432,-0.469292,4.21615,8.26451,0.10392,-0.254189,0.162409,0
2024-12-11 19:36:54.436,-0.454935,4.32383,8.47508,0.0691021,-0.292672,0.110487,0
2024-12-11 19:36:54.436,-0.469292,4.32383,8.47508,0.0691021,-0.292672,0.110487,0
2024-12-11 19:36:54.438,-0.495613,4.38126,8.57797,0.0440574,-0.304278,0.0884965,0
2024-12-11 19:36:54.441,-0.517149,4.4339,8.67847,0.0019089,-0.332377,0.046348,0
2024-12-11 19:36:54.442,-0.538684,4.48894,8.81037,0.0019089,-0.332377,0.046348,0
2024-12-11 19:36:54.446,-0.555434,4.56551,8.9683,-0.0469589,-0.346427,0.0139731,0
2024-12-11 19:36:54.447,-0.553041,4.64447,9.13819,-0.0469589,-0.346427,0.0139731,0
2024-12-11 19:36:54.450,-0.536291,4.71865,9.32513,-0.0726145,-0.350703,-0.00251974,0
2024-12-11 19:36:54.454,-0.50997,4.82423,9.73669,-0.11965,-0.351924,-0.0257319,0
2024-12-11 19:36:54.457,-0.462114,4.87926,9.95474,-0.139808,-0.343983,-0.0403923,0
2024-12-11 19:36:54.457,-0.462114,4.87926,9.95474,-0.139808,-0.343983,-0.0403923,0
2024-12-11 19:36:54.461,-0.411865,4.96062,10.4169,-0.178902,-0.316495,-0.0623828,0
2024-12-11 19:36:54.461,-0.411865,4.96062,10.4169,-0.178902,-0.316495,-0.0623828,0
2024-12-11 19:36:54.464,-0.383151,4.99891,10.6202,-0.196006,-0.300613,-0.073378,0
2024-12-11 19:36:54.466,-0.34008,5.0348,10.8165,-0.213109,-0.282899,-0.0843733,0
2024-12-11 19:36:54.471,-0.313759,5.06112,11.2355,-0.246095,-0.24075,-0.102088,0
2024-12-11 19:36:54.471,-0.277567,5.0994,11.2355,-0.246095,-0.24075,-0.102088,0
2024-12-11 19:36:54.473,-0.227318,5.12333,11.4461,-0.263199,-0.221814,-0.111251,0
2024-12-11 19:36:54.475,-0.179462,5.14965,11.6545,-0.27847,-0.19738,-0.121024,0
2024-12-11 19:36:54.479,-0.141177,5.1664,11.8412,-0.306569,-0.15401,-0.13996,0
2024-12-11 19:36:54.480,-0.0933201,5.16162,12.0206,-0.306569,-0.15401,-0.13996,0
2024-12-11 19:36:54.483,-0.0311067,5.1664,12.186,-0.324894,-0.136906,-0.149734,0
2024-12-11 19:36:54.485,0.0287139,5.17597,12.32,-0.337722,-0.119802,-0.160729,0
2024-12-11 19:36:54.487,0.0837488,5.17597,12.4469,-0.356048,-0.106364,-0.171114,0
2024-12-11 19:36:54.490,0.138784,5.18555,12.5856,-0.37254,-0.0947577,-0.18272,0
2024-12-11 19:36:54.492,0.200997,5.18315,12.7367,-0.389644,-0.0868167,-0.194326,0
2024-12-11 19:36:54.495,0.272782,5.18076,12.897,-0.423241,-0.0800973,-0.221203,0
2024-12-11 19:36:54.497,0.320937,5.18794,13.0549,-0.423241,-0.0800973,-0.221203,0
2024-12-11 19:36:54.500,0.366401,5.19033,13.2347,-0.440345,-0.0794865,-0.23342,0
2024-12-11 19:36:54.501,0.426222,5.1999,13.4429,-0.455005,-0.0843733,-0.243194,0
2024-12-11 19:36:54.504,0.488435,5.19751,13.6487,-0.469054,-0.0886492,-0.257854,0
2024-12-11 19:36:54.507,0.565005,5.19033,13.8643,-0.484936,-0.0984228,-0.277401,0
2024-12-11 19:36:54.508,0.632004,5.18315,14.0964,-0.484936,-0.0984228,-0.277401,0
2024-12-11 19:36:54.512,0.687039,5.17358,14.3264,-0.487991,-0.107585,-0.299392,0
2024-12-11 19:36:54.513,0.74686,5.14487,14.5753,-0.487991,-0.107585,-0.299392,0
2024-12-11 19:36:54.515,0.80668,5.08505,14.8457,-0.478217,-0.114305,-0.310387,0
2024-12-11 19:36:54.519,0.847657,5.00369,15.1044,-0.452561,-0.127743,-0.331156,0
2024-12-11 19:36:54.521,0.878764,4.93669,15.3341,-0.432404,-0.138128,-0.339707,0
2024-12-11 19:36:54.524,0.907478,4.86969,15.5641,-0.432404,-0.138128,-0.339707,0
2024-12-11 19:36:54.525,0.897907,4.78116,15.7938,-0.405526,-0.149734,-0.34887,0
2024-12-11 19:36:54.528,0.854836,4.69233,15.9999,-0.373151,-0.160118,-0.356811,0
2024-12-11 19:36:54.532,0.708575,4.47697,16.2799,-0.305347,-0.180276,-0.36353,0
2024-12-11 19:36:54.532,0.708575,4.47697,16.2799,-0.305347,-0.180276,-0.36353,0
2024-12-11 19:36:54.535,0.615255,4.38844,16.3756,-0.269918,-0.185774,-0.361698,0
2024-12-11 19:36:54.537,0.54347,4.29272,16.4593,-0.231435,-0.191882,-0.358033,0
2024-12-11 19:36:54.539,0.502792,4.19671,16.5407,-0.194173,-0.199823,-0.347038,1
2024-12-11 19:36:54.541,0.490828,4.11296,16.6199,-0.14836,-0.20471,-0.337875,0
2024-12-11 19:36:54.545,0.502792,4.05075,16.6846,-0.102546,-0.210819,-0.328101,0
2024-12-11 19:36:54.549,0.476471,3.97418,16.7181,-0.00358873,-0.218149,-0.304889,0
2024-12-11 19:36:54.551,0.438186,3.94068,16.663,0.0501658,-0.216927,-0.292672,0
2024-12-11 19:36:54.554,0.395115,3.95982,16.5769,0.160729,-0.190661,-0.268238,0
2024-12-11 19:36:54.556,0.335294,4.0005,16.4545,0.160729,-0.190661,-0.268238,0
2024-12-11 19:36:54.558,0.270389,4.05314,16.2823,0.215095,-0.171724,-0.252967,0
2024-12-11 19:36:54.563,0.212961,4.11775,15.8608,0.322604,-0.123468,-0.219981,0
2024-12-11 19:36:54.565,0.117248,4.09861,15.5952,0.371471,-0.104531,-0.202267,0
2024-12-11 19:36:54.565,0.117248,4.09861,15.5952,0.371471,-0.104531,-0.202267,0
2024-12-11 19:36:54.566,0.153141,4.13928,15.8608,0.371471,-0.104531,-0.202267,0
2024-12-11 19:36:54.571,0.114855,3.9335,14.8122,0.452714,-0.104531,-0.171114,0
2024-12-11 19:36:54.572,0.105284,3.78275,14.2567,0.470429,-0.132019,-0.15401,0
2024-12-11 19:36:54.575,0.153141,3.60299,13.7662,0.476537,-0.162562,-0.141793,0
2024-12-11 19:36:54.575,0.153141,3.60299,13.7662,0.476537,-0.162562,-0.141793,0
2024-12-11 19:36:54.577,0.272782,3.45464,13.4237,0.480202,-0.19005,-0.134463,0
2024-12-11 19:36:54.580,0.442971,3.34218,13.206,0.480202,-0.19005,-0.134463,0
2024-12-11 19:36:54.581,0.60329,3.24646,13.0143,0.480813,-0.234642,-0.143625,0
2024-12-11 19:36:54.585,0.718146,3.134,12.842,0.47165,-0.286564,-0.172946,0
2024-12-11 19:36:54.589,0.777966,2.87049,12.5809,0.461266,-0.318939,-0.197991,0
2024-12-11 19:36:54.589,0.777966,2.87049,12.5809,0.461266,-0.318939,-0.197991,0
2024-12-11 19:36:54.591,0.689432,2.7676,12.4899,0.446606,-0.352535,-0.221203,0
2024-12-11 19:36:54.594,0.557827,2.65274,12.4277,0.408733,-0.411787,-0.263962,0
2024-12-11 19:36:54.597,0.474078,2.5331,12.3583,0.386132,-0.430724,-0.28412,0
2024-12-11 19:36:54.601,0.380758,2.27199,12.1621,0.337264,-0.417285,-0.315274,0
2024-12-11 19:36:54.601,0.380758,2.27199,12.1621,0.337264,-0.417285,-0.315274,0
2024-12-11 19:36:54.603,0.299402,2.12602,12.0712,0.337264,-0.417285,-0.315274,0
2024-12-11 19:36:54.605,0.212961,1.9681,12.0159,0.307333,-0.388575,-0.328712,0
2024-12-11 19:36:54.608,0.114855,1.77876,11.9848,0.281066,-0.354368,-0.338486,0
2024-12-11 19:36:54.610,-0.0239282,1.57537,11.9632,0.281066,-0.354368,-0.338486,0
2024-12-11 19:36:54.614,-0.191426,1.17069,12.1382,0.199823,-0.22609,-0.343983,0
2024-12-11 19:36:54.614,-0.191426,1.17069,12.1382,0.199823,-0.22609,-0.343983,0
2024-12-11 19:36:54.619,-0.138784,0.737288,12.4277,0.163783,-0.130187,-0.339097,0
2024-12-11 19:36:54.620,-0.138784,0.737288,12.4277,0.163783,-0.130187,-0.339097,0
2024-12-11 19:36:54.627,-0.00478565,0.155533,13.0334,0.194326,0.110487,-0.338486,0
2024-12-11 19:36:54.630,0.00717847,-0.0167498,13.1411,0.214484,0.185621,-0.332377,0
2024-12-11 19:36:54.631,0.0598206,-0.184247,13.2275,0.214484,0.185621,-0.332377,0
2024-12-11 19:36:54.631,0.0598206,-0.184247,13.2275,0.214484,0.185621,-0.332377,0
2024-12-11 19:36:54.631,0.0598206,-0.184247,13.2275,0.214484,0.185621,-0.332377,0
2024-12-11 19:36:54.633,0.148355,-0.344866,13.2754,0.241361,0.268086,-0.325047,0
2024-12-11 19:36:54.639,0.969691,-0.160319,13.1004,0.343983,0.475163,-0.350092,0
2024-12-11 19:36:54.640,1.07498,-0.325723,12.9401,0.343983,0.475163,-0.350092,0
2024-12-11 19:36:54.645,0.909871,-0.562612,12.7678,0.429502,0.607717,-0.369639,0
2024-12-11 19:36:54.645,0.909871,-0.562612,12.7678,0.429502,0.607717,-0.369639,0
2024-12-11 19:36:54.645,0.909871,-0.562612,12.7678,0.429502,0.607717,-0.369639,0
2024-12-11 19:36:54.652,0.445364,-0.651147,12.2937,0.429502,0.607717,-0.369639,0
2024-12-11 19:36:54.652,0.445364,-0.651147,12.2937,0.429502,0.607717,-0.369639,0
2024-12-11 19:36:54.655,0.292223,-0.675075,12.1047,0.618865,0.755542,-0.3562,0
2024-12-11 19:36:54.663,-0.119641,-0.775574,11.3934,0.819223,0.685294,-0.297559,0
2024-12-11 19:36:54.663,-0.119641,-0.775574,11.3934,0.819223,0.685294,-0.297559,0
2024-12-11 19:36:54.665,-0.22014,-0.830609,11.1015,0.864425,0.649865,-0.282288,0
2024-12-11 19:36:54.667,-0.308973,-0.854836,10.8093,0.910239,0.604052,-0.26946,0
2024-12-11 19:36:54.669,-0.375972,-0.857229,10.4934,0.910239,0.604052,-0.26946,0
2024-12-11 19:36:54.671,-0.395115,-0.854836,10.1773,0.953609,0.549686,-0.257854,0
2024-12-11 19:36:54.671,-0.395115,-0.854836,10.1773,0.953609,0.549686,-0.257854,0
2024-12-11 19:36:54.676,-0.337687,-0.787538,9.57877,1.0263,0.420187,-0.245026,0
2024-12-11 19:36:54.676,-0.337687,-0.787538,9.57877,1.0263,0.420187,-0.245026,0
2024-12-11 19:36:54.678,-0.270389,-0.71336,9.25544,1.05745,0.345663,-0.245026,0
2024-12-11 19:36:54.680,-0.205783,-0.612862,8.94437,1.08311,0.26381,-0.248691,0
2024-12-11 19:36:54.683,-0.148355,-0.512363,8.63061,1.10938,0.17768,-0.257243,0
2024-12-11 19:36:54.684,-0.148355,-0.512363,8.63061,1.1277,0.0915507,-0.268849,0
2024-12-11 19:36:54.685,-0.107677,-0.423829,8.31476,1.1277,0.0915507,-0.268849,0
2024-12-11 19:36:54.687,-0.0957129,-0.311366,8.02014,1.13931,0.00419957,-0.28412,0
2024-12-11 19:36:54.690,-0.0909273,-0.193819,7.75933,1.1448,-0.0825407,-0.301224,0
2024-12-11 19:36:54.692,-0.11007,-0.0861416,7.5341,1.14541,-0.167449,-0.318939,0
2024-12-11 19:36:54.695,-0.162712,0.0215354,7.31396,1.14541,-0.243804,-0.336042,0
2024-12-11 19:36:54.697,-0.212961,0.122034,7.09143,1.1387,-0.318939,-0.354368,0
2024-12-11 19:36:54.700,-0.256032,0.198604,6.88295,1.11182,-0.451492,-0.387964,0
2024-12-11 19:36:54.705,-0.342473,0.287438,6.50489,1.0941,-0.50708,-0.39957,0
2024-12-11 19:36:54.705,-0.342473,0.287438,6.50489,1.0941,-0.50708,-0.39957,0
2024-12-11 19:36:54.707,-0.352044,0.299402,6.3347,1.04646,-0.595652,-0.427669,0
2024-12-11 19:36:54.712,-0.371187,0.299402,6.17917,0.986595,-0.664067,-0.444773,0
2024-12-11 19:36:54.713,-0.373579,0.285045,6.02363,0.986595,-0.664067,-0.444773,0
2024-12-11 19:36:54.713,-0.364008,0.253639,5.87498,0.986595,-0.664067,-0.444773,0
2024-12-11 19:36:54.718,-0.344866,0.229711,5.63809,0.914515,-0.703772,-0.453936,0
2024-12-11 19:36:54.718,-0.328116,0.212961,5.63809,0.914515,-0.703772,-0.453936,0
2024-12-11 19:36:54.723,-0.263211,0.160319,5.4347,0.83205,-0.719654,-0.452103,0
2024-12-11 19:36:54.723,-0.263211,0.160319,5.4347,0.83205,-0.719654,-0.452103,0
2024-12-11 19:36:54.725,-0.224925,0.133998,5.33899,0.83205,-0.719654,-0.452103,0
2024-12-11 19:36:54.730,-0.18664,0.160319,5.2334,0.678117,-0.706827,-0.433167,0
2024-12-11 19:36:54.730,-0.136391,0.200997,5.15205,0.678117,-0.706827,-0.433167,0
2024-12-11 19:36:54.733,-0.081356,0.222533,5.12094,0.561445,-0.668343,-0.411177,0
2024-12-11 19:36:54.735,-0.0382852,0.236889,5.10419,0.561445,-0.668343,-0.411177,0
2024-12-11 19:36:54.738,0.00957129,0.251246,5.07548,0.43561,-0.599317,-0.383688,0
2024-12-11 19:36:54.739,0.0765703,0.299402,5.07308,0.43561,-0.599317,-0.383688,0
2024-12-11 19:36:54.743,0.181855,0.359223,5.09701,0.366585,-0.55778,-0.370861,0
2024-12-11 19:36:54.744,0.297009,0.404686,5.12094,0.29817,-0.508301,-0.357422,0
2024-12-11 19:36:54.746,0.3999,0.454935,5.16162,0.227312,-0.453325,-0.346427,0
2024-12-11 19:36:54.750,0.488435,0.519542,5.20947,0.0874275,-0.317106,-0.324436,0
2024-12-11 19:36:54.751,0.553041,0.591326,5.2669,0.0874275,-0.317106,-0.324436,0
2024-12-11 19:36:54.757,0.703789,0.696611,5.38924,-0.119039,-0.0800973,-0.298781,0
2024-12-11 19:36:54.759,0.789931,0.744467,5.48495,-0.119039,-0.0800973,-0.298781,0
2024-12-11 19:36:54.759,0.703789,0.744467,5.48495,-0.119039,-0.0800973,-0.298781,0
2024-12-11 19:36:54.763,0.926621,0.862014,5.72184,-0.252814,0.086664,-0.287785,0
2024-12-11 19:36:54.764,0.926621,0.862014,5.72184,-0.313899,0.167296,-0.282288,0
2024-12-11 19:36:54.765,0.948156,0.881157,5.85584,-0.313899,0.167296,-0.282288,0
2024-12-11 19:36:54.768,0.921835,0.907478,6.01645,-0.313899,0.167296,-0.282288,0
2024-12-11 19:36:54.770,0.857229,0.94337,6.18634,-0.426906,0.331614,-0.272514,0
2024-12-11 19:36:54.773,0.766002,0.964906,6.3682,-0.518533,0.481882,-0.259076,0
2024-12-11 19:36:54.775,0.646361,0.991227,6.58864,-0.518533,0.481882,-0.259076,0
2024-12-11 19:36:54.778,0.50997,1.02233,6.78963,-0.585726,0.599165,-0.24075,0
2024-12-11 19:36:54.783,0.380758,1.06301,7.12254,-0.623599,0.686516,-0.219981,0
2024-12-11 19:36:54.784,0.287438,1.1683,7.31875,-0.623599,0.686516,-0.219981,0
2024-12-11 19:36:54.786,0.0622134,1.22572,7.48385,-0.63154,0.717669,-0.209597,0
2024-12-11 19:36:54.786,0.0622134,1.22572,7.48385,-0.63154,0.717669,-0.209597,0
2024-12-11 19:36:54.789,-0.0478565,1.28554,7.63968,-0.633372,0.74027,-0.201656,0
2024-12-11 19:36:54.793,-0.272782,1.37408,7.95075,-0.616269,0.763483,-0.176611,0
2024-12-11 19:36:54.794,-0.272782,1.37408,7.95075,-0.616269,0.763483,-0.176611,0
2024-12-11 19:36:54.798,-0.493221,1.4677,8.2023,-0.571066,0.760428,-0.157675,0
2024-12-11 19:36:54.798,-0.493221,1.4677,8.2023,-0.571066,0.760428,-0.157675,0
2024-12-11 19:36:54.801,-0.591326,1.51316,8.32433,-0.544189,0.750655,-0.14668,0
2024-12-11 19:36:54.804,-0.689432,1.55384,8.42483,-0.472109,0.712782,-0.124078,0
2024-12-11 19:36:54.808,-0.873978,1.65912,8.54208,-0.432404,0.687127,-0.11064,0
2024-12-11 19:36:54.809,-0.873978,1.65912,8.54208,-0.389033,0.657195,-0.0978119,0
2024-12-11 19:36:54.812,-0.948156,1.72852,8.65454,-0.389033,0.657195,-0.0978119,0
2024-12-11 19:36:54.815,-1.06062,1.85773,8.67847,-0.340166,0.62482,-0.0684913,0
2024-12-11 19:36:54.816,-1.06062,1.85773,8.67847,-0.237543,0.550908,-0.0538309,0
2024-12-11 19:36:54.819,-1.12044,1.95344,8.67608,-0.186843,0.511203,-0.0367272,0
2024-12-11 19:36:54.822,-1.11805,2.02074,8.64018,-0.134921,0.472109,-0.0232886,0
2024-12-11 19:36:54.826,-1.12283,2.08295,8.59951,-0.0255792,0.392088,0.00297788,0
2024-12-11 19:36:54.826,-1.11326,2.12842,8.54686,-0.0255792,0.392088,0.00297788,0
2024-12-11 19:36:54.830,-1.07737,2.16192,8.4679,0.0257319,0.349328,0.0170274,0
2024-12-11 19:36:54.832,-1.02233,2.20259,8.38176,0.127133,0.268696,0.0365745,0
2024-12-11 19:36:54.834,-0.962513,2.24327,8.29322,0.127133,0.268696,0.0365745,0
2024-12-11 19:36:54.836,-0.895514,2.27677,8.17358,0.172335,0.230824,0.042683,0
2024-12-11 19:36:54.836,-0.895514,2.27677,8.17358,0.172335,0.230824,0.042683,0
2024-12-11 19:36:54.841,-0.756431,2.34856,7.93879,0.252356,0.15569,0.0500131,0
2024-12-11 19:36:54.842,-0.756431,2.34856,7.93879,0.252356,0.15569,0.0500131,0
2024-12-11 19:36:54.843,-0.689432,2.4012,7.79522,0.252356,0.15569,0.0500131,0
2024-12-11 19:36:54.846,-0.632004,2.44427,7.63729,0.347038,0.0713928,0.0481806,0
2024-12-11 19:36:54.850,-0.579362,2.52592,7.31875,0.347038,0.0713928,0.0481806,0
2024-12-11 19:36:54.853,-0.555434,2.59053,7.17278,0.401403,0.0182491,0.0329094,0
2024-12-11 19:36:54.855,-0.52672,2.63839,7.01964,0.401403,0.0182491,0.0329094,0
2024-12-11 19:36:54.855,-0.52672,2.63839,7.01964,0.401403,0.0182491,0.0329094,0
2024-12-11 19:36:54.859,-0.476471,2.70299,6.73939,0.414231,-0.0019089,0.022525,0
2024-12-11 19:36:54.860,-0.476471,2.70299,6.73939,0.414231,-0.0019089,0.022525,0
2024-12-11 19:36:54.862,-0.457328,2.74606,6.62214,0.413009,-0.00862822,0.0158057,0
2024-12-11 19:36:54.864,-0.438186,2.79153,6.52642,0.408122,-0.0171801,0.010308,0
2024-12-11 19:36:54.866,-0.414257,2.83699,6.42563,0.400792,-0.0226777,0.00481042,0
2024-12-11 19:36:54.869,-0.409472,2.88963,6.30598,0.392851,-0.0238994,-0.00251974,0
2024-12-11 19:36:54.871,-0.397508,2.95185,6.20309,0.376969,-0.0226777,-0.0110716,0
2024-12-11 19:36:54.874,-0.375972,3.01406,6.13131,0.359255,-0.0202343,-0.0190126,0
2024-12-11 19:36:54.878,-0.366401,3.09093,6.03799,0.340929,-0.0165692,-0.0269536,0
2024-12-11 19:36:54.881,-0.352044,3.12443,6.00688,0.300002,-0.00374144,-0.0385597,0
2024-12-11 19:36:54.883,-0.332901,3.16032,5.98774,0.300002,-0.00374144,-0.0385597,0
2024-12-11 19:36:54.885,-0.292223,3.19621,5.97338,0.249913,0.0115297,-0.0526092,0
2024-12-11 19:36:54.885,-0.292223,3.19621,5.97338,0.249913,0.0115297,-0.0526092,0
2024-12-11 19:36:54.888,-0.248854,3.23211,5.9662,0.224868,0.0170274,-0.0587177,0
2024-12-11 19:36:54.890,-0.210568,3.27278,5.96142,0.198602,0.0231358,-0.0642153,0
2024-12-11 19:36:54.892,-0.181855,3.30868,5.9662,0.169281,0.0268009,-0.0721563,0
2024-12-11 19:36:54.896,-0.153141,3.33021,5.98774,0.143015,0.0286335,-0.0800973,0
2024-12-11 19:36:54.897,-0.119641,3.34935,6.02363,0.116137,0.0255792,-0.0898709,0
2024-12-11 19:36:54.900,-0.105284,3.38525,6.05952,0.0880384,0.0213033,-0.0953685,0
2024-12-11 19:36:54.902,-0.11007,3.41635,6.10738,0.0605502,0.0188599,-0.102699,0
2024-12-11 19:36:54.906,-0.124427,3.45224,6.17677,0.00618483,0.00481042,-0.114305,0
2024-12-11 19:36:54.906,-0.145962,3.5001,6.26531,0.00618483,0.00481042,-0.114305,0
2024-12-11 19:36:54.909,-0.181855,3.55274,6.34906,-0.0194708,-0.00374144,-0.116748,0
2024-12-11 19:36:54.911,-0.212961,3.59581,6.45464,-0.0432938,-0.0104608,-0.11797,0
2024-12-11 19:36:54.916,-0.215354,3.66551,6.70828,-0.0872748,-0.0177909,-0.117359,0
2024-12-11 19:36:54.916,-0.215354,3.66551,6.70828,-0.0872748,-0.0177909,-0.117359,0
2024-12-11 19:36:54.918,-0.208176,3.699,6.83031,-0.103768,-0.021456,-0.114916,0
2024-12-11 19:36:54.922,-0.181855,3.73968,6.95235,-0.122093,-0.0220669,-0.111251,0
2024-12-11 19:36:54.923,-0.157926,3.77797,7.08425,-0.136143,-0.0190126,-0.109418,0
2024-12-11 19:36:54.925,-0.150748,3.78993,7.25893,-0.147138,-0.0147367,-0.105142,0
2024-12-11 19:36:54.930,-0.105284,3.82343,7.53889,-0.166074,0.000534491,-0.0947577,0
2024-12-11 19:36:54.932,-0.102891,3.8354,7.69233,-0.174626,0.00725381,-0.0892601,0
2024-12-11 19:36:54.935,-0.0981057,3.84018,7.8335,-0.181345,0.0176382,-0.081319,0
2024-12-11 19:36:54.935,-0.0981057,3.84018,7.8335,-0.181345,0.0176382,-0.081319,0
2024-12-11 19:36:54.937,-0.0981057,3.84497,7.94836,-0.18501,0.0261901,-0.0770431,0
2024-12-11 19:36:54.939,-0.117248,3.86172,8.06321,-0.189286,0.0359636,-0.0721563,0
2024-12-11 19:36:54.942,-0.136391,3.88325,8.19273,-0.194784,0.046348,-0.0666587,0
2024-12-11 19:36:54.944,-0.150748,3.90239,8.3339,-0.198449,0.0512348,-0.0605502,0
2024-12-11 19:36:54.948,-0.177069,3.91914,8.48465,-0.202114,0.0567324,-0.0477224,0
2024-12-11 19:36:54.950,-0.212961,3.94307,8.62822,-0.202114,0.0567324,-0.0477224,0
2024-12-11 19:36:54.951,-0.258425,3.99332,8.76012,-0.204557,0.0561216,-0.0410031,0
2024-12-11 19:36:54.954,-0.297009,4.02682,8.91087,-0.205168,0.0524565,-0.0348946,0
2024-12-11 19:36:54.956,-0.325723,4.05314,9.07598,-0.203947,0.0494023,-0.0263428,0
2024-12-11 19:36:54.958,-0.349651,4.08903,9.23869,-0.201503,0.0420721,-0.0184018,0
2024-12-11 19:36:54.962,-0.364008,4.12971,9.4017,-0.19173,0.0371853,-0.00313059,0
2024-12-11 19:36:54.963,-0.368794,4.15364,9.5692,-0.19173,0.0371853,-0.00313059,0
2024-12-11 19:36:54.965,-0.385544,4.15843,9.7343,-0.183789,0.0365745,0.00236703,0
2024-12-11 19:36:54.970,-0.411865,4.16561,9.96192,-0.166074,0.0329094,0.0176382,0
2024-12-11 19:36:54.970,-0.411865,4.16561,9.96192,-0.166074,0.0329094,0.0176382,0
2024-12-11 19:36:54.975,-0.428614,4.16082,10.1366,-0.14836,0.0329094,0.030466,0
2024-12-11 19:36:54.975,-0.428614,4.16082,10.1366,-0.14836,0.0329094,0.030466,0
2024-12-11 19:36:54.978,-0.404686,4.1345,10.1988,-0.139197,0.0347419,0.0359636,0
2024-12-11 19:36:54.979,-0.387936,4.11057,10.2395,-0.134921,0.0377962,0.042683,0
2024-12-11 19:36:54.982,-0.387936,4.11057,10.2873,-0.13431,0.038407,0.0500131,0
2024-12-11 19:36:54.985,-0.385544,4.10818,10.328,-0.138586,0.0451263,0.0616192,0
2024-12-11 19:36:54.988,-0.366401,4.09861,10.3424,-0.138586,0.0451263,0.0616192,0
2024-12-11 19:36:54.991,-0.335294,4.01486,10.4073,-0.156301,0.0616192,0.0695602,0
2024-12-11 19:36:54.994,-0.267996,4.00289,10.4336,-0.172183,0.0768904,0.0720036,0
2024-12-11 19:36:54.994,-0.267996,4.00289,10.4336,-0.172183,0.0768904,0.0720036,0
2024-12-11 19:36:54.998,-0.229711,3.97657,10.4695,-0.216164,0.106211,0.0732253,0
2024-12-11 19:36:54.998,-0.212961,3.92872,10.5269,-0.216164,0.106211,0.0732253,0
2024-12-11 19:36:55.003,-0.217747,3.84736,10.6801,-0.274194,0.137975,0.0713928,0
2024-12-11 19:36:55.003,-0.260818,3.84736,10.6801,-0.274194,0.137975,0.0713928,0
2024-12-11 19:36:55.005,-0.34008,3.82343,10.8069,-0.305347,0.150192,0.0726145,0
2024-12-11 19:36:55.008,-0.411865,3.79232,10.9675,-0.338944,0.161187,0.0732253,0
2024-12-11 19:36:55.011,-0.488435,3.78275,11.1661,-0.373762,0.168517,0.0738362,0
2024-12-11 19:36:55.012,-0.553041,3.78036,11.3839,-0.40858,0.174015,0.074447,0
2024-12-11 19:36:55.015,-0.608076,3.77797,11.645,-0.440955,0.178291,0.0775012,0
2024-12-11 19:36:55.017,-0.663111,3.77797,11.9249,-0.472719,0.17768,0.0781121,0
2024-12-11 19:36:55.021,-0.699003,3.7995,12.2243,-0.495932,0.17768,0.0775012,0
2024-12-11 19:36:55.027,-0.828216,3.86411,13.2969,-0.533193,0.175237,0.0793338,0
2024-12-11 19:36:55.029,-0.885943,3.90239,13.6558,-0.542356,0.167296,0.0768904,0
2024-12-11 19:36:55.030,-0.885943,3.90239,13.6558,-0.542356,0.167296,0.0768904,0
2024-12-11 19:36:55.034,-1.06301,3.93111,14.3384,-0.5167,0.156301,0.0750579,0
2024-12-11 19:36:55.036,-1.13958,3.94307,14.6447,-0.5167,0.156301,0.0750579,0
2024-12-11 19:36:55.038,-1.13958,3.93829,14.9225,-0.466,0.14164,0.0768904,0
2024-12-11 19:36:55.039,-1.21615,3.93829,14.9225,-0.466,0.14164,0.0768904,0
2024-12-11 19:36:55.043,-1.39801,4.01486,15.3293,-0.388422,0.131867,0.0872748,0
2024-12-11 19:36:55.043,-1.39801,4.01486,15.3293,-0.388422,0.131867,0.0872748,0
2024-12-11 19:36:55.045,-1.48684,4.12014,15.4493,-0.34322,0.131256,0.094605,0
2024-12-11 19:36:55.048,-1.57059,4.25444,15.4947,-0.291909,0.131256,0.104379,0
2024-12-11 19:36:55.050,-1.62323,4.42433,15.4852,-0.238765,0.137364,0.114763,0
2024-12-11 19:36:55.051,-1.62323,4.42433,15.4852,-0.238765,0.137364,0.114763,0
2024-12-11 19:36:55.053,-1.62802,4.58465,15.4421,-0.181956,0.139197,0.128812,0
2024-12-11 19:36:55.055,-1.60409,4.71147,15.3413,-0.127591,0.137975,0.140419,0
2024-12-11 19:36:55.057,-1.57537,4.82184,15.1953,-0.0750579,0.133088,0.151414,0
2024-12-11 19:36:55.060,-1.55145,4.88405,15.023,-0.0261901,0.117817,0.163631,0
2024-12-11 19:36:55.062,-1.55145,4.89601,14.8193,0.0147367,0.0909399,0.171572,0
2024-12-11 19:36:55.064,-1.57059,4.9008,14.5872,0.0519984,0.0579541,0.179513,0
2024-12-11 19:36:55.068,-1.60409,4.86969,14.324,0.0831516,0.0109189,0.186843,0
2024-12-11 19:36:55.069,-1.66391,4.81466,14.0749,0.106975,-0.0440574,0.192341,0
2024-12-11 19:36:55.072,-1.70937,4.74736,13.85,0.122246,-0.109418,0.19173,0
2024-12-11 19:36:55.074,-1.71655,4.65165,13.6654,0.130187,-0.186385,0.195395,0
2024-12-11 19:36:55.077,-1.68544,4.50808,13.5362,0.121024,-0.358644,0.19173,0
2024-12-11 19:36:55.078,-1.61127,4.29033,13.4548,0.121024,-0.358644,0.19173,0
2024-12-11 19:36:55.081,-1.62084,4.06032,13.4644,0.106364,-0.455768,0.188065,0
2024-12-11 19:36:55.084,-1.74287,3.85454,13.5458,0.0550526,-0.666511,0.18501,0
2024-12-11 19:36:55.085,-1.85773,3.64367,13.6702,0.0550526,-0.666511,0.18501,0
2024-12-11 19:36:55.088,-1.94865,3.42592,13.8236,0.0153475,-0.768522,0.182567,0
2024-12-11 19:36:55.090,-2.00638,3.21296,14.0079,-0.0261901,-0.854652,0.188065,0
2024-12-11 19:36:55.094,-2.05902,3.02124,14.2208,-0.108654,-0.986595,0.200892,0
2024-12-11 19:36:55.095,-2.10688,2.86092,14.458,-0.108654,-0.986595,0.200892,0
2024-12-11 19:36:55.097,-2.11167,2.73888,14.7308,-0.154468,-1.03119,0.21372,0
2024-12-11 19:36:55.100,-2.08295,2.63121,15.0111,-0.19906,-1.05501,0.224715,0
2024-12-11 19:36:55.103,-2.0351,2.50409,15.3126,-0.269918,-1.04401,0.251593,0
2024-12-11 19:36:55.104,-1.9681,2.3677,15.6287,-0.269918,-1.04401,0.251593,0
2024-12-11 19:36:55.107,-1.86969,2.21695,15.9398,-0.295574,-1.01347,0.263199,0
2024-12-11 19:36:55.109,-1.74048,2.07817,16.3014,-0.315121,-0.962772,0.279692,0
2024-12-11 19:36:55.111,-1.60409,1.95583,16.6869,-0.326116,-0.900465,0.291298,0
2024-12-11 19:36:55.115,-1.47727,1.84337,17.0363,-0.328559,-0.818001,0.302904,0
2024-12-11 19:36:55.116,-1.30469,1.79312,17.2304,-0.327949,-0.725763,0.318786,0
2024-12-11 19:36:55.118,-1.16112,1.72134,17.2902,-0.315732,-0.60115,0.333446,0
2024-12-11 19:36:55.121,-1.0654,1.57059,17.4912,-0.297406,-0.46432,0.348107,0
2024-12-11 19:36:55.124,-0.967299,1.41027,17.738,-0.273583,-0.351924,0.360934,0
2024-12-11 19:36:55.126,-0.869193,1.22812,17.8241,-0.241819,-0.246859,0.370708,0
2024-12-11 19:36:55.129,-0.754038,1.0319,17.8433,-0.157522,-0.0465007,0.389033,1
2024-12-11 19:36:55.130,-0.62004,0.878764,17.8361,-0.157522,-0.0465007,0.389033,0
2024-12-11 19:36:55.134,-0.459721,0.732503,17.7428,-0.0432938,0.157522,0.404305,0
2024-12-11 19:36:55.136,-0.299402,0.617647,17.5558,0.0269536,0.26381,0.407359,0
2024-12-11 19:36:55.138,-0.181855,0.555434,17.2783,0.0959794,0.367654,0.414078,0
2024-12-11 19:36:55.140,-0.136391,0.500399,16.9334,0.0959794,0.367654,0.414078,0
2024-12-11 19:36:55.143,-0.196211,0.469292,16.5407,0.2548,0.549686,0.432404,0
2024-12-11 19:36:55.144,-0.330509,0.457328,16.1124,0.2548,0.549686,0.432404,0
2024-12-11 19:36:55.147,-0.521934,0.459721,15.6574,0.332377,0.621155,0.445842,0
2024-12-11 19:36:55.149,-0.74686,0.476471,15.2025,0.405679,0.682851,0.463557,0
2024-12-11 19:36:55.151,-0.967299,0.512363,14.7595,0.480202,0.726832,0.484936,0
2024-12-11 19:36:55.155,-1.20897,0.581755,14.2711,0.621308,0.781197,0.533193,0
2024-12-11 19:36:55.157,-1.43181,0.658325,13.7734,0.689112,0.788527,0.560071,0
2024-12-11 19:36:55.160,-1.57537,0.701396,13.3089,0.749586,0.784252,0.58817,0
2024-12-11 19:36:55.161,-1.65194,0.725324,12.83,0.749586,0.784252,0.58817,0
2024-12-11 19:36:55.163,-1.66391,0.734896,12.3224,0.806395,0.770202,0.612603,0
2024-12-11 19:36:55.166,-1.48684,0.612862,11.901,0.857706,0.743936,0.63154,0
2024-12-11 19:36:55.168,-1.40279,0.548256,11.5062,0.857706,0.743936,0.63154,0
2024-12-11 19:36:55.170,-1.63998,0.677468,10.8954,0.950555,0.666358,0.649254,0
2024-12-11 19:36:55.173,-1.83141,0.816252,10.2802,0.985373,0.635816,0.658417,0
2024-12-11 19:36:55.175,-1.86251,0.931406,9.87578,1.0153,0.599776,0.670634,0
2024-12-11 19:36:55.177,-1.75484,0.933799,9.54766,1.03852,0.546632,0.677353,0
2024-12-11 19:36:55.181,-1.55145,0.830609,9.31316,1.06723,0.409802,0.668191,0
2024-12-11 19:36:55.183,-1.5682,0.847657,8.99941,1.07639,0.358491,0.66086,0
2024-12-11 19:36:55.184,-1.83619,1.02712,8.43201,1.07639,0.358491,0.66086,0
2024-12-11 19:36:55.188,-1.99442,1.18983,7.91964,1.05867,0.279081,0.659639,0
2024-12-11 19:36:55.189,-1.97288,1.29512,7.61576,1.05867,0.279081,0.659639,0
2024-12-11 19:36:55.191,-1.85055,1.28554,7.38575,1.03913,0.229602,0.655363,0
2024-12-11 19:36:55.194,-1.64716,1.15394,7.31396,1.01225,0.164242,0.643146,0
2024-12-11 19:36:55.196,-1.5993,1.11326,7.15604,0.98354,0.0939941,0.626042,0
2024-12-11 19:36:55.199,-1.76201,1.22094,6.65324,0.9475,0.0475697,0.609549,0
2024-12-11 19:36:55.202,-1.86491,1.34297,6.21267,0.901076,0.0329094,0.597332,0
2024-12-11 19:36:55.203,-1.81466,1.42463,6.02363,0.850987,0.0194708,0.584504,0
2024-12-11 19:36:55.206,-1.70219,1.4677,5.87498,0.793567,-0.00435229,0.571677,0
2024-12-11 19:36:55.208,-1.59212,1.49402,5.71227,0.732482,-0.0300079,0.557016,0
2024-12-11 19:36:55.211,-1.48445,1.51555,5.59023,0.597485,-0.073378,0.518533,0
2024-12-11 19:36:55.213,-1.37169,1.52752,5.4682,0.597485,-0.073378,0.518533,0
2024-12-11 19:36:55.215,-1.23051,1.51316,5.3677,0.526627,-0.0849841,0.490434,0
2024-12-11 19:36:55.218,-1.07019,1.48445,5.31715,0.452103,-0.0929251,0.461724,0
2024-12-11 19:36:55.220,-0.890728,1.44855,5.29562,0.452103,-0.0929251,0.461724,0
2024-12-11 19:36:55.222,-0.687039,1.4004,5.3004,0.301224,-0.0996445,0.393309,0
2024-12-11 19:36:55.224,-0.488435,1.35254,5.33899,0.229144,-0.0984228,0.351772,0
2024-12-11 19:36:55.227,-0.320937,1.30947,5.39641,0.160729,-0.0874275,0.310845,0
2024-12-11 19:36:55.230,-0.191426,1.27837,5.44906,0.0367272,-0.0513875,0.225937,0
2024-12-11 19:36:55.233,-0.0885344,1.24965,5.51605,-0.0243575,-0.0238994,0.18501,0
2024-12-11 19:36:55.234,-0.0119641,1.2329,5.60937,-0.0243575,-0.0238994,0.18501,0
2024-12-11 19:36:55.237,0.0287139,1.23051,5.70269,-0.0738362,0.00175619,0.146527,0
2024-12-11 19:36:55.240,0.0502493,1.21137,5.79601,-0.166074,0.0683385,0.0799446,0
2024-12-11 19:36:55.241,0.0502493,1.19222,5.87498,-0.166074,0.0683385,0.0799446,0
2024-12-11 19:36:55.243,0.026321,1.17069,5.9327,-0.209444,0.0982701,0.0524565,0
2024-12-11 19:36:55.246,0.00239282,1.16112,5.99492,-0.243652,0.137364,0.0286335,0
2024-12-11 19:36:55.249,-0.0191426,1.16112,6.06192,-0.296795,0.204557,-0.00984991,0
2024-12-11 19:36:55.250,-0.0239282,1.14437,6.12174,-0.296795,0.204557,-0.00984991,0
2024-12-11 19:36:55.254,-0.0167498,1.13719,6.15524,-0.318786,0.239376,-0.0257319,0
2024-12-11 19:36:55.255,-0.0167498,1.1324,6.1672,-0.3365,0.27114,-0.0385597,0
2024-12-11 19:36:55.257,-0.0382852,1.1324,6.17677,-0.347496,0.302293,-0.0507767,0
2024-12-11 19:36:55.261,-0.0622134,1.1348,6.2007,-0.368265,0.359713,-0.0660479,0
2024-12-11 19:36:55.264,-0.131605,1.20419,6.18395,-0.368265,0.359713,-0.0660479,0
2024-12-11 19:36:55.267,-0.160319,1.24726,6.17677,-0.370708,0.398807,-0.0764323,0
2024-12-11 19:36:55.268,-0.160319,1.24726,6.17677,-0.370708,0.398807,-0.0764323,0
2024-12-11 19:36:55.269,-0.210568,1.28315,6.17677,-0.367654,0.414078,-0.0782648,0
2024-12-11 19:36:55.272,-0.256032,1.32622,6.18634,-0.36521,0.424462,-0.0800973,0
2024-12-11 19:36:55.274,-0.301795,1.36929,6.17438,-0.35788,0.434236,-0.0794865,0
2024-12-11 19:36:55.276,-0.349651,1.42223,6.15524,-0.346885,0.446453,-0.0758214,0
2024-12-11 19:36:55.279,-0.366401,1.4677,6.14806,-0.3365,0.450729,-0.0684913,0
2024-12-11 19:36:55.282,-0.368794,1.50359,6.12413,-0.32184,0.453783,-0.0623828,0
2024-12-11 19:36:55.283,-0.373579,1.54666,6.08585,-0.304736,0.458059,-0.0538309,0
2024-12-11 19:36:55.286,-0.385544,1.58495,6.02842,-0.290687,0.460502,-0.0446682,0
2024-12-11 19:36:55.288,-0.402293,1.62802,5.94945,-0.276637,0.461724,-0.0348946,0
2024-12-11 19:36:55.290,-0.419043,1.66391,5.87258,-0.259534,0.461724,-0.0226777,0
2024-12-11 19:36:55.294,-0.442971,1.69023,5.80559,-0.232046,0.450729,0.00542127,0
2024-12-11 19:36:55.295,-0.464507,1.73091,5.74337,-0.232046,0.450729,0.00542127,0
2024-12-11 19:36:55.297,-0.478864,1.75723,5.69312,-0.218607,0.44401,0.0219141,0
2024-12-11 19:36:55.301,-0.471685,1.77398,5.63809,-0.19906,0.425073,0.0561216,0
2024-12-11 19:36:55.303,-0.4669,1.81466,5.58784,-0.186232,0.414078,0.0756687,0
2024-12-11 19:36:55.306,-0.476471,1.85294,5.55673,-0.186232,0.414078,0.0756687,0
2024-12-11 19:36:55.307,-0.471685,1.87926,5.54477,-0.180124,0.400029,0.0939941,0
2024-12-11 19:36:55.309,-0.45015,1.91516,5.53759,-0.172793,0.385368,0.11293,0
2024-12-11 19:36:55.313,-0.423829,1.95105,5.54716,-0.158744,0.348717,0.155079,0
2024-12-11 19:36:55.314,-0.392722,1.98724,5.57348,-0.158744,0.348717,0.155079,0
2024-12-11 19:36:55.316,-0.344866,2.0016,5.5998,-0.152635,0.332835,0.174626,0
2024-12-11 19:36:55.319,-0.292223,2.02074,5.62612,-0.144084,0.322451,0.192951,0
2024-12-11 19:36:55.322,-0.239282,2.05185,5.65723,-0.128202,0.303515,0.226548,0
2024-12-11 19:36:55.324,-0.184247,2.07817,5.69073,-0.128202,0.303515,0.226548,0
2024-12-11 19:36:55.327,-0.12682,2.10449,5.74337,-0.111098,0.302293,0.259534,0
2024-12-11 19:36:55.329,-0.066999,2.10449,5.79362,-0.0982701,0.302293,0.270529,0
2024-12-11 19:36:55.331,-0.0191426,2.09731,5.8008,-0.0982701,0.302293,0.270529,0
2024-12-11 19:36:55.334,0.0382852,2.11406,5.81516,-0.0872748,0.305958,0.283357,0
2024-12-11 19:36:55.335,0.0909273,2.13559,5.83909,-0.0829989,0.309623,0.292519,0
2024-12-11 19:36:55.338,0.102891,2.13559,5.83669,-0.0707819,0.312677,0.303515,0
2024-12-11 19:36:55.340,0.11007,2.12842,5.84626,-0.0610084,0.318175,0.310845,0
2024-12-11 19:36:55.342,0.119641,2.14517,5.86301,-0.0518457,0.322451,0.318786,0
2024-12-11 19:36:55.345,0.119641,2.18106,5.86062,-0.0432938,0.331003,0.326116,0
2024-12-11 19:36:55.347,0.107677,2.19302,5.86301,-0.0341311,0.338333,0.333446,0
2024-12-11 19:36:55.349,0.0861416,2.17627,5.87258,-0.0280226,0.345663,0.340166,0
2024-12-11 19:36:55.352,0.0526421,2.15713,5.88216,-0.0182491,0.356048,0.348107,0
2024-12-11 19:36:55.354,0.0287139,2.14756,5.89203,-0.0115297,0.362767,0.354215,0
2024-12-11 19:36:55.356,0.0167498,2.14517,5.91356,-0.00542127,0.365821,0.35788,0
2024-12-11 19:36:55.359,-0.00239282,2.13081,5.93031,-0.00175619,0.367043,0.360324,0
2024-12-11 19:36:55.362,-0.0239282,2.10688,5.93031,0.000687203,0.364599,0.363378,0
2024-12-11 19:36:55.363,-0.0430708,2.08774,5.9351,0.000687203,0.364599,0.363378,0
2024-12-11 19:36:55.366,-0.0430708,2.08535,5.93749,0.00313059,0.359102,0.362156,0
2024-12-11 19:36:55.369,-0.0478565,2.07817,5.95663,0.00313059,0.355437,0.35788,0
2024-12-11 19:36:55.370,-0.0885344,2.07577,5.98295,0.00251974,0.351161,0.352383,0
2024-12-11 19:36:55.373,-0.155533,2.09731,6.01885,7.63559e-05,0.348107,0.346885,0
2024-12-11 19:36:55.376,-0.248854,2.12124,6.07627,-0.00664296,0.342609,0.328559,0
2024-12-11 19:36:55.378,-0.352044,2.14277,6.15763,-0.00664296,0.342609,0.328559,0
2024-12-11 19:36:55.380,-0.457328,2.16909,6.24856,-0.00908635,0.3365,0.32184,0
2024-12-11 19:36:55.382,-0.579362,2.19541,6.33231,-0.014584,0.327949,0.311456,0
2024-12-11 19:36:55.386,-0.696611,2.22174,6.4328,-0.0188599,0.315732,0.301071,0
2024-12-11 19:36:55.387,-0.498006,1.97049,6.80878,-0.0219141,0.29985,0.287633,0
2024-12-11 19:36:55.389,-0.210568,1.71894,7.3331,-0.0176382,0.241208,0.25709,0
2024-12-11 19:36:55.392,-0.474078,1.89362,7.27328,-0.00481042,0.194784,0.222272,0
2024-12-11 19:36:55.395,-0.950549,2.20259,6.84467,-0.000534491,0.248538,0.1844,0
2024-12-11 19:36:55.396,-1.17787,2.47777,6.80399,-0.000534491,0.248538,0.1844,0
2024-12-11 19:36:55.400,-1.3334,2.7006,6.97627,0.00374144,0.261977,0.170961,0
2024-12-11 19:36:55.402,-1.56102,2.88006,7.04118,0.00374144,0.261977,0.170961,0
2024-12-11 19:36:55.403,-1.74766,3.00927,7.05314,-0.00725381,0.251593,0.172183,0
2024-12-11 19:36:55.406,-1.84576,3.08106,7.04836,-0.0206925,0.229602,0.175848,0
2024-12-11 19:36:55.408,-1.86251,3.10768,7.06511,-0.0329094,0.203947,0.177069,0
2024-12-11 19:36:55.411,-1.80509,3.06192,7.11296,-0.0475697,0.172793,0.175237,0
2024-12-11 19:36:55.413,-1.71177,3.00688,7.21346,-0.0671168,0.139197,0.166685,0
2024-12-11 19:36:55.415,-1.60409,2.9686,7.35225,-0.0854423,0.106211,0.152635,0
2024-12-11 19:36:55.419,-1.50359,2.94227,7.48864,-0.122093,0.0316877,0.120261,0
2024-12-11 19:36:55.421,-1.44377,2.93988,7.62533,-0.122093,0.0316877,0.120261,0
2024-12-11 19:36:55.422,-1.43181,2.97338,7.79043,-0.139197,0.000534491,0.100713,0
2024-12-11 19:36:55.425,-1.44138,3.03559,7.98664,-0.153246,-0.029397,0.0805555,0
2024-12-11 19:36:55.427,-1.45813,3.11246,8.19512,-0.165463,-0.0532201,0.0616192,0
2024-12-11 19:36:55.429,-1.48684,3.21775,8.39372,-0.165463,-0.0532201,0.0616192,0
2024-12-11 19:36:55.432,-1.51316,3.31107,8.57318,-0.175237,-0.077654,0.0298552,0
2024-12-11 19:36:55.434,-1.52034,3.39242,8.75773,-0.185621,-0.111251,0.0170274,0
2024-12-11 19:36:55.437,-1.50838,3.47857,8.93959,-0.192951,-0.127743,0.00297788,0
2024-12-11 19:36:55.439,-1.5012,3.53599,9.10708,-0.201503,-0.141182,-0.00801737,0
2024-12-11 19:36:55.447,-1.47488,3.72772,9.59073,-0.219829,-0.184552,-0.0477224,0
2024-12-11 19:36:55.448,-1.43181,3.79711,9.73191,-0.219829,-0.184552,-0.0477224,0
2024-12-11 19:36:55.448,-1.43181,3.79711,9.73191,-0.219829,-0.184552,-0.0477224,0
2024-12-11 19:36:55.454,-1.31904,3.94786,10.0098,-0.233267,-0.215095,-0.0831516,0
2024-12-11 19:36:55.455,-1.25204,4.01486,10.1438,-0.233267,-0.215095,-0.0831516,0
2024-12-11 19:36:55.458,-1.21376,4.07468,10.2921,-0.233267,-0.225479,-0.0965902,0
2024-12-11 19:36:55.458,-1.21376,4.07468,10.2921,-0.233267,-0.225479,-0.0965902,0
2024-12-11 19:36:55.460,-1.1994,4.14886,10.4623,-0.2351,-0.238918,-0.110029,0
2024-12-11 19:36:55.462,-1.18505,4.23051,10.6394,-0.236322,-0.255411,-0.123468,0
2024-12-11 19:36:55.465,-1.16112,4.33101,10.8165,-0.2351,-0.274347,-0.138128,0
2024-12-11 19:36:55.465,-1.16112,4.33101,10.8165,-0.2351,-0.274347,-0.138128,0
2024-12-11 19:36:55.467,-1.14197,4.42194,11.0082,-0.227159,-0.292672,-0.152788,0
2024-12-11 19:36:55.470,-1.12762,4.49611,11.214,-0.225937,-0.31283,-0.163173,0
2024-12-11 19:36:55.473,-1.08933,4.58226,11.415,-0.205779,-0.356811,-0.196769,0
2024-12-11 19:36:55.475,-1.05105,4.64925,11.6019,-0.205779,-0.356811,-0.196769,0
2024-12-11 19:36:55.476,-1.00798,4.69233,11.7838,-0.19173,-0.37758,-0.215095,0
2024-12-11 19:36:55.480,-0.972084,4.73779,11.9824,-0.163631,-0.425837,-0.251745,0
2024-12-11 19:36:55.481,-0.940978,4.79552,12.1765,-0.163631,-0.425837,-0.251745,0
2024-12-11 19:36:55.485,-0.893121,4.84577,12.3272,-0.14897,-0.450882,-0.273736,0
2024-12-11 19:36:55.486,-0.847657,4.9008,12.4493,-0.133699,-0.474705,-0.296337,0
2024-12-11 19:36:55.488,-0.813859,4.95583,12.5785,-0.117206,-0.502193,-0.317106,0
2024-12-11 19:36:55.491,-0.787538,4.99891,12.7199,-0.103157,-0.526016,-0.338486,0
2024-12-11 19:36:55.494,-0.739681,5.03001,12.8372,-0.0707819,-0.571829,-0.383078,0
2024-12-11 19:36:55.495,-0.689432,5.05873,12.9353,-0.0707819,-0.571829,-0.383078,0
2024-12-11 19:36:55.498,-0.655932,5.09462,13.043,-0.0567324,-0.595042,-0.405068,0
2024-12-11 19:36:55.500,-0.60329,5.13769,13.1602,-0.0439046,-0.61581,-0.42828,0
2024-12-11 19:36:55.502,-0.548256,5.16401,13.2586,-0.0322986,-0.638412,-0.447827,0
2024-12-11 19:36:55.505,-0.512363,5.18076,13.3352,-0.0213033,-0.661624,-0.467375,0
2024-12-11 19:36:55.507,-0.471685,5.20708,13.4094,-0.010308,-0.683614,-0.486311,0
2024-12-11 19:36:55.509,-0.431007,5.22622,13.5194,-0.00297788,-0.701329,-0.504025,0
2024-12-11 19:36:55.512,-0.3999,5.26212,13.6367,0.00313059,-0.7166,-0.52174,0
2024-12-11 19:36:55.514,-0.349651,5.28844,13.7228,0.00984991,-0.73065,-0.537622,0
2024-12-11 19:36:55.517,-0.30658,5.31954,13.8093,0.0184018,-0.739202,-0.551061,0
2024-12-11 19:36:55.519,-0.267996,5.35095,13.9265,0.0275645,-0.743477,-0.563888,0
2024-12-11 19:36:55.522,-0.208176,5.34616,14.0725,0.0519984,-0.747143,-0.584657,0
2024-12-11 19:36:55.525,-0.131605,5.35334,14.2137,0.0629936,-0.738591,-0.591376,0
2024-12-11 19:36:55.526,-0.0574277,5.36052,14.3216,0.0629936,-0.738591,-0.591376,0
2024-12-11 19:36:55.529,0.00957129,5.34138,14.3934,0.0862058,-0.717211,-0.604815,0
2024-12-11 19:36:55.531,0.0837488,5.30279,14.4485,0.0862058,-0.717211,-0.604815,0
2024-12-11 19:36:55.533,0.165105,5.25494,14.4891,0.0990336,-0.701329,-0.610313,0
2024-12-11 19:36:55.535,0.239282,5.20469,14.5298,0.109418,-0.686058,-0.614589,0
2024-12-11 19:36:55.538,0.292223,5.1329,14.5944,0.121635,-0.664067,-0.620086,0
2024-12-11 19:36:55.541,0.330509,5.0659,14.683,0.13263,-0.636579,-0.617643,0
2024-12-11 19:36:55.542,0.35683,5.03958,14.7667,0.148512,-0.606037,-0.61581,0
2024-12-11 19:36:55.546,0.371187,4.99651,14.8648,0.180887,-0.533957,-0.605426,0
2024-12-11 19:36:55.548,0.371187,4.93909,14.9584,0.180887,-0.533957,-0.605426,0
2024-12-11 19:36:55.549,0.366401,4.89123,15.0326,0.191882,-0.496695,-0.593209,0
2024-12-11 19:36:55.553,0.337687,4.82184,15.1092,0.23342,-0.410566,-0.564499,0
2024-12-11 19:36:55.554,0.297009,4.7354,15.1858,0.23342,-0.410566,-0.564499,0
2024-12-11 19:36:55.558,0.263211,4.666,15.2408,0.276179,-0.314052,-0.524794,0
2024-12-11 19:36:55.559,0.210568,4.59901,15.3006,0.276179,-0.314052,-0.524794,0
2024-12-11 19:36:55.562,0.16989,4.5344,15.358,0.326269,-0.205321,-0.475926,1
2024-12-11 19:36:55.565,0.136391,4.49133,15.3867,0.326269,-0.205321,-0.475926,0
2024-12-11 19:36:55.566,0.102891,4.46261,15.4011,0.359255,-0.149734,-0.447217,0
2024-12-11 19:36:55.569,0.0789631,4.44586,15.382,0.388575,-0.0917034,-0.420339,0
2024-12-11 19:36:55.571,0.00717847,4.43869,15.3269,0.425226,-0.0330621,-0.393462,0
2024-12-11 19:36:55.573,-0.066999,4.45065,15.2264,0.469818,0.0280226,-0.367806,0
2024-12-11 19:36:55.576,-0.136391,4.49851,15.0565,0.513188,0.0909399,-0.340318,0
2024-12-11 19:36:55.578,-0.244068,4.59901,14.8241,0.561445,0.152025,-0.310387,0
2024-12-11 19:36:55.580,-0.347258,4.71865,14.5346,0.609091,0.21372,-0.284731,0
2024-12-11 19:36:55.583,-0.419043,4.81705,14.1993,0.656126,0.27114,-0.259686,0
2024-12-11 19:36:55.585,-0.476471,4.90559,13.8356,0.70194,0.321229,-0.236474,0
2024-12-11 19:36:55.587,-0.533899,4.96062,13.462,0.70194,0.321229,-0.236474,0
2024-12-11 19:36:55.590,-0.572184,4.98933,13.0813,0.777074,0.376816,-0.194326,0
2024-12-11 19:36:55.592,-0.567398,5.01087,12.696,0.807616,0.376206,-0.179665,0
2024-12-11 19:36:55.594,-0.507577,4.99891,12.32,0.828385,0.36521,-0.169892,0
2024-12-11 19:36:55.597,-0.380758,4.96301,11.9465,0.843046,0.335279,-0.166227,0
2024-12-11 19:36:55.599,-0.198604,4.9008,11.5899,0.851597,0.291298,-0.174168,0
2024-12-11 19:36:55.601,0.026321,4.80748,11.2714,0.846711,0.235711,-0.19005,0
2024-12-11 19:36:55.604,0.229711,4.71147,10.9579,0.832661,0.172183,-0.212651,0
2024-12-11 19:36:55.606,0.378365,4.61815,10.6561,0.811892,0.100103,-0.246248,0
2024-12-11 19:36:55.608,0.4669,4.51286,10.4025,0.780128,0.0194708,-0.285953,0
2024-12-11 19:36:55.612,0.483649,4.37169,10.2227,0.735536,-0.0544418,-0.324436,0
2024-12-11 19:36:55.613,0.445364,4.20897,10.1198,0.683614,-0.122246,-0.365974,0
2024-12-11 19:36:55.615,0.383151,4.034,10.06,0.621919,-0.180276,-0.403846,0
2024-12-11 19:36:55.618,0.311366,3.84257,10.06,0.552893,-0.22609,-0.436832,0
2024-12-11 19:36:55.620,0.20339,3.64367,10.1438,0.480813,-0.252967,-0.467375,0
2024-12-11 19:36:55.623,0.0502493,3.44746,10.2754,0.400181,-0.260908,-0.489365,0
2024-12-11 19:36:55.626,-0.107677,3.24885,10.4432,0.243194,-0.222425,-0.520518,0
2024-12-11 19:36:55.628,-0.244068,3.03081,10.6825,0.243194,-0.222425,-0.520518,0
2024-12-11 19:36:55.630,-0.364008,2.79392,10.9555,0.165616,-0.188217,-0.527848,0
2024-12-11 19:36:55.632,-0.431007,2.54507,11.257,0.0910926,-0.143625,-0.529681,0
2024-12-11 19:36:55.634,-0.462114,2.26241,11.5947,0.0190126,-0.0965902,-0.532124,0
2024-12-11 19:36:55.638,-0.457328,1.96301,11.9369,-0.100103,0.0109189,-0.533346,0
2024-12-11 19:36:55.640,-0.3999,1.66391,12.3009,-0.150803,0.0695602,-0.5364,0
2024-12-11 19:36:55.641,-0.328116,1.33819,12.6841,-0.150803,0.0695602,-0.5364,0
2024-12-11 19:36:55.644,-0.275175,1.01515,13.0597,-0.195395,0.132477,-0.541287,0
2024-12-11 19:36:55.646,-0.217747,0.737288,13.4381,-0.222883,0.201503,-0.55045,0
2024-12-11 19:36:55.648,-0.157926,0.495613,13.7662,-0.246706,0.276027,-0.55778,0
2024-12-11 19:36:55.651,-0.119641,0.270389,14.0175,-0.25709,0.354215,-0.565721,0
2024-12-11 19:36:55.653,-0.0933201,0.0837488,14.2161,-0.260755,0.428738,-0.576716,0
2024-12-11 19:36:55.655,-0.0861416,-0.0502493,14.3527,-0.255258,0.502651,-0.582214,0
2024-12-11 19:36:55.658,-0.105284,-0.143569,14.4102,-0.235711,0.569844,-0.588322,0
2024-12-11 19:36:55.661,-0.131605,-0.210568,14.4126,-0.217385,0.622377,-0.591987,0
2024-12-11 19:36:55.664,-0.160319,-0.244068,14.3647,-0.14836,0.708506,-0.588322,0
2024-12-11 19:36:55.665,-0.181855,-0.232104,14.2543,-0.14836,0.708506,-0.588322,0
2024-12-11 19:36:55.670,-0.167498,-0.162712,13.9457,-0.107433,0.734162,-0.583435,0
2024-12-11 19:36:55.670,-0.167498,-0.162712,13.9457,-0.107433,0.734162,-0.583435,0
2024-12-11 19:36:55.673,-0.119641,-0.11007,13.7782,-0.0109189,0.752487,-0.578549,0
2024-12-11 19:36:55.674,-0.0526421,-0.0646062,13.5936,0.0458899,0.742103,-0.576105,0
2024-12-11 19:36:55.677,0.00239282,-0.0358923,13.3759,0.105142,0.723167,-0.576105,0
2024-12-11 19:36:55.679,0.0239282,-0.0382852,13.1148,0.16867,0.693846,-0.574884,0
2024-12-11 19:36:55.685,0.00957129,-0.0502493,12.454,0.359255,0.544799,-0.570608,0
2024-12-11 19:36:55.685,-0.0287139,-0.0502493,12.454,0.359255,0.544799,-0.570608,0
2024-12-11 19:36:55.686,-0.0622134,-0.0430708,12.1071,0.359255,0.544799,-0.570608,0
2024-12-11 19:36:55.688,-0.0909273,-0.0454636,11.7407,0.422172,0.474552,-0.566943,0
2024-12-11 19:36:55.692,-0.131605,-0.0550349,11.3815,0.480813,0.402472,-0.559002,0
2024-12-11 19:36:55.693,-0.165105,-0.066999,11.0584,0.535789,0.323062,-0.551061,0
2024-12-11 19:36:55.696,-0.198604,-0.0693919,10.7255,0.589544,0.239987,-0.542509,0
2024-12-11 19:36:55.698,-0.217747,-0.0598206,10.3834,0.639023,0.152025,-0.530903,0
2024-12-11 19:36:55.701,-0.217747,-0.0550349,10.0337,0.725152,-0.0269536,-0.508301,0
2024-12-11 19:36:55.703,-0.227318,-0.0622134,9.68405,0.725152,-0.0269536,-0.508301,0
2024-12-11 19:36:55.705,-0.246461,-0.0550349,9.36341,0.725152,-0.0269536,-0.508301,0
2024-12-11 19:36:55.707,-0.275175,-0.0382852,9.04965,0.794178,-0.205321,-0.47837,0
2024-12-11 19:36:55.711,-0.297009,-0.0167498,8.74337,0.816168,-0.292672,-0.461266,0
2024-12-11 19:36:55.712,-0.316152,0.0239282,8.44158,0.837548,-0.371471,-0.444162,0
2024-12-11 19:36:55.714,-0.320937,0.066999,8.15205,0.852819,-0.444162,-0.423394,0
2024-12-11 19:36:55.717,-0.287438,0.112463,7.89093,0.852819,-0.444162,-0.423394,0
2024-12-11 19:36:55.720,-0.265603,0.174676,7.65643,0.862593,-0.566943,-0.379413,0
2024-12-11 19:36:55.721,-0.251246,0.241675,7.44317,0.861982,-0.614589,-0.358644,0
2024-12-11 19:36:55.724,-0.205783,0.27996,7.24696,0.855263,-0.653072,-0.336653,0
2024-12-11 19:36:55.727,-0.138784,0.332901,7.08425,0.843656,-0.684836,-0.314052,0
2024-12-11 19:36:55.729,-0.0693919,0.392722,6.93081,0.826553,-0.705605,-0.293894,0
2024-12-11 19:36:55.732,0.00239282,0.445364,6.8016,0.783793,-0.732482,-0.252967,0
2024-12-11 19:36:55.734,0.0765703,0.507577,6.71306,0.756305,-0.737369,-0.235863,0
2024-12-11 19:36:55.736,0.153141,0.56022,6.63171,0.756305,-0.737369,-0.235863,0
2024-12-11 19:36:55.738,0.256032,0.617647,6.57189,0.729428,-0.731261,-0.220592,0
2024-12-11 19:36:55.741,0.371187,0.689432,6.50728,0.698886,-0.720876,-0.208986,0
2024-12-11 19:36:55.743,0.483649,0.766002,6.42802,0.6659,-0.706827,-0.195547,0
2024-12-11 19:36:55.745,0.60329,0.835394,6.3682,0.628638,-0.684225,-0.189439,0
2024-12-11 19:36:55.747,0.727717,0.890728,6.29881,0.592598,-0.656126,-0.185163,0
2024-12-11 19:36:55.750,0.833001,0.950549,6.24138,0.555337,-0.624362,-0.180887,0
2024-12-11 19:36:55.752,0.905085,1.01994,6.2007,0.517464,-0.585879,-0.178444,0
2024-12-11 19:36:55.754,0.962513,1.07737,6.15763,0.47104,-0.549839,-0.179665,0
2024-12-11 19:36:55.757,1.01276,1.12522,6.11456,0.428891,-0.502804,-0.183941,0
2024-12-11 19:36:55.759,1.04148,1.18505,6.07388,0.381856,-0.457601,-0.188217,0
2024-12-11 19:36:55.761,1.03669,1.25204,6.02842,0.336042,-0.407511,-0.193104,0
2024-12-11 19:36:55.764,1.01755,1.31426,5.99013,0.289007,-0.353757,-0.201045,0
2024-12-11 19:36:55.766,1.00319,1.35494,5.95663,0.237696,-0.295116,-0.204099,0
2024-12-11 19:36:55.769,0.969691,1.38126,5.94467,0.189439,-0.234642,-0.209597,0
2024-12-11 19:36:55.773,0.859622,1.43181,5.94467,0.0862058,-0.113694,-0.218149,0
2024-12-11 19:36:55.774,0.859622,1.43181,5.94467,0.0367272,-0.0519984,-0.221814,0
2024-12-11 19:36:55.777,0.787538,1.46291,5.9686,-0.0121406,0.0096972,-0.227312,0
2024-12-11 19:36:55.778,0.725324,1.48684,5.99731,-0.0121406,0.0096972,-0.227312,0
2024-12-11 19:36:55.781,0.677468,1.51316,6.01406,-0.103768,0.135532,-0.236474,0
2024-12-11 19:36:55.783,0.651147,1.54188,6.03799,-0.103768,0.135532,-0.236474,0
2024-12-11 19:36:55.786,0.629611,1.56102,6.0667,-0.150192,0.190508,-0.241972,0
2024-12-11 19:36:55.787,0.581755,1.5993,6.12892,-0.19173,0.251593,-0.249913,0
2024-12-11 19:36:55.790,0.524327,1.61605,6.34906,-0.228991,0.29985,-0.257243,0
2024-12-11 19:36:55.792,0.454935,1.62562,6.41605,-0.26381,0.3365,-0.265795,0
2024-12-11 19:36:55.794,0.397508,1.48445,6.47857,-0.296795,0.389644,-0.273125,0
2024-12-11 19:36:55.797,0.512363,1.18744,7.101,-0.319397,0.40125,-0.294505,0
2024-12-11 19:36:55.799,0.646361,1.07737,7.62293,-0.330392,0.354215,-0.323215,0
2024-12-11 19:36:55.803,0.538684,1.1994,7.41925,-0.32917,0.411635,-0.369028,0
2024-12-11 19:36:55.805,0.359223,1.41984,7.10339,-0.32917,0.411635,-0.369028,0
2024-12-11 19:36:55.806,0.282652,1.60887,7.22782,-0.318175,0.484936,-0.383078,0
2024-12-11 19:36:55.810,0.172283,1.7668,7.41207,-0.290687,0.55213,-0.400181,0
2024-12-11 19:36:55.811,-0.0885344,1.94865,7.32593,-0.290687,0.55213,-0.400181,0
2024-12-11 19:36:55.813,-0.373579,2.12842,7.17757,-0.2858,0.575342,-0.400792,0
2024-12-11 19:36:55.816,-0.538684,2.23609,7.14886,-0.279692,0.587559,-0.396516,0
2024-12-11 19:36:55.818,-0.591326,2.2672,7.19911,-0.268086,0.580839,-0.393462,0
2024-12-11 19:36:55.820,-0.629611,2.28395,7.21346,-0.261366,0.554573,-0.389186,0
2024-12-11 19:36:55.823,-0.629611,2.28634,7.20868,-0.254036,0.525252,-0.390408,0
2024-12-11 19:36:55.825,-0.541077,2.2672,7.25414,-0.244873,0.492267,-0.393462,0
2024-12-11 19:36:55.828,-0.452543,2.24088,7.31875,-0.230824,0.450118,-0.400181,0
2024-12-11 19:36:55.831,-0.3999,2.21695,7.3331,-0.214331,0.413467,-0.409344,0
2024-12-11 19:36:55.832,-0.380758,2.22174,7.29482,-0.196006,0.380481,-0.420339,0
2024-12-11 19:36:55.835,-0.371187,2.23849,7.27807,-0.172793,0.35055,-0.434389,0
2024-12-11 19:36:55.839,-0.421436,2.26241,7.31157,-0.12698,0.2858,-0.458823,0
2024-12-11 19:36:55.839,-0.421436,2.26241,7.31157,-0.12698,0.2858,-0.458823,0
2024-12-11 19:36:55.842,-0.428614,2.27677,7.27807,-0.101324,0.250371,-0.472872,0
2024-12-11 19:36:55.844,-0.442971,2.28634,7.21825,-0.0781121,0.210666,-0.488754,0
2024-12-11 19:36:55.847,-0.459721,2.28634,7.18236,-0.0561216,0.171572,-0.500971,0
2024-12-11 19:36:55.849,-0.481256,2.3007,7.15364,-0.030466,0.130034,-0.515021,0
2024-12-11 19:36:55.852,-0.488435,2.32463,7.07707,-0.00542127,0.0909399,-0.52907,0
2024-12-11 19:36:55.858,-0.440578,2.46341,6.81117,0.0477224,-0.0184018,-0.564499,0
2024-12-11 19:36:55.859,-0.474078,2.46341,6.81117,0.0617719,-0.049555,-0.574884,0
2024-12-11 19:36:55.860,-0.390329,2.50409,6.70589,0.0617719,-0.049555,-0.574884,0
2024-12-11 19:36:55.863,-0.337687,2.55703,6.60299,0.0715455,-0.081319,-0.587101,0
2024-12-11 19:36:55.866,-0.275175,2.59292,6.49532,0.0709346,-0.134463,-0.607869,0
2024-12-11 19:36:55.866,-0.275175,2.59292,6.49532,0.0709346,-0.134463,-0.607869,0
2024-12-11 19:36:55.867,-0.227318,2.62881,6.40648,0.0709346,-0.134463,-0.607869,0
2024-12-11 19:36:55.870,-0.208176,2.64796,6.31795,0.0739889,-0.15401,-0.620697,0
2024-12-11 19:36:55.873,-0.196211,2.66471,6.24856,0.0660479,-0.17539,-0.629249,0
2024-12-11 19:36:55.875,-0.181855,2.71256,6.19831,0.0562743,-0.190661,-0.639633,0
2024-12-11 19:36:55.877,-0.160319,2.7676,6.15284,0.0440574,-0.202878,-0.646353,0
2024-12-11 19:36:55.879,-0.131605,2.80588,6.12892,0.0306187,-0.21204,-0.656126,0
2024-12-11 19:36:55.882,-0.0765703,2.83938,6.11456,0.0141258,-0.21876,-0.661624,0
2024-12-11 19:36:55.884,-0.00478565,2.86331,6.11695,-0.00481042,-0.221814,-0.667732,0
2024-12-11 19:36:55.886,0.0598206,2.87288,6.13609,-0.022525,-0.223036,-0.673841,0
2024-12-11 19:36:55.890,0.122034,2.8992,6.15045,-0.0610084,-0.210819,-0.68728,0
2024-12-11 19:36:55.892,0.184247,2.92313,6.18874,-0.0787229,-0.202878,-0.693388,0
2024-12-11 19:36:55.894,0.232104,2.93031,6.24377,-0.0787229,-0.202878,-0.693388,0
2024-12-11 19:36:55.897,0.265603,2.94706,6.29402,-0.11965,-0.176611,-0.70927,0
2024-12-11 19:36:55.899,0.297009,2.94945,6.33948,-0.139197,-0.161951,-0.715989,0
2024-12-11 19:36:55.900,0.32333,2.95185,6.38973,-0.139197,-0.161951,-0.715989,0
2024-12-11 19:36:55.903,0.342473,2.9686,6.469,-0.159966,-0.147901,-0.724541,0
2024-12-11 19:36:55.906,0.359223,2.97577,6.56471,-0.177069,-0.135074,-0.732482,0
2024-12-11 19:36:55.908,0.364008,2.97338,6.64606,-0.198449,-0.124078,-0.741034,0
2024-12-11 19:36:55.910,0.349651,2.97817,6.72742,-0.216164,-0.113083,-0.74531,0
2024-12-11 19:36:55.913,0.325723,2.99252,6.84228,-0.245484,-0.0959794,-0.757527,0
2024-12-11 19:36:55.916,0.304188,3.00688,6.97149,-0.25709,-0.0892601,-0.75997,0
2024-12-11 19:36:55.918,0.299402,3.02602,7.11536,-0.267475,-0.0819299,-0.762414,0
2024-12-11 19:36:55.919,0.289831,3.04038,7.2685,-0.267475,-0.0819299,-0.762414,0
2024-12-11 19:36:55.922,0.275175,3.04517,7.4001,-0.274194,-0.0739889,-0.765468,0
2024-12-11 19:36:55.925,0.270389,3.05234,7.52453,-0.279692,-0.0697129,-0.769744,0
2024-12-11 19:36:55.929,0.260818,3.09571,7.75933,-0.279692,-0.065437,-0.770966,0
2024-12-11 19:36:55.930,0.260818,3.09571,7.75933,-0.280303,-0.0648262,-0.772187,0
2024-12-11 19:36:55.931,0.270389,3.11007,7.87657,-0.280303,-0.0648262,-0.772187,0
2024-12-11 19:36:55.933,0.272782,3.12921,7.99382,-0.276027,-0.0648262,-0.774631,0
2024-12-11 19:36:55.937,0.267996,3.14836,8.10389,-0.269307,-0.0684913,-0.775852,0
2024-12-11 19:36:55.938,0.272782,3.16989,8.21187,-0.269307,-0.0684913,-0.775852,0
2024-12-11 19:36:55.941,0.287438,3.18903,8.29562,-0.269307,-0.0684913,-0.775852,0
2024-12-11 19:36:55.946,0.287438,3.19621,8.35544,-0.25648,-0.0837624,-0.784404,0
2024-12-11 19:36:55.948,0.234497,3.20818,8.51097,-0.252204,-0.0904818,-0.786848,0
2024-12-11 19:36:55.948,0.234497,3.20818,8.51097,-0.252204,-0.0904818,-0.786848,0
2024-12-11 19:36:55.950,0.191426,3.22971,8.58515,-0.250982,-0.0947577,-0.786237,0
2024-12-11 19:36:55.952,0.143569,3.25125,8.6665,-0.246095,-0.0990336,-0.785626,0
2024-12-11 19:36:55.955,0.114855,3.27278,8.7697,-0.244263,-0.101477,-0.785015,0
2024-12-11 19:36:55.957,0.0933201,3.28714,8.87498,-0.241819,-0.104531,-0.78135,0
2024-12-11 19:36:55.959,0.0741775,3.28714,8.96591,-0.241819,-0.104531,-0.78135,0
2024-12-11 19:36:55.962,0.0622134,3.29432,9.08315,-0.2351,-0.0990336,-0.775852,0
2024-12-11 19:36:55.965,0.0478565,3.32064,9.20997,-0.219829,-0.0929251,-0.7673,0
2024-12-11 19:36:55.967,0.0526421,3.34218,9.32513,-0.219829,-0.0929251,-0.7673,0
2024-12-11 19:36:55.970,0.066999,3.36132,9.45673,-0.211277,-0.085595,-0.761192,0
2024-12-11 19:36:55.972,0.066999,3.37807,9.59313,-0.201503,-0.077654,-0.759359,0
2024-12-11 19:36:55.973,0.0717847,3.38285,9.73909,-0.201503,-0.077654,-0.759359,0
2024-12-11 19:36:55.977,0.0837488,3.39482,9.88535,-0.189897,-0.0684913,-0.758138,0
2024-12-11 19:36:55.978,0.0837488,3.40917,9.99781,-0.189897,-0.0684913,-0.758138,0
2024-12-11 19:36:55.983,0.100499,3.42114,10.2084,-0.153246,-0.029397,-0.75264,0
2024-12-11 19:36:55.985,0.0933201,3.44028,10.285,-0.153246,-0.029397,-0.75264,0
2024-12-11 19:36:55.988,0.0741775,3.47378,10.3711,-0.114763,0.0096972,-0.748975,0
2024-12-11 19:36:55.990,0.0598206,3.50728,10.4527,-0.0939941,0.0292443,-0.744699,0
2024-12-11 19:36:55.990,0.0741775,3.47378,10.3711,-0.0939941,0.0292443,-0.744699,0
2024-12-11 19:36:55.992,0.0598206,3.53839,10.5078,-0.074447,0.0457372,-0.742256,0
2024-12-11 19:36:55.995,0.0574277,3.57428,10.5604,-0.0530674,0.0640626,-0.738591,0
2024-12-11 19:36:55.999,0.0550349,3.65354,10.6274,-0.00786466,0.101324,-0.731261,0
2024-12-11 19:36:56.002,0.0502493,3.71815,10.6274,0.0165692,0.122704,-0.726374,0
2024-12-11 19:36:56.004,0.0382852,3.77079,10.6131,0.0403923,0.143473,-0.720265,0
2024-12-11 19:36:56.005,0.0382852,3.77079,10.6131,0.0623828,0.168517,-0.717211,0
2024-12-11 19:36:56.006,0.0334995,3.7995,10.6083,0.0623828,0.168517,-0.717211,0
2024-12-11 19:36:56.009,0.0358923,3.82822,10.5987,0.0843733,0.192951,-0.711713,0
2024-12-11 19:36:56.015,0.0430708,3.85215,10.5939,0.156453,0.254647,-0.704994,0
2024-12-11 19:36:56.015,0.0526421,3.89761,10.5939,0.156453,0.254647,-0.704994,0
2024-12-11 19:36:56.016,0.0574277,3.95025,10.5796,0.156453,0.254647,-0.704994,0
2024-12-11 19:36:56.018,0.0550349,3.98136,10.5604,0.17539,0.272972,-0.702551,0
2024-12-11 19:36:56.021,0.0239282,4.03879,10.5341,0.198602,0.292519,-0.703772,0
2024-12-11 19:36:56.023,-0.0167498,4.08186,10.4934,0.216927,0.303515,-0.704383,0
2024-12-11 19:36:56.026,-0.0741775,4.11536,10.4456,0.245026,0.320618,-0.711713,0
2024-12-11 19:36:56.028,-0.150748,4.14407,10.3929,0.245026,0.320618,-0.711713,0
2024-12-11 19:36:56.031,-0.229711,4.15603,10.34,0.256021,0.324284,-0.717822,0
2024-12-11 19:36:56.032,-0.332901,4.17757,10.3017,0.26213,0.322451,-0.72393,0
2024-12-11 19:36:56.036,-0.395115,4.17996,10.2443,0.270682,0.332835,-0.739812,0
2024-12-11 19:36:56.037,-0.462114,4.17518,10.2084,0.270682,0.332835,-0.739812,0
2024-12-11 19:36:56.039,-0.65354,4.19193,10.2203,0.271293,0.332835,-0.749586,0
2024-12-11 19:36:56.044,-0.878764,4.22333,10.1964,0.268849,0.330392,-0.755694,0
2024-12-11 19:36:56.044,-1.03908,4.24487,10.1964,0.268849,0.330392,-0.755694,0
2024-12-11 19:36:56.047,-1.14197,4.24487,10.1629,0.255411,0.316953,-0.765468,0
2024-12-11 19:36:56.049,-1.25444,4.23769,10.1462,0.245026,0.310234,-0.769133,0
2024-12-11 19:36:56.052,-1.38126,4.24008,10.1462,0.213262,0.291909,-0.771576,0
2024-12-11 19:36:56.055,-1.4677,4.24487,10.1677,0.196769,0.281524,-0.770966,0
2024-12-11 19:36:56.057,-1.54905,4.2329,10.218,0.172946,0.267475,-0.774631,0
2024-12-11 19:36:56.059,-1.6328,4.21376,10.261,0.152788,0.255258,-0.775242,0
2024-12-11 19:36:56.062,-1.72134,4.17039,10.3208,0.152788,0.255258,-0.775242,0
2024-12-11 19:36:56.063,-1.78355,4.13211,10.4097,0.128354,0.243041,-0.777074,0
2024-12-11 19:36:56.066,-1.82423,4.11775,10.4934,0.10392,0.230824,-0.778907,0
2024-12-11 19:36:56.068,-1.85773,4.09143,10.5867,0.077654,0.223494,-0.780128,0
2024-12-11 19:36:56.070,-1.87926,4.05554,10.7016,0.0544418,0.217385,-0.779517,0
2024-12-11 19:36:56.072,-1.89601,4.03161,10.838,0.0281753,0.210666,-0.780739,0
2024-12-11 19:36:56.075,-1.88883,3.98614,10.9723,0.00313059,0.216164,-0.779517,0
2024-12-11 19:36:56.079,-1.85533,3.93111,11.1039,-0.0414613,0.22777,-0.775242,0
2024-12-11 19:36:56.080,-1.79791,3.85693,11.2546,-0.0414613,0.22777,-0.775242,0
2024-12-11 19:36:56.083,-1.75723,3.78515,11.415,-0.0646735,0.234489,-0.769744,0
2024-12-11 19:36:56.084,-1.73569,3.74208,11.5732,-0.0854423,0.250371,-0.765468,0
2024-12-11 19:36:56.089,-1.51077,3.69661,11.8723,-0.0988809,0.267475,-0.75997,0
2024-12-11 19:36:56.091,-1.31426,3.766,11.9776,-0.116595,0.323673,-0.743477,0
2024-12-11 19:36:56.094,-1.06301,3.86172,12.0589,-0.117817,0.37193,-0.740423,0
2024-12-11 19:36:56.095,-1.06301,3.86172,12.0589,-0.116595,0.421408,-0.740423,0
2024-12-11 19:36:56.096,-0.773181,3.97897,12.1071,-0.116595,0.421408,-0.740423,0
2024-12-11 19:36:56.099,-0.498006,4.07468,12.131,-0.109265,0.478217,-0.742867,0
2024-12-11 19:36:56.101,-0.275175,4.13211,12.1167,-0.0994917,0.528917,-0.755084,0
2024-12-11 19:36:56.104,-0.11007,4.168,12.0637,-0.0836097,0.602219,-0.792956,0
2024-12-11 19:36:56.106,-0.0119641,4.18714,11.9728,-0.0836097,0.602219,-0.792956,0
2024-12-11 19:36:56.108,0.0502493,4.18714,11.8316,-0.0787229,0.613825,-0.81739,0
2024-12-11 19:36:56.110,0.0933201,4.15843,11.6928,-0.0817772,0.606495,-0.847932,0
2024-12-11 19:36:56.112,0.141177,4.10818,11.5636,-0.0884965,0.583283,-0.882751,0
2024-12-11 19:36:56.115,0.16989,4.04836,11.4413,-0.101935,0.538691,-0.921234,0
2024-12-11 19:36:56.118,0.184247,3.96461,11.3695,-0.143473,0.400639,-1.00126,0
2024-12-11 19:36:56.120,0.260818,3.82343,11.3504,-0.143473,0.400639,-1.00126,0
2024-12-11 19:36:56.123,0.270389,3.64876,11.4126,-0.175237,0.308401,-1.04585,0
2024-12-11 19:36:56.124,0.112463,3.48335,11.5445,-0.205779,0.195395,-1.08861,0
2024-12-11 19:36:56.128,-0.066999,3.32782,11.7431,-0.297406,-0.0837624,-1.16741,0
2024-12-11 19:36:56.129,-0.22014,3.14596,11.9919,-0.297406,-0.0837624,-1.16741,0
2024-12-11 19:36:56.131,-0.395115,2.94467,12.2315,-0.35055,-0.249913,-1.19978,0
2024-12-11 19:36:56.134,-0.572184,2.77956,12.5043,-0.40858,-0.423394,-1.22849,0
2024-12-11 19:36:56.137,-0.727717,2.64078,12.8563,-0.469054,-0.598707,-1.25598,0
2024-12-11 19:36:56.138,-0.864407,2.51845,13.3041,-0.531361,-0.7673,-1.27736,0
2024-12-11 19:36:56.141,-0.952942,2.4323,13.8141,-0.531361,-0.7673,-1.27736,0
2024-12-11 19:36:56.144,-0.991227,2.33659,14.3504,-0.685294,-1.18573,-1.32623,0
2024-12-11 19:36:56.145,-0.981655,2.21695,14.9632,-0.685294,-1.18573,-1.32623,0
2024-12-11 19:36:56.148,-0.940978,2.11884,15.6598,-0.717669,-1.29385,-1.33783,0
2024-12-11 19:36:56.150,-0.8668,2.02792,16.3852,-0.735384,-1.3867,-1.35005,0
2024-12-11 19:36:56.152,-0.73011,1.94865,17.118,-0.741492,-1.45939,-1.35982,0
2024-12-11 19:36:56.156,-0.557827,1.87448,17.8576,-0.705452,-1.55774,-1.38426,0
2024-12-11 19:36:56.160,-0.337687,1.88405,18.705,-0.66086,-1.54857,-1.39281,0
2024-12-11 19:36:56.161,-0.0765703,2.0351,18.705,-0.66086,-1.54857,-1.39281,0
2024-12-11 19:36:56.163,0.153141,2.0351,18.8082,-0.55213,-1.40258,-1.40503,0
2024-12-11 19:36:56.165,0.45015,1.89841,19.4282,-0.476995,-1.37632,-1.41419,0
2024-12-11 19:36:56.167,0.727717,1.75962,20.0961,-0.476995,-1.37632,-1.41419,0
2024-12-11 19:36:56.169,0.991227,1.55623,20.3617,-0.393309,-1.34455,-1.42457,0
2024-12-11 19:36:56.171,1.45095,1.30947,20.5367,-0.302904,-1.29996,-1.43618,0
2024-12-11 19:36:56.174,1.98485,1.02233,20.6444,-0.207001,-1.23338,-1.45634,1
2024-12-11 19:36:56.176,2.50648,0.73011,20.6827,-0.0976592,-1.15213,-1.48321,0
2024-12-11 19:36:56.178,2.99252,0.447757,20.6874,0.0190126,-1.05806,-1.5162,0
2024-12-11 19:36:56.182,3.42832,0.184247,20.5654,0.263962,-0.828996,-1.58767,0
2024-12-11 19:36:56.184,3.78036,-0.0478565,20.2971,0.386132,-0.699496,-1.62554,0
2024-12-11 19:36:56.188,4.06989,-0.390329,19.5168,0.506469,-0.56511,-1.65792,0
2024-12-11 19:36:56.190,3.99093,-0.483649,19.002,0.621308,-0.433167,-1.68663,0
2024-12-11 19:36:56.191,3.99093,-0.483649,19.002,0.728817,-0.300613,-1.70801,0
2024-12-11 19:36:56.194,3.7995,-0.538684,18.3891,0.728817,-0.300613,-1.70801,0
2024-12-11 19:36:56.196,3.57906,-0.569791,17.7571,0.912682,-0.0672696,-1.72083,0
2024-12-11 19:36:56.197,3.37567,-0.598505,17.1467,0.912682,-0.0672696,-1.72083,0
2024-12-11 19:36:56.200,3.14118,-0.598505,16.5263,0.991481,0.0280226,-1.71717,0
2024-12-11 19:36:56.202,2.87528,-0.574577,15.9063,1.0599,0.108654,-1.70678,0
2024-12-11 19:36:56.205,2.6336,-0.550648,15.3102,1.16557,0.228381,-1.66647,0
2024-12-11 19:36:56.208,2.42273,-0.517149,14.7763,1.20283,0.273583,-1.64081,0
2024-12-11 19:36:56.209,2.21934,-0.469292,14.2831,1.20283,0.273583,-1.64081,0
2024-12-11 19:36:56.211,2.02792,-0.409472,13.7973,1.23582,0.311456,-1.61577,0
2024-12-11 19:36:56.216,1.69262,-0.294616,12.9473,1.27247,0.367043,-1.5614,0
2024-12-11 19:36:56.216,1.69262,-0.294616,12.9473,1.27247,0.367043,-1.5614,0
2024-12-11 19:36:56.219,1.5347,-0.256032,12.5617,1.28102,0.385979,-1.53575,0
2024-12-11 19:36:56.221,1.42223,-0.210568,12.1932,1.28591,0.393309,-1.5107,0
2024-12-11 19:36:56.224,1.30708,-0.174676,11.9345,1.28591,0.401861,-1.47527,0
2024-12-11 19:36:56.226,1.23529,-0.165105,11.7,1.28591,0.401861,-1.47527,0
2024-12-11 19:36:56.229,1.19462,-0.179462,11.3958,1.26758,0.354215,-1.46428,0
2024-12-11 19:36:56.233,1.12044,-0.191426,10.8236,1.24743,0.324284,-1.46489,0
2024-12-11 19:36:56.233,1.03908,-0.191426,10.8236,1.24743,0.324284,-1.46489,0
2024-12-11 19:36:56.235,0.972084,-0.181855,10.558,1.22544,0.290076,-1.46977,0
2024-12-11 19:36:56.241,0.816252,-0.100499,10.1414,1.13747,0.174015,-1.50765,0
2024-12-11 19:36:56.243,0.718146,-0.081356,9.98824,1.13747,0.174015,-1.50765,0
2024-12-11 19:36:56.245,0.62004,-0.0478565,9.88535,1.1051,0.121482,-1.52109,0
2024-12-11 19:36:56.247,0.52672,-0.0143569,9.79412,1.07333,0.0628409,-1.53758,0
2024-12-11 19:36:56.249,0.52672,-0.0143569,9.79412,1.03791,-0.00251974,-1.55285,0
2024-12-11 19:36:56.249,0.447757,0.00957129,9.73669,1.03791,-0.00251974,-1.55285,0
2024-12-11 19:36:56.251,0.414257,0.0119641,9.70798,1.00431,-0.0727672,-1.57118,0
2024-12-11 19:36:56.254,0.3999,-0.00717847,9.68166,0.96888,-0.143015,-1.58889,0
2024-12-11 19:36:56.256,0.435793,-0.040678,9.68645,0.933451,-0.21876,-1.60905,0
2024-12-11 19:36:56.258,0.519542,-0.0885344,9.72234,0.901687,-0.292672,-1.63043,0
2024-12-11 19:36:56.263,0.761217,-0.210568,9.79173,0.844878,-0.445384,-1.6793,0
2024-12-11 19:36:56.263,0.761217,-0.210568,9.79173,0.844878,-0.445384,-1.6793,0
2024-12-11 19:36:56.267,0.885943,-0.289831,9.85424,0.800286,-0.588322,-1.73488,0
2024-12-11 19:36:56.268,1.01037,-0.359223,9.92363,0.800286,-0.588322,-1.73488,0
2024-12-11 19:36:56.270,1.13001,-0.426222,9.98106,0.777685,-0.656126,-1.76726,0
2024-12-11 19:36:56.273,1.23051,-0.512363,10.0337,0.762414,-0.721487,-1.80208,0
2024-12-11 19:36:56.276,1.29512,-0.591326,10.0672,0.738591,-0.841213,-1.86377,0
2024-12-11 19:36:56.277,1.34058,-0.658325,10.0744,0.738591,-0.841213,-1.86377,0
2024-12-11 19:36:56.280,1.39322,-0.725324,10.1103,0.731871,-0.8968,-1.89554,0
2024-12-11 19:36:56.283,1.47488,-0.777966,10.1677,0.722098,-1.0153,-1.94876,0
2024-12-11 19:36:56.285,1.55862,-0.821037,10.2299,0.722098,-1.0153,-1.94876,0
2024-12-11 19:36:56.287,1.63998,-0.862014,10.2897,0.717822,-1.07456,-1.9793,0
2024-12-11 19:36:56.289,1.72373,-0.895514,10.3448,0.717822,-1.1332,-2.00556,0
2024-12-11 19:36:56.291,1.82662,-0.921835,10.3881,0.718433,-1.19001,-2.03122,0
2024-12-11 19:36:56.296,1.93191,-0.948156,10.3929,0.720265,-1.24193,-2.05871,0
2024-12-11 19:36:56.299,2.09252,-0.967299,10.3834,0.727595,-1.3305,-2.1143,0
2024-12-11 19:36:56.299,2.09252,-0.967299,10.3834,0.727595,-1.3305,-2.1143,0
2024-12-11 19:36:56.301,2.12124,-0.964906,10.4049,0.733093,-1.36899,-2.14362,0
2024-12-11 19:36:56.304,2.11645,-0.940978,10.4097,0.742867,-1.45511,-2.19493,0
2024-12-11 19:36:56.307,2.14995,-0.919442,10.3424,0.742867,-1.45511,-2.19493,0
2024-12-11 19:36:56.308,2.23131,-0.938585,10.2873,0.747753,-1.48993,-2.2218,0
2024-12-11 19:36:56.310,2.36291,-1.0343,10.3615,0.756305,-1.52475,-2.25051,0
2024-12-11 19:36:56.313,2.41795,-1.09173,10.4336,0.762414,-1.5669,-2.28228,0
2024-12-11 19:36:56.315,2.34377,-1.03669,10.3232,0.774631,-1.59989,-2.31343,0
2024-12-11 19:36:56.320,2.26241,-0.929013,10.0911,0.79601,-1.61821,-2.36719,0
2024-12-11 19:36:56.322,2.16431,-0.862014,10.06,0.805784,-1.62554,-2.38979,0
2024-12-11 19:36:56.323,2.16431,-0.862014,10.06,0.814947,-1.63593,-2.40933,0
2024-12-11 19:36:56.324,2.03031,-0.82343,10.0074,0.814947,-1.63593,-2.40933,0
2024-12-11 19:36:56.327,1.89601,-0.777966,9.92363,0.827774,-1.64448,-2.42461,0
2024-12-11 19:36:56.329,1.78116,-0.734896,9.82792,0.835715,-1.65792,-2.44049,0
2024-12-11 19:36:56.332,1.69262,-0.715753,9.72952,0.840602,-1.66708,-2.4527,0
2024-12-11 19:36:56.334,1.60409,-0.706182,9.63141,0.849765,-1.68113,-2.46248,0
2024-12-11 19:36:56.337,1.51077,-0.701396,9.54527,0.855873,-1.70617,-2.47958,0
2024-12-11 19:36:56.339,1.42463,-0.699003,9.45913,0.855873,-1.70617,-2.47958,0
2024-12-11 19:36:56.341,1.35254,-0.684646,9.3682,0.861371,-1.71595,-2.4863,0
2024-12-11 19:36:56.343,1.27358,-0.667897,9.27488,0.863814,-1.72267,-2.48936,0
2024-12-11 19:36:56.347,1.2018,-0.670289,9.1693,0.866258,-1.72022,-2.49424,0
2024-12-11 19:36:56.349,1.1324,-0.663111,9.06401,0.866258,-1.72022,-2.49424,0
2024-12-11 19:36:56.350,1.05823,-0.667897,8.9683,0.867479,-1.71656,-2.4918,0
2024-12-11 19:36:56.353,0.986441,-0.675075,8.87737,0.866869,-1.70373,-2.48569,0
2024-12-11 19:36:56.356,0.919442,-0.670289,8.78405,0.867479,-1.67502,-2.47225,0
2024-12-11 19:36:56.357,0.8668,-0.667897,8.67847,0.867479,-1.67502,-2.47225,0
2024-12-11 19:36:56.362,0.710967,-0.63679,8.49183,0.852819,-1.63959,-2.44965,0
2024-12-11 19:36:56.364,0.634397,-0.610469,8.39133,0.845489,-1.61393,-2.4356,0
2024-12-11 19:36:56.367,0.576969,-0.579362,8.3004,0.833883,-1.58889,-2.42216,0
2024-12-11 19:36:56.368,0.634397,-0.610469,8.39133,0.833883,-1.58889,-2.42216,0
2024-12-11 19:36:56.370,0.52672,-0.553041,8.20469,0.811892,-1.53269,-2.38979,0
2024-12-11 19:36:56.372,0.476471,-0.531506,8.12543,0.811892,-1.53269,-2.38979,0
2024-12-11 19:36:56.374,0.45015,-0.524327,8.07757,0.799065,-1.50459,-2.37329,0
2024-12-11 19:36:56.376,0.442971,-0.507577,8.05843,0.785626,-1.47711,-2.35802,0
2024-12-11 19:36:56.379,0.442971,-0.493221,8.03211,0.77402,-1.43923,-2.34642,0
2024-12-11 19:36:56.381,0.431007,-0.486042,7.99382,0.761803,-1.40564,-2.33298,0
2024-12-11 19:36:56.383,0.3999,-0.4669,7.94357,0.749586,-1.37387,-2.31954,0
2024-12-11 19:36:56.386,0.368794,-0.442971,7.88854,0.732482,-1.34333,-2.30671,0
2024-12-11 19:36:56.388,0.330509,-0.428614,7.83829,0.7166,-1.31767,-2.29572,0
2024-12-11 19:36:56.390,0.308973,-0.442971,7.78804,0.697664,-1.29446,-2.28228,0
2024-12-11 19:36:56.394,0.30658,-0.440578,7.72104,0.647574,-1.25292,-2.26029,0
2024-12-11 19:36:56.395,0.270389,-0.397508,7.63251,0.647574,-1.25292,-2.26029,0
2024-12-11 19:36:56.398,0.224925,-0.335294,7.5341,0.620697,-1.2291,-2.24746,0
2024-12-11 19:36:56.402,0.172283,-0.205783,7.37378,0.564499,-1.17107,-2.22241,0
2024-12-11 19:36:56.404,0.157926,-0.138784,7.31396,0.532735,-1.14358,-2.20898,0
2024-12-11 19:36:56.404,0.157926,-0.138784,7.31396,0.532735,-1.14358,-2.20898,0
2024-12-11 19:36:56.408,0.145962,-0.081356,7.26611,0.467985,-1.09105,-2.17782,0
2024-12-11 19:36:56.410,0.141177,-0.0143569,7.23978,0.467985,-1.09105,-2.17782,0
2024-12-11 19:36:56.415,0.145962,0.100499,7.17518,0.369639,-1.02752,-2.13445,0
2024-12-11 19:36:56.416,0.148355,0.145962,7.17996,0.369639,-1.02752,-2.13445,0
2024-12-11 19:36:56.417,0.145962,0.145962,7.17996,0.334821,-1.01103,-2.1204,0
2024-12-11 19:36:56.419,0.16989,0.184247,7.19432,0.334821,-1.01103,-2.1204,0
2024-12-11 19:36:56.423,0.20339,0.253639,7.17278,0.26946,-0.972545,-2.09597,0
2024-12-11 19:36:56.424,0.22014,0.253639,7.17278,0.26946,-0.972545,-2.09597,0
2024-12-11 19:36:56.428,0.236889,0.27996,7.22543,0.210819,-0.918791,-2.07398,0
2024-12-11 19:36:56.431,0.256032,0.342473,7.26611,0.186385,-0.88947,-2.06237,0
2024-12-11 19:36:56.431,0.256032,0.342473,7.26611,0.186385,-0.88947,-2.06237,0
2024-12-11 19:36:56.433,0.282652,0.342473,7.32593,0.160118,-0.863204,-2.05688,0
2024-12-11 19:36:56.438,0.368794,0.371187,7.4336,0.135074,-0.841824,-2.05077,0
2024-12-11 19:36:56.440,0.426222,0.392722,7.50778,0.0929251,-0.807006,-2.04527,0
2024-12-11 19:36:56.442,0.442971,0.3999,7.56521,0.0727672,-0.792956,-2.0471,0
2024-12-11 19:36:56.442,0.442971,0.3999,7.56521,0.0727672,-0.792956,-2.0471,0
2024-12-11 19:36:56.445,0.4334,0.421436,7.61815,0.0581068,-0.776463,-2.0471,0
2024-12-11 19:36:56.447,0.421436,0.471685,7.64447,0.0428357,-0.761803,-2.04955,0
2024-12-11 19:36:56.449,0.397508,0.538684,7.64926,0.0330621,-0.748975,-2.05199,0
2024-12-11 19:36:56.452,0.414257,0.553041,7.69233,0.0220669,-0.731871,-2.05382,0
2024-12-11 19:36:56.456,0.414257,0.584148,7.81675,0.00984991,-0.715989,-2.06543,0
2024-12-11 19:36:56.456,0.414257,0.584148,7.81675,0.00984991,-0.715989,-2.06543,0
2024-12-11 19:36:56.459,0.297009,0.701396,7.71865,0.00374144,-0.702551,-2.06848,0
2024-12-11 19:36:56.461,0.184247,0.842872,7.58944,0.00129805,-0.676284,-2.06787,0
2024-12-11 19:36:56.466,0.102891,0.967299,7.54128,-0.00786466,-0.635968,-2.05749,0
2024-12-11 19:36:56.467,0.0143569,1.07737,7.52214,-0.0164165,-0.624973,-2.04832,0
2024-12-11 19:36:56.471,0.00478565,1.14915,7.50539,-0.0164165,-0.624973,-2.04832,0
2024-12-11 19:36:56.473,0.00478565,1.14915,7.50539,-0.0237467,-0.624973,-2.03427,0
2024-12-11 19:36:56.473,0.143569,1.09412,7.61336,-0.0237467,-0.624973,-2.03427,0
2024-12-11 19:36:56.475,0.136391,1.12044,7.65883,-0.0261901,-0.634747,-2.03611,0
2024-12-11 19:36:56.480,-0.102891,1.39083,7.3331,-0.0280226,-0.603593,-2.03244,0
2024-12-11 19:36:56.482,-0.148355,1.54666,7.28764,-0.0347419,-0.577938,-2.0245,0
2024-12-11 19:36:56.485,-0.143569,1.64237,7.26371,-0.0432938,-0.559002,-2.01778,0
2024-12-11 19:36:56.486,-0.143569,1.64237,7.26371,-0.0432938,-0.559002,-2.01778,0
2024-12-11 19:36:56.487,-0.00478565,1.60409,7.32353,-0.050624,-0.548006,-2.01167,0
2024-12-11 19:36:56.489,0.081356,1.57059,7.39292,-0.0567324,-0.551671,-2.00984,0
2024-12-11 19:36:56.494,-0.292223,1.79312,7.03161,-0.0634518,-0.527848,-2.00495,0
2024-12-11 19:36:56.496,-0.438186,1.94626,6.92602,-0.0872748,-0.508912,-1.99762,0
2024-12-11 19:36:56.496,-0.438186,1.94626,6.92602,-0.0872748,-0.508912,-1.99762,0
2024-12-11 19:36:56.499,-0.481256,2.01117,6.92363,-0.100713,-0.502193,-1.98541,0
2024-12-11 19:36:56.501,-0.397508,1.9681,7.034,-0.100713,-0.502193,-1.98541,0
2024-12-11 19:36:56.503,-0.411865,1.96301,7.07229,-0.134921,-0.526016,-1.96769,0
2024-12-11 19:36:56.508,-0.629611,2.05663,6.92124,-0.181956,-0.52907,-1.94448,0
2024-12-11 19:36:56.509,-0.799502,2.14517,6.82313,-0.203947,-0.537011,-1.92791,0
2024-12-11 19:36:56.510,-0.912264,2.19781,6.85424,-0.203947,-0.537011,-1.92791,0
2024-12-11 19:36:56.513,-1.06062,2.22413,6.9021,-0.231435,-0.55045,-1.91264,0
2024-12-11 19:36:56.516,-1.15872,2.24566,6.9667,-0.261977,-0.565721,-1.89309,0
2024-12-11 19:36:56.519,-1.15394,2.25524,7.08186,-0.32184,-0.594431,-1.854,0
2024-12-11 19:36:56.521,-1.13958,2.27438,7.22543,-0.351161,-0.60848,-1.83934,0
2024-12-11 19:36:56.522,-1.13001,2.29831,7.37378,-0.351161,-0.60848,-1.83934,0
2024-12-11 19:36:56.526,-1.11565,2.31745,7.55803,-0.378038,-0.61581,-1.82712,0
2024-12-11 19:36:56.527,-1.08455,2.35095,7.76411,-0.404305,-0.618254,-1.81735,0
2024-12-11 19:36:56.532,-1.0008,2.43948,8.15923,-0.44401,-0.613978,-1.80085,0
2024-12-11 19:36:56.534,-0.984048,2.50648,8.37458,-0.460502,-0.605426,-1.79902,0
2024-12-11 19:36:56.535,-0.984048,2.50648,8.37458,-0.477606,-0.596874,-1.7978,0
2024-12-11 19:36:56.537,-0.972084,2.55703,8.56601,-0.477606,-0.596874,-1.7978,0
2024-12-11 19:36:56.539,-1.0008,2.60728,8.74577,-0.489823,-0.583435,-1.79597,0
2024-12-11 19:36:56.542,-1.06301,2.67428,8.92762,-0.501429,-0.569386,-1.79413,0
2024-12-11 19:36:56.546,-1.2329,2.77478,9.31795,-0.51609,-0.530292,-1.79169,0
2024-12-11 19:36:56.546,-1.14676,2.72453,9.11905,-0.51609,-0.530292,-1.79169,0
2024-12-11 19:36:56.552,-1.42463,2.9016,9.71755,-0.519755,-0.44233,-1.7868,0
2024-12-11 19:36:56.553,-1.51077,2.95663,9.92363,-0.519755,-0.44233,-1.7868,0
2024-12-11 19:36:56.553,-1.51077,2.95663,9.92363,-0.519755,-0.44233,-1.7868,0
2024-12-11 19:36:56.555,-1.58495,3.01406,10.1151,-0.5167,-0.408733,-1.78436,0
2024-12-11 19:36:56.560,-1.76441,3.12204,10.4719,-0.513035,-0.371471,-1.78314,0
2024-12-11 19:36:56.561,-1.66391,3.07149,10.3017,-0.503873,-0.32749,-1.78131,0
2024-12-11 19:36:56.562,-1.85055,3.16032,10.6131,-0.49471,-0.281677,-1.77886,0
2024-12-11 19:36:56.565,-1.91276,3.19382,10.7279,-0.484326,-0.240139,-1.77642,0
2024-12-11 19:36:56.568,-2.00399,3.23928,10.7997,-0.457448,-0.163173,-1.77276,0
2024-12-11 19:36:56.570,-2.08774,3.28714,10.85,-0.457448,-0.163173,-1.77276,0
2024-12-11 19:36:56.573,-2.16192,3.31107,10.8691,-0.424462,-0.0978119,-1.7642,0
2024-12-11 19:36:56.575,-2.22891,3.31107,10.8763,-0.409191,-0.0739889,-1.75932,0
2024-12-11 19:36:56.577,-2.28873,3.32543,10.8978,-0.409191,-0.0739889,-1.75932,0
2024-12-11 19:36:56.579,-2.34377,3.34696,10.8811,-0.392698,-0.0562743,-1.75382,0
2024-12-11 19:36:56.581,-2.38684,3.37089,10.8428,-0.378649,-0.0440574,-1.7471,0
2024-12-11 19:36:56.584,-2.40838,3.38764,10.8045,-0.363378,-0.0367272,-1.73916,0
2024-12-11 19:36:56.586,-2.42273,3.41157,10.771,-0.345052,-0.0330621,-1.73305,0
2024-12-11 19:36:56.588,-2.43948,3.44746,10.7327,-0.330392,-0.0361163,-1.7245,0
2024-12-11 19:36:56.592,-2.44666,3.48335,10.6968,-0.29985,-0.0636045,-1.71106,0
2024-12-11 19:36:56.594,-2.42991,3.53121,10.6705,-0.29985,-0.0636045,-1.71106,0
2024-12-11 19:36:56.599,-2.36291,3.57428,10.6514,-0.255869,-0.150956,-1.69762,0
2024-12-11 19:36:56.600,-2.29831,3.61256,10.6777,-0.255869,-0.150956,-1.69762,0
2024-12-11 19:36:56.602,-2.24566,3.67268,10.7136,-0.239376,-0.193715,-1.69579,0
2024-12-11 19:36:56.603,-2.24566,3.67268,10.7136,-0.239376,-0.193715,-1.69579,0
2024-12-11 19:36:56.605,-2.19541,3.73011,10.7423,-0.22105,-0.243194,-1.69457,0
2024-12-11 19:36:56.607,-2.13799,3.78036,10.7901,-0.200282,-0.29084,-1.69273,0
2024-12-11 19:36:56.612,-2.09013,3.85693,10.917,-0.155079,-0.394073,-1.69273,0
2024-12-11 19:36:56.613,-2.09013,3.85693,10.917,-0.127591,-0.445384,-1.6909,0
2024-12-11 19:36:56.614,-2.05663,3.88564,10.9938,-0.127591,-0.445384,-1.6909,0
2024-12-11 19:36:56.617,-2.0351,3.89522,11.0776,-0.100103,-0.501582,-1.68907,0
2024-12-11 19:36:56.619,-2.03031,3.90718,11.1589,-0.0671168,-0.552893,-1.69029,0
2024-12-11 19:36:56.624,-1.98963,3.94307,11.3001,0.00618483,-0.647574,-1.68357,0
2024-12-11 19:36:56.626,-1.97049,3.94068,11.348,0.0465007,-0.683004,-1.67807,0
2024-12-11 19:36:56.626,-1.97049,3.94068,11.348,0.0465007,-0.683004,-1.67807,0
2024-12-11 19:36:56.631,-1.92951,3.90239,11.3815,0.134463,-0.742867,-1.66647,0
2024-12-11 19:36:56.633,-1.94626,3.88325,11.3767,0.134463,-0.742867,-1.66647,0
2024-12-11 19:36:56.633,-1.94626,3.88325,11.3767,0.134463,-0.742867,-1.66647,0
2024-12-11 19:36:56.635,-1.97528,3.87368,11.3408,0.227312,-0.772798,-1.64753,0
2024-12-11 19:36:56.640,-2.03749,3.82343,11.1685,0.317717,-0.785626,-1.6231,0
2024-12-11 19:36:56.641,-2.03749,3.82343,11.1685,0.317717,-0.785626,-1.6231,0
2024-12-11 19:36:56.642,-2.06381,3.79472,11.0345,0.358644,-0.785015,-1.60905,0
2024-12-11 19:36:56.646,-2.0997,3.78036,10.8882,0.438054,-0.777685,-1.57851,0
2024-12-11 19:36:56.649,-2.14277,3.75643,10.558,0.438054,-0.777685,-1.57851,0
2024-12-11 19:36:56.652,-2.15474,3.76361,10.3711,0.496084,-0.761192,-1.54124,0
2024-12-11 19:36:56.654,-2.16192,3.77557,10.1749,0.525405,-0.747753,-1.52414,0
2024-12-11 19:36:56.655,-2.15474,3.77557,10.1749,0.545563,-0.733704,-1.50215,0
2024-12-11 19:36:56.657,-2.14995,3.77557,9.98106,0.545563,-0.733704,-1.50215,0
2024-12-11 19:36:56.659,-2.14995,3.78275,9.79173,0.565721,-0.712935,-1.48016,0
2024-12-11 19:36:56.661,-2.13799,3.80907,9.59552,0.581603,-0.693388,-1.45756,0
2024-12-11 19:36:56.664,-2.09492,3.82104,9.40888,0.596874,-0.671398,-1.43679,0
2024-12-11 19:36:56.666,-2.04467,3.80907,9.24347,0.602372,-0.65185,-1.41663,0
2024-12-11 19:36:56.668,-1.99442,3.8019,9.08315,0.610313,-0.632303,-1.39342,0
2024-12-11 19:36:56.672,-1.94148,3.82343,8.95634,0.613367,-0.613978,-1.37509,0
2024-12-11 19:36:56.673,-1.8673,3.85215,8.84148,0.614589,-0.593209,-1.35738,0
2024-12-11 19:36:56.675,-1.79551,3.89761,8.70748,0.614589,-0.571219,-1.33905,0
2024-12-11 19:36:56.679,-1.74287,3.96222,8.58993,0.611534,-0.548006,-1.32439,0
2024-12-11 19:36:56.683,-1.69262,4.06511,8.34587,0.598707,-0.504025,-1.29874,0
2024-12-11 19:36:56.683,-1.69262,4.06511,8.34587,0.598707,-0.504025,-1.29874,0
2024-12-11 19:36:56.685,-1.68305,4.1345,8.23819,0.591987,-0.483867,-1.28652,0
2024-12-11 19:36:56.687,-1.68784,4.1991,8.14726,0.580992,-0.463099,-1.27736,0
2024-12-11 19:36:56.693,-1.75962,4.29272,7.94836,0.540676,-0.412398,-1.24804,0
2024-12-11 19:36:56.694,-1.79073,4.34297,7.84786,0.540676,-0.412398,-1.24804,0
2024-12-11 19:36:56.695,-1.79073,4.34297,7.84786,0.525405,-0.400792,-1.23765,0
2024-12-11 19:36:56.698,-1.81705,4.38365,7.76411,0.525405,-0.400792,-1.23765,0
2024-12-11 19:36:56.699,-1.86491,4.42433,7.68515,0.510134,-0.389186,-1.22849,0
2024-12-11 19:36:56.701,-1.91516,4.45304,7.60858,0.498528,-0.376969,-1.21749,0
2024-12-11 19:36:56.706,-2.0016,4.5009,7.45753,0.467985,-0.365363,-1.19428,0
2024-12-11 19:36:56.709,-2.04467,4.50808,7.40489,0.453936,-0.358033,-1.18268,0
2024-12-11 19:36:56.709,-2.04467,4.50808,7.40489,0.453936,-0.358033,-1.18268,0
2024-12-11 19:36:56.712,-2.10209,4.5344,7.34985,0.421561,-0.354368,-1.16008,0
2024-12-11 19:36:56.713,-2.15952,4.57508,7.302,0.421561,-0.354368,-1.16008,0
2024-12-11 19:36:56.715,-2.2002,4.61097,7.25175,0.409344,-0.349481,-1.14725,0
2024-12-11 19:36:56.718,-2.25045,4.666,7.20628,0.393462,-0.349481,-1.13808,0
2024-12-11 19:36:56.720,-2.29591,4.71147,7.17278,0.376969,-0.353146,-1.12648,0
2024-12-11 19:36:56.722,-2.3342,4.7354,7.14168,0.361698,-0.354368,-1.11548,0
2024-12-11 19:36:56.725,-2.35813,4.77637,7.11536,0.347648,-0.360476,-1.10327,0
2024-12-11 19:36:56.727,-2.33659,4.81227,7.08904,0.335431,-0.366585,-1.09471,0
2024-12-11 19:36:56.730,-2.3342,4.86012,7.07707,0.317717,-0.368417,-1.08494,0
2024-12-11 19:36:56.732,-2.40838,4.93669,7.0675,0.300002,-0.372693,-1.07456,0
2024-12-11 19:36:56.734,-2.47537,5.02044,7.05554,0.286564,-0.378191,-1.06662,0
2024-12-11 19:36:56.738,-2.5017,5.11615,7.05314,0.257854,-0.394684,-1.04768,0
2024-12-11 19:36:56.741,-2.51845,5.27887,7.02922,0.240139,-0.405679,-1.03729,0
2024-12-11 19:36:56.742,-2.51845,5.27887,7.02922,0.221203,-0.414842,-1.02752,0
2024-12-11 19:36:56.745,-2.51845,5.36531,7.03879,0.201045,-0.425837,-1.01592,0
2024-12-11 19:36:56.746,-2.51605,5.45145,7.06032,0.201045,-0.425837,-1.01592,0
2024-12-11 19:36:56.748,-2.49691,5.54238,7.07229,0.179055,-0.437443,-1.00614,0
2024-12-11 19:36:56.751,-2.47298,5.62612,7.06511,0.157064,-0.452103,-0.992703,0
2024-12-11 19:36:56.753,-2.4347,5.70269,7.05793,0.134463,-0.462488,-0.980486,0
2024-12-11 19:36:56.756,-2.37248,5.77448,7.06511,0.108807,-0.474094,-0.968269,0
2024-12-11 19:36:56.758,-2.29831,5.82951,7.08186,0.0807082,-0.482646,-0.955441,0
2024-12-11 19:36:56.760,-2.23131,5.8678,7.09861,0.0538309,-0.486311,-0.942614,0
2024-12-11 19:36:56.763,-2.16431,5.92313,7.11775,0.0190126,-0.489976,-0.926732,0
2024-12-11 19:36:56.765,-2.09731,5.98774,7.15604,-0.00908635,-0.489365,-0.913293,0
2024-12-11 19:36:56.768,-2.0351,6.04277,7.23021,-0.0713928,-0.486311,-0.885805,0
2024-12-11 19:36:56.770,-1.97528,6.10259,7.31635,-0.0713928,-0.486311,-0.885805,0
2024-12-11 19:36:56.773,-1.91755,6.15284,7.39771,-0.1056,-0.482035,-0.871145,0
2024-12-11 19:36:56.774,-1.88883,6.20788,7.47907,-0.141029,-0.476537,-0.854041,0
2024-12-11 19:36:56.779,-1.76441,6.32513,7.67318,-0.172793,-0.47104,-0.838159,0
2024-12-11 19:36:56.779,-1.76441,6.32513,7.67318,-0.172793,-0.47104,-0.838159,0
2024-12-11 19:36:56.781,-1.72373,6.37777,7.79283,-0.244263,-0.452103,-0.81006,0
2024-12-11 19:36:56.784,-1.70219,6.40648,7.92204,-0.280303,-0.437443,-0.795399,0
2024-12-11 19:36:56.787,-1.68066,6.4352,8.068,-0.338944,-0.408122,-0.768522,0
2024-12-11 19:36:56.788,-1.67587,6.47378,8.20948,-0.338944,-0.408122,-0.768522,0
2024-12-11 19:36:56.792,-1.67348,6.49053,8.35065,-0.399418,-0.380023,-0.744699,0
2024-12-11 19:36:56.795,-1.67109,6.49532,8.7003,-0.427517,-0.365974,-0.732482,0
2024-12-11 19:36:56.796,-1.67109,6.49532,8.7003,-0.427517,-0.365974,-0.732482,0
2024-12-11 19:36:56.798,-1.6998,6.49053,8.91087,-0.453172,-0.354368,-0.720876,0
2024-12-11 19:36:56.800,-1.75005,6.45703,9.12144,-0.475774,-0.340929,-0.711713,0
2024-12-11 19:36:56.803,-1.80269,6.42563,9.31795,-0.490434,-0.330545,-0.698886,0
2024-12-11 19:36:56.806,-1.85533,6.41845,9.5022,-0.520976,-0.316495,-0.675063,0
2024-12-11 19:36:56.808,-1.88644,6.41366,9.68405,-0.520976,-0.316495,-0.675063,0
2024-12-11 19:36:56.810,-1.91276,6.40648,9.85664,-0.530139,-0.314663,-0.664678,0
2024-12-11 19:36:56.814,-1.96301,6.4352,10.206,-0.544799,-0.318328,-0.643299,0
2024-12-11 19:36:56.815,-1.96301,6.4352,10.206,-0.544799,-0.318328,-0.643299,0
2024-12-11 19:36:56.818,-1.97049,6.44238,10.3735,-0.547243,-0.314052,-0.625584,0
2024-12-11 19:36:56.820,-1.9992,6.45464,10.5365,-0.538691,-0.310387,-0.618254,0
2024-12-11 19:36:56.822,-2.0327,6.46182,10.7064,-0.538691,-0.310387,-0.618254,0
