timestamp,accel_x,accel_y,accel_z,gyro_x,gyro_y,gyro_z,step_timestamp
2024-12-11 19:40:20.162,0.174676,2.50648,9.78216,-0.0213033,0.0414613,-0.0458899,0
2024-12-11 19:40:20.162,0.174676,2.50648,9.78216,-0.0213033,0.0414613,-0.0458899,0
2024-12-11 19:40:20.162,0.174676,2.50648,9.78216,-0.0213033,0.0414613,-0.0458899,0
2024-12-11 19:40:20.162,0.174676,2.50648,9.78216,-0.0213033,0.0414613,-0.0458899,0
2024-12-11 19:40:20.162,0.174676,2.50648,9.78216,-0.0213033,0.0414613,-0.0458899,0
2024-12-11 19:40:20.163,0.174676,2.50648,9.78216,-0.0213033,0.0451263,-0.0477224,0
2024-12-11 19:40:20.163,0.174676,2.50648,9.78216,-0.0213033,0.0451263,-0.0477224,0
2024-12-11 19:40:20.163,0.174676,2.50648,9.78216,-0.0213033,0.0451263,-0.0477224,0
2024-12-11 19:40:20.164,0.155533,2.50409,9.7678,-0.0213033,0.0451263,-0.0477224,0
2024-12-11 19:40:20.164,0.155533,2.50409,9.7678,-0.0213033,0.0451263,-0.0477224,0
2024-12-11 19:40:20.164,0.155533,2.50409,9.7678,-0.0213033,0.0451263,-0.0477224,0
2024-12-11 19:40:20.165,0.155533,2.50409,9.7678,-0.0213033,0.0451263,-0.0477224,0
2024-12-11 19:40:20.165,0.155533,2.50409,9.7678,-0.0213033,0.0451263,-0.0477224,0
2024-12-11 19:40:20.167,0.12682,2.4993,9.73909,-0.0249684,0.0469589,-0.0513875,0
2024-12-11 19:40:20.167,0.12682,2.4993,9.73909,-0.0249684,0.0469589,-0.0513875,0
2024-12-11 19:40:20.167,0.12682,2.4993,9.73909,-0.0249684,0.0469589,-0.0513875,0
2024-12-11 19:40:20.167,0.12682,2.4993,9.73909,-0.0249684,0.0469589,-0.0513875,0
2024-12-11 19:40:20.167,0.12682,2.4993,9.73909,-0.0249684,0.0469589,-0.0513875,0
2024-12-11 19:40:20.169,0.0957129,2.49212,9.71755,-0.0310769,0.0494023,-0.0538309,0
2024-12-11 19:40:20.169,0.0957129,2.49212,9.71755,-0.0310769,0.0494023,-0.0538309,0
2024-12-11 19:40:20.169,0.0957129,2.49212,9.71755,-0.0310769,0.0494023,-0.0538309,0
2024-12-11 19:40:20.170,0.0957129,2.49212,9.71755,-0.0310769,0.0500131,-0.0544418,0
2024-12-11 19:40:20.170,0.0957129,2.49212,9.71755,-0.0310769,0.0500131,-0.0544418,0
2024-12-11 19:40:20.172,0.0693919,2.48495,9.71516,-0.0310769,0.0500131,-0.0544418,0
2024-12-11 19:40:20.172,0.0693919,2.48495,9.71516,-0.0310769,0.0500131,-0.0544418,0
2024-12-11 19:40:20.172,0.0693919,2.48495,9.71516,-0.0310769,0.0500131,-0.0544418,0
2024-12-11 19:40:20.174,0.0502493,2.47537,9.71755,-0.030466,0.0487914,-0.0562743,0
2024-12-11 19:40:20.174,0.0502493,2.47537,9.71755,-0.030466,0.0487914,-0.0562743,0
2024-12-11 19:40:20.174,0.0502493,2.47537,9.71755,-0.030466,0.0487914,-0.0562743,0
2024-12-11 19:40:20.175,0.0502493,2.47537,9.71755,-0.0316877,0.046348,-0.057496,0
2024-12-11 19:40:20.176,0.0358923,2.47059,9.72473,-0.0316877,0.046348,-0.057496,0
2024-12-11 19:40:20.176,0.0358923,2.47059,9.72473,-0.0316877,0.046348,-0.057496,0
2024-12-11 19:40:20.176,0.0358923,2.47059,9.72473,-0.0316877,0.046348,-0.057496,0
2024-12-11 19:40:20.176,0.0358923,2.47059,9.72473,-0.0316877,0.046348,-0.057496,0
2024-12-11 19:40:20.176,0.0358923,2.47059,9.72473,-0.0316877,0.046348,-0.057496,0
2024-12-11 19:40:20.176,0.0358923,2.47059,9.72473,-0.0316877,0.046348,-0.057496,0
2024-12-11 19:40:20.177,0.0358923,2.47059,9.72473,-0.0316877,0.046348,-0.057496,0
2024-12-11 19:40:20.181,-0.0143569,2.44427,9.71755,-0.0286335,0.0420721,-0.0581068,0
2024-12-11 19:40:20.182,-0.0143569,2.44427,9.71755,-0.0310769,0.0377962,-0.0556635,0
2024-12-11 19:40:20.182,0.00717847,2.45623,9.71755,-0.0310769,0.0377962,-0.0556635,0
2024-12-11 19:40:20.183,-0.0287139,2.44666,9.71516,-0.0310769,0.0377962,-0.0556635,0
2024-12-11 19:40:20.183,-0.0287139,2.44666,9.71516,-0.0310769,0.0377962,-0.0556635,0
2024-12-11 19:40:20.183,-0.0287139,2.44666,9.71516,-0.0310769,0.0377962,-0.0556635,0
2024-12-11 19:40:20.183,-0.0287139,2.44666,9.71516,-0.0310769,0.0377962,-0.0556635,0
2024-12-11 19:40:20.183,-0.0287139,2.44666,9.71516,-0.0310769,0.0377962,-0.0556635,0
2024-12-11 19:40:20.183,-0.0287139,2.44666,9.71516,-0.0310769,0.0377962,-0.0556635,0
2024-12-11 19:40:20.183,-0.0287139,2.44666,9.71516,-0.0310769,0.0377962,-0.0556635,0
2024-12-11 19:40:20.183,-0.0287139,2.44666,9.71516,-0.0310769,0.0377962,-0.0556635,0
2024-12-11 19:40:20.184,-0.0287139,2.44666,9.71516,-0.0310769,0.0377962,-0.0556635,0
2024-12-11 19:40:20.184,-0.0287139,2.44666,9.71516,-0.0310769,0.0377962,-0.0556635,0
2024-12-11 19:40:20.184,-0.0287139,2.44666,9.71516,-0.0310769,0.0377962,-0.0556635,0
2024-12-11 19:40:20.184,-0.0287139,2.44666,9.71516,-0.0310769,0.0377962,-0.0556635,0
2024-12-11 19:40:20.190,-0.0957129,2.43709,9.73191,-0.0219141,0.0286335,-0.0532201,0
2024-12-11 19:40:20.190,-0.0957129,2.43709,9.73191,-0.0219141,0.0286335,-0.0532201,0
2024-12-11 19:40:20.191,-0.0957129,2.43709,9.73191,-0.0219141,0.0286335,-0.0532201,0
2024-12-11 19:40:20.191,-0.0957129,2.43709,9.73191,-0.0219141,0.0286335,-0.0532201,0
2024-12-11 19:40:20.193,-0.122034,2.44666,9.71755,-0.0158057,0.0268009,-0.0519984,0
2024-12-11 19:40:20.193,-0.122034,2.44666,9.71755,-0.0158057,0.0268009,-0.0519984,0
2024-12-11 19:40:20.194,-0.122034,2.44666,9.71755,-0.0139731,0.0268009,-0.0501658,0
2024-12-11 19:40:20.194,-0.122034,2.44666,9.71755,-0.0139731,0.0268009,-0.0501658,0
2024-12-11 19:40:20.195,-0.150748,2.4347,9.71037,-0.0139731,0.0268009,-0.0501658,0
2024-12-11 19:40:20.195,-0.150748,2.4347,9.71037,-0.0139731,0.0268009,-0.0501658,0
2024-12-11 19:40:20.197,-0.16989,2.42513,9.69362,-0.00908635,0.0243575,-0.0471116,0
2024-12-11 19:40:20.198,-0.16989,2.42513,9.69362,-0.00908635,0.0243575,-0.0471116,0
2024-12-11 19:40:20.198,-0.16989,2.42513,9.69362,-0.00908635,0.0243575,-0.0471116,0
2024-12-11 19:40:20.200,-0.174676,2.42273,9.69362,-0.00786466,0.0182491,-0.0434465,0
2024-12-11 19:40:20.200,-0.174676,2.42273,9.69362,-0.00786466,0.0182491,-0.0434465,0
2024-12-11 19:40:20.201,-0.174676,2.42273,9.69362,-0.00419957,0.0164165,-0.0403923,0
2024-12-11 19:40:20.201,-0.174676,2.42273,9.69362,-0.00419957,0.0164165,-0.0403923,0
2024-12-11 19:40:20.202,-0.184247,2.40359,9.68405,-0.00419957,0.0164165,-0.0403923,0
2024-12-11 19:40:20.203,-0.184247,2.40359,9.68405,0.00251974,0.014584,-0.0385597,0
2024-12-11 19:40:20.203,-0.184247,2.40359,9.68405,0.00251974,0.014584,-0.0385597,0
2024-12-11 19:40:20.205,-0.196211,2.39163,9.66491,0.00251974,0.014584,-0.0385597,0
2024-12-11 19:40:20.205,-0.196211,2.39163,9.66491,0.00251974,0.014584,-0.0385597,0
2024-12-11 19:40:20.205,-0.196211,2.39163,9.66491,0.00251974,0.014584,-0.0385597,0
2024-12-11 19:40:20.206,-0.196211,2.39163,9.66491,0.00557398,0.00847551,-0.0355055,0
2024-12-11 19:40:20.207,-0.208176,2.41077,9.64816,0.00557398,0.00847551,-0.0355055,0
2024-12-11 19:40:20.212,-0.222533,2.39641,9.61466,0.0104608,0.00725381,-0.0324513,0
2024-12-11 19:40:20.213,-0.222533,2.39641,9.61466,0.0104608,0.00725381,-0.0324513,0
2024-12-11 19:40:20.214,-0.215354,2.39402,9.57638,0.0122933,0.00419957,-0.0269536,0
2024-12-11 19:40:20.217,-0.198604,2.39641,9.53809,0.0153475,0.000534491,-0.021456,0
2024-12-11 19:40:20.220,-0.189033,2.40598,9.50938,0.0153475,-0.0019089,-0.0202343,0
2024-12-11 19:40:20.221,-0.179462,2.40359,9.49023,0.0153475,-0.0019089,-0.0202343,0
2024-12-11 19:40:20.223,-0.16989,2.39163,9.46391,0.0159584,-0.000687203,-0.0177909,0
2024-12-11 19:40:20.226,-0.172283,2.38923,9.44238,0.0153475,-7.63559e-05,-0.0171801,0
2024-12-11 19:40:20.228,-0.167498,2.38923,9.42084,0.013515,-0.00496313,-0.0165692,0
2024-12-11 19:40:20.230,-0.131605,2.38923,9.37777,0.0122933,-0.00374144,-0.0153475,0
2024-12-11 19:40:20.233,-0.100499,2.38445,9.33709,0.00862822,-0.00557398,-0.013515,0
2024-12-11 19:40:20.235,-0.0717847,2.38206,9.32274,0.00496313,-0.00984991,-0.0129041,0
2024-12-11 19:40:20.237,-0.0334995,2.37488,9.31316,-0.00114534,-0.0122933,-0.0129041,0
2024-12-11 19:40:20.242,0.0239282,2.38923,9.3012,-0.0121406,-0.0116825,-0.0177909,0
2024-12-11 19:40:20.242,0.0239282,2.38923,9.3012,-0.0121406,-0.0116825,-0.0177909,0
2024-12-11 19:40:20.245,0.0478565,2.41555,9.27966,-0.0164165,-0.0110716,-0.0165692,0
2024-12-11 19:40:20.248,0.0598206,2.42513,9.27727,-0.022525,-0.00862822,-0.0202343,0
2024-12-11 19:40:20.249,0.0765703,2.42513,9.28924,-0.030466,-0.00801737,-0.0220669,0
2024-12-11 19:40:20.252,0.0933201,2.43948,9.29642,-0.0347419,-0.00374144,-0.0238994,0
2024-12-11 19:40:20.255,0.0981057,2.45145,9.29642,-0.046348,0.00481042,-0.0275645,0
2024-12-11 19:40:20.256,0.11007,2.44666,9.3012,-0.046348,0.00481042,-0.0275645,0
2024-12-11 19:40:20.260,0.131605,2.44427,9.30599,-0.0567324,0.0115297,-0.033673,0
2024-12-11 19:40:20.261,0.141177,2.45145,9.30838,-0.0567324,0.0115297,-0.033673,0
2024-12-11 19:40:20.263,0.148355,2.44905,9.29881,-0.0610084,0.0133623,-0.0367272,0
2024-12-11 19:40:20.266,0.177069,2.4347,9.28445,-0.0671168,0.0182491,-0.0422248,0
2024-12-11 19:40:20.268,0.198604,2.4323,9.28684,-0.0683385,0.0219141,-0.0465007,0
2024-12-11 19:40:20.270,0.193819,2.4323,9.29402,-0.0768904,0.0219141,-0.049555,0
2024-12-11 19:40:20.273,0.193819,2.4347,9.3012,-0.0848314,0.0200816,-0.0550526,0
2024-12-11 19:40:20.276,0.196211,2.42273,9.29881,-0.0884965,0.0213033,-0.057496,0
2024-12-11 19:40:20.278,0.193819,2.42034,9.29163,-0.0927724,0.0188599,-0.0611611,0
2024-12-11 19:40:20.281,0.191426,2.42273,9.29163,-0.108044,0.0121406,-0.065437,0
2024-12-11 19:40:20.283,0.193819,2.42034,9.31316,-0.108044,0.0121406,-0.065437,0
2024-12-11 19:40:20.288,0.160319,2.44427,9.35384,-0.123926,-0.00313059,-0.0703238,0
2024-12-11 19:40:20.289,0.162712,2.44188,9.38734,-0.123926,-0.00313059,-0.0703238,0
2024-12-11 19:40:20.290,0.162712,2.44188,9.38734,-0.126369,-0.00618483,-0.0715455,0
2024-12-11 19:40:20.292,0.167498,2.44188,9.43041,-0.126369,-0.00618483,-0.0715455,0
2024-12-11 19:40:20.295,0.179462,2.44188,9.48306,-0.129423,-0.0122933,-0.0703238,0
2024-12-11 19:40:20.296,0.181855,2.43948,9.54288,-0.128202,-0.0226777,-0.0709346,0
2024-12-11 19:40:20.299,0.16989,2.46341,9.6003,-0.132477,-0.0312296,-0.0709346,0
2024-12-11 19:40:20.302,0.153141,2.49212,9.65055,-0.128202,-0.0471116,-0.0697129,0
2024-12-11 19:40:20.303,0.148355,2.50409,9.71037,-0.128202,-0.0471116,-0.0697129,0
2024-12-11 19:40:20.307,0.148355,2.51845,9.75823,-0.117817,-0.0617719,-0.0691021,0
2024-12-11 19:40:20.308,0.16989,2.5331,9.78455,-0.117817,-0.0617719,-0.0691021,0
2024-12-11 19:40:20.311,0.208176,2.52592,9.81805,-0.11293,-0.0709346,-0.0684913,0
2024-12-11 19:40:20.313,0.22014,2.52323,9.85664,-0.109876,-0.0764323,-0.0678804,0
2024-12-11 19:40:20.316,0.212961,2.54267,9.88296,-0.0976592,-0.0904818,-0.0697129,0
2024-12-11 19:40:20.319,0.227318,2.56182,9.88774,-0.0976592,-0.0904818,-0.0697129,0
2024-12-11 19:40:20.320,0.244068,2.58574,9.90928,-0.0927724,-0.0996445,-0.0721563,0
2024-12-11 19:40:20.322,0.256032,2.60967,9.94038,-0.0884965,-0.109418,-0.0721563,0
2024-12-11 19:40:20.326,0.272782,2.6336,9.9667,-0.0720036,-0.1253,-0.0745997,0
2024-12-11 19:40:20.328,0.289831,2.64556,9.98345,-0.0671168,-0.133241,-0.0782648,0
2024-12-11 19:40:20.329,0.318545,2.65035,10.005,-0.0671168,-0.133241,-0.0782648,0
2024-12-11 19:40:20.332,0.330509,2.66949,10.0385,-0.0597867,-0.142404,-0.0764323,0
2024-12-11 19:40:20.334,0.354437,2.6671,10.0744,-0.050624,-0.151566,-0.0770431,0
2024-12-11 19:40:20.337,0.361615,2.6671,10.1175,-0.0396287,-0.161951,-0.0782648,0
2024-12-11 19:40:20.339,0.32333,2.69821,10.151,-0.0274118,-0.170503,-0.0782648,0
2024-12-11 19:40:20.341,0.297009,2.72453,10.1725,-0.014584,-0.173557,-0.0758214,0
2024-12-11 19:40:20.343,0.301795,2.72931,10.1677,-0.00297788,-0.177833,-0.0752106,0
2024-12-11 19:40:20.346,0.361615,2.71017,10.1222,0.0147367,-0.177222,-0.0745997,0
2024-12-11 19:40:20.348,0.445364,2.68146,10.0624,0.0281753,-0.177833,-0.0758214,0
2024-12-11 19:40:20.351,0.521934,2.64078,9.99063,0.0403923,-0.181498,-0.0800973,0
2024-12-11 19:40:20.354,0.579362,2.59771,9.89492,0.0483333,-0.185163,-0.085595,0
2024-12-11 19:40:20.356,0.641576,2.58335,9.77259,0.0519984,-0.188217,-0.0904818,0
2024-12-11 19:40:20.358,0.675075,2.59532,9.65055,0.0507767,-0.190661,-0.0959794,0
2024-12-11 19:40:20.360,0.672682,2.61207,9.55245,0.0452791,-0.193715,-0.106975,0
2024-12-11 19:40:20.362,0.682254,2.6336,9.47109,0.0385597,-0.196158,-0.115526,0
2024-12-11 19:40:20.365,0.672682,2.66471,9.41366,0.0238994,-0.199213,-0.122246,0
2024-12-11 19:40:20.367,0.660718,2.69581,9.38495,0.0110716,-0.202267,-0.128354,0
2024-12-11 19:40:20.370,0.665504,2.72692,9.34427,-0.00419957,-0.201656,-0.136295,0
2024-12-11 19:40:20.372,0.660718,2.7341,9.34666,-0.0182491,-0.202878,-0.141182,0
2024-12-11 19:40:20.374,0.660718,2.71735,9.35863,-0.0322986,-0.199823,-0.146069,0
2024-12-11 19:40:20.376,0.682254,2.70778,9.3682,-0.0481806,-0.194937,-0.152177,0
2024-12-11 19:40:20.379,0.703789,2.69581,9.4017,-0.0610084,-0.186996,-0.160118,0
2024-12-11 19:40:20.381,0.737288,2.67428,9.42323,-0.0732253,-0.176,-0.166838,0
2024-12-11 19:40:20.385,0.775574,2.65753,9.44956,-0.100103,-0.150345,-0.185163,0
2024-12-11 19:40:20.386,0.801895,2.64556,9.47827,-0.100103,-0.150345,-0.185163,0
2024-12-11 19:40:20.388,0.794716,2.63599,9.49502,-0.109265,-0.135684,-0.194937,0
2024-12-11 19:40:20.395,0.675075,2.64796,9.47827,-0.144694,-0.085595,-0.21876,0
2024-12-11 19:40:20.398,0.608076,2.65035,9.5022,-0.155079,-0.0691021,-0.223036,0
2024-12-11 19:40:20.400,0.550648,2.66949,9.51655,-0.163631,-0.0538309,-0.229144,0
2024-12-11 19:40:20.401,0.550648,2.66949,9.51655,-0.174015,-0.0397814,-0.23342,0
2024-12-11 19:40:20.403,0.507577,2.68146,9.5357,-0.174015,-0.0397814,-0.23342,0
2024-12-11 19:40:20.406,0.464507,2.67667,9.54288,-0.196616,-0.0129041,-0.24075,0
2024-12-11 19:40:20.406,0.464507,2.67667,9.54288,-0.196616,-0.0129041,-0.24075,0
2024-12-11 19:40:20.407,0.421436,2.66231,9.54527,-0.196616,-0.0129041,-0.24075,0
2024-12-11 19:40:20.409,0.392722,2.6336,9.54048,-0.205168,-0.00129805,-0.241361,0
2024-12-11 19:40:20.414,0.311366,2.59053,9.5333,-0.222883,0.0206925,-0.244415,0
2024-12-11 19:40:20.414,0.311366,2.59053,9.5333,-0.222883,0.0206925,-0.244415,0
2024-12-11 19:40:20.417,0.253639,2.56899,9.5668,-0.228991,0.0280226,-0.243804,0
2024-12-11 19:40:20.419,0.212961,2.54985,9.6003,-0.236932,0.0310769,-0.241972,0
2024-12-11 19:40:20.424,0.102891,2.54985,9.67687,-0.244873,0.0347419,-0.238918,0
2024-12-11 19:40:20.424,0.102891,2.54985,9.67687,-0.244873,0.0347419,-0.238918,0
2024-12-11 19:40:20.426,0.0574277,2.54267,9.74148,-0.250371,0.0316877,-0.235253,0
2024-12-11 19:40:20.429,0.0143569,2.53549,9.81326,-0.24976,0.0298552,-0.230977,0
2024-12-11 19:40:20.432,-0.0430708,2.51845,9.87578,-0.243041,0.0231358,-0.218149,0
2024-12-11 19:40:20.433,-0.081356,2.50409,9.95713,-0.243041,0.0231358,-0.218149,0
2024-12-11 19:40:20.435,-0.117248,2.5017,10.0217,-0.236932,0.0188599,-0.21143,0
2024-12-11 19:40:20.438,-0.157926,2.49691,10.0816,-0.228381,0.0139731,-0.206543,0
2024-12-11 19:40:20.442,-0.20339,2.46102,10.2108,-0.204557,0.000534491,-0.19005,0
2024-12-11 19:40:20.442,-0.20339,2.46102,10.2108,-0.204557,0.000534491,-0.19005,0
2024-12-11 19:40:20.445,-0.222533,2.43709,10.2658,-0.189897,-0.00557398,-0.185163,0
2024-12-11 19:40:20.448,-0.234497,2.41077,10.2945,-0.173404,-0.0153475,-0.176,0
2024-12-11 19:40:20.449,-0.241675,2.4012,10.3232,-0.173404,-0.0153475,-0.176,0
2024-12-11 19:40:20.453,-0.251246,2.39641,10.3376,-0.120871,-0.0385597,-0.152177,0
2024-12-11 19:40:20.454,-0.251246,2.39641,10.3137,-0.120871,-0.0385597,-0.152177,0
2024-12-11 19:40:20.459,-0.241675,2.39163,10.2897,-0.086664,-0.0440574,-0.13263,0
2024-12-11 19:40:20.461,-0.236889,2.4012,10.2538,-0.0652843,-0.0483333,-0.122246,0
2024-12-11 19:40:20.464,-0.232104,2.39641,10.2036,-0.0487914,-0.0477224,-0.116137,0
2024-12-11 19:40:20.464,-0.232104,2.39641,10.2036,-0.0487914,-0.0477224,-0.116137,0
2024-12-11 19:40:20.466,-0.208176,2.38684,10.1629,-0.0335202,-0.0465007,-0.106364,0
2024-12-11 19:40:20.469,-0.189033,2.38445,10.0983,-0.0170274,-0.0477224,-0.0953685,0
2024-12-11 19:40:20.472,-0.155533,2.37966,10.0193,0.00679568,-0.0440574,-0.0800973,0
2024-12-11 19:40:20.473,-0.124427,2.37727,9.95953,0.00679568,-0.0440574,-0.0800973,0
2024-12-11 19:40:20.476,-0.0909273,2.38445,9.87338,0.0196235,-0.0440574,-0.0739889,0
2024-12-11 19:40:20.478,-0.0454636,2.37966,9.78455,0.0275645,-0.0391706,-0.0660479,0
2024-12-11 19:40:20.480,-0.0191426,2.3677,9.70798,0.033673,-0.0348946,-0.0623828,0
2024-12-11 19:40:20.482,0.00239282,2.37727,9.62184,0.0385597,-0.0348946,-0.0599394,0
2024-12-11 19:40:20.486,0.0334995,2.38206,9.5357,0.0422248,-0.0208452,-0.0550526,0
2024-12-11 19:40:20.487,0.0430708,2.38923,9.46152,0.0422248,-0.0208452,-0.0550526,0
2024-12-11 19:40:20.491,0.0550349,2.41795,9.38734,0.0422248,-0.00984991,-0.0513875,0
2024-12-11 19:40:20.492,0.066999,2.41795,9.29881,0.0422248,-0.00984991,-0.0513875,0
2024-12-11 19:40:20.495,0.0693919,2.41077,9.22912,0.0361163,0.00175619,-0.0550526,0
2024-12-11 19:40:20.497,0.0789631,2.40838,9.18844,0.0361163,0.00175619,-0.0550526,0
2024-12-11 19:40:20.500,0.0837488,2.39641,9.1334,0.0245102,0.0115297,-0.0593285,0
2024-12-11 19:40:20.501,0.0837488,2.40598,9.07119,0.0245102,0.0115297,-0.0593285,0
2024-12-11 19:40:20.505,0.0933201,2.40838,9.03051,0.0147367,0.0255792,-0.0660479,0
2024-12-11 19:40:20.506,0.0741775,2.38445,8.98983,0.0147367,0.0255792,-0.0660479,0
2024-12-11 19:40:20.509,0.040678,2.36531,8.96112,0.00862822,0.0329094,-0.0697129,0
2024-12-11 19:40:20.512,0.0215354,2.34856,8.94916,-0.00175619,0.0414613,-0.0764323,0
2024-12-11 19:40:20.513,-0.00478565,2.34138,8.94437,-0.00175619,0.0414613,-0.0764323,0
2024-12-11 19:40:20.516,-0.0311067,2.33659,8.94198,-0.00725381,0.0457372,-0.0788757,0
2024-12-11 19:40:20.518,-0.0622134,2.33659,8.93959,-0.0133623,0.0457372,-0.0837624,0
2024-12-11 19:40:20.521,-0.102891,2.31745,8.9348,-0.0158057,0.0500131,-0.0837624,0
2024-12-11 19:40:20.524,-0.141177,2.27199,8.90848,-0.0213033,0.0567324,-0.0831516,0
2024-12-11 19:40:20.525,-0.16989,2.23849,8.87498,-0.0213033,0.0567324,-0.0831516,0
2024-12-11 19:40:20.528,-0.184247,2.22652,8.87498,-0.0268009,0.0616192,-0.081319,0
2024-12-11 19:40:20.531,-0.196211,2.23609,8.89412,-0.0280226,0.0622301,-0.0788757,0
2024-12-11 19:40:20.533,-0.208176,2.22652,8.89891,-0.0280226,0.0646735,-0.0764323,0
2024-12-11 19:40:20.534,-0.222533,2.21456,8.90848,-0.0280226,0.0646735,-0.0764323,0
2024-12-11 19:40:20.537,-0.224925,2.21934,8.92044,-0.0261901,0.0658951,-0.0739889,0
2024-12-11 19:40:20.539,-0.224925,2.22413,8.91805,-0.0292443,0.066506,-0.0709346,0
2024-12-11 19:40:20.542,-0.227318,2.2337,8.89891,-0.0274118,0.066506,-0.0697129,0
2024-12-11 19:40:20.544,-0.248854,2.23609,8.8678,-0.0274118,0.0652843,-0.065437,0
2024-12-11 19:40:20.546,-0.258425,2.25045,8.85105,-0.0274118,0.0640626,-0.0587177,0
2024-12-11 19:40:20.548,-0.248854,2.26959,8.85823,-0.0286335,0.0616192,-0.0538309,0
2024-12-11 19:40:20.551,-0.244068,2.2672,8.84626,-0.0255792,0.0579541,-0.0452791,0
2024-12-11 19:40:20.553,-0.248854,2.28156,8.82473,-0.0249684,0.0555107,-0.0361163,0
2024-12-11 19:40:20.555,-0.227318,2.30309,8.81277,-0.0268009,0.0481806,-0.0287862,0
2024-12-11 19:40:20.559,-0.167498,2.30309,8.78644,-0.0292443,0.0280226,-0.0159584,0
2024-12-11 19:40:20.561,-0.102891,2.30309,8.76012,-0.0329094,0.0170274,-0.0104608,0
2024-12-11 19:40:20.563,-0.0334995,2.30788,8.73859,-0.0329094,0.0170274,-0.0104608,0
2024-12-11 19:40:20.566,0.0334995,2.31745,8.71227,-0.0445155,-0.0104608,-0.00496313,0
2024-12-11 19:40:20.567,0.119641,2.34138,8.68804,-0.0445155,-0.0104608,-0.00496313,0
2024-12-11 19:40:20.570,0.215354,2.34856,8.65933,-0.0524565,-0.0312296,-0.00435229,0
2024-12-11 19:40:20.572,0.30658,2.35813,8.62104,-0.066506,-0.0501658,-0.00435229,0
2024-12-11 19:40:20.575,0.404686,2.39163,8.61865,-0.0964375,-0.0898709,-0.0159584,0
2024-12-11 19:40:20.577,0.524327,2.41555,8.63301,-0.0964375,-0.0898709,-0.0159584,0
2024-12-11 19:40:20.579,0.660718,2.42752,8.63779,-0.114763,-0.114305,-0.0220669,0
2024-12-11 19:40:20.581,0.770788,2.44905,8.64736,-0.134921,-0.135684,-0.0330621,0
2024-12-11 19:40:20.585,0.864407,2.48734,8.68804,-0.158133,-0.157675,-0.0471116,0
2024-12-11 19:40:20.586,0.962513,2.51605,8.74816,-0.180124,-0.176611,-0.0605502,0
2024-12-11 19:40:20.588,1.05344,2.53549,8.80559,-0.202725,-0.185774,-0.0764323,0
2024-12-11 19:40:20.591,1.14915,2.57139,8.88934,-0.228991,-0.196769,-0.0929251,0
2024-12-11 19:40:20.593,1.25444,2.61207,8.98266,-0.252814,-0.20471,-0.108807,0
2024-12-11 19:40:20.597,1.34536,2.64556,9.06162,-0.303515,-0.202267,-0.149734,0
2024-12-11 19:40:20.598,1.41984,2.66231,9.15733,-0.303515,-0.202267,-0.149734,0
2024-12-11 19:40:20.600,1.4988,2.66231,9.26531,-0.325505,-0.195547,-0.171114,0
2024-12-11 19:40:20.604,1.57537,2.67428,9.36341,-0.370708,-0.167449,-0.217538,0
2024-12-11 19:40:20.606,1.64477,2.69342,9.45913,-0.370708,-0.167449,-0.217538,0
2024-12-11 19:40:20.607,1.69023,2.70539,9.54288,-0.395142,-0.14668,-0.24075,0
2024-12-11 19:40:20.612,1.75723,2.75803,9.71516,-0.438512,-0.0886492,-0.288396,0
2024-12-11 19:40:20.612,1.75723,2.75803,9.71516,-0.438512,-0.0886492,-0.288396,0
2024-12-11 19:40:20.617,1.77637,2.79871,9.84946,-0.475774,-0.0177909,-0.334821,0
2024-12-11 19:40:20.618,1.77876,2.79871,9.84946,-0.49471,0.0213033,-0.3562,0
2024-12-11 19:40:20.621,1.73809,2.80588,9.95235,-0.513646,0.058565,-0.375747,0
2024-12-11 19:40:20.622,1.73809,2.80588,9.95235,-0.513646,0.058565,-0.375747,0
2024-12-11 19:40:20.624,1.69023,2.82742,9.98345,-0.527085,0.0976592,-0.395905,0
2024-12-11 19:40:20.627,1.65434,2.82981,9.98824,-0.557627,0.187454,-0.432556,0
2024-12-11 19:40:20.629,1.6328,2.79871,9.94756,-0.557627,0.187454,-0.432556,0
2024-12-11 19:40:20.632,1.63041,2.77956,9.88056,-0.593667,0.274194,-0.464931,0
2024-12-11 19:40:20.634,1.61127,2.73649,9.83271,-0.613214,0.311456,-0.483257,0
2024-12-11 19:40:20.637,1.55623,2.69342,9.79652,-0.635205,0.342609,-0.499139,0
2024-12-11 19:40:20.639,1.47009,2.67906,9.73191,-0.66025,0.369486,-0.508301,0
2024-12-11 19:40:20.640,1.35015,2.69103,9.65773,-0.66025,0.369486,-0.508301,0
2024-12-11 19:40:20.643,1.23051,2.71496,9.60509,-0.682851,0.389033,-0.521129,0
2024-12-11 19:40:20.647,0.99362,2.78196,9.54766,-0.737216,0.414078,-0.532735,0
2024-12-11 19:40:20.647,0.99362,2.78196,9.54766,-0.737216,0.414078,-0.532735,0
2024-12-11 19:40:20.650,0.869193,2.81785,9.53809,-0.759207,0.418354,-0.534568,0
2024-12-11 19:40:20.653,0.754038,2.85135,9.5333,-0.806242,0.415911,-0.533957,0
2024-12-11 19:40:20.654,0.643968,2.88963,9.55005,-0.806242,0.415911,-0.533957,0
2024-12-11 19:40:20.657,0.54347,2.9327,9.59552,-0.828843,0.410413,-0.528459,0
2024-12-11 19:40:20.660,0.476471,2.9662,9.6697,-0.84839,0.405526,-0.524794,0
2024-12-11 19:40:20.662,0.426222,3.0021,9.76062,-0.867327,0.396974,-0.517464,0
2024-12-11 19:40:20.664,0.383151,3.03799,9.84706,-0.880155,0.389644,-0.508912,0
2024-12-11 19:40:20.666,0.352044,3.07149,9.94995,-0.889317,0.376816,-0.501582,0
2024-12-11 19:40:20.670,0.344866,3.10768,10.0648,-0.899091,0.35788,-0.486311,0
2024-12-11 19:40:20.672,0.359223,3.14836,10.1749,-0.899091,0.35788,-0.486311,0
2024-12-11 19:40:20.673,0.364008,3.19861,10.2993,-0.89848,0.346885,-0.478981,0
2024-12-11 19:40:20.676,0.366401,3.24168,10.4169,-0.888706,0.33589,-0.47104,0
2024-12-11 19:40:20.679,0.371187,3.27039,10.503,-0.882598,0.324284,-0.463709,0
2024-12-11 19:40:20.680,0.383151,3.3015,10.5724,-0.882598,0.324284,-0.463709,0
2024-12-11 19:40:20.684,0.402293,3.32782,10.6394,-0.834341,0.297406,-0.444162,0
2024-12-11 19:40:20.687,0.454935,3.37328,10.7518,-0.834341,0.297406,-0.444162,0
2024-12-11 19:40:20.690,0.476471,3.40678,10.783,-0.796468,0.276637,-0.433778,0
2024-12-11 19:40:20.691,0.476471,3.40678,10.783,-0.796468,0.276637,-0.433778,0
2024-12-11 19:40:20.693,0.481256,3.41396,10.7806,-0.749433,0.254647,-0.42828,0
2024-12-11 19:40:20.694,0.486042,3.42353,10.7758,-0.749433,0.254647,-0.42828,0
2024-12-11 19:40:20.697,0.495613,3.43789,10.7782,-0.726832,0.241208,-0.422783,0
2024-12-11 19:40:20.699,0.490828,3.44985,10.7734,-0.702398,0.228991,-0.420339,0
2024-12-11 19:40:20.702,0.471685,3.47378,10.771,-0.679797,0.217996,-0.417896,0
2024-12-11 19:40:20.704,0.438186,3.5001,10.7471,-0.652919,0.208223,-0.412398,0
2024-12-11 19:40:20.706,0.411865,3.50728,10.7231,-0.627264,0.194784,-0.406901,0
2024-12-11 19:40:20.710,0.402293,3.51446,10.716,-0.569844,0.173404,-0.39957,0
2024-12-11 19:40:20.712,0.378365,3.52164,10.704,-0.538691,0.164242,-0.39224,0
2024-12-11 19:40:20.713,0.337687,3.52882,10.6872,-0.538691,0.164242,-0.39224,0
2024-12-11 19:40:20.716,0.297009,3.55992,10.6609,-0.506927,0.152635,-0.382467,0
2024-12-11 19:40:20.724,0.193819,3.56231,10.5174,-0.363378,0.129423,-0.344594,0
2024-12-11 19:40:20.724,0.193819,3.56231,10.5174,-0.363378,0.129423,-0.344594,0
2024-12-11 19:40:20.726,0.148355,3.5671,10.4408,-0.363378,0.129423,-0.344594,0
2024-12-11 19:40:20.726,0.148355,3.5671,10.4408,-0.363378,0.129423,-0.344594,0
2024-12-11 19:40:20.727,0.129212,3.55992,10.3328,-0.326727,0.128812,-0.333599,0
2024-12-11 19:40:20.730,0.0957129,3.54796,10.2108,-0.292519,0.125758,-0.323825,0
2024-12-11 19:40:20.732,0.0382852,3.53839,10.0816,-0.255258,0.128812,-0.31283,0
2024-12-11 19:40:20.734,0.0119641,3.51924,9.92363,-0.22105,0.128202,-0.301835,0
2024-12-11 19:40:20.737,-0.0191426,3.50249,9.7678,-0.190508,0.128812,-0.290229,0
2024-12-11 19:40:20.740,-0.0693919,3.47378,9.60987,-0.163631,0.133088,-0.278623,0
2024-12-11 19:40:20.744,-0.124427,3.44507,9.25544,-0.109265,0.138586,-0.2548,0
2024-12-11 19:40:20.745,-0.167498,3.44507,9.25544,-0.109265,0.138586,-0.2548,0
2024-12-11 19:40:20.746,-0.215354,3.45942,9.09273,-0.094605,0.137364,-0.243804,0
2024-12-11 19:40:20.749,-0.272782,3.47617,8.93959,-0.0689494,0.141029,-0.230366,0
2024-12-11 19:40:20.752,-0.304188,3.46182,8.77687,-0.0548999,0.143473,-0.219981,0
2024-12-11 19:40:20.765,-0.471685,3.49771,7.92443,-0.0548999,0.143473,-0.219981,0
2024-12-11 19:40:20.765,-0.483649,3.49771,7.92443,-0.0548999,0.143473,-0.219981,0
2024-12-11 19:40:20.765,-0.483649,3.49771,7.92443,-0.0548999,0.143473,-0.219981,0
2024-12-11 19:40:20.766,-0.483649,3.49771,7.92443,-0.0548999,0.143473,-0.219981,0
2024-12-11 19:40:20.767,-0.514756,3.50728,7.84307,-0.0548999,0.143473,-0.219981,0
2024-12-11 19:40:20.770,-0.54347,3.53121,7.76411,-0.0200816,0.082388,-0.158897,0
2024-12-11 19:40:20.772,-0.576969,3.55035,7.67558,-0.0237467,0.0720036,-0.157675,0
2024-12-11 19:40:20.775,-0.62004,3.57189,7.60379,-0.0261901,0.0591758,-0.156453,0
2024-12-11 19:40:20.775,-0.62004,3.57189,7.60379,-0.0261901,0.0591758,-0.156453,0
2024-12-11 19:40:20.776,-0.62004,3.57189,7.60379,-0.0335202,0.0475697,-0.156453,0
2024-12-11 19:40:20.777,-0.667897,3.58624,7.55564,-0.0335202,0.0475697,-0.156453,0
2024-12-11 19:40:20.780,-0.71336,3.60299,7.51735,-0.0396287,0.0335202,-0.158286,0
2024-12-11 19:40:20.782,-0.744467,3.63171,7.48864,-0.0451263,0.0231358,-0.160729,0
2024-12-11 19:40:20.784,-0.773181,3.65833,7.47667,-0.0518457,0.0127514,-0.160729,0
2024-12-11 19:40:20.786,-0.799502,3.67747,7.47189,-0.0567324,0.00175619,-0.165005,0
2024-12-11 19:40:20.790,-0.825823,3.68465,7.46471,-0.0610084,-0.00862822,-0.16867,0
2024-12-11 19:40:20.791,-0.857229,3.68943,7.45275,-0.0658951,-0.0171801,-0.171724,0
2024-12-11 19:40:20.793,-0.9003,3.7014,7.43121,-0.0695602,-0.0269536,-0.177222,0
2024-12-11 19:40:20.796,-0.929013,3.71097,7.42403,-0.0720036,-0.0324513,-0.179665,0
2024-12-11 19:40:20.798,-0.955334,3.699,7.42642,-0.0750579,-0.0403923,-0.184552,0
2024-12-11 19:40:20.801,-0.996012,3.69661,7.40967,-0.0781121,-0.0501658,-0.19005,0
2024-12-11 19:40:20.804,-1.04865,3.7014,7.39292,-0.082388,-0.0587177,-0.193715,0
2024-12-11 19:40:20.805,-1.10608,3.7014,7.38335,-0.0872748,-0.0672696,-0.195547,0
2024-12-11 19:40:20.808,-1.16112,3.71336,7.369,-0.090329,-0.0758214,-0.197991,0
2024-12-11 19:40:20.811,-1.1994,3.71336,7.35703,-0.0964375,-0.0849841,-0.199823,0
2024-12-11 19:40:20.815,-1.27119,3.699,7.32832,-0.111098,-0.10392,-0.19738,0
2024-12-11 19:40:20.815,-1.27119,3.699,7.32832,-0.111098,-0.10392,-0.19738,0
2024-12-11 19:40:20.817,-1.32383,3.68465,7.31875,-0.117817,-0.112472,-0.194326,0
2024-12-11 19:40:20.819,-1.36211,3.67986,7.31396,-0.128202,-0.128354,-0.193715,0
2024-12-11 19:40:20.822,-1.37647,3.68465,7.30439,-0.139197,-0.141793,-0.19005,0
2024-12-11 19:40:20.824,-1.38604,3.68226,7.31635,-0.151414,-0.160729,-0.188217,0
2024-12-11 19:40:20.826,-1.38844,3.66311,7.3355,-0.164242,-0.179665,-0.183331,0
2024-12-11 19:40:20.829,-1.38844,3.64128,7.34746,-0.17768,-0.202267,-0.181498,0
2024-12-11 19:40:20.832,-1.37886,3.64128,7.38335,-0.188675,-0.22609,-0.178444,0
2024-12-11 19:40:20.833,-1.36929,3.64367,7.44317,-0.205779,-0.252356,-0.174779,0
2024-12-11 19:40:20.836,-1.34776,3.64606,7.51257,-0.22105,-0.277401,-0.173557,0
2024-12-11 19:40:20.838,-1.34058,3.64606,7.60379,-0.237543,-0.303667,-0.173557,0
2024-12-11 19:40:20.841,-1.32383,3.66311,7.70908,-0.254036,-0.330545,-0.172335,0
2024-12-11 19:40:20.844,-1.27837,3.67747,7.82632,-0.269918,-0.357422,-0.174779,0
2024-12-11 19:40:20.848,-1.21137,3.68943,8.14487,-0.30046,-0.413009,-0.179665,0
2024-12-11 19:40:20.848,-1.21137,3.68943,8.14487,-0.30046,-0.413009,-0.179665,0
2024-12-11 19:40:20.851,-1.1683,3.70618,8.3004,-0.315732,-0.438665,-0.182109,0
2024-12-11 19:40:20.852,-1.12522,3.73011,8.47269,-0.330392,-0.463709,-0.183941,0
2024-12-11 19:40:20.855,-1.08933,3.76361,8.6689,-0.339555,-0.487532,-0.19005,0
2024-12-11 19:40:20.857,-1.05583,3.8019,8.88216,-0.347496,-0.50708,-0.196769,0
2024-12-11 19:40:20.860,-1.01994,3.82104,9.11187,-0.347496,-0.50708,-0.196769,0
2024-12-11 19:40:20.862,-0.998405,3.83061,9.34188,-0.363989,-0.544341,-0.209597,0
2024-12-11 19:40:20.865,-0.981655,3.86411,9.57398,-0.364599,-0.559612,-0.217538,0
2024-12-11 19:40:20.866,-0.97687,3.89043,9.8013,-0.36521,-0.571829,-0.224257,0
2024-12-11 19:40:20.869,-0.991227,3.9,10.0241,-0.36521,-0.580381,-0.231587,0
2024-12-11 19:40:20.871,-1.00798,3.92632,10.2538,-0.360324,-0.587101,-0.239528,0
2024-12-11 19:40:20.874,-1.02951,3.94547,10.4862,-0.352383,-0.589544,-0.248691,0
2024-12-11 19:40:20.876,-1.04865,3.95025,10.7088,-0.343831,-0.590155,-0.255411,0
2024-12-11 19:40:20.879,-1.07498,3.97897,10.9289,-0.316343,-0.580992,-0.268849,0
2024-12-11 19:40:20.882,-1.11326,4.02204,11.1494,-0.298017,-0.570608,-0.272514,0
2024-12-11 19:40:20.885,-1.17308,4.05314,11.5469,-0.276637,-0.556558,-0.277401,0
2024-12-11 19:40:20.885,-1.2329,4.05314,11.5469,-0.276637,-0.556558,-0.277401,0
2024-12-11 19:40:20.888,-1.29272,4.05075,11.7215,-0.254647,-0.541898,-0.279844,0
2024-12-11 19:40:20.890,-1.37408,4.03639,11.8651,-0.228991,-0.522351,-0.280455,0
2024-12-11 19:40:20.897,-1.5012,3.92872,12.198,-0.152025,-0.450882,-0.273125,0
2024-12-11 19:40:20.897,-1.5012,3.92872,12.198,-0.152025,-0.450882,-0.273125,0
2024-12-11 19:40:20.899,-1.54905,3.88564,12.2698,-0.125758,-0.425837,-0.265795,0
2024-12-11 19:40:20.903,-1.58016,3.86172,12.3105,-0.074447,-0.367196,-0.249302,0
2024-12-11 19:40:20.903,-1.58016,3.86172,12.3105,-0.074447,-0.367196,-0.249302,0
2024-12-11 19:40:20.904,-1.61366,3.81386,12.344,-0.074447,-0.367196,-0.249302,0
2024-12-11 19:40:20.907,-1.64477,3.75165,12.3512,-0.0512348,-0.336653,-0.238307,0
2024-12-11 19:40:20.909,-1.66869,3.71815,12.3296,-0.0286335,-0.306111,-0.22609,0
2024-12-11 19:40:20.911,-1.69023,3.67986,12.3105,-0.00786466,-0.273736,-0.21204,0
2024-12-11 19:40:20.914,-1.6998,3.61496,12.2961,0.0104608,-0.24075,-0.198602,0
2024-12-11 19:40:20.916,-1.70219,3.5671,12.2722,0.0269536,-0.209597,-0.182109,0
2024-12-11 19:40:20.918,-1.68784,3.52403,12.2219,0.0410031,-0.182109,-0.165616,0
2024-12-11 19:40:20.922,-1.67348,3.48096,12.1645,0.0513875,-0.151566,-0.149734,0
2024-12-11 19:40:20.923,-1.66869,3.4355,12.1262,0.0617719,-0.124078,-0.135684,0
2024-12-11 19:40:20.925,-1.65673,3.39482,12.0903,0.0691021,-0.0965902,-0.117359,0
2024-12-11 19:40:20.928,-1.64716,3.3685,12.0565,0.0745997,-0.0697129,-0.101477,0
2024-12-11 19:40:20.930,-1.6328,3.33978,12.035,0.0794865,-0.0458899,-0.0868167,0
2024-12-11 19:40:20.932,-1.60409,3.31107,12.0206,0.0849841,-0.0220669,-0.0703238,0
2024-12-11 19:40:20.935,-1.57298,3.29432,12.0039,0.0849841,-0.0220669,-0.0703238,0
2024-12-11 19:40:20.937,-1.51795,3.26082,11.98,0.0910926,0.0188599,-0.0446682,0
2024-12-11 19:40:20.940,-1.46291,3.21775,11.9513,0.0892601,0.0377962,-0.0348946,0
2024-12-11 19:40:20.942,-1.41506,3.18425,11.9393,0.093536,0.0536782,-0.0245102,0
2024-12-11 19:40:20.944,-1.35494,3.15553,11.9417,0.093536,0.0695602,-0.0196235,0
2024-12-11 19:40:20.946,-1.28554,3.12682,11.9465,0.0910926,0.082388,-0.0171801,0
2024-12-11 19:40:20.949,-1.21376,3.10529,11.9513,0.0910926,0.082388,-0.0171801,0
2024-12-11 19:40:20.952,-1.13958,3.09332,11.9489,0.0880384,0.120261,-0.0153475,0
2024-12-11 19:40:20.954,-1.08215,3.08854,11.9536,0.0880384,0.120261,-0.0153475,0
2024-12-11 19:40:20.957,-1.03908,3.09332,11.968,0.0849841,0.143473,-0.0208452,0
2024-12-11 19:40:20.958,-0.984048,3.09571,11.9871,0.0849841,0.143473,-0.0208452,0
2024-12-11 19:40:20.962,-0.931406,3.08584,12.0135,0.0794865,0.156911,-0.0245102,0
2024-12-11 19:40:20.964,-0.907478,3.05713,12.0206,0.0715455,0.179513,-0.0355055,0
2024-12-11 19:40:20.966,-0.909871,3.03081,12.0254,0.0642153,0.192951,-0.0410031,0
2024-12-11 19:40:20.968,-0.919442,3.04517,12.0541,0.0642153,0.192951,-0.0410031,0
2024-12-11 19:40:20.970,-0.933799,3.0667,12.0808,0.0617719,0.205168,-0.0434465,0
2024-12-11 19:40:20.972,-0.964906,3.07867,12.1095,0.057496,0.22105,-0.0489441,0
2024-12-11 19:40:20.975,-1.01755,3.09811,12.1214,0.0556635,0.234489,-0.0519984,0
2024-12-11 19:40:20.978,-1.07498,3.11246,12.131,0.0471116,0.268086,-0.049555,0
2024-12-11 19:40:20.979,-1.13719,3.10289,12.1406,0.0471116,0.268086,-0.049555,0
2024-12-11 19:40:20.982,-1.21137,3.09093,12.119,0.0471116,0.285189,-0.0471116,0
2024-12-11 19:40:20.984,-1.29033,3.08345,12.0951,0.0410031,0.301071,-0.0422248,0
2024-12-11 19:40:20.987,-1.36211,3.08106,12.0736,0.0361163,0.318175,-0.0355055,0
2024-12-11 19:40:20.989,-1.4342,3.09811,12.0278,0.0306187,0.334057,-0.0281753,0
2024-12-11 19:40:20.994,-1.51795,3.12204,11.9824,0.0190126,0.368875,-0.0019089,0
2024-12-11 19:40:20.995,-1.59691,3.13879,11.9465,0.013515,0.38659,0.0139731,0
2024-12-11 19:40:20.996,-1.67109,3.14836,11.9178,0.013515,0.38659,0.0139731,0
2024-12-11 19:40:20.998,-1.74527,3.15314,11.8866,0.0019089,0.401861,0.030466,0
2024-12-11 19:40:21.001,-1.81466,3.16032,11.8436,0.0019089,0.401861,0.030466,0
2024-12-11 19:40:21.004,-1.87448,3.17946,11.8125,-0.0200816,0.436069,0.0891073,0
2024-12-11 19:40:21.006,-1.91276,3.201,11.7694,-0.0200816,0.436069,0.0891073,0
2024-12-11 19:40:21.008,-1.9343,3.21775,11.7311,-0.0310769,0.442788,0.111098,0
2024-12-11 19:40:21.010,-1.95344,3.23928,11.6928,-0.0365745,0.45134,0.13431,0
2024-12-11 19:40:21.012,-1.97049,3.24646,11.6402,-0.046348,0.460502,0.158133,0
2024-12-11 19:40:21.015,-1.97288,3.24885,11.578,-0.0548999,0.467222,0.180734,0
2024-12-11 19:40:21.017,-1.9657,3.25603,11.5229,-0.0640626,0.469054,0.205779,0
2024-12-11 19:40:21.019,-1.95105,3.25125,11.4748,-0.0762796,0.470276,0.231435,0
2024-12-11 19:40:21.022,-1.93908,3.2656,11.4341,-0.0860531,0.468443,0.253425,0
2024-12-11 19:40:21.025,-1.91276,3.268,11.3934,-0.111709,0.453783,0.302904,0
2024-12-11 19:40:21.027,-1.87687,3.2656,11.3719,-0.111709,0.453783,0.302904,0
2024-12-11 19:40:21.030,-1.81705,3.27278,11.3743,-0.136143,0.423852,0.351161,0
2024-12-11 19:40:21.031,-1.74048,3.27996,11.3743,-0.136143,0.423852,0.351161,0
2024-12-11 19:40:21.034,-1.65673,3.27757,11.3839,-0.146527,0.404305,0.373762,0
2024-12-11 19:40:21.036,-1.52991,3.27278,11.4174,-0.160576,0.388422,0.394531,0
2024-12-11 19:40:21.038,-1.37408,3.29671,11.4604,-0.174015,0.369486,0.414078,0
2024-12-11 19:40:21.041,-1.22812,3.31107,11.5277,-0.183789,0.35055,0.429349,0
2024-12-11 19:40:21.043,-1.08215,3.31825,11.6019,-0.190508,0.331003,0.44462,0
2024-12-11 19:40:21.045,-0.945763,3.34935,11.6545,-0.196006,0.316953,0.456227,0
2024-12-11 19:40:21.048,-0.825823,3.38764,11.7168,-0.202114,0.298628,0.466,0
2024-12-11 19:40:21.050,-0.701396,3.42114,11.7933,-0.208223,0.283968,0.475774,0
2024-12-11 19:40:21.052,-0.596112,3.4355,11.8747,-0.211277,0.270529,0.484326,0
2024-12-11 19:40:21.055,-0.498006,3.45224,11.9465,-0.216164,0.258923,0.491045,0
2024-12-11 19:40:21.057,-0.402293,3.47617,12.023,-0.215553,0.248538,0.495932,0
2024-12-11 19:40:21.060,-0.318545,3.50249,12.0975,-0.213109,0.239376,0.501429,0
2024-12-11 19:40:21.062,-0.234497,3.52642,12.1693,-0.210055,0.232046,0.507538,0
2024-12-11 19:40:21.065,-0.165105,3.54556,12.265,-0.200892,0.226548,0.512424,0
2024-12-11 19:40:21.067,-0.0933201,3.55753,12.344,-0.200892,0.226548,0.512424,0
2024-12-11 19:40:21.070,-0.0239282,3.58624,12.4038,-0.190508,0.230824,0.5167,0
2024-12-11 19:40:21.074,0.0646062,3.62214,12.533,-0.168517,0.247317,0.526474,0
2024-12-11 19:40:21.074,0.0646062,3.62214,12.533,-0.168517,0.247317,0.526474,0
2024-12-11 19:40:21.076,0.11007,3.62214,12.5785,-0.168517,0.247317,0.526474,0
2024-12-11 19:40:21.079,0.12682,3.64367,12.6239,-0.135532,0.2858,0.539302,0
2024-12-11 19:40:21.081,0.131605,3.65593,12.6649,-0.114763,0.310234,0.547854,0
2024-12-11 19:40:21.084,0.122034,3.65833,12.6625,-0.0970484,0.337722,0.555795,0
2024-12-11 19:40:21.085,0.114855,3.67986,12.6386,-0.0750579,0.370097,0.56679,0
2024-12-11 19:40:21.088,0.105284,3.68704,12.5904,-0.050624,0.405526,0.580839,0
2024-12-11 19:40:21.090,0.102891,3.68465,12.521,-0.0255792,0.447064,0.593056,0
2024-12-11 19:40:21.095,0.0957129,3.70379,12.3488,0.0245102,0.521587,0.621155,0
2024-12-11 19:40:21.096,0.0574277,3.70379,12.3488,0.0526092,0.55213,0.636427,0
2024-12-11 19:40:21.098,0.00717847,3.72772,12.2124,0.0770431,0.572898,0.652309,0
2024-12-11 19:40:21.100,-0.0334995,3.73011,12.0541,0.0770431,0.572898,0.652309,0
2024-12-11 19:40:21.102,-0.0430708,3.71336,11.8819,0.0972011,0.584504,0.663304,0
2024-12-11 19:40:21.104,-0.0167498,3.67268,11.6904,0.117359,0.577174,0.67491,0
2024-12-11 19:40:21.108,0.0311067,3.60778,11.4796,0.144236,0.525252,0.681629,0
2024-12-11 19:40:21.110,0.0933201,3.54796,11.2618,0.144236,0.48005,0.681018,0
2024-12-11 19:40:21.112,0.150748,3.49532,11.0656,0.144236,0.48005,0.681018,0
2024-12-11 19:40:21.114,0.224925,3.44507,10.9146,0.143625,0.417743,0.673688,0
2024-12-11 19:40:21.116,0.335294,3.38285,10.8117,0.138739,0.338944,0.66025,0
2024-12-11 19:40:21.118,0.457328,3.29193,10.7399,0.130187,0.243652,0.640092,0
2024-12-11 19:40:21.121,0.593719,3.20818,10.6849,0.118581,0.136143,0.615047,0
2024-12-11 19:40:21.123,0.732503,3.12204,10.6896,0.100255,0.0200816,0.583283,0
2024-12-11 19:40:21.125,0.878764,3.02842,10.7638,0.0825407,-0.102699,0.544189,0
2024-12-11 19:40:21.129,1.02951,2.9662,10.9026,0.0434465,-0.3562,0.455005,0
2024-12-11 19:40:21.131,1.17308,2.89681,11.1254,0.0434465,-0.3562,0.455005,0
2024-12-11 19:40:21.133,1.28794,2.81306,11.3862,0.0251211,-0.478981,0.40125,0
2024-12-11 19:40:21.135,1.37647,2.71017,11.7,0.0116825,-0.596263,0.346274,0
2024-12-11 19:40:21.137,1.44855,2.59771,12.0688,0.00251974,-0.706827,0.291298,0
2024-12-11 19:40:21.140,1.52273,2.48255,12.4397,0.00129805,-0.805784,0.236932,0
2024-12-11 19:40:21.143,1.58973,2.34616,12.8133,0.0171801,-0.966437,0.131867,0
2024-12-11 19:40:21.144,1.63041,2.18584,13.2084,0.0171801,-0.966437,0.131867,0
2024-12-11 19:40:21.147,1.6328,2.00638,13.5888,0.0361163,-1.0263,0.0829989,0
2024-12-11 19:40:21.150,1.61845,1.81944,13.9289,0.085595,-1.1222,-0.00679568,0
2024-12-11 19:40:21.152,1.62802,1.63759,14.2543,0.085595,-1.1222,-0.00679568,0
2024-12-11 19:40:21.154,1.63041,1.44377,14.5777,0.121635,-1.15702,-0.049555,0
2024-12-11 19:40:21.156,1.60648,1.25444,14.889,0.157064,-1.18695,-0.0880384,0
2024-12-11 19:40:21.158,1.55862,1.0654,15.1594,0.197991,-1.20955,-0.124689,0
2024-12-11 19:40:21.161,1.48923,0.873978,15.37,0.241972,-1.21872,-0.155842,0
2024-12-11 19:40:21.163,1.39083,0.708575,15.5378,0.289618,-1.22055,-0.18272,0
2024-12-11 19:40:21.166,1.29272,0.562612,15.6814,0.340929,-1.20589,-0.205932,0
2024-12-11 19:40:21.168,1.20419,0.421436,15.8201,0.394684,-1.17718,-0.226701,1
2024-12-11 19:40:21.170,1.09412,0.27996,15.9494,0.452714,-1.1387,-0.241972,0
2024-12-11 19:40:21.173,0.972084,0.145962,16.0167,0.511966,-1.09044,-0.252967,0
2024-12-11 19:40:21.175,0.85005,-0.00239282,16.0119,0.573662,-1.03119,-0.260297,0
2024-12-11 19:40:21.177,0.73011,-0.157926,15.9565,0.635357,-0.962772,-0.259076,0
2024-12-11 19:40:21.180,0.60329,-0.318545,15.8465,0.696442,-0.88214,-0.251745,0
2024-12-11 19:40:21.182,0.483649,-0.505185,15.6742,0.758138,-0.792956,-0.240139,0
2024-12-11 19:40:21.185,0.378365,-0.691825,15.454,0.815557,-0.695221,-0.223036,0
2024-12-11 19:40:21.187,0.297009,-0.878764,15.1786,0.871145,-0.593209,-0.201656,0
2024-12-11 19:40:21.189,0.212961,-1.05344,14.8552,0.919401,-0.488754,-0.174168,0
2024-12-11 19:40:21.191,0.114855,-1.19701,14.5179,0.965215,-0.386132,-0.145458,0
2024-12-11 19:40:21.194,0.00717847,-1.33819,14.1706,1.00187,-0.279844,-0.108807,0
2024-12-11 19:40:21.197,-0.112463,-1.44616,13.8069,1.06112,-0.0794865,-0.0251211,0
2024-12-11 19:40:21.199,-0.224925,-1.52991,13.4118,1.06112,-0.0794865,-0.0251211,0
2024-12-11 19:40:21.201,-0.330509,-1.61605,13.0238,1.08005,0.0127514,0.0237467,0
2024-12-11 19:40:21.203,-0.440578,-1.66869,12.6458,1.09471,0.103157,0.0750579,0
2024-12-11 19:40:21.206,-0.524327,-1.71894,12.2698,1.10021,0.188065,0.12698,0
2024-12-11 19:40:21.208,-0.588933,-1.75962,11.9201,1.10449,0.268086,0.182567,0
2024-12-11 19:40:21.211,-0.670289,-1.78116,11.5947,1.09899,0.415911,0.29313,0
2024-12-11 19:40:21.213,-0.722932,-1.77876,11.2762,1.09899,0.415911,0.29313,0
2024-12-11 19:40:21.215,-0.744467,-1.75723,10.9484,1.09227,0.483715,0.346274,0
2024-12-11 19:40:21.217,-0.76361,-1.72134,10.6825,1.08433,0.547854,0.395753,0
2024-12-11 19:40:21.221,-0.768395,-1.66152,10.4623,1.07517,0.607717,0.445842,0
2024-12-11 19:40:21.222,-0.770788,-1.59212,10.2371,1.06478,0.663304,0.491045,0
2024-12-11 19:40:21.224,-0.761217,-1.51077,10.0289,1.05684,0.716447,0.532582,0
2024-12-11 19:40:21.228,-0.768395,-1.43659,9.83031,1.04951,0.766537,0.570455,0
2024-12-11 19:40:21.229,-0.780359,-1.34776,9.6362,1.0434,0.814259,0.604662,0
2024-12-11 19:40:21.232,-0.76361,-1.25204,9.44238,1.04096,0.862516,0.635816,0
2024-12-11 19:40:21.234,-0.739681,-1.15633,9.26292,1.03852,0.905886,0.664525,0
2024-12-11 19:40:21.236,-0.718146,-1.05105,9.08315,1.03607,0.948035,0.688959,0
2024-12-11 19:40:21.239,-0.675075,-0.981655,8.90609,1.03607,0.983464,0.71095,0
2024-12-11 19:40:21.241,-0.624826,-0.919442,8.72662,1.03974,1.01706,0.728054,0
2024-12-11 19:40:21.244,-0.593719,-0.852443,8.53011,1.04585,1.06898,0.755007,0
2024-12-11 19:40:21.247,-0.557827,-0.794716,8.31237,1.04585,1.06898,0.755007,0
2024-12-11 19:40:21.250,-0.493221,-0.708575,7.82154,1.05196,1.10624,0.774554,0
2024-12-11 19:40:21.250,-0.493221,-0.708575,7.82154,1.05196,1.10624,0.774554,0
2024-12-11 19:40:21.253,-0.423829,-0.684646,7.55324,1.04707,1.11357,0.778219,0
2024-12-11 19:40:21.256,-0.361615,-0.667897,7.29482,1.04218,1.1148,0.780052,0
2024-12-11 19:40:21.257,-0.318545,-0.643968,7.02922,1.03852,1.10808,0.77883,0
2024-12-11 19:40:21.260,-0.277567,-0.60329,6.75853,1.0263,1.09342,0.773943,0
2024-12-11 19:40:21.263,-0.236889,-0.553041,6.5001,0.993314,1.04211,0.75684,0
2024-12-11 19:40:21.264,-0.20339,-0.514756,6.24616,0.993314,1.04211,0.75684,0
2024-12-11 19:40:21.268,-0.179462,-0.469292,5.99013,0.967658,1.00729,0.746455,0
2024-12-11 19:40:21.269,-0.165105,-0.407079,5.76491,0.941392,0.966971,0.733551,0
2024-12-11 19:40:21.272,-0.150748,-0.361615,5.57587,0.913293,0.922379,0.71828,0
2024-12-11 19:40:21.274,-0.129212,-0.308973,5.39881,0.884583,0.872901,0.704841,0
2024-12-11 19:40:21.276,-0.11007,-0.258425,5.25733,0.850376,0.820979,0.686516,0
2024-12-11 19:40:21.279,-0.0789631,-0.229711,5.14726,0.813725,0.765926,0.66758,0
2024-12-11 19:40:21.281,-0.0287139,-0.18664,5.05873,0.777074,0.709117,0.648643,0
2024-12-11 19:40:21.286,0.0550349,-0.0957129,4.93669,0.699496,0.596721,0.606495,0
2024-12-11 19:40:21.286,0.0550349,-0.0957129,4.93669,0.699496,0.596721,0.606495,0
2024-12-11 19:40:21.288,0.0861416,-0.0454636,4.88405,0.657959,0.539302,0.580229,0
2024-12-11 19:40:21.291,0.129212,-0.00957129,4.84816,0.618254,0.48738,0.554573,0
2024-12-11 19:40:21.293,0.155533,0.0334995,4.82902,0.57916,0.436679,0.527085,0
2024-12-11 19:40:21.295,0.153141,0.081356,4.80987,0.537011,0.383536,0.497153,0
2024-12-11 19:40:21.298,0.145962,0.143569,4.79312,0.500971,0.337722,0.467833,0
2024-12-11 19:40:21.300,0.138784,0.198604,4.81705,0.462488,0.290076,0.43729,0
2024-12-11 19:40:21.302,0.117248,0.256032,4.85055,0.419118,0.243652,0.407359,0
2024-12-11 19:40:21.305,0.0789631,0.325723,4.86491,0.380023,0.204557,0.376816,0
2024-12-11 19:40:21.308,0.0382852,0.387936,4.91755,0.342151,0.160576,0.345663,0
2024-12-11 19:40:21.309,0.00478565,0.438186,4.98455,0.303057,0.120871,0.315121,0
2024-12-11 19:40:21.312,-0.0526421,0.476471,5.04915,0.263352,0.0854423,0.288244,0
2024-12-11 19:40:21.314,-0.0981057,0.512363,5.12812,0.229755,0.0500131,0.259534,0
2024-12-11 19:40:21.317,-0.129212,0.553041,5.22383,0.163173,-0.013515,0.203947,0
2024-12-11 19:40:21.320,-0.160319,0.565005,5.34138,0.130187,-0.0410031,0.180124,0
2024-12-11 19:40:21.321,-0.191426,0.565005,5.44666,0.130187,-0.0410031,0.180124,0
2024-12-11 19:40:21.324,-0.229711,0.572184,5.54955,0.101477,-0.0672696,0.156301,0
2024-12-11 19:40:21.326,-0.267996,0.574577,5.67159,0.0727672,-0.0959794,0.131867,0
2024-12-11 19:40:21.328,-0.304188,0.581755,5.79362,0.0446682,-0.118581,0.111709,0
2024-12-11 19:40:21.331,-0.337687,0.567398,5.9016,0.0208452,-0.13996,0.090329,0
2024-12-11 19:40:21.333,-0.387936,0.54347,6.00449,7.63559e-05,-0.157675,0.0732253,0
2024-12-11 19:40:21.335,-0.442971,0.541077,6.1002,-0.0261901,-0.174168,0.0597867,0
2024-12-11 19:40:21.338,-0.483649,0.531506,6.20549,-0.0494023,-0.191882,0.0445155,0
2024-12-11 19:40:21.340,-0.521934,0.521934,6.32752,-0.0689494,-0.20471,0.0329094,0
2024-12-11 19:40:21.342,-0.550648,0.52672,6.44238,-0.090329,-0.218149,0.0255792,0
2024-12-11 19:40:21.345,-0.579362,0.521934,6.55753,-0.108654,-0.230977,0.0176382,0
2024-12-11 19:40:21.347,-0.62004,0.514756,6.6676,-0.130645,-0.243804,0.0121406,0
2024-12-11 19:40:21.349,-0.63679,0.507577,6.77767,-0.152025,-0.256632,0.0109189,0
2024-12-11 19:40:21.353,-0.646361,0.517149,6.90928,-0.167907,-0.267627,0.0096972,0
2024-12-11 19:40:21.354,-0.665504,0.521934,7.04597,-0.186232,-0.281066,0.00786466,0
2024-12-11 19:40:21.356,-0.689432,0.52672,7.17039,-0.200892,-0.288396,0.00786466,0
2024-12-11 19:40:21.360,-0.708575,0.538684,7.29003,-0.227159,-0.309165,0.010308,0
2024-12-11 19:40:21.361,-0.720539,0.536291,7.42642,-0.227159,-0.309165,0.010308,0
2024-12-11 19:40:21.363,-0.739681,0.524327,7.58226,-0.241819,-0.313441,0.0133623,0
2024-12-11 19:40:21.366,-0.756431,0.533899,7.72343,-0.249149,-0.311608,0.0182491,0
2024-12-11 19:40:21.368,-0.780359,0.562612,7.84068,-0.25648,-0.311608,0.0237467,0
2024-12-11 19:40:21.371,-0.792323,0.588933,7.96032,-0.266253,-0.307943,0.030466,0
2024-12-11 19:40:21.374,-0.804287,0.610469,8.08236,-0.270529,-0.295116,0.0439046,0
2024-12-11 19:40:21.375,-0.84018,0.634397,8.20469,-0.270529,-0.295116,0.0439046,0
2024-12-11 19:40:21.378,-0.862014,0.660718,8.3363,-0.273583,-0.285953,0.0542891,0
2024-12-11 19:40:21.381,-0.852443,0.682254,8.45115,-0.272972,-0.259686,0.0713928,0
2024-12-11 19:40:21.383,-0.852443,0.701396,8.54686,-0.268696,-0.247469,0.0811663,0
2024-12-11 19:40:21.386,-0.845265,0.715753,8.64736,-0.268696,-0.247469,0.0811663,0
2024-12-11 19:40:21.387,-0.828216,0.732503,8.74577,-0.264421,-0.227922,0.0933833,0
2024-12-11 19:40:21.389,-0.821037,0.742074,8.81994,-0.258923,-0.21143,0.104989,0
2024-12-11 19:40:21.392,-0.816252,0.754038,8.87976,-0.254036,-0.191882,0.115985,0
2024-12-11 19:40:21.394,-0.82343,0.777966,8.93241,-0.243652,-0.16867,0.128202,0
2024-12-11 19:40:21.396,-0.835394,0.801895,8.97308,-0.237543,-0.150345,0.142251,0
2024-12-11 19:40:21.399,-0.830609,0.821037,9.01855,-0.228991,-0.129576,0.15569,0
2024-12-11 19:40:21.402,-0.816252,0.84018,9.06401,-0.207001,-0.085595,0.1844,0
2024-12-11 19:40:21.404,-0.809073,0.847657,9.09273,-0.207001,-0.085595,0.1844,0
2024-12-11 19:40:21.407,-0.811466,0.852443,9.11426,-0.185621,-0.0446682,0.219829,0
2024-12-11 19:40:21.408,-0.797109,0.873978,9.11905,-0.185621,-0.0446682,0.219829,0
2024-12-11 19:40:21.410,-0.773181,0.897907,9.11187,-0.172183,-0.0226777,0.237543,0
2024-12-11 19:40:21.413,-0.74686,0.919442,9.09512,-0.162409,-0.00435229,0.252814,0
2024-12-11 19:40:21.415,-0.706182,0.945763,9.0688,-0.150192,0.0176382,0.27114,0
2024-12-11 19:40:21.418,-0.658325,0.964906,9.03769,-0.140419,0.0377962,0.291298,0
2024-12-11 19:40:21.420,-0.60329,0.962513,9.01137,-0.128812,0.0561216,0.310845,0
2024-12-11 19:40:21.423,-0.545863,0.97687,8.98026,-0.110487,0.0921616,0.34322,0
2024-12-11 19:40:21.425,-0.488435,1.01515,8.93959,-0.110487,0.0921616,0.34322,0
2024-12-11 19:40:21.427,-0.414257,1.04148,8.88934,-0.0994917,0.104989,0.359102,0
2024-12-11 19:40:21.429,-0.352044,1.07019,8.83909,-0.0915507,0.115374,0.376206,0
2024-12-11 19:40:21.432,-0.299402,1.11805,8.78405,-0.0836097,0.124536,0.390866,0
2024-12-11 19:40:21.434,-0.239282,1.1659,8.71705,-0.0732253,0.134921,0.404915,0
2024-12-11 19:40:21.436,-0.184247,1.19701,8.65454,-0.066506,0.142862,0.414078,0
2024-12-11 19:40:21.439,-0.124427,1.26162,8.58993,-0.0591758,0.147138,0.426906,0
2024-12-11 19:40:21.441,-0.0837488,1.34536,8.53011,-0.0518457,0.154468,0.434847,0
2024-12-11 19:40:21.444,-0.0502493,1.4004,8.47029,-0.042683,0.159355,0.442788,0
2024-12-11 19:40:21.446,-0.0167498,1.46052,8.41765,-0.0353528,0.166685,0.450118,0
2024-12-11 19:40:21.449,0.0167498,1.52513,8.37219,-0.0237467,0.175237,0.458059,0
2024-12-11 19:40:21.452,0.0526421,1.58973,8.31476,-0.0237467,0.175237,0.458059,0
2024-12-11 19:40:21.453,0.0909273,1.65434,8.26212,-0.0164165,0.181956,0.459892,0
2024-12-11 19:40:21.455,0.122034,1.70219,8.1999,-0.0115297,0.186843,0.461724,0
2024-12-11 19:40:21.459,0.160319,1.75244,8.135,-0.00358873,0.190508,0.460502,0
2024-12-11 19:40:21.460,0.205783,1.80748,8.07279,0.00496313,0.194784,0.459892,0
2024-12-11 19:40:21.463,0.244068,1.84337,8.001,0.00496313,0.19906,0.457448,0
2024-12-11 19:40:21.465,0.277567,1.88166,7.91486,0.0147367,0.20639,0.452561,0
2024-12-11 19:40:21.467,0.27996,1.93669,7.82632,0.0177909,0.210055,0.448286,0
2024-12-11 19:40:21.469,0.265603,1.98485,7.74497,0.021456,0.216164,0.44401,0
2024-12-11 19:40:21.473,0.246461,2.02313,7.65404,0.0232886,0.230824,0.434236,0
2024-12-11 19:40:21.474,0.217747,2.07338,7.54846,0.0232886,0.230824,0.434236,0
2024-12-11 19:40:21.476,0.179462,2.12363,7.44317,0.0238994,0.241819,0.42996,0
2024-12-11 19:40:21.479,0.157926,2.15474,7.33071,0.0202343,0.252814,0.426295,0
2024-12-11 19:40:21.482,0.172283,2.17866,7.20628,0.00984991,0.277248,0.4153,0
2024-12-11 19:40:21.485,0.20339,2.20259,7.101,0.00251974,0.290687,0.412246,0
2024-12-11 19:40:21.487,0.222533,2.21456,7.00499,-0.0096972,0.303515,0.40797,0
2024-12-11 19:40:21.488,0.236889,2.22413,6.90688,-0.0096972,0.303515,0.40797,0
2024-12-11 19:40:21.491,0.272782,2.23849,6.82074,-0.0231358,0.315121,0.404305,0
2024-12-11 19:40:21.493,0.30658,2.2672,6.74417,-0.0420721,0.325505,0.398196,0
2024-12-11 19:40:21.496,0.34008,2.30548,6.65803,-0.0793338,0.348717,0.387812,0
2024-12-11 19:40:21.499,0.395115,2.32702,6.61496,-0.0793338,0.348717,0.387812,0
2024-12-11 19:40:21.500,0.442971,2.33898,6.58146,-0.0970484,0.356048,0.382925,0
2024-12-11 19:40:21.503,0.493221,2.3677,6.5336,-0.120261,0.360934,0.376206,0
2024-12-11 19:40:21.506,0.555434,2.40359,6.51685,-0.166685,0.368265,0.360324,0
2024-12-11 19:40:21.508,0.62004,2.43709,6.51207,-0.19173,0.368265,0.353604,0
2024-12-11 19:40:21.510,0.682254,2.47298,6.51685,-0.19173,0.368265,0.353604,0
2024-12-11 19:40:21.512,0.742074,2.51366,6.54557,-0.215553,0.368265,0.340166,0
2024-12-11 19:40:21.515,0.801895,2.56421,6.59342,-0.261977,0.359102,0.313288,0
2024-12-11 19:40:21.517,0.842872,2.60249,6.66042,-0.261977,0.359102,0.313288,0
2024-12-11 19:40:21.520,0.864407,2.65992,6.76092,-0.2858,0.354215,0.297406,0
2024-12-11 19:40:21.524,0.881157,2.80588,6.97867,-0.321229,0.33589,0.264421,0
2024-12-11 19:40:21.524,0.881157,2.80588,6.97867,-0.321229,0.33589,0.264421,0
2024-12-11 19:40:21.527,0.905085,2.85135,7.09382,-0.348717,0.315732,0.225326,0
2024-12-11 19:40:21.529,0.921835,2.91835,7.22303,-0.348717,0.315732,0.225326,0
2024-12-11 19:40:21.531,0.931406,2.99252,7.35464,-0.35788,0.30046,0.201503,0
2024-12-11 19:40:21.533,0.957727,3.04277,7.49582,-0.36521,0.283357,0.176459,0
2024-12-11 19:40:21.535,0.969691,3.08345,7.62054,-0.37193,0.261977,0.14836,0
2024-12-11 19:40:21.538,0.97687,3.15553,7.72343,-0.376816,0.237543,0.11965,0
2024-12-11 19:40:21.540,0.945763,3.21775,7.84547,-0.374984,0.211888,0.0891073,0
2024-12-11 19:40:21.543,0.8668,3.25843,7.9675,-0.377427,0.180734,0.0616192,0
2024-12-11 19:40:21.545,0.775574,3.31107,8.07518,-0.378038,0.156301,0.0286335,0
2024-12-11 19:40:21.547,0.651147,3.3661,8.19273,-0.380481,0.125758,0.00236703,0
2024-12-11 19:40:21.550,0.505185,3.44028,8.31715,-0.376206,0.0994917,-0.0251211,0
2024-12-11 19:40:21.553,0.364008,3.51446,8.45594,-0.370097,0.0408504,-0.0739889,0
2024-12-11 19:40:21.555,0.205783,3.58624,8.59233,-0.363378,0.00603212,-0.0972011,0
2024-12-11 19:40:21.558,0.0287139,3.65833,8.70987,-0.363378,0.00603212,-0.0972011,0
2024-12-11 19:40:21.559,-0.165105,3.71575,8.81994,-0.353604,-0.0251211,-0.117359,0
2024-12-11 19:40:21.562,-0.352044,3.76361,8.9348,-0.346274,-0.0623828,-0.136906,0
2024-12-11 19:40:21.564,-0.524327,3.79711,9.03051,-0.337111,-0.0996445,-0.153399,0
2024-12-11 19:40:21.566,-0.694218,3.80668,9.11187,-0.332225,-0.136906,-0.164394,0
2024-12-11 19:40:21.568,-0.85005,3.79711,9.18126,-0.328559,-0.177833,-0.17539,0
2024-12-11 19:40:21.571,-0.974477,3.77797,9.22672,-0.324284,-0.219981,-0.182109,0
2024-12-11 19:40:21.573,-1.06301,3.75643,9.28445,-0.323673,-0.266406,-0.187606,0
2024-12-11 19:40:21.575,-1.15872,3.73968,9.32992,-0.327949,-0.314052,-0.19005,0
2024-12-11 19:40:21.585,-1.47248,3.66551,9.67927,-0.381703,-0.524794,-0.184552,0
2024-12-11 19:40:21.585,-1.47248,3.66551,9.67927,-0.381703,-0.524794,-0.184552,0
2024-12-11 19:40:21.585,-1.47248,3.66551,9.67927,-0.381703,-0.524794,-0.184552,0
2024-12-11 19:40:21.587,-1.50598,3.64606,9.82314,-0.403083,-0.582214,-0.177222,0
2024-12-11 19:40:21.587,-1.50598,3.64606,9.82314,-0.403083,-0.582214,-0.177222,0
2024-12-11 19:40:21.591,-1.51555,3.61974,9.98824,-0.427517,-0.643299,-0.169281,0
2024-12-11 19:40:21.592,-1.50598,3.60299,10.1988,-0.452561,-0.705605,-0.160729,0
2024-12-11 19:40:21.595,-1.45813,3.58864,10.4791,-0.506927,-0.838159,-0.13996,0
2024-12-11 19:40:21.598,-1.36451,3.57906,10.8069,-0.525252,-0.90413,-0.133852,0
2024-12-11 19:40:21.599,-1.21376,3.57189,11.1685,-0.525252,-0.90413,-0.133852,0
2024-12-11 19:40:21.602,-1.00558,3.56949,11.5421,-0.549075,-0.96888,-0.128354,0
2024-12-11 19:40:21.605,-0.768395,3.57189,11.913,-0.567401,-1.02935,-0.127743,0
2024-12-11 19:40:21.606,-0.538684,3.55753,12.2698,-0.583894,-1.08738,-0.127743,0
2024-12-11 19:40:21.608,-0.289831,3.53839,12.6386,-0.599776,-1.13992,-0.133241,0
2024-12-11 19:40:21.612,-0.0143569,3.53599,13.0143,-0.626653,-1.23399,-0.156453,0
2024-12-11 19:40:21.613,0.270389,3.53121,13.3663,-0.626653,-1.23399,-0.156453,0
2024-12-11 19:40:21.615,0.541077,3.52882,13.7037,-0.636427,-1.27247,-0.179055,0
2024-12-11 19:40:21.618,0.797109,3.53599,14.0725,-0.648643,-1.30485,-0.201656,0
2024-12-11 19:40:21.620,1.01515,3.54796,14.4796,-0.659028,-1.33539,-0.23342,0
2024-12-11 19:40:21.623,1.18026,3.58385,14.8696,-0.662082,-1.36165,-0.267627,0
2024-12-11 19:40:21.625,1.30947,3.61256,15.2575,-0.665747,-1.38426,-0.306111,0
2024-12-11 19:40:21.628,1.39561,3.63649,15.6646,-0.666969,-1.39953,-0.347648,0
2024-12-11 19:40:21.630,1.41266,3.68226,16.0789,-0.663304,-1.40808,-0.387964,0
2024-12-11 19:40:21.632,1.34536,3.72054,16.4857,-0.655363,-1.40503,-0.430113,0
2024-12-11 19:40:21.634,1.2329,3.76122,16.8497,-0.640092,-1.38548,-0.466764,0
2024-12-11 19:40:21.638,1.10608,3.81147,17.1873,-0.619323,-1.35188,-0.50036,0
2024-12-11 19:40:21.639,0.996012,3.85932,17.5056,-0.593056,-1.31095,-0.527238,0
2024-12-11 19:40:21.642,0.9003,3.87847,17.7619,-0.564346,-1.26331,-0.551061,0
2024-12-11 19:40:21.644,0.830609,3.84736,17.9749,-0.53075,-1.21261,-0.571219,0
2024-12-11 19:40:21.647,0.787538,3.78515,18.1328,-0.467833,-1.11304,-0.597485,0
2024-12-11 19:40:21.649,0.734896,3.67747,18.2094,-0.467833,-1.11304,-0.597485,0
2024-12-11 19:40:21.651,0.689432,3.51685,18.2456,-0.467833,-1.11304,-0.597485,0
2024-12-11 19:40:21.653,0.670289,3.34457,18.2456,-0.40858,-1.02141,-0.609091,0
2024-12-11 19:40:21.655,0.648754,3.17468,18.195,-0.385368,-0.981097,-0.611534,1
2024-12-11 19:40:21.659,0.593719,3.02124,18.0969,-0.365821,-0.9475,-0.607869,0
2024-12-11 19:40:21.660,0.529113,2.89681,17.9845,-0.352383,-0.915736,-0.600539,0
2024-12-11 19:40:21.664,0.457328,2.78913,17.86,-0.33589,-0.888859,-0.587711,0
2024-12-11 19:40:21.665,0.366401,2.7006,17.7284,-0.32917,-0.86076,-0.568775,0
2024-12-11 19:40:21.667,0.287438,2.62642,17.6037,-0.323062,-0.825331,-0.544341,0
2024-12-11 19:40:21.670,0.246461,2.57857,17.4793,-0.322451,-0.788069,-0.516242,0
2024-12-11 19:40:21.672,0.222533,2.5331,17.362,-0.318175,-0.747753,-0.485089,0
2024-12-11 19:40:21.675,0.198604,2.47298,17.2328,-0.320618,-0.659181,-0.409344,0
2024-12-11 19:40:21.678,0.198604,2.41555,17.1057,-0.320618,-0.659181,-0.409344,0
2024-12-11 19:40:21.679,0.232104,2.37009,16.9884,-0.322451,-0.610924,-0.371471,0
2024-12-11 19:40:21.681,0.289831,2.34377,16.8712,-0.328559,-0.562667,-0.332377,0
2024-12-11 19:40:21.684,0.349651,2.34616,16.7635,-0.331003,-0.51441,-0.293283,0
2024-12-11 19:40:21.687,0.407079,2.32941,16.6678,-0.3365,-0.459433,-0.255411,0
2024-12-11 19:40:21.688,0.464507,2.31745,16.5745,-0.341387,-0.403846,-0.215095,0
2024-12-11 19:40:21.691,0.545863,2.32702,16.4904,-0.341387,-0.343983,-0.179055,0
2024-12-11 19:40:21.693,0.62004,2.32941,16.4378,-0.343831,-0.289618,-0.145458,0
2024-12-11 19:40:21.697,0.687039,2.32463,16.3995,-0.342609,-0.235863,-0.112472,0
2024-12-11 19:40:21.698,0.761217,2.29831,16.3708,-0.3365,-0.189439,-0.0843733,0
2024-12-11 19:40:21.700,0.837787,2.27199,16.3684,-0.32917,-0.149123,-0.0623828,0
2024-12-11 19:40:21.703,0.921835,2.25524,16.3756,-0.315732,-0.112472,-0.0452791,0
2024-12-11 19:40:21.705,0.97687,2.22652,16.3923,-0.295574,-0.0862058,-0.0318404,0
2024-12-11 19:40:21.707,1.03669,2.18584,16.4091,-0.271751,-0.0648262,-0.0245102,0
2024-12-11 19:40:21.710,1.1013,2.14995,16.4234,-0.240597,-0.0526092,-0.0226777,0
2024-12-11 19:40:21.713,1.14915,2.0997,16.4378,-0.164852,-0.0434465,-0.033673,0
2024-12-11 19:40:21.715,1.1994,2.04467,16.4378,-0.164852,-0.0434465,-0.033673,0
2024-12-11 19:40:21.717,1.23769,1.97767,16.4163,-0.11965,-0.0440574,-0.0446682,0
2024-12-11 19:40:21.719,1.23769,1.90558,16.3828,-0.0720036,-0.0458899,-0.0568851,0
2024-12-11 19:40:21.721,1.2018,1.85294,16.3325,-0.0158057,-0.0501658,-0.0745997,0
2024-12-11 19:40:21.725,1.14437,1.78116,16.2679,0.106975,-0.0605502,-0.106364,0
2024-12-11 19:40:21.727,1.06301,1.71655,16.1889,0.106975,-0.0605502,-0.106364,0
2024-12-11 19:40:21.728,0.962513,1.65434,16.0861,0.177222,-0.0623828,-0.121635,0
2024-12-11 19:40:21.731,0.825823,1.57298,15.9518,0.248691,-0.0648262,-0.133852,0
2024-12-11 19:40:21.740,0.18664,1.26401,15.1594,0.554115,-0.0275645,-0.148512,0
2024-12-11 19:40:21.741,0.18664,1.26401,15.1594,0.631082,-0.0104608,-0.141182,0
2024-12-11 19:40:21.743,0.066999,1.13719,14.901,0.631082,-0.0104608,-0.141182,0
2024-12-11 19:40:21.743,0.066999,1.13719,14.901,0.631082,-0.0104608,-0.141182,0
2024-12-11 19:40:21.744,0.066999,1.13719,14.901,0.707437,0.00908635,-0.13263,0
2024-12-11 19:40:21.745,-0.040678,1.01994,14.6327,0.707437,0.00908635,-0.13263,0
2024-12-11 19:40:21.747,-0.129212,0.897907,14.3312,0.781961,0.0280226,-0.121635,0
2024-12-11 19:40:21.750,-0.196211,0.76361,13.9816,0.849154,0.0512348,-0.108807,0
2024-12-11 19:40:21.752,-0.265603,0.646361,13.5984,0.913293,0.0720036,-0.0904818,0
2024-12-11 19:40:21.754,-0.342473,0.521934,13.2012,0.970102,0.0994917,-0.0752106,0
2024-12-11 19:40:21.757,-0.428614,0.402293,12.8061,1.02141,0.125758,-0.0568851,0
2024-12-11 19:40:21.759,-0.524327,0.297009,12.411,1.06784,0.14897,-0.0330621,0
2024-12-11 19:40:21.762,-0.593719,0.18664,12.0111,1.10266,0.174015,-0.00862822,0
2024-12-11 19:40:21.764,-0.663111,0.0957129,11.6067,1.13259,0.19906,0.0200816,0
2024-12-11 19:40:21.766,-0.720539,0.0358923,11.2379,1.16069,0.218607,0.0481806,0
2024-12-11 19:40:21.769,-0.758824,-0.00717847,10.9026,1.18084,0.238154,0.0793338,0
2024-12-11 19:40:21.771,-0.792323,-0.0717847,10.5724,1.19367,0.254647,0.114763,0
2024-12-11 19:40:21.773,-0.797109,-0.141177,10.2586,1.2065,0.272362,0.150192,0
2024-12-11 19:40:21.776,-0.775574,-0.18664,9.96431,1.21261,0.290076,0.1844,0
2024-12-11 19:40:21.778,-0.749253,-0.222533,9.67448,1.21078,0.306569,0.22105,0
2024-12-11 19:40:21.780,-0.71336,-0.258425,9.40409,1.21016,0.323673,0.258923,0
2024-12-11 19:40:21.784,-0.663111,-0.297009,9.15733,1.20833,0.340166,0.294352,0
2024-12-11 19:40:21.785,-0.593719,-0.330509,8.94198,1.201,0.356658,0.329781,0
2024-12-11 19:40:21.788,-0.514756,-0.349651,8.74098,1.19062,0.373151,0.364599,0
2024-12-11 19:40:21.790,-0.414257,-0.361615,8.54686,1.1784,0.389033,0.399418,0
2024-12-11 19:40:21.792,-0.308973,-0.373579,8.37937,1.16679,0.406748,0.433014,0
2024-12-11 19:40:21.795,-0.200997,-0.35683,8.20948,1.15213,0.426295,0.462946,0
2024-12-11 19:40:21.797,-0.0789631,-0.335294,8.04886,1.13808,0.441566,0.492877,0
2024-12-11 19:40:21.799,0.0382852,-0.328116,7.92204,1.1222,0.460502,0.520976,0
2024-12-11 19:40:21.801,0.153141,-0.308973,7.8024,1.10876,0.477606,0.546632,0
2024-12-11 19:40:21.804,0.285045,-0.292223,7.67558,1.09227,0.493488,0.569844,0
2024-12-11 19:40:21.807,0.414257,-0.27996,7.56521,1.07639,0.511203,0.590002,0
2024-12-11 19:40:21.809,0.557827,-0.251246,7.46949,1.06234,0.522809,0.608938,0
2024-12-11 19:40:21.811,0.725324,-0.229711,7.37378,1.04768,0.53808,0.623599,0
2024-12-11 19:40:21.814,0.895514,-0.20339,7.2685,1.01408,0.561292,0.644978,0
2024-12-11 19:40:21.817,1.06062,-0.179462,7.1345,0.998812,0.567401,0.650476,0
2024-12-11 19:40:21.818,1.21376,-0.153141,7.01217,0.998812,0.567401,0.650476,0
2024-12-11 19:40:21.821,1.35494,-0.112463,6.91167,0.976821,0.572898,0.651698,0
2024-12-11 19:40:21.823,1.47966,-0.0622134,6.80399,0.960328,0.575953,0.651087,0
2024-12-11 19:40:21.826,1.6017,-0.00957129,6.70589,0.916958,0.57412,0.638259,0
2024-12-11 19:40:21.827,1.71894,0.0287139,6.59103,0.916958,0.57412,0.638259,0
2024-12-11 19:40:21.830,1.82901,0.0717847,6.47857,0.895578,0.569844,0.628486,0
2024-12-11 19:40:21.832,1.93908,0.131605,6.38495,0.873588,0.562514,0.615658,0
2024-12-11 19:40:21.834,2.02792,0.205783,6.29402,0.852819,0.554573,0.598554,0
2024-12-11 19:40:21.837,2.13081,0.270389,6.21267,0.823498,0.544189,0.579618,0
2024-12-11 19:40:21.839,2.2337,0.337687,6.11695,0.800897,0.53075,0.560071,0
2024-12-11 19:40:21.843,2.30788,0.411865,6.01885,0.778296,0.518533,0.535026,0
2024-12-11 19:40:21.844,2.37009,0.478864,5.93988,0.751418,0.504483,0.511203,0
2024-12-11 19:40:21.846,2.41555,0.545863,5.8678,0.719654,0.490434,0.481271,0
2024-12-11 19:40:21.850,2.45863,0.598505,5.81037,0.670176,0.465389,0.421408,0
2024-12-11 19:40:21.851,2.48255,0.670289,5.75773,0.670176,0.465389,0.421408,0
2024-12-11 19:40:21.853,2.48973,0.773181,5.70748,0.642077,0.456837,0.389644,0
2024-12-11 19:40:21.857,2.49452,0.842872,5.6668,0.592598,0.441566,0.324284,0
2024-12-11 19:40:21.858,2.5017,0.893121,5.63809,0.592598,0.441566,0.324284,0
2024-12-11 19:40:21.860,2.50409,0.952942,5.60459,0.569997,0.438512,0.290076,0
2024-12-11 19:40:21.863,2.49691,1.01276,5.57109,0.544952,0.43729,0.258923,0
2024-12-11 19:40:21.865,2.47777,1.07498,5.54716,0.524183,0.438512,0.225326,0
2024-12-11 19:40:21.867,2.45145,1.11565,5.51366,0.500971,0.442177,0.189286,0
2024-12-11 19:40:21.871,2.42752,1.14915,5.47059,0.461877,0.454394,0.124536,0
2024-12-11 19:40:21.872,2.40359,1.18505,5.42752,0.461877,0.454394,0.124536,0
2024-12-11 19:40:21.876,2.37248,1.20897,5.39402,0.445384,0.469054,0.0909399,0
2024-12-11 19:40:21.877,2.32702,1.24247,5.34377,0.428891,0.481882,0.0610084,0
2024-12-11 19:40:21.880,2.27677,1.27119,5.27887,0.406901,0.491045,0.0310769,0
2024-12-11 19:40:21.882,2.21456,1.29272,5.22144,0.391629,0.504483,-0.00129805,0
2024-12-11 19:40:21.884,2.13799,1.31665,5.15444,0.374526,0.518533,-0.0281753,0
2024-12-11 19:40:21.887,2.05902,1.34297,5.09223,0.339097,0.542356,-0.0794865,0
2024-12-11 19:40:21.890,1.98006,1.37408,5.0348,0.319549,0.556405,-0.100866,0
2024-12-11 19:40:21.891,1.90798,1.39322,4.97258,0.319549,0.556405,-0.100866,0
2024-12-11 19:40:21.893,1.85055,1.41266,4.91276,0.303667,0.568622,-0.122857,0
2024-12-11 19:40:21.896,1.80748,1.42223,4.85773,0.28412,0.577174,-0.141182,0
2024-12-11 19:40:21.898,1.75723,1.42463,4.81227,0.267627,0.583283,-0.160729,0
2024-12-11 19:40:21.900,1.70219,1.4342,4.76411,0.249913,0.585726,-0.179055,0
2024-12-11 19:40:21.903,1.65194,1.44138,4.7019,0.235253,0.586948,-0.196769,0
2024-12-11 19:40:21.905,1.62323,1.43659,4.62772,0.215705,0.585115,-0.213262,0
2024-12-11 19:40:21.908,1.58016,1.42941,4.57508,0.197991,0.583283,-0.230366,0
2024-12-11 19:40:21.910,1.52273,1.43659,4.54158,0.177222,0.575953,-0.246859,0
2024-12-11 19:40:21.912,1.47966,1.46052,4.51286,0.157064,0.565568,-0.261519,0
2024-12-11 19:40:21.916,1.4342,1.48445,4.48894,0.116748,0.536248,-0.289618,0
2024-12-11 19:40:21.917,1.37408,1.51316,4.4674,0.116748,0.536248,-0.289618,0
2024-12-11 19:40:21.919,1.31904,1.55623,4.47458,0.0959794,0.517311,-0.303667,0
2024-12-11 19:40:21.922,1.25922,1.58734,4.50329,0.0807082,0.500208,-0.316495,0
2024-12-11 19:40:21.924,1.18744,1.61605,4.54636,0.0623828,0.481271,-0.329323,0
2024-12-11 19:40:21.926,1.1324,1.6663,4.60618,0.0446682,0.45867,-0.34154,0
2024-12-11 19:40:21.929,1.09173,1.71655,4.67797,0.033673,0.439123,-0.351314,0
2024-12-11 19:40:21.931,1.08215,1.74527,4.75693,0.021456,0.419576,-0.359865,0
2024-12-11 19:40:21.934,1.08933,1.78355,4.82902,0.0159584,0.400639,-0.370861,0
2024-12-11 19:40:21.936,1.07976,1.81944,4.90319,0.00984991,0.387201,-0.383688,0
2024-12-11 19:40:21.938,1.07019,1.82423,4.96541,0.00618483,0.369486,-0.395905,0
2024-12-11 19:40:21.940,1.05823,1.83859,5.03001,0.00923906,0.356658,-0.408122,0
2024-12-11 19:40:21.944,1.0343,1.85773,5.08505,0.0104608,0.34322,-0.422172,0
2024-12-11 19:40:21.945,0.986441,1.87448,5.14248,0.0104608,0.332225,-0.435,0
2024-12-11 19:40:21.948,0.919442,1.87926,5.20708,0.0153475,0.318786,-0.447827,0
2024-12-11 19:40:21.950,0.859622,1.9008,5.27169,0.0196235,0.304126,-0.458823,0
2024-12-11 19:40:21.953,0.797109,1.93191,5.31715,0.0318404,0.275416,-0.479591,0
2024-12-11 19:40:21.956,0.727717,1.96062,5.35813,0.0391706,0.258923,-0.487532,0
2024-12-11 19:40:21.957,0.655932,1.98485,5.4012,0.0391706,0.258923,-0.487532,0
2024-12-11 19:40:21.960,0.576969,2.00638,5.43948,0.0471116,0.244873,-0.494252,0
2024-12-11 19:40:21.962,0.500399,2.03988,5.46341,0.0556635,0.228381,-0.50036,0
2024-12-11 19:40:21.964,0.4334,2.0662,5.4682,0.0605502,0.215553,-0.503415,0
2024-12-11 19:40:21.967,0.368794,2.08056,5.48495,0.0678804,0.203336,-0.50769,0
2024-12-11 19:40:21.969,0.311366,2.08535,5.49213,0.0764323,0.188675,-0.509523,0
2024-12-11 19:40:21.971,0.263211,2.10209,5.5017,0.0819299,0.178902,-0.508912,0
2024-12-11 19:40:21.973,0.234497,2.12842,5.53759,0.0849841,0.164242,-0.508912,0
2024-12-11 19:40:21.976,0.210568,2.15952,5.54716,0.0923143,0.152635,-0.508912,0
2024-12-11 19:40:21.978,0.18664,2.20499,5.5352,0.0972011,0.142862,-0.508301,0
2024-12-11 19:40:21.982,0.143569,2.24327,5.56152,0.100255,0.120261,-0.508912,0
2024-12-11 19:40:21.983,0.0957129,2.28395,5.58784,0.100255,0.120261,-0.508912,0
2024-12-11 19:40:21.986,0.0502493,2.34138,5.58784,0.0984228,0.11232,-0.506469,0
2024-12-11 19:40:21.988,-0.0143569,2.39163,5.58545,0.100255,0.106211,-0.50708,0
2024-12-11 19:40:21.990,-0.0765703,2.42991,5.58545,0.0972011,0.0982701,-0.503415,0
2024-12-11 19:40:21.993,-0.143569,2.47537,5.60459,0.0923143,0.0939941,-0.501582,0
2024-12-11 19:40:21.995,-0.236889,2.5331,5.63091,0.085595,0.0872748,-0.500971,0
2024-12-11 19:40:21.997,-0.325723,2.59532,5.65962,0.0758214,0.0829989,-0.494252,0
2024-12-11 19:40:22.000,-0.423829,2.65992,5.70509,0.0672696,0.0775012,-0.489365,0
2024-12-11 19:40:22.002,-0.517149,2.71496,5.75773,0.057496,0.0726145,-0.482646,0
2024-12-11 19:40:22.005,-0.596112,2.79392,5.8008,0.0410031,0.0603975,-0.464931,0
2024-12-11 19:40:22.007,-0.655932,2.86092,5.85344,0.0410031,0.0603975,-0.464931,0
2024-12-11 19:40:22.009,-0.679861,2.8992,5.91596,0.0275645,0.0579541,-0.457601,0
2024-12-11 19:40:22.011,-0.710967,2.94706,5.9686,0.013515,0.0579541,-0.447217,0
2024-12-11 19:40:22.013,-0.770788,2.9997,6.02124,0.0019089,0.0561216,-0.43561,0
2024-12-11 19:40:22.017,-0.847657,3.06909,6.07388,-0.0219141,0.0445155,-0.417285,0
2024-12-11 19:40:22.018,-0.917049,3.15793,6.12413,-0.0219141,0.0445155,-0.417285,0
2024-12-11 19:40:22.021,-0.979263,3.2345,6.1672,-0.0408504,0.0390179,-0.409344,0
2024-12-11 19:40:22.023,-1.02951,3.28953,6.22463,-0.0561216,0.0335202,-0.400792,0
2024-12-11 19:40:22.026,-1.07019,3.35892,6.28924,-0.0964375,0.010308,-0.384299,0
2024-12-11 19:40:22.029,-1.09412,3.4355,6.33709,-0.117817,-0.00801737,-0.374526,0
2024-12-11 19:40:22.030,-1.10369,3.49053,6.39213,-0.117817,-0.00801737,-0.374526,0
2024-12-11 19:40:22.032,-1.08455,3.54317,6.45703,-0.140419,-0.0300079,-0.365974,0
2024-12-11 19:40:22.035,-1.04148,3.58146,6.55514,-0.164852,-0.0538309,-0.361087,0
2024-12-11 19:40:22.038,-0.986441,3.61974,6.66521,-0.222272,-0.119192,-0.354368,0
2024-12-11 19:40:22.039,-0.940978,3.67508,6.78485,-0.222272,-0.119192,-0.354368,0
2024-12-11 19:40:22.042,-0.9003,3.7325,6.93081,-0.253425,-0.156453,-0.353757,0
2024-12-11 19:40:22.044,-0.845265,3.78036,7.09621,-0.283357,-0.193715,-0.3562,0
2024-12-11 19:40:22.047,-0.789931,3.81865,7.28286,-0.317564,-0.234642,-0.359865,0
2024-12-11 19:40:22.049,-0.734896,3.87607,7.47907,-0.351772,-0.271293,-0.365363,0
2024-12-11 19:40:22.051,-0.672682,3.93829,7.70908,-0.38659,-0.308554,-0.37025,0
2024-12-11 19:40:22.055,-0.612862,3.99811,7.95793,-0.454394,-0.371471,-0.384299,0
2024-12-11 19:40:22.056,-0.550648,4.04357,8.22383,-0.454394,-0.371471,-0.384299,0
2024-12-11 19:40:22.058,-0.483649,4.09143,8.51097,-0.489212,-0.400181,-0.394073,0
2024-12-11 19:40:22.061,-0.426222,4.14168,8.82473,-0.5167,-0.424004,-0.403236,0
2024-12-11 19:40:22.063,-0.368794,4.17039,9.15494,-0.54541,-0.450882,-0.41362,0
2024-12-11 19:40:22.066,-0.330509,4.21615,9.48784,-0.593667,-0.490587,-0.439276,0
2024-12-11 19:40:22.069,-0.30658,4.27837,9.8351,-0.593667,-0.490587,-0.439276,0
2024-12-11 19:40:22.070,-0.289831,4.31905,10.1749,-0.614436,-0.504636,-0.450882,0
2024-12-11 19:40:22.073,-0.289831,4.34297,10.5269,-0.632761,-0.513799,-0.462488,0
2024-12-11 19:40:22.076,-0.313759,4.38126,10.917,-0.654752,-0.519907,-0.4857,0
2024-12-11 19:40:22.077,-0.337687,4.42194,11.3121,-0.654752,-0.519907,-0.4857,0
2024-12-11 19:40:22.079,-0.337687,4.43869,11.6809,-0.662082,-0.51441,-0.495473,0
2024-12-11 19:40:22.082,-0.354437,4.45783,12.0541,-0.661471,-0.505247,-0.504025,0
2024-12-11 19:40:22.084,-0.380758,4.45783,12.4349,-0.66025,-0.494252,-0.511966,0
2024-12-11 19:40:22.088,-0.380758,4.44586,12.7846,-0.639481,-0.45699,-0.524794,0
2024-12-11 19:40:22.089,-0.402293,4.42911,13.1172,-0.639481,-0.45699,-0.524794,0
2024-12-11 19:40:22.091,-0.4334,4.39083,13.4118,-0.626653,-0.432556,-0.52907,0
2024-12-11 19:40:22.095,-0.442971,4.35015,13.663,-0.615047,-0.403236,-0.533957,0
2024-12-11 19:40:22.096,-0.476471,4.29272,13.917,-0.5955,-0.374526,-0.537622,0
2024-12-11 19:40:22.099,-0.517149,4.2329,14.1347,-0.557016,-0.317717,-0.535179,0
2024-12-11 19:40:22.102,-0.557827,4.17757,14.3046,-0.539913,-0.289007,-0.529681,0
2024-12-11 19:40:22.103,-0.593719,4.11057,14.4628,-0.539913,-0.289007,-0.529681,0
2024-12-11 19:40:22.106,-0.634397,4.04596,14.6184,-0.524641,-0.266406,-0.522351,0
2024-12-11 19:40:22.108,-0.679861,3.99093,14.7404,-0.50937,-0.24808,-0.511966,0
2024-12-11 19:40:22.110,-0.706182,3.92872,14.8505,-0.492267,-0.234642,-0.500971,0
2024-12-11 19:40:22.113,-0.722932,3.8665,14.9584,-0.479439,-0.224868,-0.484478,0
2024-12-11 19:40:22.115,-0.749253,3.80429,15.0589,-0.466,-0.217538,-0.466764,0
2024-12-11 19:40:22.117,-0.780359,3.74925,15.1523,-0.456837,-0.21143,-0.448438,0
2024-12-11 19:40:22.119,-0.816252,3.69422,15.2504,-0.446453,-0.202878,-0.430724,0
2024-12-11 19:40:22.122,-0.847657,3.66311,15.3724,-0.436679,-0.19738,-0.407511,0
2024-12-11 19:40:22.125,-0.854836,3.65354,15.5043,-0.429349,-0.193715,-0.384299,0
2024-12-11 19:40:22.127,-0.873978,3.64128,15.6503,-0.422019,-0.186996,-0.362309,0
2024-12-11 19:40:22.129,-0.897907,3.64367,15.7986,-0.422019,-0.186996,-0.362309,0
2024-12-11 19:40:22.132,-0.9003,3.64606,15.9565,-0.383536,-0.152177,-0.290229,0
2024-12-11 19:40:22.135,-0.890728,3.65354,16.1291,-0.370097,-0.132019,-0.263962,0
2024-12-11 19:40:22.136,-0.862014,3.6679,16.299,-0.370097,-0.132019,-0.263962,0
2024-12-11 19:40:22.138,-0.82343,3.68226,16.4737,-0.349328,-0.104531,-0.241361,0
2024-12-11 19:40:22.142,-0.787538,3.699,16.6367,-0.303515,-0.0257319,-0.188217,0
2024-12-11 19:40:22.143,-0.749253,3.71097,16.7779,-0.303515,-0.0257319,-0.188217,0
2024-12-11 19:40:22.146,-0.720539,3.72054,16.8999,-0.276027,0.0261901,-0.166227,0
2024-12-11 19:40:22.148,-0.694218,3.72293,16.9765,-0.246095,0.0842206,-0.13996,0
2024-12-11 19:40:22.150,-0.703789,3.73968,16.9908,-0.214331,0.154468,-0.112472,0
2024-12-11 19:40:22.152,-0.761217,3.77079,16.9645,-0.17768,0.238765,-0.0862058,0
2024-12-11 19:40:22.155,-0.835394,3.81865,16.8903,-0.143473,0.337722,-0.0526092,0
2024-12-11 19:40:22.157,-0.902692,3.88086,16.742,-0.1056,0.44462,-0.0159584,0
2024-12-11 19:40:22.161,-0.969691,3.94786,16.5191,-0.0469589,0.665747,0.066506,0
2024-12-11 19:40:22.162,-1.01755,3.99332,16.2392,-0.0469589,0.665747,0.066506,0
2024-12-11 19:40:22.165,-1.04387,4.00768,15.8991,-0.022525,0.767148,0.111709,0
2024-12-11 19:40:22.167,-1.0343,4.01007,15.521,-0.00297788,0.849689,0.156301,0
2024-12-11 19:40:22.171,-0.9003,3.91197,14.75,0.00618483,0.95903,0.232046,0
2024-12-11 19:40:22.171,-0.9003,3.91197,14.75,0.00618483,0.95903,0.232046,0
2024-12-11 19:40:22.174,-0.777966,3.86411,14.415,-0.00297788,0.98041,0.260755,0
2024-12-11 19:40:22.176,-0.665504,3.82343,14.094,-0.0237467,0.975523,0.286411,0
2024-12-11 19:40:22.178,-0.52672,3.79711,13.771,-0.0432938,0.956587,0.305347,0
2024-12-11 19:40:22.181,-0.366401,3.76361,13.5147,-0.0756687,0.916271,0.317564,0
2024-12-11 19:40:22.183,-0.177069,3.73011,13.3472,-0.111709,0.85763,0.32184,0
2024-12-11 19:40:22.185,0.040678,3.72293,13.2754,-0.145916,0.783641,0.318175,0
2024-12-11 19:40:22.188,0.251246,3.73011,13.3041,-0.18501,0.692014,0.305958,0
2024-12-11 19:40:22.190,0.447757,3.7325,13.3854,-0.224105,0.584504,0.283968,0
2024-12-11 19:40:22.192,0.62004,3.7349,13.5075,-0.258312,0.471498,0.258312,0
2024-12-11 19:40:22.196,0.792323,3.75404,13.6989,-0.288854,0.354826,0.222883,0
2024-12-11 19:40:22.197,0.97687,3.77079,13.9816,-0.316343,0.236932,0.180734,0
2024-12-11 19:40:22.200,1.14915,3.80429,14.3264,-0.335279,0.123926,0.131867,0
2024-12-11 19:40:22.203,1.29751,3.8354,14.7141,-0.340166,-0.0837624,0.0219141,0
2024-12-11 19:40:22.204,1.41984,3.82582,15.1068,-0.340166,-0.0837624,0.0219141,0
2024-12-11 19:40:22.208,1.52034,3.78993,15.4875,-0.327338,-0.174168,-0.0385597,0
2024-12-11 19:40:22.209,1.60648,3.699,15.8704,-0.302904,-0.250524,-0.100866,0
2024-12-11 19:40:22.212,1.65673,3.55035,16.2153,-0.269307,-0.310387,-0.158286,0
2024-12-11 19:40:22.215,1.67348,3.3661,16.5048,-0.176459,-0.401403,-0.26946,0
2024-12-11 19:40:22.217,1.67587,3.17468,16.7348,-0.119039,-0.429502,-0.321382,0
2024-12-11 19:40:22.218,1.66152,2.98056,16.9262,-0.119039,-0.429502,-0.321382,0
2024-12-11 19:40:22.222,1.61366,2.77478,17.0913,-0.0591758,-0.450271,-0.365363,0
2024-12-11 19:40:22.223,1.52752,2.56182,17.2065,0.00496313,-0.461877,-0.407511,0
2024-12-11 19:40:22.226,1.41745,2.33898,17.2328,0.0709346,-0.469818,-0.447217,0
2024-12-11 19:40:22.228,1.28315,2.09731,17.1778,0.143015,-0.466764,-0.474094,1
2024-12-11 19:40:22.230,1.12283,1.85773,17.0483,0.214484,-0.453936,-0.494252,0
2024-12-11 19:40:22.233,0.952942,1.63759,16.8712,0.282288,-0.434389,-0.509523,0
2024-12-11 19:40:22.235,0.789931,1.43659,16.6415,0.350092,-0.412398,-0.515631,0
2024-12-11 19:40:22.237,0.615255,1.24726,16.3852,0.417285,-0.388575,-0.518075,0
2024-12-11 19:40:22.241,0.421436,1.0654,16.1148,0.5364,-0.331766,-0.504025,0
2024-12-11 19:40:22.243,0.234497,0.9003,15.8106,0.591376,-0.299392,-0.4857,0
2024-12-11 19:40:22.244,0.0502493,0.742074,15.4564,0.591376,-0.299392,-0.4857,0
2024-12-11 19:40:22.247,-0.131605,0.600898,15.0685,0.640855,-0.263352,-0.462488,0
2024-12-11 19:40:22.251,-0.490828,0.361615,14.2998,0.722098,-0.185774,-0.397738,0
2024-12-11 19:40:22.251,-0.490828,0.361615,14.2998,0.722098,-0.185774,-0.397738,0
2024-12-11 19:40:22.254,-0.663111,0.260818,13.917,0.754473,-0.146069,-0.358644,0
2024-12-11 19:40:22.256,-0.816252,0.198604,13.5338,0.783793,-0.10392,-0.316495,0
2024-12-11 19:40:22.258,-0.967299,0.129212,13.1435,0.805784,-0.0629936,-0.270682,0
2024-12-11 19:40:22.262,-1.10608,0.066999,12.7678,0.835715,0.0151948,-0.176611,0
2024-12-11 19:40:22.264,-1.22333,0.0358923,12.4062,0.835715,0.0151948,-0.176611,0
2024-12-11 19:40:22.266,-1.3334,0.00239282,12.0518,0.841824,0.0475697,-0.128354,0
2024-12-11 19:40:22.268,-1.42463,-0.0215354,11.7168,0.847322,0.0775012,-0.0788757,0
2024-12-11 19:40:22.270,-1.50359,-0.00957129,11.403,0.848543,0.104379,-0.0312296,0
2024-12-11 19:40:22.273,-1.58255,0.0167498,11.1135,0.8461,0.131256,0.014584,0
2024-12-11 19:40:22.275,-1.6328,0.0454636,10.8428,0.843046,0.156301,0.0603975,0
2024-12-11 19:40:22.278,-1.64716,0.0861416,10.5867,0.832661,0.20639,0.142251,0
2024-12-11 19:40:22.282,-1.69741,0.210568,10.1294,0.827164,0.228381,0.180124,0
2024-12-11 19:40:22.282,-1.69741,0.210568,10.1294,0.827164,0.228381,0.180124,0
2024-12-11 19:40:22.284,-1.69023,0.287438,9.91646,0.822888,0.24976,0.215553,0
2024-12-11 19:40:22.287,-1.65194,0.344866,9.71277,0.819833,0.269918,0.246095,0
2024-12-11 19:40:22.289,-1.61605,0.395115,9.52134,0.813114,0.286411,0.275416,0
2024-12-11 19:40:22.291,-1.5658,0.440578,9.32752,0.81006,0.302293,0.298628,0
2024-12-11 19:40:22.294,-1.50598,0.488435,9.10948,0.805784,0.310234,0.318175,0
2024-12-11 19:40:22.297,-1.44138,0.521934,8.88934,0.800286,0.317564,0.334668,0
2024-12-11 19:40:22.298,-1.3669,0.533899,8.68086,0.793567,0.320618,0.346885,0
2024-12-11 19:40:22.301,-1.29512,0.545863,8.4679,0.786237,0.318786,0.357269,0
2024-12-11 19:40:22.304,-1.22572,0.576969,8.25255,0.769133,0.305347,0.363989,0
2024-12-11 19:40:22.306,-1.16112,0.608076,8.03689,0.769133,0.305347,0.363989,0
2024-12-11 19:40:22.308,-1.08933,0.598505,7.82872,0.755084,0.290687,0.362767,0
2024-12-11 19:40:22.310,-1.01515,0.593719,7.64447,0.742256,0.271751,0.361545,0
2024-12-11 19:40:22.315,-0.9003,0.610469,7.29482,0.704994,0.218607,0.348717,0
2024-12-11 19:40:22.315,-0.9003,0.610469,7.29482,0.704994,0.218607,0.348717,0
2024-12-11 19:40:22.317,-0.842872,0.622433,7.12493,0.68789,0.189897,0.338944,0
2024-12-11 19:40:22.320,-0.797109,0.641576,6.97149,0.667122,0.156301,0.326116,0
2024-12-11 19:40:22.322,-0.761217,0.658325,6.84228,0.648796,0.120871,0.313288,0
2024-12-11 19:40:22.324,-0.73011,0.677468,6.71546,0.624973,0.0799446,0.301682,0
2024-12-11 19:40:22.328,-0.687039,0.689432,6.61017,0.582825,-0.00435229,0.269307,0
2024-12-11 19:40:22.330,-0.65354,0.684646,6.52164,0.582825,-0.00435229,0.269307,0
2024-12-11 19:40:22.331,-0.63679,0.694218,6.4352,0.559612,-0.0465007,0.251593,0
2024-12-11 19:40:22.335,-0.627219,0.699003,6.37059,0.538233,-0.0898709,0.234489,0
2024-12-11 19:40:22.336,-0.622433,0.710967,6.32991,0.515021,-0.135684,0.219829,0
2024-12-11 19:40:22.340,-0.617647,0.718146,6.30598,0.475926,-0.220592,0.187454,0
2024-12-11 19:40:22.341,-0.617647,0.703789,6.28206,0.475926,-0.220592,0.187454,0
2024-12-11 19:40:22.343,-0.612862,0.694218,6.27727,0.455768,-0.261519,0.171572,0
2024-12-11 19:40:22.346,-0.624826,0.691825,6.28924,0.437443,-0.301835,0.157522,0
2024-12-11 19:40:22.349,-0.639183,0.682254,6.27966,0.422172,-0.337875,0.142862,0
2024-12-11 19:40:22.350,-0.651147,0.675075,6.28445,0.406901,-0.370861,0.130645,0
2024-12-11 19:40:22.355,-0.689432,0.658325,6.3347,0.383078,-0.432556,0.108044,0
2024-12-11 19:40:22.355,-0.689432,0.658325,6.3347,0.383078,-0.432556,0.108044,0
2024-12-11 19:40:22.358,-0.701396,0.643968,6.35863,0.374526,-0.457601,0.0994917,0
2024-12-11 19:40:22.361,-0.734896,0.646361,6.39452,0.358644,-0.497306,0.0842206,0
2024-12-11 19:40:22.363,-0.768395,0.63679,6.4328,0.358644,-0.497306,0.0842206,0
2024-12-11 19:40:22.364,-0.787538,0.634397,6.45195,0.353757,-0.512577,0.0787229,0
2024-12-11 19:40:22.367,-0.816252,0.641576,6.45703,0.351924,-0.522962,0.0762796,0
2024-12-11 19:40:22.370,-0.854836,0.641576,6.47617,0.348259,-0.535789,0.0707819,0
2024-12-11 19:40:22.372,-0.9003,0.627219,6.49053,0.348259,-0.535789,0.0707819,0
2024-12-11 19:40:22.374,-0.938585,0.612862,6.47139,0.344594,-0.544341,0.0689494,0
2024-12-11 19:40:22.376,-0.991227,0.615255,6.44238,0.342151,-0.544952,0.0671168,0
2024-12-11 19:40:22.379,-1.05583,0.612862,6.41366,0.339097,-0.540676,0.0683385,0
2024-12-11 19:40:22.382,-1.09651,0.596112,6.3682,0.332377,-0.523572,0.0781121,0
2024-12-11 19:40:22.384,-1.14915,0.60329,6.31077,0.32688,-0.510745,0.0836097,0
2024-12-11 19:40:22.386,-1.19462,0.62004,6.24856,0.32688,-0.510745,0.0836097,0
2024-12-11 19:40:22.389,-1.22333,0.622433,6.19113,0.316495,-0.494252,0.0860531,0
2024-12-11 19:40:22.390,-1.24247,0.627219,6.1337,0.307333,-0.477148,0.0933833,0
2024-12-11 19:40:22.393,-1.25683,0.651147,6.07388,0.300002,-0.460655,0.0988809,0
2024-12-11 19:40:22.396,-1.28554,0.672682,6.00927,0.273736,-0.420339,0.115374,0
2024-12-11 19:40:22.397,-1.29512,0.670289,5.94945,0.273736,-0.420339,0.115374,0
2024-12-11 19:40:22.400,-1.29751,0.658325,5.90399,0.260908,-0.397738,0.123315,0
2024-12-11 19:40:22.402,-1.2999,0.648754,5.84387,0.244415,-0.37025,0.131256,0
2024-12-11 19:40:22.407,-1.28554,0.655932,5.71466,0.210819,-0.304278,0.14836,0
2024-12-11 19:40:22.407,-1.28554,0.655932,5.71466,0.210819,-0.304278,0.14836,0
2024-12-11 19:40:22.409,-1.28076,0.667897,5.6692,0.188217,-0.270071,0.158133,0
2024-12-11 19:40:22.412,-1.26401,0.665504,5.61416,0.169281,-0.230977,0.167296,0
2024-12-11 19:40:22.414,-1.24247,0.675075,5.55913,0.148512,-0.191272,0.176459,0
2024-12-11 19:40:22.416,-1.22572,0.696611,5.50888,0.125911,-0.153399,0.1844,0
2024-12-11 19:40:22.419,-1.21615,0.708575,5.45863,0.104531,-0.114305,0.193562,0
2024-12-11 19:40:22.421,-1.1994,0.715753,5.42273,0.0800973,-0.0770431,0.200892,0
2024-12-11 19:40:22.424,-1.18744,0.718146,5.38206,0.0556635,-0.0391706,0.209444,0
2024-12-11 19:40:22.426,-1.18265,0.708575,5.34856,0.0275645,0.000534491,0.217385,0
2024-12-11 19:40:22.429,-1.1683,0.701396,5.32194,-0.0219141,0.0817772,0.2351,0
2024-12-11 19:40:22.430,-1.1659,0.710967,5.30758,-0.0219141,0.0817772,0.2351,0
2024-12-11 19:40:22.433,-1.18265,0.708575,5.29562,-0.0481806,0.118428,0.246706,0
2024-12-11 19:40:22.436,-1.18265,0.694218,5.3004,-0.100103,0.19173,0.268696,0
2024-12-11 19:40:22.437,-1.18983,0.691825,5.33181,-0.100103,0.19173,0.268696,0
2024-12-11 19:40:22.440,-1.1994,0.701396,5.37488,-0.124536,0.219829,0.282746,0
2024-12-11 19:40:22.442,-1.18983,0.703789,5.44427,-0.14836,0.246706,0.293741,0
2024-12-11 19:40:22.445,-1.17308,0.71336,5.50409,-0.166685,0.272362,0.30718,0
2024-12-11 19:40:22.447,-1.15633,0.720539,5.5687,-0.183789,0.290687,0.321229,0
2024-12-11 19:40:22.450,-1.13719,0.722932,5.64527,-0.216164,0.324894,0.349328,0
2024-12-11 19:40:22.452,-1.12283,0.734896,5.71466,-0.216164,0.324894,0.349328,0
2024-12-11 19:40:22.454,-1.11087,0.742074,5.78405,-0.224715,0.337111,0.361545,0
2024-12-11 19:40:22.457,-1.08694,0.749253,5.85823,-0.240597,0.355437,0.387201,0
2024-12-11 19:40:22.460,-1.09173,0.76361,5.93749,-0.250371,0.361545,0.400029,0
2024-12-11 19:40:22.462,-1.1013,0.785145,6.00927,-0.253425,0.363989,0.411635,0
2024-12-11 19:40:22.464,-1.09412,0.821037,6.09063,-0.253425,0.363989,0.411635,0
2024-12-11 19:40:22.466,-1.07976,0.854836,6.17199,-0.254036,0.364599,0.424462,0
2024-12-11 19:40:22.468,-1.05823,0.888335,6.25813,-0.252814,0.362156,0.437901,0
2024-12-11 19:40:22.471,-1.04626,0.933799,6.34188,-0.248538,0.358491,0.447675,0
2024-12-11 19:40:22.473,-1.04865,0.972084,6.41605,-0.244873,0.352383,0.459281,0
2024-12-11 19:40:22.478,-0.986441,1.02712,6.58385,-0.228991,0.339555,0.48005,0
2024-12-11 19:40:22.480,-0.938585,1.02473,6.62931,-0.221661,0.332225,0.489212,0
2024-12-11 19:40:22.481,-0.938585,1.02473,6.62931,-0.221661,0.332225,0.489212,0
2024-12-11 19:40:22.482,-0.902692,1.03908,6.66999,-0.211277,0.327338,0.497153,0
2024-12-11 19:40:22.485,-0.88355,1.0678,6.70589,-0.200282,0.323062,0.503873,0
2024-12-11 19:40:22.487,-0.830609,1.10848,6.73699,-0.189897,0.320008,0.509981,0
2024-12-11 19:40:22.489,-0.787538,1.13001,6.77767,-0.178291,0.315732,0.512424,0
2024-12-11 19:40:22.492,-0.768395,1.14437,6.81835,-0.168517,0.310234,0.514868,0
2024-12-11 19:40:22.494,-0.737288,1.17308,6.84467,-0.158744,0.296185,0.519755,0
2024-12-11 19:40:22.496,-0.727717,1.1994,6.8662,-0.152025,0.284578,0.517922,0
2024-12-11 19:40:22.500,-0.732503,1.22812,6.88535,-0.146527,0.267475,0.519144,0
2024-12-11 19:40:22.501,-0.754038,1.26879,6.89492,-0.137975,0.248538,0.519144,0
2024-12-11 19:40:22.506,-0.797109,1.34058,6.91167,-0.131256,0.213109,0.518533,0
2024-12-11 19:40:22.506,-0.797109,1.34058,6.91167,-0.131256,0.213109,0.518533,0
2024-12-11 19:40:22.510,-0.833001,1.42702,6.98345,-0.12698,0.177069,0.519144,0
2024-12-11 19:40:22.510,-0.833001,1.42702,6.98345,-0.12698,0.177069,0.519144,0
2024-12-11 19:40:22.513,-0.835394,1.46052,7.03161,-0.12698,0.158133,0.519755,0
2024-12-11 19:40:22.515,-0.833001,1.49402,7.08664,-0.128202,0.139197,0.520976,0
2024-12-11 19:40:22.519,-0.828216,1.5347,7.13211,-0.130034,0.120871,0.517922,0
2024-12-11 19:40:22.520,-0.818644,1.57777,7.18714,-0.133699,0.103768,0.520976,0
2024-12-11 19:40:22.525,-0.789931,1.64955,7.32353,-0.137364,0.0768904,0.521587,0
2024-12-11 19:40:22.526,-0.789931,1.64955,7.32353,-0.142862,0.0658951,0.521587,0
2024-12-11 19:40:22.529,-0.749253,1.72852,7.48624,-0.147749,0.0548999,0.522198,0
2024-12-11 19:40:22.530,-0.749253,1.72852,7.48624,-0.147749,0.0548999,0.522198,0
2024-12-11 19:40:22.532,-0.749253,1.77876,7.57478,-0.152025,0.0500131,0.524031,0
2024-12-11 19:40:22.534,-0.768395,1.83619,7.66601,-0.160576,0.0469589,0.524031,0
2024-12-11 19:40:22.537,-0.782752,1.9008,7.76411,-0.167907,0.0487914,0.524641,0
2024-12-11 19:40:22.539,-0.789931,1.97049,7.87179,-0.171572,0.0548999,0.525252,0
2024-12-11 19:40:22.542,-0.792323,2.03031,7.97707,-0.178291,0.0628409,0.531972,0
2024-12-11 19:40:22.543,-0.792323,2.08535,8.09911,-0.18501,0.0720036,0.531972,0
2024-12-11 19:40:22.546,-0.773181,2.17388,8.22622,-0.189286,0.0811663,0.537469,0
2024-12-11 19:40:22.549,-0.739681,2.25284,8.3339,-0.202114,0.0988809,0.544189,0
2024-12-11 19:40:22.552,-0.689432,2.31506,8.45354,-0.202114,0.0988809,0.544189,0
2024-12-11 19:40:22.553,-0.617647,2.39163,8.58754,-0.210055,0.1056,0.546632,0
2024-12-11 19:40:22.556,-0.569791,2.48016,8.7027,-0.221661,0.12698,0.546632,0
2024-12-11 19:40:22.559,-0.519542,2.57617,8.82234,-0.22777,0.139808,0.544799,0
2024-12-11 19:40:22.560,-0.459721,2.67189,8.95155,-0.22777,0.139808,0.544799,0
2024-12-11 19:40:22.562,-0.409472,2.75563,9.07598,-0.233267,0.152635,0.54541,0
2024-12-11 19:40:22.565,-0.337687,2.82981,9.18365,-0.237543,0.164852,0.544189,0
2024-12-11 19:40:22.567,-0.263211,2.90638,9.29881,-0.24243,0.176459,0.539913,0
2024-12-11 19:40:22.569,-0.191426,2.99252,9.41606,-0.24243,0.176459,0.539913,0
2024-12-11 19:40:22.574,-0.00478565,3.12921,9.65055,-0.260145,0.194784,0.525863,0
2024-12-11 19:40:22.575,-0.00478565,3.12921,9.65055,-0.266864,0.197838,0.517922,0
2024-12-11 19:40:22.576,0.081356,3.18425,9.75105,-0.266864,0.197838,0.517922,0
2024-12-11 19:40:22.579,0.143569,3.23928,9.9021,-0.273583,0.197227,0.506927,0
2024-12-11 19:40:22.581,0.212961,3.30868,10.0433,-0.281524,0.196006,0.496542,0
2024-12-11 19:40:22.583,0.289831,3.37807,10.1773,-0.287022,0.196006,0.486769,0
2024-12-11 19:40:22.587,0.347258,3.43789,10.3256,-0.29313,0.199671,0.474552,0
2024-12-11 19:40:22.588,0.407079,3.50489,10.4623,-0.292519,0.203947,0.462335,0
2024-12-11 19:40:22.593,0.545863,3.63171,10.7255,-0.296795,0.208833,0.450118,0
2024-12-11 19:40:22.594,0.476471,3.56949,10.6083,-0.296795,0.208833,0.450118,0
2024-12-11 19:40:22.595,0.615255,3.68943,10.8356,-0.302904,0.212498,0.423852,0
2024-12-11 19:40:22.599,0.677468,3.7325,10.9579,-0.313899,0.202114,0.395142,0
2024-12-11 19:40:22.601,0.739681,3.75165,11.0776,-0.313899,0.202114,0.395142,0
2024-12-11 19:40:22.602,0.797109,3.78515,11.202,-0.323673,0.187454,0.37926,0
2024-12-11 19:40:22.605,0.852443,3.83779,11.3288,-0.32917,0.172183,0.359713,0
2024-12-11 19:40:22.607,0.924228,3.88086,11.4748,-0.337722,0.150803,0.341998,0
2024-12-11 19:40:22.609,0.99362,3.92393,11.645,-0.348107,0.125758,0.321229,0
2024-12-11 19:40:22.612,1.06062,3.96939,11.8292,-0.355437,0.101935,0.297406,0
2024-12-11 19:40:22.615,1.12762,4.034,12.0206,-0.368265,0.046348,0.247317,0
2024-12-11 19:40:22.617,1.20419,4.09143,12.2028,-0.368265,0.046348,0.247317,0
2024-12-11 19:40:22.620,1.28794,4.12253,12.3918,-0.373762,0.0139731,0.222272,0
2024-12-11 19:40:22.621,1.37408,4.15843,12.6024,-0.379871,-0.021456,0.190508,0
2024-12-11 19:40:22.624,1.45095,4.1991,12.7941,-0.383536,-0.057496,0.160576,0
2024-12-11 19:40:22.626,1.51795,4.24487,12.9855,-0.390255,-0.0959794,0.127591,0
2024-12-11 19:40:22.628,1.58495,4.27119,13.1916,-0.393309,-0.138128,0.0933833,0
2024-12-11 19:40:22.631,1.65912,4.28794,13.4118,-0.39392,-0.181498,0.0597867,0
2024-12-11 19:40:22.633,1.73569,4.31905,13.6678,-0.39392,-0.227922,0.0231358,0
2024-12-11 19:40:22.638,1.79791,4.32622,14.1395,-0.385368,-0.321382,-0.0458899,0
2024-12-11 19:40:22.638,1.85773,4.32622,14.1395,-0.385368,-0.321382,-0.0458899,0
2024-12-11 19:40:22.640,1.90558,4.30947,14.4054,-0.380481,-0.365974,-0.0800973,0
2024-12-11 19:40:22.642,1.94387,4.30708,14.6782,-0.370708,-0.409955,-0.113694,0
2024-12-11 19:40:22.645,1.98245,4.29751,14.9225,-0.35788,-0.451492,-0.146069,0
2024-12-11 19:40:22.647,2.01595,4.24965,15.1594,-0.340776,-0.490587,-0.177833,0
2024-12-11 19:40:22.649,2.04706,4.19432,15.4179,-0.318786,-0.522962,-0.207764,0
2024-12-11 19:40:22.652,2.07577,4.1345,15.6838,-0.293741,-0.55045,-0.235253,0
2024-12-11 19:40:22.654,2.10209,4.06989,15.9302,-0.265031,-0.570608,-0.260908,0
2024-12-11 19:40:22.657,2.10688,4.00768,16.1507,-0.230213,-0.583435,-0.282899,0
2024-12-11 19:40:22.659,2.0662,3.96461,16.3182,-0.192341,-0.585879,-0.300002,0
2024-12-11 19:40:22.661,2.02074,3.91675,16.433,-0.151414,-0.578549,-0.317106,0
2024-12-11 19:40:22.664,1.97288,3.8689,16.5144,-0.106822,-0.561445,-0.325047,0
2024-12-11 19:40:22.666,1.89601,3.82582,16.5697,-0.0597867,-0.537011,-0.332988,1
2024-12-11 19:40:22.671,1.72373,3.73729,16.596,0.0361163,-0.455768,-0.329323,0
2024-12-11 19:40:22.671,1.72373,3.73729,16.596,0.0361163,-0.455768,-0.329323,0
2024-12-11 19:40:22.673,1.63041,3.68465,16.5239,0.0862058,-0.404457,-0.323825,0
2024-12-11 19:40:22.675,1.52991,3.63649,16.4234,0.133852,-0.345816,-0.313441,0
2024-12-11 19:40:22.678,1.42463,3.59342,16.2894,0.183941,-0.279234,-0.297559,0
2024-12-11 19:40:22.681,1.31665,3.54556,16.1315,0.234642,-0.205932,-0.281677,0
2024-12-11 19:40:22.682,1.18026,3.52164,15.935,0.285342,-0.125911,-0.261519,0
2024-12-11 19:40:22.685,1.00319,3.52164,15.7053,0.329934,-0.0410031,-0.237696,0
2024-12-11 19:40:22.688,0.789931,3.5671,15.4131,0.424615,0.145916,-0.180887,0
2024-12-11 19:40:22.689,0.584148,3.62692,15.0661,0.424615,0.145916,-0.180887,0
2024-12-11 19:40:22.693,0.3999,3.66072,14.6877,0.501582,0.315121,-0.108196,0
2024-12-11 19:40:22.694,0.256032,3.69422,14.2567,0.501582,0.315121,-0.108196,0
2024-12-11 19:40:22.697,0.172283,3.70379,13.7614,0.527238,0.378649,-0.0721563,0
2024-12-11 19:40:22.701,0.122034,3.64128,12.6,0.549228,0.459892,-0.000687203,0
2024-12-11 19:40:22.704,0.155533,3.57428,11.9895,0.537622,0.478217,0.0310769,0
2024-12-11 19:40:22.704,0.155533,3.57428,11.9895,0.537622,0.478217,0.0310769,0
2024-12-11 19:40:22.707,0.246461,3.5336,11.3934,0.472261,0.473941,0.0781121,0
2024-12-11 19:40:22.709,0.371187,3.52642,10.8428,0.472261,0.473941,0.0781121,0
2024-12-11 19:40:22.712,0.478864,3.51207,10.3735,0.417285,0.450118,0.094605,0
2024-12-11 19:40:22.713,0.615255,3.50249,9.99063,0.353757,0.414078,0.1056,0
2024-12-11 19:40:22.716,0.801895,3.50249,9.69602,0.280455,0.36521,0.109265,0
2024-12-11 19:40:22.718,0.957727,3.54556,9.47109,0.201045,0.307791,0.108654,0
2024-12-11 19:40:22.720,1.04626,3.65593,9.26052,0.116137,0.250371,0.100713,0
2024-12-11 19:40:22.723,1.12044,3.78275,9.12144,0.0300079,0.191119,0.0915507,0
2024-12-11 19:40:22.725,1.27119,3.89282,9.10708,-0.0567324,0.132477,0.0805555,0
2024-12-11 19:40:22.727,1.48445,4.00289,9.18605,-0.14836,0.0671168,0.0622301,0
2024-12-11 19:40:22.730,1.70698,4.11057,9.3012,-0.233878,-0.00251974,0.0359636,0
2024-12-11 19:40:22.732,1.93191,4.19432,9.48066,-0.319397,-0.0691021,0.00358873,0
2024-12-11 19:40:22.734,2.18584,4.2353,9.72234,-0.400029,-0.131409,-0.0348946,0
2024-12-11 19:40:22.737,2.4658,4.24008,9.95713,-0.47333,-0.188828,-0.0819299,0
2024-12-11 19:40:22.740,2.74128,4.24008,10.2251,-0.540523,-0.240139,-0.138739,0
2024-12-11 19:40:22.741,3.02124,4.2329,10.5365,-0.602219,-0.28412,-0.199213,0
2024-12-11 19:40:22.744,3.28475,4.18953,10.8476,-0.655363,-0.318328,-0.267017,0
2024-12-11 19:40:22.747,3.47617,4.12493,11.1733,-0.739049,-0.360476,-0.419728,0
2024-12-11 19:40:22.748,3.62214,4.05554,11.5205,-0.739049,-0.360476,-0.419728,0
2024-12-11 19:40:22.751,3.74208,3.93829,11.8555,-0.765926,-0.367806,-0.500971,0
2024-12-11 19:40:22.754,3.80429,3.81147,12.1693,-0.795247,-0.354979,-0.667732,0
2024-12-11 19:40:22.755,3.833,3.68704,12.4469,-0.795247,-0.354979,-0.667732,0
2024-12-11 19:40:22.759,3.8354,3.52882,12.6888,-0.790971,-0.304278,-0.836326,0
2024-12-11 19:40:22.761,3.77318,3.34218,12.8851,-0.781808,-0.267627,-0.914515,0
2024-12-11 19:40:22.763,3.65354,3.13879,13.0047,-0.781808,-0.267627,-0.914515,0
2024-12-11 19:40:22.766,3.49532,2.92552,13.0573,-0.745157,-0.16867,-1.06234,0
2024-12-11 19:40:22.767,3.30389,2.71496,13.0573,-0.745157,-0.16867,-1.06234,0
2024-12-11 19:40:22.770,3.07627,2.49691,13.0095,-0.745157,-0.16867,-1.06234,0
2024-12-11 19:40:22.774,2.52592,2.07338,12.7917,-0.681018,0.00847551,-1.24071,0
2024-12-11 19:40:22.775,2.81545,2.27677,12.9257,-0.66086,0.0750579,-1.28652,0
2024-12-11 19:40:22.777,2.2002,1.89123,12.6191,-0.66086,0.0750579,-1.28652,0
2024-12-11 19:40:22.780,1.86491,1.71177,12.411,-0.62421,0.216164,-1.34883,0
2024-12-11 19:40:22.781,1.52513,1.52991,12.1932,-0.62421,0.216164,-1.34883,0
2024-12-11 19:40:22.785,1.18026,1.3669,11.9943,-0.605884,0.286411,-1.36899,0
2024-12-11 19:40:22.788,0.553041,1.01994,11.6186,-0.586948,0.422019,-1.38059,0
2024-12-11 19:40:22.792,0.267996,0.885943,11.4293,-0.541134,0.550908,-1.35982,0
2024-12-11 19:40:22.793,-0.00957129,0.742074,11.2475,-0.541134,0.550908,-1.35982,0
2024-12-11 19:40:22.793,-0.00957129,0.742074,11.2475,-0.541134,0.550908,-1.35982,0
2024-12-11 19:40:22.796,-0.282652,0.608076,11.0584,-0.527085,0.61016,-1.33783,0
2024-12-11 19:40:22.799,-0.531506,0.474078,10.8954,-0.491656,0.715226,-1.28041,0
2024-12-11 19:40:22.800,-0.742074,0.352044,10.7638,-0.491656,0.715226,-1.28041,0
2024-12-11 19:40:22.804,-0.931406,0.244068,10.6059,-0.453783,0.802042,-1.20222,0
2024-12-11 19:40:22.806,-1.11565,0.129212,10.4336,-0.434847,0.832585,-1.1558,0
2024-12-11 19:40:22.807,-1.27837,0.0430708,10.2969,-0.434847,0.832585,-1.1558,0
2024-12-11 19:40:22.810,-1.41266,-0.0215354,10.1725,-0.413467,0.85763,-1.10938,0
2024-12-11 19:40:22.813,-1.50838,-0.0885344,10.0409,-0.370708,0.881453,-1.00797,0
2024-12-11 19:40:22.814,-1.57298,-0.138784,9.92842,-0.370708,0.881453,-1.00797,0
2024-12-11 19:40:22.818,-1.62562,-0.174676,9.82314,-0.323062,0.874733,-0.905963,0
2024-12-11 19:40:22.819,-1.67109,-0.193819,9.7343,-0.323062,0.874733,-0.905963,0
2024-12-11 19:40:22.821,-1.68784,-0.193819,9.65534,-0.30046,0.861295,-0.855873,0
2024-12-11 19:40:22.824,-1.66869,-0.200997,9.55963,-0.271751,0.84358,-0.809449,0
2024-12-11 19:40:22.826,-1.6328,-0.210568,9.48784,-0.247317,0.817924,-0.761192,0
2024-12-11 19:40:22.829,-1.58734,-0.18664,9.42802,-0.217385,0.788527,-0.717822,0
2024-12-11 19:40:22.831,-1.53948,-0.157926,9.35863,-0.186232,0.753709,-0.676284,0
2024-12-11 19:40:22.833,-1.49641,-0.133998,9.29402,-0.186232,0.753709,-0.676284,0
2024-12-11 19:40:22.837,-1.45573,-0.107677,9.22194,-0.0958267,0.620544,-0.570608,0
2024-12-11 19:40:22.839,-1.41027,-0.0598206,9.1669,-0.0958267,0.620544,-0.570608,0
2024-12-11 19:40:22.840,-1.35254,-0.0143569,9.12623,-0.0622301,0.567401,-0.540065,0
2024-12-11 19:40:22.844,-1.28794,0.026321,9.06641,-0.0316877,0.508759,-0.511356,0
2024-12-11 19:40:22.845,-1.23051,0.066999,9.00658,-0.00114534,0.450729,-0.488754,0
2024-12-11 19:40:22.848,-1.17069,0.0933201,8.95873,0.0562743,0.327338,-0.444773,0
2024-12-11 19:40:22.850,-1.10848,0.129212,8.9013,0.0562743,0.327338,-0.444773,0
2024-12-11 19:40:22.854,-0.96012,0.172283,8.79602,0.119192,0.203947,-0.409955,0
2024-12-11 19:40:22.854,-0.96012,0.172283,8.79602,0.119192,0.203947,-0.409955,0
2024-12-11 19:40:22.858,-0.881157,0.208176,8.7338,0.169281,0.0762796,-0.383078,0
2024-12-11 19:40:22.859,-0.789931,0.227318,8.66411,0.169281,0.0762796,-0.383078,0
2024-12-11 19:40:22.861,-0.718146,0.234497,8.58993,0.194326,0.014584,-0.369639,0
2024-12-11 19:40:22.865,-0.651147,0.244068,8.52772,0.232809,-0.109418,-0.347038,0
2024-12-11 19:40:22.867,-0.565005,0.251246,8.47029,0.251135,-0.168059,-0.33421,0
2024-12-11 19:40:22.870,-0.481256,0.244068,8.4009,0.251135,-0.168059,-0.33421,0
2024-12-11 19:40:22.871,-0.380758,0.239282,8.3339,0.263352,-0.22609,-0.323215,0
2024-12-11 19:40:22.873,-0.265603,0.244068,8.28844,0.274347,-0.279844,-0.314052,0
2024-12-11 19:40:22.877,-0.143569,0.239282,8.27169,0.29084,-0.374526,-0.296948,0
2024-12-11 19:40:22.879,-0.0119641,0.227318,8.25494,0.293283,-0.417285,-0.289618,0
2024-12-11 19:40:22.880,0.102891,0.215354,8.25015,0.293283,-0.417285,-0.289618,0
2024-12-11 19:40:22.883,0.208176,0.217747,8.25015,0.298781,-0.451492,-0.284731,0
2024-12-11 19:40:22.885,0.32333,0.222533,8.2358,0.301224,-0.485089,-0.279234,0
2024-12-11 19:40:22.887,0.428614,0.251246,8.2358,0.302446,-0.512577,-0.276179,0
2024-12-11 19:40:22.891,0.529113,0.287438,8.24537,0.303057,-0.533346,-0.273125,0
2024-12-11 19:40:22.892,0.641576,0.320937,8.24776,0.298781,-0.551671,-0.270682,0
2024-12-11 19:40:22.894,0.761217,0.364008,8.2358,0.293894,-0.566943,-0.274347,0
2024-12-11 19:40:22.898,0.881157,0.419043,8.21426,0.290229,-0.576105,-0.280455,0
2024-12-11 19:40:22.901,1.10608,0.567398,8.16401,0.270071,-0.582214,-0.301224,0
2024-12-11 19:40:22.904,1.10608,0.639183,8.16162,0.257854,-0.576105,-0.315274,0
2024-12-11 19:40:22.904,1.1994,0.639183,8.16162,0.257854,-0.576105,-0.315274,0
2024-12-11 19:40:22.906,1.28076,0.694218,8.14248,0.242583,-0.568164,-0.332377,0
2024-12-11 19:40:22.909,1.35015,0.766002,8.11825,0.223646,-0.555337,-0.353757,0
2024-12-11 19:40:22.912,1.41506,0.84018,8.12064,0.207154,-0.5364,-0.37758,0
2024-12-11 19:40:22.914,1.46291,0.902692,8.11586,0.186385,-0.51441,-0.401403,0
2024-12-11 19:40:22.916,1.47727,0.969691,8.12543,0.166227,-0.488754,-0.428891,0
2024-12-11 19:40:22.919,1.47488,1.03908,8.15444,0.1253,-0.421561,-0.488143,0
2024-12-11 19:40:22.921,1.47727,1.1013,8.18076,0.1253,-0.421561,-0.488143,0
2024-12-11 19:40:22.923,1.47248,1.1683,8.21426,0.105142,-0.384299,-0.517464,0
2024-12-11 19:40:22.925,1.44138,1.22094,8.2358,0.0862058,-0.340929,-0.55045,0
2024-12-11 19:40:22.931,1.32144,1.29033,8.2334,0.0703238,-0.239528,-0.606037,0
2024-12-11 19:40:22.932,1.23769,1.30229,8.2358,0.0703238,-0.239528,-0.606037,0
2024-12-11 19:40:22.932,1.23769,1.30229,8.2358,0.0703238,-0.239528,-0.606037,0
2024-12-11 19:40:22.935,1.16351,1.32383,8.23819,0.0269536,-0.126522,-0.657959,0
2024-12-11 19:40:22.937,1.07258,1.33101,8.21665,0.0269536,-0.126522,-0.657959,0
2024-12-11 19:40:22.940,0.972084,1.32861,8.16162,-0.0109189,0.0518457,-0.721487,0
2024-12-11 19:40:22.942,0.871586,1.32144,8.10389,-0.0109189,0.0518457,-0.721487,0
2024-12-11 19:40:22.944,0.754038,1.29033,8.02971,-0.0219141,0.113541,-0.736147,0
2024-12-11 19:40:22.949,0.536291,1.24008,7.83111,-0.0512348,0.223494,-0.756305,0
2024-12-11 19:40:22.949,0.536291,1.24008,7.83111,-0.0512348,0.223494,-0.756305,0
2024-12-11 19:40:22.951,0.431007,1.2018,7.733,-0.0646735,0.274805,-0.763025,0
2024-12-11 19:40:22.953,0.320937,1.15872,7.62054,-0.082388,0.320008,-0.765468,0
2024-12-11 19:40:22.956,0.236889,1.13001,7.52932,-0.0964375,0.365821,-0.76669,0
2024-12-11 19:40:22.958,0.155533,1.12522,7.45992,-0.11293,0.406748,-0.765468,0
2024-12-11 19:40:22.961,0.0837488,1.10369,7.39771,-0.131256,0.440955,-0.761803,0
2024-12-11 19:40:22.963,0.0311067,1.07976,7.36182,-0.144694,0.471498,-0.755084,0
2024-12-11 19:40:22.965,-0.0191426,1.07498,7.3355,-0.161187,0.498986,-0.748364,0
2024-12-11 19:40:22.967,-0.0622134,1.0989,7.32353,-0.174015,0.520976,-0.739812,0
2024-12-11 19:40:22.970,-0.102891,1.12762,7.32593,-0.185621,0.539913,-0.729428,0
2024-12-11 19:40:22.972,-0.153141,1.1324,7.34746,-0.195395,0.555184,-0.719654,0
2024-12-11 19:40:22.975,-0.191426,1.16112,7.40489,-0.203947,0.564957,-0.708659,0
2024-12-11 19:40:22.977,-0.224925,1.20419,7.4671,-0.205168,0.56679,-0.698275,0
2024-12-11 19:40:22.979,-0.258425,1.24008,7.51496,-0.205779,0.568622,-0.686058,0
2024-12-11 19:40:22.982,-0.27996,1.26162,7.56282,-0.200892,0.560681,-0.676284,0
2024-12-11 19:40:22.986,-0.318545,1.33101,7.68754,-0.186232,0.539913,-0.655515,0
2024-12-11 19:40:22.986,-0.318545,1.33101,7.68754,-0.186232,0.539913,-0.655515,0
2024-12-11 19:40:22.989,-0.32333,1.35254,7.74736,-0.174015,0.525252,-0.64452,0
2024-12-11 19:40:22.991,-0.299402,1.37647,7.79522,-0.158133,0.503262,-0.635968,0
2024-12-11 19:40:22.996,-0.301795,1.4342,7.89332,-0.121482,0.45867,-0.617032,0
2024-12-11 19:40:22.996,-0.301795,1.4342,7.89332,-0.121482,0.45867,-0.617032,0
2024-12-11 19:40:22.998,-0.299402,1.47248,7.91486,-0.101935,0.433014,-0.60848,0
2024-12-11 19:40:23.001,-0.292223,1.50598,7.92443,-0.0805555,0.409802,-0.601761,0
2024-12-11 19:40:23.004,-0.275175,1.52752,7.92922,-0.0353528,0.356658,-0.587711,0
2024-12-11 19:40:23.005,-0.263211,1.56102,7.92922,-0.0353528,0.356658,-0.587711,0
2024-12-11 19:40:23.010,-0.236889,1.61605,7.8694,0.00984991,0.302904,-0.574273,0
2024-12-11 19:40:23.011,-0.236889,1.61605,7.8694,0.0330621,0.274805,-0.568164,0
2024-12-11 19:40:23.012,-0.239282,1.61366,7.82393,0.0330621,0.274805,-0.568164,0
2024-12-11 19:40:23.016,-0.234497,1.61845,7.76411,0.0691021,0.216774,-0.55778,0
2024-12-11 19:40:23.017,-0.229711,1.64477,7.6995,0.0691021,0.216774,-0.55778,0
2024-12-11 19:40:23.019,-0.205783,1.64955,7.63968,0.085595,0.190508,-0.554726,0
2024-12-11 19:40:23.023,-0.179462,1.6663,7.57239,0.113694,0.13431,-0.54373,0
2024-12-11 19:40:23.025,-0.153141,1.68544,7.50778,0.124078,0.107433,-0.541898,0
2024-12-11 19:40:23.026,-0.133998,1.69502,7.46471,0.124078,0.107433,-0.541898,0
2024-12-11 19:40:23.030,-0.105284,1.71894,7.42403,0.13935,0.0561216,-0.537622,0
2024-12-11 19:40:23.031,-0.0765703,1.74527,7.37857,0.13935,0.0561216,-0.537622,0
2024-12-11 19:40:23.033,-0.0693919,1.76919,7.34028,0.143625,0.0341311,-0.535789,0
2024-12-11 19:40:23.037,-0.0646062,1.8003,7.2996,0.144236,-0.0019089,-0.535179,0
2024-12-11 19:40:23.038,-0.0574277,1.81226,7.27568,0.144236,-0.0019089,-0.535179,0
2024-12-11 19:40:23.040,-0.0478565,1.8338,7.23978,0.143625,-0.0129041,-0.532735,0
2024-12-11 19:40:23.043,-0.0382852,1.88644,7.2015,0.141182,-0.0226777,-0.532124,0
2024-12-11 19:40:23.046,-0.0382852,1.91994,7.18475,0.132019,-0.0324513,-0.530292,0
2024-12-11 19:40:23.049,-0.0358923,1.92712,7.16561,0.132019,-0.0324513,-0.530292,0
2024-12-11 19:40:23.050,-0.0215354,1.94148,7.16321,0.125911,-0.0367272,-0.528459,0
2024-12-11 19:40:23.052,0.0,1.95823,7.168,0.117359,-0.0391706,-0.525405,0
2024-12-11 19:40:23.057,0.066999,1.97767,7.17518,0.0965902,-0.0391706,-0.525405,0
2024-12-11 19:40:23.057,0.066999,1.97767,7.17518,0.0965902,-0.0391706,-0.525405,0
2024-12-11 19:40:23.059,0.11007,1.98963,7.19671,0.0831516,-0.0379489,-0.527238,0
2024-12-11 19:40:23.062,0.157926,2.00638,7.22782,0.0739889,-0.0355055,-0.530292,0
2024-12-11 19:40:23.064,0.22014,2.01835,7.25893,0.0587177,-0.0324513,-0.533957,0
2024-12-11 19:40:23.066,0.277567,2.04706,7.29003,0.0458899,-0.0263428,-0.539454,0
2024-12-11 19:40:23.069,0.311366,2.08295,7.32593,0.0330621,-0.0177909,-0.546785,0
2024-12-11 19:40:23.072,0.34008,2.11167,7.37857,0.0184018,-0.00923906,-0.554115,0
2024-12-11 19:40:23.076,0.375972,2.14756,7.46232,-0.0115297,0.0115297,-0.566943,0
2024-12-11 19:40:23.076,0.375972,2.14756,7.46232,-0.0115297,0.0115297,-0.566943,0
2024-12-11 19:40:23.079,0.390329,2.18584,7.52214,-0.0396287,0.0377962,-0.584046,0
2024-12-11 19:40:23.081,0.3999,2.22652,7.59183,-0.0396287,0.0377962,-0.584046,0
2024-12-11 19:40:23.084,0.395115,2.24806,7.67318,-0.0658951,0.0671168,-0.60115,0
2024-12-11 19:40:23.085,0.383151,2.2672,7.74736,-0.0658951,0.0671168,-0.60115,0
2024-12-11 19:40:23.089,0.387936,2.27916,7.81675,-0.0921616,0.100103,-0.620697,0
2024-12-11 19:40:23.092,0.383151,2.2672,7.98186,-0.101935,0.114152,-0.631692,0
2024-12-11 19:40:23.092,0.383151,2.2672,7.98186,-0.101935,0.114152,-0.631692,0
2024-12-11 19:40:23.096,0.354437,2.27438,8.05604,-0.114152,0.12698,-0.643299,0
2024-12-11 19:40:23.098,0.311366,2.3007,8.14965,-0.12698,0.152635,-0.657348,0
2024-12-11 19:40:23.099,0.282652,2.32223,8.24537,-0.12698,0.152635,-0.657348,0
2024-12-11 19:40:23.102,0.263211,2.32702,8.3339,-0.130645,0.167907,-0.662846,0
2024-12-11 19:40:23.104,0.229711,2.32223,8.43201,-0.135532,0.178291,-0.669565,0
2024-12-11 19:40:23.106,0.200997,2.31745,8.52772,-0.139808,0.189897,-0.673841,0
2024-12-11 19:40:23.110,0.184247,2.32702,8.62343,-0.142251,0.211277,-0.681171,0
2024-12-11 19:40:23.111,0.141177,2.32463,8.73141,-0.142251,0.211277,-0.681171,0
2024-12-11 19:40:23.114,0.0885344,2.31984,8.8343,-0.143473,0.22044,-0.683004,0
2024-12-11 19:40:23.116,0.0502493,2.32702,8.92044,-0.141029,0.230213,-0.683004,0
2024-12-11 19:40:23.118,0.00957129,2.33659,8.99701,-0.139808,0.238765,-0.679949,0
2024-12-11 19:40:23.121,-0.0334995,2.35334,9.07358,-0.131867,0.246095,-0.677506,0
2024-12-11 19:40:23.124,-0.0837488,2.36531,9.14297,-0.120261,0.26381,-0.669565,0
2024-12-11 19:40:23.125,-0.138784,2.3677,9.19562,-0.120261,0.26381,-0.669565,0
2024-12-11 19:40:23.128,-0.20339,2.38445,9.24108,-0.111709,0.265642,-0.663456,0
2024-12-11 19:40:23.130,-0.277567,2.41316,9.28684,-0.103768,0.273583,-0.659181,0
2024-12-11 19:40:23.133,-0.342473,2.4347,9.32274,-0.0891073,0.287633,-0.64452,0
2024-12-11 19:40:23.135,-0.387936,2.4682,9.32752,-0.0891073,0.287633,-0.64452,0
2024-12-11 19:40:23.138,-0.435793,2.50409,9.31077,-0.0695602,0.304126,-0.626806,0
2024-12-11 19:40:23.142,-0.536291,2.55224,9.24108,-0.0695602,0.304126,-0.626806,0
2024-12-11 19:40:23.144,-0.574577,2.58814,9.18365,-0.0542891,0.319397,-0.606648,0
2024-12-11 19:40:23.144,-0.574577,2.58814,9.18365,-0.0542891,0.319397,-0.606648,0
2024-12-11 19:40:23.147,-0.612862,2.61685,9.12862,-0.050624,0.323673,-0.598707,0
2024-12-11 19:40:23.149,-0.639183,2.64078,9.07119,-0.050624,0.321229,-0.588933,0
2024-12-11 19:40:23.151,-0.667897,2.64796,9.00898,-0.0487914,0.313899,-0.57977,0
2024-12-11 19:40:23.154,-0.703789,2.66471,8.96591,-0.0524565,0.305958,-0.57244,0
2024-12-11 19:40:23.156,-0.727717,2.67667,8.91805,-0.0579541,0.296185,-0.567553,0
2024-12-11 19:40:23.158,-0.742074,2.69581,8.87976,-0.066506,0.280913,-0.561445,0
2024-12-11 19:40:23.162,-0.749253,2.74128,8.87019,-0.0872748,0.246706,-0.553504,0
2024-12-11 19:40:23.164,-0.751645,2.78435,8.87976,-0.0994917,0.224715,-0.549839,0
2024-12-11 19:40:23.165,-0.751645,2.80828,8.89412,-0.0994917,0.224715,-0.549839,0
2024-12-11 19:40:23.168,-0.734896,2.83699,8.91087,-0.113541,0.201503,-0.548617,0
2024-12-11 19:40:23.171,-0.710967,2.8681,8.96112,-0.143473,0.147749,-0.544341,0
2024-12-11 19:40:23.173,-0.675075,2.88006,9.02812,-0.143473,0.147749,-0.544341,0
2024-12-11 19:40:23.176,-0.624826,2.89442,9.08555,-0.16302,0.116595,-0.548006,0
2024-12-11 19:40:23.177,-0.555434,2.88963,9.15973,-0.181345,0.0854423,-0.552282,0
2024-12-11 19:40:23.179,-0.469292,2.8657,9.2677,-0.200282,0.0487914,-0.555947,0
2024-12-11 19:40:23.183,-0.395115,2.85613,9.41845,-0.221661,0.0127514,-0.56511,0
2024-12-11 19:40:23.184,-0.342473,2.85853,9.59073,-0.243652,-0.0251211,-0.576105,0
2024-12-11 19:40:23.186,-0.301795,2.85135,9.79891,-0.261977,-0.0605502,-0.588322,0
2024-12-11 19:40:23.190,-0.270389,2.84895,10.0337,-0.296795,-0.129576,-0.617643,0
2024-12-11 19:40:23.191,-0.253639,2.84895,10.2873,-0.296795,-0.129576,-0.617643,0
2024-12-11 19:40:23.195,-0.222533,2.82981,10.558,-0.30718,-0.157675,-0.632914,0
2024-12-11 19:40:23.196,-0.189033,2.79871,10.8476,-0.318175,-0.181498,-0.649407,0
2024-12-11 19:40:23.198,-0.184247,2.77478,11.135,-0.323062,-0.204099,-0.664678,0
2024-12-11 19:40:23.201,-0.189033,2.73171,11.4221,-0.324894,-0.221203,-0.681782,0
2024-12-11 19:40:23.203,-0.196211,2.6671,11.7215,-0.323673,-0.237696,-0.695831,0
2024-12-11 19:40:23.206,-0.217747,2.61207,12.023,-0.319397,-0.253578,-0.710492,0
2024-12-11 19:40:23.208,-0.232104,2.55942,12.3224,-0.315121,-0.266406,-0.724541,0
2024-12-11 19:40:23.210,-0.275175,2.48495,12.5928,-0.304126,-0.273736,-0.73798,0
2024-12-11 19:40:23.212,-0.330509,2.42752,12.8659,-0.291909,-0.275568,-0.747143,0
2024-12-11 19:40:23.216,-0.387936,2.37966,13.1387,-0.254036,-0.265184,-0.759359,0
2024-12-11 19:40:23.217,-0.464507,2.31266,13.3663,-0.254036,-0.265184,-0.759359,0
2024-12-11 19:40:23.220,-0.562612,2.25763,13.5577,-0.254036,-0.265184,-0.759359,0
2024-12-11 19:40:23.222,-0.672682,2.22413,13.7276,-0.211277,-0.218149,-0.752029,0
2024-12-11 19:40:23.224,-0.775574,2.20259,13.8356,-0.183789,-0.177833,-0.742867,0
2024-12-11 19:40:23.228,-0.893121,2.17866,13.8858,-0.156301,-0.124078,-0.726374,0
2024-12-11 19:40:23.229,-1.0008,2.14995,13.8835,-0.156301,-0.124078,-0.726374,0
2024-12-11 19:40:23.231,-1.08933,2.10449,13.8428,-0.0994917,0.00847551,-0.688501,0
2024-12-11 19:40:23.234,-1.15633,2.05185,13.7276,-0.0781121,0.0756687,-0.664678,0
2024-12-11 19:40:23.237,-1.19222,1.99442,13.5266,-0.0512348,0.194784,-0.613367,0
2024-12-11 19:40:23.239,-1.22333,1.94387,13.3041,-0.050624,0.237543,-0.587711,0
2024-12-11 19:40:23.241,-1.24008,1.90798,13.0597,-0.050624,0.237543,-0.587711,0
2024-12-11 19:40:23.243,-1.23051,1.88405,12.7798,-0.0591758,0.265031,-0.567553,0
2024-12-11 19:40:23.245,-1.18265,1.87926,12.521,-0.0817772,0.273583,-0.548617,0
2024-12-11 19:40:23.250,-1.08215,1.86491,12.3105,-0.147138,0.224715,-0.525405,0
2024-12-11 19:40:23.251,-0.955334,1.82901,12.1669,-0.147138,0.224715,-0.525405,0
2024-12-11 19:40:23.252,-0.80668,1.79551,12.1119,-0.147138,0.224715,-0.525405,0
2024-12-11 19:40:23.255,-0.617647,1.75723,12.1262,-0.25709,0.0781121,-0.530292,0
2024-12-11 19:40:23.257,-0.375972,1.69741,12.2291,-0.320618,-0.033673,-0.54312,0
2024-12-11 19:40:23.260,-0.107677,1.6352,12.4277,-0.389033,-0.166838,-0.56511,0
2024-12-11 19:40:23.263,0.136391,1.59691,12.7415,-0.530139,-0.47104,-0.632914,0
2024-12-11 19:40:23.265,0.371187,1.55862,13.194,-0.591835,-0.626806,-0.673841,0
2024-12-11 19:40:23.267,0.572184,1.52034,13.7614,-0.591835,-0.626806,-0.673841,0
2024-12-11 19:40:23.269,0.715753,1.51555,14.403,-0.647422,-0.779517,-0.720876,0
2024-12-11 19:40:23.272,0.873978,1.49641,15.1116,-0.717669,-1.02874,-0.814947,0
2024-12-11 19:40:23.275,1.05344,1.44855,15.8632,-0.717669,-1.02874,-0.814947,0
2024-12-11 19:40:23.276,1.22812,1.40279,16.663,-0.731108,-1.12342,-0.864425,0
2024-12-11 19:40:23.278,1.4004,1.35254,17.5534,-0.728054,-1.19612,-0.91146,0
2024-12-11 19:40:23.282,1.56341,1.26162,18.4896,-0.704841,-1.25353,-0.958496,0
2024-12-11 19:40:23.283,1.71416,1.13719,19.3636,-0.665747,-1.29568,-1.00614,0
2024-12-11 19:40:23.288,2.01835,0.813859,20.7712,-0.539913,-1.32439,-1.09349,0
2024-12-11 19:40:23.289,2.01835,0.813859,20.7712,-0.539913,-1.32439,-1.09349,0
2024-12-11 19:40:23.290,2.14995,0.593719,21.3482,-0.455616,-1.3079,-1.13625,0
2024-12-11 19:40:23.293,2.25284,0.371187,21.8007,-0.361545,-1.27064,-1.17474,0
2024-12-11 19:40:23.297,2.40359,-0.0933201,22.3011,-0.153246,-1.14053,-1.2462,1
2024-12-11 19:40:23.297,2.40359,-0.0933201,22.3011,-0.153246,-1.14053,-1.2462,1
2024-12-11 19:40:23.302,2.37966,-0.533899,22.3179,0.0660479,-0.955441,-1.29324,0
2024-12-11 19:40:23.303,2.37966,-0.533899,22.3179,0.172946,-0.847932,-1.30546,0
2024-12-11 19:40:23.304,2.31984,-0.744467,22.1429,0.172946,-0.847932,-1.30546,0
2024-12-11 19:40:23.307,2.22174,-0.938585,21.8127,0.277401,-0.734315,-1.30973,0
2024-12-11 19:40:23.310,2.11406,-1.13001,21.3577,0.458823,-0.490587,-1.29263,0
2024-12-11 19:40:23.311,1.98485,-1.31904,20.831,0.458823,-0.490587,-1.29263,0
2024-12-11 19:40:23.315,1.81944,-1.47727,20.266,0.535789,-0.366585,-1.27247,0
2024-12-11 19:40:23.316,1.67109,-1.60409,19.6484,0.600539,-0.243194,-1.24071,0
2024-12-11 19:40:23.319,1.55145,-1.72612,19.0235,0.654905,-0.120413,-1.20283,0
2024-12-11 19:40:23.321,1.45095,-1.80269,18.4442,0.699496,-0.00251974,-1.16252,0
2024-12-11 19:40:23.325,1.30229,-1.84576,17.2663,0.758138,0.226548,-1.066,0
2024-12-11 19:40:23.326,1.30229,-1.84576,17.2663,0.758138,0.226548,-1.066,0
2024-12-11 19:40:23.328,1.23051,-1.83141,16.6534,0.775852,0.340166,-1.01592,0
2024-12-11 19:40:23.330,1.17308,-1.81466,16.0454,0.784404,0.45134,-0.967048,0
2024-12-11 19:40:23.334,1.12522,-1.77637,15.478,0.789291,0.560681,-0.91818,0
2024-12-11 19:40:23.335,1.08933,-1.71416,14.9632,0.789291,0.665747,-0.872977,0
2024-12-11 19:40:23.338,1.09651,-1.6352,14.47,0.776463,0.860073,-0.794178,0
2024-12-11 19:40:23.340,1.12522,-1.5682,14.0031,0.776463,0.860073,-0.794178,0
2024-12-11 19:40:23.342,1.14437,-1.49641,13.5721,0.767911,0.944981,-0.764857,0
2024-12-11 19:40:23.344,1.16112,-1.40548,13.1411,0.755084,1.02683,-0.741645,0
2024-12-11 19:40:23.347,1.19701,-1.31186,12.708,0.744699,1.0983,-0.72393,0
2024-12-11 19:40:23.350,1.2329,-1.21615,12.3129,0.717822,1.22292,-0.712324,0
2024-12-11 19:40:23.351,1.26401,-1.13001,11.9465,0.717822,1.22292,-0.712324,0
2024-12-11 19:40:23.354,1.2999,-1.05105,11.5851,0.700718,1.27117,-0.715379,0
2024-12-11 19:40:23.356,1.31426,-0.974477,11.2235,0.686058,1.31332,-0.726985,0
2024-12-11 19:40:23.359,1.32861,-0.897907,10.8691,0.670787,1.34692,-0.737369,0
2024-12-11 19:40:23.362,1.33101,-0.811466,10.5461,0.633525,1.38357,-0.775852,0
2024-12-11 19:40:23.363,1.31665,-0.732503,10.2443,0.633525,1.38357,-0.775852,0
2024-12-11 19:40:23.365,1.30708,-0.682254,9.95953,0.617032,1.3854,-0.802119,0
2024-12-11 19:40:23.369,1.31426,-0.629611,9.69841,0.595042,1.37563,-0.83205,0
2024-12-11 19:40:23.370,1.3334,-0.569791,9.4687,0.577327,1.35364,-0.865647,0
2024-12-11 19:40:23.373,1.34536,-0.56022,9.25783,0.556558,1.32126,-0.898022,0
2024-12-11 19:40:23.375,1.37886,-0.548256,9.07837,0.534568,1.27667,-0.937116,0
2024-12-11 19:40:23.377,1.41506,-0.54347,8.94916,0.511966,1.22169,-0.981097,0
2024-12-11 19:40:23.381,1.44138,-0.565005,8.84387,0.491808,1.15511,-1.0263,0
2024-12-11 19:40:23.382,1.45573,-0.574577,8.77448,0.475926,1.07815,-1.07211,0
2024-12-11 19:40:23.384,1.48684,-0.596112,8.75773,0.457601,0.993238,-1.1222,0
2024-12-11 19:40:23.388,1.5347,-0.629611,8.77687,0.431945,0.806318,-1.21933,0
2024-12-11 19:40:23.390,1.58016,-0.670289,8.81277,0.431945,0.806318,-1.21933,0
2024-12-11 19:40:23.391,1.61127,-0.715753,8.87019,0.422783,0.706063,-1.2682,0
2024-12-11 19:40:23.394,1.6352,-0.780359,8.92762,0.420339,0.602219,-1.31706,0
2024-12-11 19:40:23.396,1.66391,-0.869193,8.98983,0.417285,0.497764,-1.36654,0
2024-12-11 19:40:23.398,1.68305,-0.981655,9.07358,0.415452,0.389644,-1.41358,0
2024-12-11 19:40:23.402,1.68784,-1.0989,9.16212,0.416063,0.280913,-1.45878,0
2024-12-11 19:40:23.403,1.69502,-1.22094,9.28206,0.418507,0.174626,-1.50093,0
2024-12-11 19:40:23.406,1.68784,-1.33819,9.40888,0.421561,0.0689494,-1.54063,0
2024-12-11 19:40:23.408,1.64716,-1.43898,9.54048,0.429502,-0.0348946,-1.57545,0
2024-12-11 19:40:23.410,1.60887,-1.55145,9.68166,0.439276,-0.130798,-1.60844,0
2024-12-11 19:40:23.414,1.58495,-1.65673,9.82792,0.452103,-0.21876,-1.63593,0
2024-12-11 19:40:23.415,1.55145,-1.77159,9.97388,0.46432,-0.304889,-1.66158,0
2024-12-11 19:40:23.421,1.52273,-1.92712,10.273,0.525405,-0.511966,-1.71961,0
2024-12-11 19:40:23.422,1.52273,-2.02313,10.4121,0.525405,-0.511966,-1.71961,0
2024-12-11 19:40:23.422,1.4988,-2.02313,10.4121,0.525405,-0.511966,-1.71961,0
2024-12-11 19:40:23.425,1.47248,-2.10927,10.5317,0.549228,-0.566943,-1.73488,0
2024-12-11 19:40:23.427,1.45095,-2.18345,10.6179,0.57244,-0.619475,-1.74771,0
2024-12-11 19:40:23.429,1.42702,-2.24806,10.7088,0.599317,-0.6659,-1.75932,0
2024-12-11 19:40:23.432,1.39083,-2.29591,10.8165,0.599317,-0.6659,-1.75932,0
2024-12-11 19:40:23.436,1.26879,-2.3677,10.9361,0.679339,-0.785015,-1.78619,0
2024-12-11 19:40:23.436,1.26879,-2.3677,10.9361,0.679339,-0.785015,-1.78619,0
2024-12-11 19:40:23.441,1.20419,-2.45863,10.9531,0.732482,-0.821055,-1.7923,0
2024-12-11 19:40:23.444,1.20419,-2.45863,10.9531,0.785015,-0.820444,-1.79475,0
2024-12-11 19:40:23.444,1.1994,-2.51845,10.9508,0.785015,-0.820444,-1.79475,0
2024-12-11 19:40:23.446,1.20658,-2.55942,10.9265,0.785015,-0.820444,-1.79475,0
2024-12-11 19:40:23.448,1.1994,-2.60728,10.8763,0.808227,-0.812503,-1.79352,0
2024-12-11 19:40:23.450,1.17547,-2.64556,10.8093,0.830218,-0.795399,-1.78986,0
2024-12-11 19:40:23.453,1.15633,-2.66471,10.7231,0.847932,-0.772798,-1.78619,0
2024-12-11 19:40:23.455,1.14676,-2.68385,10.6394,0.847932,-0.772798,-1.78619,0
2024-12-11 19:40:23.460,1.12762,-2.7006,10.4384,0.892524,-0.685447,-1.77031,0
2024-12-11 19:40:23.460,1.12762,-2.7006,10.4384,0.892524,-0.685447,-1.77031,0
2024-12-11 19:40:23.463,1.11805,-2.69581,10.3424,0.906574,-0.610313,-1.75565,0
2024-12-11 19:40:23.465,1.13001,-2.68385,10.2347,0.906574,-0.610313,-1.75565,0
2024-12-11 19:40:23.468,1.16112,-2.66471,10.1103,0.916958,-0.524794,-1.73855,0
2024-12-11 19:40:23.470,1.19222,-2.64556,9.99063,0.916958,-0.47837,-1.72938,0
2024-12-11 19:40:23.471,1.20658,-2.63121,9.87578,0.916958,-0.47837,-1.72938,0
2024-12-11 19:40:23.475,1.20897,-2.61207,9.74627,0.915736,-0.431945,-1.72389,0
2024-12-11 19:40:23.476,1.22572,-2.57617,9.61466,0.913293,-0.383078,-1.71717,0
2024-12-11 19:40:23.479,1.24965,-2.52084,9.48784,0.910239,-0.336653,-1.71106,0
2024-12-11 19:40:23.481,1.25204,-2.4658,9.38256,0.905352,-0.291451,-1.70739,0
2024-12-11 19:40:23.484,1.2664,-2.40598,9.27727,0.888859,-0.210819,-1.70434,0
2024-12-11 19:40:23.487,1.2999,-2.35334,9.15255,0.888859,-0.210819,-1.70434,0
2024-12-11 19:40:23.489,1.31904,-2.30548,9.03291,0.869312,-0.13996,-1.71045,0
2024-12-11 19:40:23.491,1.33579,-2.22891,8.90848,0.869312,-0.13996,-1.71045,0
2024-12-11 19:40:23.494,1.35494,-2.14756,8.77448,0.858317,-0.109418,-1.71411,0
2024-12-11 19:40:23.495,1.37408,-2.08774,8.64258,0.846711,-0.0807082,-1.72083,0
2024-12-11 19:40:23.497,1.38365,-2.02074,8.51097,0.829607,-0.0568851,-1.72816,0
2024-12-11 19:40:23.500,1.39561,-1.96301,8.37937,0.814947,-0.0379489,-1.73733,0
2024-12-11 19:40:23.502,1.41266,-1.91994,8.2358,0.795399,-0.0196235,-1.74588,0
2024-12-11 19:40:23.504,1.41745,-1.85055,8.1015,0.778296,-0.00496313,-1.75626,0
2024-12-11 19:40:23.508,1.39561,-1.76919,7.99621,0.734926,0.0096972,-1.78131,0
2024-12-11 19:40:23.509,1.36451,-1.70219,7.91247,0.734926,0.0096972,-1.78131,0
2024-12-11 19:40:23.513,1.35015,-1.61845,7.83111,0.708048,0.0109189,-1.78986,0
2024-12-11 19:40:23.514,1.33819,-1.5323,7.7689,0.68728,0.0121406,-1.8033,0
2024-12-11 19:40:23.516,1.32144,-1.46052,7.7354,0.664067,0.0115297,-1.8149,0
2024-12-11 19:40:23.519,1.31186,-1.39561,7.7019,0.642688,0.00603212,-1.83017,0
2024-12-11 19:40:23.523,1.29512,-1.2329,7.6995,0.602983,-0.0104608,-1.85522,0
2024-12-11 19:40:23.524,1.29512,-1.2329,7.6995,0.584046,-0.0190126,-1.87171,0
2024-12-11 19:40:23.528,1.27119,-1.07258,7.7689,0.568164,-0.0324513,-1.88821,0
2024-12-11 19:40:23.528,1.22094,-1.07258,7.7689,0.568164,-0.0324513,-1.88821,0
2024-12-11 19:40:23.530,1.1659,-0.99362,7.80958,0.554726,-0.0507767,-1.90592,0
2024-12-11 19:40:23.533,1.11087,-0.909871,7.85504,0.54373,-0.0684913,-1.92241,0
2024-12-11 19:40:23.536,1.03908,-0.80668,7.91725,0.535789,-0.0892601,-1.94081,0
2024-12-11 19:40:23.537,0.945763,-0.706182,7.97947,0.52907,-0.114916,-1.95731,0
