timestamp,accel_x,accel_y,accel_z,gyro_x,gyro_y,gyro_z,step_timestamp
2024-12-11 19:36:33.940,0.658325,3.21536,10.1581,-0.44401,-0.475316,-0.345205,0
2024-12-11 19:36:33.942,0.73011,3.19861,10.2754,-0.44401,-0.475316,-0.345205,0
2024-12-11 19:36:33.943,0.73011,3.19861,10.2754,-0.448896,-0.450271,-0.343983,0
2024-12-11 19:36:33.944,0.801895,3.17946,10.3881,-0.448896,-0.450271,-0.343983,0
2024-12-11 19:36:33.947,0.8668,3.17946,10.4839,-0.451951,-0.423394,-0.343983,0
2024-12-11 19:36:33.947,0.801895,3.17946,10.4839,-0.451951,-0.423394,-0.343983,0
2024-12-11 19:36:33.949,0.897907,3.19861,10.558,-0.453172,-0.393462,-0.346427,0
2024-12-11 19:36:33.951,0.921835,3.22014,10.6011,-0.452561,-0.36292,-0.346427,0
2024-12-11 19:36:33.952,0.921835,3.22014,10.6011,-0.450729,-0.330545,-0.348259,0
2024-12-11 19:36:33.953,0.940978,3.26082,10.6466,-0.450729,-0.330545,-0.348259,0
2024-12-11 19:36:33.956,0.952942,3.34218,10.7112,-0.448286,-0.296948,-0.346427,0
2024-12-11 19:36:33.957,0.940978,3.34218,10.7112,-0.443399,-0.263962,-0.342762,0
2024-12-11 19:36:33.958,0.926621,3.42114,10.7495,-0.443399,-0.263962,-0.342762,0
2024-12-11 19:36:33.961,0.926621,3.47378,10.7566,-0.438512,-0.225479,-0.337875,0
2024-12-11 19:36:33.963,0.881157,3.47378,10.7566,-0.433625,-0.188828,-0.332377,0
2024-12-11 19:36:33.964,0.830609,3.53839,10.7542,-0.426295,-0.152177,-0.321382,0
2024-12-11 19:36:33.965,0.758824,3.60539,10.7423,-0.426295,-0.152177,-0.321382,0
2024-12-11 19:36:33.969,0.696611,3.65593,10.7231,-0.4153,-0.081319,-0.298781,0
2024-12-11 19:36:33.970,0.641576,3.71815,10.6896,-0.4153,-0.081319,-0.298781,0
2024-12-11 19:36:33.971,0.641576,3.71815,10.6896,-0.4153,-0.081319,-0.298781,0
2024-12-11 19:36:33.972,0.579362,3.77557,10.6514,-0.410413,-0.0501658,-0.285342,0
2024-12-11 19:36:33.976,0.488435,3.82822,10.6107,-0.396364,0.0139731,-0.259076,0
2024-12-11 19:36:33.977,0.371187,3.88564,10.5532,-0.396364,0.0139731,-0.259076,0
2024-12-11 19:36:33.979,0.239282,3.92872,10.4862,-0.39392,0.0439046,-0.246248,0
2024-12-11 19:36:33.980,0.371187,3.88564,10.5532,-0.39392,0.0439046,-0.246248,0
2024-12-11 19:36:33.982,0.100499,3.98614,10.4169,-0.388422,0.074447,-0.230977,0
2024-12-11 19:36:33.984,-0.0526421,4.02682,10.3543,-0.385979,0.100713,-0.217538,0
2024-12-11 19:36:33.987,-0.200997,4.06271,10.3184,-0.385979,0.123315,-0.202267,0
2024-12-11 19:36:33.989,-0.330509,4.09621,10.2873,-0.385979,0.143473,-0.188828,0
2024-12-11 19:36:33.989,-0.330509,4.09621,10.2873,-0.385979,0.143473,-0.188828,0
2024-12-11 19:36:33.993,-0.541077,4.11775,10.2395,-0.385368,0.178291,-0.157675,0
2024-12-11 19:36:33.994,-0.541077,4.11775,10.2395,-0.385368,0.178291,-0.157675,0
2024-12-11 19:36:34.003,-0.813859,4.21615,10.3113,-0.400029,0.226548,-0.115526,0
2024-12-11 19:36:34.003,-0.813859,4.21615,10.3113,-0.400029,0.226548,-0.115526,0
2024-12-11 19:36:34.005,-0.88355,4.21376,10.3567,-0.400029,0.226548,-0.112472,0
2024-12-11 19:36:34.005,-0.88355,4.21376,10.3567,-0.400029,0.226548,-0.112472,0
2024-12-11 19:36:34.005,-0.88355,4.21376,10.3567,-0.400029,0.226548,-0.112472,0
2024-12-11 19:36:34.008,-0.957727,4.22094,10.4025,-0.411024,0.243652,-0.11064,0
2024-12-11 19:36:34.009,-0.957727,4.22094,10.4025,-0.411024,0.243652,-0.11064,0
2024-12-11 19:36:34.010,-1.0319,4.22094,10.4575,-0.414078,0.24976,-0.109418,0
2024-12-11 19:36:34.012,-1.1013,4.19671,10.5078,-0.417132,0.252814,-0.107585,0
2024-12-11 19:36:34.012,-1.1013,4.19671,10.5078,-0.417132,0.252814,-0.107585,0
2024-12-11 19:36:34.017,-1.26401,4.13928,10.5748,-0.427517,0.258312,-0.105753,0
2024-12-11 19:36:34.019,-1.36929,4.11296,10.6155,-0.427517,0.258312,-0.105753,0
2024-12-11 19:36:34.022,-1.45334,4.09382,10.6537,-0.431793,0.250982,-0.100255,0
2024-12-11 19:36:34.025,-1.51795,4.0675,10.692,-0.428738,0.249149,-0.0972011,0
2024-12-11 19:36:34.026,-1.5658,4.02682,10.7518,-0.428738,0.249149,-0.0972011,0
2024-12-11 19:36:34.026,-1.5658,4.02682,10.7518,-0.428738,0.249149,-0.0972011,0
2024-12-11 19:36:34.031,-1.64477,3.99332,10.8667,-0.414078,0.248538,-0.0923143,0
2024-12-11 19:36:34.034,-1.68544,3.94786,10.9026,-0.414078,0.248538,-0.0923143,0
2024-12-11 19:36:34.036,-1.70937,3.90239,10.9289,-0.395142,0.24243,-0.0923143,0
2024-12-11 19:36:34.037,-1.70937,3.90239,10.9289,-0.395142,0.24243,-0.0923143,0
2024-12-11 19:36:34.041,-1.68544,3.84497,10.9098,-0.367043,0.234489,-0.0929251,0
2024-12-11 19:36:34.041,-1.68544,3.84497,10.9098,-0.367043,0.234489,-0.0929251,0
2024-12-11 19:36:34.045,-1.61127,3.80429,10.8428,-0.326727,0.223494,-0.0984228,0
2024-12-11 19:36:34.046,-1.61127,3.80429,10.8428,-0.326727,0.223494,-0.0984228,0
2024-12-11 19:36:34.050,-1.55145,3.78515,10.7375,-0.2858,0.20639,-0.106364,0
2024-12-11 19:36:34.053,-1.55145,3.78515,10.7375,-0.2858,0.20639,-0.106364,0
2024-12-11 19:36:34.056,-1.43898,3.76122,10.5485,-0.20639,0.165463,-0.116748,0
2024-12-11 19:36:34.057,-1.46291,3.78275,10.4767,-0.20639,0.165463,-0.116748,0
2024-12-11 19:36:34.059,-1.56102,3.81625,10.3834,-0.181345,0.142251,-0.117359,0
2024-12-11 19:36:34.060,-1.56102,3.81625,10.3834,-0.181345,0.142251,-0.117359,0
2024-12-11 19:36:34.062,-1.58495,3.85454,10.2586,-0.181345,0.142251,-0.117359,0
2024-12-11 19:36:34.064,-1.55384,3.89282,10.151,-0.151414,0.118428,-0.121635,0
2024-12-11 19:36:34.069,-1.48205,3.87607,9.94278,-0.0634518,0.042683,-0.121024,0
2024-12-11 19:36:34.069,-1.48205,3.87607,9.94278,-0.0634518,0.042683,-0.121024,0
2024-12-11 19:36:34.071,-1.44377,3.85932,9.83031,-0.0335202,0.0249684,-0.119192,0
2024-12-11 19:36:34.075,-1.40788,3.83061,9.72712,0.0257319,-0.00923906,-0.116748,0
2024-12-11 19:36:34.077,-1.3669,3.81625,9.62663,0.0257319,-0.00923906,-0.116748,0
2024-12-11 19:36:34.078,-1.31186,3.81386,9.53091,0.0538309,-0.0238994,-0.116137,0
2024-12-11 19:36:34.082,-1.27597,3.81386,9.43759,0.109418,-0.0562743,-0.110029,0
2024-12-11 19:36:34.084,-1.24487,3.81386,9.35863,0.133852,-0.0745997,-0.111251,0
2024-12-11 19:36:34.088,-1.14915,3.80907,9.14297,0.157675,-0.0898709,-0.11064,0
2024-12-11 19:36:34.089,-1.14915,3.80907,9.14297,0.157675,-0.0898709,-0.11064,0
2024-12-11 19:36:34.090,-1.11565,3.80668,9.02812,0.179665,-0.106975,-0.106364,0
2024-12-11 19:36:34.092,-1.09412,3.78515,8.93001,0.19738,-0.124689,-0.10392,0
2024-12-11 19:36:34.096,-1.06301,3.75643,8.82473,0.21204,-0.158286,-0.102088,0
2024-12-11 19:36:34.097,-1.0343,3.75643,8.7338,0.21204,-0.158286,-0.102088,0
2024-12-11 19:36:34.100,-1.00558,3.75404,8.63301,0.238918,-0.174779,-0.0972011,0
2024-12-11 19:36:34.102,-0.974477,3.74447,8.56122,0.247469,-0.19005,-0.0929251,0
2024-12-11 19:36:34.104,-0.938585,3.74686,8.51336,0.255411,-0.200434,-0.0898709,0
2024-12-11 19:36:34.105,-0.938585,3.74686,8.51336,0.255411,-0.200434,-0.0898709,0
2024-12-11 19:36:34.110,-0.84018,3.72293,8.40329,0.268849,-0.219981,-0.0794865,0
2024-12-11 19:36:34.111,-0.801895,3.71097,8.37219,0.268849,-0.219981,-0.0794865,0
2024-12-11 19:36:34.114,-0.758824,3.71575,8.36501,0.271903,-0.221814,-0.0752106,0
2024-12-11 19:36:34.117,-0.699003,3.70858,8.35544,0.274958,-0.21876,-0.0666587,0
2024-12-11 19:36:34.118,-0.65354,3.67268,8.34108,0.274958,-0.21876,-0.0666587,0
2024-12-11 19:36:34.121,-0.62004,3.65354,8.32433,0.276179,-0.21204,-0.0629936,0
2024-12-11 19:36:34.121,-0.62004,3.65354,8.32433,0.276179,-0.21204,-0.0629936,0
2024-12-11 19:36:34.124,-0.596112,3.65593,8.31237,0.276179,-0.20471,-0.057496,0
2024-12-11 19:36:34.130,-0.536291,3.62931,8.27887,0.291451,-0.183331,-0.0397814,0
2024-12-11 19:36:34.131,-0.536291,3.62931,8.27887,0.291451,-0.183331,-0.0397814,0
2024-12-11 19:36:34.136,-0.471685,3.61735,8.24058,0.302446,-0.148512,-0.0190126,0
2024-12-11 19:36:34.137,-0.452543,3.59821,8.2023,0.302446,-0.148512,-0.0190126,0
2024-12-11 19:36:34.142,-0.452543,3.54078,8.12303,0.303057,-0.135074,-0.00496313,0
2024-12-11 19:36:34.143,-0.452543,3.54078,8.12303,0.307333,-0.106364,0.00175619,0
2024-12-11 19:36:34.147,-0.445364,3.5336,8.05843,0.309776,-0.0929251,0.00847551,0
2024-12-11 19:36:34.148,-0.445364,3.5336,8.05843,0.309776,-0.0929251,0.00847551,0
2024-12-11 19:36:34.151,-0.41665,3.55514,7.96989,0.308554,-0.077654,0.0170274,0
2024-12-11 19:36:34.154,-0.41665,3.55514,7.96989,0.304278,-0.0629936,0.0261901,0
2024-12-11 19:36:34.156,-0.407079,3.58385,7.87418,0.293283,-0.033673,0.0408504,0
2024-12-11 19:36:34.158,-0.395115,3.60539,7.81675,0.287785,-0.0190126,0.0481806,0
2024-12-11 19:36:34.163,-0.364008,3.63171,7.71625,0.273736,0.0151948,0.0610084,0
2024-12-11 19:36:34.164,-0.364008,3.63171,7.71625,0.273736,0.0151948,0.0610084,0
2024-12-11 19:36:34.168,-0.364008,3.63889,7.61815,0.252967,0.0542891,0.0750579,0
2024-12-11 19:36:34.168,-0.320937,3.64606,7.61815,0.252967,0.0542891,0.0750579,0
2024-12-11 19:36:34.172,-0.320937,3.63171,7.57478,0.230366,0.0921616,0.0872748,0
2024-12-11 19:36:34.172,-0.320937,3.63171,7.57478,0.230366,0.0921616,0.0872748,0
2024-12-11 19:36:34.177,-0.359223,3.61974,7.53649,0.202267,0.128202,0.0982701,0
2024-12-11 19:36:34.177,-0.359223,3.61974,7.53649,0.202267,0.128202,0.0982701,0
2024-12-11 19:36:34.181,-0.371187,3.64367,7.54367,0.174779,0.16302,0.107433,0
2024-12-11 19:36:34.182,-0.385544,3.64606,7.56042,0.174779,0.16302,0.107433,0
2024-12-11 19:36:34.187,-0.404686,3.68226,7.58944,0.142404,0.200892,0.120261,0
2024-12-11 19:36:34.187,-0.41665,3.68226,7.58944,0.142404,0.200892,0.120261,0
2024-12-11 19:36:34.189,-0.41665,3.68704,7.63251,0.128354,0.218607,0.127591,0
2024-12-11 19:36:34.192,-0.435793,3.699,7.68515,0.113083,0.235711,0.132477,0
2024-12-11 19:36:34.194,-0.464507,3.71097,7.73061,0.113083,0.235711,0.132477,0
2024-12-11 19:36:34.196,-0.488435,3.7349,7.78565,0.0800973,0.269918,0.149581,0
2024-12-11 19:36:34.199,-0.490828,3.76122,7.83111,0.065437,0.280913,0.154468,0
2024-12-11 19:36:34.201,-0.490828,3.7684,7.88854,0.0471116,0.292519,0.161798,0
2024-12-11 19:36:34.205,-0.531506,3.7995,8.04646,0.0129041,0.310845,0.179513,0
2024-12-11 19:36:34.208,-0.531506,3.7995,8.04646,0.0129041,0.310845,0.179513,0
2024-12-11 19:36:34.211,-0.423829,3.85454,8.20948,-0.0206925,0.327338,0.196006,0
2024-12-11 19:36:34.211,-0.423829,3.85454,8.20948,-0.0206925,0.327338,0.196006,0
2024-12-11 19:36:34.215,-0.330509,3.95743,8.36501,-0.0603975,0.339555,0.203947,0
2024-12-11 19:36:34.215,-0.330509,3.95743,8.36501,-0.0603975,0.339555,0.203947,0
2024-12-11 19:36:34.220,-0.311366,4.08664,8.53969,-0.0805555,0.341387,0.205779,0
2024-12-11 19:36:34.220,-0.311366,4.08664,8.53969,-0.0805555,0.341387,0.205779,0
2024-12-11 19:36:34.222,-0.332901,4.14886,8.62583,-0.115374,0.35055,0.20639,0
2024-12-11 19:36:34.224,-0.378365,4.20628,8.71466,-0.133088,0.354826,0.207001,0
2024-12-11 19:36:34.227,-0.445364,4.2664,8.81516,-0.147749,0.360934,0.209444,0
2024-12-11 19:36:34.230,-0.502792,4.33579,8.90609,-0.174015,0.363989,0.21372,0
2024-12-11 19:36:34.231,-0.553041,4.39083,8.99941,-0.174015,0.363989,0.21372,0
2024-12-11 19:36:34.234,-0.608076,4.40758,9.09273,-0.186843,0.363989,0.216774,0
2024-12-11 19:36:34.236,-0.667897,4.41954,9.2004,-0.198449,0.360324,0.221661,0
2024-12-11 19:36:34.238,-0.751645,4.46022,9.30359,-0.20639,0.356048,0.225937,0
2024-12-11 19:36:34.241,-0.818644,4.49851,9.4017,-0.20639,0.356048,0.225937,0
2024-12-11 19:36:34.243,-0.835394,4.53918,9.50459,-0.217385,0.341387,0.238154,0
2024-12-11 19:36:34.245,-0.857229,4.57268,9.57877,-0.217996,0.331614,0.244873,0
2024-12-11 19:36:34.246,-0.857229,4.57268,9.57877,-0.217996,0.331614,0.244873,0
2024-12-11 19:36:34.250,-0.897907,4.62054,9.72234,-0.217996,0.311456,0.260145,0
2024-12-11 19:36:34.250,-0.897907,4.62054,9.72234,-0.217996,0.311456,0.260145,0
2024-12-11 19:36:34.255,-0.905085,4.62772,9.89013,-0.216164,0.285189,0.271751,0
2024-12-11 19:36:34.257,-0.912264,4.66361,9.99063,-0.207001,0.274805,0.277248,0
2024-12-11 19:36:34.257,-0.912264,4.66361,9.99063,-0.207001,0.274805,0.277248,0
2024-12-11 19:36:34.260,-0.914656,4.64686,10.1031,-0.202725,0.265642,0.282135,0
2024-12-11 19:36:34.263,-0.893121,4.6349,10.2275,-0.198449,0.258923,0.287633,0
2024-12-11 19:36:34.265,-0.914656,4.62772,10.3687,-0.198449,0.258923,0.287633,0
2024-12-11 19:36:34.267,-0.914656,4.61336,10.503,-0.186843,0.241208,0.294352,0
2024-12-11 19:36:34.268,-0.972084,4.61336,10.503,-0.1844,0.234489,0.30046,0
2024-12-11 19:36:34.269,-1.02951,4.62293,10.6298,-0.1844,0.234489,0.30046,0
2024-12-11 19:36:34.271,-1.08694,4.62772,10.7542,-0.183789,0.228381,0.305958,0
2024-12-11 19:36:34.274,-1.11087,4.62054,10.8739,-0.183789,0.228381,0.305958,0
2024-12-11 19:36:34.276,-1.0989,4.62533,11.0034,-0.183178,0.210055,0.317564,0
2024-12-11 19:36:34.278,-1.07737,4.6349,11.1039,-0.185621,0.207612,0.323062,0
2024-12-11 19:36:34.279,-1.07737,4.6349,11.1039,-0.185621,0.207612,0.323062,0
2024-12-11 19:36:34.281,-1.09651,4.62054,11.19,-0.185621,0.207612,0.323062,0
2024-12-11 19:36:34.284,-1.13001,4.59661,11.2905,-0.201503,0.208223,0.334057,0
2024-12-11 19:36:34.288,-1.18026,4.58226,11.511,-0.225937,0.222272,0.346274,0
2024-12-11 19:36:34.289,-1.18026,4.58226,11.511,-0.240597,0.232046,0.352993,0
2024-12-11 19:36:34.290,-1.18983,4.56072,11.6402,-0.240597,0.232046,0.352993,0
2024-12-11 19:36:34.294,-1.2018,4.55593,11.7694,-0.274805,0.25709,0.367043,0
2024-12-11 19:36:34.295,-1.21137,4.56072,11.8986,-0.274805,0.25709,0.367043,0
2024-12-11 19:36:34.297,-1.21137,4.56072,12.0111,-0.274805,0.25709,0.373151,0
2024-12-11 19:36:34.300,-1.18983,4.57029,12.1358,-0.318175,0.283968,0.375595,0
2024-12-11 19:36:34.300,-1.18983,4.57029,12.1358,-0.318175,0.283968,0.375595,0
2024-12-11 19:36:34.302,-1.15394,4.5679,12.2554,-0.338333,0.298017,0.379871,0
2024-12-11 19:36:34.304,-1.13001,4.57986,12.3679,-0.361545,0.311456,0.382314,0
2024-12-11 19:36:34.307,-1.08933,4.58943,12.5067,-0.385979,0.323673,0.385979,0
2024-12-11 19:36:34.309,-1.04148,4.58226,12.6338,-0.409191,0.332835,0.38659,0
2024-12-11 19:36:34.311,-0.988834,4.57268,12.7511,-0.409191,0.332835,0.38659,0
2024-12-11 19:36:34.314,-0.933799,4.57986,12.8922,-0.456837,0.338944,0.384147,0
2024-12-11 19:36:34.316,-0.897907,4.60379,13.0262,-0.479439,0.341998,0.379871,0
2024-12-11 19:36:34.319,-0.897907,4.60379,13.1554,-0.500208,0.341998,0.376816,0
2024-12-11 19:36:34.321,-0.873978,4.64447,13.1554,-0.500208,0.341998,0.376816,0
2024-12-11 19:36:34.324,-0.857229,4.68036,13.4285,-0.54541,0.31451,0.359102,0
2024-12-11 19:36:34.327,-0.854836,4.75215,13.5601,-0.555795,0.296795,0.351772,0
2024-12-11 19:36:34.327,-0.854836,4.75215,13.5601,-0.555795,0.296795,0.351772,0
2024-12-11 19:36:34.329,-0.873978,4.79073,13.7228,-0.555795,0.296795,0.351772,0
2024-12-11 19:36:34.330,-0.895514,4.83859,13.8906,-0.560071,0.274805,0.348107,0
2024-12-11 19:36:34.333,-0.897907,4.87687,14.0246,-0.557627,0.252814,0.343831,0
2024-12-11 19:36:34.335,-0.907478,4.89123,14.1275,-0.553351,0.224105,0.34322,0
2024-12-11 19:36:34.338,-0.914656,4.89123,14.2137,-0.541745,0.194173,0.341387,0
2024-12-11 19:36:34.340,-0.917049,4.88884,14.3046,-0.527085,0.165463,0.340776,0
2024-12-11 19:36:34.342,-0.905085,4.88166,14.4054,-0.506927,0.131867,0.341387,0
2024-12-11 19:36:34.345,-0.873978,4.88166,14.4867,-0.506927,0.131867,0.341387,0
2024-12-11 19:36:34.347,-0.84018,4.87687,14.537,-0.453783,0.0683385,0.344442,0
2024-12-11 19:36:34.347,-0.84018,4.87687,14.537,-0.453783,0.0683385,0.344442,0
2024-12-11 19:36:34.351,-0.751645,4.86491,14.5729,-0.379871,0.0133623,0.351161,0
2024-12-11 19:36:34.352,-0.751645,4.86491,14.5729,-0.379871,0.0133623,0.351161,1
2024-12-11 19:36:34.357,-0.56022,4.91994,14.5992,-0.294963,-0.029397,0.361545,0
2024-12-11 19:36:34.359,-0.56022,4.99173,14.5633,-0.294963,-0.029397,0.361545,0
2024-12-11 19:36:34.364,-0.239282,5.17119,14.3623,-0.202114,-0.0287862,0.379871,0
2024-12-11 19:36:34.366,0.184247,5.08983,14.324,-0.202114,-0.0287862,0.379871,0
2024-12-11 19:36:34.368,0.442971,5.08265,14.2161,-0.202114,-0.0287862,0.379871,0
2024-12-11 19:36:34.370,0.20339,5.34856,13.8547,-0.0536782,0.0268009,0.365821,0
2024-12-11 19:36:34.375,0.0622134,5.7338,13.2395,0.0691021,0.0854423,0.370097,0
2024-12-11 19:36:34.375,0.0622134,5.7338,13.2395,0.0691021,0.0854423,0.370097,0
2024-12-11 19:36:34.380,0.143569,5.85823,12.7678,0.111861,0.0915507,0.382314,0
2024-12-11 19:36:34.380,0.143569,5.85823,12.7678,0.111861,0.0915507,0.382314,0
2024-12-11 19:36:34.384,0.227318,5.71466,12.2698,0.121635,0.0695602,0.382925,0
2024-12-11 19:36:34.384,0.227318,5.71466,12.2698,0.121635,0.0695602,0.382925,0
2024-12-11 19:36:34.389,0.359223,5.31476,11.9345,0.105142,0.0194708,0.362767,0
2024-12-11 19:36:34.390,0.359223,5.31476,11.9345,0.081319,-0.0165692,0.34322,0
2024-12-11 19:36:34.392,0.383151,5.07787,11.8843,0.081319,-0.0165692,0.34322,0
2024-12-11 19:36:34.394,0.366401,4.85534,11.8914,0.0568851,-0.0611611,0.319397,0
2024-12-11 19:36:34.399,0.301795,4.50808,12.0541,-0.00847551,-0.158286,0.27114,0
2024-12-11 19:36:34.399,0.217747,4.50808,12.0541,-0.00847551,-0.158286,0.27114,0
2024-12-11 19:36:34.402,0.133998,4.37169,12.1454,-0.0756687,-0.258465,0.221661,0
2024-12-11 19:36:34.403,0.0311067,4.24247,12.2698,-0.0756687,-0.258465,0.221661,0
2024-12-11 19:36:34.406,-0.0646062,4.12493,12.4014,-0.114152,-0.303667,0.203947,0
2024-12-11 19:36:34.408,-0.138784,4.02921,12.5498,-0.150803,-0.340929,0.185621,0
2024-12-11 19:36:34.408,-0.138784,4.02921,12.5498,-0.150803,-0.340929,0.185621,0
2024-12-11 19:36:34.411,-0.208176,3.92393,12.7104,-0.18501,-0.370861,0.169739,0
2024-12-11 19:36:34.414,-0.234497,3.81625,12.8946,-0.244873,-0.409344,0.142862,0
2024-12-11 19:36:34.416,-0.181855,3.70618,13.1291,-0.267475,-0.412398,0.127591,0
2024-12-11 19:36:34.417,-0.0741775,3.5671,13.4668,-0.267475,-0.412398,0.127591,0
2024-12-11 19:36:34.423,0.0430708,3.43071,13.7877,-0.272972,-0.39224,0.0848314,0
2024-12-11 19:36:34.423,0.102891,3.30628,14.027,-0.272972,-0.39224,0.0848314,0
2024-12-11 19:36:34.424,0.102891,3.30628,14.1993,-0.272972,-0.39224,0.0848314,0
2024-12-11 19:36:34.428,0.12682,3.02124,14.3046,-0.265642,-0.378802,0.0487914,0
2024-12-11 19:36:34.429,0.145962,2.87049,14.3934,-0.265642,-0.378802,0.0487914,0
2024-12-11 19:36:34.430,0.145962,2.87049,14.3934,-0.239987,-0.353757,0.0243575,0
2024-12-11 19:36:34.432,0.179462,2.70299,14.4317,-0.239987,-0.353757,0.0243575,0
2024-12-11 19:36:34.434,0.215354,2.51845,14.4221,-0.219829,-0.330545,0.0176382,0
2024-12-11 19:36:34.436,0.239282,2.32223,14.415,-0.195395,-0.301835,0.0133623,0
2024-12-11 19:36:34.439,0.260818,2.11884,14.4126,-0.165463,-0.265795,0.0133623,0
2024-12-11 19:36:34.442,0.260818,1.91037,14.3862,-0.0799446,-0.182109,0.0151948,0
2024-12-11 19:36:34.443,0.361615,1.70219,14.3551,-0.0799446,-0.182109,0.0151948,0
2024-12-11 19:36:34.444,0.361615,1.70219,14.3551,-0.0799446,-0.182109,0.0151948,0
2024-12-11 19:36:34.448,0.445364,1.29751,14.2639,0.029397,-0.0990336,0.0200816,0
2024-12-11 19:36:34.449,0.445364,1.29751,14.2639,0.0929251,-0.0526092,0.0219141,0
2024-12-11 19:36:34.450,0.495613,1.10369,14.0773,0.0929251,-0.0526092,0.0219141,0
2024-12-11 19:36:34.455,0.45015,0.794716,13.6104,0.230977,0.0512348,0.0316877,0
2024-12-11 19:36:34.456,0.45015,0.794716,13.6104,0.301835,0.100713,0.0432938,0
2024-12-11 19:36:34.458,0.354437,0.682254,13.3161,0.301835,0.100713,0.0432938,0
2024-12-11 19:36:34.460,0.241675,0.569791,13.0047,0.371471,0.153246,0.0530674,0
2024-12-11 19:36:34.461,0.241675,0.569791,13.0047,0.371471,0.153246,0.0530674,0
2024-12-11 19:36:34.465,0.0454636,0.390329,12.3033,0.518075,0.269307,0.0854423,0
2024-12-11 19:36:34.465,0.0454636,0.390329,12.3033,0.518075,0.269307,0.0854423,0
2024-12-11 19:36:34.469,-0.0358923,0.316152,11.5588,0.657959,0.381703,0.119039,0
2024-12-11 19:36:34.469,-0.0358923,0.316152,11.5588,0.657959,0.381703,0.119039,0
2024-12-11 19:36:34.472,-0.066999,0.272782,11.1589,0.726374,0.427517,0.137364,0
2024-12-11 19:36:34.474,-0.107677,0.241675,10.7375,0.793567,0.465389,0.152635,0
2024-12-11 19:36:34.476,-0.145962,0.232104,10.3543,0.854652,0.495321,0.161798,0
2024-12-11 19:36:34.479,-0.189033,0.241675,10.005,0.854652,0.495321,0.161798,0
2024-12-11 19:36:34.479,-0.189033,0.241675,10.005,0.854652,0.495321,0.161798,0
2024-12-11 19:36:34.481,-0.241675,0.232104,9.65055,0.969491,0.529528,0.179513,0
2024-12-11 19:36:34.486,-0.332901,0.165105,8.9348,1.066,0.531361,0.181956,0
2024-12-11 19:36:34.486,-0.332901,0.165105,8.9348,1.066,0.531361,0.181956,0
2024-12-11 19:36:34.488,-0.368794,0.12682,8.59233,1.10754,0.520976,0.181345,0
2024-12-11 19:36:34.490,-0.469292,0.11007,8.2669,1.14419,0.504483,0.17768,0
2024-12-11 19:36:34.494,-0.608076,0.129212,7.92922,1.17474,0.478828,0.171572,0
2024-12-11 19:36:34.496,-0.725324,0.136391,7.65165,1.17474,0.478828,0.171572,0
2024-12-11 19:36:34.498,-0.828216,0.119641,7.41207,1.21872,0.40125,0.162409,0
2024-12-11 19:36:34.498,-0.828216,0.119641,7.41207,1.21872,0.40125,0.162409,0
2024-12-11 19:36:34.502,-1.07258,0.11007,6.90928,1.24193,0.287022,0.150803,0
2024-12-11 19:36:34.502,-1.07258,0.11007,6.90928,1.24193,0.287022,0.150803,0
2024-12-11 19:36:34.505,-1.20419,0.124427,6.68196,1.24254,0.222272,0.146527,0
2024-12-11 19:36:34.507,-1.37169,0.153141,6.47139,1.23765,0.159966,0.144084,0
2024-12-11 19:36:34.509,-1.55384,0.189033,6.26531,1.2291,0.0964375,0.142251,0
2024-12-11 19:36:34.512,-1.71416,0.241675,6.07627,1.2291,0.0964375,0.142251,0
2024-12-11 19:36:34.514,-1.85294,0.285045,5.91596,1.18879,-0.0275645,0.142862,0
2024-12-11 19:36:34.515,-1.85294,0.285045,5.91596,1.18879,-0.0275645,0.142862,0
2024-12-11 19:36:34.520,-2.0351,0.347258,5.66202,1.09533,-0.179665,0.156911,0
2024-12-11 19:36:34.520,-2.0351,0.347258,5.66202,1.09533,-0.179665,0.156911,0
2024-12-11 19:36:34.522,-2.10927,0.395115,5.57827,1.05623,-0.221814,0.164242,0
2024-12-11 19:36:34.524,-2.17627,0.431007,5.49213,1.05623,-0.221814,0.164242,0
2024-12-11 19:36:34.526,-2.18584,0.452543,5.41795,1.01103,-0.26213,0.170961,0
2024-12-11 19:36:34.527,-2.18584,0.452543,5.41795,0.962161,-0.296337,0.178902,0
2024-12-11 19:36:34.530,-2.14995,0.490828,5.35334,0.912682,-0.329323,0.183178,0
2024-12-11 19:36:34.530,-2.14995,0.490828,5.35334,0.912682,-0.329323,0.183178,0
2024-12-11 19:36:34.534,-2.11645,0.500399,5.33181,0.80334,-0.38491,0.190508,0
2024-12-11 19:36:34.535,-2.06142,0.512363,5.35813,0.80334,-0.38491,0.190508,0
2024-12-11 19:36:34.540,-1.88883,0.500399,5.4347,0.690945,-0.417896,0.191119,0
2024-12-11 19:36:34.541,-1.88883,0.500399,5.4347,0.635357,-0.430113,0.189897,0
2024-12-11 19:36:34.543,-1.79791,0.490828,5.48255,0.57916,-0.434389,0.186843,0
2024-12-11 19:36:34.545,-1.71894,0.4669,5.55195,0.57916,-0.434389,0.186843,0
2024-12-11 19:36:34.547,-1.64477,0.457328,5.61895,0.524183,-0.436221,0.181956,0
2024-12-11 19:36:34.549,-1.55862,0.457328,5.67159,0.467985,-0.430113,0.178291,0
2024-12-11 19:36:34.552,-1.47488,0.447757,5.72902,0.415452,-0.415452,0.174626,0
2024-12-11 19:36:34.554,-1.38604,0.442971,5.81037,0.415452,-0.400181,0.17035,0
2024-12-11 19:36:34.557,-1.27597,0.442971,5.90399,0.309165,-0.380023,0.166074,0
2024-12-11 19:36:34.557,-1.27597,0.442971,5.90399,0.309165,-0.380023,0.166074,0
2024-12-11 19:36:34.559,-1.17787,0.431007,5.98774,0.262741,-0.356811,0.160576,0
2024-12-11 19:36:34.561,-1.09173,0.4334,6.08345,0.215705,-0.33421,0.156911,0
2024-12-11 19:36:34.563,-1.01755,0.440578,6.19831,0.169281,-0.312219,0.152635,0
2024-12-11 19:36:34.566,-0.969691,0.431007,6.3012,0.121024,-0.301224,0.149581,0
2024-12-11 19:36:34.569,-0.940978,0.438186,6.38734,0.0788757,-0.289007,0.145916,0
2024-12-11 19:36:34.569,-0.940978,0.438186,6.38734,0.0788757,-0.289007,0.145916,0
2024-12-11 19:36:34.573,-0.929013,0.478864,6.57189,-0.00786466,-0.276179,0.144084,0
2024-12-11 19:36:34.573,-0.929013,0.478864,6.57189,-0.00786466,-0.276179,0.144084,0
2024-12-11 19:36:34.578,-0.991227,0.538684,6.78006,-0.0909399,-0.263352,0.146527,0
2024-12-11 19:36:34.578,-0.991227,0.538684,6.78006,-0.0909399,-0.263352,0.146527,0
2024-12-11 19:36:34.580,-1.01276,0.56022,6.89013,-0.125147,-0.260908,0.14897,0
2024-12-11 19:36:34.582,-1.01515,0.586541,7.034,-0.162409,-0.252356,0.156301,0
2024-12-11 19:36:34.585,-1.0319,0.622433,7.18475,-0.198449,-0.24808,0.162409,0
2024-12-11 19:36:34.588,-1.05823,0.646361,7.34985,-0.248538,-0.235253,0.174626,0
2024-12-11 19:36:34.590,-1.07737,0.655932,7.53649,-0.248538,-0.235253,0.174626,0
2024-12-11 19:36:34.590,-1.07737,0.655932,7.53649,-0.248538,-0.235253,0.174626,0
2024-12-11 19:36:34.594,-1.09173,0.694218,7.95793,-0.290076,-0.220592,0.1844,0
2024-12-11 19:36:34.595,-1.09173,0.694218,7.95793,-0.290076,-0.220592,0.1844,0
2024-12-11 19:36:34.596,-1.09651,0.73011,8.1664,-0.299239,-0.215095,0.186843,0
2024-12-11 19:36:34.599,-1.10848,0.773181,8.36501,-0.308401,-0.210208,0.188065,0
2024-12-11 19:36:34.601,-1.11805,0.809073,8.56122,-0.31451,-0.206543,0.188675,0
2024-12-11 19:36:34.604,-1.11805,0.809073,8.56122,-0.31451,-0.206543,0.188675,0
2024-12-11 19:36:34.606,-1.1659,0.905085,8.92284,-0.313288,-0.188828,0.186843,0
2024-12-11 19:36:34.607,-1.1659,0.905085,8.92284,-0.313288,-0.188828,0.186843,0
2024-12-11 19:36:34.608,-1.1994,0.974477,9.08315,-0.310234,-0.176611,0.18501,0
2024-12-11 19:36:34.613,-1.24008,1.09651,9.34666,-0.29313,-0.149123,0.180734,0
2024-12-11 19:36:34.613,-1.22094,1.03669,9.34666,-0.29313,-0.149123,0.180734,0
2024-12-11 19:36:34.615,-1.25444,1.15155,9.45673,-0.282746,-0.132019,0.17768,0
2024-12-11 19:36:34.619,-1.27119,1.20658,9.54527,-0.266864,-0.115526,0.173404,0
2024-12-11 19:36:34.621,-1.28794,1.27597,9.60987,-0.266864,-0.115526,0.173404,0
2024-12-11 19:36:34.622,-1.28794,1.32622,9.65773,-0.24243,-0.0770431,0.166685,0
2024-12-11 19:36:34.625,-1.29033,1.3669,9.69123,-0.24243,-0.0562743,0.164242,0
2024-12-11 19:36:34.627,-1.2999,1.40548,9.69841,-0.209444,-0.033673,0.160576,0
2024-12-11 19:36:34.629,-1.29751,1.42941,9.68645,-0.209444,-0.033673,0.160576,0
2024-12-11 19:36:34.630,-1.29751,1.42941,9.68645,-0.209444,-0.033673,0.160576,0
2024-12-11 19:36:34.633,-1.29033,1.46052,9.65295,-0.168517,0.0335202,0.14897,0
2024-12-11 19:36:34.636,-1.30229,1.51555,9.51895,-0.153246,0.0536782,0.146527,0
2024-12-11 19:36:34.639,-1.30229,1.55384,9.4352,-0.144694,0.0713928,0.144694,0
2024-12-11 19:36:34.639,-1.29512,1.55384,9.4352,-0.144694,0.0713928,0.144694,0
2024-12-11 19:36:34.641,-1.28794,1.58255,9.34188,-0.144694,0.0713928,0.144694,0
2024-12-11 19:36:34.644,-1.29033,1.60409,9.21715,-0.129423,0.1056,0.141029,0
2024-12-11 19:36:34.646,-1.28076,1.63041,9.07598,-0.129423,0.1056,0.141029,0
2024-12-11 19:36:34.648,-1.26162,1.66869,8.96351,-0.114763,0.134921,0.138586,0
2024-12-11 19:36:34.648,-1.26162,1.66869,8.96351,-0.114763,0.134921,0.138586,0
2024-12-11 19:36:34.654,-1.20658,1.74527,8.75055,-0.11293,0.154468,0.134921,0
2024-12-11 19:36:34.654,-1.20658,1.74527,8.75055,-0.11293,0.154468,0.134921,0
2024-12-11 19:36:34.655,-1.18265,1.79551,8.64258,-0.11293,0.154468,0.134921,0
2024-12-11 19:36:34.659,-1.15155,1.85055,8.52533,-0.11293,0.154468,0.134921,0
2024-12-11 19:36:34.662,-1.11565,1.94148,8.33869,-0.127591,0.161798,0.128812,0
2024-12-11 19:36:34.665,-1.11565,1.94148,8.25015,-0.132477,0.160576,0.127591,0
2024-12-11 19:36:34.665,-1.11087,1.97767,8.25015,-0.132477,0.160576,0.127591,0
2024-12-11 19:36:34.667,-1.11565,2.0016,8.17119,-0.132477,0.160576,0.127591,0
2024-12-11 19:36:34.673,-1.12044,2.01835,8.04168,-0.15569,0.144084,0.125758,0
2024-12-11 19:36:34.673,-1.12044,2.01835,8.04168,-0.15569,0.144084,0.125758,0
2024-12-11 19:36:34.677,-1.13719,2.04706,7.94836,-0.15569,0.144084,0.125758,0
2024-12-11 19:36:34.678,-1.12762,2.06381,7.94836,-0.164242,0.127591,0.129423,0
2024-12-11 19:36:34.680,-1.10608,2.06142,7.92443,-0.172183,0.117206,0.132477,0
2024-12-11 19:36:34.681,-1.08455,2.06381,7.90529,-0.172183,0.117206,0.132477,0
2024-12-11 19:36:34.684,-1.10369,2.07577,7.89093,-0.169739,0.109876,0.133699,0
2024-12-11 19:36:34.684,-1.10369,2.07577,7.89093,-0.169739,0.109876,0.133699,0
2024-12-11 19:36:34.688,-1.12522,2.07577,7.87897,-0.167296,0.0927724,0.136753,0
2024-12-11 19:36:34.688,-1.12283,2.08535,7.87897,-0.167296,0.0927724,0.136753,0
2024-12-11 19:36:34.692,-1.11805,2.10927,7.85982,-0.159966,0.0713928,0.145916,0
2024-12-11 19:36:34.693,-1.12044,2.14517,7.84547,-0.159966,0.0713928,0.145916,0
2024-12-11 19:36:34.696,-1.11805,2.16192,7.85025,-0.152025,0.0640626,0.149581,0
2024-12-11 19:36:34.698,-1.11805,2.16909,7.84068,-0.145305,0.0573433,0.155079,0
2024-12-11 19:36:34.701,-1.12044,2.19781,7.81436,-0.134921,0.050624,0.158744,0
2024-12-11 19:36:34.703,-1.12044,2.19781,7.81436,-0.134921,0.050624,0.158744,0
2024-12-11 19:36:34.706,-1.12044,2.25763,7.74497,-0.110487,0.0377962,0.173404,0
2024-12-11 19:36:34.707,-1.11326,2.27199,7.70908,-0.110487,0.0377962,0.173404,0
2024-12-11 19:36:34.707,-1.11326,2.27199,7.70908,-0.110487,0.0377962,0.173404,0
2024-12-11 19:36:34.709,-1.10608,2.27677,7.64208,-0.0854423,0.0274118,0.186843,0
2024-12-11 19:36:34.712,-1.09412,2.29113,7.59183,-0.0738362,0.0188599,0.194784,0
2024-12-11 19:36:34.714,-1.07737,2.30788,7.55324,-0.0597867,0.0121406,0.203947,0
2024-12-11 19:36:34.714,-1.07737,2.30788,7.55324,-0.0597867,0.0121406,0.203947,0
2024-12-11 19:36:34.714,-1.07737,2.30788,7.55324,-0.0597867,0.0121406,0.203947,0
2024-12-11 19:36:34.714,-1.07737,2.30788,7.55324,-0.0597867,0.0121406,0.203947,0
2024-12-11 19:36:34.721,-1.00319,2.3677,7.38096,-0.0200816,-0.013515,0.226548,0
2024-12-11 19:36:34.727,-0.974477,2.42752,7.25893,0.0177909,-0.0434465,0.250371,0
2024-12-11 19:36:34.727,-0.974477,2.42752,7.25893,0.0177909,-0.0434465,0.250371,0
2024-12-11 19:36:34.729,-0.967299,2.46341,7.21825,0.0177909,-0.0434465,0.250371,0
2024-12-11 19:36:34.731,-0.952942,2.5017,7.16561,0.0177909,-0.0434465,0.250371,0
2024-12-11 19:36:34.733,-0.936192,2.5331,7.10579,0.0397814,-0.0611611,0.266864,0
2024-12-11 19:36:34.735,-0.907478,2.5666,7.05554,0.0489441,-0.0648262,0.275416,0
2024-12-11 19:36:34.738,-0.873978,2.59532,7.01486,0.0599394,-0.0727672,0.284578,0
2024-12-11 19:36:34.739,-0.873978,2.59532,7.01486,0.0599394,-0.0727672,0.284578,0
2024-12-11 19:36:34.742,-0.830609,2.62164,6.90928,0.0764323,-0.0929251,0.301682,0
2024-12-11 19:36:34.742,-0.830609,2.62164,6.90928,0.0764323,-0.0929251,0.301682,0
2024-12-11 19:36:34.745,-0.811466,2.66231,6.87099,0.0764323,-0.0929251,0.301682,0
2024-12-11 19:36:34.748,-0.821037,2.69821,6.83271,0.0886492,-0.119192,0.331003,0
2024-12-11 19:36:34.750,-0.859622,2.70299,6.81117,0.0886492,-0.119192,0.331003,0
2024-12-11 19:36:34.753,-0.842872,2.71256,6.78963,0.0910926,-0.145458,0.352383,0
2024-12-11 19:36:34.754,-0.766002,2.74367,6.75374,0.0910926,-0.145458,0.352383,0
2024-12-11 19:36:34.754,-0.766002,2.74367,6.75374,0.0910926,-0.145458,0.352383,0
2024-12-11 19:36:34.760,-0.641576,2.83938,6.73221,0.0917034,-0.185774,0.378649,0
2024-12-11 19:36:34.761,-0.605683,2.89442,6.73939,0.0917034,-0.185774,0.378649,0
2024-12-11 19:36:34.765,-0.584148,2.94706,6.75374,0.0886492,-0.215705,0.392698,0
2024-12-11 19:36:34.766,-0.569791,2.98535,6.78246,0.0886492,-0.215705,0.392698,0
2024-12-11 19:36:34.766,-0.569791,2.98535,6.78246,0.0886492,-0.215705,0.392698,0
2024-12-11 19:36:34.769,-0.545863,3.0332,6.80638,0.0862058,-0.227922,0.396974,0
2024-12-11 19:36:34.771,-0.514756,3.08584,6.83749,0.0819299,-0.237085,0.401861,0
2024-12-11 19:36:34.772,-0.514756,3.08584,6.83749,0.0807082,-0.243194,0.406137,0
2024-12-11 19:36:34.775,-0.452543,3.18664,6.91645,0.0758214,-0.251135,0.407359,0
2024-12-11 19:36:34.779,-0.428614,3.22253,6.95713,0.0709346,-0.260908,0.410413,0
2024-12-11 19:36:34.780,-0.428614,3.2656,6.99302,0.0709346,-0.260908,0.410413,0
2024-12-11 19:36:34.780,-0.392722,3.2656,6.99302,0.0709346,-0.260908,0.410413,0
2024-12-11 19:36:34.783,-0.347258,3.3015,7.01486,0.0642153,-0.263962,0.409802,0
2024-12-11 19:36:34.785,-0.297009,3.34218,7.05314,0.0599394,-0.267017,0.40797,0
2024-12-11 19:36:34.788,-0.234497,3.38285,7.11057,0.0532201,-0.270682,0.406748,0
2024-12-11 19:36:34.791,-0.189033,3.41635,7.15604,0.0532201,-0.270682,0.406748,0
2024-12-11 19:36:34.792,-0.133998,3.45464,7.19432,0.037338,-0.282288,0.396974,0
2024-12-11 19:36:34.792,-0.133998,3.45464,7.19432,0.037338,-0.282288,0.396974,0
2024-12-11 19:36:34.797,-0.0287139,3.55992,7.32114,0.0184018,-0.292672,0.378038,0
2024-12-11 19:36:34.797,-0.0287139,3.55992,7.32114,0.0184018,-0.292672,0.378038,0
2024-12-11 19:36:34.799,0.00717847,3.59821,7.38575,0.0184018,-0.292672,0.378038,0
2024-12-11 19:36:34.801,0.0311067,3.6341,7.44078,-0.00786466,-0.306722,0.358491,0
2024-12-11 19:36:34.804,0.0646062,3.65833,7.51974,-0.0219141,-0.318328,0.343831,0
2024-12-11 19:36:34.806,0.0885344,3.68465,7.59661,-0.0347419,-0.32749,0.32917,0
2024-12-11 19:36:34.808,0.102891,3.699,7.6684,-0.0548999,-0.340318,0.315732,0
2024-12-11 19:36:34.808,0.102891,3.699,7.6684,-0.0548999,-0.340318,0.315732,0
2024-12-11 19:36:34.814,0.150748,3.71815,7.87657,-0.0884965,-0.369028,0.280913,0
2024-12-11 19:36:34.814,0.150748,3.71815,7.87657,-0.0884965,-0.369028,0.280913,0
2024-12-11 19:36:34.818,0.160319,3.74208,8.001,-0.125758,-0.407511,0.244263,0
2024-12-11 19:36:34.818,0.177069,3.7684,8.15444,-0.125758,-0.407511,0.244263,0
2024-12-11 19:36:34.821,0.196211,3.78993,8.32433,-0.163631,-0.449049,0.203336,0
2024-12-11 19:36:34.823,0.215354,3.81625,8.5014,-0.163631,-0.449049,0.203336,0
2024-12-11 19:36:34.826,0.248854,3.85454,8.67847,-0.179513,-0.466153,0.183789,0
2024-12-11 19:36:34.828,0.248854,3.88564,8.87498,-0.196006,-0.486922,0.13431,0
2024-12-11 19:36:34.831,0.282652,3.93589,9.07598,-0.210666,-0.503415,0.13431,0
2024-12-11 19:36:34.832,0.285045,4.00768,9.27009,-0.210666,-0.503415,0.13431,0
2024-12-11 19:36:34.834,0.285045,4.06989,9.5022,-0.230824,-0.5364,0.0842206,0
2024-12-11 19:36:34.834,0.265603,4.06989,9.5022,-0.230824,-0.5364,0.0842206,0
2024-12-11 19:36:34.837,0.246461,4.12493,9.73909,-0.239987,-0.549228,0.0567324,0
2024-12-11 19:36:34.839,0.196211,4.17518,9.98824,-0.248538,-0.563888,0.030466,0
2024-12-11 19:36:34.841,0.143569,4.23769,10.2538,-0.249149,-0.576716,0.00481042,0
2024-12-11 19:36:34.844,0.0957129,4.28315,10.5054,-0.249149,-0.591987,-0.021456,0
2024-12-11 19:36:34.846,0.0287139,4.31187,10.7495,-0.251593,-0.609091,-0.0465007,0
2024-12-11 19:36:34.848,-0.0334995,4.35972,10.9986,-0.249149,-0.623141,-0.0709346,0
2024-12-11 19:36:34.849,-0.0334995,4.35972,10.9986,-0.249149,-0.623141,-0.0709346,0
2024-12-11 19:36:34.853,-0.174676,4.43629,11.4748,-0.239987,-0.653072,-0.115526,0
2024-12-11 19:36:34.853,-0.174676,4.43629,11.4748,-0.239987,-0.653072,-0.115526,0
2024-12-11 19:36:34.857,-0.241675,4.4674,11.7096,-0.222272,-0.676895,-0.160118,0
2024-12-11 19:36:34.858,-0.27996,4.47697,11.9297,-0.222272,-0.676895,-0.160118,0
2024-12-11 19:36:34.861,-0.285045,4.4674,12.1549,-0.203336,-0.691555,-0.198602,0
2024-12-11 19:36:34.863,-0.241675,4.45783,12.4229,-0.203336,-0.691555,-0.198602,0
2024-12-11 19:36:34.865,-0.241675,4.45783,12.4229,-0.203336,-0.691555,-0.198602,0
2024-12-11 19:36:34.867,-0.191426,4.48176,12.9521,-0.161798,-0.690945,-0.244415,0
2024-12-11 19:36:34.871,-0.189033,4.51526,13.1626,-0.142251,-0.693999,-0.267627,0
2024-12-11 19:36:34.872,-0.172283,4.56072,13.3448,-0.120261,-0.700107,-0.288396,0
2024-12-11 19:36:34.877,-0.0885344,4.65643,13.7037,-0.082388,-0.719044,-0.32749,0
2024-12-11 19:36:34.878,-0.0885344,4.65643,13.7037,-0.0628409,-0.728817,-0.349481,0
2024-12-11 19:36:34.882,0.0239282,4.75693,14.0533,-0.046348,-0.741034,-0.37025,0
2024-12-11 19:36:34.882,0.0239282,4.75693,14.0533,-0.046348,-0.741034,-0.37025,0
2024-12-11 19:36:34.884,0.0957129,4.81227,14.252,-0.030466,-0.75997,-0.393462,0
2024-12-11 19:36:34.887,0.167498,4.84098,14.4748,-0.014584,-0.783793,-0.415452,0
2024-12-11 19:36:34.889,0.244068,4.87448,14.683,-0.014584,-0.783793,-0.415452,0
2024-12-11 19:36:34.891,0.361615,4.91516,14.8723,0.0147367,-0.846711,-0.464931,0
2024-12-11 19:36:34.893,0.706182,4.91516,14.8361,0.0300079,-0.86809,-0.491808,0
2024-12-11 19:36:34.897,0.873978,4.90559,14.7691,0.0452791,-0.857706,-0.518686,0
2024-12-11 19:36:34.898,0.766002,4.92473,15.035,0.0452791,-0.857706,-0.518686,0
2024-12-11 19:36:34.901,0.699003,4.92473,15.3485,0.0929251,-0.926121,-0.594431,0
2024-12-11 19:36:34.903,0.639183,4.92951,15.5904,0.0929251,-0.926121,-0.594431,0
2024-12-11 19:36:34.905,0.641576,4.94626,15.8919,0.107585,-0.978043,-0.612145,0
2024-12-11 19:36:34.907,0.615255,4.91755,16.1794,0.107585,-0.978043,-0.612145,0
2024-12-11 19:36:34.910,0.299402,4.6995,16.5721,0.155842,-1.06906,-0.641466,0
2024-12-11 19:36:34.912,0.112463,4.51286,16.9502,0.193104,-1.06478,-0.636579,0
2024-12-11 19:36:34.912,0.112463,4.51286,16.9502,0.193104,-1.06478,-0.636579,0
2024-12-11 19:36:34.914,0.500399,4.58226,16.9693,0.237085,-1.06906,-0.627416,0
2024-12-11 19:36:34.915,0.500399,4.58226,16.9693,0.237085,-1.06906,-0.627416,0
2024-12-11 19:36:34.919,0.780359,4.65643,16.8257,0.325658,-1.11365,-0.620086,0
2024-12-11 19:36:34.921,0.193819,4.54158,16.9023,0.371471,-1.1106,-0.606648,0
2024-12-11 19:36:34.921,0.193819,4.54158,16.9023,0.371471,-1.1106,-0.606648,0
2024-12-11 19:36:34.927,0.538684,4.39562,17.2304,0.537622,-1.02752,-0.562056,0
2024-12-11 19:36:34.927,0.538684,4.39562,17.2304,0.537622,-1.02752,-0.562056,0
2024-12-11 19:36:34.929,0.562612,4.39322,17.2878,0.537622,-1.02752,-0.562056,0
2024-12-11 19:36:34.932,0.562612,4.42433,17.2831,0.537622,-1.02752,-0.562056,0
2024-12-11 19:36:34.933,0.964906,4.49372,17.2376,0.659181,-0.991481,-0.527848,0
2024-12-11 19:36:34.936,0.917049,4.5679,17.1802,0.719654,-0.976821,-0.511966,0
2024-12-11 19:36:34.938,0.924228,4.64925,17.0602,0.780739,-0.948722,-0.491198,1
2024-12-11 19:36:34.940,1.06301,4.74018,16.809,0.780739,-0.948722,-0.491198,0
2024-12-11 19:36:34.943,1.15394,4.82902,16.5335,0.902909,-0.890692,-0.453936,0
2024-12-11 19:36:34.943,1.15394,4.82902,16.5335,0.902909,-0.890692,-0.453936,0
2024-12-11 19:36:34.945,1.31186,4.90559,16.2679,0.958496,-0.854041,-0.432556,0
2024-12-11 19:36:34.947,1.57059,4.97019,15.9733,0.958496,-0.822277,-0.418507,0
2024-12-11 19:36:34.951,1.75723,4.99651,15.6861,1.11243,-0.78135,-0.39957,0
2024-12-11 19:36:34.952,1.92712,4.98455,15.3676,1.11243,-0.78135,-0.39957,0
2024-12-11 19:36:34.952,1.92712,4.98455,15.3676,1.11243,-0.78135,-0.39957,0
2024-12-11 19:36:34.958,2.51127,5.02762,14.6806,1.20833,-0.7673,-0.421561,0
2024-12-11 19:36:34.959,2.76999,5.03719,14.3982,1.20833,-0.7673,-0.421561,0
2024-12-11 19:36:34.959,2.76999,5.03719,14.3982,1.20833,-0.7673,-0.421561,0
2024-12-11 19:36:34.962,3.03799,5.05394,14.1323,1.20833,-0.7673,-0.421561,0
2024-12-11 19:36:34.964,3.31825,5.08505,13.8787,1.23399,-0.774631,-0.480202,0
2024-12-11 19:36:34.966,3.57906,5.14726,13.6271,1.23704,-0.777074,-0.520518,0
2024-12-11 19:36:34.969,3.87368,5.24058,13.3376,1.23399,-0.783793,-0.569386,0
2024-12-11 19:36:34.969,3.87368,5.24058,13.3376,1.23399,-0.783793,-0.569386,0
2024-12-11 19:36:34.971,3.94068,5.26929,13.1219,1.23399,-0.783793,-0.569386,0
2024-12-11 19:36:34.974,3.71097,5.19272,13.0286,1.19673,-0.758138,-0.679339,0
2024-12-11 19:36:34.976,3.43071,5.05394,12.9592,1.17229,-0.708659,-0.726374,0
2024-12-11 19:36:34.978,3.09093,4.86969,12.9473,1.13931,-0.642688,-0.764246,0
2024-12-11 19:36:34.980,2.72453,4.67318,12.9305,1.13931,-0.642688,-0.764246,0
2024-12-11 19:36:34.983,2.34377,4.42194,12.8803,1.06478,-0.476537,-0.81006,0
2024-12-11 19:36:34.986,2.34377,4.42194,12.8324,0.972545,-0.296337,-0.814336,0
2024-12-11 19:36:34.986,1.95583,4.13689,12.8324,0.972545,-0.296337,-0.814336,0
2024-12-11 19:36:34.987,1.57777,3.85932,12.8013,0.972545,-0.296337,-0.814336,0
2024-12-11 19:36:34.990,1.20658,3.54556,12.7846,0.918791,-0.204099,-0.799065,0
2024-12-11 19:36:34.992,0.859622,3.23689,12.7917,0.863814,-0.112472,-0.775852,0
2024-12-11 19:36:34.995,0.555434,2.95663,12.8252,0.807616,-0.0190126,-0.744699,0
2024-12-11 19:36:34.998,0.318545,2.69821,12.8659,0.693388,0.177069,-0.65857,0
2024-12-11 19:36:34.999,0.150748,2.47777,12.8803,0.693388,0.177069,-0.65857,0
2024-12-11 19:36:35.002,0.0382852,2.27438,12.8587,0.693388,0.177069,-0.610313,0
2024-12-11 19:36:35.002,0.0382852,2.27438,12.8587,0.693388,0.177069,-0.610313,0
2024-12-11 19:36:35.005,-0.0358923,2.0686,12.7726,0.582214,0.390255,-0.555337,0
2024-12-11 19:36:35.006,-0.0741775,1.89123,12.6362,0.524183,0.501429,-0.498528,0
2024-12-11 19:36:35.009,-0.081356,1.76201,12.4804,0.466764,0.616879,-0.442941,0
2024-12-11 19:36:35.011,-0.0550349,1.65434,12.2961,0.407511,0.731108,-0.389186,0
2024-12-11 19:36:35.012,-0.0550349,1.65434,12.2961,0.407511,0.731108,-0.389186,0
2024-12-11 19:36:35.016,0.136391,1.47966,11.7981,0.291451,0.934596,-0.282288,0
2024-12-11 19:36:35.016,0.136391,1.47966,11.7981,0.291451,0.934596,-0.282288,0
2024-12-11 19:36:35.018,0.275175,1.44616,11.5421,0.238307,1.02317,-0.237696,0
2024-12-11 19:36:35.020,0.438186,1.4342,11.2618,0.188828,1.09769,-0.202267,0
2024-12-11 19:36:35.023,0.600898,1.42463,10.9986,0.144236,1.16244,-0.171114,0
2024-12-11 19:36:35.023,0.600898,1.42463,10.9986,0.144236,1.16244,-0.171114,0
2024-12-11 19:36:35.027,0.862014,1.37169,10.4839,0.0721563,1.25285,-0.131409,0
2024-12-11 19:36:35.027,0.862014,1.37169,10.4839,0.0721563,1.25285,-0.131409,0
2024-12-11 19:36:35.030,0.936192,1.33819,10.2323,0.0721563,1.25285,-0.131409,0
2024-12-11 19:36:35.032,0.979263,1.2999,9.99303,0.0196235,1.30049,-0.114305,0
2024-12-11 19:36:35.035,1.00319,1.22572,9.77737,0.000687203,1.31393,-0.110029,0
2024-12-11 19:36:35.038,0.991227,1.14437,9.58116,-0.0206925,1.32187,-0.108807,0
2024-12-11 19:36:35.039,0.955334,1.07019,9.35624,-0.0206925,1.32187,-0.108807,0
2024-12-11 19:36:35.040,0.955334,1.07019,9.35624,-0.0206925,1.32187,-0.108807,0
2024-12-11 19:36:35.043,0.897907,0.996012,9.09512,-0.0268009,1.29255,-0.104531,0
2024-12-11 19:36:35.044,0.809073,0.919442,8.83191,-0.0268009,1.29255,-0.104531,0
2024-12-11 19:36:35.047,0.727717,0.869193,8.5684,-0.0243575,1.24063,-0.100866,0
2024-12-11 19:36:35.050,0.627219,0.825823,8.29801,-0.0249684,1.20459,-0.0947577,0
2024-12-11 19:36:35.051,0.517149,0.801895,8.02493,-0.0249684,1.20459,-0.0947577,0
2024-12-11 19:36:35.053,0.421436,0.794716,7.75215,-0.0249684,1.20459,-0.0947577,0
2024-12-11 19:36:35.057,0.349651,0.794716,7.48624,-0.00419957,1.08486,-0.0684913,0
2024-12-11 19:36:35.057,0.349651,0.794716,7.48624,-0.00419957,1.08486,-0.0684913,0
2024-12-11 19:36:35.058,0.289831,0.821037,7.23739,-0.00419957,1.08486,-0.0684913,0
2024-12-11 19:36:35.060,0.239282,0.852443,7.0026,-0.00419957,1.04149,-0.057496,0
2024-12-11 19:36:35.064,0.205783,0.888335,6.81356,0.00740652,1.00118,-0.0458899,0
2024-12-11 19:36:35.066,0.165105,0.924228,6.63171,0.0196235,0.919325,-0.021456,0
2024-12-11 19:36:35.068,0.165105,0.962513,6.43759,0.0196235,0.919325,-0.021456,0
2024-12-11 19:36:35.068,0.141177,0.962513,6.43759,0.0196235,0.919325,-0.021456,0
2024-12-11 19:36:35.072,0.133998,1.05583,6.11217,0.0269536,0.883285,-0.000687203,0
2024-12-11 19:36:35.073,0.133998,1.05583,6.11217,0.0355055,0.817314,0.00908635,0
2024-12-11 19:36:35.075,0.12682,1.10608,5.97578,0.0355055,0.817314,0.00908635,0
2024-12-11 19:36:35.078,0.143569,1.15633,5.8343,0.0422248,0.763483,0.0219141,0
2024-12-11 19:36:35.080,0.150748,1.21854,5.70748,0.0422248,0.763483,0.0219141,0
2024-12-11 19:36:35.082,0.150748,1.21854,5.60937,0.037338,0.74027,0.0274118,0
2024-12-11 19:36:35.082,0.181855,1.27119,5.60937,0.037338,0.74027,0.0274118,0
2024-12-11 19:36:35.085,0.217747,1.31426,5.52802,0.0348946,0.717669,0.0310769,0
2024-12-11 19:36:35.086,0.244068,1.36929,5.4682,0.0324513,0.702398,0.0329094,0
2024-12-11 19:36:35.089,0.272782,1.41984,5.41795,0.0287862,0.683462,0.0335202,0
2024-12-11 19:36:35.091,0.301795,1.47248,5.39163,0.0165692,0.670023,0.0329094,0
2024-12-11 19:36:35.094,0.301795,1.47248,5.39163,0.0165692,0.670023,0.0329094,0
2024-12-11 19:36:35.096,0.292223,1.52752,5.41795,-0.00297788,0.648643,0.0274118,0
2024-12-11 19:36:35.097,0.292223,1.52752,5.41795,-0.0170274,0.638259,0.0213033,0
2024-12-11 19:36:35.098,0.359223,1.5658,5.4347,-0.0170274,0.638259,0.0213033,0
2024-12-11 19:36:35.101,0.378365,1.6017,5.47298,-0.0335202,0.629707,0.0170274,0
2024-12-11 19:36:35.103,0.387936,1.62084,5.4993,-0.0500131,0.616879,0.00908635,0
2024-12-11 19:36:35.105,0.423829,1.64237,5.51845,-0.0500131,0.616879,0.00908635,0
2024-12-11 19:36:35.109,0.452543,1.65912,5.54477,-0.120871,0.58145,-0.0202343,0
2024-12-11 19:36:35.109,0.452543,1.65912,5.54477,-0.120871,0.58145,-0.0202343,0
2024-12-11 19:36:35.110,0.476471,1.65434,5.57109,-0.120871,0.58145,-0.0202343,0
2024-12-11 19:36:35.112,0.498006,1.66391,5.58305,-0.146527,0.569233,-0.0342838,0
2024-12-11 19:36:35.116,0.474078,1.67827,5.59262,-0.17768,0.555795,-0.0477224,0
2024-12-11 19:36:35.118,0.423829,1.67348,5.63091,-0.235711,0.517922,-0.0764323,0
2024-12-11 19:36:35.119,0.385544,1.65673,5.67637,-0.235711,0.517922,-0.0764323,0
2024-12-11 19:36:35.119,0.385544,1.65673,5.67637,-0.235711,0.517922,-0.0764323,0
2024-12-11 19:36:35.122,0.342473,1.62802,5.72902,-0.266864,0.500818,-0.0904818,0
2024-12-11 19:36:35.122,0.342473,1.62802,5.72902,-0.266864,0.500818,-0.0904818,0
2024-12-11 19:36:35.123,0.342473,1.62802,5.72902,-0.266864,0.500818,-0.0904818,0
2024-12-11 19:36:35.129,0.12682,1.51795,5.96142,-0.358491,0.447064,-0.132019,0
2024-12-11 19:36:35.133,-0.00717847,1.41984,6.13609,-0.4153,0.441566,-0.159507,0
2024-12-11 19:36:35.134,-0.00717847,1.41984,6.13609,-0.4153,0.441566,-0.159507,0
2024-12-11 19:36:35.138,-0.0933201,1.32622,6.30359,-0.464778,0.427517,-0.179665,0
2024-12-11 19:36:35.139,-0.0933201,1.32622,6.30359,-0.464778,0.427517,-0.179665,0
2024-12-11 19:36:35.143,-0.212961,1.31186,6.46182,-0.49471,0.423852,-0.181498,0
2024-12-11 19:36:35.143,-0.212961,1.31186,6.46182,-0.49471,0.423852,-0.181498,0
2024-12-11 19:36:35.146,-0.11007,1.27837,6.47857,-0.521587,0.420187,-0.172946,0
2024-12-11 19:36:35.148,-0.0430708,1.24247,6.536,-0.521587,0.420187,-0.172946,0
2024-12-11 19:36:35.150,-0.040678,1.22333,6.67478,-0.532582,0.414078,-0.16867,0
2024-12-11 19:36:35.152,-0.114855,1.21137,6.80399,-0.53808,0.409191,-0.165005,0
2024-12-11 19:36:35.156,-0.193819,1.21137,6.90449,-0.543578,0.409191,-0.160118,0
2024-12-11 19:36:35.156,-0.193819,1.21137,6.90449,-0.543578,0.409191,-0.160118,0
2024-12-11 19:36:35.159,-0.294616,1.21854,7.00499,-0.542967,0.409191,-0.160118,0
2024-12-11 19:36:35.160,-0.256032,1.21376,6.9667,-0.542967,0.409191,-0.160118,0
2024-12-11 19:36:35.163,-0.299402,1.24247,7.04836,-0.535026,0.42263,-0.157675,0
2024-12-11 19:36:35.164,-0.294616,1.27597,7.09143,-0.535026,0.42263,-0.157675,0
2024-12-11 19:36:35.164,-0.294616,1.27597,7.09143,-0.535026,0.42263,-0.157675,0
2024-12-11 19:36:35.164,-0.294616,1.27597,7.09143,-0.535026,0.42263,-0.157675,0
2024-12-11 19:36:35.171,-0.248854,1.3669,7.2015,-0.501429,0.462335,-0.157064,0
2024-12-11 19:36:35.172,-0.248854,1.3669,7.2015,-0.488601,0.485547,-0.158897,0
2024-12-11 19:36:35.176,-0.215354,1.30947,7.11057,-0.483104,0.519755,-0.171724,0
2024-12-11 19:36:35.176,-0.143569,1.2999,7.02443,-0.483104,0.519755,-0.171724,0
2024-12-11 19:36:35.179,-0.100499,1.4004,7.06032,-0.459281,0.554573,-0.188828,0
2024-12-11 19:36:35.179,-0.100499,1.4004,7.06032,-0.459281,0.554573,-0.188828,0
2024-12-11 19:36:35.183,-0.251246,1.56341,7.14407,-0.44401,0.558849,-0.188217,0
2024-12-11 19:36:35.184,-0.148355,1.56341,7.14407,-0.423852,0.564957,-0.183941,0
2024-12-11 19:36:35.185,-0.419043,1.6352,7.15843,-0.423852,0.564957,-0.183941,0
2024-12-11 19:36:35.188,-0.529113,1.71655,7.15604,-0.406748,0.577785,-0.179055,0
2024-12-11 19:36:35.191,-0.531506,1.80509,7.13211,-0.368265,0.590002,-0.163173,0
2024-12-11 19:36:35.192,-0.565005,1.85055,7.09861,-0.368265,0.590002,-0.163173,0
2024-12-11 19:36:35.195,-0.610469,1.8673,7.06989,-0.349328,0.585726,-0.153399,0
2024-12-11 19:36:35.195,-0.610469,1.8673,7.06989,-0.349328,0.585726,-0.153399,0
2024-12-11 19:36:35.199,-0.643968,1.93908,7.00738,-0.309623,0.577785,-0.136295,0
2024-12-11 19:36:35.199,-0.643968,1.93908,7.00738,-0.309623,0.577785,-0.136295,0
2024-12-11 19:36:35.202,-0.665504,1.9681,6.97149,-0.292519,0.57412,-0.128965,0
2024-12-11 19:36:35.204,-0.689432,1.99442,6.9332,-0.272362,0.569233,-0.121635,0
2024-12-11 19:36:35.206,-0.706182,2.01835,6.90449,-0.253425,0.566179,-0.118581,0
2024-12-11 19:36:35.209,-0.699003,2.05185,6.8686,-0.253425,0.566179,-0.118581,0
2024-12-11 19:36:35.211,-0.691825,2.09252,6.8351,-0.22105,0.561903,-0.112472,0
2024-12-11 19:36:35.211,-0.691825,2.09252,6.8351,-0.22105,0.561903,-0.112472,0
2024-12-11 19:36:35.214,-0.708575,2.12363,6.80638,-0.208223,0.555795,-0.111251,0
2024-12-11 19:36:35.216,-0.737288,2.16431,6.77767,-0.196006,0.54541,-0.106364,0
2024-12-11 19:36:35.219,-0.773181,2.21934,6.75613,-0.18501,0.53075,-0.102088,0
2024-12-11 19:36:35.222,-0.811466,2.27916,6.72981,-0.163631,0.489823,-0.0917034,0
2024-12-11 19:36:35.224,-0.871586,2.34377,6.68914,-0.163631,0.489823,-0.0917034,0
2024-12-11 19:36:35.225,-0.926621,2.41316,6.65803,-0.163631,0.489823,-0.0917034,0
2024-12-11 19:36:35.228,-0.950549,2.47298,6.63889,-0.14836,0.44401,-0.077654,0
2024-12-11 19:36:35.228,-0.950549,2.47298,6.63889,-0.14836,0.44401,-0.077654,0
2024-12-11 19:36:35.232,-0.940978,2.56899,6.60778,-0.136753,0.392088,-0.0605502,0
2024-12-11 19:36:35.232,-0.940978,2.56899,6.60778,-0.136753,0.392088,-0.0605502,0
2024-12-11 19:36:35.238,-0.897907,2.62642,6.64128,-0.128812,0.331003,-0.0440574,0
2024-12-11 19:36:35.238,-0.897907,2.62642,6.64128,-0.128812,0.331003,-0.0440574,0
2024-12-11 19:36:35.239,-0.859622,2.65992,6.66281,-0.122704,0.301071,-0.0361163,0
2024-12-11 19:36:35.242,-0.837787,2.7006,6.72024,-0.116595,0.270529,-0.0287862,0
2024-12-11 19:36:35.244,-0.811466,2.73171,6.7681,-0.108654,0.241208,-0.0251211,0
2024-12-11 19:36:35.248,-0.811466,2.73171,6.78963,-0.0970484,0.186843,-0.0147367,0
2024-12-11 19:36:35.250,-0.780359,2.80588,6.83031,-0.094605,0.161187,-0.00923906,0
2024-12-11 19:36:35.250,-0.751645,2.80588,6.83031,-0.094605,0.161187,-0.00923906,0
2024-12-11 19:36:35.254,-0.722932,2.81067,6.8662,-0.0884965,0.136143,-0.00251974,0
2024-12-11 19:36:35.254,-0.691825,2.82263,6.91406,-0.0884965,0.136143,-0.00251974,0
2024-12-11 19:36:35.256,-0.670289,2.85853,6.99781,-0.0829989,0.11293,0.00175619,0
2024-12-11 19:36:35.258,-0.679861,2.89681,7.04836,-0.0793338,0.0933833,0.00786466,0
2024-12-11 19:36:35.261,-0.675075,2.9327,7.08425,-0.074447,0.0787229,0.0139731,0
2024-12-11 19:36:35.263,-0.655932,2.96142,7.12732,-0.074447,0.0787229,0.0139731,0
2024-12-11 19:36:35.266,-0.641576,2.99731,7.18953,-0.0695602,0.0555107,0.0274118,0
2024-12-11 19:36:35.266,-0.641576,2.99731,7.18953,-0.0695602,0.0555107,0.0274118,0
2024-12-11 19:36:35.268,-0.634397,3.03081,7.26611,-0.0683385,0.0457372,0.0371853,0
2024-12-11 19:36:35.271,-0.632004,3.08106,7.31875,-0.0677277,0.0335202,0.0536782,0
2024-12-11 19:36:35.273,-0.634397,3.13879,7.37139,-0.0677277,0.0335202,0.0536782,0
2024-12-11 19:36:35.275,-0.629611,3.18664,7.40489,-0.0677277,0.0268009,0.0652843,0
2024-12-11 19:36:35.278,-0.612862,3.23928,7.45514,-0.0713928,0.0200816,0.074447,0
2024-12-11 19:36:35.279,-0.591326,3.31585,7.54128,-0.0720036,0.0121406,0.082388,0
2024-12-11 19:36:35.282,-0.553041,3.402,7.62533,-0.0750579,0.00664296,0.0933833,0
2024-12-11 19:36:35.282,-0.553041,3.402,7.62533,-0.0750579,0.00664296,0.0933833,0
2024-12-11 19:36:35.287,-0.464507,3.49532,7.733,-0.0793338,0.00175619,0.107433,0
2024-12-11 19:36:35.289,-0.423829,3.55035,7.79043,-0.0860531,-0.00313059,0.114152,0
2024-12-11 19:36:35.289,-0.423829,3.55035,7.79043,-0.0860531,-0.00313059,0.114152,0
2024-12-11 19:36:35.291,-0.407079,3.61496,7.85982,-0.0909399,-0.0019089,0.120871,0
2024-12-11 19:36:35.294,-0.419043,3.68943,7.94597,-0.0970484,-0.00557398,0.125758,0
2024-12-11 19:36:35.296,-0.421436,3.75643,8.02971,-0.103157,-0.00740652,0.130034,0
2024-12-11 19:36:35.298,-0.421436,3.82104,8.11107,-0.109876,-0.0122933,0.134921,0
2024-12-11 19:36:35.301,-0.421436,3.89522,8.2023,-0.109876,-0.0122933,0.134921,0
2024-12-11 19:36:35.304,-0.431007,3.95025,8.29801,-0.122704,-0.0129041,0.145916,0
2024-12-11 19:36:35.305,-0.435793,3.99332,8.39612,-0.122704,-0.0129041,0.145916,0
2024-12-11 19:36:35.308,-0.435793,3.99332,8.49661,-0.130034,-0.0171801,0.156301,0
2024-12-11 19:36:35.310,-0.385544,4.10818,8.61147,-0.131867,-0.0184018,0.161187,0
2024-12-11 19:36:35.310,-0.385544,4.10818,8.61147,-0.131867,-0.0184018,0.161187,0
2024-12-11 19:36:35.312,-0.352044,4.13928,8.73859,-0.136143,-0.0190126,0.166685,0
2024-12-11 19:36:35.315,-0.335294,4.18953,8.87259,-0.13431,-0.0184018,0.169739,0
2024-12-11 19:36:35.318,-0.316152,4.24008,8.98505,-0.136753,-0.0184018,0.175237,0
2024-12-11 19:36:35.320,-0.27996,4.28555,9.10708,-0.136753,-0.0184018,0.175237,0
2024-12-11 19:36:35.322,-0.258425,4.34297,9.24826,-0.136753,-0.0184018,0.174015,0
2024-12-11 19:36:35.324,-0.258425,4.39322,9.38016,-0.131256,-0.0141258,0.173404,0
2024-12-11 19:36:35.324,-0.248854,4.39322,9.38016,-0.131256,-0.0141258,0.173404,0
2024-12-11 19:36:35.329,-0.258425,4.48176,9.65534,-0.127591,-0.00801737,0.170961,0
2024-12-11 19:36:35.330,-0.258425,4.48176,9.65534,-0.120871,-0.00618483,0.169128,0
2024-12-11 19:36:35.331,-0.270389,4.53201,9.78694,-0.120871,-0.00618483,0.169128,0
2024-12-11 19:36:35.335,-0.289831,4.5344,9.89971,-0.114763,-0.00679568,0.170961,0
2024-12-11 19:36:35.336,-0.308973,4.55115,9.99303,-0.114763,-0.00679568,0.170961,0
2024-12-11 19:36:35.338,-0.325723,4.63011,10.1007,-0.117206,-0.00740652,0.171572,0
2024-12-11 19:36:35.343,-0.332901,4.80509,10.4216,-0.101935,-0.000687203,0.165463,0
2024-12-11 19:36:35.345,-0.354437,4.87448,10.5796,-0.0921616,0.00297788,0.159355,0
2024-12-11 19:36:35.348,-0.366401,4.93669,10.7303,-0.0811663,0.00908635,0.150192,0
2024-12-11 19:36:35.348,-0.366401,4.93669,10.7303,-0.0811663,0.00908635,0.150192,0
2024-12-11 19:36:35.354,-0.385544,4.98216,10.9747,-0.0475697,0.0170274,0.116595,0
2024-12-11 19:36:35.354,-0.431007,5.00848,10.9747,-0.0475697,0.0170274,0.116595,0
2024-12-11 19:36:35.358,-0.486042,5.03958,11.08,-0.0408504,0.0188599,0.103157,0
2024-12-11 19:36:35.358,-0.529113,5.06112,11.1924,-0.0408504,0.0188599,0.103157,0
2024-12-11 19:36:35.362,-0.567398,5.06351,11.4054,-0.0286335,0.0237467,0.0909399,0
2024-12-11 19:36:35.362,-0.617647,5.06351,11.4054,-0.0286335,0.0237467,0.0909399,0
2024-12-11 19:36:35.364,-0.658325,5.0683,11.5062,-0.0109189,0.0310769,0.066506,0
2024-12-11 19:36:35.367,-0.706182,5.08026,11.6043,-0.00236703,0.0377962,0.0530674,0
2024-12-11 19:36:35.369,-0.787538,5.09462,11.7048,0.00313059,0.0408504,0.0390179,0
2024-12-11 19:36:35.371,-0.881157,5.09462,11.8005,0.00313059,0.0408504,0.0390179,0
2024-12-11 19:36:35.374,-0.955334,5.08983,11.8962,0.0165692,0.042683,0.0158057,0
2024-12-11 19:36:35.377,-1.01755,5.09701,12.0206,0.0245102,0.0402396,-0.00862822,0
2024-12-11 19:36:35.378,-1.11087,5.1018,12.1406,0.0202343,0.0420721,-0.00862822,0
2024-12-11 19:36:35.379,-1.11087,5.1018,12.1406,0.0202343,0.0420721,-0.00862822,0
2024-12-11 19:36:35.383,-1.29751,5.0994,12.3535,0.0318404,0.038407,-0.0245102,0
2024-12-11 19:36:35.383,-1.29751,5.0994,12.3535,0.0318404,0.038407,-0.0245102,0
2024-12-11 19:36:35.385,-1.37886,5.09701,12.4852,0.0312296,0.0335202,-0.0306187,0
2024-12-11 19:36:35.388,-1.46052,5.09462,12.5904,0.0312296,0.0335202,-0.0306187,0
2024-12-11 19:36:35.390,-1.54666,5.08026,12.6841,0.0367272,0.0335202,-0.0355055,0
2024-12-11 19:36:35.393,-1.54666,5.07548,12.775,0.0379489,0.0335202,-0.0342838,0
2024-12-11 19:36:35.393,-1.62802,5.07548,12.775,0.0379489,0.0335202,-0.0342838,0
2024-12-11 19:36:35.395,-1.70459,5.09223,12.8468,0.0379489,0.0359636,-0.0355055,0
2024-12-11 19:36:35.397,-1.75484,5.0994,12.9305,0.0361163,0.0353528,-0.0324513,0
2024-12-11 19:36:35.400,-1.77637,5.11855,13.0167,0.0361163,0.0353528,-0.0324513,0
2024-12-11 19:36:35.402,-1.78834,5.10419,13.1124,0.0355055,0.0353528,-0.0190126,0
2024-12-11 19:36:35.402,-1.78834,5.10419,13.1124,0.0355055,0.0353528,-0.0190126,0
2024-12-11 19:36:35.407,-1.80987,5.07069,13.3591,0.0318404,0.0335202,-0.00557398,0
2024-12-11 19:36:35.407,-1.80987,5.07069,13.3591,0.0318404,0.0335202,-0.00557398,0
2024-12-11 19:36:35.409,-1.82423,5.02762,13.4979,0.0306187,0.0359636,0.00419957,0
2024-12-11 19:36:35.411,-1.81226,4.95823,13.6439,0.0306187,0.0359636,0.00419957,0
2024-12-11 19:36:35.414,-1.81226,4.91037,13.7782,0.0257319,0.0390179,0.0261901,0
2024-12-11 19:36:35.414,-1.80509,4.91037,13.7782,0.0257319,0.0390179,0.0261901,0
2024-12-11 19:36:35.417,-1.80269,4.87209,13.893,0.0245102,0.0518457,0.0500131,0
2024-12-11 19:36:35.419,-1.8003,4.80269,14.0031,0.0245102,0.0518457,0.0500131,0
2024-12-11 19:36:35.422,-1.78834,4.74736,14.1084,0.0263428,0.0622301,0.0652843,0
2024-12-11 19:36:35.424,-1.78834,4.70907,14.2137,0.0342838,0.0939941,0.0939941,0
2024-12-11 19:36:35.426,-1.73569,4.66122,14.307,0.0342838,0.0939941,0.0939941,0
2024-12-11 19:36:35.426,-1.73569,4.66122,14.307,0.0342838,0.0939941,0.0939941,0
2024-12-11 19:36:35.428,-1.74287,4.61097,14.391,0.0410031,0.114763,0.109876,0
2024-12-11 19:36:35.430,-1.74287,4.61097,14.391,0.0471116,0.136753,0.128812,0
2024-12-11 19:36:35.433,-1.77398,4.52243,14.5179,0.0562743,0.162409,0.147138,0
2024-12-11 19:36:35.435,-1.79312,4.47697,14.5537,0.0691021,0.191119,0.169739,0
2024-12-11 19:36:35.437,-1.80748,4.45544,14.5657,0.0819299,0.224105,0.192341,0
2024-12-11 19:36:35.438,-1.79312,4.47697,14.5537,0.0819299,0.224105,0.192341,0
2024-12-11 19:36:35.440,-1.77637,4.49611,14.5346,0.0819299,0.224105,0.192341,0
2024-12-11 19:36:35.443,-1.71894,4.57986,14.4245,0.140571,0.373762,0.257701,0
2024-12-11 19:36:35.444,-1.64716,4.68036,14.2615,0.140571,0.373762,0.257701,0
2024-12-11 19:36:35.447,-1.5658,4.78834,14.0581,0.140571,0.373762,0.257701,0
2024-12-11 19:36:35.450,-1.50359,4.92234,13.783,0.188217,0.483715,0.294963,0
2024-12-11 19:36:35.450,-1.50359,4.92234,13.783,0.188217,0.483715,0.294963,0
2024-12-11 19:36:35.454,-1.49163,5.10898,13.1626,0.224257,0.553962,0.313288,0
2024-12-11 19:36:35.454,-1.49163,5.10898,13.1626,0.224257,0.553962,0.313288,0
2024-12-11 19:36:35.456,-1.51555,5.12333,12.8563,0.235253,0.56679,0.317564,0
2024-12-11 19:36:35.460,-1.57537,5.0659,12.5593,0.239528,0.570455,0.320008,0
2024-12-11 19:36:35.461,-1.62562,4.9678,12.3009,0.238307,0.560681,0.317564,0
2024-12-11 19:36:35.461,-1.62562,4.9678,12.3009,0.238307,0.560681,0.317564,0
2024-12-11 19:36:35.466,-1.67827,4.666,11.9513,0.215095,0.489823,0.306569,0
2024-12-11 19:36:35.466,-1.7333,4.666,11.9513,0.215095,0.489823,0.306569,0
2024-12-11 19:36:35.468,-1.82184,4.4674,11.8603,0.191882,0.42996,0.296185,0
2024-12-11 19:36:35.470,-1.98485,4.2688,11.8101,0.191882,0.42996,0.287633,0
2024-12-11 19:36:35.473,-2.21216,4.04357,11.8125,0.130798,0.27847,0.279081,0
2024-12-11 19:36:35.473,-2.21216,4.04357,11.8125,0.130798,0.27847,0.279081,0
2024-12-11 19:36:35.477,-2.55942,3.68226,12.0135,0.0477224,0.110487,0.274805,0
2024-12-11 19:36:35.477,-2.74606,3.68226,12.0135,0.0477224,0.110487,0.274805,0
2024-12-11 19:36:35.480,-2.65035,3.48335,12.1525,0.000687203,0.0292443,0.272972,0
2024-12-11 19:36:35.483,-2.56421,3.29432,12.3296,-0.0524565,-0.0556635,0.272362,0
2024-12-11 19:36:35.484,-2.53789,3.1005,12.6458,-0.111709,-0.152177,0.268696,0
2024-12-11 19:36:35.488,-2.54267,2.9016,13.031,-0.168517,-0.254189,0.261366,0
2024-12-11 19:36:35.489,-2.54507,2.71496,13.3926,-0.225326,-0.358033,0.253425,0
2024-12-11 19:36:35.489,-2.54507,2.71496,13.3926,-0.225326,-0.358033,0.253425,0
2024-12-11 19:36:35.494,-2.55224,2.52084,13.9409,-0.32917,-0.533957,0.229602,0
2024-12-11 19:36:35.494,-2.54507,2.3007,13.9409,-0.32917,-0.533957,0.229602,0
2024-12-11 19:36:35.497,-2.48973,2.09252,14.2017,-0.414689,-0.62986,0.211888,0
2024-12-11 19:36:35.499,-2.3988,1.89123,14.5011,-0.414689,-0.62986,0.211888,0
2024-12-11 19:36:35.500,-2.3988,1.89123,14.5011,-0.44401,-0.65857,0.205168,0
2024-12-11 19:36:35.503,-2.24566,1.60887,15.1427,-0.468443,-0.674452,0.200892,0
2024-12-11 19:36:35.504,-2.24566,1.60887,15.1427,-0.484326,-0.68056,0.19906,0
2024-12-11 19:36:35.506,-2.17388,1.5012,15.3867,-0.484326,-0.68056,0.19906,0
2024-12-11 19:36:35.509,-2.0686,1.37408,15.612,-0.484326,-0.669565,0.200892,0
2024-12-11 19:36:35.509,-2.0686,1.37408,15.612,-0.484326,-0.669565,0.200892,0
2024-12-11 19:36:35.513,-1.91037,1.24487,15.8345,-0.472719,-0.660402,0.202114,0
2024-12-11 19:36:35.513,-1.70937,1.12283,16.0023,-0.472719,-0.660402,0.202114,0
2024-12-11 19:36:35.515,-1.4677,0.972084,16.1339,-0.472719,-0.660402,0.202114,1
2024-12-11 19:36:35.517,-1.19222,0.809073,16.2416,-0.45134,-0.646353,0.20639,0
2024-12-11 19:36:35.520,-0.878764,0.634397,16.3253,-0.378649,-0.604815,0.202725,0
2024-12-11 19:36:35.523,-0.572184,0.471685,16.3684,-0.269918,-0.532735,0.194784,0
2024-12-11 19:36:35.524,-0.308973,0.330509,16.3397,-0.269918,-0.532735,0.194784,0
2024-12-11 19:36:35.527,-0.0861416,0.200997,16.244,-0.269918,-0.532735,0.194784,0
2024-12-11 19:36:35.530,0.0909273,0.0741775,16.0645,-0.0640626,-0.375137,0.179513,0
2024-12-11 19:36:35.530,0.0909273,0.0741775,16.0645,-0.0640626,-0.375137,0.179513,0
2024-12-11 19:36:35.532,0.236889,-0.0598206,15.8249,-0.0640626,-0.375137,0.179513,0
2024-12-11 19:36:35.534,0.375972,-0.210568,15.5019,0.0153475,-0.314663,0.176459,0
2024-12-11 19:36:35.537,0.462114,-0.352044,15.0541,0.0862058,-0.262741,0.172183,0
2024-12-11 19:36:35.539,0.421436,-0.428614,14.5944,0.148512,-0.217538,0.171572,0
2024-12-11 19:36:35.541,0.328116,-0.459721,14.1562,0.215705,-0.157064,0.174626,0
2024-12-11 19:36:35.544,0.265603,-0.488435,13.7109,0.352535,-0.0202343,0.188065,0
2024-12-11 19:36:35.547,0.215354,-0.507577,13.2682,0.419728,0.0518457,0.19906,0
2024-12-11 19:36:35.549,0.141177,-0.512363,12.8348,0.484478,0.123315,0.211888,0
2024-12-11 19:36:35.550,0.0622134,-0.519542,12.4373,0.484478,0.123315,0.211888,0
2024-12-11 19:36:35.553,-0.0119641,-0.486042,12.0855,0.547396,0.183789,0.222883,0
2024-12-11 19:36:35.555,-0.0981057,-0.431007,11.7215,0.607259,0.238765,0.236322,0
2024-12-11 19:36:35.557,-0.181855,-0.366401,11.3121,0.665289,0.287633,0.250982,0
2024-12-11 19:36:35.561,-0.251246,-0.27996,10.8978,0.718433,0.329781,0.264421,0
2024-12-11 19:36:35.562,-0.325723,-0.20339,10.4958,0.769133,0.365821,0.277859,0
2024-12-11 19:36:35.565,-0.402293,-0.122034,10.0792,0.811892,0.398196,0.290687,0
2024-12-11 19:36:35.568,-0.483649,-0.0215354,9.64816,0.883362,0.446453,0.310234,0
2024-12-11 19:36:35.569,-0.579362,0.0741775,9.24347,0.883362,0.446453,0.310234,0
2024-12-11 19:36:35.572,-0.677468,0.145962,8.87019,0.909628,0.462335,0.316953,0
2024-12-11 19:36:35.574,-0.761217,0.224925,8.48944,0.930397,0.472109,0.322451,0
2024-12-11 19:36:35.576,-0.830609,0.301795,8.14008,0.946279,0.470887,0.326116,0
2024-12-11 19:36:35.579,-0.895514,0.361615,7.8335,0.953609,0.468443,0.331003,0
2024-12-11 19:36:35.583,-0.952942,0.41665,7.29482,0.949333,0.459281,0.332835,0
2024-12-11 19:36:35.587,-1.08694,0.447757,7.034,0.928564,0.425684,0.331003,0
2024-12-11 19:36:35.588,-1.16112,0.495613,6.77288,0.928564,0.425684,0.331003,0
2024-12-11 19:36:35.590,-1.22094,0.545863,6.53839,0.885805,0.397585,0.324894,0
2024-12-11 19:36:35.590,-1.22094,0.545863,6.53839,0.885805,0.397585,0.324894,0
2024-12-11 19:36:35.594,-1.26879,0.574577,6.33231,0.822888,0.375595,0.320618,0
2024-12-11 19:36:35.597,-1.37169,0.658325,5.98774,0.785626,0.368875,0.317564,0
2024-12-11 19:36:35.598,-1.37169,0.658325,5.98774,0.785626,0.368875,0.317564,0
2024-12-11 19:36:35.600,-1.42223,0.708575,5.82712,0.738591,0.363989,0.315732,0
2024-12-11 19:36:35.602,-1.45334,0.74686,5.68355,0.690945,0.363989,0.312067,0
2024-12-11 19:36:35.605,-1.47009,0.777966,5.57587,0.638412,0.366432,0.310845,0
2024-12-11 19:36:35.607,-1.47009,0.80668,5.46341,0.582825,0.367654,0.304736,0
2024-12-11 19:36:35.609,-1.45573,0.837787,5.35334,0.525405,0.37193,0.301682,0
2024-12-11 19:36:35.613,-1.43181,0.842872,5.26929,0.396516,0.376816,0.290076,0
2024-12-11 19:36:35.614,-1.38844,0.842872,5.21187,0.396516,0.376816,0.290076,0
2024-12-11 19:36:35.616,-1.32622,0.854836,5.17837,0.330545,0.378649,0.282746,0
2024-12-11 19:36:35.620,-1.25444,0.85005,5.14965,0.259686,0.377427,0.276027,0
2024-12-11 19:36:35.621,-1.18265,0.85005,5.1329,0.194326,0.378038,0.264421,0
2024-12-11 19:36:35.626,-1.02951,0.859622,5.13051,0.0593285,0.362767,0.238154,0
2024-12-11 19:36:35.627,-1.02951,0.859622,5.13051,0.0593285,0.362767,0.238154,0
2024-12-11 19:36:35.628,-0.962513,0.852443,5.14965,-0.00908635,0.352383,0.224715,0
2024-12-11 19:36:35.630,-0.885943,0.84018,5.19751,-0.074447,0.334668,0.208223,0
2024-12-11 19:36:35.634,-0.792323,0.85005,5.27887,-0.141029,0.31451,0.192341,0
2024-12-11 19:36:35.635,-0.71336,0.862014,5.37727,-0.203336,0.291909,0.175237,0
2024-12-11 19:36:35.639,-0.62004,0.885943,5.49213,-0.311456,0.239376,0.14164,0
2024-12-11 19:36:35.641,-0.524327,0.933799,5.65723,-0.311456,0.239376,0.14164,0
2024-12-11 19:36:35.642,-0.438186,0.972084,5.82951,-0.356658,0.210055,0.122093,0
2024-12-11 19:36:35.645,-0.337687,1.00798,5.98295,-0.395753,0.183178,0.103157,0
2024-12-11 19:36:35.648,-0.246461,1.05344,6.15763,-0.428128,0.156301,0.0829989,0
2024-12-11 19:36:35.649,-0.16989,1.08933,6.33709,-0.455616,0.128812,0.0628409,0
2024-12-11 19:36:35.653,-0.11007,1.12044,6.50728,-0.481882,0.0762796,0.0170274,0
2024-12-11 19:36:35.655,-0.0478565,1.15394,6.65803,-0.481882,0.0762796,0.0170274,0
2024-12-11 19:36:35.656,0.00478565,1.17308,6.79921,-0.485547,0.0469589,-0.00618483,0
2024-12-11 19:36:35.659,0.026321,1.2018,6.93081,-0.485547,0.0188599,-0.0275645,0
2024-12-11 19:36:35.662,0.0478565,1.23529,7.02922,-0.467833,-0.0367272,-0.0691021,0
2024-12-11 19:36:35.663,0.0693919,1.25683,7.10579,-0.467833,-0.0367272,-0.0691021,0
2024-12-11 19:36:35.666,0.0861416,1.27837,7.168,-0.453172,-0.0648262,-0.0868167,0
2024-12-11 19:36:35.668,0.102891,1.29751,7.19193,-0.436069,-0.0917034,-0.105753,0
2024-12-11 19:36:35.670,0.117248,1.29033,7.19911,-0.415911,-0.119192,-0.120413,0
2024-12-11 19:36:35.676,0.198604,1.29272,7.14886,-0.368875,-0.174779,-0.156453,0
2024-12-11 19:36:35.678,0.200997,1.32383,7.12014,-0.341998,-0.202878,-0.171724,0
2024-12-11 19:36:35.679,0.198604,1.29272,7.14886,-0.341998,-0.202878,-0.171724,0
2024-12-11 19:36:35.681,0.208176,1.37408,7.10579,-0.313899,-0.229755,-0.185774,0
2024-12-11 19:36:35.686,0.20339,1.44138,7.034,-0.261366,-0.276179,-0.207154,0
2024-12-11 19:36:35.686,0.20339,1.44138,7.034,-0.261366,-0.276179,-0.207154,0
2024-12-11 19:36:35.687,0.18664,1.47488,7.00499,-0.22777,-0.292672,-0.217538,0
2024-12-11 19:36:35.692,0.189033,1.55623,6.94517,-0.166074,-0.323825,-0.229755,0
2024-12-11 19:36:35.693,0.18664,1.55623,6.94517,-0.13431,-0.336042,-0.235253,0
2024-12-11 19:36:35.694,0.174676,1.58495,6.92842,-0.13431,-0.336042,-0.235253,0
2024-12-11 19:36:35.696,0.165105,1.61366,6.9332,-0.100713,-0.348259,-0.238307,0
2024-12-11 19:36:35.700,0.167498,1.63998,6.90449,-0.0713928,-0.354979,-0.24075,0
2024-12-11 19:36:35.703,0.112463,1.69262,6.81596,-0.0133623,-0.361087,-0.24075,0
2024-12-11 19:36:35.704,0.112463,1.69262,6.81596,-0.0133623,-0.361087,-0.24075,0
2024-12-11 19:36:35.707,0.100499,1.71177,6.79203,0.041614,-0.351314,-0.234642,0
2024-12-11 19:36:35.708,0.0765703,1.73569,6.74656,0.041614,-0.351314,-0.234642,0
2024-12-11 19:36:35.712,0.081356,1.76441,6.69871,0.0599394,-0.345816,-0.229755,0
2024-12-11 19:36:35.713,0.0957129,1.80509,6.64606,0.0825407,-0.336653,-0.223036,0
2024-12-11 19:36:35.715,0.0885344,1.85294,6.59821,0.0947577,-0.326269,-0.219371,0
2024-12-11 19:36:35.721,0.102891,1.9681,6.53839,0.13263,-0.301835,-0.202267,0
2024-12-11 19:36:35.722,0.117248,2.01117,6.51207,0.13263,-0.301835,-0.202267,0
2024-12-11 19:36:35.723,0.117248,2.01117,6.51207,0.13263,-0.301835,-0.202267,0
2024-12-11 19:36:35.727,0.160319,2.09731,6.44477,0.141793,-0.285342,-0.188828,0
2024-12-11 19:36:35.727,0.160319,2.09731,6.44477,0.141793,-0.285342,-0.188828,0
2024-12-11 19:36:35.729,0.174676,2.14995,6.41127,0.141793,-0.285342,-0.188828,0
2024-12-11 19:36:35.733,0.200997,2.18824,6.3682,0.140571,-0.276179,-0.178444,0
2024-12-11 19:36:35.734,0.222533,2.22413,6.3347,0.135684,-0.271903,-0.173557,0
2024-12-11 19:36:35.736,0.227318,2.26481,6.32513,0.128354,-0.270682,-0.16867,0
2024-12-11 19:36:35.740,0.232104,2.30309,6.30359,0.120413,-0.268849,-0.162562,0
2024-12-11 19:36:35.741,0.241675,2.33181,6.29641,0.108196,-0.266406,-0.157064,0
2024-12-11 19:36:35.744,0.246461,2.37009,6.32273,0.0947577,-0.263962,-0.152177,0
2024-12-11 19:36:35.747,0.244068,2.41795,6.34188,0.0947577,-0.263962,-0.152177,0
2024-12-11 19:36:35.748,0.244068,2.4658,6.34427,0.0715455,-0.256021,-0.141182,0
2024-12-11 19:36:35.752,0.232104,2.50887,6.36102,0.0587177,-0.251745,-0.137517,0
2024-12-11 19:36:35.755,0.224925,2.56182,6.38734,0.0263428,-0.244415,-0.1253,0
2024-12-11 19:36:35.755,0.239282,2.61685,6.38734,0.0263428,-0.244415,-0.1253,0
2024-12-11 19:36:35.759,0.234497,2.67189,6.4352,0.0104608,-0.241972,-0.122246,0
2024-12-11 19:36:35.761,0.229711,2.7006,6.48335,-0.022525,-0.228533,-0.113083,0
2024-12-11 19:36:35.762,0.244068,2.7341,6.52164,-0.022525,-0.228533,-0.113083,0
2024-12-11 19:36:35.766,0.263211,2.77717,6.5671,-0.0567324,-0.215705,-0.11064,0
2024-12-11 19:36:35.767,0.263211,2.82263,6.62453,-0.0567324,-0.215705,-0.11064,0
2024-12-11 19:36:35.770,0.246461,2.86092,6.67717,-0.0732253,-0.207764,-0.111251,0
2024-12-11 19:36:35.772,0.241675,2.88724,6.75613,-0.0860531,-0.198602,-0.11064,0
2024-12-11 19:36:35.774,0.222533,2.9327,6.84467,-0.1056,-0.194937,-0.108807,0
2024-12-11 19:36:35.777,0.193819,2.97817,6.93081,-0.117206,-0.187606,-0.111251,0
2024-12-11 19:36:35.779,0.165105,3.01406,7.03161,-0.131867,-0.177833,-0.109418,0
2024-12-11 19:36:35.781,0.138784,3.04517,7.14646,-0.142862,-0.172335,-0.111861,0
2024-12-11 19:36:35.784,0.114855,3.07627,7.26371,-0.153246,-0.163173,-0.111861,0
2024-12-11 19:36:35.786,0.0598206,3.10529,7.369,-0.16302,-0.153399,-0.112472,0
2024-12-11 19:36:35.789,-0.00957129,3.14357,7.47907,-0.174626,-0.138128,-0.113083,0
2024-12-11 19:36:35.791,-0.0765703,3.16989,7.60618,-0.174626,-0.138128,-0.113083,0
2024-12-11 19:36:35.793,-0.148355,3.17707,7.72822,-0.178291,-0.129576,-0.112472,0
2024-12-11 19:36:35.795,-0.208176,3.20818,7.84307,-0.183178,-0.121635,-0.11064,0
2024-12-11 19:36:35.798,-0.267996,3.23211,7.95314,-0.181956,-0.114305,-0.11064,0
2024-12-11 19:36:35.800,-0.320937,3.24646,8.04886,-0.181345,-0.107585,-0.107585,0
2024-12-11 19:36:35.803,-0.368794,3.27039,8.15205,-0.177069,-0.0984228,-0.104531,0
2024-12-11 19:36:35.805,-0.426222,3.29432,8.2358,-0.17768,-0.093536,-0.102699,0
2024-12-11 19:36:35.808,-0.483649,3.32782,8.31715,-0.172793,-0.0831516,-0.0990336,0
2024-12-11 19:36:35.810,-0.529113,3.36132,8.41287,-0.172793,-0.0831516,-0.0990336,0
2024-12-11 19:36:35.813,-0.557827,3.402,8.52293,-0.16302,-0.081319,-0.0984228,0
2024-12-11 19:36:35.814,-0.56022,3.45703,8.65454,-0.16302,-0.081319,-0.0984228,0
2024-12-11 19:36:35.817,-0.553041,3.52164,8.79362,-0.159355,-0.0837624,-0.0990336,0
2024-12-11 19:36:35.820,-0.553041,3.5671,8.92762,-0.147138,-0.0868167,-0.106975,0
2024-12-11 19:36:35.824,-0.533899,3.6006,9.03291,-0.147138,-0.0868167,-0.106975,0
2024-12-11 19:36:35.827,-0.471685,3.66551,9.24108,-0.133699,-0.0917034,-0.122857,0
2024-12-11 19:36:35.827,-0.471685,3.66551,9.24108,-0.133699,-0.0917034,-0.122857,0
2024-12-11 19:36:35.828,-0.4334,3.68943,9.33949,-0.133699,-0.0917034,-0.122857,0
2024-12-11 19:36:35.834,-0.385544,3.69661,9.55484,-0.0927724,-0.0978119,-0.164394,0
2024-12-11 19:36:35.835,-0.390329,3.69422,9.66491,-0.0927724,-0.0978119,-0.164394,0
2024-12-11 19:36:35.835,-0.390329,3.69422,9.66491,-0.0927724,-0.0978119,-0.164394,0
2024-12-11 19:36:35.838,-0.411865,3.70858,9.7678,-0.082388,-0.102699,-0.17539,0
2024-12-11 19:36:35.840,-0.428614,3.71815,9.85903,-0.0671168,-0.106364,-0.187606,0
2024-12-11 19:36:35.842,-0.459721,3.72293,9.94038,-0.0561216,-0.108807,-0.199823,0
2024-12-11 19:36:35.845,-0.483649,3.73968,10.0193,-0.046348,-0.108807,-0.213262,0
2024-12-11 19:36:35.847,-0.505185,3.78275,10.1031,-0.0341311,-0.108807,-0.228533,0
2024-12-11 19:36:35.850,-0.550648,3.83779,10.218,-0.0341311,-0.108807,-0.228533,0
2024-12-11 19:36:35.853,-0.60329,3.8689,10.3256,-0.0121406,-0.0990336,-0.2548,0
2024-12-11 19:36:35.854,-0.639183,3.89761,10.4049,0.00251974,-0.0910926,-0.268849,0
2024-12-11 19:36:35.857,-0.672682,3.95264,10.4623,0.0122933,-0.085595,-0.279234,0
2024-12-11 19:36:35.859,-0.703789,4.01246,10.5054,0.0238994,-0.0758214,-0.294505,0
2024-12-11 19:36:35.861,-0.725324,4.06271,10.5293,0.0342838,-0.0709346,-0.307943,0
2024-12-11 19:36:35.866,-0.758824,4.10818,10.5269,0.049555,-0.0544418,-0.330545,0
2024-12-11 19:36:35.866,-0.792323,4.14886,10.5269,0.049555,-0.0544418,-0.330545,0
2024-12-11 19:36:35.869,-0.818644,4.19671,10.491,0.0550526,-0.049555,-0.340929,0
2024-12-11 19:36:35.871,-0.852443,4.24247,10.4647,0.0629936,-0.0477224,-0.352535,0
2024-12-11 19:36:35.873,-0.871586,4.29512,10.4432,0.0660479,-0.0422248,-0.36353,0
2024-12-11 19:36:35.875,-0.885943,4.35972,10.4288,0.0691021,-0.0403923,-0.372693,0
2024-12-11 19:36:35.879,-0.924228,4.41236,10.4192,0.073378,-0.0361163,-0.379413,0
2024-12-11 19:36:35.883,-0.991227,4.50568,10.4001,0.0752106,-0.037338,-0.395295,0
2024-12-11 19:36:35.885,-1.0008,4.54158,10.4025,0.0752106,-0.037338,-0.395295,0
2024-12-11 19:36:35.887,-1.01037,4.57986,10.4073,0.0770431,-0.057496,-0.40629,0
2024-12-11 19:36:35.888,-1.01037,4.57986,10.4073,0.0770431,-0.057496,-0.40629,0
2024-12-11 19:36:35.892,-0.984048,4.63968,10.5078,0.0794865,-0.0703238,-0.419118,0
2024-12-11 19:36:35.893,-0.984048,4.63968,10.5078,0.0819299,-0.111861,-0.427059,0
2024-12-11 19:36:35.895,-0.998405,4.67797,10.5748,0.081319,-0.143015,-0.434389,0
2024-12-11 19:36:35.898,-1.01994,4.72343,10.6394,0.081319,-0.143015,-0.434389,0
2024-12-11 19:36:35.899,-1.0343,4.77398,10.7136,0.0825407,-0.177833,-0.441719,0
2024-12-11 19:36:35.904,-1.04148,4.8338,10.905,0.0880384,-0.251135,-0.452714,0
2024-12-11 19:36:35.906,-1.01994,4.86491,10.9938,0.0892601,-0.29084,-0.458823,0
2024-12-11 19:36:35.908,-1.01994,4.86491,11.0991,0.0941468,-0.329323,-0.466153,0
2024-12-11 19:36:35.911,-0.950549,4.89362,11.2092,0.100255,-0.367806,-0.47104,0
2024-12-11 19:36:35.912,-0.950549,4.89362,11.2092,0.100255,-0.367806,-0.47104,0
2024-12-11 19:36:35.914,-0.888335,4.89123,11.3049,0.108196,-0.442941,-0.480813,0
2024-12-11 19:36:35.916,-0.801895,4.87209,11.4102,0.108196,-0.442941,-0.480813,0
2024-12-11 19:36:35.919,-0.715753,4.85294,11.5397,0.124689,-0.50769,-0.497917,0
2024-12-11 19:36:35.923,-0.56022,4.78594,11.8316,0.124689,-0.50769,-0.497917,0
2024-12-11 19:36:35.926,-0.512363,4.77159,11.9704,0.146069,-0.554726,-0.511966,0
2024-12-11 19:36:35.927,-0.495613,4.73779,12.1214,0.156453,-0.571219,-0.520518,0
2024-12-11 19:36:35.930,-0.493221,4.7019,12.2674,0.16867,-0.584657,-0.525405,0
2024-12-11 19:36:35.930,-0.493221,4.7019,12.2674,0.16867,-0.584657,-0.525405,0
2024-12-11 19:36:35.934,-0.519542,4.64208,12.4899,0.199213,-0.598096,-0.531513,0
2024-12-11 19:36:35.938,-0.56022,4.61097,12.6,0.199213,-0.598096,-0.530292,0
2024-12-11 19:36:35.941,-0.658325,4.52722,12.8013,0.245026,-0.576716,-0.520518,0
2024-12-11 19:36:35.942,-0.658325,4.52722,12.8013,0.245026,-0.576716,-0.520518,0
2024-12-11 19:36:35.945,-0.73011,4.46979,12.8779,0.280455,-0.5364,-0.501582,0
2024-12-11 19:36:35.947,-0.782752,4.37647,12.9449,0.280455,-0.5364,-0.501582,0
2024-12-11 19:36:35.948,-0.799502,4.27837,13.0238,0.296337,-0.510134,-0.489976,0
2024-12-11 19:36:35.953,-0.818644,4.18714,13.2108,0.325047,-0.438665,-0.464931,0
2024-12-11 19:36:35.955,-0.818644,4.18714,13.285,0.339097,-0.398349,-0.450271,0
2024-12-11 19:36:35.955,-0.852443,4.16561,13.285,0.339097,-0.398349,-0.450271,0
2024-12-11 19:36:35.958,-0.878764,4.15125,13.3137,0.350092,-0.3562,-0.435,0
2024-12-11 19:36:35.960,-0.9003,4.12493,13.3089,0.350092,-0.3562,-0.435,0
2024-12-11 19:36:35.963,-0.938585,4.11536,13.2826,0.370861,-0.261519,-0.403846,0
2024-12-11 19:36:35.966,-0.938585,4.11536,13.2682,0.383078,-0.160729,-0.370861,0
2024-12-11 19:36:35.968,-1.0319,4.14168,13.2491,0.385521,-0.113083,-0.353757,0
2024-12-11 19:36:35.968,-1.0319,4.14168,13.2491,0.385521,-0.113083,-0.353757,0
2024-12-11 19:36:35.970,-1.05344,4.14407,13.2108,0.385521,-0.113083,-0.353757,0
2024-12-11 19:36:35.974,-1.06062,4.12493,13.1028,0.387964,-0.0220669,-0.32016,0
2024-12-11 19:36:35.975,-1.06062,4.12493,13.1028,0.387964,-0.0220669,-0.32016,0
2024-12-11 19:36:35.978,-1.0654,4.11775,13.0214,0.385521,0.0494023,-0.293283,0
2024-12-11 19:36:35.979,-1.09412,4.14168,12.9209,0.385521,0.0494023,-0.293283,0
2024-12-11 19:36:35.984,-1.28794,4.39322,12.588,0.387964,0.114152,-0.270071,0
2024-12-11 19:36:35.986,-1.41027,4.59422,12.3296,0.381856,0.146527,-0.257854,0
2024-12-11 19:36:35.988,-1.47727,4.78116,12.0712,0.381856,0.146527,-0.257854,0
2024-12-11 19:36:35.991,-1.4988,4.95344,11.8388,0.372693,0.190508,-0.230366,0
2024-12-11 19:36:35.993,-1.49163,5.1018,11.6354,0.369639,0.195395,-0.219981,0
2024-12-11 19:36:35.996,-1.44377,5.22144,11.4604,0.364141,0.192951,-0.21204,0
2024-12-11 19:36:35.996,-1.44377,5.22144,11.4604,0.364141,0.192951,-0.21204,0
2024-12-11 19:36:35.998,-1.34536,5.29562,11.3025,0.356811,0.178902,-0.207764,0
2024-12-11 19:36:36.000,-1.17069,5.29322,11.1661,0.347038,0.158133,-0.207154,0
2024-12-11 19:36:36.003,-0.988834,5.24776,11.0848,0.340318,0.128812,-0.213873,0
2024-12-11 19:36:36.006,-0.845265,5.19751,11.0417,0.318328,0.0451263,-0.244415,0
2024-12-11 19:36:36.007,-0.689432,5.14008,11.0106,0.318328,0.0451263,-0.244415,0
2024-12-11 19:36:36.010,-0.490828,5.04198,11.0345,0.318328,0.0451263,-0.244415,0
2024-12-11 19:36:36.014,-0.0717847,4.74018,11.1446,0.286564,-0.122246,-0.332988,0
2024-12-11 19:36:36.014,-0.0717847,4.74018,11.1446,0.286564,-0.122246,-0.332988,0
2024-12-11 19:36:36.017,0.0550349,4.57029,11.2307,0.271903,-0.179665,-0.372693,0
2024-12-11 19:36:36.020,0.112463,4.38365,11.3216,0.224868,-0.271903,-0.446606,0
2024-12-11 19:36:36.022,0.0861416,4.18714,11.4509,0.224868,-0.271903,-0.446606,0
2024-12-11 19:36:36.025,0.00717847,4.01246,11.6186,0.165616,-0.315274,-0.510745,0
2024-12-11 19:36:36.027,-0.0933201,3.8689,11.8508,0.165616,-0.315274,-0.510745,0
2024-12-11 19:36:36.029,-0.165105,3.73729,12.0855,0.138128,-0.3055,-0.532735,0
2024-12-11 19:36:36.031,-0.208176,3.58624,12.2722,0.105142,-0.292672,-0.551061,0
2024-12-11 19:36:36.033,-0.234497,3.41157,12.4277,0.0697129,-0.279234,-0.568775,0
2024-12-11 19:36:36.037,-0.246461,3.21775,12.5809,-0.00481042,-0.255411,-0.596263,0
2024-12-11 19:36:36.039,-0.251246,2.98774,12.7654,-0.0445155,-0.237085,-0.612756,0
2024-12-11 19:36:36.040,-0.239282,2.72692,12.9521,-0.0445155,-0.237085,-0.612756,0
2024-12-11 19:36:36.045,-0.131605,2.1332,13.3424,-0.118428,-0.18272,-0.640855,0
2024-12-11 19:36:36.047,-0.066999,1.83859,13.5721,-0.155079,-0.140571,-0.656126,0
2024-12-11 19:36:36.050,-0.026321,1.57777,13.7973,-0.187454,-0.0886492,-0.674452,0
2024-12-11 19:36:36.051,-0.026321,1.57777,13.7973,-0.216164,-0.0281753,-0.690945,0
2024-12-11 19:36:36.054,-0.0526421,1.11805,14.1921,-0.241208,0.0347419,-0.705605,0
2024-12-11 19:36:36.055,-0.0526421,1.11805,14.1921,-0.241208,0.0347419,-0.705605,0
2024-12-11 19:36:36.057,-0.0909273,0.905085,14.3743,-0.254647,0.106211,-0.715379,0
2024-12-11 19:36:36.059,-0.153141,0.732503,14.5322,-0.269307,0.180124,-0.722709,0
2024-12-11 19:36:36.061,-0.246461,0.591326,14.6566,-0.276637,0.257701,-0.727595,0
2024-12-11 19:36:36.064,-0.344866,0.4669,14.7308,-0.272362,0.331003,-0.727595,0
2024-12-11 19:36:36.067,-0.426222,0.375972,14.7571,-0.245484,0.462946,-0.719044,0
2024-12-11 19:36:36.069,-0.517149,0.301795,14.7236,-0.245484,0.462946,-0.719044,1
2024-12-11 19:36:36.071,-0.576969,0.267996,14.6423,-0.245484,0.462946,-0.719044,0
2024-12-11 19:36:36.073,-0.624826,0.263211,14.4844,-0.202114,0.557016,-0.697053,0
2024-12-11 19:36:36.077,-0.663111,0.263211,14.2567,-0.153246,0.598554,-0.6659,0
2024-12-11 19:36:36.079,-0.624826,0.277567,14.0007,-0.153246,0.598554,-0.6659,0
2024-12-11 19:36:36.083,-0.457328,0.337687,13.4883,-0.100713,0.608328,-0.634136,0
2024-12-11 19:36:36.085,-0.364008,0.35683,13.2227,-0.0695602,0.603441,-0.619475,0
2024-12-11 19:36:36.087,-0.294616,0.387936,12.9329,-0.0695602,0.603441,-0.619475,0
2024-12-11 19:36:36.090,-0.260818,0.390329,12.6434,-0.010308,0.55946,-0.596263,0
2024-12-11 19:36:36.090,-0.260818,0.390329,12.6434,-0.010308,0.55946,-0.596263,0
2024-12-11 19:36:36.095,-0.22014,0.378365,12.1071,0.0544418,0.486158,-0.571829,0
2024-12-11 19:36:36.095,-0.22014,0.378365,12.1071,0.0544418,0.486158,-0.571829,0
2024-12-11 19:36:36.098,-0.179462,0.378365,11.8268,0.122857,0.391477,-0.551671,0
2024-12-11 19:36:36.102,-0.0382852,0.385544,11.2451,0.158286,0.34322,-0.540676,0
2024-12-11 19:36:36.103,-0.0382852,0.385544,11.2451,0.19005,0.291909,-0.531513,0
2024-12-11 19:36:36.104,0.0430708,0.41665,10.9819,0.19005,0.291909,-0.531513,0
2024-12-11 19:36:36.107,0.117248,0.447757,10.7351,0.256632,0.192341,-0.513799,0
2024-12-11 19:36:36.111,0.215354,0.54347,10.2754,0.256632,0.192341,-0.513799,0
2024-12-11 19:36:36.113,0.289831,0.574577,10.0696,0.321382,0.0988809,-0.497306,0
2024-12-11 19:36:36.114,0.289831,0.574577,10.0696,0.321382,0.0988809,-0.497306,0
2024-12-11 19:36:36.118,0.414257,0.63679,9.64577,0.352535,0.0616192,-0.480202,0
2024-12-11 19:36:36.118,0.414257,0.63679,9.64577,0.352535,0.0616192,-0.480202,0
2024-12-11 19:36:36.121,0.447757,0.672682,9.45434,0.408122,-0.00313059,-0.470429,0
2024-12-11 19:36:36.123,0.483649,0.699003,9.27488,0.436832,-0.0269536,-0.460044,0
2024-12-11 19:36:36.126,0.521934,0.734896,9.08555,0.480202,-0.0666587,-0.440497,0
2024-12-11 19:36:36.127,0.548256,0.773181,8.9013,0.480202,-0.0666587,-0.440497,0
2024-12-11 19:36:36.130,0.572184,0.794716,8.72423,0.497917,-0.0800973,-0.431945,0
2024-12-11 19:36:36.132,0.588933,0.804287,8.53729,0.512577,-0.0941468,-0.421561,0
2024-12-11 19:36:36.134,0.596112,0.837787,8.35544,0.519297,-0.105142,-0.410566,0
2024-12-11 19:36:36.137,0.60329,0.893121,8.17358,0.522962,-0.115526,-0.401403,0
2024-12-11 19:36:36.139,0.615255,0.950549,7.98425,0.52174,-0.130798,-0.390408,0
2024-12-11 19:36:36.144,0.663111,1.05344,7.62772,0.50708,-0.14668,-0.371471,0
2024-12-11 19:36:36.144,0.663111,1.05344,7.62772,0.50708,-0.14668,-0.371471,0
2024-12-11 19:36:36.146,0.699003,1.09412,7.45992,0.488143,-0.155232,-0.362309,0
2024-12-11 19:36:36.150,0.710967,1.13719,7.31157,0.438665,-0.162562,-0.343373,0
2024-12-11 19:36:36.151,0.718146,1.17787,7.16561,0.438665,-0.162562,-0.343373,0
2024-12-11 19:36:36.156,0.74686,1.22812,6.92363,0.370861,-0.168059,-0.326269,0
2024-12-11 19:36:36.156,0.74686,1.22812,6.92363,0.370861,-0.168059,-0.326269,0
2024-12-11 19:36:36.159,0.74686,1.23529,6.84945,0.286564,-0.16867,-0.307943,0
2024-12-11 19:36:36.163,0.708575,1.25683,6.77049,0.241361,-0.162562,-0.296337,0
2024-12-11 19:36:36.164,0.708575,1.25683,6.77049,0.191882,-0.158286,-0.287175,0
2024-12-11 19:36:36.165,0.677468,1.26162,6.76331,0.191882,-0.158286,-0.287175,0
2024-12-11 19:36:36.167,0.629611,1.26879,6.77528,0.191882,-0.158286,-0.287175,0
2024-12-11 19:36:36.171,0.569791,1.28076,6.79921,0.0422248,-0.127743,-0.256632,0
2024-12-11 19:36:36.172,0.505185,1.29751,6.84467,0.0422248,-0.127743,-0.256632,0
2024-12-11 19:36:36.175,0.4334,1.31904,6.89492,-0.00542127,-0.110029,-0.245637,0
2024-12-11 19:36:36.177,0.361615,1.33819,6.94517,-0.050624,-0.0892601,-0.231587,0
2024-12-11 19:36:36.179,0.294616,1.37408,7.02443,-0.094605,-0.0648262,-0.218149,0
2024-12-11 19:36:36.182,0.232104,1.41745,7.11536,-0.136143,-0.0324513,-0.20471,0
2024-12-11 19:36:36.184,0.179462,1.45573,7.22303,-0.172793,-7.63559e-05,-0.194937,0
2024-12-11 19:36:36.186,0.143569,1.49402,7.33789,-0.207001,0.0359636,-0.185774,0
2024-12-11 19:36:36.189,0.114855,1.52991,7.4336,-0.238154,0.0768904,-0.179055,0
2024-12-11 19:36:36.191,0.0933201,1.55862,7.50299,-0.258923,0.110487,-0.171724,0
2024-12-11 19:36:36.194,0.0430708,1.58495,7.55803,-0.282746,0.144084,-0.166838,0
2024-12-11 19:36:36.196,-0.0239282,1.60648,7.61097,-0.304126,0.176459,-0.163783,0
2024-12-11 19:36:36.199,-0.0885344,1.62323,7.65404,-0.338333,0.238154,-0.157064,0
2024-12-11 19:36:36.201,-0.165105,1.64716,7.7019,-0.338333,0.238154,-0.157064,0
2024-12-11 19:36:36.203,-0.251246,1.67348,7.74736,-0.35055,0.267475,-0.155232,0
2024-12-11 19:36:36.205,-0.359223,1.6998,7.77847,-0.362156,0.296185,-0.152177,0
2024-12-11 19:36:36.211,-0.54347,1.71894,7.87418,-0.373151,0.359102,-0.147291,0
2024-12-11 19:36:36.211,-0.54347,1.71894,7.87418,-0.373151,0.359102,-0.147291,0
2024-12-11 19:36:36.213,-0.612862,1.74287,7.91725,-0.37193,0.370097,-0.144236,0
2024-12-11 19:36:36.215,-0.672682,1.75484,7.97468,-0.37193,0.370097,-0.144236,0
2024-12-11 19:36:36.217,-0.73011,1.77876,8.01775,-0.370097,0.378649,-0.143015,0
2024-12-11 19:36:36.219,-0.777966,1.80269,8.03211,-0.364599,0.389033,-0.141793,0
2024-12-11 19:36:36.222,-0.80668,1.83141,8.02014,-0.35788,0.397585,-0.142404,0
2024-12-11 19:36:36.226,-0.852443,1.91516,8.03689,-0.334668,0.40858,-0.146069,0
2024-12-11 19:36:36.229,-0.878764,1.95823,8.01057,-0.334668,0.40858,-0.14668,0
2024-12-11 19:36:36.231,-0.9003,2.00877,7.97468,-0.301682,0.423241,-0.149734,0
2024-12-11 19:36:36.234,-0.909871,2.04945,7.93879,-0.281524,0.424462,-0.151566,0
2024-12-11 19:36:36.237,-0.912264,2.09252,7.90289,-0.243041,0.418354,-0.160729,0
2024-12-11 19:36:36.238,-0.914656,2.13559,7.85265,-0.243041,0.418354,-0.160729,0
2024-12-11 19:36:36.239,-0.914656,2.13559,7.85265,-0.243041,0.418354,-0.160729,0
2024-12-11 19:36:36.240,-0.893121,2.17388,7.78565,-0.243041,0.418354,-0.160729,0
2024-12-11 19:36:36.245,-0.857229,2.28156,7.65404,-0.178902,0.37926,-0.185774,0
2024-12-11 19:36:36.245,-0.857229,2.28156,7.65404,-0.178902,0.37926,-0.185774,0
2024-12-11 19:36:36.248,-0.862014,2.34616,7.58465,-0.156301,0.361545,-0.195547,0
2024-12-11 19:36:36.250,-0.862014,2.40598,7.52692,-0.131256,0.341387,-0.205932,0
2024-12-11 19:36:36.252,-0.878764,2.43948,7.48385,-0.111098,0.318786,-0.216316,0
2024-12-11 19:36:36.255,-0.895514,2.48973,7.42882,-0.0872748,0.298017,-0.227922,0
2024-12-11 19:36:36.258,-0.921835,2.54985,7.38814,-0.0652843,0.274194,-0.24075,0
2024-12-11 19:36:36.259,-0.94337,2.59292,7.36182,-0.0408504,0.24976,-0.250524,0
2024-12-11 19:36:36.263,-0.96012,2.64796,7.33789,-0.0164165,0.228381,-0.260908,0
2024-12-11 19:36:36.264,-0.972084,2.7006,7.31157,0.00618483,0.207612,-0.271293,0
2024-12-11 19:36:36.266,-0.96012,2.75324,7.2685,0.029397,0.181956,-0.282899,0
2024-12-11 19:36:36.270,-0.952942,2.81545,7.20628,0.0715455,0.128202,-0.304889,0
2024-12-11 19:36:36.271,-0.950549,2.87049,7.12971,0.0715455,0.128202,-0.304889,0
2024-12-11 19:36:36.273,-0.948156,2.9016,7.05793,0.0904818,0.0970484,-0.315274,0
2024-12-11 19:36:36.277,-0.924228,2.94467,6.97149,0.122246,0.0341311,-0.336042,0
2024-12-11 19:36:36.278,-0.888335,2.98535,6.88056,0.122246,0.0341311,-0.336042,0
2024-12-11 19:36:36.282,-0.859622,3.00688,6.81356,0.136295,0.00236703,-0.345205,0
2024-12-11 19:36:36.285,-0.789931,3.01645,6.6676,0.151566,-0.0526092,-0.365363,0
2024-12-11 19:36:36.286,-0.789931,3.01645,6.6676,0.156453,-0.0782648,-0.375747,0
2024-12-11 19:36:36.288,-0.749253,3.01884,6.58385,0.156453,-0.0782648,-0.375747,0
2024-12-11 19:36:36.290,-0.720539,3.03559,6.5001,0.155842,-0.102088,-0.385521,0
2024-12-11 19:36:36.292,-0.710967,3.06431,6.42563,0.154621,-0.128965,-0.395295,0
2024-12-11 19:36:36.295,-0.689432,3.07867,6.3682,0.152177,-0.147901,-0.403846,0
2024-12-11 19:36:36.297,-0.651147,3.07388,6.31795,0.150345,-0.16867,-0.414231,0
2024-12-11 19:36:36.299,-0.612862,3.0667,6.29881,0.144847,-0.183331,-0.420339,0
2024-12-11 19:36:36.302,-0.591326,3.06431,6.30359,0.137517,-0.193715,-0.427059,0
2024-12-11 19:36:36.304,-0.56022,3.08345,6.31795,0.129576,-0.199213,-0.434389,0
2024-12-11 19:36:36.306,-0.531506,3.09332,6.33948,0.122246,-0.200434,-0.440497,0
2024-12-11 19:36:36.310,-0.521934,3.09571,6.35145,0.113083,-0.201045,-0.444773,0
2024-12-11 19:36:36.311,-0.517149,3.09571,6.3682,0.113083,-0.201045,-0.444773,0
2024-12-11 19:36:36.314,-0.50997,3.11007,6.41366,0.0959794,-0.188828,-0.447217,0
2024-12-11 19:36:36.316,-0.507577,3.134,6.48335,0.085595,-0.179055,-0.447827,0
2024-12-11 19:36:36.318,-0.505185,3.1675,6.55274,0.0758214,-0.166838,-0.445384,0
2024-12-11 19:36:36.321,-0.517149,3.19621,6.61017,0.0666587,-0.152177,-0.445995,0
2024-12-11 19:36:36.323,-0.519542,3.21775,6.68196,0.0581068,-0.136295,-0.444773,0
2024-12-11 19:36:36.325,-0.514756,3.2345,6.75853,0.0483333,-0.120413,-0.440497,0
2024-12-11 19:36:36.328,-0.50997,3.268,6.81835,0.0391706,-0.10331,-0.437443,0
2024-12-11 19:36:36.331,-0.498006,3.28714,6.87578,0.0202343,-0.0721563,-0.428891,0
2024-12-11 19:36:36.332,-0.483649,3.29671,6.92124,0.0202343,-0.0721563,-0.428891,0
2024-12-11 19:36:36.335,-0.469292,3.32543,6.96192,0.00984991,-0.0593285,-0.425226,0
2024-12-11 19:36:36.337,-0.45015,3.34457,7.01486,-0.00114534,-0.0483333,-0.422172,0
2024-12-11 19:36:36.339,-0.4334,3.33978,7.06511,-0.0151948,-0.0410031,-0.420339,0
2024-12-11 19:36:36.342,-0.431007,3.335,7.11775,-0.0286335,-0.033673,-0.414842,0
2024-12-11 19:36:36.344,-0.419043,3.34457,7.20389,-0.0396287,-0.0257319,-0.409955,0
2024-12-11 19:36:36.346,-0.409472,3.34218,7.29243,-0.0542891,-0.0232886,-0.407511,0
2024-12-11 19:36:36.349,-0.421436,3.335,7.38814,-0.0646735,-0.0202343,-0.403846,0
2024-12-11 19:36:36.351,-0.423829,3.32543,7.50299,-0.0775012,-0.0171801,-0.397738,0
2024-12-11 19:36:36.354,-0.431007,3.33021,7.60858,-0.0909399,-0.013515,-0.391629,0
2024-12-11 19:36:36.356,-0.447757,3.335,7.733,-0.104989,-0.0110716,-0.383078,0
2024-12-11 19:36:36.358,-0.457328,3.31825,7.87179,-0.114763,-0.00618483,-0.374526,0
2024-12-11 19:36:36.361,-0.4669,3.30389,8.02493,-0.122704,-0.00251974,-0.364752,0
2024-12-11 19:36:36.364,-0.474078,3.30628,8.19033,-0.133088,0.00786466,-0.343373,0
2024-12-11 19:36:36.366,-0.481256,3.3015,8.35065,-0.137975,0.00908635,-0.333599,0
2024-12-11 19:36:36.370,-0.45015,3.29432,8.69522,-0.137975,0.0176382,-0.322604,0
2024-12-11 19:36:36.371,-0.45015,3.29432,8.69522,-0.137975,0.0176382,-0.322604,0
2024-12-11 19:36:36.377,-0.366401,3.28235,9.20997,-0.136143,0.0390179,-0.300002,0
2024-12-11 19:36:36.379,-0.354437,3.28475,9.37777,-0.136143,0.0390179,-0.300002,0
2024-12-11 19:36:36.383,-0.354437,3.29432,9.53809,-0.0854423,0.0720036,-0.277401,0
2024-12-11 19:36:36.385,-0.349651,3.32543,9.69362,-0.0854423,0.0720036,-0.277401,0
2024-12-11 19:36:36.390,-0.34008,3.35653,9.95713,-0.0457372,0.0964375,-0.259076,0
2024-12-11 19:36:36.390,-0.34008,3.35653,9.95713,-0.0457372,0.0964375,-0.259076,0
2024-12-11 19:36:36.391,-0.347258,3.38046,10.0433,-0.0457372,0.0964375,-0.259076,0
2024-12-11 19:36:36.394,-0.352044,3.39721,10.1198,0.000687203,0.117817,-0.252356,0
2024-12-11 19:36:36.396,-0.344866,3.41635,10.1725,0.000687203,0.117817,-0.252356,0
2024-12-11 19:36:36.399,-0.325723,3.44985,10.2251,0.0532201,0.136143,-0.239528,0
2024-12-11 19:36:36.401,-0.32333,3.46421,10.2897,0.081319,0.141029,-0.234031,0
2024-12-11 19:36:36.403,-0.299402,3.49053,10.3304,0.108807,0.144694,-0.230366,0
2024-12-11 19:36:36.403,-0.299402,3.49053,10.3304,0.108807,0.144694,-0.230366,0
2024-12-11 19:36:36.406,-0.272782,3.51924,10.3424,0.137517,0.14897,-0.227312,0
2024-12-11 19:36:36.408,-0.272782,3.5671,10.3496,0.165005,0.152025,-0.224868,0
2024-12-11 19:36:36.410,-0.251246,3.6006,10.3496,0.189439,0.155079,-0.221814,0
2024-12-11 19:36:36.410,-0.251246,3.6006,10.3496,0.189439,0.155079,-0.221814,0
2024-12-11 19:36:36.412,-0.229711,3.61496,10.3161,0.21876,0.155079,-0.221203,0
2024-12-11 19:36:36.415,-0.229711,3.67508,10.2706,0.245637,0.155079,-0.221203,0
2024-12-11 19:36:36.419,-0.189033,3.78515,10.1821,0.292061,0.152025,-0.221814,0
2024-12-11 19:36:36.420,-0.189033,3.78515,10.1821,0.292061,0.152025,-0.221814,0
2024-12-11 19:36:36.422,-0.141177,3.85215,10.1198,0.312219,0.147749,-0.223036,0
2024-12-11 19:36:36.424,-0.0909273,3.92154,10.06,0.328101,0.139808,-0.226701,0
2024-12-11 19:36:36.428,-0.0382852,4.00768,9.99781,0.34154,0.130034,-0.23342,0
2024-12-11 19:36:36.429,-0.00717847,4.08425,9.92363,0.353757,0.120871,-0.24075,0
2024-12-11 19:36:36.431,0.0287139,4.14168,9.84467,0.36353,0.107433,-0.248691,0
2024-12-11 19:36:36.435,0.066999,4.18953,9.77259,0.375137,0.0848314,-0.26946,0
2024-12-11 19:36:36.436,0.0909273,4.24726,9.72712,0.375137,0.0848314,-0.26946,0
2024-12-11 19:36:36.441,0.112463,4.35972,9.6338,0.375137,0.0622301,-0.292061,0
2024-12-11 19:36:36.443,0.112463,4.40997,9.59552,0.367196,0.0524565,-0.3055,0
2024-12-11 19:36:36.445,0.11007,4.44826,9.58595,0.367196,0.0402396,-0.321382,0
2024-12-11 19:36:36.448,0.11007,4.47697,9.57877,0.351314,0.0243575,-0.336653,0
2024-12-11 19:36:36.448,0.11007,4.47697,9.57877,0.351314,0.0243575,-0.336653,0
2024-12-11 19:36:36.450,0.143569,4.51047,9.57398,0.351314,0.0243575,-0.336653,0
2024-12-11 19:36:36.452,0.208176,4.50808,9.58116,0.322604,-0.00251974,-0.371471,0
2024-12-11 19:36:36.455,0.227318,4.49611,9.6003,0.308554,-0.0147367,-0.391019,0
2024-12-11 19:36:36.457,0.162712,4.51286,9.61705,0.29084,-0.0269536,-0.411177,0
2024-12-11 19:36:36.461,0.107677,4.51047,9.64816,0.273736,-0.037338,-0.428891,0
2024-12-11 19:36:36.462,0.0646062,4.50568,9.71516,0.254189,-0.0483333,-0.447217,0
2024-12-11 19:36:36.465,-0.00239282,4.49611,9.78455,0.232809,-0.0593285,-0.465542,0
2024-12-11 19:36:36.467,-0.0598206,4.48415,9.86381,0.214484,-0.0697129,-0.481424,0
2024-12-11 19:36:36.469,-0.112463,4.46979,9.94995,0.192493,-0.0800973,-0.498528,0
2024-12-11 19:36:36.472,-0.155533,4.4674,10.0313,0.147901,-0.0996445,-0.524794,0
2024-12-11 19:36:36.474,-0.191426,4.46261,10.1103,0.147901,-0.0996445,-0.524794,0
2024-12-11 19:36:36.476,-0.256032,4.45783,10.2251,0.127133,-0.11064,-0.537011,0
2024-12-11 19:36:36.478,-0.34008,4.46022,10.3663,0.106364,-0.119192,-0.549228,0
2024-12-11 19:36:36.481,-0.383151,4.4674,10.503,0.0862058,-0.130798,-0.559002,0
2024-12-11 19:36:36.485,-0.373579,4.47697,10.8236,0.0471116,-0.154621,-0.576716,0
2024-12-11 19:36:36.485,-0.373579,4.47697,10.8236,0.0471116,-0.154621,-0.576716,0
2024-12-11 19:36:36.489,-0.344866,4.44826,11.013,0.0202343,-0.176,-0.591376,0
2024-12-11 19:36:36.494,-0.285045,4.40519,11.3791,0.0129041,-0.185163,-0.596263,0
2024-12-11 19:36:36.494,-0.229711,4.35972,11.3791,0.0129041,-0.185163,-0.596263,0
2024-12-11 19:36:36.497,-0.162712,4.31187,11.5421,0.00313059,-0.201656,-0.605426,0
2024-12-11 19:36:36.497,-0.0765703,4.24965,11.7239,0.00313059,-0.201656,-0.605426,0
2024-12-11 19:36:36.500,0.00478565,4.16561,11.8986,0.00374144,-0.205932,-0.612145,0
2024-12-11 19:36:36.502,0.0789631,4.09143,12.047,0.0110716,-0.20471,-0.6152,0
2024-12-11 19:36:36.504,0.155533,4.03161,12.1837,0.0147367,-0.203488,-0.617643,0
2024-12-11 19:36:36.507,0.217747,3.95264,12.3153,0.0232886,-0.196158,-0.617643,0
2024-12-11 19:36:36.509,0.297009,3.87129,12.4397,0.0385597,-0.184552,-0.61581,0
2024-12-11 19:36:36.511,0.397508,3.80907,12.5617,0.0513875,-0.172946,-0.613978,0
2024-12-11 19:36:36.515,0.488435,3.77079,12.696,0.0868167,-0.135074,-0.607259,0
2024-12-11 19:36:36.516,0.572184,3.75404,12.8276,0.0868167,-0.135074,-0.607259,0
2024-12-11 19:36:36.519,0.667897,3.75883,12.9257,0.105142,-0.111861,-0.599928,0
2024-12-11 19:36:36.522,0.780359,3.82582,12.9808,0.151566,-0.0397814,-0.588322,0
2024-12-11 19:36:36.523,0.909871,3.92632,12.9975,0.151566,-0.0397814,-0.588322,0
2024-12-11 19:36:36.525,1.05344,4.06032,12.9688,0.180276,0.00847551,-0.580381,0
2024-12-11 19:36:36.528,1.18265,4.22094,12.8587,0.207764,0.0646735,-0.576716,0
2024-12-11 19:36:36.530,1.28315,4.39322,12.6697,0.234031,0.122704,-0.571829,0
2024-12-11 19:36:36.533,1.34058,4.58226,12.4062,0.260908,0.180734,-0.574273,0
2024-12-11 19:36:36.536,1.35494,4.733,12.0999,0.3055,0.267475,-0.584657,0
2024-12-11 19:36:36.537,1.37408,4.82902,11.7933,0.3055,0.267475,-0.584657,0
2024-12-11 19:36:36.541,1.44377,4.87209,11.511,0.319549,0.283968,-0.599317,0
2024-12-11 19:36:36.542,1.6017,4.85055,11.269,0.32688,0.277859,-0.62253,0
2024-12-11 19:36:36.544,1.81466,4.7665,11.08,0.325658,0.249149,-0.654905,0
2024-12-11 19:36:36.547,2.00638,4.64447,10.9217,0.31283,0.192341,-0.69461,0
2024-12-11 19:36:36.549,2.11645,4.51047,10.7758,0.291451,0.108044,-0.746532,0
2024-12-11 19:36:36.552,2.14756,4.34776,10.6896,0.259076,0.00664296,-0.802119,0
2024-12-11 19:36:36.554,2.14277,4.12253,10.7399,0.259076,0.00664296,-0.802119,0
2024-12-11 19:36:36.556,2.05185,3.85932,10.946,0.155232,-0.246248,-0.926121,0
2024-12-11 19:36:36.558,1.86969,3.59103,11.2762,0.0904818,-0.386743,-0.992703,0
2024-12-11 19:36:36.561,1.61605,3.31585,11.6809,0.0190126,-0.526016,-1.05073,0
2024-12-11 19:36:36.563,1.31665,3.08345,12.119,-0.0591758,-0.662235,-1.10327,0
2024-12-11 19:36:36.567,1.03908,2.88963,12.612,-0.218607,-0.91818,-1.19673,0
2024-12-11 19:36:36.568,0.845265,2.70539,13.2897,-0.218607,-0.91818,-1.19673,0
2024-12-11 19:36:36.575,0.395115,2.07817,15.358,-0.384757,-1.1839,-1.31095,0
2024-12-11 19:36:36.575,0.395115,2.07817,15.358,-0.384757,-1.1839,-1.31095,0
2024-12-11 19:36:36.577,0.35683,1.85055,15.9927,-0.384757,-1.1839,-1.33844,0
2024-12-11 19:36:36.580,0.41665,1.61845,16.6367,-0.470887,-1.33172,-1.36349,0
2024-12-11 19:36:36.582,0.41665,1.61845,17.2759,-0.470887,-1.33172,-1.36349,0
2024-12-11 19:36:36.584,0.76361,1.19701,17.8744,-0.50937,-1.37998,-1.40869,0
2024-12-11 19:36:36.585,0.76361,1.19701,17.8744,-0.50937,-1.37998,-1.40869,0
2024-12-11 19:36:36.589,1.39322,0.921835,18.7959,-0.505094,-1.30729,-1.45267,0
2024-12-11 19:36:36.590,1.39322,0.921835,18.7959,-0.505094,-1.30729,-1.45267,0
2024-12-11 19:36:36.592,1.81226,0.804287,19.1982,-0.505094,-1.30729,-1.45267,0
2024-12-11 19:36:36.594,2.22174,0.643968,19.5742,-0.440955,-1.1448,-1.5162,0
2024-12-11 19:36:36.599,2.87288,0.251246,20.0674,-0.325505,-0.948722,-1.58584,0
2024-12-11 19:36:36.600,2.57378,0.251246,20.0674,-0.24976,-0.837548,-1.62188,0
2024-12-11 19:36:36.602,3.11725,0.0191426,20.1512,-0.24976,-0.837548,-1.62188,0
2024-12-11 19:36:36.604,3.35892,-0.212961,20.12,-0.0762796,-0.607259,-1.68846,1
2024-12-11 19:36:36.607,3.58385,-0.419043,19.9789,0.0263428,-0.491198,-1.72022,0
2024-12-11 19:36:36.608,3.72533,-0.608076,19.7824,0.0263428,-0.491198,-1.72022,0
2024-12-11 19:36:36.611,3.78993,-0.768395,19.4761,0.129576,-0.37758,-1.74893,0
2024-12-11 19:36:36.616,3.71815,-0.981655,18.6547,0.453325,-0.0440574,-1.8088,0
2024-12-11 19:36:36.617,3.58385,-1.05583,18.1855,0.453325,-0.0440574,-1.8088,0
2024-12-11 19:36:36.617,3.58385,-1.05583,18.1855,0.453325,-0.0440574,-1.8088,0
2024-12-11 19:36:36.622,3.402,-1.08455,17.1634,0.659791,0.144694,-1.81674,0
2024-12-11 19:36:36.625,2.90399,-1.02712,16.6463,0.754473,0.218607,-1.80941,0
2024-12-11 19:36:36.625,2.90399,-1.02712,16.6463,0.754473,0.218607,-1.80941,0
2024-12-11 19:36:36.628,2.63599,-0.945763,16.0645,0.929786,0.332835,-1.77825,0
2024-12-11 19:36:36.629,2.39163,-0.8668,15.4493,0.929786,0.332835,-1.77825,0
2024-12-11 19:36:36.634,1.95823,-0.715753,14.2424,1.00614,0.371319,-1.75504,0
2024-12-11 19:36:36.636,1.80987,-0.629611,13.6678,1.1277,0.4153,-1.70434,0
2024-12-11 19:36:36.637,1.80987,-0.629611,13.6678,1.1277,0.4153,-1.70434,0
2024-12-11 19:36:36.639,1.70937,-0.555434,13.1195,1.18023,0.42263,-1.68052,0
2024-12-11 19:36:36.641,1.6663,-0.478864,12.6048,1.22238,0.420187,-1.65975,0
2024-12-11 19:36:36.647,1.71894,-0.3999,11.767,1.31401,0.354215,-1.63043,0
2024-12-11 19:36:36.648,1.71894,-0.3999,11.767,1.31401,0.354215,-1.63043,0
2024-12-11 19:36:36.649,1.76441,-0.354437,11.4269,1.32989,0.31451,-1.63348,0
2024-12-11 19:36:36.651,1.76201,-0.287438,11.0919,1.33905,0.273583,-1.63959,0
2024-12-11 19:36:36.654,1.73091,-0.234497,10.7758,1.34089,0.22777,-1.65242,0
2024-12-11 19:36:36.655,1.70459,-0.191426,10.4934,1.34089,0.22777,-1.65242,0
2024-12-11 19:36:36.657,1.65673,-0.138784,10.2467,1.34028,0.175237,-1.67013,0
2024-12-11 19:36:36.660,1.56102,-0.0837488,10.0146,1.34028,0.175237,-1.67013,0
2024-12-11 19:36:36.664,1.4342,0.00239282,9.59791,1.29813,-0.00557398,-1.74038,0
2024-12-11 19:36:36.664,1.27597,0.00239282,9.59791,1.29813,-0.00557398,-1.74038,0
2024-12-11 19:36:36.672,0.852443,0.0646062,9.2028,1.21261,-0.205321,-1.80635,0
2024-12-11 19:36:36.672,0.65354,0.0646062,9.2028,1.21261,-0.205321,-1.80635,0
2024-12-11 19:36:36.675,0.4669,0.0693919,9.12623,1.17351,-0.273736,-1.82529,0
2024-12-11 19:36:36.676,0.304188,0.0622134,9.07119,1.17351,-0.273736,-1.82529,0
2024-12-11 19:36:36.679,0.191426,0.0287139,9.04248,1.09471,-0.412398,-1.86011,0
2024-12-11 19:36:36.681,0.12682,-0.0167498,9.03051,1.09471,-0.412398,-1.86011,0
2024-12-11 19:36:36.683,0.0981057,-0.066999,9.03051,1.00736,-0.551061,-1.88882,0
2024-12-11 19:36:36.686,0.114855,-0.141177,9.05683,1.00736,-0.551061,-1.88882,0
2024-12-11 19:36:36.688,0.114855,-0.232104,9.10948,0.91146,-0.685447,-1.91814,0
2024-12-11 19:36:36.689,0.18664,-0.232104,9.10948,0.91146,-0.685447,-1.91814,0
2024-12-11 19:36:36.690,0.308973,-0.301795,9.1693,0.867479,-0.750808,-1.93646,0
2024-12-11 19:36:36.694,0.452543,-0.364008,9.22672,0.825331,-0.812503,-1.96036,0
2024-12-11 19:36:36.695,0.572184,-0.445364,9.28924,0.779517,-0.871755,-1.98602,0
2024-12-11 19:36:36.698,0.684646,-0.529113,9.35624,0.739202,-0.924288,-2.01289,0
2024-12-11 19:36:36.700,0.809073,-0.60329,9.39931,0.702551,-0.976821,-2.04099,0
2024-12-11 19:36:36.703,0.905085,-0.660718,9.42323,0.666511,-1.02752,-2.07154,0
2024-12-11 19:36:36.704,0.986441,-0.691825,9.45913,0.62986,-1.07211,-2.10147,0
2024-12-11 19:36:36.707,1.05823,-0.715753,9.48545,0.599317,-1.1106,-2.12957,0
2024-12-11 19:36:36.710,1.11565,-0.718146,9.49263,0.540676,-1.18084,-2.18271,0
2024-12-11 19:36:36.714,1.21854,-0.641576,9.47588,0.540676,-1.18084,-2.18271,0
2024-12-11 19:36:36.716,1.27837,-0.584148,9.49502,0.489365,-1.24987,-2.23524,0
2024-12-11 19:36:36.720,1.34536,-0.533899,9.53091,0.44966,-1.31767,-2.29022,0
2024-12-11 19:36:36.722,1.40548,-0.478864,9.54527,0.436832,-1.34944,-2.31832,0
2024-12-11 19:36:36.722,1.40548,-0.478864,9.54527,0.436832,-1.34944,-2.31832,0
2024-12-11 19:36:36.724,1.4653,-0.407079,9.55005,0.436832,-1.34944,-2.31832,0
2024-12-11 19:36:36.726,1.50838,-0.34008,9.54048,0.425226,-1.37632,-2.34764,0
2024-12-11 19:36:36.729,1.54905,-0.263211,9.52373,0.408122,-1.4203,-2.40811,0
2024-12-11 19:36:36.730,1.61366,-0.181855,9.51655,0.408122,-1.4203,-2.40811,0
2024-12-11 19:36:36.733,1.6663,-0.119641,9.50698,0.407511,-1.43618,-2.43988,0
2024-12-11 19:36:36.736,1.69023,-0.0646062,9.48066,0.408733,-1.44656,-2.47225,0
2024-12-11 19:36:36.737,1.70219,0.00239282,9.45434,0.411787,-1.4545,-2.50768,0
2024-12-11 19:36:36.740,1.69262,0.0622134,9.40648,0.419728,-1.45939,-2.54311,0
2024-12-11 19:36:36.743,1.64477,0.119641,9.34427,0.425226,-1.46306,-2.57854,0
2024-12-11 19:36:36.747,1.56341,0.239282,9.22912,0.435,-1.46489,-2.61397,0
2024-12-11 19:36:36.749,1.35494,0.277567,9.14297,0.452714,-1.46855,-2.68605,0
2024-12-11 19:36:36.752,1.23529,0.301795,9.04487,0.452714,-1.46855,-2.68605,0
2024-12-11 19:36:36.755,1.10608,0.318545,8.95155,0.464931,-1.47649,-2.74774,0
2024-12-11 19:36:36.755,1.10608,0.318545,8.95155,0.464931,-1.47649,-2.74774,0
2024-12-11 19:36:36.756,0.986441,0.332901,8.86302,0.470429,-1.48321,-2.77768,0
2024-12-11 19:36:36.759,0.873978,0.344866,8.77687,0.469818,-1.48993,-2.80455,0
2024-12-11 19:36:36.761,0.749253,0.354437,8.70987,0.469207,-1.4991,-2.83143,0
2024-12-11 19:36:36.763,0.634397,0.349651,8.6689,0.46432,-1.50826,-2.85586,0
2024-12-11 19:36:36.766,0.531506,0.352044,8.63301,0.461266,-1.52292,-2.87969,0
2024-12-11 19:36:36.768,0.4334,0.352044,8.59711,0.453936,-1.53941,-2.90168,0
2024-12-11 19:36:36.771,0.34008,0.325723,8.5684,0.44233,-1.55468,-2.91878,0
2024-12-11 19:36:36.773,0.253639,0.287438,8.56122,0.433167,-1.57118,-2.93711,0
2024-12-11 19:36:36.775,0.165105,0.265603,8.58515,0.420339,-1.58828,-2.95238,0
2024-12-11 19:36:36.778,0.102891,0.232104,8.62343,0.405679,-1.60844,-2.96093,0
2024-12-11 19:36:36.780,0.0622134,0.198604,8.67847,0.389186,-1.62921,-2.97437,0
2024-12-11 19:36:36.782,0.0167498,0.179462,8.76252,0.371471,-1.65242,-2.9817,0
2024-12-11 19:36:36.785,-0.0167498,0.148355,8.84148,0.3562,-1.6738,-2.98842,0
2024-12-11 19:36:36.789,-0.0382852,0.105284,9.02094,0.324436,-1.72267,-2.99758,0
2024-12-11 19:36:36.790,-0.0478565,0.105284,9.02094,0.324436,-1.72267,-2.99758,0
2024-12-11 19:36:36.792,-0.0382852,0.0717847,9.18365,0.309165,-1.74038,-3.00063,0
2024-12-11 19:36:36.796,0.040678,-0.00239282,9.67687,0.299392,-1.75138,-3.00552,0
2024-12-11 19:36:36.797,-0.0167498,-0.00239282,9.67687,0.299392,-1.75138,-3.00552,0
2024-12-11 19:36:36.799,0.105284,-0.0334995,9.91167,0.3055,-1.74832,-3.00796,0
2024-12-11 19:36:36.801,0.153141,-0.0717847,10.127,0.311608,-1.75138,-3.00858,0
2024-12-11 19:36:36.806,0.224925,-0.0885344,10.4025,0.335431,-1.76298,-3.0098,0
2024-12-11 19:36:36.806,0.224925,-0.0885344,10.4025,0.335431,-1.76298,-3.0098,0
2024-12-11 19:36:36.808,0.22014,-0.0837488,10.4815,0.349481,-1.76726,-3.00796,0
2024-12-11 19:36:36.810,0.172283,-0.0646062,10.5054,0.365974,-1.76848,-3.00125,0
2024-12-11 19:36:36.814,0.117248,-0.0430708,10.4886,0.398349,-1.76237,-2.98109,0
2024-12-11 19:36:36.818,0.0957129,-0.0693919,10.4695,0.419728,-1.75993,-2.96521,0
2024-12-11 19:36:36.818,0.081356,-0.0693919,10.4695,0.419728,-1.75993,-2.96521,0
2024-12-11 19:36:36.820,0.066999,-0.0717847,10.436,0.436221,-1.76176,-2.9481,0
2024-12-11 19:36:36.822,0.0717847,-0.0789631,10.3857,0.456379,-1.76848,-2.92794,0
2024-12-11 19:36:36.826,0.114855,-0.107677,10.3591,0.495473,-1.78192,-2.88641,0
2024-12-11 19:36:36.827,0.193819,-0.150748,10.3424,0.495473,-1.78192,-2.88641,0
2024-12-11 19:36:36.830,0.289831,-0.18664,10.3208,0.515021,-1.79047,-2.86625,0
2024-12-11 19:36:36.833,0.373579,-0.232104,10.2873,0.554726,-1.80941,-2.82776,0
2024-12-11 19:36:36.834,0.45015,-0.297009,10.2323,0.554726,-1.80941,-2.82776,0
2024-12-11 19:36:36.837,0.524327,-0.344866,10.1964,0.576716,-1.81857,-2.80883,0
2024-12-11 19:36:36.839,0.598505,-0.378365,10.1581,0.598096,-1.8259,-2.78745,0
2024-12-11 19:36:36.842,0.660718,-0.404686,10.1127,0.642688,-1.82895,-2.74897,0
2024-12-11 19:36:36.843,0.687039,-0.423829,10.0672,0.642688,-1.82895,-2.74897,0
2024-12-11 19:36:36.847,0.694218,-0.440578,10.0122,0.685447,-1.81307,-2.70926,0
2024-12-11 19:36:36.849,0.71336,-0.457328,9.95235,0.708048,-1.79902,-2.68849,0
2024-12-11 19:36:36.851,0.76361,-0.495613,9.90928,0.708048,-1.79902,-2.68849,0
2024-12-11 19:36:36.853,0.789931,-0.538684,9.8686,0.727595,-1.78131,-2.6665,0
2024-12-11 19:36:36.855,0.749253,-0.576969,9.8013,0.746532,-1.75932,-2.64634,0
2024-12-11 19:36:36.860,0.696611,-0.622433,9.73191,0.765468,-1.7361,-2.62435,0
2024-12-11 19:36:36.861,0.658325,-0.648754,9.68166,0.78135,-1.71472,-2.57976,0
2024-12-11 19:36:36.865,0.632004,-0.679861,9.51655,0.808838,-1.66402,-2.55838,0
2024-12-11 19:36:36.865,0.632004,-0.679861,9.51655,0.808838,-1.66402,-2.55838,0
2024-12-11 19:36:36.868,0.651147,-0.699003,9.45195,0.827774,-1.61577,-2.51562,0
2024-12-11 19:36:36.869,0.651147,-0.701396,9.38734,0.827774,-1.61577,-2.51562,0
2024-12-11 19:36:36.872,0.643968,-0.694218,9.30359,0.835715,-1.5895,-2.4973,0
2024-12-11 19:36:36.875,0.627219,-0.677468,9.22912,0.836937,-1.52475,-2.46431,0
2024-12-11 19:36:36.877,0.608076,-0.665504,9.2028,0.836937,-1.52475,-2.46431,0
2024-12-11 19:36:36.879,0.593719,-0.651147,9.2028,0.836937,-1.48627,-2.44599,0
2024-12-11 19:36:36.882,0.593719,-0.62004,9.18844,0.832661,-1.45023,-2.43132,0
2024-12-11 19:36:36.883,0.60329,-0.581755,9.17408,0.825942,-1.41113,-2.41728,0
2024-12-11 19:36:36.887,0.608076,-0.533899,9.1693,0.814947,-1.36715,-2.402,0
2024-12-11 19:36:36.888,0.617647,-0.490828,9.15494,0.802119,-1.32867,-2.38857,0
2024-12-11 19:36:36.893,0.667897,-0.411865,9.11187,0.764857,-1.25842,-2.36474,0
2024-12-11 19:36:36.895,0.725324,-0.380758,9.08794,0.745921,-1.22177,-2.35497,0
2024-12-11 19:36:36.898,0.789931,-0.344866,9.08315,0.745921,-1.22177,-2.35497,0
2024-12-11 19:36:36.901,0.864407,-0.308973,9.09751,0.670176,-1.09716,-2.32931,0
2024-12-11 19:36:36.901,0.864407,-0.308973,9.09751,0.670176,-1.09716,-2.32931,0
2024-12-11 19:36:36.902,0.94337,-0.277567,9.10708,0.670176,-1.09716,-2.32931,0
2024-12-11 19:36:36.905,1.02712,-0.232104,9.12144,0.643909,-1.04768,-2.32382,0
2024-12-11 19:36:36.907,1.0989,-0.184247,9.10708,0.619475,-1.00003,-2.31954,0
2024-12-11 19:36:36.909,1.15872,-0.129212,9.04726,0.590766,-0.950555,-2.31282,0
2024-12-11 19:36:36.912,1.2018,-0.0574277,8.97548,0.561445,-0.899244,-2.30793,0
2024-12-11 19:36:36.914,1.21376,0.0119641,8.89412,0.530903,-0.850987,-2.30183,0
2024-12-11 19:36:36.920,1.18744,0.200997,8.64258,0.430724,-0.706827,-2.2835,0
2024-12-11 19:36:36.922,1.1659,0.292223,8.50619,0.394684,-0.661624,-2.27495,0
2024-12-11 19:36:36.922,1.1659,0.292223,8.50619,0.394684,-0.661624,-2.27495,0
2024-12-11 19:36:36.926,1.15633,0.478864,8.24298,0.362309,-0.614589,-2.26823,0
2024-12-11 19:36:36.926,1.12283,0.478864,8.24298,0.362309,-0.614589,-2.26823,0
2024-12-11 19:36:36.928,1.07737,0.567398,8.11107,0.32688,-0.569997,-2.25784,0
2024-12-11 19:36:36.932,1.03908,0.651147,7.97707,0.265795,-0.487532,-2.23585,0
2024-12-11 19:36:36.933,1.00798,0.725324,7.85743,0.265795,-0.487532,-2.23585,0
2024-12-11 19:36:36.935,0.957727,0.801895,7.75933,0.23342,-0.452103,-2.22425,0
2024-12-11 19:36:36.938,0.890728,0.871586,7.65883,0.202878,-0.424615,-2.20898,0
2024-12-11 19:36:36.940,0.833001,0.936192,7.56521,0.176,-0.39957,-2.19615,0
2024-12-11 19:36:36.942,0.766002,0.991227,7.47667,0.155232,-0.371471,-2.18271,0
2024-12-11 19:36:36.945,0.663111,1.04387,7.40967,0.13263,-0.353757,-2.16438,0
2024-12-11 19:36:36.948,0.555434,1.10848,7.37617,0.111251,-0.333599,-2.14911,0
2024-12-11 19:36:36.952,0.335294,1.17547,7.29482,0.0837624,-0.307333,-2.11246,0
2024-12-11 19:36:36.952,0.335294,1.17547,7.29482,0.0837624,-0.307333,-2.11246,0
2024-12-11 19:36:36.955,0.217747,1.22094,7.23021,0.0617719,-0.295726,-2.07276,0
2024-12-11 19:36:36.958,0.112463,1.2664,7.18953,0.0526092,-0.295116,-2.05077,0
2024-12-11 19:36:36.959,0.00717847,1.31186,7.14886,0.0526092,-0.295116,-2.05077,0
2024-12-11 19:36:36.961,-0.102891,1.35015,7.13929,0.0507767,-0.297559,-2.03183,0
2024-12-11 19:36:36.964,-0.20339,1.39083,7.15843,0.0465007,-0.307943,-2.01167,0
2024-12-11 19:36:36.966,-0.294616,1.44138,7.15604,0.0422248,-0.320771,-1.99151,0
2024-12-11 19:36:36.968,-0.373579,1.49402,7.16082,0.0403923,-0.339097,-1.97014,0
2024-12-11 19:36:36.971,-0.45015,1.54188,7.16082,0.0391706,-0.357422,-1.95486,0
2024-12-11 19:36:36.973,-0.521934,1.58255,7.16321,0.0391706,-0.381245,-1.93776,0
2024-12-11 19:36:36.975,-0.574577,1.62802,7.17757,0.0379489,-0.402014,-1.92486,0
2024-12-11 19:36:36.978,-0.617647,1.68066,7.19671,0.0342838,-0.426448,-1.91447,0
2024-12-11 19:36:36.980,-0.663111,1.74048,7.22303,0.033673,-0.44966,-1.90287,0
2024-12-11 19:36:36.982,-0.720539,1.77637,7.23261,0.0330621,-0.47165,-1.8937,0
2024-12-11 19:36:36.985,-0.782752,1.81466,7.2685,0.0324513,-0.494252,-1.88576,0
2024-12-11 19:36:36.987,-0.833001,1.86251,7.3355,0.0287862,-0.518075,-1.88149,0
2024-12-11 19:36:36.990,-0.869193,1.91516,7.38096,0.0281753,-0.541287,-1.87904,0
2024-12-11 19:36:36.993,-0.914656,1.98006,7.40489,0.0196235,-0.585879,-1.8711,0
2024-12-11 19:36:36.994,-0.972084,2.0351,7.42164,0.0196235,-0.585879,-1.8711,0
2024-12-11 19:36:36.997,-1.02233,2.09013,7.44796,0.0171801,-0.604204,-1.86805,0
2024-12-11 19:36:36.999,-1.07258,2.14756,7.47907,0.0110716,-0.623141,-1.86866,0
2024-12-11 19:36:37.001,-1.11805,2.17388,7.49342,0.00557398,-0.634747,-1.86621,0
2024-12-11 19:36:37.006,-1.21137,2.25045,7.52932,-0.00358873,-0.642688,-1.86438,0
2024-12-11 19:36:37.008,-1.25922,2.27438,7.56521,-0.0182491,-0.648796,-1.86621,0
2024-12-11 19:36:37.011,-1.28794,2.29352,7.58465,-0.0298552,-0.654294,-1.86683,0
2024-12-11 19:36:37.012,-1.28794,2.29352,7.58465,-0.0408504,-0.664067,-1.86927,0
2024-12-11 19:36:37.013,-1.32383,2.30548,7.59183,-0.0408504,-0.664067,-1.86927,0
2024-12-11 19:36:37.015,-1.35972,2.32941,7.60618,-0.0524565,-0.675063,-1.86988,0
2024-12-11 19:36:37.018,-1.41745,2.34377,7.61097,-0.0671168,-0.68789,-1.87599,0
2024-12-11 19:36:37.020,-1.47248,2.34616,7.62293,-0.0829989,-0.704994,-1.8821,0
2024-12-11 19:36:37.023,-1.51316,2.35095,7.65643,-0.0982701,-0.72393,-1.88515,0
2024-12-11 19:36:37.025,-1.56341,2.3677,7.69711,-0.114763,-0.741645,-1.89431,0
2024-12-11 19:36:37.027,-1.6017,2.40838,7.74975,-0.132477,-0.75997,-1.90103,0
2024-12-11 19:36:37.031,-1.64477,2.44427,7.81436,-0.151414,-0.776463,-1.90836,0
2024-12-11 19:36:37.032,-1.70698,2.47059,7.90529,-0.169128,-0.789902,-1.91753,0
2024-12-11 19:36:37.034,-1.76919,2.4993,8.01536,-0.183789,-0.803951,-1.92669,0
2024-12-11 19:36:37.037,-1.83141,2.5331,8.1015,-0.19906,-0.811282,-1.93776,0
2024-12-11 19:36:37.040,-1.88166,2.58096,8.15683,-0.218607,-0.820444,-1.94631,0
2024-12-11 19:36:37.045,-1.9681,2.65035,8.25733,-0.271751,-0.854652,-1.97319,0
2024-12-11 19:36:37.046,-2.02313,2.68864,8.32912,-0.271751,-0.854652,-1.97319,0
2024-12-11 19:36:37.046,-2.02313,2.68864,8.32912,-0.271751,-0.854652,-1.97319,0
2024-12-11 19:36:37.048,-2.07099,2.71017,8.39612,-0.288244,-0.86809,-1.98174,0
2024-12-11 19:36:37.051,-2.10927,2.71974,8.44636,-0.305347,-0.88947,-1.98968,0
2024-12-11 19:36:37.053,-2.13799,2.74128,8.49661,-0.323673,-0.915126,-1.99701,0
2024-12-11 19:36:37.055,-2.18345,2.75803,8.56601,-0.342609,-0.937727,-2.00618,0
2024-12-11 19:36:37.058,-2.21216,2.76042,8.64258,-0.362156,-0.970102,-2.01412,0
2024-12-11 19:36:37.064,-2.21695,2.77238,8.83191,-0.416521,-1.05562,-2.02878,0
2024-12-11 19:36:37.065,-2.21934,2.77717,8.97069,-0.416521,-1.05562,-2.02878,0
2024-12-11 19:36:37.068,-2.23131,2.80349,9.12144,-0.450118,-1.09594,-2.03244,0
2024-12-11 19:36:37.071,-2.24806,2.83938,9.26531,-0.450118,-1.09594,-2.03244,0
2024-12-11 19:36:37.071,-2.24806,2.83938,9.26531,-0.450118,-1.09594,-2.03244,0
2024-12-11 19:36:37.075,-2.24088,2.9351,9.55963,-0.481271,-1.12098,-2.02572,0
2024-12-11 19:36:37.075,-2.24088,2.9351,9.55963,-0.481271,-1.12098,-2.02572,0
2024-12-11 19:36:37.077,-2.24806,3.00688,9.71037,-0.494099,-1.12831,-2.02206,0
2024-12-11 19:36:37.080,-2.27916,3.07388,9.84228,-0.503262,-1.13381,-2.01595,0
2024-12-11 19:36:37.085,-2.32223,3.201,10.0959,-0.526474,-1.12892,-1.9793,0
2024-12-11 19:36:37.086,-2.3342,3.24646,10.2323,-0.526474,-1.12892,-1.9793,0
2024-12-11 19:36:37.087,-2.32223,3.201,10.2323,-0.528917,-1.12281,-1.96342,0
2024-12-11 19:36:37.088,-2.36291,3.28475,10.3591,-0.528917,-1.12281,-1.96342,0
2024-12-11 19:36:37.091,-2.39641,3.32543,10.4958,-0.530139,-1.11365,-1.9457,0
2024-12-11 19:36:37.093,-2.41795,3.36371,10.6226,-0.531361,-1.09716,-1.92791,0
2024-12-11 19:36:37.096,-2.4012,3.3996,10.759,-0.529528,-1.07822,-1.90897,0
2024-12-11 19:36:37.098,-2.39163,3.41875,10.893,-0.524641,-1.05806,-1.88637,0
2024-12-11 19:36:37.101,-2.38445,3.45224,11.0082,-0.518533,-1.02813,-1.86499,0
2024-12-11 19:36:37.103,-2.37488,3.48335,11.1039,-0.50937,-0.993314,-1.84239,0
2024-12-11 19:36:37.106,-2.37248,3.51207,11.1733,-0.484936,-0.918791,-1.79475,0
2024-12-11 19:36:37.107,-2.36052,3.5671,11.2379,-0.484936,-0.918791,-1.79475,0
2024-12-11 19:36:37.111,-2.34616,3.60778,11.3001,-0.474552,-0.87481,-1.77092,0
2024-12-11 19:36:37.112,-2.33898,3.63171,11.336,-0.459281,-0.830829,-1.7471,0
2024-12-11 19:36:37.115,-2.33659,3.67508,11.3599,-0.442177,-0.785015,-1.72022,0
2024-12-11 19:36:37.117,-2.34138,3.72054,11.3839,-0.423852,-0.736758,-1.69396,0
2024-12-11 19:36:37.119,-2.34856,3.76122,11.3599,-0.40797,-0.689112,-1.66708,0
2024-12-11 19:36:37.125,-2.34138,3.85693,11.3025,-0.35788,-0.562667,-1.584,0
2024-12-11 19:36:37.128,-2.30309,3.95264,11.2211,-0.342609,-0.532735,-1.55957,0
2024-12-11 19:36:37.129,-2.32702,3.90718,11.2211,-0.342609,-0.532735,-1.55957,0
2024-12-11 19:36:37.131,-2.27677,4.01246,11.1709,-0.327949,-0.506469,-1.53452,0
2024-12-11 19:36:37.133,-2.26241,4.05314,11.1183,-0.327949,-0.506469,-1.53452,0
2024-12-11 19:36:37.136,-2.23609,4.07468,11.0513,-0.298628,-0.464931,-1.48871,0
2024-12-11 19:36:37.138,-2.22174,4.10339,10.9819,-0.298628,-0.464931,-1.48871,0
2024-12-11 19:36:37.138,-2.22174,4.10339,10.9819,-0.298628,-0.464931,-1.48871,0
2024-12-11 19:36:37.140,-2.25524,4.12732,10.9193,-0.269307,-0.451492,-1.4484,0
2024-12-11 19:36:37.145,-2.28634,4.16321,10.8045,-0.250371,-0.463099,-1.41174,0
2024-12-11 19:36:37.145,-2.31506,4.16321,10.8045,-0.250371,-0.463099,-1.41174,0
2024-12-11 19:36:37.147,-2.34856,4.17278,10.7614,-0.240597,-0.477759,-1.39281,0
2024-12-11 19:36:37.151,-2.37009,4.16561,10.7423,-0.225326,-0.520518,-1.35677,0
2024-12-11 19:36:37.152,-2.40838,4.15603,10.7231,-0.225326,-0.520518,-1.35677,0
2024-12-11 19:36:37.154,-2.44188,4.15125,10.704,-0.222883,-0.549228,-1.33844,0
2024-12-11 19:36:37.158,-2.44427,4.14646,10.7136,-0.217996,-0.573662,-1.31951,0
2024-12-11 19:36:37.159,-2.42752,4.14646,10.7327,-0.214331,-0.602372,-1.30179,0
2024-12-11 19:36:37.161,-2.39641,4.15843,10.7423,-0.211888,-0.631082,-1.28408,0
2024-12-11 19:36:37.164,-2.34616,4.16082,10.771,-0.208833,-0.660402,-1.26697,0
2024-12-11 19:36:37.168,-2.27199,4.168,10.8667,-0.201503,-0.717211,-1.24132,0
2024-12-11 19:36:37.168,-2.27199,4.168,10.8667,-0.201503,-0.717211,-1.24132,0
2024-12-11 19:36:37.173,-2.16192,4.18953,10.9627,-0.194784,-0.770355,-1.21322,0
2024-12-11 19:36:37.176,-2.10688,4.18475,11.0034,-0.187454,-0.790513,-1.20222,0
2024-12-11 19:36:37.176,-2.10688,4.18475,11.0034,-0.187454,-0.790513,-1.20222,0
2024-12-11 19:36:37.179,-2.03749,4.17518,11.0465,-0.180124,-0.814947,-1.19306,0
2024-12-11 19:36:37.180,-1.98245,4.15125,11.0895,-0.172793,-0.834494,-1.18329,0
2024-12-11 19:36:37.186,-1.90798,4.1345,11.1494,-0.14897,-0.878475,-1.1558,0
2024-12-11 19:36:37.186,-1.90798,4.1345,11.1494,-0.14897,-0.878475,-1.1558,0
2024-12-11 19:36:37.188,-1.88644,4.11536,11.1613,-0.14897,-0.878475,-1.1558,0
2024-12-11 19:36:37.190,-1.87687,4.08664,11.1613,-0.136753,-0.885194,-1.14541,0
2024-12-11 19:36:37.192,-1.85773,4.07707,11.1948,-0.125758,-0.891303,-1.13503,0
2024-12-11 19:36:37.194,-1.83141,4.08903,11.2068,-0.114763,-0.894968,-1.12098,0
2024-12-11 19:36:37.199,-1.80987,4.08903,11.1422,-0.103157,-0.894968,-1.10876,0
2024-12-11 19:36:37.201,-1.70937,4.11057,11.1135,-0.086664,-0.890692,-1.08067,0
2024-12-11 19:36:37.202,-1.70937,4.11057,11.1135,-0.086664,-0.890692,-1.08067,0
2024-12-11 19:36:37.204,-1.63998,4.12253,11.08,-0.0762796,-0.888248,-1.06478,0
2024-12-11 19:36:37.209,-1.54905,4.13928,10.9675,-0.0616192,-0.882751,-1.04035,0
2024-12-11 19:36:37.209,-1.45813,4.13928,10.9675,-0.0616192,-0.882751,-1.04035,0
2024-12-11 19:36:37.213,-1.22333,4.17518,10.8236,-0.0579541,-0.879086,-1.02752,0
2024-12-11 19:36:37.213,-1.22333,4.17518,10.8236,-0.0579541,-0.879086,-1.02752,0
2024-12-11 19:36:37.218,-0.979263,4.24965,10.6753,-0.0524565,-0.859538,-1.00187,0
2024-12-11 19:36:37.219,-0.979263,4.24965,10.6753,-0.0524565,-0.850987,-0.995147,0
2024-12-11 19:36:37.223,-0.766002,4.28555,10.5102,-0.0524565,-0.850987,-0.995147,0
2024-12-11 19:36:37.225,-0.701396,4.30469,10.4336,-0.058565,-0.831439,-0.982319,0
2024-12-11 19:36:37.225,-0.701396,4.30469,10.4336,-0.058565,-0.831439,-0.982319,0
2024-12-11 19:36:37.227,-0.641576,4.32622,10.3567,-0.0628409,-0.821666,-0.97621,0
2024-12-11 19:36:37.232,-0.514756,4.38126,10.2299,-0.0683385,-0.811282,-0.971323,0
2024-12-11 19:36:37.234,-0.45015,4.39322,10.1701,-0.082388,-0.782572,-0.960328,0
2024-12-11 19:36:37.234,-0.45015,4.39322,10.1701,-0.082388,-0.782572,-0.960328,0
2024-12-11 19:36:37.238,-0.407079,4.41236,10.127,-0.0970484,-0.753862,-0.949333,0
2024-12-11 19:36:37.240,-0.375972,4.43629,10.0696,-0.104379,-0.739202,-0.943225,0
2024-12-11 19:36:37.243,-0.354437,4.47936,10.0265,-0.108654,-0.719044,-0.935283,0
2024-12-11 19:36:37.244,-0.344866,4.51526,9.99542,-0.108654,-0.719044,-0.935283,0
2024-12-11 19:36:37.246,-0.32333,4.5344,9.95235,-0.114763,-0.700718,-0.92551,0
2024-12-11 19:36:37.249,-0.285045,4.56311,9.93081,-0.117817,-0.677506,-0.915736,0
2024-12-11 19:36:37.251,-0.270389,4.58704,9.9021,-0.119039,-0.650629,-0.908406,0
2024-12-11 19:36:37.254,-0.285045,4.62533,9.87578,-0.11965,-0.626806,-0.898633,0
2024-12-11 19:36:37.258,-0.361615,4.73061,9.81087,-0.120261,-0.573662,-0.876031,0
2024-12-11 19:36:37.260,-0.419043,4.77877,9.77019,-0.118428,-0.54312,-0.859538,0
2024-12-11 19:36:37.260,-0.419043,4.77877,9.77019,-0.118428,-0.54312,-0.859538,0
2024-12-11 19:36:37.263,-0.481256,4.82902,9.72952,-0.118428,-0.54312,-0.859538,0
2024-12-11 19:36:37.267,-0.617647,4.88884,9.6338,-0.11293,-0.442941,-0.803951,0
2024-12-11 19:36:37.268,-0.617647,4.88884,9.6338,-0.11293,-0.442941,-0.803951,0
2024-12-11 19:36:37.272,-0.658325,4.89601,9.60748,-0.104989,-0.373304,-0.764857,0
2024-12-11 19:36:37.272,-0.684646,4.91276,9.59552,-0.104989,-0.373304,-0.764857,0
2024-12-11 19:36:37.278,-0.727717,4.91994,9.6027,-0.0988809,-0.304278,-0.725152,0
2024-12-11 19:36:37.279,-0.727717,4.91994,9.60987,-0.0988809,-0.304278,-0.725152,0
2024-12-11 19:36:37.282,-0.876371,4.91276,9.59552,-0.090329,-0.247469,-0.689112,0
2024-12-11 19:36:37.285,-0.981655,4.92712,9.5668,-0.0848314,-0.198602,-0.649407,0
