timestamp,accel_x,accel_y,accel_z,gyro_x,gyro_y,gyro_z,step_timestamp
2024-12-11 19:44:09.769,0.150748,2.64796,9.68884,-0.0329094,-0.000687203,0.0274118,0
2024-12-11 19:44:09.769,0.150748,2.64796,9.68884,-0.0329094,-0.000687203,0.0274118,0
2024-12-11 19:44:09.769,0.150748,2.64796,9.68884,-0.0329094,-0.000687203,0.0274118,0
2024-12-11 19:44:09.769,0.150748,2.64796,9.68884,-0.0329094,-0.000687203,0.0274118,0
2024-12-11 19:44:09.769,0.150748,2.64796,9.68884,-0.0329094,-0.000687203,0.0274118,0
2024-12-11 19:44:09.769,0.150748,2.64796,9.68884,-0.0329094,-0.000687203,0.0274118,0
2024-12-11 19:44:09.769,0.150748,2.64796,9.68884,-0.0329094,-0.000687203,0.0274118,0
2024-12-11 19:44:09.769,0.150748,2.64796,9.68884,-0.0329094,-0.000687203,0.0274118,0
2024-12-11 19:44:09.769,0.150748,2.64796,9.68884,-0.0329094,-0.000687203,0.0274118,0
2024-12-11 19:44:09.769,0.150748,2.64796,9.68884,-0.0329094,-0.000687203,0.0274118,0
2024-12-11 19:44:09.769,0.150748,2.64796,9.68884,-0.0329094,-0.000687203,0.0274118,0
2024-12-11 19:44:09.769,0.150748,2.64796,9.68884,-0.0329094,-0.000687203,0.0274118,0
2024-12-11 19:44:09.769,0.150748,2.64796,9.68884,-0.0329094,-0.000687203,0.0274118,0
2024-12-11 19:44:09.769,0.150748,2.64796,9.68884,-0.0329094,-0.000687203,0.0274118,0
2024-12-11 19:44:09.769,0.150748,2.64796,9.68884,-0.0329094,-0.000687203,0.0274118,0
2024-12-11 19:44:09.769,0.150748,2.64796,9.68884,-0.0329094,-0.000687203,0.0274118,0
2024-12-11 19:44:09.769,0.150748,2.64796,9.68884,-0.0329094,-0.000687203,0.0274118,0
2024-12-11 19:44:09.769,0.150748,2.64796,9.68884,-0.0329094,-0.000687203,0.0274118,0
2024-12-11 19:44:09.769,0.150748,2.64796,9.68884,-0.0329094,-0.000687203,0.0274118,0
2024-12-11 19:44:09.769,0.150748,2.64796,9.68884,-0.0329094,-0.000687203,0.0274118,0
2024-12-11 19:44:09.769,0.150748,2.64796,9.68884,-0.0329094,-0.000687203,0.0274118,0
2024-12-11 19:44:09.769,0.150748,2.64796,9.68884,-0.0329094,-0.000687203,0.0274118,0
2024-12-11 19:44:09.769,0.150748,2.64796,9.68884,-0.0329094,-0.000687203,0.0274118,0
2024-12-11 19:44:09.769,0.150748,2.64796,9.68884,-0.0329094,-0.000687203,0.0274118,0
2024-12-11 19:44:09.769,0.150748,2.64796,9.68884,-0.0329094,-0.000687203,0.0274118,0
2024-12-11 19:44:09.769,0.150748,2.64796,9.68884,-0.0329094,-0.000687203,0.0274118,0
2024-12-11 19:44:09.769,0.150748,2.64796,9.68884,-0.0329094,-0.000687203,0.0274118,0
2024-12-11 19:44:09.769,0.150748,2.64796,9.68884,-0.0329094,-0.000687203,0.0274118,0
2024-12-11 19:44:09.769,0.150748,2.64796,9.68884,-0.0329094,-0.000687203,0.0274118,0
2024-12-11 19:44:09.769,0.150748,2.64796,9.68884,-0.0329094,-0.000687203,0.0274118,0
2024-12-11 19:44:09.769,0.150748,2.64796,9.68884,-0.0329094,-0.000687203,0.0274118,0
2024-12-11 19:44:09.769,0.150748,2.64796,9.68884,-0.0329094,-0.000687203,0.0274118,0
2024-12-11 19:44:09.769,0.150748,2.64796,9.68884,-0.0329094,-0.000687203,0.0274118,0
2024-12-11 19:44:09.769,0.150748,2.64796,9.68884,-0.0329094,-0.000687203,0.0274118,0
2024-12-11 19:44:09.769,0.150748,2.64796,9.68884,-0.0329094,-0.000687203,0.0274118,0
2024-12-11 19:44:09.769,0.150748,2.64796,9.68884,-0.0329094,-0.000687203,0.0274118,0
2024-12-11 19:44:09.769,0.150748,2.64796,9.68884,-0.0329094,-0.000687203,0.0274118,0
2024-12-11 19:44:09.769,0.150748,2.64796,9.68884,-0.0329094,-0.000687203,0.0274118,0
2024-12-11 19:44:09.769,0.150748,2.64796,9.68884,-0.0329094,-0.000687203,0.0274118,0
2024-12-11 19:44:09.769,0.150748,2.64796,9.68884,-0.0329094,-0.000687203,0.0274118,0
2024-12-11 19:44:09.769,0.150748,2.64796,9.68884,-0.0329094,-0.000687203,0.0274118,0
2024-12-11 19:44:09.769,0.150748,2.64796,9.68884,-0.0329094,-0.000687203,0.0274118,0
2024-12-11 19:44:09.769,0.150748,2.64796,9.68884,-0.0329094,-0.000687203,0.0274118,0
2024-12-11 19:44:09.769,0.150748,2.64796,9.68884,-0.0329094,-0.000687203,0.0274118,0
2024-12-11 19:44:09.769,0.150748,2.64796,9.68884,-0.0329094,-0.000687203,0.0274118,0
2024-12-11 19:44:09.770,0.150748,2.64796,9.68884,-0.0329094,-0.000687203,0.0274118,0
2024-12-11 19:44:09.770,0.150748,2.64796,9.68884,-0.0329094,-0.000687203,0.0274118,0
2024-12-11 19:44:09.770,0.150748,2.64796,9.68884,-0.0329094,-0.000687203,0.0274118,0
2024-12-11 19:44:09.770,0.150748,2.64796,9.68884,-0.0329094,-0.000687203,0.0274118,0
2024-12-11 19:44:09.770,0.150748,2.64796,9.68884,-0.0329094,-0.000687203,0.0274118,0
2024-12-11 19:44:09.770,0.150748,2.64796,9.68884,-0.0329094,-0.000687203,0.0274118,0
2024-12-11 19:44:09.770,0.150748,2.64796,9.68884,-0.0329094,-0.000687203,0.0274118,0
2024-12-11 19:44:09.770,0.150748,2.64796,9.68884,-0.0329094,-0.000687203,0.0274118,0
2024-12-11 19:44:09.770,0.150748,2.64796,9.68884,-0.0329094,-0.000687203,0.0274118,0
2024-12-11 19:44:09.770,0.150748,2.64796,9.68884,-0.0329094,-0.000687203,0.0274118,0
2024-12-11 19:44:09.770,0.150748,2.64796,9.68884,-0.0329094,-0.000687203,0.0274118,0
2024-12-11 19:44:09.770,0.150748,2.64796,9.68884,-0.0329094,-0.000687203,0.0274118,0
2024-12-11 19:44:09.770,0.150748,2.64796,9.68884,-0.0329094,-0.000687203,0.0274118,0
2024-12-11 19:44:09.770,0.150748,2.64796,9.68884,-0.0329094,-0.000687203,0.0274118,0
2024-12-11 19:44:09.770,0.150748,2.64796,9.68884,-0.0329094,-0.000687203,0.0274118,0
2024-12-11 19:44:09.790,0.102891,2.67906,9.78216,-0.0292443,-0.00129805,0.0310769,0
2024-12-11 19:44:09.790,0.102891,2.67906,9.78216,-0.0292443,-0.00129805,0.0310769,0
2024-12-11 19:44:09.790,0.102891,2.67906,9.78216,-0.0292443,-0.00129805,0.0310769,0
2024-12-11 19:44:09.791,0.102891,2.67906,9.78216,-0.0274118,-0.00313059,0.0310769,0
2024-12-11 19:44:09.793,0.0981057,2.67906,9.79652,-0.0274118,-0.00313059,0.0310769,0
2024-12-11 19:44:09.793,0.0981057,2.67906,9.79652,-0.0274118,-0.00313059,0.0310769,0
2024-12-11 19:44:09.793,0.0981057,2.67906,9.79652,-0.0274118,-0.00313059,0.0310769,0
2024-12-11 19:44:09.793,0.0981057,2.67906,9.79652,-0.0274118,-0.00313059,0.0310769,0
2024-12-11 19:44:09.793,0.0981057,2.67906,9.79652,-0.0274118,-0.00313059,0.0310769,0
2024-12-11 19:44:09.794,0.0981057,2.67906,9.79652,-0.0255792,-0.00435229,0.030466,0
2024-12-11 19:44:09.794,0.0981057,2.67906,9.79652,-0.0255792,-0.00435229,0.030466,0
2024-12-11 19:44:09.795,0.0957129,2.67906,9.81087,-0.0255792,-0.00435229,0.030466,0
2024-12-11 19:44:09.795,0.0957129,2.67906,9.81087,-0.0255792,-0.00435229,0.030466,0
2024-12-11 19:44:09.796,0.0957129,2.67906,9.81087,-0.022525,-0.0019089,0.0353528,0
2024-12-11 19:44:09.797,0.0885344,2.68864,9.82074,-0.022525,-0.0019089,0.0353528,0
2024-12-11 19:44:09.797,0.0885344,2.68864,9.82074,-0.022525,-0.0019089,0.0353528,0
2024-12-11 19:44:09.797,0.0885344,2.68864,9.82074,-0.022525,-0.0019089,0.0353528,0
2024-12-11 19:44:09.797,0.0885344,2.68864,9.82074,-0.022525,-0.0019089,0.0353528,0
2024-12-11 19:44:09.798,0.0885344,2.68864,9.82074,-0.022525,-0.0019089,0.0353528,0
2024-12-11 19:44:09.798,0.0885344,2.68864,9.82074,-0.022525,-0.0019089,0.0353528,0
2024-12-11 19:44:09.798,0.0885344,2.68864,9.82074,-0.022525,-0.0019089,0.0353528,0
2024-12-11 19:44:09.798,0.0885344,2.68864,9.82074,-0.022525,-0.0019089,0.0353528,0
2024-12-11 19:44:09.798,0.0885344,2.68864,9.82074,-0.022525,-0.0019089,0.0353528,0
2024-12-11 19:44:09.802,0.0885344,2.68864,9.83031,-0.0194708,-0.00374144,0.0353528,0
2024-12-11 19:44:09.802,0.0885344,2.68864,9.83031,-0.0194708,-0.00374144,0.0353528,0
2024-12-11 19:44:09.803,0.0885344,2.68864,9.83031,-0.0139731,-0.00313059,0.0353528,0
2024-12-11 19:44:09.804,0.0837488,2.68385,9.82314,-0.0139731,-0.00313059,0.0353528,0
2024-12-11 19:44:09.804,0.0837488,2.68385,9.82314,-0.0139731,-0.00313059,0.0353528,0
2024-12-11 19:44:09.807,0.0837488,2.7006,9.8013,-0.0115297,-0.00435229,0.0396287,0
2024-12-11 19:44:09.807,0.102891,2.7006,9.8013,-0.0115297,-0.00435229,0.0396287,0
2024-12-11 19:44:09.807,0.102891,2.7006,9.8013,-0.0115297,-0.00435229,0.0396287,0
2024-12-11 19:44:09.808,0.102891,2.7006,9.8013,-0.0115297,-0.00435229,0.038407,0
2024-12-11 19:44:09.809,0.112463,2.69581,9.78455,-0.0115297,-0.00435229,0.038407,0
2024-12-11 19:44:09.809,0.112463,2.69581,9.78455,-0.0115297,-0.00435229,0.038407,0
2024-12-11 19:44:09.809,0.112463,2.69581,9.78455,-0.0115297,-0.00435229,0.038407,0
2024-12-11 19:44:09.809,0.112463,2.69581,9.78455,-0.0115297,-0.00435229,0.038407,0
2024-12-11 19:44:09.809,0.112463,2.69581,9.78455,-0.0115297,-0.00435229,0.038407,0
2024-12-11 19:44:09.809,0.112463,2.69581,9.78455,-0.0115297,-0.00435229,0.038407,0
2024-12-11 19:44:09.809,0.112463,2.69581,9.78455,-0.0115297,-0.00435229,0.038407,0
2024-12-11 19:44:09.809,0.112463,2.69581,9.78455,-0.0115297,-0.00435229,0.038407,0
2024-12-11 19:44:09.809,0.112463,2.69581,9.78455,-0.0115297,-0.00435229,0.038407,0
2024-12-11 19:44:09.809,0.112463,2.69581,9.78455,-0.0115297,-0.00435229,0.038407,0
2024-12-11 19:44:09.809,0.112463,2.69581,9.78455,-0.0115297,-0.00435229,0.038407,0
2024-12-11 19:44:09.809,0.112463,2.69581,9.78455,-0.0115297,-0.00435229,0.038407,0
2024-12-11 19:44:09.809,0.112463,2.69581,9.78455,-0.0115297,-0.00435229,0.038407,0
2024-12-11 19:44:09.810,0.112463,2.69581,9.78455,-0.0115297,-0.00435229,0.038407,0
2024-12-11 19:44:09.810,0.112463,2.69581,9.78455,-0.0115297,-0.00435229,0.038407,0
2024-12-11 19:44:09.810,0.112463,2.69581,9.78455,-0.0115297,-0.00435229,0.038407,0
2024-12-11 19:44:09.821,0.112463,2.68385,9.74148,-0.00236703,-0.0141258,0.0432938,0
2024-12-11 19:44:09.821,0.112463,2.68385,9.74148,-0.00236703,-0.0141258,0.0432938,0
2024-12-11 19:44:09.821,0.112463,2.68385,9.74148,-0.00236703,-0.0141258,0.0432938,0
2024-12-11 19:44:09.821,0.112463,2.68385,9.74148,-0.00236703,-0.0141258,0.0432938,0
2024-12-11 19:44:09.821,0.112463,2.68385,9.74148,-0.00236703,-0.0141258,0.0432938,0
2024-12-11 19:44:09.822,0.112463,2.68385,9.74148,-0.00175619,-0.0184018,0.042683,0
2024-12-11 19:44:09.823,0.12682,2.67906,9.75584,-0.00175619,-0.0184018,0.042683,0
2024-12-11 19:44:09.824,0.12682,2.67906,9.75584,7.63559e-05,-0.0190126,0.0432938,0
2024-12-11 19:44:09.826,0.136391,2.67189,9.76541,7.63559e-05,-0.0190126,0.0432938,0
2024-12-11 19:44:09.826,0.136391,2.67189,9.76541,7.63559e-05,-0.0190126,0.0432938,0
2024-12-11 19:44:09.826,0.136391,2.67189,9.76541,7.63559e-05,-0.0190126,0.0432938,0
2024-12-11 19:44:09.829,0.143569,2.67906,9.76302,-0.00114534,-0.0257319,0.0451263,0
2024-12-11 19:44:09.830,0.157926,2.67667,9.76302,-0.00114534,-0.0257319,0.0451263,0
2024-12-11 19:44:09.833,0.167498,2.67428,9.75344,-0.00175619,-0.0300079,0.0439046,0
2024-12-11 19:44:09.835,0.174676,2.66949,9.76062,-0.00114534,-0.0330621,0.0445155,0
2024-12-11 19:44:09.837,0.179462,2.67906,9.77019,0.0019089,-0.0361163,0.0451263,0
2024-12-11 19:44:09.840,0.196211,2.70299,9.77019,7.63559e-05,-0.0385597,0.0445155,0
2024-12-11 19:44:09.844,0.20339,2.69342,9.78455,0.00313059,-0.0428357,0.042683,0
2024-12-11 19:44:09.844,0.20339,2.69342,9.78455,0.00313059,-0.0428357,0.042683,0
2024-12-11 19:44:09.849,0.208176,2.71256,9.80369,0.00313059,-0.0477224,0.0396287,0
2024-12-11 19:44:09.849,0.208176,2.71256,9.80369,0.00313059,-0.0477224,0.0396287,0
2024-12-11 19:44:09.854,0.236889,2.72213,9.81326,0.00435229,-0.0501658,0.0359636,0
2024-12-11 19:44:09.855,0.236889,2.72213,9.81326,0.00435229,-0.0501658,0.0359636,0
2024-12-11 19:44:09.856,0.248854,2.72453,9.81566,0.00557398,-0.0471116,0.0341311,0
2024-12-11 19:44:09.859,0.260818,2.72453,9.82553,0.00862822,-0.0428357,0.0310769,0
2024-12-11 19:44:09.861,0.256032,2.7341,9.81805,0.00679568,-0.0385597,0.0292443,0
2024-12-11 19:44:09.863,0.263211,2.7341,9.80609,0.00679568,-0.0348946,0.0255792,0
2024-12-11 19:44:09.866,0.275175,2.73649,9.78455,0.00923906,-0.0300079,0.0255792,0
2024-12-11 19:44:09.868,0.263211,2.74128,9.75584,0.0104608,-0.0226777,0.022525,0
2024-12-11 19:44:09.871,0.248854,2.72692,9.73669,0.00679568,-0.00923906,0.0176382,0
2024-12-11 19:44:09.873,0.251246,2.71974,9.70559,0.00679568,-0.00923906,0.0176382,0
2024-12-11 19:44:09.877,0.260818,2.71256,9.65534,0.00251974,0.00481042,0.0127514,0
2024-12-11 19:44:09.878,0.265603,2.71256,9.65534,0.00251974,0.00481042,0.0127514,0
2024-12-11 19:44:09.880,0.246461,2.70299,9.61466,-0.000534491,0.0115297,0.010308,0
2024-12-11 19:44:09.882,0.246461,2.69103,9.5668,-0.00297788,0.0158057,0.00847551,0
2024-12-11 19:44:09.884,0.232104,2.67906,9.53809,-0.00603212,0.0176382,0.00725381,0
2024-12-11 19:44:09.888,0.198604,2.6671,9.50698,-0.0109189,0.0200816,0.00664296,0
2024-12-11 19:44:09.890,0.174676,2.66471,9.48545,-0.0237467,0.0237467,0.00542127,0
2024-12-11 19:44:09.892,0.160319,2.66231,9.48306,-0.0237467,0.0237467,0.00542127,0
2024-12-11 19:44:09.894,0.141177,2.6671,9.47827,-0.0261901,0.0243575,0.00603212,0
2024-12-11 19:44:09.897,0.129212,2.6671,9.47348,-0.0322986,0.0219141,0.00603212,0
2024-12-11 19:44:09.901,0.141177,2.64317,9.47348,-0.0377962,0.0200816,0.00603212,0
2024-12-11 19:44:09.901,0.141177,2.64317,9.47348,-0.0377962,0.0200816,0.00603212,0
2024-12-11 19:44:09.907,0.155533,2.63121,9.54766,-0.046348,0.00786466,0.00725381,0
2024-12-11 19:44:09.907,0.155533,2.63121,9.54766,-0.046348,0.00786466,0.00725381,0
2024-12-11 19:44:09.909,0.167498,2.61446,9.55963,-0.046348,0.00786466,0.00725381,0
2024-12-11 19:44:09.910,0.165105,2.61924,9.57638,-0.0512348,0.00175619,0.00847551,0
2024-12-11 19:44:09.914,0.172283,2.62642,9.60748,-0.0524565,-0.00923906,0.0096972,0
2024-12-11 19:44:09.915,0.172283,2.61207,9.64577,-0.0524565,-0.00923906,0.0096972,0
2024-12-11 19:44:09.918,0.155533,2.60967,9.68884,-0.0542891,-0.0177909,0.00847551,0
2024-12-11 19:44:09.920,0.131605,2.6336,9.73909,-0.050624,-0.0226777,0.00786466,0
2024-12-11 19:44:09.922,0.119641,2.64078,9.77019,-0.0487914,-0.0287862,0.00725381,0
2024-12-11 19:44:09.924,0.131605,2.64078,9.79412,-0.0457372,-0.0318404,0.00725381,0
2024-12-11 19:44:09.927,0.145962,2.64796,9.84706,-0.0457372,-0.0318404,0.00725381,0
2024-12-11 19:44:09.929,0.143569,2.64556,9.88296,-0.0353528,-0.0403923,0.00603212,0
2024-12-11 19:44:09.932,0.150748,2.64796,9.91406,-0.0286335,-0.0440574,0.00419957,0
2024-12-11 19:44:09.934,0.181855,2.64078,9.93799,-0.0231358,-0.0446682,0.00603212,0
2024-12-11 19:44:09.939,0.196211,2.61207,9.92842,-0.00664296,-0.0465007,0.000534491,0
2024-12-11 19:44:09.939,0.196211,2.61207,9.92842,-0.00664296,-0.0465007,0.000534491,0
2024-12-11 19:44:09.943,0.191426,2.60249,9.87338,0.00313059,-0.0471116,-0.00313059,0
2024-12-11 19:44:09.944,0.191426,2.60249,9.87338,0.00862822,-0.0452791,-0.00313059,0
2024-12-11 19:44:09.947,0.184247,2.60967,9.86381,0.013515,-0.0440574,-0.00557398,0
2024-12-11 19:44:09.948,0.181855,2.59771,9.86142,0.013515,-0.0440574,-0.00557398,0
2024-12-11 19:44:09.951,0.155533,2.58814,9.81805,0.0171801,-0.0440574,-0.00435229,0
2024-12-11 19:44:09.954,0.117248,2.59053,9.77019,0.0190126,-0.041614,-0.00374144,0
2024-12-11 19:44:09.955,0.0909273,2.59532,9.72952,0.0190126,-0.041614,-0.00374144,0
2024-12-11 19:44:09.957,0.0741775,2.59053,9.6673,0.0208452,-0.0397814,-0.0019089,0
2024-12-11 19:44:09.960,0.066999,2.57139,9.61466,0.0208452,-0.0379489,-0.00129805,0
2024-12-11 19:44:09.962,0.0598206,2.57617,9.58595,0.0208452,-0.0342838,-0.000687203,0
2024-12-11 19:44:09.966,0.0598206,2.56899,9.55005,0.0190126,-0.0330621,0.00297788,0
2024-12-11 19:44:09.967,0.0646062,2.53789,9.51655,0.013515,-0.0312296,0.00236703,0
2024-12-11 19:44:09.969,0.0837488,2.53071,9.48066,0.0122933,-0.0330621,0.00481042,0
2024-12-11 19:44:09.973,0.0933201,2.52832,9.44956,7.63559e-05,-0.0330621,0.00542127,0
2024-12-11 19:44:09.974,0.100499,2.51366,9.4352,7.63559e-05,-0.0330621,0.00542127,0
2024-12-11 19:44:09.977,0.114855,2.50887,9.41366,-0.00664296,-0.0300079,0.00419957,0
2024-12-11 19:44:09.981,0.107677,2.51845,9.4017,-0.0182491,-0.0275645,0.00725381,0
2024-12-11 19:44:09.981,0.107677,2.51845,9.4017,-0.0182491,-0.0275645,0.00725381,0
2024-12-11 19:44:09.986,0.12682,2.51845,9.42802,-0.0316877,-0.021456,0.00847551,0
2024-12-11 19:44:09.986,0.12682,2.51845,9.42802,-0.0316877,-0.021456,0.00847551,0
2024-12-11 19:44:09.989,0.131605,2.53071,9.44477,-0.0414613,-0.0177909,0.00908635,0
2024-12-11 19:44:09.990,0.141177,2.52832,9.45434,-0.0414613,-0.0177909,0.00908635,0
2024-12-11 19:44:09.995,0.117248,2.54507,9.49502,-0.0512348,-0.0147367,0.00725381,0
2024-12-11 19:44:09.996,0.117248,2.54507,9.49502,-0.0573433,-0.0159584,0.00664296,0
2024-12-11 19:44:09.998,0.119641,2.55703,9.51177,-0.0573433,-0.0159584,0.00664296,0
2024-12-11 19:44:10.000,0.11007,2.57139,9.52134,-0.058565,-0.0141258,0.00603212,0
2024-12-11 19:44:10.005,0.122034,2.56899,9.57638,-0.0652843,-0.00251974,0.0115297,0
2024-12-11 19:44:10.005,0.122034,2.56899,9.57638,-0.0652843,-0.00251974,0.0115297,0
2024-12-11 19:44:10.008,0.0741775,2.54028,9.57877,-0.0689494,0.0255792,0.0176382,0
2024-12-11 19:44:10.010,0.0358923,2.53071,9.60987,-0.0689494,0.0255792,0.0176382,0
2024-12-11 19:44:10.014,0.00957129,2.55942,9.61705,-0.0658951,0.0341311,0.0219141,0
2024-12-11 19:44:10.014,-0.00239282,2.58096,9.61705,-0.0658951,0.0341311,0.0219141,0
2024-12-11 19:44:10.019,-0.0191426,2.60249,9.64337,-0.0628409,0.0390179,0.0237467,0
2024-12-11 19:44:10.020,-0.0191426,2.60249,9.64337,-0.0597867,0.0408504,0.0249684,0
2024-12-11 19:44:10.021,-0.0311067,2.58096,9.63141,-0.0597867,0.0408504,0.0249684,0
2024-12-11 19:44:10.023,-0.0478565,2.57378,9.60987,-0.0561216,0.0432938,0.0268009,0
2024-12-11 19:44:10.028,-0.00717847,2.58096,9.57877,-0.0530674,0.0420721,0.0292443,0
2024-12-11 19:44:10.028,-0.00717847,2.58096,9.57877,-0.0530674,0.0420721,0.0292443,0
2024-12-11 19:44:10.031,-0.00239282,2.57139,9.55484,-0.0530674,0.0420721,0.0292443,0
2024-12-11 19:44:10.033,0.00717847,2.58335,9.52134,-0.046348,0.0365745,0.0353528,0
2024-12-11 19:44:10.035,0.0167498,2.59292,9.48545,-0.0469589,0.0341311,0.0371853,0
2024-12-11 19:44:10.039,0.0119641,2.58814,9.46152,-0.0451263,0.0292443,0.0359636,0
2024-12-11 19:44:10.042,0.0143569,2.60249,9.46152,-0.0457372,0.022525,0.0414613,0
2024-12-11 19:44:10.043,0.0143569,2.60249,9.46152,-0.0481806,0.00175619,0.0439046,0
2024-12-11 19:44:10.047,0.0765703,2.62403,9.47827,-0.050624,-0.0110716,0.0432938,0
2024-12-11 19:44:10.047,0.0765703,2.62403,9.47827,-0.050624,-0.0110716,0.0432938,0
2024-12-11 19:44:10.050,0.0909273,2.61207,9.48784,-0.0536782,-0.0379489,0.0457372,0
2024-12-11 19:44:10.052,0.105284,2.60489,9.51655,-0.0536782,-0.0379489,0.0457372,0
2024-12-11 19:44:10.054,0.119641,2.61446,9.55723,-0.0548999,-0.0507767,0.0439046,0
2024-12-11 19:44:10.056,0.131605,2.6336,9.60987,-0.0542891,-0.0648262,0.042683,0
2024-12-11 19:44:10.060,0.145962,2.64796,9.65534,-0.0500131,-0.0917034,0.0408504,0
2024-12-11 19:44:10.063,0.16989,2.68624,9.76541,-0.0475697,-0.104531,0.038407,0
2024-12-11 19:44:10.064,0.16989,2.68624,9.76541,-0.0475697,-0.104531,0.038407,0
2024-12-11 19:44:10.066,0.18664,2.69103,9.79891,-0.0420721,-0.114916,0.0377962,0
2024-12-11 19:44:10.068,0.208176,2.7006,9.81566,-0.0371853,-0.120413,0.0371853,0
2024-12-11 19:44:10.071,0.229711,2.71974,9.83031,-0.0310769,-0.126522,0.0359636,0
2024-12-11 19:44:10.075,0.234497,2.72453,9.85664,-0.0176382,-0.132019,0.030466,0
2024-12-11 19:44:10.075,0.234497,2.72453,9.85664,-0.0176382,-0.132019,0.030466,0
2024-12-11 19:44:10.078,0.241675,2.73171,9.85903,-0.0139731,-0.132019,0.0286335,0
2024-12-11 19:44:10.081,0.244068,2.74367,9.85185,-0.00542127,-0.128354,0.0243575,0
2024-12-11 19:44:10.082,0.246461,2.76281,9.84467,-0.00542127,-0.128354,0.0243575,0
2024-12-11 19:44:10.085,0.253639,2.76521,9.82553,-0.00175619,-0.122857,0.0219141,0
2024-12-11 19:44:10.088,0.256032,2.77238,9.81087,0.0019089,-0.115526,0.0219141,0
2024-12-11 19:44:10.089,0.251246,2.78435,9.79412,0.00679568,-0.105753,0.0206925,0
2024-12-11 19:44:10.092,0.251246,2.78196,9.76062,0.00984991,-0.0965902,0.0200816,0
2024-12-11 19:44:10.094,0.253639,2.76999,9.73191,0.0122933,-0.0874275,0.0182491,0
2024-12-11 19:44:10.097,0.260818,2.75324,9.71516,0.013515,-0.0782648,0.0158057,0
2024-12-11 19:44:10.099,0.27996,2.74128,9.67209,0.013515,-0.0727672,0.0151948,0
2024-12-11 19:44:10.101,0.294616,2.71735,9.6362,0.0141258,-0.0666587,0.0133623,0
2024-12-11 19:44:10.103,0.313759,2.69342,9.61466,0.0116825,-0.0648262,0.0109189,0
2024-12-11 19:44:10.108,0.320937,2.64796,9.5333,0.00313059,-0.0550526,0.00847551,0
2024-12-11 19:44:10.109,0.320937,2.64796,9.5333,-0.00114534,-0.049555,0.00725381,0
2024-12-11 19:44:10.111,0.32333,2.6336,9.51895,-0.00114534,-0.049555,0.00725381,0
2024-12-11 19:44:10.113,0.325723,2.63121,9.49263,-0.00481042,-0.0422248,0.00725381,0
2024-12-11 19:44:10.115,0.328116,2.64796,9.47827,-0.0115297,-0.0355055,0.00603212,0
2024-12-11 19:44:10.118,0.30658,2.67667,9.47109,-0.0194708,-0.0300079,0.00419957,0
2024-12-11 19:44:10.121,0.277567,2.7006,9.44956,-0.030466,-0.0165692,0.00481042,0
2024-12-11 19:44:10.122,0.253639,2.71496,9.43281,-0.030466,-0.0165692,0.00481042,0
2024-12-11 19:44:10.125,0.232104,2.71017,9.4352,-0.030466,-0.0165692,0.00481042,0
2024-12-11 19:44:10.127,0.224925,2.71974,9.42563,-0.0451263,-0.00740652,0.00847551,0
2024-12-11 19:44:10.129,0.212961,2.72931,9.41845,-0.0524565,-0.00496313,0.010308,0
2024-12-11 19:44:10.133,0.210568,2.71017,9.41606,-0.0671168,0.00114534,0.0127514,0
2024-12-11 19:44:10.134,0.224925,2.70299,9.41845,-0.0671168,0.00114534,0.0127514,0
2024-12-11 19:44:10.137,0.239282,2.71017,9.42084,-0.0738362,0.00603212,0.0139731,0
2024-12-11 19:44:10.139,0.275175,2.69342,9.41127,-0.0805555,0.0109189,0.0139731,0
2024-12-11 19:44:10.141,0.311366,2.67428,9.41606,-0.0891073,0.0109189,0.0115297,0
2024-12-11 19:44:10.144,0.330509,2.6671,9.40888,-0.0964375,0.0139731,0.00786466,0
2024-12-11 19:44:10.146,0.34008,2.65753,9.41127,-0.101935,0.0151948,0.00297788,0
2024-12-11 19:44:10.148,0.361615,2.64317,9.43041,-0.108654,0.0170274,-0.00129805,0
2024-12-11 19:44:10.152,0.392722,2.64556,9.43759,-0.117206,0.0194708,-0.0153475,0
2024-12-11 19:44:10.155,0.41665,2.62642,9.46631,-0.124536,0.0213033,-0.0226777,0
2024-12-11 19:44:10.156,0.409472,2.62642,9.46631,-0.129423,0.0188599,-0.0324513,0
2024-12-11 19:44:10.158,0.445364,2.63121,9.48066,-0.129423,0.0188599,-0.0324513,0
2024-12-11 19:44:10.160,0.474078,2.63599,9.49741,-0.13431,0.0206925,-0.0422248,0
2024-12-11 19:44:10.162,0.486042,2.61924,9.51177,-0.138586,0.0200816,-0.0544418,0
2024-12-11 19:44:10.165,0.502792,2.60728,9.49981,-0.142862,0.022525,-0.065437,0
2024-12-11 19:44:10.168,0.521934,2.61685,9.49263,-0.144694,0.0310769,-0.0758214,0
2024-12-11 19:44:10.169,0.521934,2.62164,9.49741,-0.147138,0.038407,-0.0886492,0
2024-12-11 19:44:10.172,0.505185,2.62164,9.51895,-0.150192,0.0457372,-0.100866,0
2024-12-11 19:44:10.174,0.498006,2.63121,9.53091,-0.151414,0.0548999,-0.111861,0
2024-12-11 19:44:10.179,0.488435,2.62642,9.55245,-0.154468,0.0634518,-0.133852,0
2024-12-11 19:44:10.179,0.4669,2.61446,9.55245,-0.154468,0.0634518,-0.133852,0
2024-12-11 19:44:10.181,0.438186,2.61446,9.5668,-0.154468,0.0634518,-0.133852,0
2024-12-11 19:44:10.184,0.407079,2.6001,9.56202,-0.153857,0.0775012,-0.152177,0
2024-12-11 19:44:10.187,0.373579,2.57139,9.54766,-0.147749,0.0891073,-0.170503,0
2024-12-11 19:44:10.189,0.34008,2.54267,9.55484,-0.144084,0.0982701,-0.176,0
2024-12-11 19:44:10.191,0.299402,2.53071,9.56202,-0.144084,0.0982701,-0.176,0
2024-12-11 19:44:10.193,0.253639,2.53549,9.57159,-0.139197,0.106822,-0.180276,0
2024-12-11 19:44:10.195,0.208176,2.51366,9.58355,-0.133699,0.11232,-0.182109,0
2024-12-11 19:44:10.199,0.148355,2.49452,9.58834,-0.113541,0.123315,-0.182109,0
2024-12-11 19:44:10.201,0.0837488,2.48255,9.5692,-0.104989,0.130034,-0.179665,0
2024-12-11 19:44:10.202,0.0191426,2.45145,9.54048,-0.104989,0.130034,-0.179665,0
2024-12-11 19:44:10.206,-0.0454636,2.43709,9.52613,-0.0799446,0.137975,-0.169281,0
2024-12-11 19:44:10.208,-0.11007,2.43948,9.51177,-0.0683385,0.142862,-0.160118,0
2024-12-11 19:44:10.210,-0.16989,2.42991,9.48306,-0.0683385,0.142862,-0.160118,0
2024-12-11 19:44:10.212,-0.212961,2.41555,9.43281,-0.0524565,0.143473,-0.150345,0
2024-12-11 19:44:10.214,-0.246461,2.40598,9.38016,-0.0396287,0.145305,-0.138128,0
2024-12-11 19:44:10.217,-0.282652,2.40359,9.32752,-0.0286335,0.144694,-0.1253,0
2024-12-11 19:44:10.219,-0.301795,2.41316,9.2677,-0.0170274,0.139808,-0.11064,0
2024-12-11 19:44:10.221,-0.304188,2.41555,9.2004,-0.00481042,0.131867,-0.0941468,0
2024-12-11 19:44:10.224,-0.299402,2.41555,9.1334,0.00679568,0.122093,-0.0794865,0
2024-12-11 19:44:10.226,-0.299402,2.42034,9.07837,0.013515,0.106211,-0.0642153,0
2024-12-11 19:44:10.229,-0.27996,2.4323,9.03291,0.0208452,0.086664,-0.0489441,0
2024-12-11 19:44:10.231,-0.236889,2.45384,8.98744,0.029397,0.0640626,-0.0367272,0
2024-12-11 19:44:10.233,-0.196211,2.48255,8.94676,0.029397,0.0640626,-0.0367272,0
2024-12-11 19:44:10.235,-0.141177,2.51845,8.91087,0.0379489,0.00358873,-0.00984991,0
2024-12-11 19:44:10.238,-0.0765703,2.56421,8.87976,0.0379489,0.00358873,-0.00984991,0
2024-12-11 19:44:10.241,-0.0167498,2.61207,8.8678,0.0355055,-0.121024,0.0109189,0
2024-12-11 19:44:10.242,0.066999,2.65514,8.87737,0.0355055,-0.121024,0.0109189,0
2024-12-11 19:44:10.246,0.155533,2.69342,8.89651,0.0324513,-0.166227,0.0127514,0
2024-12-11 19:44:10.247,0.253639,2.74606,8.93959,0.0269536,-0.212651,0.0121406,0
2024-12-11 19:44:10.251,0.366401,2.81306,9.02333,0.0177909,-0.311608,0.00358873,0
2024-12-11 19:44:10.253,0.469292,2.87288,9.11665,0.0141258,-0.357422,-0.00557398,0
2024-12-11 19:44:10.255,0.576969,2.9327,9.20997,0.0104608,-0.400792,-0.0171801,0
2024-12-11 19:44:10.257,0.667897,2.98056,9.31556,0.0104608,-0.400792,-0.0171801,0
2024-12-11 19:44:10.259,0.751645,3.03081,9.42802,0.00740652,-0.438665,-0.0287862,0
2024-12-11 19:44:10.261,0.835394,3.09093,9.55245,0.00801737,-0.467985,-0.0410031,0
2024-12-11 19:44:10.264,0.909871,3.12921,9.65773,0.0122933,-0.491808,-0.0581068,0
2024-12-11 19:44:10.267,0.991227,3.14596,9.75584,0.0153475,-0.532735,-0.0898709,0
2024-12-11 19:44:10.269,1.09651,3.15075,9.85424,0.0153475,-0.532735,-0.0898709,0
2024-12-11 19:44:10.271,1.1994,3.14357,9.91885,0.0171801,-0.54312,-0.106975,0
2024-12-11 19:44:10.278,1.37169,3.14836,10.0433,0.0257319,-0.555337,-0.165005,0
2024-12-11 19:44:10.280,1.37408,3.17468,10.0792,0.0232886,-0.552282,-0.181498,0
2024-12-11 19:44:10.280,1.37408,3.17468,10.0792,0.0232886,-0.552282,-0.181498,0
2024-12-11 19:44:10.282,1.36451,3.19143,10.1318,0.0226777,-0.544952,-0.197991,0
2024-12-11 19:44:10.282,1.36451,3.19143,10.1318,0.0226777,-0.544952,-0.197991,0
2024-12-11 19:44:10.285,1.34536,3.22014,10.1797,0.0208452,-0.532124,-0.210208,0
2024-12-11 19:44:10.287,1.33101,3.24646,10.2108,0.0184018,-0.520518,-0.223036,0
2024-12-11 19:44:10.292,1.31904,3.29193,10.2754,0.0122933,-0.486311,-0.232809,0
2024-12-11 19:44:10.292,1.31904,3.29193,10.2754,0.0122933,-0.486311,-0.232809,0
2024-12-11 19:44:10.294,1.34058,3.32782,10.2754,0.00923906,-0.461877,-0.235253,0
2024-12-11 19:44:10.298,1.36451,3.34935,10.2467,0.00618483,-0.43561,-0.235253,0
2024-12-11 19:44:10.301,1.42941,3.36132,10.2036,0.00129805,-0.379413,-0.227312,0
2024-12-11 19:44:10.301,1.42941,3.36132,10.2036,0.00129805,-0.379413,-0.227312,0
2024-12-11 19:44:10.304,1.4677,3.38046,10.1773,0.00129805,-0.379413,-0.227312,0
2024-12-11 19:44:10.306,1.49641,3.41157,10.1222,-0.0255792,-0.319549,-0.218149,0
2024-12-11 19:44:10.308,1.53709,3.44746,10.0624,-0.0377962,-0.289007,-0.210208,0
2024-12-11 19:44:10.311,1.58973,3.48814,10.0193,-0.0530674,-0.258465,-0.205321,0
2024-12-11 19:44:10.315,1.67348,3.6006,9.92124,-0.086664,-0.195547,-0.188828,0
2024-12-11 19:44:10.318,1.73091,3.6679,9.86621,-0.103157,-0.165616,-0.181498,0
2024-12-11 19:44:10.318,1.73091,3.6679,9.86621,-0.103157,-0.165616,-0.181498,0
2024-12-11 19:44:10.320,1.77398,3.75643,9.84467,-0.123315,-0.135684,-0.172946,0
2024-12-11 19:44:10.325,1.88405,3.93829,9.78455,-0.170961,-0.0782648,-0.159507,0
2024-12-11 19:44:10.326,1.88405,3.93829,9.78455,-0.194784,-0.0477224,-0.152177,0
2024-12-11 19:44:10.328,1.94865,4.02443,9.75584,-0.194784,-0.0477224,-0.152177,0
2024-12-11 19:44:10.330,2.01356,4.12014,9.7343,-0.217385,-0.0165692,-0.145458,0
2024-12-11 19:44:10.334,2.15713,4.33579,9.71277,-0.266253,0.0487914,-0.13996,0
2024-12-11 19:44:10.334,2.15713,4.33579,9.71277,-0.266253,0.0487914,-0.13996,0
2024-12-11 19:44:10.339,2.31266,4.50329,9.64098,-0.312067,0.114763,-0.13996,0
2024-12-11 19:44:10.340,2.31266,4.50329,9.64098,-0.312067,0.114763,-0.13996,0
2024-12-11 19:44:10.341,2.37488,4.5679,9.62902,-0.338944,0.145916,-0.143015,0
2024-12-11 19:44:10.344,2.44666,4.62054,9.61227,-0.360324,0.174626,-0.147901,0
2024-12-11 19:44:10.346,2.51605,4.65643,9.58595,-0.37926,0.201503,-0.155842,0
2024-12-11 19:44:10.348,2.72213,4.49372,10.1916,-0.397585,0.202725,-0.16867,0
2024-12-11 19:44:10.352,2.91595,4.35972,10.7351,-0.398807,0.150192,-0.196158,0
2024-12-11 19:44:10.353,2.7676,4.47219,10.2993,-0.392698,0.137975,-0.221814,0
2024-12-11 19:44:10.357,2.65753,4.62054,9.89013,-0.384147,0.260755,-0.259686,0
2024-12-11 19:44:10.358,2.74606,4.75215,9.92842,-0.384147,0.260755,-0.259686,0
2024-12-11 19:44:10.363,2.41077,5.0324,9.77019,-0.367654,0.351772,-0.281677,0
2024-12-11 19:44:10.364,2.67428,4.89123,9.95235,-0.367654,0.351772,-0.281677,0
2024-12-11 19:44:10.365,2.19302,5.12812,9.6003,-0.367043,0.376206,-0.284731,0
2024-12-11 19:44:10.367,2.0997,5.16401,9.48306,-0.376206,0.377427,-0.284731,0
2024-12-11 19:44:10.370,2.04227,5.1688,9.34427,-0.387201,0.358491,-0.285342,0
2024-12-11 19:44:10.373,2.0327,5.15683,9.20997,-0.400639,0.333446,-0.287175,0
2024-12-11 19:44:10.377,2.08535,5.14487,9.05205,-0.42996,0.287633,-0.292672,0
2024-12-11 19:44:10.378,2.14517,5.12812,9.05205,-0.440345,0.273583,-0.301224,0
2024-12-11 19:44:10.379,2.18345,5.08983,9.0018,-0.440345,0.273583,-0.301224,0
2024-12-11 19:44:10.382,2.20977,5.05873,8.99701,-0.447064,0.263199,-0.310387,0
2024-12-11 19:44:10.386,2.23131,4.97737,9.04248,-0.453783,0.239987,-0.337264,0
2024-12-11 19:44:10.387,2.23131,4.97737,9.04248,-0.453783,0.239987,-0.337264,0
2024-12-11 19:44:10.388,2.19063,4.95344,9.05205,-0.453783,0.239987,-0.337264,0
2024-12-11 19:44:10.391,2.14277,4.92234,9.07358,-0.447064,0.205779,-0.370861,0
2024-12-11 19:44:10.397,2.08056,4.81466,9.06162,-0.414689,0.151414,-0.428891,0
2024-12-11 19:44:10.398,2.04227,4.77398,9.02812,-0.414689,0.151414,-0.428891,0
2024-12-11 19:44:10.398,2.04227,4.77398,9.02812,-0.414689,0.151414,-0.428891,0
2024-12-11 19:44:10.401,1.98245,4.72343,8.97787,-0.384757,0.120871,-0.473483,0
2024-12-11 19:44:10.404,1.9008,4.65643,8.90609,-0.384757,0.120871,-0.473483,0
2024-12-11 19:44:10.406,1.80987,4.57508,8.79123,-0.356658,0.0909399,-0.518075,0
2024-12-11 19:44:10.407,1.70459,4.50568,8.67129,-0.356658,0.0909399,-0.518075,0
2024-12-11 19:44:10.410,1.59452,4.45544,8.55404,-0.343831,0.0750579,-0.541287,0
2024-12-11 19:44:10.412,1.47488,4.4004,8.42483,-0.334057,0.0591758,-0.562667,0
2024-12-11 19:44:10.415,1.34297,4.33579,8.27887,-0.321229,0.0469589,-0.583435,0
2024-12-11 19:44:10.417,1.20419,4.25683,8.07518,-0.313899,0.0274118,-0.601761,0
2024-12-11 19:44:10.419,1.05105,4.18235,7.83829,-0.320618,-0.0019089,-0.619475,0
2024-12-11 19:44:10.421,0.859622,4.14407,7.66122,-0.327949,-0.0275645,-0.631692,0
2024-12-11 19:44:10.425,0.679861,4.1345,7.57239,-0.334057,-0.0238994,-0.648796,0
2024-12-11 19:44:10.426,0.545863,4.11057,7.54128,-0.334057,-0.0238994,-0.648796,0
2024-12-11 19:44:10.429,0.442971,4.06271,7.55085,-0.329781,-0.0110716,-0.653683,0
2024-12-11 19:44:10.431,0.354437,3.99332,7.55324,-0.324894,0.00297788,-0.659791,0
2024-12-11 19:44:10.433,0.256032,3.88804,7.55085,-0.319397,0.0109189,-0.667732,0
2024-12-11 19:44:10.438,0.0550349,3.67508,7.52932,-0.309012,0.00481042,-0.684225,0
2024-12-11 19:44:10.438,0.0550349,3.67508,7.52932,-0.309012,0.00481042,-0.684225,0
2024-12-11 19:44:10.441,-0.0574277,3.5671,7.46949,-0.296185,-0.00313059,-0.700107,0
2024-12-11 19:44:10.444,-0.165105,3.45464,7.38575,-0.291298,-0.00435229,-0.708659,0
2024-12-11 19:44:10.446,-0.275175,3.3661,7.32114,-0.2858,-0.00313059,-0.715379,0
2024-12-11 19:44:10.447,-0.404686,3.29432,7.28046,-0.2858,-0.00313059,-0.715379,0
2024-12-11 19:44:10.451,-0.536291,3.24885,7.25653,-0.273583,0.000534491,-0.722709,0
2024-12-11 19:44:10.452,-0.696611,3.22493,7.23978,-0.273583,0.000534491,-0.722709,0
2024-12-11 19:44:10.454,-0.881157,3.20578,7.21586,-0.266864,0.00481042,-0.722709,0
2024-12-11 19:44:10.457,-1.0654,3.18186,7.19911,-0.260755,0.00542127,-0.720876,0
2024-12-11 19:44:10.459,-1.24726,3.15075,7.17278,-0.255869,0.00603212,-0.714768,0
2024-12-11 19:44:10.462,-1.40548,3.11246,7.13929,-0.250982,0.00664296,-0.708659,0
2024-12-11 19:44:10.464,-1.5347,3.07867,7.11296,-0.244263,0.00664296,-0.695221,0
2024-12-11 19:44:10.466,-1.63998,3.04277,7.09382,-0.239376,0.00725381,-0.681171,0
2024-12-11 19:44:10.471,-1.80987,2.94945,7.05314,-0.230824,0.010308,-0.649407,0
2024-12-11 19:44:10.472,-1.80987,2.94945,7.05314,-0.230824,0.010308,-0.649407,0
2024-12-11 19:44:10.473,-1.89601,2.89442,7.04118,-0.227159,0.0127514,-0.634136,0
2024-12-11 19:44:10.477,-1.97049,2.86331,7.034,-0.222272,0.0139731,-0.616421,0
2024-12-11 19:44:10.480,-2.1332,2.82503,7.02682,-0.21372,0.0133623,-0.577327,0
2024-12-11 19:44:10.481,-2.1332,2.82503,7.02682,-0.21372,0.0133623,-0.577327,0
2024-12-11 19:44:10.484,-2.22413,2.79871,7.00977,-0.209444,0.00786466,-0.537011,0
2024-12-11 19:44:10.486,-2.3007,2.77238,6.99542,-0.207612,0.00481042,-0.513188,0
2024-12-11 19:44:10.490,-2.44905,2.78674,6.97627,-0.205168,0.00297788,-0.487532,0
2024-12-11 19:44:10.491,-2.44905,2.78674,6.97627,-0.203336,-0.000687203,-0.460655,0
2024-12-11 19:44:10.492,-2.52323,2.78913,6.96192,-0.203336,-0.000687203,-0.460655,0
2024-12-11 19:44:10.494,-2.59292,2.79153,6.96431,-0.203947,-0.00435229,-0.433167,0
2024-12-11 19:44:10.498,-2.65274,2.77717,6.95713,-0.204557,-0.0104608,-0.375747,0
2024-12-11 19:44:10.499,-2.69103,2.78196,6.94756,-0.204557,-0.0104608,-0.375747,0
2024-12-11 19:44:10.503,-2.71735,2.78913,6.92842,-0.210666,-0.0184018,-0.314663,0
2024-12-11 19:44:10.504,-2.75563,2.78674,6.91885,-0.210666,-0.0184018,-0.314663,0
2024-12-11 19:44:10.506,-2.76999,2.8011,6.91406,-0.214331,-0.0226777,-0.284731,0
2024-12-11 19:44:10.510,-2.77478,2.81785,6.92124,-0.222272,-0.0342838,-0.222425,0
2024-12-11 19:44:10.511,-2.77717,2.82981,6.92602,-0.222272,-0.0342838,-0.222425,0
2024-12-11 19:44:10.513,-2.77478,2.85613,6.92363,-0.230824,-0.0410031,-0.191272,0
2024-12-11 19:44:10.517,-2.76999,2.87288,6.93799,-0.247928,-0.0532201,-0.135074,0
2024-12-11 19:44:10.518,-2.73888,2.88006,6.95474,-0.247928,-0.0532201,-0.135074,0
2024-12-11 19:44:10.521,-2.67667,2.90399,6.97388,-0.259534,-0.0593285,-0.109418,0
2024-12-11 19:44:10.523,-2.60489,2.93749,6.98585,-0.271751,-0.0623828,-0.0837624,0
2024-12-11 19:44:10.527,-2.40838,2.98535,7.04597,-0.299239,-0.0758214,-0.0385597,0
2024-12-11 19:44:10.528,-2.40838,2.98535,7.04597,-0.299239,-0.0758214,-0.0385597,0
2024-12-11 19:44:10.530,-2.32223,2.98295,7.08425,-0.31451,-0.0788757,-0.021456,0
2024-12-11 19:44:10.533,-2.24088,3.00927,7.13211,-0.332225,-0.0794865,-0.00740652,0
2024-12-11 19:44:10.537,-2.09013,3.11007,7.235,-0.367043,-0.081319,0.0200816,0
2024-12-11 19:44:10.537,-2.09013,3.11007,7.235,-0.367043,-0.081319,0.0200816,0
2024-12-11 19:44:10.539,-2.01356,3.13639,7.28764,-0.385368,-0.0794865,0.030466,0
2024-12-11 19:44:10.543,-1.92712,3.18664,7.34028,-0.403083,-0.077654,0.0390179,0
2024-12-11 19:44:10.544,-1.84337,3.23928,7.40489,-0.426295,-0.0758214,0.0469589,0
2024-12-11 19:44:10.546,-1.78594,3.27757,7.48146,-0.447064,-0.0739889,0.0536782,0
2024-12-11 19:44:10.549,-1.72612,3.30868,7.56521,-0.469054,-0.0709346,0.0567324,0
2024-12-11 19:44:10.551,-1.66391,3.35653,7.64447,-0.491045,-0.0666587,0.0610084,0
2024-12-11 19:44:10.556,-1.57059,3.39003,7.84307,-0.531361,-0.0544418,0.0658951,0
2024-12-11 19:44:10.556,-1.57059,3.39003,7.84307,-0.531361,-0.0544418,0.0658951,0
2024-12-11 19:44:10.559,-1.5347,3.42114,7.95554,-0.570455,-0.0422248,0.0683385,0
2024-12-11 19:44:10.561,-1.48205,3.45464,8.07996,-0.570455,-0.0422248,0.0683385,0
2024-12-11 19:44:10.563,-1.43181,3.47378,8.22622,-0.586948,-0.0379489,0.0701711,0
2024-12-11 19:44:10.565,-1.40788,3.47617,8.37219,-0.60283,-0.029397,0.0726145,0
2024-12-11 19:44:10.569,-1.37647,3.48814,8.5014,-0.632151,-0.0171801,0.074447,0
2024-12-11 19:44:10.571,-1.32861,3.50728,8.64975,-0.632151,-0.0171801,0.074447,0
2024-12-11 19:44:10.575,-1.27597,3.55992,8.94437,-0.65353,0.00358873,0.0775012,0
2024-12-11 19:44:10.576,-1.29033,3.55992,8.94437,-0.65353,0.00358873,0.0775012,0
2024-12-11 19:44:10.577,-1.26879,3.59342,9.09751,-0.659028,0.0133623,0.0787229,0
2024-12-11 19:44:10.580,-1.27358,3.61017,9.25065,-0.669412,0.0365745,0.0878856,0
2024-12-11 19:44:10.583,-1.27597,3.6341,9.41127,-0.669412,0.0365745,0.0878856,0
2024-12-11 19:44:10.584,-1.25444,3.66551,9.58355,-0.670634,0.0451263,0.0921616,0
2024-12-11 19:44:10.587,-1.22094,3.69183,9.73909,-0.670634,0.0451263,0.0921616,0
2024-12-11 19:44:10.589,-1.19701,3.71575,9.9021,-0.67491,0.0591758,0.102546,0
2024-12-11 19:44:10.592,-1.15155,3.72293,10.072,-0.665747,0.0750579,0.115374,0
2024-12-11 19:44:10.593,-1.09412,3.72533,10.2347,-0.665747,0.0750579,0.115374,0
2024-12-11 19:44:10.597,-1.05105,3.7325,10.3735,-0.650476,0.0909399,0.121482,0
2024-12-11 19:44:10.599,-0.996012,3.7325,10.5006,-0.643757,0.0982701,0.125147,0
2024-12-11 19:44:10.600,-0.96012,3.71815,10.637,-0.643757,0.0982701,0.125147,0
2024-12-11 19:44:10.604,-0.924228,3.72293,10.7734,-0.621766,0.109265,0.130034,0
2024-12-11 19:44:10.605,-0.888335,3.73729,10.8954,-0.621766,0.109265,0.130034,0
2024-12-11 19:44:10.608,-0.871586,3.74686,11.013,-0.612603,0.114763,0.133088,0
2024-12-11 19:44:10.611,-0.833001,3.75883,11.1326,-0.590613,0.119039,0.137364,0
2024-12-11 19:44:10.613,-0.780359,3.78036,11.2546,-0.590613,0.119039,0.137364,0
2024-12-11 19:44:10.615,-0.734896,3.81147,11.3695,-0.58145,0.118428,0.139808,0
2024-12-11 19:44:10.618,-0.696611,3.833,11.47,-0.556405,0.117817,0.137975,0
2024-12-11 19:44:10.619,-0.660718,3.85932,11.5708,-0.556405,0.117817,0.137975,0
2024-12-11 19:44:10.622,-0.617647,3.87129,11.6809,-0.541745,0.117817,0.137975,0
2024-12-11 19:44:10.626,-0.550648,3.87129,11.8603,-0.513646,0.125147,0.131867,0
2024-12-11 19:44:10.627,-0.550648,3.87129,11.8603,-0.513646,0.125147,0.131867,0
2024-12-11 19:44:10.630,-0.536291,3.87129,11.9489,-0.498375,0.128202,0.128812,0
2024-12-11 19:44:10.631,-0.541077,3.87607,12.0278,-0.485547,0.131256,0.123315,0
2024-12-11 19:44:10.633,-0.557827,3.87607,12.1047,-0.470276,0.136753,0.120261,0
2024-12-11 19:44:10.636,-0.584148,3.88086,12.1765,-0.451951,0.138586,0.113541,0
2024-12-11 19:44:10.638,-0.612862,3.87847,12.2507,-0.432404,0.137975,0.109876,0
2024-12-11 19:44:10.641,-0.651147,3.85454,12.32,-0.417743,0.137364,0.106211,0
2024-12-11 19:44:10.645,-0.722932,3.7995,12.4373,-0.382314,0.125147,0.100103,0
2024-12-11 19:44:10.646,-0.722932,3.7995,12.4373,-0.367043,0.11293,0.0982701,0
2024-12-11 19:44:10.648,-0.76361,3.75883,12.4947,-0.367043,0.11293,0.0982701,0
2024-12-11 19:44:10.650,-0.809073,3.71336,12.5498,-0.351161,0.101324,0.0958267,0
2024-12-11 19:44:10.653,-0.857229,3.68465,12.6,-0.323062,0.0775012,0.0964375,0
2024-12-11 19:44:10.655,-0.88355,3.65115,12.6482,-0.323062,0.0775012,0.0964375,0
2024-12-11 19:44:10.657,-0.917049,3.61974,12.6936,-0.309623,0.0677277,0.0994917,0
2024-12-11 19:44:10.659,-0.979263,3.60539,12.7295,-0.296185,0.0591758,0.103768,0
2024-12-11 19:44:10.662,-1.0319,3.60299,12.7702,-0.284578,0.0530674,0.111709,0
2024-12-11 19:44:10.664,-1.05583,3.58146,12.8085,-0.275416,0.0475697,0.121482,0
2024-12-11 19:44:10.666,-1.0989,3.5671,12.8396,-0.26381,0.050624,0.130645,0
2024-12-11 19:44:10.669,-1.14437,3.55514,12.8707,-0.258312,0.0512348,0.144694,0
2024-12-11 19:44:10.674,-1.17308,3.55514,12.8898,-0.246706,0.0646735,0.17768,0
2024-12-11 19:44:10.674,-1.20897,3.55274,12.9114,-0.246706,0.0646735,0.17768,0
2024-12-11 19:44:10.676,-1.24965,3.52882,12.9329,-0.24243,0.0713928,0.199671,0
2024-12-11 19:44:10.678,-1.28315,3.52642,12.9377,-0.241208,0.0811663,0.221661,0
2024-12-11 19:44:10.681,-1.28794,3.53121,12.9449,-0.241208,0.0891073,0.244263,0
2024-12-11 19:44:10.683,-1.2664,3.54078,12.9544,-0.246095,0.100103,0.270529,0
2024-12-11 19:44:10.685,-1.21615,3.54556,12.9688,-0.250371,0.11293,0.297406,0
2024-12-11 19:44:10.689,-1.15633,3.54796,12.9951,-0.258312,0.125758,0.323673,0
2024-12-11 19:44:10.690,-1.08694,3.57428,13.019,-0.266253,0.139197,0.349328,0
2024-12-11 19:44:10.693,-1.00798,3.60299,13.0502,-0.275416,0.157522,0.374373,0
2024-12-11 19:44:10.695,-0.919442,3.64128,13.0908,-0.288854,0.170961,0.400639,0
2024-12-11 19:44:10.697,-0.818644,3.68943,13.1172,-0.302293,0.187454,0.425073,0
2024-12-11 19:44:10.702,-0.617647,3.78993,13.1988,-0.337111,0.225326,0.468443,0
2024-12-11 19:44:10.702,-0.617647,3.78993,13.1988,-0.337111,0.225326,0.468443,0
2024-12-11 19:44:10.704,-0.498006,3.86172,13.2538,-0.353604,0.243652,0.488601,0
2024-12-11 19:44:10.706,-0.371187,3.91197,13.3089,-0.373762,0.265031,0.506316,0
2024-12-11 19:44:10.711,-0.129212,4.00529,13.4261,-0.412856,0.306569,0.533804,0
2024-12-11 19:44:10.711,-0.129212,4.00529,13.4261,-0.412856,0.306569,0.533804,0
2024-12-11 19:44:10.714,-0.00957129,4.07946,13.5147,-0.433625,0.326727,0.544189,0
2024-12-11 19:44:10.716,0.0981057,4.1345,13.6152,-0.454394,0.346274,0.553351,0
2024-12-11 19:44:10.718,0.184247,4.17518,13.7085,-0.471498,0.365821,0.560071,0
2024-12-11 19:44:10.721,0.258425,4.2353,13.8117,-0.488601,0.383536,0.566179,0
2024-12-11 19:44:10.723,0.332901,4.3023,13.9217,-0.503262,0.403083,0.569233,0
2024-12-11 19:44:10.725,0.407079,4.35733,14.0486,-0.514257,0.422019,0.572287,0
2024-12-11 19:44:10.728,0.500399,4.38844,14.1897,-0.52342,0.436679,0.575342,0
2024-12-11 19:44:10.731,0.579362,4.41715,14.3575,-0.531972,0.466611,0.571066,0
2024-12-11 19:44:10.733,0.643968,4.43869,14.5322,-0.531972,0.466611,0.571066,0
2024-12-11 19:44:10.736,0.703789,4.46501,14.6877,-0.513646,0.487991,0.564957,0
2024-12-11 19:44:10.737,0.773181,4.48415,14.86,-0.513646,0.487991,0.564957,0
2024-12-11 19:44:10.740,0.852443,4.49611,15.0446,-0.496542,0.498986,0.560071,0
2024-12-11 19:44:10.743,0.905085,4.50568,15.2336,-0.442177,0.519755,0.546021,0
2024-12-11 19:44:10.744,0.955334,4.49133,15.3939,-0.442177,0.519755,0.546021,0
2024-12-11 19:44:10.747,0.984048,4.49611,15.5115,-0.409191,0.528307,0.540523,0
2024-12-11 19:44:10.749,0.99362,4.50329,15.6144,-0.367043,0.53808,0.534415,0
2024-12-11 19:44:10.751,1.00558,4.49372,15.6718,-0.32184,0.546632,0.530139,0
2024-12-11 19:44:10.754,0.998405,4.48176,15.7053,-0.27114,0.55274,0.527696,0
2024-12-11 19:44:10.757,0.972084,4.4674,15.7149,-0.169739,0.558849,0.524641,0
2024-12-11 19:44:10.758,0.950549,4.43629,15.6766,-0.169739,0.558849,0.524641,1
2024-12-11 19:44:10.762,0.926621,4.40519,15.6168,-0.116595,0.560071,0.526474,0
2024-12-11 19:44:10.763,0.897907,4.38365,15.5474,-0.0610084,0.55946,0.528307,0
2024-12-11 19:44:10.765,0.857229,4.35254,15.4373,-0.00542127,0.558849,0.533193,0
2024-12-11 19:44:10.769,0.816252,4.32862,15.2982,0.106364,0.553962,0.548464,0
2024-12-11 19:44:10.770,0.770788,4.31905,15.157,0.106364,0.553962,0.548464,0
2024-12-11 19:44:10.773,0.708575,4.29751,14.9967,0.159507,0.549075,0.560071,0
2024-12-11 19:44:10.775,0.648754,4.29272,14.8433,0.21204,0.539913,0.572287,0
2024-12-11 19:44:10.777,0.615255,4.29512,14.6854,0.263352,0.527696,0.583283,0
2024-12-11 19:44:10.779,0.588933,4.27358,14.4987,0.314663,0.514868,0.5955,0
2024-12-11 19:44:10.782,0.562612,4.2688,14.3192,0.366585,0.50204,0.610771,0
2024-12-11 19:44:10.785,0.56022,4.25683,14.1515,0.463099,0.477606,0.632761,0
2024-12-11 19:44:10.787,0.569791,4.2329,13.96,0.463099,0.477606,0.632761,0
2024-12-11 19:44:10.789,0.579362,4.21137,13.7542,0.509523,0.464168,0.643146,0
2024-12-11 19:44:10.791,0.617647,4.18235,13.5577,0.555947,0.448286,0.651087,0
2024-12-11 19:44:10.794,0.682254,4.15603,13.3567,0.597485,0.434847,0.655363,0
2024-12-11 19:44:10.796,0.732503,4.13211,13.1411,0.63719,0.42263,0.659028,0
2024-12-11 19:44:10.798,0.787538,4.11296,12.9209,0.675673,0.40797,0.657195,0
2024-12-11 19:44:10.801,0.854836,4.08186,12.7032,0.711103,0.396974,0.657806,0
2024-12-11 19:44:10.803,0.926621,4.03639,12.4852,0.745921,0.381703,0.65353,0
2024-12-11 19:44:10.805,0.998405,3.99811,12.2507,0.775242,0.370097,0.646811,0
2024-12-11 19:44:10.810,1.05344,3.90957,11.7622,0.821666,0.348107,0.632151,0
2024-12-11 19:44:10.811,1.05344,3.90957,11.7622,0.821666,0.348107,0.632151,0
2024-12-11 19:44:10.815,1.01755,3.92393,11.2714,0.850987,0.332835,0.610771,0
2024-12-11 19:44:10.816,1.01755,3.92393,11.2714,0.863204,0.320008,0.598554,0
2024-12-11 19:44:10.818,0.996012,3.91914,11.0321,0.872366,0.301071,0.586337,0
2024-12-11 19:44:10.820,0.998405,3.87368,10.7758,0.872366,0.301071,0.586337,0
2024-12-11 19:44:10.823,1.00558,3.81147,10.4504,0.866869,0.275416,0.571677,0
2024-12-11 19:44:10.825,1.01276,3.75643,10.0528,0.825942,0.202725,0.531361,0
2024-12-11 19:44:10.828,1.0319,3.70618,9.66491,0.785626,0.160576,0.508759,0
2024-12-11 19:44:10.829,1.05105,3.64367,9.3347,0.785626,0.160576,0.508759,0
2024-12-11 19:44:10.831,1.07258,3.56471,9.07119,0.734315,0.121482,0.483104,0
2024-12-11 19:44:10.834,1.11326,3.4666,8.89651,0.677506,0.0775012,0.452561,0
2024-12-11 19:44:10.836,1.17547,3.35653,8.80559,0.611534,0.0365745,0.420187,0
2024-12-11 19:44:10.839,1.23051,3.25603,8.78884,0.55045,-0.00374144,0.384757,0
2024-12-11 19:44:10.841,1.27597,3.15793,8.83669,0.486311,-0.0489441,0.341998,0
2024-12-11 19:44:10.844,1.32622,3.03559,8.96351,0.359865,-0.141793,0.249149,0
2024-12-11 19:44:10.845,1.38604,2.9016,9.16212,0.359865,-0.141793,0.249149,0
2024-12-11 19:44:10.849,1.42463,2.77478,9.41127,0.255411,-0.229144,0.144694,0
2024-12-11 19:44:10.851,1.4342,2.65753,9.71994,0.255411,-0.229144,0.144694,0
2024-12-11 19:44:10.853,1.44138,2.53071,10.0744,0.21204,-0.270071,0.0891073,0
2024-12-11 19:44:10.860,1.35972,2.18106,11.2977,0.150345,-0.367806,-0.0788757,0
2024-12-11 19:44:10.860,1.35972,2.18106,11.2977,0.150345,-0.367806,-0.0788757,0
2024-12-11 19:44:10.860,1.35972,2.18106,11.2977,0.150345,-0.367806,-0.0788757,0
2024-12-11 19:44:10.862,1.28554,2.06381,11.6402,0.149123,-0.389186,-0.131409,0
2024-12-11 19:44:10.864,1.1994,1.95823,11.9489,0.158286,-0.409955,-0.183941,0
2024-12-11 19:44:10.867,1.10369,1.85294,12.2507,0.169281,-0.423394,-0.234031,0
2024-12-11 19:44:10.877,0.627219,1.36929,13.153,0.324436,-0.405068,-0.42828,0
2024-12-11 19:44:10.878,0.50997,1.21615,13.3065,0.324436,-0.405068,-0.42828,0
2024-12-11 19:44:10.879,0.50997,1.21615,13.3065,0.324436,-0.405068,-0.42828,0
2024-12-11 19:44:10.879,0.50997,1.21615,13.3065,0.324436,-0.405068,-0.42828,0
2024-12-11 19:44:10.879,0.50997,1.21615,13.3065,0.324436,-0.405068,-0.42828,0
2024-12-11 19:44:10.882,0.3999,1.07498,13.4189,0.417285,-0.333599,-0.472261,0
2024-12-11 19:44:10.885,0.162712,0.761217,13.4692,0.465542,-0.289007,-0.484478,0
2024-12-11 19:44:10.886,0.162712,0.761217,13.4692,0.465542,-0.289007,-0.484478,0
2024-12-11 19:44:10.888,0.0622134,0.629611,13.4524,0.518686,-0.241361,-0.49303,0
2024-12-11 19:44:10.890,-0.0358923,0.490828,13.4142,0.57244,-0.190661,-0.496695,0
2024-12-11 19:44:10.894,-0.148355,0.354437,13.328,0.677506,-0.0819299,-0.491198,0
2024-12-11 19:44:10.895,-0.256032,0.22014,13.2084,0.677506,-0.0819299,-0.491198,0
2024-12-11 19:44:10.897,-0.354437,0.102891,13.0549,0.732482,-0.0245102,-0.481424,0
2024-12-11 19:44:10.900,-0.4334,-0.0119641,12.8707,0.784404,0.0359636,-0.466764,0
2024-12-11 19:44:10.902,-0.495613,-0.138784,12.6601,0.831439,0.0958267,-0.448438,0
2024-12-11 19:44:10.904,-0.555434,-0.248854,12.3918,0.879696,0.155079,-0.42828,0
2024-12-11 19:44:10.908,-0.629611,-0.332901,12.1047,0.960939,0.268086,-0.374526,0
2024-12-11 19:44:10.910,-0.699003,-0.419043,11.8244,0.960939,0.268086,-0.374526,0
2024-12-11 19:44:10.911,-0.744467,-0.493221,11.5158,0.996979,0.317564,-0.344594,0
2024-12-11 19:44:10.914,-0.777966,-0.550648,11.1948,1.02813,0.35788,-0.313441,0
2024-12-11 19:44:10.916,-0.804287,-0.598505,10.8858,1.05073,0.393309,-0.279844,0
2024-12-11 19:44:10.918,-0.811466,-0.632004,10.5891,1.06967,0.417132,-0.246248,0
2024-12-11 19:44:10.921,-0.797109,-0.667897,10.2921,1.08494,0.433625,-0.214484,0
2024-12-11 19:44:10.924,-0.758824,-0.710967,9.99542,1.09716,0.441566,-0.154621,0
2024-12-11 19:44:10.927,-0.720539,-0.749253,9.71277,1.09594,0.439734,-0.129576,0
2024-12-11 19:44:10.929,-0.677468,-0.770788,9.44956,1.09594,0.439734,-0.129576,0
2024-12-11 19:44:10.930,-0.629611,-0.777966,9.20758,1.09105,0.430571,-0.105142,0
2024-12-11 19:44:10.933,-0.584148,-0.785145,8.96351,1.08128,0.418354,-0.0837624,0
2024-12-11 19:44:10.935,-0.54347,-0.761217,8.7362,1.06845,0.400639,-0.0642153,0
2024-12-11 19:44:10.938,-0.505185,-0.710967,8.54686,1.02996,0.352993,-0.0361163,0
2024-12-11 19:44:10.941,-0.471685,-0.665504,8.38654,1.00553,0.323673,-0.0269536,0
2024-12-11 19:44:10.942,-0.442971,-0.632004,8.2358,1.00553,0.323673,-0.0269536,0
2024-12-11 19:44:10.944,-0.414257,-0.581755,8.11825,0.98293,0.292519,-0.021456,0
2024-12-11 19:44:10.948,-0.387936,-0.514756,8.02971,0.929175,0.228381,-0.0153475,0
2024-12-11 19:44:10.949,-0.368794,-0.442971,7.96511,0.929175,0.228381,-0.0153475,0
2024-12-11 19:44:10.952,-0.359223,-0.366401,7.94357,0.903519,0.200892,-0.0165692,0
2024-12-11 19:44:10.954,-0.335294,-0.304188,7.93879,0.879696,0.173404,-0.0196235,0
2024-12-11 19:44:10.957,-0.316152,-0.236889,7.93879,0.858928,0.150803,-0.0232886,0
2024-12-11 19:44:10.959,-0.325723,-0.167498,7.95793,0.836326,0.132477,-0.0281753,0
2024-12-11 19:44:10.961,-0.342473,-0.11007,7.98904,0.819833,0.117206,-0.0361163,0
2024-12-11 19:44:10.963,-0.347258,-0.0693919,8.02732,0.808227,0.104989,-0.0422248,0
2024-12-11 19:44:10.966,-0.354437,-0.040678,8.07039,0.794789,0.094605,-0.0501658,0
2024-12-11 19:44:10.968,-0.361615,-0.0191426,8.10868,0.789291,0.0891073,-0.057496,0
2024-12-11 19:44:10.970,-0.373579,0.0,8.13769,0.784404,0.0842206,-0.0636045,0
2024-12-11 19:44:10.975,-0.383151,-0.0239282,8.135,0.786237,0.0811663,-0.0770431,0
2024-12-11 19:44:10.975,-0.383151,-0.0239282,8.135,0.786237,0.0811663,-0.0770431,0
2024-12-11 19:44:10.978,-0.3999,-0.0478565,8.10629,0.789291,0.0793338,-0.0849841,0
2024-12-11 19:44:10.980,-0.419043,-0.0789631,8.05843,0.792345,0.0781121,-0.0917034,0
2024-12-11 19:44:10.983,-0.440578,-0.112463,7.97947,0.795399,0.0793338,-0.0965902,0
2024-12-11 19:44:10.984,-0.471685,-0.112463,7.89093,0.799065,0.0781121,-0.0996445,0
2024-12-11 19:44:10.987,-0.505185,-0.119641,7.8,0.80273,0.0768904,-0.101477,0
2024-12-11 19:44:10.989,-0.545863,-0.141177,7.68515,0.802119,0.0732253,-0.102088,0
2024-12-11 19:44:10.991,-0.60329,-0.148355,7.54846,0.800286,0.0713928,-0.102699,0
2024-12-11 19:44:10.994,-0.660718,-0.141177,7.4025,0.799065,0.0652843,-0.100255,0
2024-12-11 19:44:10.996,-0.703789,-0.141177,7.2685,0.794178,0.0573433,-0.0941468,0
2024-12-11 19:44:11.000,-0.751645,-0.153141,7.13929,0.771576,0.0365745,-0.0800973,0
2024-12-11 19:44:11.002,-0.809073,-0.145962,7.0002,0.757527,0.0231358,-0.0697129,0
2024-12-11 19:44:11.003,-0.859622,-0.143569,6.84945,0.757527,0.0231358,-0.0697129,0
2024-12-11 19:44:11.006,-0.9003,-0.143569,6.69871,0.73798,0.00542127,-0.0587177,0
2024-12-11 19:44:11.008,-0.936192,-0.131605,6.5671,0.718433,-0.0110716,-0.0465007,0
2024-12-11 19:44:11.010,-0.964906,-0.107677,6.46421,0.693999,-0.0300079,-0.033673,0
2024-12-11 19:44:11.013,-0.986441,-0.0837488,6.38495,0.668954,-0.0465007,-0.0220669,0
2024-12-11 19:44:11.015,-1.02712,-0.0550349,6.30598,0.640244,-0.0678804,-0.00740652,0
2024-12-11 19:44:11.017,-1.06301,-0.00957129,6.24377,0.610313,-0.0898709,0.00664296,0
2024-12-11 19:44:11.020,-1.0678,0.0382852,6.20549,0.610313,-0.0898709,0.00664296,0
2024-12-11 19:44:11.023,-1.07737,0.0861416,6.18156,0.518075,-0.144236,0.0469589,0
2024-12-11 19:44:11.024,-1.12762,0.148355,6.17438,0.518075,-0.144236,0.0469589,0
2024-12-11 19:44:11.028,-1.17069,0.22014,6.18156,0.457601,-0.17539,0.0750579,0
2024-12-11 19:44:11.032,-1.20658,0.359223,6.25095,0.429502,-0.188828,0.0878856,0
2024-12-11 19:44:11.033,-1.20658,0.359223,6.25095,0.402014,-0.19738,0.101935,0
2024-12-11 19:44:11.034,-1.21137,0.41665,6.30838,0.402014,-0.19738,0.101935,0
2024-12-11 19:44:11.036,-1.22333,0.481256,6.35623,0.376969,-0.206543,0.11232,0
2024-12-11 19:44:11.040,-1.22333,0.545863,6.42323,0.333599,-0.210819,0.132477,0
2024-12-11 19:44:11.041,-1.21376,0.605683,6.49292,0.333599,-0.210819,0.132477,0
2024-12-11 19:44:11.043,-1.19222,0.660718,6.57189,0.315274,-0.207764,0.140419,0
2024-12-11 19:44:11.046,-1.17308,0.71336,6.65803,0.295726,-0.207154,0.147138,0
2024-12-11 19:44:11.049,-1.14437,0.756431,6.72024,0.267017,-0.19738,0.157522,0
2024-12-11 19:44:11.050,-1.12283,0.799502,6.76571,0.267017,-0.19738,0.157522,0
2024-12-11 19:44:11.053,-1.10608,0.837787,6.81117,0.255411,-0.191882,0.161798,0
2024-12-11 19:44:11.055,-1.07258,0.869193,6.82792,0.243194,-0.184552,0.160576,0
2024-12-11 19:44:11.058,-1.04148,0.890728,6.83031,0.243194,-0.184552,0.160576,0
2024-12-11 19:44:11.060,-1.01037,0.9003,6.83271,0.220592,-0.176,0.162409,0
2024-12-11 19:44:11.065,-0.948156,0.950549,6.81596,0.197991,-0.166227,0.158744,0
2024-12-11 19:44:11.066,-0.948156,0.950549,6.81596,0.197991,-0.166227,0.158744,0
2024-12-11 19:44:11.068,-0.936192,0.981655,6.80399,0.172335,-0.160729,0.153246,0
2024-12-11 19:44:11.070,-0.931406,1.0008,6.78246,0.172335,-0.160729,0.153246,0
2024-12-11 19:44:11.072,-0.919442,1.02473,6.75135,0.157064,-0.156453,0.150192,0
2024-12-11 19:44:11.074,-0.931406,1.06062,6.70828,0.144236,-0.152788,0.147138,0
2024-12-11 19:44:11.077,-0.950549,1.09412,6.68914,0.126522,-0.151566,0.144694,0
2024-12-11 19:44:11.079,-0.952942,1.11326,6.68914,0.108196,-0.152788,0.142862,0
2024-12-11 19:44:11.081,-0.957727,1.12522,6.69153,0.0898709,-0.151566,0.14164,0
2024-12-11 19:44:11.083,-0.969691,1.1324,6.68674,0.0703238,-0.154621,0.140419,0
2024-12-11 19:44:11.087,-0.962513,1.1348,6.69392,0.0355055,-0.170503,0.138586,0
2024-12-11 19:44:11.089,-0.955334,1.14676,6.7011,0.0153475,-0.179665,0.138586,0
2024-12-11 19:44:11.090,-0.967299,1.14915,6.71306,0.0153475,-0.179665,0.138586,0
2024-12-11 19:44:11.093,-0.962513,1.14676,6.76092,-0.00358873,-0.192493,0.135532,0
2024-12-11 19:44:11.096,-0.952942,1.1683,6.79921,-0.0231358,-0.205321,0.136143,0
2024-12-11 19:44:11.097,-0.967299,1.18505,6.83271,-0.0420721,-0.216316,0.133699,0
2024-12-11 19:44:11.100,-0.986441,1.1994,6.90688,-0.0420721,-0.216316,0.133699,0
2024-12-11 19:44:11.102,-1.00798,1.22812,6.98106,-0.0793338,-0.241361,0.132477,0
2024-12-11 19:44:11.105,-1.03908,1.25683,7.06032,-0.0921616,-0.248691,0.133088,0
2024-12-11 19:44:11.108,-1.07258,1.28315,7.16561,-0.115985,-0.263352,0.133088,0
2024-12-11 19:44:11.109,-1.09412,1.30469,7.2685,-0.115985,-0.263352,0.133088,0
2024-12-11 19:44:11.113,-1.0989,1.32383,7.3666,-0.133088,-0.266406,0.136143,0
2024-12-11 19:44:11.114,-1.09651,1.33101,7.46471,-0.133088,-0.266406,0.136143,0
2024-12-11 19:44:11.117,-1.08933,1.32861,7.54607,-0.136143,-0.265795,0.138586,0
2024-12-11 19:44:11.119,-1.1013,1.34297,7.62533,-0.139197,-0.265184,0.141029,0
2024-12-11 19:44:11.122,-1.10608,1.35015,7.71147,-0.144694,-0.266406,0.145305,0
2024-12-11 19:44:11.126,-1.11326,1.35254,7.867,-0.143473,-0.268849,0.147749,0
2024-12-11 19:44:11.127,-1.11326,1.35254,7.867,-0.145916,-0.268849,0.149581,0
2024-12-11 19:44:11.129,-1.12283,1.33819,7.91247,-0.145305,-0.270682,0.153246,0
2024-12-11 19:44:11.130,-1.1348,1.34297,7.96032,-0.145305,-0.270682,0.153246,0
2024-12-11 19:44:11.133,-1.14676,1.36211,8.00579,-0.145916,-0.271903,0.159966,0
2024-12-11 19:44:11.135,-1.1683,1.38126,8.05604,-0.143473,-0.271293,0.165463,0
2024-12-11 19:44:11.139,-1.19701,1.40788,8.11107,-0.14164,-0.268849,0.180124,0
2024-12-11 19:44:11.140,-1.22812,1.45095,8.14965,-0.14164,-0.268849,0.180124,0
2024-12-11 19:44:11.143,-1.25204,1.49641,8.2023,-0.137975,-0.26213,0.201503,0
2024-12-11 19:44:11.145,-1.25683,1.52991,8.26451,-0.137975,-0.26213,0.201503,0
2024-12-11 19:44:11.147,-1.25683,1.57298,8.31476,-0.133699,-0.256632,0.211888,0
2024-12-11 19:44:11.149,-1.24247,1.61366,8.37697,-0.130645,-0.24808,0.225326,0
2024-12-11 19:44:11.152,-1.19701,1.63759,8.43201,-0.124536,-0.237696,0.237543,0
2024-12-11 19:44:11.154,-1.14437,1.67109,8.48944,-0.117817,-0.226701,0.250371,0
2024-12-11 19:44:11.156,-1.08694,1.70698,8.53251,-0.109265,-0.210819,0.262588,0
2024-12-11 19:44:11.160,-1.02233,1.7333,8.55165,-0.0952158,-0.174779,0.284578,0
2024-12-11 19:44:11.161,-0.964906,1.77398,8.57079,-0.0952158,-0.174779,0.284578,0
2024-12-11 19:44:11.163,-0.929013,1.80987,8.58754,-0.0891073,-0.152788,0.29313,0
2024-12-11 19:44:11.166,-0.878764,1.84816,8.58993,-0.0836097,-0.129576,0.301071,0
2024-12-11 19:44:11.168,-0.835394,1.9008,8.58993,-0.074447,-0.105753,0.309623,0
2024-12-11 19:44:11.171,-0.80668,1.95583,8.58993,-0.0695602,-0.0843733,0.317564,0
2024-12-11 19:44:11.173,-0.739681,2.0016,8.57318,-0.0603975,-0.0617719,0.323673,0
2024-12-11 19:44:11.175,-0.672682,2.06142,8.55643,-0.0555107,-0.0403923,0.328559,0
2024-12-11 19:44:11.179,-0.610469,2.14995,8.53251,-0.0487914,0.00175619,0.335279,0
2024-12-11 19:44:11.180,-0.541077,2.22174,8.49422,-0.0487914,0.00175619,0.335279,0
2024-12-11 19:44:11.183,-0.486042,2.27916,8.45354,-0.0445155,0.042683,0.334668,0
2024-12-11 19:44:11.185,-0.440578,2.34138,8.4009,-0.0445155,0.042683,0.334668,0
2024-12-11 19:44:11.187,-0.387936,2.42273,8.3339,-0.0439046,0.066506,0.334668,0
2024-12-11 19:44:11.190,-0.349651,2.48973,8.27169,-0.0469589,0.0878856,0.331003,0
2024-12-11 19:44:11.193,-0.308973,2.55703,8.20708,-0.0512348,0.106822,0.326116,0
2024-12-11 19:44:11.194,-0.275175,2.62881,8.16162,-0.058565,0.125758,0.324284,0
2024-12-11 19:44:11.197,-0.258425,2.70299,8.13021,-0.0646735,0.14164,0.323062,0
2024-12-11 19:44:11.200,-0.239282,2.7676,8.09193,-0.0805555,0.166074,0.310234,0
2024-12-11 19:44:11.202,-0.224925,2.82503,8.05604,-0.090329,0.175237,0.304736,0
2024-12-11 19:44:11.206,-0.200997,2.95663,8.02493,-0.101324,0.180124,0.29985,0
2024-12-11 19:44:11.206,-0.200997,2.95663,8.02493,-0.101324,0.180124,0.29985,0
2024-12-11 19:44:11.211,-0.181855,3.00449,8.05604,-0.118428,0.186843,0.284578,0
2024-12-11 19:44:11.212,-0.153141,3.04277,8.05604,-0.128812,0.18501,0.27847,0
2024-12-11 19:44:11.215,-0.119641,3.134,8.11825,-0.137975,0.183178,0.269307,0
2024-12-11 19:44:11.216,-0.119641,3.134,8.11825,-0.146527,0.18501,0.261366,0
2024-12-11 19:44:11.218,-0.114855,3.20339,8.14726,-0.146527,0.18501,0.261366,0
2024-12-11 19:44:11.221,-0.119641,3.268,8.17119,-0.151414,0.185621,0.250371,0
2024-12-11 19:44:11.223,-0.114855,3.31107,8.21187,-0.158744,0.18501,0.241208,0
2024-12-11 19:44:11.226,-0.119641,3.3685,8.25972,-0.167907,0.1844,0.224105,0
2024-12-11 19:44:11.229,-0.16989,3.48814,8.36501,-0.173404,0.183789,0.216164,0
2024-12-11 19:44:11.230,-0.16989,3.48814,8.36501,-0.173404,0.183789,0.216164,0
2024-12-11 19:44:11.232,-0.162712,3.53121,8.43201,-0.17768,0.183178,0.208223,0
2024-12-11 19:44:11.234,-0.155533,3.59103,8.48944,-0.17768,0.175848,0.198449,0
2024-12-11 19:44:11.236,-0.129212,3.64876,8.55883,-0.178902,0.17035,0.188065,0
2024-12-11 19:44:11.239,-0.0837488,3.69183,8.64975,-0.179513,0.161187,0.180124,0
2024-12-11 19:44:11.241,-0.0382852,3.7325,8.74337,-0.177069,0.152025,0.17035,0
2024-12-11 19:44:11.245,0.0143569,3.76361,8.84626,-0.176459,0.142251,0.160576,0
2024-12-11 19:44:11.249,0.117248,3.82343,9.04487,-0.159355,0.114152,0.117206,0
2024-12-11 19:44:11.249,0.117248,3.82343,9.04487,-0.159355,0.114152,0.117206,0
2024-12-11 19:44:11.251,0.167498,3.8665,9.1334,-0.159355,0.114152,0.117206,0
2024-12-11 19:44:11.254,0.210568,3.90718,9.22912,-0.142862,0.0909399,0.0878856,0
2024-12-11 19:44:11.258,0.251246,3.97657,9.43759,-0.132477,0.0781121,0.0720036,0
2024-12-11 19:44:11.258,0.251246,3.97657,9.43759,-0.132477,0.0781121,0.0720036,0
2024-12-11 19:44:11.260,0.246461,4.0005,9.52852,-0.123315,0.0610084,0.0555107,0
2024-12-11 19:44:11.263,0.217747,4.02921,9.61466,-0.110487,0.0457372,0.0390179,0
2024-12-11 19:44:11.267,0.102891,4.06511,9.78455,-0.0884965,0.014584,0.0115297,0
2024-12-11 19:44:11.267,0.102891,4.06511,9.78455,-0.0884965,0.014584,0.0115297,0
2024-12-11 19:44:11.270,0.040678,4.08903,9.86381,-0.0738362,0.00114534,-0.0019089,0
2024-12-11 19:44:11.272,-0.00478565,4.11536,9.95713,-0.0597867,-0.00923906,-0.0110716,0
2024-12-11 19:44:11.274,-0.0526421,4.1345,10.0552,-0.042683,-0.0190126,-0.0196235,0
2024-12-11 19:44:11.276,-0.114855,4.14646,10.1366,-0.030466,-0.0300079,-0.0257319,0
2024-12-11 19:44:11.279,-0.167498,4.16561,10.1988,-0.0139731,-0.0379489,-0.0324513,0
2024-12-11 19:44:11.282,-0.227318,4.18235,10.2634,0.00251974,-0.041614,-0.0355055,0
2024-12-11 19:44:11.284,-0.275175,4.18475,10.3184,0.0202343,-0.0440574,-0.0385597,0
2024-12-11 19:44:11.286,-0.318545,4.18475,10.3472,0.037338,-0.0452791,-0.0379489,0
2024-12-11 19:44:11.288,-0.359223,4.19193,10.3807,0.037338,-0.0452791,-0.0379489,0
2024-12-11 19:44:11.291,-0.380758,4.21137,10.4025,0.065437,-0.0489441,-0.0379489,0
2024-12-11 19:44:11.293,-0.392722,4.23769,10.4049,0.065437,-0.0489441,-0.0379489,0
2024-12-11 19:44:11.295,-0.387936,4.24726,10.3881,0.0910926,-0.0501658,-0.0355055,0
2024-12-11 19:44:11.298,-0.380758,4.23769,10.3663,0.0984228,-0.0526092,-0.0355055,0
2024-12-11 19:44:11.300,-0.371187,4.24008,10.3328,0.105753,-0.057496,-0.0367272,0
2024-12-11 19:44:11.302,-0.347258,4.26401,10.2897,0.109418,-0.0629936,-0.0379489,0
2024-12-11 19:44:11.305,-0.304188,4.28076,10.2443,0.108807,-0.073378,-0.0397814,0
2024-12-11 19:44:11.307,-0.239282,4.31187,10.2012,0.10392,-0.085595,-0.0422248,0
2024-12-11 19:44:11.309,-0.150748,4.34058,10.1581,0.0953685,-0.100255,-0.0452791,0
2024-12-11 19:44:11.312,-0.0717847,4.37169,10.1151,0.0849841,-0.116748,-0.0507767,0
2024-12-11 19:44:11.314,0.00239282,4.39562,10.0696,0.0697129,-0.136295,-0.0599394,0
2024-12-11 19:44:11.319,0.20339,4.42911,10.0074,0.0226777,-0.194937,-0.0825407,0
2024-12-11 19:44:11.319,0.20339,4.42911,10.0074,0.0226777,-0.194937,-0.0825407,0
2024-12-11 19:44:11.321,0.325723,4.43629,9.99542,-0.0115297,-0.231587,-0.0984228,0
2024-12-11 19:44:11.324,0.442971,4.45065,9.98585,-0.0457372,-0.274347,-0.118581,0
2024-12-11 19:44:11.326,0.555434,4.46261,9.99781,-0.086664,-0.325047,-0.142404,0
2024-12-11 19:44:11.328,0.677468,4.48894,10.0409,-0.132477,-0.380634,-0.167449,0
2024-12-11 19:44:11.331,0.792323,4.52004,10.1246,-0.180124,-0.438665,-0.19738,0
2024-12-11 19:44:11.334,0.924228,4.54397,10.2443,-0.232656,-0.50036,-0.23342,0
2024-12-11 19:44:11.335,1.07258,4.56072,10.3929,-0.287022,-0.56511,-0.271293,0
2024-12-11 19:44:11.338,1.21376,4.58465,10.5628,-0.34322,-0.628638,-0.311608,0
2024-12-11 19:44:11.340,1.35254,4.59661,10.7734,-0.400639,-0.688501,-0.358644,0
2024-12-11 19:44:11.343,1.46052,4.59183,11.0154,-0.457448,-0.744699,-0.408733,0
2024-12-11 19:44:11.345,1.57777,4.57508,11.2905,-0.51609,-0.799065,-0.458212,0
2024-12-11 19:44:11.347,1.68066,4.54397,11.6234,-0.570455,-0.854652,-0.510745,0
2024-12-11 19:44:11.350,1.74048,4.50568,11.9943,-0.62482,-0.909628,-0.566943,0
2024-12-11 19:44:11.352,1.78116,4.46501,12.3847,-0.673077,-0.956052,-0.621308,0
2024-12-11 19:44:11.355,1.79312,4.40997,12.7893,-0.716447,-0.998201,-0.673841,0
2024-12-11 19:44:11.357,1.79312,4.36212,13.2156,-0.753098,-1.02813,-0.725152,0
2024-12-11 19:44:11.359,1.77876,4.33101,13.6271,-0.784862,-1.0489,-0.777685,0
2024-12-11 19:44:11.361,1.74048,4.27358,14.0151,-0.812961,-1.0599,-0.822888,0
2024-12-11 19:44:11.364,1.68784,4.19432,14.403,-0.832508,-1.06417,-0.866869,0
2024-12-11 19:44:11.366,1.6328,4.101,14.7811,-0.84778,-1.06051,-0.905352,0
2024-12-11 19:44:11.368,1.58016,3.99571,15.1451,-0.856942,-1.05134,-0.941392,0
2024-12-11 19:44:11.371,1.49402,3.90239,15.4995,-0.856942,-1.03546,-0.971323,0
2024-12-11 19:44:11.373,1.39083,3.82104,15.8417,-0.854499,-1.01164,-0.995147,0
2024-12-11 19:44:11.376,1.28315,3.7349,16.1483,-0.846558,-0.979875,-1.01408,0
2024-12-11 19:44:11.378,1.15872,3.65115,16.4306,-0.829454,-0.940781,-1.02508,0
2024-12-11 19:44:11.380,1.02473,3.57906,16.6941,-0.806242,-0.899854,-1.02691,0
2024-12-11 19:44:11.385,0.710967,3.45224,17.0913,-0.745768,-0.783793,-1.01286,0
2024-12-11 19:44:11.386,0.710967,3.45224,17.0913,-0.745768,-0.783793,-1.01286,0
2024-12-11 19:44:11.387,0.514756,3.42114,17.2161,-0.70362,-0.712324,-0.994536,0
2024-12-11 19:44:11.391,0.325723,3.40917,17.2831,-0.61016,-0.544341,-0.927953,0
2024-12-11 19:44:11.392,0.150748,3.38764,17.3285,-0.61016,-0.544341,-0.927953,0
2024-12-11 19:44:11.394,0.0,3.37567,17.3261,-0.558849,-0.458823,-0.885194,0
2024-12-11 19:44:11.397,-0.119641,3.33978,17.2687,-0.500818,-0.370861,-0.833272,0
2024-12-11 19:44:11.399,-0.191426,3.27757,17.161,-0.448896,-0.296337,-0.777074,1
2024-12-11 19:44:11.401,-0.22014,3.21057,16.9956,-0.394531,-0.227922,-0.718433,0
2024-12-11 19:44:11.405,-0.222533,3.12443,16.7683,-0.295574,-0.127743,-0.596263,0
2024-12-11 19:44:11.406,-0.18664,3.04277,16.5072,-0.295574,-0.127743,-0.596263,0
2024-12-11 19:44:11.408,-0.0909273,2.95185,16.2177,-0.250371,-0.0953685,-0.541287,0
2024-12-11 19:44:11.411,0.0550349,2.85135,15.9063,-0.213109,-0.0739889,-0.488143,0
2024-12-11 19:44:11.413,0.246461,2.7676,15.5689,-0.1844,-0.0648262,-0.439886,0
2024-12-11 19:44:11.415,0.442971,2.70778,15.2216,-0.158744,-0.0623828,-0.400181,0
2024-12-11 19:44:11.420,0.847657,2.66949,14.5633,-0.130645,-0.065437,-0.338486,0
2024-12-11 19:44:11.421,0.847657,2.66949,14.5633,-0.130645,-0.065437,-0.338486,0
2024-12-11 19:44:11.423,1.04865,2.70299,14.2878,-0.131256,-0.0666587,-0.320771,0
2024-12-11 19:44:11.425,1.24008,2.76281,14.0366,-0.129423,-0.065437,-0.309776,0
2024-12-11 19:44:11.427,1.40279,2.84417,13.8165,-0.133699,-0.0568851,-0.3055,0
2024-12-11 19:44:11.430,1.52752,2.94706,13.6415,-0.143473,-0.0452791,-0.307333,0
2024-12-11 19:44:11.432,1.61845,3.06192,13.5123,-0.149581,-0.0238994,-0.311608,0
2024-12-11 19:44:11.434,1.70219,3.19382,13.4357,-0.158744,0.010308,-0.320771,0
2024-12-11 19:44:11.437,1.75484,3.33021,13.3807,-0.161798,0.0536782,-0.331156,0
2024-12-11 19:44:11.439,1.80509,3.41157,13.328,-0.160576,0.103157,-0.345205,0
2024-12-11 19:44:11.442,1.86251,3.44507,13.2897,-0.156301,0.167296,-0.361698,0
2024-12-11 19:44:11.445,1.93191,3.45942,13.2515,-0.131256,0.308401,-0.403846,0
2024-12-11 19:44:11.446,2.00638,3.40678,13.1602,-0.131256,0.308401,-0.403846,0
2024-12-11 19:44:11.448,2.04945,3.3015,13.0286,-0.111709,0.385979,-0.431335,0
2024-12-11 19:44:11.452,2.07577,3.18425,12.8779,-0.0695602,0.544189,-0.496084,0
2024-12-11 19:44:11.454,2.07577,3.06431,12.6984,-0.0420721,0.621155,-0.531513,0
2024-12-11 19:44:11.457,2.04945,2.90878,12.4995,-0.0139731,0.699955,-0.567553,0
2024-12-11 19:44:11.458,1.98485,2.75324,12.2578,-0.0139731,0.699955,-0.567553,0
2024-12-11 19:44:11.460,1.9008,2.62164,11.9824,0.0147367,0.770202,-0.604204,0
2024-12-11 19:44:11.463,1.78116,2.48495,11.6952,0.0397814,0.836861,-0.638412,0
2024-12-11 19:44:11.466,1.62323,2.37488,11.3982,0.0886492,0.957808,-0.691555,0
2024-12-11 19:44:11.468,1.44616,2.27916,11.0919,0.0886492,0.957808,-0.691555,0
2024-12-11 19:44:11.471,1.24008,2.18345,10.759,0.138739,1.05554,-0.726374,0
2024-12-11 19:44:11.472,1.00798,2.09731,10.3953,0.138739,1.05554,-0.726374,0
2024-12-11 19:44:11.474,0.761217,1.9992,10.0193,0.15401,1.08425,-0.736758,0
2024-12-11 19:44:11.478,0.457328,1.9008,9.57159,0.152788,1.07082,-0.726374,0
2024-12-11 19:44:11.480,0.066999,1.83859,8.94676,0.124078,1.02378,-0.708048,0
2024-12-11 19:44:11.482,-0.20339,1.74287,8.35065,0.124078,1.02378,-0.708048,0
2024-12-11 19:44:11.485,-0.318545,1.5993,8.07039,0.101477,1.02195,-0.68728,0
2024-12-11 19:44:11.486,-0.404686,1.4988,8.04407,0.0892601,1.04272,-0.663456,0
2024-12-11 19:44:11.488,-0.452543,1.40788,8.11825,0.093536,1.06471,-0.639633,0
2024-12-11 19:44:11.491,-0.502792,1.2999,8.20469,0.100255,1.06837,-0.618865,0
2024-12-11 19:44:11.494,-0.56022,1.18026,8.28605,0.111861,1.05127,-0.600539,0
2024-12-11 19:44:11.497,-0.639183,1.03669,8.36979,0.128354,1.01523,-0.587101,0
2024-12-11 19:44:11.498,-0.739681,0.938585,8.43919,0.149123,0.962084,-0.574884,0
2024-12-11 19:44:11.501,-0.842872,0.9003,8.45833,0.17539,0.900389,-0.56511,0
2024-12-11 19:44:11.504,-0.950549,0.885943,8.42244,0.229755,0.762261,-0.548006,0
2024-12-11 19:44:11.505,-1.06301,0.9003,8.3674,0.229755,0.762261,-0.548006,0
2024-12-11 19:44:11.507,-1.18505,0.931406,8.31237,0.254189,0.693235,-0.537622,0
2024-12-11 19:44:11.510,-1.33101,0.991227,8.25015,0.284731,0.619934,-0.526016,0
2024-12-11 19:44:11.512,-1.47727,1.05583,8.22144,0.311608,0.541745,-0.513188,0
2024-12-11 19:44:11.515,-1.5993,1.10848,8.20708,0.340929,0.461113,-0.497917,0
2024-12-11 19:44:11.517,-1.69262,1.18026,8.15205,0.36292,0.376816,-0.480202,0
2024-12-11 19:44:11.520,-1.76201,1.26162,8.10389,0.387964,0.297406,-0.463709,0
2024-12-11 19:44:11.521,-1.82184,1.30708,8.08475,0.411177,0.21372,-0.448438,0
2024-12-11 19:44:11.524,-1.88405,1.32622,8.05843,0.433778,0.12698,-0.431945,0
2024-12-11 19:44:11.526,-1.89123,1.33579,8.02254,0.455158,0.0420721,-0.416063,0
2024-12-11 19:44:11.529,-1.86969,1.32861,7.99382,0.474705,-0.0465007,-0.39957,0
2024-12-11 19:44:11.531,-1.84337,1.31665,7.96272,0.49303,-0.129576,-0.384299,0
2024-12-11 19:44:11.533,-1.80509,1.28076,7.91964,0.508912,-0.212651,-0.370861,0
2024-12-11 19:44:11.537,-1.75484,1.22572,7.87418,0.519907,-0.296337,-0.361698,0
2024-12-11 19:44:11.538,-1.65912,1.17069,7.82632,0.533957,-0.37758,-0.353757,0
2024-12-11 19:44:11.540,-1.55145,1.11565,7.77847,0.540676,-0.456379,-0.347038,0
2024-12-11 19:44:11.544,-1.45573,1.04865,7.74258,0.545563,-0.540065,-0.343983,0
2024-12-11 19:44:11.545,-1.35254,0.991227,7.71147,0.544952,-0.619475,-0.340929,0
2024-12-11 19:44:11.548,-1.24008,0.938585,7.6995,0.542509,-0.693388,-0.336042,0
2024-12-11 19:44:11.550,-1.1348,0.878764,7.71625,0.537011,-0.763025,-0.33421,0
2024-12-11 19:44:11.552,-1.03908,0.821037,7.74497,0.531513,-0.825331,-0.33421,0
2024-12-11 19:44:11.554,-0.929013,0.777966,7.78086,0.519907,-0.882751,-0.331766,0
2024-12-11 19:44:11.557,-0.804287,0.74686,7.81675,0.513799,-0.933451,-0.328712,0
2024-12-11 19:44:11.559,-0.672682,0.710967,7.85743,0.504636,-0.974989,-0.330545,0
2024-12-11 19:44:11.563,-0.52672,0.670289,7.91725,0.475316,-1.04096,-0.332988,0
2024-12-11 19:44:11.564,-0.385544,0.634397,7.97947,0.475316,-1.04096,-0.332988,0
2024-12-11 19:44:11.566,-0.260818,0.591326,8.04886,0.460044,-1.066,-0.336042,0
2024-12-11 19:44:11.570,-0.131605,0.567398,8.11346,0.425837,-1.09227,-0.350703,0
2024-12-11 19:44:11.572,-0.0215354,0.56022,8.17119,0.408733,-1.09471,-0.358033,0
2024-12-11 19:44:11.574,0.0837488,0.562612,8.25494,0.408733,-1.09471,-0.358033,0
2024-12-11 19:44:11.576,0.18664,0.579362,8.35783,0.387964,-1.09044,-0.365363,0
2024-12-11 19:44:11.578,0.248854,0.600898,8.45354,0.368417,-1.08067,-0.376358,0
2024-12-11 19:44:11.580,0.30658,0.65354,8.54686,0.351924,-1.0599,-0.386132,0
2024-12-11 19:44:11.583,0.375972,0.691825,8.63301,0.335431,-1.03791,-0.397738,0
2024-12-11 19:44:11.585,0.435793,0.708575,8.71705,0.317106,-1.00614,-0.408122,0
2024-12-11 19:44:11.587,0.495613,0.74686,8.81277,0.304278,-0.964604,-0.419728,0
2024-12-11 19:44:11.590,0.562612,0.775574,8.9013,0.286564,-0.917569,-0.431335,0
2024-12-11 19:44:11.592,0.627219,0.80668,8.99223,0.272514,-0.864425,-0.441108,0
2024-12-11 19:44:11.594,0.658325,0.837787,9.07358,0.260297,-0.80273,-0.451492,0
2024-12-11 19:44:11.597,0.670289,0.8668,9.1358,0.246859,-0.736758,-0.46432,0
2024-12-11 19:44:11.599,0.675075,0.885943,9.18605,0.23342,-0.664678,-0.477148,0
2024-12-11 19:44:11.602,0.641576,0.897907,9.21476,0.227312,-0.587711,-0.488754,0
2024-12-11 19:44:11.604,0.572184,0.924228,9.24826,0.218149,-0.506469,-0.496695,0
2024-12-11 19:44:11.606,0.488435,0.96012,9.27966,0.210819,-0.422172,-0.50708,0
2024-12-11 19:44:11.609,0.390329,0.986441,9.27966,0.207764,-0.33421,-0.511966,0
2024-12-11 19:44:11.612,0.294616,1.00558,9.26292,0.20471,-0.155232,-0.511966,0
2024-12-11 19:44:11.614,0.181855,1.02473,9.2363,0.20471,-0.155232,-0.511966,0
2024-12-11 19:44:11.617,0.0622134,1.01515,9.17169,0.208986,0.0158057,-0.499749,0
2024-12-11 19:44:11.618,-0.040678,1.0008,9.07119,0.208986,0.0158057,-0.499749,0
2024-12-11 19:44:11.621,-0.153141,0.996012,8.9683,0.21204,0.0970484,-0.488754,0
2024-12-11 19:44:11.623,-0.253639,0.957727,8.83669,0.213262,0.175237,-0.477148,0
2024-12-11 19:44:11.625,-0.342473,0.924228,8.68325,0.213262,0.248538,-0.459433,0
2024-12-11 19:44:11.628,-0.419043,0.9003,8.51336,0.214484,0.315732,-0.444162,0
2024-12-11 19:44:11.630,-0.493221,0.885943,8.35065,0.215095,0.377427,-0.424004,0
2024-12-11 19:44:11.632,-0.579362,0.902692,8.19273,0.213873,0.434236,-0.403236,0
2024-12-11 19:44:11.635,-0.658325,0.929013,8.02732,0.216316,0.487991,-0.380023,0
2024-12-11 19:44:11.637,-0.732503,0.957727,7.87897,0.21204,0.53808,-0.358644,0
2024-12-11 19:44:11.639,-0.789931,0.998405,7.74018,0.21143,0.58145,-0.333599,0
2024-12-11 19:44:11.643,-0.835394,1.02951,7.60618,0.207764,0.622377,-0.306722,0
2024-12-11 19:44:11.644,-0.8668,1.05583,7.47907,0.205932,0.655974,-0.280455,0
2024-12-11 19:44:11.647,-0.881157,1.09173,7.34268,0.203488,0.71095,-0.229144,0
2024-12-11 19:44:11.650,-0.897907,1.11326,7.20868,0.199213,0.729886,-0.202267,0
2024-12-11 19:44:11.652,-0.905085,1.14437,7.09621,0.196769,0.745768,-0.177833,0
2024-12-11 19:44:11.654,-0.912264,1.18983,6.97149,0.196769,0.745768,-0.177833,0
2024-12-11 19:44:11.658,-0.914656,1.25204,6.76092,0.189439,0.757985,-0.132019,0
2024-12-11 19:44:11.659,-0.914656,1.25204,6.76092,0.189439,0.757985,-0.132019,0
2024-12-11 19:44:11.660,-0.912264,1.31426,6.68196,0.183331,0.756153,-0.109418,0
2024-12-11 19:44:11.663,-0.914656,1.35733,6.61257,0.180276,0.750044,-0.0862058,0
2024-12-11 19:44:11.665,-0.909871,1.41266,6.57667,0.176611,0.742103,-0.0636045,0
2024-12-11 19:44:11.668,-0.890728,1.49402,6.54796,0.174779,0.731719,-0.0428357,0
2024-12-11 19:44:11.670,-0.857229,1.56341,6.51446,0.177222,0.713393,-0.0226777,0
2024-12-11 19:44:11.672,-0.835394,1.62084,6.50489,0.179055,0.699344,-0.00435229,0
2024-12-11 19:44:11.676,-0.789931,1.69262,6.51685,0.179665,0.677964,0.0151948,0
2024-12-11 19:44:11.678,-0.737288,1.74287,6.52164,0.19005,0.626653,0.0469589,0
2024-12-11 19:44:11.679,-0.694218,1.78355,6.54317,0.19005,0.626653,0.0469589,0
2024-12-11 19:44:11.683,-0.639183,1.85773,6.57667,0.210819,0.565568,0.0750579,0
2024-12-11 19:44:11.684,-0.596112,1.92951,6.59582,0.210819,0.565568,0.0750579,0
2024-12-11 19:44:11.686,-0.54347,1.97528,6.61257,0.219981,0.535637,0.0884965,0
2024-12-11 19:44:11.689,-0.493221,2.03988,6.63649,0.229755,0.505705,0.0994917,0
2024-12-11 19:44:11.691,-0.457328,2.09731,6.65085,0.246859,0.475163,0.107433,0
2024-12-11 19:44:11.694,-0.409472,2.14038,6.65803,0.263352,0.44462,0.114152,0
2024-12-11 19:44:11.696,-0.371187,2.18345,6.64846,0.278012,0.417132,0.124536,0
2024-12-11 19:44:11.698,-0.349651,2.22413,6.63889,0.292672,0.385368,0.131256,0
2024-12-11 19:44:11.700,-0.32333,2.27438,6.61974,0.309776,0.356658,0.140419,0
2024-12-11 19:44:11.703,-0.260818,2.32702,6.57667,0.323215,0.323673,0.147138,0
2024-12-11 19:44:11.705,-0.196211,2.3677,6.53121,0.337264,0.290687,0.155079,0
2024-12-11 19:44:11.708,-0.148355,2.39163,6.48575,0.347038,0.255258,0.161798,0
2024-12-11 19:44:11.711,-0.0957129,2.41795,6.42563,0.36292,0.17768,0.168517,0
2024-12-11 19:44:11.712,-0.0358923,2.44905,6.36581,0.36292,0.17768,0.168517,0
2024-12-11 19:44:11.716,0.0215354,2.47537,6.32034,0.369639,0.13431,0.172793,0
2024-12-11 19:44:11.719,0.122034,2.56421,6.23899,0.367806,0.0475697,0.175237,0
2024-12-11 19:44:11.719,0.122034,2.56421,6.23899,0.367806,0.0475697,0.175237,0
2024-12-11 19:44:11.722,0.16989,2.60249,6.21027,0.364141,0.00419957,0.178291,0
2024-12-11 19:44:11.725,0.215354,2.6671,6.19352,0.348259,-0.0819299,0.181345,0
2024-12-11 19:44:11.726,0.277567,2.74128,6.20309,0.348259,-0.0819299,0.181345,0
2024-12-11 19:44:11.730,0.347258,2.81306,6.21984,0.32749,-0.16867,0.180734,0
2024-12-11 19:44:11.732,0.3999,2.87049,6.23181,0.31283,-0.210208,0.178291,0
2024-12-11 19:44:11.733,0.469292,2.93988,6.27249,0.31283,-0.210208,0.178291,0
2024-12-11 19:44:11.736,0.541077,3.02602,6.32513,0.298781,-0.245026,0.178902,0
2024-12-11 19:44:11.738,0.615255,3.11246,6.38256,0.279844,-0.279234,0.172793,0
2024-12-11 19:44:11.742,0.699003,3.18425,6.45464,0.263962,-0.307943,0.167296,0
2024-12-11 19:44:11.743,0.775574,3.25843,6.536,0.246859,-0.332988,0.158744,0
2024-12-11 19:44:11.746,0.847657,3.34218,6.61496,0.207764,-0.367806,0.137364,0
2024-12-11 19:44:11.748,0.912264,3.41875,6.69153,0.207764,-0.367806,0.137364,0
2024-12-11 19:44:11.751,0.979263,3.48574,6.76571,0.166227,-0.381856,0.111098,0
2024-12-11 19:44:11.752,1.01994,3.55035,6.8351,0.166227,-0.381856,0.111098,0
2024-12-11 19:44:11.755,1.03908,3.62692,6.88774,0.143015,-0.384299,0.0958267,0
2024-12-11 19:44:11.757,1.05105,3.71336,6.94756,0.117359,-0.385521,0.0787229,0
2024-12-11 19:44:11.759,1.06301,3.79472,7.03161,0.0886492,-0.385521,0.0610084,0
2024-12-11 19:44:11.763,1.07019,3.8689,7.10579,0.0623828,-0.381245,0.0414613,0
2024-12-11 19:44:11.764,1.07737,3.93111,7.16321,0.0306187,-0.375137,0.0213033,0
2024-12-11 19:44:11.767,1.08933,3.97179,7.235,-0.00175619,-0.37025,-0.000687203,0
2024-12-11 19:44:11.769,1.10608,4.01964,7.31396,-0.0329094,-0.361087,-0.0208452,0
2024-12-11 19:44:11.771,1.12283,4.04836,7.39053,-0.0646735,-0.351924,-0.0428357,0
2024-12-11 19:44:11.773,1.12044,4.05793,7.46949,-0.0994917,-0.34154,-0.0684913,0
2024-12-11 19:44:11.776,1.12522,4.08186,7.55803,-0.136143,-0.332377,-0.093536,0
2024-12-11 19:44:11.779,1.11326,4.11536,7.65404,-0.177069,-0.320771,-0.119802,0
2024-12-11 19:44:11.781,1.06301,4.14168,7.7689,-0.212498,-0.309776,-0.143015,0
2024-12-11 19:44:11.783,0.996012,4.15125,7.91247,-0.248538,-0.297559,-0.169281,0
2024-12-11 19:44:11.785,0.933799,4.19193,8.05843,-0.285189,-0.282899,-0.193104,0
2024-12-11 19:44:11.789,0.847657,4.2329,8.20469,-0.318175,-0.268238,-0.218149,0
2024-12-11 19:44:11.790,0.749253,4.2353,8.36262,-0.349939,-0.252967,-0.240139,0
2024-12-11 19:44:11.792,0.643968,4.24726,8.5349,-0.378649,-0.236474,-0.260297,0
2024-12-11 19:44:11.795,0.524327,4.25922,8.71466,-0.409191,-0.220592,-0.277401,0
2024-12-11 19:44:11.797,0.402293,4.25683,8.90369,-0.432404,-0.201656,-0.296948,0
2024-12-11 19:44:11.799,0.304188,4.24487,9.10708,-0.454394,-0.186996,-0.313441,0
2024-12-11 19:44:11.802,0.22014,4.21855,9.31316,-0.470276,-0.173557,-0.32749,0
2024-12-11 19:44:11.804,0.117248,4.17757,9.50459,-0.482493,-0.159507,-0.34154,0
2024-12-11 19:44:11.806,0.00717847,4.11775,9.67927,-0.497764,-0.150956,-0.352535,0
2024-12-11 19:44:11.810,-0.105284,4.05075,9.87578,-0.504483,-0.141793,-0.358644,0
2024-12-11 19:44:11.816,-0.435793,3.90718,10.4504,-0.508149,-0.135684,-0.374526,0
2024-12-11 19:44:11.818,-0.538684,3.84736,10.625,-0.503873,-0.146069,-0.376358,0
2024-12-11 19:44:11.818,-0.538684,3.84736,10.625,-0.503873,-0.146069,-0.376358,0
2024-12-11 19:44:11.819,-0.538684,3.84736,10.625,-0.503873,-0.146069,-0.376358,0
2024-12-11 19:44:11.821,-0.651147,3.79232,10.7638,-0.495932,-0.157064,-0.374526,0
2024-12-11 19:44:11.824,-0.768395,3.74925,10.8978,-0.487991,-0.171114,-0.370861,0
2024-12-11 19:44:11.825,-0.885943,3.70858,11.0441,-0.48005,-0.184552,-0.365363,0
2024-12-11 19:44:11.828,-1.00558,3.67029,11.1709,-0.464778,-0.201045,-0.359255,0
2024-12-11 19:44:11.830,-1.0989,3.62931,11.2977,-0.454394,-0.220592,-0.348259,0
2024-12-11 19:44:11.832,-1.18265,3.60299,11.4269,-0.439123,-0.243194,-0.338486,0
2024-12-11 19:44:11.835,-1.25922,3.58624,11.5612,-0.423241,-0.267017,-0.32749,0
2024-12-11 19:44:11.837,-1.30947,3.5671,11.6833,-0.412856,-0.292672,-0.314052,0
2024-12-11 19:44:11.840,-1.36211,3.56231,11.7933,-0.396974,-0.319549,-0.299392,0
2024-12-11 19:44:11.842,-1.40548,3.57428,11.889,-0.384147,-0.345205,-0.286564,0
2024-12-11 19:44:11.844,-1.43181,3.55514,11.9919,-0.370708,-0.368417,-0.271293,0
2024-12-11 19:44:11.847,-1.43181,3.54317,12.119,-0.356658,-0.392851,-0.256021,0
2024-12-11 19:44:11.849,-1.41984,3.56471,12.2411,-0.347496,-0.416674,-0.242583,0
2024-12-11 19:44:11.851,-1.39801,3.58385,12.3488,-0.331614,-0.436221,-0.226701,0
2024-12-11 19:44:11.854,-1.37647,3.60778,12.4564,-0.322451,-0.453325,-0.213873,0
2024-12-11 19:44:11.856,-1.36451,3.6341,12.5856,-0.311456,-0.464931,-0.202267,0
2024-12-11 19:44:11.859,-1.35494,3.66311,12.7056,-0.292519,-0.472872,-0.173557,0
2024-12-11 19:44:11.862,-1.35015,3.7014,12.7965,-0.292519,-0.472872,-0.173557,0
2024-12-11 19:44:11.863,-1.33819,3.73011,12.8874,-0.283968,-0.469207,-0.160118,0
2024-12-11 19:44:11.866,-1.31665,3.7684,12.9951,-0.276027,-0.45699,-0.145458,0
2024-12-11 19:44:11.869,-1.29512,3.80429,13.1004,-0.261977,-0.426448,-0.111251,0
2024-12-11 19:44:11.870,-1.27119,3.81386,13.2132,-0.261977,-0.426448,-0.111251,0
2024-12-11 19:44:11.873,-1.22333,3.82822,13.3113,-0.252814,-0.403236,-0.0947577,0
2024-12-11 19:44:11.876,-1.17547,3.84736,13.3831,-0.244873,-0.345816,-0.0568851,0
2024-12-11 19:44:11.877,-1.12762,3.85693,13.4572,-0.244873,-0.345816,-0.0568851,0
2024-12-11 19:44:11.880,-1.0654,3.85215,13.5338,-0.237543,-0.310387,-0.0385597,0
2024-12-11 19:44:11.882,-1.0319,3.8354,13.5817,-0.230824,-0.271293,-0.0184018,0
2024-12-11 19:44:11.884,-1.01515,3.84497,13.6032,-0.222883,-0.223036,0.00664296,0
2024-12-11 19:44:11.888,-1.01515,3.87368,13.6343,-0.215553,-0.169892,0.0310769,0
2024-12-11 19:44:11.889,-1.05344,3.90479,13.6343,-0.211888,-0.109418,0.0567324,0
2024-12-11 19:44:11.892,-1.0989,3.95025,13.6056,-0.203947,-0.0440574,0.0860531,0
2024-12-11 19:44:11.895,-1.14915,4.0005,13.5553,-0.200282,0.0677277,0.153857,0
2024-12-11 19:44:11.896,-1.17787,4.0675,13.4596,-0.200282,0.0677277,0.153857,0
2024-12-11 19:44:11.898,-1.18983,4.11296,13.3615,-0.200282,0.114152,0.189286,0
2024-12-11 19:44:11.901,-1.18505,4.13211,13.2682,-0.203947,0.145305,0.224105,0
2024-12-11 19:44:11.903,-1.14676,4.14168,13.1459,-0.214331,0.164852,0.257701,0
2024-12-11 19:44:11.906,-1.05105,4.14407,13.043,-0.229602,0.164242,0.287633,0
2024-12-11 19:44:11.908,-0.912264,4.1345,12.9497,-0.24976,0.147138,0.310234,0
2024-12-11 19:44:11.910,-0.734896,4.09861,12.8731,-0.27847,0.107433,0.327338,0
2024-12-11 19:44:11.912,-0.533899,4.06032,12.83,-0.311456,0.0555107,0.337111,0
2024-12-11 19:44:11.915,-0.292223,4.01725,12.8252,-0.349328,-0.00984991,0.338944,0
2024-12-11 19:44:11.917,-0.040678,3.98375,12.8779,-0.389033,-0.0953685,0.331614,0
2024-12-11 19:44:11.920,0.196211,3.97657,12.9903,-0.433014,-0.194937,0.317564,0
2024-12-11 19:44:11.923,0.447757,3.99093,13.1626,-0.525863,-0.42095,0.266253,0
2024-12-11 19:44:11.924,0.687039,3.99811,13.4022,-0.525863,-0.42095,0.266253,0
2024-12-11 19:44:11.928,0.905085,4.00768,13.7157,-0.613214,-0.660402,0.189286,0
2024-12-11 19:44:11.929,1.12283,4.02921,14.0821,-0.613214,-0.660402,0.189286,0
2024-12-11 19:44:11.931,1.34776,4.02921,14.5131,-0.647422,-0.772798,0.144694,0
2024-12-11 19:44:11.934,1.54427,4.01725,15.0015,-0.67491,-0.868701,0.0994917,0
2024-12-11 19:44:11.936,1.72373,3.99811,15.5354,-0.692014,-0.948111,0.0475697,0
2024-12-11 19:44:11.939,1.91994,3.95982,16.1124,-0.699344,-1.00736,-0.00618483,0
2024-12-11 19:44:11.941,2.09731,3.90479,16.6965,-0.695068,-1.04524,-0.0611611,0
2024-12-11 19:44:11.943,2.23609,3.82343,17.2735,-0.673688,-1.06356,-0.118581,0
2024-12-11 19:44:11.946,2.34138,3.71097,17.8074,-0.637037,-1.05867,-0.176,0
2024-12-11 19:44:11.948,2.42034,3.58864,18.2671,-0.593667,-1.03302,-0.234031,0
2024-12-11 19:44:11.950,2.49212,3.43071,18.6571,-0.533804,-0.980486,-0.291451,0
2024-12-11 19:44:11.953,2.5331,3.24407,18.9757,-0.459892,-0.909628,-0.347648,0
2024-12-11 19:44:11.956,2.52832,3.02842,19.2365,-0.381703,-0.825331,-0.400181,0
2024-12-11 19:44:11.957,2.48495,2.76999,19.4043,-0.294352,-0.727595,-0.447217,0
2024-12-11 19:44:11.961,2.4012,2.5017,19.433,-0.0952158,-0.502804,-0.526016,1
2024-12-11 19:44:11.962,2.26481,2.23849,19.3226,-0.0952158,-0.502804,-0.526016,0
2024-12-11 19:44:11.964,2.0662,1.98724,19.1073,0.00374144,-0.372693,-0.552893,0
2024-12-11 19:44:11.967,1.80509,1.73091,18.813,0.102699,-0.236474,-0.568775,0
2024-12-11 19:44:11.969,1.4988,1.48923,18.4274,0.206543,-0.093536,-0.575494,0
2024-12-11 19:44:11.972,1.16351,1.28076,17.9701,0.303667,0.0536782,-0.571219,0
2024-12-11 19:44:11.974,0.809073,1.08694,17.4745,0.395905,0.198449,-0.555947,0
2024-12-11 19:44:11.976,0.45015,0.917049,16.931,0.483257,0.344442,-0.527238,0
2024-12-11 19:44:11.978,0.0957129,0.770788,16.3277,0.560834,0.485547,-0.488143,0
2024-12-11 19:44:11.981,-0.256032,0.648754,15.6766,0.634136,0.62482,-0.440497,0
2024-12-11 19:44:11.984,-0.615255,0.548256,15.0039,0.69461,0.753709,-0.381856,0
2024-12-11 19:44:11.985,-0.955334,0.471685,14.3456,0.750197,0.871679,-0.31283,0
2024-12-11 19:44:11.988,-1.26162,0.397508,13.7157,0.794789,0.977966,-0.239528,0
2024-12-11 19:44:11.991,-1.50598,0.316152,13.0932,0.836326,1.07631,-0.160729,0
2024-12-11 19:44:11.993,-1.69023,0.244068,12.4756,0.864425,1.15694,-0.0788757,0
2024-12-11 19:44:11.995,-1.83859,0.179462,11.8819,0.888859,1.22658,0.00481042,0
2024-12-11 19:44:11.997,-1.94865,0.117248,11.3121,0.907185,1.284,0.0884965,0
2024-12-11 19:44:12.000,-2.01117,0.0550349,10.8021,0.917569,1.32981,0.169128,0
2024-12-11 19:44:12.002,-2.0351,-0.00717847,10.3352,0.923067,1.36097,0.246706,0
2024-12-11 19:44:12.005,-2.0327,-0.0502493,9.88056,0.926732,1.38296,0.320618,0
2024-12-11 19:44:12.008,-2.02074,-0.0693919,9.47348,0.917569,1.38968,0.44462,0
2024-12-11 19:44:12.010,-1.98724,-0.0693919,9.1023,0.910239,1.38174,0.500208,0
2024-12-11 19:44:12.011,-1.95823,-0.0550349,8.75055,0.910239,1.38174,0.500208,0
2024-12-11 19:44:12.014,-1.93191,-0.0167498,8.40569,0.894357,1.36708,0.550908,0
2024-12-11 19:44:12.016,-1.89601,0.0454636,8.08714,0.879086,1.34753,0.5955,0
2024-12-11 19:44:12.019,-1.8673,0.105284,7.82154,0.86076,1.32065,0.63154,0
2024-12-11 19:44:12.022,-1.8338,0.181855,7.58465,0.818001,1.23819,0.690181,0
2024-12-11 19:44:12.024,-1.8003,0.282652,7.37617,0.818001,1.23819,0.690181,0
2024-12-11 19:44:12.026,-1.74766,0.395115,7.18953,0.794178,1.18627,0.711561,0
2024-12-11 19:44:12.028,-1.67587,0.524327,7.03879,0.768522,1.13312,0.728054,0
2024-12-11 19:44:12.030,-1.58734,0.651147,6.90928,0.740423,1.06959,0.736071,0
2024-12-11 19:44:12.034,-1.47966,0.766002,6.79442,0.714157,1.00484,0.736071,0
2024-12-11 19:44:12.035,-1.35733,0.888335,6.71785,0.686669,0.937651,0.731108,0
2024-12-11 19:44:12.038,-1.22572,0.998405,6.65085,0.660402,0.869847,0.717669,0
2024-12-11 19:44:12.041,-1.10848,1.09412,6.59342,0.634136,0.795858,0.699955,0
2024-12-11 19:44:12.043,-1.01276,1.19222,6.55992,0.582214,0.635205,0.6462,0
2024-12-11 19:44:12.044,-0.933799,1.28315,6.54317,0.582214,0.635205,0.6462,0
2024-12-11 19:44:12.047,-0.852443,1.37647,6.53121,0.555337,0.549075,0.614436,0
2024-12-11 19:44:12.049,-0.761217,1.43898,6.51685,0.52907,0.457448,0.576563,0
2024-12-11 19:44:12.051,-0.663111,1.47966,6.52642,0.501582,0.360934,0.535026,0
2024-12-11 19:44:12.055,-0.553041,1.5323,6.57667,0.449049,0.160576,0.442788,0
2024-12-11 19:44:12.056,-0.41665,1.5658,6.6341,0.449049,0.160576,0.442788,0
2024-12-11 19:44:12.059,-0.277567,1.58016,6.68435,0.421561,0.0573433,0.393309,0
2024-12-11 19:44:12.061,-0.153141,1.57059,6.75613,0.395905,-0.0428357,0.339555,0
2024-12-11 19:44:12.064,-0.0119641,1.5347,6.86142,0.368417,-0.144236,0.284578,0
2024-12-11 19:44:12.066,0.114855,1.49641,6.99302,0.34154,-0.24075,0.230213,0
2024-12-11 19:44:12.068,0.227318,1.44616,7.14168,0.318939,-0.32749,0.174626,0
2024-12-11 19:44:12.070,0.332901,1.36929,7.30439,0.292672,-0.410566,0.121482,0
2024-12-11 19:44:12.074,0.421436,1.29512,7.47667,0.249913,-0.539454,0.0219141,0
2024-12-11 19:44:12.075,0.498006,1.21137,7.65404,0.249913,-0.539454,0.0219141,0
2024-12-11 19:44:12.077,0.555434,1.10608,7.8335,0.230366,-0.591376,-0.0245102,0
2024-12-11 19:44:12.080,0.610469,1.01755,8.01057,0.216927,-0.633525,-0.0684913,0
2024-12-11 19:44:12.082,0.660718,0.936192,8.21426,0.205321,-0.663456,-0.107585,0
2024-12-11 19:44:12.085,0.679861,0.837787,8.43919,0.191882,-0.691555,-0.143015,0
2024-12-11 19:44:12.088,0.706182,0.742074,8.65454,0.188217,-0.717211,-0.208986,0
2024-12-11 19:44:12.089,0.732503,0.670289,8.84148,0.188217,-0.717211,-0.208986,0
2024-12-11 19:44:12.091,0.722932,0.612862,9.01855,0.188217,-0.7166,-0.236474,0
2024-12-11 19:44:12.094,0.710967,0.553041,9.20997,0.194326,-0.702551,-0.257854,0
2024-12-11 19:44:12.096,0.71336,0.498006,9.38734,0.20471,-0.682393,-0.278012,0
2024-12-11 19:44:12.099,0.701396,0.447757,9.53809,0.220592,-0.652461,-0.295116,0
2024-12-11 19:44:12.101,0.665504,0.383151,9.65773,0.238307,-0.614589,-0.306722,0
2024-12-11 19:44:12.103,0.62004,0.313759,9.73669,0.257243,-0.569386,-0.315884,0
2024-12-11 19:44:12.107,0.533899,0.251246,9.78694,0.3055,-0.45699,-0.318939,0
2024-12-11 19:44:12.108,0.440578,0.196211,9.78216,0.3055,-0.45699,-0.318939,0
2024-12-11 19:44:12.110,0.344866,0.141177,9.73669,0.329323,-0.393462,-0.315884,0
2024-12-11 19:44:12.113,0.229711,0.11007,9.68405,0.351924,-0.32688,-0.306722,0
2024-12-11 19:44:12.115,0.112463,0.0861416,9.59791,0.376358,-0.256021,-0.295116,0
2024-12-11 19:44:12.117,-0.0239282,0.0478565,9.48784,0.397127,-0.186996,-0.276179,0
2024-12-11 19:44:12.121,-0.157926,0.026321,9.3682,0.433167,-0.0385597,-0.230366,0
2024-12-11 19:44:12.122,-0.275175,0.026321,9.21476,0.433167,-0.0385597,-0.230366,0
2024-12-11 19:44:12.125,-0.387936,0.040678,9.05683,0.449049,0.0359636,-0.199823,0
2024-12-11 19:44:12.127,-0.507577,0.0622134,8.89651,0.461266,0.111709,-0.167449,0
2024-12-11 19:44:12.129,-0.632004,0.0957129,8.7003,0.467985,0.190508,-0.128965,0
2024-12-11 19:44:12.133,-0.74686,0.122034,8.49901,0.477759,0.269918,-0.0898709,0
2024-12-11 19:44:12.134,-0.842872,0.136391,8.31237,0.482646,0.346885,-0.0477224,0
2024-12-11 19:44:12.136,-0.926621,0.177069,8.12303,0.484478,0.421408,-0.00557398,0
2024-12-11 19:44:12.140,-0.998405,0.234497,7.94118,0.483867,0.491656,0.0396287,0
2024-12-11 19:44:12.141,-1.05105,0.27996,7.76411,0.481424,0.558849,0.0842206,0
2024-12-11 19:44:12.144,-1.09651,0.316152,7.59183,0.47837,0.619934,0.128202,0
2024-12-11 19:44:12.146,-1.1324,0.364008,7.42642,0.474094,0.676132,0.171572,0
2024-12-11 19:44:12.148,-1.13958,0.428614,7.27089,0.466764,0.726832,0.21372,0
2024-12-11 19:44:12.151,-1.1324,0.500399,7.14886,0.463099,0.772645,0.254647,0
2024-12-11 19:44:12.153,-1.11805,0.557827,7.03639,0.457601,0.811816,0.294352,0
2024-12-11 19:44:12.155,-1.08694,0.615255,6.92842,0.451492,0.849078,0.327949,0
2024-12-11 19:44:12.158,-1.05823,0.682254,6.81835,0.450882,0.88695,0.363989,0
2024-12-11 19:44:12.160,-1.01276,0.742074,6.7011,0.447827,0.920547,0.395142,0
2024-12-11 19:44:12.162,-0.955334,0.801895,6.59342,0.447217,0.954143,0.425684,0
2024-12-11 19:44:12.166,-0.9003,0.857229,6.48814,0.445995,1.0134,0.479439,0
2024-12-11 19:44:12.168,-0.835394,0.912264,6.38495,0.444773,1.03722,0.50204,0
2024-12-11 19:44:12.170,-0.768395,0.957727,6.27727,0.445995,1.05188,0.52342,0
2024-12-11 19:44:12.172,-0.699003,1.01276,6.17917,0.445995,1.05188,0.52342,0
2024-12-11 19:44:12.174,-0.63679,1.07258,6.09542,0.447217,1.06532,0.542356,0
2024-12-11 19:44:12.176,-0.557827,1.12762,5.99013,0.448438,1.0702,0.560071,0
2024-12-11 19:44:12.180,-0.478864,1.2018,5.90638,0.444773,1.07326,0.574731,0
2024-12-11 19:44:12.181,-0.402293,1.27837,5.83669,0.44966,1.07143,0.58817,0
2024-12-11 19:44:12.183,-0.316152,1.36211,5.76012,0.447217,1.06959,0.601608,0
2024-12-11 19:44:12.187,-0.232104,1.44616,5.70987,0.452714,1.0531,0.618712,0
2024-12-11 19:44:12.188,-0.129212,1.51077,5.6357,0.452714,1.0531,0.618712,0
2024-12-11 19:44:12.191,-0.0382852,1.57537,5.52563,0.453325,1.04394,0.622988,0
2024-12-11 19:44:12.193,0.0454636,1.64237,5.45623,0.455768,1.0305,0.626653,0
2024-12-11 19:44:12.195,0.141177,1.70937,5.39402,0.455768,1.01645,0.626653,0
2024-12-11 19:44:12.198,0.212961,1.76919,5.31715,0.452103,0.998735,0.62482,0
2024-12-11 19:44:12.200,0.265603,1.84816,5.24776,0.450271,0.979188,0.620544,0
2024-12-11 19:44:12.202,0.308973,1.92473,5.17837,0.448438,0.953533,0.618712,0
2024-12-11 19:44:12.206,0.352044,1.97767,5.12333,0.442941,0.901,0.604662,0
2024-12-11 19:44:12.207,0.378365,2.0686,5.08026,0.442941,0.901,0.604662,0
2024-12-11 19:44:12.209,0.392722,2.16909,5.02762,0.439886,0.874122,0.599165,0
2024-12-11 19:44:12.213,0.41665,2.23609,4.98694,0.432556,0.841748,0.591835,0
2024-12-11 19:44:12.214,0.4334,2.29831,4.96301,0.42828,0.809373,0.585115,0
2024-12-11 19:44:12.216,0.469292,2.37488,4.94148,0.425837,0.780586,0.575342,0
2024-12-11 19:44:12.220,0.512363,2.45145,4.91276,0.416674,0.716447,0.554573,0
2024-12-11 19:44:12.221,0.54347,2.53071,4.87926,0.416674,0.716447,0.554573,0
2024-12-11 19:44:12.223,0.586541,2.59532,4.84816,0.408122,0.687738,0.541134,0
2024-12-11 19:44:12.226,0.622433,2.64796,4.81705,0.401403,0.655974,0.528307,0
2024-12-11 19:44:12.228,0.648754,2.71017,4.77877,0.392851,0.622988,0.512424,0
2024-12-11 19:44:12.230,0.665504,2.77717,4.72343,0.381856,0.58817,0.495932,0
2024-12-11 19:44:12.233,0.677468,2.8346,4.67318,0.373304,0.55274,0.478217,0
2024-12-11 19:44:12.235,0.670289,2.88724,4.62772,0.357422,0.514868,0.461113,0
2024-12-11 19:44:12.238,0.655932,2.93031,4.57986,0.345816,0.476995,0.441566,0
2024-12-11 19:44:12.240,0.639183,2.98535,4.5344,0.323825,0.437901,0.420797,0
2024-12-11 19:44:12.242,0.605683,3.05952,4.49851,0.3055,0.397585,0.40125,0
2024-12-11 19:44:12.246,0.569791,3.13879,4.48654,0.28412,0.354826,0.381092,0
2024-12-11 19:44:12.247,0.538684,3.22971,4.49133,0.258465,0.309623,0.363378,0
2024-12-11 19:44:12.249,0.505185,3.31585,4.49611,0.232809,0.264421,0.34322,0
2024-12-11 19:44:12.253,0.469292,3.39721,4.49611,0.207764,0.218607,0.324894,0
2024-12-11 19:44:12.254,0.4334,3.46899,4.5009,0.177833,0.175237,0.305347,0
2024-12-11 19:44:12.256,0.411865,3.54078,4.51286,0.149123,0.133699,0.284578,0
2024-12-11 19:44:12.260,0.411865,3.62692,4.52004,0.0807082,0.0487914,0.24243,0
2024-12-11 19:44:12.261,0.392722,3.70379,4.53201,0.0807082,0.0487914,0.24243,0
2024-12-11 19:44:12.263,0.375972,3.77797,4.57508,0.0440574,0.0121406,0.22044,0
2024-12-11 19:44:12.267,0.368794,3.85215,4.6325,-0.0292443,-0.0599394,0.173404,0
2024-12-11 19:44:12.268,0.364008,3.90479,4.7019,-0.0292443,-0.0599394,0.173404,0
2024-12-11 19:44:12.270,0.375972,3.98136,4.79312,-0.0701711,-0.0953685,0.14836,0
2024-12-11 19:44:12.273,0.385544,4.05075,4.86491,-0.110487,-0.13263,0.119039,0
2024-12-11 19:44:12.275,0.392722,4.09621,4.93909,-0.157522,-0.170503,0.0927724,0
2024-12-11 19:44:12.278,0.395115,4.14407,5.03001,-0.205168,-0.204099,0.0622301,0
2024-12-11 19:44:12.280,0.395115,4.14646,5.11855,-0.251593,-0.238307,0.0316877,0
2024-12-11 19:44:12.282,0.354437,4.14646,5.24058,-0.305347,-0.270682,0.00114534,0
2024-12-11 19:44:12.286,0.299402,4.16082,5.38445,-0.409191,-0.329934,-0.0562743,0
2024-12-11 19:44:12.287,0.217747,4.168,5.55913,-0.409191,-0.329934,-0.0562743,0
2024-12-11 19:44:12.289,0.107677,4.18475,5.78405,-0.464168,-0.360476,-0.0807082,0
2024-12-11 19:44:12.293,0.00239282,4.21376,6.01885,-0.564957,-0.407511,-0.122246,0
2024-12-11 19:44:12.294,-0.107677,4.22812,6.25095,-0.564957,-0.407511,-0.122246,0
2024-12-11 19:44:12.297,-0.212961,4.24008,6.50489,-0.613214,-0.430724,-0.13935,0
2024-12-11 19:44:12.300,-0.308973,4.2664,6.81117,-0.659639,-0.450271,-0.153399,0
2024-12-11 19:44:12.301,-0.3999,4.28555,7.13211,-0.698733,-0.463099,-0.163783,0
2024-12-11 19:44:12.304,-0.457328,4.27358,7.436,-0.737827,-0.472872,-0.174168,0
2024-12-11 19:44:12.306,-0.521934,4.24247,7.74258,-0.776311,-0.476537,-0.183331,0
2024-12-11 19:44:12.308,-0.600898,4.20897,8.05604,-0.805631,-0.472261,-0.191882,0
2024-12-11 19:44:12.311,-0.682254,4.18714,8.37219,-0.833119,-0.46432,-0.19738,0
2024-12-11 19:44:12.314,-0.761217,4.16321,8.69761,-0.859386,-0.450271,-0.199213,0
2024-12-11 19:44:12.315,-0.842872,4.1345,9.02812,-0.880765,-0.433167,-0.198602,0
2024-12-11 19:44:12.319,-0.936192,4.11536,9.33709,-0.91986,-0.391629,-0.186996,0
2024-12-11 19:44:12.320,-1.01755,4.09621,9.62663,-0.91986,-0.391629,-0.186996,0
2024-12-11 19:44:12.322,-1.08455,4.07707,9.92363,-0.932077,-0.367806,-0.177222,0
2024-12-11 19:44:12.325,-1.15155,4.07707,10.2323,-0.945515,-0.345205,-0.159507,0
2024-12-11 19:44:12.327,-1.20419,4.07229,10.5317,-0.958954,-0.322604,-0.141182,0
2024-12-11 19:44:12.330,-1.23769,4.06271,10.8308,-0.965062,-0.297559,-0.122857,0
2024-12-11 19:44:12.333,-1.26162,4.07707,11.1302,-0.969949,-0.253578,-0.0788757,0
2024-12-11 19:44:12.335,-1.25922,4.09143,11.4126,-0.972392,-0.235863,-0.0544418,0
2024-12-11 19:44:12.336,-1.22094,4.08664,11.688,-0.972392,-0.235863,-0.0544418,0
2024-12-11 19:44:12.339,-1.18265,4.07707,11.9536,-0.968117,-0.217538,-0.0342838,0
2024-12-11 19:44:12.341,-1.15394,4.07946,12.2052,-0.966284,-0.205321,-0.0129041,0
2024-12-11 19:44:12.346,-1.0319,4.12732,12.7104,-0.958954,-0.191882,0.0280226,0
2024-12-11 19:44:12.346,-1.0319,4.12732,12.7104,-0.958954,-0.191882,0.0280226,0
2024-12-11 19:44:12.349,-0.97687,4.16082,12.9688,-0.944904,-0.185163,0.0610084,0
2024-12-11 19:44:12.351,-0.919442,4.21137,13.2251,-0.944904,-0.185163,0.0610084,0
2024-12-11 19:44:12.353,-0.842872,4.25922,13.4979,-0.936963,-0.188828,0.0750579,0
2024-12-11 19:44:12.355,-0.756431,4.31665,13.7758,-0.926579,-0.191272,0.0884965,0
2024-12-11 19:44:12.358,-0.655932,4.36929,14.0246,-0.926579,-0.191272,0.0884965,0
2024-12-11 19:44:12.360,-0.550648,4.41715,14.2854,-0.899702,-0.200434,0.110487,0
2024-12-11 19:44:12.362,-0.462114,4.45544,14.5514,-0.88443,-0.204099,0.116595,0
2024-12-11 19:44:12.365,-0.390329,4.51047,14.7906,-0.869159,-0.208986,0.120261,0
2024-12-11 19:44:12.367,-0.349651,4.58226,15.0518,-0.84778,-0.21204,0.122093,0
2024-12-11 19:44:12.369,-0.308973,4.64925,15.3269,-0.823957,-0.215705,0.122704,0
2024-12-11 19:44:12.372,-0.256032,4.70907,15.5952,-0.799523,-0.21876,0.121482,0
2024-12-11 19:44:12.374,-0.200997,4.77877,15.8608,-0.769591,-0.223646,0.119039,0
2024-12-11 19:44:12.376,-0.145962,4.84577,16.1076,-0.769591,-0.223646,0.119039,0
2024-12-11 19:44:12.380,-0.0957129,4.88405,16.3588,-0.704231,-0.229755,0.108654,0
2024-12-11 19:44:12.384,0.00239282,4.95344,16.8114,-0.62421,-0.229755,0.0897182,0
2024-12-11 19:44:12.385,0.00239282,4.95344,16.8114,-0.577785,-0.226701,0.0793338,0
2024-12-11 19:44:12.386,0.0430708,4.98216,16.9789,-0.577785,-0.226701,0.0793338,0
2024-12-11 19:44:12.389,0.0909273,4.99891,17.1156,-0.477606,-0.213873,0.0561216,0
2024-12-11 19:44:12.393,0.141177,5.01326,17.2208,-0.423241,-0.20471,0.0402396,1
2024-12-11 19:44:12.393,0.16989,5.02523,17.2783,-0.423241,-0.20471,0.0402396,1
2024-12-11 19:44:12.398,0.0885344,5.04198,17.2496,-0.311456,-0.160729,0.0158057,0
2024-12-11 19:44:12.399,0.0885344,5.04198,17.2496,-0.258312,-0.128965,0.00481042,0
2024-12-11 19:44:12.400,0.0239282,5.05633,17.1634,-0.258312,-0.128965,0.00481042,0
2024-12-11 19:44:12.402,-0.0454636,5.07069,17.0148,-0.258312,-0.128965,0.00481042,0
2024-12-11 19:44:12.406,-0.102891,5.08026,16.8042,-0.114763,-0.0159584,-0.00862822,0
2024-12-11 19:44:12.407,-0.162712,5.08026,16.5263,-0.114763,-0.0159584,-0.00862822,0
2024-12-11 19:44:12.409,-0.193819,5.05873,16.1985,-0.0805555,0.0121406,-0.0104608,0
2024-12-11 19:44:12.413,-0.184247,5.01087,15.8249,-0.0555107,0.0310769,-0.0116825,0
2024-12-11 19:44:12.414,-0.157926,4.94387,15.4202,-0.042683,0.0353528,-0.0129041,0
2024-12-11 19:44:12.417,-0.133998,4.88405,15.0326,-0.0377962,0.0274118,-0.0184018,0
2024-12-11 19:44:12.421,-0.0526421,4.71865,14.3312,-0.0603975,-0.0226777,-0.0318404,0
2024-12-11 19:44:12.421,-0.0526421,4.71865,14.3312,-0.0603975,-0.0226777,-0.0318404,0
2024-12-11 19:44:12.424,-0.0287139,4.68036,14.0103,-0.0842206,-0.0642153,-0.0410031,0
2024-12-11 19:44:12.426,0.00717847,4.63729,13.742,-0.114763,-0.114305,-0.0519984,0
2024-12-11 19:44:12.429,0.0622134,4.59901,13.5266,-0.194173,-0.242583,-0.0770431,0
2024-12-11 19:44:12.431,0.136391,4.55593,13.3759,-0.194173,-0.242583,-0.0770431,0
2024-12-11 19:44:12.433,0.224925,4.51526,13.261,-0.239987,-0.315274,-0.0941468,0
2024-12-11 19:44:12.435,0.332901,4.47697,13.2084,-0.286411,-0.386743,-0.114916,0
2024-12-11 19:44:12.440,0.591326,4.39562,13.3472,-0.37926,-0.522962,-0.163783,0
2024-12-11 19:44:12.441,0.591326,4.39562,13.3472,-0.417743,-0.576716,-0.193715,0
2024-12-11 19:44:12.445,0.869193,4.31187,13.7133,-0.451951,-0.616421,-0.228533,0
2024-12-11 19:44:12.445,0.869193,4.31187,13.7133,-0.451951,-0.616421,-0.228533,0
2024-12-11 19:44:12.448,0.998405,4.27119,13.9696,-0.478217,-0.645131,-0.263962,0
2024-12-11 19:44:12.450,1.12522,4.19432,14.2376,-0.495932,-0.659181,-0.303667,0
2024-12-11 19:44:12.453,1.24487,4.08186,14.5155,-0.502651,-0.649407,-0.395295,0
2024-12-11 19:44:12.455,1.33819,3.94786,14.7906,-0.502651,-0.649407,-0.395295,0
2024-12-11 19:44:12.457,1.42223,3.78036,15.0422,-0.492877,-0.62986,-0.443551,0
2024-12-11 19:44:12.460,1.51316,3.56471,15.2599,-0.472719,-0.599317,-0.493641,0
2024-12-11 19:44:12.464,1.5682,3.335,15.4107,-0.417743,-0.511966,-0.598707,0
2024-12-11 19:44:12.464,1.56102,3.08584,15.4804,-0.417743,-0.511966,-0.598707,0
2024-12-11 19:44:12.466,1.50598,2.83699,15.4971,-0.381703,-0.456379,-0.650629,0
2024-12-11 19:44:12.469,1.42223,2.59771,15.4612,-0.340776,-0.396516,-0.70194,0
2024-12-11 19:44:12.471,1.30229,2.36291,15.3796,-0.301071,-0.33421,-0.748975,0
2024-12-11 19:44:12.473,1.14676,2.12842,15.248,-0.255869,-0.267627,-0.792956,0
2024-12-11 19:44:12.475,0.969691,1.89601,15.0685,-0.213109,-0.195547,-0.827164,0
2024-12-11 19:44:12.478,0.773181,1.6663,14.8576,-0.164242,-0.120413,-0.858317,0
2024-12-11 19:44:12.482,0.56022,1.43659,14.6088,-0.0762796,0.0359636,-0.898022,0
2024-12-11 19:44:12.482,0.337687,1.22812,14.3336,-0.0762796,0.0359636,-0.898022,0
2024-12-11 19:44:12.486,0.0933201,1.0343,14.0557,0.0110716,0.199671,-0.905963,0
2024-12-11 19:44:12.487,-0.150748,0.837787,13.771,0.0110716,0.199671,-0.905963,0
2024-12-11 19:44:12.491,-0.375972,0.643968,13.4716,0.0984228,0.35788,-0.888859,0
2024-12-11 19:44:12.493,-0.600898,0.478864,13.1698,0.13935,0.43729,-0.86809,0
2024-12-11 19:44:12.495,-0.833001,0.337687,12.8611,0.13935,0.43729,-0.86809,0
2024-12-11 19:44:12.497,-1.05823,0.198604,12.5234,0.179055,0.512424,-0.839991,0
2024-12-11 19:44:12.499,-1.27119,0.0741775,12.1932,0.223036,0.585726,-0.807006,0
2024-12-11 19:44:12.501,-1.47009,-0.040678,11.8699,0.263352,0.652919,-0.769133,0
2024-12-11 19:44:12.506,-1.75962,-0.241675,11.2068,0.338486,0.751266,-0.678117,0
2024-12-11 19:44:12.506,-1.75962,-0.241675,11.2068,0.338486,0.751266,-0.678117,0
2024-12-11 19:44:12.509,-1.87208,-0.318545,10.8667,0.371471,0.787917,-0.62986,0
2024-12-11 19:44:12.512,-1.95583,-0.373579,10.5413,0.435,0.830752,-0.527238,0
2024-12-11 19:44:12.513,-2.00638,-0.41665,10.2203,0.435,0.830752,-0.527238,0
2024-12-11 19:44:12.516,-2.04467,-0.462114,9.90688,0.462488,0.838693,-0.475316,0
2024-12-11 19:44:12.519,-2.05902,-0.457328,9.60987,0.513188,0.8222,-0.374526,0
2024-12-11 19:44:12.520,-1.9992,-0.445364,9.34906,0.513188,0.8222,-0.374526,0
2024-12-11 19:44:12.523,-1.98724,-0.421436,9.12862,0.535179,0.802042,-0.330545,0
2024-12-11 19:44:12.525,-2.04706,-0.344866,8.88455,0.556558,0.76898,-0.285953,0
2024-12-11 19:44:12.528,-2.04227,-0.275175,8.62343,0.571829,0.726221,-0.240139,0
2024-12-11 19:44:12.530,-1.98724,-0.198604,8.38654,0.583435,0.671856,-0.200434,0
2024-12-11 19:44:12.532,-1.91755,-0.0885344,8.17598,0.590155,0.614436,-0.16134,0
2024-12-11 19:44:12.534,-1.83859,0.0191426,7.98904,0.597485,0.553962,-0.124078,0
2024-12-11 19:44:12.537,-1.7333,0.122034,7.82154,0.599928,0.486769,-0.093536,0
2024-12-11 19:44:12.539,-1.62323,0.246461,7.68276,0.600539,0.416521,-0.065437,0
2024-12-11 19:44:12.544,-1.39561,0.474078,7.44796,0.594431,0.27114,-0.0208452,0
2024-12-11 19:44:12.544,-1.39561,0.474078,7.44796,0.594431,0.27114,-0.0208452,0
2024-12-11 19:44:12.547,-1.24008,0.586541,7.35943,0.584046,0.120871,0.00481042,0
2024-12-11 19:44:12.549,-1.08933,0.694218,7.29721,0.584046,0.120871,0.00481042,0
2024-12-11 19:44:12.551,-0.945763,0.785145,7.25893,0.571829,0.0432938,0.0158057,0
2024-12-11 19:44:12.553,-0.780359,0.881157,7.235,0.561445,-0.0330621,0.0213033,0
2024-12-11 19:44:12.556,-0.612862,0.97687,7.23261,0.55045,-0.113083,0.0200816,0
2024-12-11 19:44:12.558,-0.440578,1.03908,7.24696,0.537622,-0.188828,0.0176382,0
2024-12-11 19:44:12.561,-0.272782,1.11087,7.27568,0.526627,-0.263962,0.0115297,0
2024-12-11 19:44:12.563,-0.0933201,1.1994,7.31396,0.526627,-0.263962,0.0115297,0
2024-12-11 19:44:12.565,0.11007,1.25444,7.34746,0.501582,-0.409344,-0.0122933,0
2024-12-11 19:44:12.568,0.297009,1.29751,7.39053,0.486922,-0.472872,-0.029397,0
2024-12-11 19:44:12.570,0.481256,1.32383,7.45275,0.47104,-0.533346,-0.0489441,0
2024-12-11 19:44:12.572,0.679861,1.32144,7.51257,0.45699,-0.590155,-0.0715455,0
2024-12-11 19:44:12.574,0.895514,1.32383,7.55803,0.441719,-0.641466,-0.0978119,0
2024-12-11 19:44:12.578,1.11805,1.33819,7.59183,0.424004,-0.690945,-0.124689,0
2024-12-11 19:44:12.581,1.48923,1.36929,7.66361,0.384299,-0.772798,-0.190661,0
2024-12-11 19:44:12.582,1.48923,1.36929,7.66361,0.384299,-0.772798,-0.190661,0
2024-12-11 19:44:12.585,1.65912,1.39083,7.71147,0.339097,-0.836937,-0.263962,0
2024-12-11 19:44:12.587,1.79073,1.42702,7.78804,0.339097,-0.836937,-0.263962,0
2024-12-11 19:44:12.589,1.88166,1.45813,7.8694,0.311608,-0.863814,-0.303057,0
2024-12-11 19:44:12.591,1.94865,1.48923,7.94118,0.287175,-0.880918,-0.339097,0
2024-12-11 19:44:12.593,2.00877,1.52273,8.01536,0.266406,-0.891303,-0.380634,0
2024-12-11 19:44:12.597,2.05663,1.55145,8.09432,0.241972,-0.896189,-0.417896,0
2024-12-11 19:44:12.598,2.07577,1.55862,8.18076,0.217538,-0.894357,-0.455158,0
2024-12-11 19:44:12.600,2.07338,1.57059,8.25494,0.193715,-0.882751,-0.489365,0
2024-12-11 19:44:12.603,2.04706,1.59691,8.32194,0.172946,-0.865647,-0.524794,0
2024-12-11 19:44:12.606,1.97049,1.59691,8.40329,0.127133,-0.810671,-0.58649,0
2024-12-11 19:44:12.608,1.90558,1.59212,8.47029,0.127133,-0.810671,-0.58649,0
2024-12-11 19:44:12.610,1.85294,1.58495,8.5349,0.108807,-0.772798,-0.609702,0
2024-12-11 19:44:12.612,1.76919,1.57537,8.60668,0.0910926,-0.728817,-0.633525,0
2024-12-11 19:44:12.615,1.65194,1.57298,8.69043,0.0764323,-0.679949,-0.654905,0
2024-12-11 19:44:12.617,1.51077,1.56102,8.77448,0.0636045,-0.626195,-0.669565,0
2024-12-11 19:44:12.619,1.34776,1.55862,8.82712,0.0556635,-0.565721,-0.683004,0
2024-12-11 19:44:12.621,1.1994,1.55862,8.8678,0.0465007,-0.505247,-0.691555,0
2024-12-11 19:44:12.624,1.07258,1.54427,8.90609,0.0452791,-0.441108,-0.697053,0
2024-12-11 19:44:12.626,0.921835,1.51555,8.91805,0.0434465,-0.372693,-0.696442,0
2024-12-11 19:44:12.630,0.766002,1.49163,8.91566,0.0458899,-0.240139,-0.688501,0
2024-12-11 19:44:12.631,0.62004,1.45813,8.89891,0.0458899,-0.240139,-0.688501,0
2024-12-11 19:44:12.633,0.476471,1.42223,8.8678,0.0471116,-0.174779,-0.681782,0
2024-12-11 19:44:12.636,0.349651,1.39801,8.81755,0.0519984,-0.110029,-0.669565,0
2024-12-11 19:44:12.638,0.232104,1.3669,8.74577,0.0581068,-0.0465007,-0.656737,0
2024-12-11 19:44:12.640,0.105284,1.36451,8.66411,0.0623828,0.014584,-0.642077,0
2024-12-11 19:44:12.643,-0.0167498,1.37886,8.57797,0.0684913,0.0732253,-0.623141,0
2024-12-11 19:44:12.645,-0.129212,1.38365,8.47986,0.0752106,0.131256,-0.601761,0
2024-12-11 19:44:12.648,-0.222533,1.38365,8.37219,0.0794865,0.183789,-0.580381,0
2024-12-11 19:44:12.650,-0.30658,1.38844,8.2669,0.0868167,0.233878,-0.558391,0
2024-12-11 19:44:12.652,-0.3999,1.41984,8.16401,0.093536,0.283968,-0.532124,0
2024-12-11 19:44:12.654,-0.474078,1.44855,8.068,0.0996445,0.329781,-0.50769,0
2024-12-11 19:44:12.657,-0.517149,1.46291,7.95554,0.106364,0.371319,-0.481424,0
2024-12-11 19:44:12.659,-0.555434,1.47966,7.83829,0.111861,0.407359,-0.45699,0
2024-12-11 19:44:12.663,-0.579362,1.49163,7.733,0.11797,0.437901,-0.433167,0
2024-12-11 19:44:12.664,-0.576969,1.5012,7.63011,0.121635,0.462335,-0.411177,0
2024-12-11 19:44:12.667,-0.584148,1.50838,7.52453,0.128354,0.481882,-0.390408,0
2024-12-11 19:44:12.670,-0.579362,1.52034,7.42882,0.140571,0.501429,-0.351924,0
2024-12-11 19:44:12.672,-0.555434,1.54905,7.34507,0.14668,0.507538,-0.335431,0
2024-12-11 19:44:12.674,-0.548256,1.58734,7.26611,0.147291,0.509981,-0.32016,0
2024-12-11 19:44:12.677,-0.54347,1.61605,7.20628,0.158897,0.508759,-0.307943,0
2024-12-11 19:44:12.679,-0.519542,1.65673,7.15604,0.165005,0.50204,-0.293894,0
2024-12-11 19:44:12.680,-0.493221,1.70219,7.10579,0.165005,0.50204,-0.293894,0
2024-12-11 19:44:12.684,-0.459721,1.73569,7.05554,0.174168,0.497153,-0.283509,0
2024-12-11 19:44:12.685,-0.411865,1.76201,7.0002,0.180887,0.489212,-0.273125,0
2024-12-11 19:44:12.687,-0.361615,1.8003,6.94038,0.190661,0.477606,-0.267627,0
2024-12-11 19:44:12.690,-0.316152,1.82662,6.88774,0.201045,0.468443,-0.260908,0
2024-12-11 19:44:12.693,-0.275175,1.83619,6.83988,0.207764,0.457448,-0.257854,0
2024-12-11 19:44:12.694,-0.241675,1.85533,6.78006,0.215095,0.447064,-0.253578,0
2024-12-11 19:44:12.699,-0.162712,1.92712,6.65564,0.234031,0.420797,-0.251745,0
2024-12-11 19:44:12.700,-0.162712,1.92712,6.65564,0.240139,0.406137,-0.250524,0
2024-12-11 19:44:12.702,-0.117248,1.94626,6.59821,0.240139,0.406137,-0.250524,0
2024-12-11 19:44:12.704,-0.081356,1.97049,6.54317,0.246859,0.393309,-0.250524,0
2024-12-11 19:44:12.707,-0.0598206,1.99442,6.469,0.256632,0.36521,-0.256632,0
2024-12-11 19:44:12.710,-0.0430708,2.00399,6.39691,0.256632,0.36521,-0.256632,0
2024-12-11 19:44:12.711,-0.0215354,2.02792,6.32034,0.259076,0.352993,-0.259076,0
2024-12-11 19:44:12.716,0.00957129,2.06381,6.15524,0.262741,0.323673,-0.267017,0
2024-12-11 19:44:12.718,0.0215354,2.08774,6.06192,0.259076,0.310845,-0.270071,0
2024-12-11 19:44:12.719,0.0215354,2.08774,6.06192,0.257854,0.293741,-0.273736,0
2024-12-11 19:44:12.720,0.0334995,2.09013,5.95424,0.257854,0.293741,-0.273736,0
2024-12-11 19:44:12.724,0.0334995,2.11406,5.85344,0.240139,0.260755,-0.285953,0
2024-12-11 19:44:12.725,0.0167498,2.15474,5.76969,0.240139,0.260755,-0.285953,0
2024-12-11 19:44:12.727,0.00957129,2.16909,5.68355,0.227312,0.247317,-0.291451,0
2024-12-11 19:44:12.730,0.0,2.19302,5.60459,0.21204,0.230213,-0.295726,0
2024-12-11 19:44:12.732,-0.0167498,2.2337,5.5352,0.194326,0.215553,-0.301835,0
2024-12-11 19:44:12.735,-0.040678,2.26241,5.48973,0.17539,0.203947,-0.306111,0
2024-12-11 19:44:12.737,-0.0622134,2.30309,5.46102,0.155232,0.189897,-0.309165,0
2024-12-11 19:44:12.742,-0.100499,2.34138,5.43709,0.111861,0.166685,-0.317717,0
2024-12-11 19:44:12.743,-0.0885344,2.34138,5.43709,0.111861,0.166685,-0.317717,0
2024-12-11 19:44:12.744,-0.119641,2.37248,5.45863,0.0874275,0.156911,-0.318939,0
2024-12-11 19:44:12.747,-0.133998,2.39402,5.48734,0.0636045,0.144694,-0.318939,0
2024-12-11 19:44:12.749,-0.124427,2.41555,5.51605,0.0391706,0.137364,-0.320771,0
2024-12-11 19:44:12.751,-0.133998,2.4347,5.56152,0.0129041,0.130034,-0.326269,0
2024-12-11 19:44:12.754,-0.157926,2.45384,5.61177,-0.0127514,0.120871,-0.32749,0
2024-12-11 19:44:12.756,-0.177069,2.48016,5.67398,-0.0359636,0.11293,-0.329934,0
2024-12-11 19:44:12.758,-0.189033,2.49452,5.73141,-0.058565,0.104379,-0.331766,0
2024-12-11 19:44:12.761,-0.20339,2.50409,5.78405,-0.082388,0.0964375,-0.331766,0
2024-12-11 19:44:12.763,-0.227318,2.52592,5.85823,-0.082388,0.0964375,-0.331766,0
2024-12-11 19:44:12.765,-0.227318,2.53071,5.9327,-0.132477,0.0762796,-0.338486,0
2024-12-11 19:44:12.767,-0.196211,2.53071,5.99253,-0.155079,0.0616192,-0.342151,0
2024-12-11 19:44:12.771,-0.153141,2.55703,6.07149,-0.181345,0.0451263,-0.345816,0
2024-12-11 19:44:12.773,-0.119641,2.58574,6.17199,-0.233267,0.00908635,-0.356811,0
2024-12-11 19:44:12.776,-0.11007,2.60967,6.27249,-0.233267,0.00908635,-0.356811,0
2024-12-11 19:44:12.777,-0.102891,2.64078,6.38734,-0.233267,0.00908635,-0.356811,0
2024-12-11 19:44:12.779,-0.0789631,2.68624,6.51446,-0.290076,-0.0184018,-0.369028,0
2024-12-11 19:44:12.782,-0.0526421,2.74367,6.64128,-0.315732,-0.0287862,-0.375747,0
2024-12-11 19:44:12.784,-0.0239282,2.79392,6.78724,-0.340776,-0.037338,-0.383078,0
2024-12-11 19:44:12.786,-0.0239282,2.85135,6.9691,-0.36521,-0.0422248,-0.389797,0
2024-12-11 19:44:12.789,-0.0430708,2.90878,7.16082,-0.387201,-0.0428357,-0.394684,0
2024-12-11 19:44:12.791,-0.0789631,2.96142,7.34028,-0.407359,-0.0385597,-0.402014,0
2024-12-11 19:44:12.793,-0.12682,3.02124,7.5341,-0.425073,-0.033673,-0.408733,0
2024-12-11 19:44:12.796,-0.184247,3.06909,7.77368,-0.440955,-0.0269536,-0.415452,0
2024-12-11 19:44:12.799,-0.234497,3.09332,8.03211,-0.449507,-0.0165692,-0.416063,0
2024-12-11 19:44:12.801,-0.256032,3.12204,8.29083,-0.455005,-0.00557398,-0.417896,0
2024-12-11 19:44:12.803,-0.285045,3.15075,8.54447,-0.454394,0.010308,-0.422172,0
2024-12-11 19:44:12.805,-0.318545,3.16032,8.78166,-0.447675,0.0335202,-0.423394,0
2024-12-11 19:44:12.809,-0.313759,3.17228,9.01855,-0.423852,0.0781121,-0.42828,0
2024-12-11 19:44:12.810,-0.320937,3.201,9.2339,-0.423852,0.0781121,-0.42828,0
2024-12-11 19:44:12.815,-0.354437,3.18664,9.58116,-0.383536,0.131256,-0.431945,0
2024-12-11 19:44:12.816,-0.354437,3.18664,9.58116,-0.383536,0.131256,-0.431945,0
2024-12-11 19:44:12.817,-0.380758,3.18425,9.70559,-0.362767,0.162409,-0.431335,0
2024-12-11 19:44:12.819,-0.431007,3.18664,9.78934,-0.340776,0.195395,-0.430113,0
2024-12-11 19:44:12.823,-0.476471,3.17707,9.83271,-0.291909,0.266253,-0.422172,0
2024-12-11 19:44:12.824,-0.529113,3.18425,9.84946,-0.291909,0.266253,-0.422172,0
2024-12-11 19:44:12.826,-0.600898,3.19382,9.8351,-0.272362,0.301071,-0.413009,0
2024-12-11 19:44:12.830,-0.679861,3.19382,9.77737,-0.238154,0.367043,-0.390408,0
2024-12-11 19:44:12.831,-0.773181,3.22014,9.71755,-0.238154,0.367043,-0.390408,0
2024-12-11 19:44:12.836,-0.945763,3.28475,9.59791,-0.216774,0.4153,-0.36292,0
2024-12-11 19:44:12.837,-0.945763,3.28475,9.59791,-0.208223,0.434236,-0.346427,0
2024-12-11 19:44:12.841,-1.03669,3.32064,9.41127,-0.205168,0.450118,-0.330545,0
2024-12-11 19:44:12.842,-1.03669,3.32064,9.41127,-0.205779,0.461724,-0.314663,0
2024-12-11 19:44:12.845,-1.03669,3.35175,9.25783,-0.210666,0.469054,-0.302446,0
2024-12-11 19:44:12.846,-1.03669,3.35175,9.25783,-0.219218,0.470887,-0.293283,0
2024-12-11 19:44:12.848,-1.01515,3.3326,9.17647,-0.219218,0.470887,-0.293283,0
2024-12-11 19:44:12.850,-0.991227,3.32303,9.11905,-0.228381,0.466611,-0.285342,0
2024-12-11 19:44:12.852,-0.986441,3.35414,9.08315,-0.244873,0.457448,-0.281066,0
2024-12-11 19:44:12.855,-0.996012,3.39003,9.0688,-0.260755,0.439734,-0.280455,0
2024-12-11 19:44:12.859,-1.06062,3.48814,9.10469,-0.305347,0.395142,-0.28412,0
2024-12-11 19:44:12.860,-1.06062,3.48814,9.10469,-0.305347,0.395142,-0.28412,0
2024-12-11 19:44:12.864,-1.05583,3.57906,9.25065,-0.351772,0.333446,-0.293283,0
2024-12-11 19:44:12.865,-1.05583,3.57906,9.25065,-0.376816,0.29985,-0.300002,0
2024-12-11 19:44:12.867,-1.07737,3.6341,9.3347,-0.376816,0.29985,-0.300002,0
2024-12-11 19:44:12.869,-1.1013,3.67029,9.42563,-0.40125,0.268696,-0.308554,0
2024-12-11 19:44:12.871,-1.12762,3.70379,9.54288,-0.425684,0.230213,-0.317717,0
2024-12-11 19:44:12.873,-1.16351,3.7325,9.67448,-0.455005,0.192951,-0.328712,0
2024-12-11 19:44:12.878,-1.21137,3.78754,9.97628,-0.504483,0.120261,-0.349481,0
2024-12-11 19:44:12.878,-1.21137,3.78754,9.97628,-0.504483,0.120261,-0.349481,0
2024-12-11 19:44:12.883,-1.20897,3.7684,10.3615,-0.55274,0.0439046,-0.372082,0
2024-12-11 19:44:12.883,-1.21137,3.78515,10.3615,-0.55274,0.0439046,-0.372082,0
2024-12-11 19:44:12.885,-1.21854,3.72772,10.6011,-0.576563,0.00358873,-0.383078,0
2024-12-11 19:44:12.888,-1.20897,3.67986,10.8595,-0.599165,-0.037338,-0.396516,0
2024-12-11 19:44:12.892,-1.17787,3.55514,11.4245,-0.632151,-0.119192,-0.422783,0
2024-12-11 19:44:12.893,-1.17787,3.55514,11.4245,-0.632151,-0.119192,-0.422783,0
2024-12-11 19:44:12.896,-1.14437,3.48096,11.7646,-0.646811,-0.156453,-0.435,0
2024-12-11 19:44:12.897,-1.11087,3.39242,12.1143,-0.652919,-0.187606,-0.445995,0
2024-12-11 19:44:12.899,-1.09412,3.28714,12.4732,-0.655974,-0.21204,-0.452714,0
2024-12-11 19:44:12.903,-1.10608,3.19861,12.8348,-0.645589,-0.234642,-0.460655,0
2024-12-11 19:44:12.904,-1.12044,3.1005,13.1698,-0.645589,-0.234642,-0.460655,0
2024-12-11 19:44:12.907,-1.14676,2.99252,13.4955,-0.633983,-0.226701,-0.458823,0
2024-12-11 19:44:12.909,-1.21376,2.91356,13.8236,-0.616879,-0.207154,-0.452103,0
2024-12-11 19:44:12.911,-1.29033,2.87528,14.1299,-0.593056,-0.177222,-0.441108,0
2024-12-11 19:44:12.915,-1.34536,2.84895,14.3982,-0.529528,-0.0745997,-0.405068,0
2024-12-11 19:44:12.916,-1.37647,2.80588,14.6112,-0.529528,-0.0745997,-0.405068,0
2024-12-11 19:44:12.919,-1.38844,2.79392,14.7523,-0.456227,0.0573433,-0.359865,0
2024-12-11 19:44:12.921,-1.37408,2.77956,14.8313,-0.456227,0.0573433,-0.359865,0
2024-12-11 19:44:12.925,-1.30708,2.66231,14.7643,-0.389644,0.179513,-0.316495,0
2024-12-11 19:44:12.926,-1.30708,2.66231,14.7643,-0.365821,0.224715,-0.299392,0
2024-12-11 19:44:12.928,-1.26401,2.61446,14.6136,-0.365821,0.224715,-0.299392,0
2024-12-11 19:44:12.930,-1.19701,2.58574,14.4437,-0.351772,0.261366,-0.285953,0
2024-12-11 19:44:12.935,-1.03908,2.54028,14.0222,-0.349939,0.273583,-0.274958,0
2024-12-11 19:44:12.936,-1.03908,2.54028,14.0222,-0.349939,0.273583,-0.274958,0
2024-12-11 19:44:12.937,-0.921835,2.48495,13.8523,-0.368265,0.244873,-0.276179,0
2024-12-11 19:44:12.939,-0.782752,2.42752,13.7061,-0.393309,0.195395,-0.285953,0
2024-12-11 19:44:12.942,-0.610469,2.37248,13.6511,-0.433625,0.125758,-0.298781,0
2024-12-11 19:44:12.944,-0.426222,2.32223,13.6941,-0.481271,0.0316877,-0.32016,0
2024-12-11 19:44:12.947,-0.275175,2.29591,13.7997,-0.536248,-0.0800973,-0.347648,0
2024-12-11 19:44:12.949,-0.136391,2.3007,13.9935,-0.596111,-0.199213,-0.383688,0
2024-12-11 19:44:12.954,0.0239282,2.40359,14.7571,-0.712782,-0.455158,-0.47165,0
2024-12-11 19:44:12.955,0.0239282,2.40359,14.7571,-0.765315,-0.580992,-0.516242,0
2024-12-11 19:44:12.956,0.0622134,2.4682,15.3269,-0.765315,-0.580992,-0.516242,0
2024-12-11 19:44:12.958,0.100499,2.53071,15.9781,-0.808075,-0.695221,-0.563278,0
2024-12-11 19:44:12.963,0.155533,2.54985,17.4075,-0.839228,-0.794789,-0.607259,0
2024-12-11 19:44:12.963,0.155533,2.54985,17.4075,-0.839228,-0.794789,-0.607259,0
2024-12-11 19:44:12.965,0.20339,2.51845,18.2166,-0.854499,-0.931008,-0.696442,0
2024-12-11 19:44:12.968,0.263211,2.40359,19.0499,-0.838617,-0.969491,-0.73798,0
2024-12-11 19:44:12.970,0.349651,2.23609,19.8781,-0.80502,-0.987206,-0.779517,0
2024-12-11 19:44:12.973,0.438186,2.04467,20.6492,-0.751877,-0.979264,-0.818612,0
2024-12-11 19:44:12.976,0.519542,1.84576,21.3147,-0.684073,-0.950555,-0.858317,0
2024-12-11 19:44:12.977,0.567398,1.62562,21.8725,-0.599165,-0.898022,-0.893746,0
2024-12-11 19:44:12.979,0.567398,1.38126,22.3394,-0.500818,-0.822888,-0.92551,0
2024-12-11 19:44:12.983,0.569791,1.1348,22.684,-0.274194,-0.628027,-0.972545,0
2024-12-11 19:44:12.984,0.538684,0.893121,22.8709,-0.274194,-0.628027,-0.972545,0
2024-12-11 19:44:12.987,0.469292,0.648754,22.902,-0.149581,-0.512577,-0.985373,1
2024-12-11 19:44:12.989,0.371187,0.383151,22.7776,-0.0243575,-0.387354,-0.989649,0
2024-12-11 19:44:12.991,0.270389,0.105284,22.526,0.0984228,-0.248691,-0.985984,0
2024-12-11 19:44:12.996,0.0861416,-0.364008,21.6619,0.218149,-0.10392,-0.972545,0
2024-12-11 19:44:12.997,0.0861416,-0.364008,21.6619,0.218149,-0.10392,-0.972545,0
2024-12-11 19:44:12.998,-0.0334995,-0.548256,21.1041,0.439276,0.198449,-0.920623,0
2024-12-11 19:44:13.002,-0.160319,-0.720539,20.4838,0.535789,0.352993,-0.883362,0
2024-12-11 19:44:13.003,-0.301795,-0.842872,19.8446,0.625584,0.507538,-0.838159,0
2024-12-11 19:44:13.005,-0.435793,-0.924228,19.1791,0.704994,0.662082,-0.785015,0
2024-12-11 19:44:13.008,-0.555434,-0.969691,18.4777,0.775242,0.812427,-0.728817,0
2024-12-11 19:44:13.011,-0.696611,-0.97687,17.7571,0.891913,1.09647,-0.601761,0
2024-12-11 19:44:13.012,-0.828216,-0.948156,17.053,0.891913,1.09647,-0.601761,0
2024-12-11 19:44:13.015,-0.917049,-0.897907,16.3804,0.937727,1.22719,-0.537011,0
2024-12-11 19:44:13.018,-0.972084,-0.847657,15.7244,1.01836,1.45504,-0.409955,0
2024-12-11 19:44:13.020,-0.984048,-0.809073,15.0972,1.01836,1.45504,-0.409955,0
2024-12-11 19:44:13.024,-0.888335,-0.710967,13.905,1.07883,1.63341,-0.304278,0
2024-12-11 19:44:13.024,-0.888335,-0.710967,13.905,1.07883,1.63341,-0.304278,0
2024-12-11 19:44:13.027,-0.821037,-0.651147,13.3472,1.1051,1.70304,-0.26213,0
2024-12-11 19:44:13.030,-0.742074,-0.596112,12.7965,1.13075,1.75802,-0.22609,0
2024-12-11 19:44:13.031,-0.634397,-0.548256,12.2435,1.1503,1.80139,-0.19738,0
2024-12-11 19:44:13.034,-0.517149,-0.490828,11.7168,1.16557,1.82582,-0.179665,0
2024-12-11 19:44:13.037,-0.411865,-0.440578,11.2259,1.19062,1.83193,-0.163173,0
2024-12-11 19:44:13.038,-0.304188,-0.375972,10.7447,1.19062,1.83193,-0.163173,0
2024-12-11 19:44:13.041,-0.210568,-0.297009,10.273,1.19978,1.81727,-0.165005,0
2024-12-11 19:44:13.043,-0.124427,-0.217747,9.81805,1.20467,1.78734,-0.171724,0
