timestamp,accel_x,accel_y,accel_z,gyro_x,gyro_y,gyro_z,step_timestamp
2024-12-11 19:40:02.703,-0.572184,2.64796,9.98585,-0.0891073,-0.00984991,-0.0251211,0
2024-12-11 19:40:02.703,-0.572184,2.64796,9.98585,-0.0891073,-0.00984991,-0.0251211,0
2024-12-11 19:40:02.703,-0.572184,2.64796,9.98585,-0.0891073,-0.00984991,-0.0251211,0
2024-12-11 19:40:02.703,-0.572184,2.64796,9.98585,-0.0891073,-0.00984991,-0.0251211,0
2024-12-11 19:40:02.703,-0.572184,2.64796,9.98585,-0.0891073,-0.00984991,-0.0251211,0
2024-12-11 19:40:02.703,-0.572184,2.64796,9.98585,-0.0891073,-0.00984991,-0.0251211,0
2024-12-11 19:40:02.703,-0.572184,2.64796,9.98585,-0.0891073,-0.00984991,-0.0251211,0
2024-12-11 19:40:02.703,-0.572184,2.64796,9.98585,-0.0891073,-0.00984991,-0.0251211,0
2024-12-11 19:40:02.703,-0.572184,2.64796,9.98585,-0.0891073,-0.00984991,-0.0251211,0
2024-12-11 19:40:02.703,-0.572184,2.64796,9.98585,-0.0891073,-0.00984991,-0.0251211,0
2024-12-11 19:40:02.703,-0.572184,2.64796,9.98585,-0.0891073,-0.00984991,-0.0251211,0
2024-12-11 19:40:02.703,-0.572184,2.64796,9.98585,-0.0891073,-0.00984991,-0.0251211,0
2024-12-11 19:40:02.703,-0.572184,2.64796,9.98585,-0.0891073,-0.00984991,-0.0251211,0
2024-12-11 19:40:02.703,-0.572184,2.64796,9.98585,-0.0891073,-0.00984991,-0.0251211,0
2024-12-11 19:40:02.703,-0.572184,2.64796,9.98585,-0.0891073,-0.00984991,-0.0251211,0
2024-12-11 19:40:02.703,-0.572184,2.64796,9.98585,-0.0891073,-0.00984991,-0.0251211,0
2024-12-11 19:40:02.703,-0.572184,2.64796,9.98585,-0.0891073,-0.00984991,-0.0251211,0
2024-12-11 19:40:02.703,-0.572184,2.64796,9.98585,-0.0891073,-0.00984991,-0.0251211,0
2024-12-11 19:40:02.703,-0.572184,2.64796,9.98585,-0.0891073,-0.00984991,-0.0251211,0
2024-12-11 19:40:02.703,-0.572184,2.64796,9.98585,-0.0891073,-0.00984991,-0.0251211,0
2024-12-11 19:40:02.703,-0.572184,2.64796,9.98585,-0.0891073,-0.00984991,-0.0251211,0
2024-12-11 19:40:02.703,-0.572184,2.64796,9.98585,-0.0891073,-0.00984991,-0.0251211,0
2024-12-11 19:40:02.703,-0.572184,2.64796,9.98585,-0.0891073,-0.00984991,-0.0251211,0
2024-12-11 19:40:02.703,-0.572184,2.64796,9.98585,-0.0891073,-0.00984991,-0.0251211,0
2024-12-11 19:40:02.704,-0.572184,2.64796,9.98585,-0.0891073,-0.00984991,-0.0251211,0
2024-12-11 19:40:02.704,-0.572184,2.64796,9.98585,-0.0891073,-0.00984991,-0.0251211,0
2024-12-11 19:40:02.704,-0.572184,2.64796,9.98585,-0.0891073,-0.00984991,-0.0251211,0
2024-12-11 19:40:02.704,-0.572184,2.64796,9.98585,-0.0891073,-0.00984991,-0.0251211,0
2024-12-11 19:40:02.704,-0.572184,2.64796,9.98585,-0.0891073,-0.00984991,-0.0251211,0
2024-12-11 19:40:02.704,-0.572184,2.64796,9.98585,-0.0891073,-0.00984991,-0.0251211,0
2024-12-11 19:40:02.704,-0.572184,2.64796,9.98585,-0.0891073,-0.00984991,-0.0251211,0
2024-12-11 19:40:02.704,-0.572184,2.64796,9.98585,-0.0891073,-0.00984991,-0.0251211,0
2024-12-11 19:40:02.704,-0.572184,2.64796,9.98585,-0.0891073,-0.00984991,-0.0251211,0
2024-12-11 19:40:02.704,-0.572184,2.64796,9.98585,-0.0891073,-0.00984991,-0.0251211,0
2024-12-11 19:40:02.704,-0.572184,2.64796,9.98585,-0.0891073,-0.00984991,-0.0251211,0
2024-12-11 19:40:02.710,-0.574577,2.62642,10.0457,-0.0891073,-0.00984991,-0.0251211,0
2024-12-11 19:40:02.727,-0.63679,2.50409,10.0768,-0.0518457,0.0353528,-0.0312296,0
2024-12-11 19:40:02.727,-0.63679,2.50409,10.0768,-0.0518457,0.0353528,-0.0312296,0
2024-12-11 19:40:02.727,-0.63679,2.50409,10.0768,-0.0518457,0.0353528,-0.0312296,0
2024-12-11 19:40:02.727,-0.63679,2.50409,10.0768,-0.0518457,0.0353528,-0.0312296,0
2024-12-11 19:40:02.728,-0.63679,2.50409,10.0768,-0.0518457,0.0353528,-0.0312296,0
2024-12-11 19:40:02.728,-0.63679,2.50409,10.0768,-0.0518457,0.0353528,-0.0312296,0
2024-12-11 19:40:02.730,-0.63679,2.49691,10.0816,-0.0494023,0.0396287,-0.0263428,0
2024-12-11 19:40:02.731,-0.648754,2.4993,10.0816,-0.0494023,0.0396287,-0.0263428,0
2024-12-11 19:40:02.731,-0.648754,2.4993,10.0816,-0.0494023,0.0396287,-0.0263428,0
2024-12-11 19:40:02.732,-0.648754,2.4993,10.0816,-0.0494023,0.0396287,-0.0263428,0
2024-12-11 19:40:02.732,-0.648754,2.4993,10.0816,-0.0494023,0.0396287,-0.0263428,0
2024-12-11 19:40:02.734,-0.658325,2.5017,10.0696,-0.0439046,0.0408504,-0.0251211,0
2024-12-11 19:40:02.734,-0.658325,2.5017,10.0696,-0.0439046,0.0408504,-0.0251211,0
2024-12-11 19:40:02.735,-0.658325,2.5017,10.0696,-0.0402396,0.0432938,-0.0226777,0
2024-12-11 19:40:02.735,-0.658325,2.5017,10.0696,-0.0402396,0.0432938,-0.0226777,0
2024-12-11 19:40:02.736,-0.660718,2.4993,10.0576,-0.0402396,0.0432938,-0.0226777,0
2024-12-11 19:40:02.736,-0.660718,2.4993,10.0576,-0.0402396,0.0432938,-0.0226777,0
2024-12-11 19:40:02.736,-0.660718,2.4993,10.0576,-0.0402396,0.0432938,-0.0226777,0
2024-12-11 19:40:02.737,-0.660718,2.4993,10.0576,-0.0396287,0.0445155,-0.0159584,0
2024-12-11 19:40:02.739,-0.670289,2.48734,10.0552,-0.0396287,0.0445155,-0.0159584,0
2024-12-11 19:40:02.739,-0.670289,2.48734,10.0552,-0.0396287,0.0445155,-0.0159584,0
2024-12-11 19:40:02.739,-0.670289,2.48734,10.0552,-0.0396287,0.0445155,-0.0159584,0
2024-12-11 19:40:02.740,-0.670289,2.48734,10.0552,-0.0341311,0.0445155,-0.0129041,0
2024-12-11 19:40:02.740,-0.670289,2.48734,10.0552,-0.0341311,0.0445155,-0.0129041,0
2024-12-11 19:40:02.743,-0.660718,2.49452,10.06,-0.030466,0.0481806,-0.00984991,0
2024-12-11 19:40:02.746,-0.670289,2.49212,10.0505,-0.0292443,0.0487914,-0.00679568,0
2024-12-11 19:40:02.746,-0.670289,2.49212,10.0505,-0.0292443,0.0487914,-0.00679568,0
2024-12-11 19:40:02.748,-0.670289,2.49212,10.0481,-0.0237467,0.0500131,-0.00251974,0
2024-12-11 19:40:02.750,-0.658325,2.48255,10.0552,-0.0170274,0.0524565,0.00114534,0
2024-12-11 19:40:02.750,-0.658325,2.48255,10.0552,-0.0170274,0.0524565,0.00114534,0
2024-12-11 19:40:02.750,-0.658325,2.48255,10.0552,-0.0170274,0.0524565,0.00114534,0
2024-12-11 19:40:02.751,-0.658325,2.48255,10.0552,-0.0121406,0.0524565,0.000534491,0
2024-12-11 19:40:02.753,-0.651147,2.4682,10.0528,-0.0121406,0.0524565,0.000534491,0
2024-12-11 19:40:02.753,-0.651147,2.4682,10.0528,-0.0121406,0.0524565,0.000534491,0
2024-12-11 19:40:02.756,-0.670289,2.44427,10.0193,-0.00114534,0.0561216,0.00725381,0
2024-12-11 19:40:02.756,-0.670289,2.44427,10.0193,-0.00114534,0.0561216,0.00725381,0
2024-12-11 19:40:02.756,-0.670289,2.44427,10.0193,-0.00114534,0.0561216,0.00725381,0
2024-12-11 19:40:02.758,-0.667897,2.45384,9.99781,-0.00114534,0.0561216,0.00725381,0
2024-12-11 19:40:02.758,-0.667897,2.45384,9.99781,-0.00114534,0.0561216,0.00725381,0
2024-12-11 19:40:02.760,-0.658325,2.4658,9.98824,0.00374144,0.0567324,0.00908635,0
2024-12-11 19:40:02.762,-0.667897,2.45863,9.96192,0.00984991,0.0610084,0.0133623,0
2024-12-11 19:40:02.762,-0.667897,2.45863,9.96192,0.00984991,0.0610084,0.0133623,0
2024-12-11 19:40:02.764,-0.677468,2.4682,9.92603,0.013515,0.0622301,0.0151948,0
2024-12-11 19:40:02.764,-0.677468,2.4682,9.92603,0.013515,0.0622301,0.0151948,0
2024-12-11 19:40:02.764,-0.677468,2.4682,9.92603,0.013515,0.0622301,0.0151948,0
2024-12-11 19:40:02.764,-0.677468,2.4682,9.92603,0.013515,0.0622301,0.0151948,0
2024-12-11 19:40:02.765,-0.677468,2.4682,9.92603,0.013515,0.0622301,0.0151948,0
2024-12-11 19:40:02.767,-0.684646,2.48016,9.89492,0.0184018,0.0658951,0.0188599,0
2024-12-11 19:40:02.767,-0.684646,2.48016,9.89492,0.0184018,0.0658951,0.0188599,0
2024-12-11 19:40:02.769,-0.691825,2.47537,9.85664,0.0220669,0.0683385,0.0249684,0
2024-12-11 19:40:02.769,-0.691825,2.47537,9.85664,0.0220669,0.0683385,0.0249684,0
2024-12-11 19:40:02.771,-0.687039,2.47298,9.81566,0.0281753,0.0701711,0.0274118,0
2024-12-11 19:40:02.771,-0.687039,2.47298,9.81566,0.0281753,0.0701711,0.0274118,0
2024-12-11 19:40:02.774,-0.687039,2.47298,9.81566,0.029397,0.0713928,0.0316877,0
2024-12-11 19:40:02.775,-0.679861,2.48016,9.78455,0.0330621,0.0738362,0.0359636,0
2024-12-11 19:40:02.775,-0.679861,2.48016,9.78455,0.0330621,0.0738362,0.0359636,0
2024-12-11 19:40:02.776,-0.677468,2.48255,9.74148,0.0330621,0.0738362,0.0359636,0
2024-12-11 19:40:02.776,-0.677468,2.48255,9.74148,0.0330621,0.0738362,0.0359636,0
2024-12-11 19:40:02.776,-0.677468,2.48255,9.74148,0.0330621,0.0738362,0.0359636,0
2024-12-11 19:40:02.776,-0.677468,2.48255,9.74148,0.0330621,0.0738362,0.0359636,0
2024-12-11 19:40:02.777,-0.677468,2.48255,9.74148,0.0324513,0.074447,0.0432938,0
2024-12-11 19:40:02.780,-0.658325,2.47298,9.69123,0.0318404,0.0756687,0.0451263,0
2024-12-11 19:40:02.781,-0.639183,2.4682,9.63859,0.0318404,0.0756687,0.0451263,0
2024-12-11 19:40:02.782,-0.639183,2.4682,9.63859,0.033673,0.0762796,0.0475697,0
2024-12-11 19:40:02.782,-0.639183,2.4682,9.63859,0.033673,0.0762796,0.0475697,0
2024-12-11 19:40:02.783,-0.612862,2.47298,9.58595,0.033673,0.0762796,0.0475697,0
2024-12-11 19:40:02.783,-0.612862,2.47298,9.58595,0.033673,0.0762796,0.0475697,0
2024-12-11 19:40:02.786,-0.605683,2.47777,9.54288,0.0330621,0.0775012,0.0500131,0
2024-12-11 19:40:02.786,-0.605683,2.47777,9.54288,0.0330621,0.0775012,0.0500131,0
2024-12-11 19:40:02.787,-0.605683,2.47777,9.54288,0.0330621,0.0775012,0.0500131,0
2024-12-11 19:40:02.788,-0.605683,2.47777,9.50698,0.0330621,0.0787229,0.0536782,0
2024-12-11 19:40:02.789,-0.605683,2.47777,9.50698,0.0275645,0.0805555,0.0561216,0
2024-12-11 19:40:02.790,-0.579362,2.48255,9.45673,0.0275645,0.0805555,0.0561216,0
2024-12-11 19:40:02.791,-0.579362,2.48255,9.45673,0.0275645,0.0805555,0.0561216,0
2024-12-11 19:40:02.793,-0.572184,2.51845,9.41366,0.0238994,0.0805555,0.058565,0
2024-12-11 19:40:02.793,-0.572184,2.51845,9.41366,0.0238994,0.0805555,0.058565,0
2024-12-11 19:40:02.794,-0.572184,2.51845,9.41366,0.021456,0.0787229,0.0597867,0
2024-12-11 19:40:02.796,-0.550648,2.53549,9.39213,0.0147367,0.074447,0.0610084,0
2024-12-11 19:40:02.797,-0.507577,2.54028,9.37299,0.0147367,0.074447,0.0610084,0
2024-12-11 19:40:02.797,-0.507577,2.54028,9.37299,0.0147367,0.074447,0.0610084,0
2024-12-11 19:40:02.798,-0.507577,2.54028,9.37299,0.0147367,0.074447,0.0610084,0
2024-12-11 19:40:02.800,-0.476471,2.56182,9.33949,0.0116825,0.0720036,0.0616192,0
2024-12-11 19:40:02.800,-0.476471,2.56182,9.33949,0.0116825,0.0720036,0.0616192,0
2024-12-11 19:40:02.802,-0.457328,2.57378,9.30359,0.00679568,0.0689494,0.0591758,0
2024-12-11 19:40:02.802,-0.457328,2.57378,9.30359,0.00679568,0.0689494,0.0591758,0
2024-12-11 19:40:02.804,-0.428614,2.56421,9.28684,0.000687203,0.0658951,0.0579541,0
2024-12-11 19:40:02.804,-0.428614,2.56421,9.28684,0.000687203,0.0658951,0.0579541,0
2024-12-11 19:40:02.807,-0.387936,2.56421,9.2677,-0.00419957,0.0622301,0.0573433,0
2024-12-11 19:40:02.807,-0.387936,2.56421,9.2677,-0.00419957,0.0622301,0.0573433,0
2024-12-11 19:40:02.810,-0.371187,2.57617,9.25065,-0.0176382,0.0536782,0.050624,0
2024-12-11 19:40:02.810,-0.371187,2.57617,9.25065,-0.0176382,0.0536782,0.050624,0
2024-12-11 19:40:02.812,-0.368794,2.59292,9.24347,-0.0176382,0.0536782,0.050624,0
2024-12-11 19:40:02.814,-0.364008,2.61207,9.2363,-0.022525,0.0518457,0.0457372,0
2024-12-11 19:40:02.815,-0.364008,2.61207,9.2363,-0.0274118,0.0481806,0.0439046,0
2024-12-11 19:40:02.817,-0.366401,2.62403,9.24108,-0.0274118,0.0481806,0.0439046,0
2024-12-11 19:40:02.819,-0.366401,2.63839,9.24826,-0.0322986,0.0439046,0.0408504,0
2024-12-11 19:40:02.822,-0.366401,2.65274,9.24108,-0.042683,0.038407,0.0335202,0
2024-12-11 19:40:02.823,-0.371187,2.65753,9.25544,-0.042683,0.038407,0.0335202,0
2024-12-11 19:40:02.827,-0.375972,2.65753,9.27009,-0.0475697,0.038407,0.0310769,0
2024-12-11 19:40:02.828,-0.375972,2.66471,9.27249,-0.050624,0.0371853,0.0274118,0
2024-12-11 19:40:02.830,-0.392722,2.66949,9.28445,-0.0524565,0.0341311,0.0243575,0
2024-12-11 19:40:02.833,-0.409472,2.66231,9.30599,-0.0542891,0.030466,0.0213033,0
2024-12-11 19:40:02.835,-0.411865,2.65992,9.32513,-0.0542891,0.030466,0.0188599,0
2024-12-11 19:40:02.837,-0.421436,2.66471,9.34188,-0.0555107,0.0280226,0.0158057,0
2024-12-11 19:40:02.840,-0.4334,2.65992,9.34666,-0.0567324,0.0237467,0.0127514,0
2024-12-11 19:40:02.842,-0.445364,2.63599,9.35863,-0.0555107,0.0219141,0.0109189,0
2024-12-11 19:40:02.845,-0.45015,2.63121,9.36102,-0.0548999,0.0200816,0.0109189,0
2024-12-11 19:40:02.848,-0.445364,2.62881,9.36341,-0.0573433,0.014584,0.00908635,0
2024-12-11 19:40:02.850,-0.459721,2.61446,9.37059,-0.0555107,0.010308,0.010308,0
2024-12-11 19:40:02.852,-0.486042,2.6001,9.36341,-0.0573433,0.00358873,0.0109189,0
2024-12-11 19:40:02.855,-0.495613,2.57857,9.36341,-0.0561216,-0.00740652,0.0096972,0
2024-12-11 19:40:02.857,-0.490828,2.57139,9.37059,-0.0548999,-0.0141258,0.0109189,0
2024-12-11 19:40:02.861,-0.452543,2.57139,9.38734,-0.0555107,-0.021456,0.0115297,0
2024-12-11 19:40:02.862,-0.452543,2.57139,9.38734,-0.0555107,-0.021456,0.0115297,0
2024-12-11 19:40:02.863,-0.474078,2.57617,9.41845,-0.0555107,-0.0312296,0.0127514,0
2024-12-11 19:40:02.867,-0.488435,2.57857,9.43041,-0.0548999,-0.0477224,0.0139731,0
2024-12-11 19:40:02.868,-0.490828,2.59053,9.43998,-0.0548999,-0.0477224,0.0139731,0
2024-12-11 19:40:02.870,-0.498006,2.6001,9.45673,-0.0567324,-0.0550526,0.0176382,0
2024-12-11 19:40:02.873,-0.502792,2.61207,9.47588,-0.0561216,-0.0581068,0.0176382,0
2024-12-11 19:40:02.876,-0.500399,2.62403,9.49981,-0.0524565,-0.0605502,0.0206925,0
2024-12-11 19:40:02.878,-0.500399,2.62642,9.5333,-0.0524565,-0.0605502,0.0206925,0
2024-12-11 19:40:02.881,-0.488435,2.62881,9.54766,-0.0518457,-0.0623828,0.022525,0
2024-12-11 19:40:02.883,-0.462114,2.63839,9.54766,-0.050624,-0.0617719,0.0219141,0
2024-12-11 19:40:02.885,-0.462114,2.6336,9.55963,-0.050624,-0.0617719,0.0219141,0
2024-12-11 19:40:02.887,-0.462114,2.62642,9.55963,-0.0500131,-0.0605502,0.0231358,0
2024-12-11 19:40:02.889,-0.462114,2.64078,9.5357,-0.0494023,-0.0599394,0.0213033,0
2024-12-11 19:40:02.892,-0.45015,2.64078,9.51655,-0.0481806,-0.0562743,0.0206925,0
2024-12-11 19:40:02.895,-0.431007,2.63121,9.5022,-0.050624,-0.0550526,0.0188599,0
2024-12-11 19:40:02.896,-0.428614,2.6336,9.49741,-0.050624,-0.0550526,0.0188599,0
2024-12-11 19:40:02.900,-0.431007,2.63839,9.49502,-0.0524565,-0.0568851,0.0194708,0
2024-12-11 19:40:02.901,-0.438186,2.64317,9.49741,-0.0548999,-0.0581068,0.0188599,0
2024-12-11 19:40:02.903,-0.4334,2.64556,9.49741,-0.0555107,-0.0623828,0.0188599,0
2024-12-11 19:40:02.906,-0.431007,2.64796,9.49502,-0.0573433,-0.0629936,0.0164165,0
2024-12-11 19:40:02.909,-0.435793,2.65992,9.50459,-0.0646735,-0.0691021,0.0182491,0
2024-12-11 19:40:02.911,-0.442971,2.66949,9.51895,-0.0646735,-0.0691021,0.0182491,0
2024-12-11 19:40:02.914,-0.445364,2.67667,9.52852,-0.0707819,-0.0758214,0.0182491,0
2024-12-11 19:40:02.918,-0.431007,2.65274,9.55245,-0.0750579,-0.0782648,0.0194708,0
2024-12-11 19:40:02.918,-0.421436,2.65274,9.55245,-0.0750579,-0.0782648,0.0194708,0
2024-12-11 19:40:02.921,-0.421436,2.6336,9.5692,-0.0781121,-0.0807082,0.0194708,0
2024-12-11 19:40:02.922,-0.409472,2.65035,9.59791,-0.0799446,-0.081319,0.0206925,0
2024-12-11 19:40:02.925,-0.3999,2.67906,9.61705,-0.0836097,-0.0837624,0.0200816,0
2024-12-11 19:40:02.927,-0.395115,2.68385,9.64577,-0.0854423,-0.0825407,0.0219141,0
2024-12-11 19:40:02.929,-0.385544,2.68864,9.67448,-0.0860531,-0.081319,0.0213033,0
2024-12-11 19:40:02.932,-0.366401,2.70299,9.69123,-0.086664,-0.0794865,0.0219141,0
2024-12-11 19:40:02.934,-0.366401,2.71496,9.70798,-0.0854423,-0.0764323,0.022525,0
2024-12-11 19:40:02.936,-0.375972,2.73888,9.7343,-0.0842206,-0.0709346,0.0255792,0
2024-12-11 19:40:02.939,-0.371187,2.74846,9.75823,-0.0811663,-0.0660479,0.0243575,0
2024-12-11 19:40:02.941,-0.354437,2.73171,9.76302,-0.0799446,-0.0611611,0.0268009,0
2024-12-11 19:40:02.943,-0.332901,2.74367,9.76541,-0.0781121,-0.0538309,0.0280226,0
2024-12-11 19:40:02.946,-0.320937,2.75563,9.7678,-0.0756687,-0.0489441,0.0310769,0
2024-12-11 19:40:02.948,-0.318545,2.76042,9.77259,-0.0701711,-0.0410031,0.0316877,0
2024-12-11 19:40:02.953,-0.297009,2.76999,9.73191,-0.0707819,-0.0342838,0.0335202,0
2024-12-11 19:40:02.953,-0.297009,2.76999,9.73191,-0.0707819,-0.0342838,0.0335202,0
2024-12-11 19:40:02.956,-0.289831,2.79871,9.70798,-0.0677277,-0.0208452,0.0371853,0
2024-12-11 19:40:02.959,-0.294616,2.81067,9.6673,-0.066506,-0.0177909,0.0371853,0
2024-12-11 19:40:02.961,-0.294616,2.81785,9.62902,-0.066506,-0.0153475,0.0371853,0
2024-12-11 19:40:02.963,-0.304188,2.84178,9.60987,-0.066506,-0.0153475,0.0371853,0
2024-12-11 19:40:02.965,-0.297009,2.8681,9.57398,-0.066506,-0.0122933,0.0359636,0
2024-12-11 19:40:02.967,-0.267996,2.88485,9.53091,-0.0671168,-0.013515,0.0402396,0
2024-12-11 19:40:02.970,-0.244068,2.88724,9.52373,-0.0683385,-0.013515,0.0402396,0
2024-12-11 19:40:02.973,-0.22014,2.91356,9.51416,-0.0720036,-0.0165692,0.0377962,0
2024-12-11 19:40:02.975,-0.212961,2.92792,9.49741,-0.0720036,-0.0165692,0.0377962,0
2024-12-11 19:40:02.976,-0.20339,2.92552,9.46631,-0.0732253,-0.0190126,0.0359636,0
2024-12-11 19:40:02.979,-0.172283,2.9327,9.44716,-0.0750579,-0.0245102,0.0316877,0
2024-12-11 19:40:02.984,-0.0981057,2.93988,9.45195,-0.0775012,-0.0324513,0.0255792,0
2024-12-11 19:40:02.984,-0.0981057,2.93988,9.45195,-0.0775012,-0.0324513,0.0255792,0
2024-12-11 19:40:02.988,-0.0598206,2.9327,9.46152,-0.0756687,-0.041614,0.0151948,0
2024-12-11 19:40:02.988,-0.0598206,2.9327,9.46152,-0.0756687,-0.041614,0.0151948,0
2024-12-11 19:40:02.993,-0.0454636,2.94227,9.49741,-0.0738362,-0.0452791,0.00481042,0
2024-12-11 19:40:02.995,-0.0358923,2.95902,9.51177,-0.0732253,-0.0471116,-0.00435229,0
2024-12-11 19:40:02.995,-0.0358923,2.95902,9.51177,-0.0732253,-0.0471116,-0.00435229,0
2024-12-11 19:40:02.998,-0.0239282,2.95663,9.51416,-0.0726145,-0.049555,-0.0110716,0
2024-12-11 19:40:03.001,-0.0215354,2.96142,9.5022,-0.0640626,-0.0507767,-0.0232886,0
2024-12-11 19:40:03.005,-0.0119641,2.95185,9.49741,-0.0616192,-0.0513875,-0.0318404,0
2024-12-11 19:40:03.005,-0.0191426,2.95185,9.49741,-0.0616192,-0.0513875,-0.0318404,0
2024-12-11 19:40:03.007,-0.0239282,2.9351,9.49502,-0.0567324,-0.0513875,-0.0403923,0
2024-12-11 19:40:03.010,-0.0358923,2.91835,9.48545,-0.050624,-0.0513875,-0.0489441,0
2024-12-11 19:40:03.012,-0.0693919,2.8992,9.46631,-0.0457372,-0.0507767,-0.0538309,0
2024-12-11 19:40:03.014,-0.102891,2.87528,9.43998,-0.0414613,-0.049555,-0.0623828,0
2024-12-11 19:40:03.016,-0.136391,2.85853,9.41606,-0.0365745,-0.0489441,-0.0672696,0
2024-12-11 19:40:03.021,-0.212961,2.80828,9.36581,-0.0219141,-0.0434465,-0.0752106,0
2024-12-11 19:40:03.021,-0.212961,2.80828,9.36581,-0.0219141,-0.0434465,-0.0752106,0
2024-12-11 19:40:03.024,-0.239282,2.78435,9.32992,-0.0170274,-0.0397814,-0.077654,0
2024-12-11 19:40:03.026,-0.282652,2.75324,9.29402,-0.00786466,-0.0361163,-0.0800973,0
2024-12-11 19:40:03.028,-0.299402,2.73171,9.2677,-0.00786466,-0.0361163,-0.0800973,0
2024-12-11 19:40:03.031,-0.30658,2.71017,9.24347,0.00129805,-0.0318404,-0.0782648,0
2024-12-11 19:40:03.033,-0.313759,2.68624,9.20519,0.00679568,-0.0287862,-0.0782648,0
2024-12-11 19:40:03.035,-0.32333,2.65274,9.17647,0.013515,-0.021456,-0.0770431,0
2024-12-11 19:40:03.040,-0.335294,2.6001,9.07837,0.0245102,-0.00923906,-0.0703238,0
2024-12-11 19:40:03.041,-0.32333,2.6001,9.07837,0.0245102,-0.00923906,-0.0703238,0
2024-12-11 19:40:03.042,-0.349651,2.5666,9.03051,0.0318404,-0.000687203,-0.0648262,0
2024-12-11 19:40:03.045,-0.349651,2.55464,8.99223,0.0355055,0.00847551,-0.0599394,0
2024-12-11 19:40:03.047,-0.361615,2.55224,8.96591,0.0410031,0.0158057,-0.0550526,0
2024-12-11 19:40:03.050,-0.361615,2.55464,8.93241,0.0465007,0.0261901,-0.0477224,0
2024-12-11 19:40:03.053,-0.354437,2.5666,8.88216,0.0568851,0.0475697,-0.0287862,0
2024-12-11 19:40:03.055,-0.361615,2.58096,8.81277,0.0568851,0.0475697,-0.0287862,0
2024-12-11 19:40:03.056,-0.361615,2.59532,8.75534,0.0623828,0.0591758,-0.0208452,0
2024-12-11 19:40:03.059,-0.342473,2.60249,8.7027,0.0660479,0.0732253,-0.0116825,0
2024-12-11 19:40:03.061,-0.335294,2.60967,8.64736,0.0697129,0.0854423,-0.000687203,0
2024-12-11 19:40:03.065,-0.335294,2.64556,8.6019,0.073378,0.0976592,0.00908635,0
2024-12-11 19:40:03.066,-0.332901,2.69821,8.54447,0.0770431,0.111098,0.0213033,0
2024-12-11 19:40:03.068,-0.32333,2.7341,8.48226,0.0770431,0.111098,0.0213033,0
2024-12-11 19:40:03.071,-0.328116,2.78674,8.42483,0.0807082,0.133088,0.0439046,0
2024-12-11 19:40:03.073,-0.311366,2.8346,8.38894,0.0807082,0.144084,0.0561216,0
2024-12-11 19:40:03.075,-0.256032,2.87288,8.35065,0.0819299,0.152635,0.0677277,0
2024-12-11 19:40:03.078,-0.212961,2.92074,8.3004,0.0825407,0.159966,0.0793338,0
2024-12-11 19:40:03.080,-0.165105,2.96142,8.24537,0.0837624,0.163631,0.0872748,0
2024-12-11 19:40:03.082,-0.124427,3.01167,8.20948,0.0794865,0.167296,0.0952158,0
2024-12-11 19:40:03.085,-0.081356,3.07388,8.17837,0.077654,0.166074,0.103768,0
2024-12-11 19:40:03.087,-0.0430708,3.12204,8.13021,0.0745997,0.16302,0.106211,0
2024-12-11 19:40:03.090,-0.0119641,3.16032,8.07757,0.0745997,0.16302,0.106211,0
2024-12-11 19:40:03.094,0.112463,3.25843,7.97707,0.0556635,0.139197,0.115374,0
2024-12-11 19:40:03.094,0.112463,3.25843,7.97707,0.0556635,0.139197,0.115374,0
2024-12-11 19:40:03.098,0.205783,3.28953,7.94836,0.0342838,0.108654,0.11293,0
2024-12-11 19:40:03.100,0.311366,3.30628,7.90529,0.0342838,0.108654,0.11293,0
2024-12-11 19:40:03.102,0.409472,3.31346,7.86461,0.00313059,0.0695602,0.0964375,0
2024-12-11 19:40:03.104,0.512363,3.34696,7.83111,0.00313059,0.0695602,0.0964375,0
2024-12-11 19:40:03.107,0.648754,3.38285,7.81197,-0.0377962,0.0274118,0.0713928,0
2024-12-11 19:40:03.109,0.782752,3.39003,7.8,-0.0622301,0.00786466,0.0548999,0
2024-12-11 19:40:03.111,0.852443,3.41635,7.7689,-0.0622301,0.00786466,0.0548999,0
2024-12-11 19:40:03.114,0.895514,3.48335,7.74258,-0.123315,-0.0410031,0.0200816,0
2024-12-11 19:40:03.115,0.919442,3.56471,7.75215,-0.123315,-0.0410031,0.0200816,0
2024-12-11 19:40:03.118,0.936192,3.64606,7.77368,-0.153857,-0.0703238,0.00358873,0
2024-12-11 19:40:03.120,0.97687,3.71815,7.8,-0.188065,-0.0990336,-0.0165692,0
2024-12-11 19:40:03.123,1.01994,3.75643,7.84068,-0.224715,-0.132019,-0.0410031,0
2024-12-11 19:40:03.126,1.0678,3.78036,7.9005,-0.30046,-0.194937,-0.0862058,0
2024-12-11 19:40:03.127,1.12522,3.80429,7.98904,-0.30046,-0.194937,-0.0862058,0
2024-12-11 19:40:03.130,1.17308,3.82104,8.06082,-0.338944,-0.224868,-0.111861,0
2024-12-11 19:40:03.132,1.19462,3.833,8.14726,-0.377427,-0.257854,-0.135684,0
2024-12-11 19:40:03.134,1.22333,3.8354,8.24537,-0.414689,-0.281066,-0.160118,0
2024-12-11 19:40:03.137,1.27597,3.833,8.36979,-0.450118,-0.298781,-0.185163,0
2024-12-11 19:40:03.139,1.31426,3.82343,8.52533,-0.488601,-0.314663,-0.212651,0
2024-12-11 19:40:03.141,1.33101,3.82104,8.67129,-0.520976,-0.329323,-0.237696,0
2024-12-11 19:40:03.144,1.34536,3.80907,8.80319,-0.549075,-0.34154,-0.262741,0
2024-12-11 19:40:03.146,1.37408,3.77797,8.93001,-0.58145,-0.34887,-0.287175,0
2024-12-11 19:40:03.149,1.39801,3.74208,9.07598,-0.610771,-0.353757,-0.310387,0
2024-12-11 19:40:03.151,1.41984,3.72293,9.21715,-0.641924,-0.360476,-0.331766,0
2024-12-11 19:40:03.154,1.42941,3.71336,9.34906,-0.690792,-0.359865,-0.373304,0
2024-12-11 19:40:03.155,1.42941,3.70618,9.48066,-0.690792,-0.359865,-0.373304,0
2024-12-11 19:40:03.161,1.41745,3.66311,9.74387,-0.74027,-0.351924,-0.40629,0
2024-12-11 19:40:03.162,1.41984,3.65115,9.8686,-0.764094,-0.343983,-0.420339,0
2024-12-11 19:40:03.163,1.41984,3.65115,9.8686,-0.764094,-0.343983,-0.420339,0
2024-12-11 19:40:03.170,1.37169,3.64876,10.2251,-0.825789,-0.315274,-0.455768,0
2024-12-11 19:40:03.171,1.37169,3.64876,10.2251,-0.825789,-0.315274,-0.455768,0
2024-12-11 19:40:03.172,1.3334,3.64128,10.3519,-0.825789,-0.315274,-0.455768,0
2024-12-11 19:40:03.174,1.29272,3.62453,10.491,-0.858164,-0.293894,-0.474094,0
2024-12-11 19:40:03.175,1.29272,3.62453,10.491,-0.858164,-0.293894,-0.474094,0
2024-12-11 19:40:03.178,1.25922,3.62214,10.6226,-0.870992,-0.280455,-0.481424,0
2024-12-11 19:40:03.186,1.11805,3.59581,11.2834,-0.885041,-0.229755,-0.508301,0
2024-12-11 19:40:03.186,1.11805,3.59581,11.2834,-0.885041,-0.229755,-0.508301,0
2024-12-11 19:40:03.187,1.11805,3.59581,11.2834,-0.885041,-0.229755,-0.508301,0
2024-12-11 19:40:03.189,1.06062,3.59103,11.4197,-0.885041,-0.229755,-0.508301,0
2024-12-11 19:40:03.193,0.919442,3.57428,11.7168,-0.851445,-0.173557,-0.529681,0
2024-12-11 19:40:03.196,0.821037,3.5671,11.8196,-0.828233,-0.151566,-0.537622,0
2024-12-11 19:40:03.198,0.720539,3.55274,11.8962,-0.805631,-0.130798,-0.542509,0
2024-12-11 19:40:03.198,0.720539,3.55274,11.8962,-0.805631,-0.130798,-0.542509,0
2024-12-11 19:40:03.200,0.617647,3.52642,11.9608,-0.776311,-0.108196,-0.545563,0
2024-12-11 19:40:03.204,0.507577,3.51446,12.0159,-0.712172,-0.0599394,-0.549839,0
2024-12-11 19:40:03.205,0.392722,3.49532,12.0254,-0.712172,-0.0599394,-0.549839,0
2024-12-11 19:40:03.206,0.392722,3.49532,12.0254,-0.676742,-0.0379489,-0.549228,0
2024-12-11 19:40:03.207,0.272782,3.45942,11.9895,-0.676742,-0.0379489,-0.549228,0
2024-12-11 19:40:03.211,0.153141,3.4331,11.9297,-0.601608,0.0109189,-0.541898,0
2024-12-11 19:40:03.212,0.0526421,3.40678,11.8436,-0.601608,0.0109189,-0.541898,0
2024-12-11 19:40:03.215,-0.0382852,3.3661,11.7503,-0.525863,0.0524565,-0.526627,0
2024-12-11 19:40:03.217,-0.12682,3.31825,11.6306,-0.525863,0.0524565,-0.526627,0
2024-12-11 19:40:03.219,-0.20339,3.28235,11.5011,-0.490434,0.0701711,-0.515631,0
2024-12-11 19:40:03.221,-0.265603,3.25125,11.3719,-0.453783,0.0891073,-0.505858,0
2024-12-11 19:40:03.224,-0.320937,3.22014,11.214,-0.420797,0.103768,-0.494863,0
2024-12-11 19:40:03.226,-0.375972,3.19861,11.056,-0.389033,0.117206,-0.480813,0
2024-12-11 19:40:03.228,-0.421436,3.18425,10.9098,-0.354826,0.128202,-0.467375,0
2024-12-11 19:40:03.232,-0.459721,3.17468,10.7758,-0.324284,0.139197,-0.452103,0
2024-12-11 19:40:03.233,-0.478864,3.16271,10.6418,-0.294963,0.146527,-0.437443,0
2024-12-11 19:40:03.238,-0.512363,3.15553,10.4025,-0.268086,0.152635,-0.421561,0
2024-12-11 19:40:03.243,-0.498006,3.14836,10.2969,-0.182567,0.176459,-0.376358,0
2024-12-11 19:40:03.243,-0.478864,3.12443,10.1845,-0.182567,0.176459,-0.376358,0
2024-12-11 19:40:03.245,-0.457328,3.11486,10.0744,-0.152635,0.186232,-0.362309,0
2024-12-11 19:40:03.248,-0.419043,3.134,9.95953,-0.0970484,0.207001,-0.339097,0
2024-12-11 19:40:03.250,-0.385544,3.13639,9.84228,-0.0970484,0.207001,-0.339097,0
2024-12-11 19:40:03.250,-0.385544,3.13639,9.84228,-0.0970484,0.207001,-0.339097,0
2024-12-11 19:40:03.255,-0.30658,3.15793,9.62902,-0.0707819,0.228991,-0.32016,0
2024-12-11 19:40:03.258,-0.244068,3.17707,9.52134,-0.046348,0.228991,-0.31283,0
2024-12-11 19:40:03.261,-0.153141,3.19382,9.30838,0.0238994,0.247317,-0.308554,0
2024-12-11 19:40:03.261,-0.153141,3.19382,9.30838,0.0238994,0.247317,-0.308554,0
2024-12-11 19:40:03.264,-0.105284,3.20818,9.17169,0.0471116,0.25709,-0.307333,0
2024-12-11 19:40:03.265,-0.105284,3.20818,9.17169,0.0617719,0.268696,-0.307333,0
2024-12-11 19:40:03.267,-0.066999,3.23689,9.05444,0.0800973,0.277859,-0.309165,0
2024-12-11 19:40:03.269,-0.0622134,3.27757,8.94437,0.0800973,0.277859,-0.309165,0
2024-12-11 19:40:03.271,-0.0789631,3.33021,8.83191,0.0965902,0.290687,-0.314052,0
2024-12-11 19:40:03.273,-0.0957129,3.39242,8.72662,0.113694,0.303515,-0.320771,0
2024-12-11 19:40:03.276,-0.114855,3.43071,8.62104,0.125911,0.313288,-0.322604,0
2024-12-11 19:40:03.278,-0.150748,3.47139,8.50858,0.13996,0.325505,-0.331156,0
2024-12-11 19:40:03.280,-0.18664,3.51924,8.39612,0.148512,0.332835,-0.339097,0
2024-12-11 19:40:03.284,-0.232104,3.5671,8.27647,0.165005,0.346885,-0.354368,0
2024-12-11 19:40:03.286,-0.272782,3.59821,8.17358,0.165005,0.346885,-0.354368,0
2024-12-11 19:40:03.288,-0.308973,3.61496,8.07518,0.165005,0.346885,-0.354368,0
2024-12-11 19:40:03.290,-0.35683,3.63649,7.96511,0.174779,0.355437,-0.372693,0
2024-12-11 19:40:03.292,-0.392722,3.65354,7.867,0.173557,0.356048,-0.381856,0
2024-12-11 19:40:03.295,-0.442971,3.67986,7.7689,0.174168,0.353604,-0.39224,0
2024-12-11 19:40:03.298,-0.514756,3.69661,7.68276,0.169892,0.342609,-0.411177,0
2024-12-11 19:40:03.299,-0.588933,3.72054,7.61336,0.169892,0.342609,-0.411177,0
2024-12-11 19:40:03.302,-0.65354,3.75643,7.53649,0.167449,0.331003,-0.417896,0
2024-12-11 19:40:03.304,-0.708575,3.78036,7.46232,0.160118,0.317564,-0.427669,0
2024-12-11 19:40:03.307,-0.76361,3.79472,7.4001,0.143015,0.295574,-0.441108,0
2024-12-11 19:40:03.310,-0.789931,3.79472,7.34507,0.143015,0.295574,-0.441108,0
2024-12-11 19:40:03.311,-0.811466,3.81147,7.31396,0.133852,0.285189,-0.450271,0
2024-12-11 19:40:03.313,-0.893121,3.8354,7.28046,0.124078,0.276027,-0.457601,0
2024-12-11 19:40:03.316,-0.972084,3.85932,7.23978,0.114916,0.266253,-0.46432,0
2024-12-11 19:40:03.318,-0.998405,3.89761,7.19911,0.104531,0.253425,-0.469207,0
2024-12-11 19:40:03.320,-1.01515,3.90718,7.15364,0.0904818,0.240597,-0.474705,0
2024-12-11 19:40:03.323,-1.07019,3.89761,7.12014,0.0788757,0.22777,-0.480813,0
2024-12-11 19:40:03.325,-1.12044,3.89761,7.11057,0.0611611,0.214942,-0.484478,0
2024-12-11 19:40:03.328,-1.13958,3.91436,7.10818,0.0458899,0.197838,-0.489976,0
2024-12-11 19:40:03.332,-1.22812,3.91436,7.09143,0.0122933,0.154468,-0.497917,0
2024-12-11 19:40:03.333,-1.22812,3.91436,7.09143,-0.00603212,0.133699,-0.499749,0
2024-12-11 19:40:03.337,-1.31426,3.94547,7.12732,-0.0249684,0.108044,-0.504025,0
2024-12-11 19:40:03.337,-1.31426,3.94547,7.12732,-0.0249684,0.108044,-0.504025,0
2024-12-11 19:40:03.340,-1.35733,3.96222,7.15843,-0.0603975,0.0616192,-0.508912,0
2024-12-11 19:40:03.342,-1.41984,3.97418,7.19911,-0.0603975,0.0616192,-0.508912,0
2024-12-11 19:40:03.344,-1.4653,3.98854,7.22543,-0.0793338,0.0359636,-0.509523,0
2024-12-11 19:40:03.346,-1.50838,4.00289,7.26132,-0.0976592,0.0133623,-0.510134,0
2024-12-11 19:40:03.351,-1.56102,4.034,7.35225,-0.137364,-0.0318404,-0.511356,0
2024-12-11 19:40:03.352,-1.56102,4.034,7.35225,-0.156911,-0.0532201,-0.510134,0
2024-12-11 19:40:03.353,-1.6017,4.05075,7.41446,-0.156911,-0.0532201,-0.510134,0
2024-12-11 19:40:03.356,-1.63759,4.0675,7.48624,-0.176459,-0.073378,-0.510134,0
2024-12-11 19:40:03.358,-1.64477,4.08664,7.56042,-0.19906,-0.0947577,-0.510134,0
2024-12-11 19:40:03.360,-1.65194,4.10578,7.63011,-0.214942,-0.111251,-0.50769,0
2024-12-11 19:40:03.364,-1.65194,4.12014,7.71625,-0.254647,-0.141793,-0.502804,0
2024-12-11 19:40:03.365,-1.64237,4.13689,7.81675,-0.254647,-0.141793,-0.502804,0
2024-12-11 19:40:03.367,-1.63041,4.13928,7.92204,-0.254647,-0.141793,-0.502804,0
2024-12-11 19:40:03.373,-1.57777,4.12014,8.14726,-0.320008,-0.17539,-0.486922,0
2024-12-11 19:40:03.373,-1.57777,4.12014,8.14726,-0.320008,-0.17539,-0.486922,0
2024-12-11 19:40:03.374,-1.54666,4.07946,8.28126,-0.320008,-0.17539,-0.486922,0
2024-12-11 19:40:03.378,-1.49402,4.04836,8.40569,-0.343831,-0.18272,-0.477148,0
2024-12-11 19:40:03.380,-1.43659,4.04836,8.5349,-0.343831,-0.18272,-0.477148,0
2024-12-11 19:40:03.382,-1.39561,4.04118,8.66172,-0.355437,-0.183941,-0.47104,0
2024-12-11 19:40:03.384,-1.35494,4.01964,8.79362,-0.36521,-0.183331,-0.464931,0
2024-12-11 19:40:03.386,-1.3334,4.01246,8.92523,-0.37254,-0.179665,-0.459433,0
2024-12-11 19:40:03.389,-1.34058,4.02682,9.04008,-0.379871,-0.172946,-0.452103,0
2024-12-11 19:40:03.391,-1.36451,4.06032,9.15255,-0.384757,-0.161951,-0.444162,0
2024-12-11 19:40:03.393,-1.38844,4.08425,9.24826,-0.393309,-0.152177,-0.439276,0
2024-12-11 19:40:03.396,-1.40548,4.09382,9.34188,-0.400029,-0.141793,-0.430724,0
2024-12-11 19:40:03.399,-1.42702,4.11057,9.44238,-0.406748,-0.128965,-0.419118,0
2024-12-11 19:40:03.400,-1.43898,4.12732,9.54048,-0.414078,-0.114305,-0.413009,0
2024-12-11 19:40:03.403,-1.42941,4.13211,9.62184,-0.42263,-0.0972011,-0.404457,0
2024-12-11 19:40:03.406,-1.43898,4.15125,9.70319,-0.435458,-0.0642153,-0.387354,0
2024-12-11 19:40:03.408,-1.45573,4.17278,9.80609,-0.435458,-0.0642153,-0.387354,0
2024-12-11 19:40:03.411,-1.47009,4.17996,9.90688,-0.448286,-0.0190126,-0.370861,0
2024-12-11 19:40:03.412,-1.50359,4.19193,9.99542,-0.448286,-0.0190126,-0.370861,0
2024-12-11 19:40:03.416,-1.52513,4.21376,10.072,-0.452561,0.010308,-0.362309,0
2024-12-11 19:40:03.417,-1.52991,4.21376,10.1462,-0.458059,0.0390179,-0.353146,0
2024-12-11 19:40:03.420,-1.54188,4.21376,10.2132,-0.464168,0.0689494,-0.345816,0
2024-12-11 19:40:03.422,-1.54905,4.20897,10.273,-0.471498,0.104379,-0.338486,0
2024-12-11 19:40:03.426,-1.55623,4.14407,10.3615,-0.483104,0.174626,-0.325658,0
2024-12-11 19:40:03.427,-1.55623,4.14407,10.3615,-0.483104,0.174626,-0.325658,0
2024-12-11 19:40:03.430,-1.53709,4.13211,10.4097,-0.501429,0.24976,-0.314052,0
2024-12-11 19:40:03.431,-1.51555,4.10578,10.4504,-0.501429,0.24976,-0.314052,0
2024-12-11 19:40:03.436,-1.50359,4.06989,10.5126,-0.522198,0.327338,-0.308554,0
2024-12-11 19:40:03.436,-1.5012,4.034,10.5126,-0.522198,0.327338,-0.308554,0
2024-12-11 19:40:03.438,-1.51795,4.0005,10.5556,-0.534415,0.36521,-0.306722,0
2024-12-11 19:40:03.441,-1.5347,3.97179,10.5987,-0.54541,0.403083,-0.306111,0
2024-12-11 19:40:03.443,-1.57059,3.94307,10.6514,-0.555795,0.440955,-0.3055,0
2024-12-11 19:40:03.446,-1.62802,3.91914,10.7112,-0.564957,0.475774,-0.304889,0
2024-12-11 19:40:03.447,-1.69502,3.87129,10.783,-0.572287,0.506927,-0.304889,0
2024-12-11 19:40:03.450,-1.77637,3.833,10.8835,-0.577785,0.535026,-0.306722,0
2024-12-11 19:40:03.453,-1.8673,3.8019,10.9771,-0.579618,0.586337,-0.299392,0
2024-12-11 19:40:03.455,-1.98006,3.75165,11.0824,-0.579618,0.586337,-0.299392,0
2024-12-11 19:40:03.458,-2.10688,3.72054,11.19,-0.577785,0.600387,-0.295116,0
2024-12-11 19:40:03.459,-2.23131,3.67986,11.3001,-0.569844,0.613825,-0.291451,0
2024-12-11 19:40:03.462,-2.35095,3.61017,11.4078,-0.558849,0.622988,-0.285342,0
2024-12-11 19:40:03.464,-2.48016,3.54556,11.4844,-0.542967,0.627264,-0.276179,0
2024-12-11 19:40:03.466,-2.6001,3.48814,11.566,-0.526474,0.623599,-0.268238,0
2024-12-11 19:40:03.469,-2.71256,3.43071,11.6426,-0.506316,0.615658,-0.256632,0
2024-12-11 19:40:03.471,-2.82742,3.35414,11.7096,-0.482493,0.60283,-0.241361,0
2024-12-11 19:40:03.473,-2.9327,3.27039,11.7646,-0.456837,0.58817,-0.22609,0
2024-12-11 19:40:03.476,-3.04517,3.22014,11.7933,-0.431793,0.567401,-0.209597,0
2024-12-11 19:40:03.478,-3.18186,3.17946,11.8149,-0.404305,0.546021,-0.190661,0
2024-12-11 19:40:03.480,-3.32782,3.134,11.8125,-0.373151,0.521587,-0.169281,0
2024-12-11 19:40:03.483,-3.46182,3.1005,11.8196,-0.343831,0.496542,-0.146069,0
2024-12-11 19:40:03.485,-3.58385,3.05234,11.8484,-0.313899,0.470887,-0.122246,0
2024-12-11 19:40:03.488,-3.68943,3.01406,11.8531,-0.2858,0.438512,-0.0941468,0
2024-12-11 19:40:03.490,-3.77079,2.99013,11.822,-0.255258,0.406748,-0.0666587,0
2024-12-11 19:40:03.493,-3.87607,2.9662,11.8077,-0.228381,0.37193,-0.0391706,0
2024-12-11 19:40:03.495,-4.01246,2.95424,11.8125,-0.228381,0.37193,-0.0391706,0
2024-12-11 19:40:03.497,-4.13211,2.93988,11.7646,-0.171572,0.293741,0.0261901,0
2024-12-11 19:40:03.499,-4.2015,2.92552,11.6952,-0.150192,0.248538,0.0561216,0
2024-12-11 19:40:03.502,-4.2353,2.90638,11.6378,-0.132477,0.202114,0.0878856,0
2024-12-11 19:40:03.506,-4.26162,2.88724,11.5086,-0.103157,0.109265,0.150803,0
2024-12-11 19:40:03.507,-4.26162,2.88724,11.5086,-0.103157,0.109265,0.150803,0
2024-12-11 19:40:03.512,-4.25922,2.89681,11.4126,-0.0909399,-0.0104608,0.239987,0
2024-12-11 19:40:03.512,-4.25922,2.89681,11.4126,-0.0909399,-0.0104608,0.239987,0
2024-12-11 19:40:03.516,-4.20897,2.8681,11.3743,-0.0927724,-0.0434465,0.269307,0
2024-12-11 19:40:03.516,-4.20897,2.8681,11.3743,-0.0927724,-0.0434465,0.269307,0
2024-12-11 19:40:03.521,-4.08903,2.81067,11.4341,-0.108044,-0.102088,0.322451,0
2024-12-11 19:40:03.521,-4.08903,2.81067,11.4341,-0.108044,-0.102088,0.322451,0
2024-12-11 19:40:03.524,-4.00289,2.79631,11.4604,-0.136143,-0.147291,0.377427,0
2024-12-11 19:40:03.525,-3.91197,2.77956,11.5062,-0.136143,-0.147291,0.377427,0
2024-12-11 19:40:03.528,-3.82104,2.75803,11.5875,-0.153857,-0.166838,0.40125,0
2024-12-11 19:40:03.530,-3.72054,2.74606,11.6785,-0.174015,-0.180276,0.426295,0
2024-12-11 19:40:03.533,-3.59581,2.74606,11.7814,-0.223494,-0.200434,0.472109,0
2024-12-11 19:40:03.535,-3.46899,2.73888,11.901,-0.223494,-0.200434,0.472109,0
2024-12-11 19:40:03.538,-3.33978,2.72453,12.0374,-0.247928,-0.204099,0.492267,0
2024-12-11 19:40:03.539,-3.19143,2.72213,12.1884,-0.277248,-0.208986,0.50937,0
2024-12-11 19:40:03.542,-3.06192,2.7341,12.3583,-0.301682,-0.209597,0.526474,0
2024-12-11 19:40:03.544,-2.95424,2.7676,12.5641,-0.330392,-0.205321,0.539913,0
2024-12-11 19:40:03.547,-2.80828,2.80588,12.7965,-0.354826,-0.201045,0.55213,0
2024-12-11 19:40:03.549,-2.64796,2.84417,13.0525,-0.377427,-0.191272,0.563125,0
2024-12-11 19:40:03.551,-2.51366,2.88963,13.3376,-0.394531,-0.177222,0.57412,0
2024-12-11 19:40:03.553,-2.3677,2.92074,13.6367,-0.409802,-0.153399,0.582672,0
2024-12-11 19:40:03.556,-2.22652,2.95185,13.9385,-0.418354,-0.125911,0.590002,0
2024-12-11 19:40:03.558,-2.09492,2.98295,14.2376,-0.422019,-0.0898709,0.5955,0
2024-12-11 19:40:03.562,-1.95105,2.98295,14.5155,-0.4153,0.00297788,0.604662,0
2024-12-11 19:40:03.564,-1.8338,2.97817,14.7763,-0.401861,0.058565,0.608938,0
2024-12-11 19:40:03.566,-1.72852,2.98774,15.0254,-0.387201,0.115985,0.614436,0
2024-12-11 19:40:03.569,-1.61605,2.99252,15.2456,-0.363378,0.176459,0.620544,0
2024-12-11 19:40:03.570,-1.51795,2.98774,15.4636,-0.363378,0.176459,0.620544,0
2024-12-11 19:40:03.573,-1.43898,2.98774,15.6335,-0.338944,0.239987,0.628486,0
2024-12-11 19:40:03.575,-1.3669,2.98295,15.7484,-0.309012,0.305958,0.633983,0
2024-12-11 19:40:03.577,-1.31186,2.97577,15.8321,-0.275416,0.376206,0.644368,0
2024-12-11 19:40:03.579,-1.28315,2.9686,15.856,-0.275416,0.376206,0.644368,0
2024-12-11 19:40:03.583,-1.25683,2.97577,15.8489,-0.209444,0.522198,0.666969,0
2024-12-11 19:40:03.584,-1.22572,2.99252,15.7986,-0.174626,0.5955,0.680407,0
2024-12-11 19:40:03.586,-1.17787,3.01167,15.6909,-0.141029,0.66758,0.6969,0
2024-12-11 19:40:03.589,-1.11565,3.04277,15.5857,-0.106822,0.732329,0.710339,0
2024-12-11 19:40:03.592,-1.05105,3.07149,15.4445,-0.0738362,0.792803,0.723167,0
2024-12-11 19:40:03.595,-0.967299,3.09571,15.2504,-0.0219141,0.87962,0.740347,0
2024-12-11 19:40:03.597,-0.876371,3.11964,15.0446,-0.00542127,0.902221,0.744623,0
2024-12-11 19:40:03.599,-0.777966,3.12682,14.8265,0.0116825,0.916882,0.740958,0
2024-12-11 19:40:03.601,-0.687039,3.11007,14.6231,0.0116825,0.916882,0.740958,0
2024-12-11 19:40:03.603,-0.629611,3.08584,14.4078,0.0196235,0.912606,0.736071,0
2024-12-11 19:40:03.606,-0.562612,3.05474,14.1634,0.0238994,0.89428,0.72561,0
2024-12-11 19:40:03.608,-0.488435,3.02124,13.9696,0.0220669,0.860684,0.709728,0
2024-12-11 19:40:03.610,-0.440578,2.9997,13.8452,0.0153475,0.811816,0.687738,0
2024-12-11 19:40:03.613,-0.383151,2.98774,13.7758,0.00801737,0.744546,0.662082,0
2024-12-11 19:40:03.615,-0.318545,2.9686,13.7782,-0.00175619,0.666358,0.629707,0
2024-12-11 19:40:03.617,-0.251246,2.94227,13.838,-0.010308,0.57412,0.594278,0
2024-12-11 19:40:03.619,-0.167498,2.91356,13.9265,-0.0158057,0.471498,0.553351,0
2024-12-11 19:40:03.622,-0.066999,2.87288,14.0533,-0.0164165,0.365821,0.508149,0
2024-12-11 19:40:03.625,0.0622134,2.81306,14.2137,-0.0158057,0.257701,0.458059,0
2024-12-11 19:40:03.627,0.210568,2.72213,14.4102,-0.0139731,0.150192,0.404915,0
2024-12-11 19:40:03.629,0.332901,2.60967,14.6184,0.000687203,0.0494023,0.345663,0
2024-12-11 19:40:03.631,0.440578,2.45863,14.8385,0.0177909,-0.0477224,0.2858,0
2024-12-11 19:40:03.634,0.52672,2.27916,15.0876,0.0434465,-0.135074,0.222272,0
2024-12-11 19:40:03.636,0.596112,2.09252,15.3126,0.0758214,-0.207764,0.160576,0
2024-12-11 19:40:03.639,0.622433,1.89601,15.478,0.156453,-0.316495,0.046348,0
2024-12-11 19:40:03.641,0.591326,1.69502,15.6215,0.156453,-0.316495,0.046348,0
2024-12-11 19:40:03.643,0.545863,1.48684,15.7699,0.207764,-0.351924,-0.00557398,0
2024-12-11 19:40:03.649,0.423829,1.00319,15.9374,0.380634,-0.392851,-0.123468,0
2024-12-11 19:40:03.649,0.423829,1.00319,15.9374,0.380634,-0.392851,-0.123468,0
2024-12-11 19:40:03.650,0.354437,0.782752,15.9278,0.380634,-0.392851,-0.123468,0
2024-12-11 19:40:03.652,0.241675,0.567398,15.9087,0.443551,-0.386132,-0.151566,0
2024-12-11 19:40:03.655,0.112463,0.383151,15.8704,0.511356,-0.369639,-0.171114,1
2024-12-11 19:40:03.657,-0.026321,0.222533,15.7723,0.581603,-0.342151,-0.186385,0
2024-12-11 19:40:03.659,-0.172283,0.0622134,15.6383,0.65185,-0.304278,-0.193715,0
2024-12-11 19:40:03.662,-0.316152,-0.107677,15.4995,0.725763,-0.257854,-0.194326,0
2024-12-11 19:40:03.664,-0.457328,-0.277567,15.3341,0.797232,-0.205932,-0.184552,0
2024-12-11 19:40:03.667,-0.600898,-0.419043,15.1116,0.870534,-0.142404,-0.167449,0
2024-12-11 19:40:03.669,-0.773181,-0.557827,14.8528,0.943835,-0.0739889,-0.143015,0
2024-12-11 19:40:03.671,-0.924228,-0.694218,14.5681,1.0153,-7.63559e-05,-0.111251,0
2024-12-11 19:40:03.674,-1.04626,-0.813859,14.2639,1.08433,0.0787229,-0.0739889,0
2024-12-11 19:40:03.676,-1.15633,-0.921835,13.9552,1.15091,0.159355,-0.0312296,0
2024-12-11 19:40:03.681,-1.33101,-1.07498,13.2395,1.28041,0.317564,0.066506,0
2024-12-11 19:40:03.682,-1.33101,-1.07498,13.2395,1.33722,0.392088,0.120871,0
2024-12-11 19:40:03.683,-1.39561,-1.14197,12.8468,1.33722,0.392088,0.120871,0
2024-12-11 19:40:03.685,-1.4342,-1.19701,12.4325,1.39159,0.464778,0.178291,0
2024-12-11 19:40:03.688,-1.4653,-1.24965,12.0015,1.39159,0.464778,0.178291,0
2024-12-11 19:40:03.691,-1.47488,-1.29272,11.5564,1.5217,0.642535,0.348717,0
2024-12-11 19:40:03.695,-1.40548,-1.33819,10.6968,1.55529,0.687127,0.400639,0
2024-12-11 19:40:03.696,-1.40548,-1.33819,10.6968,1.58339,0.721334,0.448286,0
2024-12-11 19:40:03.698,-1.35733,-1.34297,10.261,1.60355,0.751266,0.491656,0
2024-12-11 19:40:03.700,-1.2999,-1.34058,9.84706,1.60355,0.751266,0.491656,0
2024-12-11 19:40:03.704,-1.16351,-1.27358,9.01137,1.62737,0.786084,0.568012,0
2024-12-11 19:40:03.704,-1.16351,-1.27358,9.01137,1.62737,0.786084,0.568012,0
2024-12-11 19:40:03.708,-1.10848,-1.18983,8.60908,1.62798,0.793414,0.626042,0
2024-12-11 19:40:03.710,-1.08455,-1.11565,8.24537,1.62004,0.787306,0.651087,0
2024-12-11 19:40:03.712,-1.06301,-1.01515,7.90289,1.6066,0.773867,0.666969,0
2024-12-11 19:40:03.714,-1.04865,-0.895514,7.58944,1.6066,0.773867,0.666969,0
2024-12-11 19:40:03.716,-1.02473,-0.794716,7.28764,1.5895,0.756763,0.684073,0
2024-12-11 19:40:03.724,-0.969691,-0.454935,6.50728,1.54308,0.680407,0.711561,0
2024-12-11 19:40:03.726,-0.945763,-0.359223,6.30359,1.54308,0.680407,0.711561,0
2024-12-11 19:40:03.728,-0.897907,-0.267996,6.12174,1.45573,0.611382,0.714615,0
2024-12-11 19:40:03.728,-0.897907,-0.267996,6.12174,1.45573,0.611382,0.714615,0
2024-12-11 19:40:03.730,-0.862014,-0.181855,5.95903,1.42274,0.575342,0.71095,0
2024-12-11 19:40:03.731,-0.862014,-0.181855,5.95903,1.42274,0.575342,0.71095,0
2024-12-11 19:40:03.733,-0.833001,-0.102891,5.82712,1.42274,0.575342,0.71095,0
2024-12-11 19:40:03.735,-0.799502,-0.0287139,5.72662,1.35432,0.491656,0.692014,0
2024-12-11 19:40:03.737,-0.777966,0.0430708,5.62373,1.32195,0.45134,0.676742,0
2024-12-11 19:40:03.740,-0.761217,0.100499,5.52563,1.28713,0.40797,0.66086,0
2024-12-11 19:40:03.743,-0.758824,0.179462,5.43948,1.22483,0.325505,0.626653,0
2024-12-11 19:40:03.744,-0.756431,0.248854,5.35813,1.22483,0.325505,0.626653,0
2024-12-11 19:40:03.748,-0.744467,0.304188,5.28126,1.19245,0.27847,0.608328,0
2024-12-11 19:40:03.750,-0.725324,0.344866,5.19033,1.12709,0.181345,0.565568,0
2024-12-11 19:40:03.751,-0.696611,0.378365,5.1018,1.12709,0.181345,0.565568,0
2024-12-11 19:40:03.754,-0.663111,0.419043,5.01566,1.09166,0.130645,0.544799,0
2024-12-11 19:40:03.756,-0.629611,0.435793,4.92712,1.05379,0.0793338,0.520976,0
2024-12-11 19:40:03.761,-0.572184,0.447757,4.75932,0.968269,-0.0202343,0.472109,0
2024-12-11 19:40:03.761,-0.572184,0.447757,4.75932,0.968269,-0.0202343,0.472109,0
2024-12-11 19:40:03.764,-0.54347,0.452543,4.67558,0.880307,-0.113083,0.42263,0
2024-12-11 19:40:03.765,-0.507577,0.481256,4.60618,0.880307,-0.113083,0.42263,0
2024-12-11 19:40:03.768,-0.474078,0.488435,4.56551,0.828996,-0.152788,0.396974,0
2024-12-11 19:40:03.770,-0.445364,0.474078,4.52243,0.781961,-0.192493,0.37193,0
2024-12-11 19:40:03.773,-0.431007,0.478864,4.48894,0.731871,-0.229144,0.347496,0
2024-12-11 19:40:03.775,-0.426222,0.50997,4.48894,0.679339,-0.266406,0.323062,0
2024-12-11 19:40:03.777,-0.414257,0.521934,4.50329,0.626195,-0.29817,0.298628,0
2024-12-11 19:40:03.780,-0.397508,0.52672,4.52243,0.573662,-0.325658,0.277248,0
2024-12-11 19:40:03.782,-0.387936,0.548256,4.55115,0.52174,-0.351924,0.251593,0
2024-12-11 19:40:03.784,-0.397508,0.565005,4.61576,0.467985,-0.375137,0.230824,0
2024-12-11 19:40:03.787,-0.390329,0.588933,4.68515,0.416674,-0.395905,0.20639,0
2024-12-11 19:40:03.789,-0.375972,0.610469,4.74497,0.367806,-0.409955,0.179513,0
2024-12-11 19:40:03.791,-0.390329,0.632004,4.82902,0.316495,-0.420339,0.155079,0
2024-12-11 19:40:03.794,-0.426222,0.658325,4.91037,0.26946,-0.425226,0.131867,0
2024-12-11 19:40:03.797,-0.464507,0.687039,4.99651,0.219371,-0.427059,0.107433,0
2024-12-11 19:40:03.799,-0.524327,0.701396,5.0994,0.17539,-0.427059,0.0836097,0
2024-12-11 19:40:03.801,-0.60329,0.720539,5.19512,0.134463,-0.424004,0.0622301,0
2024-12-11 19:40:03.803,-0.663111,0.73011,5.29322,0.093536,-0.416063,0.0396287,0
2024-12-11 19:40:03.806,-0.732503,0.739681,5.38924,0.0532201,-0.405679,0.0194708,0
2024-12-11 19:40:03.809,-0.804287,0.74686,5.47298,0.0177909,-0.394073,-0.000687203,0
2024-12-11 19:40:03.810,-0.878764,0.74686,5.54955,-0.0188599,-0.382467,-0.0196235,0
2024-12-11 19:40:03.814,-0.964906,0.754038,5.61895,-0.0891073,-0.352535,-0.049555,0
2024-12-11 19:40:03.816,-1.05344,0.742074,5.68116,-0.123315,-0.336653,-0.0623828,0
2024-12-11 19:40:03.818,-1.14437,0.734896,5.74337,-0.156301,-0.321382,-0.0721563,0
2024-12-11 19:40:03.821,-1.24726,0.74686,5.79601,-0.189286,-0.304278,-0.081319,0
2024-12-11 19:40:03.823,-1.35972,0.76361,5.85105,-0.189286,-0.304278,-0.081319,0
2024-12-11 19:40:03.824,-1.4653,0.758824,5.92553,-0.22044,-0.290229,-0.0892601,0
2024-12-11 19:40:03.827,-1.57777,0.761217,5.99731,-0.251593,-0.273125,-0.0886492,0
2024-12-11 19:40:03.829,-1.70937,0.782752,6.08106,-0.281524,-0.257854,-0.0892601,0
2024-12-11 19:40:03.831,-1.81705,0.809073,6.18395,-0.309623,-0.243194,-0.0886492,0
2024-12-11 19:40:03.834,-1.92233,0.816252,6.29881,-0.309623,-0.243194,-0.0886492,0
2024-12-11 19:40:03.837,-2.02552,0.813859,6.41366,-0.373762,-0.203488,-0.0648262,0
2024-12-11 19:40:03.838,-2.09492,0.809073,6.51925,-0.373762,-0.203488,-0.0648262,0
2024-12-11 19:40:03.842,-2.14756,0.797109,6.63171,-0.405526,-0.186996,-0.0385597,0
2024-12-11 19:40:03.844,-2.19541,0.794716,6.75853,-0.414689,-0.181498,-0.0238994,0
2024-12-11 19:40:03.846,-2.23849,0.785145,6.88535,-0.414689,-0.181498,-0.0238994,0
2024-12-11 19:40:03.848,-2.27199,0.775574,6.98345,-0.423241,-0.177833,-0.00984991,0
2024-12-11 19:40:03.850,-2.29113,0.775574,7.07468,-0.426906,-0.176,0.00786466,0
2024-12-11 19:40:03.853,-2.31266,0.775574,7.17757,-0.426906,-0.176,0.00786466,0
2024-12-11 19:40:03.856,-2.34856,0.792323,7.2685,-0.429349,-0.176611,0.0445155,0
2024-12-11 19:40:03.858,-2.38206,0.825823,7.34507,-0.429349,-0.178444,0.0658951,0
2024-12-11 19:40:03.860,-2.4012,0.857229,7.41207,-0.428738,-0.183331,0.0860531,0
2024-12-11 19:40:03.862,-2.41795,0.869193,7.48385,-0.423852,-0.186996,0.106822,0
2024-12-11 19:40:03.864,-2.4347,0.88355,7.54128,-0.417743,-0.190661,0.130034,0
2024-12-11 19:40:03.867,-2.42513,0.914656,7.59183,-0.411024,-0.194937,0.154468,0
2024-12-11 19:40:03.870,-2.4012,0.948156,7.65404,-0.396364,-0.205932,0.199671,0
2024-12-11 19:40:03.871,-2.36291,0.984048,7.69233,-0.396364,-0.205932,0.199671,0
2024-12-11 19:40:03.874,-2.30548,1.01994,7.72583,-0.387201,-0.210208,0.22105,0
2024-12-11 19:40:03.876,-2.26481,1.04865,7.78086,-0.377427,-0.215705,0.244263,0
2024-12-11 19:40:03.879,-2.22174,1.07976,7.8359,-0.368875,-0.216927,0.265642,0
2024-12-11 19:40:03.886,-2.02074,1.2018,7.98664,-0.356048,-0.223036,0.285189,0
2024-12-11 19:40:03.886,-2.02074,1.2018,7.98664,-0.356048,-0.223036,0.285189,0
2024-12-11 19:40:03.888,-1.93669,1.23051,8.02732,-0.318786,-0.241972,0.341387,0
2024-12-11 19:40:03.890,-1.88166,1.25922,8.05125,-0.305958,-0.248691,0.357269,0
2024-12-11 19:40:03.890,-1.88166,1.25922,8.05125,-0.305958,-0.248691,0.357269,0
2024-12-11 19:40:03.893,-1.82423,1.29272,8.08953,-0.291298,-0.250524,0.371319,0
2024-12-11 19:40:03.895,-1.76441,1.3334,8.135,-0.277248,-0.254189,0.389033,0
2024-12-11 19:40:03.898,-1.70459,1.38604,8.17358,-0.261366,-0.258465,0.406137,0
2024-12-11 19:40:03.900,-1.6328,1.42702,8.20469,-0.246095,-0.260297,0.418354,0
2024-12-11 19:40:03.903,-1.5658,1.47966,8.23101,-0.211277,-0.265795,0.449507,0
2024-12-11 19:40:03.905,-1.50838,1.52513,8.25972,-0.211277,-0.265795,0.449507,0
2024-12-11 19:40:03.907,-1.45573,1.58495,8.29801,-0.192951,-0.266406,0.462335,0
2024-12-11 19:40:03.909,-1.39322,1.64716,8.33869,-0.175848,-0.268238,0.474552,0
2024-12-11 19:40:03.912,-1.33579,1.69741,8.3674,-0.154468,-0.265184,0.486158,0
2024-12-11 19:40:03.915,-1.28315,1.75484,8.37219,-0.11232,-0.259076,0.507538,0
2024-12-11 19:40:03.917,-1.22333,1.81226,8.3674,-0.0952158,-0.250524,0.514257,0
2024-12-11 19:40:03.919,-1.1683,1.87687,8.36262,-0.0952158,-0.250524,0.514257,0
2024-12-11 19:40:03.921,-1.11565,1.93191,8.35783,-0.0775012,-0.240139,0.520366,0
2024-12-11 19:40:03.923,-1.06062,1.98963,8.32912,-0.0567324,-0.226701,0.526474,0
2024-12-11 19:40:03.926,-1.01276,2.04227,8.27887,-0.0390179,-0.213873,0.530139,0
2024-12-11 19:40:03.928,-0.967299,2.0997,8.21665,-0.022525,-0.198602,0.533193,0
2024-12-11 19:40:03.931,-0.905085,2.14756,8.14487,-0.00725381,-0.18272,0.533193,0
2024-12-11 19:40:03.935,-0.785145,2.21216,7.96989,0.0165692,-0.150345,0.529528,0
2024-12-11 19:40:03.936,-0.785145,2.21216,7.96989,0.0165692,-0.150345,0.529528,0
2024-12-11 19:40:03.938,-0.744467,2.26481,7.87418,0.021456,-0.134463,0.524641,0
2024-12-11 19:40:03.940,-0.710967,2.31506,7.75933,0.0257319,-0.118581,0.517311,0
2024-12-11 19:40:03.944,-0.646361,2.41795,7.54607,0.0245102,-0.0843733,0.501429,0
2024-12-11 19:40:03.945,-0.646361,2.41795,7.54607,0.0245102,-0.0843733,0.501429,0
2024-12-11 19:40:03.947,-0.63679,2.45863,7.45753,0.0220669,-0.0684913,0.492267,0
2024-12-11 19:40:03.949,-0.622433,2.48734,7.37617,0.0147367,-0.0532201,0.484326,0
2024-12-11 19:40:03.953,-0.608076,2.50409,7.29003,-0.00603212,-0.0269536,0.461724,0
2024-12-11 19:40:03.954,-0.605683,2.53071,7.21586,-0.00603212,-0.0269536,0.461724,0
2024-12-11 19:40:03.956,-0.624826,2.55942,7.15125,-0.0200816,-0.0122933,0.450118,0
2024-12-11 19:40:03.959,-0.665504,2.58574,7.10339,-0.0359636,-0.00374144,0.439123,0
2024-12-11 19:40:03.961,-0.715753,2.60728,7.0675,-0.0567324,0.00358873,0.42996,0
2024-12-11 19:40:03.964,-0.768395,2.64078,7.02922,-0.0713928,0.0109189,0.418354,0
2024-12-11 19:40:03.966,-0.825823,2.69581,7.02443,-0.0933833,0.0176382,0.409802,0
2024-12-11 19:40:03.968,-0.9003,2.74846,7.04357,-0.115985,0.0243575,0.403694,0
2024-12-11 19:40:03.970,-0.96012,2.77956,7.07229,-0.134921,0.0316877,0.400029,0
2024-12-11 19:40:03.973,-1.02951,2.82024,7.12014,-0.15569,0.0414613,0.398807,0
2024-12-11 19:40:03.976,-1.0989,2.88245,7.18475,-0.192341,0.0707819,0.399418,0
2024-12-11 19:40:03.977,-1.15872,2.92552,7.26132,-0.192341,0.0707819,0.399418,0
2024-12-11 19:40:03.980,-1.20419,2.95902,7.35225,-0.209444,0.0854423,0.404915,0
2024-12-11 19:40:03.983,-1.23529,2.98774,7.45035,-0.233878,0.118428,0.417132,0
2024-12-11 19:40:03.986,-1.26162,3.01406,7.55324,-0.241819,0.139808,0.425073,0
2024-12-11 19:40:03.989,-1.27358,3.07627,7.74497,-0.247317,0.158133,0.431793,0
2024-12-11 19:40:03.989,-1.2999,3.07627,7.74497,-0.247317,0.158133,0.431793,0
2024-12-11 19:40:03.994,-1.34058,3.13161,7.90768,-0.250982,0.200282,0.448286,0
2024-12-11 19:40:03.994,-1.34058,3.13161,7.90768,-0.250982,0.200282,0.448286,0
2024-12-11 19:40:03.997,-1.3334,3.17707,7.96511,-0.252814,0.216774,0.457448,0
2024-12-11 19:40:04.001,-1.35494,3.24885,8.05364,-0.255869,0.241208,0.469054,0
2024-12-11 19:40:04.002,-1.35494,3.24885,8.05364,-0.260755,0.243652,0.47333,0
2024-12-11 19:40:04.003,-1.33579,3.28475,8.11346,-0.260755,0.243652,0.47333,0
2024-12-11 19:40:04.007,-1.31186,3.31346,8.15444,-0.266864,0.230824,0.475774,0
2024-12-11 19:40:04.008,-1.26401,3.35892,8.17837,-0.266864,0.230824,0.475774,0
2024-12-11 19:40:04.010,-1.2018,3.41157,8.19512,-0.274805,0.214942,0.474552,0
2024-12-11 19:40:04.013,-1.12522,3.44985,8.22383,-0.286411,0.192341,0.470276,0
2024-12-11 19:40:04.015,-1.01276,3.46899,8.27647,-0.296795,0.165463,0.462335,0
2024-12-11 19:40:04.020,-0.921835,3.47857,8.35065,-0.333446,0.0872748,0.440955,0
2024-12-11 19:40:04.021,-0.854836,3.49292,8.41765,-0.353604,0.0469589,0.428128,0
2024-12-11 19:40:04.023,-0.794716,3.53839,8.48704,-0.353604,0.0469589,0.428128,0
2024-12-11 19:40:04.025,-0.787538,3.60539,8.57797,-0.378038,0.00297788,0.411635,0
2024-12-11 19:40:04.027,-0.804287,3.68226,8.71945,-0.40125,-0.0379489,0.396974,0
2024-12-11 19:40:04.030,-0.813859,3.766,8.89891,-0.45134,-0.119802,0.369486,0
2024-12-11 19:40:04.033,-0.828216,3.84975,9.1023,-0.478217,-0.160729,0.356048,0
2024-12-11 19:40:04.035,-0.842872,3.93829,9.34188,-0.478217,-0.160729,0.356048,0
2024-12-11 19:40:04.036,-0.862014,4.02204,9.60748,-0.497153,-0.19738,0.341998,0
2024-12-11 19:40:04.039,-0.871586,4.09861,9.89253,-0.51609,-0.234031,0.327949,0
2024-12-11 19:40:04.042,-0.881157,4.13689,10.1916,-0.542967,-0.29817,0.297406,0
2024-12-11 19:40:04.043,-0.9003,4.15843,10.5054,-0.542967,-0.29817,0.297406,0
2024-12-11 19:40:04.047,-0.885943,4.19193,10.7997,-0.550908,-0.344594,0.263199,0
2024-12-11 19:40:04.048,-0.864407,4.20897,11.0895,-0.550908,-0.344594,0.263199,0
2024-12-11 19:40:04.050,-0.857229,4.22572,11.4054,-0.548464,-0.361087,0.246706,0
2024-12-11 19:40:04.054,-0.852443,4.25205,11.7168,-0.53075,-0.384299,0.208223,0
2024-12-11 19:40:04.055,-0.857229,4.27119,11.9943,-0.53075,-0.384299,0.208223,0
2024-12-11 19:40:04.059,-0.876371,4.30469,12.2507,-0.498986,-0.395905,0.17035,0
2024-12-11 19:40:04.061,-0.890728,4.34058,12.4923,-0.479439,-0.402014,0.152635,0
2024-12-11 19:40:04.063,-0.890728,4.35494,12.7032,-0.456227,-0.406901,0.13431,0
2024-12-11 19:40:04.065,-0.878764,4.36212,12.9018,-0.456227,-0.406901,0.13431,0
2024-12-11 19:40:04.068,-0.859622,4.35972,13.0956,-0.413467,-0.427059,0.101324,0
2024-12-11 19:40:04.069,-0.842872,4.34297,13.2538,-0.413467,-0.427059,0.101324,0
2024-12-11 19:40:04.072,-0.816252,4.31905,13.3831,-0.393309,-0.441719,0.0842206,0
2024-12-11 19:40:04.075,-0.76361,4.28555,13.4931,-0.356658,-0.467985,0.0555107,0
2024-12-11 19:40:04.077,-0.710967,4.23769,13.5912,-0.356658,-0.467985,0.0555107,0
2024-12-11 19:40:04.079,-0.663111,4.18475,13.6917,-0.356658,-0.467985,0.0555107,0
2024-12-11 19:40:04.082,-0.596112,4.12493,13.7949,-0.326727,-0.496084,0.0316877,0
2024-12-11 19:40:04.083,-0.54347,4.07468,13.9146,-0.316343,-0.50769,0.0213033,0
2024-12-11 19:40:04.086,-0.505185,4.034,14.0342,-0.304126,-0.516242,0.0115297,0
2024-12-11 19:40:04.089,-0.478864,4.00289,14.1706,-0.290076,-0.532735,0.000534491,0
2024-12-11 19:40:04.092,-0.459721,3.96222,14.3216,-0.280913,-0.537622,-0.00251974,0
2024-12-11 19:40:04.094,-0.431007,3.94068,14.4652,-0.273583,-0.540065,-0.00435229,0
2024-12-11 19:40:04.095,-0.419043,3.93111,14.6136,-0.273583,-0.540065,-0.00435229,0
2024-12-11 19:40:04.098,-0.411865,3.91436,14.7404,-0.265031,-0.540065,-0.00129805,0
2024-12-11 19:40:04.102,-0.435793,3.98375,15.0087,-0.245484,-0.523572,0.000534491,0
2024-12-11 19:40:04.105,-0.459721,4.02682,15.1307,-0.236322,-0.506469,0.00542127,0
2024-12-11 19:40:04.105,-0.459721,4.02682,15.1307,-0.236322,-0.506469,0.00542127,0
2024-12-11 19:40:04.108,-0.488435,4.08186,15.2288,-0.224715,-0.482646,0.0096972,0
2024-12-11 19:40:04.109,-0.517149,4.14168,15.291,-0.216164,-0.453325,0.0133623,0
2024-12-11 19:40:04.112,-0.514756,4.19671,15.3365,-0.207612,-0.424004,0.0158057,0
2024-12-11 19:40:04.115,-0.507577,4.25444,15.358,-0.197838,-0.370861,0.0170274,0
2024-12-11 19:40:04.116,-0.490828,4.29751,15.3652,-0.197838,-0.370861,0.0170274,0
2024-12-11 19:40:04.119,-0.4334,4.32383,15.3604,-0.196006,-0.351314,0.0133623,0
2024-12-11 19:40:04.123,-0.208176,4.37408,15.3221,-0.20639,-0.337264,-0.00679568,0
2024-12-11 19:40:04.124,-0.208176,4.37408,15.3221,-0.20639,-0.337264,-0.00679568,0
2024-12-11 19:40:04.126,-0.0909273,4.35733,15.2862,-0.219829,-0.339097,-0.0232886,0
2024-12-11 19:40:04.128,0.026321,4.36212,15.2384,-0.232046,-0.348259,-0.0440574,0
2024-12-11 19:40:04.132,0.160319,4.36212,15.1618,-0.272972,-0.381245,-0.102088,0
2024-12-11 19:40:04.133,0.272782,4.35015,15.0996,-0.272972,-0.381245,-0.102088,0
2024-12-11 19:40:04.135,0.385544,4.32862,15.0518,-0.301682,-0.406901,-0.136906,0
2024-12-11 19:40:04.138,0.505185,4.29272,15.0446,-0.331003,-0.434389,-0.174168,0
2024-12-11 19:40:04.140,0.596112,4.25683,15.0948,-0.363989,-0.470429,-0.215705,0
2024-12-11 19:40:04.143,0.672682,4.20628,15.1618,-0.399418,-0.509523,-0.260297,0
2024-12-11 19:40:04.146,0.756431,4.12732,15.2671,-0.462946,-0.587711,-0.350092,0
2024-12-11 19:40:04.147,0.869193,4.02204,15.4131,-0.462946,-0.587711,-0.350092,0
2024-12-11 19:40:04.149,0.957727,3.91197,15.6168,-0.48738,-0.619475,-0.397127,0
2024-12-11 19:40:04.152,1.02951,3.77079,15.8321,-0.512424,-0.639633,-0.442941,0
2024-12-11 19:40:04.154,1.12044,3.59342,16.0358,-0.528307,-0.648796,-0.489976,0
2024-12-11 19:40:04.157,1.1994,3.42353,16.2799,-0.539302,-0.648796,-0.534568,0
2024-12-11 19:40:04.160,1.24487,3.24407,16.596,-0.540523,-0.639633,-0.577938,0
2024-12-11 19:40:04.161,1.24965,3.04995,16.9238,-0.532582,-0.624362,-0.617032,0
2024-12-11 19:40:04.165,1.1994,2.87528,17.2065,-0.483104,-0.567553,-0.688501,0
2024-12-11 19:40:04.166,1.12283,2.70299,17.4577,-0.483104,-0.567553,-0.688501,0
2024-12-11 19:40:04.168,1.00558,2.52084,17.6877,-0.445842,-0.528459,-0.7166,0
2024-12-11 19:40:04.172,0.864407,2.34616,17.8792,-0.340166,-0.424004,-0.753251,0
2024-12-11 19:40:04.175,0.612862,1.99681,18.14,-0.272362,-0.364752,-0.766079,0
2024-12-11 19:40:04.176,0.612862,1.99681,18.14,-0.272362,-0.364752,-0.766079,0
2024-12-11 19:40:04.181,0.289831,1.64716,18.0993,-0.0402396,-0.169281,-0.761192,1
2024-12-11 19:40:04.181,0.289831,1.64716,18.0993,-0.0402396,-0.169281,-0.761192,1
2024-12-11 19:40:04.183,0.136391,1.48445,18.006,-0.0402396,-0.169281,-0.761192,0
2024-12-11 19:40:04.185,-0.0143569,1.31186,17.8505,0.0422248,-0.101477,-0.744699,0
2024-12-11 19:40:04.188,-0.153141,1.1324,17.6372,0.1253,-0.0312296,-0.725763,0
2024-12-11 19:40:04.192,-0.395115,0.837787,17.1105,0.295116,0.117206,-0.664678,0
2024-12-11 19:40:04.192,-0.395115,0.837787,17.1105,0.295116,0.117206,-0.664678,0
2024-12-11 19:40:04.194,-0.488435,0.718146,16.8281,0.376969,0.194784,-0.629249,0
2024-12-11 19:40:04.197,-0.562612,0.581755,16.5168,0.462488,0.277859,-0.587711,0
2024-12-11 19:40:04.199,-0.617647,0.474078,16.177,0.544952,0.360934,-0.544341,0
2024-12-11 19:40:04.201,-0.679861,0.402293,15.8249,0.624362,0.449507,-0.495473,0
2024-12-11 19:40:04.204,-0.737288,0.308973,15.4397,0.704994,0.539913,-0.445384,0
2024-12-11 19:40:04.207,-0.787538,0.222533,15.0541,0.858928,0.716447,-0.339097,0
2024-12-11 19:40:04.209,-0.821037,0.165105,14.6734,0.93284,0.802653,-0.284731,0
2024-12-11 19:40:04.211,-0.830609,0.0981057,14.2543,0.93284,0.802653,-0.284731,0
2024-12-11 19:40:04.213,-0.830609,0.0382852,13.8165,1.00797,0.884507,-0.227312,0
2024-12-11 19:40:04.216,-0.818644,-0.0191426,13.3687,1.08005,0.960252,-0.174168,0
2024-12-11 19:40:04.218,-0.782752,-0.066999,12.909,1.14786,1.02989,-0.121024,0
2024-12-11 19:40:04.220,-0.74686,-0.107677,12.4588,1.212,1.09219,-0.0715455,0
2024-12-11 19:40:04.226,-0.679861,-0.16989,11.4867,1.27125,1.14778,-0.0257319,0
2024-12-11 19:40:04.226,-0.679861,-0.16989,11.4867,1.27125,1.14778,-0.0257319,0
2024-12-11 19:40:04.229,-0.610469,-0.16989,10.4958,1.42335,1.26506,0.0970484,0
2024-12-11 19:40:04.230,-0.610469,-0.16989,10.4958,1.42335,1.26506,0.0970484,0
2024-12-11 19:40:04.232,-0.600898,-0.131605,10.0193,1.46489,1.28706,0.132477,0
2024-12-11 19:40:04.234,-0.596112,-0.0957129,9.5357,1.49971,1.3011,0.164242,0
2024-12-11 19:40:04.240,-0.574577,0.0167498,8.63301,1.56385,1.27362,0.254647,0
2024-12-11 19:40:04.240,-0.574577,0.0167498,8.63301,1.56385,1.27362,0.254647,0
2024-12-11 19:40:04.241,-0.562612,0.0693919,8.18315,1.56385,1.27362,0.254647,0
2024-12-11 19:40:04.244,-0.553041,0.122034,7.74975,1.5724,1.24246,0.275416,0
2024-12-11 19:40:04.246,-0.519542,0.189033,7.32593,1.57362,1.20703,0.298017,0
2024-12-11 19:40:04.249,-0.486042,0.270389,6.9356,1.5669,1.16244,0.315732,0
2024-12-11 19:40:04.251,-0.4669,0.371187,6.55753,1.55468,1.10563,0.330392,0
2024-12-11 19:40:04.253,-0.447757,0.469292,6.18634,1.53575,1.04394,0.339555,0
2024-12-11 19:40:04.255,-0.419043,0.584148,5.85823,1.5107,0.976134,0.346885,0
2024-12-11 19:40:04.259,-0.361615,0.706182,5.5663,1.44534,0.823422,0.35055,0
2024-12-11 19:40:04.260,-0.368794,0.833001,5.27887,1.44534,0.823422,0.35055,0
2024-12-11 19:40:04.263,-0.366401,0.972084,5.01805,1.40441,0.743936,0.346885,0
2024-12-11 19:40:04.265,-0.294616,1.08455,4.78594,1.35738,0.662082,0.344442,0
2024-12-11 19:40:04.267,-0.222533,1.18983,4.59422,1.30546,0.577785,0.334668,0
2024-12-11 19:40:04.270,-0.193819,1.30469,4.43629,1.25353,0.492877,0.323062,0
2024-12-11 19:40:04.272,-0.167498,1.41745,4.29033,1.19795,0.409191,0.307791,0
2024-12-11 19:40:04.275,-0.0957129,1.51795,4.16561,1.07395,0.233878,0.269918,0
2024-12-11 19:40:04.278,-0.0167498,1.61366,4.04596,1.00675,0.150803,0.246706,0
2024-12-11 19:40:04.279,0.066999,1.70459,3.95264,1.00675,0.150803,0.246706,0
2024-12-11 19:40:04.282,0.157926,1.78594,3.90957,0.937727,0.0701711,0.22044,0
2024-12-11 19:40:04.285,0.265603,1.84576,3.89761,0.798454,-0.0868167,0.158133,0
2024-12-11 19:40:04.286,0.361615,1.91276,3.89282,0.798454,-0.0868167,0.158133,0
2024-12-11 19:40:04.288,0.438186,1.98485,3.90718,0.726985,-0.163173,0.122704,0
2024-12-11 19:40:04.291,0.517149,2.03031,3.94547,0.655515,-0.235863,0.0872748,0
2024-12-11 19:40:04.293,0.60329,2.07338,3.99093,0.581603,-0.302446,0.0451263,0
2024-12-11 19:40:04.296,0.706182,2.0997,4.06511,0.505858,-0.367196,0.00236703,0
2024-12-11 19:40:04.298,0.809073,2.08295,4.168,0.431335,-0.430113,-0.0403923,0
2024-12-11 19:40:04.301,0.912264,2.0662,4.2999,0.286564,-0.542509,-0.131409,0
2024-12-11 19:40:04.304,1.01276,2.0351,4.45304,0.286564,-0.542509,-0.131409,0
2024-12-11 19:40:04.305,1.09651,1.98245,4.61336,0.215095,-0.58649,-0.178444,0
2024-12-11 19:40:04.307,1.17069,1.92951,4.78355,0.149123,-0.624973,-0.224257,0
2024-12-11 19:40:04.311,1.2329,1.87687,4.95823,0.021456,-0.676895,-0.31283,0
2024-12-11 19:40:04.312,1.27119,1.81226,5.14726,0.021456,-0.676895,-0.31283,0
2024-12-11 19:40:04.315,1.30229,1.75005,5.36052,-0.0891073,-0.700107,-0.397127,0
2024-12-11 19:40:04.317,1.31904,1.69741,5.6022,-0.0891073,-0.700107,-0.397127,0
2024-12-11 19:40:04.320,1.31426,1.64716,5.86062,-0.180734,-0.697053,-0.473483,0
2024-12-11 19:40:04.322,1.28794,1.61845,6.10977,-0.180734,-0.697053,-0.473483,0
2024-12-11 19:40:04.325,1.24008,1.59452,6.35623,-0.244873,-0.662235,-0.538233,0
2024-12-11 19:40:04.326,1.17787,1.58255,6.58864,-0.244873,-0.662235,-0.538233,0
2024-12-11 19:40:04.329,1.0989,1.57059,6.81596,-0.269307,-0.634747,-0.566332,0
2024-12-11 19:40:04.331,1.0008,1.53948,7.02443,-0.288244,-0.60115,-0.589544,0
2024-12-11 19:40:04.333,0.917049,1.52034,7.21107,-0.303515,-0.562667,-0.609702,0
2024-12-11 19:40:04.335,0.828216,1.49402,7.38335,-0.312067,-0.522351,-0.626195,0
2024-12-11 19:40:04.338,0.73011,1.47009,7.55085,-0.320618,-0.480202,-0.640855,0
2024-12-11 19:40:04.340,0.615255,1.44138,7.68993,-0.320618,-0.435,-0.650018,0
2024-12-11 19:40:04.344,0.500399,1.40279,7.81436,-0.310845,-0.347648,-0.661013,0
2024-12-11 19:40:04.346,0.390329,1.3669,7.92204,-0.29985,-0.300002,-0.661013,0
2024-12-11 19:40:04.348,0.258425,1.33819,7.99382,-0.284578,-0.256021,-0.657959,0
2024-12-11 19:40:04.350,0.136391,1.31904,8.06321,-0.284578,-0.256021,-0.657959,0
2024-12-11 19:40:04.352,0.0358923,1.30947,8.10629,-0.271751,-0.210208,-0.65124,0
2024-12-11 19:40:04.354,-0.0741775,1.29751,8.12782,-0.255258,-0.166227,-0.643299,0
2024-12-11 19:40:04.358,-0.20339,1.28076,8.14487,-0.238154,-0.123468,-0.632303,0
2024-12-11 19:40:04.359,-0.328116,1.28554,8.13261,-0.214331,-0.0819299,-0.618254,0
2024-12-11 19:40:04.361,-0.464507,1.28554,8.09432,-0.19906,-0.0452791,-0.60115,0
2024-12-11 19:40:04.364,-0.586541,1.28554,8.04168,-0.177069,-0.00923906,-0.583435,0
2024-12-11 19:40:04.366,-0.687039,1.2999,7.97229,-0.157522,0.0237467,-0.55778,0
2024-12-11 19:40:04.368,-0.775574,1.31186,7.90529,-0.140419,0.050624,-0.535179,0
2024-12-11 19:40:04.371,-0.859622,1.35494,7.84068,-0.122704,0.0762796,-0.509523,0
2024-12-11 19:40:04.374,-0.938585,1.37886,7.76172,-0.106822,0.0976592,-0.480202,0
2024-12-11 19:40:04.376,-0.986441,1.39322,7.67318,-0.0891073,0.115985,-0.451492,0
2024-12-11 19:40:04.378,-1.01276,1.41506,7.59422,-0.0768904,0.130645,-0.422783,0
2024-12-11 19:40:04.380,-1.03669,1.43659,7.52453,-0.0646735,0.145916,-0.393462,0
2024-12-11 19:40:04.383,-1.05344,1.4677,7.48385,-0.0542891,0.155079,-0.364752,0
2024-12-11 19:40:04.385,-1.06301,1.50598,7.46232,-0.0396287,0.167296,-0.334821,0
2024-12-11 19:40:04.387,-1.06301,1.54188,7.4336,-0.0243575,0.177069,-0.304278,0
2024-12-11 19:40:04.390,-1.03908,1.57777,7.43121,-0.00847551,0.186843,-0.276179,0
2024-12-11 19:40:04.392,-1.01276,1.61366,7.45275,0.00435229,0.194784,-0.24808,0
2024-12-11 19:40:04.394,-0.984048,1.65912,7.45035,0.021456,0.202725,-0.222425,0
2024-12-11 19:40:04.397,-0.94337,1.70698,7.45514,0.0403923,0.207001,-0.19738,0
2024-12-11 19:40:04.399,-0.895514,1.7333,7.45514,0.0568851,0.212498,-0.172335,0
2024-12-11 19:40:04.402,-0.847657,1.75962,7.42642,0.0752106,0.221661,-0.150956,0
2024-12-11 19:40:04.404,-0.811466,1.78834,7.40967,0.0965902,0.225937,-0.131409,0
2024-12-11 19:40:04.407,-0.780359,1.82423,7.38096,0.141793,0.233267,-0.0965902,0
2024-12-11 19:40:04.410,-0.734896,1.86251,7.34746,0.141793,0.233267,-0.0965902,0
2024-12-11 19:40:04.411,-0.672682,1.89362,7.29003,0.164394,0.234489,-0.0800973,0
2024-12-11 19:40:04.413,-0.612862,1.93191,7.21346,0.183331,0.233267,-0.0678804,0
2024-12-11 19:40:04.416,-0.56022,1.96301,7.14407,0.204099,0.229602,-0.0556635,0
2024-12-11 19:40:04.418,-0.505185,1.98963,7.06032,0.222425,0.224715,-0.0471116,0
2024-12-11 19:40:04.421,-0.454935,2.02313,6.9691,0.247469,0.211277,-0.0330621,0
2024-12-11 19:40:04.423,-0.407079,2.0686,6.89253,0.247469,0.211277,-0.0330621,0
2024-12-11 19:40:04.425,-0.359223,2.12602,6.82313,0.26213,0.208833,-0.0287862,0
2024-12-11 19:40:04.427,-0.328116,2.19063,6.74656,0.271293,0.205168,-0.0245102,0
2024-12-11 19:40:04.430,-0.27996,2.23849,6.67239,0.279234,0.208223,-0.021456,0
2024-12-11 19:40:04.432,-0.222533,2.28395,6.61017,0.288396,0.208833,-0.0184018,0
2024-12-11 19:40:04.435,-0.177069,2.31984,6.5336,0.294505,0.208833,-0.0190126,0
2024-12-11 19:40:04.438,-0.129212,2.35334,6.44716,0.296948,0.211277,-0.0184018,0
2024-12-11 19:40:04.439,-0.0789631,2.40598,6.37538,0.300002,0.211888,-0.0226777,0
2024-12-11 19:40:04.441,-0.0478565,2.44905,6.30359,0.300002,0.213109,-0.0257319,0
2024-12-11 19:40:04.444,-0.0311067,2.4682,6.24138,0.299392,0.211888,-0.0306187,0
2024-12-11 19:40:04.447,-0.00957129,2.50648,6.17677,0.29084,0.20639,-0.0446682,0
2024-12-11 19:40:04.450,0.00957129,2.54985,6.10259,0.29084,0.20639,-0.0446682,0
2024-12-11 19:40:04.451,0.0382852,2.6001,6.05235,0.279844,0.203336,-0.0526092,0
2024-12-11 19:40:04.453,0.0526421,2.6671,5.9997,0.270071,0.19906,-0.0611611,0
2024-12-11 19:40:04.456,0.0574277,2.71496,5.95185,0.256632,0.191119,-0.0721563,0
2024-12-11 19:40:04.458,0.0598206,2.77238,5.9016,0.243804,0.185621,-0.085595,0
2024-12-11 19:40:04.461,0.0717847,2.8322,5.82951,0.225479,0.175237,-0.0978119,0
2024-12-11 19:40:04.463,0.066999,2.87288,5.7673,0.202267,0.166074,-0.11064,0
2024-12-11 19:40:04.465,0.0430708,2.92313,5.71944,0.180887,0.156911,-0.124078,0
2024-12-11 19:40:04.467,0.0119641,2.95902,5.67637,0.155232,0.145305,-0.138739,0
2024-12-11 19:40:04.471,-0.0478565,3.02124,5.64527,0.0917034,0.122093,-0.167449,0
2024-12-11 19:40:04.472,-0.0885344,3.10529,5.62134,0.0917034,0.122093,-0.167449,0
2024-12-11 19:40:04.474,-0.133998,3.16989,5.62612,0.0556635,0.109876,-0.182109,0
2024-12-11 19:40:04.477,-0.208176,3.23211,5.64287,0.0171801,0.0982701,-0.197991,0
2024-12-11 19:40:04.479,-0.27996,3.3015,5.6692,-0.0206925,0.0829989,-0.21204,0
2024-12-11 19:40:04.483,-0.352044,3.3996,5.74816,-0.0579541,0.0683385,-0.224868,0
2024-12-11 19:40:04.484,-0.435793,3.48814,5.85105,-0.094605,0.050624,-0.239528,0
2024-12-11 19:40:04.486,-0.524327,3.54796,5.9662,-0.131256,0.0322986,-0.251135,0
2024-12-11 19:40:04.489,-0.615255,3.61017,6.12174,-0.166685,0.0109189,-0.260908,0
2024-12-11 19:40:04.491,-0.703789,3.65833,6.28684,-0.201503,-0.00862822,-0.273736,0
2024-12-11 19:40:04.496,-0.825823,3.78515,6.62453,-0.263199,-0.0452791,-0.297559,0
2024-12-11 19:40:04.496,-0.825823,3.78515,6.62453,-0.263199,-0.0452791,-0.297559,0
2024-12-11 19:40:04.499,-0.885943,3.82343,6.80638,-0.313288,-0.0770431,-0.315884,0
2024-12-11 19:40:04.500,-0.940978,3.84736,6.99063,-0.313288,-0.0770431,-0.315884,0
2024-12-11 19:40:04.503,-0.986441,3.87847,7.17757,-0.337111,-0.0886492,-0.32749,0
2024-12-11 19:40:04.505,-1.0343,3.9,7.3666,-0.353604,-0.0953685,-0.334821,0
2024-12-11 19:40:04.507,-1.10369,3.93829,7.52214,-0.369486,-0.10331,-0.342762,0
2024-12-11 19:40:04.510,-1.17547,3.95743,7.7019,-0.382925,-0.109418,-0.349481,0
2024-12-11 19:40:04.512,-1.24487,3.95504,7.89572,-0.395142,-0.112472,-0.352535,0
2024-12-11 19:40:04.514,-1.31665,3.96939,8.06561,-0.402472,-0.11064,-0.3562,0
2024-12-11 19:40:04.517,-1.39561,3.97657,8.24298,-0.414689,-0.108807,-0.359865,0
2024-12-11 19:40:04.520,-1.4653,3.98375,8.41765,-0.420797,-0.110029,-0.359865,0
2024-12-11 19:40:04.523,-1.52513,3.99811,8.59711,-0.426295,-0.114305,-0.356811,0
2024-12-11 19:40:04.524,-1.57298,4.01964,8.79362,-0.426295,-0.114305,-0.356811,0
2024-12-11 19:40:04.526,-1.61366,4.03879,8.98983,-0.426906,-0.116748,-0.3562,0
2024-12-11 19:40:04.529,-1.66152,4.04118,9.17408,-0.426295,-0.119192,-0.353146,0
2024-12-11 19:40:04.531,-1.70698,4.03879,9.36581,-0.422019,-0.122246,-0.350092,0
2024-12-11 19:40:04.537,-1.77159,4.02921,9.74148,-0.399418,-0.127133,-0.329934,0
2024-12-11 19:40:04.538,-1.78594,4.02443,9.90928,-0.399418,-0.127133,-0.329934,0
2024-12-11 19:40:04.539,-1.78594,4.02443,9.90928,-0.389033,-0.124078,-0.324436,0
2024-12-11 19:40:04.541,-1.79551,4.02443,10.0481,-0.389033,-0.124078,-0.324436,0
2024-12-11 19:40:04.543,-1.79073,4.01964,10.1605,-0.377427,-0.121635,-0.317717,0
2024-12-11 19:40:04.546,-1.76919,3.98854,10.261,-0.352993,-0.11797,-0.301224,0
2024-12-11 19:40:04.548,-1.7668,3.93829,10.3424,-0.352993,-0.11797,-0.301224,0
2024-12-11 19:40:04.550,-1.7668,3.89761,10.4049,-0.34322,-0.11797,-0.293894,0
2024-12-11 19:40:04.552,-1.75484,3.86411,10.4671,-0.33589,-0.118581,-0.288396,0
2024-12-11 19:40:04.556,-1.77637,3.83061,10.5293,-0.337111,-0.128354,-0.280455,0
2024-12-11 19:40:04.557,-1.81226,3.8019,10.582,-0.337111,-0.138128,-0.271903,0
2024-12-11 19:40:04.559,-1.82901,3.78275,10.637,-0.340166,-0.150956,-0.263352,0
2024-12-11 19:40:04.562,-1.86251,3.76361,10.7064,-0.348717,-0.163173,-0.255411,0
2024-12-11 19:40:04.564,-1.91037,3.74925,10.7901,-0.354215,-0.172946,-0.246859,0
2024-12-11 19:40:04.566,-1.94626,3.76122,10.8811,-0.363989,-0.186385,-0.235253,0
2024-12-11 19:40:04.569,-1.98724,3.77797,10.9986,-0.376816,-0.199213,-0.223646,0
2024-12-11 19:40:04.571,-2.03988,3.77797,11.1302,-0.389033,-0.21143,-0.21143,0
2024-12-11 19:40:04.573,-2.07577,3.79711,11.2834,-0.403083,-0.227922,-0.197991,0
2024-12-11 19:40:04.577,-2.10927,3.81865,11.4509,-0.428128,-0.257243,-0.172946,0
2024-12-11 19:40:04.579,-2.14517,3.84018,11.6402,-0.428128,-0.257243,-0.172946,0
2024-12-11 19:40:04.580,-2.1667,3.87607,11.8508,-0.438512,-0.267627,-0.161951,0
2024-12-11 19:40:04.583,-2.18106,3.88325,12.0637,-0.445842,-0.276179,-0.150956,0
2024-12-11 19:40:04.586,-2.19541,3.88564,12.2674,-0.456837,-0.278623,-0.127743,0
2024-12-11 19:40:04.588,-2.21695,3.88564,12.4493,-0.456837,-0.278623,-0.127743,0
2024-12-11 19:40:04.590,-2.24566,3.88086,12.6314,-0.454394,-0.271293,-0.116748,0
2024-12-11 19:40:04.592,-2.27677,3.88564,12.8204,-0.454394,-0.259076,-0.106364,0
2024-12-11 19:40:04.596,-2.29831,3.88325,12.9975,-0.447064,-0.221203,-0.0782648,0
2024-12-11 19:40:04.597,-2.31027,3.8665,13.1626,-0.447064,-0.221203,-0.0782648,0
2024-12-11 19:40:04.600,-2.31745,3.84497,13.3185,-0.430571,-0.160118,-0.0471116,0
2024-12-11 19:40:04.603,-2.32702,3.83061,13.4644,-0.419576,-0.122857,-0.0287862,0
2024-12-11 19:40:04.604,-2.36291,3.81625,13.5888,-0.419576,-0.122857,-0.0287862,0
2024-12-11 19:40:04.607,-2.38445,3.79472,13.6893,-0.411635,-0.081319,-0.00740652,0
2024-12-11 19:40:04.609,-2.41555,3.766,13.7806,-0.403694,-0.029397,0.0158057,0
2024-12-11 19:40:04.611,-2.4658,3.74208,13.8595,-0.390866,0.0255792,0.0432938,0
2024-12-11 19:40:04.613,-2.50409,3.72293,13.9289,-0.37926,0.0860531,0.0726145,0
2024-12-11 19:40:04.616,-2.52832,3.69661,13.96,-0.367043,0.153246,0.102546,0
2024-12-11 19:40:04.625,-2.57139,3.68704,13.8021,-0.305958,0.486769,0.24976,0
2024-12-11 19:40:04.625,-2.57139,3.68704,13.8021,-0.305958,0.486769,0.24976,0
2024-12-11 19:40:04.626,-2.57139,3.68704,13.8021,-0.294963,0.569233,0.287633,0
2024-12-11 19:40:04.628,-2.54746,3.66072,13.6846,-0.294963,0.569233,0.287633,0
2024-12-11 19:40:04.628,-2.54746,3.66072,13.6846,-0.294963,0.569233,0.287633,0
2024-12-11 19:40:04.630,-2.51605,3.61735,13.529,-0.287022,0.640092,0.323673,0
2024-12-11 19:40:04.632,-2.47298,3.57667,13.3663,-0.281524,0.699344,0.353604,0
2024-12-11 19:40:04.636,-2.41795,3.53121,13.2084,-0.289465,0.743936,0.403694,0
2024-12-11 19:40:04.637,-2.35813,3.51207,13.0406,-0.289465,0.743936,0.403694,0
2024-12-11 19:40:04.639,-2.27677,3.52642,12.8492,-0.301682,0.737216,0.418965,0
2024-12-11 19:40:04.643,-2.1667,3.52403,12.6386,-0.35788,0.658417,0.425684,0
2024-12-11 19:40:04.645,-2.03031,3.51207,12.4588,-0.35788,0.658417,0.425684,0
2024-12-11 19:40:04.647,-1.9008,3.51207,12.3248,-0.398196,0.582672,0.418965,0
2024-12-11 19:40:04.649,-1.76919,3.51446,12.2243,-0.44401,0.484936,0.402472,0
2024-12-11 19:40:04.651,-1.6352,3.52403,12.198,-0.499597,0.363989,0.381703,0
2024-12-11 19:40:04.654,-1.52513,3.54078,12.2267,-0.560071,0.224715,0.352993,0
2024-12-11 19:40:04.657,-1.43181,3.55035,12.3105,-0.693846,-0.0923143,0.280913,0
2024-12-11 19:40:04.658,-1.33579,3.57906,12.5139,-0.693846,-0.0923143,0.280913,0
2024-12-11 19:40:04.662,-1.24965,3.61256,12.8276,-0.823957,-0.430724,0.198449,0
2024-12-11 19:40:04.663,-1.18026,3.61496,13.2203,-0.823957,-0.430724,0.198449,0
2024-12-11 19:40:04.666,-1.12044,3.6006,13.7061,-0.92047,-0.739812,0.109876,0
2024-12-11 19:40:04.669,-1.04148,3.55992,14.2759,-0.951013,-0.869923,0.0720036,0
2024-12-11 19:40:04.670,-0.955334,3.49532,14.8819,-0.951013,-0.869923,0.0720036,0
2024-12-11 19:40:04.673,-0.864407,3.40678,15.5258,-0.966895,-1.07211,-0.00679568,0
2024-12-11 19:40:04.676,-0.742074,3.26082,16.2248,-0.94918,-1.14603,-0.0428357,0
2024-12-11 19:40:04.678,-0.615255,3.07149,16.8951,-0.94918,-1.14603,-0.0428357,0
2024-12-11 19:40:04.679,-0.512363,2.85853,17.4745,-0.915584,-1.20406,-0.0788757,0
2024-12-11 19:40:04.682,-0.404686,2.61685,18.0132,-0.870381,-1.2462,-0.114916,0
2024-12-11 19:40:04.684,-0.258425,2.36291,18.5399,-0.812961,-1.27491,-0.149734,0
2024-12-11 19:40:04.686,-0.112463,2.10449,19.0259,-0.736605,-1.29507,-0.183331,0
2024-12-11 19:40:04.690,0.00239282,1.85294,19.4258,-0.555795,-1.29263,-0.243194,0
2024-12-11 19:40:04.691,0.0765703,1.59452,19.713,-0.555795,-1.29263,-0.243194,0
2024-12-11 19:40:04.694,0.133998,1.31186,19.8781,-0.451951,-1.26148,-0.267627,0
2024-12-11 19:40:04.696,0.16989,1.05344,19.943,-0.340776,-1.21444,-0.285953,0
2024-12-11 19:40:04.698,0.18664,0.801895,19.9044,-0.229602,-1.15336,-0.299392,0
2024-12-11 19:40:04.701,0.184247,0.562612,19.768,-0.114152,-1.07822,-0.306722,1
2024-12-11 19:40:04.703,0.150748,0.328116,19.555,0.00251974,-0.993925,-0.306722,0
2024-12-11 19:40:04.706,0.0909273,0.124427,19.2628,0.221814,-0.796621,-0.283509,0
2024-12-11 19:40:04.709,0.0167498,-0.0526421,18.9063,0.221814,-0.796621,-0.283509,0
2024-12-11 19:40:04.710,-0.0909273,-0.212961,18.5016,0.325047,-0.695831,-0.260908,0
2024-12-11 19:40:04.712,-0.215354,-0.342473,18.0515,0.426448,-0.587711,-0.232198,0
2024-12-11 19:40:04.716,-0.342473,-0.457328,17.575,0.604204,-0.369028,-0.150345,0
2024-12-11 19:40:04.718,-0.483649,-0.54347,17.0889,0.684225,-0.263962,-0.101477,0
2024-12-11 19:40:04.719,-0.624826,-0.60329,16.5745,0.684225,-0.263962,-0.101477,0
2024-12-11 19:40:04.723,-0.768395,-0.634397,16.0454,0.820444,-0.0483333,0.014584,0
2024-12-11 19:40:04.725,-0.907478,-0.651147,15.5187,0.820444,-0.0483333,0.014584,0
2024-12-11 19:40:04.726,-1.04148,-0.660718,14.9776,0.881529,0.0542891,0.0768904,0
2024-12-11 19:40:04.729,-1.15394,-0.648754,14.4341,0.93284,0.14836,0.142251,0
2024-12-11 19:40:04.732,-1.26162,-0.608076,13.9098,0.97621,0.238154,0.207001,0
2024-12-11 19:40:04.734,-1.34297,-0.555434,13.407,1.0153,0.321229,0.271751,0
2024-12-11 19:40:04.736,-1.4004,-0.498006,12.9281,1.0489,0.394531,0.334057,0
2024-12-11 19:40:04.738,-1.44138,-0.419043,12.4493,1.07578,0.460502,0.391477,0
2024-12-11 19:40:04.741,-1.43898,-0.34008,11.968,1.09838,0.515479,0.445842,0
2024-12-11 19:40:04.744,-1.42941,-0.248854,11.5253,1.12709,0.599165,0.533193,0
2024-12-11 19:40:04.746,-1.41027,-0.150748,11.0895,1.12709,0.599165,0.533193,0
2024-12-11 19:40:04.748,-1.37169,-0.0526421,10.6657,1.13259,0.622988,0.565568,0
2024-12-11 19:40:04.750,-1.32861,0.0622134,10.2419,1.13198,0.640702,0.593667,0
2024-12-11 19:40:04.753,-1.27597,0.160319,9.84706,1.12892,0.649865,0.612603,0
2024-12-11 19:40:04.755,-1.22094,0.246461,9.47348,1.12098,0.651698,0.62482,0
2024-12-11 19:40:04.757,-1.15633,0.359223,9.09512,1.10388,0.649865,0.632761,0
2024-12-11 19:40:04.759,-1.09412,0.469292,8.76012,1.088,0.644978,0.635205,0
2024-12-11 19:40:04.762,-1.03669,0.56022,8.41765,1.06234,0.633983,0.63154,0
2024-12-11 19:40:04.764,-1.0008,0.660718,8.07996,1.0318,0.620544,0.619934,0
2024-12-11 19:40:04.767,-0.984048,0.761217,7.79283,1.00187,0.607717,0.608328,0
2024-12-11 19:40:04.769,-0.974477,0.85005,7.52453,0.968269,0.592445,0.591224,0
2024-12-11 19:40:04.772,-0.962513,0.952942,7.28525,0.929786,0.574731,0.571066,0
2024-12-11 19:40:04.774,-0.919442,1.05344,7.06032,0.88947,0.553962,0.548464,0
2024-12-11 19:40:04.776,-0.862014,1.10608,6.8686,0.849765,0.527085,0.52342,0
2024-12-11 19:40:04.778,-0.845265,1.17547,6.66999,0.806395,0.495932,0.495321,0
2024-12-11 19:40:04.781,-0.85005,1.24008,6.47857,0.761803,0.464168,0.467222,0
2024-12-11 19:40:04.783,-0.825823,1.26401,6.33709,0.712324,0.429349,0.436069,0
2024-12-11 19:40:04.785,-0.792323,1.27837,6.2007,0.6659,0.391477,0.405526,0
2024-12-11 19:40:04.789,-0.756431,1.28794,6.07627,0.569997,0.315121,0.338333,0
2024-12-11 19:40:04.790,-0.734896,1.29272,5.96381,0.569997,0.315121,0.338333,0
2024-12-11 19:40:04.793,-0.703789,1.27119,5.85344,0.521129,0.274805,0.30718,0
2024-12-11 19:40:04.795,-0.670289,1.25204,5.78166,0.470429,0.235711,0.272972,0
2024-12-11 19:40:04.797,-0.63679,1.24247,5.71466,0.422783,0.19906,0.237543,0
2024-12-11 19:40:04.800,-0.608076,1.20658,5.65484,0.372082,0.159355,0.205168,0
2024-12-11 19:40:04.802,-0.588933,1.17069,5.61895,0.321993,0.122093,0.174626,0
2024-12-11 19:40:04.804,-0.574577,1.13958,5.58066,0.274958,0.0884965,0.145305,0
2024-12-11 19:40:04.808,-0.54347,1.08694,5.5663,0.228533,0.0542891,0.115985,0
2024-12-11 19:40:04.809,-0.50997,1.02233,5.57109,0.178444,0.0249684,0.0897182,0
2024-12-11 19:40:04.811,-0.486042,0.969691,5.57587,0.132019,-0.0019089,0.0652843,0
2024-12-11 19:40:04.814,-0.464507,0.907478,5.5998,0.0880384,-0.0263428,0.0420721,0
2024-12-11 19:40:04.816,-0.471685,0.842872,5.64766,0.0446682,-0.0471116,0.0231358,0
2024-12-11 19:40:04.818,-0.483649,0.785145,5.69552,0.00374144,-0.0648262,0.00481042,0
2024-12-11 19:40:04.821,-0.478864,0.727717,5.75294,-0.0347419,-0.081319,-0.0104608,0
2024-12-11 19:40:04.823,-0.471685,0.684646,5.81994,-0.0738362,-0.0929251,-0.0238994,0
2024-12-11 19:40:04.825,-0.476471,0.641576,5.91117,-0.107433,-0.10331,-0.0355055,0
2024-12-11 19:40:04.828,-0.500399,0.60329,6.01885,-0.137975,-0.113083,-0.0465007,0
2024-12-11 19:40:04.830,-0.524327,0.56022,6.12174,-0.164242,-0.121635,-0.0568851,0
2024-12-11 19:40:04.835,-0.632004,0.536291,6.33231,-0.212498,-0.138739,-0.0691021,0
2024-12-11 19:40:04.836,-0.632004,0.536291,6.33231,-0.229602,-0.147291,-0.0745997,0
2024-12-11 19:40:04.838,-0.706182,0.529113,6.44955,-0.229602,-0.147291,-0.0745997,0
2024-12-11 19:40:04.840,-0.777966,0.545863,6.56232,-0.244873,-0.153399,-0.0752106,0
2024-12-11 19:40:04.844,-0.919442,0.576969,6.77528,-0.265031,-0.162562,-0.073378,0
2024-12-11 19:40:04.845,-0.919442,0.576969,6.77528,-0.265031,-0.162562,-0.073378,0
2024-12-11 19:40:04.849,-1.02233,0.598505,6.99781,-0.269307,-0.160729,-0.0660479,0
2024-12-11 19:40:04.855,-1.0989,0.584148,7.17518,-0.250982,-0.143015,-0.0452791,0
2024-12-11 19:40:04.856,-1.1348,0.572184,7.25653,-0.250982,-0.143015,-0.0452791,0
2024-12-11 19:40:04.857,-1.1348,0.572184,7.25653,-0.250982,-0.143015,-0.0452791,0
2024-12-11 19:40:04.858,-1.17308,0.581755,7.32114,-0.239987,-0.133852,-0.0379489,0
2024-12-11 19:40:04.858,-1.17308,0.581755,7.32114,-0.239987,-0.133852,-0.0379489,0
2024-12-11 19:40:04.861,-1.22333,0.586541,7.37139,-0.226548,-0.121635,-0.0281753,0
2024-12-11 19:40:04.863,-1.26401,0.584148,7.39771,-0.210666,-0.108196,-0.0165692,0
2024-12-11 19:40:04.866,-1.30708,0.598505,7.40489,-0.195395,-0.0923143,-0.00496313,0
2024-12-11 19:40:04.869,-1.35733,0.605683,7.40728,-0.156301,-0.0599394,0.0249684,0
2024-12-11 19:40:04.870,-1.41266,0.610469,7.4025,-0.156301,-0.0599394,0.0249684,0
2024-12-11 19:40:04.874,-1.47248,0.617647,7.37857,-0.136143,-0.0422248,0.0408504,0
2024-12-11 19:40:04.875,-1.50598,0.622433,7.3355,-0.115985,-0.0275645,0.0579541,0
2024-12-11 19:40:04.878,-1.52991,0.641576,7.29003,-0.0781121,0.000534491,0.0976592,0
2024-12-11 19:40:04.880,-1.57059,0.663111,7.24218,-0.0781121,0.000534491,0.0976592,0
2024-12-11 19:40:04.882,-1.61127,0.675075,7.18236,-0.058565,0.0139731,0.120261,0
2024-12-11 19:40:04.885,-1.63998,0.684646,7.11536,-0.0414613,0.0237467,0.141029,0
2024-12-11 19:40:04.887,-1.65194,0.696611,7.03879,-0.0249684,0.0359636,0.163631,0
2024-12-11 19:40:04.889,-1.66391,0.71336,6.94756,-0.00664296,0.0451263,0.188675,0
2024-12-11 19:40:04.892,-1.67827,0.742074,6.85424,0.00679568,0.0542891,0.214331,0
2024-12-11 19:40:04.894,-1.69502,0.768395,6.76092,0.0220669,0.0628409,0.238154,0
2024-12-11 19:40:04.897,-1.70937,0.775574,6.67239,0.0306187,0.066506,0.263199,0
2024-12-11 19:40:04.898,-1.70219,0.797109,6.57189,0.0428357,0.0713928,0.288244,0
2024-12-11 19:40:04.902,-1.70219,0.828216,6.4666,0.057496,0.0701711,0.33589,0
2024-12-11 19:40:04.903,-1.69502,0.854836,6.38973,0.057496,0.0701711,0.33589,0
2024-12-11 19:40:04.906,-1.6663,0.871586,6.32752,0.0629936,0.0677277,0.359102,0
2024-12-11 19:40:04.909,-1.64716,0.897907,6.23659,0.0672696,0.0603975,0.379871,0
2024-12-11 19:40:04.910,-1.61845,0.936192,6.15045,0.0697129,0.0487914,0.403083,0
2024-12-11 19:40:04.914,-1.58973,0.972084,6.09302,0.0727672,0.0268009,0.440955,0
2024-12-11 19:40:04.915,-1.55145,1.00319,6.04756,0.0727672,0.0268009,0.440955,0
2024-12-11 19:40:04.918,-1.49163,1.04148,6.01885,0.0745997,0.0176382,0.458059,0
2024-12-11 19:40:04.920,-1.42702,1.0989,5.98774,0.0721563,0.00664296,0.475163,0
2024-12-11 19:40:04.922,-1.34058,1.15872,5.96142,0.0721563,-0.00435229,0.48738,0
2024-12-11 19:40:04.924,-1.25683,1.1994,5.94706,0.0709346,-0.0141258,0.500208,0
2024-12-11 19:40:04.928,-1.18744,1.24008,5.94706,0.0672696,-0.0306187,0.517311,0
2024-12-11 19:40:04.930,-1.11805,1.28794,5.9686,0.0672696,-0.0367272,0.520976,0
2024-12-11 19:40:04.932,-1.05105,1.34536,5.98295,0.0672696,-0.0367272,0.520976,0
2024-12-11 19:40:04.934,-0.988834,1.41745,6.01645,0.0678804,-0.0391706,0.525863,0
2024-12-11 19:40:04.937,-0.936192,1.49402,6.07388,0.0666587,-0.0440574,0.528307,0
2024-12-11 19:40:04.938,-0.871586,1.54905,6.12652,0.0672696,-0.0458899,0.527085,0
2024-12-11 19:40:04.941,-0.82343,1.59691,6.15763,0.0715455,-0.0458899,0.522809,0
2024-12-11 19:40:04.944,-0.787538,1.65673,6.19352,0.0782648,-0.0361163,0.519144,0
2024-12-11 19:40:04.946,-0.725324,1.71655,6.22224,0.0782648,-0.0361163,0.519144,0
2024-12-11 19:40:04.948,-0.663111,1.76441,6.24138,0.0849841,-0.0300079,0.513646,0
2024-12-11 19:40:04.950,-0.610469,1.80509,6.26291,0.0898709,-0.0281753,0.507538,0
2024-12-11 19:40:04.954,-0.548256,1.82662,6.24856,0.0978119,-0.0226777,0.497764,0
2024-12-11 19:40:04.955,-0.505185,1.83619,6.21506,0.0990336,-0.0208452,0.48738,0
2024-12-11 19:40:04.957,-0.478864,1.8673,6.18634,0.0959794,-0.0171801,0.474552,0
2024-12-11 19:40:04.960,-0.464507,1.91994,6.16002,0.0959794,-0.0129041,0.462335,0
2024-12-11 19:40:04.962,-0.459721,1.9681,6.12652,0.0929251,-0.00435229,0.45134,0
2024-12-11 19:40:04.964,-0.454935,2.00877,6.10259,0.0923143,-0.000687203,0.435458,0
2024-12-11 19:40:04.968,-0.454935,2.06142,6.08345,0.0782648,0.0133623,0.409191,0
2024-12-11 19:40:04.970,-0.462114,2.12602,6.05713,0.0636045,0.0170274,0.396364,0
2024-12-11 19:40:04.972,-0.4669,2.19302,6.0356,0.0636045,0.0170274,0.396364,0
2024-12-11 19:40:04.974,-0.471685,2.26241,6.02363,0.0526092,0.0206925,0.382925,0
2024-12-11 19:40:04.976,-0.462114,2.31506,6.0332,0.0391706,0.0219141,0.370708,0
2024-12-11 19:40:04.980,-0.452543,2.36531,6.05713,0.00251974,0.0182491,0.346885,0
2024-12-11 19:40:04.981,-0.447757,2.42273,6.07867,0.00251974,0.0182491,0.346885,0
2024-12-11 19:40:04.983,-0.431007,2.47298,6.10259,-0.0139731,0.0115297,0.332225,0
2024-12-11 19:40:04.986,-0.419043,2.54267,6.15045,-0.0359636,0.00175619,0.316343,0
2024-12-11 19:40:04.989,-0.440578,2.62403,6.21745,-0.0854423,-0.0147367,0.2858,0
2024-12-11 19:40:04.990,-0.469292,2.68385,6.28206,-0.0854423,-0.0147367,0.2858,0
2024-12-11 19:40:04.994,-0.495613,2.74606,6.34906,-0.136143,-0.0263428,0.258312,0
2024-12-11 19:40:04.995,-0.52672,2.8322,6.46182,-0.136143,-0.0263428,0.258312,0
2024-12-11 19:40:04.998,-0.553041,2.90638,6.61496,-0.158744,-0.0300079,0.245484,0
2024-12-11 19:40:05.001,-0.584148,2.98295,6.78006,-0.203336,-0.0410031,0.221661,0
2024-12-11 19:40:05.002,-0.610469,3.05713,6.93799,-0.203336,-0.0410031,0.221661,0
2024-12-11 19:40:05.004,-0.634397,3.12921,7.09382,-0.219829,-0.041614,0.208833,0
2024-12-11 19:40:05.008,-0.670289,3.18664,7.26371,-0.255869,-0.0513875,0.186843,0
2024-12-11 19:40:05.010,-0.696611,3.22014,7.44317,-0.269307,-0.0587177,0.177069,0
2024-12-11 19:40:05.012,-0.725324,3.25364,7.60858,-0.269307,-0.0587177,0.177069,0
2024-12-11 19:40:05.014,-0.768395,3.29671,7.78086,-0.280913,-0.0678804,0.168517,0
2024-12-11 19:40:05.017,-0.811466,3.3326,7.96272,-0.29985,-0.0874275,0.152635,0
2024-12-11 19:40:05.020,-0.8668,3.35653,8.135,-0.29985,-0.0874275,0.152635,0
2024-12-11 19:40:05.021,-0.9003,3.402,8.30997,-0.308401,-0.100255,0.145916,0
2024-12-11 19:40:05.023,-0.940978,3.45703,8.50379,-0.310234,-0.116137,0.138586,0
2024-12-11 19:40:05.026,-1.01755,3.50249,8.70748,-0.313899,-0.129576,0.133088,0
2024-12-11 19:40:05.028,-1.08215,3.55274,8.89651,-0.316343,-0.14668,0.130034,0
2024-12-11 19:40:05.030,-1.1348,3.58864,9.07119,-0.316343,-0.165616,0.12698,0
2024-12-11 19:40:05.033,-1.17547,3.62453,9.26531,-0.31451,-0.186385,0.123926,0
2024-12-11 19:40:05.035,-1.2018,3.66311,9.47109,-0.309623,-0.205321,0.123315,0
2024-12-11 19:40:05.037,-1.22812,3.68465,9.65295,-0.304126,-0.227312,0.123926,0
2024-12-11 19:40:05.041,-1.2329,3.70858,9.82792,-0.2858,-0.276179,0.123926,0
2024-12-11 19:40:05.042,-1.21137,3.7325,9.98824,-0.2858,-0.276179,0.123926,0
2024-12-11 19:40:05.044,-1.17069,3.74447,10.151,-0.277859,-0.303057,0.125758,0
2024-12-11 19:40:05.047,-1.0989,3.74208,10.3161,-0.265031,-0.330545,0.128812,0
2024-12-11 19:40:05.049,-1.00798,3.7349,10.4527,-0.25709,-0.361698,0.128202,0
2024-12-11 19:40:05.052,-0.909871,3.72293,10.5867,-0.247317,-0.396516,0.126369,0
2024-12-11 19:40:05.054,-0.787538,3.71336,10.7136,-0.240597,-0.438665,0.123315,0
2024-12-11 19:40:05.056,-0.655932,3.68943,10.838,-0.236322,-0.485089,0.122093,0
2024-12-11 19:40:05.059,-0.521934,3.6679,10.9508,-0.236932,-0.533346,0.11293,0
2024-12-11 19:40:05.061,-0.378365,3.67029,11.0632,-0.240597,-0.584046,0.106822,0
2024-12-11 19:40:05.063,-0.236889,3.68226,11.1924,-0.247928,-0.633525,0.0958267,0
2024-12-11 19:40:05.066,-0.0981057,3.71815,11.3336,-0.255258,-0.682393,0.0872748,0
2024-12-11 19:40:05.068,0.0167498,3.766,11.4772,-0.263199,-0.727595,0.0750579,0
2024-12-11 19:40:05.070,0.12682,3.79232,11.633,-0.282135,-0.773409,0.0628409,0
2024-12-11 19:40:05.073,0.244068,3.82343,11.8292,-0.295574,-0.811892,0.0475697,0
2024-12-11 19:40:05.075,0.347258,3.87368,12.035,-0.316343,-0.8461,0.0322986,0
2024-12-11 19:40:05.077,0.45015,3.90479,12.2554,-0.338333,-0.876642,0.0182491,0
2024-12-11 19:40:05.080,0.555434,3.9335,12.5139,-0.357269,-0.899854,0.00297788,0
2024-12-11 19:40:05.082,0.663111,3.97897,12.7917,-0.374984,-0.916958,-0.0153475,0
2024-12-11 19:40:05.085,0.766002,4.02204,13.0789,-0.392698,-0.927342,-0.0342838,0
2024-12-11 19:40:05.087,0.852443,4.04118,13.3807,-0.40858,-0.932229,-0.0532201,0
2024-12-11 19:40:05.089,0.950549,4.05314,13.7037,-0.422019,-0.929175,-0.0758214,0
2024-12-11 19:40:05.092,1.0654,4.06989,14.0031,-0.433625,-0.916347,-0.0984228,0
2024-12-11 19:40:05.094,1.15872,4.07707,14.2854,-0.442788,-0.895578,-0.121635,0
2024-12-11 19:40:05.097,1.24008,4.09621,14.5729,-0.453783,-0.837548,-0.172335,0
2024-12-11 19:40:05.099,1.30947,4.101,14.8385,-0.453783,-0.837548,-0.172335,0
2024-12-11 19:40:05.101,1.35254,4.08903,15.1068,-0.452561,-0.798454,-0.19738,0
2024-12-11 19:40:05.104,1.36211,4.06511,15.3485,-0.452561,-0.750808,-0.21876,0
2024-12-11 19:40:05.106,1.34776,4.05793,15.5522,-0.447064,-0.695221,-0.237696,0
2024-12-11 19:40:05.108,1.30947,4.06271,15.7436,-0.440955,-0.634747,-0.257243,0
2024-12-11 19:40:05.111,1.22094,4.07946,15.9111,-0.433014,-0.56511,-0.273736,0
2024-12-11 19:40:05.113,1.13001,4.13211,16.0717,-0.419576,-0.491808,-0.284731,0
2024-12-11 19:40:05.116,1.05344,4.16082,16.1985,-0.406137,-0.41362,-0.291451,0
2024-12-11 19:40:05.117,0.981655,4.15364,16.2775,-0.393309,-0.336653,-0.295116,0
2024-12-11 19:40:05.120,0.919442,4.1345,16.3373,-0.381092,-0.263962,-0.295116,0
2024-12-11 19:40:05.122,0.881157,4.11296,16.3684,-0.366432,-0.19738,-0.293283,0
2024-12-11 19:40:05.125,0.890728,4.0675,16.3421,-0.356658,-0.138739,-0.289007,0
2024-12-11 19:40:05.127,0.924228,3.97418,16.2918,-0.345052,-0.0904818,-0.285953,0
2024-12-11 19:40:05.130,0.967299,3.87129,16.2272,-0.340776,-0.0251211,-0.281677,0
2024-12-11 19:40:05.132,1.04626,3.77797,16.1435,-0.340776,-0.0251211,-0.281677,0
2024-12-11 19:40:05.134,1.1348,3.68226,16.0549,-0.340776,-0.00801737,-0.281677,0
2024-12-11 19:40:05.137,1.20658,3.60778,15.9733,-0.344442,0.00481042,-0.282899,0
2024-12-11 19:40:05.140,1.2664,3.54556,15.8895,-0.356048,0.0121406,-0.290229,0
2024-12-11 19:40:05.142,1.32144,3.49771,15.813,-0.356048,0.0121406,-0.290229,0
2024-12-11 19:40:05.144,1.37647,3.46421,15.7747,-0.356048,0.0121406,-0.290229,0
2024-12-11 19:40:05.147,1.45813,3.43789,15.7723,-0.392698,-0.013515,-0.310998,0
2024-12-11 19:40:05.149,1.54905,3.402,15.7843,-0.403694,-0.0226777,-0.321382,0
2024-12-11 19:40:05.150,1.64716,3.3661,15.8082,-0.403694,-0.0226777,-0.321382,0
2024-12-11 19:40:05.153,1.76441,3.33021,15.8513,-0.415911,-0.0361163,-0.332988,0
2024-12-11 19:40:05.155,1.88883,3.28235,15.9039,-0.423852,-0.0440574,-0.347648,0
2024-12-11 19:40:05.158,2.02074,3.22253,15.9589,-0.428738,-0.0440574,-0.365974,0
2024-12-11 19:40:05.160,2.14277,3.15793,16.0406,-0.436069,-0.0385597,-0.38491,0
2024-12-11 19:40:05.162,2.23849,3.07867,16.1195,-0.433014,-0.021456,-0.410566,0
2024-12-11 19:40:05.165,2.32702,2.99013,16.1913,-0.429349,-0.00313059,-0.437443,1
2024-12-11 19:40:05.169,2.45145,2.82742,16.3182,-0.406748,0.0610084,-0.497306,0
2024-12-11 19:40:05.169,2.45145,2.82742,16.3182,-0.406748,0.0610084,-0.497306,0
2024-12-11 19:40:05.173,2.46102,2.72931,16.366,-0.369486,0.14164,-0.560834,0
2024-12-11 19:40:05.174,2.45863,2.60489,16.3995,-0.369486,0.14164,-0.560834,0
2024-12-11 19:40:05.176,2.42991,2.47537,16.3899,-0.343831,0.18501,-0.595042,0
2024-12-11 19:40:05.179,2.37488,2.34616,16.3445,-0.318175,0.224715,-0.626195,0
2024-12-11 19:40:05.182,2.3007,2.19541,16.2847,-0.290076,0.270529,-0.659791,0
2024-12-11 19:40:05.183,2.20499,2.05663,16.22,-0.258923,0.312067,-0.690945,0
2024-12-11 19:40:05.187,2.06142,1.9343,16.1387,-0.188065,0.40125,-0.743477,0
2024-12-11 19:40:05.189,1.88644,1.80748,16.0645,-0.188065,0.40125,-0.743477,0
2024-12-11 19:40:05.198,1.08933,1.3334,15.6742,-0.147138,0.445231,-0.766079,0
2024-12-11 19:40:05.200,0.909871,1.21854,15.5569,0.0599394,0.638259,-0.800286,0
2024-12-11 19:40:05.202,0.742074,1.09173,15.4349,0.121635,0.68957,-0.797843,0
2024-12-11 19:40:05.210,0.404686,0.727717,14.8193,0.325047,0.845413,-0.768522,0
2024-12-11 19:40:05.212,0.0717847,0.612862,14.5442,0.39896,0.901611,-0.750197,0
2024-12-11 19:40:05.214,-0.0957129,0.507577,14.2448,0.470429,0.95903,-0.729428,0
2024-12-11 19:40:05.214,-0.0957129,0.507577,14.2448,0.470429,0.95903,-0.729428,0
2024-12-11 19:40:05.215,-0.0957129,0.507577,14.2448,0.54373,1.0134,-0.702551,0
2024-12-11 19:40:05.216,-0.241675,0.402293,13.9122,0.54373,1.0134,-0.702551,0
2024-12-11 19:40:05.217,-0.241675,0.402293,13.9122,0.54373,1.0134,-0.702551,0
2024-12-11 19:40:05.219,-0.375972,0.301795,13.5553,0.6152,1.06715,-0.676895,0
2024-12-11 19:40:05.219,-0.375972,0.301795,13.5553,0.6152,1.06715,-0.676895,0
2024-12-11 19:40:05.220,-0.375972,0.301795,13.5553,0.685447,1.11907,-0.646353,0
2024-12-11 19:40:05.222,-0.500399,0.210568,13.1818,0.685447,1.11907,-0.646353,0
2024-12-11 19:40:05.223,-0.605683,0.124427,12.7798,0.751418,1.16733,-0.6152,0
2024-12-11 19:40:05.227,-0.718146,0.0574277,12.3631,0.87542,1.24369,-0.542509,0
2024-12-11 19:40:05.229,-0.818644,-0.00478565,11.9321,0.87542,1.24369,-0.542509,0
2024-12-11 19:40:05.232,-0.897907,-0.0574277,11.482,0.929175,1.27301,-0.505247,0
2024-12-11 19:40:05.233,-0.984048,-0.0957129,11.0321,0.975599,1.28889,-0.465542,0
2024-12-11 19:40:05.235,-1.04626,-0.129212,10.6035,1.01653,1.29988,-0.427669,0
2024-12-11 19:40:05.240,-1.13001,-0.174676,9.72234,1.0825,1.28767,-0.352535,0
2024-12-11 19:40:05.240,-1.13001,-0.174676,9.72234,1.0825,1.28767,-0.352535,0
2024-12-11 19:40:05.242,-1.15394,-0.189033,9.28924,1.10449,1.26629,-0.317106,0
2024-12-11 19:40:05.246,-1.18505,-0.196211,8.87259,1.12037,1.23269,-0.282288,0
2024-12-11 19:40:05.247,-1.18505,-0.165105,8.49183,1.13014,1.19237,-0.251135,0
2024-12-11 19:40:05.249,-1.17069,-0.143569,8.11586,1.13259,1.14167,-0.224257,0
2024-12-11 19:40:05.252,-1.17787,-0.100499,7.733,1.1277,1.08303,-0.198602,0
2024-12-11 19:40:05.254,-1.18026,-0.0167498,7.39532,1.11671,1.01767,-0.177833,0
2024-12-11 19:40:05.256,-1.16112,0.0502493,7.09621,1.10021,0.945592,-0.159507,0
2024-12-11 19:40:05.260,-1.13958,0.117248,6.82074,1.04585,0.772645,-0.133852,0
2024-12-11 19:40:05.261,-1.11087,0.193819,6.59582,1.04585,0.772645,-0.133852,0
2024-12-11 19:40:05.264,-1.09412,0.272782,6.38734,1.01469,0.676132,-0.1253,0
2024-12-11 19:40:05.267,-1.09173,0.359223,6.17917,0.937727,0.482493,-0.113694,0
2024-12-11 19:40:05.269,-1.08215,0.471685,5.9997,0.894968,0.384757,-0.112472,0
2024-12-11 19:40:05.272,-1.05823,0.574577,5.84866,0.847932,0.287022,-0.111251,0
2024-12-11 19:40:05.273,-1.02233,0.660718,5.74337,0.847932,0.287022,-0.111251,0
2024-12-11 19:40:05.278,-0.96012,0.876371,5.63091,0.751418,0.0933833,-0.117359,0
2024-12-11 19:40:05.279,-0.96012,0.876371,5.63091,0.751418,0.0933833,-0.117359,0
2024-12-11 19:40:05.281,-0.933799,0.96012,5.62612,0.751418,0.0933833,-0.117359,0
2024-12-11 19:40:05.282,-0.895514,1.02473,5.64287,0.652461,-0.0972011,-0.130798,0
2024-12-11 19:40:05.285,-0.830609,1.08455,5.69073,0.600539,-0.191272,-0.137517,0
2024-12-11 19:40:05.287,-0.739681,1.12522,5.78166,0.554726,-0.287175,-0.150345,0
2024-12-11 19:40:05.289,-0.63679,1.15155,5.89921,0.504636,-0.380634,-0.163173,0
2024-12-11 19:40:05.292,-0.538684,1.15633,6.02842,0.461266,-0.472872,-0.176,0
2024-12-11 19:40:05.294,-0.435793,1.1324,6.17677,0.417285,-0.557169,-0.193715,0
2024-12-11 19:40:05.297,-0.32333,1.08694,6.3347,0.37758,-0.634136,-0.213262,0
2024-12-11 19:40:05.301,-0.0933201,0.979263,6.60539,0.338486,-0.704994,-0.234031,0
2024-12-11 19:40:05.304,0.0382852,0.919442,6.74417,0.266406,-0.827774,-0.271903,0
2024-12-11 19:40:05.304,0.0382852,0.919442,6.74417,0.266406,-0.827774,-0.271903,0
2024-12-11 19:40:05.306,0.141177,0.862014,6.88295,0.234031,-0.872366,-0.292061,0
2024-12-11 19:40:05.308,0.236889,0.804287,7.01217,0.199823,-0.91085,-0.311608,0
2024-12-11 19:40:05.313,0.442971,0.706182,7.27328,0.138128,-0.964604,-0.355589,0
2024-12-11 19:40:05.313,0.442971,0.706182,7.27328,0.138128,-0.964604,-0.355589,0
2024-12-11 19:40:05.315,0.500399,0.679861,7.38575,0.108196,-0.977432,-0.376358,0
2024-12-11 19:40:05.320,0.581755,0.665504,7.59901,0.0532201,-0.982319,-0.416063,0
2024-12-11 19:40:05.321,0.581755,0.665504,7.59901,0.0532201,-0.982319,-0.416063,0
2024-12-11 19:40:05.323,0.600898,0.691825,7.69233,0.0532201,-0.982319,-0.416063,0
2024-12-11 19:40:05.325,0.600898,0.720539,7.81675,0.00557398,-0.948111,-0.444773,0
2024-12-11 19:40:05.327,0.593719,0.720539,7.94597,-0.0194708,-0.924288,-0.457601,0
2024-12-11 19:40:05.329,0.579362,0.720539,8.05125,-0.042683,-0.892524,-0.472261,0
2024-12-11 19:40:05.332,0.538684,0.727717,8.14965,-0.0695602,-0.857706,-0.481424,0
2024-12-11 19:40:05.334,0.493221,0.732503,8.24058,-0.086664,-0.812503,-0.487532,0
2024-12-11 19:40:05.337,0.445364,0.742074,8.32194,-0.1056,-0.75997,-0.494252,0
2024-12-11 19:40:05.339,0.385544,0.727717,8.41047,-0.116595,-0.707437,-0.497306,0
2024-12-11 19:40:05.341,0.308973,0.73011,8.50619,-0.129423,-0.65124,-0.498528,0
2024-12-11 19:40:05.344,0.229711,0.758824,8.57318,-0.142862,-0.588933,-0.496084,0
2024-12-11 19:40:05.346,0.145962,0.780359,8.64258,-0.153857,-0.519297,-0.49303,0
2024-12-11 19:40:05.349,0.0478565,0.797109,8.70748,-0.160576,-0.380023,-0.480202,0
2024-12-11 19:40:05.351,-0.0717847,0.821037,8.75055,-0.160576,-0.380023,-0.480202,0
2024-12-11 19:40:05.354,-0.177069,0.862014,8.78884,-0.161798,-0.240139,-0.459433,0
2024-12-11 19:40:05.355,-0.275175,0.902692,8.82234,-0.161798,-0.240139,-0.459433,0
2024-12-11 19:40:05.359,-0.385544,0.931406,8.82712,-0.166685,-0.0984228,-0.426448,0
2024-12-11 19:40:05.360,-0.478864,0.964906,8.82234,-0.166685,-0.0984228,-0.426448,0
2024-12-11 19:40:05.363,-0.572184,0.996012,8.83191,-0.161798,-0.0275645,-0.408733,0
2024-12-11 19:40:05.366,-0.663111,1.0319,8.82712,-0.146527,0.1056,-0.367806,0
2024-12-11 19:40:05.368,-0.749253,1.07258,8.8008,-0.136753,0.17035,-0.343983,0
2024-12-11 19:40:05.372,-0.893121,1.12522,8.72902,-0.126369,0.229602,-0.32016,0
2024-12-11 19:40:05.373,-0.825823,1.10848,8.72902,-0.114763,0.2858,-0.296337,0
2024-12-11 19:40:05.377,-1.00319,1.17308,8.62104,-0.101324,0.337111,-0.26946,0
2024-12-11 19:40:05.378,-1.00319,1.17308,8.62104,-0.101324,0.337111,-0.26946,0
2024-12-11 19:40:05.379,-1.01515,1.17547,8.54686,-0.0872748,0.384757,-0.242583,0
2024-12-11 19:40:05.381,-1.04387,1.1994,8.46311,-0.0732253,0.424462,-0.216927,0
2024-12-11 19:40:05.385,-1.08215,1.22572,8.37697,-0.0402396,0.492267,-0.166227,0
2024-12-11 19:40:05.386,-1.10608,1.24726,8.3004,-0.0402396,0.492267,-0.166227,0
2024-12-11 19:40:05.389,-1.12044,1.2664,8.21426,-0.0255792,0.517922,-0.141182,0
2024-12-11 19:40:05.391,-1.13719,1.30229,8.11346,-0.00847551,0.53808,-0.117359,0
2024-12-11 19:40:05.393,-1.15872,1.35254,8.03211,0.00923906,0.55213,-0.0917034,0
2024-12-11 19:40:05.395,-1.17308,1.4004,7.96032,0.0300079,0.561292,-0.0666587,0
2024-12-11 19:40:05.400,-1.13958,1.45813,7.80718,0.0483333,0.566179,-0.041614,0
2024-12-11 19:40:05.402,-1.0989,1.47966,7.733,0.0947577,0.567401,0.00236703,0
2024-12-11 19:40:05.402,-1.0989,1.47966,7.733,0.0947577,0.567401,0.00236703,0
2024-12-11 19:40:05.405,-1.05823,1.48923,7.63968,0.116137,0.564957,0.0243575,0
2024-12-11 19:40:05.408,-1.01755,1.5012,7.55803,0.163173,0.550908,0.0634518,0
2024-12-11 19:40:05.410,-0.988834,1.51077,7.49582,0.163173,0.550908,0.0634518,0
2024-12-11 19:40:05.412,-0.948156,1.52752,7.42642,0.188828,0.541134,0.0811663,0
2024-12-11 19:40:05.414,-0.907478,1.54666,7.34507,0.216316,0.53075,0.0964375,0
2024-12-11 19:40:05.417,-0.842872,1.55623,7.27089,0.241361,0.514257,0.109265,0
2024-12-11 19:40:05.419,-0.761217,1.57059,7.19432,0.265795,0.499597,0.121482,0
2024-12-11 19:40:05.421,-0.694218,1.58016,7.11057,0.292061,0.482493,0.132477,0
2024-12-11 19:40:05.425,-0.634397,1.59691,7.01486,0.340318,0.44462,0.147138,0
2024-12-11 19:40:05.426,-0.586541,1.63041,6.92602,0.340318,0.44462,0.147138,0
2024-12-11 19:40:05.428,-0.536291,1.66869,6.83749,0.361698,0.425684,0.153246,0
2024-12-11 19:40:05.432,-0.483649,1.71894,6.72742,0.403236,0.39392,0.159966,0
2024-12-11 19:40:05.434,-0.445364,1.77159,6.60299,0.403236,0.39392,0.159966,0
2024-12-11 19:40:05.438,-0.366401,1.82901,6.36581,0.436221,0.361545,0.163631,0
2024-12-11 19:40:05.438,-0.366401,1.82901,6.36581,0.436221,0.361545,0.163631,0
2024-12-11 19:40:05.440,-0.35683,1.88644,6.23899,0.450882,0.347496,0.16302,0
2024-12-11 19:40:05.443,-0.35683,1.92951,6.11934,0.460044,0.333446,0.162409,0
2024-12-11 19:40:05.446,-0.342473,1.96301,5.99492,0.469207,0.302293,0.161798,0
2024-12-11 19:40:05.448,-0.337687,2.00877,5.86541,0.474705,0.290076,0.159355,0
2024-12-11 19:40:05.451,-0.34008,2.06142,5.7338,0.474094,0.274805,0.158744,0
2024-12-11 19:40:05.452,-0.330509,2.09731,5.61177,0.474094,0.274805,0.158744,0
2024-12-11 19:40:05.454,-0.335294,2.11884,5.5017,0.472872,0.262588,0.158133,0
2024-12-11 19:40:05.458,-0.354437,2.15713,5.39641,0.461266,0.245484,0.15569,0
2024-12-11 19:40:05.460,-0.380758,2.19781,5.29322,0.450882,0.238765,0.155079,0
2024-12-11 19:40:05.464,-0.426222,2.29831,5.09462,0.450882,0.238765,0.155079,0
2024-12-11 19:40:05.465,-0.426222,2.29831,5.09462,0.42828,0.233267,0.157522,0
2024-12-11 19:40:05.466,-0.457328,2.33659,5.03719,0.42828,0.233267,0.157522,0
2024-12-11 19:40:05.469,-0.486042,2.37488,4.98694,0.417285,0.230213,0.156911,0
2024-12-11 19:40:05.471,-0.495613,2.40838,4.94866,0.402014,0.227159,0.159355,0
2024-12-11 19:40:05.473,-0.490828,2.43709,4.90798,0.385521,0.225937,0.161798,0
2024-12-11 19:40:05.476,-0.469292,2.47298,4.85055,0.367806,0.221661,0.162409,0
2024-12-11 19:40:05.478,-0.428614,2.5017,4.79552,0.350092,0.218607,0.16302,0
2024-12-11 19:40:05.480,-0.392722,2.52832,4.7354,0.32688,0.219829,0.16302,0
2024-12-11 19:40:05.483,-0.364008,2.56182,4.68036,0.303667,0.217996,0.161187,0
2024-12-11 19:40:05.486,-0.328116,2.60489,4.63729,0.279234,0.219218,0.160576,0
2024-12-11 19:40:05.490,-0.275175,2.69821,4.5679,0.279234,0.219218,0.160576,0
2024-12-11 19:40:05.492,-0.258425,2.77478,4.55593,0.196158,0.221661,0.156911,0
2024-12-11 19:40:05.493,-0.258425,2.77478,4.55593,0.161951,0.22044,0.155079,0
2024-12-11 19:40:05.495,-0.248854,2.84417,4.56551,0.161951,0.22044,0.155079,0
2024-12-11 19:40:05.499,-0.222533,2.97338,4.56072,0.0959794,0.207001,0.14897,0
2024-12-11 19:40:05.499,-0.222533,2.97338,4.56072,0.0959794,0.207001,0.14897,0
2024-12-11 19:40:05.501,-0.210568,3.04277,4.58943,0.057496,0.199671,0.146527,0
2024-12-11 19:40:05.504,-0.0933201,2.99492,4.69711,0.0208452,0.188675,0.142862,0
2024-12-11 19:40:05.507,0.871586,2.40359,5.84866,-0.0133623,-0.00923906,0.0671168,0
2024-12-11 19:40:05.508,1.38604,2.09252,6.69392,-0.0133623,-0.00923906,0.0671168,0
2024-12-11 19:40:05.512,0.447757,2.58096,5.85823,-0.0316877,0.0347419,0.0127514,0
2024-12-11 19:40:05.513,-0.138784,3.0021,5.44188,-0.0316877,0.0347419,0.0127514,0
2024-12-11 19:40:05.516,-0.112463,3.2345,5.84148,-0.0329094,0.0872748,0.00603212,0
2024-12-11 19:40:05.518,-0.270389,3.53121,5.9686,-0.0322986,0.11232,0.00725381,0
2024-12-11 19:40:05.521,-0.586541,3.89282,5.85823,-0.0432938,0.147138,0.0213033,0
2024-12-11 19:40:05.523,-0.722932,4.17518,5.90878,-0.0616192,0.166685,0.0445155,0
2024-12-11 19:40:05.525,-0.687039,4.32622,6.00688,-0.086664,0.157522,0.0701711,0
2024-12-11 19:40:05.527,-0.588933,4.35972,5.99253,-0.121482,0.134921,0.090329,0
2024-12-11 19:40:05.530,-0.421436,4.30708,5.95424,-0.157522,0.111098,0.104989,0
2024-12-11 19:40:05.532,-0.165105,4.18953,5.96142,-0.198449,0.0854423,0.111098,0
2024-12-11 19:40:05.535,0.162712,4.04836,6.06431,-0.236322,0.0591758,0.107433,0
2024-12-11 19:40:05.537,0.474078,3.92872,6.24138,-0.274805,0.030466,0.0909399,0
2024-12-11 19:40:05.539,0.710967,3.85454,6.45703,-0.274805,0.030466,0.0909399,0
2024-12-11 19:40:05.541,0.873978,3.82343,6.69871,-0.332225,-0.0232886,0.0341311,0
2024-12-11 19:40:05.544,0.972084,3.82343,6.96192,-0.355437,-0.0507767,-0.00251974,0
2024-12-11 19:40:05.546,1.00319,3.85932,7.23261,-0.376206,-0.0758214,-0.0422248,0
2024-12-11 19:40:05.549,0.97687,3.92872,7.47428,-0.388422,-0.105142,-0.0837624,0
2024-12-11 19:40:05.553,0.864407,4.07468,7.88615,-0.410413,-0.169892,-0.161951,0
2024-12-11 19:40:05.554,0.864407,4.07468,7.88615,-0.418965,-0.204099,-0.197991,0
2024-12-11 19:40:05.557,0.794716,4.1345,8.05364,-0.430571,-0.237085,-0.230977,0
2024-12-11 19:40:05.558,0.725324,4.18235,8.19512,-0.430571,-0.237085,-0.230977,0
2024-12-11 19:40:05.560,0.648754,4.21137,8.32912,-0.437901,-0.267017,-0.260297,0
2024-12-11 19:40:05.563,0.593719,4.22333,8.45833,-0.449507,-0.296948,-0.289007,0
2024-12-11 19:40:05.566,0.56022,4.18953,8.57558,-0.478217,-0.353146,-0.340318,0
2024-12-11 19:40:05.567,0.519542,4.12732,8.72184,-0.478217,-0.353146,-0.340318,0
2024-12-11 19:40:05.571,0.474078,4.09621,8.92284,-0.510592,-0.408733,-0.386132,0
2024-12-11 19:40:05.572,0.442971,4.06271,9.14776,-0.510592,-0.408733,-0.386132,0
2024-12-11 19:40:05.574,0.392722,4.01725,9.39452,-0.527696,-0.439276,-0.40629,0
2024-12-11 19:40:05.577,0.320937,3.97657,9.6697,-0.543578,-0.467985,-0.42828,0
2024-12-11 19:40:05.579,0.260818,3.93829,9.94278,-0.558849,-0.493641,-0.442941,0
2024-12-11 19:40:05.582,0.198604,3.90479,10.2347,-0.563125,-0.513799,-0.459433,0
2024-12-11 19:40:05.584,0.133998,3.86411,10.5532,-0.572287,-0.531513,-0.47165,0
2024-12-11 19:40:05.587,0.081356,3.83061,10.893,-0.569844,-0.544341,-0.49303,0
2024-12-11 19:40:05.590,0.0382852,3.79472,11.2355,-0.569844,-0.544341,-0.49303,0
2024-12-11 19:40:05.592,0.0119641,3.73968,11.5493,-0.553351,-0.529681,-0.502193,0
2024-12-11 19:40:05.594,-0.0215354,3.67508,11.8579,-0.53808,-0.516853,-0.50708,0
2024-12-11 19:40:05.596,-0.0502493,3.61974,12.1502,-0.53808,-0.516853,-0.50708,0
2024-12-11 19:40:05.598,-0.0622134,3.56231,12.4205,-0.520366,-0.499139,-0.508301,0
2024-12-11 19:40:05.603,-0.066999,3.42353,12.8898,-0.476385,-0.449049,-0.509523,0
2024-12-11 19:40:05.604,-0.0765703,3.49053,12.6673,-0.452561,-0.424004,-0.50708,0
2024-12-11 19:40:05.606,-0.0526421,3.3661,13.0789,-0.425073,-0.389186,-0.506469,0
2024-12-11 19:40:05.607,-0.0741775,3.32782,13.2443,-0.425073,-0.389186,-0.506469,0
2024-12-11 19:40:05.610,-0.0933201,3.268,13.4189,-0.398196,-0.353757,-0.504025,0
2024-12-11 19:40:05.613,-0.0981057,3.18664,13.5745,-0.343831,-0.276179,-0.497306,0
2024-12-11 19:40:05.615,-0.0981057,3.134,13.6893,-0.343831,-0.276179,-0.497306,0
2024-12-11 19:40:05.617,-0.100499,3.08584,13.7877,-0.318175,-0.235863,-0.491808,0
2024-12-11 19:40:05.622,-0.119641,3.01406,13.972,-0.251593,-0.147291,-0.474705,0
2024-12-11 19:40:05.623,-0.119641,3.01406,13.972,-0.251593,-0.147291,-0.474705,0
2024-12-11 19:40:05.624,-0.133998,2.98056,14.0557,-0.224105,-0.100866,-0.463099,0
2024-12-11 19:40:05.626,-0.145962,2.93988,14.1036,-0.202114,-0.0501658,-0.450271,0
2024-12-11 19:40:05.630,-0.165105,2.92313,14.118,-0.176459,0.00603212,-0.438665,0
2024-12-11 19:40:05.631,-0.191426,2.92074,14.1012,-0.149581,0.0640626,-0.424615,0
2024-12-11 19:40:05.633,-0.222533,2.92552,14.0677,-0.125758,0.131867,-0.408122,0
2024-12-11 19:40:05.636,-0.267996,2.94467,14.0031,-0.101324,0.210055,-0.388575,0
2024-12-11 19:40:05.638,-0.30658,2.9686,13.905,-0.0805555,0.295574,-0.373915,0
2024-12-11 19:40:05.641,-0.349651,2.99731,13.7686,-0.0579541,0.382925,-0.356811,0
2024-12-11 19:40:05.643,-0.3999,3.01884,13.5888,-0.0396287,0.469665,-0.339097,0
2024-12-11 19:40:05.645,-0.440578,3.04038,13.407,-0.0243575,0.549075,-0.32688,0
2024-12-11 19:40:05.650,-0.505185,3.03081,12.9855,-0.0115297,0.661471,-0.307333,0
2024-12-11 19:40:05.651,-0.505185,3.03081,12.9855,-0.0115297,0.661471,-0.307333,0
2024-12-11 19:40:05.652,-0.498006,2.97817,12.7678,-0.0194708,0.690181,-0.303057,0
2024-12-11 19:40:05.656,-0.464507,2.92074,12.5091,-0.0597867,0.679797,-0.303057,0
2024-12-11 19:40:05.658,-0.431007,2.88245,12.2124,-0.0982701,0.643757,-0.312219,0
2024-12-11 19:40:05.660,-0.371187,2.87049,11.9369,-0.14836,0.583283,-0.326269,0
2024-12-11 19:40:05.663,-0.272782,2.87288,11.7287,-0.211277,0.494099,-0.347648,0
2024-12-11 19:40:05.664,-0.179462,2.9016,11.5708,-0.211277,0.494099,-0.347648,0
2024-12-11 19:40:05.666,-0.114855,2.94227,11.4724,-0.281524,0.378649,-0.374526,0
2024-12-11 19:40:05.669,-0.0693919,2.96142,11.4341,-0.368875,0.235711,-0.40629,0
2024-12-11 19:40:05.671,0.00478565,2.98295,11.4485,-0.465389,0.074447,-0.441719,0
2024-12-11 19:40:05.673,0.117248,3.03559,11.578,-0.567401,-0.102699,-0.485089,0
2024-12-11 19:40:05.676,0.205783,3.10289,11.8699,-0.676132,-0.289007,-0.530903,0
2024-12-11 19:40:05.678,0.289831,3.15075,12.3057,-0.786695,-0.477759,-0.580381,0
2024-12-11 19:40:05.684,0.502792,3.21775,13.541,-1.06715,-0.97621,-0.748975,0
2024-12-11 19:40:05.684,0.502792,3.21775,13.541,-1.06715,-0.97621,-0.748975,0
2024-12-11 19:40:05.688,0.739681,3.16511,15.1523,-1.13373,-1.10938,-0.807616,0
2024-12-11 19:40:05.688,0.739681,3.16511,15.1523,-1.13373,-1.10938,-0.807616,0
2024-12-11 19:40:05.691,0.9003,3.05474,16.1052,-1.21681,-1.32256,-0.922456,0
2024-12-11 19:40:05.692,1.10608,2.90878,17.1251,-1.21681,-1.32256,-0.922456,0
2024-12-11 19:40:05.697,1.50838,2.49212,19.0546,-1.22414,-1.46672,-1.04524,0
2024-12-11 19:40:05.697,1.50838,2.49212,19.0546,-1.22414,-1.46672,-1.04524,0
2024-12-11 19:40:05.699,1.72852,2.20977,20.0243,-1.20154,-1.50887,-1.10571,0
2024-12-11 19:40:05.703,2.01117,1.90798,20.9722,-1.09403,-1.52719,-1.23643,0
2024-12-11 19:40:05.705,2.28395,1.59212,21.8653,-1.01271,-1.50398,-1.30118,0
2024-12-11 19:40:05.707,2.49452,1.28076,22.6887,-1.01271,-1.50398,-1.30118,0
2024-12-11 19:40:05.712,2.64796,0.687039,23.8956,-0.666358,-1.25903,-1.46122,0
2024-12-11 19:40:05.713,2.64317,0.414257,24.2641,-0.666358,-1.25903,-1.46122,0
2024-12-11 19:40:05.713,2.64317,0.414257,24.2641,-0.666358,-1.25903,-1.46122,0
2024-12-11 19:40:05.716,2.62164,0.133998,24.4965,-0.531361,-1.12465,-1.49604,1
2024-12-11 19:40:05.719,2.5666,-0.153141,24.5707,-0.249149,-0.811892,-1.52964,0
2024-12-11 19:40:05.720,2.4682,-0.421436,24.4965,-0.249149,-0.811892,-1.52964,0
2024-12-11 19:40:05.723,2.32941,-0.651147,24.2689,-0.108654,-0.639633,-1.52903,0
2024-12-11 19:40:05.725,2.1667,-0.864407,23.8932,0.0318404,-0.452714,-1.51559,0
2024-12-11 19:40:05.728,1.97528,-1.05583,23.4144,0.162562,-0.259686,-1.48871,0
2024-12-11 19:40:05.730,1.76919,-1.20897,22.8541,0.289007,-0.0648262,-1.44962,0
2024-12-11 19:40:05.732,1.5658,-1.32383,22.2293,0.402625,0.133699,-1.39831,0
2024-12-11 19:40:05.735,1.33101,-1.41506,21.5707,0.510134,0.331614,-1.33722,0
2024-12-11 19:40:05.739,0.835394,-1.46052,20.1057,0.695831,0.720723,-1.18756,0
2024-12-11 19:40:05.740,0.835394,-1.46052,20.1057,0.775852,0.90833,-1.10266,0
2024-12-11 19:40:05.744,0.414257,-1.39083,18.5566,0.844878,1.08914,-1.01408,0
2024-12-11 19:40:05.745,0.600898,-1.43898,19.3418,0.905352,1.26384,-0.924288,0
2024-12-11 19:40:05.746,0.289831,-1.34058,17.793,0.905352,1.26384,-0.924288,0
2024-12-11 19:40:05.749,0.196211,-1.28554,17.0363,0.959107,1.42511,-0.835715,0
2024-12-11 19:40:05.751,0.112463,-1.22572,16.2894,1.00431,1.57232,-0.750197,0
2024-12-11 19:40:05.753,0.0478565,-1.15872,15.5689,1.04096,1.70182,-0.672008,0
2024-12-11 19:40:05.756,0.00957129,-1.08455,14.9082,1.07211,1.81422,-0.599317,0
2024-12-11 19:40:05.758,0.00239282,-1.01276,14.2807,1.09838,1.91195,-0.535179,0
2024-12-11 19:40:05.762,0.0119641,-0.938585,13.663,1.13686,2.05184,-0.42828,0
2024-12-11 19:40:05.765,0.0885344,-0.773181,12.5019,1.15091,2.10131,-0.386132,0
2024-12-11 19:40:05.765,0.0885344,-0.773181,12.5019,1.15091,2.10131,-0.386132,0
2024-12-11 19:40:05.769,0.148355,-0.720539,11.9656,1.16374,2.15263,-0.335431,0
2024-12-11 19:40:05.770,0.236889,-0.65354,11.4413,1.16374,2.15263,-0.335431,0
2024-12-11 19:40:05.773,0.342473,-0.579362,10.9385,1.17168,2.14713,-0.321993,0
2024-12-11 19:40:05.776,0.447757,-0.495613,10.4767,1.16618,2.12269,-0.330545,0
2024-12-11 19:40:05.777,0.529113,-0.397508,10.0505,1.16618,2.12269,-0.330545,0
2024-12-11 19:40:05.782,0.691825,-0.184247,9.26531,1.15275,2.02557,-0.375137,0
2024-12-11 19:40:05.784,0.761217,-0.0837488,8.91805,1.14297,1.95532,-0.411177,0
2024-12-11 19:40:05.784,0.761217,-0.0837488,8.91805,1.14297,1.95532,-0.411177,0
2024-12-11 19:40:05.786,0.837787,0.00478565,8.61147,1.1277,1.86492,-0.455158,0
2024-12-11 19:40:05.790,1.26401,-0.227318,8.7697,1.10449,1.75313,-0.505247,0
2024-12-11 19:40:05.793,1.62802,-0.490828,9.00898,1.12587,1.35852,-0.678728,0
2024-12-11 19:40:05.794,1.62802,-0.490828,9.00898,1.12587,1.35852,-0.678728,0
2024-12-11 19:40:05.796,0.905085,-0.124427,8.11586,1.11915,1.27606,-0.748975,0
2024-12-11 19:40:05.798,0.893121,0.0215354,8.23101,1.11915,1.27606,-0.748975,0
2024-12-11 19:40:05.802,0.804287,0.193819,8.22144,1.13075,0.941926,-0.923067,0
2024-12-11 19:40:05.803,0.517149,0.421436,7.93879,1.13075,0.941926,-0.923067,0
2024-12-11 19:40:05.805,0.335294,0.557827,7.85743,1.12465,0.811205,-0.964604,0
2024-12-11 19:40:05.808,0.205783,0.643968,7.78804,1.11548,0.657806,-1.00126,0
2024-12-11 19:40:05.811,0.0598206,0.684646,7.58226,1.09655,0.498986,-1.02935,0
2024-12-11 19:40:05.812,-0.0119641,0.641576,7.39292,1.06967,0.341998,-1.05562,0
2024-12-11 19:40:05.815,0.0119641,0.529113,7.24936,1.04035,0.186843,-1.07639,0
2024-12-11 19:40:05.817,0.160319,0.347258,7.21346,1.00736,0.0365745,-1.09899,0
2024-12-11 19:40:05.819,0.421436,0.105284,7.32353,0.970713,-0.119192,-1.12587,0
2024-12-11 19:40:05.824,0.893121,-0.447757,7.67318,0.906574,-0.433167,-1.19184,0
2024-12-11 19:40:05.824,0.893121,-0.447757,7.67318,0.906574,-0.433167,-1.19184,0
2024-12-11 19:40:05.827,1.07258,-0.710967,7.88854,0.877864,-0.577938,-1.22788,0
2024-12-11 19:40:05.829,1.22333,-0.919442,8.12782,0.856484,-0.708659,-1.26636,0
2024-12-11 19:40:05.831,1.3334,-1.07258,8.36979,0.842435,-0.826553,-1.30362,0
2024-12-11 19:40:05.834,1.44377,-1.19222,8.64258,0.830829,-0.928564,-1.33783,0
2024-12-11 19:40:05.837,1.55145,-1.2999,8.95394,0.825331,-1.1106,-1.4038,0
2024-12-11 19:40:05.839,1.65194,-1.41027,9.25065,0.825331,-1.1106,-1.4038,0
2024-12-11 19:40:05.841,1.75005,-1.51077,9.50459,0.825331,-1.1106,-1.4038,0
2024-12-11 19:40:05.844,1.84098,-1.58734,9.71277,0.841824,-1.32378,-1.49177,0
2024-12-11 19:40:05.845,1.93908,-1.66391,9.89492,0.841824,-1.32378,-1.49177,0
2024-12-11 19:40:05.851,2.15474,-1.82901,10.194,0.867479,-1.4203,-1.54796,0
2024-12-11 19:40:05.852,2.26002,-1.90798,10.3256,0.879696,-1.45389,-1.57423,0
2024-12-11 19:40:05.853,2.26002,-1.90798,10.3256,0.879696,-1.45389,-1.57423,0
2024-12-11 19:40:05.857,2.40598,-2.04467,10.5891,0.903519,-1.49482,-1.62737,0
2024-12-11 19:40:05.858,2.40598,-2.04467,10.5891,0.920623,-1.50398,-1.65303,0
2024-12-11 19:40:05.860,2.44905,-2.08774,10.6944,0.920623,-1.50398,-1.65303,0
2024-12-11 19:40:05.862,2.49212,-2.12602,10.8069,0.938338,-1.50581,-1.67624,0
2024-12-11 19:40:05.865,2.51127,-2.15474,10.9337,0.975599,-1.48932,-1.72083,0
2024-12-11 19:40:05.867,2.51845,-2.15713,11.0465,0.975599,-1.48932,-1.72083,0
2024-12-11 19:40:05.869,2.54746,-2.15952,11.1326,0.996368,-1.46855,-1.74038,0
2024-12-11 19:40:05.871,2.58335,-2.17149,11.1924,1.02202,-1.44351,-1.76115,0
2024-12-11 19:40:05.874,2.61446,-2.18345,11.2187,1.04401,-1.4093,-1.77886,0
2024-12-11 19:40:05.876,2.64556,-2.20738,11.2211,1.07028,-1.37143,-1.79597,0
2024-12-11 19:40:05.878,2.68146,-2.25763,11.1829,1.0941,-1.32806,-1.81368,0
2024-12-11 19:40:05.881,2.68864,-2.29352,11.1015,1.0941,-1.32806,-1.81368,0
2024-12-11 19:40:05.883,2.67189,-2.30309,10.9914,1.14053,-1.2236,-1.84911,0
2024-12-11 19:40:05.885,2.62642,-2.31745,10.8571,1.15885,-1.16557,-1.86255,0
2024-12-11 19:40:05.889,2.56421,-2.30309,10.6968,1.18634,-1.03729,-1.88698,0
2024-12-11 19:40:05.890,2.48734,-2.26959,10.5269,1.18634,-1.03729,-1.88698,0
2024-12-11 19:40:05.893,2.3988,-2.24327,10.3496,1.19673,-0.971934,-1.89737,0
2024-12-11 19:40:05.895,2.30788,-2.2002,10.1653,1.19978,-0.905963,-1.90287,0
2024-12-11 19:40:05.898,2.22413,-2.14756,9.97149,1.20528,-0.836937,-1.90897,0
2024-12-11 19:40:05.899,2.14995,-2.09731,9.76541,1.20283,-0.770355,-1.91081,0
2024-12-11 19:40:05.903,2.07817,-2.05424,9.56202,1.18634,-0.645131,-1.9047,0
2024-12-11 19:40:05.904,2.00399,-1.99681,9.37538,1.18634,-0.645131,-1.9047,0
2024-12-11 19:40:05.907,1.94148,-1.92712,9.19083,1.17535,-0.587101,-1.90103,0
2024-12-11 19:40:05.909,1.89362,-1.86012,9.01376,1.16313,-0.529681,-1.89492,0
2024-12-11 19:40:05.912,1.86251,-1.80509,8.84866,1.1277,-0.432556,-1.88515,0
2024-12-11 19:40:05.915,1.86969,-1.74766,8.67368,1.10693,-0.39224,-1.88088,0
2024-12-11 19:40:05.917,1.87926,-1.69262,8.5014,1.10693,-0.39224,-1.88088,0
2024-12-11 19:40:05.918,1.88405,-1.64477,8.34347,1.08433,-0.358033,-1.87904,0
2024-12-11 19:40:05.921,1.88644,-1.57777,8.20469,1.05623,-0.328712,-1.87599,0
2024-12-11 19:40:05.923,1.86251,-1.5012,8.06561,1.03363,-0.304278,-1.87599,0
2024-12-11 19:40:05.926,1.84337,-1.42463,7.95314,1.03363,-0.304278,-1.87599,0
2024-12-11 19:40:05.931,1.82184,-1.23769,7.78325,0.952998,-0.270071,-1.88393,0
2024-12-11 19:40:05.932,1.80987,-1.14915,7.69711,0.927342,-0.26946,-1.88759,0
2024-12-11 19:40:05.933,1.80987,-1.14915,7.69711,0.927342,-0.26946,-1.88759,0
2024-12-11 19:40:05.935,1.79312,-1.04865,7.65883,0.901687,-0.274347,-1.89187,0
2024-12-11 19:40:05.938,1.77637,-0.955334,7.64208,0.852819,-0.300613,-1.9047,0
2024-12-11 19:40:05.940,1.77159,-0.873978,7.64208,0.852819,-0.300613,-1.9047,0
2024-12-11 19:40:05.942,1.75962,-0.777966,7.63968,0.832661,-0.319549,-1.91264,0
2024-12-11 19:40:05.944,1.74287,-0.679861,7.64926,0.811282,-0.343983,-1.91936,0
2024-12-11 19:40:05.948,1.74048,-0.591326,7.68036,0.792956,-0.370861,-1.92791,0
2024-12-11 19:40:05.949,1.74287,-0.505185,7.70908,0.777074,-0.39896,-1.94081,0
2024-12-11 19:40:05.952,1.72852,-0.428614,7.75693,0.764857,-0.430724,-1.95547,0
2024-12-11 19:40:05.954,1.72134,-0.352044,7.81436,0.754473,-0.46432,-1.97014,0
2024-12-11 19:40:05.957,1.71416,-0.277567,7.87897,0.745921,-0.538844,-2.00251,0
2024-12-11 19:40:05.961,1.66869,-0.143569,7.98664,0.745921,-0.574884,-2.02084,0
2024-12-11 19:40:05.962,1.66869,-0.143569,7.98664,0.745921,-0.574884,-2.02084,0
2024-12-11 19:40:05.963,1.63998,-0.0981057,8.02732,0.747143,-0.614589,-2.04283,0
2024-12-11 19:40:05.965,1.58734,-0.0502493,8.07996,0.753862,-0.654905,-2.06359,0
2024-12-11 19:40:05.968,1.53709,0.00957129,8.14248,0.756916,-0.703162,-2.08559,0
2024-12-11 19:40:05.970,1.46052,0.0574277,8.19751,0.76669,-0.754473,-2.10635,0
2024-12-11 19:40:05.973,1.37647,0.100499,8.24058,0.778907,-0.806395,-2.12712,0
2024-12-11 19:40:05.975,1.29033,0.136391,8.27408,0.790513,-0.863814,-2.1485,0
2024-12-11 19:40:05.977,1.18744,0.196211,8.30519,0.790513,-0.863814,-2.1485,0
2024-12-11 19:40:05.981,1.08694,0.263211,8.32672,0.833883,-1.06051,-2.21142,0
2024-12-11 19:40:05.982,0.967299,0.289831,8.31954,0.833883,-1.06051,-2.21142,0
2024-12-11 19:40:05.984,0.833001,0.318545,8.30758,0.848543,-1.12709,-2.22913,0
2024-12-11 19:40:05.989,0.634397,0.435793,8.28844,0.872977,-1.26392,-2.26395,0
2024-12-11 19:40:05.992,0.634397,0.500399,8.27169,0.885194,-1.33111,-2.28106,0
2024-12-11 19:40:05.992,0.545863,0.500399,8.27169,0.885194,-1.33111,-2.28106,0
2024-12-11 19:40:05.994,0.462114,0.553041,8.25972,0.895578,-1.39647,-2.29816,0
2024-12-11 19:40:05.997,0.385544,0.60329,8.23101,0.907185,-1.53086,-2.32992,0
2024-12-11 19:40:05.998,0.320937,0.639183,8.2023,0.907185,-1.53086,-2.32992,0
2024-12-11 19:40:06.001,0.267996,0.672682,8.15683,0.912071,-1.595,-2.3452,0
2024-12-11 19:40:06.003,0.224925,0.725324,8.11107,0.913904,-1.65914,-2.35863,0
2024-12-11 19:40:06.005,0.181855,0.773181,8.05843,0.912071,-1.72083,-2.37329,0
2024-12-11 19:40:06.008,0.150748,0.809073,7.99143,0.905963,-1.77825,-2.38673,0
2024-12-11 19:40:06.010,0.129212,0.85005,7.93879,0.899244,-1.8314,-2.39834,0
