timestamp,accel_x,accel_y,accel_z,gyro_x,gyro_y,gyro_z,step_timestamp
2024-12-11 19:37:54.288,0.256032,3.09093,9.94995,-0.0158057,-0.0544418,0.0432938,0
2024-12-11 19:37:54.288,0.270389,3.09093,9.94995,-0.0158057,-0.0544418,0.0432938,0
2024-12-11 19:37:54.289,0.270389,3.09093,9.94995,-0.0121406,-0.0544418,0.0469589,0
2024-12-11 19:37:54.290,0.277567,3.0667,9.96431,-0.0121406,-0.0544418,0.0469589,0
2024-12-11 19:37:54.294,0.282652,3.04756,9.97388,-0.00542127,-0.0550526,0.0494023,0
2024-12-11 19:37:54.294,0.282652,3.04756,9.97388,-0.00542127,-0.0550526,0.0494023,0
2024-12-11 19:37:54.295,0.289831,3.02124,9.97388,7.63559e-05,-0.057496,0.0518457,0
2024-12-11 19:37:54.296,0.289831,3.02124,9.97388,0.00496313,-0.0562743,0.0542891,0
2024-12-11 19:37:54.297,0.308973,2.99492,9.97388,0.00496313,-0.0562743,0.0542891,0
2024-12-11 19:37:54.298,0.308973,2.99492,9.97388,0.00496313,-0.0562743,0.0542891,0
2024-12-11 19:37:54.300,0.328116,2.97577,9.99063,0.0104608,-0.0550526,0.0573433,0
2024-12-11 19:37:54.301,0.328116,2.97577,9.99063,0.0177909,-0.0532201,0.0591758,0
2024-12-11 19:37:54.302,0.328116,2.97577,9.99063,0.0177909,-0.0532201,0.0591758,0
2024-12-11 19:37:54.302,0.354437,2.95663,10.005,0.0177909,-0.0532201,0.0591758,0
2024-12-11 19:37:54.303,0.354437,2.95663,10.005,0.0269536,-0.049555,0.0579541,0
2024-12-11 19:37:54.304,0.385544,2.9351,9.99781,0.0269536,-0.049555,0.0579541,0
2024-12-11 19:37:54.305,0.385544,2.9351,9.99781,0.0275645,-0.0465007,0.0616192,0
2024-12-11 19:37:54.307,0.411865,2.90638,9.97867,0.0275645,-0.0465007,0.0616192,0
2024-12-11 19:37:54.307,0.411865,2.90638,9.97867,0.0275645,-0.0465007,0.0616192,0
2024-12-11 19:37:54.307,0.411865,2.90638,9.97867,0.0275645,-0.0465007,0.0616192,0
2024-12-11 19:37:54.312,0.440578,2.86331,9.96192,0.0367272,-0.0410031,0.0573433,0
2024-12-11 19:37:54.315,0.440578,2.85135,9.92842,0.0428357,-0.0330621,0.0512348,0
2024-12-11 19:37:54.315,0.440578,2.85135,9.92842,0.0428357,-0.0330621,0.0512348,0
2024-12-11 19:37:54.317,0.4334,2.8346,9.90688,0.0446682,-0.0318404,0.046348,0
2024-12-11 19:37:54.318,0.426222,2.80588,9.88056,0.0446682,-0.0318404,0.046348,0
2024-12-11 19:37:54.318,0.426222,2.80588,9.88056,0.0446682,-0.0318404,0.046348,0
2024-12-11 19:37:54.321,0.426222,2.80588,9.85185,0.049555,-0.0281753,0.0439046,0
2024-12-11 19:37:54.321,0.419043,2.76999,9.85185,0.049555,-0.0281753,0.0439046,0
2024-12-11 19:37:54.326,0.385544,2.75803,9.74148,0.0501658,-0.0208452,0.0335202,0
2024-12-11 19:37:54.327,0.385544,2.75803,9.74148,0.0532201,-0.0147367,0.0286335,0
2024-12-11 19:37:54.328,0.3999,2.73888,9.72712,0.0532201,-0.0147367,0.0286335,0
2024-12-11 19:37:54.330,0.423829,2.71496,9.69841,0.0513875,-0.0147367,0.0237467,0
2024-12-11 19:37:54.333,0.447757,2.68624,9.65295,0.0513875,-0.0165692,0.0164165,0
2024-12-11 19:37:54.333,0.447757,2.68624,9.65295,0.0513875,-0.0165692,0.0164165,0
2024-12-11 19:37:54.335,0.454935,2.67428,9.60509,0.0501658,-0.0147367,0.00786466,0
2024-12-11 19:37:54.337,0.462114,2.67428,9.55005,0.0483333,-0.0141258,0.00175619,0
2024-12-11 19:37:54.338,0.462114,2.67428,9.55005,0.0483333,-0.0141258,0.00175619,0
2024-12-11 19:37:54.340,0.447757,2.6671,9.48784,0.0483333,-0.0141258,0.00175619,0
2024-12-11 19:37:54.342,0.414257,2.67428,9.40888,0.0434465,-0.0141258,-0.013515,0
2024-12-11 19:37:54.344,0.3999,2.68385,9.32513,0.0391706,-0.0104608,-0.0202343,0
2024-12-11 19:37:54.345,0.3999,2.68385,9.32513,0.0391706,-0.0104608,-0.0202343,0
2024-12-11 19:37:54.348,0.3999,2.70778,9.26531,0.029397,0.00175619,-0.0312296,0
2024-12-11 19:37:54.350,0.387936,2.73649,9.20519,0.0220669,0.00542127,-0.0361163,0
2024-12-11 19:37:54.351,0.366401,2.76042,9.14297,0.0220669,0.00542127,-0.0361163,0
2024-12-11 19:37:54.354,0.354437,2.78196,9.09751,0.0220669,0.00542127,-0.0361163,0
2024-12-11 19:37:54.354,0.366401,2.76042,9.14297,0.0220669,0.00542127,-0.0361163,0
2024-12-11 19:37:54.357,0.34008,2.80588,9.04248,0.00862822,0.00908635,-0.0434465,0
2024-12-11 19:37:54.358,0.320937,2.82503,8.97308,0.00496313,0.0127514,-0.0477224,0
2024-12-11 19:37:54.358,0.320937,2.82503,8.97308,0.00496313,0.0127514,-0.0477224,0
2024-12-11 19:37:54.361,0.313759,2.8346,8.92044,7.63559e-05,0.0127514,-0.0489441,0
2024-12-11 19:37:54.363,0.304188,2.84417,8.87737,-0.00786466,0.0121406,-0.0513875,0
2024-12-11 19:37:54.366,0.27996,2.84895,8.83191,-0.0170274,0.0115297,-0.0550526,0
2024-12-11 19:37:54.367,0.27996,2.84895,8.83191,-0.0219141,0.0115297,-0.0550526,0
2024-12-11 19:37:54.369,0.258425,2.85135,8.8008,-0.0298552,0.00847551,-0.0562743,0
2024-12-11 19:37:54.370,0.234497,2.84895,8.77927,-0.0298552,0.00847551,-0.0562743,0
2024-12-11 19:37:54.373,0.217747,2.85853,8.77209,-0.0377962,0.00664296,-0.0581068,0
2024-12-11 19:37:54.373,0.217747,2.85853,8.77209,-0.0377962,0.00664296,-0.0581068,0
2024-12-11 19:37:54.375,0.212961,2.87049,8.75773,-0.0408504,0.00481042,-0.0599394,0
2024-12-11 19:37:54.377,0.212961,2.8681,8.7362,-0.0408504,0.00481042,-0.0599394,0
2024-12-11 19:37:54.381,0.210568,2.87049,8.7338,-0.0548999,-0.00984991,-0.0617719,0
2024-12-11 19:37:54.381,0.210568,2.87049,8.7338,-0.0548999,-0.00984991,-0.0617719,0
2024-12-11 19:37:54.382,0.208176,2.88245,8.72662,-0.0597867,-0.0171801,-0.0642153,0
2024-12-11 19:37:54.382,0.208176,2.88245,8.72662,-0.0597867,-0.0171801,-0.0642153,0
2024-12-11 19:37:54.387,0.191426,2.90399,8.76491,-0.0750579,-0.0367272,-0.0684913,0
2024-12-11 19:37:54.388,0.191426,2.90399,8.76491,-0.0811663,-0.0422248,-0.0703238,0
2024-12-11 19:37:54.389,0.181855,2.90638,8.79602,-0.0811663,-0.0422248,-0.0703238,0
2024-12-11 19:37:54.390,0.181855,2.90638,8.79602,-0.0811663,-0.0422248,-0.0703238,0
2024-12-11 19:37:54.391,0.167498,2.8992,8.82473,-0.0811663,-0.0422248,-0.0703238,0
2024-12-11 19:37:54.395,0.160319,2.90878,8.86541,-0.0927724,-0.0526092,-0.0739889,0
2024-12-11 19:37:54.396,0.141177,2.92792,8.91326,-0.0927724,-0.0526092,-0.0739889,0
2024-12-11 19:37:54.399,0.107677,2.94227,8.9683,-0.11232,-0.0788757,-0.0758214,0
2024-12-11 19:37:54.401,0.0574277,2.9662,9.01137,-0.122704,-0.0837624,-0.0752106,0
2024-12-11 19:37:54.403,0.0239282,2.98774,9.01855,-0.130034,-0.0917034,-0.0721563,0
2024-12-11 19:37:54.404,0.0239282,2.98774,9.01855,-0.130034,-0.0917034,-0.0721563,0
2024-12-11 19:37:54.406,0.0119641,3.00688,9.03291,-0.130034,-0.0953685,-0.0697129,0
2024-12-11 19:37:54.408,-0.00717847,3.04756,9.08794,-0.14836,-0.100255,-0.0691021,0
2024-12-11 19:37:54.408,-0.00717847,3.04756,9.08794,-0.14836,-0.100255,-0.0691021,0
2024-12-11 19:37:54.413,-0.0167498,3.134,9.18126,-0.158744,-0.121635,-0.0672696,0
2024-12-11 19:37:54.413,-0.0167498,3.134,9.18126,-0.158744,-0.121635,-0.0672696,0
2024-12-11 19:37:54.415,0.00478565,3.14836,9.2363,-0.172793,-0.132019,-0.0684913,0
2024-12-11 19:37:54.417,0.026321,3.15553,9.29163,-0.180124,-0.143015,-0.0721563,0
2024-12-11 19:37:54.421,0.0598206,3.15314,9.35145,-0.185621,-0.150345,-0.0758214,0
2024-12-11 19:37:54.421,0.0598206,3.15314,9.35145,-0.185621,-0.150345,-0.0758214,0
2024-12-11 19:37:54.422,0.0837488,3.13161,9.43998,-0.191119,-0.155842,-0.0819299,0
2024-12-11 19:37:54.425,0.0717847,3.10529,9.54527,-0.191119,-0.159507,-0.0849841,0
2024-12-11 19:37:54.427,0.0454636,3.07388,9.64816,-0.191119,-0.159507,-0.0886492,0
2024-12-11 19:37:54.428,0.0454636,3.07388,9.64816,-0.191119,-0.159507,-0.0886492,0
2024-12-11 19:37:54.429,0.0215354,3.03081,9.75105,-0.192341,-0.160729,-0.0917034,0
2024-12-11 19:37:54.431,-0.0119641,2.98774,9.84228,-0.189286,-0.159507,-0.0917034,0
2024-12-11 19:37:54.434,-0.0311067,2.95663,9.93081,-0.18501,-0.15401,-0.0898709,0
2024-12-11 19:37:54.435,-0.0311067,2.95663,9.93081,-0.18501,-0.15401,-0.0898709,0
2024-12-11 19:37:54.436,-0.0311067,2.93988,10.0098,-0.179513,-0.150956,-0.0917034,0
2024-12-11 19:37:54.439,-0.0311067,2.9327,10.0768,-0.175237,-0.145458,-0.0892601,0
2024-12-11 19:37:54.441,-0.0239282,2.92792,10.1318,-0.169128,-0.138739,-0.085595,0
2024-12-11 19:37:54.441,-0.0239282,2.92792,10.1318,-0.169128,-0.138739,-0.085595,0
2024-12-11 19:37:54.444,-0.0167498,2.9351,10.1533,-0.160576,-0.128354,-0.0849841,0
2024-12-11 19:37:54.446,-0.00478565,2.93988,10.1486,-0.160576,-0.128354,-0.0849841,0
2024-12-11 19:37:54.446,-0.00478565,2.93988,10.1486,-0.160576,-0.128354,-0.0849841,0
2024-12-11 19:37:54.448,0.0909273,2.91117,10.0863,-0.149581,-0.112472,-0.0807082,0
2024-12-11 19:37:54.451,0.30658,2.95185,10.0122,-0.144694,-0.116748,-0.0800973,0
2024-12-11 19:37:54.451,0.30658,2.95185,10.0122,-0.144694,-0.116748,-0.0800973,0
2024-12-11 19:37:54.455,0.442971,3.37089,10.1127,-0.137364,-0.122857,-0.0953685,0
2024-12-11 19:37:54.455,0.533899,3.37089,10.1127,-0.137364,-0.122857,-0.0953685,0
2024-12-11 19:37:54.457,0.634397,3.36132,10.0528,-0.132477,-0.114305,-0.107585,0
2024-12-11 19:37:54.457,0.634397,3.36132,10.0528,-0.132477,-0.114305,-0.107585,0
2024-12-11 19:37:54.460,0.572184,3.37089,10.0122,-0.128202,-0.106975,-0.116748,0
2024-12-11 19:37:54.463,0.383151,3.41396,10.0337,-0.123315,-0.0880384,-0.126522,0
2024-12-11 19:37:54.463,0.383151,3.41396,10.0337,-0.123315,-0.0880384,-0.126522,0
2024-12-11 19:37:54.464,0.189033,3.46421,10.0265,-0.123315,-0.0880384,-0.126522,0
2024-12-11 19:37:54.467,0.0765703,3.49292,9.98106,-0.11965,-0.0782648,-0.126522,0
2024-12-11 19:37:54.468,0.0765703,3.49292,9.98106,-0.11965,-0.0782648,-0.126522,0
2024-12-11 19:37:54.469,0.026321,3.49053,9.92363,-0.11965,-0.0782648,-0.126522,0
2024-12-11 19:37:54.473,-0.00239282,3.48335,9.88296,-0.119039,-0.0532201,-0.120413,0
2024-12-11 19:37:54.474,0.0143569,3.46182,9.85664,-0.119039,-0.0532201,-0.120413,0
2024-12-11 19:37:54.475,0.0143569,3.46182,9.85664,-0.123926,-0.0465007,-0.120413,0
2024-12-11 19:37:54.476,0.0741775,3.44507,9.83749,-0.123926,-0.0465007,-0.120413,0
2024-12-11 19:37:54.477,0.0741775,3.44507,9.83749,-0.130034,-0.0379489,-0.123468,0
2024-12-11 19:37:54.481,0.234497,3.40917,9.77019,-0.131867,-0.0397814,-0.126522,0
2024-12-11 19:37:54.482,0.234497,3.40917,9.77019,-0.137975,-0.0471116,-0.130187,0
2024-12-11 19:37:54.484,0.297009,3.41875,9.76302,-0.137975,-0.0471116,-0.135684,0
2024-12-11 19:37:54.487,0.332901,3.44028,9.77019,-0.151414,-0.0642153,-0.138128,0
2024-12-11 19:37:54.489,0.143569,3.40439,9.59313,-0.145916,-0.0642153,-0.138128,0
2024-12-11 19:37:54.491,0.143569,3.40439,9.42084,-0.161798,-0.100255,-0.136295,0
2024-12-11 19:37:54.493,-0.0981057,3.34218,9.43998,-0.174626,-0.128354,-0.131409,0
2024-12-11 19:37:54.493,-0.141177,3.34218,9.43998,-0.174626,-0.128354,-0.131409,0
2024-12-11 19:37:54.495,-0.0789631,3.3326,9.49502,-0.181345,-0.141793,-0.129576,0
2024-12-11 19:37:54.495,-0.0789631,3.3326,9.49502,-0.181345,-0.141793,-0.129576,0
2024-12-11 19:37:54.497,0.00239282,3.30868,9.57638,-0.183178,-0.146069,-0.128965,0
2024-12-11 19:37:54.498,0.00239282,3.30868,9.57638,-0.183178,-0.146069,-0.128965,0
2024-12-11 19:37:54.502,0.0933201,3.25603,9.78216,-0.185621,-0.141793,-0.126522,0
2024-12-11 19:37:54.502,0.0933201,3.25603,9.78216,-0.185621,-0.141793,-0.126522,0
2024-12-11 19:37:54.505,0.133998,3.22732,9.86621,-0.175237,-0.126522,-0.123468,0
2024-12-11 19:37:54.507,0.167498,3.20578,9.92363,-0.167296,-0.118581,-0.123468,0
2024-12-11 19:37:54.508,0.167498,3.20578,9.92363,-0.157522,-0.110029,-0.1253,0
2024-12-11 19:37:54.510,0.16989,3.19861,9.97867,-0.150192,-0.101477,-0.124078,0
2024-12-11 19:37:54.513,0.155533,3.21057,10.0265,-0.150192,-0.101477,-0.124078,0
2024-12-11 19:37:54.514,0.155533,3.21057,10.0265,-0.140419,-0.0910926,-0.122857,0
2024-12-11 19:37:54.514,0.141177,3.21536,10.0361,-0.140419,-0.0910926,-0.122857,0
2024-12-11 19:37:54.516,0.114855,3.20578,10.0193,-0.133699,-0.0758214,-0.121635,0
2024-12-11 19:37:54.519,0.0933201,3.19621,9.98824,-0.126369,-0.0593285,-0.121024,0
2024-12-11 19:37:54.520,0.0933201,3.19621,9.98824,-0.115374,-0.0391706,-0.116748,0
2024-12-11 19:37:54.521,0.0741775,3.201,9.94517,-0.115374,-0.0391706,-0.116748,0
2024-12-11 19:37:54.521,0.0741775,3.201,9.94517,-0.115374,-0.0391706,-0.116748,0
2024-12-11 19:37:54.524,0.0382852,3.21536,9.91885,-0.110487,-0.021456,-0.111861,0
2024-12-11 19:37:54.526,0.0143569,3.22732,9.88056,-0.110487,-0.021456,-0.111861,0
2024-12-11 19:37:54.528,0.00957129,3.20818,9.80369,-0.0964375,0.0188599,-0.102699,0
2024-12-11 19:37:54.529,0.0143569,3.20818,9.80369,-0.0939941,0.038407,-0.0978119,0
2024-12-11 19:37:54.530,0.0119641,3.16032,9.75344,-0.0939941,0.038407,-0.0978119,0
2024-12-11 19:37:54.533,0.0119641,3.16032,9.75344,-0.0939941,0.038407,-0.0978119,0
2024-12-11 19:37:54.533,0.122034,3.17946,9.9021,-0.0939941,0.038407,-0.0978119,0
2024-12-11 19:37:54.535,0.258425,3.25843,10.084,-0.0811663,0.066506,-0.0947577,0
2024-12-11 19:37:54.537,0.308973,3.34218,10.0792,-0.0701711,0.0720036,-0.0953685,0
2024-12-11 19:37:54.538,0.308973,3.34218,10.0792,-0.0701711,0.0720036,-0.0953685,0
2024-12-11 19:37:54.540,0.342473,3.402,10.1007,-0.0579541,0.0720036,-0.093536,0
2024-12-11 19:37:54.543,0.301795,3.43071,10.0552,-0.0439046,0.0750579,-0.093536,0
2024-12-11 19:37:54.545,0.236889,3.44507,9.83271,-0.0310769,0.0915507,-0.093536,0
2024-12-11 19:37:54.545,0.236889,3.44507,9.83271,-0.0310769,0.0915507,-0.093536,0
2024-12-11 19:37:54.547,0.205783,3.45224,9.6338,-0.0200816,0.111709,-0.0910926,0
2024-12-11 19:37:54.548,0.205783,3.45224,9.6338,-0.014584,0.129423,-0.0874275,0
2024-12-11 19:37:54.549,0.196211,3.44746,9.52613,-0.014584,0.129423,-0.0874275,0
2024-12-11 19:37:54.553,0.212961,3.44507,9.47827,-0.00725381,0.142862,-0.0862058,0
2024-12-11 19:37:54.554,0.236889,3.43071,9.43281,-0.00725381,0.142862,-0.0862058,0
2024-12-11 19:37:54.555,0.212961,3.44507,9.47827,-0.00175619,0.143473,-0.0880384,0
2024-12-11 19:37:54.556,0.263211,3.39482,9.35145,-0.00175619,0.143473,-0.0880384,0
2024-12-11 19:37:54.557,0.263211,3.39482,9.35145,-0.00175619,0.143473,-0.0880384,0
2024-12-11 19:37:54.559,0.265603,3.37807,9.2339,-0.00481042,0.146527,-0.0874275,0
2024-12-11 19:37:54.561,0.246461,3.37089,9.09273,-0.00481042,0.151414,-0.0886492,0
2024-12-11 19:37:54.563,0.236889,3.3661,8.98266,-0.00542127,0.151414,-0.0886492,0
2024-12-11 19:37:54.563,0.236889,3.3661,8.98266,-0.00542127,0.151414,-0.0886492,0
2024-12-11 19:37:54.566,0.205783,3.3661,8.89651,-0.0139731,0.166074,-0.0910926,0
2024-12-11 19:37:54.566,0.205783,3.3661,8.89651,-0.0139731,0.166074,-0.0910926,0
2024-12-11 19:37:54.568,0.174676,3.36132,8.80798,-0.022525,0.168517,-0.0941468,0
2024-12-11 19:37:54.571,0.153141,3.36371,8.74337,-0.0316877,0.17035,-0.0972011,0
2024-12-11 19:37:54.573,0.129212,3.36371,8.67368,-0.0408504,0.172793,-0.0990336,0
2024-12-11 19:37:54.574,0.129212,3.36371,8.67368,-0.0548999,0.173404,-0.0990336,0
2024-12-11 19:37:54.575,0.11007,3.38764,8.62583,-0.0548999,0.173404,-0.0990336,0
2024-12-11 19:37:54.578,0.0741775,3.42353,8.59472,-0.0689494,0.174626,-0.0990336,0
2024-12-11 19:37:54.580,0.0741775,3.42353,8.55404,-0.0781121,0.174626,-0.100866,0
2024-12-11 19:37:54.580,0.0358923,3.44028,8.55404,-0.0781121,0.174626,-0.100866,0
2024-12-11 19:37:54.582,-0.00478565,3.44985,8.54447,-0.0909399,0.172793,-0.102088,0
2024-12-11 19:37:54.585,-0.040678,3.46899,8.5349,-0.103768,0.177069,-0.102699,0
2024-12-11 19:37:54.586,-0.040678,3.46899,8.5349,-0.111098,0.17768,-0.10331,0
2024-12-11 19:37:54.587,-0.040678,3.46899,8.52054,-0.111098,0.17768,-0.10331,0
2024-12-11 19:37:54.588,-0.0765703,3.48335,8.52054,-0.111098,0.17768,-0.10331,0
2024-12-11 19:37:54.589,-0.117248,3.48814,8.53251,-0.111098,0.17768,-0.10331,0
2024-12-11 19:37:54.592,-0.138784,3.48814,8.54926,-0.128812,0.177069,-0.105142,0
2024-12-11 19:37:54.594,-0.138784,3.47857,8.57797,-0.137364,0.179513,-0.104531,0
2024-12-11 19:37:54.595,-0.157926,3.47857,8.57797,-0.144694,0.176459,-0.106975,0
2024-12-11 19:37:54.596,-0.189033,3.46182,8.59711,-0.144694,0.176459,-0.106975,0
2024-12-11 19:37:54.596,-0.189033,3.46182,8.59711,-0.144694,0.176459,-0.106975,0
2024-12-11 19:37:54.599,-0.217747,3.44028,8.59711,-0.14836,0.172183,-0.105753,0
2024-12-11 19:37:54.601,-0.244068,3.40917,8.61386,-0.153857,0.166074,-0.104531,0
2024-12-11 19:37:54.602,-0.244068,3.40917,8.61386,-0.153857,0.166074,-0.104531,0
2024-12-11 19:37:54.603,-0.292223,3.37567,8.62822,-0.157522,0.158744,-0.105142,0
2024-12-11 19:37:54.606,-0.344866,3.36371,8.65933,-0.161187,0.145916,-0.105142,0
2024-12-11 19:37:54.606,-0.344866,3.36371,8.65933,-0.161187,0.145916,-0.105142,0
2024-12-11 19:37:54.608,-0.385544,3.35175,8.70748,-0.161187,0.145916,-0.105142,0
2024-12-11 19:37:54.610,-0.419043,3.32543,8.73141,-0.16302,0.120871,-0.101477,0
2024-12-11 19:37:54.614,-0.4669,3.30628,8.75294,-0.15569,0.0958267,-0.0929251,0
2024-12-11 19:37:54.614,-0.4669,3.30628,8.75294,-0.15569,0.0958267,-0.0929251,0
2024-12-11 19:37:54.615,-0.512363,3.29671,8.79123,-0.15569,0.0958267,-0.0929251,0
2024-12-11 19:37:54.620,-0.52672,3.28235,8.85584,-0.142862,0.0775012,-0.0788757,0
2024-12-11 19:37:54.621,-0.52672,3.27039,8.90848,-0.137364,0.0683385,-0.0721563,0
2024-12-11 19:37:54.622,-0.536291,3.27518,8.92284,-0.137364,0.0683385,-0.0721563,0
2024-12-11 19:37:54.625,-0.529113,3.25843,8.92523,-0.126369,0.0658951,-0.0617719,0
2024-12-11 19:37:54.627,-0.512363,3.22971,8.9348,-0.117206,0.0646735,-0.0501658,0
2024-12-11 19:37:54.629,-0.493221,3.21775,8.94676,-0.117206,0.0646735,-0.0501658,0
2024-12-11 19:37:54.632,-0.440578,3.20578,8.93719,-0.0909399,0.0658951,-0.0312296,0
2024-12-11 19:37:54.635,-0.3999,3.19621,8.91805,-0.0689494,0.0701711,-0.0110716,0
2024-12-11 19:37:54.637,-0.383151,3.19861,8.88455,-0.0689494,0.0701711,-0.0110716,0
2024-12-11 19:37:54.639,-0.344866,3.20578,8.84866,-0.0603975,0.0732253,-0.00129805,0
2024-12-11 19:37:54.643,-0.263211,3.21775,8.75055,-0.038407,0.0811663,0.014584,0
2024-12-11 19:37:54.644,-0.294616,3.21536,8.80798,-0.038407,0.0811663,0.014584,0
2024-12-11 19:37:54.647,-0.244068,3.22971,8.67368,-0.0292443,0.0805555,0.0280226,0
2024-12-11 19:37:54.651,-0.227318,3.24885,8.60429,-0.0255792,0.0799446,0.0341311,0
2024-12-11 19:37:54.653,-0.212961,3.2991,8.49422,-0.022525,0.0787229,0.0414613,0
2024-12-11 19:37:54.653,-0.224925,3.27757,8.55165,-0.022525,0.0787229,0.0414613,0
2024-12-11 19:37:54.655,-0.18664,3.32782,8.44397,-0.0219141,0.0768904,0.046348,0
2024-12-11 19:37:54.658,-0.133998,3.3661,8.39372,-0.0231358,0.0738362,0.0487914,0
2024-12-11 19:37:54.662,-0.0526421,3.39721,8.31715,-0.0261901,0.0634518,0.0548999,0
2024-12-11 19:37:54.662,-0.0526421,3.39721,8.31715,-0.0261901,0.0634518,0.0548999,0
2024-12-11 19:37:54.665,-0.040678,3.43789,8.29322,-0.0329094,0.0597867,0.0542891,0
2024-12-11 19:37:54.667,-0.0382852,3.47857,8.27647,-0.0377962,0.0603975,0.0567324,0
2024-12-11 19:37:54.669,-0.0502493,3.50728,8.27169,-0.042683,0.0573433,0.0579541,0
2024-12-11 19:37:54.673,-0.0646062,3.54317,8.27169,-0.0536782,0.0524565,0.0548999,0
2024-12-11 19:37:54.674,-0.0598206,3.58864,8.2693,-0.0536782,0.0524565,0.0548999,0
2024-12-11 19:37:54.677,-0.0622134,3.63649,8.27408,-0.0610084,0.0518457,0.0561216,0
2024-12-11 19:37:54.679,-0.0885344,3.68704,8.28126,-0.0671168,0.0512348,0.0561216,0
2024-12-11 19:37:54.682,-0.107677,3.71815,8.28365,-0.0713928,0.0542891,0.0555107,0
2024-12-11 19:37:54.688,-0.102891,3.8019,8.32672,-0.0884965,0.0597867,0.0640626,0
2024-12-11 19:37:54.688,-0.102891,3.8019,8.32672,-0.0884965,0.0597867,0.0640626,0
2024-12-11 19:37:54.691,-0.0789631,3.81625,8.34826,-0.0927724,0.058565,0.0640626,0
2024-12-11 19:37:54.693,-0.0622134,3.8354,8.36022,-0.0970484,0.058565,0.0658951,0
2024-12-11 19:37:54.699,-0.0526421,3.87847,8.41287,-0.114152,0.058565,0.0689494,0
2024-12-11 19:37:54.700,-0.0502493,3.90239,8.44876,-0.114152,0.058565,0.0689494,0
2024-12-11 19:37:54.702,-0.081356,3.93111,8.5014,-0.117206,0.0591758,0.0713928,0
2024-12-11 19:37:54.702,-0.081356,3.93111,8.5014,-0.117206,0.0591758,0.0713928,0
2024-12-11 19:37:54.705,-0.136391,3.94786,8.56122,-0.123926,0.066506,0.0750579,0
2024-12-11 19:37:54.707,-0.179462,3.95264,8.6019,-0.123926,0.066506,0.0750579,0
2024-12-11 19:37:54.707,-0.179462,3.95264,8.6019,-0.123926,0.066506,0.0750579,0
2024-12-11 19:37:54.712,-0.141177,3.92393,8.65933,-0.130645,0.0976592,0.0927724,0
2024-12-11 19:37:54.713,-0.141177,3.92393,8.65933,-0.130645,0.0976592,0.0927724,0
2024-12-11 19:37:54.715,-0.114855,3.94068,8.72184,-0.132477,0.101324,0.0976592,0
2024-12-11 19:37:54.716,-0.11007,3.93111,8.77448,-0.136753,0.107433,0.104989,0
2024-12-11 19:37:54.721,-0.181855,3.93829,8.81755,-0.138586,0.125147,0.122704,0
2024-12-11 19:37:54.725,-0.210568,3.96461,8.83669,-0.14164,0.133088,0.131256,0
2024-12-11 19:37:54.726,-0.217747,4.00289,8.87737,-0.140419,0.141029,0.142862,0
2024-12-11 19:37:54.727,-0.217747,4.00289,8.87737,-0.143473,0.142862,0.153857,0
2024-12-11 19:37:54.729,-0.18664,4.03639,8.90609,-0.144694,0.139808,0.16302,0
2024-12-11 19:37:54.732,-0.102891,4.08903,8.92044,-0.143473,0.134921,0.168517,0
2024-12-11 19:37:54.734,-0.00717847,4.15603,8.93719,-0.143473,0.134921,0.168517,0
2024-12-11 19:37:54.735,0.0574277,4.15364,8.97787,-0.14897,0.128812,0.172793,0
2024-12-11 19:37:54.739,0.234497,3.95264,9.33231,-0.144694,0.110487,0.167907,0
2024-12-11 19:37:54.740,0.421436,3.84736,9.77259,-0.135532,0.0548999,0.155079,0
2024-12-11 19:37:54.743,0.452543,4.00289,9.71277,-0.120261,0.0200816,0.14164,0
2024-12-11 19:37:54.745,0.469292,4.19432,9.37059,-0.104379,0.0475697,0.131256,0
2024-12-11 19:37:54.747,0.507577,4.37647,9.2339,-0.0897182,0.116595,0.125147,0
2024-12-11 19:37:54.750,0.45015,4.47697,9.33949,-0.0775012,0.180734,0.125758,0
2024-12-11 19:37:54.752,0.320937,4.49611,9.54288,-0.0695602,0.207001,0.128812,0
2024-12-11 19:37:54.754,0.215354,4.56072,9.61227,-0.0646735,0.200892,0.131256,0
2024-12-11 19:37:54.757,0.136391,4.64686,9.43759,-0.0634518,0.195395,0.132477,0
2024-12-11 19:37:54.759,0.143569,4.68993,9.31316,-0.0658951,0.207001,0.135532,0
2024-12-11 19:37:54.762,0.224925,4.7019,9.36581,-0.0732253,0.224715,0.137975,0
2024-12-11 19:37:54.764,0.287438,4.70907,9.41845,-0.0732253,0.224715,0.137975,0
2024-12-11 19:37:54.766,0.35683,4.71386,9.42084,-0.0781121,0.228381,0.132477,0
2024-12-11 19:37:54.769,0.4669,4.7019,9.41366,-0.0891073,0.241819,0.11232,0
2024-12-11 19:37:54.772,0.581755,4.666,9.42323,-0.0891073,0.241819,0.11232,0
2024-12-11 19:37:54.775,0.766002,4.56551,9.46391,-0.102546,0.255869,0.074447,0
2024-12-11 19:37:54.778,0.766002,4.56551,9.46391,-0.106211,0.261977,0.0500131,0
2024-12-11 19:37:54.779,0.835394,4.51286,9.49263,-0.106211,0.261977,0.0500131,0
2024-12-11 19:37:54.780,0.84018,4.49611,9.48066,-0.111098,0.260755,0.0194708,0
2024-12-11 19:37:54.782,0.787538,4.48894,9.47348,-0.120261,0.255869,-0.00557398,0
2024-12-11 19:37:54.785,0.703789,4.49133,9.49263,-0.117817,0.250982,-0.0330621,0
2024-12-11 19:37:54.787,0.615255,4.52243,9.51895,-0.120261,0.239376,-0.0593285,0
2024-12-11 19:37:54.791,0.52672,4.53201,9.52373,-0.128202,0.226548,-0.0849841,0
2024-12-11 19:37:54.792,0.421436,4.53679,9.51655,-0.128202,0.213109,-0.108807,0
2024-12-11 19:37:54.794,0.32333,4.54158,9.5333,-0.133699,0.193562,-0.131409,0
2024-12-11 19:37:54.798,0.248854,4.51526,9.55723,-0.138586,0.173404,-0.149123,0
2024-12-11 19:37:54.801,0.102891,4.44826,9.58595,-0.144084,0.123315,-0.183941,0
2024-12-11 19:37:54.805,0.0622134,4.40279,9.60987,-0.145916,0.0964375,-0.199823,0
2024-12-11 19:37:54.805,0.0622134,4.40279,9.60987,-0.145916,0.0964375,-0.199823,0
2024-12-11 19:37:54.806,0.0119641,4.35733,9.66012,-0.145916,0.0964375,-0.199823,0
2024-12-11 19:37:54.811,-0.0502493,4.2688,9.77498,-0.146527,0.0445155,-0.227922,0
2024-12-11 19:37:54.811,-0.112463,4.2688,9.77498,-0.146527,0.0445155,-0.227922,0
2024-12-11 19:37:54.814,-0.191426,4.21615,9.84467,-0.137975,-0.00862822,-0.259686,0
2024-12-11 19:37:54.815,-0.285045,4.1345,9.90928,-0.137975,-0.00862822,-0.259686,0
2024-12-11 19:37:54.820,-0.431007,3.98136,9.9691,-0.133699,-0.0202343,-0.268849,0
2024-12-11 19:37:54.822,-0.474078,3.92154,10.0074,-0.123315,-0.029397,-0.276179,0
2024-12-11 19:37:54.823,-0.474078,3.92154,10.0074,-0.123315,-0.029397,-0.276179,0
2024-12-11 19:37:54.825,-0.505185,3.8689,10.0457,-0.121482,-0.0312296,-0.277401,0
2024-12-11 19:37:54.827,-0.536291,3.82582,10.0744,-0.117206,-0.0330621,-0.277401,0
2024-12-11 19:37:54.831,-0.548256,3.80429,10.1103,-0.104989,-0.0306187,-0.271293,0
2024-12-11 19:37:54.832,-0.586541,3.79232,10.151,-0.104989,-0.0306187,-0.271293,0
2024-12-11 19:37:54.835,-0.648754,3.78993,10.1677,-0.0939941,-0.0184018,-0.258465,0
2024-12-11 19:37:54.837,-0.710967,3.78754,10.194,-0.0939941,-0.0184018,-0.258465,0
2024-12-11 19:37:54.839,-0.773181,3.75883,10.2251,-0.0878856,-0.0110716,-0.249913,0
2024-12-11 19:37:54.844,-0.869193,3.69183,10.2323,-0.0732253,0.0151948,-0.226701,0
2024-12-11 19:37:54.844,-0.869193,3.69183,10.2323,-0.0732253,0.0151948,-0.226701,0
2024-12-11 19:37:54.847,-0.905085,3.64367,10.2108,-0.066506,0.0286335,-0.214484,0
2024-12-11 19:37:54.848,-0.945763,3.61496,10.1653,-0.0610084,0.046348,-0.204099,0
2024-12-11 19:37:54.851,-0.96012,3.57667,10.1222,-0.0573433,0.0634518,-0.19005,0
2024-12-11 19:37:54.853,-0.957727,3.53599,10.1007,-0.0561216,0.0781121,-0.17539,0
2024-12-11 19:37:54.855,-1.00558,3.51685,10.0648,-0.0567324,0.0921616,-0.164394,0
2024-12-11 19:37:54.858,-1.0654,3.52403,10.0026,-0.058565,0.1056,-0.150956,0
2024-12-11 19:37:54.860,-1.08694,3.52642,9.94038,-0.058565,0.115374,-0.135074,0
2024-12-11 19:37:54.863,-1.10848,3.52403,9.89253,-0.0646735,0.122704,-0.119802,0
2024-12-11 19:37:54.866,-1.15394,3.5336,9.85903,-0.0787229,0.130034,-0.0880384,0
2024-12-11 19:37:54.867,-1.1994,3.55514,9.83271,-0.0787229,0.130034,-0.0880384,0
2024-12-11 19:37:54.870,-1.22333,3.56471,9.81566,-0.0891073,0.128202,-0.0684913,0
2024-12-11 19:37:54.873,-1.22812,3.56949,9.81087,-0.1056,0.123315,-0.0324513,0
2024-12-11 19:37:54.875,-1.21854,3.57428,9.79891,-0.1056,0.123315,-0.0324513,0
2024-12-11 19:37:54.877,-1.19701,3.58385,9.78694,-0.119039,0.117206,-0.0129041,0
2024-12-11 19:37:54.879,-1.1659,3.60539,9.79652,-0.133088,0.109876,0.00419957,0
2024-12-11 19:37:54.881,-1.11805,3.61735,9.81566,-0.145305,0.101935,0.0213033,0
2024-12-11 19:37:54.884,-1.0654,3.61496,9.82792,-0.157522,0.094605,0.0365745,0
2024-12-11 19:37:54.887,-1.01276,3.61974,9.84228,-0.169128,0.0829989,0.0494023,0
2024-12-11 19:37:54.891,-0.869193,3.62931,9.88774,-0.197838,0.0518457,0.0738362,0
2024-12-11 19:37:54.893,-0.80668,3.64876,9.90688,-0.210666,0.0353528,0.0829989,0
2024-12-11 19:37:54.895,-0.725324,3.64606,9.94038,-0.210666,0.0353528,0.0829989,0
2024-12-11 19:37:54.898,-0.667897,3.63889,9.98824,-0.243041,-0.00435229,0.0976592,0
2024-12-11 19:37:54.898,-0.667897,3.63889,9.98824,-0.243041,-0.00435229,0.0976592,0
2024-12-11 19:37:54.900,-0.632004,3.65593,10.0265,-0.243041,-0.00435229,0.0976592,0
2024-12-11 19:37:54.903,-0.593719,3.699,10.0816,-0.275416,-0.0544418,0.108044,0
2024-12-11 19:37:54.906,-0.576969,3.73729,10.1653,-0.305347,-0.10392,0.115374,0
2024-12-11 19:37:54.908,-0.541077,3.7684,10.2538,-0.305347,-0.10392,0.115374,0
2024-12-11 19:37:54.911,-0.493221,3.78754,10.3543,-0.337111,-0.150345,0.125758,0
2024-12-11 19:37:54.912,-0.445364,3.79472,10.4527,-0.337111,-0.150345,0.125758,0
2024-12-11 19:37:54.915,-0.402293,3.79232,10.5485,-0.352993,-0.171724,0.130645,0
2024-12-11 19:37:54.917,-0.378365,3.80668,10.6609,-0.364599,-0.186996,0.136753,0
2024-12-11 19:37:54.919,-0.359223,3.81865,10.7925,-0.375595,-0.203488,0.141029,0
2024-12-11 19:37:54.922,-0.349651,3.82104,10.9337,-0.387201,-0.219371,0.14836,0
2024-12-11 19:37:54.925,-0.347258,3.82822,11.0824,-0.401861,-0.256021,0.164852,0
2024-12-11 19:37:54.926,-0.320937,3.81625,11.2331,-0.401861,-0.256021,0.164852,0
2024-12-11 19:37:54.928,-0.287438,3.80668,11.3647,-0.409191,-0.271903,0.175237,0
2024-12-11 19:37:54.932,-0.248854,3.79711,11.482,-0.417132,-0.296337,0.196006,0
2024-12-11 19:37:54.934,-0.205783,3.78036,11.6163,-0.417132,-0.296337,0.196006,0
2024-12-11 19:37:54.936,-0.16989,3.76122,11.7431,-0.416521,-0.303667,0.208223,0
2024-12-11 19:37:54.940,-0.11007,3.76122,12.0518,-0.418965,-0.317717,0.232656,0
2024-12-11 19:37:54.941,-0.138784,3.76122,12.0518,-0.417132,-0.32016,0.245484,0
2024-12-11 19:37:54.943,-0.0693919,3.75165,12.198,-0.417132,-0.32016,0.245484,0
2024-12-11 19:37:54.947,0.0382852,3.7325,12.4493,-0.411635,-0.321382,0.279081,0
2024-12-11 19:37:54.947,-0.0167498,3.73011,12.3129,-0.411635,-0.321382,0.279081,0
2024-12-11 19:37:54.952,0.081356,3.74208,12.7678,-0.395753,-0.306722,0.310845,0
2024-12-11 19:37:54.952,0.102891,3.74208,12.7678,-0.395753,-0.306722,0.310845,0
2024-12-11 19:37:54.954,0.138784,3.75165,12.909,-0.385979,-0.295116,0.327949,0
2024-12-11 19:37:54.958,0.193819,3.76361,13.0573,-0.356658,-0.261519,0.368265,0
2024-12-11 19:37:54.961,0.244068,3.77557,13.2156,-0.339555,-0.235863,0.389033,0
2024-12-11 19:37:54.961,0.285045,3.78515,13.3448,-0.339555,-0.235863,0.389033,0
2024-12-11 19:37:54.965,0.320937,3.8019,13.4596,-0.315732,-0.200434,0.412246,0
2024-12-11 19:37:54.966,0.371187,3.82343,13.5793,-0.289465,-0.157064,0.434847,0
2024-12-11 19:37:54.969,0.383151,3.85215,13.6702,-0.26381,-0.102699,0.458059,0
2024-12-11 19:37:54.971,0.385544,3.93111,13.7276,-0.233267,-0.0342838,0.48005,0
2024-12-11 19:37:54.976,0.409472,4.04118,13.7085,-0.199671,0.0500131,0.504483,0
2024-12-11 19:37:54.978,0.481256,4.21376,13.6199,-0.124536,0.228381,0.544189,0
2024-12-11 19:37:54.978,0.481256,4.21376,13.6199,-0.124536,0.228381,0.544189,0
2024-12-11 19:37:54.981,0.512363,4.28315,13.4883,-0.0591758,0.380481,0.569233,0
2024-12-11 19:37:54.984,0.562612,4.30708,13.3065,-0.0316877,0.42996,0.572898,0
2024-12-11 19:37:54.986,0.622433,4.27837,13.086,-0.0127514,0.459281,0.569233,0
2024-12-11 19:37:54.988,0.672682,4.22812,12.842,-0.0127514,0.459281,0.569233,0
2024-12-11 19:37:54.990,0.684646,4.19193,12.5521,0.000687203,0.470887,0.558849,0
2024-12-11 19:37:54.992,0.672682,4.1345,12.2411,0.00313059,0.467833,0.542967,0
2024-12-11 19:37:54.994,0.639183,4.04118,11.9632,-0.00175619,0.449507,0.522809,0
2024-12-11 19:37:54.997,0.588933,3.96222,11.7359,-0.0133623,0.412856,0.496542,0
2024-12-11 19:37:54.999,0.56022,3.89043,11.5493,-0.0329094,0.363989,0.467222,0
2024-12-11 19:37:55.002,0.553041,3.79472,11.4174,-0.0555107,0.304126,0.433625,0
2024-12-11 19:37:55.004,0.553041,3.69661,11.348,-0.0854423,0.238765,0.398807,0
2024-12-11 19:37:55.006,0.557827,3.59581,11.3527,-0.120871,0.156301,0.359102,0
2024-12-11 19:37:55.010,0.565005,3.49292,11.4197,-0.15569,0.0628409,0.313899,0
2024-12-11 19:37:55.012,0.586541,3.41396,11.5182,-0.192341,-0.0403923,0.265642,0
2024-12-11 19:37:55.013,0.627219,3.335,11.6689,-0.230824,-0.147291,0.211277,0
2024-12-11 19:37:55.017,0.667897,3.27757,11.8508,-0.295574,-0.354368,0.0976592,0
2024-12-11 19:37:55.019,0.670289,3.24646,12.0278,-0.295574,-0.354368,0.0976592,0
2024-12-11 19:37:55.021,0.651147,3.19143,12.2507,-0.32184,-0.444773,0.0371853,0
2024-12-11 19:37:55.023,0.608076,3.10289,12.545,-0.345663,-0.529681,-0.021456,0
2024-12-11 19:37:55.026,0.555434,2.98295,12.8827,-0.364599,-0.670176,-0.131409,0
2024-12-11 19:37:55.028,0.536291,2.83699,13.2371,-0.364599,-0.670176,-0.131409,0
2024-12-11 19:37:55.032,0.574577,2.41316,13.8858,-0.368265,-0.729428,-0.181498,0
2024-12-11 19:37:55.034,0.62004,2.16909,14.2089,-0.352383,-0.813114,-0.26946,0
2024-12-11 19:37:55.034,0.62004,2.16909,14.2089,-0.352383,-0.813114,-0.26946,0
2024-12-11 19:37:55.037,0.665504,1.91276,14.5274,-0.33589,-0.841824,-0.308554,0
2024-12-11 19:37:55.042,0.715753,1.38126,15.0589,-0.27847,-0.873588,-0.383688,0
2024-12-11 19:37:55.043,0.715753,1.38126,15.0589,-0.243041,-0.869312,-0.413009,0
2024-12-11 19:37:55.044,0.706182,1.12044,15.303,-0.243041,-0.869312,-0.413009,0
2024-12-11 19:37:55.046,0.682254,0.888335,15.5234,-0.201503,-0.851597,-0.441719,0
2024-12-11 19:37:55.049,0.615255,0.703789,15.6814,-0.150192,-0.822888,-0.46432,0
2024-12-11 19:37:55.051,0.476471,0.550648,15.7938,-0.0952158,-0.786848,-0.478981,0
2024-12-11 19:37:55.056,0.263211,0.407079,15.7244,-0.0359636,-0.736147,-0.488754,1
2024-12-11 19:37:55.058,-0.675075,0.598505,15.4059,0.0904818,-0.562667,-0.460044,0
2024-12-11 19:37:55.059,-0.675075,0.598505,15.4059,0.150345,-0.467985,-0.430724,0
2024-12-11 19:37:55.061,-0.457328,0.282652,15.5402,0.150345,-0.467985,-0.430724,0
2024-12-11 19:37:55.063,-0.244068,0.0215354,15.7579,0.213873,-0.414231,-0.406901,0
2024-12-11 19:37:55.065,-0.411865,-0.124427,15.4373,0.276179,-0.349481,-0.381245,0
2024-12-11 19:37:55.067,-0.442971,-0.347258,15.1188,0.334821,-0.252356,-0.34887,0
2024-12-11 19:37:55.070,-0.248854,-0.667897,15.1068,0.39896,-0.158897,-0.322604,0
2024-12-11 19:37:55.072,-0.181855,-0.893121,15.0398,0.461877,-0.0745997,-0.297559,0
2024-12-11 19:37:55.074,-0.227318,-1.01994,14.8217,0.528459,0.0243575,-0.270682,0
2024-12-11 19:37:55.077,-0.292223,-1.08455,14.5609,0.595652,0.138586,-0.242583,0
2024-12-11 19:37:55.079,-0.421436,-1.0989,14.2615,0.662846,0.257701,-0.210819,0
2024-12-11 19:37:55.082,-0.60329,-1.0678,13.9528,0.729428,0.378038,-0.173557,0
2024-12-11 19:37:55.084,-0.789931,-1.01276,13.6582,0.78868,0.494099,-0.134463,0
2024-12-11 19:37:55.086,-0.979263,-0.952942,13.3089,0.843046,0.600997,-0.0886492,0
2024-12-11 19:37:55.089,-1.15872,-0.897907,12.9042,0.894357,0.698733,-0.0403923,0
2024-12-11 19:37:55.091,-1.29751,-0.845265,12.478,0.94017,0.784862,0.00664296,0
2024-12-11 19:37:55.093,-1.39083,-0.818644,12.0374,0.98354,0.86496,0.0548999,0
2024-12-11 19:37:55.097,-1.44855,-0.813859,11.5923,1.04524,0.991405,0.142862,0
2024-12-11 19:37:55.099,-1.48684,-0.801895,11.1254,1.04524,0.991405,0.142862,0
2024-12-11 19:37:55.100,-1.51795,-0.80668,10.649,1.06539,1.04027,0.178291,0
2024-12-11 19:37:55.103,-1.5323,-0.813859,10.1868,1.07578,1.08364,0.21372,0
2024-12-11 19:37:55.106,-1.60887,-0.775574,9.74866,1.08311,1.15267,0.27114,0
2024-12-11 19:37:55.110,-1.64955,-0.718146,8.9348,1.07822,1.18016,0.299239,0
2024-12-11 19:37:55.111,-1.67109,-0.732503,9.34666,1.07822,1.18016,0.299239,0
2024-12-11 19:37:55.112,-1.63041,-0.694218,8.50379,1.06845,1.20276,0.32184,0
2024-12-11 19:37:55.117,-1.68066,-0.646361,7.78325,1.0263,1.23025,0.359713,0
2024-12-11 19:37:55.117,-1.68066,-0.646361,7.78325,1.0263,1.23025,0.359713,0
2024-12-11 19:37:55.123,-1.76201,-0.550648,7.13689,0.92551,1.22108,0.401861,0
2024-12-11 19:37:55.124,-1.79551,-0.483649,6.84706,0.92551,1.22108,0.401861,0
2024-12-11 19:37:55.126,-1.82184,-0.431007,6.59821,0.885805,1.20948,0.414078,0
2024-12-11 19:37:55.126,-1.82184,-0.431007,6.59821,0.885805,1.20948,0.414078,0
2024-12-11 19:37:55.129,-1.85773,-0.373579,6.35384,0.843046,1.19421,0.420797,0
2024-12-11 19:37:55.131,-1.9008,-0.301795,6.13849,0.798454,1.17955,0.426906,0
2024-12-11 19:37:55.134,-1.95344,-0.224925,5.98056,0.746532,1.1545,0.434847,0
2024-12-11 19:37:55.137,-1.99442,-0.143569,5.84387,0.698886,1.12579,0.439123,0
2024-12-11 19:37:55.138,-2.02792,-0.0765703,5.73859,0.647574,1.08975,0.442788,0
2024-12-11 19:37:55.140,-2.08295,-0.0119641,5.65005,0.598096,1.04882,0.445842,0
2024-12-11 19:37:55.145,-2.14038,0.107677,5.52323,0.551061,1.00301,0.450118,0
2024-12-11 19:37:55.148,-2.18824,0.133998,5.48255,0.453936,0.901611,0.452561,0
2024-12-11 19:37:55.148,-2.22413,0.133998,5.48255,0.453936,0.901611,0.452561,0
2024-12-11 19:37:55.151,-2.25284,0.157926,5.4682,0.406901,0.842358,0.453172,0
2024-12-11 19:37:55.155,-2.25284,0.196211,5.47538,0.319549,0.712782,0.45134,0
2024-12-11 19:37:55.157,-2.23131,0.215354,5.52802,0.278012,0.641313,0.447064,0
2024-12-11 19:37:55.159,-2.23131,0.222533,5.58066,0.237696,0.567401,0.442177,0
2024-12-11 19:37:55.160,-2.20738,0.222533,5.58066,0.197991,0.486769,0.43729,0
2024-12-11 19:37:55.163,-2.17388,0.234497,5.6692,0.165005,0.404915,0.431182,0
2024-12-11 19:37:55.164,-2.10927,0.246461,5.78405,0.165005,0.404915,0.431182,0
2024-12-11 19:37:55.166,-2.0327,0.270389,5.91356,0.133852,0.320008,0.423241,0
2024-12-11 19:37:55.170,-1.96062,0.304188,6.07627,0.100255,0.236932,0.414078,0
2024-12-11 19:37:55.172,-1.89362,0.325723,6.2342,0.0538309,0.074447,0.388422,0
2024-12-11 19:37:55.173,-1.82423,0.344866,6.39452,0.0538309,0.074447,0.388422,0
2024-12-11 19:37:55.176,-1.74287,0.373579,6.56949,0.0355055,-0.00313059,0.375595,0
2024-12-11 19:37:55.178,-1.67109,0.385544,6.73699,0.0202343,-0.0721563,0.363989,0
2024-12-11 19:37:55.180,-1.60887,0.402293,6.92602,0.00923906,-0.140571,0.351772,0
2024-12-11 19:37:55.183,-1.54905,0.419043,7.11057,-0.00114534,-0.205321,0.339555,0
2024-12-11 19:37:55.185,-1.49163,0.423829,7.27807,-0.00786466,-0.262741,0.326727,0
2024-12-11 19:37:55.188,-1.43898,0.435793,7.45275,-0.0158057,-0.317106,0.316343,0
2024-12-11 19:37:55.191,-1.38365,0.4334,7.61576,-0.0164165,-0.368417,0.30718,0
2024-12-11 19:37:55.192,-1.31904,0.431007,7.7665,-0.0158057,-0.41362,0.296795,0
2024-12-11 19:37:55.196,-1.27119,0.428614,7.91486,-0.0188599,-0.452103,0.286411,0
2024-12-11 19:37:55.197,-1.23529,0.426222,8.05604,-0.0151948,-0.487532,0.279081,0
2024-12-11 19:37:55.204,-0.986441,0.423829,8.4679,-0.00542127,-0.55778,0.261366,0
2024-12-11 19:37:55.205,-0.986441,0.423829,8.4679,-0.00542127,-0.55778,0.261366,0
2024-12-11 19:37:55.205,-0.986441,0.423829,8.4679,-0.00542127,-0.55778,0.261366,0
2024-12-11 19:37:55.206,-0.634397,0.464507,8.65215,0.000687203,-0.541898,0.255258,0
2024-12-11 19:37:55.209,-0.177069,0.63679,8.7673,0.00129805,-0.52174,0.245484,0
2024-12-11 19:37:55.211,0.270389,0.912264,8.7673,0.00984991,-0.518075,0.226548,0
2024-12-11 19:37:55.213,0.521934,1.13719,8.71945,0.00740652,-0.533346,0.200892,0
2024-12-11 19:37:55.216,0.562612,1.24487,8.7003,0.0019089,-0.538844,0.174626,0
2024-12-11 19:37:55.218,0.605683,1.29751,8.72423,-0.00114534,-0.527238,0.146527,0
2024-12-11 19:37:55.221,0.797109,1.35733,8.7697,-0.00297788,-0.506469,0.11965,0
2024-12-11 19:37:55.223,1.01994,1.44616,8.81755,-0.0121406,-0.482035,0.0939941,0
2024-12-11 19:37:55.225,1.15633,1.54188,8.85584,-0.0182491,-0.452714,0.0628409,0
2024-12-11 19:37:55.228,1.17308,1.58495,8.88694,-0.0298552,-0.425837,0.0316877,0
2024-12-11 19:37:55.230,1.16112,1.63998,8.9013,-0.0377962,-0.402014,0.00542127,0
2024-12-11 19:37:55.232,1.09173,1.68784,8.91087,-0.0536782,-0.378191,-0.0208452,0
2024-12-11 19:37:55.235,0.998405,1.72612,8.91566,-0.0707819,-0.356811,-0.0403923,0
2024-12-11 19:37:55.237,1.00558,1.80509,8.90848,-0.0842206,-0.332377,-0.0611611,0
2024-12-11 19:37:55.239,0.895514,1.81226,8.92044,-0.0988809,-0.310387,-0.0807082,0
2024-12-11 19:37:55.242,0.720539,1.79073,8.9683,-0.116595,-0.286564,-0.0892601,0
2024-12-11 19:37:55.244,0.749253,1.84816,8.97069,-0.130034,-0.258465,-0.0984228,0
2024-12-11 19:37:55.246,0.845265,1.93908,8.93001,-0.141029,-0.238307,-0.109418,0
2024-12-11 19:37:55.251,0.670289,1.9657,8.93241,-0.164242,-0.199213,-0.124078,0
2024-12-11 19:37:55.254,0.670289,1.9657,8.9348,-0.171572,-0.174168,-0.128354,0
2024-12-11 19:37:55.254,0.519542,1.90558,8.9348,-0.171572,-0.174168,-0.128354,0
2024-12-11 19:37:55.256,0.364008,1.80509,8.96112,-0.181345,-0.14668,-0.1253,0
2024-12-11 19:37:55.258,0.210568,1.71177,8.98505,-0.18501,-0.121024,-0.116137,0
2024-12-11 19:37:55.261,0.081356,1.6352,8.99462,-0.182567,-0.093536,-0.108807,0
2024-12-11 19:37:55.264,-0.0287139,1.5682,8.99462,-0.18501,-0.0428357,-0.0770431,0
2024-12-11 19:37:55.268,-0.227318,1.45334,8.96351,-0.181956,-0.0190126,-0.0568851,0
2024-12-11 19:37:55.268,-0.227318,1.45334,8.96351,-0.181956,-0.0190126,-0.0568851,0
2024-12-11 19:37:55.270,-0.308973,1.42941,8.95873,-0.178902,0.00358873,-0.0342838,0
2024-12-11 19:37:55.275,-0.383151,1.39561,8.91087,-0.167296,0.0536782,0.0206925,0
2024-12-11 19:37:55.277,-0.41665,1.42702,8.86302,-0.159966,0.0775012,0.050624,0
2024-12-11 19:37:55.277,-0.41665,1.42702,8.86302,-0.159966,0.0775012,0.050624,0
2024-12-11 19:37:55.282,-0.414257,1.46291,8.79123,-0.14836,0.101324,0.0805555,0
2024-12-11 19:37:55.284,-0.402293,1.48684,8.76012,-0.127591,0.140419,0.142251,0
2024-12-11 19:37:55.285,-0.402293,1.48684,8.76012,-0.111098,0.15569,0.169739,0
2024-12-11 19:37:55.286,-0.373579,1.52513,8.71945,-0.111098,0.15569,0.169739,0
2024-12-11 19:37:55.292,-0.328116,1.57059,8.65933,-0.0964375,0.167907,0.196616,0
2024-12-11 19:37:55.294,-0.224925,1.62802,8.55165,-0.0658951,0.188065,0.244263,0
2024-12-11 19:37:55.297,-0.224925,1.67587,8.51815,-0.0310769,0.190508,0.282746,0
2024-12-11 19:37:55.297,-0.174676,1.67587,8.51815,-0.0310769,0.190508,0.282746,0
2024-12-11 19:37:55.299,-0.0981057,1.71416,8.44397,-0.0109189,0.191119,0.297406,0
2024-12-11 19:37:55.302,-0.026321,1.73569,8.36262,-0.0109189,0.191119,0.297406,0
2024-12-11 19:37:55.303,0.0382852,1.76919,8.3028,0.00374144,0.185621,0.309623,0
2024-12-11 19:37:55.306,0.0741775,1.80987,8.23819,0.0184018,0.177069,0.316953,0
2024-12-11 19:37:55.308,0.0861416,1.83141,8.1664,0.0379489,0.164852,0.320008,0
2024-12-11 19:37:55.310,0.0741775,1.85055,8.08236,0.0544418,0.149581,0.322451,0
2024-12-11 19:37:55.315,0.00717847,1.92233,7.99143,0.0819299,0.122093,0.325505,0
2024-12-11 19:37:55.315,0.00717847,1.92233,7.99143,0.0819299,0.122093,0.325505,0
2024-12-11 19:37:55.318,-0.0167498,1.9681,7.94836,0.111251,0.0915507,0.324894,0
2024-12-11 19:37:55.320,-0.040678,2.02074,7.91007,0.111251,0.0915507,0.324894,0
2024-12-11 19:37:55.325,-0.105284,2.07338,7.84547,0.135684,0.0603975,0.322451,0
2024-12-11 19:37:55.327,-0.112463,2.10449,7.79522,0.147901,0.0487914,0.323673,0
2024-12-11 19:37:55.327,-0.112463,2.10449,7.79522,0.147901,0.0487914,0.323673,0
2024-12-11 19:37:55.329,-0.131605,2.10927,7.74736,0.155232,0.0359636,0.321229,0
2024-12-11 19:37:55.331,-0.162712,2.11167,7.68754,0.165616,0.0292443,0.317564,0
2024-12-11 19:37:55.335,-0.191426,2.10927,7.62772,0.176,0.0219141,0.316343,0
2024-12-11 19:37:55.336,-0.210568,2.11167,7.57986,0.181498,0.0158057,0.312067,0
2024-12-11 19:37:55.338,-0.232104,2.11645,7.51257,0.188217,0.0139731,0.308401,0
2024-12-11 19:37:55.343,-0.282652,2.15713,7.3666,0.19005,0.0109189,0.302293,0
2024-12-11 19:37:55.343,-0.282652,2.15713,7.3666,0.19005,0.0109189,0.302293,0
2024-12-11 19:37:55.345,-0.30658,2.16909,7.30439,0.19005,0.00847551,0.293741,0
2024-12-11 19:37:55.348,-0.32333,2.2002,7.23261,0.185163,0.0096972,0.289465,0
2024-12-11 19:37:55.350,-0.335294,2.22652,7.15843,0.186385,0.0115297,0.284578,0
2024-12-11 19:37:55.352,-0.354437,2.23849,7.09861,0.176611,0.0121406,0.281524,0
2024-12-11 19:37:55.355,-0.380758,2.27677,7.02443,0.163173,0.0151948,0.279692,0
2024-12-11 19:37:55.358,-0.407079,2.30788,6.94517,0.157064,0.0151948,0.276637,0
2024-12-11 19:37:55.359,-0.426222,2.33181,6.89253,0.157064,0.0151948,0.276637,0
2024-12-11 19:37:55.364,-0.483649,2.40359,6.81835,0.106364,0.0127514,0.269307,0
2024-12-11 19:37:55.365,-0.454935,2.40359,6.81835,0.0837624,0.0127514,0.268086,0
2024-12-11 19:37:55.368,-0.488435,2.44427,6.8016,0.0623828,0.0109189,0.266253,0
2024-12-11 19:37:55.369,-0.498006,2.48255,6.79442,0.0623828,0.0109189,0.266253,0
2024-12-11 19:37:55.371,-0.500399,2.51605,6.80878,0.041614,0.00908635,0.266864,0
2024-12-11 19:37:55.374,-0.50997,2.55942,6.84228,0.0202343,0.00847551,0.265031,0
2024-12-11 19:37:55.376,-0.514756,2.60728,6.89253,-0.00542127,0.00481042,0.26381,0
2024-12-11 19:37:55.379,-0.505185,2.65992,6.9691,-0.0255792,0.000534491,0.263199,0
2024-12-11 19:37:55.382,-0.493221,2.70778,7.04597,-0.0677277,-0.0147367,0.260145,0
2024-12-11 19:37:55.384,-0.478864,2.77478,7.12493,-0.0884965,-0.0177909,0.257701,0
2024-12-11 19:37:55.385,-0.4669,2.83699,7.22543,-0.0884965,-0.0177909,0.257701,0
2024-12-11 19:37:55.388,-0.440578,2.88485,7.34507,-0.0884965,-0.0177909,0.257701,0
2024-12-11 19:37:55.390,-0.397508,2.94227,7.4671,-0.119039,-0.0238994,0.250371,0
2024-12-11 19:37:55.392,-0.344866,2.99013,7.6014,-0.131867,-0.0238994,0.246706,0
2024-12-11 19:37:55.395,-0.316152,3.03799,7.74258,-0.135532,-0.0202343,0.243652,0
2024-12-11 19:37:55.397,-0.32333,3.0667,7.87897,-0.143473,-0.0184018,0.236932,0
2024-12-11 19:37:55.402,-0.873978,2.84178,8.10868,-0.151414,-0.0147367,0.234489,0
2024-12-11 19:37:55.403,-0.873978,2.84178,8.10868,-0.151414,-0.0147367,0.234489,0
2024-12-11 19:37:55.404,-1.17069,2.69581,8.18555,-0.151414,-0.0153475,0.246706,0
2024-12-11 19:37:55.407,-1.20658,2.66231,8.25972,-0.150803,-0.0177909,0.260755,0
2024-12-11 19:37:55.410,-1.18983,2.67189,8.34347,-0.14897,-0.0440574,0.280303,0
2024-12-11 19:37:55.411,-1.18265,2.7006,8.42004,-0.142862,-0.0440574,0.280303,0
2024-12-11 19:37:55.414,-1.20419,2.72692,8.48226,-0.142862,-0.0440574,0.280303,0
2024-12-11 19:37:55.416,-1.2329,2.75563,8.54208,-0.131867,-0.0794865,0.299239,0
2024-12-11 19:37:55.419,-1.24487,2.78674,8.60668,-0.120871,-0.102088,0.306569,0
2024-12-11 19:37:55.422,-1.2329,2.8346,8.70509,-0.111709,-0.125911,0.312677,0
2024-12-11 19:37:55.423,-1.18744,2.87767,8.81277,-0.0976592,-0.151566,0.317564,0
2024-12-11 19:37:55.425,-1.1348,2.91595,8.89651,-0.0836097,-0.177833,0.320008,0
2024-12-11 19:37:55.428,-1.08215,2.95424,8.98744,-0.0683385,-0.200434,0.319397,0
2024-12-11 19:37:55.431,-1.00798,2.97577,9.08794,-0.030466,-0.248691,0.31451,0
2024-12-11 19:37:55.434,-0.940978,3.00688,9.18605,-0.014584,-0.267627,0.309623,0
2024-12-11 19:37:55.438,-0.878764,3.09332,9.37299,-0.014584,-0.267627,0.309623,0
2024-12-11 19:37:55.440,-0.766002,3.12682,9.44716,0.0202343,-0.299392,0.294963,0
2024-12-11 19:37:55.440,-0.766002,3.12682,9.44716,0.0202343,-0.299392,0.294963,0
2024-12-11 19:37:55.443,-0.691825,3.1675,9.51177,0.0519984,-0.321382,0.276637,0
2024-12-11 19:37:55.445,-0.646361,3.21057,9.5692,0.0519984,-0.321382,0.276637,0
2024-12-11 19:37:55.447,-0.612862,3.26082,9.62902,0.065437,-0.331766,0.269307,0
2024-12-11 19:37:55.451,-0.529113,3.402,9.74148,0.077654,-0.351314,0.252204,0
2024-12-11 19:37:55.454,-0.478864,3.45224,9.78455,0.0953685,-0.359255,0.245484,0
2024-12-11 19:37:55.454,-0.478864,3.45224,9.78455,0.0953685,-0.359255,0.245484,0
2024-12-11 19:37:55.457,-0.41665,3.50728,9.8351,0.105142,-0.376358,0.232046,0
2024-12-11 19:37:55.459,-0.313759,3.5671,9.89253,0.105142,-0.376358,0.232046,0
2024-12-11 19:37:55.462,-0.196211,3.64606,9.94756,0.106975,-0.37758,0.212498,0
2024-12-11 19:37:55.464,-0.0741775,3.7349,10.0193,0.106975,-0.373915,0.202725,0
2024-12-11 19:37:55.465,0.100499,3.82104,10.1222,0.106975,-0.373915,0.202725,0
2024-12-11 19:37:55.468,0.287438,3.9335,10.2132,0.106975,-0.365974,0.190508,0
2024-12-11 19:37:55.470,0.438186,4.04596,10.261,0.0978119,-0.358033,0.171572,0
2024-12-11 19:37:55.473,0.56022,4.08425,10.2682,0.0868167,-0.351314,0.153246,0
2024-12-11 19:37:55.475,0.71336,4.07946,10.2323,0.077654,-0.328712,0.131867,0
2024-12-11 19:37:55.477,0.9003,4.08903,10.1533,0.057496,-0.301224,0.106822,0
2024-12-11 19:37:55.481,1.09173,4.11057,10.0768,0.000687203,-0.217538,0.0420721,0
2024-12-11 19:37:55.482,1.29751,4.12971,10.0385,0.000687203,-0.217538,0.0420721,0
2024-12-11 19:37:55.484,1.47248,4.168,10.0361,-0.042683,-0.16867,0.00481042,0
2024-12-11 19:37:55.487,1.5993,4.2329,10.1031,-0.0915507,-0.121024,-0.0348946,0
2024-12-11 19:37:55.489,1.64477,4.29033,10.2227,-0.144084,-0.0745997,-0.0727672,0
2024-12-11 19:37:55.491,1.63041,4.29272,10.4767,-0.205168,-0.037338,-0.108807,0
2024-12-11 19:37:55.494,1.60409,4.29512,10.8739,-0.266253,-0.00984991,-0.13996,0
2024-12-11 19:37:55.496,1.51077,4.38844,11.135,-0.318175,0.0164165,-0.163783,0
2024-12-11 19:37:55.499,1.32622,4.56072,11.214,-0.368265,0.0414613,-0.180276,0
2024-12-11 19:37:55.502,1.17547,4.74736,11.3192,-0.439734,0.0854423,-0.221203,0
2024-12-11 19:37:55.503,1.15394,4.8673,11.4915,-0.439734,0.0854423,-0.221203,0
2024-12-11 19:37:55.506,1.1659,4.84098,11.6856,-0.459281,0.0927724,-0.244415,0
2024-12-11 19:37:55.509,1.12762,4.68036,11.8819,-0.494099,0.108044,-0.285342,0
2024-12-11 19:37:55.511,1.03908,4.46979,12.0736,-0.494099,0.108044,-0.285342,0
2024-12-11 19:37:55.513,0.888335,4.22572,12.2698,-0.498986,0.122093,-0.3055,0
2024-12-11 19:37:55.515,0.701396,3.97897,12.4852,-0.507538,0.127591,-0.319549,0
2024-12-11 19:37:55.517,0.529113,3.81147,12.7176,-0.515479,0.131256,-0.32688,0
2024-12-11 19:37:55.520,0.366401,3.72054,12.9162,-0.514868,0.128812,-0.329934,0
2024-12-11 19:37:55.524,0.0598206,3.61974,13.2491,-0.501429,0.120261,-0.318939,0
2024-12-11 19:37:55.528,-0.0478565,3.56949,13.4237,-0.48005,0.114152,-0.282288,0
2024-12-11 19:37:55.529,-0.131605,3.51446,13.6176,-0.48005,0.114152,-0.282288,0
2024-12-11 19:37:55.531,-0.131605,3.51446,13.6176,-0.48005,0.114152,-0.282288,0
2024-12-11 19:37:55.534,-0.200997,3.44028,13.9576,-0.442788,0.108654,-0.234642,0
2024-12-11 19:37:55.534,-0.200997,3.44028,13.9576,-0.442788,0.108654,-0.234642,0
2024-12-11 19:37:55.537,-0.22014,3.42592,14.1132,-0.397585,0.103768,-0.185163,0
2024-12-11 19:37:55.539,-0.215354,3.45942,14.2352,-0.397585,0.103768,-0.185163,0
2024-12-11 19:37:55.542,-0.114855,3.53121,14.3097,-0.331614,0.0775012,-0.13996,0
2024-12-11 19:37:55.544,0.0574277,3.67029,14.3432,-0.295574,0.0518457,-0.119802,0
2024-12-11 19:37:55.546,0.16989,3.8354,14.3527,-0.295574,0.0518457,-0.119802,0
2024-12-11 19:37:55.549,0.196211,3.93829,14.3504,-0.221661,0.0396287,-0.0972011,0
2024-12-11 19:37:55.551,0.22014,3.96222,14.3216,-0.190508,0.0396287,-0.0978119,0
2024-12-11 19:37:55.553,0.263211,3.91436,14.2472,-0.190508,0.0396287,-0.0978119,0
2024-12-11 19:37:55.555,0.354437,3.82343,14.094,-0.16302,0.0298552,-0.106364,0
2024-12-11 19:37:55.558,0.514756,3.72293,13.8428,-0.142251,0.00847551,-0.122246,0
2024-12-11 19:37:55.560,0.766002,3.62692,13.5841,-0.137364,-0.021456,-0.146069,0
2024-12-11 19:37:55.563,1.10608,3.54796,13.3639,-0.142862,-0.116748,-0.216927,0
2024-12-11 19:37:55.565,1.42941,3.50489,13.1626,-0.142862,-0.116748,-0.216927,0
2024-12-11 19:37:55.567,1.65673,3.47857,12.9592,-0.16302,-0.185774,-0.267017,0
2024-12-11 19:37:55.569,1.77876,3.44028,12.7439,-0.186232,-0.263962,-0.317106,0
2024-12-11 19:37:55.572,1.78834,3.38285,12.6072,-0.217996,-0.354368,-0.365363,0
2024-12-11 19:37:55.574,1.69262,3.31585,12.5187,-0.252814,-0.448438,-0.411787,0
2024-12-11 19:37:55.577,1.54666,3.24407,12.4493,-0.294352,-0.544341,-0.450271,0
2024-12-11 19:37:55.581,1.34776,3.14118,12.4445,-0.330392,-0.62986,-0.480202,0
2024-12-11 19:37:55.581,1.07976,3.01406,12.5019,-0.330392,-0.62986,-0.480202,0
2024-12-11 19:37:55.583,0.830609,2.85853,12.6239,-0.404915,-0.756916,-0.521129,0
2024-12-11 19:37:55.586,0.651147,2.65035,12.8037,-0.437901,-0.795399,-0.532124,0
2024-12-11 19:37:55.589,0.533899,2.40838,13.0047,-0.471498,-0.812503,-0.537622,0
2024-12-11 19:37:55.591,0.476471,2.17149,13.2227,-0.500818,-0.812503,-0.540676,0
2024-12-11 19:37:55.593,0.354437,1.96301,13.4572,-0.535026,-0.795399,-0.54312,0
2024-12-11 19:37:55.597,0.0646062,1.5682,13.9935,-0.58878,-0.690945,-0.539454,0
2024-12-11 19:37:55.598,0.0646062,1.5682,13.9935,-0.58878,-0.690945,-0.539454,0
2024-12-11 19:37:55.601,0.00957129,1.4004,14.2902,-0.610771,-0.611534,-0.535789,0
2024-12-11 19:37:55.602,-0.040678,1.24247,14.5705,-0.63154,-0.521129,-0.530903,0
2024-12-11 19:37:55.605,-0.100499,1.12522,14.8146,-0.645589,-0.419728,-0.523572,0
2024-12-11 19:37:55.607,-0.172283,1.02233,15.035,-0.66025,-0.31283,-0.515021,0
2024-12-11 19:37:55.609,-0.256032,0.924228,15.2169,-0.663304,-0.199823,-0.504636,0
2024-12-11 19:37:55.612,-0.308973,0.84018,15.358,-0.665747,-0.0819299,-0.489976,0
2024-12-11 19:37:55.614,-0.275175,0.811466,15.4588,-0.663304,0.0390179,-0.479591,0
2024-12-11 19:37:55.616,-0.22014,0.775574,15.5019,-0.655974,0.152025,-0.469818,0
2024-12-11 19:37:55.619,-0.229711,0.687039,15.5378,-0.648033,0.260755,-0.460655,0
2024-12-11 19:37:55.621,-0.256032,0.612862,15.5378,-0.633372,0.36521,-0.450882,0
2024-12-11 19:37:55.623,-0.294616,0.541077,15.4899,-0.615658,0.462335,-0.439276,1
2024-12-11 19:37:55.627,-0.352044,0.452543,15.4373,-0.56679,0.637648,-0.416674,0
2024-12-11 19:37:55.629,-0.423829,0.344866,15.382,-0.536248,0.715226,-0.397738,0
2024-12-11 19:37:55.630,-0.521934,0.256032,15.303,-0.536248,0.715226,-0.397738,0
2024-12-11 19:37:55.633,-0.634397,0.189033,15.2216,-0.497153,0.785473,-0.383078,0
2024-12-11 19:37:55.636,-0.751645,0.12682,15.1427,-0.406748,0.907108,-0.342151,0
2024-12-11 19:37:55.637,-0.878764,0.0789631,15.0446,-0.406748,0.907108,-0.342151,0
2024-12-11 19:37:55.642,-1.19462,-0.0454636,14.8337,-0.298017,1.0024,-0.292672,0
2024-12-11 19:37:55.643,-1.19462,-0.0454636,14.8337,-0.298017,1.0024,-0.292672,0
2024-12-11 19:37:55.644,-1.34058,-0.102891,14.6854,-0.234489,1.04272,-0.263962,0
2024-12-11 19:37:55.647,-1.48205,-0.131605,14.4963,-0.169128,1.07509,-0.230977,0
2024-12-11 19:37:55.650,-1.5993,-0.124427,14.295,-0.0194708,1.10136,-0.167449,0
2024-12-11 19:37:55.652,-1.64955,-0.081356,14.0462,-0.0194708,1.10136,-0.167449,0
2024-12-11 19:37:55.654,-1.57298,-0.00239282,13.7396,0.0568851,1.09464,-0.135684,0
2024-12-11 19:37:55.657,-1.39801,0.102891,13.395,0.219981,1.04088,-0.0849841,0
2024-12-11 19:37:55.659,-1.18505,0.212961,13.0286,0.219981,1.04088,-0.0849841,0
2024-12-11 19:37:55.662,-0.945763,0.332901,12.6266,0.303667,0.996292,-0.0715455,0
2024-12-11 19:37:55.663,-0.677468,0.45015,12.2195,0.378191,0.943148,-0.0605502,0
2024-12-11 19:37:55.666,-0.366401,0.538684,11.8531,0.452103,0.894891,-0.057496,0
2024-12-11 19:37:55.668,-0.0909273,0.627219,11.4963,0.521129,0.851521,-0.057496,0
2024-12-11 19:37:55.670,0.081356,0.708575,11.0991,0.585879,0.798912,-0.0611611,0
2024-12-11 19:37:55.674,0.234497,0.794716,10.6537,0.647574,0.734773,-0.0697129,0
2024-12-11 19:37:55.675,0.344866,0.897907,10.1821,0.705605,0.652309,-0.0825407,0
2024-12-11 19:37:55.678,0.368794,0.996012,9.70559,0.750808,0.55946,-0.0978119,0
2024-12-11 19:37:55.682,0.354437,1.16351,8.85823,0.827774,0.354215,-0.135074,0
2024-12-11 19:37:55.686,0.385544,1.18983,8.49661,0.882751,0.151414,-0.169281,0
2024-12-11 19:37:55.686,0.385544,1.18983,8.49661,0.882751,0.151414,-0.169281,0
2024-12-11 19:37:55.687,0.375972,1.21615,8.1664,0.882751,0.151414,-0.169281,0
2024-12-11 19:37:55.693,0.282652,1.22094,7.57986,0.921234,-0.155232,-0.213262,0
2024-12-11 19:37:55.694,0.22014,1.23051,7.32114,0.921234,-0.155232,-0.213262,0
2024-12-11 19:37:55.695,0.22014,1.23051,7.32114,0.923677,-0.252967,-0.222425,0
2024-12-11 19:37:55.696,0.165105,1.24008,7.07946,0.923677,-0.252967,-0.222425,0
2024-12-11 19:37:55.700,0.133998,1.27358,6.86381,0.91818,-0.424615,-0.239528,0
2024-12-11 19:37:55.702,0.122034,1.30708,6.69392,0.908406,-0.499749,-0.242583,0
2024-12-11 19:37:55.703,0.133998,1.33579,6.56471,0.908406,-0.499749,-0.242583,0
2024-12-11 19:37:55.706,0.174676,1.37408,6.45464,0.896189,-0.563888,-0.242583,0
2024-12-11 19:37:55.708,0.234497,1.40279,6.35384,0.882751,-0.621308,-0.244415,0
2024-12-11 19:37:55.710,0.316152,1.44377,6.27249,0.863814,-0.669565,-0.245026,0
2024-12-11 19:37:55.713,0.438186,1.48205,6.22463,0.845489,-0.708048,-0.246859,0
2024-12-11 19:37:55.716,0.557827,1.49163,6.19831,0.826553,-0.742867,-0.248691,0
2024-12-11 19:37:55.721,0.670289,1.49163,6.17199,0.751418,-0.804562,-0.26213,0
2024-12-11 19:37:55.723,0.85005,1.46291,6.10738,0.751418,-0.804562,-0.26213,0
2024-12-11 19:37:55.723,0.85005,1.46291,6.10738,0.751418,-0.804562,-0.26213,0
2024-12-11 19:37:55.727,0.962513,1.42223,6.1002,0.691555,-0.820444,-0.278623,0
2024-12-11 19:37:55.728,0.962513,1.42223,6.1002,0.661013,-0.825331,-0.287785,0
2024-12-11 19:37:55.729,0.996012,1.37647,6.12174,0.661013,-0.825331,-0.287785,0
2024-12-11 19:37:55.733,1.04865,1.35972,6.16959,0.628027,-0.827164,-0.295726,0
2024-12-11 19:37:55.734,1.07737,1.35733,6.23659,0.596263,-0.822888,-0.308554,0
2024-12-11 19:37:55.736,1.01994,1.31904,6.3012,0.560834,-0.818001,-0.321382,0
2024-12-11 19:37:55.739,0.909871,1.25922,6.36102,0.524794,-0.808227,-0.331156,0
2024-12-11 19:37:55.741,0.82343,1.21854,6.41845,0.491808,-0.791734,-0.340318,0
2024-12-11 19:37:55.743,0.756431,1.18265,6.5001,0.455768,-0.772187,-0.346427,0
2024-12-11 19:37:55.747,0.701396,1.14915,6.59103,0.39224,-0.72332,-0.359255,0
2024-12-11 19:37:55.748,0.699003,1.12522,6.67478,0.39224,-0.72332,-0.359255,0
2024-12-11 19:37:55.750,0.687039,1.08933,6.75853,0.358644,-0.692166,-0.366585,0
2024-12-11 19:37:55.753,0.584148,1.0654,6.83988,0.326269,-0.657959,-0.37025,0
2024-12-11 19:37:55.755,0.481256,1.05105,6.91885,0.294505,-0.613978,-0.373915,0
2024-12-11 19:37:55.758,0.423829,1.01755,7.00738,0.262741,-0.567553,-0.373304,0
2024-12-11 19:37:55.760,0.397508,0.97687,7.11296,0.232809,-0.516242,-0.375747,0
2024-12-11 19:37:55.763,0.354437,0.940978,7.20389,0.178444,-0.408122,-0.375747,0
2024-12-11 19:37:55.765,0.272782,0.917049,7.27328,0.178444,-0.408122,-0.375747,0
2024-12-11 19:37:55.767,0.236889,0.893121,7.3355,0.149123,-0.354368,-0.372693,0
2024-12-11 19:37:55.769,0.244068,0.859622,7.4025,0.118581,-0.29817,-0.368417,0
2024-12-11 19:37:55.774,0.155533,0.789931,7.5676,0.0660479,-0.174168,-0.36292,0
2024-12-11 19:37:55.775,0.155533,0.789931,7.5676,0.0428357,-0.108807,-0.358644,0
2024-12-11 19:37:55.777,0.0765703,0.756431,7.67797,0.0428357,-0.108807,-0.358644,0
2024-12-11 19:37:55.779,0.0143569,0.734896,7.78804,0.0208452,-0.0440574,-0.351924,0
2024-12-11 19:37:55.783,-0.0478565,0.737288,7.99621,-0.0158057,0.074447,-0.339707,0
2024-12-11 19:37:55.783,-0.117248,0.737288,7.99621,-0.0158057,0.074447,-0.339707,0
2024-12-11 19:37:55.786,-0.191426,0.739681,8.09911,-0.030466,0.131867,-0.333599,0
2024-12-11 19:37:55.788,-0.267996,0.744467,8.19273,-0.038407,0.183789,-0.323825,0
2024-12-11 19:37:55.791,-0.34008,0.775574,8.2693,-0.0500131,0.230824,-0.314663,0
2024-12-11 19:37:55.793,-0.402293,0.811466,8.33151,-0.0555107,0.279692,-0.303667,0
2024-12-11 19:37:55.796,-0.478864,0.845265,8.39372,-0.0579541,0.370097,-0.278623,0
2024-12-11 19:37:55.798,-0.545863,0.859622,8.4679,-0.0579541,0.370097,-0.278623,0
2024-12-11 19:37:55.803,-0.655932,0.914656,8.57797,-0.0548999,0.44462,-0.253578,0
2024-12-11 19:37:55.803,-0.655932,0.914656,8.57797,-0.0548999,0.44462,-0.253578,0
2024-12-11 19:37:55.805,-0.682254,0.964906,8.62822,-0.050624,0.478828,-0.239528,0
2024-12-11 19:37:55.807,-0.706182,1.01037,8.63779,-0.0439046,0.505094,-0.226701,0
2024-12-11 19:37:55.810,-0.734896,1.04387,8.6354,-0.0341311,0.528307,-0.215095,0
2024-12-11 19:37:55.813,-0.751645,1.0989,8.63061,-0.0200816,0.548464,-0.202267,0
2024-12-11 19:37:55.814,-0.74686,1.15633,8.63779,-0.00847551,0.561903,-0.192493,0
2024-12-11 19:37:55.817,-0.722932,1.2018,8.6354,0.00496313,0.571677,-0.183331,0
2024-12-11 19:37:55.819,-0.701396,1.25444,8.62822,0.0171801,0.578396,-0.172946,0
2024-12-11 19:37:55.821,-0.660718,1.32622,8.61386,0.0348946,0.579007,-0.166838,0
2024-12-11 19:37:55.823,-0.62004,1.38604,8.57797,0.0501658,0.577785,-0.160118,0
2024-12-11 19:37:55.826,-0.596112,1.43181,8.54447,0.0672696,0.578396,-0.154621,0
2024-12-11 19:37:55.828,-0.555434,1.4653,8.49901,0.0892601,0.57412,-0.149734,0
2024-12-11 19:37:55.832,-0.517149,1.5012,8.42722,0.128354,0.557016,-0.143625,0
2024-12-11 19:37:55.833,-0.495613,1.54427,8.36501,0.128354,0.557016,-0.143625,0
2024-12-11 19:37:55.838,-0.464507,1.6017,8.2023,0.171724,0.530139,-0.143015,0
2024-12-11 19:37:55.841,-0.442971,1.6017,8.11107,0.212651,0.494099,-0.141793,0
2024-12-11 19:37:55.842,-0.390329,1.62323,8.02971,0.212651,0.494099,-0.141793,0
2024-12-11 19:37:55.842,-0.390329,1.62323,8.02971,0.212651,0.494099,-0.141793,0
2024-12-11 19:37:55.845,-0.383151,1.63759,7.94836,0.232198,0.469665,-0.13996,0
2024-12-11 19:37:55.848,-0.378365,1.64955,7.84068,0.27679,0.421408,-0.138739,0
2024-12-11 19:37:55.849,-0.383151,1.66152,7.72822,0.27679,0.421408,-0.138739,0
2024-12-11 19:37:55.852,-0.373579,1.69023,7.62293,0.291451,0.396364,-0.138128,0
2024-12-11 19:37:55.855,-0.368794,1.72852,7.52692,0.308554,0.371319,-0.138739,0
2024-12-11 19:37:55.856,-0.385544,1.77398,7.4336,0.325658,0.343831,-0.136906,0
2024-12-11 19:37:55.861,-0.431007,1.87926,7.21346,0.325658,0.343831,-0.136906,0
2024-12-11 19:37:55.864,-0.428614,1.93191,7.10818,0.367806,0.274194,-0.132019,0
2024-12-11 19:37:55.866,-0.414257,1.98245,7.00499,0.367806,0.274194,-0.132019,0
2024-12-11 19:37:55.868,-0.380758,2.01835,6.90928,0.386743,0.236932,-0.122857,0
2024-12-11 19:37:55.869,-0.380758,2.01835,6.90928,0.386743,0.236932,-0.122857,0
2024-12-11 19:37:55.871,-0.352044,2.05663,6.8351,0.392851,0.222883,-0.11797,0
2024-12-11 19:37:55.873,-0.311366,2.10449,6.75853,0.398349,0.207612,-0.113694,0
2024-12-11 19:37:55.876,-0.253639,2.13799,6.67239,0.400792,0.198449,-0.111861,0
2024-12-11 19:37:55.881,-0.200997,2.15713,6.48335,0.403236,0.179513,-0.106975,0
2024-12-11 19:37:55.882,-0.136391,2.21934,6.41366,0.403236,0.179513,-0.106975,0
2024-12-11 19:37:55.882,-0.136391,2.21934,6.41366,0.403236,0.179513,-0.106975,0
2024-12-11 19:37:55.886,-0.11007,2.25284,6.34906,0.390408,0.174015,-0.105753,0
2024-12-11 19:37:55.888,-0.0885344,2.27438,6.28206,0.390408,0.174015,-0.105753,0
2024-12-11 19:37:55.889,-0.0933201,2.30309,6.21745,0.383688,0.174015,-0.105753,0
2024-12-11 19:37:55.892,-0.0885344,2.32941,6.1672,0.371471,0.172183,-0.10331,0
2024-12-11 19:37:55.895,-0.0693919,2.36531,6.13131,0.342762,0.172793,-0.0972011,0
2024-12-11 19:37:55.897,-0.0717847,2.41795,6.1002,0.342762,0.172793,-0.0972011,0
2024-12-11 19:37:55.899,-0.0765703,2.45623,6.08106,0.326269,0.170961,-0.0947577,0
2024-12-11 19:37:55.901,-0.0550349,2.48495,6.05235,0.309165,0.17035,-0.0898709,0
2024-12-11 19:37:55.904,-0.0454636,2.52832,6.01406,0.287785,0.169739,-0.0837624,0
2024-12-11 19:37:55.907,-0.0239282,2.58096,6.01406,0.245637,0.17768,-0.0782648,0
2024-12-11 19:37:55.909,0.0215354,2.61446,6.02363,0.245637,0.17768,-0.0782648,0
2024-12-11 19:37:55.911,0.0478565,2.64796,6.01885,0.227312,0.186843,-0.0758214,0
2024-12-11 19:37:55.914,0.0478565,2.67428,6.0332,0.178444,0.207001,-0.0678804,0
2024-12-11 19:37:55.916,0.0382852,2.69821,6.0667,0.178444,0.207001,-0.0678804,0
2024-12-11 19:37:55.918,0.0191426,2.74846,6.10259,0.15401,0.219218,-0.0629936,0
2024-12-11 19:37:55.921,-0.00478565,2.78913,6.16959,0.104531,0.244263,-0.0507767,0
2024-12-11 19:37:55.923,-0.00957129,2.83938,6.22463,0.104531,0.244263,-0.0507767,0
2024-12-11 19:37:55.925,0.0119641,2.89203,6.27727,0.0800973,0.258312,-0.0422248,0
2024-12-11 19:37:55.928,0.0311067,2.93031,6.35384,0.0562743,0.267475,-0.0355055,0
2024-12-11 19:37:55.929,0.0526421,2.98295,6.40888,0.0318404,0.27847,-0.029397,0
2024-12-11 19:37:55.932,0.0837488,3.03081,6.47857,0.00862822,0.289465,-0.021456,0
2024-12-11 19:37:55.935,0.107677,3.05952,6.56471,-0.0194708,0.304736,-0.0159584,0
2024-12-11 19:37:55.937,0.131605,3.08345,6.62931,-0.0457372,0.320618,-0.0104608,0
2024-12-11 19:37:55.941,0.0957129,3.14596,6.77288,-0.0726145,0.331003,-0.0019089,0
2024-12-11 19:37:55.944,0.0526421,3.17946,6.89492,-0.123315,0.351161,0.010308,0
2024-12-11 19:37:55.944,0.0526421,3.17946,6.89492,-0.123315,0.351161,0.010308,0
2024-12-11 19:37:55.946,0.0167498,3.23928,7.02682,-0.14897,0.352383,0.0194708,0
2024-12-11 19:37:55.949,-0.0191426,3.29671,7.18236,-0.174015,0.353604,0.0261901,0
2024-12-11 19:37:55.951,-0.0598206,3.3661,7.34268,-0.198449,0.351772,0.0347419,0
2024-12-11 19:37:55.954,-0.107677,3.44746,7.50778,-0.219829,0.345052,0.0420721,0
2024-12-11 19:37:55.958,-0.155533,3.52642,7.86461,-0.261977,0.33589,0.0591758,0
2024-12-11 19:37:55.958,-0.191426,3.6006,7.86461,-0.261977,0.33589,0.0591758,0
2024-12-11 19:37:55.960,-0.212961,3.66072,8.02971,-0.27847,0.332225,0.0671168,0
2024-12-11 19:37:55.962,-0.215354,3.71575,8.19273,-0.302293,0.323673,0.0713928,0
2024-12-11 19:37:55.965,-0.217747,3.75883,8.38176,-0.318175,0.318786,0.0720036,0
2024-12-11 19:37:55.968,-0.239282,3.79472,8.58036,-0.332225,0.316343,0.074447,0
2024-12-11 19:37:55.970,-0.292223,3.81625,8.77209,-0.344442,0.309623,0.0738362,0
2024-12-11 19:37:55.972,-0.349651,3.833,8.94916,-0.363378,0.307791,0.0720036,0
2024-12-11 19:37:55.975,-0.368794,3.85454,9.10948,-0.373151,0.304736,0.0701711,0
2024-12-11 19:37:55.979,-0.478864,3.86172,9.45673,-0.390866,0.308401,0.0628409,0
2024-12-11 19:37:55.979,-0.478864,3.86172,9.45673,-0.390866,0.308401,0.0628409,0
2024-12-11 19:37:55.982,-0.538684,3.87847,9.62184,-0.412856,0.312067,0.0530674,0
2024-12-11 19:37:55.985,-0.579362,3.89761,9.78216,-0.419576,0.313288,0.0481806,0
2024-12-11 19:37:55.986,-0.624826,3.91197,9.94278,-0.419576,0.313288,0.0481806,0
2024-12-11 19:37:55.989,-0.691825,3.93589,10.0935,-0.425684,0.313288,0.042683,0
2024-12-11 19:37:55.992,-0.739681,3.94786,10.2491,-0.432404,0.313899,0.0377962,0
2024-12-11 19:37:55.993,-0.777966,3.94547,10.3953,-0.438512,0.32184,0.0329094,0
2024-12-11 19:37:55.995,-0.80668,3.95982,10.5245,-0.442788,0.324284,0.0249684,0
2024-12-11 19:37:55.998,-0.809073,3.967,10.6777,-0.446453,0.324284,0.0164165,0
2024-12-11 19:37:56.000,-0.801895,3.95743,10.8332,-0.448896,0.327338,0.00603212,0
2024-12-11 19:37:56.002,-0.785145,3.94068,10.9555,-0.45867,0.327338,-0.00557398,0
2024-12-11 19:37:56.005,-0.775574,3.90957,11.0776,-0.45867,0.331003,-0.0190126,0
2024-12-11 19:37:56.008,-0.782752,3.88564,11.2187,-0.464168,0.334668,-0.0342838,0
2024-12-11 19:37:56.010,-0.797109,3.86172,11.3647,-0.472109,0.33589,-0.0458899,0
2024-12-11 19:37:56.012,-0.82343,3.82343,11.511,-0.475163,0.340166,-0.0599394,0
2024-12-11 19:37:56.015,-0.881157,3.81147,11.6737,-0.482493,0.354826,-0.0886492,0
2024-12-11 19:37:56.018,-0.952942,3.80668,11.846,-0.482493,0.354826,-0.0886492,0
2024-12-11 19:37:56.021,-1.14915,3.80429,12.1525,-0.491045,0.373151,-0.108807,0
2024-12-11 19:37:56.024,-1.24247,3.80907,12.277,-0.491045,0.373151,-0.108807,0
2024-12-11 19:37:56.026,-1.34536,3.80907,12.3942,-0.498986,0.383536,-0.120413,0
2024-12-11 19:37:56.027,-1.34536,3.80907,12.3942,-0.506927,0.387201,-0.121635,0
2024-12-11 19:37:56.028,-1.45095,3.81386,12.4947,-0.506927,0.387201,-0.121635,0
2024-12-11 19:37:56.031,-1.55384,3.81865,12.6072,-0.513646,0.389033,-0.120413,0
2024-12-11 19:37:56.033,-1.64716,3.8354,12.7128,-0.519144,0.389644,-0.121024,0
2024-12-11 19:37:56.035,-1.7333,3.8354,12.8181,-0.521587,0.390866,-0.115526,0
2024-12-11 19:37:56.041,-1.93191,3.82104,12.976,-0.544189,0.375595,-0.0880384,0
2024-12-11 19:37:56.043,-2.00399,3.81625,13.0717,-0.544189,0.375595,-0.0880384,0
2024-12-11 19:37:56.045,-2.0662,3.81865,13.194,-0.55213,0.366432,-0.0745997,0
2024-12-11 19:37:56.048,-2.12124,3.80668,13.3352,-0.55946,0.35788,-0.0599394,0
2024-12-11 19:37:56.048,-2.12124,3.80668,13.3352,-0.55946,0.35788,-0.0599394,0
2024-12-11 19:37:56.052,-2.17627,3.77797,13.6391,-0.568012,0.349328,-0.0238994,0
2024-12-11 19:37:56.052,-2.23131,3.77797,13.6391,-0.568012,0.349328,-0.0238994,0
2024-12-11 19:37:56.054,-2.28634,3.75643,13.7925,-0.569233,0.343831,-0.00313059,0
2024-12-11 19:37:56.058,-2.32941,3.73011,13.9385,-0.566179,0.346274,0.0445155,0
2024-12-11 19:37:56.060,-2.37009,3.7325,14.1012,-0.566179,0.346274,0.0445155,0
2024-12-11 19:37:56.061,-2.41316,3.71575,14.2735,-0.558238,0.351772,0.0695602,0
2024-12-11 19:37:56.065,-2.4682,3.68704,14.4269,-0.538691,0.373151,0.128812,0
2024-12-11 19:37:56.067,-2.54507,3.65115,14.5729,-0.519144,0.389644,0.161187,0
2024-12-11 19:37:56.068,-2.64317,3.60778,14.7212,-0.519144,0.389644,0.161187,0
2024-12-11 19:37:56.071,-2.74846,3.57667,14.8433,-0.497764,0.406748,0.195395,0
2024-12-11 19:37:56.073,-2.85613,3.54556,14.956,-0.470887,0.428738,0.233267,0
2024-12-11 19:37:56.076,-2.95185,3.50249,15.0446,-0.442788,0.453172,0.274805,0
2024-12-11 19:37:56.078,-3.01645,3.48574,15.1068,-0.40858,0.482493,0.319397,0
2024-12-11 19:37:56.080,-3.05234,3.50728,15.1594,-0.376206,0.515479,0.365821,0
2024-12-11 19:37:56.084,-3.06192,3.53839,15.1762,-0.290076,0.608328,0.45867,0
2024-12-11 19:37:56.088,-3.04517,3.6006,15.0733,-0.194784,0.73294,0.550908,0
2024-12-11 19:37:56.091,-2.95902,3.83061,14.9417,-0.142862,0.796468,0.592445,0
2024-12-11 19:37:56.091,-2.95902,3.83061,14.9417,-0.142862,0.796468,0.592445,0
2024-12-11 19:37:56.093,-2.89681,3.94307,14.75,-0.0878856,0.85091,0.630318,0
2024-12-11 19:37:56.095,-2.80349,4.05075,14.525,-0.0878856,0.85091,0.630318,0
2024-12-11 19:37:56.097,-2.69342,4.12971,14.2424,-0.0457372,0.89367,0.663304,0
2024-12-11 19:37:56.101,-2.57378,4.17278,13.5386,0.0361163,0.941926,0.708506,0
2024-12-11 19:37:56.102,-2.47059,4.17518,13.5386,0.0361163,0.941926,0.708506,0
2024-12-11 19:37:56.104,-2.39163,4.13689,13.1916,0.0593285,0.942537,0.721945,0
2024-12-11 19:37:56.106,-2.32941,4.05554,12.8874,0.0819299,0.934596,0.73294,0
2024-12-11 19:37:56.111,-2.34138,3.78754,12.265,0.11064,0.890004,0.736682,0
2024-12-11 19:37:56.113,-2.35573,3.68704,11.9178,0.113083,0.827698,0.731108,0
2024-12-11 19:37:56.113,-2.35573,3.68704,11.9178,0.113083,0.827698,0.731108,0
2024-12-11 19:37:56.118,-2.37009,3.41396,11.3958,0.0904818,0.633372,0.704841,0
2024-12-11 19:37:56.118,-2.40598,3.41396,11.3958,0.0904818,0.633372,0.704841,0
2024-12-11 19:37:56.120,-2.38445,3.27039,11.2475,0.0660479,0.503873,0.685905,0
2024-12-11 19:37:56.123,-2.34616,3.13879,11.1805,0.0324513,0.353604,0.66086,0
2024-12-11 19:37:56.125,-2.33181,2.97338,11.2116,-0.00358873,0.194784,0.634594,0
2024-12-11 19:37:56.127,-2.31027,2.81306,11.3097,-0.0420721,0.0298552,0.604052,0
2024-12-11 19:37:56.131,-2.30548,2.6671,11.4844,-0.137364,-0.294505,0.534415,0
2024-12-11 19:37:56.133,-2.30788,2.51366,11.7311,-0.1844,-0.441108,0.497764,0
2024-12-11 19:37:56.135,-2.28156,2.3342,12.047,-0.1844,-0.441108,0.497764,0
2024-12-11 19:37:56.137,-2.27199,2.13799,12.399,-0.227159,-0.566332,0.463557,0
2024-12-11 19:37:56.139,-2.28395,1.98724,12.7558,-0.266864,-0.669565,0.432404,0
2024-12-11 19:37:56.141,-2.27199,1.85773,13.0813,-0.299239,-0.757527,0.405526,0
2024-12-11 19:37:56.144,-2.23131,1.74048,13.4046,-0.330392,-0.827164,0.379871,0
2024-12-11 19:37:56.147,-2.15952,1.58734,13.7901,-0.352383,-0.887027,0.357269,0
2024-12-11 19:37:56.150,-2.05185,1.38604,14.1443,-0.373762,-0.978043,0.318786,0
2024-12-11 19:37:56.151,-1.87208,1.21854,14.4245,-0.373762,-0.978043,0.318786,0
2024-12-11 19:37:56.153,-1.64955,1.09173,14.6758,-0.373762,-1.01164,0.293741,0
2024-12-11 19:37:56.156,-1.38604,0.967299,14.9178,-0.37193,-1.03913,0.266253,0
2024-12-11 19:37:56.158,-1.13001,0.835394,15.1546,-0.355437,-1.06417,0.233878,0
2024-12-11 19:37:56.160,-0.950549,0.701396,15.3772,-0.331003,-1.08372,0.197838,0
2024-12-11 19:37:56.163,-0.789931,0.567398,15.5689,-0.299239,-1.09105,0.165463,0
2024-12-11 19:37:56.167,-0.148355,0.294616,15.8513,-0.209444,-1.09105,0.0952158,1
2024-12-11 19:37:56.168,-0.600898,0.294616,15.8513,-0.209444,-1.09105,0.0952158,0
2024-12-11 19:37:56.170,0.0311067,0.224925,16.0071,-0.209444,-1.09105,0.0952158,0
2024-12-11 19:37:56.174,-0.155533,0.100499,15.9398,-0.0170274,-1.07822,-0.00862822,0
2024-12-11 19:37:56.175,-0.253639,0.100499,15.9398,-0.0170274,-1.07822,-0.00862822,0
2024-12-11 19:37:56.177,-0.440578,-0.00239282,15.935,0.0703238,-1.04707,-0.0361163,0
2024-12-11 19:37:56.181,-0.842872,-0.277567,15.6766,0.253578,-0.972545,-0.0648262,0
2024-12-11 19:37:56.181,-0.842872,-0.277567,15.6766,0.253578,-0.972545,-0.0648262,0
2024-12-11 19:37:56.185,-1.07258,-0.414257,15.4708,0.34887,-0.929786,-0.0684913,0
2024-12-11 19:37:56.186,-1.23051,-0.569791,15.2025,0.44233,-0.882751,-0.0642153,0
2024-12-11 19:37:56.191,-1.37408,-0.751645,14.5585,0.621919,-0.778296,-0.0422248,0
2024-12-11 19:37:56.192,-1.51316,-0.751645,14.5585,0.707437,-0.72393,-0.0220669,0
2024-12-11 19:37:56.194,-1.49641,-0.782752,14.1658,0.782572,-0.668343,0.000534491,0
2024-12-11 19:37:56.196,-1.37408,-0.73011,13.7519,0.782572,-0.668343,0.000534491,0
2024-12-11 19:37:56.198,-1.28315,-0.643968,13.3185,0.854652,-0.614589,0.022525,0
2024-12-11 19:37:56.201,-1.21615,-0.550648,12.8755,0.922456,-0.559612,0.042683,0
2024-12-11 19:37:56.204,-1.12044,-0.445364,12.387,1.0263,-0.445995,0.0842206,0
2024-12-11 19:37:56.205,-0.979263,-0.328116,11.8986,1.0263,-0.445995,0.0842206,0
2024-12-11 19:37:56.208,-0.885943,-0.239282,11.415,1.06478,-0.396516,0.101324,0
2024-12-11 19:37:56.210,-0.893121,-0.181855,10.9193,1.09288,-0.351924,0.117817,0
2024-12-11 19:37:56.213,-0.907478,-0.131605,10.4408,1.10999,-0.281677,0.150192,0
2024-12-11 19:37:56.215,-0.919442,-0.081356,9.99781,1.10999,-0.281677,0.150192,0
2024-12-11 19:37:56.217,-0.952942,-0.0454636,9.59073,1.10571,-0.26213,0.16302,0
2024-12-11 19:37:56.219,-1.02951,-0.0358923,9.22672,1.09044,-0.248691,0.177069,0
2024-12-11 19:37:56.223,-0.948156,-0.0311067,8.91087,1.03668,-0.243804,0.196616,0
2024-12-11 19:37:56.224,-0.775574,-0.0239282,8.64975,1.03668,-0.243804,0.196616,0
2024-12-11 19:37:56.229,-1.12762,0.114855,8.14965,0.952998,-0.257243,0.205779,0
2024-12-11 19:37:56.230,-0.9003,0.114855,8.14965,0.905963,-0.259076,0.208833,0
2024-12-11 19:37:56.231,-1.29512,0.148355,7.98186,0.905963,-0.259076,0.208833,0
2024-12-11 19:37:56.234,-1.49402,0.16989,7.88136,0.804562,-0.23342,0.218607,0
2024-12-11 19:37:56.236,-1.67348,0.179462,7.79522,0.804562,-0.23342,0.218607,0
2024-12-11 19:37:56.238,-1.85055,0.16989,7.74258,0.752029,-0.219371,0.227159,0
2024-12-11 19:37:56.240,-2.01356,0.150748,7.68754,0.69461,-0.202878,0.233878,0
2024-12-11 19:37:56.243,-2.0997,0.105284,7.61815,0.640244,-0.180887,0.244873,0
2024-12-11 19:37:56.246,-2.11645,0.0598206,7.58704,0.521129,-0.138128,0.263199,0
2024-12-11 19:37:56.247,-2.08295,0.0550349,7.57747,0.521129,-0.138128,0.263199,0
2024-12-11 19:37:56.250,-2.01117,0.0622134,7.55324,0.458212,-0.119802,0.268696,0
2024-12-11 19:37:56.252,-1.95105,0.0789631,7.52692,0.394684,-0.0953685,0.276637,0
2024-12-11 19:37:56.256,-1.87926,0.0957129,7.53171,0.33421,-0.0678804,0.281524,0
2024-12-11 19:37:56.257,-1.77876,0.105284,7.56042,0.27679,-0.037338,0.281524,0
2024-12-11 19:37:56.262,-1.55623,0.136391,7.63729,0.162562,0.0194708,0.281524,0
2024-12-11 19:37:56.262,-1.55623,0.136391,7.63729,0.162562,0.0194708,0.281524,0
2024-12-11 19:37:56.264,-1.44138,0.117248,7.66122,0.112472,0.0414613,0.276637,0
2024-12-11 19:37:56.266,-1.33579,0.0933201,7.70668,0.0629936,0.0640626,0.272362,0
2024-12-11 19:37:56.269,-1.25922,0.066999,7.75693,0.0141258,0.0817772,0.267475,0
2024-12-11 19:37:56.272,-1.2018,0.0646062,7.81197,-0.0231358,0.0964375,0.261366,0
2024-12-11 19:37:56.274,-1.14197,0.0693919,7.88375,-0.0231358,0.0964375,0.261366,0
2024-12-11 19:37:56.276,-1.08694,0.0622134,7.96272,-0.0872748,0.124536,0.248538,0
2024-12-11 19:37:56.278,-1.04626,0.0550349,8.0345,-0.109876,0.137364,0.243652,0
2024-12-11 19:37:56.280,-1.01037,0.0502493,8.11107,-0.124536,0.147138,0.236322,0
2024-12-11 19:37:56.283,-0.981655,0.0741775,8.19512,-0.13431,0.152025,0.230213,0
2024-12-11 19:37:56.285,-0.957727,0.102891,8.25972,-0.144694,0.152025,0.225937,0
2024-12-11 19:37:56.288,-0.912264,0.11007,8.30997,-0.14164,0.149581,0.223494,0
2024-12-11 19:37:56.290,-0.852443,0.131605,8.35065,-0.133088,0.145305,0.219218,0
2024-12-11 19:37:56.293,-0.756431,0.165105,8.37937,-0.125147,0.139197,0.216164,0
2024-12-11 19:37:56.295,-0.63679,0.200997,8.40569,-0.110487,0.132477,0.210055,0
2024-12-11 19:37:56.297,-0.538684,0.234497,8.42962,-0.0884965,0.121482,0.203947,0
2024-12-11 19:37:56.299,-0.476471,0.263211,8.4344,-0.0677277,0.104989,0.195395,0
2024-12-11 19:37:56.303,-0.421436,0.301795,8.41287,-0.0139731,0.0762796,0.179513,0
2024-12-11 19:37:56.305,-0.354437,0.344866,8.36979,-0.0139731,0.0762796,0.179513,0
2024-12-11 19:37:56.306,-0.292223,0.411865,8.32672,0.0165692,0.0616192,0.171572,0
2024-12-11 19:37:56.309,-0.227318,0.486042,8.28365,0.0452791,0.0439046,0.159966,0
2024-12-11 19:37:56.312,-0.155533,0.529113,8.21426,0.0758214,0.0206925,0.14836,0
2024-12-11 19:37:56.313,-0.102891,0.579362,8.13769,0.108196,-0.00313059,0.137975,0
2024-12-11 19:37:56.316,-0.0765703,0.651147,8.07279,0.136906,-0.0281753,0.128812,0
2024-12-11 19:37:56.318,-0.0693919,0.708575,7.99143,0.171724,-0.057496,0.117817,0
2024-12-11 19:37:56.320,-0.0430708,0.766002,7.89811,0.201656,-0.0904818,0.108044,0
2024-12-11 19:37:56.323,0.00478565,0.825823,7.79761,0.228533,-0.125911,0.0988809,0
2024-12-11 19:37:56.326,0.0550349,0.881157,7.69472,0.29084,-0.197991,0.0787229,0
2024-12-11 19:37:56.329,0.0885344,0.936192,7.59901,0.314663,-0.230366,0.0689494,0
2024-12-11 19:37:56.330,0.11007,0.991227,7.47907,0.314663,-0.230366,0.0689494,0
2024-12-11 19:37:56.333,0.112463,1.04148,7.36421,0.342151,-0.262741,0.0622301,0
2024-12-11 19:37:56.336,0.105284,1.07498,7.25893,0.39224,-0.322604,0.0494023,0
2024-12-11 19:37:56.337,0.117248,1.10848,7.13211,0.39224,-0.322604,0.0494023,0
2024-12-11 19:37:56.340,0.143569,1.14197,6.98824,0.415452,-0.348259,0.0451263,0
2024-12-11 19:37:56.342,0.191426,1.19462,6.85424,0.43561,-0.367806,0.0402396,0
2024-12-11 19:37:56.344,0.232104,1.27597,6.75374,0.455158,-0.38491,0.0335202,0
2024-12-11 19:37:56.346,0.263211,1.32861,6.65803,0.476537,-0.396516,0.0268009,0
2024-12-11 19:37:56.349,0.308973,1.36211,6.55274,0.491198,-0.40629,0.0206925,0
2024-12-11 19:37:56.353,0.349651,1.41027,6.44477,0.511966,-0.417285,0.0115297,0
2024-12-11 19:37:56.353,0.366401,1.45334,6.33948,0.511966,-0.417285,0.0115297,0
2024-12-11 19:37:56.357,0.371187,1.4988,6.25334,0.521129,-0.419728,0.00847551,0
2024-12-11 19:37:56.358,0.354437,1.51555,6.17677,0.526627,-0.422172,0.00664296,0
2024-12-11 19:37:56.361,0.332901,1.50838,6.0691,0.524794,-0.424615,0.00664296,0
2024-12-11 19:37:56.363,0.318545,1.51555,5.96142,0.526627,-0.425837,0.00664296,0
2024-12-11 19:37:56.366,0.297009,1.51316,5.84866,0.520518,-0.422172,0.0115297,0
2024-12-11 19:37:56.368,0.270389,1.51316,5.72184,0.520518,-0.422172,0.0115297,0
2024-12-11 19:37:56.370,0.270389,1.52273,5.61895,0.513188,-0.416674,0.0158057,0
2024-12-11 19:37:56.373,0.258425,1.53709,5.50409,0.504636,-0.40629,0.0206925,0
2024-12-11 19:37:56.375,0.246461,1.5682,5.4012,0.492419,-0.393462,0.0261901,0
2024-12-11 19:37:56.378,0.241675,1.59691,5.31715,0.458823,-0.360476,0.0420721,0
2024-12-11 19:37:56.379,0.256032,1.62802,5.2358,0.458823,-0.360476,0.0420721,0
2024-12-11 19:37:56.383,0.272782,1.66869,5.16401,0.440497,-0.337875,0.0494023,0
2024-12-11 19:37:56.384,0.270389,1.69502,5.11137,0.419728,-0.317106,0.0567324,0
2024-12-11 19:37:56.386,0.285045,1.74048,5.07308,0.395905,-0.288396,0.0646735,0
2024-12-11 19:37:56.389,0.299402,1.78834,5.02523,0.370861,-0.259076,0.0762796,0
2024-12-11 19:37:56.391,0.301795,1.82901,4.97498,0.343983,-0.228533,0.0829989,0
2024-12-11 19:37:56.393,0.308973,1.86491,4.92951,0.321382,-0.194326,0.0884965,0
2024-12-11 19:37:56.396,0.32333,1.89123,4.88405,0.29084,-0.16134,0.0964375,0
2024-12-11 19:37:56.398,0.354437,1.91994,4.84816,0.26213,-0.127743,0.104989,0
2024-12-11 19:37:56.401,0.375972,1.94865,4.83141,0.231587,-0.0892601,0.111098,0
2024-12-11 19:37:56.404,0.407079,1.97767,4.80509,0.169281,-0.0202343,0.119039,0
2024-12-11 19:37:56.406,0.428614,1.98006,4.77877,0.138128,0.0139731,0.120871,0
2024-12-11 19:37:56.408,0.423829,1.98006,4.75215,0.138128,0.0139731,0.120871,0
2024-12-11 19:37:56.410,0.452543,2.00877,4.70668,0.106364,0.0432938,0.122704,0
2024-12-11 19:37:56.413,0.490828,2.04227,4.67079,0.037338,0.100713,0.120261,0
2024-12-11 19:37:56.415,0.517149,2.05185,4.67797,0.037338,0.100713,0.120261,0
2024-12-11 19:37:56.417,0.545863,2.05185,4.69472,0.00251974,0.123315,0.117817,0
2024-12-11 19:37:56.420,0.56022,2.05902,4.69472,-0.0316877,0.147749,0.11293,0
2024-12-11 19:37:56.423,0.550648,2.07817,4.68993,-0.101324,0.189897,0.103768,0
2024-12-11 19:37:56.425,0.531506,2.09492,4.71625,-0.134921,0.203947,0.0939941,0
2024-12-11 19:37:56.427,0.512363,2.10688,4.75932,-0.134921,0.203947,0.0939941,0
2024-12-11 19:37:56.429,0.493221,2.13081,4.80748,-0.168517,0.211277,0.0891073,0
2024-12-11 19:37:56.434,0.419043,2.18584,4.97737,-0.236932,0.208223,0.074447,0
2024-12-11 19:37:56.434,0.419043,2.18584,4.97737,-0.236932,0.208223,0.074447,0
2024-12-11 19:37:56.437,0.368794,2.21695,5.08026,-0.267475,0.199671,0.0658951,0
2024-12-11 19:37:56.438,0.32333,2.26481,5.20469,-0.29985,0.1844,0.0597867,0
2024-12-11 19:37:56.441,0.313759,2.3007,5.34616,-0.325505,0.164852,0.0518457,0
2024-12-11 19:37:56.444,0.304188,2.33181,5.49691,-0.373762,0.130645,0.0335202,0
2024-12-11 19:37:56.445,0.282652,2.36052,5.65723,-0.373762,0.130645,0.0335202,0
2024-12-11 19:37:56.448,0.289831,2.38923,5.82473,-0.388422,0.114763,0.0237467,0
2024-12-11 19:37:56.450,0.292223,2.43709,6.02363,-0.402472,0.100103,0.0127514,0
2024-12-11 19:37:56.453,0.292223,2.47059,6.22941,-0.413467,0.0842206,0.00297788,0
2024-12-11 19:37:56.455,0.292223,2.48495,6.39691,-0.420797,0.0720036,-0.00618483,0
2024-12-11 19:37:56.457,0.27996,2.50409,6.56471,-0.428128,0.0555107,-0.021456,0
2024-12-11 19:37:56.460,0.258425,2.52084,6.72742,-0.434847,0.0408504,-0.0324513,0
2024-12-11 19:37:56.462,0.212961,2.53789,6.87817,-0.433014,0.0268009,-0.0458899,0
2024-12-11 19:37:56.464,0.138784,2.54507,7.02922,-0.431793,0.0109189,-0.0593285,0
2024-12-11 19:37:56.466,0.0861416,2.54746,7.18236,-0.42996,-0.00557398,-0.0709346,0
2024-12-11 19:37:56.469,0.0526421,2.55224,7.33071,-0.425684,-0.0196235,-0.0819299,0
2024-12-11 19:37:56.472,0.00478565,2.57857,7.46471,-0.419576,-0.0342838,-0.0910926,0
2024-12-11 19:37:56.474,-0.0478565,2.60489,7.58226,-0.411635,-0.0483333,-0.100255,0
2024-12-11 19:37:56.476,-0.100499,2.60489,7.69711,-0.405526,-0.0605502,-0.110029,0
2024-12-11 19:37:56.481,-0.165105,2.64078,7.90768,-0.389644,-0.0898709,-0.1253,0
2024-12-11 19:37:56.482,-0.165105,2.64078,7.90768,-0.389644,-0.0898709,-0.1253,0
2024-12-11 19:37:56.484,-0.210568,2.62403,8.00579,-0.385979,-0.122246,-0.142404,0
2024-12-11 19:37:56.485,-0.251246,2.62642,8.10629,-0.385979,-0.122246,-0.142404,0
2024-12-11 19:37:56.488,-0.304188,2.62881,8.2023,-0.378038,-0.13996,-0.150345,0
2024-12-11 19:37:56.495,-0.421436,2.71735,8.55643,-0.380481,-0.177833,-0.167449,0
2024-12-11 19:37:56.495,-0.421436,2.71735,8.55643,-0.380481,-0.177833,-0.167449,0
2024-12-11 19:37:56.497,-0.421436,2.76042,8.65454,-0.380481,-0.177833,-0.167449,0
2024-12-11 19:37:56.497,-0.471685,2.76042,8.65454,-0.380481,-0.177833,-0.167449,0
2024-12-11 19:37:56.499,-0.514756,2.8011,8.75534,-0.390255,-0.196769,-0.179665,0
2024-12-11 19:37:56.502,-0.565005,2.86331,8.86302,-0.398807,-0.208375,-0.182109,0
2024-12-11 19:37:56.504,-0.632004,2.93749,8.98744,-0.409191,-0.215705,-0.184552,0
2024-12-11 19:37:56.507,-0.727717,3.00449,9.09751,-0.418354,-0.22609,-0.187606,0
2024-12-11 19:37:56.509,-0.835394,3.05713,9.22433,-0.431793,-0.235253,-0.185163,0
2024-12-11 19:37:56.511,-0.909871,3.10289,9.37538,-0.441566,-0.241972,-0.180887,0
2024-12-11 19:37:56.514,-0.97687,3.14836,9.51895,-0.455005,-0.24808,-0.177222,0
2024-12-11 19:37:56.516,-1.02233,3.18186,9.67687,-0.466,-0.256021,-0.17539,0
2024-12-11 19:37:56.518,-1.0319,3.201,9.84228,-0.475774,-0.260908,-0.171114,0
2024-12-11 19:37:56.522,-1.01755,3.23211,10.0313,-0.484936,-0.267017,-0.168059,0
2024-12-11 19:37:56.524,-0.984048,3.26321,10.2515,-0.497153,-0.279234,-0.167449,0
2024-12-11 19:37:56.525,-0.938585,3.28235,10.4551,-0.497153,-0.279234,-0.167449,0
2024-12-11 19:37:56.528,-0.876371,3.28714,10.6418,-0.500208,-0.284731,-0.166227,0
2024-12-11 19:37:56.530,-0.794716,3.25843,10.8476,-0.50204,-0.292672,-0.16867,0
2024-12-11 19:37:56.532,-0.696611,3.22971,11.0345,-0.506316,-0.295116,-0.174168,0
2024-12-11 19:37:56.535,-0.610469,3.22493,11.1972,-0.501429,-0.296948,-0.179665,0
2024-12-11 19:37:56.538,-0.533899,3.22493,11.3719,-0.498375,-0.294505,-0.186996,0
2024-12-11 19:37:56.540,-0.483649,3.23928,11.5493,-0.493488,-0.291451,-0.196769,0
2024-12-11 19:37:56.542,-0.440578,3.25364,11.6976,-0.490434,-0.290229,-0.205932,0
2024-12-11 19:37:56.544,-0.402293,3.27039,11.8125,-0.486158,-0.287175,-0.21204,0
2024-12-11 19:37:56.547,-0.387936,3.3015,11.9178,-0.482493,-0.282288,-0.219371,0
2024-12-11 19:37:56.549,-0.392722,3.33021,12.0254,-0.477606,-0.27679,-0.227922,0
2024-12-11 19:37:56.551,-0.397508,3.35653,12.1358,-0.472719,-0.276179,-0.230366,0
2024-12-11 19:37:56.554,-0.385544,3.39721,12.2339,-0.472109,-0.275568,-0.236474,0
2024-12-11 19:37:56.556,-0.366401,3.41635,12.3248,-0.472109,-0.272514,-0.237085,0
2024-12-11 19:37:56.558,-0.35683,3.42832,12.3966,-0.469665,-0.266406,-0.240139,0
2024-12-11 19:37:56.561,-0.328116,3.44267,12.4493,-0.466,-0.260908,-0.246859,0
2024-12-11 19:37:56.563,-0.297009,3.45224,12.5258,-0.466,-0.253578,-0.248691,0
2024-12-11 19:37:56.565,-0.282652,3.45942,12.5976,-0.468443,-0.249913,-0.250524,0
2024-12-11 19:37:56.568,-0.272782,3.45703,12.6673,-0.472109,-0.243804,-0.252967,0
2024-12-11 19:37:56.570,-0.294616,3.45464,12.7463,-0.475163,-0.238918,-0.256021,0
2024-12-11 19:37:56.572,-0.313759,3.44746,12.8109,-0.479439,-0.235863,-0.260297,0
2024-12-11 19:37:56.576,-0.320937,3.4355,12.8731,-0.487991,-0.221814,-0.264573,0
2024-12-11 19:37:56.578,-0.342473,3.44028,12.9568,-0.493488,-0.218149,-0.268238,0
2024-12-11 19:37:56.581,-0.364008,3.43789,13.0693,-0.498986,-0.215095,-0.268238,0
2024-12-11 19:37:56.582,-0.380758,3.41635,13.1746,-0.498986,-0.215095,-0.268238,0
2024-12-11 19:37:56.585,-0.414257,3.402,13.2778,-0.505705,-0.208986,-0.268849,0
2024-12-11 19:37:56.587,-0.464507,3.38525,13.3878,-0.50937,-0.199823,-0.268849,0
2024-12-11 19:37:56.591,-0.54347,3.34696,13.6726,-0.520976,-0.174168,-0.268849,0
2024-12-11 19:37:56.594,-0.581755,3.3326,13.8188,-0.524031,-0.155842,-0.265184,0
2024-12-11 19:37:56.596,-0.627219,3.31346,13.96,-0.524641,-0.137517,-0.261519,0
2024-12-11 19:37:56.597,-0.627219,3.31346,13.96,-0.524641,-0.137517,-0.261519,0
2024-12-11 19:37:56.598,-0.672682,3.27518,14.0845,-0.525252,-0.114916,-0.256632,0
2024-12-11 19:37:56.602,-0.739681,3.22014,14.1945,-0.527696,-0.0629936,-0.24075,0
2024-12-11 19:37:56.603,-0.809073,3.16032,14.3097,-0.527696,-0.0629936,-0.24075,0
2024-12-11 19:37:56.605,-0.893121,3.11007,14.4293,-0.526474,-0.0324513,-0.229755,0
2024-12-11 19:37:56.609,-0.988834,3.08106,14.5681,-0.52342,0.0243575,-0.204099,0
2024-12-11 19:37:56.610,-1.07019,3.06192,14.7165,-0.52342,0.0243575,-0.204099,0
2024-12-11 19:37:56.613,-1.16351,3.05713,14.8771,-0.518533,0.0512348,-0.186996,0
2024-12-11 19:37:56.615,-1.28554,3.05952,15.0589,-0.509981,0.0726145,-0.162562,0
2024-12-11 19:37:56.617,-1.39322,3.02363,15.1929,-0.492877,0.094605,-0.134463,0
2024-12-11 19:37:56.620,-1.43659,3.0021,15.2504,-0.476385,0.125147,-0.109418,0
2024-12-11 19:37:56.623,-1.44377,3.0332,15.2815,-0.434236,0.198449,-0.057496,0
2024-12-11 19:37:56.624,-1.44855,3.09093,15.3365,-0.434236,0.198449,-0.057496,0
2024-12-11 19:37:56.627,-1.4677,3.17228,15.3963,-0.404915,0.230824,-0.0348946,0
2024-12-11 19:37:56.629,-1.49163,3.30868,15.425,-0.374984,0.260755,-0.00923906,0
2024-12-11 19:37:56.631,-1.48684,3.49292,15.4107,-0.338944,0.296795,0.0182491,0
2024-12-11 19:37:56.634,-1.42463,3.70858,15.3126,-0.296795,0.335279,0.042683,0
2024-12-11 19:37:56.638,-1.15394,4.09143,14.9513,-0.252204,0.368875,0.0652843,0
2024-12-11 19:37:56.638,-1.15394,4.09143,14.9513,-0.252204,0.368875,0.0652843,0
2024-12-11 19:37:56.641,-0.964906,4.17757,14.7021,-0.156301,0.407359,0.101324,0
2024-12-11 19:37:56.643,-0.727717,4.17996,14.4126,-0.11293,0.400029,0.114152,0
2024-12-11 19:37:56.645,-0.447757,4.11296,14.1036,-0.0689494,0.375595,0.120261,0
2024-12-11 19:37:56.649,-0.133998,3.97179,13.7997,-0.0310769,0.337722,0.120261,0
2024-12-11 19:37:56.650,0.179462,3.766,13.5099,-0.00114534,0.283968,0.11232,0
2024-12-11 19:37:56.653,0.493221,3.52403,13.2371,0.0238994,0.219829,0.0970484,0
2024-12-11 19:37:56.655,0.758824,3.25364,12.9712,0.0446682,0.151414,0.0787229,0
2024-12-11 19:37:56.657,0.974477,2.98774,12.7247,0.0538309,0.074447,0.0542891,0
2024-12-11 19:37:56.662,1.27837,2.48734,12.3847,0.0532201,-0.00740652,0.0274118,0
2024-12-11 19:37:56.664,1.27837,2.48734,12.3847,0.0306187,-0.157675,-0.0306187,0
2024-12-11 19:37:56.665,1.36451,2.25524,12.2483,0.0306187,-0.157675,-0.0306187,0
2024-12-11 19:37:56.668,1.37408,2.06381,12.2052,0.00435229,-0.223036,-0.0599394,0
2024-12-11 19:37:56.671,1.26162,1.75005,12.2459,-0.0475697,-0.328712,-0.10331,0
2024-12-11 19:37:56.674,1.20419,1.63998,12.2818,-0.0842206,-0.356811,-0.124689,0
2024-12-11 19:37:56.674,1.20419,1.63998,12.2818,-0.0842206,-0.356811,-0.124689,0
2024-12-11 19:37:56.676,1.17069,1.55862,12.3272,-0.123315,-0.362309,-0.144236,0
2024-12-11 19:37:56.678,1.14197,1.47009,12.4205,-0.163631,-0.353146,-0.163173,0
2024-12-11 19:37:56.681,1.14915,1.37408,12.5809,-0.203947,-0.331766,-0.182109,0
2024-12-11 19:37:56.684,1.17547,1.27119,12.7726,-0.246095,-0.300002,-0.197991,0
2024-12-11 19:37:56.686,1.14676,1.15394,12.9592,-0.285189,-0.256632,-0.212651,0
2024-12-11 19:37:56.688,1.06062,0.998405,13.1842,-0.320008,-0.199213,-0.229144,0
2024-12-11 19:37:56.690,1.08455,0.801895,13.462,-0.355437,-0.130187,-0.245637,0
2024-12-11 19:37:56.693,1.34058,0.553041,13.6917,-0.379871,-0.0684913,-0.263962,0
2024-12-11 19:37:56.695,1.35733,0.251246,14.0198,-0.379871,-0.0684913,-0.263962,0
2024-12-11 19:37:56.698,1.18744,-0.0622134,14.4963,-0.416521,0.0286335,-0.314052,0
2024-12-11 19:37:56.701,1.02951,-0.258425,14.7978,-0.410413,0.194784,-0.379413,0
2024-12-11 19:37:56.703,0.761217,-0.325723,14.9536,-0.410413,0.194784,-0.379413,0
2024-12-11 19:37:56.704,0.531506,-0.3999,15.157,-0.395753,0.316343,-0.405679,0
2024-12-11 19:37:56.708,0.267996,-0.478864,15.4131,-0.370708,0.431793,-0.428891,0
2024-12-11 19:37:56.709,-0.0502493,-0.541077,15.5904,-0.340776,0.536858,-0.448438,1
2024-12-11 19:37:56.711,-0.328116,-0.610469,15.6359,-0.307791,0.641313,-0.461877,0
2024-12-11 19:37:56.714,-0.457328,-0.718146,15.6072,-0.272972,0.742714,-0.472261,0
2024-12-11 19:37:56.717,-0.454935,-0.825823,15.5187,-0.235711,0.825866,-0.47837,0
2024-12-11 19:37:56.721,-0.411865,-0.881157,15.1546,-0.15569,0.976745,-0.490587,0
2024-12-11 19:37:56.721,-0.337687,-0.881157,15.1546,-0.15569,0.976745,-0.490587,0
2024-12-11 19:37:56.723,-0.236889,-0.82343,14.9225,-0.114763,1.04577,-0.496695,0
2024-12-11 19:37:56.726,-0.107677,-0.749253,14.6734,-0.0720036,1.10319,-0.505247,0
2024-12-11 19:37:56.728,0.0191426,-0.667897,14.3743,-0.0286335,1.14473,-0.511966,0
2024-12-11 19:37:56.731,0.0933201,-0.56022,14.0462,0.0684913,1.17894,-0.526016,0
2024-12-11 19:37:56.733,0.119641,-0.454935,13.7181,0.0684913,1.17894,-0.526016,0
2024-12-11 19:37:56.735,0.114855,-0.375972,13.3998,0.0684913,1.17894,-0.526016,0
2024-12-11 19:37:56.737,0.0957129,-0.316152,13.0956,0.11797,1.17283,-0.531513,0
2024-12-11 19:37:56.740,0.0741775,-0.27996,12.8013,0.221203,1.12457,-0.533957,0
2024-12-11 19:37:56.743,0.0598206,-0.256032,12.5091,0.332988,1.02928,-0.526016,0
2024-12-11 19:37:56.745,0.0789631,-0.236889,12.2243,0.332988,1.02928,-0.526016,0
2024-12-11 19:37:56.747,0.100499,-0.224925,11.9608,0.385521,0.963917,-0.520518,0
2024-12-11 19:37:56.749,0.114855,-0.227318,11.6928,0.441108,0.891226,-0.518075,0
2024-12-11 19:37:56.754,0.184247,-0.172283,11.1374,0.549228,0.721945,-0.504636,0
2024-12-11 19:37:56.754,0.184247,-0.172283,11.1374,0.549228,0.721945,-0.504636,0
2024-12-11 19:37:56.757,0.232104,-0.119641,10.8476,0.65124,0.535026,-0.494252,0
2024-12-11 19:37:56.760,0.285045,-0.0598206,10.5748,0.65124,0.535026,-0.494252,0
2024-12-11 19:37:56.761,0.349651,0.0215354,10.3208,0.698886,0.443399,-0.486922,0
2024-12-11 19:37:56.763,0.41665,0.11007,10.0816,0.741034,0.349328,-0.480813,0
2024-12-11 19:37:56.767,0.4669,0.18664,9.83271,0.815557,0.164242,-0.469207,0
2024-12-11 19:37:56.768,0.481256,0.239282,9.58834,0.815557,0.164242,-0.469207,0
2024-12-11 19:37:56.770,0.495613,0.311366,9.35145,0.8461,0.0701711,-0.461266,0
2024-12-11 19:37:56.775,0.550648,0.478864,8.91566,0.896189,-0.0972011,-0.443551,0
2024-12-11 19:37:56.777,0.557827,0.54347,8.73141,0.91085,-0.171114,-0.43561,0
2024-12-11 19:37:56.778,0.557827,0.54347,8.73141,0.91085,-0.171114,-0.43561,0
2024-12-11 19:37:56.780,0.536291,0.598505,8.56361,0.926121,-0.246248,-0.419118,0
2024-12-11 19:37:56.782,0.505185,0.632004,8.38654,0.933451,-0.317106,-0.404457,0
2024-12-11 19:37:56.784,0.493221,0.672682,8.23101,0.933451,-0.317106,-0.404457,0
2024-12-11 19:37:56.787,0.512363,0.703789,8.1015,0.935894,-0.381245,-0.387964,0
2024-12-11 19:37:56.790,0.536291,0.689432,7.97947,0.923067,-0.519907,-0.336653,0
2024-12-11 19:37:56.793,0.569791,0.663111,7.85982,0.912682,-0.546174,-0.321382,0
2024-12-11 19:37:56.795,0.612862,0.632004,7.74975,0.895578,-0.563278,-0.306722,0
2024-12-11 19:37:56.797,0.658325,0.576969,7.6349,0.876642,-0.574884,-0.291451,0
2024-12-11 19:37:56.800,0.699003,0.521934,7.54367,0.876642,-0.574884,-0.291451,0
2024-12-11 19:37:56.803,0.76361,0.445364,7.44078,0.827774,-0.587711,-0.267017,0
2024-12-11 19:37:56.803,0.76361,0.445364,7.44078,0.827774,-0.587711,-0.267017,0
2024-12-11 19:37:56.807,0.787538,0.411865,7.4025,0.769744,-0.574273,-0.249302,0
2024-12-11 19:37:56.809,0.789931,0.407079,7.4001,0.769744,-0.574273,-0.249302,0
2024-12-11 19:37:56.810,0.777966,0.421436,7.40967,0.739202,-0.563278,-0.243804,0
2024-12-11 19:37:56.813,0.768395,0.4334,7.39532,0.706216,-0.544341,-0.239528,0
2024-12-11 19:37:56.816,0.754038,0.440578,7.37617,0.671398,-0.518686,-0.235253,0
2024-12-11 19:37:56.817,0.720539,0.445364,7.36182,0.63719,-0.487532,-0.232198,0
2024-12-11 19:37:56.821,0.679861,0.452543,7.32832,0.563278,-0.415452,-0.229144,0
2024-12-11 19:37:56.823,0.639183,0.440578,7.31396,0.563278,-0.415452,-0.229144,0
2024-12-11 19:37:56.824,0.579362,0.426222,7.31875,0.528459,-0.374526,-0.230366,0
2024-12-11 19:37:56.827,0.507577,0.4334,7.31157,0.488754,-0.334821,-0.230977,0
2024-12-11 19:37:56.832,0.385544,0.440578,7.28286,0.40629,-0.244415,-0.234031,0
2024-12-11 19:37:56.832,0.385544,0.440578,7.28286,0.40629,-0.244415,-0.234031,0
2024-12-11 19:37:56.835,0.344866,0.4669,7.27089,0.323825,-0.153399,-0.242583,0
2024-12-11 19:37:56.837,0.258425,0.512363,7.29243,0.282288,-0.102699,-0.245026,0
2024-12-11 19:37:56.839,0.105284,0.54347,7.3331,0.282288,-0.102699,-0.245026,0
2024-12-11 19:37:56.841,0.0,0.567398,7.34268,0.242583,-0.0458899,-0.24808,0
2024-12-11 19:37:56.843,-0.0765703,0.612862,7.36182,0.202267,0.00847551,-0.24808,0
2024-12-11 19:37:56.846,-0.150748,0.663111,7.42642,0.166227,0.0652843,-0.248691,0
2024-12-11 19:37:56.848,-0.212961,0.739681,7.50778,0.130187,0.119039,-0.248691,0
2024-12-11 19:37:56.851,-0.258425,0.818644,7.59183,0.0990336,0.171572,-0.249913,0
2024-12-11 19:37:56.857,-0.352044,0.921835,7.83111,0.0251211,0.322451,-0.252356,0
2024-12-11 19:37:56.861,-0.352044,0.936192,7.89332,0.00618483,0.405526,-0.259076,0
2024-12-11 19:37:56.862,-0.354437,0.97687,7.96272,0.00618483,0.405526,-0.259076,0
2024-12-11 19:37:56.865,-0.364008,1.01037,8.01536,-0.0188599,0.443399,-0.265184,0
2024-12-11 19:37:56.866,-0.364008,1.01037,8.01536,-0.0255792,0.474552,-0.271903,0
2024-12-11 19:37:56.867,-0.373579,1.03908,8.05125,-0.0255792,0.474552,-0.271903,0
2024-12-11 19:37:56.869,-0.364008,1.07019,8.08475,-0.0274118,0.504483,-0.276179,0
2024-12-11 19:37:56.872,-0.361615,1.09173,8.12782,-0.0280226,0.528917,-0.287785,0
2024-12-11 19:37:56.874,-0.361615,1.09173,8.15683,-0.0243575,0.547243,-0.295726,0
2024-12-11 19:37:56.874,-0.383151,1.11326,8.15683,-0.0243575,0.547243,-0.295726,0
2024-12-11 19:37:56.876,-0.414257,1.14915,8.17837,-0.0176382,0.561292,-0.304278,0
2024-12-11 19:37:56.879,-0.435793,1.18505,8.1999,-0.00481042,0.572287,-0.309776,0
2024-12-11 19:37:56.881,-0.464507,1.20419,8.22383,0.00435229,0.577174,-0.317717,0
2024-12-11 19:37:56.883,-0.521934,1.23769,8.22144,0.0147367,0.577785,-0.323825,0
2024-12-11 19:37:56.886,-0.576969,1.29512,8.19512,0.0306187,0.57412,-0.328101,0
2024-12-11 19:37:56.888,-0.634397,1.36211,8.17358,0.0489441,0.561903,-0.334821,0
2024-12-11 19:37:56.890,-0.701396,1.42463,8.15923,0.0660479,0.546021,-0.337875,0
2024-12-11 19:37:56.893,-0.739681,1.49163,8.15205,0.085595,0.529528,-0.339707,0
2024-12-11 19:37:56.895,-0.756431,1.54905,8.135,0.104531,0.508759,-0.340318,0
2024-12-11 19:37:56.899,-0.770788,1.58734,8.11346,0.150956,0.459281,-0.345205,0
2024-12-11 19:37:56.901,-0.780359,1.63041,8.08714,0.150956,0.459281,-0.345205,0
2024-12-11 19:37:56.902,-0.794716,1.65434,8.05364,0.177833,0.432404,-0.343983,0
2024-12-11 19:37:56.905,-0.809073,1.67827,8.02971,0.201656,0.403694,-0.343373,0
2024-12-11 19:37:56.907,-0.809073,1.72612,7.99861,0.227312,0.37254,-0.343983,0
2024-12-11 19:37:56.909,-0.792323,1.75484,7.94597,0.2548,0.339555,-0.344594,0
2024-12-11 19:37:56.912,-0.770788,1.78116,7.87897,0.281066,0.306569,-0.344594,0
2024-12-11 19:37:56.914,-0.754038,1.80987,7.81675,0.306722,0.276027,-0.342151,0
2024-12-11 19:37:56.916,-0.739681,1.84576,7.75454,0.331156,0.246095,-0.342762,0
2024-12-11 19:37:56.919,-0.722932,1.88166,7.68036,0.354979,0.214331,-0.34154,0
2024-12-11 19:37:56.923,-0.727717,1.94626,7.48864,0.403846,0.15569,-0.342762,0
2024-12-11 19:37:56.924,-0.718146,1.91037,7.48864,0.403846,0.15569,-0.342762,0
2024-12-11 19:37:56.927,-0.734896,1.9681,7.38096,0.438665,0.100713,-0.339707,0
2024-12-11 19:37:56.928,-0.739681,2.0016,7.24936,0.438665,0.100713,-0.339707,0
2024-12-11 19:37:56.930,-0.751645,2.03749,7.12971,0.453325,0.0713928,-0.339097,0
2024-12-11 19:37:56.935,-0.785145,2.09252,6.90449,0.463709,0.022525,-0.335431,0
2024-12-11 19:37:56.939,-0.799502,2.12602,6.77528,0.477148,0.00114534,-0.332377,0
2024-12-11 19:37:56.939,-0.799502,2.12602,6.77528,0.477148,0.00114534,-0.332377,0
2024-12-11 19:37:56.940,-0.792323,2.15234,6.64128,0.479591,-0.0184018,-0.328101,0
2024-12-11 19:37:56.943,-0.787538,2.17627,6.52403,0.476537,-0.033673,-0.323215,0
2024-12-11 19:37:56.945,-0.782752,2.20499,6.42084,0.474705,-0.0446682,-0.318328,0
2024-12-11 19:37:56.947,-0.787538,2.23609,6.32991,0.467375,-0.0568851,-0.314052,0
2024-12-11 19:37:56.949,-0.797109,2.28634,6.24856,0.459433,-0.0629936,-0.307333,0
2024-12-11 19:37:56.952,-0.794716,2.31984,6.15763,0.447827,-0.0678804,-0.300002,0
2024-12-11 19:37:56.954,-0.801895,2.35573,6.0667,0.43561,-0.0715455,-0.293894,0
2024-12-11 19:37:56.960,-0.818644,2.41555,5.94945,0.38491,-0.0617719,-0.26946,0
2024-12-11 19:37:56.962,-0.780359,2.42752,5.88933,0.36353,-0.0562743,-0.260908,0
2024-12-11 19:37:56.963,-0.732503,2.43709,5.82951,0.36353,-0.0562743,-0.260908,0
2024-12-11 19:37:56.966,-0.694218,2.46102,5.78405,0.36353,-0.0562743,-0.260908,0
2024-12-11 19:37:56.967,-0.732503,2.43709,5.78405,0.31283,-0.037338,-0.245637,0
2024-12-11 19:37:56.969,-0.667897,2.50409,5.74098,0.285342,-0.0287862,-0.241972,0
2024-12-11 19:37:56.971,-0.643968,2.54507,5.70509,0.285342,-0.0287862,-0.241972,0
2024-12-11 19:37:56.974,-0.634397,2.57378,5.68116,0.257854,-0.0171801,-0.237696,0
2024-12-11 19:37:56.975,-0.648754,2.60489,5.6668,0.226701,-0.00801737,-0.230977,0
2024-12-11 19:37:56.978,-0.675075,2.62642,5.67398,0.19738,0.00419957,-0.22609,0
2024-12-11 19:37:56.981,-0.679861,2.64317,5.72902,0.165616,0.0158057,-0.219981,0
2024-12-11 19:37:56.982,-0.667897,2.65753,5.79841,0.133241,0.0280226,-0.214484,0
2024-12-11 19:37:56.985,-0.639183,2.66471,5.88694,0.10392,0.0408504,-0.210208,0
2024-12-11 19:37:56.987,-0.576969,2.67667,5.97578,0.0691021,0.050624,-0.206543,0
2024-12-11 19:37:56.989,-0.507577,2.68864,6.04756,0.0391706,0.0658951,-0.202878,0
2024-12-11 19:37:56.992,-0.440578,2.68864,6.14567,0.00801737,0.0829989,-0.202267,0
2024-12-11 19:37:56.994,-0.390329,2.68864,6.24138,-0.0249684,0.0994917,-0.200434,0
2024-12-11 19:37:56.996,-0.344866,2.67667,6.33948,-0.0561216,0.120871,-0.201656,0
2024-12-11 19:37:56.999,-0.30658,2.66231,6.46182,-0.0878856,0.144694,-0.203488,0
2024-12-11 19:37:57.002,-0.30658,2.6671,6.56949,-0.122704,0.166685,-0.20471,0
2024-12-11 19:37:57.003,-0.318545,2.66231,6.67717,-0.154468,0.190508,-0.205932,0
2024-12-11 19:37:57.007,-0.354437,2.65753,6.78724,-0.222272,0.232656,-0.210208,0
2024-12-11 19:37:57.011,-0.442971,2.66949,7.03879,-0.252814,0.247928,-0.21143,0
2024-12-11 19:37:57.011,-0.442971,2.66949,7.03879,-0.252814,0.247928,-0.21143,0
2024-12-11 19:37:57.013,-0.478864,2.68146,7.17996,-0.285189,0.264421,-0.21204,0
2024-12-11 19:37:57.015,-0.514756,2.68146,7.3331,-0.312067,0.277859,-0.21143,0
2024-12-11 19:37:57.018,-0.538684,2.67667,7.49342,-0.337111,0.291298,-0.209597,0
2024-12-11 19:37:57.020,-0.565005,2.68624,7.66361,-0.361545,0.302904,-0.205321,0
2024-12-11 19:37:57.025,-0.600898,2.66471,8.08475,-0.383536,0.312067,-0.20471,0
2024-12-11 19:37:57.025,-0.600898,2.66471,8.08475,-0.383536,0.312067,-0.20471,0
2024-12-11 19:37:57.027,-0.593719,2.68624,8.27408,-0.4153,0.32917,-0.199213,0
2024-12-11 19:37:57.030,-0.557827,2.71017,8.46311,-0.424462,0.338944,-0.198602,0
2024-12-11 19:37:57.033,-0.531506,2.71735,8.64736,-0.433014,0.357269,-0.198602,0
2024-12-11 19:37:57.035,-0.50997,2.74846,8.83669,-0.431793,0.369486,-0.198602,0
2024-12-11 19:37:57.036,-0.490828,2.79631,9.02094,-0.431793,0.369486,-0.198602,0
2024-12-11 19:37:57.039,-0.490828,2.82263,9.17647,-0.431793,0.369486,-0.198602,0
2024-12-11 19:37:57.041,-0.507577,2.85135,9.33709,-0.431182,0.381703,-0.198602,0
2024-12-11 19:37:57.044,-0.507577,2.8992,9.47827,-0.412856,0.402472,-0.198602,0
2024-12-11 19:37:57.046,-0.498006,2.92552,9.61227,-0.40125,0.40858,-0.19738,0
2024-12-11 19:37:57.048,-0.490828,2.95663,9.76541,-0.383536,0.414689,-0.199823,0
2024-12-11 19:37:57.052,-0.4669,3.0021,9.87099,-0.367043,0.421408,-0.199823,0
2024-12-11 19:37:57.055,-0.452543,3.04756,10.06,-0.367043,0.421408,-0.199823,0
2024-12-11 19:37:57.056,-0.452543,3.04756,10.06,-0.308401,0.431182,-0.197991,0
2024-12-11 19:37:57.061,-0.409472,3.08854,10.2371,-0.26381,0.433014,-0.199823,0
2024-12-11 19:37:57.062,-0.287438,3.11964,10.3137,-0.26381,0.433014,-0.199823,0
2024-12-11 19:37:57.062,-0.287438,3.11964,10.3137,-0.26381,0.433014,-0.199823,0
2024-12-11 19:37:57.066,-0.282652,3.14357,10.3929,-0.24243,0.434847,-0.202878,0
2024-12-11 19:37:57.072,-0.349651,3.20578,10.5652,-0.196006,0.445842,-0.199823,0
2024-12-11 19:37:57.073,-0.349651,3.20578,10.5652,-0.196006,0.445842,-0.199823,0
2024-12-11 19:37:57.074,-0.22014,3.18664,10.5652,-0.151414,0.462335,-0.199823,0
2024-12-11 19:37:57.077,-0.148355,3.18903,10.582,-0.132477,0.462335,-0.200434,0
2024-12-11 19:37:57.079,-0.143569,3.201,10.6059,-0.115374,0.462335,-0.205932,0
2024-12-11 19:37:57.081,-0.193819,3.19621,10.637,-0.115374,0.462335,-0.205932,0
2024-12-11 19:37:57.084,-0.270389,3.17228,10.6681,-0.0964375,0.455005,-0.21876,0
2024-12-11 19:37:57.084,-0.270389,3.17228,10.6681,-0.0964375,0.455005,-0.21876,0
2024-12-11 19:37:57.086,-0.337687,3.15075,10.6872,-0.0848314,0.45134,-0.225479,0
2024-12-11 19:37:57.089,-0.387936,3.15793,10.6944,-0.0775012,0.439123,-0.241972,0
2024-12-11 19:37:57.091,-0.421436,3.18186,10.7088,-0.0775012,0.439123,-0.241972,0
2024-12-11 19:37:57.093,-0.452543,3.18903,10.7016,-0.0750579,0.435458,-0.246859,0
2024-12-11 19:37:57.096,-0.459721,3.21536,10.6801,-0.0768904,0.431793,-0.256632,0
2024-12-11 19:37:57.098,-0.462114,3.25843,10.6992,-0.0805555,0.422019,-0.268238,0
2024-12-11 19:37:57.100,-0.490828,3.28475,10.7399,-0.0878856,0.413467,-0.278623,0
2024-12-11 19:37:57.102,-0.531506,3.28953,10.7758,-0.0994917,0.401861,-0.29084,0
2024-12-11 19:37:57.105,-0.576969,3.27996,10.8141,-0.11232,0.389033,-0.303057,0
2024-12-11 19:37:57.107,-0.608076,3.25364,10.8763,-0.125147,0.37254,-0.318328,0
2024-12-11 19:37:57.109,-0.634397,3.21296,10.9675,-0.140419,0.354215,-0.332377,0
2024-12-11 19:37:57.112,-0.663111,3.18664,11.0608,-0.154468,0.331614,-0.346427,0
2024-12-11 19:37:57.114,-0.703789,3.17946,11.1733,-0.170961,0.310234,-0.362309,0
2024-12-11 19:37:57.118,-0.766002,3.15793,11.3192,-0.196616,0.265642,-0.391019,0
2024-12-11 19:37:57.119,-0.830609,3.15314,11.4676,-0.196616,0.265642,-0.391019,0
2024-12-11 19:37:57.121,-0.893121,3.15553,11.6378,-0.210666,0.246706,-0.404457,0
2024-12-11 19:37:57.124,-0.957727,3.12443,11.8196,-0.222272,0.226548,-0.414842,0
2024-12-11 19:37:57.126,-1.02473,3.11007,11.9991,-0.229602,0.207001,-0.424615,0
2024-12-11 19:37:57.128,-1.07976,3.08584,12.1837,-0.235711,0.186843,-0.431945,0
2024-12-11 19:37:57.131,-1.10608,3.05474,12.3751,-0.240597,0.166685,-0.438054,0
2024-12-11 19:37:57.133,-1.14676,3.03559,12.5856,-0.240597,0.166685,-0.438054,0
2024-12-11 19:37:57.135,-1.18265,3.00449,12.7989,-0.241208,0.126369,-0.441719,0
2024-12-11 19:37:57.139,-1.18983,2.95663,13.0167,-0.230213,0.111709,-0.439886,0
2024-12-11 19:37:57.141,-1.18026,2.9016,13.2371,-0.199671,0.0915507,-0.434389,0
2024-12-11 19:37:57.142,-1.15633,2.84656,13.4333,-0.199671,0.0915507,-0.434389,0
2024-12-11 19:37:57.145,-1.12283,2.78913,13.5984,-0.178902,0.090329,-0.426448,0
2024-12-11 19:37:57.147,-1.0678,2.7341,13.7396,-0.152635,0.0958267,-0.42095,0
2024-12-11 19:37:57.152,-0.862014,2.72931,13.9337,-0.090329,0.129423,-0.403846,0
2024-12-11 19:37:57.153,-0.862014,2.72931,13.9337,-0.090329,0.129423,-0.403846,0
2024-12-11 19:37:57.154,-0.744467,2.78913,13.9409,-0.0518457,0.161187,-0.396516,0
2024-12-11 19:37:57.157,-0.591326,2.88245,13.8739,-0.0096972,0.200892,-0.392851,0
2024-12-11 19:37:57.160,-0.426222,2.99013,13.7276,0.0745997,0.306569,-0.395295,0
2024-12-11 19:37:57.162,-0.253639,3.08345,13.5458,0.115526,0.358491,-0.403846,0
2024-12-11 19:37:57.164,-0.11007,3.14836,13.3304,0.115526,0.358491,-0.403846,0
2024-12-11 19:37:57.166,0.00239282,3.17946,13.0741,0.148512,0.401861,-0.417896,0
2024-12-11 19:37:57.168,0.117248,3.16511,12.8181,0.177833,0.425684,-0.438054,0
2024-12-11 19:37:57.173,0.275175,3.01884,12.3272,0.207154,0.428128,-0.486922,0
2024-12-11 19:37:57.173,0.275175,3.01884,12.3272,0.207154,0.428128,-0.486922,0
2024-12-11 19:37:57.175,0.251246,2.89681,12.1071,0.209597,0.410413,-0.516853,0
2024-12-11 19:37:57.178,0.165105,2.76042,11.9656,0.202878,0.380481,-0.547396,0
2024-12-11 19:37:57.180,0.0598206,2.61207,11.8723,0.186996,0.337722,-0.577327,0
2024-12-11 19:37:57.184,-0.0382852,2.4323,11.8412,0.163173,0.279081,-0.607869,0
2024-12-11 19:37:57.185,-0.119641,2.24806,11.8699,0.131409,0.207612,-0.631692,0
2024-12-11 19:37:57.187,-0.222533,2.03031,11.9608,0.0898709,0.123926,-0.662846,0
2024-12-11 19:37:57.190,-0.342473,1.80509,12.131,0.0446682,0.0359636,-0.689112,0
2024-12-11 19:37:57.192,-0.435793,1.58734,12.3559,-0.00664296,-0.0562743,-0.715379,0
2024-12-11 19:37:57.195,-0.505185,1.3669,12.6362,-0.11965,-0.243804,-0.772187,0
2024-12-11 19:37:57.197,-0.569791,1.1683,12.9879,-0.11965,-0.243804,-0.772187,0
2024-12-11 19:37:57.199,-0.641576,0.991227,13.4118,-0.175848,-0.335431,-0.800897,0
2024-12-11 19:37:57.201,-0.71336,0.876371,13.8954,-0.228381,-0.422783,-0.829607,0
2024-12-11 19:37:57.205,-0.775574,0.80668,14.3958,-0.279692,-0.499749,-0.856484,0
2024-12-11 19:37:57.206,-0.797109,0.758824,14.968,-0.279692,-0.499749,-0.856484,0
2024-12-11 19:37:57.208,-0.792323,0.74686,15.588,-0.35788,-0.612145,-0.905352,0
2024-12-11 19:37:57.212,-0.756431,0.744467,16.1722,-0.394531,-0.654294,-0.946279,0
2024-12-11 19:37:57.214,-0.689432,0.751645,16.73,-0.394531,-0.654294,-0.946279,0
2024-12-11 19:37:57.215,-0.593719,0.73011,17.2759,-0.391477,-0.646353,-0.968269,0
2024-12-11 19:37:57.218,-0.459721,0.677468,17.7811,-0.378649,-0.626195,-0.989038,0
2024-12-11 19:37:57.221,-0.325723,0.610469,18.2285,-0.311456,-0.552893,-1.02874,0
2024-12-11 19:37:57.223,-0.196211,0.519542,18.6117,-0.311456,-0.552893,-1.02874,0
2024-12-11 19:37:57.225,-0.0765703,0.419043,18.8871,-0.257701,-0.500971,-1.04829,0
2024-12-11 19:37:57.227,0.0311067,0.285045,19.057,-0.194784,-0.441719,-1.06539,0
2024-12-11 19:37:57.232,0.210568,-0.0215354,19.1456,-0.0371853,-0.314663,-1.09288,0
2024-12-11 19:37:57.233,0.210568,-0.0215354,19.1456,-0.0371853,-0.314663,-1.09288,0
2024-12-11 19:37:57.234,0.292223,-0.191426,19.0834,-0.0371853,-0.314663,-1.09288,1
2024-12-11 19:37:57.237,0.35683,-0.390329,18.9087,0.141182,-0.196769,-1.10693,0
2024-12-11 19:37:57.239,0.392722,-0.576969,18.6739,0.240139,-0.13935,-1.1106,0
2024-12-11 19:37:57.241,0.414257,-0.720539,18.3867,0.332988,-0.0843733,-1.1106,0
2024-12-11 19:37:57.244,0.442971,-0.845265,18.0467,0.42828,-0.0275645,-1.10327,0
2024-12-11 19:37:57.246,0.4669,-0.957727,17.6707,0.519907,0.0298552,-1.09594,0
2024-12-11 19:37:57.248,0.495613,-1.01515,17.2639,0.61581,0.0860531,-1.08555,0
2024-12-11 19:37:57.252,0.524327,-1.04148,16.8425,0.704994,0.137975,-1.07211,0
2024-12-11 19:37:57.254,0.536291,-1.05583,16.4019,0.872366,0.236322,-1.04218,0
2024-12-11 19:37:57.256,0.538684,-1.04387,15.923,0.872366,0.236322,-1.04218,0
2024-12-11 19:37:57.259,0.52672,-1.02951,15.425,1.0208,0.327338,-1.01042,0
2024-12-11 19:37:57.263,0.512363,-1.0008,14.9465,1.08494,0.370097,-0.993314,0
2024-12-11 19:37:57.265,0.474078,-0.929013,14.0486,1.14664,0.40858,-0.97621,0
2024-12-11 19:37:57.265,0.474078,-0.929013,14.0486,1.14664,0.40858,-0.97621,0
2024-12-11 19:37:57.268,0.454935,-0.885943,13.6032,1.24987,0.466611,-0.949944,0
2024-12-11 19:37:57.270,0.442971,-0.830609,13.165,1.24987,0.466611,-0.949944,0
2024-12-11 19:37:57.274,0.404686,-0.761217,12.3153,1.33172,0.506316,-0.931618,0
2024-12-11 19:37:57.277,0.378365,-0.708575,11.9297,1.36288,0.518533,-0.926732,0
2024-12-11 19:37:57.278,0.378365,-0.708575,11.9297,1.36288,0.518533,-0.926732,0
2024-12-11 19:37:57.280,0.35683,-0.658325,11.554,1.39953,0.518533,-0.92551,0
2024-12-11 19:37:57.281,0.318545,-0.622433,11.1924,1.39953,0.518533,-0.92551,0
2024-12-11 19:37:57.284,0.272782,-0.596112,10.8452,1.41113,0.511203,-0.929175,0
2024-12-11 19:37:57.287,0.229711,-0.574577,10.515,1.41297,0.482493,-0.939559,0
2024-12-11 19:37:57.289,0.189033,-0.555434,10.1988,1.41297,0.482493,-0.939559,0
2024-12-11 19:37:57.291,0.160319,-0.536291,9.91646,1.4038,0.459892,-0.94689,0
2024-12-11 19:37:57.293,0.0981057,-0.512363,9.65055,1.39036,0.432404,-0.956052,0
2024-12-11 19:37:57.297,0.0119641,-0.498006,9.39931,1.37021,0.396364,-0.96888,0
2024-12-11 19:37:57.298,-0.0646062,-0.471685,9.1669,1.37021,0.396364,-0.96888,0
2024-12-11 19:37:57.300,-0.138784,-0.440578,8.94676,1.31157,0.308401,-0.998812,0
2024-12-11 19:37:57.303,-0.229711,-0.409472,8.76012,1.27614,0.255258,-1.01469,0
2024-12-11 19:37:57.305,-0.342473,-0.378365,8.62343,1.23582,0.197227,-1.03241,0
2024-12-11 19:37:57.308,-0.457328,-0.344866,8.52293,1.19184,0.137364,-1.0489,0
2024-12-11 19:37:57.311,-0.538684,-0.318545,8.43679,1.09594,0.00297788,-1.0825,0
2024-12-11 19:37:57.312,-0.610469,-0.287438,8.39372,1.09594,0.00297788,-1.0825,0
2024-12-11 19:37:57.314,-0.679861,-0.27996,8.37697,1.04707,-0.0666587,-1.10021,0
2024-12-11 19:37:57.318,-0.725324,-0.287438,8.4009,0.996368,-0.138128,-1.11548,0
2024-12-11 19:37:57.319,-0.732503,-0.313759,8.46311,0.944446,-0.208986,-1.13503,0
2024-12-11 19:37:57.324,-0.667897,-0.395115,8.68325,0.848543,-0.347648,-1.17474,0
2024-12-11 19:37:57.324,-0.667897,-0.395115,8.68325,0.848543,-0.347648,-1.17474,0
2024-12-11 19:37:57.326,-0.586541,-0.454935,8.81037,0.80334,-0.412398,-1.19673,0
2024-12-11 19:37:57.330,-0.498006,-0.512363,8.96351,0.724541,-0.527848,-1.24926,0
2024-12-11 19:37:57.333,-0.35683,-0.600898,9.3012,0.692777,-0.577938,-1.27736,0
2024-12-11 19:37:57.334,-0.35683,-0.600898,9.3012,0.668954,-0.623141,-1.30301,0
2024-12-11 19:37:57.336,-0.311366,-0.648754,9.46152,0.668954,-0.623141,-1.30301,0
2024-12-11 19:37:57.338,-0.253639,-0.684646,9.6338,0.645131,-0.663456,-1.32928,0
2024-12-11 19:37:57.341,-0.196211,-0.708575,9.77977,0.628638,-0.700107,-1.35555,0
2024-12-11 19:37:57.344,-0.148355,-0.708575,9.88296,0.610924,-0.760581,-1.4038,0
2024-12-11 19:37:57.346,-0.107677,-0.708575,9.96192,0.610924,-0.760581,-1.4038,0
2024-12-11 19:37:57.347,-0.0765703,-0.715753,10.017,0.606648,-0.787458,-1.4264,0
2024-12-11 19:37:57.350,-0.040678,-0.71336,10.06,0.609091,-0.813725,-1.44717,0
2024-12-11 19:37:57.352,-0.00717847,-0.720539,10.0935,0.613367,-0.838159,-1.46672,0
2024-12-11 19:37:57.354,0.0143569,-0.718146,10.1103,0.620697,-0.861982,-1.48627,0
2024-12-11 19:37:57.357,0.040678,-0.722932,10.1222,0.630471,-0.888248,-1.50276,0
2024-12-11 19:37:57.359,0.0933201,-0.732503,10.1294,0.642077,-0.918791,-1.51803,0
2024-12-11 19:37:57.362,0.16989,-0.71336,10.1103,0.661013,-0.944446,-1.53391,0
2024-12-11 19:37:57.364,0.263211,-0.701396,10.0792,0.678117,-0.975599,-1.55285,0
2024-12-11 19:37:57.366,0.34008,-0.701396,10.0552,0.697053,-1.00675,-1.5724,0
2024-12-11 19:37:57.369,0.421436,-0.694218,10.0313,0.719654,-1.03913,-1.59011,0
2024-12-11 19:37:57.372,0.52672,-0.672682,9.98585,0.764857,-1.10327,-1.63165,0
2024-12-11 19:37:57.373,0.629611,-0.639183,9.9332,0.764857,-1.10327,-1.63165,0
2024-12-11 19:37:57.377,0.718146,-0.60329,9.86142,0.808838,-1.15336,-1.67624,0
2024-12-11 19:37:57.379,0.813859,-0.567398,9.76302,0.808838,-1.15336,-1.67624,0
2024-12-11 19:37:57.380,0.917049,-0.548256,9.65055,0.808838,-1.15336,-1.67624,0
2024-12-11 19:37:57.383,0.99362,-0.529113,9.54766,0.85343,-1.1955,-1.72205,0
2024-12-11 19:37:57.387,1.0654,-0.514756,9.45434,0.890692,-1.23399,-1.77398,0
2024-12-11 19:37:57.387,1.12762,-0.507577,9.36581,0.890692,-1.23399,-1.77398,0
2024-12-11 19:37:57.390,1.18026,-0.500399,9.25544,0.906574,-1.25109,-1.80024,0
2024-12-11 19:37:57.392,1.22812,-0.488435,9.12623,0.919401,-1.26636,-1.82834,0
2024-12-11 19:37:57.394,1.28315,-0.483649,8.99701,0.929786,-1.27369,-1.85705,0
2024-12-11 19:37:57.397,1.32861,-0.493221,8.87259,0.938949,-1.28163,-1.88271,0
2024-12-11 19:37:57.400,1.34297,-0.490828,8.7362,0.945668,-1.28102,-1.93776,0
2024-12-11 19:37:57.403,1.35494,-0.478864,8.6019,0.946279,-1.27308,-1.96158,0
2024-12-11 19:37:57.404,1.38844,-0.481256,8.46311,0.946279,-1.27308,-1.96158,0
2024-12-11 19:37:57.406,1.4342,-0.483649,8.31954,0.942003,-1.26514,-1.98602,0
2024-12-11 19:37:57.411,1.50598,-0.452543,8.04407,0.921234,-1.24376,-2.03366,0
2024-12-11 19:37:57.411,1.50598,-0.452543,8.04407,0.921234,-1.24376,-2.03366,0
2024-12-11 19:37:57.413,1.57059,-0.447757,7.92204,0.907795,-1.23399,-2.05504,0
2024-12-11 19:37:57.416,1.62562,-0.4334,7.8,0.887027,-1.22727,-2.07887,0
2024-12-11 19:37:57.418,1.65434,-0.421436,7.66601,0.862593,-1.21505,-2.10147,0
2024-12-11 19:37:57.421,1.65194,-0.407079,7.5676,0.838159,-1.201,-2.12407,0
2024-12-11 19:37:57.423,1.65673,-0.397508,7.48624,0.807616,-1.18634,-2.14484,0
2024-12-11 19:37:57.425,1.67827,-0.385544,7.40967,0.776463,-1.1729,-2.16561,0
2024-12-11 19:37:57.428,1.71416,-0.371187,7.34268,0.739812,-1.15641,-2.18332,0
2024-12-11 19:37:57.430,1.73091,-0.352044,7.29003,0.706827,-1.1387,-2.20409,0
2024-12-11 19:37:57.433,1.70937,-0.352044,7.23739,0.62986,-1.10266,-2.23708,0
2024-12-11 19:37:57.435,1.68784,-0.352044,7.20389,0.62986,-1.10266,-2.23708,0
2024-12-11 19:37:57.438,1.65912,-0.332901,7.19193,0.555947,-1.06478,-2.26456,0
2024-12-11 19:37:57.440,1.6352,-0.32333,7.17518,0.555947,-1.06478,-2.26456,0
2024-12-11 19:37:57.442,1.62562,-0.330509,7.15125,0.51441,-1.05073,-2.27678,0
2024-12-11 19:37:57.444,1.61127,-0.318545,7.14886,0.477759,-1.03302,-2.28533,0
2024-12-11 19:37:57.447,1.60648,-0.297009,7.17039,0.441108,-1.01714,-2.29633,0
2024-12-11 19:37:57.449,1.61127,-0.292223,7.18236,0.441108,-1.01714,-2.29633,0
2024-12-11 19:37:57.452,1.58255,-0.297009,7.21825,0.338486,-0.96888,-2.32565,0
2024-12-11 19:37:57.453,1.52513,-0.313759,7.27328,0.338486,-0.96888,-2.32565,0
2024-12-11 19:37:57.456,1.47488,-0.349651,7.32353,0.306111,-0.949944,-2.33298,0
2024-12-11 19:37:57.458,1.44616,-0.378365,7.39053,0.278623,-0.931008,-2.3397,0
2024-12-11 19:37:57.460,1.43659,-0.385544,7.44317,0.250524,-0.916958,-2.34581,0
2024-12-11 19:37:57.463,1.43898,-0.395115,7.49103,0.223646,-0.903519,-2.35069,0
2024-12-11 19:37:57.466,1.43181,-0.404686,7.54607,0.200434,-0.891913,-2.35802,0
2024-12-11 19:37:57.467,1.41745,-0.404686,7.6014,0.200434,-0.891913,-2.35802,0
2024-12-11 19:37:57.475,1.38844,-0.383151,7.79283,0.113083,-0.873588,-2.38307,0
2024-12-11 19:37:57.476,1.3669,-0.383151,7.79283,0.0917034,-0.872977,-2.38918,0
2024-12-11 19:37:57.477,1.35972,-0.397508,7.86222,0.0917034,-0.872977,-2.38918,0
2024-12-11 19:37:57.479,1.35972,-0.397508,7.934,0.0703238,-0.869923,-2.39651,0
2024-12-11 19:37:57.479,1.35254,-0.421436,7.934,0.0703238,-0.869923,-2.39651,0
2024-12-11 19:37:57.482,1.33819,-0.447757,8.02493,0.0703238,-0.869923,-2.39651,0
2024-12-11 19:37:57.484,1.34297,-0.469292,8.15444,0.033673,-0.857095,-2.41361,0
2024-12-11 19:37:57.486,1.3334,-0.486042,8.28365,0.0147367,-0.851597,-2.42338,0
2024-12-11 19:37:57.489,1.32622,-0.505185,8.38415,-0.00175619,-0.851597,-2.43255,0
2024-12-11 19:37:57.492,1.31665,-0.517149,8.50379,-0.0402396,-0.865647,-2.44843,0
2024-12-11 19:37:57.493,1.29512,-0.533899,8.64975,-0.0402396,-0.865647,-2.44843,0
2024-12-11 19:37:57.500,1.15394,-0.60329,9.05205,-0.0854423,-0.905352,-2.47653,0
2024-12-11 19:37:57.500,1.15394,-0.60329,9.05205,-0.0854423,-0.905352,-2.47653,0
2024-12-11 19:37:57.503,1.10369,-0.624826,9.21237,-0.0988809,-0.924899,-2.48569,0
2024-12-11 19:37:57.505,1.06301,-0.639183,9.39691,-0.0988809,-0.924899,-2.48569,0
2024-12-11 19:37:57.508,1.01037,-0.65354,9.55723,-0.114763,-0.970102,-2.50218,0
2024-12-11 19:37:57.508,1.01037,-0.65354,9.55723,-0.114763,-0.970102,-2.50218,0
2024-12-11 19:37:57.510,0.945763,-0.675075,9.71994,-0.118428,-0.989038,-2.51012,0
2024-12-11 19:37:57.512,0.88355,-0.703789,9.88535,-0.122704,-1.00736,-2.51623,0
2024-12-11 19:37:57.515,0.804287,-0.71336,10.0528,-0.122704,-1.02386,-2.52295,0
2024-12-11 19:37:57.519,0.672682,-0.691825,10.3905,-0.119039,-1.03852,-2.52784,0
2024-12-11 19:37:57.519,0.672682,-0.691825,10.3905,-0.119039,-1.03852,-2.52784,0
2024-12-11 19:37:57.524,0.567398,-0.682254,10.6705,-0.0988809,-1.07822,-2.54006,0
2024-12-11 19:37:57.526,0.521934,-0.663111,10.7877,-0.0884965,-1.08922,-2.54677,0
2024-12-11 19:37:57.529,0.521934,-0.663111,10.7877,-0.0884965,-1.08922,-2.54677,0
2024-12-11 19:37:57.531,0.45015,-0.63679,10.9795,-0.0597867,-1.10632,-2.548,0
2024-12-11 19:37:57.531,0.45015,-0.63679,10.9795,-0.0597867,-1.10632,-2.548,0
2024-12-11 19:37:57.534,0.435793,-0.629611,11.0465,-0.0445155,-1.11671,-2.55044,0
2024-12-11 19:37:57.536,0.404686,-0.629611,11.1039,-0.0274118,-1.1222,-2.55227,0
2024-12-11 19:37:57.539,0.361615,-0.629611,11.1637,-0.0096972,-1.13137,-2.55105,0
2024-12-11 19:37:57.543,0.267996,-0.629611,11.1948,0.00984991,-1.13564,-2.55105,0
2024-12-11 19:37:57.545,0.205783,-0.634397,11.19,0.0483333,-1.14541,-2.54555,0
2024-12-11 19:37:57.546,0.205783,-0.634397,11.19,0.065437,-1.14541,-2.54067,0
2024-12-11 19:37:57.548,0.162712,-0.63679,11.1781,0.065437,-1.14541,-2.54067,0
2024-12-11 19:37:57.551,0.136391,-0.63679,11.1398,0.10331,-1.13747,-2.52234,0
2024-12-11 19:37:57.553,0.117248,-0.643968,11.0967,0.10331,-1.13747,-2.52234,0
2024-12-11 19:37:57.557,0.129212,-0.629611,10.9914,0.136906,-1.11793,-2.50279,0
2024-12-11 19:37:57.560,0.155533,-0.632004,10.917,0.151566,-1.10327,-2.49363,0
2024-12-11 19:37:57.560,0.155533,-0.632004,10.917,0.151566,-1.10327,-2.49363,0
2024-12-11 19:37:57.562,0.181855,-0.622433,10.826,0.162562,-1.08494,-2.4808,0
2024-12-11 19:37:57.564,0.212961,-0.600898,10.7423,0.176611,-1.06539,-2.46981,0
2024-12-11 19:37:57.566,0.248854,-0.591326,10.6585,0.188217,-1.04279,-2.46003,0
2024-12-11 19:37:57.569,0.272782,-0.574577,10.57,0.196158,-1.02141,-2.44782,0
2024-12-11 19:37:57.572,0.282652,-0.541077,10.4575,0.206543,-0.970713,-2.42277,0
2024-12-11 19:37:57.573,0.275175,-0.524327,10.3256,0.206543,-0.970713,-2.42277,0
2024-12-11 19:37:57.576,0.260818,-0.498006,10.206,0.212651,-0.943225,-2.40689,0
2024-12-11 19:37:57.578,0.244068,-0.4669,10.1007,0.21143,-0.916958,-2.39162,0
2024-12-11 19:37:57.581,0.234497,-0.4334,10.0122,0.213262,-0.888248,-2.37757,0
2024-12-11 19:37:57.584,0.227318,-0.385544,9.91646,0.21143,-0.867479,-2.36047,0
2024-12-11 19:37:57.585,0.210568,-0.337687,9.80848,0.205932,-0.843656,-2.34153,0
2024-12-11 19:37:57.588,0.179462,-0.285045,9.71037,0.202878,-0.825331,-2.32748,0
2024-12-11 19:37:57.591,0.143569,-0.236889,9.61945,0.196769,-0.805784,-2.3116,0
2024-12-11 19:37:57.593,0.114855,-0.189033,9.54288,0.188828,-0.787458,-2.29388,0
2024-12-11 19:37:57.597,0.081356,-0.107677,9.45195,0.172335,-0.75264,-2.26762,0
2024-12-11 19:37:57.598,0.081356,-0.107677,9.45195,0.172335,-0.75264,-2.26762,0
2024-12-11 19:37:57.602,0.00957129,-0.00717847,9.42323,0.155842,-0.720876,-2.24074,0
2024-12-11 19:37:57.602,0.00957129,-0.00717847,9.42323,0.155842,-0.720876,-2.24074,0
2024-12-11 19:37:57.605,-0.0358923,0.0191426,9.42563,0.149734,-0.704994,-2.22791,0
2024-12-11 19:37:57.610,-0.0909273,0.0789631,9.47588,0.13935,-0.662846,-2.2047,0
2024-12-11 19:37:57.611,-0.107677,0.0909273,9.49981,0.13935,-0.662846,-2.2047,0
2024-12-11 19:37:57.612,-0.107677,0.0909273,9.49981,0.138128,-0.649407,-2.20042,0
2024-12-11 19:37:57.614,-0.119641,0.0717847,9.52373,0.138128,-0.649407,-2.20042,0
2024-12-11 19:37:57.616,-0.131605,0.0502493,9.53809,0.13996,-0.639633,-2.19859,0
2024-12-11 19:37:57.618,-0.124427,0.0478565,9.54527,0.142404,-0.626806,-2.19798,0
2024-12-11 19:37:57.621,-0.145962,0.040678,9.54048,0.14668,-0.613367,-2.1992,0
2024-12-11 19:37:57.624,-0.191426,0.0215354,9.53091,0.152788,-0.596263,-2.20531,0
2024-12-11 19:37:57.625,-0.244068,0.026321,9.52613,0.152788,-0.596263,-2.20531,0
2024-12-11 19:37:57.628,-0.304188,0.0287139,9.52134,0.157675,-0.589544,-2.21081,0
2024-12-11 19:37:57.630,-0.371187,0.026321,9.50459,0.161951,-0.588322,-2.2157,0
2024-12-11 19:37:57.632,-0.457328,0.0454636,9.47827,0.165616,-0.58649,-2.22303,0
2024-12-11 19:37:57.635,-0.533899,0.0526421,9.43998,0.166838,-0.584046,-2.2273,0
2024-12-11 19:37:57.638,-0.610469,0.0550349,9.39931,0.171724,-0.581603,-2.2383,0
2024-12-11 19:37:57.642,-0.689432,0.0478565,9.37299,0.171724,-0.581603,-2.2383,0
