timestamp,accel_x,accel_y,accel_z,gyro_x,gyro_y,gyro_z,step_timestamp
2024-12-13 15:29:48.204,-0.30658,3.69183,9.34427,0.0194708,0.00847551,0.00763559,0
2024-12-13 15:29:48.204,-0.30658,3.69183,9.34427,0.0194708,0.00847551,0.00763559,0
2024-12-13 15:29:48.206,-0.299402,3.69661,9.35384,0.0194708,0.00664296,0.00824644,0
2024-12-13 15:29:48.209,-0.299402,3.69661,9.35384,0.0213033,0.00603212,0.00763559,0
2024-12-13 15:29:48.209,-0.282652,3.69422,9.35384,0.0213033,0.00603212,0.00763559,0
2024-12-13 15:29:48.211,-0.277567,3.71097,9.33949,0.0182491,0.00419957,0.00702474,0
2024-12-13 15:29:48.211,-0.277567,3.71097,9.33949,0.0182491,0.00419957,0.00702474,0
2024-12-13 15:29:48.213,-0.285045,3.71097,9.3347,0.0176382,0.00358873,0.00702474,0
2024-12-13 15:29:48.216,-0.285045,3.71097,9.3347,0.0176382,0.00358873,0.00824644,0
2024-12-13 15:29:48.216,-0.282652,3.68704,9.3347,0.0176382,0.00358873,0.00824644,0
2024-12-13 15:29:48.216,-0.282652,3.68704,9.3347,0.0176382,0.00358873,0.00824644,0
2024-12-13 15:29:48.218,-0.270389,3.68704,9.3347,0.0151948,0.000534491,0.0064139,0
2024-12-13 15:29:48.218,-0.270389,3.68704,9.3347,0.0151948,0.000534491,0.0064139,0
2024-12-13 15:29:48.223,-0.285045,3.71575,9.32513,0.0121406,-0.00251974,0.00885729,0
2024-12-13 15:29:48.223,-0.285045,3.71575,9.32513,0.0121406,-0.00251974,0.00885729,0
2024-12-13 15:29:48.225,-0.27996,3.71815,9.33231,0.0109189,-0.00129805,0.00824644,0
2024-12-13 15:29:48.227,-0.27996,3.70858,9.33231,0.010308,-0.00374144,0.00763559,0
2024-12-13 15:29:48.227,-0.272782,3.70858,9.33231,0.010308,-0.00374144,0.00763559,0
2024-12-13 15:29:48.230,-0.287438,3.70858,9.30838,0.00725381,-0.00251974,0.00946813,0
2024-12-13 15:29:48.232,-0.287438,3.70858,9.30838,0.00358873,-0.00313059,0.010079,0
2024-12-13 15:29:48.232,-0.289831,3.71336,9.29642,0.00358873,-0.00313059,0.010079,0
2024-12-13 15:29:48.234,-0.289831,3.69422,9.30838,-7.63559e-05,-0.000687203,0.00946813,0
2024-12-13 15:29:48.237,-0.301795,3.67508,9.32034,-0.000687203,-0.000687203,0.0119115,0
2024-12-13 15:29:48.239,-0.30658,3.68465,9.31316,-0.0019089,-7.63559e-05,0.0137441,0
2024-12-13 15:29:48.239,-0.30658,3.68465,9.31316,-0.0019089,-7.63559e-05,0.0137441,0
2024-12-13 15:29:48.241,-0.301795,3.7014,9.31316,-0.00557398,-7.63559e-05,0.0143549,0
2024-12-13 15:29:48.244,-0.301795,3.69183,9.34427,-0.00740652,-0.00251974,0.0125224,0
2024-12-13 15:29:48.246,-0.308973,3.67747,9.3682,-0.0104608,-0.00374144,0.0155766,0
2024-12-13 15:29:48.247,-0.308973,3.67747,9.3682,-0.0104608,-0.00251974,0.0155766,0
2024-12-13 15:29:48.249,-0.294616,3.68226,9.38495,-0.0104608,-0.00251974,0.0155766,0
2024-12-13 15:29:48.251,-0.285045,3.67986,9.39931,-0.0104608,-0.00129805,0.01802,0
2024-12-13 15:29:48.253,-0.285045,3.67029,9.41127,-0.0147367,-0.00251974,0.0167983,0
2024-12-13 15:29:48.256,-0.289831,3.65593,9.43759,-0.0147367,-0.000687203,0.0174091,0
2024-12-13 15:29:48.256,-0.289831,3.65593,9.43759,-0.0147367,-0.000687203,0.0174091,0
2024-12-13 15:29:48.260,-0.267996,3.63649,9.48784,-0.0104608,0.00236703,0.0167983,0
2024-12-13 15:29:48.260,-0.267996,3.63649,9.48784,-0.0104608,0.00236703,0.0167983,0
2024-12-13 15:29:48.270,-0.246461,3.66551,9.54288,-0.00862822,-0.000687203,0.0204634,0
2024-12-13 15:29:48.270,-0.246461,3.66551,9.54288,-0.00862822,-0.000687203,0.0204634,0
2024-12-13 15:29:48.270,-0.246461,3.66551,9.54288,-0.00862822,-0.000687203,0.0204634,0
2024-12-13 15:29:48.270,-0.246461,3.66551,9.54288,-0.00862822,-0.000687203,0.0204634,0
2024-12-13 15:29:48.272,-0.248854,3.67747,9.55245,-0.00618483,-0.00435229,0.0198525,0
2024-12-13 15:29:48.272,-0.248854,3.67747,9.55245,-0.00618483,-0.00435229,0.0198525,0
2024-12-13 15:29:48.277,-0.253639,3.65354,9.56202,-0.00313059,-0.00740652,0.0210742,0
2024-12-13 15:29:48.277,-0.253639,3.65354,9.56202,-0.00313059,-0.00740652,0.0210742,0
2024-12-13 15:29:48.282,-0.263211,3.65354,9.5692,0.00481042,-0.0116825,0.0210742,0
2024-12-13 15:29:48.282,-0.263211,3.65354,9.5692,0.00481042,-0.0116825,0.0210742,0
2024-12-13 15:29:48.289,-0.239282,3.64367,9.55484,0.00786466,-0.0177909,0.0229068,0
2024-12-13 15:29:48.289,-0.239282,3.64367,9.55484,0.00786466,-0.0177909,0.0229068,0
2024-12-13 15:29:48.293,-0.234497,3.65354,9.49741,0.0109189,-0.0208452,0.0247393,0
2024-12-13 15:29:48.293,-0.234497,3.65354,9.49741,0.0109189,-0.0208452,0.0247393,0
2024-12-13 15:29:48.298,-0.210568,3.66551,9.45673,0.0121406,-0.0232886,0.0222959,0
2024-12-13 15:29:48.298,-0.210568,3.66551,9.45673,0.0121406,-0.0232886,0.0222959,0
2024-12-13 15:29:48.303,-0.208176,3.66311,9.43281,0.0127514,-0.0232886,0.0198525,0
2024-12-13 15:29:48.303,-0.215354,3.65354,9.40409,0.0127514,-0.0232886,0.0198525,0
2024-12-13 15:29:48.305,-0.205783,3.65115,9.38495,0.0121406,-0.0226777,0.0216851,0
2024-12-13 15:29:48.310,-0.184247,3.65115,9.36581,0.00908635,-0.0238994,0.0186308,0
2024-12-13 15:29:48.310,-0.16989,3.65115,9.36581,0.00908635,-0.0238994,0.0186308,0
2024-12-13 15:29:48.312,-0.179462,3.64606,9.35145,0.00908635,-0.0238994,0.0186308,0
2024-12-13 15:29:48.314,-0.181855,3.63889,9.35624,0.00908635,-0.0238994,0.0198525,0
2024-12-13 15:29:48.317,-0.18664,3.65115,9.33949,0.00908635,-0.0238994,0.0198525,0
2024-12-13 15:29:48.317,-0.18664,3.65115,9.33949,0.00908635,-0.0238994,0.0198525,0
2024-12-13 15:29:48.319,-0.196211,3.66072,9.33231,0.00786466,-0.0184018,0.0204634,0
2024-12-13 15:29:48.322,-0.191426,3.66551,9.34188,0.00297788,-0.0184018,0.0210742,0
2024-12-13 15:29:48.324,-0.198604,3.68465,9.33709,0.00297788,-0.0153475,0.0210742,0
2024-12-13 15:29:48.326,-0.217747,3.68943,9.33231,0.00114534,-0.0104608,0.0229068,0
2024-12-13 15:29:48.326,-0.217747,3.68943,9.33231,0.00114534,-0.0104608,0.0229068,0
2024-12-13 15:29:48.331,-0.229711,3.66551,9.37299,-0.00251974,-0.00435229,0.0247393,0
2024-12-13 15:29:48.331,-0.229711,3.66551,9.37299,-0.00251974,-0.00435229,0.0247393,0
2024-12-13 15:29:48.336,-0.210568,3.6679,9.39691,-0.00557398,0.00481042,0.0271827,0
2024-12-13 15:29:48.336,-0.210568,3.6679,9.39691,-0.00557398,0.00481042,0.0271827,0
2024-12-13 15:29:48.338,-0.20339,3.67029,9.39691,-0.00557398,0.00786466,0.0284044,0
2024-12-13 15:29:48.340,-0.20339,3.66551,9.39691,-0.0116825,0.0127514,0.0302369,0
2024-12-13 15:29:48.340,-0.20339,3.66551,9.39691,-0.0116825,0.0127514,0.0302369,0
2024-12-13 15:29:48.345,-0.177069,3.65833,9.40648,-0.0116825,0.0151948,0.0296261,0
2024-12-13 15:29:48.347,-0.177069,3.65115,9.41606,-0.0177909,0.0158057,0.0308478,0
2024-12-13 15:29:48.347,-0.177069,3.65115,9.41606,-0.0177909,0.0158057,0.0308478,0
2024-12-13 15:29:48.352,-0.181855,3.6341,9.45434,-0.0220669,0.0121406,0.0284044,0
2024-12-13 15:29:48.355,-0.184247,3.61017,9.45913,-0.0238994,0.00786466,0.0290152,0
2024-12-13 15:29:48.355,-0.184247,3.61017,9.45913,-0.0238994,0.00786466,0.0290152,0
2024-12-13 15:29:48.357,-0.184247,3.59103,9.48066,-0.0263428,0.00358873,0.0296261,0
2024-12-13 15:29:48.362,-0.191426,3.55035,9.5333,-0.0300079,-0.00374144,0.0265719,0
2024-12-13 15:29:48.362,-0.196211,3.55035,9.5333,-0.0300079,-0.00374144,0.0265719,0
2024-12-13 15:29:48.364,-0.18664,3.54556,9.5668,-0.0306187,-0.0104608,0.0265719,0
2024-12-13 15:29:48.366,-0.153141,3.54078,9.6003,-0.0306187,-0.0104608,0.0265719,0
2024-12-13 15:29:48.369,-0.131605,3.53839,9.6338,-0.029397,-0.0208452,0.0216851,0
2024-12-13 15:29:48.371,-0.124427,3.54078,9.65055,-0.0275645,-0.0238994,0.01802,0
2024-12-13 15:29:48.371,-0.124427,3.54078,9.65055,-0.0275645,-0.0238994,0.01802,0
2024-12-13 15:29:48.373,-0.102891,3.54078,9.67209,-0.0245102,-0.0263428,0.0125224,0
2024-12-13 15:29:48.376,-0.0981057,3.55274,9.68645,-0.0184018,-0.0281753,0.00946813,0
2024-12-13 15:29:48.378,-0.105284,3.52642,9.68405,-0.0184018,-0.0269536,0.0051922,0
2024-12-13 15:29:48.380,-0.119641,3.5001,9.7008,-0.0104608,-0.0251211,-0.000305424,0
2024-12-13 15:29:48.380,-0.119641,3.5001,9.7008,-0.0104608,-0.0251211,-0.000305424,0
2024-12-13 15:29:48.385,-0.160319,3.51924,9.73669,0.000534491,-0.0251211,-0.0064139,0
2024-12-13 15:29:48.387,-0.177069,3.52642,9.72952,0.000534491,-0.0251211,-0.00946813,0
2024-12-13 15:29:48.390,-0.193819,3.5336,9.72234,0.0188599,-0.0165692,-0.0125224,0
2024-12-13 15:29:48.390,-0.193819,3.5336,9.72234,0.0188599,-0.0165692,-0.0125224,0
2024-12-13 15:29:48.390,-0.193819,3.5336,9.72234,0.0188599,-0.0165692,-0.0125224,0
2024-12-13 15:29:48.390,-0.193819,3.5336,9.72234,0.0188599,-0.0165692,-0.0125224,0
2024-12-13 15:29:48.392,-0.200997,3.55035,9.71516,0.0268009,-0.013515,-0.0131332,0
2024-12-13 15:29:48.397,-0.224925,3.57906,9.6027,0.0365745,-0.00557398,-0.0155766,0
2024-12-13 15:29:48.402,-0.258425,3.61496,9.48545,0.0561216,0.00603212,-0.0143549,0
2024-12-13 15:29:48.404,-0.258425,3.61496,9.42323,0.0561216,0.00603212,-0.0143549,0
2024-12-13 15:29:48.406,-0.27996,3.63889,9.36341,0.0646735,0.0133623,-0.0143549,0
2024-12-13 15:29:48.406,-0.27996,3.63889,9.36341,0.0646735,0.0133623,-0.0143549,0
2024-12-13 15:29:48.411,-0.299402,3.6341,9.23151,0.0646735,0.0139731,-0.010079,0
2024-12-13 15:29:48.411,-0.299402,3.6341,9.23151,0.0646735,0.0139731,-0.010079,0
2024-12-13 15:29:48.416,-0.267996,3.66072,9.11905,0.0573433,0.00847551,-0.0064139,0
2024-12-13 15:29:48.416,-0.267996,3.66072,9.11905,0.0573433,0.00847551,-0.0064139,0
2024-12-13 15:29:48.420,-0.263211,3.68226,9.05683,0.0469589,-0.00313059,-0.0051922,0
2024-12-13 15:29:48.420,-0.253639,3.68226,9.05683,0.0469589,-0.00313059,-0.0051922,0
2024-12-13 15:29:48.423,-0.232104,3.68465,9.0353,0.0469589,-0.00313059,-0.0051922,0
2024-12-13 15:29:48.425,-0.222533,3.68226,9.02333,0.0322986,-0.0159584,-0.00335966,0
2024-12-13 15:29:48.428,-0.208176,3.68226,9.02094,0.0188599,-0.021456,-0.00152712,0
2024-12-13 15:29:48.430,-0.184247,3.69422,9.00898,0.0133623,-0.0275645,-0.00335966,0
2024-12-13 15:29:48.432,-0.189033,3.68465,9.01137,0.00358873,-0.033673,-0.00152712,0
2024-12-13 15:29:48.435,-0.18664,3.68226,9.01616,0.00358873,-0.033673,-0.00152712,0
2024-12-13 15:29:48.439,-0.160319,3.6679,9.04965,-0.0238994,-0.0532201,-0.000305424,0
2024-12-13 15:29:48.439,-0.160319,3.6679,9.04965,-0.0238994,-0.0532201,-0.000305424,0
2024-12-13 15:29:48.444,-0.16989,3.66072,9.07119,-0.0391706,-0.0629936,0.000305424,0
2024-12-13 15:29:48.444,-0.16989,3.66072,9.07119,-0.0391706,-0.0629936,0.000305424,0
2024-12-13 15:29:48.446,-0.181855,3.64606,9.11187,-0.0391706,-0.0629936,0.000305424,0
2024-12-13 15:29:48.449,-0.18664,3.65115,9.17169,-0.0526092,-0.0672696,-0.00152712,0
2024-12-13 15:29:48.451,-0.177069,3.65593,9.22672,-0.0550526,-0.0703238,-0.000916271,0
2024-12-13 15:29:48.453,-0.155533,3.64606,9.27727,-0.057496,-0.0703238,-0.000916271,0
2024-12-13 15:29:48.456,-0.131605,3.64606,9.32513,-0.0581068,-0.0715455,-0.000305424,0
2024-12-13 15:29:48.458,-0.112463,3.64876,9.37299,-0.0587177,-0.0715455,-0.00213797,0
2024-12-13 15:29:48.461,-0.0957129,3.64128,9.42323,-0.057496,-0.0691021,-0.00152712,0
2024-12-13 15:29:48.463,-0.0765703,3.64367,9.46391,-0.057496,-0.0691021,-0.00152712,0
2024-12-13 15:29:48.465,-0.0550349,3.64876,9.49981,-0.0501658,-0.0642153,-0.00763559,0
2024-12-13 15:29:48.465,-0.0550349,3.64876,9.49981,-0.0501658,-0.0642153,-0.00763559,0
2024-12-13 15:29:48.468,-0.040678,3.64876,9.5333,-0.0434465,-0.0611611,-0.00763559,0
2024-12-13 15:29:48.470,-0.0287139,3.64606,9.55723,-0.0434465,-0.0611611,-0.00763559,0
2024-12-13 15:29:48.472,-0.0382852,3.62453,9.57159,-0.0306187,-0.0526092,-0.0131332,0
2024-12-13 15:29:48.475,-0.0382852,3.61496,9.58355,-0.0306187,-0.0526092,-0.0131332,0
2024-12-13 15:29:48.477,-0.0215354,3.60299,9.58595,-0.0141258,-0.0446682,-0.0167983,0
2024-12-13 15:29:48.477,-0.0215354,3.60299,9.58595,-0.0141258,-0.0446682,-0.0167983,0
2024-12-13 15:29:48.482,-0.0119641,3.6006,9.58834,0.000534491,-0.037338,-0.01802,0
2024-12-13 15:29:48.482,0.0,3.60299,9.58834,0.000534491,-0.037338,-0.01802,0
2024-12-13 15:29:48.484,0.00478565,3.60299,9.57159,0.00542127,-0.0348946,-0.0192417,0
2024-12-13 15:29:48.486,0.00239282,3.6006,9.54048,0.00542127,-0.0348946,-0.0192417,0
2024-12-13 15:29:48.489,0.00478565,3.59103,9.5022,0.0176382,-0.0269536,-0.0229068,0
2024-12-13 15:29:48.491,0.00957129,3.58624,9.48545,0.0176382,-0.0245102,-0.0253502,0
2024-12-13 15:29:48.493,0.0143569,3.59342,9.47348,0.0237467,-0.0245102,-0.0271827,0
2024-12-13 15:29:48.493,0.0143569,3.59342,9.47348,0.0237467,-0.0245102,-0.0271827,0
2024-12-13 15:29:48.498,0.0,3.58146,9.40888,0.0261901,-0.0238994,-0.0308478,0
2024-12-13 15:29:48.498,0.0,3.58146,9.40888,0.0261901,-0.0238994,-0.0308478,0
2024-12-13 15:29:48.501,0.00478565,3.58624,9.39931,0.0231358,-0.0226777,-0.0332912,0
2024-12-13 15:29:48.503,0.00239282,3.58385,9.38016,0.0206925,-0.0257319,-0.0345129,0
2024-12-13 15:29:48.505,-0.00478565,3.57189,9.36581,0.0182491,-0.0257319,-0.0357346,0
2024-12-13 15:29:48.508,-0.00478565,3.57189,9.36581,0.0170274,-0.0300079,-0.0393996,0
2024-12-13 15:29:48.510,0.00957129,3.61974,9.35384,0.0158057,-0.0330621,-0.041843,0
2024-12-13 15:29:48.510,0.00957129,3.61974,9.35384,0.0158057,-0.0330621,-0.041843,0
2024-12-13 15:29:48.512,0.0,3.61974,9.35384,0.0158057,-0.0330621,-0.041843,0
2024-12-13 15:29:48.515,-0.0143569,3.62692,9.37059,0.00725381,-0.0379489,-0.041843,0
2024-12-13 15:29:48.519,-0.0311067,3.67508,9.35863,-0.000687203,-0.041614,-0.0491732,0
2024-12-13 15:29:48.519,-0.0311067,3.67508,9.35863,-0.000687203,-0.041614,-0.0491732,0
2024-12-13 15:29:48.524,-0.0215354,3.67508,9.39452,-0.00313059,-0.049555,-0.0516166,0
2024-12-13 15:29:48.524,-0.0215354,3.67508,9.39452,-0.00313059,-0.049555,-0.0516166,0
2024-12-13 15:29:48.524,-0.0215354,3.67508,9.39452,-0.00313059,-0.049555,-0.0516166,0
2024-12-13 15:29:48.531,-0.0287139,3.67986,9.48066,-7.63559e-05,-0.0623828,-0.0552817,0
2024-12-13 15:29:48.531,-0.0287139,3.67986,9.48066,-7.63559e-05,-0.0623828,-0.0552817,0
2024-12-13 15:29:48.534,-0.0382852,3.71097,9.49263,0.00236703,-0.0697129,-0.05406,0
2024-12-13 15:29:48.536,-0.0454636,3.73011,9.51177,0.00358873,-0.0764323,-0.0534491,0
2024-12-13 15:29:48.538,-0.0430708,3.74208,9.5333,0.00358873,-0.0764323,-0.0534491,0
2024-12-13 15:29:48.541,-0.0502493,3.75165,9.53809,0.0109189,-0.0910926,-0.0528383,0
2024-12-13 15:29:48.541,-0.0502493,3.75165,9.53809,0.0109189,-0.0910926,-0.0528383,0
2024-12-13 15:29:48.545,-0.0454636,3.77557,9.57159,0.0164165,-0.108196,-0.0485624,0
2024-12-13 15:29:48.545,-0.0382852,3.77557,9.57159,0.0164165,-0.108196,-0.0485624,0
2024-12-13 15:29:48.548,-0.00957129,3.81865,9.60748,0.0213033,-0.116748,-0.0485624,0
2024-12-13 15:29:48.550,0.0119641,3.82343,9.68166,0.0268009,-0.130187,-0.0448973,0
2024-12-13 15:29:48.552,-0.0119641,3.77079,9.72712,0.0335202,-0.138128,-0.0442864,0
2024-12-13 15:29:48.555,-0.0334995,3.71815,9.74148,0.0335202,-0.138128,-0.0442864,0
2024-12-13 15:29:48.557,-0.0119641,3.68226,9.72712,0.0420721,-0.145458,-0.0406213,0
2024-12-13 15:29:48.557,-0.0119641,3.68226,9.72712,0.0420721,-0.145458,-0.0406213,0
2024-12-13 15:29:48.562,0.112463,3.69183,9.67209,0.0518457,-0.148512,-0.041843,0
2024-12-13 15:29:48.562,0.112463,3.69183,9.67209,0.0518457,-0.148512,-0.041843,0
2024-12-13 15:29:48.566,0.224925,3.766,9.64337,0.0610084,-0.155842,-0.0424539,0
2024-12-13 15:29:48.566,0.224925,3.766,9.64337,0.0610084,-0.155842,-0.0424539,0
2024-12-13 15:29:48.569,0.212961,3.766,9.62423,0.0640626,-0.16134,-0.0406213,0
2024-12-13 15:29:48.571,0.18664,3.75643,9.60748,0.0658951,-0.166227,-0.0387888,0
2024-12-13 15:29:48.574,0.148355,3.74208,9.59791,0.0695602,-0.170503,-0.038178,0
2024-12-13 15:29:48.576,0.122034,3.72772,9.59791,0.0707819,-0.171724,-0.0363454,0
2024-12-13 15:29:48.578,0.122034,3.71097,9.59073,0.074447,-0.174168,-0.0326803,0
2024-12-13 15:29:48.578,0.141177,3.71097,9.59073,0.074447,-0.174168,-0.0326803,0
2024-12-13 15:29:48.581,0.20339,3.7014,9.5692,0.074447,-0.178444,-0.0332912,0
2024-12-13 15:29:48.583,0.275175,3.7014,9.54288,0.0750579,-0.182109,-0.0320695,0
2024-12-13 15:29:48.585,0.330509,3.69183,9.52852,0.0768904,-0.186385,-0.0314586,0
2024-12-13 15:29:48.588,0.349651,3.67747,9.50459,0.0775012,-0.19005,-0.0345129,0
2024-12-13 15:29:48.590,0.344866,3.66072,9.47348,0.0775012,-0.191272,-0.0363454,0
2024-12-13 15:29:48.592,0.342473,3.63889,9.44477,0.0775012,-0.191272,-0.0363454,0
2024-12-13 15:29:48.595,0.352044,3.61974,9.41366,0.0787229,-0.192493,-0.0406213,0
2024-12-13 15:29:48.595,0.352044,3.61974,9.41366,0.0787229,-0.192493,-0.0406213,0
2024-12-13 15:29:48.599,0.452543,3.57428,9.37299,0.0829989,-0.19005,-0.046119,0
2024-12-13 15:29:48.599,0.452543,3.57428,9.37299,0.0829989,-0.19005,-0.046119,0
2024-12-13 15:29:48.602,0.500399,3.54556,9.33231,0.0854423,-0.189439,-0.0516166,0
2024-12-13 15:29:48.604,0.548256,3.51207,9.26292,0.0848314,-0.190661,-0.05406,0
2024-12-13 15:29:48.607,0.557827,3.49053,9.20758,0.0878856,-0.193104,-0.0583359,0
2024-12-13 15:29:48.608,0.548256,3.51207,9.20758,0.090329,-0.188217,-0.0644444,0
2024-12-13 15:29:48.609,0.521934,3.45942,9.19083,0.090329,-0.188217,-0.0644444,0
2024-12-13 15:29:48.611,0.493221,3.42832,9.17887,0.0915507,-0.178444,-0.0668878,0
2024-12-13 15:29:48.614,0.502792,3.43789,9.14537,0.0915507,-0.178444,-0.0668878,0
2024-12-13 15:29:48.616,0.550648,3.48574,9.10469,0.101324,-0.152788,-0.0723854,0
2024-12-13 15:29:48.618,0.62004,3.54556,9.04248,0.104989,-0.142404,-0.0754396,0
2024-12-13 15:29:48.621,0.687039,3.61256,8.97069,0.104989,-0.142404,-0.0754396,0
2024-12-13 15:29:48.623,0.758824,3.68226,8.91326,0.117206,-0.119192,-0.0882674,0
2024-12-13 15:29:48.623,0.758824,3.68226,8.91326,0.117206,-0.119192,-0.0882674,0
2024-12-13 15:29:48.628,0.818644,3.74925,8.83669,0.129423,-0.105142,-0.109647,0
2024-12-13 15:29:48.628,0.85005,3.80907,8.72423,0.129423,-0.105142,-0.109647,0
2024-12-13 15:29:48.630,0.852443,3.89043,8.62583,0.136143,-0.0978119,-0.119421,0
2024-12-13 15:29:48.632,0.825823,3.97897,8.54686,0.14164,-0.0929251,-0.127362,0
2024-12-13 15:29:48.635,0.775574,4.04357,8.45594,0.146527,-0.0923143,-0.136524,0
2024-12-13 15:29:48.635,0.775574,4.04357,8.45594,0.146527,-0.0923143,-0.136524,0
2024-12-13 15:29:48.639,0.732503,4.18235,8.24776,0.156301,-0.0984228,-0.14813,0
2024-12-13 15:29:48.642,0.706182,4.27597,8.14248,0.156301,-0.0984228,-0.14813,0
2024-12-13 15:29:48.644,0.687039,4.39083,8.02971,0.16302,-0.121024,-0.155461,0
2024-12-13 15:29:48.647,0.687039,4.39083,8.02971,0.16302,-0.121024,-0.155461,0
2024-12-13 15:29:48.647,0.677468,4.51286,7.90768,0.16302,-0.121024,-0.155461,0
2024-12-13 15:29:48.649,0.696611,4.64925,7.78325,0.160576,-0.153399,-0.160958,0
2024-12-13 15:29:48.651,0.737288,4.75932,7.65883,0.154468,-0.174168,-0.163402,0
2024-12-13 15:29:48.654,0.785145,4.87448,7.5341,0.145305,-0.193715,-0.167067,0
2024-12-13 15:29:48.656,0.828216,4.98694,7.41207,0.134921,-0.216316,-0.170732,0
2024-12-13 15:29:48.658,0.873978,5.07308,7.29243,0.119039,-0.237696,-0.172564,0
2024-12-13 15:29:48.661,0.917049,5.16162,7.18953,0.100713,-0.260297,-0.175008,0
2024-12-13 15:29:48.663,0.917049,5.21665,7.11057,0.100713,-0.260297,-0.175008,0
2024-12-13 15:29:48.665,1.01276,5.24537,7.04597,0.0475697,-0.31283,-0.182338,0
2024-12-13 15:29:48.668,1.06301,5.26929,7.02682,0.0475697,-0.31283,-0.182338,0
2024-12-13 15:29:48.670,1.08455,5.29801,7.04597,0.0170274,-0.372693,-0.19089,0
2024-12-13 15:29:48.670,1.08455,5.29801,7.04597,0.0170274,-0.372693,-0.19089,0
2024-12-13 15:29:48.675,1.55145,5.10419,7.27328,-0.0923143,-0.429502,-0.198831,0
2024-12-13 15:29:48.675,1.55145,5.10419,7.27328,-0.0923143,-0.429502,-0.198831,0
2024-12-13 15:29:48.677,1.78116,4.91516,7.4671,-0.0923143,-0.429502,-0.198831,0
2024-12-13 15:29:48.680,1.35494,5.05873,7.4001,-0.156453,-0.459433,-0.233038,0
2024-12-13 15:29:48.682,1.14915,5.17119,7.37139,-0.192493,-0.445995,-0.233038,0
2024-12-13 15:29:48.684,1.14915,5.19272,7.59183,-0.229144,-0.444773,-0.237314,0
2024-12-13 15:29:48.687,1.01276,5.2334,7.7689,-0.262741,-0.444162,-0.234871,0
2024-12-13 15:29:48.689,0.801895,5.30279,7.84547,-0.262741,-0.438054,-0.225097,0
2024-12-13 15:29:48.691,0.643968,5.34616,7.9005,-0.339097,-0.435,-0.214102,0
2024-12-13 15:29:48.691,0.643968,5.34616,7.9005,-0.339097,-0.435,-0.214102,0
2024-12-13 15:29:48.696,0.545863,5.24776,8.04886,-0.431945,-0.436221,-0.180505,0
2024-12-13 15:29:48.696,0.545863,5.24776,8.04886,-0.431945,-0.436221,-0.180505,0
2024-12-13 15:29:48.698,0.545863,5.24776,8.04886,-0.431945,-0.436221,-0.180505,0
2024-12-13 15:29:48.701,0.553041,4.91516,8.58754,-0.532124,-0.446606,-0.149352,0
2024-12-13 15:29:48.703,0.548256,4.75932,8.94437,-0.576105,-0.447827,-0.132859,0
2024-12-13 15:29:48.705,0.576969,4.61576,9.32513,-0.612145,-0.441719,-0.117588,0
2024-12-13 15:29:48.708,0.62004,4.47219,9.6697,-0.64452,-0.433167,-0.105371,0
2024-12-13 15:29:48.708,0.62004,4.47219,9.6697,-0.64452,-0.433167,-0.105371,0
2024-12-13 15:29:48.713,0.617647,4.31426,10.127,-0.696442,-0.400181,-0.085824,0
2024-12-13 15:29:48.715,0.596112,4.2664,10.3256,-0.719654,-0.389797,-0.0748288,0
2024-12-13 15:29:48.715,0.596112,4.2664,10.3256,-0.719654,-0.389797,-0.0748288,0
2024-12-13 15:29:48.717,0.514756,4.21137,10.5556,-0.736758,-0.370861,-0.0662769,0
2024-12-13 15:29:48.720,0.409472,4.16321,10.8236,-0.748364,-0.340929,-0.0583359,0
2024-12-13 15:29:48.722,0.30658,4.15364,11.1039,-0.754473,-0.306111,-0.0503949,0
2024-12-13 15:29:48.724,0.172283,4.16561,11.3719,-0.755084,-0.267627,-0.0424539,0
2024-12-13 15:29:48.724,0.172283,4.16561,11.3719,-0.755084,-0.267627,-0.0424539,0
2024-12-13 15:29:48.729,-0.112463,4.24487,11.6952,-0.733093,-0.160118,-0.0192417,0
2024-12-13 15:29:48.729,-0.112463,4.24487,11.6952,-0.733093,-0.160118,-0.0192417,0
2024-12-13 15:29:48.731,-0.196211,4.25922,11.7885,-0.717211,-0.0904818,-0.00274881,0
2024-12-13 15:29:48.734,-0.229711,4.14646,12.0494,-0.692166,-0.0275645,0.0149658,0
2024-12-13 15:29:48.736,-0.181855,3.97418,12.3033,-0.661013,0.0206925,0.0265719,0
2024-12-13 15:29:48.738,-0.0981057,3.7995,12.5306,-0.624973,0.0561216,0.0351237,0
2024-12-13 15:29:48.741,-0.0143569,3.68704,12.7487,-0.581603,0.0817772,0.0406213,0
2024-12-13 15:29:48.741,-0.0143569,3.68704,12.7487,-0.581603,0.0817772,0.0406213,0
2024-12-13 15:29:48.743,0.0574277,3.61496,12.9305,-0.533346,0.103768,0.0412322,0
2024-12-13 15:29:48.745,0.11007,3.58385,13.0286,-0.479591,0.122093,0.0442864,0
2024-12-13 15:29:48.750,0.150748,3.61017,12.9688,-0.360476,0.17035,0.0400105,0
2024-12-13 15:29:48.750,0.167498,3.65833,12.9688,-0.360476,0.17035,0.0400105,0
2024-12-13 15:29:48.753,0.160319,3.72533,12.8563,-0.302446,0.192951,0.0363454,0
2024-12-13 15:29:48.755,0.143569,3.7995,12.6888,-0.24075,0.212498,0.033902,0
2024-12-13 15:29:48.757,0.100499,3.87847,12.4684,-0.182109,0.230213,0.0296261,0
2024-12-13 15:29:48.760,0.0574277,3.94307,12.2363,-0.182109,0.230213,0.0296261,0
2024-12-13 15:29:48.762,0.0143569,3.98375,12.0063,-0.0752106,0.240597,0.0247393,0
2024-12-13 15:29:48.764,0.0143569,3.98375,11.7742,-0.0752106,0.240597,0.0247393,0
2024-12-13 15:29:48.767,-0.0933201,4.04118,11.5469,0.0164165,0.20639,0.0241285,0
2024-12-13 15:29:48.767,-0.0933201,4.04118,11.5469,0.0164165,0.20639,0.0241285,0
2024-12-13 15:29:48.769,-0.153141,4.05554,11.3169,0.0164165,0.20639,0.0241285,0
2024-12-13 15:29:48.771,-0.212961,4.06511,11.0919,0.0952158,0.150192,0.0284044,0
2024-12-13 15:29:48.776,-0.251246,4.09382,10.8978,0.159966,0.094605,0.0302369,0
2024-12-13 15:29:48.776,-0.251246,4.12732,10.7016,0.159966,0.094605,0.0302369,0
2024-12-13 15:29:48.778,-0.241675,4.17757,10.491,0.188065,0.0726145,0.0326803,0
2024-12-13 15:29:48.781,-0.227318,4.22333,10.2706,0.188065,0.0726145,0.0326803,0
2024-12-13 15:29:48.783,-0.193819,4.25683,10.0409,0.2351,0.0335202,0.0345129,0
2024-12-13 15:29:48.786,-0.193819,4.25683,9.80609,0.252814,0.0164165,0.0345129,0
2024-12-13 15:29:48.788,-0.162712,4.35494,9.58116,0.267475,0.00603212,0.0326803,0
2024-12-13 15:29:48.788,-0.162712,4.35494,9.58116,0.267475,0.00603212,0.0326803,0
2024-12-13 15:29:48.790,-0.177069,4.37887,9.34188,0.267475,0.00603212,0.0326803,0
2024-12-13 15:29:48.793,-0.193819,4.39562,9.1023,0.280303,-0.0122933,0.0302369,0
2024-12-13 15:29:48.795,-0.217747,4.37887,8.89651,0.282135,-0.0190126,0.025961,0
2024-12-13 15:29:48.797,-0.258425,4.35254,8.70748,0.282135,-0.0190126,0.0284044,0
2024-12-13 15:29:48.800,-0.294616,4.31187,8.54208,0.274194,-0.0232886,0.0247393,0
2024-12-13 15:29:48.802,-0.301795,4.27358,8.40569,0.274194,-0.0232886,0.0247393,0
2024-12-13 15:29:48.804,-0.287438,4.24726,8.29083,0.260145,-0.0184018,0.0229068,0
2024-12-13 15:29:48.804,-0.287438,4.24726,8.29083,0.260145,-0.0184018,0.0229068,0
2024-12-13 15:29:48.807,-0.27996,4.21855,8.19273,0.253425,-0.0159584,0.0222959,0
2024-12-13 15:29:48.809,-0.265603,4.18235,8.09911,0.244873,-0.0141258,0.0222959,0
2024-12-13 15:29:48.811,-0.234497,4.15843,8.01057,0.233267,-0.00984991,0.0229068,0
2024-12-13 15:29:48.814,-0.20339,4.15603,7.934,0.222272,-0.00374144,0.0210742,0
2024-12-13 15:29:48.816,-0.181855,4.14407,7.87657,0.21372,-7.63559e-05,0.0198525,0
2024-12-13 15:29:48.816,-0.181855,4.14407,7.87657,0.21372,-7.63559e-05,0.0198525,0
2024-12-13 15:29:48.821,-0.16989,4.13689,7.8,0.19173,0.0096972,0.0167983,0
2024-12-13 15:29:48.823,-0.145962,4.1345,7.7354,0.183178,0.0194708,0.0161875,0
2024-12-13 15:29:48.823,-0.131605,4.12971,7.6995,0.183178,0.0194708,0.0161875,0
2024-12-13 15:29:48.826,-0.124427,4.13211,7.65165,0.178291,0.0268009,0.0149658,0
2024-12-13 15:29:48.828,-0.105284,4.13689,7.60379,0.169739,0.0365745,0.0137441,0
2024-12-13 15:29:48.830,-0.0909273,4.15603,7.5676,0.161798,0.0432938,0.0125224,0
2024-12-13 15:29:48.830,-0.0909273,4.15603,7.5676,0.161798,0.0432938,0.0125224,0
2024-12-13 15:29:48.833,-0.0765703,4.17278,7.52453,0.155079,0.0536782,0.0143549,0
2024-12-13 15:29:48.835,-0.0598206,4.17996,7.4671,0.155079,0.0536782,0.0143549,0
2024-12-13 15:29:48.837,-0.0358923,4.18714,7.40967,0.146527,0.0683385,0.0131332,0
2024-12-13 15:29:48.840,-0.00957129,4.19193,7.35943,0.138586,0.074447,0.0131332,0
2024-12-13 15:29:48.840,-0.00957129,4.19193,7.35943,0.138586,0.074447,0.0131332,0
2024-12-13 15:29:48.844,0.0598206,4.17039,7.28286,0.130645,0.090329,0.0106898,0
2024-12-13 15:29:48.844,0.0598206,4.17039,7.28286,0.130645,0.090329,0.0106898,0
2024-12-13 15:29:48.849,0.138784,4.18953,7.21346,0.11965,0.102546,0.00702474,0
2024-12-13 15:29:48.849,0.138784,4.18953,7.21346,0.11965,0.102546,0.00702474,0
2024-12-13 15:29:48.851,0.155533,4.18953,7.17757,0.11232,0.102546,0.00397051,0
2024-12-13 15:29:48.854,0.184247,4.18953,7.13929,0.1056,0.108044,0.00213797,0
2024-12-13 15:29:48.856,0.222533,4.1991,7.11057,0.0994917,0.109265,-0.00152712,0
2024-12-13 15:29:48.856,0.222533,4.1991,7.11057,0.0994917,0.109265,-0.00152712,0
2024-12-13 15:29:48.861,0.277567,4.1991,7.04597,0.0781121,0.107433,-0.00763559,0
2024-12-13 15:29:48.863,0.277567,4.21615,7.05314,0.0781121,0.107433,-0.00763559,0
2024-12-13 15:29:48.866,0.265603,4.22333,7.07229,0.0561216,0.103768,-0.0149658,0
2024-12-13 15:29:48.866,0.265603,4.22333,7.07229,0.0561216,0.103768,-0.0149658,0
2024-12-13 15:29:48.870,0.354437,4.2688,6.97627,0.0292443,0.0958267,-0.0229068,0
2024-12-13 15:29:48.870,0.354437,4.2688,6.97627,0.0292443,0.0958267,-0.0229068,0
2024-12-13 15:29:48.875,0.371187,4.30947,6.91406,0.0121406,0.0878856,-0.0265719,0
2024-12-13 15:29:48.875,0.371187,4.30947,6.91406,0.0121406,0.0878856,-0.0265719,0
2024-12-13 15:29:48.880,0.385544,4.32144,6.93081,-0.0489441,0.0677277,-0.0387888,0
2024-12-13 15:29:48.880,0.385544,4.32144,6.93081,-0.0489441,0.0677277,-0.0387888,0
2024-12-13 15:29:48.882,0.383151,4.31905,6.9667,-0.0721563,0.0579541,-0.0436756,0
2024-12-13 15:29:48.882,0.383151,4.31905,6.9667,-0.0721563,0.0579541,-0.0436756,0
2024-12-13 15:29:48.887,0.375972,4.28555,7.11536,-0.119802,0.0420721,-0.0534491,0
2024-12-13 15:29:48.889,0.364008,4.2664,7.22064,-0.143625,0.0359636,-0.0577251,0
2024-12-13 15:29:48.891,0.354437,4.24487,7.34746,-0.163783,0.0310769,-0.0613902,0
2024-12-13 15:29:48.891,0.354437,4.24487,7.34746,-0.163783,0.0310769,-0.0613902,0
2024-12-13 15:29:48.896,0.364008,4.19671,7.65404,-0.203488,0.0329094,-0.0736071,0
2024-12-13 15:29:48.899,0.385544,4.18953,7.80958,-0.220592,0.0310769,-0.0791047,0
2024-12-13 15:29:48.901,0.385544,4.18953,7.80958,-0.235253,0.0329094,-0.085824,0
2024-12-13 15:29:48.903,0.409472,4.15603,8.11825,-0.249302,0.0347419,-0.0937651,0
2024-12-13 15:29:48.903,0.409472,4.15603,8.11825,-0.249302,0.0347419,-0.0937651,0
2024-12-13 15:29:48.906,0.428614,4.13689,8.2693,-0.249302,0.0347419,-0.0937651,0
2024-12-13 15:29:48.908,0.41665,4.101,8.40808,-0.273736,0.0377962,-0.108425,0
2024-12-13 15:29:48.910,0.41665,4.101,8.53729,-0.281677,0.0414613,-0.115145,0
2024-12-13 15:29:48.913,0.402293,4.08186,8.53729,-0.286564,0.0432938,-0.123086,0
2024-12-13 15:29:48.915,0.344866,4.034,8.79841,-0.289618,0.0432938,-0.129805,0
2024-12-13 15:29:48.917,0.30658,4.00768,8.94676,-0.292672,0.0439046,-0.132248,0
2024-12-13 15:29:48.917,0.30658,4.00768,8.94676,-0.292672,0.0439046,-0.132248,0
2024-12-13 15:29:48.920,0.256032,3.98375,9.1023,-0.29084,0.0469589,-0.135303,0
2024-12-13 15:29:48.922,0.210568,3.95982,9.24587,-0.29084,0.0469589,-0.135303,0
2024-12-13 15:29:48.924,0.184247,3.93589,9.38016,-0.285342,0.0530674,-0.138968,0
2024-12-13 15:29:48.927,0.141177,3.91675,9.50459,-0.278623,0.0573433,-0.137746,0
2024-12-13 15:29:48.929,0.0909273,3.90239,9.63141,-0.268849,0.066506,-0.135914,0
2024-12-13 15:29:48.932,0.0909273,3.90239,9.63141,-0.268849,0.066506,-0.135914,0
2024-12-13 15:29:48.934,-0.026321,3.88804,9.84706,-0.247469,0.0829989,-0.129194,0
2024-12-13 15:29:48.934,-0.026321,3.88804,9.84706,-0.247469,0.0829989,-0.129194,0
2024-12-13 15:29:48.936,-0.0693919,3.89522,9.9332,-0.234031,0.0933833,-0.123697,0
2024-12-13 15:29:48.939,-0.114855,3.90239,10.0026,-0.234031,0.0933833,-0.123697,0
2024-12-13 15:29:48.939,-0.114855,3.90239,10.0026,-0.234031,0.0933833,-0.123697,0
2024-12-13 15:29:48.941,-0.177069,3.89522,10.0505,-0.207154,0.115985,-0.109647,0
2024-12-13 15:29:48.943,-0.224925,3.91197,10.1055,-0.192493,0.128812,-0.0998735,0
2024-12-13 15:29:48.946,-0.258425,3.94068,10.1605,-0.179665,0.138586,-0.0913217,0
2024-12-13 15:29:48.948,-0.304188,3.95504,10.194,-0.165005,0.152025,-0.082159,0
2024-12-13 15:29:48.950,-0.352044,3.95743,10.2227,-0.147901,0.162409,-0.0711637,0
2024-12-13 15:29:48.953,-0.371187,3.96461,10.2467,-0.133852,0.174626,-0.0601685,0
2024-12-13 15:29:48.953,-0.371187,3.96461,10.2467,-0.133852,0.174626,-0.0601685,0
2024-12-13 15:29:48.955,-0.387936,3.99571,10.2802,-0.122246,0.186843,-0.0455081,0
2024-12-13 15:29:48.957,-0.41665,4.02204,10.3137,-0.110029,0.197838,-0.0345129,0
2024-12-13 15:29:48.960,-0.4334,4.04596,10.3328,-0.0990336,0.207001,-0.0241285,0
2024-12-13 15:29:48.962,-0.428614,4.07468,10.3256,-0.0990336,0.207001,-0.0241285,0
2024-12-13 15:29:48.965,-0.419043,4.10578,10.3232,-0.0782648,0.22777,0.00458135,0
2024-12-13 15:29:48.968,-0.426222,4.13689,10.3232,-0.0629936,0.237543,0.0320695,0
2024-12-13 15:29:48.969,-0.428614,4.168,10.3161,-0.0629936,0.237543,0.0320695,0
2024-12-13 15:29:48.972,-0.4334,4.20389,10.3137,-0.0629936,0.24243,0.0455081,0
2024-12-13 15:29:48.976,-0.452543,4.25205,10.2658,-0.0446682,0.24976,0.0754396,0
2024-12-13 15:29:48.976,-0.462114,4.25205,10.2658,-0.0446682,0.24976,0.0754396,0
2024-12-13 15:29:48.979,-0.454935,4.27119,10.2754,-0.0410031,0.248538,0.0894891,0
2024-12-13 15:29:48.981,-0.431007,4.29033,10.285,-0.0367272,0.247928,0.10476,0
2024-12-13 15:29:48.983,-0.407079,4.32862,10.2897,-0.0324513,0.240597,0.118199,0
2024-12-13 15:29:48.986,-0.366401,4.36451,10.2921,-0.0287862,0.232656,0.132248,0
2024-12-13 15:29:48.988,-0.34008,4.38365,10.2993,-0.0220669,0.223494,0.141487,0
2024-12-13 15:29:48.988,-0.34008,4.38365,10.2993,-0.0220669,0.223494,0.141487,0
2024-12-13 15:29:48.990,-0.325723,4.41476,10.3208,-0.0153475,0.214331,0.152483,0
2024-12-13 15:29:48.994,-0.292223,4.44347,10.328,-0.0019089,0.188065,0.170197,0
2024-12-13 15:29:48.995,-0.263211,4.45783,10.3208,-0.0019089,0.188065,0.170197,0
2024-12-13 15:29:48.997,-0.236889,4.47697,10.3184,-0.0019089,0.188065,0.170197,0
2024-12-13 15:29:49.000,-0.205783,4.49851,10.3017,0.0151948,0.162409,0.183636,0
2024-12-13 15:29:49.000,-0.205783,4.49851,10.3017,0.0151948,0.162409,0.183636,0
2024-12-13 15:29:49.002,-0.184247,4.50568,10.2897,0.0255792,0.152025,0.188523,0
2024-12-13 15:29:49.005,-0.16989,4.51047,10.285,0.0347419,0.140419,0.19341,0
2024-12-13 15:29:49.007,-0.16989,4.51526,10.2826,0.0475697,0.127591,0.198296,0
2024-12-13 15:29:49.009,-0.153141,4.51765,10.2754,0.0475697,0.127591,0.198296,0
2024-12-13 15:29:49.009,-0.153141,4.51765,10.2754,0.0475697,0.127591,0.198296,0
2024-12-13 15:29:49.012,-0.114855,4.52243,10.2706,0.0689494,0.108044,0.207459,0
2024-12-13 15:29:49.014,-0.0693919,4.5344,10.261,0.0829989,0.101935,0.210513,0
2024-12-13 15:29:49.016,-0.0334995,4.5679,10.2251,0.0829989,0.101935,0.209292,0
2024-12-13 15:29:49.019,0.00957129,4.57747,10.1916,0.103157,0.0927724,0.212346,0
2024-12-13 15:29:49.021,0.0646062,4.57268,10.1605,0.117206,0.090329,0.209292,0
2024-12-13 15:29:49.023,0.0646062,4.57268,10.1605,0.127591,0.0860531,0.20807,0
2024-12-13 15:29:49.023,0.100499,4.58465,10.1103,0.127591,0.0860531,0.20807,0
2024-12-13 15:29:49.026,0.133998,4.60379,10.0648,0.141029,0.082388,0.20807,0
2024-12-13 15:29:49.028,0.167498,4.63729,10.0289,0.151414,0.0793338,0.206237,0
2024-12-13 15:29:49.030,0.191426,4.67797,9.98824,0.159966,0.0756687,0.201351,0
2024-12-13 15:29:49.030,0.191426,4.67797,9.98824,0.159966,0.0756687,0.201351,0
2024-12-13 15:29:49.035,0.241675,4.73779,9.92124,0.172183,0.0671168,0.197685,0
2024-12-13 15:29:49.038,0.263211,4.76172,9.89731,0.172183,0.0671168,0.197685,0
2024-12-13 15:29:49.040,0.282652,4.78834,9.89971,0.183178,0.0622301,0.188523,0
2024-12-13 15:29:49.040,0.282652,4.78834,9.89971,0.183178,0.0622301,0.188523,0
2024-12-13 15:29:49.042,0.30658,4.82423,9.92124,0.188065,0.0597867,0.184858,0
2024-12-13 15:29:49.045,0.30658,4.8673,9.96431,0.189286,0.0561216,0.183025,0
2024-12-13 15:29:49.047,0.380758,4.90319,10.0074,0.191119,0.0548999,0.180582,0
2024-12-13 15:29:49.049,0.409472,4.92234,10.0624,0.19173,0.0542891,0.176917,0
2024-12-13 15:29:49.052,0.442971,4.94148,10.1222,0.19173,0.0494023,0.173862,0
2024-12-13 15:29:49.054,0.462114,4.96301,10.1821,0.19173,0.0494023,0.173862,0
2024-12-13 15:29:49.056,0.486042,4.97976,10.2491,0.192341,0.0439046,0.167754,0
2024-12-13 15:29:49.059,0.517149,5.00608,10.3017,0.196616,0.0414613,0.165311,0
2024-12-13 15:29:49.061,0.52672,5.02523,10.3543,0.196006,0.0451263,0.159813,0
2024-12-13 15:29:49.061,0.52672,5.02523,10.3543,0.196006,0.0451263,0.159813,0
2024-12-13 15:29:49.066,0.488435,5.02044,10.4886,0.200892,0.0561216,0.156148,0
2024-12-13 15:29:49.066,0.488435,5.02044,10.4886,0.200892,0.0561216,0.156148,0
2024-12-13 15:29:49.070,0.41665,4.99412,10.6753,0.200282,0.0726145,0.153704,0
2024-12-13 15:29:49.070,0.41665,4.99412,10.6753,0.200282,0.0726145,0.153704,0
2024-12-13 15:29:49.073,0.383151,4.97976,10.7853,0.199671,0.0799446,0.154926,0
2024-12-13 15:29:49.075,0.366401,4.97976,10.9002,0.199671,0.0799446,0.154926,0
2024-12-13 15:29:49.078,0.34008,4.98694,11.0106,0.194173,0.0897182,0.156148,0
2024-12-13 15:29:49.078,0.34008,4.98694,11.0106,0.194173,0.0897182,0.156148,0
2024-12-13 15:29:49.080,0.30658,4.98694,11.1326,0.19173,0.0915507,0.15798,0
2024-12-13 15:29:49.082,0.285045,4.97976,11.269,0.19173,0.0909399,0.158591,0
2024-12-13 15:29:49.085,0.277567,4.97737,11.403,0.181956,0.0958267,0.159202,0
2024-12-13 15:29:49.087,0.256032,4.96541,11.5804,0.181956,0.0958267,0.159202,0
2024-12-13 15:29:49.087,0.256032,4.96541,11.5804,0.181956,0.0958267,0.159202,0
2024-12-13 15:29:49.089,0.224925,4.97976,11.7861,0.173404,0.101935,0.156759,0
2024-12-13 15:29:49.092,0.179462,5.01566,11.9776,0.173404,0.101935,0.156759,0
2024-12-13 15:29:49.094,0.131605,5.05394,12.1621,0.167907,0.103768,0.158591,0
2024-12-13 15:29:49.096,0.0981057,5.10658,12.3392,0.165463,0.100713,0.159202,0
2024-12-13 15:29:49.096,0.0981057,5.10658,12.3392,0.165463,0.100713,0.159202,0
2024-12-13 15:29:49.099,0.0933201,5.1688,12.5043,0.167296,0.100713,0.159202,0
2024-12-13 15:29:49.101,0.114855,5.20708,12.6649,0.169128,0.0994917,0.15798,0
2024-12-13 15:29:49.103,0.131605,5.22862,12.8157,0.173404,0.094605,0.15737,0
2024-12-13 15:29:49.106,0.157926,5.22862,12.9473,0.178291,0.0964375,0.156148,0
2024-12-13 15:29:49.108,0.191426,5.21665,13.0645,0.186232,0.0952158,0.151872,0
2024-12-13 15:29:49.108,0.191426,5.21665,13.0645,0.186232,0.0952158,0.151872,0
2024-12-13 15:29:49.111,0.212961,5.19272,13.1794,0.197838,0.0982701,0.147596,0
2024-12-13 15:29:49.113,0.241675,5.16162,13.2682,0.197838,0.0982701,0.147596,0
2024-12-13 15:29:49.115,0.289831,5.14487,13.3017,0.219218,0.104379,0.140266,0
2024-12-13 15:29:49.118,0.289831,5.14487,13.3089,0.232046,0.106211,0.134768,0
2024-12-13 15:29:49.118,0.342473,5.12812,13.3089,0.232046,0.106211,0.134768,0
2024-12-13 15:29:49.120,0.404686,5.12573,13.2826,0.232046,0.106211,0.127362,0
2024-12-13 15:29:49.122,0.4669,5.12333,13.218,0.248538,0.110487,0.120031,0
2024-12-13 15:29:49.122,0.4669,5.12333,13.218,0.248538,0.110487,0.120031,0
2024-12-13 15:29:49.125,0.521934,5.12573,13.1387,0.248538,0.110487,0.11209,0
2024-12-13 15:29:49.127,0.569791,5.14008,13.0454,0.260755,0.117817,0.0998735,0
2024-12-13 15:29:49.129,0.584148,5.15205,12.9497,0.260755,0.120261,0.0894891,0
2024-12-13 15:29:49.132,0.562612,5.16162,12.8539,0.260755,0.120261,0.0894891,0
2024-12-13 15:29:49.134,0.531506,5.17597,12.763,0.253425,0.122704,0.0681095,0
2024-12-13 15:29:49.134,0.531506,5.17597,12.763,0.253425,0.122704,0.0681095,0
2024-12-13 15:29:49.139,0.521934,5.24297,12.6024,0.238154,0.128812,0.0442864,0
2024-12-13 15:29:49.141,0.521934,5.28126,12.5163,0.227159,0.129423,0.0308478,0
2024-12-13 15:29:49.144,0.529113,5.33181,12.4445,0.211888,0.131867,0.0155766,0
2024-12-13 15:29:49.144,0.529113,5.33181,12.4445,0.211888,0.131867,0.0155766,0
2024-12-13 15:29:49.148,0.505185,5.40838,12.2889,0.179513,0.12698,-0.0131332,0
2024-12-13 15:29:49.148,0.505185,5.40838,12.2889,0.179513,0.12698,-0.0131332,0
2024-12-13 15:29:49.151,0.488435,5.43231,12.2172,0.153857,0.123315,-0.0290152,0
2024-12-13 15:29:49.153,0.483649,5.44906,12.1406,0.130034,0.118428,-0.0436756,0
2024-12-13 15:29:49.155,0.478864,5.45623,12.0664,0.103157,0.114763,-0.0565034,0
2024-12-13 15:29:49.158,0.478864,5.45623,12.0664,0.0726145,0.113541,-0.0711637,0
2024-12-13 15:29:49.160,0.419043,5.44427,11.956,0.0377962,0.111098,-0.0803264,0
2024-12-13 15:29:49.160,0.419043,5.44427,11.956,0.0377962,0.111098,-0.0803264,0
2024-12-13 15:29:49.162,0.373579,5.42752,11.9225,0.00358873,0.111709,-0.0888783,0
2024-12-13 15:29:49.165,0.332901,5.39641,11.8986,-0.0330621,0.110487,-0.0962084,0
2024-12-13 15:29:49.167,0.272782,5.33899,11.8938,-0.0727672,0.11293,-0.101706,0
2024-12-13 15:29:49.167,0.272782,5.33899,11.8938,-0.0727672,0.11293,-0.101706,0
2024-12-13 15:29:49.169,0.227318,5.27647,11.9058,-0.111861,0.117206,-0.105982,0
2024-12-13 15:29:49.172,0.22014,5.20469,11.9465,-0.15401,0.123315,-0.104149,0
2024-12-13 15:29:49.174,0.196211,5.11615,12.0206,-0.196158,0.130034,-0.101095,0
2024-12-13 15:29:49.174,0.196211,5.11615,12.0206,-0.196158,0.130034,-0.101095,0
2024-12-13 15:29:49.176,0.160319,5.01566,12.1406,-0.240139,0.139808,-0.0998735,0
2024-12-13 15:29:49.179,0.129212,4.88405,12.3105,-0.282288,0.152635,-0.0955976,0
2024-12-13 15:29:49.181,0.0981057,4.75215,12.5067,-0.324436,0.166685,-0.0882674,0
2024-12-13 15:29:49.181,0.0981057,4.75215,12.5067,-0.324436,0.166685,-0.0882674,0
2024-12-13 15:29:49.186,0.0741775,4.49851,13.0214,-0.397738,0.189286,-0.0681095,0
2024-12-13 15:29:49.186,0.0741775,4.49851,13.0214,-0.397738,0.189286,-0.0681095,0
2024-12-13 15:29:49.188,0.0454636,4.35972,13.2921,-0.429502,0.19906,-0.0558925,0
2024-12-13 15:29:49.191,-0.00239282,4.2329,13.541,-0.460655,0.207612,-0.0393996,0
2024-12-13 15:29:49.191,-0.00239282,4.2329,13.541,-0.460655,0.207612,-0.0393996,0
2024-12-13 15:29:49.191,-0.00239282,4.2329,13.541,-0.460655,0.207612,-0.0393996,0
2024-12-13 15:29:49.195,-0.145962,3.94068,14.0103,-0.506469,0.227159,-0.0131332,0
2024-12-13 15:29:49.198,-0.215354,3.78754,14.2974,-0.518686,0.240597,0.00458135,0
2024-12-13 15:29:49.200,-0.253639,3.64128,14.5968,-0.523572,0.25648,0.0235176,0
2024-12-13 15:29:49.200,-0.253639,3.64128,14.5968,-0.523572,0.25648,0.0235176,0
2024-12-13 15:29:49.202,-0.294616,3.49532,14.8819,-0.518686,0.276637,0.0436756,0
2024-12-13 15:29:49.205,-0.332901,3.34218,15.1546,-0.505858,0.296185,0.0632227,0
2024-12-13 15:29:49.207,-0.359223,3.18664,15.3987,-0.486922,0.316343,0.0839915,0
2024-12-13 15:29:49.207,-0.359223,3.18664,15.3987,-0.486922,0.316343,0.0839915,0
2024-12-13 15:29:49.212,-0.378365,2.88724,15.7986,-0.430113,0.363378,0.122475,0
2024-12-13 15:29:49.212,-0.378365,2.88724,15.7986,-0.430113,0.363378,0.122475,0
2024-12-13 15:29:49.214,-0.385544,2.7676,15.9422,-0.390408,0.384147,0.139044,0
2024-12-13 15:29:49.217,-0.392722,2.66231,16.0238,-0.390408,0.384147,0.139044,0
2024-12-13 15:29:49.219,-0.402293,2.55224,16.0741,-0.292061,0.420797,0.170808,0
2024-12-13 15:29:49.221,-0.414257,2.45623,16.0837,-0.235253,0.437901,0.18669,0
2024-12-13 15:29:49.221,-0.414257,2.45623,16.0837,-0.235253,0.437901,0.18669,0
2024-12-13 15:29:49.224,-0.4334,2.37248,16.0214,-0.172335,0.451951,0.201961,3
2024-12-13 15:29:49.226,-0.435793,2.28156,15.8752,-0.10331,0.469665,0.217843,0
2024-12-13 15:29:49.228,-0.431007,2.20977,15.6526,-0.0257319,0.484326,0.234336,0
2024-12-13 15:29:49.228,-0.431007,2.20977,15.6526,-0.0257319,0.484326,0.234336,0
2024-12-13 15:29:49.231,-0.447757,2.14277,15.3556,0.0494023,0.497764,0.249607,0
2024-12-13 15:29:49.233,-0.471685,2.09013,15.0015,0.129423,0.508149,0.263046,0
2024-12-13 15:29:49.235,-0.488435,2.05185,14.616,0.129423,0.508149,0.263046,0
2024-12-13 15:29:49.238,-0.507577,2.01356,14.2041,0.285189,0.520366,0.290534,0
2024-12-13 15:29:49.239,-0.507577,2.01356,14.2041,0.362767,0.515479,0.303973,0
2024-12-13 15:29:49.240,-0.553041,1.98485,13.8093,0.362767,0.515479,0.303973,0
2024-12-13 15:29:49.245,-0.63679,1.99202,13.3998,0.511279,0.501429,0.33085,0
2024-12-13 15:29:49.245,-0.706182,2.01835,12.9281,0.511279,0.501429,0.33085,0
2024-12-13 15:29:49.245,-0.706182,2.01835,12.9281,0.511279,0.501429,0.33085,0
2024-12-13 15:29:49.247,-0.732503,2.04706,12.466,0.511279,0.501429,0.343678,0
2024-12-13 15:29:49.249,-0.696611,2.07338,12.0736,0.646276,0.492267,0.356506,0
2024-12-13 15:29:49.252,-0.627219,2.09492,11.6713,0.707972,0.478217,0.363225,0
2024-12-13 15:29:49.254,-0.610469,2.1332,11.2283,0.707972,0.478217,0.363225,0
2024-12-13 15:29:49.257,-0.641576,2.20738,10.7806,0.817924,0.443399,0.370555,0
2024-12-13 15:29:49.257,-0.641576,2.20738,10.7806,0.817924,0.443399,0.370555,0
2024-12-13 15:29:49.259,-0.687039,2.27677,10.3017,0.866181,0.415911,0.37422,0
2024-12-13 15:29:49.261,-0.720539,2.32941,9.77259,0.866181,0.415911,0.376664,0
2024-12-13 15:29:49.264,-0.722932,2.39163,9.21237,0.936429,0.373151,0.377275,0
2024-12-13 15:29:49.264,-0.722932,2.39163,9.21237,0.936429,0.373151,0.377275,0
2024-12-13 15:29:49.266,-0.718146,2.45384,8.70748,0.936429,0.373151,0.377275,0
2024-12-13 15:29:49.268,-0.732503,2.52084,8.23819,0.970636,0.33589,0.371166,0
2024-12-13 15:29:49.271,-0.754038,2.58096,7.80479,0.973691,0.318786,0.36689,0
2024-12-13 15:29:49.271,-0.754038,2.58096,7.80479,0.973691,0.318786,0.36689,0
2024-12-13 15:29:49.275,-0.766002,2.68864,7.08425,0.966971,0.290687,0.360782,0
2024-12-13 15:29:49.275,-0.766002,2.68864,7.08425,0.966971,0.290687,0.360782,0
2024-12-13 15:29:49.278,-0.73011,2.71735,6.70589,0.950478,0.268086,0.354673,0
2024-12-13 15:29:49.280,-0.710967,2.73888,6.41845,0.927266,0.249149,0.347343,0
2024-12-13 15:29:49.282,-0.703789,2.75803,6.14806,0.894891,0.227159,0.340624,0
2024-12-13 15:29:49.282,-0.703789,2.75803,6.14806,0.894891,0.227159,0.340624,0
2024-12-13 15:29:49.285,-0.689432,2.78435,5.8678,0.861905,0.214331,0.335126,0
2024-12-13 15:29:49.287,-0.677468,2.80349,5.64527,0.819146,0.202114,0.325963,0
2024-12-13 15:29:49.290,-0.665504,2.82742,5.4682,0.769057,0.194173,0.318022,0
2024-12-13 15:29:49.290,-0.665504,2.82742,5.4682,0.769057,0.194173,0.318022,0
2024-12-13 15:29:49.294,-0.63679,2.85135,5.22383,0.665213,0.186232,0.299086,0
2024-12-13 15:29:49.297,-0.648754,2.86092,5.12333,0.607182,0.183789,0.288702,0
2024-12-13 15:29:49.297,-0.648754,2.86092,5.12333,0.607182,0.183789,0.288702,0
2024-12-13 15:29:49.299,-0.679861,2.87528,5.07308,0.607182,0.183789,0.288702,0
2024-12-13 15:29:49.301,-0.679861,2.87528,5.07308,0.485013,0.19173,0.270376,0
2024-12-13 15:29:49.301,-0.718146,2.88485,5.05394,0.485013,0.19173,0.270376,0
2024-12-13 15:29:49.304,-0.76361,2.89442,5.0683,0.41782,0.198449,0.263657,0
2024-12-13 15:29:49.306,-0.816252,2.88724,5.13769,0.352993,0.20639,0.256938,0
2024-12-13 15:29:49.308,-0.862014,2.88245,5.2358,0.288854,0.216164,0.253273,0
2024-12-13 15:29:49.308,-0.862014,2.88245,5.2358,0.288854,0.216164,0.253273,0
2024-12-13 15:29:49.311,-0.888335,2.87528,5.35574,0.224105,0.22777,0.250218,0
2024-12-13 15:29:49.313,-0.924228,2.85135,5.49452,0.163631,0.239987,0.247775,0
2024-12-13 15:29:49.315,-0.964906,2.84178,5.63809,0.104989,0.246706,0.247164,0
2024-12-13 15:29:49.320,-1.05344,2.78674,5.95185,0.0500131,0.254647,0.247775,0
2024-12-13 15:29:49.322,-1.10369,2.74846,6.14806,-0.0519984,0.26381,0.248997,0
2024-12-13 15:29:49.322,-1.10369,2.74846,6.14806,-0.0519984,0.26381,0.248997,0
2024-12-13 15:29:49.327,-1.13719,2.70299,6.61017,-0.134463,0.280913,0.256938,0
2024-12-13 15:29:49.327,-1.15394,2.65274,6.61017,-0.134463,0.280913,0.256938,0
2024-12-13 15:29:49.330,-1.17069,2.61446,6.85663,-0.164394,0.288854,0.259992,0
2024-12-13 15:29:49.332,-1.17547,2.57617,7.11296,-0.191272,0.298628,0.2661,0
2024-12-13 15:29:49.334,-1.1683,2.54267,7.35464,-0.21143,0.308401,0.270987,0
2024-12-13 15:29:49.339,-1.20658,2.50648,7.79522,-0.225479,0.318175,0.27343,0
2024-12-13 15:29:49.341,-1.22094,2.48255,7.97707,-0.238307,0.338333,0.277706,0
2024-12-13 15:29:49.344,-1.24487,2.47537,8.12303,-0.238307,0.338333,0.277706,0
2024-12-13 15:29:49.346,-1.27597,2.47777,8.22383,-0.236474,0.348107,0.277096,0
2024-12-13 15:29:49.349,-1.29751,2.45863,8.30519,-0.236474,0.348107,0.278928,0
2024-12-13 15:29:49.351,-1.31665,2.42034,8.37697,-0.229755,0.362767,0.280761,0
2024-12-13 15:29:49.351,-1.31665,2.42034,8.37697,-0.229755,0.362767,0.280761,0
2024-12-13 15:29:49.355,-1.37169,2.37248,8.51336,-0.218149,0.365821,0.280761,0
2024-12-13 15:29:49.358,-1.38844,2.33898,8.55404,-0.218149,0.365821,0.280761,0
2024-12-13 15:29:49.360,-1.39322,2.30548,8.59951,-0.201656,0.363378,0.280761,0
2024-12-13 15:29:49.360,-1.39322,2.30548,8.59951,-0.201656,0.363378,0.280761,0
2024-12-13 15:29:49.365,-1.41506,2.26481,8.66172,-0.193715,0.356048,0.278928,0
2024-12-13 15:29:49.365,-1.41506,2.26481,8.66172,-0.193715,0.356048,0.278928,0
2024-12-13 15:29:49.370,-1.42941,2.24327,8.7362,-0.161951,0.332835,0.278317,0
2024-12-13 15:29:49.370,-1.44138,2.24327,8.7362,-0.161951,0.332835,0.278317,0
2024-12-13 15:29:49.372,-1.43898,2.24327,8.76491,-0.152788,0.326116,0.277096,0
2024-12-13 15:29:49.374,-1.42463,2.25045,8.77927,-0.140571,0.315732,0.274652,0
2024-12-13 15:29:49.377,-1.41506,2.25763,8.79841,-0.128354,0.304126,0.27343,0
2024-12-13 15:29:49.379,-1.39561,2.26241,8.80798,-0.128354,0.304126,0.27343,0
2024-12-13 15:29:49.381,-1.37169,2.26959,8.8008,-0.0990336,0.282746,0.266711,0
2024-12-13 15:29:49.384,-1.33101,2.27916,8.78405,-0.0849841,0.264421,0.263657,0
2024-12-13 15:29:49.386,-1.28794,2.29113,8.76012,-0.0703238,0.247928,0.25877,0
2024-12-13 15:29:49.388,-1.27358,2.3007,8.71705,-0.0593285,0.230213,0.252051,0
2024-12-13 15:29:49.391,-1.25204,2.30788,8.66411,-0.0422248,0.213109,0.245942,0
2024-12-13 15:29:49.396,-1.21137,2.33898,8.57558,-0.0281753,0.194173,0.241056,0
2024-12-13 15:29:49.398,-1.2018,2.35334,8.50619,-0.00313059,0.161187,0.233725,0
2024-12-13 15:29:49.398,-1.2018,2.35334,8.50619,-0.00313059,0.161187,0.233725,0
2024-12-13 15:29:49.403,-1.14437,2.39163,8.32433,0.0206925,0.130645,0.224563,0
2024-12-13 15:29:49.405,-1.0989,2.40838,8.21905,0.0347419,0.117817,0.221508,0
2024-12-13 15:29:49.407,-1.06301,2.42273,8.11586,0.0420721,0.102546,0.217233,0
2024-12-13 15:29:49.410,-1.0319,2.45145,7.99143,0.0494023,0.0958267,0.2154,0
2024-12-13 15:29:49.412,-1.00558,2.47298,7.87897,0.0555107,0.0897182,0.214178,0
2024-12-13 15:29:49.414,-0.984048,2.49212,7.75933,0.0616192,0.086664,0.214178,0
2024-12-13 15:29:49.417,-0.967299,2.52323,7.63251,0.0658951,0.0872748,0.209902,0
2024-12-13 15:29:49.419,-0.955334,2.55224,7.51257,0.0695602,0.0891073,0.211124,0
2024-12-13 15:29:49.421,-0.933799,2.55942,7.39292,0.0713928,0.0939941,0.211124,0
2024-12-13 15:29:49.421,-0.933799,2.55942,7.39292,0.0713928,0.0939941,0.211124,0
2024-12-13 15:29:49.426,-0.895514,2.58096,7.168,0.0738362,0.106822,0.214789,0
2024-12-13 15:29:49.426,-0.895514,2.58096,7.168,0.0738362,0.106822,0.214789,0
2024-12-13 15:29:49.428,-0.878764,2.63121,7.05075,0.0738362,0.114763,0.217843,0
2024-12-13 15:29:49.431,-0.854836,2.66231,6.94038,0.0762796,0.124536,0.217843,0
2024-12-13 15:29:49.433,-0.82343,2.68624,6.84945,0.0738362,0.132477,0.218454,0
2024-12-13 15:29:49.436,-0.801895,2.72692,6.77288,0.074447,0.142862,0.219676,0
2024-12-13 15:29:49.438,-0.789931,2.77478,6.67717,0.0756687,0.153857,0.220898,0
2024-12-13 15:29:49.440,-0.768395,2.81785,6.58146,0.0732253,0.164242,0.223952,0
2024-12-13 15:29:49.443,-0.737288,2.84178,6.50967,0.0713928,0.171572,0.220898,0
2024-12-13 15:29:49.445,-0.725324,2.86331,6.44238,0.0671168,0.180124,0.220287,0
2024-12-13 15:29:49.447,-0.720539,2.88963,6.36581,0.0671168,0.190508,0.219676,0
2024-12-13 15:29:49.450,-0.71336,2.90638,6.29163,0.066506,0.197838,0.218454,0
2024-12-13 15:29:49.452,-0.708575,2.92313,6.2342,0.0610084,0.204557,0.217843,0
2024-12-13 15:29:49.454,-0.699003,2.93988,6.17917,0.0567324,0.210055,0.217233,0
2024-12-13 15:29:49.457,-0.658325,2.95185,6.13609,0.0524565,0.21372,0.214789,0
2024-12-13 15:29:49.459,-0.555434,3.01884,6.12174,0.0481806,0.21372,0.211124,0
2024-12-13 15:29:49.461,-0.4669,3.09571,6.11456,0.0420721,0.207612,0.20807,0
2024-12-13 15:29:49.464,-0.502792,3.07867,6.10499,0.0365745,0.207612,0.20074,0
2024-12-13 15:29:49.466,-0.608076,3.02363,6.1002,0.0310769,0.212498,0.197685,0
2024-12-13 15:29:49.469,-0.684646,2.9997,6.09302,0.0310769,0.212498,0.197685,0
2024-12-13 15:29:49.471,-0.701396,2.98295,6.0691,0.0188599,0.219218,0.195853,0
2024-12-13 15:29:49.476,-0.658325,2.95424,5.97099,0.00481042,0.219829,0.190355,0
2024-12-13 15:29:49.476,-0.658325,2.95424,5.97099,0.00481042,0.219829,0.190355,0
2024-12-13 15:29:49.478,-0.550648,2.98295,5.94706,-0.00679568,0.216164,0.186079,0
2024-12-13 15:29:49.480,-0.486042,3.0332,5.9351,-0.0153475,0.208833,0.178138,0
2024-12-13 15:29:49.483,-0.488435,3.07867,5.93031,-0.0238994,0.201503,0.173252,0
2024-12-13 15:29:49.485,-0.521934,3.11246,5.92792,-0.0342838,0.197227,0.168976,0
2024-12-13 15:29:49.487,-0.591326,3.134,5.95663,-0.0483333,0.199671,0.167143,0
2024-12-13 15:29:49.490,-0.655932,3.15075,5.99253,-0.0556635,0.207001,0.166532,0
2024-12-13 15:29:49.492,-0.691825,3.15075,6.02124,-0.0666587,0.211277,0.165311,0
2024-12-13 15:29:49.494,-0.706182,3.15314,6.05713,-0.0770431,0.21372,0.164089,0
2024-12-13 15:29:49.497,-0.696611,3.15314,6.09781,-0.0837624,0.217996,0.163478,0
2024-12-13 15:29:49.499,-0.677468,3.15793,6.14567,-0.093536,0.22044,0.162256,0
2024-12-13 15:29:49.501,-0.667897,3.15553,6.19831,-0.100255,0.224715,0.159202,0
2024-12-13 15:29:49.504,-0.675075,3.15075,6.25095,-0.106975,0.22777,0.15798,0
2024-12-13 15:29:49.509,-0.720539,3.14836,6.32752,-0.116137,0.240597,0.153094,0
2024-12-13 15:29:49.509,-0.720539,3.14836,6.32752,-0.116137,0.240597,0.153094,0
2024-12-13 15:29:49.511,-0.744467,3.15314,6.37059,-0.120413,0.246095,0.150039,0
2024-12-13 15:29:49.513,-0.768395,3.15553,6.40648,-0.122246,0.252204,0.149429,0
2024-12-13 15:29:49.516,-0.799502,3.16989,6.45703,-0.122246,0.25709,0.147596,0
2024-12-13 15:29:49.518,-0.809073,3.17707,6.50489,-0.121635,0.261977,0.147596,0
2024-12-13 15:29:49.520,-0.830609,3.17946,6.53839,-0.124689,0.262588,0.147596,0
2024-12-13 15:29:49.523,-0.862014,3.201,6.55992,-0.1253,0.260755,0.145763,0
2024-12-13 15:29:49.525,-0.88355,3.2345,6.58624,-0.124689,0.255869,0.145763,0
2024-12-13 15:29:49.527,-0.912264,3.26321,6.62453,-0.126522,0.247317,0.147596,0
2024-12-13 15:29:49.530,-0.929013,3.27996,6.65564,-0.127133,0.237543,0.150039,0
2024-12-13 15:29:49.532,-0.938585,3.32064,6.66281,-0.128965,0.225937,0.151261,0
2024-12-13 15:29:49.534,-0.936192,3.3661,6.66521,-0.131409,0.21372,0.151261,0
2024-12-13 15:29:49.537,-0.929013,3.39721,6.67478,-0.13263,0.203336,0.154315,0
2024-12-13 15:29:49.539,-0.926621,3.42592,6.66999,-0.136295,0.191119,0.156759,0
2024-12-13 15:29:49.542,-0.912264,3.4666,6.67956,-0.142404,0.177069,0.159202,0
2024-12-13 15:29:49.546,-0.895514,3.53121,6.70828,-0.159507,0.151414,0.161645,0
2024-12-13 15:29:49.549,-0.878764,3.54796,6.74656,-0.169281,0.137364,0.163478,0
2024-12-13 15:29:49.551,-0.878764,3.54796,6.80878,-0.177222,0.120261,0.163478,0
2024-12-13 15:29:49.551,-0.862014,3.5671,6.80878,-0.177222,0.120261,0.163478,0
2024-12-13 15:29:49.556,-0.811466,3.61735,6.92842,-0.205321,0.0897182,0.165921,0
2024-12-13 15:29:49.556,-0.811466,3.61735,6.92842,-0.205321,0.0897182,0.165921,0
2024-12-13 15:29:49.558,-0.804287,3.62931,6.99302,-0.218149,0.074447,0.1647,0
2024-12-13 15:29:49.560,-0.787538,3.64367,7.04836,-0.230366,0.0628409,0.1647,0
2024-12-13 15:29:49.563,-0.758824,3.66311,7.09382,-0.246248,0.0530674,0.163478,0
2024-12-13 15:29:49.567,-0.785145,3.68704,7.26132,-0.271903,0.0432938,0.161645,0
2024-12-13 15:29:49.567,-0.785145,3.68704,7.26132,-0.271903,0.0432938,0.161645,0
2024-12-13 15:29:49.570,-0.799502,3.70618,7.37378,-0.284731,0.0359636,0.159202,0
2024-12-13 15:29:49.572,-0.789931,3.70858,7.5006,-0.296337,0.0347419,0.161035,0
2024-12-13 15:29:49.574,-0.80668,3.70618,7.59901,-0.306111,0.0347419,0.161035,0
2024-12-13 15:29:49.577,-0.825823,3.70618,7.68993,-0.306111,0.0347419,0.161035,0
2024-12-13 15:29:49.579,-0.830609,3.71097,7.79522,-0.323825,0.0396287,0.164089,0
2024-12-13 15:29:49.582,-0.82343,3.71575,7.8694,-0.330545,0.0408504,0.167143,0
2024-12-13 15:29:49.584,-0.821037,3.71575,7.94597,-0.337875,0.0402396,0.169586,0
2024-12-13 15:29:49.586,-0.811466,3.71336,8.04168,-0.343373,0.0377962,0.169586,0
2024-12-13 15:29:49.589,-0.792323,3.71575,8.13021,-0.348259,0.0347419,0.170197,0
2024-12-13 15:29:49.591,-0.801895,3.72293,8.21905,-0.351924,0.0316877,0.174473,0
2024-12-13 15:29:49.593,-0.801895,3.7325,8.3004,-0.356811,0.0255792,0.175084,0
2024-12-13 15:29:49.596,-0.785145,3.73968,8.39372,-0.359255,0.0200816,0.176917,0
2024-12-13 15:29:49.598,-0.785145,3.74686,8.50619,-0.359255,0.0182491,0.178138,0
2024-12-13 15:29:49.603,-0.80668,3.7995,8.70509,-0.359865,0.0164165,0.178749,0
2024-12-13 15:29:49.605,-0.809073,3.82582,8.77687,-0.359255,0.0188599,0.180582,0
2024-12-13 15:29:49.605,-0.809073,3.82582,8.77687,-0.359255,0.0188599,0.180582,0
2024-12-13 15:29:49.607,-0.801895,3.84018,8.84866,-0.359255,0.0206925,0.182414,0
2024-12-13 15:29:49.610,-0.777966,3.83779,8.92284,-0.356811,0.0231358,0.180582,0
2024-12-13 15:29:49.615,-0.770788,3.87368,9.07837,-0.348259,0.0310769,0.184247,0
2024-12-13 15:29:49.615,-0.761217,3.87368,9.07837,-0.348259,0.0310769,0.184247,0
2024-12-13 15:29:49.617,-0.768395,3.87368,9.14537,-0.346427,0.0316877,0.183636,0
2024-12-13 15:29:49.619,-0.751645,3.89522,9.2339,-0.340929,0.0329094,0.184247,0
2024-12-13 15:29:49.622,-0.74686,3.91197,9.31795,-0.337264,0.0347419,0.18669,0
2024-12-13 15:29:49.624,-0.744467,3.91675,9.38974,-0.332988,0.0365745,0.187912,0
2024-12-13 15:29:49.626,-0.725324,3.93111,9.44716,-0.328712,0.0371853,0.188523,0
2024-12-13 15:29:49.629,-0.689432,3.95264,9.49023,-0.325047,0.0390179,0.189744,0
2024-12-13 15:29:49.631,-0.660718,3.97897,9.52613,-0.321993,0.0432938,0.191577,0
2024-12-13 15:29:49.633,-0.643968,3.99332,9.57638,-0.321382,0.0432938,0.191577,0
2024-12-13 15:29:49.638,-0.584148,4.03879,9.68645,-0.317106,0.0396287,0.189744,0
2024-12-13 15:29:49.640,-0.572184,4.05793,9.71516,-0.314052,0.0329094,0.187912,0
2024-12-13 15:29:49.640,-0.572184,4.05793,9.71516,-0.314052,0.0329094,0.187912,0
2024-12-13 15:29:49.643,-0.545863,4.07229,9.74148,-0.314052,0.0329094,0.187912,0
2024-12-13 15:29:49.648,-0.488435,4.09382,9.80848,-0.310387,0.0127514,0.183025,0
2024-12-13 15:29:49.650,-0.488435,4.09382,9.80848,-0.310387,0.0127514,0.183025,0
2024-12-13 15:29:49.662,-0.265603,4.18953,9.84467,-0.302446,-0.0538309,0.144542,0
2024-12-13 15:29:49.664,-0.260818,4.18235,9.83988,-0.292672,-0.0660479,0.13599,0
2024-12-13 15:29:49.666,-0.236889,4.18953,9.83988,-0.280455,-0.0800973,0.12614,0
2024-12-13 15:29:49.669,-0.236889,4.20628,9.83749,-0.274958,-0.0892601,0.115756,0
2024-12-13 15:29:49.671,-0.167498,4.19432,9.85664,-0.271903,-0.0990336,0.10476,0
2024-12-13 15:29:49.673,-0.143569,4.18475,9.88774,-0.271903,-0.0990336,0.10476,0
2024-12-13 15:29:49.676,-0.129212,4.19671,9.93081,-0.263352,-0.113083,0.0839915,0
2024-12-13 15:29:49.678,-0.102891,4.20389,9.98106,-0.259686,-0.11797,0.0705529,0
2024-12-13 15:29:49.680,-0.081356,4.21137,10.0337,-0.250524,-0.121024,0.0577251,0
2024-12-13 15:29:49.683,-0.0717847,4.2329,10.0911,-0.245026,-0.1253,0.0467298,0
2024-12-13 15:29:49.683,-0.081356,4.21137,10.0337,-0.245026,-0.1253,0.0467298,0
2024-12-13 15:29:49.688,-0.0239282,4.27597,10.2036,-0.245026,-0.1253,0.0467298,0
2024-12-13 15:29:49.688,-0.0239282,4.27597,10.2036,-0.245026,-0.1253,0.0467298,0
2024-12-13 15:29:49.690,0.00717847,4.29272,10.2347,-0.21204,-0.119802,0.00946813,0
2024-12-13 15:29:49.690,0.00717847,4.29272,10.2347,-0.21204,-0.119802,0.00946813,0
2024-12-13 15:29:49.697,0.0622134,4.35254,10.3472,-0.185774,-0.105142,-0.0167983,0
2024-12-13 15:29:49.697,0.0622134,4.35254,10.3472,-0.185774,-0.105142,-0.0167983,0
2024-12-13 15:29:49.699,0.0526421,4.37647,10.3567,-0.154621,-0.0929251,-0.0467298,0
2024-12-13 15:29:49.702,0.026321,4.41715,10.3905,-0.145458,-0.0868167,-0.0607793,0
2024-12-13 15:29:49.704,0.0119641,4.46979,10.4192,-0.126522,-0.0794865,-0.0748288,0
2024-12-13 15:29:49.706,0.00957129,4.50329,10.4336,-0.111861,-0.0752106,-0.0888783,0
2024-12-13 15:29:49.706,0.00957129,4.50329,10.4336,-0.111861,-0.0752106,-0.0888783,0
2024-12-13 15:29:49.706,0.00957129,4.50329,10.4336,-0.111861,-0.0752106,-0.0888783,0
2024-12-13 15:29:49.711,-0.0215354,4.60618,10.4049,-0.0837624,-0.0642153,-0.113923,0
2024-12-13 15:29:49.713,-0.0382852,4.66361,10.3834,-0.0684913,-0.0550526,-0.12614,0
2024-12-13 15:29:49.713,-0.0382852,4.66361,10.3834,-0.0684913,-0.0550526,-0.12614,0
2024-12-13 15:29:49.718,-0.107677,4.7354,10.3519,-0.0440574,-0.0428357,-0.150574,0
2024-12-13 15:29:49.718,-0.107677,4.7354,10.3519,-0.0440574,-0.0428357,-0.150574,0
2024-12-13 15:29:49.718,-0.107677,4.7354,10.3519,-0.0440574,-0.0428357,-0.150574,0
2024-12-13 15:29:49.719,-0.107677,4.7354,10.3519,-0.0440574,-0.0428357,-0.150574,0
2024-12-13 15:29:49.723,-0.18664,4.77877,10.2778,-0.0202343,-0.033673,-0.167067,0
2024-12-13 15:29:49.728,-0.18664,4.86012,10.2658,-0.0202343,-0.033673,-0.167067,0
2024-12-13 15:29:49.732,-0.289831,4.90319,10.2634,0.0127514,-0.0312296,-0.193333,0
2024-12-13 15:29:49.735,-0.289831,4.92234,10.2921,0.0176382,-0.0385597,-0.197609,0
2024-12-13 15:29:49.737,-0.320937,4.93191,10.328,0.0188599,-0.0465007,-0.204328,0
2024-12-13 15:29:49.737,-0.320937,4.93191,10.328,0.0188599,-0.0465007,-0.204328,0
2024-12-13 15:29:49.742,-0.330509,4.95583,10.4839,0.0280226,-0.0697129,-0.214102,0
2024-12-13 15:29:49.744,-0.342473,4.97019,10.5844,0.0316877,-0.0794865,-0.216545,0
2024-12-13 15:29:49.744,-0.342473,4.97019,10.5844,0.0316877,-0.0794865,-0.216545,0
2024-12-13 15:29:49.746,-0.344866,4.97737,10.692,0.0316877,-0.0794865,-0.222043,0
2024-12-13 15:29:49.749,-0.352044,5.00608,10.826,0.0390179,-0.100255,-0.224486,0
2024-12-13 15:29:49.751,-0.349651,5.04437,10.9699,0.0390179,-0.100255,-0.227541,0
2024-12-13 15:29:49.753,-0.342473,5.08505,11.1111,0.0536782,-0.120413,-0.233038,0
2024-12-13 15:29:49.753,-0.349651,5.04437,11.1111,0.0536782,-0.120413,-0.233038,0
2024-12-13 15:29:49.758,-0.352044,5.11376,11.3719,0.0683385,-0.138128,-0.239758,0
2024-12-13 15:29:49.761,-0.390329,5.10658,11.482,0.0683385,-0.138128,-0.239758,0
2024-12-13 15:29:49.761,-0.390329,5.10658,11.482,0.0683385,-0.138128,-0.239758,0
2024-12-13 15:29:49.763,-0.419043,5.11376,11.6426,0.0958267,-0.149123,-0.242201,0
2024-12-13 15:29:49.765,-0.445364,5.12573,11.8077,0.108654,-0.155232,-0.243423,0
2024-12-13 15:29:49.768,-0.469292,5.12573,11.9513,0.124536,-0.161951,-0.244644,0
2024-12-13 15:29:49.768,-0.469292,5.12573,11.9513,0.124536,-0.161951,-0.244644,0
2024-12-13 15:29:49.775,-0.447757,5.17119,12.3655,0.170961,-0.19005,-0.249531,0
2024-12-13 15:29:49.777,-0.438186,5.21665,12.478,0.188065,-0.199213,-0.250753,0
2024-12-13 15:29:49.777,-0.438186,5.21665,12.478,0.188065,-0.199213,-0.250753,0
2024-12-13 15:29:49.777,-0.438186,5.21665,12.478,0.188065,-0.199213,-0.250753,0
2024-12-13 15:29:49.784,-0.622433,5.18555,12.8181,0.207001,-0.212651,-0.253807,0
2024-12-13 15:29:49.786,-0.639183,5.17597,12.909,0.265642,-0.252356,-0.254418,0
2024-12-13 15:29:49.789,-0.639183,5.17119,12.9903,0.287633,-0.266406,-0.253196,0
2024-12-13 15:29:49.791,-0.641576,5.1688,13.0573,0.306569,-0.281677,-0.251974,0
2024-12-13 15:29:49.794,-0.641576,5.18555,13.0908,0.306569,-0.281677,-0.251974,0
2024-12-13 15:29:49.796,-0.576969,5.19033,13.1219,0.345663,-0.296948,-0.25564,0
2024-12-13 15:29:49.796,-0.576969,5.19033,13.1219,0.345663,-0.296948,-0.25564,0
2024-12-13 15:29:49.801,-0.531506,5.1688,13.2108,0.383612,-0.307943,-0.262359,0
2024-12-13 15:29:49.803,-0.54347,5.18794,13.2227,0.383612,-0.307943,-0.262359,0
2024-12-13 15:29:49.805,-0.562612,5.22862,13.218,0.419041,-0.307943,-0.268467,0
2024-12-13 15:29:49.808,-0.562612,5.27408,13.1988,0.419041,-0.307943,-0.268467,0
2024-12-13 15:29:49.810,-0.550648,5.29562,13.1602,0.444086,-0.304889,-0.271522,0
2024-12-13 15:29:49.812,-0.550648,5.30279,13.1076,0.456914,-0.304889,-0.270911,0
2024-12-13 15:29:49.817,-0.512363,5.34138,13.0119,0.477072,-0.301224,-0.27763,0
2024-12-13 15:29:49.819,-0.423829,5.37009,12.9521,0.485013,-0.302446,-0.280073,0
2024-12-13 15:29:49.822,-0.395115,5.40359,12.8851,0.485013,-0.302446,-0.280073,0
2024-12-13 15:29:49.824,-0.361615,5.45863,12.7798,0.494786,-0.294505,-0.291069,0
2024-12-13 15:29:49.826,-0.328116,5.50888,12.6529,0.496619,-0.293894,-0.295956,0
2024-12-13 15:29:49.829,-0.299402,5.55434,12.5282,0.496619,-0.293894,-0.295956,0
2024-12-13 15:29:49.831,-0.270389,5.61895,12.3894,0.491732,-0.292672,-0.310616,0
2024-12-13 15:29:49.831,-0.270389,5.61895,12.3894,0.491732,-0.292672,-0.310616,0
2024-12-13 15:29:49.836,-0.205783,5.65723,12.198,0.486845,-0.294505,-0.319779,0
2024-12-13 15:29:49.836,-0.205783,5.65723,12.198,0.486845,-0.294505,-0.319779,0
2024-12-13 15:29:49.841,-0.18664,5.6692,12.0374,0.455692,-0.328101,-0.346656,0
2024-12-13 15:29:49.842,-0.162712,5.6692,12.0374,0.441643,-0.339097,-0.355819,0
2024-12-13 15:29:49.843,-0.138784,5.69791,11.9632,0.441643,-0.339097,-0.355819,0
2024-12-13 15:29:49.843,-0.138784,5.69791,11.9632,0.441643,-0.339097,-0.355819,0
2024-12-13 15:29:49.848,-0.0215354,5.67877,11.8508,0.42515,-0.350092,-0.376587,0
2024-12-13 15:29:49.848,-0.0215354,5.67877,11.8508,0.42515,-0.350092,-0.376587,0
2024-12-13 15:29:49.852,0.816252,5.21426,12.0832,0.375671,-0.380023,-0.43645,0
2024-12-13 15:29:49.852,1.22094,4.84098,12.21,0.375671,-0.380023,-0.43645,0
2024-12-13 15:29:49.855,0.675075,4.98216,11.9489,0.375671,-0.380023,-0.43645,0
2024-12-13 15:29:49.857,0.4334,5.15683,11.8316,0.339555,-0.337875,-0.495092,0
2024-12-13 15:29:49.859,0.371187,5.31954,11.8819,0.339555,-0.337875,-0.495092,0
2024-12-13 15:29:49.862,0.215354,5.46581,11.9297,0.296795,-0.331156,-0.529299,0
2024-12-13 15:29:49.864,-0.0717847,5.57587,11.9321,0.270529,-0.324436,-0.53724,0
2024-12-13 15:29:49.867,-0.378365,5.67637,11.9178,0.240597,-0.317717,-0.53724,0
2024-12-13 15:29:49.869,-0.65354,5.7338,11.9178,0.207001,-0.307333,-0.527467,0
2024-12-13 15:29:49.869,-0.65354,5.7338,11.9178,0.207001,-0.307333,-0.527467,0
2024-12-13 15:29:49.871,-0.878764,5.70269,11.968,0.169128,-0.295726,-0.510363,0
2024-12-13 15:29:49.876,-1.28076,5.6022,12.1334,0.128812,-0.281677,-0.489594,0
2024-12-13 15:29:49.878,-1.31665,5.4682,12.2004,0.0481806,-0.232809,-0.433396,0
2024-12-13 15:29:49.878,-1.31665,5.4682,12.2004,0.0481806,-0.232809,-0.433396,0
2024-12-13 15:29:49.881,-1.23051,5.25972,12.3464,0.00603212,-0.207154,-0.407741,0
2024-12-13 15:29:49.883,-1.12283,5.02283,12.521,0.00603212,-0.207154,-0.407741,0
2024-12-13 15:29:49.889,-0.924228,4.47936,12.8898,-0.119802,-0.122857,-0.356429,0
2024-12-13 15:29:49.890,-0.854836,4.26162,13.1291,-0.119802,-0.122857,-0.356429,0
2024-12-13 15:29:49.892,-0.82343,4.07946,13.3831,-0.188828,-0.0532201,-0.346045,0
2024-12-13 15:29:49.895,-0.8668,3.96222,13.6008,-0.188828,-0.0532201,-0.346045,0
2024-12-13 15:29:49.897,-0.94337,3.91197,13.8236,-0.246248,0.0280226,-0.346656,0
2024-12-13 15:29:49.897,-0.94337,3.91197,13.8236,-0.246248,0.0280226,-0.346656,0
2024-12-13 15:29:49.900,-1.04626,3.89761,14.0701,-0.270682,0.0652843,-0.343602,0
2024-12-13 15:29:49.902,-1.18744,3.85693,14.307,-0.287785,0.100713,-0.34238,0
2024-12-13 15:29:49.904,-1.32861,3.80429,14.525,-0.306722,0.12698,-0.333217,0
2024-12-13 15:29:49.907,-1.43659,3.72533,14.7236,-0.318939,0.147749,-0.324665,0
2024-12-13 15:29:49.909,-1.50598,3.61496,14.901,-0.322604,0.166074,-0.314892,0
2024-12-13 15:29:49.911,-1.5347,3.48096,15.0374,-0.326269,0.174626,-0.305729,0
2024-12-13 15:29:49.916,-1.49402,3.18186,15.2719,-0.310998,0.175237,-0.289236,3
2024-12-13 15:29:49.917,-1.49402,3.18186,15.2719,-0.296948,0.169739,-0.283739,0
2024-12-13 15:29:49.921,-1.43898,3.03559,15.3317,-0.276179,0.15569,-0.281906,0
2024-12-13 15:29:49.921,-1.37408,2.88963,15.37,-0.276179,0.15569,-0.281906,0
2024-12-13 15:29:49.923,-1.32383,2.76521,15.3748,-0.276179,0.15569,-0.281906,0
2024-12-13 15:29:49.925,-1.27837,2.65753,15.2982,-0.215095,0.120871,-0.27763,0
2024-12-13 15:29:49.928,-1.20658,2.55464,15.1475,-0.180276,0.103157,-0.279463,0
2024-12-13 15:29:49.930,-1.09412,2.46102,14.9824,-0.138128,0.086664,-0.280073,0
2024-12-13 15:29:49.932,-0.974477,2.37966,14.7978,-0.0972011,0.0628409,-0.283128,0
2024-12-13 15:29:49.935,-0.876371,2.3007,14.5777,-0.049555,0.0377962,-0.289236,0
2024-12-13 15:29:49.937,-0.794716,2.22891,14.336,0.00236703,0.00786466,-0.295956,0
2024-12-13 15:29:49.940,-0.710967,2.15474,14.0557,0.0579541,-0.0165692,-0.304507,0
2024-12-13 15:29:49.943,-0.584148,2.07099,13.6989,0.178902,-0.0519984,-0.325276,0
2024-12-13 15:29:49.944,-0.442971,1.99681,13.3065,0.178902,-0.0519984,-0.325276,0
2024-12-13 15:29:49.949,-0.328116,1.92473,12.9042,0.298628,-0.0721563,-0.349099,0
2024-12-13 15:29:49.949,-0.253639,1.85055,12.5115,0.298628,-0.0721563,-0.349099,0
2024-12-13 15:29:49.951,-0.205783,1.79551,12.1238,0.298628,-0.0721563,-0.349099,0
2024-12-13 15:29:49.954,-0.129212,1.75962,11.6928,0.416598,-0.0745997,-0.372922,0
2024-12-13 15:29:49.958,0.0311067,1.74048,10.7758,0.529605,-0.0843733,-0.401632,0
2024-12-13 15:29:49.958,0.0311067,1.74048,10.7758,0.529605,-0.0843733,-0.401632,0
2024-12-13 15:29:49.961,0.0861416,1.74527,10.2969,0.580916,-0.0947577,-0.415071,0
2024-12-13 15:29:49.963,0.150748,1.79073,9.81805,0.62734,-0.10392,-0.42912,0
2024-12-13 15:29:49.965,0.198604,1.86491,9.35145,0.671932,-0.112472,-0.445002,0
2024-12-13 15:29:49.970,0.241675,1.96062,8.44636,0.748288,-0.130798,-0.474934,0
2024-12-13 15:29:49.970,0.241675,1.96062,8.44636,0.748288,-0.130798,-0.474934,0
2024-12-13 15:29:49.975,0.272782,2.01835,7.59183,0.803875,-0.149734,-0.501811,0
2024-12-13 15:29:49.975,0.301795,2.08535,7.59183,0.803875,-0.149734,-0.501811,0
2024-12-13 15:29:49.977,0.332901,2.12602,7.19193,0.826476,-0.155842,-0.517082,0
2024-12-13 15:29:49.980,0.359223,2.18345,6.80878,0.841137,-0.164394,-0.529299,0
2024-12-13 15:29:49.984,0.371187,2.25045,6.44955,0.851521,-0.176611,-0.543959,0
2024-12-13 15:29:49.984,0.383151,2.30309,6.11695,0.851521,-0.176611,-0.543959,0
2024-12-13 15:29:49.987,0.397508,2.36291,5.81276,0.854575,-0.201045,-0.56595,0
2024-12-13 15:29:49.991,0.41665,2.42034,5.55673,0.833807,-0.225479,-0.587941,0
2024-12-13 15:29:49.994,0.368794,2.57857,5.11376,0.816703,-0.237696,-0.596492,0
2024-12-13 15:29:49.996,0.368794,2.57857,4.96301,0.794712,-0.249913,-0.603823,0
2024-12-13 15:29:49.997,0.359223,2.66471,4.96301,0.768446,-0.26213,-0.605655,0
2024-12-13 15:29:49.998,0.342473,2.73649,4.82662,0.768446,-0.26213,-0.605655,0
2024-12-13 15:29:50.001,0.332901,2.80828,4.70907,0.739736,-0.271293,-0.608098,0
2024-12-13 15:29:50.003,0.34008,2.8681,4.60618,0.70675,-0.274347,-0.610542,0
2024-12-13 15:29:50.008,0.34008,2.98295,4.54636,0.630394,-0.271903,-0.608098,0
2024-12-13 15:29:50.010,0.344866,3.04756,4.56072,0.590078,-0.267627,-0.605655,0
2024-12-13 15:29:50.013,0.332901,3.11964,4.59661,0.590078,-0.267627,-0.605655,0
2024-12-13 15:29:50.013,0.332901,3.11964,4.59661,0.590078,-0.267627,-0.605655,0
2024-12-13 15:29:50.017,0.308973,3.27757,4.75454,0.469131,-0.232809,-0.58733,0
2024-12-13 15:29:50.020,0.251246,3.37328,4.87209,0.469131,-0.232809,-0.58733,0
2024-12-13 15:29:50.020,0.251246,3.37328,4.87209,0.469131,-0.232809,-0.58733,0
2024-12-13 15:29:50.024,0.160319,3.39003,5.05155,0.354215,-0.183941,-0.547014,0
2024-12-13 15:29:50.027,0.026321,3.3661,5.13051,0.354215,-0.183941,-0.547014,0
2024-12-13 15:29:50.029,0.00239282,3.38764,5.22144,0.27847,-0.135074,-0.513417,0
2024-12-13 15:29:50.029,0.00239282,3.38764,5.22144,0.27847,-0.135074,-0.513417,0
2024-12-13 15:29:50.031,0.00478565,3.41157,5.30997,0.24243,-0.11797,-0.496924,0
2024-12-13 15:29:50.034,0.0358923,3.43071,5.37966,0.205779,-0.102699,-0.481653,0
2024-12-13 15:29:50.036,0.0861416,3.45942,5.44427,0.167907,-0.093536,-0.464549,0
2024-12-13 15:29:50.038,0.208176,3.55753,5.5352,0.133699,-0.0923143,-0.4505,0
2024-12-13 15:29:50.041,0.234497,3.58864,5.62852,0.101935,-0.100866,-0.437672,0
2024-12-13 15:29:50.043,0.0765703,3.46899,5.72423,0.0707819,-0.100255,-0.423012,0
2024-12-13 15:29:50.046,-0.081356,3.33739,5.8008,0.0353528,-0.0947577,-0.404075,0
2024-12-13 15:29:50.048,-0.244068,3.22014,5.87258,0.00542127,-0.0910926,-0.382085,0
2024-12-13 15:29:50.050,-0.35683,3.11964,5.93031,-0.0257319,-0.0910926,-0.358873,0
2024-12-13 15:29:50.053,-0.402293,3.01645,5.98535,-0.0257319,-0.0910926,-0.358873,0
2024-12-13 15:29:50.057,-0.361615,2.97099,6.07149,-0.116137,-0.109418,-0.291069,0
2024-12-13 15:29:50.057,-0.232104,3.01167,6.16242,-0.116137,-0.109418,-0.291069,0
2024-12-13 15:29:50.060,-0.157926,3.03799,6.29641,-0.142404,-0.131409,-0.273354,0
2024-12-13 15:29:50.062,-0.196211,3.00449,6.4666,-0.142404,-0.131409,-0.273354,0
2024-12-13 15:29:50.067,-0.447757,2.93988,6.79442,-0.215095,-0.188217,-0.209826,0
2024-12-13 15:29:50.069,-0.553041,2.92074,6.92842,-0.237085,-0.204099,-0.18356,0
2024-12-13 15:29:50.071,-0.553041,2.92552,7.01964,-0.252967,-0.219981,-0.157904,0
2024-12-13 15:29:50.074,-0.617647,2.92552,7.08904,-0.26946,-0.229144,-0.130416,0
2024-12-13 15:29:50.076,-0.615255,2.84656,7.17518,-0.287175,-0.238918,-0.10476,0
2024-12-13 15:29:50.076,-0.615255,2.84656,7.17518,-0.287175,-0.238918,-0.10476,0
2024-12-13 15:29:50.078,-0.574577,2.77238,7.2685,-0.301224,-0.245026,-0.0839915,0
2024-12-13 15:29:50.081,-0.514756,2.71017,7.3666,-0.301224,-0.245026,-0.0839915,0
2024-12-13 15:29:50.086,-0.378365,2.61446,7.55564,-0.340929,-0.251135,-0.0284044,0
2024-12-13 15:29:50.088,-0.378365,2.55942,7.65643,-0.340929,-0.251135,-0.0284044,0
2024-12-13 15:29:50.090,-0.287438,2.51605,7.74018,-0.364141,-0.250524,0.00274881,0
2024-12-13 15:29:50.090,-0.287438,2.51605,7.74018,-0.364141,-0.250524,0.00274881,0
2024-12-13 15:29:50.095,-0.244068,2.49212,7.93879,-0.38491,-0.246859,0.0271827,0
2024-12-13 15:29:50.097,-0.244068,2.49452,8.05604,-0.394073,-0.245026,0.0406213,0
2024-12-13 15:29:50.097,-0.244068,2.49452,8.05604,-0.394073,-0.245026,0.0406213,0
2024-12-13 15:29:50.100,-0.244068,2.5017,8.17119,-0.394073,-0.245026,0.0406213,0
2024-12-13 15:29:50.104,-0.215354,2.49452,8.36979,-0.403236,-0.228533,0.0784939,0
2024-12-13 15:29:50.104,-0.215354,2.49452,8.36979,-0.403236,-0.228533,0.0784939,0
2024-12-13 15:29:50.107,-0.167498,2.49212,8.47508,-0.402625,-0.21876,0.0894891,0
2024-12-13 15:29:50.109,-0.117248,2.48255,8.56361,-0.400792,-0.209597,0.098041,0
2024-12-13 15:29:50.111,-0.0550349,2.48016,8.62822,-0.393462,-0.199823,0.104149,0
2024-12-13 15:29:50.114,0.0,2.48973,8.67608,-0.393462,-0.199823,0.104149,0
2024-12-13 15:29:50.116,-0.00239282,2.46341,8.75294,-0.374526,-0.193104,0.114534,0
2024-12-13 15:29:50.119,-0.00717847,2.43948,8.8008,-0.358033,-0.202267,0.120031,0
2024-12-13 15:29:50.121,0.0526421,2.45145,8.73141,-0.343373,-0.208375,0.12614,0
2024-12-13 15:29:50.123,0.153141,2.4658,8.63301,-0.331766,-0.210208,0.126751,0
2024-12-13 15:29:50.128,0.232104,2.49452,8.58993,-0.309165,-0.219371,0.117588,0
2024-12-13 15:29:50.128,0.287438,2.51845,8.5684,-0.309165,-0.219371,0.117588,0
2024-12-13 15:29:50.130,0.282652,2.51845,8.54686,-0.295116,-0.234642,0.114534,0
2024-12-13 15:29:50.135,0.184247,2.55224,8.44636,-0.279844,-0.246859,0.11148,0
2024-12-13 15:29:50.137,0.193819,2.57857,8.37937,-0.243804,-0.252356,0.100484,0
2024-12-13 15:29:50.140,0.229711,2.61207,8.3004,-0.243804,-0.252356,0.100484,0
2024-12-13 15:29:50.142,0.289831,2.61924,8.18555,-0.21143,-0.247469,0.082159,0
2024-12-13 15:29:50.142,0.289831,2.61924,8.18555,-0.21143,-0.247469,0.082159,0
2024-12-13 15:29:50.147,0.392722,2.65514,8.01536,-0.179665,-0.223036,0.0552817,0
2024-12-13 15:29:50.149,0.409472,2.67189,7.98186,-0.179665,-0.223036,0.0552817,0
2024-12-13 15:29:50.153,0.419043,2.68624,7.91247,-0.144847,-0.207154,0.0284044,0
2024-12-13 15:29:50.155,0.431007,2.68624,7.80718,-0.106975,-0.199213,-0.00274881,0
2024-12-13 15:29:50.156,0.407079,2.67906,7.68515,-0.106975,-0.199213,-0.00274881,0
2024-12-13 15:29:50.159,0.385544,2.68624,7.56042,-0.106975,-0.199213,-0.00274881,0
2024-12-13 15:29:50.161,0.395115,2.70299,7.4336,-0.077654,-0.185163,-0.033902,0
2024-12-13 15:29:50.161,0.395115,2.70299,7.4336,-0.077654,-0.185163,-0.033902,0
2024-12-13 15:29:50.163,0.383151,2.71256,7.302,-0.0684913,-0.179665,-0.0503949,0
2024-12-13 15:29:50.166,0.354437,2.72692,7.18475,-0.0605502,-0.173557,-0.0656661,0
2024-12-13 15:29:50.168,0.320937,2.7341,7.07946,-0.0550526,-0.164394,-0.0797156,0
2024-12-13 15:29:50.170,0.282652,2.74128,6.97149,-0.0483333,-0.158286,-0.0925434,0
2024-12-13 15:29:50.173,0.258425,2.75085,6.86381,-0.0452791,-0.150345,-0.10476,0
2024-12-13 15:29:50.175,0.239282,2.76281,6.74417,-0.0397814,-0.144847,-0.116977,0
2024-12-13 15:29:50.177,0.212961,2.79631,6.61974,-0.0379489,-0.13935,-0.126751,0
2024-12-13 15:29:50.180,0.184247,2.81785,6.50967,-0.0410031,-0.133852,-0.137135,0
2024-12-13 15:29:50.184,0.222533,2.88963,6.29881,-0.049555,-0.122857,-0.160347,0
2024-12-13 15:29:50.187,0.222533,2.90399,6.21267,-0.049555,-0.122857,-0.160347,0
2024-12-13 15:29:50.187,0.222533,2.90399,6.21267,-0.049555,-0.122857,-0.160347,0
2024-12-13 15:29:50.189,0.215354,2.93031,6.13131,-0.0636045,-0.111861,-0.186614,0
2024-12-13 15:29:50.194,0.150748,3.01645,5.97338,-0.0752106,-0.108196,-0.197609,0
2024-12-13 15:29:50.196,0.122034,3.05474,5.92074,-0.0990336,-0.0984228,-0.218989,0
2024-12-13 15:29:50.199,0.0837488,3.08854,5.88216,-0.115526,-0.093536,-0.228151,0
2024-12-13 15:29:50.199,0.0837488,3.08854,5.88216,-0.115526,-0.093536,-0.228151,0
2024-12-13 15:29:50.201,0.0502493,3.11725,5.84148,-0.127133,-0.0910926,-0.234871,0
2024-12-13 15:29:50.206,0.0,3.15075,5.80798,-0.144847,-0.0886492,-0.243423,0
2024-12-13 15:29:50.208,-0.0382852,3.18425,5.80319,-0.172946,-0.0831516,-0.253807,0
2024-12-13 15:29:50.210,-0.081356,3.21536,5.8008,-0.172946,-0.0831516,-0.253807,0
2024-12-13 15:29:50.213,-0.136391,3.22014,5.82234,-0.205321,-0.0800973,-0.262359,0
2024-12-13 15:29:50.213,-0.136391,3.22014,5.82234,-0.205321,-0.0800973,-0.262359,0
2024-12-13 15:29:50.217,-0.234497,3.23689,5.93031,-0.232809,-0.0782648,-0.258694,0
2024-12-13 15:29:50.220,-0.234497,3.23689,5.99731,-0.232809,-0.0782648,-0.258694,0
2024-12-13 15:29:50.222,-0.313759,3.25603,6.0691,-0.2548,-0.0770431,-0.254418,0
2024-12-13 15:29:50.225,-0.313759,3.25603,6.13849,-0.2548,-0.0770431,-0.254418,0
2024-12-13 15:29:50.227,-0.35683,3.3015,6.21027,-0.273736,-0.0782648,-0.246477,0
2024-12-13 15:29:50.229,-0.354437,3.33021,6.28206,-0.273736,-0.0794865,-0.239758,0
2024-12-13 15:29:50.232,-0.368794,3.35175,6.34427,-0.288396,-0.0843733,-0.236092,0
2024-12-13 15:29:50.234,-0.383151,3.38046,6.41366,-0.288396,-0.0843733,-0.236092,0
2024-12-13 15:29:50.236,-0.395115,3.39721,6.50489,-0.297559,-0.0923143,-0.225708,0
2024-12-13 15:29:50.236,-0.395115,3.39721,6.50489,-0.297559,-0.0923143,-0.225708,0
2024-12-13 15:29:50.241,-0.428614,3.4331,6.70349,-0.304889,-0.102699,-0.214713,0
2024-12-13 15:29:50.241,-0.428614,3.4331,6.70349,-0.304889,-0.102699,-0.214713,0
2024-12-13 15:29:50.248,-0.447757,3.49053,6.92602,-0.309776,-0.113083,-0.19822,0
2024-12-13 15:29:50.250,-0.447757,3.52403,7.02682,-0.309776,-0.113083,-0.19822,0
2024-12-13 15:29:50.253,-0.447757,3.52403,7.10339,-0.311608,-0.120413,-0.186003,0
2024-12-13 15:29:50.255,-0.454935,3.55992,7.16561,-0.312219,-0.123468,-0.181116,0
2024-12-13 15:29:50.257,-0.4334,3.61017,7.22543,-0.311608,-0.125911,-0.175008,0
2024-12-13 15:29:50.257,-0.4334,3.61017,7.22543,-0.311608,-0.125911,-0.175008,0
2024-12-13 15:29:50.260,-0.426222,3.64606,7.28046,-0.314663,-0.132019,-0.171953,0
2024-12-13 15:29:50.262,-0.414257,3.66311,7.3331,-0.315884,-0.133241,-0.167678,0
2024-12-13 15:29:50.265,-0.383151,3.68465,7.37378,-0.315884,-0.138128,-0.165234,0
2024-12-13 15:29:50.267,-0.375972,3.70858,7.41446,-0.315884,-0.138128,-0.165234,0
2024-12-13 15:29:50.269,-0.383151,3.7325,7.45514,-0.323825,-0.149123,-0.159737,0
2024-12-13 15:29:50.269,-0.375972,3.7325,7.45514,-0.323825,-0.149123,-0.159737,0
2024-12-13 15:29:50.272,-0.380758,3.766,7.50539,-0.328712,-0.154621,-0.159126,0
2024-12-13 15:29:50.274,-0.383151,3.7995,7.54128,-0.33421,-0.157675,-0.156682,0
2024-12-13 15:29:50.277,-0.402293,3.82582,7.55324,-0.340318,-0.160118,-0.156071,0
2024-12-13 15:29:50.279,-0.440578,3.84497,7.59901,-0.347648,-0.163783,-0.155461,0
2024-12-13 15:29:50.281,-0.478864,3.84975,7.66601,-0.354368,-0.163173,-0.153628,0
2024-12-13 15:29:50.284,-0.514756,3.85932,7.73061,-0.36353,-0.163173,-0.150574,0
2024-12-13 15:29:50.286,-0.533899,3.87129,7.80718,-0.369028,-0.160729,-0.149963,0
2024-12-13 15:29:50.288,-0.545863,3.89043,7.91964,-0.381245,-0.163173,-0.149963,0
2024-12-13 15:29:50.290,-0.565005,3.90479,8.05125,-0.389797,-0.165616,-0.149963,0
2024-12-13 15:29:50.295,-0.588933,3.9335,8.36501,-0.405068,-0.164394,-0.149352,0
2024-12-13 15:29:50.298,-0.588933,3.95025,8.51097,-0.408733,-0.162562,-0.149963,0
2024-12-13 15:29:50.298,-0.598505,3.95025,8.51097,-0.408733,-0.162562,-0.149963,0
2024-12-13 15:29:50.300,-0.608076,3.96222,8.64736,-0.41362,-0.153399,-0.149352,0
2024-12-13 15:29:50.305,-0.634397,3.97897,8.97548,-0.418507,-0.131409,-0.145687,0
2024-12-13 15:29:50.307,-0.655932,3.97657,9.10948,-0.417285,-0.11797,-0.143855,0
2024-12-13 15:29:50.309,-0.665504,3.98375,9.24826,-0.414231,-0.102088,-0.144465,0
2024-12-13 15:29:50.312,-0.677468,3.98854,9.38256,-0.409955,-0.0880384,-0.138968,0
2024-12-13 15:29:50.314,-0.672682,4.00289,9.52134,-0.409955,-0.0880384,-0.138968,0
2024-12-13 15:29:50.316,-0.679861,4.0005,9.64577,-0.40629,-0.0562743,-0.130416,0
2024-12-13 15:29:50.320,-0.701396,3.98375,9.76302,-0.39957,-0.0306187,-0.121253,0
2024-12-13 15:29:50.321,-0.706182,3.99093,9.90688,-0.39957,-0.0306187,-0.121253,0
2024-12-13 15:29:50.321,-0.706182,3.99093,9.90688,-0.39957,-0.0306187,-0.121253,0
2024-12-13 15:29:50.326,-0.667897,4.01486,10.1557,-0.395905,-0.0208452,-0.114534,0
2024-12-13 15:29:50.328,-0.641576,4.00529,10.2873,-0.389797,-0.0019089,-0.102317,0
2024-12-13 15:29:50.328,-0.641576,4.00529,10.2873,-0.389797,-0.0019089,-0.102317,0
2024-12-13 15:29:50.333,-0.60329,4.00529,10.5126,-0.380634,0.0176382,-0.0931542,0
2024-12-13 15:29:50.333,-0.60329,4.00529,10.5126,-0.380634,0.0176382,-0.0931542,0
2024-12-13 15:29:50.335,-0.581755,4.01725,10.6202,-0.375137,0.0268009,-0.0876566,0
2024-12-13 15:29:50.338,-0.557827,4.034,10.7303,-0.37025,0.0347419,-0.0839915,0
2024-12-13 15:29:50.340,-0.536291,4.05075,10.8284,-0.36292,0.0439046,-0.0803264,0
2024-12-13 15:29:50.342,-0.545863,4.06271,10.917,-0.354368,0.0530674,-0.0766613,0
2024-12-13 15:29:50.345,-0.557827,4.06032,11.001,-0.347648,0.0610084,-0.0717745,0
2024-12-13 15:29:50.347,-0.548256,4.06989,11.0632,-0.337264,0.066506,-0.0656661,0
2024-12-13 15:29:50.349,-0.533899,4.09382,11.1398,-0.326269,0.0713928,-0.0632227,0
2024-12-13 15:29:50.352,-0.514756,4.10578,11.2259,-0.315274,0.0768904,-0.0595576,0
2024-12-13 15:29:50.354,-0.502792,4.12253,11.2905,-0.301835,0.0799446,-0.0534491,0
2024-12-13 15:29:50.356,-0.498006,4.14646,11.348,-0.289618,0.0829989,-0.0485624,0
2024-12-13 15:29:50.359,-0.488435,4.16321,11.403,-0.274347,0.0836097,-0.0473407,0
2024-12-13 15:29:50.361,-0.457328,4.17039,11.4628,-0.257854,0.082388,-0.046119,0
2024-12-13 15:29:50.366,-0.390329,4.2015,11.5636,-0.257854,0.082388,-0.046119,0
2024-12-13 15:29:50.368,-0.359223,4.21855,11.6186,-0.199823,0.0671168,-0.0497841,0
2024-12-13 15:29:50.371,-0.318545,4.25205,11.6641,-0.178444,0.0579541,-0.0534491,0
2024-12-13 15:29:50.373,-0.304188,4.31187,11.6952,-0.152788,0.050624,-0.0589468,0
2024-12-13 15:29:50.375,-0.304188,4.36451,11.7072,-0.128354,0.042683,-0.0626118,0
2024-12-13 15:29:50.380,-0.311366,4.41954,11.6856,-0.0758214,0.0219141,-0.0723854,0
2024-12-13 15:29:50.380,-0.342473,4.47219,11.6856,-0.0758214,0.0219141,-0.0723854,0
2024-12-13 15:29:50.382,-0.375972,4.51526,11.6689,-0.0758214,0.0219141,-0.0723854,0
2024-12-13 15:29:50.385,-0.392722,4.55115,11.645,-0.0263428,0.00603212,-0.082159,0
2024-12-13 15:29:50.389,-0.364008,4.6349,11.6545,0.0200816,-0.0171801,-0.0907108,0
2024-12-13 15:29:50.389,-0.364008,4.6349,11.6545,0.0200816,-0.0171801,-0.0907108,0
2024-12-13 15:29:50.394,-0.330509,4.733,11.6545,0.0616192,-0.0568851,-0.098041,0
2024-12-13 15:29:50.396,-0.30658,4.7665,11.6402,0.0781121,-0.0739889,-0.104149,0
2024-12-13 15:29:50.399,-0.308973,4.78834,11.621,0.0939941,-0.0910926,-0.107204,0
2024-12-13 15:29:50.399,-0.308973,4.78834,11.621,0.0939941,-0.0910926,-0.107204,0
2024-12-13 15:29:50.404,-0.275175,4.86491,11.6043,0.125147,-0.113083,-0.109036,0
2024-12-13 15:29:50.406,-0.241675,4.90319,11.6186,0.125147,-0.113083,-0.109036,0
2024-12-13 15:29:50.408,-0.241675,4.90319,11.621,0.150192,-0.126522,-0.110869,0
2024-12-13 15:29:50.408,-0.227318,4.94626,11.621,0.150192,-0.126522,-0.110869,0
2024-12-13 15:29:50.411,-0.227318,4.97976,11.621,0.160576,-0.130187,-0.11209,0
2024-12-13 15:29:50.411,-0.227318,4.97976,11.621,0.160576,-0.130187,-0.11209,0
2024-12-13 15:29:50.419,-0.20339,5.08983,11.6474,0.18501,-0.119192,-0.110869,0
2024-12-13 15:29:50.420,-0.184247,5.08983,11.6474,0.18501,-0.119192,-0.110869,0
2024-12-13 15:29:50.422,-0.114855,5.19033,11.7861,0.195395,-0.0953685,-0.10476,0
2024-12-13 15:29:50.422,-0.114855,5.19033,11.7861,0.195395,-0.0953685,-0.10476,0
2024-12-13 15:29:50.425,-0.0909273,5.24537,11.8723,0.195395,-0.0953685,-0.10476,0
2024-12-13 15:29:50.429,-0.0789631,5.4012,11.9513,0.203336,-0.065437,-0.0992627,0
2024-12-13 15:29:50.432,-0.114855,5.47538,11.9752,0.211277,-0.0281753,-0.0852132,0
2024-12-13 15:29:50.432,-0.114855,5.47538,11.9752,0.211277,-0.0281753,-0.0852132,0
2024-12-13 15:29:50.436,-0.12682,5.52802,12.0039,0.213109,0.0200816,-0.0693312,0
2024-12-13 15:29:50.436,-0.114855,5.56391,12.0446,0.213109,0.0200816,-0.0693312,0
2024-12-13 15:29:50.441,-0.081356,5.58305,12.1023,0.214942,0.0811663,-0.0479515,0
2024-12-13 15:29:50.441,-0.0191426,5.60459,12.1669,0.214942,0.0811663,-0.0479515,0
2024-12-13 15:29:50.444,0.0430708,5.62373,12.2172,0.214942,0.0811663,-0.0479515,0
2024-12-13 15:29:50.446,0.0430708,5.64048,12.2746,0.215553,0.143473,-0.0332912,0
2024-12-13 15:29:50.448,0.124427,5.68116,12.3296,0.216164,0.17035,-0.025961,0
2024-12-13 15:29:50.451,0.122034,5.72423,12.3224,0.216164,0.17035,-0.025961,0
2024-12-13 15:29:50.451,0.122034,5.72423,12.3224,0.216164,0.17035,-0.025961,0
2024-12-13 15:29:50.455,0.0789631,5.85105,12.2435,0.21372,0.227159,-0.0131332,0
2024-12-13 15:29:50.458,0.0550349,5.8678,12.21,0.210055,0.284578,0.00274881,0
2024-12-13 15:29:50.460,0.0143569,5.88455,12.2124,0.205779,0.312067,0.0119115,0
2024-12-13 15:29:50.460,0.0143569,5.88455,12.2124,0.205779,0.312067,0.0119115,0
2024-12-13 15:29:50.462,-0.0239282,5.92792,12.2363,0.201503,0.33589,0.0198525,0
2024-12-13 15:29:50.465,-0.0478565,5.97817,12.2554,0.192951,0.354826,0.0290152,0
2024-12-13 15:29:50.467,-0.0837488,6.0356,12.2746,0.189286,0.371319,0.0412322,0
2024-12-13 15:29:50.469,-0.122034,6.09781,12.2865,0.180734,0.382314,0.0485624,0
2024-12-13 15:29:50.472,-0.143569,6.15524,12.2937,0.175848,0.391477,0.0546708,0
2024-12-13 15:29:50.474,-0.153141,6.19352,12.2961,0.167296,0.396364,0.0644444,0
2024-12-13 15:29:50.477,-0.189033,6.25574,12.3033,0.159966,0.400639,0.0693312,0
2024-12-13 15:29:50.479,-0.236889,6.33709,12.3009,0.147749,0.402472,0.0717745,0
2024-12-13 15:29:50.481,-0.272782,6.39213,12.2961,0.140419,0.403083,0.0742179,0
2024-12-13 15:29:50.484,-0.32333,6.4328,12.2937,0.129423,0.399418,0.077883,0
2024-12-13 15:29:50.486,-0.378365,6.48814,12.2722,0.119039,0.396364,0.0797156,0
2024-12-13 15:29:50.488,-0.442971,6.53121,12.277,0.109265,0.384147,0.0803264,0
2024-12-13 15:29:50.491,-0.521934,6.54317,12.3009,0.0994917,0.373151,0.082159,0
2024-12-13 15:29:50.493,-0.591326,6.53121,12.3248,0.086664,0.358491,0.0846023,0
2024-12-13 15:29:50.496,-0.675075,6.49292,12.3344,0.0726145,0.341998,0.0894891,0
2024-12-13 15:29:50.498,-0.751645,6.44716,12.3344,0.0573433,0.324894,0.0943759,0
2024-12-13 15:29:50.500,-0.813859,6.37538,12.344,0.0420721,0.305958,0.100484,0
2024-12-13 15:29:50.502,-0.864407,6.29402,12.3727,0.0231358,0.282746,0.107204,0
2024-12-13 15:29:50.505,-0.871586,6.22941,12.4277,-0.00129805,0.25709,0.113312,0
2024-12-13 15:29:50.507,-0.862014,6.14567,12.4995,-0.0275645,0.236322,0.116366,0
2024-12-13 15:29:50.509,-0.862014,6.06431,12.6338,-0.0568851,0.211888,0.120642,0
2024-12-13 15:29:50.512,-0.857229,5.9686,12.8109,-0.0874275,0.18501,0.125529,0
2024-12-13 15:29:50.514,-0.842872,5.85584,12.9832,-0.120413,0.155079,0.132859,0
2024-12-13 15:29:50.517,-0.811466,5.73859,13.1315,-0.15401,0.128202,0.138433,0
2024-12-13 15:29:50.519,-0.770788,5.64287,13.261,-0.192493,0.101324,0.143931,0
2024-12-13 15:29:50.521,-0.739681,5.5328,13.3807,-0.234031,0.0756687,0.148818,0
2024-12-13 15:29:50.524,-0.725324,5.41795,13.5099,-0.280455,0.0548999,0.153094,0
2024-12-13 15:29:50.526,-0.701396,5.29562,13.6582,-0.325658,0.0261901,0.15737,0
2024-12-13 15:29:50.528,-0.689432,5.14248,13.8595,-0.371471,-0.00374144,0.159813,0
2024-12-13 15:29:50.531,-0.701396,4.99891,14.1156,-0.418507,-0.0342838,0.164089,0
2024-12-13 15:29:50.533,-0.708575,4.85294,14.3934,-0.458823,-0.0593285,0.170808,0
2024-12-13 15:29:50.535,-0.710967,4.7019,14.6949,-0.495473,-0.0758214,0.179971,0
2024-12-13 15:29:50.538,-0.694218,4.52961,15.023,-0.527238,-0.0831516,0.189134,0
2024-12-13 15:29:50.540,-0.627219,4.33579,15.3796,-0.548006,-0.0770431,0.197075,0
2024-12-13 15:29:50.542,-0.531506,4.12732,15.7579,-0.560223,-0.0636045,0.205016,0
2024-12-13 15:29:50.545,-0.447757,3.90957,16.1554,-0.561445,-0.0440574,0.213567,0
2024-12-13 15:29:50.547,-0.371187,3.68943,16.5335,-0.555337,-0.0190126,0.220287,0
2024-12-13 15:29:50.550,-0.277567,3.46182,16.864,-0.537011,0.010308,0.223952,0
2024-12-13 15:29:50.552,-0.165105,3.25125,17.1347,-0.510745,0.0457372,0.23006,0
2024-12-13 15:29:50.554,-0.0765703,3.04756,17.362,-0.476537,0.0860531,0.233725,0
2024-12-13 15:29:50.557,-0.00957129,2.82024,17.563,-0.433778,0.126369,0.239223,0
2024-12-13 15:29:50.559,0.0334995,2.61924,17.7021,-0.382467,0.170961,0.247164,0
2024-12-13 15:29:50.561,0.0239282,2.45145,17.7954,-0.322604,0.216774,0.255105,0
2024-12-13 15:29:50.564,-0.22014,2.47059,17.683,-0.257243,0.270529,0.268544,0
2024-12-13 15:29:50.566,-0.435793,2.4993,17.5989,-0.19005,0.331003,0.294199,3
2024-12-13 15:29:50.568,-0.3999,2.34138,17.7332,-0.115526,0.373151,0.319855,0
2024-12-13 15:29:50.573,-0.181855,1.90798,17.6037,-0.037338,0.402472,0.341845,0
2024-12-13 15:29:50.575,-0.00239282,1.67827,17.3668,0.137975,0.467833,0.379107,0
2024-12-13 15:29:50.578,0.184247,1.47727,17.0602,0.231435,0.505094,0.390102,0
2024-12-13 15:29:50.580,0.368794,1.30947,16.7133,0.328559,0.54541,0.396211,0
2024-12-13 15:29:50.580,0.368794,1.30947,16.7133,0.328559,0.54541,0.396211,0
2024-12-13 15:29:50.582,0.521934,1.18026,16.2894,0.426371,0.585115,0.397433,0
2024-12-13 15:29:50.585,0.632004,1.11087,15.801,0.52655,0.621766,0.392546,0
2024-12-13 15:29:50.590,0.586541,1.17069,14.6303,0.718356,0.693846,0.369944,0
2024-12-13 15:29:50.590,0.586541,1.17069,14.6303,0.718356,0.693846,0.369944,0
2024-12-13 15:29:50.592,0.423829,1.29512,14.0198,0.809983,0.723243,0.356506,0
2024-12-13 15:29:50.594,0.198604,1.43898,13.3926,0.897945,0.751342,0.351008,0
2024-12-13 15:29:50.597,0.00478565,1.56341,12.7511,0.977356,0.773333,0.346121,0
2024-12-13 15:29:50.599,-0.145962,1.64237,12.1621,1.05127,0.795323,0.341845,0
2024-12-13 15:29:50.601,-0.297009,1.6663,11.6163,1.11724,0.806929,0.341845,0
2024-12-13 15:29:50.606,-0.481256,1.69741,10.4934,1.17832,0.806318,0.344289,0
2024-12-13 15:29:50.608,-0.541077,1.72612,9.93081,1.28156,0.789215,0.343067,0
2024-12-13 15:29:50.608,-0.541077,1.72612,9.93081,1.28156,0.789215,0.343067,0
2024-12-13 15:29:50.611,-0.598505,1.79312,9.32274,1.3231,0.772111,0.342456,0
2024-12-13 15:29:50.615,-0.598505,1.89123,8.20948,1.38113,0.732406,0.340013,0
2024-12-13 15:29:50.618,-0.56022,1.91516,7.66601,1.40189,0.71408,0.335737,0
2024-12-13 15:29:50.618,-0.56022,1.91516,7.66601,1.40189,0.71408,0.335737,0
2024-12-13 15:29:50.620,-0.536291,1.94865,7.09143,1.408,0.6969,0.329018,0
2024-12-13 15:29:50.625,-0.529113,2.07817,5.99013,1.40434,0.684073,0.315579,0
2024-12-13 15:29:50.627,-0.598505,2.16431,5.4993,1.3738,0.665136,0.280761,0
2024-12-13 15:29:50.627,-0.598505,2.16431,5.4993,1.3738,0.665136,0.280761,0
2024-12-13 15:29:50.630,-0.658325,2.26959,5.05394,1.34325,0.655974,0.264879,0
2024-12-13 15:29:50.634,-0.490828,2.21934,4.46261,1.25957,0.627875,0.227617,0
2024-12-13 15:29:50.634,-0.490828,2.21934,4.46261,1.25957,0.627875,0.227617,0
2024-12-13 15:29:50.639,-0.294616,2.15713,4.02204,1.25957,0.627875,0.227617,0
2024-12-13 15:29:50.644,-0.517149,2.72213,3.46182,1.04149,0.560071,0.107815,0
2024-12-13 15:29:50.644,-0.63679,2.72213,3.46182,1.04149,0.560071,0.107815,0
2024-12-13 15:29:50.646,-0.893121,2.87767,3.36132,0.976745,0.557016,0.082159,0
2024-12-13 15:29:50.646,-0.893121,2.87767,3.36132,0.976745,0.557016,0.082159,0
2024-12-13 15:29:50.651,-1.63998,3.18186,3.19621,0.835028,0.567401,0.0534491,0
2024-12-13 15:29:50.651,-1.63998,3.18186,3.19621,0.835028,0.567401,0.0534491,0
2024-12-13 15:29:50.653,-2.03031,3.38525,3.12443,0.758061,0.577785,0.0522274,0
2024-12-13 15:29:50.656,-2.18824,3.47617,3.21536,0.679262,0.583894,0.0565034,0
2024-12-13 15:29:50.658,-2.2337,3.47617,3.39482,0.604128,0.575342,0.0638335,0
2024-12-13 15:29:50.660,-2.20977,3.44985,3.55274,0.528383,0.557016,0.0711637,0
2024-12-13 15:29:50.663,-2.12363,3.40917,3.68226,0.452638,0.531972,0.0723854,0
2024-12-13 15:29:50.665,-2.01356,3.34218,3.81625,0.376893,0.500818,0.0729962,0
2024-12-13 15:29:50.667,-1.90798,3.27039,3.97179,0.304736,0.464778,0.0723854,0
2024-12-13 15:29:50.670,-1.84576,3.201,4.13211,0.232656,0.434236,0.0687203,0
2024-12-13 15:29:50.672,-1.82423,3.15075,4.29512,0.167296,0.40858,0.0626118,0
2024-12-13 15:29:50.674,-1.81944,3.11486,4.49133,0.103768,0.384757,0.0571142,0
2024-12-13 15:29:50.677,-1.84816,3.07388,4.72104,0.0445155,0.363378,0.0522274,0
2024-12-13 15:29:50.679,-1.9008,3.04517,4.95344,-0.00740652,0.351161,0.0510057,0
2024-12-13 15:29:50.681,-1.97049,3.01406,5.2023,-0.0550526,0.340166,0.0485624,0
2024-12-13 15:29:50.684,-2.0351,2.98535,5.49691,-0.0550526,0.340166,0.0485624,0
2024-12-13 15:29:50.686,-2.0662,2.9686,5.80319,-0.131409,0.337111,0.05406,0
2024-12-13 15:29:50.688,-2.06381,2.9327,6.09542,-0.159507,0.333446,0.0589468,0
2024-12-13 15:29:50.691,-2.0351,2.88245,6.3682,-0.182109,0.33589,0.0613902,0
2024-12-13 15:29:50.696,-1.89362,2.79392,6.80878,-0.197991,0.3365,0.0681095,0
2024-12-13 15:29:50.698,-1.89362,2.72692,6.99063,-0.222425,0.342609,0.077883,0
2024-12-13 15:29:50.698,-1.80509,2.72692,6.99063,-0.222425,0.342609,0.077883,0
2024-12-13 15:29:50.700,-1.74766,2.65992,7.14646,-0.230977,0.340166,0.0784939,0
2024-12-13 15:29:50.705,-1.6998,2.54028,7.436,-0.238918,0.339555,0.0803264,0
2024-12-13 15:29:50.707,-1.66869,2.49691,7.56282,-0.24808,0.328559,0.0839915,0
2024-12-13 15:29:50.710,-1.67827,2.45863,7.69233,-0.246859,0.323673,0.085824,0
2024-12-13 15:29:50.712,-1.68784,2.41555,7.8359,-0.244415,0.316953,0.0907108,0
2024-12-13 15:29:50.712,-1.68784,2.41555,7.8359,-0.244415,0.316953,0.0907108,0
2024-12-13 15:29:50.717,-1.61366,2.36052,8.11107,-0.235863,0.288854,0.102317,0
2024-12-13 15:29:50.717,-1.61366,2.36052,8.11107,-0.235863,0.288854,0.102317,0
2024-12-13 15:29:50.719,-1.55623,2.33659,8.21665,-0.235863,0.288854,0.102317,0
2024-12-13 15:29:50.721,-1.49402,2.3007,8.30997,-0.218149,0.26381,0.115756,0
2024-12-13 15:29:50.726,-1.39322,2.25045,8.46311,-0.195547,0.241208,0.118199,0
2024-12-13 15:29:50.729,-1.37408,2.23849,8.55883,-0.180887,0.233878,0.123697,0
2024-12-13 15:29:50.729,-1.37408,2.23849,8.55883,-0.180887,0.233878,0.123697,0
2024-12-13 15:29:50.731,-1.37408,2.21934,8.64736,-0.16134,0.225937,0.12614,0
2024-12-13 15:29:50.738,-1.26879,2.18584,8.80798,-0.0953685,0.201503,0.137212,0
2024-12-13 15:29:50.738,-1.26879,2.18584,8.80798,-0.0953685,0.201503,0.137212,0
2024-12-13 15:29:50.740,-1.22812,2.20499,8.80319,-0.0715455,0.19173,0.138433,0
2024-12-13 15:29:50.743,-1.19222,2.21695,8.80319,-0.0458899,0.183789,0.137822,0
2024-12-13 15:29:50.745,-1.18505,2.2002,8.79123,-0.0208452,0.176459,0.137822,0
2024-12-13 15:29:50.747,-1.18026,2.2002,8.76252,0.00358873,0.172793,0.137212,0
2024-12-13 15:29:50.750,-1.14197,2.20977,8.71227,0.0286335,0.169739,0.13347,0
2024-12-13 15:29:50.750,-1.14197,2.20977,8.71227,0.0286335,0.169739,0.13347,0
2024-12-13 15:29:50.752,-1.08933,2.22174,8.63061,0.0286335,0.169739,0.13347,0
2024-12-13 15:29:50.754,-1.02712,2.24088,8.52772,0.0793338,0.167296,0.12614,0
2024-12-13 15:29:50.757,-0.998405,2.24327,8.40329,0.0793338,0.167296,0.12614,0
2024-12-13 15:29:50.759,-0.996012,2.24566,8.28844,0.123315,0.17035,0.114534,0
2024-12-13 15:29:50.761,-0.998405,2.25045,8.17358,0.139197,0.172793,0.107815,0
2024-12-13 15:29:50.764,-0.998405,2.25763,8.03689,0.156911,0.178902,0.0998735,0
2024-12-13 15:29:50.766,-0.981655,2.26959,7.88854,0.173404,0.1844,0.0925434,0
2024-12-13 15:29:50.769,-0.96012,2.27199,7.72822,0.188065,0.192341,0.0839915,0
2024-12-13 15:29:50.771,-0.929013,2.28873,7.56521,0.200892,0.204557,0.077883,0
2024-12-13 15:29:50.773,-0.893121,2.32223,7.40489,0.210666,0.214942,0.0711637,0
2024-12-13 15:29:50.776,-0.8668,2.34616,7.22782,0.222883,0.228381,0.0644444,0
2024-12-13 15:29:50.778,-0.847657,2.35095,7.05793,0.229602,0.239987,0.0571142,0
2024-12-13 15:29:50.780,-0.830609,2.35334,6.89492,0.236932,0.254647,0.0522274,0
2024-12-13 15:29:50.783,-0.828216,2.37488,6.7346,0.238765,0.267475,0.0491732,0
2024-12-13 15:29:50.785,-0.837787,2.40359,6.57907,0.240597,0.280303,0.0442864,0
2024-12-13 15:29:50.787,-0.833001,2.4012,6.42563,0.239987,0.291298,0.0412322,0
2024-12-13 15:29:50.791,-0.828216,2.40598,6.3012,0.2351,0.30718,0.0400105,0
2024-12-13 15:29:50.792,-0.830609,2.45145,6.18156,0.2351,0.30718,0.0400105,0
2024-12-13 15:29:50.794,-0.813859,2.48973,6.05474,0.228991,0.312677,0.0387888,0
2024-12-13 15:29:50.797,-0.801895,2.52592,5.9351,0.221661,0.312067,0.0406213,0
2024-12-13 15:29:50.799,-0.804287,2.55464,5.81276,0.212498,0.312677,0.041843,0
2024-12-13 15:29:50.802,-0.797109,2.58096,5.69312,0.199671,0.312067,0.0424539,0
2024-12-13 15:29:50.804,-0.794716,2.61207,5.58066,0.187454,0.308401,0.041843,0
2024-12-13 15:29:50.806,-0.787538,2.63599,5.48255,0.17035,0.305347,0.041843,0
2024-12-13 15:29:50.809,-0.768395,2.65035,5.42513,0.15569,0.30046,0.041843,0
2024-12-13 15:29:50.812,-0.768395,2.66231,5.39641,0.123315,0.294352,0.038178,0
2024-12-13 15:29:50.813,-0.785145,2.67428,5.37249,0.123315,0.294352,0.038178,0
2024-12-13 15:29:50.816,-0.797109,2.68146,5.35095,0.104379,0.290687,0.0387888,0
2024-12-13 15:29:50.818,-0.794716,2.68624,5.34377,0.0891073,0.285189,0.0363454,0
2024-12-13 15:29:50.820,-0.804287,2.69821,5.33659,0.0701711,0.283357,0.0357346,0
2024-12-13 15:29:50.823,-0.828216,2.7341,5.34377,0.0494023,0.276027,0.033902,0
2024-12-13 15:29:50.825,-0.845265,2.76042,5.37249,0.0298552,0.272972,0.0314586,0
2024-12-13 15:29:50.827,-0.854836,2.77717,5.41316,0.0121406,0.265642,0.0284044,0
2024-12-13 15:29:50.830,-0.873978,2.79631,5.46102,-0.00618483,0.254647,0.0265719,0
2024-12-13 15:29:50.832,-0.902692,2.81545,5.5017,-0.0257319,0.243041,0.0222959,0
2024-12-13 15:29:50.835,-0.924228,2.82263,5.55673,-0.0397814,0.231435,0.0198525,0
2024-12-13 15:29:50.837,-0.929013,2.84417,5.6333,-0.0544418,0.22044,0.0198525,0
2024-12-13 15:29:50.839,-0.945763,2.84895,5.69552,-0.0660479,0.208833,0.01802,0
2024-12-13 15:29:50.842,-0.979263,2.83938,5.75773,-0.0788757,0.200282,0.0161875,0
2024-12-13 15:29:50.844,-1.00558,2.84178,5.84626,-0.0874275,0.192951,0.0161875,0
2024-12-13 15:29:50.846,-1.02712,2.85135,5.9351,-0.0941468,0.189286,0.0137441,0
2024-12-13 15:29:50.849,-1.04626,2.88245,6.00449,-0.100866,0.182567,0.0155766,0
2024-12-13 15:29:50.851,-1.06301,2.90399,6.08106,-0.106364,0.176459,0.0149658,0
2024-12-13 15:29:50.853,-1.07019,2.92074,6.14088,-0.108196,0.169739,0.0137441,0
2024-12-13 15:29:50.856,-1.08215,2.94467,6.18634,-0.11064,0.161798,0.0131332,0
2024-12-13 15:29:50.858,-1.08694,2.97817,6.23899,-0.111861,0.150192,0.0149658,0
2024-12-13 15:29:50.860,-1.10369,3.0021,6.28445,-0.111251,0.139197,0.0149658,0
2024-12-13 15:29:50.864,-1.12762,3.0021,6.32752,-0.112472,0.11965,0.0149658,0
2024-12-13 15:29:50.865,-1.1324,3.00688,6.38256,-0.112472,0.11965,0.0149658,0
2024-12-13 15:29:50.867,-1.14197,3.02602,6.42563,-0.110029,0.109876,0.0186308,0
2024-12-13 15:29:50.870,-1.16351,3.03081,6.44955,-0.108196,0.100713,0.0186308,0
2024-12-13 15:29:50.872,-1.17069,3.03081,6.48096,-0.108807,0.0933833,0.0210742,0
2024-12-13 15:29:50.875,-1.17069,3.05474,6.52642,-0.108807,0.0854423,0.0271827,0
2024-12-13 15:29:50.877,-1.18026,3.07867,6.54796,-0.110029,0.0756687,0.0277936,0
2024-12-13 15:29:50.879,-1.20419,3.09093,6.55753,-0.112472,0.0616192,0.0332912,0
2024-12-13 15:29:50.882,-1.24965,3.11725,6.58385,-0.113694,0.0512348,0.038178,0
2024-12-13 15:29:50.884,-1.31186,3.13879,6.61735,-0.122246,0.0408504,0.0412322,0
2024-12-13 15:29:50.886,-1.35733,3.16032,6.62214,-0.128965,0.0298552,0.0467298,0
2024-12-13 15:29:50.891,-1.40548,3.18903,6.67717,-0.146069,0.00664296,0.0626118,0
2024-12-13 15:29:50.893,-1.42702,3.201,6.70828,-0.158897,-0.00251974,0.0687203,0
2024-12-13 15:29:50.896,-1.42702,3.22493,6.7346,-0.170503,-0.00984991,0.0748288,0
2024-12-13 15:29:50.896,-1.4653,3.22493,6.7346,-0.170503,-0.00984991,0.0748288,0
2024-12-13 15:29:50.899,-1.48445,3.23211,6.76571,-0.196769,-0.0232886,0.0864349,0
2024-12-13 15:29:50.900,-1.48445,3.22971,6.78485,-0.196769,-0.0232886,0.0864349,0
2024-12-13 15:29:50.903,-1.48205,3.25364,6.80399,-0.21143,-0.0275645,0.0925434,0
2024-12-13 15:29:50.905,-1.47488,3.3015,6.84467,-0.224257,-0.033673,0.100484,0
2024-12-13 15:29:50.908,-1.45813,3.335,6.88056,-0.24075,-0.0410031,0.107815,0
2024-12-13 15:29:50.910,-1.47966,3.37567,6.92124,-0.257854,-0.0526092,0.113923,0
2024-12-13 15:29:50.912,-1.52991,3.42832,6.98106,-0.273736,-0.0617719,0.120642,0
2024-12-13 15:29:50.915,-1.54905,3.47857,7.04357,-0.293283,-0.0721563,0.125529,0
2024-12-13 15:29:50.917,-1.54905,3.54556,7.09382,-0.309165,-0.0868167,0.130416,0
2024-12-13 15:29:50.919,-1.57059,3.59342,7.15364,-0.326269,-0.0984228,0.134157,0
2024-12-13 15:29:50.922,-1.59212,3.62214,7.22064,-0.342762,-0.108196,0.140266,0
2024-12-13 15:29:50.924,-1.61366,3.64606,7.28286,-0.360476,-0.116748,0.145153,0
2024-12-13 15:29:50.926,-1.63998,3.65593,7.35703,-0.375137,-0.122246,0.146985,0
2024-12-13 15:29:50.929,-1.64237,3.68704,7.42882,-0.389797,-0.1253,0.151261,0
2024-12-13 15:29:50.931,-1.62084,3.70379,7.48624,-0.405679,-0.130798,0.151872,0
2024-12-13 15:29:50.933,-1.59691,3.68465,7.54367,-0.419118,-0.134463,0.153094,0
2024-12-13 15:29:50.936,-1.59691,3.66551,7.63729,-0.429502,-0.13935,0.153094,0
2024-12-13 15:29:50.938,-1.61845,3.65115,7.74975,-0.442941,-0.146069,0.151261,0
2024-12-13 15:29:50.940,-1.62323,3.68226,7.867,-0.452714,-0.156453,0.153704,0
2024-12-13 15:29:50.943,-1.62802,3.7325,8.00339,-0.461266,-0.169892,0.151261,0
2024-12-13 15:29:50.948,-1.60409,3.78275,8.28126,-0.466764,-0.190661,0.153704,0
2024-12-13 15:29:50.948,-1.60409,3.78275,8.28126,-0.466764,-0.190661,0.153704,0
2024-12-13 15:29:50.952,-1.57537,3.81147,8.51336,-0.467985,-0.209597,0.153094,0
2024-12-13 15:29:50.952,-1.57537,3.81147,8.51336,-0.467985,-0.209597,0.153094,0
2024-12-13 15:29:50.955,-1.55623,3.83779,8.62343,-0.46432,-0.219371,0.153704,0
2024-12-13 15:29:50.957,-1.53948,3.87607,8.73859,-0.461877,-0.228533,0.151872,0
2024-12-13 15:29:50.959,-1.50838,3.90718,8.82712,-0.459433,-0.24075,0.150039,0
2024-12-13 15:29:50.962,-1.47488,3.92872,8.9013,-0.455768,-0.252967,0.146985,0
2024-12-13 15:29:50.964,-1.46052,3.95982,8.98026,-0.451492,-0.26946,0.143931,0
2024-12-13 15:29:50.966,-1.4342,4.01007,9.05683,-0.446606,-0.28412,0.136601,0
2024-12-13 15:29:50.969,-1.37408,4.05793,9.12623,-0.441108,-0.301224,0.129805,0
2024-12-13 15:29:50.971,-1.2999,4.10339,9.19562,-0.436221,-0.319549,0.120642,0
2024-12-13 15:29:50.973,-1.23769,4.14407,9.26292,-0.427669,-0.338486,0.110869,0
2024-12-13 15:29:50.976,-1.19701,4.17996,9.32752,-0.419118,-0.356811,0.0992627,0
2024-12-13 15:29:50.979,-1.14437,4.17996,9.39691,-0.401403,-0.404457,0.0803264,0
2024-12-13 15:29:50.981,-1.12762,4.17278,9.47348,-0.401403,-0.404457,0.0803264,0
2024-12-13 15:29:50.983,-1.14437,4.20628,9.55005,-0.391629,-0.424615,0.0717745,0
2024-12-13 15:29:50.985,-1.10848,4.2688,9.6003,-0.383688,-0.438054,0.0589468,0
2024-12-13 15:29:50.988,-1.02712,4.34058,9.62423,-0.378191,-0.450882,0.0442864,0
2024-12-13 15:29:50.991,-0.955334,4.39083,9.66491,-0.364752,-0.472261,0.0149658,0
2024-12-13 15:29:50.992,-0.931406,4.43629,9.71277,-0.364752,-0.472261,0.0149658,0
2024-12-13 15:29:50.995,-0.929013,4.48415,9.75344,-0.358644,-0.486922,0.00335966,0
2024-12-13 15:29:50.997,-0.917049,4.52243,9.77259,-0.351314,-0.497917,-0.00824644,0
2024-12-13 15:29:50.999,-0.878764,4.53918,9.78694,-0.347038,-0.50769,-0.0186308,0
2024-12-13 15:29:51.002,-0.828216,4.54397,9.81087,-0.34154,-0.518075,-0.0314586,0
2024-12-13 15:29:51.004,-0.789931,4.55354,9.82074,-0.339707,-0.532735,-0.0430647,0
2024-12-13 15:29:51.006,-0.76361,4.58465,9.81087,-0.34154,-0.54373,-0.05406,0
2024-12-13 15:29:51.009,-0.766002,4.63011,9.83988,-0.345205,-0.557169,-0.0674986,0
2024-12-13 15:29:51.011,-0.804287,4.666,9.90449,-0.349481,-0.567553,-0.0791047,0
2024-12-13 15:29:51.013,-0.825823,4.71865,9.95713,-0.351314,-0.574884,-0.0870457,0
2024-12-13 15:29:51.016,-0.811466,4.78116,10.005,-0.358644,-0.590155,-0.0962084,0
2024-12-13 15:29:51.018,-0.794716,4.84577,10.0505,-0.365363,-0.600539,-0.105982,0
2024-12-13 15:29:51.021,-0.780359,4.90798,10.0959,-0.373915,-0.610924,-0.115756,0
2024-12-13 15:29:51.023,-0.773181,4.96541,10.1486,-0.385521,-0.625584,-0.12614,0
2024-12-13 15:29:51.025,-0.76361,5.01805,10.2132,-0.397738,-0.63719,-0.136524,0
2024-12-13 15:29:51.028,-0.76361,5.03958,10.2993,-0.409344,-0.646353,-0.151185,0
2024-12-13 15:29:51.030,-0.792323,5.04198,10.4097,-0.424615,-0.655515,-0.166456,0
2024-12-13 15:29:51.032,-0.794716,5.03958,10.5604,-0.439886,-0.660402,-0.178062,0
2024-12-13 15:29:51.035,-0.797109,5.02283,10.7447,-0.447827,-0.664678,-0.191501,0
2024-12-13 15:29:51.037,-0.84018,5.01326,10.9241,-0.458212,-0.667732,-0.206161,0
2024-12-13 15:29:51.039,-0.907478,5.0348,11.123,-0.465542,-0.667122,-0.217767,0
2024-12-13 15:29:51.042,-0.967299,5.07548,11.336,-0.469207,-0.664067,-0.230595,0
2024-12-13 15:29:51.044,-0.981655,5.09462,11.5517,-0.475926,-0.661624,-0.24159,0
2024-12-13 15:29:51.046,-1.01994,5.07069,11.7574,-0.478981,-0.65857,-0.254418,0
2024-12-13 15:29:51.049,-1.07019,5.03719,11.9369,-0.482035,-0.653683,-0.267246,0
2024-12-13 15:29:51.051,-1.07976,5.0683,12.1238,-0.490587,-0.648185,-0.280073,0
2024-12-13 15:29:51.054,-1.11565,5.12812,12.3177,-0.488754,-0.652461,-0.29168,0
2024-12-13 15:29:51.056,-1.17787,5.18315,12.5091,-0.486311,-0.655515,-0.299621,0
2024-12-13 15:29:51.058,-1.21615,5.22622,12.7223,-0.480813,-0.657348,-0.307562,0
2024-12-13 15:29:51.061,-1.21376,5.26212,12.9616,-0.470429,-0.659791,-0.315503,0
2024-12-13 15:29:51.063,-1.19222,5.28844,13.2084,-0.460044,-0.661013,-0.321611,0
2024-12-13 15:29:51.065,-1.16351,5.30758,13.4596,-0.445995,-0.664067,-0.327109,0
2024-12-13 15:29:51.068,-1.14197,5.3004,13.6798,-0.426448,-0.661624,-0.333828,0
2024-12-13 15:29:51.070,-1.11565,5.27887,13.8547,-0.407511,-0.654294,-0.342991,0
2024-12-13 15:29:51.072,-1.07258,5.28604,14.0079,-0.38491,-0.640244,-0.353986,0
2024-12-13 15:29:51.075,-1.0343,5.31954,14.1586,-0.359865,-0.625584,-0.363149,0
2024-12-13 15:29:51.077,-1.02473,5.34856,14.2878,-0.332988,-0.607259,-0.373533,0
2024-12-13 15:29:51.079,-0.984048,5.35334,14.4006,-0.304278,-0.588933,-0.382085,0
2024-12-13 15:29:51.082,-0.888335,5.38445,14.4987,-0.276179,-0.568164,-0.390026,0
2024-12-13 15:29:51.084,-0.830609,5.44666,14.549,-0.245637,-0.544341,-0.398578,0
2024-12-13 15:29:51.087,-0.854836,5.52563,14.604,-0.217538,-0.524183,-0.404075,0
2024-12-13 15:29:51.089,-0.9003,5.6022,14.6854,-0.188828,-0.504636,-0.410184,0
2024-12-13 15:29:51.091,-0.924228,5.6692,14.7308,-0.157675,-0.495473,-0.410184,0
2024-12-13 15:29:51.094,-0.933799,5.72423,14.726,-0.125911,-0.487532,-0.412016,0
2024-12-13 15:29:51.096,-0.893121,5.7338,14.7212,-0.100255,-0.483867,-0.410795,0
2024-12-13 15:29:51.098,-0.787538,5.71705,14.7093,-0.0691021,-0.484478,-0.412627,3
2024-12-13 15:29:51.101,-0.699003,5.73141,14.6758,-0.0367272,-0.482646,-0.41446,0
2024-12-13 15:29:51.103,-0.675075,5.75055,14.6279,-0.0367272,-0.482646,-0.41446,0
2024-12-13 15:29:51.105,-0.684646,5.78166,14.5537,0.0268009,-0.47837,-0.423623,0
2024-12-13 15:29:51.108,-0.725324,5.80798,14.4556,0.0548999,-0.475316,-0.424844,0
2024-12-13 15:29:51.110,-0.777966,5.8343,14.3288,0.0854423,-0.472872,-0.426066,0
2024-12-13 15:29:51.112,-0.821037,5.86541,14.1754,0.116595,-0.474094,-0.427898,0
2024-12-13 15:29:51.115,-0.871586,5.88694,14.0079,0.139808,-0.474705,-0.427898,0
2024-12-13 15:29:51.117,-0.890728,5.90638,13.8117,0.162409,-0.480813,-0.426066,0
2024-12-13 15:29:51.119,-0.864407,5.94228,13.5864,0.181345,-0.488754,-0.424844,0
2024-12-13 15:29:51.122,-0.845265,6.00449,13.3591,0.195395,-0.497917,-0.426066,0
2024-12-13 15:29:51.124,-0.869193,6.05235,13.1626,0.203947,-0.508301,-0.426677,0
2024-12-13 15:29:51.127,-0.919442,6.08106,12.9832,0.211277,-0.513799,-0.426677,0
2024-12-13 15:29:51.129,-0.96012,6.10259,12.8228,0.210666,-0.519297,-0.426677,0
2024-12-13 15:29:51.131,-0.99362,6.12174,12.6936,0.208833,-0.523572,-0.425455,0
2024-12-13 15:29:51.134,-1.02951,6.09781,12.5713,0.207001,-0.527848,-0.423623,0
2024-12-13 15:29:51.136,-1.01037,6.07388,12.4397,0.195395,-0.526016,-0.421179,0
2024-12-13 15:29:51.138,-0.957727,6.0691,12.3296,0.181345,-0.52907,-0.42179,0
2024-12-13 15:29:51.143,-0.991227,5.9997,12.2243,0.164242,-0.535179,-0.419957,0
2024-12-13 15:29:51.145,-0.907478,6.05235,12.2554,0.164242,-0.535179,-0.419957,0
2024-12-13 15:29:51.148,-0.852443,6.0691,12.3512,0.109876,-0.55045,-0.413238,0
2024-12-13 15:29:51.150,-0.873978,5.83909,12.3942,0.109876,-0.55045,-0.413238,0
2024-12-13 15:29:51.152,-0.921835,5.5328,12.3655,0.0616192,-0.568775,-0.40713,0
2024-12-13 15:29:51.155,-1.0343,5.27887,12.4062,0.0396287,-0.561445,-0.3998,0
2024-12-13 15:29:51.157,-1.0343,5.0683,12.5163,0.0133623,-0.541898,-0.390026,0
2024-12-13 15:29:51.157,-1.07019,5.0683,12.5163,0.0133623,-0.541898,-0.390026,0
2024-12-13 15:29:51.160,-0.929013,4.91276,12.6793,-0.0147367,-0.517464,-0.379642,0
2024-12-13 15:29:51.162,-0.679861,4.79312,12.8659,-0.0385597,-0.497306,-0.369868,0
2024-12-13 15:29:51.164,-0.493221,4.66122,13.0549,-0.0623828,-0.484478,-0.362538,0
2024-12-13 15:29:51.167,-0.431007,4.55115,13.206,-0.081319,-0.466153,-0.353986,0
2024-12-13 15:29:51.169,-0.505185,4.50329,13.261,-0.106975,-0.439276,-0.341158,0
2024-12-13 15:29:51.171,-0.593719,4.44586,13.285,-0.131409,-0.394073,-0.322833,0
2024-12-13 15:29:51.174,-0.567398,4.2999,13.4572,-0.158286,-0.347038,-0.302064,0
2024-12-13 15:29:51.176,-0.471685,4.101,13.6893,-0.181498,-0.308554,-0.283128,0
2024-12-13 15:29:51.178,-0.387936,3.90957,13.8188,-0.198602,-0.26213,-0.267857,0
2024-12-13 15:29:51.182,-0.354437,3.75404,13.9074,-0.232198,-0.110029,-0.242812,0
2024-12-13 15:29:51.183,-0.229711,3.53599,13.9241,-0.232198,-0.110029,-0.242812,0
2024-12-13 15:29:51.185,-0.0550349,3.22732,13.9098,-0.243804,-0.0110716,-0.239147,0
2024-12-13 15:29:51.188,0.0430708,2.95663,14.0486,-0.2548,0.0848314,-0.234871,0
2024-12-13 15:29:51.190,0.114855,2.76999,14.2328,-0.260297,0.17035,-0.232427,0
2024-12-13 15:29:51.195,0.0167498,2.48734,14.4221,-0.259076,0.24976,-0.229373,0
2024-12-13 15:29:51.195,0.0167498,2.48734,14.4221,-0.259076,0.24976,-0.229373,0
2024-12-13 15:29:51.200,-0.081356,2.31745,14.1562,-0.231587,0.483715,-0.198831,0
2024-12-13 15:29:51.202,-0.131605,2.21456,14.0821,-0.219981,0.542967,-0.186003,0
2024-12-13 15:29:51.202,-0.131605,2.21456,14.0821,-0.219981,0.542967,-0.186003,0
2024-12-13 15:29:51.204,-0.22014,2.09013,14.0294,-0.219981,0.542967,-0.186003,0
2024-12-13 15:29:51.207,-0.320937,1.96301,13.9074,-0.188217,0.613825,-0.153628,0
2024-12-13 15:29:51.209,-0.380758,1.85773,13.6893,-0.170503,0.640092,-0.135303,0
2024-12-13 15:29:51.211,-0.375972,1.75723,13.407,-0.151566,0.662082,-0.11881,0
2024-12-13 15:29:51.214,-0.316152,1.64237,13.1363,-0.132019,0.682851,-0.108425,0
2024-12-13 15:29:51.216,-0.224925,1.51795,12.8348,-0.113694,0.690792,-0.0955976,0
2024-12-13 15:29:51.218,-0.162712,1.42463,12.5115,-0.0953685,0.685905,-0.0894891,0
2024-12-13 15:29:51.221,-0.129212,1.35972,12.1669,-0.0794865,0.672466,-0.0913217,0
2024-12-13 15:29:51.224,-0.0334995,1.30469,11.7766,-0.0471116,0.626042,-0.0974301,0
2024-12-13 15:29:51.225,0.0957129,1.25922,11.4078,-0.0471116,0.626042,-0.0974301,0
2024-12-13 15:29:51.228,0.198604,1.22572,11.0776,-0.0306187,0.593056,-0.110869,0
2024-12-13 15:29:51.230,0.282652,1.20897,10.7399,-0.013515,0.550297,-0.128583,0
2024-12-13 15:29:51.233,0.364008,1.21376,10.4001,0.00236703,0.504483,-0.151796,0
2024-12-13 15:29:51.235,0.421436,1.24726,10.0887,0.0188599,0.459892,-0.178062,0
2024-12-13 15:29:51.237,0.404686,1.31186,9.79891,0.0353528,0.415911,-0.207383,0
2024-12-13 15:29:51.240,0.342473,1.39801,9.49981,0.0512348,0.368265,-0.237314,0
2024-12-13 15:29:51.242,0.282652,1.50598,9.20997,0.0683385,0.318175,-0.267857,0
2024-12-13 15:29:51.244,0.18664,1.62562,8.98026,0.0848314,0.261366,-0.296566,0
2024-12-13 15:29:51.247,0.100499,1.71894,8.79602,0.101935,0.199671,-0.324054,0
2024-12-13 15:29:51.249,0.0430708,1.80987,8.65693,0.117817,0.13431,-0.347878,0
2024-12-13 15:29:51.251,0.0,1.89362,8.54926,0.137364,0.0591758,-0.372311,0
2024-12-13 15:29:51.254,-0.0119641,1.97049,8.45833,0.156301,-0.0220669,-0.397356,0
2024-12-13 15:29:51.256,-0.026321,2.00399,8.39851,0.179513,-0.108807,-0.418736,0
2024-12-13 15:29:51.258,-0.0598206,2.02313,8.35783,0.198449,-0.196769,-0.438894,0
2024-12-13 15:29:51.261,-0.0981057,2.04945,8.32912,0.223494,-0.282288,-0.455387,0
2024-12-13 15:29:51.263,-0.133998,2.03749,8.3028,0.249149,-0.367196,-0.473101,0
2024-12-13 15:29:51.265,-0.150748,2.02074,8.2693,0.276637,-0.440497,-0.484096,0
2024-12-13 15:29:51.269,-0.165105,2.00399,8.22383,0.329781,-0.564499,-0.5012,0
2024-12-13 15:29:51.270,-0.179462,1.9992,8.1664,0.329781,-0.564499,-0.5012,0
2024-12-13 15:29:51.273,-0.155533,2.00399,8.11107,0.357269,-0.613367,-0.505476,0
2024-12-13 15:29:51.275,-0.117248,1.98245,8.06321,0.38178,-0.661624,-0.504254,0
2024-12-13 15:29:51.280,-0.066999,1.98245,8.02254,0.409268,-0.745921,-0.502422,0
2024-12-13 15:29:51.284,-0.0598206,2.06142,7.97468,0.486234,-0.810671,-0.485318,0
2024-12-13 15:29:51.284,-0.0598206,2.06142,7.97468,0.486234,-0.810671,-0.485318,0
2024-12-13 15:29:51.287,-0.00717847,2.0997,7.91964,0.513723,-0.833272,-0.474323,0
2024-12-13 15:29:51.289,0.0550349,2.13799,7.85743,0.513723,-0.833272,-0.474323,0
2024-12-13 15:29:51.289,0.0550349,2.13799,7.85743,0.513723,-0.833272,-0.474323,0
2024-12-13 15:29:51.291,0.117248,2.18584,7.79043,0.558314,-0.867479,-0.449278,0
2024-12-13 15:29:51.294,0.181855,2.22891,7.70908,0.57664,-0.879696,-0.43645,0
2024-12-13 15:29:51.296,0.236889,2.25763,7.61336,0.5913,-0.884583,-0.421179,0
2024-12-13 15:29:51.298,0.287438,2.3007,7.50778,0.602906,-0.887637,-0.402243,0
2024-12-13 15:29:51.301,0.34008,2.35573,7.40489,0.614512,-0.888248,-0.382696,0
2024-12-13 15:29:51.304,0.380758,2.4012,7.30918,0.621843,-0.888859,-0.344212,0
2024-12-13 15:29:51.306,0.402293,2.41316,7.21346,0.621843,-0.888859,-0.344212,0
2024-12-13 15:29:51.308,0.419043,2.41555,7.10579,0.616956,-0.883972,-0.322222,0
2024-12-13 15:29:51.310,0.421436,2.41795,6.97149,0.607793,-0.873588,-0.29901,0
2024-12-13 15:29:51.313,0.421436,2.40838,6.8351,0.594965,-0.856484,-0.274576,0
2024-12-13 15:29:51.315,0.431007,2.41555,6.72024,0.575418,-0.837548,-0.250142,0
2024-12-13 15:29:51.317,0.476471,2.43948,6.59582,0.550984,-0.81006,-0.221432,0
2024-12-13 15:29:51.320,0.50997,2.43709,6.4666,0.524107,-0.771576,-0.198831,0
2024-12-13 15:29:51.322,0.476471,2.41795,6.38734,0.493565,-0.729428,-0.173786,0
2024-12-13 15:29:51.324,0.407079,2.42513,6.35623,0.493565,-0.729428,-0.173786,0
2024-12-13 15:29:51.327,0.330509,2.42752,6.32273,0.425761,-0.639633,-0.113923,0
2024-12-13 15:29:51.330,0.275175,2.42513,6.25574,0.352993,-0.559002,-0.0442864,0
2024-12-13 15:29:51.331,0.241675,2.43948,6.17438,0.352993,-0.559002,-0.0442864,0
2024-12-13 15:29:51.334,0.224925,2.48016,6.11217,0.310845,-0.518075,-0.010079,0
2024-12-13 15:29:51.336,0.208176,2.51366,6.07149,0.264421,-0.476537,0.0247393,0
2024-12-13 15:29:51.339,0.215354,2.51366,6.06192,0.219218,-0.436832,0.0583359,0
2024-12-13 15:29:51.341,0.241675,2.49212,6.09542,0.17035,-0.397738,0.0876566,0
2024-12-13 15:29:51.346,0.22014,2.38684,6.20549,0.0677277,-0.329934,0.139655,0
2024-12-13 15:29:51.346,0.22014,2.38684,6.20549,0.0677277,-0.329934,0.139655,0
2024-12-13 15:29:51.348,0.196211,2.35095,6.26052,0.0206925,-0.296948,0.160424,0
2024-12-13 15:29:51.350,0.18664,2.32463,6.34188,-0.0232886,-0.259686,0.181193,0
2024-12-13 15:29:51.353,0.198604,2.29591,6.45195,-0.0232886,-0.259686,0.181193,0
2024-12-13 15:29:51.355,0.22014,2.25284,6.58146,-0.104531,-0.183331,0.214178,0
2024-12-13 15:29:51.357,0.22014,2.21456,6.73939,-0.141182,-0.147291,0.223341,0
2024-12-13 15:29:51.360,0.20339,2.18824,6.91885,-0.16867,-0.110029,0.231893,0
2024-12-13 15:29:51.362,0.162712,2.15713,7.08186,-0.192493,-0.0770431,0.234947,0
2024-12-13 15:29:51.364,0.105284,2.1332,7.235,-0.210819,-0.0434465,0.241056,0
2024-12-13 15:29:51.367,0.040678,2.11645,7.38814,-0.225479,-0.0110716,0.246553,0
2024-12-13 15:29:51.369,-0.0239282,2.11167,7.5341,-0.232198,0.0182491,0.248386,0
2024-12-13 15:29:51.374,-0.114855,2.11406,7.79043,-0.23342,0.0671168,0.255105,0
2024-12-13 15:29:51.376,-0.165105,2.11406,7.87657,-0.223646,0.0854423,0.254494,0
2024-12-13 15:29:51.376,-0.165105,2.11406,7.87657,-0.223646,0.0854423,0.254494,0
2024-12-13 15:29:51.381,-0.200997,2.10688,8.01057,-0.196158,0.120871,0.250829,0
2024-12-13 15:29:51.381,-0.229711,2.10688,8.01057,-0.196158,0.120871,0.250829,0
2024-12-13 15:29:51.383,-0.258425,2.12363,8.04646,-0.180276,0.129423,0.245942,0
2024-12-13 15:29:51.386,-0.316152,2.12842,8.08714,-0.156453,0.137975,0.238612,0
2024-12-13 15:29:51.388,-0.364008,2.13799,8.10868,-0.132019,0.147749,0.233115,0
2024-12-13 15:29:51.390,-0.380758,2.14277,8.09432,-0.105142,0.156301,0.228228,0
2024-12-13 15:29:51.393,-0.397508,2.14277,8.07518,-0.0794865,0.160576,0.222119,0
2024-12-13 15:29:51.395,-0.435793,2.14038,8.10868,-0.0489441,0.152635,0.216622,0
2024-12-13 15:29:51.397,-0.474078,2.15474,8.1015,-0.0122933,0.139197,0.214178,0
2024-12-13 15:29:51.400,-0.483649,2.18584,7.98664,0.0194708,0.125147,0.20807,0
2024-12-13 15:29:51.402,-0.457328,2.20977,7.85504,0.0487914,0.117817,0.201351,0
2024-12-13 15:29:51.404,-0.41665,2.25045,7.75215,0.0738362,0.103768,0.189134,0
2024-12-13 15:29:51.407,-0.395115,2.30309,7.67318,0.0970484,0.0921616,0.178138,0
2024-12-13 15:29:51.409,-0.397508,2.35095,7.59422,0.121482,0.0811663,0.161035,0
2024-12-13 15:29:51.414,-0.404686,2.38923,7.45275,0.168517,0.0524565,0.131638,0
2024-12-13 15:29:51.414,-0.402293,2.4323,7.45275,0.168517,0.0524565,0.131638,0
2024-12-13 15:29:51.416,-0.409472,2.47537,7.38575,0.189897,0.0316877,0.115145,0
2024-12-13 15:29:51.419,-0.414257,2.50887,7.30439,0.210666,0.0121406,0.0992627,0
2024-12-13 15:29:51.421,-0.402293,2.54028,7.18714,0.227159,-0.00374144,0.0833807,0
2024-12-13 15:29:51.423,-0.387936,2.57139,7.06989,0.239987,-0.0257319,0.0674986,0
2024-12-13 15:29:51.426,-0.371187,2.60728,6.94517,0.255258,-0.041614,0.0510057,0
2024-12-13 15:29:51.428,-0.364008,2.6336,6.82313,0.262588,-0.0562743,0.0345129,0
2024-12-13 15:29:51.430,-0.368794,2.64796,6.71785,0.269307,-0.0721563,0.0198525,0
2024-12-13 15:29:51.435,-0.344866,2.69103,6.45195,0.267475,-0.0917034,-0.0131332,0
2024-12-13 15:29:51.435,-0.344866,2.69103,6.45195,0.267475,-0.0917034,-0.0131332,0
2024-12-13 15:29:51.437,-0.349651,2.71017,6.32991,0.26381,-0.0984228,-0.0290152,0
2024-12-13 15:29:51.440,-0.34008,2.72213,6.21984,0.255258,-0.106975,-0.0424539,0
2024-12-13 15:29:51.447,-0.299402,2.76521,5.93988,0.214942,-0.113694,-0.082159,0
2024-12-13 15:29:51.449,-0.267996,2.76521,5.88216,0.196616,-0.109418,-0.0974301,0
2024-12-13 15:29:51.452,-0.246461,2.76521,5.88216,0.196616,-0.109418,-0.0974301,0
2024-12-13 15:29:51.454,-0.244068,2.75803,5.82951,0.153857,-0.0904818,-0.123697,0
2024-12-13 15:29:51.454,-0.244068,2.75803,5.82951,0.153857,-0.0904818,-0.123697,0
2024-12-13 15:29:51.459,-0.258425,2.77956,5.81994,0.108044,-0.0605502,-0.146298,0
2024-12-13 15:29:51.461,-0.258425,2.79631,5.8343,0.0860531,-0.0428357,-0.156071,0
2024-12-13 15:29:51.463,-0.251246,2.82263,5.85823,0.0646735,-0.0281753,-0.168899,0
2024-12-13 15:29:51.464,-0.251246,2.82263,5.85823,0.0646735,-0.0281753,-0.168899,0
2024-12-13 15:29:51.468,-0.246461,2.87288,5.89203,0.014584,0.00297788,-0.189057,0
2024-12-13 15:29:51.470,-0.241675,2.88485,5.9351,-0.00801737,0.0133623,-0.198831,0
2024-12-13 15:29:51.470,-0.241675,2.88485,5.9351,-0.00801737,0.0133623,-0.198831,0
2024-12-13 15:29:51.473,-0.241675,2.88485,5.99492,-0.00801737,0.0133623,-0.198831,0
2024-12-13 15:29:51.475,-0.30658,2.95424,6.04756,-0.0562743,0.0280226,-0.217156,0
2024-12-13 15:29:51.477,-0.328116,2.98774,6.11217,-0.0562743,0.0280226,-0.217156,0
2024-12-13 15:29:51.480,-0.349651,3.03081,6.19113,-0.0959794,0.0390179,-0.230595,0
2024-12-13 15:29:51.482,-0.373579,3.05713,6.28684,-0.111861,0.0420721,-0.237925,0
2024-12-13 15:29:51.482,-0.373579,3.05713,6.28684,-0.111861,0.0420721,-0.237925,0
2024-12-13 15:29:51.487,-0.380758,3.09811,6.5336,-0.141182,0.0420721,-0.250753,0
2024-12-13 15:29:51.487,-0.392722,3.09811,6.5336,-0.141182,0.0420721,-0.250753,0
2024-12-13 15:29:51.489,-0.407079,3.11964,6.67717,-0.151566,0.042683,-0.25564,0
2024-12-13 15:29:51.492,-0.409472,3.14118,6.78963,-0.157064,0.0402396,-0.262359,0
2024-12-13 15:29:51.494,-0.409472,3.15553,6.91406,-0.160118,0.0329094,-0.270911,0
2024-12-13 15:29:51.496,-0.407079,3.17707,7.04836,-0.157064,0.0274118,-0.273354,0
2024-12-13 15:29:51.499,-0.421436,3.18903,7.17757,-0.157675,0.0188599,-0.275798,0
2024-12-13 15:29:51.501,-0.4334,3.22014,7.29003,-0.153399,0.00725381,-0.281295,0
2024-12-13 15:29:51.506,-0.471685,3.28953,7.48385,-0.144847,0.000534491,-0.283128,0
2024-12-13 15:29:51.508,-0.488435,3.33021,7.57478,-0.127743,-0.0232886,-0.278852,0
2024-12-13 15:29:51.508,-0.488435,3.33021,7.57478,-0.127743,-0.0232886,-0.278852,0
2024-12-13 15:29:51.510,-0.493221,3.35892,7.67318,-0.11797,-0.0379489,-0.275187,0
2024-12-13 15:29:51.513,-0.495613,3.37567,7.7665,-0.107585,-0.0550526,-0.268467,0
2024-12-13 15:29:51.515,-0.486042,3.40917,7.85504,-0.093536,-0.0721563,-0.261748,0
2024-12-13 15:29:51.520,-0.419043,3.48574,7.99621,-0.0672696,-0.108807,-0.246477,0
