timestamp,accel_x,accel_y,accel_z,gyro_x,gyro_y,gyro_z,step_timestamp
2024-12-13 15:39:20.725,-0.0430708,4.69711,8.66172,0.00725381,-0.0385597,0.00335966,0
2024-12-13 15:39:20.725,-0.0430708,4.69711,8.66172,0.00725381,-0.0385597,0.00335966,0
2024-12-13 15:39:20.725,-0.0430708,4.69711,8.66172,0.00725381,-0.0385597,0.00335966,0
2024-12-13 15:39:20.725,-0.0430708,4.69711,8.66172,0.00725381,-0.0385597,0.00335966,0
2024-12-13 15:39:20.725,-0.0430708,4.69711,8.66172,0.00725381,-0.0385597,0.00335966,0
2024-12-13 15:39:20.725,-0.0430708,4.69711,8.66172,0.00725381,-0.0385597,0.00335966,0
2024-12-13 15:39:20.725,-0.0430708,4.69711,8.66172,0.00725381,-0.0385597,0.00335966,0
2024-12-13 15:39:20.725,-0.0430708,4.69711,8.66172,0.00725381,-0.0385597,0.00335966,0
2024-12-13 15:39:20.725,-0.0430708,4.69711,8.66172,0.00725381,-0.0385597,0.00335966,0
2024-12-13 15:39:20.725,-0.0430708,4.69711,8.66172,0.00725381,-0.0385597,0.00335966,0
2024-12-13 15:39:20.725,-0.0430708,4.69711,8.66172,0.00725381,-0.0385597,0.00335966,0
2024-12-13 15:39:20.725,-0.0430708,4.69711,8.66172,0.00725381,-0.0385597,0.00335966,0
2024-12-13 15:39:20.725,-0.0430708,4.69711,8.66172,0.00725381,-0.0385597,0.00335966,0
2024-12-13 15:39:20.725,-0.0430708,4.69711,8.66172,0.00725381,-0.0385597,0.00335966,0
2024-12-13 15:39:20.725,-0.0430708,4.69711,8.66172,0.00725381,-0.0385597,0.00335966,0
2024-12-13 15:39:20.725,-0.0430708,4.69711,8.66172,0.00725381,-0.0385597,0.00335966,0
2024-12-13 15:39:20.725,-0.0430708,4.69711,8.66172,0.00725381,-0.0385597,0.00335966,0
2024-12-13 15:39:20.725,-0.0430708,4.69711,8.66172,0.00725381,-0.0385597,0.00335966,0
2024-12-13 15:39:20.725,-0.0430708,4.69711,8.66172,0.00725381,-0.0385597,0.00335966,0
2024-12-13 15:39:20.725,-0.0430708,4.69711,8.66172,0.00725381,-0.0385597,0.00335966,0
2024-12-13 15:39:20.725,-0.0430708,4.69711,8.66172,0.00725381,-0.0385597,0.00335966,0
2024-12-13 15:39:20.725,-0.0430708,4.69711,8.66172,0.00725381,-0.0385597,0.00335966,0
2024-12-13 15:39:20.725,-0.0430708,4.69711,8.66172,0.00725381,-0.0385597,0.00335966,0
2024-12-13 15:39:20.725,-0.0430708,4.69711,8.66172,0.00725381,-0.0385597,0.00335966,0
2024-12-13 15:39:20.725,-0.0430708,4.69711,8.66172,0.00725381,-0.0385597,0.00335966,0
2024-12-13 15:39:20.725,-0.0430708,4.69711,8.66172,0.00725381,-0.0385597,0.00335966,0
2024-12-13 15:39:20.725,-0.0430708,4.69711,8.66172,0.00725381,-0.0385597,0.00335966,0
2024-12-13 15:39:20.725,-0.0430708,4.69711,8.66172,0.00725381,-0.0385597,0.00335966,0
2024-12-13 15:39:20.725,-0.0430708,4.69711,8.66172,0.00725381,-0.0385597,0.00335966,0
2024-12-13 15:39:20.725,-0.0430708,4.69711,8.66172,0.00725381,-0.0385597,0.00335966,0
2024-12-13 15:39:20.725,-0.0430708,4.69711,8.66172,0.00725381,-0.0385597,0.00335966,0
2024-12-13 15:39:20.725,-0.0430708,4.69711,8.66172,0.00725381,-0.0385597,0.00335966,0
2024-12-13 15:39:20.725,-0.0430708,4.69711,8.66172,0.00725381,-0.0385597,0.00335966,0
2024-12-13 15:39:20.725,-0.0430708,4.69711,8.66172,0.00725381,-0.0385597,0.00335966,0
2024-12-13 15:39:20.725,-0.0430708,4.69711,8.66172,0.00725381,-0.0385597,0.00335966,0
2024-12-13 15:39:20.725,-0.0430708,4.69711,8.66172,0.00725381,-0.0385597,0.00335966,0
2024-12-13 15:39:20.725,-0.0430708,4.69711,8.66172,0.00725381,-0.0385597,0.00335966,0
2024-12-13 15:39:20.725,-0.0430708,4.69711,8.66172,0.00725381,-0.0385597,0.00335966,0
2024-12-13 15:39:20.725,-0.0430708,4.69711,8.66172,0.00725381,-0.0385597,0.00335966,0
2024-12-13 15:39:20.725,-0.0430708,4.69711,8.66172,0.00725381,-0.0385597,0.00335966,0
2024-12-13 15:39:20.725,-0.0430708,4.69711,8.66172,0.00725381,-0.0385597,0.00335966,0
2024-12-13 15:39:20.725,-0.0430708,4.69711,8.66172,0.00725381,-0.0385597,0.00335966,0
2024-12-13 15:39:20.725,-0.0430708,4.69711,8.66172,0.00725381,-0.0385597,0.00335966,0
2024-12-13 15:39:20.725,-0.0430708,4.69711,8.66172,0.00725381,-0.0385597,0.00335966,0
2024-12-13 15:39:20.725,-0.0430708,4.69711,8.66172,0.00725381,-0.0385597,0.00335966,0
2024-12-13 15:39:20.725,-0.0430708,4.69711,8.66172,0.00725381,-0.0385597,0.00335966,0
2024-12-13 15:39:20.725,-0.0430708,4.69711,8.66172,0.00725381,-0.0385597,0.00335966,0
2024-12-13 15:39:20.725,-0.0430708,4.69711,8.66172,0.00725381,-0.0385597,0.00335966,0
2024-12-13 15:39:20.725,-0.0430708,4.69711,8.66172,0.00725381,-0.0385597,0.00335966,0
2024-12-13 15:39:20.725,-0.0430708,4.69711,8.66172,0.00725381,-0.0385597,0.00335966,0
2024-12-13 15:39:20.725,-0.0430708,4.69711,8.66172,0.00725381,-0.0385597,0.00335966,0
2024-12-13 15:39:20.725,-0.0430708,4.69711,8.66172,0.00725381,-0.0385597,0.00335966,0
2024-12-13 15:39:20.725,-0.0430708,4.69711,8.66172,0.00725381,-0.0385597,0.00335966,0
2024-12-13 15:39:20.725,-0.0430708,4.69711,8.66172,0.00725381,-0.0385597,0.00335966,0
2024-12-13 15:39:20.725,-0.0430708,4.69711,8.66172,0.00725381,-0.0385597,0.00335966,0
2024-12-13 15:39:20.725,-0.0430708,4.69711,8.66172,0.00725381,-0.0385597,0.00335966,0
2024-12-13 15:39:20.725,-0.0430708,4.69711,8.66172,0.00725381,-0.0385597,0.00335966,0
2024-12-13 15:39:20.725,-0.0430708,4.69711,8.66172,0.00725381,-0.0385597,0.00335966,0
2024-12-13 15:39:20.725,-0.0430708,4.69711,8.66172,0.00725381,-0.0385597,0.00335966,0
2024-12-13 15:39:20.725,-0.0430708,4.69711,8.66172,0.00725381,-0.0385597,0.00335966,0
2024-12-13 15:39:20.725,-0.0430708,4.69711,8.66172,0.00725381,-0.0385597,0.00335966,0
2024-12-13 15:39:20.725,-0.0430708,4.69711,8.66172,0.00725381,-0.0385597,0.00335966,0
2024-12-13 15:39:20.725,-0.0430708,4.69711,8.66172,0.00725381,-0.0385597,0.00335966,0
2024-12-13 15:39:20.725,-0.0430708,4.69711,8.66172,0.00725381,-0.0385597,0.00335966,0
2024-12-13 15:39:20.725,-0.0430708,4.69711,8.66172,0.00725381,-0.0385597,0.00335966,0
2024-12-13 15:39:20.725,-0.0430708,4.69711,8.66172,0.00725381,-0.0385597,0.00335966,0
2024-12-13 15:39:20.725,-0.0430708,4.69711,8.66172,0.00725381,-0.0385597,0.00335966,0
2024-12-13 15:39:20.725,-0.0430708,4.69711,8.66172,0.00725381,-0.0385597,0.00335966,0
2024-12-13 15:39:20.725,-0.0430708,4.69711,8.66172,0.00725381,-0.0385597,0.00335966,0
2024-12-13 15:39:20.725,-0.0430708,4.69711,8.66172,0.00725381,-0.0385597,0.00335966,0
2024-12-13 15:39:20.725,-0.0430708,4.69711,8.66172,0.00725381,-0.0385597,0.00335966,0
2024-12-13 15:39:20.725,-0.0430708,4.69711,8.66172,0.00725381,-0.0385597,0.00335966,0
2024-12-13 15:39:20.725,-0.0430708,4.69711,8.66172,0.00725381,-0.0385597,0.00335966,0
2024-12-13 15:39:20.725,-0.0430708,4.69711,8.66172,0.00725381,-0.0385597,0.00335966,0
2024-12-13 15:39:20.725,-0.0430708,4.69711,8.66172,0.00725381,-0.0385597,0.00335966,0
2024-12-13 15:39:20.726,-0.0430708,4.69711,8.66172,0.00725381,-0.0385597,0.00335966,0
2024-12-13 15:39:20.728,-0.0502493,4.68993,8.67847,0.00725381,-0.0385597,0.00335966,0
2024-12-13 15:39:20.739,-0.040678,4.66361,8.73859,0.00725381,-0.0385597,0.00335966,0
2024-12-13 15:39:20.749,-0.0622134,4.62054,8.81755,-0.0141258,-0.00251974,-0.00397051,0
2024-12-13 15:39:20.749,-0.0646062,4.60618,8.82712,-0.0141258,-0.00251974,-0.00397051,0
2024-12-13 15:39:20.749,-0.0646062,4.60618,8.82712,-0.0141258,-0.00251974,-0.00397051,0
2024-12-13 15:39:20.751,-0.0789631,4.59183,8.83669,-0.0141258,0.000534491,-0.0051922,0
2024-12-13 15:39:20.751,-0.0789631,4.59183,8.83669,-0.0141258,0.000534491,-0.0051922,0
2024-12-13 15:39:20.751,-0.0789631,4.59183,8.83669,-0.0141258,0.000534491,-0.0051922,0
2024-12-13 15:39:20.751,-0.0789631,4.59183,8.83669,-0.0141258,0.000534491,-0.0051922,0
2024-12-13 15:39:20.753,-0.0909273,4.58704,8.83191,-0.0171801,0.00114534,-0.00335966,0
2024-12-13 15:39:20.753,-0.0909273,4.58704,8.83191,-0.0171801,0.00114534,-0.00335966,0
2024-12-13 15:39:20.753,-0.0909273,4.58704,8.83191,-0.0171801,0.00114534,-0.00335966,0
2024-12-13 15:39:20.753,-0.0909273,4.58704,8.83191,-0.0171801,0.00114534,-0.00335966,0
2024-12-13 15:39:20.753,-0.0909273,4.58704,8.83191,-0.0171801,0.00114534,-0.00335966,0
2024-12-13 15:39:20.753,-0.0909273,4.58704,8.83191,-0.0171801,0.00114534,-0.00335966,0
2024-12-13 15:39:20.753,-0.0909273,4.58704,8.83191,-0.0171801,0.00114534,-0.00335966,0
2024-12-13 15:39:20.753,-0.0909273,4.58704,8.83191,-0.0171801,0.00114534,-0.00335966,0
2024-12-13 15:39:20.753,-0.0909273,4.58704,8.83191,-0.0171801,0.00114534,-0.00335966,0
2024-12-13 15:39:20.753,-0.0909273,4.58704,8.83191,-0.0171801,0.00114534,-0.00335966,0
2024-12-13 15:39:20.763,-0.141177,4.58465,8.81516,-0.0190126,0.00664296,0.00335966,0
2024-12-13 15:39:20.763,-0.141177,4.58465,8.81516,-0.0190126,0.00664296,0.00335966,0
2024-12-13 15:39:20.763,-0.141177,4.58465,8.81516,-0.0190126,0.00664296,0.00335966,0
2024-12-13 15:39:20.763,-0.141177,4.58465,8.81516,-0.0190126,0.00664296,0.00335966,0
2024-12-13 15:39:20.765,-0.138784,4.59422,8.82952,-0.0220669,0.00603212,0.00458135,0
2024-12-13 15:39:20.765,-0.138784,4.59422,8.82952,-0.0220669,0.00603212,0.00458135,0
2024-12-13 15:39:20.765,-0.138784,4.59422,8.82952,-0.0220669,0.00603212,0.00458135,0
2024-12-13 15:39:20.765,-0.138784,4.59422,8.82952,-0.0220669,0.00603212,0.00458135,0
2024-12-13 15:39:20.767,-0.129212,4.58943,8.83669,-0.0269536,0.00297788,0.00580305,0
2024-12-13 15:39:20.767,-0.129212,4.58943,8.83669,-0.0269536,0.00297788,0.00580305,0
2024-12-13 15:39:20.767,-0.129212,4.58943,8.83669,-0.0269536,0.00297788,0.00580305,0
2024-12-13 15:39:20.767,-0.129212,4.58943,8.83669,-0.0269536,0.00297788,0.00580305,0
2024-12-13 15:39:20.767,-0.129212,4.58943,8.83669,-0.0269536,0.00297788,0.00580305,0
2024-12-13 15:39:20.767,-0.129212,4.58943,8.83669,-0.0269536,0.00297788,0.00580305,0
2024-12-13 15:39:20.770,-0.12682,4.58943,8.85105,-0.0287862,-0.00129805,0.00763559,0
2024-12-13 15:39:20.770,-0.12682,4.58943,8.85105,-0.0287862,-0.00129805,0.00763559,0
2024-12-13 15:39:20.770,-0.12682,4.58943,8.85105,-0.0287862,-0.00129805,0.00763559,0
2024-12-13 15:39:20.772,-0.12682,4.58943,8.88455,-0.0306187,-0.00313059,0.00885729,0
2024-12-13 15:39:20.772,-0.12682,4.58943,8.88455,-0.0306187,-0.00313059,0.00885729,0
2024-12-13 15:39:20.772,-0.12682,4.58943,8.88455,-0.0306187,-0.00313059,0.00885729,0
2024-12-13 15:39:20.775,-0.12682,4.58465,8.90369,-0.0318404,-0.00740652,0.00763559,0
2024-12-13 15:39:20.777,-0.119641,4.60379,8.91805,-0.0312296,-0.00862822,0.00702474,0
2024-12-13 15:39:20.779,-0.119641,4.60618,8.92762,-0.0348946,-0.00984991,0.00763559,0
2024-12-13 15:39:20.782,-0.122034,4.58704,8.95634,-0.0355055,-0.00984991,0.0064139,0
2024-12-13 15:39:20.784,-0.122034,4.57508,8.97787,-0.0361163,-0.0104608,0.00580305,0
2024-12-13 15:39:20.786,-0.136391,4.57747,9.00419,-0.0348946,-0.0129041,0.0064139,0
2024-12-13 15:39:20.789,-0.150748,4.57508,9.0353,-0.0318404,-0.0116825,0.00458135,0
2024-12-13 15:39:20.791,-0.145962,4.57268,9.04248,-0.0312296,-0.0122933,0.00335966,0
2024-12-13 15:39:20.793,-0.133998,4.57986,9.04965,-0.0281753,-0.013515,0.00152712,0
2024-12-13 15:39:20.796,-0.12682,4.57747,9.06162,-0.0232886,-0.0159584,-0.000305424,0
2024-12-13 15:39:20.798,-0.148355,4.58226,9.07358,-0.0196235,-0.0159584,-0.000916271,0
2024-12-13 15:39:20.800,-0.155533,4.58943,9.08794,-0.0159584,-0.0159584,-0.00274881,0
2024-12-13 15:39:20.803,-0.138784,4.57747,9.09512,-0.013515,-0.0165692,-0.00152712,0
2024-12-13 15:39:20.805,-0.133998,4.57268,9.09273,-0.00923906,-0.0184018,-0.00397051,0
2024-12-13 15:39:20.812,-0.150748,4.57268,9.07119,-0.0019089,-0.0220669,-0.00580305,0
2024-12-13 15:39:20.815,-0.148355,4.56311,9.06401,0.00358873,-0.0263428,-0.0064139,0
2024-12-13 15:39:20.815,-0.148355,4.56311,9.06401,0.00358873,-0.0263428,-0.0064139,0
2024-12-13 15:39:20.817,-0.160319,4.57268,9.06401,0.00786466,-0.029397,-0.0051922,0
2024-12-13 15:39:20.817,-0.160319,4.57268,9.06401,0.00786466,-0.029397,-0.0051922,0
2024-12-13 15:39:20.819,-0.165105,4.58704,9.04487,0.0096972,-0.0312296,-0.00397051,0
2024-12-13 15:39:20.822,-0.16989,4.58465,9.00658,0.00847551,-0.0312296,-0.00274881,0
2024-12-13 15:39:20.824,-0.165105,4.58226,8.97787,0.00725381,-0.0324513,-0.00335966,0
2024-12-13 15:39:20.826,-0.162712,4.58943,8.95155,0.00786466,-0.0330621,-0.00274881,0
2024-12-13 15:39:20.829,-0.162712,4.59661,8.92284,0.00664296,-0.0367272,-0.00152712,0
2024-12-13 15:39:20.831,-0.150748,4.60858,8.89891,0.00542127,-0.0367272,-0.000305424,0
2024-12-13 15:39:20.833,-0.145962,4.61815,8.87976,0.00114534,-0.037338,0.00213797,0
2024-12-13 15:39:20.836,-0.143569,4.60618,8.87259,-0.00435229,-0.0379489,0.00335966,0
2024-12-13 15:39:20.838,-0.138784,4.59901,8.86062,-0.00679568,-0.0397814,0.00458135,0
2024-12-13 15:39:20.840,-0.133998,4.62054,8.86302,-0.0116825,-0.0391706,0.0051922,0
2024-12-13 15:39:20.843,-0.133998,4.62293,8.87259,-0.0177909,-0.0385597,0.00458135,0
2024-12-13 15:39:20.845,-0.136391,4.60858,8.8678,-0.0190126,-0.0348946,0.00580305,0
2024-12-13 15:39:20.848,-0.129212,4.59901,8.85823,-0.0245102,-0.033673,0.0064139,0
2024-12-13 15:39:20.850,-0.105284,4.59901,8.8678,-0.0251211,-0.0306187,0.0064139,0
2024-12-13 15:39:20.852,-0.0861416,4.6014,8.88455,-0.0300079,-0.0287862,0.00702474,0
2024-12-13 15:39:20.855,-0.0765703,4.58704,8.9013,-0.033673,-0.0257319,0.00946813,0
2024-12-13 15:39:20.857,-0.0646062,4.58465,8.91087,-0.037338,-0.0275645,0.00885729,0
2024-12-13 15:39:20.859,-0.0574277,4.57508,8.93719,-0.0385597,-0.0269536,0.00763559,0
2024-12-13 15:39:20.862,-0.0526421,4.57029,8.96591,-0.0410031,-0.0245102,0.00824644,0
2024-12-13 15:39:20.864,-0.0382852,4.58226,8.98983,-0.0422248,-0.0263428,0.00763559,0
2024-12-13 15:39:20.866,-0.0167498,4.5679,9.01855,-0.0410031,-0.0263428,0.0064139,0
2024-12-13 15:39:20.869,-0.0119641,4.54876,9.04248,-0.0403923,-0.0251211,0.00702474,0
2024-12-13 15:39:20.871,-0.00239282,4.56072,9.06641,-0.0379489,-0.0269536,0.00702474,0
2024-12-13 15:39:20.873,0.0119641,4.56311,9.07358,-0.0379489,-0.0275645,0.0051922,0
2024-12-13 15:39:20.876,0.0143569,4.55833,9.08555,-0.0348946,-0.0269536,0.00580305,0
2024-12-13 15:39:20.878,0.0191426,4.54636,9.11426,-0.0312296,-0.0287862,0.0064139,0
2024-12-13 15:39:20.881,0.0287139,4.5344,9.12383,-0.0275645,-0.029397,0.00458135,0
2024-12-13 15:39:20.883,0.0478565,4.54397,9.1334,-0.0263428,-0.0306187,0.00213797,0
2024-12-13 15:39:20.885,0.0646062,4.55354,9.14297,-0.0226777,-0.0312296,-0.000305424,0
2024-12-13 15:39:20.888,0.0646062,4.55354,9.13819,-0.0171801,-0.0348946,-0.000305424,0
2024-12-13 15:39:20.890,0.066999,4.56072,9.13101,-0.0116825,-0.0342838,-0.00458135,0
2024-12-13 15:39:20.892,0.066999,4.55593,9.12383,-0.0104608,-0.037338,-0.00397051,0
2024-12-13 15:39:20.895,0.0646062,4.54158,9.12383,-0.00618483,-0.037338,-0.00458135,0
2024-12-13 15:39:20.897,0.0646062,4.53201,9.11905,-0.00374144,-0.0385597,-0.00458135,0
2024-12-13 15:39:20.899,0.066999,4.54397,9.10469,0.00114534,-0.0385597,-0.00885729,0
2024-12-13 15:39:20.902,0.0741775,4.54876,9.09033,0.00297788,-0.0397814,-0.010079,0
2024-12-13 15:39:20.904,0.066999,4.54158,9.06401,0.00542127,-0.0410031,-0.0113007,0
2024-12-13 15:39:20.906,0.0526421,4.54876,9.0353,0.00664296,-0.0428357,-0.0113007,0
2024-12-13 15:39:20.909,0.0454636,4.55115,9.01137,0.010308,-0.0403923,-0.0119115,0
2024-12-13 15:39:20.911,0.0382852,4.55354,8.97069,0.0096972,-0.0410031,-0.0119115,0
2024-12-13 15:39:20.913,0.0287139,4.55833,8.93001,0.0096972,-0.0385597,-0.0106898,0
2024-12-13 15:39:20.916,0.0119641,4.5679,8.91566,0.00786466,-0.0367272,-0.0119115,0
2024-12-13 15:39:20.918,0.0,4.57747,8.89891,0.00908635,-0.0348946,-0.0119115,0
2024-12-13 15:39:20.921,0.00239282,4.56311,8.87019,0.00603212,-0.037338,-0.0131332,0
2024-12-13 15:39:20.923,-0.00239282,4.55833,8.84148,0.00481042,-0.0367272,-0.0113007,0
2024-12-13 15:39:20.925,-0.00717847,4.56551,8.82712,0.000534491,-0.0361163,-0.0125224,0
2024-12-13 15:39:20.928,-0.00478565,4.57029,8.81277,-0.0019089,-0.0361163,-0.0149658,0
2024-12-13 15:39:20.930,-0.00717847,4.58465,8.79841,-0.00557398,-0.0367272,-0.0149658,0
2024-12-13 15:39:20.932,-0.00717847,4.59422,8.78884,-0.00862822,-0.0367272,-0.0167983,0
2024-12-13 15:39:20.936,-0.0119641,4.58465,8.77209,-0.0177909,-0.0367272,-0.0198525,0
2024-12-13 15:39:20.937,-0.0287139,4.57508,8.77927,-0.0177909,-0.0367272,-0.0198525,0
2024-12-13 15:39:20.939,-0.0454636,4.5679,8.80319,-0.0190126,-0.0379489,-0.0204634,0
2024-12-13 15:39:20.942,-0.0598206,4.56551,8.82952,-0.0208452,-0.0385597,-0.0247393,0
2024-12-13 15:39:20.944,-0.0765703,4.55833,8.85105,-0.0226777,-0.0348946,-0.0247393,0
2024-12-13 15:39:20.946,-0.0885344,4.54158,8.87019,-0.0232886,-0.0355055,-0.0241285,0
2024-12-13 15:39:20.949,-0.0957129,4.54397,8.90369,-0.021456,-0.0342838,-0.0241285,0
2024-12-13 15:39:20.951,-0.107677,4.54397,8.92284,-0.0184018,-0.0306187,-0.0253502,0
2024-12-13 15:39:20.955,-0.124427,4.55833,8.92762,-0.0165692,-0.0269536,-0.0241285,0
2024-12-13 15:39:20.956,-0.136391,4.58226,8.93719,-0.0165692,-0.0269536,-0.0241285,0
2024-12-13 15:39:20.958,-0.153141,4.58465,8.93959,-0.0116825,-0.0226777,-0.0235176,0
2024-12-13 15:39:20.963,-0.179462,4.60618,8.92284,-0.0104608,-0.0196235,-0.0229068,0
2024-12-13 15:39:20.963,-0.179462,4.60618,8.92284,-0.0104608,-0.0196235,-0.0229068,0
2024-12-13 15:39:20.968,-0.191426,4.62293,8.90369,-0.00374144,-0.013515,-0.0155766,0
2024-12-13 15:39:20.968,-0.191426,4.62293,8.90369,-0.00374144,-0.013515,-0.0155766,0
2024-12-13 15:39:20.970,-0.20339,4.6325,8.89651,-0.000687203,-0.00984991,-0.0143549,0
2024-12-13 15:39:20.972,-0.212961,4.64925,8.88216,0.00297788,-0.00801737,-0.0125224,0
2024-12-13 15:39:20.975,-0.20339,4.66122,8.85344,0.00175619,-0.00740652,-0.0119115,0
2024-12-13 15:39:20.977,-0.208176,4.666,8.81037,0.00114534,-0.00679568,-0.00824644,0
2024-12-13 15:39:20.979,-0.210568,4.67797,8.77448,-0.0019089,-0.00496313,-0.00763559,0
2024-12-13 15:39:20.982,-0.193819,4.69472,8.75773,-0.00740652,-0.00618483,-0.00702474,0
2024-12-13 15:39:20.984,-0.193819,4.6995,8.75294,-0.0110716,-0.00496313,-0.0064139,0
2024-12-13 15:39:20.987,-0.193819,4.68515,8.74337,-0.0153475,-0.00251974,-0.00580305,0
2024-12-13 15:39:20.989,-0.184247,4.69233,8.72662,-0.021456,-0.0019089,-0.0064139,0
2024-12-13 15:39:20.991,-0.181855,4.70668,8.71466,-0.0275645,-7.63559e-05,-0.00580305,0
2024-12-13 15:39:20.994,-0.179462,4.69711,8.71466,-0.0324513,-0.00129805,-0.00580305,0
2024-12-13 15:39:20.996,-0.172283,4.68515,8.72902,-0.0434465,-0.0019089,-0.00946813,0
2024-12-13 15:39:20.998,-0.16989,4.68036,8.74577,-0.0489441,-0.0019089,-0.0113007,0
2024-12-13 15:39:21.001,-0.179462,4.67558,8.75773,-0.0550526,-0.00435229,-0.0137441,0
2024-12-13 15:39:21.003,-0.198604,4.666,8.77448,-0.0611611,-0.00679568,-0.0143549,0
2024-12-13 15:39:21.008,-0.205783,4.65883,8.80559,-0.0709346,-0.0110716,-0.0216851,0
2024-12-13 15:39:21.008,-0.210568,4.65165,8.84387,-0.0709346,-0.0110716,-0.0216851,0
2024-12-13 15:39:21.010,-0.217747,4.6349,8.87976,-0.0745997,-0.0147367,-0.0222959,0
2024-12-13 15:39:21.012,-0.239282,4.62054,8.92523,-0.0770431,-0.0171801,-0.025961,0
2024-12-13 15:39:21.015,-0.267996,4.60618,8.96591,-0.0770431,-0.0171801,-0.0284044,0
2024-12-13 15:39:21.017,-0.285045,4.58226,8.99941,-0.0782648,-0.0196235,-0.0277936,0
2024-12-13 15:39:21.019,-0.30658,4.57747,9.02812,-0.0782648,-0.021456,-0.0302369,0
2024-12-13 15:39:21.022,-0.316152,4.58465,9.04965,-0.073378,-0.0220669,-0.0296261,0
2024-12-13 15:39:21.024,-0.316152,4.57268,9.07837,-0.0715455,-0.0232886,-0.0308478,0
2024-12-13 15:39:21.027,-0.318545,4.55593,9.1023,-0.0691021,-0.0226777,-0.0314586,0
2024-12-13 15:39:21.029,-0.34008,4.54158,9.10948,-0.0660479,-0.0232886,-0.0320695,0
2024-12-13 15:39:21.031,-0.35683,4.54876,9.11905,-0.0587177,-0.0190126,-0.0314586,0
2024-12-13 15:39:21.034,-0.364008,4.54397,9.14297,-0.0556635,-0.0153475,-0.0302369,0
2024-12-13 15:39:21.038,-0.385544,4.51526,9.15973,-0.0440574,-0.00801737,-0.0296261,0
2024-12-13 15:39:21.038,-0.385544,4.51526,9.15973,-0.0440574,-0.00801737,-0.0296261,0
2024-12-13 15:39:21.041,-0.392722,4.50568,9.15255,-0.0403923,-0.00435229,-0.0284044,0
2024-12-13 15:39:21.043,-0.390329,4.49851,9.13101,-0.0342838,-0.00374144,-0.025961,0
2024-12-13 15:39:21.045,-0.385544,4.49372,9.11187,-0.0318404,-0.00374144,-0.0241285,0
2024-12-13 15:39:21.048,-0.390329,4.49372,9.09751,-0.0275645,-0.00129805,-0.0241285,0
2024-12-13 15:39:21.050,-0.414257,4.48654,9.08076,-0.0238994,0.00114534,-0.0210742,0
2024-12-13 15:39:21.052,-0.423829,4.49372,9.07358,-0.0190126,0.00358873,-0.0174091,0
2024-12-13 15:39:21.055,-0.423829,4.50808,9.05205,-0.0159584,0.00603212,-0.0161875,0
2024-12-13 15:39:21.057,-0.435793,4.51526,9.01855,-0.013515,0.00847551,-0.0119115,0
2024-12-13 15:39:21.060,-0.440578,4.52243,9.01137,-0.0122933,0.0139731,-0.00702474,0
2024-12-13 15:39:21.062,-0.442971,4.52243,9.01616,-0.0122933,0.0139731,-0.00702474,0
2024-12-13 15:39:21.064,-0.452543,4.52961,9.00419,-0.00740652,0.0200816,-0.00213797,0
2024-12-13 15:39:21.067,-0.454935,4.53201,8.98266,-0.00557398,0.0243575,0.00213797,0
2024-12-13 15:39:21.069,-0.462114,4.53201,8.97548,-0.00313059,0.0274118,0.0051922,0
2024-12-13 15:39:21.071,-0.481256,4.54158,8.95873,-0.00251974,0.0322986,0.010079,0
2024-12-13 15:39:21.074,-0.500399,4.54397,8.94437,-7.63559e-05,0.038407,0.0125224,0
2024-12-13 15:39:21.076,-0.505185,4.55593,8.94437,0.00114534,0.0420721,0.0155766,0
2024-12-13 15:39:21.078,-0.50997,4.5679,8.95394,0.00358873,0.0469589,0.0216851,0
2024-12-13 15:39:21.081,-0.52672,4.56072,8.96351,0.00481042,0.0500131,0.0253502,0
2024-12-13 15:39:21.083,-0.536291,4.55593,8.94916,0.00664296,0.0555107,0.0290152,0
2024-12-13 15:39:21.085,-0.538684,4.57747,8.93001,0.00908635,0.0597867,0.033902,0
2024-12-13 15:39:21.088,-0.541077,4.59183,8.88455,0.0115297,0.0640626,0.0387888,0
2024-12-13 15:39:21.090,-0.545863,4.58465,8.84387,0.0109189,0.0646735,0.0448973,0
2024-12-13 15:39:21.092,-0.54347,4.58465,8.83909,0.0109189,0.0622301,0.0485624,0
2024-12-13 15:39:21.095,-0.533899,4.59422,8.81755,0.0096972,0.0591758,0.0510057,0
2024-12-13 15:39:21.097,-0.531506,4.60858,8.80559,0.00847551,0.0530674,0.0534491,0
2024-12-13 15:39:21.100,-0.514756,4.61576,8.81037,0.00786466,0.0469589,0.0565034,0
2024-12-13 15:39:21.102,-0.488435,4.61336,8.79362,0.00664296,0.0432938,0.0589468,0
2024-12-13 15:39:21.104,-0.469292,4.61815,8.77687,0.00236703,0.0396287,0.0607793,0
2024-12-13 15:39:21.107,-0.447757,4.6325,8.76491,0.00175619,0.0377962,0.0613902,0
2024-12-13 15:39:21.109,-0.419043,4.63011,8.76491,-0.000687203,0.038407,0.062001,0
2024-12-13 15:39:21.111,-0.390329,4.62054,8.76012,-0.00496313,0.038407,0.0626118,0
2024-12-13 15:39:21.116,-0.368794,4.59661,8.73859,-0.0141258,0.0322986,0.0583359,0
2024-12-13 15:39:21.116,-0.368794,4.59661,8.73859,-0.0141258,0.0322986,0.0583359,0
2024-12-13 15:39:21.118,-0.347258,4.58943,8.73859,-0.0184018,0.0274118,0.0552817,0
2024-12-13 15:39:21.121,-0.335294,4.58465,8.75055,-0.0232886,0.0237467,0.0534491,0
2024-12-13 15:39:21.123,-0.313759,4.5679,8.76491,-0.0269536,0.0219141,0.0497841,0
2024-12-13 15:39:21.125,-0.289831,4.56072,8.77687,-0.033673,0.0213033,0.0479515,0
2024-12-13 15:39:21.128,-0.275175,4.56551,8.79602,-0.0391706,0.0213033,0.0436756,0
2024-12-13 15:39:21.130,-0.260818,4.54876,8.81516,-0.0446682,0.0213033,0.041843,0
2024-12-13 15:39:21.133,-0.248854,4.51286,8.84148,-0.0483333,0.0237467,0.038178,0
2024-12-13 15:39:21.135,-0.248854,4.49133,8.85823,-0.0519984,0.0255792,0.0357346,0
2024-12-13 15:39:21.137,-0.241675,4.47458,8.8678,-0.0550526,0.0268009,0.0314586,0
2024-12-13 15:39:21.140,-0.239282,4.44586,8.90369,-0.0568851,0.0298552,0.0284044,0
2024-12-13 15:39:21.142,-0.244068,4.40519,8.94437,-0.0623828,0.0310769,0.025961,0
2024-12-13 15:39:21.144,-0.229711,4.37408,8.98266,-0.0617719,0.0329094,0.0253502,0
2024-12-13 15:39:21.147,-0.222533,4.36929,9.03051,-0.0599394,0.038407,0.0229068,0
2024-12-13 15:39:21.149,-0.212961,4.3334,9.04965,-0.0593285,0.0396287,0.0204634,0
2024-12-13 15:39:21.151,-0.20339,4.29512,9.07119,-0.0587177,0.0408504,0.0167983,0
2024-12-13 15:39:21.154,-0.200997,4.25922,9.10469,-0.0550526,0.0469589,0.0143549,0
2024-12-13 15:39:21.156,-0.212961,4.24487,9.11905,-0.0513875,0.050624,0.0137441,0
2024-12-13 15:39:21.161,-0.246461,4.2015,9.15255,-0.0391706,0.0567324,0.0106898,0
2024-12-13 15:39:21.161,-0.246461,4.2015,9.15255,-0.0391706,0.0567324,0.0106898,0
2024-12-13 15:39:21.163,-0.265603,4.17039,9.15494,-0.0318404,0.0622301,0.00946813,0
2024-12-13 15:39:21.165,-0.297009,4.14168,9.13819,-0.0245102,0.066506,0.00824644,0
2024-12-13 15:39:21.168,-0.318545,4.14168,9.13819,-0.0177909,0.0701711,0.00702474,0
2024-12-13 15:39:21.170,-0.330509,4.12493,9.14537,-0.00923906,0.0750579,0.00824644,0
2024-12-13 15:39:21.175,-0.359223,4.101,9.09751,0.00297788,0.0781121,0.00946813,0
2024-12-13 15:39:21.175,-0.359223,4.101,9.09751,0.00297788,0.0781121,0.00946813,0
2024-12-13 15:39:21.177,-0.387936,4.08664,9.08555,0.0115297,0.0775012,0.00824644,0
2024-12-13 15:39:21.180,-0.419043,4.06989,9.07837,0.0188599,0.0738362,0.00824644,0
2024-12-13 15:39:21.182,-0.4334,4.06271,9.06401,0.0255792,0.0695602,0.010079,0
2024-12-13 15:39:21.187,-0.447757,4.06989,9.04248,0.0408504,0.0616192,0.0131332,0
2024-12-13 15:39:21.187,-0.447757,4.06989,9.04248,0.0408504,0.0616192,0.0131332,0
2024-12-13 15:39:21.189,-0.431007,4.05314,9.01616,0.0518457,0.0567324,0.0155766,0
2024-12-13 15:39:21.191,-0.409472,4.01964,8.97787,0.0573433,0.0530674,0.0198525,0
2024-12-13 15:39:21.194,-0.380758,4.02204,8.93959,0.0658951,0.0494023,0.0222959,0
2024-12-13 15:39:21.196,-0.337687,4.01246,8.90609,0.0713928,0.0475697,0.0229068,0
2024-12-13 15:39:21.198,-0.308973,3.98854,8.85105,0.0781121,0.046348,0.0235176,0
2024-12-13 15:39:21.201,-0.289831,3.96939,8.81755,0.082388,0.0408504,0.0247393,0
2024-12-13 15:39:21.203,-0.251246,3.95743,8.79602,0.0891073,0.0371853,0.0247393,0
2024-12-13 15:39:21.206,-0.224925,3.93829,8.75534,0.0921616,0.0353528,0.025961,0
2024-12-13 15:39:21.208,-0.200997,3.91436,8.70509,0.0976592,0.0322986,0.0284044,0
2024-12-13 15:39:21.210,-0.160319,3.91197,8.64736,0.100103,0.0322986,0.025961,0
2024-12-13 15:39:21.213,-0.119641,3.91436,8.59951,0.102546,0.0329094,0.0247393,0
2024-12-13 15:39:21.215,-0.0909273,3.90957,8.55165,0.104379,0.0365745,0.0216851,0
2024-12-13 15:39:21.217,-0.0741775,3.90479,8.5014,0.102546,0.0371853,0.0222959,0
2024-12-13 15:39:21.220,-0.0598206,3.9,8.4679,0.103768,0.0408504,0.0204634,0
2024-12-13 15:39:21.222,-0.0382852,3.90718,8.43679,0.104379,0.0451263,0.0204634,0
2024-12-13 15:39:21.224,-0.0239282,3.91197,8.4009,0.103768,0.0500131,0.0161875,0
2024-12-13 15:39:21.227,-0.0119641,3.92154,8.37697,0.101935,0.0628409,0.0143549,0
2024-12-13 15:39:21.229,-0.00957129,3.92872,8.34587,0.103157,0.0738362,0.0137441,0
2024-12-13 15:39:21.231,-0.0143569,3.94307,8.3004,0.102546,0.0860531,0.00946813,0
2024-12-13 15:39:21.234,-0.00957129,3.95504,8.27169,0.101324,0.0994917,0.00702474,0
2024-12-13 15:39:21.236,-0.00478565,3.94547,8.25494,0.101935,0.111098,0.00580305,0
2024-12-13 15:39:21.239,0.00957129,3.93589,8.22383,0.104379,0.123926,0.0051922,0
2024-12-13 15:39:21.241,0.0143569,3.94547,8.1664,0.103768,0.133699,0.00702474,0
2024-12-13 15:39:21.243,0.00239282,3.96222,8.12064,0.103768,0.143473,0.00763559,0
2024-12-13 15:39:21.246,-0.00239282,3.98854,8.08714,0.102546,0.153857,0.00763559,0
2024-12-13 15:39:21.248,-0.0215354,4.01486,8.05125,0.106211,0.161798,0.00885729,0
2024-12-13 15:39:21.250,-0.0358923,4.04357,7.99143,0.103768,0.163631,0.00946813,0
2024-12-13 15:39:21.253,-0.0502493,4.08664,7.92204,0.100103,0.167296,0.0137441,0
2024-12-13 15:39:21.257,-0.100499,4.168,7.79043,0.0952158,0.164852,0.0210742,0
2024-12-13 15:39:21.260,-0.11007,4.20628,7.733,0.0897182,0.164242,0.0229068,0
2024-12-13 15:39:21.260,-0.11007,4.20628,7.733,0.0897182,0.164242,0.0229068,0
2024-12-13 15:39:21.262,-0.119641,4.25683,7.66361,0.0805555,0.158133,0.0265719,0
2024-12-13 15:39:21.264,-0.102891,4.30708,7.61097,0.0713928,0.154468,0.0296261,0
2024-12-13 15:39:21.267,-0.0765703,4.34776,7.55803,0.0591758,0.146527,0.0296261,0
2024-12-13 15:39:21.269,-0.0454636,4.3669,7.48864,0.0457372,0.138586,0.0308478,0
2024-12-13 15:39:21.271,0.00239282,4.38604,7.44557,0.0280226,0.12698,0.0308478,0
2024-12-13 15:39:21.274,0.081356,4.39801,7.41925,0.0115297,0.118428,0.0296261,0
2024-12-13 15:39:21.276,0.174676,4.41715,7.39771,-0.00801737,0.107433,0.0235176,0
2024-12-13 15:39:21.279,0.236889,4.46261,7.37617,-0.0287862,0.0970484,0.0186308,0
2024-12-13 15:39:21.281,0.277567,4.51526,7.36421,-0.0532201,0.086664,0.00946813,0
2024-12-13 15:39:21.283,0.316152,4.58465,7.35703,-0.0764323,0.0768904,0.00213797,0
2024-12-13 15:39:21.286,0.349651,4.65643,7.37139,-0.10331,0.0689494,-0.00885729,0
2024-12-13 15:39:21.288,0.385544,4.70907,7.40728,-0.130798,0.0597867,-0.0167983,0
2024-12-13 15:39:21.290,0.438186,4.74018,7.45753,-0.158897,0.0494023,-0.0284044,0
2024-12-13 15:39:21.293,0.498006,4.76411,7.52214,-0.185163,0.0408504,-0.0387888,0
2024-12-13 15:39:21.295,0.569791,4.78355,7.59422,-0.21143,0.0310769,-0.0516166,0
2024-12-13 15:39:21.297,0.658325,4.77637,7.67079,-0.235863,0.0231358,-0.062001,0
2024-12-13 15:39:21.300,0.739681,4.74018,7.75693,-0.260908,0.0213033,-0.077883,0
2024-12-13 15:39:21.302,0.801895,4.71147,7.84547,-0.286564,0.0170274,-0.0937651,0
2024-12-13 15:39:21.305,0.8668,4.67318,7.95314,-0.309776,0.0158057,-0.11148,0
2024-12-13 15:39:21.307,0.926621,4.6349,8.05604,-0.328101,0.0206925,-0.131638,0
2024-12-13 15:39:21.309,0.957727,4.60618,8.16401,-0.347038,0.0261901,-0.150574,0
2024-12-13 15:39:21.314,0.940978,4.56311,8.42962,-0.374526,0.0457372,-0.187225,0
2024-12-13 15:39:21.314,0.940978,4.56311,8.42962,-0.374526,0.0457372,-0.187225,0
2024-12-13 15:39:21.316,0.895514,4.55115,8.55883,-0.387354,0.0591758,-0.20555,0
2024-12-13 15:39:21.321,0.828216,4.57508,8.8343,-0.396516,0.0836097,-0.230595,0
2024-12-13 15:39:21.321,0.76361,4.57508,8.8343,-0.396516,0.0836097,-0.230595,0
2024-12-13 15:39:21.323,0.682254,4.61815,8.95155,-0.398349,0.0939941,-0.239758,0
2024-12-13 15:39:21.326,0.574577,4.65404,9.04487,-0.391629,0.108044,-0.247699,0
2024-12-13 15:39:21.328,0.471685,4.68036,9.12144,-0.388575,0.125147,-0.249531,0
2024-12-13 15:39:21.330,0.375972,4.71865,9.17887,-0.381245,0.14164,-0.249531,0
2024-12-13 15:39:21.333,0.267996,4.7689,9.22912,-0.373915,0.159966,-0.248309,0
2024-12-13 15:39:21.335,0.167498,4.81227,9.27009,-0.364141,0.175848,-0.244644,0
2024-12-13 15:39:21.337,0.081356,4.85773,9.3012,-0.3562,0.189897,-0.235482,0
2024-12-13 15:39:21.340,0.0,4.90798,9.3012,-0.348259,0.202725,-0.228762,0
2024-12-13 15:39:21.344,-0.157926,5.01566,9.17887,-0.326269,0.223494,-0.204328,0
2024-12-13 15:39:21.344,-0.157926,5.01566,9.17887,-0.326269,0.223494,-0.204328,0
2024-12-13 15:39:21.347,-0.212961,5.08505,9.10708,-0.318939,0.228381,-0.190279,0
2024-12-13 15:39:21.349,-0.248854,5.15922,9.01376,-0.312219,0.228991,-0.176229,0
2024-12-13 15:39:21.352,-0.287438,5.2358,8.90609,-0.310387,0.227159,-0.160958,0
2024-12-13 15:39:21.354,-0.318545,5.31954,8.78884,-0.314052,0.221661,-0.146909,0
2024-12-13 15:39:21.356,-0.342473,5.40838,8.67847,-0.32016,0.211888,-0.131638,0
2024-12-13 15:39:21.359,-0.371187,5.50648,8.58993,-0.328101,0.193562,-0.116977,0
2024-12-13 15:39:21.361,-0.373579,5.60698,8.52293,-0.340318,0.172793,-0.101706,0
2024-12-13 15:39:21.363,-0.373579,5.71227,8.4679,-0.353757,0.147749,-0.0852132,0
2024-12-13 15:39:21.366,-0.375972,5.80559,8.42962,-0.371471,0.115985,-0.0723854,0
2024-12-13 15:39:21.368,-0.354437,5.87976,8.41287,-0.389797,0.0829989,-0.0583359,0
2024-12-13 15:39:21.370,-0.313759,5.9686,8.41287,-0.408122,0.050624,-0.0473407,0
2024-12-13 15:39:21.373,-0.289831,6.0667,8.41287,-0.433778,0.0164165,-0.0369563,0
2024-12-13 15:39:21.375,-0.265603,6.15524,8.40569,-0.45699,-0.0141258,-0.0296261,0
2024-12-13 15:39:21.377,-0.217747,6.24138,8.40569,-0.483867,-0.0446682,-0.0186308,0
2024-12-13 15:39:21.380,-0.150748,6.31316,8.42244,-0.511966,-0.0745997,-0.0143549,0
2024-12-13 15:39:21.382,-0.0550349,6.35863,8.45594,-0.541898,-0.106364,-0.00824644,0
2024-12-13 15:39:21.385,0.0574277,6.40409,8.49183,-0.57244,-0.137517,-0.00397051,0
2024-12-13 15:39:21.387,0.184247,6.45195,8.52293,-0.605426,-0.172335,-0.00213797,0
2024-12-13 15:39:21.389,0.330509,6.45703,8.55404,-0.642077,-0.206543,-0.00458135,0
2024-12-13 15:39:21.392,0.490828,6.41605,8.60668,-0.679339,-0.234642,-0.00824644,0
2024-12-13 15:39:21.394,0.651147,6.38256,8.68804,-0.718433,-0.265795,-0.0161875,0
2024-12-13 15:39:21.396,0.82343,6.34188,8.78166,-0.758138,-0.292061,-0.025961,0
2024-12-13 15:39:21.399,1.00798,6.27249,8.87976,-0.798454,-0.314663,-0.0400105,0
2024-12-13 15:39:21.401,1.19701,6.21745,8.99941,-0.839991,-0.33421,-0.0558925,0
2024-12-13 15:39:21.410,1.82901,5.97099,9.75584,-0.998201,-0.33421,-0.145076,0
2024-12-13 15:39:21.410,1.82901,5.97099,9.75584,-0.998201,-0.33421,-0.145076,0
2024-12-13 15:39:21.410,1.82901,5.97099,9.75584,-0.998201,-0.33421,-0.145076,0
2024-12-13 15:39:21.413,1.89123,5.87976,10.0002,-1.03302,-0.314663,-0.167678,0
2024-12-13 15:39:21.413,1.89123,5.87976,10.0002,-1.03302,-0.314663,-0.167678,0
2024-12-13 15:39:21.415,1.93191,5.78644,10.2586,-1.06478,-0.287785,-0.191501,0
2024-12-13 15:39:21.418,1.94626,5.6692,10.5461,-1.08983,-0.251135,-0.215324,0
2024-12-13 15:39:21.420,1.9343,5.55673,10.8428,-1.10876,-0.209597,-0.236092,0
2024-12-13 15:39:21.422,1.89601,5.43231,11.1254,-1.11915,-0.163783,-0.253807,0
2024-12-13 15:39:21.425,1.82423,5.30758,11.391,-1.12709,-0.111251,-0.270911,0
2024-12-13 15:39:21.427,1.76201,5.19033,11.6258,-1.12465,-0.0544418,-0.284349,0
2024-12-13 15:39:21.429,1.6998,5.04915,11.846,-1.11609,0.00358873,-0.294734,0
2024-12-13 15:39:21.432,1.62084,4.90798,12.0446,-1.10266,0.0567324,-0.310005,0
2024-12-13 15:39:21.434,1.5347,4.79791,12.2172,-1.08433,0.110487,-0.318557,0
2024-12-13 15:39:21.436,1.43181,4.68993,12.3751,-1.06112,0.161798,-0.326498,0
2024-12-13 15:39:21.439,1.31186,4.59422,12.5282,-1.03241,0.211888,-0.334439,0
2024-12-13 15:39:21.441,1.18505,4.52483,12.6577,-0.996979,0.261366,-0.338715,0
2024-12-13 15:39:21.443,1.06301,4.46022,12.775,-0.953609,0.30718,-0.341158,0
2024-12-13 15:39:21.446,0.945763,4.39562,12.8803,-0.902298,0.348717,-0.343602,0
2024-12-13 15:39:21.450,0.816252,4.29272,12.9425,-0.785626,0.42263,-0.339936,0
2024-12-13 15:39:21.450,0.65354,4.29272,12.9425,-0.785626,0.42263,-0.339936,0
2024-12-13 15:39:21.453,0.474078,4.22572,12.8994,-0.785626,0.42263,-0.339936,0
2024-12-13 15:39:21.455,0.287438,4.17518,12.8372,-0.659181,0.474552,-0.331995,0
2024-12-13 15:39:21.458,0.0837488,4.14646,12.7511,-0.588322,0.491045,-0.322222,0
2024-12-13 15:39:21.460,-0.11007,4.14407,12.6215,-0.518075,0.500818,-0.311838,0
2024-12-13 15:39:21.462,-0.294616,4.13928,12.466,-0.447217,0.500818,-0.302064,0
2024-12-13 15:39:21.465,-0.502792,4.13928,12.2913,-0.376969,0.490434,-0.288014,0
2024-12-13 15:39:21.467,-0.706182,4.13928,12.1071,-0.310998,0.476385,-0.270911,0
2024-12-13 15:39:21.469,-0.8668,4.15125,11.9058,-0.243194,0.455616,-0.253807,0
2024-12-13 15:39:21.472,-1.01037,4.15843,11.6856,-0.178444,0.430571,-0.23426,0
2024-12-13 15:39:21.474,-1.15394,4.14886,11.4796,-0.114916,0.400639,-0.21288,0
2024-12-13 15:39:21.476,-1.27358,4.14168,11.2834,-0.0550526,0.363989,-0.190279,0
2024-12-13 15:39:21.479,-1.38126,4.13689,11.08,0.00297788,0.323062,-0.168288,0
2024-12-13 15:39:21.481,-1.47488,4.12971,10.8428,0.058565,0.281524,-0.143855,0
2024-12-13 15:39:21.483,-1.56341,4.12971,10.5485,0.111098,0.240597,-0.120031,0
2024-12-13 15:39:21.486,-1.65673,4.12253,10.2706,0.159355,0.207612,-0.098041,0
2024-12-13 15:39:21.488,-1.72373,4.101,10.0217,0.202725,0.17768,-0.0723854,0
2024-12-13 15:39:21.491,-1.75962,4.09143,9.75344,0.243652,0.149581,-0.0485624,0
2024-12-13 15:39:21.493,-1.77637,4.08425,9.49263,0.279692,0.128202,-0.0247393,0
2024-12-13 15:39:21.495,-1.80748,4.06989,9.2363,0.310845,0.108654,-0.00274881,0
2024-12-13 15:39:21.498,-1.84576,4.05554,8.99462,0.33589,0.090329,0.0204634,0
2024-12-13 15:39:21.500,-1.85773,4.04357,8.76252,0.357269,0.074447,0.0448973,0
2024-12-13 15:39:21.502,-1.86969,4.05075,8.53251,0.371395,0.0616192,0.0650552,0
2024-12-13 15:39:21.505,-1.88405,4.0675,8.30758,0.384834,0.0481806,0.0864349,0
2024-12-13 15:39:21.507,-1.88405,4.06032,8.09432,0.389721,0.0353528,0.11148,0
2024-12-13 15:39:21.509,-1.8673,4.06989,7.88615,0.392164,0.0268009,0.132248,0
2024-12-13 15:39:21.514,-1.84098,4.08664,7.53889,0.38239,0.0109189,0.173862,0
2024-12-13 15:39:21.514,-1.84098,4.08664,7.53889,0.38239,0.0109189,0.173862,0
2024-12-13 15:39:21.516,-1.80987,4.09621,7.38335,0.376893,0.00481042,0.195242,0
2024-12-13 15:39:21.519,-1.7668,4.10578,7.24218,0.363989,-0.000687203,0.216011,0
2024-12-13 15:39:21.523,-1.65194,4.09621,7.01486,0.335279,-0.0116825,0.253273,0
2024-12-13 15:39:21.523,-1.65194,4.09621,7.01486,0.335279,-0.0116825,0.253273,0
2024-12-13 15:39:21.526,-1.59212,4.08903,6.94277,0.320618,-0.021456,0.269765,0
2024-12-13 15:39:21.528,-1.55384,4.09382,6.87338,0.305347,-0.0318404,0.28748,0
2024-12-13 15:39:21.531,-1.4988,4.10818,6.79203,0.289465,-0.0428357,0.303973,0
2024-12-13 15:39:21.533,-1.41984,4.11775,6.7346,0.272362,-0.0544418,0.317412,0
2024-12-13 15:39:21.535,-1.3334,4.13689,6.68914,0.258312,-0.0666587,0.33085,0
2024-12-13 15:39:21.538,-1.24965,4.17039,6.65324,0.241819,-0.0800973,0.342456,0
2024-12-13 15:39:21.540,-1.15155,4.1991,6.61257,0.228991,-0.0965902,0.352841,0
2024-12-13 15:39:21.542,-1.04865,4.22333,6.57907,0.216774,-0.106975,0.362614,0
2024-12-13 15:39:21.545,-0.94337,4.2664,6.55274,0.200282,-0.122857,0.368112,0
2024-12-13 15:39:21.547,-0.842872,4.31426,6.52882,0.186843,-0.13935,0.372999,0
2024-12-13 15:39:21.549,-0.749253,4.35015,6.50489,0.174626,-0.15401,0.375442,0
2024-12-13 15:39:21.554,-0.545863,4.42194,6.49053,0.144084,-0.188217,0.375442,0
2024-12-13 15:39:21.554,-0.545863,4.42194,6.49053,0.144084,-0.188217,0.375442,0
2024-12-13 15:39:21.556,-0.45015,4.44347,6.5001,0.129423,-0.20471,0.371777,0
2024-12-13 15:39:21.559,-0.364008,4.46022,6.5025,0.113541,-0.222425,0.36689,0
2024-12-13 15:39:21.561,-0.27996,4.47458,6.52882,0.0933833,-0.242583,0.360171,0
2024-12-13 15:39:21.564,-0.189033,4.48415,6.54557,0.0781121,-0.257243,0.351008,0
2024-12-13 15:39:21.566,-0.11007,4.49133,6.59103,0.0597867,-0.273736,0.340624,0
2024-12-13 15:39:21.568,-0.0454636,4.51765,6.6676,0.0420721,-0.287175,0.331461,0
2024-12-13 15:39:21.571,0.026321,4.5344,6.7346,0.0237467,-0.303057,0.322909,0
2024-12-13 15:39:21.573,0.102891,4.54636,6.81596,0.00603212,-0.314052,0.311914,0
2024-12-13 15:39:21.575,0.16989,4.5679,6.91645,-0.00862822,-0.321382,0.299697,0
2024-12-13 15:39:21.580,0.289831,4.58226,7.12732,-0.0391706,-0.331766,0.279539,0
2024-12-13 15:39:21.580,0.289831,4.58226,7.12732,-0.0391706,-0.331766,0.279539,0
2024-12-13 15:39:21.582,0.337687,4.59183,7.235,-0.0526092,-0.331766,0.264879,0
2024-12-13 15:39:21.585,0.407079,4.58704,7.34507,-0.0636045,-0.32688,0.253273,0
2024-12-13 15:39:21.587,0.471685,4.57747,7.46949,-0.077654,-0.326269,0.242888,0
2024-12-13 15:39:21.589,0.505185,4.59422,7.59422,-0.0904818,-0.32016,0.233725,0
2024-12-13 15:39:21.592,0.514756,4.59422,7.68754,-0.0996445,-0.309776,0.222119,0
2024-12-13 15:39:21.594,0.54347,4.57747,7.78325,-0.11064,-0.298781,0.2154,0
2024-12-13 15:39:21.596,0.588933,4.57986,7.87418,-0.11797,-0.283509,0.206237,0
2024-12-13 15:39:21.599,0.596112,4.58704,7.95793,-0.126522,-0.271293,0.198296,0
2024-12-13 15:39:21.601,0.610469,4.57508,8.03211,-0.126522,-0.271293,0.198296,0
2024-12-13 15:39:21.604,0.617647,4.5679,8.1015,-0.14668,-0.243194,0.184858,0
2024-12-13 15:39:21.606,0.615255,4.56551,8.1664,-0.152788,-0.230977,0.176917,0
2024-12-13 15:39:21.608,0.615255,4.56551,8.22144,-0.161951,-0.219981,0.171419,0
2024-12-13 15:39:21.613,0.576969,4.59183,8.30758,-0.179055,-0.204099,0.161645,0
2024-12-13 15:39:21.615,0.553041,4.59183,8.35544,-0.190661,-0.194937,0.158591,0
2024-12-13 15:39:21.615,0.553041,4.59183,8.35544,-0.190661,-0.194937,0.158591,0
2024-12-13 15:39:21.618,0.545863,4.60379,8.4009,-0.198602,-0.186385,0.155537,0
2024-12-13 15:39:21.622,0.531506,4.61576,8.49422,-0.216927,-0.172335,0.149429,0
2024-12-13 15:39:21.622,0.531506,4.61576,8.49422,-0.216927,-0.172335,0.149429,0
2024-12-13 15:39:21.625,0.533899,4.58943,8.55165,-0.228533,-0.168059,0.148207,0
2024-12-13 15:39:21.627,0.52672,4.59661,8.60429,-0.237696,-0.162562,0.145763,0
2024-12-13 15:39:21.629,0.538684,4.61815,8.65215,-0.24808,-0.157064,0.14332,0
2024-12-13 15:39:21.632,0.541077,4.60379,8.72423,-0.2548,-0.156453,0.142709,0
2024-12-13 15:39:21.634,0.533899,4.58943,8.8008,-0.260297,-0.154621,0.141487,0
2024-12-13 15:39:21.637,0.555434,4.58943,8.86302,-0.268238,-0.15401,0.141487,0
2024-12-13 15:39:21.639,0.581755,4.58943,8.9348,-0.273736,-0.152177,0.138433,0
2024-12-13 15:39:21.644,0.610469,4.58704,9.07837,-0.287785,-0.150345,0.13599,0
2024-12-13 15:39:21.644,0.610469,4.58704,9.07837,-0.287785,-0.150345,0.13599,0
2024-12-13 15:39:21.646,0.634397,4.58943,9.15255,-0.29084,-0.149734,0.13347,0
2024-12-13 15:39:21.648,0.648754,4.58704,9.23869,-0.296337,-0.151566,0.130416,0
2024-12-13 15:39:21.651,0.670289,4.57508,9.31556,-0.300613,-0.155232,0.12614,0
2024-12-13 15:39:21.653,0.706182,4.56311,9.38734,-0.301224,-0.155232,0.123086,0
2024-12-13 15:39:21.655,0.722932,4.55354,9.46631,-0.303667,-0.154621,0.117588,0
2024-12-13 15:39:21.658,0.732503,4.53918,9.54527,-0.303057,-0.15401,0.11209,0
2024-12-13 15:39:21.660,0.758824,4.54158,9.62663,-0.308554,-0.157675,0.109647,0
2024-12-13 15:39:21.662,0.76361,4.52722,9.7343,-0.307943,-0.158286,0.103539,0
2024-12-13 15:39:21.665,0.76361,4.51526,9.82553,-0.307943,-0.158897,0.098041,0
2024-12-13 15:39:21.670,0.794716,4.4674,10.0146,-0.306111,-0.155842,0.0876566,0
2024-12-13 15:39:21.670,0.794716,4.4674,10.0146,-0.306111,-0.155842,0.0876566,0
2024-12-13 15:39:21.672,0.804287,4.44347,10.1151,-0.298781,-0.152177,0.082159,0
2024-12-13 15:39:21.674,0.84018,4.43151,10.2108,-0.291451,-0.143625,0.0784939,0
2024-12-13 15:39:21.677,0.862014,4.40758,10.3065,-0.282899,-0.131409,0.0736071,0
2024-12-13 15:39:21.679,0.88355,4.38126,10.4049,-0.271293,-0.121635,0.0668878,0
2024-12-13 15:39:21.681,0.919442,4.35972,10.4862,-0.259076,-0.110029,0.0638335,0
2024-12-13 15:39:21.684,0.926621,4.33101,10.5485,-0.242583,-0.0972011,0.0583359,0
2024-12-13 15:39:21.686,0.912264,4.29512,10.6346,-0.225479,-0.0831516,0.0522274,0
2024-12-13 15:39:21.688,0.895514,4.25444,10.7207,-0.202878,-0.0678804,0.0516166,0
2024-12-13 15:39:21.691,0.888335,4.21855,10.7734,-0.180887,-0.0538309,0.046119,0
2024-12-13 15:39:21.693,0.881157,4.19671,10.8069,-0.155842,-0.041614,0.0442864,0
2024-12-13 15:39:21.695,0.857229,4.16561,10.8165,-0.131409,-0.0269536,0.0412322,0
2024-12-13 15:39:21.698,0.82343,4.13689,10.8021,-0.101477,-0.0122933,0.0412322,0
2024-12-13 15:39:21.700,0.80668,4.12493,10.7734,-0.0715455,0.00481042,0.0424539,0
2024-12-13 15:39:21.702,0.773181,4.09621,10.7351,-0.0422248,0.0213033,0.0412322,0
2024-12-13 15:39:21.705,0.727717,4.06989,10.6849,-0.0104608,0.0341311,0.0424539,0
2024-12-13 15:39:21.707,0.699003,4.07468,10.6179,0.0182491,0.0457372,0.0448973,0
2024-12-13 15:39:21.710,0.675075,4.06989,10.5317,0.0494023,0.058565,0.0473407,0
2024-12-13 15:39:21.712,0.624826,4.05793,10.424,0.0799446,0.0677277,0.0497841,0
2024-12-13 15:39:21.714,0.54347,4.06511,10.3017,0.109876,0.0738362,0.0546708,0
2024-12-13 15:39:21.717,0.486042,4.06032,10.1892,0.140419,0.0811663,0.0595576,0
2024-12-13 15:39:21.719,0.428614,4.06511,10.0624,0.167296,0.0854423,0.0626118,0
2024-12-13 15:39:21.721,0.375972,4.09143,9.90688,0.192951,0.0860531,0.0668878,0
2024-12-13 15:39:21.724,0.328116,4.101,9.75584,0.217996,0.0836097,0.0723854,0
2024-12-13 15:39:21.726,0.263211,4.09861,9.6027,0.241819,0.0768904,0.0784939,0
2024-12-13 15:39:21.728,0.232104,4.11536,9.45195,0.262588,0.066506,0.0833807,0
2024-12-13 15:39:21.731,0.212961,4.14407,9.3012,0.27847,0.0555107,0.0901,0
2024-12-13 15:39:21.733,0.179462,4.17996,9.15733,0.298017,0.0414613,0.0955976,0
2024-12-13 15:39:21.735,0.150748,4.22094,9.00658,0.313288,0.0268009,0.102317,0
2024-12-13 15:39:21.738,0.105284,4.25205,8.8343,0.323062,0.0109189,0.108425,0
2024-12-13 15:39:21.740,0.0550349,4.28555,8.66172,0.332225,-0.00496313,0.113312,0
2024-12-13 15:39:21.743,0.0191426,4.33579,8.49901,0.338944,-0.021456,0.119421,0
2024-12-13 15:39:21.745,0.00717847,4.39322,8.35304,0.341387,-0.0391706,0.126751,0
2024-12-13 15:39:21.747,0.0,4.45065,8.21187,0.338944,-0.0599394,0.13599,0
2024-12-13 15:39:21.750,-0.0143569,4.51047,8.05843,0.331614,-0.0794865,0.142098,0
2024-12-13 15:39:21.752,-0.0143569,4.55593,7.934,0.326727,-0.0984228,0.146985,0
2024-12-13 15:39:21.754,-0.00478565,4.61097,7.84068,0.316953,-0.11797,0.153704,0
2024-12-13 15:39:21.759,0.00239282,4.75932,7.70908,0.285189,-0.157675,0.164089,0
2024-12-13 15:39:21.759,0.0,4.75932,7.70908,0.285189,-0.157675,0.164089,0
2024-12-13 15:39:21.764,-0.00239282,4.86491,7.59422,0.247317,-0.187606,0.175084,0
2024-12-13 15:39:21.764,0.00478565,4.86491,7.59422,0.247317,-0.187606,0.175084,0
2024-12-13 15:39:21.766,0.0287139,4.92473,7.58704,0.224715,-0.199213,0.178749,0
2024-12-13 15:39:21.768,0.0789631,4.98455,7.60379,0.204557,-0.207764,0.183025,0
2024-12-13 15:39:21.771,0.12682,5.0348,7.62772,0.181345,-0.213873,0.185468,0
2024-12-13 15:39:21.773,0.189033,5.08265,7.65643,0.156301,-0.216316,0.187301,0
2024-12-13 15:39:21.775,0.260818,5.1329,7.68515,0.132477,-0.218149,0.187912,0
2024-12-13 15:39:21.778,0.332901,5.18794,7.72822,0.107433,-0.21876,0.186079,0
2024-12-13 15:39:21.780,0.397508,5.2358,7.79761,0.0817772,-0.222425,0.187301,0
2024-12-13 15:39:21.783,0.45015,5.3004,7.88136,0.0561216,-0.223646,0.186079,0
2024-12-13 15:39:21.786,0.502792,5.36052,7.97947,0.00908635,-0.225479,0.183025,0
2024-12-13 15:39:21.787,0.548256,5.40838,8.08953,0.00908635,-0.225479,0.183025,0
2024-12-13 15:39:21.790,0.586541,5.48495,8.19512,-0.0122933,-0.221203,0.180582,0
2024-12-13 15:39:21.792,0.627219,5.56391,8.32912,-0.0348946,-0.221814,0.178749,0
2024-12-13 15:39:21.794,0.672682,5.62612,8.47508,-0.0544418,-0.219981,0.175084,0
2024-12-13 15:39:21.797,0.71336,5.69791,8.60908,-0.0684913,-0.216927,0.174473,0
2024-12-13 15:39:21.799,0.766002,5.78166,8.74816,-0.0886492,-0.213873,0.173252,0
2024-12-13 15:39:21.801,0.830609,5.86541,8.88934,-0.105142,-0.212651,0.169586,0
2024-12-13 15:39:21.804,0.88355,5.9351,9.03769,-0.121635,-0.210819,0.163478,0
2024-12-13 15:39:21.806,0.936192,5.9997,9.18365,-0.137517,-0.210208,0.161035,0
2024-12-13 15:39:21.808,0.998405,6.0691,9.32034,-0.15401,-0.206543,0.156759,0
2024-12-13 15:39:21.811,1.05105,6.1337,9.47348,-0.171724,-0.205321,0.149429,0
2024-12-13 15:39:21.813,1.09173,6.20788,9.62423,-0.183941,-0.206543,0.142709,0
2024-12-13 15:39:21.816,1.16351,6.27009,9.78455,-0.198602,-0.207764,0.134768,0
2024-12-13 15:39:21.818,1.23529,6.32034,9.9691,-0.210819,-0.207154,0.126751,0
2024-12-13 15:39:21.820,1.29272,6.37777,10.1414,-0.224868,-0.207764,0.116977,0
2024-12-13 15:39:21.823,1.34776,6.4328,10.3352,-0.238307,-0.210819,0.105371,0
2024-12-13 15:39:21.825,1.37886,6.49292,10.5317,-0.249302,-0.213262,0.0943759,0
2024-12-13 15:39:21.827,1.40788,6.54796,10.7399,-0.259076,-0.213262,0.082159,0
2024-12-13 15:39:21.830,1.44616,6.59342,10.9603,-0.267017,-0.217538,0.0705529,0
2024-12-13 15:39:21.832,1.47966,6.63649,11.1781,-0.27679,-0.222425,0.0571142,0
2024-12-13 15:39:21.834,1.51555,6.67478,11.415,-0.281677,-0.227922,0.041843,0
2024-12-13 15:39:21.837,1.5347,6.70349,11.6641,-0.287785,-0.231587,0.0265719,0
2024-12-13 15:39:21.839,1.56341,6.73221,11.913,-0.292061,-0.235253,0.0106898,0
2024-12-13 15:39:21.841,1.58734,6.76092,12.1621,-0.292672,-0.232809,-0.00580305,0
2024-12-13 15:39:21.844,1.57298,6.77049,12.4301,-0.289618,-0.229144,-0.0253502,0
2024-12-13 15:39:21.846,1.55384,6.76331,12.6936,-0.282288,-0.219371,-0.0455081,0
2024-12-13 15:39:21.849,1.53709,6.74896,12.9497,-0.270682,-0.201045,-0.0632227,0
2024-12-13 15:39:21.851,1.50838,6.72742,13.2132,-0.256021,-0.179055,-0.0827698,0
2024-12-13 15:39:21.853,1.46291,6.68435,13.4692,-0.237696,-0.154621,-0.102317,0
2024-12-13 15:39:21.856,1.41984,6.6341,13.7109,-0.215705,-0.127743,-0.121253,0
2024-12-13 15:39:21.858,1.35494,6.58385,13.9289,-0.189439,-0.0953685,-0.1408,0
2024-12-13 15:39:21.860,1.27837,6.51685,14.106,-0.162562,-0.0605502,-0.156071,0
2024-12-13 15:39:21.863,1.19462,6.43759,14.2567,-0.129576,-0.0220669,-0.171343,0
2024-12-13 15:39:21.865,1.08694,6.34188,14.391,-0.0953685,0.0194708,-0.182949,0
2024-12-13 15:39:21.867,0.972084,6.2677,14.5035,-0.0623828,0.0603975,-0.196387,0
2024-12-13 15:39:21.870,0.842872,6.20788,14.5825,-0.0245102,0.103768,-0.202496,0
2024-12-13 15:39:21.872,0.675075,6.15045,14.6207,0.0115297,0.139808,-0.206772,0
2024-12-13 15:39:21.874,0.490828,6.1002,14.6495,0.0457372,0.179513,-0.207383,0
2024-12-13 15:39:21.877,0.308973,6.05713,14.6423,0.0829989,0.216774,-0.203718,0
2024-12-13 15:39:21.879,0.133998,6.03081,14.6184,0.114763,0.248538,-0.198831,0
2024-12-13 15:39:21.884,-0.20339,6.00449,14.5059,0.172183,0.298628,-0.170732,0
2024-12-13 15:39:21.884,-0.20339,6.00449,14.5059,0.172183,0.298628,-0.170732,0
2024-12-13 15:39:21.886,-0.387936,6.00449,14.4245,0.172183,0.298628,-0.170732,0
2024-12-13 15:39:21.889,-0.572184,5.99492,14.3336,0.217996,0.327949,-0.134692,0
2024-12-13 15:39:21.891,-0.715753,5.98295,14.2376,0.237543,0.330392,-0.115145,0
2024-12-13 15:39:21.893,-0.859622,6.00449,14.1132,0.252204,0.328559,-0.0925434,0
2024-12-13 15:39:21.896,-0.964906,6.01885,13.9959,0.265642,0.32184,-0.069942,0
2024-12-13 15:39:21.898,-1.04148,6.02363,13.8571,0.265642,0.32184,-0.069942,0
2024-12-13 15:39:21.900,-1.12044,6.04517,13.7013,0.279692,0.304126,-0.025961,0
2024-12-13 15:39:21.903,-1.17787,6.07627,13.5482,0.279692,0.304126,-0.025961,0
2024-12-13 15:39:21.905,-1.19701,6.10259,13.3926,0.282135,0.282746,0.00946813,0
2024-12-13 15:39:21.907,-1.21854,6.12652,13.2395,0.279081,0.265031,0.025961,0
2024-12-13 15:39:21.910,-1.22812,6.1672,13.1076,0.269918,0.244873,0.0412322,0
2024-12-13 15:39:21.912,-1.20658,6.21745,13.0095,0.261366,0.219218,0.05406,0
2024-12-13 15:39:21.914,-1.1659,6.27249,12.9425,0.249149,0.18501,0.0656661,0
2024-12-13 15:39:21.917,-1.0989,6.32513,12.8874,0.236322,0.150803,0.0760505,0
2024-12-13 15:39:21.919,-1.0008,6.38016,12.8539,0.219218,0.111098,0.082159,0
2024-12-13 15:39:21.922,-0.885943,6.44477,12.8396,0.219218,0.111098,0.082159,0
2024-12-13 15:39:21.924,-0.761217,6.48096,12.8396,0.181956,0.0274118,0.0913217,0
2024-12-13 15:39:21.926,-0.617647,6.49771,12.8659,0.165463,-0.0177909,0.0919325,0
2024-12-13 15:39:21.929,-0.4669,6.52164,12.9042,0.145916,-0.0642153,0.0907108,0
2024-12-13 15:39:21.931,-0.311366,6.52403,12.9736,0.124536,-0.111251,0.085824,0
2024-12-13 15:39:21.933,-0.157926,6.50489,13.0669,0.100713,-0.157064,0.0803264,0
2024-12-13 15:39:21.936,0.0,6.469,13.1794,0.0805555,-0.199213,0.0705529,0
2024-12-13 15:39:21.938,0.155533,6.41845,13.3089,0.0597867,-0.237085,0.0601685,0
2024-12-13 15:39:21.940,0.318545,6.37059,13.4501,0.0402396,-0.272514,0.0503949,0
2024-12-13 15:39:21.943,0.495613,6.32752,13.6032,0.0237467,-0.29817,0.0393996,0
2024-12-13 15:39:21.945,0.643968,6.26291,13.7782,0.00847551,-0.32016,0.025961,0
2024-12-13 15:39:21.947,0.789931,6.1672,13.972,-0.00313059,-0.332377,0.0167983,0
2024-12-13 15:39:21.950,0.945763,6.0691,14.1562,-0.00862822,-0.336653,0.00397051,0
2024-12-13 15:39:21.952,1.08455,5.97578,14.3288,-0.0129041,-0.333599,-0.00763559,0
2024-12-13 15:39:21.954,1.2018,5.86541,14.4939,-0.013515,-0.323215,-0.0210742,0
2024-12-13 15:39:21.957,1.32383,5.7338,14.6423,-0.00618483,-0.303667,-0.0332912,0
2024-12-13 15:39:21.959,1.43898,5.58784,14.7739,0.00358873,-0.273736,-0.0473407,0
2024-12-13 15:39:21.962,1.5323,5.43231,14.889,0.00358873,-0.273736,-0.0473407,0
2024-12-13 15:39:21.964,1.6328,5.25254,14.9752,0.0335202,-0.196158,-0.0784939,3
2024-12-13 15:39:21.966,1.71655,5.07548,15.0087,0.0591758,-0.147291,-0.0949868,0
2024-12-13 15:39:21.969,1.73809,4.88166,15.0111,0.0884965,-0.0929251,-0.110258,0
2024-12-13 15:39:21.971,1.72134,4.68275,14.9895,0.120261,-0.0318404,-0.12614,0
2024-12-13 15:39:21.973,1.65673,4.49851,14.9441,0.15569,0.0329094,-0.139579,0
2024-12-13 15:39:21.976,1.55145,4.3023,14.8819,0.192951,0.104379,-0.151185,0
2024-12-13 15:39:21.978,1.42463,4.101,14.7906,0.234489,0.17768,-0.157904,0
2024-12-13 15:39:21.980,1.26401,3.91197,14.6542,0.282746,0.253425,-0.159737,0
2024-12-13 15:39:21.983,1.07019,3.74447,14.4796,0.327949,0.32917,-0.157293,0
2024-12-13 15:39:21.985,0.854836,3.58624,14.2591,0.373228,0.403694,-0.151796,0
2024-12-13 15:39:21.987,0.646361,3.42592,14.0294,0.423928,0.475163,-0.138968,0
2024-12-13 15:39:21.990,0.435793,3.27996,13.8236,0.464855,0.539302,-0.120642,0
2024-12-13 15:39:21.992,0.210568,3.15075,13.5912,0.507614,0.594889,-0.0992627,0
2024-12-13 15:39:21.995,0.0,3.04756,13.3137,0.549763,0.647422,-0.0742179,0
2024-12-13 15:39:21.997,-0.181855,2.95902,13.0047,0.585802,0.692624,-0.0448973,0
2024-12-13 15:39:21.999,-0.347258,2.84417,12.6841,0.619399,0.728741,-0.0137441,0
2024-12-13 15:39:22.002,-0.469292,2.71017,12.3607,0.64872,0.759894,0.0204634,0
2024-12-13 15:39:22.004,-0.553041,2.6001,12.047,0.672543,0.776998,0.0571142,0
2024-12-13 15:39:22.006,-0.62004,2.50409,11.7311,0.693922,0.783106,0.0901,0
2024-12-13 15:39:22.009,-0.660718,2.37727,11.3886,0.693922,0.783106,0.0901,0
2024-12-13 15:39:22.011,-0.682254,2.26481,11.068,0.722632,0.773943,0.15798,0
2024-12-13 15:39:22.013,-0.718146,2.19302,10.7686,0.732406,0.758672,0.188523,0
2024-12-13 15:39:22.016,-0.74686,2.1332,10.4767,0.738514,0.740347,0.217233,0
2024-12-13 15:39:22.018,-0.76361,2.07577,10.2251,0.741569,0.717135,0.24411,0
2024-12-13 15:39:22.020,-0.780359,2.05424,10.0217,0.739125,0.688959,0.270376,0
2024-12-13 15:39:22.023,-0.821037,2.04706,9.83031,0.73546,0.657195,0.29481,0
2024-12-13 15:39:22.025,-0.847657,2.01835,9.63141,0.733628,0.626042,0.316801,0
2024-12-13 15:39:22.027,-0.825823,2.00399,9.46152,0.726297,0.590613,0.335126,0
2024-12-13 15:39:22.030,-0.797109,2.00399,9.32034,0.7208,0.554573,0.35223,0
2024-12-13 15:39:22.032,-0.76361,2.01595,9.18365,0.718356,0.524031,0.368723,0
2024-12-13 15:39:22.035,-0.732503,2.02552,9.04965,0.714691,0.497153,0.380329,0
2024-12-13 15:39:22.037,-0.703789,2.02313,8.91805,0.712248,0.475774,0.387048,0
2024-12-13 15:39:22.039,-0.684646,2.02074,8.78644,0.71347,0.458059,0.394378,0
2024-12-13 15:39:22.042,-0.687039,2.0327,8.65454,0.714691,0.443399,0.396822,0
2024-12-13 15:39:22.044,-0.706182,2.05424,8.53251,0.714691,0.431182,0.396822,0
2024-12-13 15:39:22.046,-0.727717,2.05902,8.42962,0.718967,0.420187,0.396822,0
2024-12-13 15:39:22.049,-0.742074,2.04945,8.34347,0.725687,0.409802,0.392546,0
2024-12-13 15:39:22.051,-0.756431,2.05185,8.26451,0.727519,0.39392,0.386437,0
2024-12-13 15:39:22.053,-0.770788,2.0662,8.19033,0.733628,0.378649,0.38155,0
2024-12-13 15:39:22.056,-0.787538,2.07817,8.09671,0.739125,0.362767,0.371777,0
2024-12-13 15:39:22.058,-0.787538,2.09731,7.99143,0.745234,0.347496,0.362003,0
2024-12-13 15:39:22.060,-0.797109,2.12124,7.90529,0.752564,0.332225,0.35223,0
2024-12-13 15:39:22.063,-0.818644,2.12842,7.81197,0.758672,0.313899,0.341235,0
2024-12-13 15:39:22.065,-0.837787,2.14277,7.70429,0.767835,0.296795,0.329628,0
2024-12-13 15:39:22.068,-0.859622,2.16909,7.59183,0.776387,0.279081,0.319855,0
2024-12-13 15:39:22.070,-0.873978,2.18824,7.5006,0.784939,0.25648,0.307638,0
2024-12-13 15:39:22.072,-0.909871,2.22174,7.41446,0.784939,0.25648,0.307638,0
2024-12-13 15:39:22.075,-0.957727,2.25763,7.31875,0.800821,0.203947,0.285647,0
2024-12-13 15:39:22.077,-0.988834,2.28873,7.22064,0.808151,0.174626,0.274652,0
2024-12-13 15:39:22.079,-1.02473,2.34856,7.10579,0.810594,0.143473,0.265489,0
2024-12-13 15:39:22.082,-1.04626,2.40598,6.99302,0.816092,0.11232,0.255105,0
2024-12-13 15:39:22.084,-1.05583,2.45145,6.88774,0.817314,0.082388,0.248386,0
2024-12-13 15:39:22.086,-1.07498,2.50409,6.78006,0.817314,0.0536782,0.239834,0
2024-12-13 15:39:22.089,-1.08933,2.54985,6.67239,0.813649,0.0286335,0.233115,0
2024-12-13 15:39:22.091,-1.1013,2.59771,6.5671,0.808762,0.00481042,0.227617,0
2024-12-13 15:39:22.093,-1.12522,2.64078,6.469,0.798988,-0.021456,0.222119,0
2024-12-13 15:39:22.096,-1.1324,2.69821,6.38973,0.78616,-0.0422248,0.217843,0
2024-12-13 15:39:22.098,-1.12283,2.74367,6.30838,0.770889,-0.0568851,0.2154,0
2024-12-13 15:39:22.101,-1.12044,2.77717,6.23181,0.752564,-0.0739889,0.214178,0
2024-12-13 15:39:22.103,-1.11087,2.82263,6.16481,0.733628,-0.0862058,0.211124,0
2024-12-13 15:39:22.105,-1.08455,2.87049,6.10499,0.709805,-0.093536,0.20807,0
2024-12-13 15:39:22.108,-1.05583,2.8992,6.05952,0.687203,-0.0978119,0.206848,0
2024-12-13 15:39:22.110,-1.01994,2.91835,6.01167,0.659715,-0.0984228,0.206237,0
2024-12-13 15:39:22.112,-0.974477,2.93988,5.9662,0.634059,-0.0953685,0.206237,0
2024-12-13 15:39:22.115,-0.940978,2.94227,5.93988,0.604739,-0.0904818,0.205626,0
2024-12-13 15:39:22.117,-0.912264,2.94945,5.9327,0.573586,-0.0849841,0.207459,0
2024-12-13 15:39:22.119,-0.871586,2.95185,5.9351,0.544265,-0.0782648,0.206237,0
2024-12-13 15:39:22.122,-0.821037,2.94227,5.94228,0.513723,-0.0703238,0.206237,0
2024-12-13 15:39:22.124,-0.777966,2.94467,5.95424,0.485013,-0.0593285,0.205626,0
2024-12-13 15:39:22.126,-0.749253,2.95424,5.9662,0.453249,-0.0513875,0.209292,0
2024-12-13 15:39:22.129,-0.710967,2.97338,5.98774,0.421485,-0.0403923,0.209292,0
2024-12-13 15:39:22.131,-0.670289,2.97817,6.02842,0.390942,-0.029397,0.211124,0
2024-12-13 15:39:22.133,-0.646361,2.97099,6.0691,0.361545,-0.0208452,0.211735,0
2024-12-13 15:39:22.136,-0.62004,2.99252,6.12174,0.331614,-0.0141258,0.214178,0
2024-12-13 15:39:22.138,-0.574577,2.99252,6.2007,0.307791,-0.00923906,0.2154,0
2024-12-13 15:39:22.141,-0.538684,2.99013,6.28924,0.283968,-0.00251974,0.217233,0
2024-12-13 15:39:22.143,-0.50997,2.9686,6.36102,0.258312,0.00297788,0.222119,0
2024-12-13 15:39:22.145,-0.469292,2.94467,6.42563,0.237543,0.00664296,0.223952,0
2024-12-13 15:39:22.148,-0.442971,2.9327,6.49532,0.217996,0.0139731,0.226395,0
2024-12-13 15:39:22.150,-0.421436,2.91356,6.55753,0.200892,0.0200816,0.225784,0
2024-12-13 15:39:22.152,-0.390329,2.89442,6.6006,0.1844,0.0255792,0.227617,0
2024-12-13 15:39:22.155,-0.34008,2.8657,6.65324,0.168517,0.0322986,0.225784,0
2024-12-13 15:39:22.157,-0.285045,2.8322,6.70349,0.153857,0.0390179,0.223952,0
2024-12-13 15:39:22.159,-0.258425,2.81067,6.73699,0.142862,0.0439046,0.22273,0
2024-12-13 15:39:22.162,-0.227318,2.78913,6.78246,0.142862,0.0439046,0.22273,0
2024-12-13 15:39:22.164,-0.200997,2.76521,6.8351,0.121482,0.0512348,0.212346,0
2024-12-13 15:39:22.166,-0.184247,2.74367,6.87578,0.110487,0.0524565,0.206848,0
2024-12-13 15:39:22.171,-0.136391,2.70539,6.92124,0.0976592,0.0628409,0.188523,0
2024-12-13 15:39:22.171,-0.136391,2.70539,6.92124,0.0976592,0.0628409,0.188523,0
2024-12-13 15:39:22.174,-0.12682,2.68864,6.9356,0.0884965,0.0658951,0.180582,0
2024-12-13 15:39:22.176,-0.112463,2.67667,6.96431,0.0842206,0.0732253,0.170197,0
2024-12-13 15:39:22.178,-0.112463,2.67428,6.98345,0.0817772,0.0750579,0.15798,0
2024-12-13 15:39:22.181,-0.117248,2.64556,7.0026,0.0781121,0.0805555,0.146374,0
2024-12-13 15:39:22.183,-0.119641,2.62403,7.00738,0.0781121,0.086664,0.134768,0
2024-12-13 15:39:22.185,-0.131605,2.6001,7.01964,0.0750579,0.0884965,0.124307,0
2024-12-13 15:39:22.188,-0.141177,2.57857,7.04357,0.074447,0.0891073,0.11209,0
2024-12-13 15:39:22.190,-0.136391,2.56421,7.06032,0.074447,0.0884965,0.0974301,0
2024-12-13 15:39:22.192,-0.133998,2.56421,7.08425,0.0762796,0.0842206,0.0864349,0
2024-12-13 15:39:22.195,-0.141177,2.5666,7.10339,0.0793338,0.0799446,0.0742179,0
2024-12-13 15:39:22.197,-0.162712,2.56421,7.10339,0.0829989,0.0762796,0.062001,0
2024-12-13 15:39:22.199,-0.184247,2.58335,7.10579,0.0872748,0.0713928,0.0503949,0
2024-12-13 15:39:22.202,-0.193819,2.57617,7.11296,0.0897182,0.0701711,0.0400105,0
2024-12-13 15:39:22.204,-0.200997,2.58335,7.10339,0.0970484,0.0701711,0.0308478,0
2024-12-13 15:39:22.206,-0.198604,2.60249,7.10579,0.104989,0.0720036,0.0192417,0
2024-12-13 15:39:22.209,-0.20339,2.61207,7.10339,0.109265,0.0762796,0.00702474,0
2024-12-13 15:39:22.211,-0.210568,2.62403,7.08425,0.113541,0.0817772,-0.00397051,0
2024-12-13 15:39:22.216,-0.215354,2.62642,7.00499,0.130034,0.0952158,-0.0198525,0
2024-12-13 15:39:22.216,-0.215354,2.62642,7.00499,0.130034,0.0952158,-0.0198525,0
2024-12-13 15:39:22.218,-0.215354,2.65035,6.95235,0.133699,0.104379,-0.0290152,0
2024-12-13 15:39:22.221,-0.222533,2.66949,6.91406,0.139197,0.111098,-0.038178,0
2024-12-13 15:39:22.223,-0.215354,2.67189,6.87099,0.144694,0.115374,-0.0448973,0
2024-12-13 15:39:22.225,-0.208176,2.69821,6.81596,0.149581,0.121482,-0.0528383,0
2024-12-13 15:39:22.228,-0.222533,2.74606,6.73699,0.149581,0.121482,-0.0528383,0
2024-12-13 15:39:22.230,-0.256032,2.79871,6.67239,0.147138,0.121482,-0.0650552,0
2024-12-13 15:39:22.232,-0.301795,2.87528,6.61974,0.147138,0.122093,-0.0693312,0
2024-12-13 15:39:22.235,-0.337687,2.94227,6.56949,0.143473,0.121482,-0.0711637,0
2024-12-13 15:39:22.237,-0.364008,2.97338,6.52164,0.141029,0.121482,-0.0742179,0
2024-12-13 15:39:22.239,-0.390329,3.01406,6.469,0.134921,0.120261,-0.0791047,0
2024-12-13 15:39:22.242,-0.407079,3.0667,6.41605,0.128812,0.116595,-0.0809373,0
2024-12-13 15:39:22.244,-0.423829,3.11246,6.37059,0.120261,0.115985,-0.0797156,0
2024-12-13 15:39:22.247,-0.447757,3.15553,6.32513,0.113541,0.116595,-0.0803264,0
2024-12-13 15:39:22.249,-0.474078,3.18664,6.27966,0.106211,0.117206,-0.0803264,0
2024-12-13 15:39:22.251,-0.500399,3.20578,6.22702,0.100103,0.118428,-0.0809373,0
2024-12-13 15:39:22.254,-0.507577,3.22014,6.18156,0.0933833,0.119039,-0.0803264,0
2024-12-13 15:39:22.258,-0.498006,3.24646,6.12413,0.0787229,0.115374,-0.082159,0
2024-12-13 15:39:22.258,-0.498006,3.24646,6.12413,0.0787229,0.115374,-0.082159,0
2024-12-13 15:39:22.263,-0.45015,3.27039,6.07149,0.0658951,0.111098,-0.0833807,0
2024-12-13 15:39:22.263,-0.45015,3.27039,6.07149,0.0658951,0.111098,-0.0833807,0
2024-12-13 15:39:22.265,-0.45015,3.27039,6.04277,0.058565,0.108654,-0.0846023,0
2024-12-13 15:39:22.268,-0.447757,3.27757,6.02842,0.0512348,0.106211,-0.0864349,0
2024-12-13 15:39:22.270,-0.423829,3.27996,6.01406,0.0457372,0.103768,-0.0864349,0
2024-12-13 15:39:22.272,-0.41665,3.28953,5.99253,0.042683,0.104989,-0.0901,0
2024-12-13 15:39:22.275,-0.428614,3.33739,5.97817,0.0377962,0.107433,-0.0907108,0
2024-12-13 15:39:22.277,-0.447757,3.38764,5.96381,0.0316877,0.109265,-0.0919325,0
2024-12-13 15:39:22.280,-0.478864,3.42832,5.92553,0.0261901,0.11293,-0.0894891,0
2024-12-13 15:39:22.282,-0.505185,3.46899,5.87976,0.0237467,0.117817,-0.0876566,0
2024-12-13 15:39:22.284,-0.54347,3.51207,5.82234,0.0200816,0.122093,-0.0846023,0
2024-12-13 15:39:22.287,-0.584148,3.55753,5.75773,0.0151948,0.128812,-0.0839915,0
2024-12-13 15:39:22.289,-0.60329,3.60539,5.7003,0.00847551,0.136143,-0.0809373,0
2024-12-13 15:39:22.291,-0.612862,3.6341,5.65005,0.00175619,0.141029,-0.0760505,0
2024-12-13 15:39:22.296,-0.615255,3.68704,5.51127,-0.0159584,0.151414,-0.0711637,0
2024-12-13 15:39:22.296,-0.615255,3.68704,5.51127,-0.0159584,0.151414,-0.0711637,0
2024-12-13 15:39:22.298,-0.596112,3.69422,5.44906,-0.0245102,0.155079,-0.0693312,0
2024-12-13 15:39:22.301,-0.600898,3.74925,5.40598,-0.0379489,0.156911,-0.0681095,0
2024-12-13 15:39:22.303,-0.622433,3.81865,5.36531,-0.0471116,0.159355,-0.0650552,0
2024-12-13 15:39:22.305,-0.643968,3.85932,5.31715,-0.0605502,0.159355,-0.0638335,0
2024-12-13 15:39:22.308,-0.667897,3.91197,5.25972,-0.0758214,0.161798,-0.0626118,0
2024-12-13 15:39:22.310,-0.675075,3.97897,5.18794,-0.093536,0.166685,-0.0613902,0
2024-12-13 15:39:22.312,-0.687039,4.03879,5.10898,-0.11064,0.17035,-0.0601685,0
2024-12-13 15:39:22.315,-0.720539,4.08664,5.05873,-0.128965,0.172793,-0.0577251,0
2024-12-13 15:39:22.317,-0.739681,4.12971,5.04676,-0.147901,0.173404,-0.0595576,0
2024-12-13 15:39:22.320,-0.744467,4.1991,5.0348,-0.171724,0.174626,-0.0552817,0
2024-12-13 15:39:22.322,-0.76361,4.26162,5.01087,-0.197991,0.175237,-0.0552817,0
2024-12-13 15:39:22.324,-0.770788,4.30947,5.00369,-0.225479,0.176459,-0.0589468,0
2024-12-13 15:39:22.327,-0.770788,4.34058,5.0013,-0.2548,0.176459,-0.0571142,0
2024-12-13 15:39:22.329,-0.768395,4.3669,5.00369,-0.282288,0.17768,-0.0571142,0
2024-12-13 15:39:22.331,-0.756431,4.39801,5.01566,-0.314052,0.177069,-0.0577251,0
2024-12-13 15:39:22.334,-0.732503,4.40519,5.05155,-0.346427,0.177069,-0.0607793,0
2024-12-13 15:39:22.336,-0.627219,4.3334,5.15205,-0.380634,0.171572,-0.0650552,0
2024-12-13 15:39:22.338,-0.512363,4.28315,5.27647,-0.414231,0.159355,-0.0760505,0
2024-12-13 15:39:22.341,-0.514756,4.35015,5.35334,-0.447827,0.151414,-0.085824,0
2024-12-13 15:39:22.343,-0.569791,4.45304,5.42034,-0.480813,0.150192,-0.0931542,0
2024-12-13 15:39:22.345,-0.627219,4.55115,5.51845,-0.51441,0.152025,-0.0998735,0
2024-12-13 15:39:22.348,-0.699003,4.66122,5.64527,-0.547396,0.15569,-0.102317,0
2024-12-13 15:39:22.350,-0.777966,4.76172,5.77687,-0.576716,0.158744,-0.102317,0
2024-12-13 15:39:22.353,-0.847657,4.84816,5.91356,-0.604815,0.160576,-0.101706,0
2024-12-13 15:39:22.355,-0.905085,4.91516,6.0356,-0.63719,0.158133,-0.100484,0
2024-12-13 15:39:22.357,-0.940978,4.94866,6.14327,-0.666511,0.155079,-0.0949868,0
2024-12-13 15:39:22.360,-0.957727,4.95583,6.25574,-0.695831,0.153857,-0.0919325,0
2024-12-13 15:39:22.362,-0.96012,4.95583,6.3682,-0.722709,0.147749,-0.0876566,0
2024-12-13 15:39:22.364,-0.94337,4.92951,6.469,-0.750808,0.145916,-0.0833807,0
2024-12-13 15:39:22.367,-0.929013,4.89601,6.5671,-0.779517,0.147138,-0.0791047,0
2024-12-13 15:39:22.369,-0.902692,4.83859,6.68674,-0.807006,0.150192,-0.0766613,0
2024-12-13 15:39:22.371,-0.859622,4.77637,6.80638,-0.833272,0.153857,-0.0748288,0
2024-12-13 15:39:22.374,-0.835394,4.7354,6.91406,-0.858928,0.159966,-0.0729962,0
2024-12-13 15:39:22.376,-0.825823,4.68036,7.04118,-0.88214,0.16302,-0.0742179,0
2024-12-13 15:39:22.378,-0.825823,4.6349,7.19432,-0.904741,0.167907,-0.0748288,0
2024-12-13 15:39:22.383,-0.828216,4.60379,7.47189,-0.94689,0.176459,-0.0736071,0
2024-12-13 15:39:22.383,-0.828216,4.57029,7.47189,-0.94689,0.176459,-0.0736071,0
2024-12-13 15:39:22.385,-0.830609,4.54158,7.62054,-0.94689,0.176459,-0.0736071,0
2024-12-13 15:39:22.389,-0.84018,4.5344,7.78325,-0.998201,0.186232,-0.0681095,0
2024-12-13 15:39:22.390,-0.871586,4.54876,7.92922,-0.998201,0.186232,-0.0681095,0
2024-12-13 15:39:22.393,-0.888335,4.54397,8.06561,-1.01225,0.189286,-0.0668878,0
2024-12-13 15:39:22.395,-0.890728,4.53918,8.22622,-1.02508,0.19173,-0.062001,0
2024-12-13 15:39:22.397,-0.902692,4.54636,8.40808,-1.03852,0.189286,-0.0601685,0
2024-12-13 15:39:22.400,-0.917049,4.53918,8.59472,-1.04768,0.186843,-0.0583359,0
2024-12-13 15:39:22.402,-0.919442,4.52722,8.78884,-1.05623,0.183789,-0.05406,0
2024-12-13 15:39:22.404,-0.926621,4.52961,8.98026,-1.06356,0.181345,-0.0522274,0
2024-12-13 15:39:22.407,-0.931406,4.5344,9.19083,-1.066,0.176459,-0.0479515,0
2024-12-13 15:39:22.409,-0.948156,4.53679,9.40648,-1.066,0.173404,-0.0436756,0
2024-12-13 15:39:22.411,-0.972084,4.55593,9.62184,-1.06173,0.17035,-0.0393996,0
2024-12-13 15:39:22.414,-0.97687,4.57508,9.82074,-1.05196,0.172793,-0.0363454,0
2024-12-13 15:39:22.416,-0.981655,4.58226,10.005,-1.04279,0.178902,-0.0320695,0
2024-12-13 15:39:22.418,-0.974477,4.57029,10.1653,-1.03241,0.188675,-0.0290152,0
2024-12-13 15:39:22.421,-0.964906,4.55833,10.3256,-1.01714,0.197227,-0.0265719,0
2024-12-13 15:39:22.423,-0.969691,4.55593,10.4886,-0.99759,0.205779,-0.0235176,0
2024-12-13 15:39:22.426,-0.972084,4.52961,10.6442,-0.978654,0.210055,-0.0222959,0
2024-12-13 15:39:22.428,-0.962513,4.49372,10.8093,-0.954831,0.213109,-0.0229068,0
2024-12-13 15:39:22.430,-0.945763,4.46979,10.9627,-0.933451,0.209444,-0.0235176,0
2024-12-13 15:39:22.433,-0.948156,4.44108,11.1039,-0.907185,0.207001,-0.0235176,0
2024-12-13 15:39:22.435,-0.940978,4.40519,11.2331,-0.880307,0.201503,-0.0253502,0
2024-12-13 15:39:22.437,-0.929013,4.38126,11.3432,-0.850987,0.197227,-0.0247393,0
2024-12-13 15:39:22.440,-0.929013,4.38126,11.4437,-0.821055,0.196616,-0.025961,0
2024-12-13 15:39:22.442,-0.919442,4.38126,11.5373,-0.786237,0.199671,-0.0265719,0
2024-12-13 15:39:22.444,-0.933799,4.37169,11.6043,-0.75264,0.202725,-0.0265719,0
2024-12-13 15:39:22.447,-0.948156,4.37887,11.6569,-0.717822,0.205779,-0.0247393,0
2024-12-13 15:39:22.449,-0.945763,4.39083,11.7,-0.68056,0.213109,-0.0235176,0
2024-12-13 15:39:22.451,-0.962513,4.4004,11.7263,-0.647574,0.216774,-0.0216851,0
2024-12-13 15:39:22.454,-0.988834,4.42672,11.7574,-0.612756,0.217385,-0.0222959,0
2024-12-13 15:39:22.456,-0.996012,4.46261,11.7742,-0.577938,0.216774,-0.0198525,0
2024-12-13 15:39:22.459,-1.0008,4.48415,11.7718,-0.545563,0.214942,-0.0174091,0
2024-12-13 15:39:22.461,-1.02233,4.51526,11.7694,-0.515021,0.209444,-0.0137441,0
2024-12-13 15:39:22.463,-1.02951,4.57508,11.755,-0.486922,0.203336,-0.0113007,0
2024-12-13 15:39:22.466,-1.04626,4.62293,11.7191,-0.458212,0.197227,-0.00763559,0
2024-12-13 15:39:22.468,-1.07737,4.67797,11.6856,-0.435,0.190508,-0.00274881,0
2024-12-13 15:39:22.470,-1.0989,4.733,11.6593,-0.410566,0.181956,0.00335966,0
2024-12-13 15:39:22.473,-1.12283,4.78594,11.633,-0.387354,0.174015,0.00702474,0
2024-12-13 15:39:22.475,-1.14437,4.84337,11.6139,-0.365363,0.161187,0.0113007,0
2024-12-13 15:39:22.477,-1.17547,4.89841,11.6115,-0.344594,0.14836,0.0186308,0
2024-12-13 15:39:22.480,-1.20419,4.9678,11.6234,-0.325658,0.137364,0.0235176,0
2024-12-13 15:39:22.482,-1.23051,5.02762,11.6378,-0.303667,0.120261,0.0296261,0
2024-12-13 15:39:22.484,-1.24008,5.0683,11.6521,-0.282899,0.103768,0.0357346,0
2024-12-13 15:39:22.487,-1.25204,5.12333,11.6665,-0.259076,0.0909399,0.0424539,0
2024-12-13 15:39:22.489,-1.24965,5.18555,11.6593,-0.237696,0.0781121,0.0485624,0
2024-12-13 15:39:22.494,-1.21376,5.28844,11.6761,-0.193104,0.0573433,0.0589468,0
2024-12-13 15:39:22.494,-1.21376,5.28844,11.6761,-0.193104,0.0573433,0.0589468,0
2024-12-13 15:39:22.496,-1.18505,5.33899,11.6545,-0.173557,0.0487914,0.0626118,0
2024-12-13 15:39:22.499,-1.15155,5.38684,11.621,-0.150345,0.0420721,0.0681095,0
2024-12-13 15:39:22.501,-1.13001,5.42752,11.6043,-0.130187,0.0335202,0.0717745,0
2024-12-13 15:39:22.503,-1.11087,5.46341,11.5804,-0.11064,0.0255792,0.0772722,0
2024-12-13 15:39:22.520,-0.988834,5.82234,11.4485,-0.00984991,-0.041614,0.0968193,0
2024-12-13 15:39:22.522,-0.97687,5.88216,11.4078,-0.0019089,-0.0471116,0.0992627,0
2024-12-13 15:39:22.524,-0.97687,5.88216,11.3671,0.00603212,-0.0526092,0.102317,0
2024-12-13 15:39:22.524,-0.962513,5.93988,11.3671,0.00603212,-0.0526092,0.102317,0
2024-12-13 15:39:22.524,-0.962513,5.93988,11.3671,0.00603212,-0.0526092,0.102317,0
2024-12-13 15:39:22.527,-0.948156,5.99492,11.3312,0.010308,-0.0550526,0.104149,0
2024-12-13 15:39:22.527,-0.948156,5.99492,11.3312,0.010308,-0.0550526,0.104149,0
2024-12-13 15:39:22.529,-0.945763,6.04995,11.3049,0.0109189,-0.0581068,0.106593,0
2024-12-13 15:39:22.529,-0.945763,6.04995,11.3049,0.0109189,-0.0581068,0.106593,0
2024-12-13 15:39:22.534,-0.893121,6.14567,11.3049,0.010308,-0.0703238,0.113312,0
2024-12-13 15:39:22.536,-0.859622,6.18634,11.3073,0.00603212,-0.0764323,0.118199,0
2024-12-13 15:39:22.536,-0.859622,6.18634,11.3073,0.00603212,-0.0764323,0.118199,0
2024-12-13 15:39:22.539,-0.833001,6.23181,11.3264,-7.63559e-05,-0.0849841,0.120031,0
2024-12-13 15:39:22.539,-0.833001,6.23181,11.3264,-7.63559e-05,-0.0849841,0.120031,0
2024-12-13 15:39:22.541,-0.794716,6.27009,11.3647,-0.00374144,-0.0978119,0.123086,0
2024-12-13 15:39:22.541,-0.794716,6.27009,11.3647,-0.00374144,-0.0978119,0.123086,0
2024-12-13 15:39:22.543,-0.758824,6.31077,11.415,-0.0104608,-0.108807,0.123086,0
2024-12-13 15:39:22.546,-0.718146,6.35863,11.4676,-0.0177909,-0.121024,0.128583,0
2024-12-13 15:39:22.548,-0.672682,6.38973,11.5421,-0.0251211,-0.133852,0.129194,0
2024-12-13 15:39:22.550,-0.634397,6.41366,11.6234,-0.0318404,-0.14668,0.132859,0
2024-12-13 15:39:22.553,-0.572184,6.45942,11.7144,-0.0379489,-0.157675,0.132248,0
2024-12-13 15:39:22.555,-0.507577,6.5025,11.8292,-0.0458899,-0.168059,0.129805,0
2024-12-13 15:39:22.557,-0.447757,6.536,11.9417,-0.0477224,-0.177833,0.127972,0
2024-12-13 15:39:22.560,-0.373579,6.57189,12.0446,-0.049555,-0.185774,0.12614,0
2024-12-13 15:39:22.564,-0.236889,6.60778,12.2507,-0.0550526,-0.19738,0.113923,0
2024-12-13 15:39:22.564,-0.236889,6.60778,12.2507,-0.0550526,-0.19738,0.113923,0
2024-12-13 15:39:22.567,-0.193819,6.62692,12.3559,-0.0538309,-0.200434,0.105371,0
2024-12-13 15:39:22.569,-0.138784,6.63649,12.4708,-0.0513875,-0.203488,0.0962084,0
2024-12-13 15:39:22.572,-0.0789631,6.63171,12.5785,-0.0471116,-0.204099,0.0864349,0
2024-12-13 15:39:22.574,-0.0382852,6.62692,12.6817,-0.0452791,-0.201656,0.0766613,0
2024-12-13 15:39:22.576,-0.0191426,6.62214,12.7917,-0.0403923,-0.199213,0.0613902,0
2024-12-13 15:39:22.579,-0.00957129,6.62214,12.8994,-0.033673,-0.196158,0.0485624,0
2024-12-13 15:39:22.581,0.00717847,6.60778,13.0023,-0.0251211,-0.193104,0.0332912,0
2024-12-13 15:39:22.583,0.00239282,6.60299,13.0956,-0.0141258,-0.190661,0.0204634,0
2024-12-13 15:39:22.586,-0.00957129,6.6006,13.1868,-0.0019089,-0.185163,0.00702474,0
2024-12-13 15:39:22.588,-0.0119641,6.58864,13.2802,0.0096972,-0.182109,-0.00702474,0
2024-12-13 15:39:22.590,-0.026321,6.58624,13.3543,0.022525,-0.177833,-0.0216851,0
2024-12-13 15:39:22.593,-0.0478565,6.57667,13.4213,0.038407,-0.172946,-0.0357346,0
2024-12-13 15:39:22.595,-0.0909273,6.56949,13.4883,0.0548999,-0.169892,-0.0479515,0
2024-12-13 15:39:22.597,-0.136391,6.57428,13.5434,0.074447,-0.16867,-0.0607793,0
2024-12-13 15:39:22.600,-0.177069,6.57907,13.596,0.0915507,-0.167449,-0.0736071,0
2024-12-13 15:39:22.605,-0.227318,6.55274,13.6439,0.131867,-0.165005,-0.0919325,0
2024-12-13 15:39:22.605,-0.294616,6.55274,13.6439,0.131867,-0.165005,-0.0919325,0
2024-12-13 15:39:22.607,-0.371187,6.52403,13.6511,0.150192,-0.164394,-0.100484,3
2024-12-13 15:39:22.609,-0.45015,6.51446,13.6534,0.172183,-0.169281,-0.103539,0
2024-12-13 15:39:22.612,-0.52672,6.52164,13.6367,0.190508,-0.171724,-0.109036,0
2024-12-13 15:39:22.614,-0.598505,6.50967,13.596,0.214942,-0.171724,-0.110869,0
2024-12-13 15:39:22.616,-0.675075,6.49771,13.5553,0.232046,-0.176,-0.11209,0
2024-12-13 15:39:22.619,-0.74686,6.5025,13.5027,0.252814,-0.178444,-0.11209,0
2024-12-13 15:39:22.621,-0.80668,6.49532,13.4357,0.271751,-0.18272,-0.109036,0
2024-12-13 15:39:22.623,-0.876371,6.47139,13.3472,0.287022,-0.191882,-0.105371,0
2024-12-13 15:39:22.626,-0.945763,6.45703,13.2538,0.298628,-0.199823,-0.0992627,0
2024-12-13 15:39:22.628,-1.00798,6.4328,13.1698,0.311456,-0.21204,-0.0937651,0
2024-12-13 15:39:22.630,-1.06062,6.39213,13.0502,0.320618,-0.224257,-0.0864349,0
2024-12-13 15:39:22.633,-1.1013,6.37538,12.897,0.324894,-0.237696,-0.0803264,0
2024-12-13 15:39:22.635,-1.11565,6.35145,12.7487,0.32917,-0.248691,-0.0729962,0
2024-12-13 15:39:22.637,-1.11326,6.31077,12.6024,0.326116,-0.258465,-0.0656661,0
2024-12-13 15:39:22.640,-1.0989,6.27009,12.4612,0.316953,-0.268238,-0.0577251,0
2024-12-13 15:39:22.642,-1.08694,6.21745,12.3009,0.316953,-0.268238,-0.0577251,0
2024-12-13 15:39:22.645,-1.05344,6.15763,12.1502,0.287022,-0.284731,-0.0430647,0
2024-12-13 15:39:22.647,-0.996012,6.09781,12.0206,0.266253,-0.290229,-0.0393996,0
2024-12-13 15:39:22.649,-0.933799,6.03799,11.9106,0.237543,-0.291451,-0.0357346,0
2024-12-13 15:39:22.654,-0.8668,5.95903,11.8077,0.171572,-0.287175,-0.0351237,0
2024-12-13 15:39:22.654,-0.777966,5.87019,11.7168,0.171572,-0.287175,-0.0351237,0
2024-12-13 15:39:22.656,-0.679861,5.77687,11.6785,0.132477,-0.278012,-0.038178,0
2024-12-13 15:39:22.659,-0.600898,5.68116,11.6785,0.0891073,-0.265184,-0.0412322,0
2024-12-13 15:39:22.661,-0.512363,5.57348,11.7024,0.0451263,-0.251135,-0.0479515,0
2024-12-13 15:39:22.663,-0.407079,5.43948,11.7646,0.00297788,-0.231587,-0.0552817,0
2024-12-13 15:39:22.668,-0.239282,5.12573,12.0254,-0.0837624,-0.190661,-0.0760505,0
2024-12-13 15:39:22.668,-0.239282,5.12573,12.0254,-0.0837624,-0.190661,-0.0760505,0
2024-12-13 15:39:22.670,-0.172283,4.9678,12.198,-0.123468,-0.166838,-0.0894891,0
2024-12-13 15:39:22.673,-0.11007,4.79791,12.4014,-0.157675,-0.141793,-0.102317,0
2024-12-13 15:39:22.675,-0.0598206,4.61576,12.6048,-0.187606,-0.113083,-0.113923,0
2024-12-13 15:39:22.678,-0.0334995,4.41236,12.8061,-0.212651,-0.081319,-0.126751,0
2024-12-13 15:39:22.680,-0.0239282,4.19671,12.9975,-0.230366,-0.0501658,-0.141411,0
2024-12-13 15:39:22.682,-0.0191426,3.97897,13.1674,-0.244415,-0.0184018,-0.156071,0
2024-12-13 15:39:22.685,-0.0143569,3.75404,13.3352,-0.252967,0.0121406,-0.170121,0
2024-12-13 15:39:22.687,-0.0191426,3.51446,13.4716,-0.2548,0.0396287,-0.185392,0
2024-12-13 15:39:22.689,-0.0478565,3.29671,13.6271,-0.252356,0.0652843,-0.200663,0
2024-12-13 15:39:22.692,-0.0957129,3.09332,13.8093,-0.242583,0.0909399,-0.214102,0
2024-12-13 15:39:22.694,-0.148355,2.88485,13.9768,-0.22609,0.117206,-0.22693,0
2024-12-13 15:39:22.696,-0.208176,2.68146,14.1227,-0.196158,0.140419,-0.238536,0
2024-12-13 15:39:22.699,-0.292223,2.49212,14.2304,-0.165005,0.16302,-0.247699,0
2024-12-13 15:39:22.701,-0.383151,2.30788,14.3288,-0.121635,0.183178,-0.25564,0
2024-12-13 15:39:22.703,-0.462114,2.12602,14.415,-0.0721563,0.200282,-0.262359,0
2024-12-13 15:39:22.706,-0.541077,1.95583,14.4748,-0.0147367,0.214331,-0.267857,0
2024-12-13 15:39:22.708,-0.62004,1.78834,14.4915,0.0475697,0.228381,-0.272132,0
2024-12-13 15:39:22.711,-0.696611,1.6328,14.4676,0.117817,0.240597,-0.276408,0
2024-12-13 15:39:22.715,-0.768395,1.37169,14.3022,0.274805,0.26381,-0.275187,0
2024-12-13 15:39:22.715,-0.82343,1.37169,14.3022,0.274805,0.26381,-0.275187,0
2024-12-13 15:39:22.718,-0.871586,1.27358,14.1586,0.354215,0.274805,-0.272132,0
2024-12-13 15:39:22.720,-0.897907,1.18983,14.0055,0.436756,0.277248,-0.267246,0
2024-12-13 15:39:22.722,-0.893121,1.11565,13.8021,0.52655,0.276027,-0.266635,0
2024-12-13 15:39:22.725,-0.893121,1.06301,13.5793,0.616345,0.270529,-0.26297,0
2024-12-13 15:39:22.727,-0.919442,1.02233,13.3376,0.707361,0.265031,-0.258083,0
2024-12-13 15:39:22.729,-0.969691,1.0008,13.0765,0.798377,0.260145,-0.252585,0
2024-12-13 15:39:22.732,-1.04148,1.00319,12.7606,0.887561,0.255258,-0.246477,0
2024-12-13 15:39:22.734,-1.12044,1.01755,12.411,0.974301,0.24976,-0.236092,0
2024-12-13 15:39:22.739,-1.19462,1.03669,12.047,1.13251,0.228381,-0.216545,0
2024-12-13 15:39:22.739,-1.27597,1.06062,11.6617,1.13251,0.228381,-0.216545,0
2024-12-13 15:39:22.741,-1.33579,1.06301,11.2522,1.20337,0.210055,-0.206772,0
2024-12-13 15:39:22.743,-1.39083,1.07258,10.8141,1.26445,0.186843,-0.195166,0
2024-12-13 15:39:22.746,-1.46052,1.08933,10.3953,1.32187,0.159966,-0.18356,0
2024-12-13 15:39:22.748,-1.50838,1.1013,9.98585,1.37135,0.128812,-0.171953,0
2024-12-13 15:39:22.751,-1.55384,1.1324,9.57877,1.41228,0.0933833,-0.157293,0
2024-12-13 15:39:22.753,-1.60409,1.1659,9.18605,1.44526,0.0555107,-0.143244,0
2024-12-13 15:39:22.758,-1.69502,1.24726,8.41526,1.47459,0.0158057,-0.128583,0
2024-12-13 15:39:22.760,-1.75723,1.28554,8.07039,1.51673,-0.0660479,-0.0955976,0
2024-12-13 15:39:22.760,-1.75723,1.28554,8.07039,1.51673,-0.0660479,-0.0955976,0
2024-12-13 15:39:22.762,-1.80269,1.32144,7.74736,1.52956,-0.106364,-0.0754396,0
2024-12-13 15:39:22.765,-1.8338,1.37647,7.40728,1.5375,-0.145458,-0.0565034,0
2024-12-13 15:39:22.767,-1.8338,1.4342,7.0675,1.54056,-0.18272,-0.0357346,0
2024-12-13 15:39:22.769,-1.81226,1.48923,6.75613,1.53811,-0.220592,-0.0143549,0
2024-12-13 15:39:22.774,-1.75723,1.57298,6.17677,1.51001,-0.297559,0.0296261,0
2024-12-13 15:39:22.774,-1.75723,1.57298,6.17677,1.51001,-0.297559,0.0296261,0
2024-12-13 15:39:22.776,-1.70698,1.62802,5.92313,1.49169,-0.331156,0.0497841,0
2024-12-13 15:39:22.779,-1.64955,1.69262,5.69073,1.46787,-0.36353,0.0717745,0
2024-12-13 15:39:22.781,-1.58255,1.75484,5.47059,1.43671,-0.392851,0.0962084,0
2024-12-13 15:39:22.784,-1.50359,1.80269,5.28126,1.40617,-0.419118,0.120031,0
2024-12-13 15:39:22.786,-1.41266,1.85773,5.11615,1.37135,-0.44233,0.140266,0
2024-12-13 15:39:22.788,-1.29512,1.92951,4.97737,1.33409,-0.461877,0.162867,0
2024-12-13 15:39:22.791,-1.18026,2.00638,4.86969,1.295,-0.476537,0.184247,0
2024-12-13 15:39:22.793,-1.0654,2.09492,4.75454,1.25407,-0.484478,0.206848,0
2024-12-13 15:39:22.795,-0.950549,2.18106,4.65404,1.21131,-0.490587,0.227617,0
2024-12-13 15:39:22.798,-0.854836,2.29113,4.5679,1.16855,-0.490587,0.245942,0
2024-12-13 15:39:22.800,-0.751645,2.40838,4.50808,1.12152,-0.487532,0.264879,0
2024-12-13 15:39:22.802,-0.62004,2.48973,4.47458,1.07692,-0.482035,0.283204,0
2024-12-13 15:39:22.805,-0.502792,2.55703,4.43629,1.03355,-0.477148,0.302751,0
2024-12-13 15:39:22.807,-0.385544,2.63121,4.41715,0.989573,-0.472872,0.319244,0
2024-12-13 15:39:22.809,-0.244068,2.7006,4.42433,0.941316,-0.466153,0.333904,0
2024-12-13 15:39:22.812,-0.107677,2.75563,4.42911,0.896724,-0.455768,0.347343,0
2024-12-13 15:39:22.814,0.0239282,2.81545,4.44347,0.853354,-0.44966,0.360782,0
2024-12-13 15:39:22.816,0.153141,2.88006,4.47219,0.806929,-0.433167,0.371777,0
2024-12-13 15:39:22.819,0.282652,2.9327,4.50568,0.762337,-0.417285,0.379718,0
2024-12-13 15:39:22.824,0.519542,3.03799,4.57508,0.67071,-0.375137,0.393157,0
2024-12-13 15:39:22.824,0.519542,3.03799,4.57508,0.67071,-0.375137,0.393157,0
2024-12-13 15:39:22.826,0.624826,3.09571,4.61097,0.624286,-0.346427,0.398654,0
2024-12-13 15:39:22.828,0.727717,3.15793,4.64208,0.57664,-0.315884,0.40293,0
2024-12-13 15:39:22.833,0.876371,3.29193,4.71625,0.529605,-0.28412,0.405374,0
2024-12-13 15:39:22.835,0.950549,3.3661,4.75693,0.439199,-0.213262,0.409649,0
2024-12-13 15:39:22.835,0.950549,3.3661,4.75693,0.439199,-0.213262,0.409649,0
2024-12-13 15:39:22.838,1.01994,3.44507,4.82902,0.393996,-0.176611,0.411482,0
2024-12-13 15:39:22.840,1.08455,3.52403,4.87926,0.346885,-0.13935,0.411482,0
2024-12-13 15:39:22.842,1.14197,3.6006,4.91276,0.302904,-0.102699,0.411482,0
2024-12-13 15:39:22.845,1.18983,3.65593,4.9678,0.258923,-0.0684913,0.409039,0
2024-12-13 15:39:22.847,1.24247,3.71815,5.02044,0.214942,-0.0324513,0.406595,0
2024-12-13 15:39:22.849,1.27119,3.78754,5.07308,0.17035,0.00175619,0.404763,0
2024-12-13 15:39:22.852,1.2999,3.82822,5.14008,0.12698,0.0292443,0.397433,0
2024-12-13 15:39:22.854,1.34536,3.85932,5.2023,0.0872748,0.0542891,0.38827,0
2024-12-13 15:39:22.857,1.36211,3.89761,5.27169,0.046348,0.074447,0.380329,0
2024-12-13 15:39:22.859,1.36451,3.90957,5.37009,0.00603212,0.0933833,0.367501,0
2024-12-13 15:39:22.861,1.35972,3.92632,5.49452,-0.0318404,0.107433,0.353451,0
2024-12-13 15:39:22.864,1.34536,3.93111,5.61655,-0.0678804,0.119039,0.336959,0
2024-12-13 15:39:22.866,1.32861,3.91197,5.75773,-0.0990336,0.128812,0.318022,0
2024-12-13 15:39:22.868,1.29512,3.89282,5.91596,-0.128354,0.136143,0.299697,0
2024-12-13 15:39:22.871,1.24247,3.86172,6.09063,-0.152177,0.141029,0.279539,0
2024-12-13 15:39:22.873,1.17547,3.80907,6.28684,-0.171724,0.144084,0.25877,0
2024-12-13 15:39:22.875,1.1013,3.7684,6.47378,-0.186996,0.147138,0.237391,0
2024-12-13 15:39:22.878,1.00798,3.71815,6.65085,-0.195547,0.150192,0.219065,0
2024-12-13 15:39:22.880,0.912264,3.65593,6.82553,-0.199213,0.153857,0.200129,0
2024-12-13 15:39:22.882,0.809073,3.60778,6.98106,-0.199823,0.158133,0.181803,0
2024-12-13 15:39:22.885,0.701396,3.53839,7.12254,-0.194937,0.162409,0.167143,0
2024-12-13 15:39:22.887,0.593719,3.4666,7.25175,-0.194937,0.162409,0.167143,0
2024-12-13 15:39:22.890,0.488435,3.41875,7.35464,-0.17539,0.165463,0.137822,0
2024-12-13 15:39:22.892,0.411865,3.36371,7.4336,-0.159507,0.167907,0.127972,0
2024-12-13 15:39:22.894,0.335294,3.31107,7.5006,-0.143625,0.169739,0.118199,0
2024-12-13 15:39:22.897,0.256032,3.26082,7.55085,-0.124078,0.169128,0.110258,0
2024-12-13 15:39:22.899,0.18664,3.201,7.58226,-0.105142,0.167296,0.102317,0
2024-12-13 15:39:22.901,0.122034,3.14357,7.58465,-0.085595,0.169739,0.0949868,0
2024-12-13 15:39:22.904,0.066999,3.11246,7.57239,-0.0697129,0.169739,0.0894891,0
2024-12-13 15:39:22.906,0.0215354,3.08106,7.54607,-0.0465007,0.168517,0.0870457,0
2024-12-13 15:39:22.908,-0.0334995,3.04995,7.49582,-0.029397,0.167907,0.0839915,0
2024-12-13 15:39:22.911,-0.0909273,3.03559,7.42882,-0.013515,0.164242,0.0846023,0
2024-12-13 15:39:22.913,-0.133998,3.02363,7.36421,0.00297788,0.159355,0.0864349,0
2024-12-13 15:39:22.915,-0.179462,3.01406,7.28046,0.0133623,0.156911,0.0882674,0
2024-12-13 15:39:22.918,-0.217747,3.00449,7.168,0.0261901,0.151414,0.0931542,0
2024-12-13 15:39:22.920,-0.248854,2.9997,7.0675,0.0347419,0.145305,0.0992627,0
2024-12-13 15:39:22.922,-0.277567,2.99731,6.98585,0.0414613,0.138586,0.10476,0
2024-12-13 15:39:22.925,-0.285045,3.0021,6.89013,0.0445155,0.133088,0.11209,0
2024-12-13 15:39:22.927,-0.297009,3.00688,6.78963,0.0475697,0.126369,0.11881,0
2024-12-13 15:39:22.930,-0.308973,3.00688,6.72024,0.0457372,0.11965,0.129805,0
2024-12-13 15:39:22.932,-0.318545,3.0021,6.65564,0.0451263,0.11232,0.134157,0
2024-12-13 15:39:22.934,-0.337687,3.00449,6.56949,0.0396287,0.108654,0.142098,0
2024-12-13 15:39:22.937,-0.344866,3.03559,6.5001,0.0359636,0.1056,0.152483,0
2024-12-13 15:39:22.939,-0.35683,3.05234,6.4352,0.0322986,0.107433,0.159813,0
2024-12-13 15:39:22.944,-0.371187,3.09811,6.32752,0.0194708,0.116595,0.176917,0
2024-12-13 15:39:22.944,-0.371187,3.09811,6.32752,0.0194708,0.116595,0.176917,0
2024-12-13 15:39:22.946,-0.383151,3.12682,6.28684,0.010308,0.120261,0.182414,0
2024-12-13 15:39:22.948,-0.373579,3.16271,6.25334,-7.63559e-05,0.125147,0.188523,0
2024-12-13 15:39:22.951,-0.35683,3.18903,6.23659,-0.00984991,0.131256,0.195853,0
2024-12-13 15:39:22.953,-0.342473,3.24168,6.21027,-0.021456,0.139197,0.203794,0
2024-12-13 15:39:22.955,-0.32333,3.29193,6.19113,-0.029397,0.144084,0.209902,0
2024-12-13 15:39:22.960,-0.272782,3.34218,6.18395,-0.0452791,0.150803,0.218454,0
2024-12-13 15:39:22.960,-0.272782,3.34218,6.18395,-0.0452791,0.150803,0.218454,0
2024-12-13 15:39:22.965,-0.198604,3.4331,6.19592,-0.0629936,0.153857,0.229449,0
2024-12-13 15:39:22.965,-0.198604,3.4331,6.19592,-0.0629936,0.153857,0.229449,0
2024-12-13 15:39:22.967,-0.174676,3.47378,6.23181,-0.0697129,0.149581,0.231893,0
2024-12-13 15:39:22.971,-0.12682,3.51446,6.2677,-0.0800973,0.142251,0.238001,0
2024-12-13 15:39:22.972,-0.081356,3.53121,6.27488,-0.0800973,0.142251,0.238001,0
2024-12-13 15:39:22.974,-0.0550349,3.56471,6.29881,-0.085595,0.136143,0.241666,0
2024-12-13 15:39:22.977,-0.0287139,3.60778,6.32752,-0.0868167,0.133088,0.24411,0
2024-12-13 15:39:22.979,0.00957129,3.62931,6.34906,-0.0898709,0.128202,0.246553,0
2024-12-13 15:39:22.981,0.0311067,3.65833,6.36102,-0.0910926,0.120871,0.247775,0
2024-12-13 15:39:22.984,0.0454636,3.699,6.37298,-0.0917034,0.117206,0.250218,0
2024-12-13 15:39:22.988,0.0598206,3.78036,6.42084,-0.0898709,0.11293,0.253273,0
2024-12-13 15:39:22.988,0.0598206,3.78036,6.42084,-0.0898709,0.11293,0.253273,0
2024-12-13 15:39:22.993,0.0646062,3.87129,6.42563,-0.0868167,0.113541,0.256938,0
2024-12-13 15:39:22.993,0.0646062,3.87129,6.42563,-0.0868167,0.113541,0.256938,0
2024-12-13 15:39:22.995,0.0574277,3.92632,6.42323,-0.0837624,0.114152,0.25877,0
2024-12-13 15:39:22.999,0.0598206,3.98614,6.41605,-0.0800973,0.111098,0.261824,0
2024-12-13 15:39:23.000,0.0598206,4.02204,6.41366,-0.0800973,0.111098,0.261824,0
2024-12-13 15:39:23.003,0.0358923,4.07946,6.4352,-0.0764323,0.109265,0.264268,0
2024-12-13 15:39:23.005,-0.00239282,4.15603,6.4328,-0.0721563,0.104989,0.269155,0
2024-12-13 15:39:23.007,-0.0382852,4.2329,6.43041,-0.0703238,0.100713,0.274041,0
2024-12-13 15:39:23.010,-0.0765703,4.31665,6.43041,-0.0691021,0.0927724,0.279539,0
2024-12-13 15:39:23.012,-0.124427,4.39083,6.40888,-0.0666587,0.0909399,0.286258,0
2024-12-13 15:39:23.014,-0.181855,4.44826,6.38495,-0.0660479,0.0891073,0.293588,0
2024-12-13 15:39:23.017,-0.234497,4.50329,6.38256,-0.0629936,0.086664,0.303362,0
2024-12-13 15:39:23.019,-0.282652,4.55354,6.38016,-0.0636045,0.082388,0.315579,0
2024-12-13 15:39:23.024,-0.30658,4.6325,6.36341,-0.0599394,0.0726145,0.339402,0
2024-12-13 15:39:23.024,-0.316152,4.6325,6.36341,-0.0599394,0.0726145,0.339402,0
2024-12-13 15:39:23.026,-0.32333,4.6684,6.34427,-0.0593285,0.0720036,0.351619,0
2024-12-13 15:39:23.028,-0.304188,4.7019,6.31556,-0.057496,0.0713928,0.363836,0
2024-12-13 15:39:23.031,-0.267996,4.733,6.29163,-0.0617719,0.0713928,0.376664,0
2024-12-13 15:39:23.033,-0.234497,4.77398,6.2677,-0.0672696,0.0695602,0.389491,0
2024-12-13 15:39:23.036,-0.215354,4.81466,6.24856,-0.0721563,0.0701711,0.400487,0
2024-12-13 15:39:23.038,-0.193819,4.86491,6.23899,-0.0782648,0.0701711,0.413315,0
2024-12-13 15:39:23.040,-0.181855,4.92234,6.22463,-0.0849841,0.0683385,0.428586,0
2024-12-13 15:39:23.043,-0.16989,4.96541,6.21506,-0.0929251,0.066506,0.440803,0
2024-12-13 15:39:23.045,-0.138784,5.0013,6.19831,-0.104531,0.0597867,0.454852,0
2024-12-13 15:39:23.047,-0.102891,5.05155,6.19592,-0.118581,0.0512348,0.465237,0
2024-12-13 15:39:23.050,-0.066999,5.09223,6.21984,-0.13263,0.042683,0.479286,0
2024-12-13 15:39:23.052,-0.00717847,5.14248,6.23899,-0.148512,0.0255792,0.48967,0
2024-12-13 15:39:23.054,0.0598206,5.2023,6.27488,-0.166227,0.00725381,0.501277,0
2024-12-13 15:39:23.057,0.138784,5.25254,6.31556,-0.183941,-0.00984991,0.509828,0
2024-12-13 15:39:23.059,0.222533,5.30758,6.33948,-0.202267,-0.0281753,0.517159,0
2024-12-13 15:39:23.061,0.289831,5.36052,6.37298,-0.223036,-0.0434465,0.524489,0
2024-12-13 15:39:23.064,0.368794,5.40838,6.44477,-0.246859,-0.0593285,0.531208,0
2024-12-13 15:39:23.066,0.459721,5.45145,6.53121,-0.246859,-0.0593285,0.531208,0
2024-12-13 15:39:23.068,0.553041,5.51366,6.62692,-0.290229,-0.0843733,0.536095,0
2024-12-13 15:39:23.071,0.655932,5.5663,6.73221,-0.31283,-0.0953685,0.538538,0
2024-12-13 15:39:23.073,0.766002,5.59741,6.83749,-0.336653,-0.106975,0.537317,0
2024-12-13 15:39:23.076,0.876371,5.64048,6.95235,-0.361087,-0.117359,0.533041,0
2024-12-13 15:39:23.078,0.979263,5.68116,7.06272,-0.384299,-0.124689,0.527543,0
2024-12-13 15:39:23.080,1.08455,5.7003,7.18236,-0.401403,-0.128965,0.51838,0
2024-12-13 15:39:23.083,1.17308,5.71466,7.30918,-0.422783,-0.129576,0.510439,0
2024-12-13 15:39:23.085,1.25204,5.74337,7.4336,-0.444773,-0.127743,0.500055,0
2024-12-13 15:39:23.087,1.32383,5.77926,7.55803,-0.460655,-0.127743,0.487227,0
2024-12-13 15:39:23.090,1.38604,5.8008,7.68036,-0.477759,-0.125911,0.472567,0
2024-12-13 15:39:23.093,1.44855,5.80798,7.81436,-0.504636,-0.117359,0.43897,0
2024-12-13 15:39:23.094,1.50598,5.82234,7.96272,-0.504636,-0.117359,0.43897,0
2024-12-13 15:39:23.097,1.54188,5.85344,8.11346,-0.517464,-0.111251,0.420645,0
2024-12-13 15:39:23.099,1.57298,5.87737,8.25733,-0.530292,-0.105753,0.402319,0
2024-12-13 15:39:23.101,1.6017,5.88694,8.39133,-0.530292,-0.105753,0.402319,0
2024-12-13 15:39:23.104,1.61845,5.89442,8.53969,-0.545563,-0.0959794,0.363225,0
2024-12-13 15:39:23.106,1.62562,5.89681,8.67129,-0.55045,-0.0892601,0.346732,0
2024-12-13 15:39:23.109,1.61605,5.90878,8.79362,-0.55045,-0.0831516,0.330239,0
2024-12-13 15:39:23.111,1.59691,5.89921,8.92762,-0.551061,-0.0770431,0.312525,0
2024-12-13 15:39:23.113,1.57777,5.86541,9.06641,-0.55045,-0.073378,0.299086,0
2024-12-13 15:39:23.116,1.5682,5.85823,9.18365,-0.548617,-0.0715455,0.282593,0
2024-12-13 15:39:23.118,1.55623,5.86301,9.3012,-0.54373,-0.0721563,0.267933,0
2024-12-13 15:39:23.120,1.52991,5.85584,9.41127,-0.538844,-0.0739889,0.253883,0
2024-12-13 15:39:23.123,1.50838,5.84387,9.49023,-0.533346,-0.0758214,0.243499,0
2024-12-13 15:39:23.125,1.50598,5.82473,9.55963,-0.523572,-0.0752106,0.232504,0
2024-12-13 15:39:23.127,1.50359,5.78644,9.6362,-0.517464,-0.0745997,0.22273,0
2024-12-13 15:39:23.130,1.47488,5.75294,9.71994,-0.510134,-0.0715455,0.214178,0
2024-12-13 15:39:23.132,1.45573,5.7338,9.77977,-0.500971,-0.0672696,0.204405,0
2024-12-13 15:39:23.134,1.45095,5.69073,9.82074,-0.491198,-0.0611611,0.195242,0
2024-12-13 15:39:23.137,1.44138,5.64527,9.86621,-0.482646,-0.0526092,0.18669,0
2024-12-13 15:39:23.139,1.41745,5.60937,9.93081,-0.472872,-0.0428357,0.17936,0
2024-12-13 15:39:23.142,1.37886,5.58066,9.98824,-0.462488,-0.0324513,0.17203,0
2024-12-13 15:39:23.144,1.34536,5.55434,10.0289,-0.451492,-0.0208452,0.164089,0
2024-12-13 15:39:23.146,1.31186,5.52323,10.0792,-0.439886,-0.00862822,0.156148,0
2024-12-13 15:39:23.149,1.28076,5.5017,10.1294,-0.427059,0.00419957,0.150039,0
2024-12-13 15:39:23.151,1.24247,5.48255,10.1629,-0.41362,0.014584,0.143931,0
2024-12-13 15:39:23.153,1.20897,5.45384,10.2108,-0.400181,0.0255792,0.137212,0
2024-12-13 15:39:23.156,1.18026,5.42273,10.2586,-0.386132,0.0371853,0.131638,0
2024-12-13 15:39:23.158,1.15872,5.42034,10.3065,-0.371471,0.0481806,0.126751,0
2024-12-13 15:39:23.160,1.12762,5.42034,10.3615,-0.358033,0.0561216,0.123697,0
2024-12-13 15:39:23.163,1.07976,5.42034,10.4025,-0.337875,0.0646735,0.120031,0
2024-12-13 15:39:23.165,1.0319,5.41556,10.4264,-0.323215,0.0720036,0.117588,0
2024-12-13 15:39:23.167,0.979263,5.41795,10.4504,-0.306722,0.0762796,0.115756,0
2024-12-13 15:39:23.171,0.938585,5.42034,10.4791,-0.26946,0.0762796,0.113312,0
2024-12-13 15:39:23.172,0.9003,5.43231,10.5221,-0.26946,0.0762796,0.113312,0
2024-12-13 15:39:23.174,0.857229,5.45384,10.57,-0.251135,0.0738362,0.112701,0
2024-12-13 15:39:23.177,0.835394,5.46341,10.5987,-0.229144,0.0671168,0.113312,0
2024-12-13 15:39:23.179,0.813859,5.47777,10.6442,-0.208375,0.0579541,0.112701,0
2024-12-13 15:39:23.182,0.789931,5.50409,10.6801,-0.208375,0.0579541,0.112701,0
2024-12-13 15:39:23.184,0.780359,5.5352,10.692,-0.162562,0.0237467,0.115756,0
2024-12-13 15:39:23.186,0.766002,5.5687,10.7088,-0.138739,0.00664296,0.116977,0
2024-12-13 15:39:23.189,0.742074,5.61895,10.7351,-0.113083,-0.0159584,0.11881,0
2024-12-13 15:39:23.191,0.73011,5.65484,10.7662,-0.0868167,-0.0385597,0.122475,0
2024-12-13 15:39:23.193,0.734896,5.70269,10.771,-0.0617719,-0.0629936,0.124307,0
2024-12-13 15:39:23.196,0.761217,5.76012,10.7614,-0.0355055,-0.085595,0.126751,0
2024-12-13 15:39:23.198,0.797109,5.81276,10.7495,-0.0104608,-0.109418,0.125529,0
2024-12-13 15:39:23.200,0.82343,5.85344,10.7303,0.0127514,-0.131409,0.127972,0
2024-12-13 15:39:23.203,0.842872,5.89681,10.716,0.0371853,-0.155842,0.129805,0
2024-12-13 15:39:23.205,0.869193,5.94467,10.6825,0.0616192,-0.172946,0.130416,0
2024-12-13 15:39:23.208,0.897907,5.97817,10.6298,0.0836097,-0.193104,0.130416,0
2024-12-13 15:39:23.210,0.890728,5.99253,10.5939,0.102546,-0.209597,0.128583,0
2024-12-13 15:39:23.212,0.854836,5.9997,10.5628,0.124536,-0.223646,0.127972,0
2024-12-13 15:39:23.215,0.816252,6.00449,10.5102,0.139808,-0.232809,0.126751,0
2024-12-13 15:39:23.217,0.799502,6.01645,10.4839,0.156911,-0.237696,0.127972,0
2024-12-13 15:39:23.219,0.794716,6.04995,10.4623,0.172793,-0.247469,0.128583,0
2024-12-13 15:39:23.222,0.797109,6.08824,10.4264,0.186232,-0.260297,0.129194,0
2024-12-13 15:39:23.224,0.813859,6.11217,10.4025,0.194173,-0.275568,0.129194,0
2024-12-13 15:39:23.226,0.842872,6.15284,10.3857,0.205168,-0.291451,0.132859,0
2024-12-13 15:39:23.229,0.876371,6.19592,10.3807,0.21372,-0.306111,0.135379,0
2024-12-13 15:39:23.231,0.907478,6.23181,10.4049,0.216164,-0.325047,0.140266,0
2024-12-13 15:39:23.233,0.940978,6.27249,10.4527,0.219218,-0.346427,0.142709,0
2024-12-13 15:39:23.236,0.986441,6.32273,10.5006,0.223494,-0.369028,0.144542,0
2024-12-13 15:39:23.238,1.04626,6.36341,10.5676,0.224715,-0.392851,0.146985,0
2024-12-13 15:39:23.240,1.11326,6.38495,10.6633,0.225326,-0.417896,0.149429,0
2024-12-13 15:39:23.243,1.18505,6.43041,10.7853,0.228991,-0.441719,0.15065,0
2024-12-13 15:39:23.245,1.25444,6.4666,10.9002,0.228991,-0.46432,0.15065,0
2024-12-13 15:39:23.247,1.3334,6.50728,11.0106,0.233878,-0.483867,0.148818,0
2024-12-13 15:39:23.250,1.41027,6.55514,11.1589,0.236932,-0.504025,0.145763,0
2024-12-13 15:39:23.252,1.48205,6.59582,11.3169,0.245484,-0.517464,0.14332,0
2024-12-13 15:39:23.255,1.54188,6.64128,11.458,0.253425,-0.529681,0.139044,0
2024-12-13 15:39:23.257,1.60887,6.66999,11.5995,0.266253,-0.535179,0.132859,0
2024-12-13 15:39:23.259,1.68544,6.69153,11.7359,0.280303,-0.539454,0.125529,0
2024-12-13 15:39:23.262,1.73569,6.71306,11.8555,0.296185,-0.537622,0.119421,0
2024-12-13 15:39:23.264,1.77398,6.74178,11.9848,0.318786,-0.533346,0.11209,0
2024-12-13 15:39:23.266,1.82662,6.77767,12.1095,0.338333,-0.526627,0.102317,0
2024-12-13 15:39:23.269,1.87448,6.80399,12.2363,0.360934,-0.519907,0.0931542,0
2024-12-13 15:39:23.271,1.90798,6.82792,12.3679,0.384834,-0.516242,0.0791047,0
2024-12-13 15:39:23.273,1.93908,6.85185,12.4564,0.409879,-0.511356,0.0656661,0
2024-12-13 15:39:23.276,1.95583,6.87338,12.5234,0.434923,-0.510134,0.0503949,0
2024-12-13 15:39:23.278,1.96062,6.90688,12.5928,0.460579,-0.512577,0.0363454,0
2024-12-13 15:39:23.280,1.95823,6.95713,12.6338,0.486234,-0.513188,0.0198525,0
2024-12-13 15:39:23.283,1.93669,6.99542,12.6386,0.509447,-0.511966,0.0051922,0
2024-12-13 15:39:23.285,1.89841,7.03879,12.629,0.53327,-0.509523,-0.0106898,0
2024-12-13 15:39:23.288,1.85055,7.09861,12.6144,0.55526,-0.502804,-0.0265719,0
2024-12-13 15:39:23.290,1.78834,7.14886,12.5833,0.574196,-0.492419,-0.0400105,0
2024-12-13 15:39:23.292,1.70937,7.20628,12.5258,0.590689,-0.482035,-0.0558925,0
2024-12-13 15:39:23.295,1.62323,7.25893,12.4517,0.607182,-0.468596,-0.0687203,0
2024-12-13 15:39:23.297,1.52513,7.30439,12.3727,0.620621,-0.455158,-0.0827698,0
2024-12-13 15:39:23.299,1.42463,7.36182,12.2698,0.628562,-0.444162,-0.0974301,0
2024-12-13 15:39:23.302,1.32861,7.41446,12.1693,0.633449,-0.431335,-0.110869,0
2024-12-13 15:39:23.304,1.21376,7.47907,12.0518,0.631005,-0.420339,-0.120642,0
2024-12-13 15:39:23.306,1.09173,7.54846,11.9034,0.629784,-0.408122,-0.131638,0
2024-12-13 15:39:23.309,0.988834,7.61815,11.7574,0.621232,-0.395295,-0.138968,0
2024-12-13 15:39:23.311,0.876371,7.69472,11.6306,0.621232,-0.395295,-0.138968,0
2024-12-13 15:39:23.313,0.76361,7.76172,11.5134,0.588857,-0.371471,-0.151185,0
2024-12-13 15:39:23.316,0.660718,7.81436,11.3862,0.565034,-0.358644,-0.156682,0
2024-12-13 15:39:23.318,0.576969,7.86222,11.2857,0.536324,-0.349481,-0.158515,0
2024-12-13 15:39:23.321,0.50997,7.90289,11.2116,0.506392,-0.340318,-0.16218,0
2024-12-13 15:39:23.323,0.469292,7.92204,11.1254,0.470352,-0.333599,-0.163402,0
2024-12-13 15:39:23.325,0.454935,7.92922,11.0871,0.428815,-0.32688,-0.165845,0
2024-12-13 15:39:23.328,0.459721,7.96032,11.068,0.385445,-0.321993,-0.167067,0
2024-12-13 15:39:23.330,0.4669,7.98904,11.0178,0.337722,-0.317717,-0.168899,0
2024-12-13 15:39:23.332,0.459721,8.01775,10.9914,0.288854,-0.307333,-0.171953,0
2024-12-13 15:39:23.335,0.447757,8.06561,11.0106,0.241208,-0.295726,-0.172564,0
2024-12-13 15:39:23.337,0.459721,8.08236,11.0441,0.191119,-0.280455,-0.173786,0
2024-12-13 15:39:23.340,0.490828,8.06561,11.1015,0.139808,-0.265184,-0.174397,0
2024-12-13 15:39:23.342,0.536291,8.03689,11.1852,0.0872748,-0.249302,-0.174397,0
2024-12-13 15:39:23.344,0.617647,7.98425,11.2857,0.0390179,-0.236474,-0.174397,0
2024-12-13 15:39:23.346,0.739681,7.88136,11.4221,-0.00862822,-0.227922,-0.178673,0
2024-12-13 15:39:23.349,0.881157,7.76172,11.5851,-0.0587177,-0.221814,-0.181727,0
2024-12-13 15:39:23.351,1.01994,7.63729,11.7598,-0.100866,-0.218149,-0.187836,0
2024-12-13 15:39:23.353,1.15394,7.49582,11.9489,-0.142404,-0.21876,-0.196387,0
2024-12-13 15:39:23.356,1.29033,7.36421,12.1669,-0.179665,-0.21876,-0.20555,0
2024-12-13 15:39:23.359,1.4342,7.24218,12.4086,-0.241361,-0.218149,-0.223876,0
2024-12-13 15:39:23.361,1.58734,7.11296,12.6673,-0.241361,-0.218149,-0.223876,0
2024-12-13 15:39:23.363,1.76919,6.97867,12.9186,-0.261519,-0.217538,-0.235482,0
2024-12-13 15:39:23.365,1.96301,6.84228,13.1698,-0.281066,-0.21143,-0.245255,0
2024-12-13 15:39:23.368,2.15234,6.71306,13.4309,-0.293283,-0.202878,-0.258694,0
2024-12-13 15:39:23.370,2.3677,6.57907,13.7133,-0.29817,-0.188828,-0.272132,0
2024-12-13 15:39:23.372,2.59532,6.44955,14.0055,-0.301224,-0.169892,-0.288014,0
2024-12-13 15:39:23.375,2.82503,6.32991,14.2759,-0.295726,-0.141182,-0.30634,0
2024-12-13 15:39:23.377,3.04517,6.18874,14.5322,-0.286564,-0.108196,-0.32772,0
2024-12-13 15:39:23.379,3.24646,6.00449,14.7739,-0.267017,-0.065437,-0.353375,0
2024-12-13 15:39:23.384,3.52403,5.62373,15.1355,-0.208986,0.0347419,-0.40713,0
2024-12-13 15:39:23.384,3.52403,5.62373,15.1355,-0.208986,0.0347419,-0.40713,0
2024-12-13 15:39:23.386,3.57906,5.41077,15.2671,-0.16867,0.0897182,-0.441337,3
2024-12-13 15:39:23.389,3.59103,5.1999,15.3437,-0.16867,0.0897182,-0.441337,0
2024-12-13 15:39:23.391,3.55035,4.96301,15.3628,-0.0691021,0.209444,-0.502422,0
2024-12-13 15:39:23.394,3.4666,4.72582,15.3509,-0.00618483,0.265031,-0.532964,0
2024-12-13 15:39:23.396,3.35653,4.49133,15.3102,0.058565,0.31451,-0.562285,0
2024-12-13 15:39:23.398,3.21057,4.26401,15.2216,0.131256,0.361545,-0.590384,0
2024-12-13 15:39:23.401,3.04038,4.05793,15.0948,0.210055,0.407359,-0.611764,0
2024-12-13 15:39:23.403,2.84417,3.88086,14.9393,0.294352,0.449507,-0.631921,0
2024-12-13 15:39:23.405,2.62403,3.73968,14.7643,0.384223,0.492267,-0.647804,0
2024-12-13 15:39:23.408,2.37248,3.63889,14.5681,0.478904,0.536858,-0.66002,0
2024-12-13 15:39:23.410,2.08295,3.56471,14.3432,0.572975,0.582672,-0.666129,0
2024-12-13 15:39:23.412,1.77398,3.49771,14.0605,0.671321,0.62482,-0.668572,0
2024-12-13 15:39:23.415,1.4677,3.43071,13.7324,0.767835,0.666969,-0.669183,0
2024-12-13 15:39:23.417,1.14915,3.37807,13.3352,0.862516,0.704918,-0.660631,0
2024-12-13 15:39:23.420,0.825823,3.32064,12.8946,0.952311,0.736682,-0.649025,0
2024-12-13 15:39:23.422,0.500399,3.2656,12.4229,1.03905,0.766613,-0.637419,0
2024-12-13 15:39:23.424,0.177069,3.21057,11.9154,1.11724,0.78616,-0.620315,0
2024-12-13 15:39:23.426,-0.136391,3.14836,11.403,1.19115,0.798377,-0.599547,0
2024-12-13 15:39:23.429,-0.452543,3.1005,10.8643,1.25529,0.806318,-0.576334,0
2024-12-13 15:39:23.431,-0.754038,3.06431,10.3161,1.31393,0.805097,-0.551901,0
2024-12-13 15:39:23.434,-1.0343,3.04038,9.76541,1.36097,0.801432,-0.52258,0
2024-12-13 15:39:23.436,-1.32144,3.00688,9.2028,1.40006,0.789825,-0.493259,0
2024-12-13 15:39:23.438,-1.57059,2.98535,8.64018,1.42999,0.775776,-0.462717,0
2024-12-13 15:39:23.443,-2.01835,3.04277,7.51735,1.46054,0.74279,-0.391859,0
2024-12-13 15:39:23.443,-2.01835,3.04277,7.51735,1.46054,0.74279,-0.391859,0
2024-12-13 15:39:23.445,-2.21695,3.08106,7.0002,1.46176,0.722632,-0.35704,0
2024-12-13 15:39:23.448,-2.36531,3.11725,6.51207,1.45259,0.703696,-0.321611,0
2024-12-13 15:39:23.450,-2.46341,3.134,6.05713,1.43305,0.683462,-0.28496,0
2024-12-13 15:39:23.452,-2.53789,3.16032,5.6668,1.408,0.656584,-0.248309,0
2024-12-13 15:39:23.455,-2.6001,3.20578,5.32194,1.37502,0.626042,-0.215935,0
2024-12-13 15:39:23.457,-2.66231,3.25843,4.99412,1.33531,0.591835,-0.181116,0
2024-12-13 15:39:23.459,-2.73171,3.32303,4.67797,1.29255,0.558238,-0.145687,0
2024-12-13 15:39:23.462,-2.77717,3.40917,4.39801,1.24063,0.524031,-0.113923,0
2024-12-13 15:39:23.464,-2.79871,3.49292,4.16561,1.18382,0.492267,-0.0803264,0
2024-12-13 15:39:23.467,-2.78674,3.54556,3.98136,1.12274,0.455616,-0.0467298,0
2024-12-13 15:39:23.469,-2.75563,3.60539,3.83779,1.06165,0.411635,-0.0161875,0
2024-12-13 15:39:23.471,-2.70299,3.67029,3.72772,0.993849,0.366432,0.0106898,0
2024-12-13 15:39:23.474,-2.61924,3.71336,3.65115,0.925434,0.318786,0.0357346,0
2024-12-13 15:39:23.476,-2.51845,3.74925,3.61735,0.859462,0.269307,0.0583359,0
2024-12-13 15:39:23.478,-2.41316,3.78036,3.61017,0.791047,0.22044,0.0784939,0
2024-12-13 15:39:23.481,-2.28873,3.79711,3.62214,0.72813,0.175848,0.0949868,0
2024-12-13 15:39:23.483,-2.14277,3.7995,3.67508,0.667656,0.133088,0.11209,0
2024-12-13 15:39:23.485,-1.98245,3.79232,3.76361,0.607793,0.0909399,0.121864,0
2024-12-13 15:39:23.488,-1.80269,3.79472,3.88086,0.555871,0.0518457,0.129194,0
2024-12-13 15:39:23.490,-1.63759,3.7684,3.97179,0.507614,0.0219141,0.129805,0
2024-12-13 15:39:23.492,-1.45334,3.75643,4.08664,0.459968,0.0109189,0.121864,0
2024-12-13 15:39:23.495,-1.24965,3.79232,4.2999,0.41843,-0.000687203,0.114534,0
2024-12-13 15:39:23.497,-1.11326,3.81865,4.54876,0.383001,-0.0257319,0.106593,0
2024-12-13 15:39:23.499,-1.00319,3.84736,4.77159,0.357269,-0.0568851,0.0992627,0
2024-12-13 15:39:23.502,-0.88355,3.88804,4.95583,0.341387,-0.0910926,0.0931542,0
2024-12-13 15:39:23.504,-0.758824,3.93589,5.10658,0.324894,-0.122857,0.0876566,0
2024-12-13 15:39:23.507,-0.632004,3.967,5.21905,0.313899,-0.157064,0.0784939,0
2024-12-13 15:39:23.509,-0.502792,3.95982,5.27887,0.30046,-0.180276,0.0693312,0
2024-12-13 15:39:23.511,-0.364008,3.95982,5.32433,0.287022,-0.196769,0.0571142,0
2024-12-13 15:39:23.514,-0.234497,3.98854,5.39881,0.274194,-0.205932,0.041843,0
2024-12-13 15:39:23.516,-0.12682,4.01964,5.49452,0.260145,-0.212651,0.025961,0
2024-12-13 15:39:23.518,-0.0311067,4.02443,5.59262,0.250371,-0.216316,0.010079,0
2024-12-13 15:39:23.521,0.0478565,4.01964,5.68355,0.24243,-0.216316,-0.0051922,0
2024-12-13 15:39:23.523,0.114855,4.03639,5.7673,0.234489,-0.214484,-0.0192417,0
2024-12-13 15:39:23.525,0.181855,4.04357,5.82473,0.223494,-0.207764,-0.0351237,0
2024-12-13 15:39:23.528,0.246461,4.03879,5.8678,0.215553,-0.19738,-0.0491732,0
2024-12-13 15:39:23.532,0.337687,4.02921,5.94467,0.195395,-0.169892,-0.0760505,0
2024-12-13 15:39:23.532,0.337687,4.02921,5.94467,0.195395,-0.169892,-0.0760505,0
2024-12-13 15:39:23.535,0.359223,4.02921,5.95663,0.1844,-0.154621,-0.0882674,0
2024-12-13 15:39:23.537,0.375972,4.03639,5.94467,0.1844,-0.154621,-0.0882674,0
2024-12-13 15:39:23.540,0.371187,4.03879,5.92313,0.157522,-0.11797,-0.112701,0
2024-12-13 15:39:23.542,0.368794,4.03879,5.90399,0.140419,-0.0941468,-0.122475,0
2024-12-13 15:39:23.544,0.375972,4.04596,5.89442,0.121482,-0.0697129,-0.130416,0
2024-12-13 15:39:23.547,0.366401,4.05075,5.87498,0.100103,-0.0428357,-0.136524,0
2024-12-13 15:39:23.549,0.364008,4.05314,5.85105,0.0768904,-0.0147367,-0.144465,0
2024-12-13 15:39:23.551,0.364008,4.0675,5.85105,0.0548999,0.0139731,-0.149352,0
2024-12-13 15:39:23.554,0.349651,4.07707,5.87258,0.0316877,0.0420721,-0.154239,0
2024-12-13 15:39:23.556,0.347258,4.08425,5.90399,0.00725381,0.0720036,-0.157293,0
2024-12-13 15:39:23.558,0.359223,4.08186,5.92792,-0.0159584,0.0964375,-0.16218,0
2024-12-13 15:39:23.561,0.373579,4.06989,5.95185,-0.0391706,0.122704,-0.165234,0
2024-12-13 15:39:23.563,0.387936,4.06032,5.97817,-0.0648262,0.147749,-0.167678,0
2024-12-13 15:39:23.565,0.390329,4.04836,6.01885,-0.0868167,0.174015,-0.16951,0
2024-12-13 15:39:23.568,0.380758,4.03879,6.07867,-0.11064,0.195395,-0.173786,0
2024-12-13 15:39:23.570,0.366401,4.03639,6.15284,-0.130798,0.216774,-0.175619,0
2024-12-13 15:39:23.573,0.359223,4.00768,6.24377,-0.149734,0.235711,-0.178673,0
2024-12-13 15:39:23.577,0.320937,3.95982,6.45464,-0.17539,0.26381,-0.182949,0
2024-12-13 15:39:23.577,0.320937,3.95982,6.45464,-0.17539,0.26381,-0.182949,0
2024-12-13 15:39:23.580,0.289831,3.9335,6.56232,-0.183941,0.274194,-0.186614,0
2024-12-13 15:39:23.582,0.246461,3.9,6.67956,-0.190661,0.282135,-0.189668,0
2024-12-13 15:39:23.584,0.184247,3.86172,6.81356,-0.190661,0.285189,-0.19089,0
2024-12-13 15:39:23.587,0.114855,3.83061,6.92363,-0.191272,0.287633,-0.188446,0
2024-12-13 15:39:23.589,0.0550349,3.78754,7.01217,-0.183941,0.293741,-0.186614,0
2024-12-13 15:39:23.591,0.00717847,3.74447,7.09143,-0.174168,0.298017,-0.185392,0
2024-12-13 15:39:23.594,-0.0502493,3.70858,7.15604,-0.161951,0.302293,-0.181116,0
2024-12-13 15:39:23.596,-0.124427,3.66551,7.20628,-0.147901,0.307791,-0.177451,0
2024-12-13 15:39:23.598,-0.191426,3.61496,7.23021,-0.133241,0.313288,-0.171953,0
2024-12-13 15:39:23.601,-0.253639,3.58864,7.25893,-0.11797,0.316953,-0.166456,0
2024-12-13 15:39:23.603,-0.308973,3.54796,7.28525,-0.101477,0.318786,-0.158515,0
2024-12-13 15:39:23.605,-0.368794,3.50967,7.2996,-0.0831516,0.319397,-0.151796,0
2024-12-13 15:39:23.608,-0.4334,3.49771,7.302,-0.0629936,0.315121,-0.143855,0
2024-12-13 15:39:23.610,-0.507577,3.49053,7.28525,-0.0428357,0.309623,-0.131638,0
2024-12-13 15:39:23.613,-0.586541,3.47617,7.25893,-0.0226777,0.307791,-0.120031,0
2024-12-13 15:39:23.615,-0.665504,3.46899,7.22782,-0.00313059,0.30046,-0.107204,0
2024-12-13 15:39:23.617,-0.732503,3.46899,7.18475,0.0133623,0.292519,-0.0925434,0
2024-12-13 15:39:23.620,-0.782752,3.45464,7.1345,0.0133623,0.292519,-0.0925434,0
2024-12-13 15:39:23.622,-0.828216,3.43071,7.06511,0.0524565,0.279692,-0.0632227,0
2024-12-13 15:39:23.624,-0.871586,3.42592,6.97388,0.0701711,0.269307,-0.0473407,0
2024-12-13 15:39:23.627,-0.919442,3.44028,6.88056,0.0884965,0.25648,-0.0308478,0
2024-12-13 15:39:23.629,-0.957727,3.45464,6.78006,0.102546,0.245484,-0.0155766,0
2024-12-13 15:39:23.631,-1.00319,3.4666,6.65564,0.102546,0.245484,-0.0155766,0
2024-12-13 15:39:23.636,-1.07019,3.47617,6.41127,0.135532,0.21372,0.0320695,0
2024-12-13 15:39:23.636,-1.07019,3.47617,6.41127,0.135532,0.21372,0.0320695,0
2024-12-13 15:39:23.638,-1.09651,3.49532,6.29163,0.139808,0.201503,0.0455081,0
2024-12-13 15:39:23.641,-1.12522,3.53121,6.17199,0.145916,0.192341,0.0577251,0
2024-12-13 15:39:23.643,-1.14437,3.57667,6.04995,0.150803,0.180124,0.0729962,0
2024-12-13 15:39:23.646,-1.15872,3.62692,5.92553,0.14836,0.17035,0.085824,0
2024-12-13 15:39:23.648,-1.16112,3.67268,5.81516,0.142251,0.161187,0.098041,0
2024-12-13 15:39:23.650,-1.1683,3.71815,5.71466,0.139197,0.150803,0.110258,0
2024-12-13 15:39:23.653,-1.18744,3.75883,5.62852,0.131867,0.138586,0.120642,0
2024-12-13 15:39:23.656,-1.18983,3.7995,5.54477,0.111709,0.117206,0.142098,0
2024-12-13 15:39:23.657,-1.18744,3.84257,5.47538,0.111709,0.117206,0.142098,0
2024-12-13 15:39:23.660,-1.18505,3.88086,5.40598,0.101324,0.106211,0.151872,0
2024-12-13 15:39:23.662,-1.17069,3.94547,5.33899,0.0909399,0.0964375,0.163478,0
2024-12-13 15:39:23.664,-1.14197,4.01486,5.2669,0.074447,0.0848314,0.175695,0
2024-12-13 15:39:23.667,-1.09412,4.06271,5.1999,0.0622301,0.0707819,0.183636,0
2024-12-13 15:39:23.669,-1.04626,4.12493,5.15205,0.0487914,0.0561216,0.191577,0
2024-12-13 15:39:23.671,-0.998405,4.19432,5.1018,0.030466,0.042683,0.199518,0
2024-12-13 15:39:23.674,-0.94337,4.2329,5.05155,0.0109189,0.0298552,0.205016,0
2024-12-13 15:39:23.676,-0.9003,4.27837,5.01087,-0.00923906,0.0188599,0.210513,0
2024-12-13 15:39:23.681,-0.780359,4.3669,4.95583,-0.0556635,-0.00129805,0.220898,0
2024-12-13 15:39:23.681,-0.780359,4.3669,4.95583,-0.0556635,-0.00129805,0.220898,0
2024-12-13 15:39:23.683,-0.720539,4.40758,4.93909,-0.077654,-0.0122933,0.223952,0
2024-12-13 15:39:23.686,-0.65354,4.44347,4.95105,-0.102699,-0.0220669,0.225174,0
2024-12-13 15:39:23.688,-0.579362,4.47697,4.98933,-0.1253,-0.0306187,0.225784,0
2024-12-13 15:39:23.690,-0.505185,4.52004,5.0348,-0.148512,-0.0410031,0.223341,0
2024-12-13 15:39:23.693,-0.409472,4.55833,5.08265,-0.169892,-0.0471116,0.220898,0
2024-12-13 15:39:23.695,-0.313759,4.59183,5.15922,-0.192493,-0.0501658,0.218454,0
2024-12-13 15:39:23.697,-0.251246,4.61336,5.23101,-0.209597,-0.0538309,0.2154,0
2024-12-13 15:39:23.700,-0.196211,4.64686,5.30758,-0.227922,-0.0538309,0.209902,0
2024-12-13 15:39:23.704,-0.0622134,4.71386,5.45384,-0.255411,-0.0458899,0.198296,0
2024-12-13 15:39:23.704,-0.0622134,4.71386,5.45384,-0.255411,-0.0458899,0.198296,0
2024-12-13 15:39:23.707,-0.0215354,4.73061,5.53041,-0.267627,-0.0367272,0.191577,0
2024-12-13 15:39:23.709,0.0287139,4.75215,5.59502,-0.276179,-0.0257319,0.184247,0
2024-12-13 15:39:23.711,0.0765703,4.7665,5.65484,-0.285953,-0.013515,0.176917,0
2024-12-13 15:39:23.714,0.107677,4.78116,5.68595,-0.293283,-0.00251974,0.169586,0
2024-12-13 15:39:23.716,0.133998,4.80748,5.70509,-0.298781,0.0133623,0.160424,0
2024-12-13 15:39:23.719,0.143569,4.83619,5.7338,-0.307333,0.0243575,0.149429,0
2024-12-13 15:39:23.721,0.138784,4.87209,5.75294,-0.315884,0.0353528,0.142098,0
2024-12-13 15:39:23.723,0.143569,4.91516,5.76252,-0.321993,0.0451263,0.131638,0
2024-12-13 15:39:23.726,0.145962,4.94626,5.76012,-0.33421,0.0512348,0.119421,0
2024-12-13 15:39:23.728,0.114855,4.99412,5.75773,-0.343983,0.0579541,0.108425,0
2024-12-13 15:39:23.730,0.0837488,5.04437,5.75773,-0.355589,0.0634518,0.0992627,0
2024-12-13 15:39:23.733,0.0717847,5.09223,5.76491,-0.367196,0.0707819,0.0919325,0
2024-12-13 15:39:23.735,0.0454636,5.14008,5.76252,-0.378802,0.0762796,0.082159,0
2024-12-13 15:39:23.737,0.00239282,5.17358,5.76012,-0.391629,0.0842206,0.0754396,0
2024-12-13 15:39:23.740,-0.0358923,5.20708,5.75773,-0.407511,0.0927724,0.0656661,0
2024-12-13 15:39:23.742,-0.0741775,5.24776,5.7338,-0.424004,0.0988809,0.0577251,0
2024-12-13 15:39:23.744,-0.117248,5.27887,5.72902,-0.441719,0.104989,0.0479515,0
2024-12-13 15:39:23.747,-0.16989,5.31954,5.74337,-0.460655,0.111709,0.0424539,0
2024-12-13 15:39:23.749,-0.217747,5.37488,5.77448,-0.480813,0.114152,0.0363454,0
2024-12-13 15:39:23.752,-0.241675,5.42034,5.82234,-0.503415,0.115985,0.0290152,0
2024-12-13 15:39:23.755,-0.270389,5.46581,5.87258,-0.551671,0.114152,0.0155766,0
2024-12-13 15:39:23.759,-0.361615,5.54477,6.03799,-0.574273,0.109876,0.0106898,0
2024-12-13 15:39:23.759,-0.361615,5.54477,6.03799,-0.574273,0.109876,0.0106898,0
2024-12-13 15:39:23.761,-0.411865,5.59502,6.13849,-0.597485,0.107433,0.00274881,0
2024-12-13 15:39:23.763,-0.440578,5.65484,6.24616,-0.620697,0.1056,0.000305424,0
2024-12-13 15:39:23.766,-0.462114,5.69312,6.35623,-0.640855,0.106211,-0.00335966,0
2024-12-13 15:39:23.768,-0.483649,5.71705,6.46421,-0.661013,0.11232,-0.00702474,0
2024-12-13 15:39:23.770,-0.500399,5.75294,6.5671,-0.683004,0.11965,-0.00946813,0
2024-12-13 15:39:23.775,-0.483649,5.81516,6.80399,-0.718433,0.141029,-0.0161875,0
2024-12-13 15:39:23.775,-0.483649,5.81516,6.80399,-0.718433,0.141029,-0.0161875,0
2024-12-13 15:39:23.777,-0.474078,5.82712,6.9356,-0.733704,0.14836,-0.0210742,0
2024-12-13 15:39:23.780,-0.464507,5.84626,7.05314,-0.749586,0.15569,-0.0241285,0
2024-12-13 15:39:23.784,-0.474078,5.9016,7.33789,-0.780739,0.160576,-0.0332912,0
2024-12-13 15:39:23.784,-0.474078,5.9016,7.33789,-0.780739,0.160576,-0.0332912,0
2024-12-13 15:39:23.787,-0.4669,5.9351,7.47189,-0.796621,0.158133,-0.038178,0
2024-12-13 15:39:23.789,-0.452543,5.96142,7.60618,-0.806395,0.159355,-0.0430647,0
2024-12-13 15:39:23.792,-0.447757,5.98774,7.75454,-0.819223,0.155079,-0.046119,0
2024-12-13 15:39:23.794,-0.447757,6.01406,7.91725,-0.826553,0.151414,-0.0534491,0
2024-12-13 15:39:23.796,-0.428614,6.03799,8.07757,-0.835105,0.145305,-0.0571142,0
2024-12-13 15:39:23.799,-0.390329,6.04277,8.22622,-0.841213,0.139197,-0.0638335,0
2024-12-13 15:39:23.801,-0.373579,6.06431,8.38894,-0.844267,0.135532,-0.0711637,0
2024-12-13 15:39:23.803,-0.375972,6.09542,8.56601,-0.8461,0.128812,-0.0784939,0
2024-12-13 15:39:23.806,-0.378365,6.11456,8.75055,-0.844267,0.124536,-0.085824,0
2024-12-13 15:39:23.808,-0.35683,6.14567,8.93241,-0.843046,0.121482,-0.0949868,0
2024-12-13 15:39:23.810,-0.313759,6.15284,9.07837,-0.839381,0.116595,-0.101706,0
2024-12-13 15:39:23.813,-0.272782,6.16002,9.2339,-0.836326,0.11293,-0.109647,0
2024-12-13 15:39:23.815,-0.246461,6.17917,9.41366,-0.831439,0.109265,-0.120642,0
2024-12-13 15:39:23.820,-0.184247,6.17199,9.74148,-0.813725,0.110487,-0.142022,0
2024-12-13 15:39:23.820,-0.184247,6.17199,9.74148,-0.813725,0.110487,-0.142022,0
2024-12-13 15:39:23.825,-0.148355,6.20309,10.072,-0.789902,0.114152,-0.163402,0
2024-12-13 15:39:23.825,-0.148355,6.20309,10.072,-0.789902,0.114152,-0.163402,0
2024-12-13 15:39:23.827,-0.122034,6.19352,10.206,-0.775242,0.114763,-0.174397,0
2024-12-13 15:39:23.829,-0.105284,6.19592,10.3184,-0.759359,0.115374,-0.187225,0
2024-12-13 15:39:23.832,-0.112463,6.21745,10.4408,-0.741645,0.119039,-0.199442,0
2024-12-13 15:39:23.834,-0.157926,6.24616,10.5485,-0.726985,0.120261,-0.209215,0
2024-12-13 15:39:23.836,-0.210568,6.27488,10.6609,-0.707437,0.124536,-0.218378,0
2024-12-13 15:39:23.839,-0.258425,6.31556,10.7542,-0.688501,0.130645,-0.227541,0
2024-12-13 15:39:23.841,-0.304188,6.34906,10.85,-0.670176,0.133088,-0.238536,0
2024-12-13 15:39:23.843,-0.35683,6.39213,10.9289,-0.650629,0.136143,-0.245866,0
2024-12-13 15:39:23.846,-0.421436,6.43998,10.989,-0.634136,0.137364,-0.253196,0
2024-12-13 15:39:23.848,-0.476471,6.4666,11.0417,-0.61581,0.13431,-0.258083,0
2024-12-13 15:39:23.850,-0.519542,6.49053,11.0895,-0.601761,0.132477,-0.263581,0
2024-12-13 15:39:23.853,-0.567398,6.51685,11.1374,-0.587711,0.128812,-0.269689,0
2024-12-13 15:39:23.855,-0.624826,6.53121,11.1637,-0.57244,0.123315,-0.273354,0
2024-12-13 15:39:23.857,-0.679861,6.56471,11.2068,-0.558391,0.115985,-0.277019,0
2024-12-13 15:39:23.862,-0.828216,6.65085,11.2834,-0.532124,0.0976592,-0.280684,0
2024-12-13 15:39:23.862,-0.828216,6.65085,11.2834,-0.532124,0.0976592,-0.280684,0
2024-12-13 15:39:23.865,-0.88355,6.68196,11.348,-0.519297,0.082388,-0.278241,0
2024-12-13 15:39:23.867,-0.912264,6.72981,11.4174,-0.50708,0.0646735,-0.277019,0
2024-12-13 15:39:23.869,-0.88355,6.85185,11.5445,-0.496695,0.0420721,-0.275798,0
2024-12-13 15:39:23.874,-0.854836,6.94756,11.6378,-0.46432,-0.0177909,-0.272132,0
2024-12-13 15:39:23.874,-0.845265,6.94277,11.6474,-0.46432,-0.0177909,-0.272132,0
2024-12-13 15:39:23.879,-0.766002,7.01725,11.7598,-0.435,-0.0782648,-0.269078,0
2024-12-13 15:39:23.879,-0.766002,7.01725,11.7598,-0.435,-0.0782648,-0.269078,0
2024-12-13 15:39:23.883,-0.696611,7.0026,11.8579,-0.412398,-0.130798,-0.271522,0
2024-12-13 15:39:23.883,-0.696611,7.0026,11.8579,-0.412398,-0.130798,-0.271522,0
2024-12-13 15:39:23.886,-0.672682,7.02204,11.9273,-0.401403,-0.159507,-0.269689,0
2024-12-13 15:39:23.888,-0.641576,7.05554,11.9919,-0.389186,-0.18272,-0.269689,0
2024-12-13 15:39:23.890,-0.615255,7.07946,12.0518,-0.376358,-0.201045,-0.266635,0
2024-12-13 15:39:23.893,-0.579362,7.08664,12.1262,-0.36353,-0.217538,-0.264802,0
2024-12-13 15:39:23.895,-0.555434,7.12493,12.2195,-0.353757,-0.232198,-0.264802,0
2024-12-13 15:39:23.898,-0.557827,7.2015,12.3033,-0.343373,-0.244415,-0.261137,0
2024-12-13 15:39:23.900,-0.54347,7.27568,12.4134,-0.330545,-0.255411,-0.256861,0
2024-12-13 15:39:23.902,-0.519542,7.33789,12.5043,-0.314663,-0.263962,-0.251364,0
2024-12-13 15:39:23.905,-0.488435,7.37857,12.5785,-0.302446,-0.268849,-0.243423,0
2024-12-13 15:39:23.907,-0.435793,7.39532,12.6553,-0.288396,-0.268849,-0.239147,0
2024-12-13 15:39:23.909,-0.373579,7.42642,12.7367,-0.273736,-0.273736,-0.233038,0
2024-12-13 15:39:23.912,-0.297009,7.47667,12.8181,-0.260297,-0.275568,-0.228151,0
2024-12-13 15:39:23.914,-0.229711,7.51017,12.8946,-0.245026,-0.273125,-0.223876,0
2024-12-13 15:39:23.916,-0.191426,7.54128,12.9784,-0.229755,-0.267627,-0.22021,0
2024-12-13 15:39:23.919,-0.136391,7.58465,13.0525,-0.21143,-0.259076,-0.213491,0
2024-12-13 15:39:23.921,-0.0861416,7.61576,13.1315,-0.196158,-0.251135,-0.209215,0
2024-12-13 15:39:23.924,-0.0311067,7.64926,13.1988,-0.179055,-0.243804,-0.206161,0
2024-12-13 15:39:23.928,0.0981057,7.70668,13.3089,-0.14668,-0.230366,-0.200052,0
2024-12-13 15:39:23.928,0.0981057,7.70668,13.3089,-0.14668,-0.230366,-0.200052,0
2024-12-13 15:39:23.930,0.114855,7.74497,13.3567,-0.128354,-0.221814,-0.196998,0
2024-12-13 15:39:23.933,0.145962,7.81675,13.4166,-0.11064,-0.210208,-0.192722,0
2024-12-13 15:39:23.935,0.177069,7.8694,13.4668,-0.093536,-0.199213,-0.192722,0
2024-12-13 15:39:23.938,0.191426,7.89811,13.4979,-0.0782648,-0.187606,-0.192111,0
2024-12-13 15:39:23.940,0.22014,7.92922,13.5314,-0.0605502,-0.178444,-0.192722,0
2024-12-13 15:39:23.942,0.272782,7.95554,13.5529,-0.0465007,-0.174779,-0.188446,0
2024-12-13 15:39:23.945,0.308973,7.96989,13.5529,-0.0287862,-0.16867,-0.187225,0
2024-12-13 15:39:23.947,0.328116,7.99861,13.5553,-0.0116825,-0.160118,-0.188446,0
2024-12-13 15:39:23.949,0.35683,8.02254,13.541,0.00297788,-0.152177,-0.190279,0
2024-12-13 15:39:23.952,0.383151,8.05364,13.5147,0.0231358,-0.145458,-0.191501,0
2024-12-13 15:39:23.954,0.380758,8.10629,13.4931,0.0377962,-0.13935,-0.193333,3
2024-12-13 15:39:23.956,0.366401,8.15205,13.4788,0.0518457,-0.133852,-0.196387,0
2024-12-13 15:39:23.959,0.373579,8.19512,13.4357,0.0671168,-0.130798,-0.199442,0
2024-12-13 15:39:23.961,0.378365,8.22862,13.3687,0.0811663,-0.129576,-0.200663,0
2024-12-13 15:39:23.963,0.380758,8.25494,13.2921,0.0915507,-0.128965,-0.204328,0
2024-12-13 15:39:23.966,0.392722,8.2693,13.2203,0.104379,-0.130798,-0.208604,0
2024-12-13 15:39:23.968,0.411865,8.27169,13.1507,0.11293,-0.137517,-0.210437,0
2024-12-13 15:39:23.971,0.452543,8.26212,13.0717,0.117817,-0.149734,-0.214102,0
2024-12-13 15:39:23.973,0.505185,8.25494,12.9879,0.122093,-0.169281,-0.222654,0
2024-12-13 15:39:23.975,0.555434,8.2358,12.9209,0.122093,-0.169281,-0.222654,0
2024-12-13 15:39:23.978,0.600898,8.21905,12.8851,0.119039,-0.219981,-0.239147,0
2024-12-13 15:39:23.980,0.665504,8.20948,12.8516,0.114763,-0.246859,-0.252585,0
2024-12-13 15:39:23.982,0.761217,8.18076,12.8228,0.107433,-0.280455,-0.266635,0
2024-12-13 15:39:23.985,0.854836,8.15923,12.8181,0.0982701,-0.309776,-0.282517,0
2024-12-13 15:39:23.987,0.929013,8.10389,12.8348,0.0878856,-0.338486,-0.303897,0
