timestamp,accel_x,accel_y,accel_z,gyro_x,gyro_y,gyro_z,step_timestamp
2024-12-13 15:38:10.726,0.160319,4.42911,9.05923,-0.0990336,-0.0984228,-0.0186308,0
2024-12-13 15:38:10.726,0.160319,4.42911,9.05923,-0.0990336,-0.0984228,-0.0186308,0
2024-12-13 15:38:10.726,0.160319,4.42911,9.05923,-0.0990336,-0.0984228,-0.0186308,0
2024-12-13 15:38:10.726,0.160319,4.42911,9.05923,-0.0990336,-0.0984228,-0.0186308,0
2024-12-13 15:38:10.726,0.160319,4.42911,9.05923,-0.0990336,-0.0984228,-0.0186308,0
2024-12-13 15:38:10.726,0.160319,4.42911,9.05923,-0.0990336,-0.0984228,-0.0186308,0
2024-12-13 15:38:10.726,0.160319,4.42911,9.05923,-0.0990336,-0.0984228,-0.0186308,0
2024-12-13 15:38:10.726,0.160319,4.42911,9.05923,-0.0990336,-0.0984228,-0.0186308,0
2024-12-13 15:38:10.726,0.160319,4.42911,9.05923,-0.0990336,-0.0984228,-0.0186308,0
2024-12-13 15:38:10.726,0.160319,4.42911,9.05923,-0.0990336,-0.0984228,-0.0186308,0
2024-12-13 15:38:10.726,0.160319,4.42911,9.05923,-0.0990336,-0.0984228,-0.0186308,0
2024-12-13 15:38:10.726,0.160319,4.42911,9.05923,-0.0990336,-0.0984228,-0.0186308,0
2024-12-13 15:38:10.726,0.160319,4.42911,9.05923,-0.0990336,-0.0984228,-0.0186308,0
2024-12-13 15:38:10.727,0.160319,4.42911,9.05923,-0.0923143,-0.0947577,-0.0229068,0
2024-12-13 15:38:10.728,0.155533,4.39562,9.04248,-0.0923143,-0.0947577,-0.0229068,0
2024-12-13 15:38:10.728,0.155533,4.39562,9.04248,-0.0923143,-0.0947577,-0.0229068,0
2024-12-13 15:38:10.728,0.155533,4.39562,9.04248,-0.0923143,-0.0947577,-0.0229068,0
2024-12-13 15:38:10.730,0.157926,4.38126,9.02812,-0.0862058,-0.0904818,-0.0253502,0
2024-12-13 15:38:10.730,0.157926,4.38126,9.02812,-0.0862058,-0.0904818,-0.0253502,0
2024-12-13 15:38:10.730,0.157926,4.38126,9.02812,-0.0862058,-0.0904818,-0.0253502,0
2024-12-13 15:38:10.730,0.157926,4.38126,9.02812,-0.0862058,-0.0904818,-0.0253502,0
2024-12-13 15:38:10.730,0.157926,4.38126,9.02812,-0.0862058,-0.0904818,-0.0253502,0
2024-12-13 15:38:10.730,0.157926,4.38126,9.02812,-0.0862058,-0.0904818,-0.0253502,0
2024-12-13 15:38:10.733,0.157926,4.37408,9.00658,-0.0794865,-0.0862058,-0.0277936,0
2024-12-13 15:38:10.733,0.157926,4.37408,9.00658,-0.0794865,-0.0862058,-0.0277936,0
2024-12-13 15:38:10.733,0.157926,4.37408,9.00658,-0.0794865,-0.0862058,-0.0277936,0
2024-12-13 15:38:10.733,0.157926,4.37408,9.00658,-0.0794865,-0.0862058,-0.0277936,0
2024-12-13 15:38:10.735,0.167498,4.36451,8.99223,-0.073378,-0.0794865,-0.0302369,0
2024-12-13 15:38:10.735,0.167498,4.36451,8.99223,-0.073378,-0.0794865,-0.0302369,0
2024-12-13 15:38:10.735,0.167498,4.36451,8.99223,-0.073378,-0.0794865,-0.0302369,0
2024-12-13 15:38:10.735,0.167498,4.36451,8.99223,-0.073378,-0.0794865,-0.0302369,0
2024-12-13 15:38:10.735,0.167498,4.36451,8.99223,-0.073378,-0.0794865,-0.0302369,0
2024-12-13 15:38:10.736,0.167498,4.36451,8.99223,-0.0697129,-0.0739889,-0.0326803,0
2024-12-13 15:38:10.737,0.196211,4.35972,8.97548,-0.0697129,-0.0739889,-0.0326803,0
2024-12-13 15:38:10.737,0.196211,4.35972,8.97548,-0.0697129,-0.0739889,-0.0326803,0
2024-12-13 15:38:10.737,0.196211,4.35972,8.97548,-0.0697129,-0.0739889,-0.0326803,0
2024-12-13 15:38:10.740,0.227318,4.35015,8.93959,-0.0642153,-0.0703238,-0.0375671,0
2024-12-13 15:38:10.740,0.227318,4.35015,8.93959,-0.0642153,-0.0703238,-0.0375671,0
2024-12-13 15:38:10.740,0.227318,4.35015,8.93959,-0.0642153,-0.0703238,-0.0375671,0
2024-12-13 15:38:10.740,0.227318,4.35015,8.93959,-0.0642153,-0.0703238,-0.0375671,0
2024-12-13 15:38:10.740,0.227318,4.35015,8.93959,-0.0642153,-0.0703238,-0.0375671,0
2024-12-13 15:38:10.740,0.227318,4.35015,8.93959,-0.0642153,-0.0703238,-0.0375671,0
2024-12-13 15:38:10.740,0.227318,4.35015,8.93959,-0.0642153,-0.0703238,-0.0375671,0
2024-12-13 15:38:10.742,0.236889,4.34537,8.92044,-0.0605502,-0.0697129,-0.0406213,0
2024-12-13 15:38:10.744,0.229711,4.3334,8.92044,-0.0544418,-0.0709346,-0.0442864,0
2024-12-13 15:38:10.744,0.229711,4.3334,8.92044,-0.0544418,-0.0709346,-0.0442864,0
2024-12-13 15:38:10.744,0.229711,4.3334,8.92044,-0.0544418,-0.0709346,-0.0442864,0
2024-12-13 15:38:10.744,0.229711,4.3334,8.92044,-0.0544418,-0.0709346,-0.0442864,0
2024-12-13 15:38:10.744,0.229711,4.3334,8.92044,-0.0544418,-0.0709346,-0.0442864,0
2024-12-13 15:38:10.744,0.229711,4.3334,8.92044,-0.0544418,-0.0709346,-0.0442864,0
2024-12-13 15:38:10.744,0.229711,4.3334,8.92044,-0.0544418,-0.0709346,-0.0442864,0
2024-12-13 15:38:10.747,0.229711,4.32862,8.90369,-0.0526092,-0.0721563,-0.0479515,0
2024-12-13 15:38:10.747,0.229711,4.32862,8.90369,-0.0526092,-0.0721563,-0.0479515,0
2024-12-13 15:38:10.747,0.229711,4.32862,8.90369,-0.0526092,-0.0721563,-0.0479515,0
2024-12-13 15:38:10.747,0.229711,4.32862,8.90369,-0.0526092,-0.0721563,-0.0479515,0
2024-12-13 15:38:10.747,0.229711,4.32862,8.90369,-0.0526092,-0.0721563,-0.0479515,0
2024-12-13 15:38:10.749,0.232104,4.31905,8.88216,-0.0501658,-0.073378,-0.0510057,0
2024-12-13 15:38:10.749,0.232104,4.31905,8.88216,-0.0501658,-0.073378,-0.0510057,0
2024-12-13 15:38:10.749,0.232104,4.31905,8.88216,-0.0501658,-0.073378,-0.0510057,0
2024-12-13 15:38:10.749,0.232104,4.31905,8.88216,-0.0501658,-0.073378,-0.0510057,0
2024-12-13 15:38:10.749,0.232104,4.31905,8.88216,-0.0501658,-0.073378,-0.0510057,0
2024-12-13 15:38:10.749,0.232104,4.31905,8.88216,-0.0501658,-0.073378,-0.0510057,0
2024-12-13 15:38:10.749,0.232104,4.31905,8.88216,-0.0501658,-0.073378,-0.0510057,0
2024-12-13 15:38:10.750,0.232104,4.31905,8.88216,-0.0483333,-0.0739889,-0.0528383,0
2024-12-13 15:38:10.752,0.236889,4.29033,8.85823,-0.0483333,-0.0739889,-0.0528383,0
2024-12-13 15:38:10.752,0.236889,4.29033,8.85823,-0.0483333,-0.0739889,-0.0528383,0
2024-12-13 15:38:10.752,0.236889,4.29033,8.85823,-0.0483333,-0.0739889,-0.0528383,0
2024-12-13 15:38:10.752,0.236889,4.29033,8.85823,-0.0483333,-0.0739889,-0.0528383,0
2024-12-13 15:38:10.753,0.236889,4.29033,8.85823,-0.0489441,-0.0764323,-0.0552817,0
2024-12-13 15:38:10.754,0.258425,4.27597,8.84148,-0.0489441,-0.0764323,-0.0552817,0
2024-12-13 15:38:10.754,0.258425,4.27597,8.84148,-0.0489441,-0.0764323,-0.0552817,0
2024-12-13 15:38:10.754,0.258425,4.27597,8.84148,-0.0489441,-0.0764323,-0.0552817,0
2024-12-13 15:38:10.754,0.258425,4.27597,8.84148,-0.0489441,-0.0764323,-0.0552817,0
2024-12-13 15:38:10.754,0.258425,4.27597,8.84148,-0.0489441,-0.0764323,-0.0552817,0
2024-12-13 15:38:10.756,0.277567,4.26401,8.82712,-0.0538309,-0.0825407,-0.0577251,0
2024-12-13 15:38:10.756,0.277567,4.26401,8.82712,-0.0538309,-0.0825407,-0.0577251,0
2024-12-13 15:38:10.756,0.277567,4.26401,8.82712,-0.0538309,-0.0825407,-0.0577251,0
2024-12-13 15:38:10.756,0.277567,4.26401,8.82712,-0.0538309,-0.0825407,-0.0577251,0
2024-12-13 15:38:10.756,0.277567,4.26401,8.82712,-0.0538309,-0.0825407,-0.0577251,0
2024-12-13 15:38:10.756,0.277567,4.26401,8.82712,-0.0538309,-0.0825407,-0.0577251,0
2024-12-13 15:38:10.756,0.277567,4.26401,8.82712,-0.0538309,-0.0825407,-0.0577251,0
2024-12-13 15:38:10.759,0.285045,4.23769,8.79841,-0.0532201,-0.0849841,-0.0607793,0
2024-12-13 15:38:10.759,0.285045,4.23769,8.79841,-0.0532201,-0.0849841,-0.0607793,0
2024-12-13 15:38:10.759,0.285045,4.23769,8.79841,-0.0532201,-0.0849841,-0.0607793,0
2024-12-13 15:38:10.759,0.285045,4.23769,8.79841,-0.0532201,-0.0849841,-0.0607793,0
2024-12-13 15:38:10.759,0.285045,4.23769,8.79841,-0.0532201,-0.0849841,-0.0607793,0
2024-12-13 15:38:10.759,0.285045,4.23769,8.79841,-0.0532201,-0.0849841,-0.0607793,0
2024-12-13 15:38:10.759,0.285045,4.23769,8.79841,-0.0532201,-0.0849841,-0.0607793,0
2024-12-13 15:38:10.759,0.285045,4.23769,8.79841,-0.0532201,-0.0849841,-0.0607793,0
2024-12-13 15:38:10.761,0.285045,4.21855,8.77927,-0.0556635,-0.0923143,-0.0626118,0
2024-12-13 15:38:10.761,0.285045,4.21855,8.77927,-0.0556635,-0.0923143,-0.0626118,0
2024-12-13 15:38:10.761,0.285045,4.21855,8.77927,-0.0556635,-0.0923143,-0.0626118,0
2024-12-13 15:38:10.761,0.285045,4.21855,8.77927,-0.0556635,-0.0923143,-0.0626118,0
2024-12-13 15:38:10.761,0.285045,4.21855,8.77927,-0.0556635,-0.0923143,-0.0626118,0
2024-12-13 15:38:10.763,0.272782,4.21376,8.7697,-0.057496,-0.0953685,-0.0656661,0
2024-12-13 15:38:10.763,0.272782,4.21376,8.7697,-0.057496,-0.0953685,-0.0656661,0
2024-12-13 15:38:10.763,0.272782,4.21376,8.7697,-0.057496,-0.0953685,-0.0656661,0
2024-12-13 15:38:10.763,0.272782,4.21376,8.7697,-0.057496,-0.0953685,-0.0656661,0
2024-12-13 15:38:10.763,0.272782,4.21376,8.7697,-0.057496,-0.0953685,-0.0656661,0
2024-12-13 15:38:10.763,0.272782,4.21376,8.7697,-0.057496,-0.0953685,-0.0656661,0
2024-12-13 15:38:10.763,0.272782,4.21376,8.7697,-0.057496,-0.0953685,-0.0656661,0
2024-12-13 15:38:10.763,0.272782,4.21376,8.7697,-0.057496,-0.0953685,-0.0656661,0
2024-12-13 15:38:10.763,0.272782,4.21376,8.7697,-0.057496,-0.0953685,-0.0656661,0
2024-12-13 15:38:10.766,0.265603,4.20389,8.76012,-0.0605502,-0.10331,-0.0687203,0
2024-12-13 15:38:10.766,0.265603,4.20389,8.76012,-0.0605502,-0.10331,-0.0687203,0
2024-12-13 15:38:10.766,0.265603,4.20389,8.76012,-0.0605502,-0.10331,-0.0687203,0
2024-12-13 15:38:10.766,0.265603,4.20389,8.76012,-0.0605502,-0.10331,-0.0687203,0
2024-12-13 15:38:10.766,0.265603,4.20389,8.76012,-0.0605502,-0.10331,-0.0687203,0
2024-12-13 15:38:10.768,0.263211,4.18475,8.74337,-0.0636045,-0.108807,-0.069942,0
2024-12-13 15:38:10.768,0.263211,4.18475,8.74337,-0.0636045,-0.108807,-0.069942,0
2024-12-13 15:38:10.768,0.263211,4.18475,8.74337,-0.0636045,-0.108807,-0.069942,0
2024-12-13 15:38:10.768,0.263211,4.18475,8.74337,-0.0636045,-0.108807,-0.069942,0
2024-12-13 15:38:10.768,0.263211,4.18475,8.74337,-0.0636045,-0.108807,-0.069942,0
2024-12-13 15:38:10.768,0.263211,4.18475,8.74337,-0.0636045,-0.108807,-0.069942,0
2024-12-13 15:38:10.768,0.263211,4.18475,8.74337,-0.0636045,-0.108807,-0.069942,0
2024-12-13 15:38:10.768,0.263211,4.18475,8.74337,-0.0636045,-0.108807,-0.069942,0
2024-12-13 15:38:10.768,0.263211,4.18475,8.74337,-0.0636045,-0.108807,-0.069942,0
2024-12-13 15:38:10.768,0.263211,4.18475,8.74337,-0.0636045,-0.108807,-0.069942,0
2024-12-13 15:38:10.768,0.263211,4.18475,8.74337,-0.0636045,-0.108807,-0.069942,0
2024-12-13 15:38:10.770,0.256032,4.17518,8.72423,-0.0660479,-0.110029,-0.0693312,0
2024-12-13 15:38:10.770,0.256032,4.17518,8.72423,-0.0660479,-0.110029,-0.0693312,0
2024-12-13 15:38:10.770,0.256032,4.17518,8.72423,-0.0660479,-0.110029,-0.0693312,0
2024-12-13 15:38:10.770,0.256032,4.17518,8.72423,-0.0660479,-0.110029,-0.0693312,0
2024-12-13 15:38:10.770,0.256032,4.17518,8.72423,-0.0660479,-0.110029,-0.0693312,0
2024-12-13 15:38:10.773,0.272782,4.16321,8.70987,-0.0703238,-0.113694,-0.0723854,0
2024-12-13 15:38:10.773,0.272782,4.16321,8.70987,-0.0703238,-0.113694,-0.0723854,0
2024-12-13 15:38:10.773,0.272782,4.16321,8.70987,-0.0703238,-0.113694,-0.0723854,0
2024-12-13 15:38:10.773,0.272782,4.16321,8.70987,-0.0703238,-0.113694,-0.0723854,0
2024-12-13 15:38:10.773,0.272782,4.16321,8.70987,-0.0703238,-0.113694,-0.0723854,0
2024-12-13 15:38:10.773,0.272782,4.16321,8.70987,-0.0703238,-0.113694,-0.0723854,0
2024-12-13 15:38:10.773,0.272782,4.16321,8.70987,-0.0703238,-0.113694,-0.0723854,0
2024-12-13 15:38:10.773,0.272782,4.16321,8.70987,-0.0703238,-0.113694,-0.0723854,0
2024-12-13 15:38:10.773,0.272782,4.16321,8.70987,-0.0703238,-0.113694,-0.0723854,0
2024-12-13 15:38:10.773,0.272782,4.16321,8.70987,-0.0703238,-0.113694,-0.0723854,0
2024-12-13 15:38:10.773,0.272782,4.16321,8.70987,-0.0703238,-0.113694,-0.0723854,0
2024-12-13 15:38:10.775,0.311366,4.14168,8.68325,-0.0764323,-0.117359,-0.0760505,0
2024-12-13 15:38:10.775,0.311366,4.14168,8.68325,-0.0764323,-0.117359,-0.0760505,0
2024-12-13 15:38:10.775,0.311366,4.14168,8.68325,-0.0764323,-0.117359,-0.0760505,0
2024-12-13 15:38:10.775,0.311366,4.14168,8.68325,-0.0764323,-0.117359,-0.0760505,0
2024-12-13 15:38:10.775,0.311366,4.14168,8.68325,-0.0764323,-0.117359,-0.0760505,0
2024-12-13 15:38:10.775,0.311366,4.14168,8.68325,-0.0764323,-0.117359,-0.0760505,0
2024-12-13 15:38:10.775,0.311366,4.14168,8.68325,-0.0764323,-0.117359,-0.0760505,0
2024-12-13 15:38:10.775,0.311366,4.14168,8.68325,-0.0764323,-0.117359,-0.0760505,0
2024-12-13 15:38:10.775,0.311366,4.14168,8.68325,-0.0764323,-0.117359,-0.0760505,0
2024-12-13 15:38:10.775,0.311366,4.14168,8.68325,-0.0764323,-0.117359,-0.0760505,0
2024-12-13 15:38:10.775,0.311366,4.14168,8.68325,-0.0764323,-0.117359,-0.0760505,0
2024-12-13 15:38:10.775,0.311366,4.14168,8.68325,-0.0764323,-0.117359,-0.0760505,0
2024-12-13 15:38:10.775,0.311366,4.14168,8.68325,-0.0764323,-0.117359,-0.0760505,0
2024-12-13 15:38:10.775,0.311366,4.14168,8.68325,-0.0764323,-0.117359,-0.0760505,0
2024-12-13 15:38:10.775,0.311366,4.14168,8.68325,-0.0764323,-0.117359,-0.0760505,0
2024-12-13 15:38:10.775,0.311366,4.14168,8.68325,-0.0764323,-0.117359,-0.0760505,0
2024-12-13 15:38:10.775,0.311366,4.14168,8.68325,-0.0764323,-0.117359,-0.0760505,0
2024-12-13 15:38:10.775,0.311366,4.14168,8.68325,-0.0764323,-0.117359,-0.0760505,0
2024-12-13 15:38:10.780,0.349651,4.11536,8.62583,-0.0849841,-0.124689,-0.0797156,0
2024-12-13 15:38:10.780,0.349651,4.11536,8.62583,-0.0849841,-0.124689,-0.0797156,0
2024-12-13 15:38:10.780,0.349651,4.11536,8.62583,-0.0849841,-0.124689,-0.0797156,0
2024-12-13 15:38:10.780,0.349651,4.11536,8.62583,-0.0849841,-0.124689,-0.0797156,0
2024-12-13 15:38:10.780,0.349651,4.11536,8.62583,-0.0849841,-0.124689,-0.0797156,0
2024-12-13 15:38:10.780,0.349651,4.11536,8.62583,-0.0849841,-0.124689,-0.0797156,0
2024-12-13 15:38:10.780,0.349651,4.11536,8.62583,-0.0849841,-0.124689,-0.0797156,0
2024-12-13 15:38:10.780,0.349651,4.11536,8.62583,-0.0849841,-0.124689,-0.0797156,0
2024-12-13 15:38:10.780,0.349651,4.11536,8.62583,-0.0849841,-0.124689,-0.0797156,0
2024-12-13 15:38:10.780,0.349651,4.11536,8.62583,-0.0849841,-0.124689,-0.0797156,0
2024-12-13 15:38:10.780,0.349651,4.11536,8.62583,-0.0849841,-0.124689,-0.0797156,0
2024-12-13 15:38:10.780,0.349651,4.11536,8.62583,-0.0849841,-0.124689,-0.0797156,0
2024-12-13 15:38:10.780,0.349651,4.11536,8.62583,-0.0849841,-0.124689,-0.0797156,0
2024-12-13 15:38:10.780,0.349651,4.11536,8.62583,-0.0849841,-0.124689,-0.0797156,0
2024-12-13 15:38:10.780,0.349651,4.11536,8.62583,-0.0849841,-0.124689,-0.0797156,0
2024-12-13 15:38:10.780,0.349651,4.11536,8.62583,-0.0849841,-0.124689,-0.0797156,0
2024-12-13 15:38:10.780,0.349651,4.11536,8.62583,-0.0849841,-0.124689,-0.0797156,0
2024-12-13 15:38:10.780,0.349651,4.11536,8.62583,-0.0849841,-0.124689,-0.0797156,0
2024-12-13 15:38:10.780,0.349651,4.11536,8.62583,-0.0849841,-0.124689,-0.0797156,0
2024-12-13 15:38:10.787,0.352044,4.09143,8.6019,-0.0923143,-0.130798,-0.0870457,0
2024-12-13 15:38:10.787,0.352044,4.09143,8.6019,-0.0923143,-0.130798,-0.0870457,0
2024-12-13 15:38:10.787,0.352044,4.09143,8.6019,-0.0923143,-0.130798,-0.0870457,0
2024-12-13 15:38:10.787,0.352044,4.09143,8.6019,-0.0923143,-0.130798,-0.0870457,0
2024-12-13 15:38:10.789,0.373579,4.06511,8.57797,-0.0972011,-0.131409,-0.0894891,0
2024-12-13 15:38:10.789,0.373579,4.06511,8.57797,-0.0972011,-0.131409,-0.0894891,0
2024-12-13 15:38:10.789,0.373579,4.06511,8.57797,-0.0972011,-0.131409,-0.0894891,0
2024-12-13 15:38:10.789,0.373579,4.06511,8.57797,-0.0972011,-0.131409,-0.0894891,0
2024-12-13 15:38:10.789,0.373579,4.06511,8.57797,-0.0972011,-0.131409,-0.0894891,0
2024-12-13 15:38:10.789,0.373579,4.06511,8.57797,-0.0972011,-0.131409,-0.0894891,0
2024-12-13 15:38:10.792,0.380758,4.05075,8.55643,-0.0990336,-0.13263,-0.0901,0
2024-12-13 15:38:10.792,0.380758,4.05075,8.55643,-0.0990336,-0.13263,-0.0901,0
2024-12-13 15:38:10.792,0.380758,4.05075,8.55643,-0.0990336,-0.13263,-0.0901,0
2024-12-13 15:38:10.792,0.380758,4.05075,8.55643,-0.0990336,-0.13263,-0.0901,0
2024-12-13 15:38:10.792,0.380758,4.05075,8.55643,-0.0990336,-0.13263,-0.0901,0
2024-12-13 15:38:10.792,0.380758,4.05075,8.55643,-0.0990336,-0.13263,-0.0901,0
2024-12-13 15:38:10.792,0.380758,4.05075,8.55643,-0.0990336,-0.13263,-0.0901,0
2024-12-13 15:38:10.792,0.380758,4.05075,8.55643,-0.0990336,-0.13263,-0.0901,0
2024-12-13 15:38:10.792,0.380758,4.05075,8.55643,-0.0990336,-0.13263,-0.0901,0
2024-12-13 15:38:10.792,0.380758,4.05075,8.55643,-0.0990336,-0.13263,-0.0901,0
2024-12-13 15:38:10.793,0.380758,4.05075,8.55643,-0.101477,-0.130798,-0.0931542,0
2024-12-13 15:38:10.794,0.359223,4.04836,8.54208,-0.101477,-0.130798,-0.0931542,0
2024-12-13 15:38:10.794,0.359223,4.04836,8.54208,-0.101477,-0.130798,-0.0931542,0
2024-12-13 15:38:10.794,0.359223,4.04836,8.54208,-0.101477,-0.130798,-0.0931542,0
2024-12-13 15:38:10.794,0.359223,4.04836,8.54208,-0.101477,-0.130798,-0.0931542,0
2024-12-13 15:38:10.796,0.347258,4.03161,8.53729,-0.102699,-0.127743,-0.0919325,0
2024-12-13 15:38:10.796,0.347258,4.03161,8.53729,-0.102699,-0.127743,-0.0919325,0
2024-12-13 15:38:10.796,0.347258,4.03161,8.53729,-0.102699,-0.127743,-0.0919325,0
2024-12-13 15:38:10.796,0.347258,4.03161,8.53729,-0.102699,-0.127743,-0.0919325,0
2024-12-13 15:38:10.796,0.347258,4.03161,8.53729,-0.102699,-0.127743,-0.0919325,0
2024-12-13 15:38:10.796,0.347258,4.03161,8.53729,-0.102699,-0.127743,-0.0919325,0
2024-12-13 15:38:10.796,0.347258,4.03161,8.53729,-0.102699,-0.127743,-0.0919325,0
2024-12-13 15:38:10.799,0.368794,4.02204,8.53729,-0.102699,-0.129576,-0.0943759,0
2024-12-13 15:38:10.799,0.347258,4.03161,8.53729,-0.102699,-0.129576,-0.0943759,0
2024-12-13 15:38:10.799,0.368794,4.02204,8.53729,-0.102699,-0.129576,-0.0943759,0
2024-12-13 15:38:10.799,0.368794,4.02204,8.53729,-0.102699,-0.129576,-0.0943759,0
2024-12-13 15:38:10.799,0.368794,4.02204,8.53729,-0.102699,-0.129576,-0.0943759,0
2024-12-13 15:38:10.799,0.368794,4.02204,8.53729,-0.102699,-0.129576,-0.0943759,0
2024-12-13 15:38:10.799,0.368794,4.02204,8.53729,-0.102699,-0.129576,-0.0943759,0
2024-12-13 15:38:10.799,0.368794,4.02204,8.53729,-0.102699,-0.129576,-0.0943759,0
2024-12-13 15:38:10.799,0.368794,4.02204,8.53729,-0.102699,-0.129576,-0.0943759,0
2024-12-13 15:38:10.801,0.383151,4.02204,8.54447,-0.101477,-0.128965,-0.0955976,0
2024-12-13 15:38:10.801,0.383151,4.02204,8.54447,-0.101477,-0.128965,-0.0955976,0
2024-12-13 15:38:10.801,0.383151,4.02204,8.54447,-0.101477,-0.128965,-0.0955976,0
2024-12-13 15:38:10.801,0.383151,4.02204,8.54447,-0.101477,-0.128965,-0.0955976,0
2024-12-13 15:38:10.801,0.383151,4.02204,8.54447,-0.101477,-0.128965,-0.0955976,0
2024-12-13 15:38:10.801,0.383151,4.02204,8.54447,-0.101477,-0.128965,-0.0955976,0
2024-12-13 15:38:10.801,0.383151,4.02204,8.54447,-0.101477,-0.128965,-0.0955976,0
2024-12-13 15:38:10.803,0.385544,4.01246,8.53729,-0.0972011,-0.128354,-0.0974301,0
2024-12-13 15:38:10.806,0.397508,4.00768,8.52772,-0.0978119,-0.128965,-0.0974301,0
2024-12-13 15:38:10.808,0.414257,4.02921,8.52533,-0.0910926,-0.128354,-0.0992627,0
2024-12-13 15:38:10.810,0.431007,4.05554,8.52293,-0.0880384,-0.130187,-0.0998735,0
2024-12-13 15:38:10.815,0.4669,4.06989,8.4679,-0.0794865,-0.134463,-0.102928,0
2024-12-13 15:38:10.815,0.4669,4.06989,8.4679,-0.0794865,-0.134463,-0.102928,0
2024-12-13 15:38:10.817,0.469292,4.08664,8.42244,-0.0739889,-0.136906,-0.105371,0
2024-12-13 15:38:10.820,0.490828,4.10818,8.37697,-0.0709346,-0.135684,-0.109647,0
2024-12-13 15:38:10.822,0.50997,4.12493,8.30997,-0.0697129,-0.137517,-0.109647,0
2024-12-13 15:38:10.825,0.517149,4.13689,8.24298,-0.0691021,-0.138128,-0.113312,0
2024-12-13 15:38:10.827,0.533899,4.1345,8.18555,-0.0666587,-0.141793,-0.116977,0
2024-12-13 15:38:10.829,0.548256,4.16082,8.135,-0.0672696,-0.145458,-0.121253,0
2024-12-13 15:38:10.832,0.555434,4.20389,8.06561,-0.0703238,-0.14668,-0.124307,0
2024-12-13 15:38:10.834,0.555434,4.22094,7.99861,-0.0745997,-0.150956,-0.130416,0
2024-12-13 15:38:10.836,0.553041,4.24008,7.93879,-0.0800973,-0.156453,-0.134692,0
2024-12-13 15:38:10.840,0.548256,4.25444,7.88375,-0.0978119,-0.163173,-0.140189,0
2024-12-13 15:38:10.841,0.567398,4.27597,7.84068,-0.0978119,-0.163173,-0.140189,0
2024-12-13 15:38:10.843,0.605683,4.2999,7.81675,-0.108807,-0.168059,-0.14752,0
2024-12-13 15:38:10.846,0.608076,4.30708,7.79761,-0.118581,-0.174779,-0.149963,0
2024-12-13 15:38:10.848,0.591326,4.32622,7.78565,-0.130187,-0.181498,-0.15485,0
2024-12-13 15:38:10.850,0.591326,4.35972,7.80958,-0.130187,-0.181498,-0.15485,0
2024-12-13 15:38:10.853,0.610469,4.37647,7.82632,-0.153399,-0.196769,-0.166456,0
2024-12-13 15:38:10.855,0.641576,4.37887,7.81915,-0.16867,-0.203488,-0.16951,0
2024-12-13 15:38:10.858,0.663111,4.39801,7.80958,-0.185163,-0.207154,-0.173175,0
2024-12-13 15:38:10.860,0.682254,4.39801,7.82154,-0.205321,-0.210819,-0.181116,0
2024-12-13 15:38:10.862,0.708575,4.37408,7.8359,-0.224257,-0.210819,-0.187836,0
2024-12-13 15:38:10.865,0.744467,4.35494,7.84307,-0.246859,-0.210819,-0.194555,0
2024-12-13 15:38:10.867,0.76361,4.32622,7.867,-0.268238,-0.207154,-0.201885,0
2024-12-13 15:38:10.869,0.773181,4.29272,7.93639,-0.293283,-0.20471,-0.209826,0
2024-12-13 15:38:10.872,0.797109,4.24008,8.03211,-0.319549,-0.201045,-0.215935,0
2024-12-13 15:38:10.876,0.818644,4.1991,8.14008,-0.367806,-0.194937,-0.229373,0
2024-12-13 15:38:10.876,0.835394,4.16561,8.25255,-0.367806,-0.194937,-0.229373,0
2024-12-13 15:38:10.879,0.845265,4.12253,8.37937,-0.389186,-0.193104,-0.236092,0
2024-12-13 15:38:10.881,0.847657,4.101,8.52054,-0.413009,-0.191882,-0.244033,0
2024-12-13 15:38:10.886,0.885943,4.07946,8.79123,-0.444773,-0.177222,-0.257472,0
2024-12-13 15:38:10.886,0.885943,4.07946,8.79123,-0.444773,-0.177222,-0.257472,0
2024-12-13 15:38:10.888,0.897907,4.07229,8.92523,-0.458212,-0.168059,-0.264191,0
2024-12-13 15:38:10.890,0.917049,4.04118,9.05683,-0.465542,-0.158897,-0.268467,0
2024-12-13 15:38:10.893,0.955334,4.02443,9.18365,-0.469818,-0.146069,-0.278241,0
2024-12-13 15:38:10.895,0.991227,4.01964,9.3012,-0.470429,-0.134463,-0.28496,0
2024-12-13 15:38:10.898,1.01755,4.00768,9.39931,-0.466764,-0.125911,-0.291069,0
2024-12-13 15:38:10.900,1.04148,4.0005,9.49263,-0.459433,-0.119192,-0.301453,0
2024-12-13 15:38:10.902,1.04865,4.00529,9.56202,-0.450882,-0.114305,-0.308783,0
2024-12-13 15:38:10.905,1.05105,4.01007,9.60748,-0.439886,-0.116137,-0.318557,0
2024-12-13 15:38:10.907,1.05344,4.01007,9.6338,-0.439886,-0.116137,-0.318557,0
2024-12-13 15:38:10.909,1.05823,4.01486,9.65295,-0.411787,-0.119802,-0.334439,0
2024-12-13 15:38:10.912,1.05105,4.02682,9.6697,-0.395905,-0.121635,-0.342991,0
2024-12-13 15:38:10.914,1.02951,4.05075,9.65773,-0.378191,-0.123468,-0.34971,0
2024-12-13 15:38:10.916,1.00798,4.08186,9.64337,-0.362309,-0.130187,-0.35704,0
2024-12-13 15:38:10.919,0.996012,4.11296,9.6338,-0.343983,-0.135074,-0.36376,0
2024-12-13 15:38:10.921,0.986441,4.16561,9.60987,-0.343983,-0.135074,-0.36376,0
2024-12-13 15:38:10.923,0.991227,4.24726,9.5668,-0.309165,-0.146069,-0.375976,0
2024-12-13 15:38:10.928,1.04865,4.37887,9.42563,-0.274347,-0.16134,-0.391248,0
2024-12-13 15:38:10.928,1.04865,4.37887,9.42563,-0.274347,-0.16134,-0.391248,0
2024-12-13 15:38:10.931,1.06301,4.47458,9.35145,-0.259076,-0.166838,-0.396745,0
2024-12-13 15:38:10.933,1.07498,4.56311,9.28445,-0.246248,-0.172335,-0.403465,0
2024-12-13 15:38:10.935,1.08933,4.64925,9.18605,-0.23342,-0.179055,-0.410184,0
2024-12-13 15:38:10.938,1.08694,4.71865,9.08076,-0.224868,-0.188828,-0.416292,0
2024-12-13 15:38:10.940,1.07258,4.79312,8.98266,-0.215705,-0.19738,-0.423623,0
2024-12-13 15:38:10.942,1.05823,4.87687,8.86302,-0.21143,-0.206543,-0.426677,0
2024-12-13 15:38:10.947,0.969691,5.04198,8.61147,-0.207154,-0.229144,-0.434007,0
2024-12-13 15:38:10.947,0.969691,5.04198,8.61147,-0.207154,-0.229144,-0.434007,0
2024-12-13 15:38:10.952,0.873978,5.19751,8.30519,-0.218149,-0.245026,-0.43584,0
2024-12-13 15:38:10.952,0.873978,5.19751,8.30519,-0.218149,-0.245026,-0.43584,0
2024-12-13 15:38:10.956,0.816252,5.35574,8.0345,-0.241361,-0.251135,-0.435229,0
2024-12-13 15:38:10.956,0.816252,5.35574,8.0345,-0.241361,-0.251135,-0.435229,0
2024-12-13 15:38:10.959,0.816252,5.45623,7.92922,-0.258465,-0.251745,-0.433396,0
2024-12-13 15:38:10.961,0.801895,5.53759,7.8694,-0.279844,-0.2548,-0.432785,0
2024-12-13 15:38:10.971,0.734896,5.77209,7.87179,-0.391019,-0.278623,-0.424233,0
2024-12-13 15:38:10.971,0.734896,5.77209,7.87179,-0.391019,-0.278623,-0.424233,0
2024-12-13 15:38:10.973,0.684646,5.80559,7.91247,-0.426448,-0.282899,-0.418736,0
2024-12-13 15:38:10.975,0.63679,5.82951,7.96032,-0.46432,-0.287175,-0.413849,0
2024-12-13 15:38:10.975,0.63679,5.82951,7.96032,-0.46432,-0.287175,-0.413849,0
2024-12-13 15:38:10.975,0.63679,5.82951,7.96032,-0.46432,-0.287175,-0.413849,0
2024-12-13 15:38:10.978,0.576969,5.84387,8.0345,-0.502804,-0.28412,-0.405908,0
2024-12-13 15:38:10.980,0.536291,5.8343,8.13021,-0.544341,-0.281677,-0.398578,0
2024-12-13 15:38:10.982,0.517149,5.8008,8.25015,-0.58649,-0.277401,-0.38575,0
2024-12-13 15:38:10.985,0.464507,5.76012,8.39133,-0.629249,-0.274347,-0.373533,0
2024-12-13 15:38:10.987,0.414257,5.72902,8.54686,-0.672008,-0.268238,-0.360705,0
2024-12-13 15:38:10.989,0.390329,5.68595,8.71945,-0.713546,-0.263352,-0.346656,0
2024-12-13 15:38:10.992,0.361615,5.62134,8.92044,-0.755084,-0.257243,-0.330774,0
2024-12-13 15:38:10.994,0.328116,5.52802,9.1358,-0.79601,-0.250524,-0.312448,0
2024-12-13 15:38:10.996,0.30658,5.42991,9.36102,-0.833272,-0.238918,-0.292901,0
2024-12-13 15:38:10.999,0.292223,5.34856,9.60509,-0.863204,-0.225479,-0.273354,0
2024-12-13 15:38:11.001,0.27996,5.27169,9.85664,-0.893135,-0.209597,-0.252585,0
2024-12-13 15:38:11.004,0.263211,5.21187,10.1198,-0.917569,-0.190661,-0.232427,0
2024-12-13 15:38:11.006,0.248854,5.14726,10.3929,-0.936505,-0.172335,-0.211659,0
2024-12-13 15:38:11.008,0.227318,5.09462,10.649,-0.949944,-0.153399,-0.192111,0
2024-12-13 15:38:11.013,0.22014,5.01087,11.1254,-0.965215,-0.118581,-0.156682,0
2024-12-13 15:38:11.013,0.22014,5.01087,11.1254,-0.965215,-0.118581,-0.156682,0
2024-12-13 15:38:11.015,0.224925,4.99412,11.3647,-0.963382,-0.100255,-0.140189,0
2024-12-13 15:38:11.018,0.234497,4.96062,11.6282,-0.955441,-0.0843733,-0.125529,0
2024-12-13 15:38:11.020,0.236889,4.92234,11.8843,-0.943225,-0.0678804,-0.11209,0
2024-12-13 15:38:11.022,0.232104,4.90798,12.1214,-0.924288,-0.0501658,-0.100484,0
2024-12-13 15:38:11.027,0.239282,4.86012,12.5258,-0.869312,-0.0159584,-0.0742179,0
2024-12-13 15:38:11.027,0.234497,4.86012,12.5258,-0.869312,-0.0159584,-0.0742179,0
2024-12-13 15:38:11.029,0.229711,4.83141,12.6793,-0.835715,-0.00374144,-0.062001,0
2024-12-13 15:38:11.032,0.229711,4.82184,12.7989,-0.792345,0.00358873,-0.0516166,0
2024-12-13 15:38:11.034,0.229711,4.79312,12.8635,-0.748364,0.00603212,-0.0412322,0
2024-12-13 15:38:11.037,0.232104,4.74975,12.8922,-0.698275,0.00786466,-0.033902,0
2024-12-13 15:38:11.039,0.232104,4.7354,12.9257,-0.648185,0.00236703,-0.0253502,0
2024-12-13 15:38:11.041,0.224925,4.72343,12.9114,-0.593209,-0.00435229,-0.0186308,0
2024-12-13 15:38:11.044,0.212961,4.70907,12.842,-0.537622,-0.0153475,-0.0137441,0
2024-12-13 15:38:11.046,0.20339,4.70668,12.7558,-0.478981,-0.0287862,-0.00885729,0
2024-12-13 15:38:11.048,0.198604,4.70668,12.6697,-0.416674,-0.0440574,-0.00397051,0
2024-12-13 15:38:11.051,0.191426,4.70668,12.5785,-0.354368,-0.0593285,-0.00213797,0
2024-12-13 15:38:11.053,0.179462,4.6995,12.4804,-0.292672,-0.0745997,-0.000305424,0
2024-12-13 15:38:11.055,0.167498,4.7019,12.3703,-0.230366,-0.0892601,0.00397051,0
2024-12-13 15:38:11.058,0.162712,4.70907,12.253,-0.168059,-0.10331,0.0064139,0
2024-12-13 15:38:11.060,0.162712,4.71625,12.1286,-0.107585,-0.118581,0.0064139,0
2024-12-13 15:38:11.062,0.167498,4.73779,11.9848,-0.0434465,-0.129576,0.00702474,0
2024-12-13 15:38:11.065,0.177069,4.75932,11.8053,0.0139731,-0.13996,0.00885729,0
2024-12-13 15:38:11.067,0.191426,4.75693,11.6019,0.0713928,-0.148512,0.0064139,0
2024-12-13 15:38:11.069,0.210568,4.75932,11.3575,0.123926,-0.158897,0.00458135,0
2024-12-13 15:38:11.072,0.20339,4.76172,11.1111,0.173404,-0.166838,0.000916271,0
2024-12-13 15:38:11.074,0.177069,4.75454,10.8715,0.218607,-0.169892,-0.00213797,0
2024-12-13 15:38:11.077,0.160319,4.74736,10.6107,0.25709,-0.172946,-0.00702474,0
2024-12-13 15:38:11.079,0.129212,4.73779,10.3519,0.291298,-0.174779,-0.00824644,0
2024-12-13 15:38:11.084,0.0598206,4.73061,9.87817,0.346274,-0.181498,-0.0113007,0
2024-12-13 15:38:11.084,0.0598206,4.73061,9.87817,0.346274,-0.181498,-0.0113007,0
2024-12-13 15:38:11.086,0.040678,4.72582,9.66491,0.366432,-0.186385,-0.0125224,0
2024-12-13 15:38:11.088,0.0191426,4.72343,9.45195,0.384223,-0.190661,-0.010079,0
2024-12-13 15:38:11.091,0.0,4.72582,9.26052,0.384223,-0.190661,-0.010079,0
2024-12-13 15:38:11.093,-0.00478565,4.72104,9.09751,0.406824,-0.197991,-0.00885729,0
2024-12-13 15:38:11.095,-0.00478565,4.71147,8.94198,0.41782,-0.199213,-0.00763559,0
2024-12-13 15:38:11.098,0.00239282,4.70429,8.79123,0.421485,-0.199213,-0.0064139,0
2024-12-13 15:38:11.100,0.00239282,4.68515,8.65693,0.425761,-0.198602,-0.0051922,0
2024-12-13 15:38:11.103,0.0119641,4.65883,8.5349,0.430036,-0.195547,-0.00458135,0
2024-12-13 15:38:11.105,0.0382852,4.62533,8.42722,0.43248,-0.192493,-0.00397051,0
2024-12-13 15:38:11.107,0.0622134,4.60379,8.31237,0.434312,-0.186385,-0.00397051,0
2024-12-13 15:38:11.110,0.0981057,4.58465,8.19033,0.437977,-0.179665,-0.00397051,0
2024-12-13 15:38:11.112,0.122034,4.56072,8.07996,0.437977,-0.176611,-0.0051922,0
2024-12-13 15:38:11.114,0.12682,4.53679,7.97229,0.436756,-0.172335,-0.00763559,0
2024-12-13 15:38:11.117,0.141177,4.51286,7.85743,0.434923,-0.170503,-0.00702474,0
2024-12-13 15:38:11.119,0.133998,4.49851,7.76411,0.436145,-0.167449,-0.00885729,0
2024-12-13 15:38:11.121,0.12682,4.47936,7.68754,0.434923,-0.165005,-0.00885729,0
2024-12-13 15:38:11.124,0.124427,4.46261,7.61815,0.434312,-0.158897,-0.0131332,0
2024-12-13 15:38:11.126,0.11007,4.46022,7.54846,0.430647,-0.15401,-0.0137441,0
2024-12-13 15:38:11.128,0.102891,4.46261,7.46949,0.427593,-0.146069,-0.0143549,0
2024-12-13 15:38:11.131,0.112463,4.47697,7.4025,0.427593,-0.141793,-0.0155766,0
2024-12-13 15:38:11.133,0.117248,4.48654,7.34028,0.427593,-0.141793,-0.0155766,0
2024-12-13 15:38:11.135,0.0981057,4.49372,7.25414,0.422706,-0.134463,-0.0155766,0
2024-12-13 15:38:11.138,0.0646062,4.49851,7.16561,0.417209,-0.131409,-0.0167983,0
2024-12-13 15:38:11.140,0.0502493,4.50329,7.101,0.412322,-0.130798,-0.01802,0
2024-12-13 15:38:11.143,0.0646062,4.51047,7.02682,0.407435,-0.130187,-0.0186308,0
2024-12-13 15:38:11.145,0.0837488,4.52483,6.94756,0.399494,-0.133852,-0.0204634,0
2024-12-13 15:38:11.147,0.0909273,4.52722,6.88774,0.390331,-0.138739,-0.0198525,0
2024-12-13 15:38:11.150,0.0861416,4.54158,6.83271,0.381169,-0.141182,-0.0229068,0
2024-12-13 15:38:11.152,0.0909273,4.54876,6.77288,0.36773,-0.144236,-0.025961,0
2024-12-13 15:38:11.154,0.105284,4.54636,6.7346,0.354215,-0.144847,-0.0247393,0
2024-12-13 15:38:11.157,0.114855,4.56072,6.69392,0.340776,-0.146069,-0.0265719,0
2024-12-13 15:38:11.159,0.119641,4.57268,6.65324,0.327949,-0.147291,-0.0265719,0
2024-12-13 15:38:11.161,0.131605,4.59183,6.62692,0.312067,-0.14668,-0.0265719,0
2024-12-13 15:38:11.164,0.153141,4.61815,6.59103,0.296795,-0.146069,-0.0277936,0
2024-12-13 15:38:11.166,0.18664,4.64447,6.56232,0.277248,-0.14668,-0.0277936,0
2024-12-13 15:38:11.168,0.222533,4.65165,6.54557,0.257701,-0.144847,-0.0302369,0
2024-12-13 15:38:11.171,0.260818,4.666,6.5336,0.239376,-0.143015,-0.0302369,0
2024-12-13 15:38:11.173,0.301795,4.69711,6.51925,0.216774,-0.13996,-0.0296261,0
2024-12-13 15:38:11.175,0.328116,4.7019,6.52642,0.191119,-0.138128,-0.0314586,0
2024-12-13 15:38:11.178,0.366401,4.70668,6.56232,0.164242,-0.134463,-0.0308478,0
2024-12-13 15:38:11.180,0.423829,4.70907,6.57189,0.142251,-0.129576,-0.0320695,0
2024-12-13 15:38:11.183,0.459721,4.72343,6.57189,0.113541,-0.127133,-0.0332912,0
2024-12-13 15:38:11.185,0.478864,4.74257,6.59342,0.0860531,-0.124078,-0.0332912,0
2024-12-13 15:38:11.187,0.507577,4.74975,6.6341,0.0561216,-0.120413,-0.0332912,0
2024-12-13 15:38:11.190,0.529113,4.77398,6.67717,0.0274118,-0.116748,-0.033902,0
2024-12-13 15:38:11.192,0.545863,4.78594,6.72264,-0.0019089,-0.111861,-0.0332912,0
2024-12-13 15:38:11.194,0.557827,4.78594,6.77049,-0.033673,-0.108807,-0.0314586,0
2024-12-13 15:38:11.197,0.574577,4.80269,6.83031,-0.0623828,-0.10331,-0.0314586,0
2024-12-13 15:38:11.199,0.600898,4.8003,6.91885,-0.0910926,-0.0996445,-0.0290152,0
2024-12-13 15:38:11.201,0.615255,4.82423,7.02204,-0.121024,-0.0947577,-0.0271827,0
2024-12-13 15:38:11.204,0.624826,4.86969,7.1345,-0.146069,-0.0886492,-0.025961,0
2024-12-13 15:38:11.206,0.65354,4.88644,7.25653,-0.170503,-0.0831516,-0.0241285,0
2024-12-13 15:38:11.208,0.684646,4.90319,7.37617,-0.193715,-0.0782648,-0.0235176,0
2024-12-13 15:38:11.211,0.71336,4.91755,7.5006,-0.213873,-0.0715455,-0.0235176,0
2024-12-13 15:38:11.213,0.744467,4.92473,7.63968,-0.213873,-0.0715455,-0.0235176,0
2024-12-13 15:38:11.218,0.789931,4.88644,7.91725,-0.265795,-0.0544418,-0.0247393,0
2024-12-13 15:38:11.218,0.789931,4.88644,7.91725,-0.265795,-0.0544418,-0.0247393,0
2024-12-13 15:38:11.220,0.799502,4.87926,8.068,-0.278623,-0.0526092,-0.0284044,0
2024-12-13 15:38:11.223,0.818644,4.86251,8.1999,-0.288396,-0.049555,-0.0308478,0
2024-12-13 15:38:11.225,0.811466,4.84816,8.3339,-0.293894,-0.0458899,-0.0326803,0
2024-12-13 15:38:11.227,0.816252,4.8338,8.4679,-0.293894,-0.0458899,-0.0326803,0
2024-12-13 15:38:11.230,0.821037,4.81705,8.58276,-0.304889,-0.0440574,-0.033902,0
2024-12-13 15:38:11.232,0.809073,4.80509,8.69522,-0.307333,-0.0397814,-0.033902,0
2024-12-13 15:38:11.235,0.809073,4.78594,8.81516,-0.309776,-0.0361163,-0.0357346,0
2024-12-13 15:38:11.237,0.799502,4.7689,8.92044,-0.311608,-0.0324513,-0.0345129,0
2024-12-13 15:38:11.239,0.775574,4.74736,9.00898,-0.310998,-0.0263428,-0.033902,0
2024-12-13 15:38:11.241,0.754038,4.71625,9.1023,-0.308554,-0.0165692,-0.0345129,0
2024-12-13 15:38:11.244,0.737288,4.70668,9.19562,-0.31283,-0.0116825,-0.0320695,0
2024-12-13 15:38:11.248,0.732503,4.63011,9.38495,-0.309776,0.00664296,-0.0247393,0
2024-12-13 15:38:11.248,0.727717,4.63011,9.38495,-0.309776,0.00664296,-0.0247393,0
2024-12-13 15:38:11.251,0.718146,4.59422,9.49502,-0.310998,0.0121406,-0.0241285,0
2024-12-13 15:38:11.253,0.715753,4.56551,9.60509,-0.307943,0.0219141,-0.0204634,0
2024-12-13 15:38:11.256,0.725324,4.52961,9.71516,-0.307943,0.0341311,-0.0174091,0
2024-12-13 15:38:11.258,0.734896,4.50329,9.83031,-0.303667,0.042683,-0.0125224,0
2024-12-13 15:38:11.260,0.74686,4.48415,9.95713,-0.300613,0.0518457,-0.00824644,0
2024-12-13 15:38:11.263,0.775574,4.45304,10.0768,-0.300613,0.0603975,-0.0051922,0
2024-12-13 15:38:11.265,0.801895,4.42911,10.1797,-0.296948,0.0707819,-0.00397051,0
2024-12-13 15:38:11.267,0.82343,4.40997,10.2706,-0.29084,0.0775012,-0.000916271,0
2024-12-13 15:38:11.270,0.837787,4.40279,10.3663,-0.284731,0.0842206,0.000305424,0
2024-12-13 15:38:11.272,0.842872,4.39801,10.4527,-0.278012,0.0891073,0.00274881,0
2024-12-13 15:38:11.274,0.845265,4.38365,10.5269,-0.278012,0.0891073,0.00274881,0
2024-12-13 15:38:11.277,0.857229,4.36929,10.5939,-0.260908,0.101324,0.00946813,0
2024-12-13 15:38:11.279,0.85005,4.34537,10.6466,-0.250524,0.106211,0.0137441,0
2024-12-13 15:38:11.281,0.85005,4.31905,10.692,-0.237696,0.108044,0.0161875,0
2024-12-13 15:38:11.284,0.857229,4.31426,10.7351,-0.219371,0.110487,0.0198525,0
2024-12-13 15:38:11.286,0.864407,4.30947,10.7638,-0.206543,0.111709,0.0235176,0
2024-12-13 15:38:11.289,0.888335,4.29033,10.7614,-0.186385,0.109876,0.0253502,0
2024-12-13 15:38:11.291,0.933799,4.27597,10.7279,-0.165005,0.108654,0.0296261,0
2024-12-13 15:38:11.293,0.972084,4.27597,10.6992,-0.145458,0.104379,0.0314586,0
2024-12-13 15:38:11.296,1.0008,4.3023,10.6705,-0.122246,0.0982701,0.0326803,0
2024-12-13 15:38:11.298,1.04387,4.31665,10.6083,-0.0965902,0.0927724,0.0308478,0
2024-12-13 15:38:11.300,1.0989,4.31665,10.5221,-0.0745997,0.086664,0.0302369,0
2024-12-13 15:38:11.303,1.1348,4.31905,10.4408,-0.0519984,0.0787229,0.0296261,0
2024-12-13 15:38:11.305,1.15155,4.31665,10.3567,-0.0281753,0.0713928,0.0284044,0
2024-12-13 15:38:11.307,1.1683,4.32862,10.2802,-0.00313059,0.0634518,0.0277936,0
2024-12-13 15:38:11.310,1.17069,4.33819,10.2012,0.0213033,0.0573433,0.0241285,0
2024-12-13 15:38:11.312,1.18505,4.35494,10.1031,0.0481806,0.0530674,0.0253502,0
2024-12-13 15:38:11.314,1.21615,4.37887,10.0074,0.0750579,0.0500131,0.0235176,0
2024-12-13 15:38:11.317,1.23529,4.40997,9.89731,0.0952158,0.0469589,0.0222959,0
2024-12-13 15:38:11.319,1.24247,4.46261,9.77737,0.116595,0.0451263,0.0192417,0
2024-12-13 15:38:11.321,1.24247,4.49372,9.66491,0.138586,0.0457372,0.0192417,0
2024-12-13 15:38:11.324,1.22094,4.52243,9.52852,0.154468,0.0432938,0.0204634,0
2024-12-13 15:38:11.326,1.21854,4.56072,9.3682,0.168517,0.0432938,0.0198525,0
2024-12-13 15:38:11.329,1.21376,4.59183,9.21715,0.181956,0.042683,0.0186308,0
2024-12-13 15:38:11.331,1.18026,4.63729,9.07598,0.190508,0.0445155,0.0192417,0
2024-12-13 15:38:11.333,1.1683,4.68993,8.94437,0.196006,0.0494023,0.0210742,0
2024-12-13 15:38:11.336,1.15155,4.72582,8.81994,0.199671,0.0542891,0.0229068,0
2024-12-13 15:38:11.338,1.11805,4.75693,8.69522,0.19906,0.0597867,0.0222959,0
2024-12-13 15:38:11.340,1.08694,4.79312,8.57079,0.197227,0.0683385,0.025961,0
2024-12-13 15:38:11.343,1.06062,4.83141,8.46311,0.191119,0.0738362,0.0296261,0
2024-12-13 15:38:11.345,1.02473,4.86012,8.39372,0.18501,0.0799446,0.0332912,0
2024-12-13 15:38:11.347,0.984048,4.89362,8.3339,0.175237,0.0842206,0.0393996,0
2024-12-13 15:38:11.350,0.96012,4.94387,8.2693,0.165463,0.0884965,0.041843,0
2024-12-13 15:38:11.352,0.950549,4.98455,8.21426,0.152025,0.0915507,0.0455081,0
2024-12-13 15:38:11.354,0.938585,5.02523,8.16401,0.137975,0.090329,0.0522274,0
2024-12-13 15:38:11.357,0.917049,5.07308,8.11586,0.122704,0.0933833,0.0565034,0
2024-12-13 15:38:11.359,0.888335,5.11137,8.07039,0.122704,0.0933833,0.0565034,0
2024-12-13 15:38:11.362,0.881157,5.14726,8.05364,0.0836097,0.094605,0.0607793,0
2024-12-13 15:38:11.365,0.871586,5.18794,8.06321,0.0390179,0.0933833,0.0693312,0
2024-12-13 15:38:11.366,0.845265,5.23101,8.09432,0.0390179,0.0933833,0.0693312,0
2024-12-13 15:38:11.369,0.830609,5.2669,8.14008,0.0176382,0.090329,0.0736071,0
2024-12-13 15:38:11.371,0.818644,5.27647,8.19751,-0.00496313,0.0878856,0.0772722,0
2024-12-13 15:38:11.373,0.804287,5.29562,8.27887,-0.0287862,0.0842206,0.0809373,0
2024-12-13 15:38:11.376,0.801895,5.33181,8.38894,-0.0550526,0.082388,0.0864349,0
2024-12-13 15:38:11.378,0.792323,5.34616,8.49661,-0.0550526,0.082388,0.0864349,0
2024-12-13 15:38:11.380,0.775574,5.35574,8.60668,-0.0953685,0.0750579,0.0943759,0
2024-12-13 15:38:11.383,0.773181,5.38684,8.7362,-0.0953685,0.0750579,0.0943759,0
2024-12-13 15:38:11.385,0.773181,5.41556,8.88455,-0.136295,0.0658951,0.102317,0
2024-12-13 15:38:11.390,0.777966,5.43709,9.15494,-0.16867,0.0567324,0.109647,0
2024-12-13 15:38:11.390,0.777966,5.43709,9.15494,-0.16867,0.0567324,0.109647,0
2024-12-13 15:38:11.392,0.799502,5.45863,9.31316,-0.18272,0.0494023,0.113312,0
2024-12-13 15:38:11.395,0.811466,5.45623,9.48066,-0.196769,0.0432938,0.116977,0
2024-12-13 15:38:11.399,0.789931,5.44906,9.80369,-0.21876,0.0292443,0.122475,0
2024-12-13 15:38:11.399,0.789931,5.44906,9.80369,-0.21876,0.0292443,0.122475,0
2024-12-13 15:38:11.404,0.773181,5.44906,10.1677,-0.232809,0.0249684,0.126751,0
2024-12-13 15:38:11.404,0.773181,5.44906,10.1677,-0.232809,0.0249684,0.126751,0
2024-12-13 15:38:11.406,0.756431,5.44427,10.3472,-0.237085,0.0268009,0.129194,0
2024-12-13 15:38:11.409,0.737288,5.4347,10.5461,-0.237085,0.0316877,0.132859,0
2024-12-13 15:38:11.411,0.739681,5.42752,10.7399,-0.237085,0.0390179,0.137822,0
2024-12-13 15:38:11.413,0.754038,5.42273,10.9337,-0.234642,0.0469589,0.138433,0
2024-12-13 15:38:11.416,0.777966,5.42752,11.123,-0.230977,0.0548999,0.140877,0
2024-12-13 15:38:11.418,0.799502,5.42513,11.2929,-0.224257,0.0646735,0.145153,0
2024-12-13 15:38:11.420,0.799502,5.42752,11.4485,-0.215705,0.0750579,0.146374,0
2024-12-13 15:38:11.423,0.787538,5.42273,11.6091,-0.210208,0.0872748,0.145763,0
2024-12-13 15:38:11.425,0.756431,5.42273,11.7766,-0.199213,0.0988809,0.147596,0
2024-12-13 15:38:11.427,0.706182,5.43231,11.9297,-0.186996,0.11293,0.15065,0
2024-12-13 15:38:11.430,0.691825,5.4347,12.0975,-0.174779,0.130645,0.15065,0
2024-12-13 15:38:11.432,0.684646,5.4347,12.253,-0.159507,0.147749,0.152483,0
2024-12-13 15:38:11.435,0.665504,5.43948,12.3847,-0.144236,0.164242,0.151872,0
2024-12-13 15:38:11.439,0.600898,5.44906,12.6721,-0.106975,0.200282,0.150039,0
2024-12-13 15:38:11.439,0.600898,5.44906,12.6721,-0.106975,0.200282,0.150039,0
2024-12-13 15:38:11.442,0.596112,5.46341,12.7893,-0.085595,0.215553,0.148818,0
2024-12-13 15:38:11.444,0.600898,5.47059,12.8851,-0.0623828,0.234489,0.146374,0
2024-12-13 15:38:11.446,0.60329,5.48973,12.9832,-0.0403923,0.253425,0.143931,0
2024-12-13 15:38:11.449,0.596112,5.53759,13.0525,-0.013515,0.272362,0.140266,0
2024-12-13 15:38:11.451,0.600898,5.57348,13.0956,0.010308,0.291909,0.132248,0
2024-12-13 15:38:11.453,0.622433,5.5998,13.1291,0.0365745,0.308401,0.124918,0
2024-12-13 15:38:11.456,0.622433,5.64527,13.1507,0.0640626,0.323673,0.11881,0
2024-12-13 15:38:11.458,0.617647,5.70987,13.1339,0.0891073,0.337722,0.110869,0
2024-12-13 15:38:11.460,0.627219,5.77209,13.0956,0.111709,0.348107,0.101706,0
2024-12-13 15:38:11.463,0.634397,5.82951,13.0454,0.136753,0.354215,0.0894891,0
2024-12-13 15:38:11.465,0.622433,5.87976,12.9879,0.15569,0.359102,0.0797156,0
2024-12-13 15:38:11.468,0.612862,5.9351,12.9281,0.172793,0.359713,0.0681095,0
2024-12-13 15:38:11.475,0.627219,6.01406,12.7534,0.197227,0.332225,0.0332912,0
2024-12-13 15:38:11.475,0.627219,6.01406,12.7534,0.197227,0.332225,0.0332912,0
2024-12-13 15:38:11.475,0.627219,6.01406,12.7534,0.197227,0.332225,0.0332912,0
2024-12-13 15:38:11.477,0.627219,6.03799,12.7056,0.201503,0.310845,0.0204634,0
2024-12-13 15:38:11.479,0.62004,6.0667,12.6482,0.199671,0.287633,0.00946813,0
2024-12-13 15:38:11.482,0.588933,6.09542,12.5904,0.193562,0.261977,-0.00458135,0
2024-12-13 15:38:11.484,0.545863,6.12174,12.5402,0.186843,0.235711,-0.0149658,0
2024-12-13 15:38:11.486,0.533899,6.15763,12.4923,0.175848,0.210055,-0.0290152,0
2024-12-13 15:38:11.489,0.541077,6.21027,12.4493,0.164242,0.183789,-0.0430647,0
2024-12-13 15:38:11.491,0.536291,6.25813,12.4086,0.147138,0.159966,-0.0565034,0
2024-12-13 15:38:11.493,0.50997,6.27966,12.4134,0.128812,0.139197,-0.0674986,0
2024-12-13 15:38:11.496,0.517149,6.30598,12.4182,0.108654,0.120871,-0.0797156,0
2024-12-13 15:38:11.498,0.524327,6.3347,12.4038,0.0848314,0.101324,-0.0937651,0
2024-12-13 15:38:11.500,0.529113,6.35623,12.4325,0.0567324,0.0799446,-0.107204,0
2024-12-13 15:38:11.503,0.562612,6.3682,12.4517,0.030466,0.0634518,-0.11881,0
2024-12-13 15:38:11.506,0.550648,6.33709,12.4684,-0.0361163,0.0268009,-0.138968,0
2024-12-13 15:38:11.508,0.490828,6.28684,12.5617,-0.0361163,0.0268009,-0.138968,0
2024-12-13 15:38:11.510,0.495613,6.26291,12.6215,-0.0715455,0.0115297,-0.145076,0
2024-12-13 15:38:11.512,0.572184,6.2677,12.6601,-0.11064,-0.00557398,-0.152406,0
2024-12-13 15:38:11.515,0.562612,6.22463,12.775,-0.150956,-0.0226777,-0.157904,0
2024-12-13 15:38:11.517,0.545863,6.16002,12.9401,-0.194937,-0.0348946,-0.159737,0
2024-12-13 15:38:11.519,0.586541,6.09302,13.1148,-0.24075,-0.0403923,-0.16218,0
2024-12-13 15:38:11.522,0.605683,6.00927,13.2586,-0.283509,-0.0397814,-0.164623,0
2024-12-13 15:38:11.525,0.62004,5.93031,13.395,-0.367196,-0.0318404,-0.162791,0
2024-12-13 15:38:11.526,0.632004,5.81276,13.5338,-0.367196,-0.0318404,-0.162791,0
2024-12-13 15:38:11.529,0.648754,5.61177,13.7372,-0.404457,-0.00923906,-0.161569,0
2024-12-13 15:38:11.531,0.684646,5.40359,14.0366,-0.437443,0.0237467,-0.162791,0
2024-12-13 15:38:11.533,0.667897,5.28844,14.3934,-0.470429,0.0310769,-0.161569,0
2024-12-13 15:38:11.536,0.555434,5.17837,14.7189,-0.501582,0.0310769,-0.157293,0
2024-12-13 15:38:11.538,0.404686,5.02044,14.9967,-0.524183,0.0316877,-0.148741,0
2024-12-13 15:38:11.541,0.292223,4.86969,15.2719,-0.546785,0.0390179,-0.132248,0
2024-12-13 15:38:11.543,0.253639,4.733,15.5761,-0.563278,0.0524565,-0.110869,0
2024-12-13 15:38:11.545,0.239282,4.57029,15.8824,-0.568164,0.0713928,-0.0907108,0
2024-12-13 15:38:11.548,0.253639,4.40519,16.1459,-0.569386,0.0964375,-0.0687203,0
2024-12-13 15:38:11.550,0.289831,4.2329,16.4115,-0.560223,0.126369,-0.041843,0
2024-12-13 15:38:11.552,0.328116,4.05793,16.6511,-0.537011,0.158133,-0.0186308,0
2024-12-13 15:38:11.555,0.373579,3.89043,16.8688,-0.508301,0.194173,0.0051922,0
2024-12-13 15:38:11.557,0.41665,3.71097,17.0746,-0.469818,0.224715,0.0265719,0
2024-12-13 15:38:11.559,0.469292,3.54078,17.2328,-0.418507,0.255869,0.0497841,0
2024-12-13 15:38:11.562,0.521934,3.39242,17.3572,-0.359255,0.2858,0.0723854,0
2024-12-13 15:38:11.564,0.600898,3.24646,17.4123,-0.287785,0.321229,0.0919325,0
2024-12-13 15:38:11.566,0.701396,3.11007,17.374,-0.209597,0.352993,0.11148,3
2024-12-13 15:38:11.569,0.737288,2.98295,17.2974,-0.1253,0.384147,0.127362,0
2024-12-13 15:38:11.571,0.720539,2.87528,17.173,-0.0324513,0.414078,0.14332,0
2024-12-13 15:38:11.573,0.703789,2.79153,16.9669,0.0652843,0.439123,0.161645,0
2024-12-13 15:38:11.576,0.660718,2.73649,16.7372,0.167907,0.457448,0.176306,0
2024-12-13 15:38:11.578,0.605683,2.69821,16.4689,0.272972,0.47333,0.192188,0
2024-12-13 15:38:11.581,0.572184,2.65753,16.153,0.379947,0.48005,0.205626,0
2024-12-13 15:38:11.583,0.54347,2.62403,15.801,0.492343,0.48066,0.216011,0
2024-12-13 15:38:11.585,0.514756,2.60249,15.4202,0.601074,0.476995,0.225784,0
2024-12-13 15:38:11.588,0.498006,2.58574,15.0422,0.711637,0.473941,0.231282,0
2024-12-13 15:38:11.590,0.517149,2.55703,14.6279,0.711637,0.473941,0.231282,0
2024-12-13 15:38:11.595,0.54347,2.4682,13.6487,1.03172,0.454394,0.24411,0
2024-12-13 15:38:11.595,0.54347,2.4682,13.6487,1.03172,0.454394,0.24411,0
2024-12-13 15:38:11.597,0.533899,2.43948,13.1267,1.13373,0.44401,0.244721,0
2024-12-13 15:38:11.599,0.505185,2.40838,12.588,1.22719,0.427517,0.242888,0
2024-12-13 15:38:11.602,0.471685,2.36531,12.0446,1.31821,0.404915,0.239834,0
2024-12-13 15:38:11.604,0.428614,2.32941,11.5086,1.40373,0.378038,0.236169,0
2024-12-13 15:38:11.606,0.364008,2.31984,10.9723,1.47947,0.348717,0.233115,0
2024-12-13 15:38:11.609,0.294616,2.34138,10.4264,1.54911,0.317564,0.229449,0
2024-12-13 15:38:11.611,0.256032,2.3677,9.87817,1.61264,0.288854,0.223952,0
2024-12-13 15:38:11.614,0.212961,2.40838,9.34666,1.66517,0.260755,0.216011,0
2024-12-13 15:38:11.616,0.148355,2.45384,8.82952,1.70732,0.232656,0.210513,0
2024-12-13 15:38:11.618,0.0933201,2.50887,8.32912,1.74458,0.204557,0.201961,0
2024-12-13 15:38:11.621,0.0430708,2.57617,7.84547,1.76718,0.178902,0.19341,0
2024-12-13 15:38:11.623,-0.00717847,2.61924,7.39292,1.78123,0.153857,0.186079,0
2024-12-13 15:38:11.625,-0.0478565,2.6671,6.97627,1.78612,0.131256,0.180582,0
2024-12-13 15:38:11.628,-0.102891,2.71735,6.58864,1.78245,0.117817,0.172641,0
2024-12-13 15:38:11.630,-0.153141,2.75563,6.21984,1.77024,0.102546,0.1647,0
2024-12-13 15:38:11.632,-0.200997,2.78913,5.85344,1.7513,0.0921616,0.156148,0
2024-12-13 15:38:11.635,-0.251246,2.82263,5.51127,1.7177,0.0848314,0.148207,0
2024-12-13 15:38:11.637,-0.299402,2.86092,5.2334,1.68105,0.0817772,0.140877,0
2024-12-13 15:38:11.639,-0.354437,2.89203,4.98455,1.63463,0.082388,0.132248,0
2024-12-13 15:38:11.642,-0.402293,2.8992,4.74975,1.57965,0.0860531,0.124918,0
2024-12-13 15:38:11.644,-0.447757,2.91835,4.53918,1.52101,0.0952158,0.120031,0
2024-12-13 15:38:11.648,-0.512363,2.94945,4.3669,1.3854,0.126369,0.109647,0
2024-12-13 15:38:11.649,-0.565005,2.97338,4.25205,1.3854,0.126369,0.109647,0
2024-12-13 15:38:11.651,-0.60329,3.00927,4.16082,1.31149,0.150192,0.108425,0
2024-12-13 15:38:11.654,-0.634397,3.04756,4.09143,1.23391,0.175848,0.105982,0
2024-12-13 15:38:11.656,-0.682254,3.07388,4.0675,1.15267,0.204557,0.101095,0
2024-12-13 15:38:11.658,-0.742074,3.08345,4.06989,1.07143,0.236322,0.101095,0
2024-12-13 15:38:11.661,-0.782752,3.1005,4.08903,0.991405,0.265642,0.0986518,0
2024-12-13 15:38:11.663,-0.825823,3.11486,4.14168,0.906497,0.297406,0.100484,0
2024-12-13 15:38:11.665,-0.869193,3.11964,4.2015,0.824644,0.324284,0.102317,0
2024-12-13 15:38:11.668,-0.926621,3.12443,4.28794,0.744623,0.351772,0.103539,0
2024-12-13 15:38:11.670,-0.984048,3.10529,4.38844,0.668878,0.377427,0.10476,0
2024-12-13 15:38:11.672,-1.03669,3.07867,4.49372,0.594965,0.398196,0.109036,0
2024-12-13 15:38:11.675,-1.09173,3.06431,4.63011,0.524107,0.421408,0.114534,0
2024-12-13 15:38:11.677,-1.1324,3.06431,4.77398,0.456303,0.440345,0.119421,0
2024-12-13 15:38:11.679,-1.18265,3.04038,4.92473,0.392775,0.450729,0.124307,0
2024-12-13 15:38:11.682,-1.23769,3.0021,5.08026,0.335279,0.462335,0.131027,0
2024-12-13 15:38:11.684,-1.27837,2.98535,5.25015,0.282135,0.464778,0.139655,0
2024-12-13 15:38:11.687,-1.32383,2.9686,5.43231,0.237543,0.465389,0.145763,0
2024-12-13 15:38:11.689,-1.35733,2.94706,5.60937,0.191119,0.464168,0.154315,0
2024-12-13 15:38:11.691,-1.37647,2.92313,5.79601,0.155079,0.459281,0.162867,0
2024-12-13 15:38:11.694,-1.39083,2.90638,5.99253,0.128202,0.447675,0.170197,0
2024-12-13 15:38:11.696,-1.39801,2.89681,6.18156,0.102546,0.433625,0.178749,0
2024-12-13 15:38:11.698,-1.38604,2.89681,6.35623,0.0848314,0.417743,0.184247,0
2024-12-13 15:38:11.701,-1.3669,2.88724,6.51925,0.0701711,0.397585,0.189744,0
2024-12-13 15:38:11.703,-1.35733,2.87767,6.67478,0.0610084,0.373762,0.195853,0
2024-12-13 15:38:11.705,-1.34297,2.88485,6.80878,0.0591758,0.346885,0.198296,0
2024-12-13 15:38:11.708,-1.32622,2.89442,6.92363,0.0573433,0.321229,0.203794,0
2024-12-13 15:38:11.710,-1.30469,2.88245,7.03639,0.0616192,0.296795,0.206237,0
2024-12-13 15:38:11.712,-1.28315,2.8657,7.11536,0.0689494,0.266253,0.210513,0
2024-12-13 15:38:11.715,-1.27358,2.87288,7.15604,0.0781121,0.236322,0.212346,0
2024-12-13 15:38:11.717,-1.25922,2.88245,7.19671,0.0921616,0.20639,0.214178,0
2024-12-13 15:38:11.720,-1.23051,2.88724,7.22782,0.104379,0.177069,0.214178,0
2024-12-13 15:38:11.722,-1.21376,2.88963,7.22543,0.120261,0.150192,0.212346,0
2024-12-13 15:38:11.724,-1.19462,2.88724,7.19193,0.13431,0.123315,0.210513,0
2024-12-13 15:38:11.727,-1.14915,2.87288,7.15604,0.150192,0.0958267,0.209902,0
2024-12-13 15:38:11.729,-1.10369,2.85613,7.11775,0.164242,0.0701711,0.206848,0
2024-12-13 15:38:11.731,-1.0654,2.85853,7.06272,0.180124,0.046348,0.202572,0
2024-12-13 15:38:11.734,-1.0343,2.8681,6.9691,0.189897,0.0219141,0.199518,0
2024-12-13 15:38:11.736,-1.00558,2.87288,6.8686,0.196616,-7.63559e-05,0.196464,0
2024-12-13 15:38:11.738,-0.97687,2.88006,6.77049,0.202114,-0.0220669,0.190966,0
2024-12-13 15:38:11.741,-0.952942,2.88245,6.66999,0.20639,-0.0428357,0.186079,0
2024-12-13 15:38:11.743,-0.921835,2.88245,6.56949,0.20639,-0.0617719,0.183636,0
2024-12-13 15:38:11.745,-0.893121,2.89681,6.47378,0.204557,-0.0770431,0.180582,0
2024-12-13 15:38:11.748,-0.869193,2.90399,6.39691,0.200892,-0.0886492,0.178749,0
2024-12-13 15:38:11.750,-0.837787,2.89681,6.31556,0.192951,-0.0990336,0.177527,0
2024-12-13 15:38:11.752,-0.797109,2.90878,6.2342,0.183789,-0.102088,0.175695,0
2024-12-13 15:38:11.755,-0.737288,2.93031,6.17677,0.17035,-0.10331,0.173862,0
2024-12-13 15:38:11.757,-0.667897,2.9327,6.12413,0.157522,-0.102088,0.173252,0
2024-12-13 15:38:11.760,-0.608076,2.9351,6.06431,0.146527,-0.0996445,0.170808,0
2024-12-13 15:38:11.762,-0.548256,2.93749,6.02602,0.129423,-0.0941468,0.169586,0
2024-12-13 15:38:11.764,-0.486042,2.9327,5.99253,0.117817,-0.085595,0.165921,0
2024-12-13 15:38:11.767,-0.423829,2.95902,5.97099,0.0976592,-0.0752106,0.163478,0
2024-12-13 15:38:11.769,-0.371187,2.97817,5.94945,0.0848314,-0.0617719,0.162256,0
2024-12-13 15:38:11.771,-0.325723,2.9686,5.92313,0.066506,-0.0477224,0.160424,0
2024-12-13 15:38:11.774,-0.289831,2.98295,5.91835,0.0512348,-0.0306187,0.154315,0
2024-12-13 15:38:11.776,-0.253639,2.99731,5.92313,0.038407,-0.0159584,0.153094,0
2024-12-13 15:38:11.778,-0.232104,3.0021,5.92313,0.0249684,-7.63559e-05,0.148818,0
2024-12-13 15:38:11.781,-0.229711,3.01884,5.92313,0.0109189,0.0170274,0.145763,0
2024-12-13 15:38:11.783,-0.234497,3.02363,5.92074,-0.000687203,0.0286335,0.145153,0
2024-12-13 15:38:11.785,-0.241675,3.0332,5.92074,-0.00862822,0.0420721,0.142098,0
2024-12-13 15:38:11.788,-0.256032,3.05713,5.92792,-0.021456,0.0500131,0.140266,0
2024-12-13 15:38:11.790,-0.27996,3.05952,5.9327,-0.0300079,0.0591758,0.138433,0
2024-12-13 15:38:11.793,-0.301795,3.05474,5.94228,-0.0355055,0.0646735,0.137212,0
2024-12-13 15:38:11.795,-0.308973,3.06192,5.95903,-0.041614,0.0732253,0.136601,0
2024-12-13 15:38:11.797,-0.304188,3.0667,5.97338,-0.0477224,0.0805555,0.137212,0
2024-12-13 15:38:11.800,-0.297009,3.08106,5.98535,-0.0507767,0.086664,0.135379,0
2024-12-13 15:38:11.802,-0.282652,3.1005,5.98774,-0.0538309,0.0921616,0.134768,0
2024-12-13 15:38:11.804,-0.275175,3.11725,5.9997,-0.0544418,0.0994917,0.132248,0
2024-12-13 15:38:11.807,-0.267996,3.12921,6.00927,-0.0544418,0.103768,0.129805,0
2024-12-13 15:38:11.810,-0.253639,3.13639,6.01885,-0.0550526,0.116595,0.123086,0
2024-12-13 15:38:11.811,-0.244068,3.14836,6.0356,-0.0550526,0.116595,0.123086,0
2024-12-13 15:38:11.814,-0.239282,3.16271,6.04517,-0.0556635,0.117817,0.119421,0
2024-12-13 15:38:11.816,-0.241675,3.19621,6.05474,-0.0568851,0.120261,0.116366,0
2024-12-13 15:38:11.818,-0.241675,3.22493,6.04277,-0.0605502,0.122093,0.115756,0
2024-12-13 15:38:11.821,-0.236889,3.24407,6.01645,-0.0642153,0.125147,0.11209,0
2024-12-13 15:38:11.823,-0.251246,3.27518,5.99731,-0.0678804,0.125758,0.109036,0
2024-12-13 15:38:11.826,-0.275175,3.31346,5.96142,-0.0739889,0.127591,0.106593,0
2024-12-13 15:38:11.828,-0.287438,3.34696,5.92553,-0.081319,0.128812,0.105371,0
2024-12-13 15:38:11.830,-0.294616,3.37089,5.89921,-0.0868167,0.128812,0.102928,0
2024-12-13 15:38:11.833,-0.299402,3.39242,5.88455,-0.0984228,0.131256,0.101706,0
2024-12-13 15:38:11.835,-0.304188,3.41635,5.87019,-0.108196,0.130034,0.0986518,0
2024-12-13 15:38:11.837,-0.297009,3.4355,5.85344,-0.120413,0.128202,0.098041,0
2024-12-13 15:38:11.840,-0.265603,3.45224,5.84866,-0.133852,0.123926,0.0949868,0
2024-12-13 15:38:11.842,-0.244068,3.46899,5.84866,-0.14668,0.120871,0.0925434,0
2024-12-13 15:38:11.844,-0.232104,3.49053,5.86062,-0.161951,0.117817,0.0901,0
2024-12-13 15:38:11.847,-0.212961,3.50728,5.87258,-0.176,0.115374,0.085824,0
2024-12-13 15:38:11.849,-0.205783,3.52642,5.87498,-0.191882,0.114152,0.082159,0
2024-12-13 15:38:11.851,-0.205783,3.52882,5.88694,-0.208375,0.11293,0.0791047,0
2024-12-13 15:38:11.854,-0.212961,3.51685,5.92313,-0.224868,0.111098,0.0742179,0
2024-12-13 15:38:11.856,-0.222533,3.5336,5.97338,-0.238307,0.111709,0.0693312,0
2024-12-13 15:38:11.858,-0.222533,3.56949,6.02124,-0.252967,0.111098,0.0674986,0
2024-12-13 15:38:11.861,-0.222533,3.58624,6.07149,-0.265795,0.113541,0.0632227,0
2024-12-13 15:38:11.863,-0.229711,3.58864,6.12892,-0.278623,0.116595,0.0595576,0
2024-12-13 15:38:11.866,-0.232104,3.59581,6.20788,-0.291451,0.119039,0.0565034,0
2024-12-13 15:38:11.868,-0.227318,3.62692,6.28684,-0.301835,0.121482,0.05406,0
2024-12-13 15:38:11.870,-0.229711,3.65354,6.35384,-0.314052,0.123926,0.0528383,0
2024-12-13 15:38:11.873,-0.241675,3.67747,6.41845,-0.321993,0.128812,0.0491732,0
2024-12-13 15:38:11.875,-0.251246,3.72772,6.49532,-0.331156,0.131256,0.0455081,0
2024-12-13 15:38:11.877,-0.267996,3.77557,6.57667,-0.34154,0.134921,0.0455081,0
2024-12-13 15:38:11.880,-0.299402,3.81147,6.66042,-0.348259,0.136143,0.0436756,0
2024-12-13 15:38:11.882,-0.347258,3.82343,6.7346,-0.354979,0.137975,0.0430647,0
2024-12-13 15:38:11.884,-0.404686,3.84018,6.81356,-0.359255,0.142251,0.0412322,0
2024-12-13 15:38:11.887,-0.4334,3.88086,6.90688,-0.361698,0.146527,0.0406213,0
2024-12-13 15:38:11.889,-0.464507,3.92393,6.99781,-0.365363,0.14897,0.0393996,0
2024-12-13 15:38:11.891,-0.481256,3.95264,7.06989,-0.364752,0.150192,0.0400105,0
2024-12-13 15:38:11.894,-0.490828,3.98614,7.13211,-0.369639,0.145916,0.0412322,0
2024-12-13 15:38:11.896,-0.524327,4.034,7.19432,-0.373304,0.146527,0.0406213,0
2024-12-13 15:38:11.899,-0.538684,4.07229,7.24696,-0.373915,0.142862,0.0412322,0
2024-12-13 15:38:11.901,-0.538684,4.12014,7.29482,-0.376358,0.138586,0.0400105,0
2024-12-13 15:38:11.903,-0.541077,4.16561,7.32593,-0.374526,0.132477,0.0375671,0
2024-12-13 15:38:11.906,-0.533899,4.19671,7.3666,-0.37758,0.123926,0.0369563,0
2024-12-13 15:38:11.908,-0.541077,4.22572,7.41925,-0.378191,0.115374,0.0351237,0
2024-12-13 15:38:11.910,-0.553041,4.25205,7.44796,-0.383688,0.107433,0.033902,0
2024-12-13 15:38:11.913,-0.557827,4.28076,7.47189,-0.386132,0.0952158,0.0290152,0
2024-12-13 15:38:11.915,-0.574577,4.3023,7.5006,-0.390408,0.0872748,0.0290152,0
2024-12-13 15:38:11.917,-0.593719,4.32622,7.52214,-0.395905,0.0781121,0.0284044,0
2024-12-13 15:38:11.920,-0.610469,4.35254,7.53649,-0.404457,0.0738362,0.0296261,0
2024-12-13 15:38:11.922,-0.629611,4.3669,7.55324,-0.412398,0.0677277,0.0271827,0
2024-12-13 15:38:11.924,-0.643968,4.38844,7.57239,-0.419118,0.0652843,0.0277936,0
2024-12-13 15:38:11.927,-0.629611,4.41954,7.59183,-0.428891,0.0652843,0.0284044,0
2024-12-13 15:38:11.929,-0.60329,4.42672,7.61576,-0.438054,0.0683385,0.0271827,0
2024-12-13 15:38:11.931,-0.608076,4.42672,7.67318,-0.448438,0.0689494,0.0284044,0
2024-12-13 15:38:11.934,-0.629611,4.44108,7.75454,-0.457601,0.0683385,0.0277936,0
2024-12-13 15:38:11.936,-0.641576,4.44586,7.82154,-0.466764,0.0713928,0.0277936,0
2024-12-13 15:38:11.939,-0.641576,4.45065,7.88854,-0.476537,0.0707819,0.0302369,0
2024-12-13 15:38:11.941,-0.643968,4.44586,7.94357,-0.484478,0.0695602,0.0314586,0
2024-12-13 15:38:11.943,-0.639183,4.46022,8.00579,-0.491808,0.0677277,0.0320695,0
2024-12-13 15:38:11.946,-0.639183,4.48176,8.07996,-0.498528,0.0677277,0.0308478,0
2024-12-13 15:38:11.948,-0.63679,4.49133,8.13261,-0.50708,0.0689494,0.0332912,0
2024-12-13 15:38:11.950,-0.615255,4.50568,8.18794,-0.515021,0.0683385,0.0332912,0
2024-12-13 15:38:11.953,-0.605683,4.53679,8.25733,-0.519297,0.0701711,0.0345129,0
2024-12-13 15:38:11.955,-0.600898,4.57268,8.31715,-0.527238,0.0732253,0.0332912,0
2024-12-13 15:38:11.957,-0.588933,4.59422,8.37458,-0.5364,0.0750579,0.0320695,0
2024-12-13 15:38:11.960,-0.579362,4.60379,8.42962,-0.54312,0.0787229,0.0314586,0
2024-12-13 15:38:11.962,-0.567398,4.62772,8.48944,-0.549228,0.0793338,0.0308478,0
2024-12-13 15:38:11.964,-0.565005,4.64208,8.5684,-0.555337,0.0817772,0.0290152,0
2024-12-13 15:38:11.967,-0.586541,4.64208,8.65454,-0.563888,0.0781121,0.0277936,0
2024-12-13 15:38:11.969,-0.608076,4.64925,8.73859,-0.568775,0.0775012,0.0284044,0
2024-12-13 15:38:11.972,-0.617647,4.65404,8.83191,-0.57244,0.074447,0.0277936,0
2024-12-13 15:38:11.974,-0.612862,4.66122,8.94916,-0.578549,0.0701711,0.0265719,0
2024-12-13 15:38:11.976,-0.593719,4.68515,9.07358,-0.581603,0.066506,0.025961,0
2024-12-13 15:38:11.979,-0.574577,4.70668,9.18844,-0.585879,0.0603975,0.0241285,0
2024-12-13 15:38:11.981,-0.562612,4.71625,9.29402,-0.585879,0.0567324,0.0222959,0
2024-12-13 15:38:11.983,-0.545863,4.74975,9.40888,-0.588322,0.0494023,0.0210742,0
2024-12-13 15:38:11.986,-0.52672,4.7689,9.52852,-0.585268,0.0487914,0.0198525,0
2024-12-13 15:38:11.988,-0.512363,4.7689,9.63859,-0.585268,0.0445155,0.01802,0
2024-12-13 15:38:11.990,-0.507577,4.78834,9.75584,-0.582825,0.0408504,0.0155766,0
2024-12-13 15:38:11.993,-0.507577,4.81227,9.87578,-0.577938,0.0420721,0.0125224,0
2024-12-13 15:38:11.995,-0.495613,4.82902,9.99063,-0.570608,0.0390179,0.010079,0
2024-12-13 15:38:11.997,-0.486042,4.83619,10.0983,-0.561445,0.0359636,0.00763559,0
2024-12-13 15:38:12.000,-0.478864,4.82423,10.1845,-0.552282,0.0292443,0.00397051,0
2024-12-13 15:38:12.002,-0.478864,4.82902,10.2754,-0.54312,0.0194708,0.00213797,0
2024-12-13 15:38:12.004,-0.471685,4.85294,10.3543,-0.531513,0.014584,-0.000916271,0
2024-12-13 15:38:12.007,-0.431007,4.8673,10.424,-0.52174,0.00419957,-0.00397051,0
2024-12-13 15:38:12.009,-0.409472,4.87687,10.4862,-0.511966,-0.00435229,-0.00824644,0
2024-12-13 15:38:12.012,-0.397508,4.88884,10.5245,-0.498528,-0.0116825,-0.0137441,0
2024-12-13 15:38:12.014,-0.385544,4.90319,10.5556,-0.486922,-0.0220669,-0.0167983,0
2024-12-13 15:38:12.016,-0.380758,4.92473,10.6059,-0.476537,-0.0275645,-0.0235176,0
2024-12-13 15:38:12.019,-0.371187,4.95344,10.6585,-0.462488,-0.0324513,-0.0290152,0
2024-12-13 15:38:12.021,-0.349651,4.97976,10.6944,-0.451492,-0.0410031,-0.0357346,0
2024-12-13 15:38:12.023,-0.349651,5.01087,10.716,-0.439886,-0.0513875,-0.0406213,0
2024-12-13 15:38:12.026,-0.361615,5.05873,10.7255,-0.427059,-0.0587177,-0.0473407,0
2024-12-13 15:38:12.028,-0.383151,5.09462,10.7399,-0.416063,-0.0660479,-0.0546708,0
2024-12-13 15:38:12.030,-0.402293,5.10419,10.7806,-0.404457,-0.0697129,-0.0577251,0
2024-12-13 15:38:12.033,-0.402293,5.14248,10.8069,-0.39224,-0.0715455,-0.0632227,0
2024-12-13 15:38:12.035,-0.392722,5.19272,10.8236,-0.380634,-0.0715455,-0.069942,0
2024-12-13 15:38:12.037,-0.361615,5.22144,10.8452,-0.370861,-0.0721563,-0.077883,0
2024-12-13 15:38:12.040,-0.337687,5.24058,10.8619,-0.355589,-0.0715455,-0.0846023,0
2024-12-13 15:38:12.042,-0.335294,5.26212,10.8954,-0.344594,-0.073378,-0.0894891,0
2024-12-13 15:38:12.045,-0.325723,5.28844,10.9265,-0.334821,-0.0758214,-0.0968193,0
2024-12-13 15:38:12.047,-0.304188,5.32672,10.9627,-0.322604,-0.0770431,-0.103539,0
2024-12-13 15:38:12.049,-0.282652,5.37727,10.989,-0.312219,-0.0764323,-0.110869,0
2024-12-13 15:38:12.052,-0.256032,5.41316,11.001,-0.300613,-0.0800973,-0.117588,0
2024-12-13 15:38:12.054,-0.236889,5.45384,11.0249,-0.292061,-0.085595,-0.124918,0
2024-12-13 15:38:12.056,-0.241675,5.5017,11.0632,-0.282288,-0.0868167,-0.130416,0
2024-12-13 15:38:12.059,-0.258425,5.52323,11.0824,-0.268849,-0.0874275,-0.136524,0
2024-12-13 15:38:12.061,-0.267996,5.52563,11.0824,-0.263352,-0.0904818,-0.140189,0
2024-12-13 15:38:12.063,-0.282652,5.55195,11.123,-0.255411,-0.0917034,-0.145687,0
2024-12-13 15:38:12.066,-0.282652,5.58784,11.1757,-0.245637,-0.0917034,-0.149352,0
2024-12-13 15:38:12.068,-0.277567,5.59741,11.214,-0.239528,-0.0917034,-0.15485,0
2024-12-13 15:38:12.070,-0.289831,5.61895,11.2714,-0.229755,-0.0923143,-0.158515,0
2024-12-13 15:38:12.073,-0.294616,5.65484,11.3384,-0.219981,-0.0904818,-0.160958,0
2024-12-13 15:38:12.075,-0.27996,5.68834,11.4102,-0.213873,-0.0886492,-0.164012,0
2024-12-13 15:38:12.078,-0.27996,5.72902,11.4772,-0.207764,-0.0849841,-0.165234,0
2024-12-13 15:38:12.080,-0.289831,5.76252,11.5517,-0.197991,-0.0825407,-0.168899,0
2024-12-13 15:38:12.082,-0.299402,5.8008,11.645,-0.189439,-0.0794865,-0.16951,0
2024-12-13 15:38:12.085,-0.292223,5.8343,11.7359,-0.183331,-0.0758214,-0.172564,0
2024-12-13 15:38:12.087,-0.289831,5.86062,11.822,-0.176,-0.0745997,-0.174397,0
2024-12-13 15:38:12.089,-0.287438,5.89921,11.9249,-0.169281,-0.073378,-0.175619,0
2024-12-13 15:38:12.092,-0.299402,5.9351,12.0302,-0.160729,-0.0715455,-0.178062,0
2024-12-13 15:38:12.094,-0.297009,5.97817,12.1358,-0.150956,-0.0678804,-0.181116,0
2024-12-13 15:38:12.096,-0.294616,6.01885,12.2267,-0.141793,-0.0678804,-0.180505,0
2024-12-13 15:38:12.099,-0.316152,6.04995,12.3033,-0.131409,-0.0684913,-0.182949,0
2024-12-13 15:38:12.101,-0.34008,6.07627,12.3847,-0.124689,-0.0703238,-0.18417,0
2024-12-13 15:38:12.103,-0.385544,6.09302,12.4517,-0.117359,-0.0709346,-0.186614,0
2024-12-13 15:38:12.106,-0.431007,6.11456,12.5187,-0.106364,-0.0739889,-0.186003,0
2024-12-13 15:38:12.108,-0.474078,6.15524,12.6191,-0.0941468,-0.0764323,-0.184781,0
2024-12-13 15:38:12.110,-0.512363,6.18634,12.7199,-0.0782648,-0.0782648,-0.182949,0
2024-12-13 15:38:12.113,-0.52672,6.20309,12.8013,-0.0642153,-0.0849841,-0.18356,0
2024-12-13 15:38:12.115,-0.52672,6.22702,12.8827,-0.0477224,-0.0898709,-0.182338,0
2024-12-13 15:38:12.118,-0.545863,6.24856,12.9568,-0.0300079,-0.0965902,-0.179284,0
2024-12-13 15:38:12.120,-0.557827,6.25334,13.0095,-0.0122933,-0.104531,-0.176229,0
2024-12-13 15:38:12.122,-0.557827,6.2677,13.0597,0.0109189,-0.113083,-0.175008,0
2024-12-13 15:38:12.125,-0.581755,6.29402,13.1148,0.0329094,-0.122857,-0.170732,0
2024-12-13 15:38:12.127,-0.60329,6.31316,13.1507,0.0555107,-0.13263,-0.167678,0
2024-12-13 15:38:12.129,-0.60329,6.31556,13.1746,0.0762796,-0.143625,-0.164623,0
2024-12-13 15:38:12.132,-0.605683,6.32273,13.1818,0.0982701,-0.151566,-0.160347,0
2024-12-13 15:38:12.134,-0.612862,6.3347,13.1916,0.119039,-0.158897,-0.156682,0
2024-12-13 15:38:12.136,-0.605683,6.33948,13.1988,0.141029,-0.170503,-0.154239,0
2024-12-13 15:38:12.139,-0.586541,6.35384,13.1964,0.159355,-0.180887,-0.152406,0
2024-12-13 15:38:12.141,-0.574577,6.38016,13.2012,0.177069,-0.193715,-0.149352,0
2024-12-13 15:38:12.143,-0.567398,6.40648,13.218,0.194173,-0.207154,-0.145687,0
2024-12-13 15:38:12.146,-0.555434,6.44238,13.2443,0.209444,-0.222425,-0.142633,0
2024-12-13 15:38:12.148,-0.553041,6.48335,13.2467,0.226548,-0.240139,-0.1408,0
2024-12-13 15:38:12.151,-0.553041,6.50489,13.2395,0.240597,-0.258465,-0.134692,0
2024-12-13 15:38:12.153,-0.541077,6.52882,13.218,0.252204,-0.277401,-0.132248,0
2024-12-13 15:38:12.155,-0.507577,6.55992,13.1794,0.265031,-0.29817,-0.127972,0
2024-12-13 15:38:12.158,-0.486042,6.58864,13.1459,0.277248,-0.315274,-0.123697,0
2024-12-13 15:38:12.160,-0.476471,6.60778,13.11,0.287633,-0.330545,-0.116977,0
2024-12-13 15:38:12.162,-0.452543,6.63649,13.0454,0.293741,-0.347038,-0.113923,0
2024-12-13 15:38:12.165,-0.426222,6.66999,12.9879,0.302904,-0.359255,-0.108425,0
2024-12-13 15:38:12.167,-0.380758,6.69153,12.9233,0.309012,-0.37025,-0.10476,0
2024-12-13 15:38:12.169,-0.332901,6.7011,12.8492,0.312067,-0.380023,-0.104149,0
2024-12-13 15:38:12.172,-0.285045,6.71546,12.7798,0.31451,-0.38491,-0.101095,0
2024-12-13 15:38:12.174,-0.234497,6.74178,12.6984,0.312677,-0.390408,-0.0986518,0
2024-12-13 15:38:12.176,-0.200997,6.74178,12.6239,0.309012,-0.390408,-0.0992627,0
2024-12-13 15:38:12.179,-0.184247,6.72742,12.5521,0.304126,-0.385521,-0.098041,0
2024-12-13 15:38:12.181,-0.177069,6.71306,12.4828,0.301071,-0.383688,-0.0968193,0
2024-12-13 15:38:12.183,-0.165105,6.67956,12.4253,0.294963,-0.37758,-0.0949868,0
2024-12-13 15:38:12.186,-0.150748,6.62214,12.3918,0.285189,-0.369028,-0.0943759,0
2024-12-13 15:38:12.188,-0.138784,6.56949,12.3799,0.276027,-0.360476,-0.0925434,0
2024-12-13 15:38:12.191,-0.12682,6.51446,12.3799,0.264421,-0.349481,-0.0901,0
2024-12-13 15:38:12.193,-0.129212,6.43759,12.3966,0.252814,-0.338486,-0.0901,0
2024-12-13 15:38:12.195,-0.131605,6.35384,12.4349,0.239987,-0.328712,-0.0876566,0
2024-12-13 15:38:12.198,-0.136391,6.27488,12.4756,0.224715,-0.318328,-0.0833807,0
2024-12-13 15:38:12.200,-0.148355,6.18395,12.5187,0.209444,-0.307333,-0.0803264,0
2024-12-13 15:38:12.202,-0.141177,6.07627,12.5976,0.192951,-0.296948,-0.0754396,0
2024-12-13 15:38:12.205,-0.129212,5.9686,12.7104,0.178902,-0.281677,-0.069942,0
2024-12-13 15:38:12.207,-0.00478565,5.91356,12.8659,0.164852,-0.270682,-0.0650552,0
2024-12-13 15:38:12.209,0.0454636,5.82951,13.0454,0.147749,-0.270071,-0.0583359,0
2024-12-13 15:38:12.212,-0.0765703,5.64527,13.2084,0.135532,-0.260908,-0.0528383,0
2024-12-13 15:38:12.214,-0.191426,5.45623,13.3807,0.120261,-0.249913,-0.0436756,0
2024-12-13 15:38:12.216,-0.248854,5.28844,13.529,0.111709,-0.24075,-0.038178,0
2024-12-13 15:38:12.219,-0.208176,5.12573,13.6247,0.102546,-0.224868,-0.033902,0
2024-12-13 15:38:12.221,-0.12682,4.9678,13.7061,0.0939941,-0.203488,-0.0320695,0
2024-12-13 15:38:12.224,-0.0167498,4.81466,13.7949,0.0878856,-0.178444,-0.0290152,0
2024-12-13 15:38:12.226,0.0837488,4.67318,13.9122,0.0836097,-0.153399,-0.0302369,0
2024-12-13 15:38:12.228,0.155533,4.52722,14.0605,0.082388,-0.128965,-0.0320695,0
2024-12-13 15:38:12.231,0.200997,4.38844,14.228,0.0860531,-0.102699,-0.0363454,0
2024-12-13 15:38:12.233,0.210568,4.25444,14.4078,0.0933833,-0.0825407,-0.0357346,0
2024-12-13 15:38:12.235,0.205783,4.11775,14.5849,0.1056,-0.0672696,-0.0363454,0
2024-12-13 15:38:12.238,0.174676,3.97418,14.7356,0.121482,-0.049555,-0.0332912,3
2024-12-13 15:38:12.240,0.131605,3.81865,14.8385,0.144694,-0.0355055,-0.0265719,0
2024-12-13 15:38:12.242,0.11007,3.67268,14.8986,0.169739,-0.0306187,-0.0198525,0
2024-12-13 15:38:12.245,0.107677,3.54556,14.8938,0.202114,-0.0245102,-0.0125224,0
2024-12-13 15:38:12.247,0.131605,3.41157,14.8289,0.238154,-0.0202343,-0.00397051,0
2024-12-13 15:38:12.249,0.172283,3.27996,14.7117,0.276027,-0.0196235,0.000916271,0
2024-12-13 15:38:12.252,0.208176,3.16271,14.5298,0.317564,-0.0202343,0.00335966,0
2024-12-13 15:38:12.254,0.258425,3.04277,14.3022,0.362156,-0.0251211,0.00458135,0
2024-12-13 15:38:12.256,0.311366,2.93031,14.0605,0.406824,-0.0324513,0.00335966,0
2024-12-13 15:38:12.259,0.354437,2.8322,13.7949,0.455081,-0.0422248,0.000916271,0
2024-12-13 15:38:12.261,0.392722,2.75085,13.5051,0.505782,-0.0562743,-0.00397051,0
2024-12-13 15:38:12.264,0.414257,2.67189,13.2108,0.556482,-0.0715455,-0.0119115,0
2024-12-13 15:38:12.266,0.428614,2.58335,12.9066,0.611458,-0.0929251,-0.0216851,0
2024-12-13 15:38:12.268,0.435793,2.50409,12.5952,0.667045,-0.116748,-0.0302369,0
2024-12-13 15:38:12.271,0.442971,2.46341,12.2794,0.7208,-0.146069,-0.0412322,0
2024-12-13 15:38:12.273,0.452543,2.42752,11.9297,0.777609,-0.173557,-0.0516166,0
2024-12-13 15:38:12.275,0.476471,2.38684,11.5421,0.833196,-0.209597,-0.0632227,0
2024-12-13 15:38:12.278,0.512363,2.34138,11.1422,0.887561,-0.244415,-0.0784939,0
2024-12-13 15:38:12.280,0.52672,2.29831,10.7255,0.940705,-0.286564,-0.0913217,0
2024-12-13 15:38:12.282,0.569791,2.26959,10.3017,0.989573,-0.329934,-0.102317,0
2024-12-13 15:38:12.285,0.632004,2.25524,9.87338,1.03783,-0.369639,-0.119421,0
2024-12-13 15:38:12.287,0.694218,2.24566,9.44956,1.08425,-0.409955,-0.136524,0
2024-12-13 15:38:12.289,0.754038,2.23131,9.04008,1.12518,-0.450882,-0.156682,0
2024-12-13 15:38:12.292,0.794716,2.22652,8.64018,1.16,-0.489976,-0.175619,0
2024-12-13 15:38:12.294,0.837787,2.23131,8.25494,1.19787,-0.532124,-0.196387,0
2024-12-13 15:38:12.297,0.869193,2.23609,7.89572,1.22902,-0.573051,-0.214713,0
2024-12-13 15:38:12.299,0.878764,2.26002,7.55803,1.25651,-0.612145,-0.235482,0
2024-12-13 15:38:12.301,0.885943,2.27916,7.22782,1.2785,-0.646964,-0.253807,0
2024-12-13 15:38:12.304,0.907478,2.28634,6.92363,1.29866,-0.681171,-0.271522,0
2024-12-13 15:38:12.306,0.929013,2.33898,6.64367,1.31027,-0.708659,-0.288625,0
2024-12-13 15:38:12.308,0.945763,2.41316,6.38495,1.31577,-0.732482,-0.305118,0
2024-12-13 15:38:12.311,0.984048,2.47777,6.13849,1.31943,-0.751418,-0.321611,0
2024-12-13 15:38:12.313,1.01276,2.55703,5.88694,1.3176,-0.765468,-0.336882,0
2024-12-13 15:38:12.315,1.0343,2.64556,5.66202,1.31027,-0.77402,-0.351543,0
2024-12-13 15:38:12.318,1.0654,2.71496,5.43948,1.29744,-0.779517,-0.36437,0
2024-12-13 15:38:12.320,1.0989,2.78674,5.2358,1.27972,-0.778296,-0.375976,0
2024-12-13 15:38:12.322,1.13958,2.87049,5.0683,1.25468,-0.770355,-0.384528,0
2024-12-13 15:38:12.325,1.1659,2.92074,4.92234,1.22597,-0.760581,-0.395524,0
2024-12-13 15:38:12.327,1.18983,2.9662,4.80509,1.1936,-0.74531,-0.401632,0
2024-12-13 15:38:12.330,1.21137,3.01884,4.72104,1.16,-0.726985,-0.40713,0
2024-12-13 15:38:12.332,1.19701,3.05713,4.63729,1.12029,-0.706216,-0.408351,0
2024-12-13 15:38:12.334,1.17787,3.09571,4.54876,1.07998,-0.684225,-0.407741,0
2024-12-13 15:38:12.337,1.17547,3.13879,4.47219,1.03416,-0.656737,-0.404686,0
2024-12-13 15:38:12.339,1.17787,3.19143,4.42433,0.985907,-0.625584,-0.40041,0
2024-12-13 15:38:12.341,1.18505,3.2345,4.39083,0.938261,-0.590766,-0.39308,0
2024-12-13 15:38:12.344,1.18983,3.268,4.3669,0.889394,-0.554726,-0.385139,0
2024-12-13 15:38:12.346,1.19701,3.30868,4.36212,0.836861,-0.516853,-0.373533,0
2024-12-13 15:38:12.348,1.1994,3.32543,4.35733,0.784328,-0.474705,-0.35704,0
2024-12-13 15:38:12.351,1.1994,3.34218,4.3669,0.733628,-0.436832,-0.34238,0
2024-12-13 15:38:12.353,1.1994,3.38525,4.39801,0.67804,-0.394684,-0.326498,0
2024-12-13 15:38:12.355,1.19222,3.41875,4.41954,0.624897,-0.354368,-0.311227,0
2024-12-13 15:38:12.358,1.18505,3.43789,4.44108,0.571753,-0.315274,-0.29168,0
2024-12-13 15:38:12.360,1.15872,3.45464,4.5009,0.51922,-0.276179,-0.272132,0
2024-12-13 15:38:12.362,1.13719,3.45224,4.54397,0.466687,-0.238918,-0.252585,0
2024-12-13 15:38:12.365,1.09651,3.45224,4.58465,0.414765,-0.20471,-0.231206,0
2024-12-13 15:38:12.367,1.04865,3.45942,4.64925,0.366432,-0.171724,-0.209215,0
2024-12-13 15:38:12.370,1.01755,3.44267,4.70668,0.318786,-0.138739,-0.186003,0
2024-12-13 15:38:12.372,0.979263,3.43071,4.78594,0.269918,-0.10331,-0.165845,0
2024-12-13 15:38:12.374,0.962513,3.41875,4.88884,0.225326,-0.0739889,-0.142633,0
2024-12-13 15:38:12.377,0.936192,3.40678,4.96062,0.181345,-0.049555,-0.120031,0
2024-12-13 15:38:12.379,0.907478,3.39003,5.05633,0.142251,-0.0275645,-0.0998735,0
2024-12-13 15:38:12.381,0.878764,3.37328,5.19272,0.103768,-0.00923906,-0.0772722,0
2024-12-13 15:38:12.384,0.837787,3.37089,5.31954,0.0707819,0.00786466,-0.0577251,0
2024-12-13 15:38:12.386,0.801895,3.37807,5.46581,0.0347419,0.0133623,-0.0357346,0
2024-12-13 15:38:12.388,0.744467,3.38525,5.6357,0.00908635,0.0200816,-0.0161875,0
2024-12-13 15:38:12.391,0.679861,3.38525,5.79601,-0.0184018,0.022525,0.00397051,0
2024-12-13 15:38:12.393,0.639183,3.38525,5.9662,-0.0397814,0.022525,0.0229068,0
2024-12-13 15:38:12.395,0.591326,3.39721,6.10977,-0.0587177,0.0213033,0.041843,0
2024-12-13 15:38:12.398,0.541077,3.39721,6.23899,-0.0739889,0.0158057,0.0613902,0
2024-12-13 15:38:12.400,0.512363,3.38046,6.36581,-0.0886492,0.0127514,0.0797156,0
2024-12-13 15:38:12.403,0.478864,3.36371,6.4666,-0.100866,0.0109189,0.0986518,0
2024-12-13 15:38:12.405,0.442971,3.35414,6.55035,-0.110029,0.00786466,0.115145,0
2024-12-13 15:38:12.407,0.440578,3.34696,6.61496,-0.118581,0.00847551,0.131638,0
2024-12-13 15:38:12.410,0.447757,3.32064,6.67717,-0.1253,0.0109189,0.146985,0
2024-12-13 15:38:12.412,0.445364,3.28475,6.74417,-0.130798,0.0151948,0.160424,0
2024-12-13 15:38:12.414,0.438186,3.24646,6.81356,-0.136906,0.0213033,0.170808,0
2024-12-13 15:38:12.417,0.4334,3.21057,6.87338,-0.141793,0.0261901,0.180582,0
2024-12-13 15:38:12.419,0.421436,3.17468,6.91885,-0.143015,0.030466,0.192188,0
2024-12-13 15:38:12.421,0.41665,3.15075,6.95952,-0.143015,0.0335202,0.199518,0
2024-12-13 15:38:12.424,0.423829,3.13161,7.00977,-0.144236,0.0371853,0.205016,0
2024-12-13 15:38:12.426,0.421436,3.11725,7.04357,-0.144236,0.0390179,0.209902,0
2024-12-13 15:38:12.428,0.4334,3.11486,7.06272,-0.144847,0.0396287,0.2154,0
2024-12-13 15:38:12.431,0.438186,3.10768,7.08425,-0.142404,0.0377962,0.219676,0
2024-12-13 15:38:12.433,0.435793,3.11246,7.09143,-0.140571,0.0371853,0.22273,0
2024-12-13 15:38:12.435,0.445364,3.11007,7.08664,-0.136906,0.0359636,0.225174,0
2024-12-13 15:38:12.438,0.438186,3.10768,7.0675,-0.134463,0.0322986,0.228228,0
2024-12-13 15:38:12.440,0.426222,3.10529,7.03639,-0.127133,0.0298552,0.228228,0
2024-12-13 15:38:12.443,0.431007,3.10289,7.02204,-0.121024,0.0268009,0.228228,0
2024-12-13 15:38:12.445,0.452543,3.10768,7.01217,-0.111861,0.0243575,0.23006,0
2024-12-13 15:38:12.447,0.471685,3.10768,6.97627,-0.107585,0.0213033,0.228228,0
2024-12-13 15:38:12.450,0.483649,3.11007,6.9332,-0.0978119,0.0170274,0.226395,0
2024-12-13 15:38:12.452,0.512363,3.12443,6.89492,-0.0898709,0.0139731,0.224563,0
2024-12-13 15:38:12.454,0.54347,3.14357,6.84945,-0.0825407,0.0121406,0.220898,0
2024-12-13 15:38:12.457,0.557827,3.15314,6.79442,-0.0697129,0.0115297,0.216011,0
2024-12-13 15:38:12.460,0.572184,3.15553,6.7346,-0.0556635,0.00603212,0.207459,0
2024-12-13 15:38:12.461,0.588933,3.16032,6.65564,-0.0556635,0.00603212,0.207459,0
2024-12-13 15:38:12.464,0.591326,3.17228,6.58146,-0.0501658,0.00114534,0.203183,0
2024-12-13 15:38:12.466,0.586541,3.18664,6.5025,-0.0465007,-0.00374144,0.195853,0
2024-12-13 15:38:12.468,0.605683,3.20578,6.39691,-0.0391706,-0.00618483,0.189134,0
2024-12-13 15:38:12.471,0.612862,3.22971,6.29163,-0.0367272,-0.00984991,0.181803,0
2024-12-13 15:38:12.473,0.598505,3.23928,6.2007,-0.0348946,-0.0153475,0.176917,0
2024-12-13 15:38:12.477,0.60329,3.25364,6.12174,-0.0367272,-0.0190126,0.160424,0
2024-12-13 15:38:12.478,0.605683,3.27996,6.04277,-0.0367272,-0.0190126,0.160424,0
2024-12-13 15:38:12.480,0.610469,3.30389,5.96381,-0.0379489,-0.0208452,0.15065,0
2024-12-13 15:38:12.483,0.612862,3.31585,5.88694,-0.0440574,-0.0220669,0.141487,0
2024-12-13 15:38:12.485,0.610469,3.32782,5.81037,-0.0519984,-0.0232886,0.13347,0
2024-12-13 15:38:12.487,0.617647,3.3326,5.7338,-0.0562743,-0.0232886,0.123697,0
2024-12-13 15:38:12.490,0.617647,3.34696,5.65484,-0.0636045,-0.0238994,0.116366,0
2024-12-13 15:38:12.492,0.617647,3.3661,5.58305,-0.0739889,-0.0251211,0.107815,0
2024-12-13 15:38:12.494,0.622433,3.37328,5.52323,-0.0837624,-0.0257319,0.0968193,0
2024-12-13 15:38:12.497,0.60329,3.37807,5.46581,-0.0965902,-0.0275645,0.0870457,0
2024-12-13 15:38:12.499,0.586541,3.38046,5.4347,-0.106975,-0.0251211,0.0772722,0
2024-12-13 15:38:12.501,0.593719,3.38764,5.40838,-0.122246,-0.0251211,0.0674986,0
2024-12-13 15:38:12.504,0.593719,3.39482,5.39641,-0.135684,-0.0220669,0.0583359,0
2024-12-13 15:38:12.506,0.600898,3.402,5.39402,-0.14668,-0.0184018,0.0491732,0
2024-12-13 15:38:12.509,0.60329,3.42832,5.38924,-0.159507,-0.0141258,0.0393996,0
2024-12-13 15:38:12.511,0.598505,3.44746,5.39641,-0.172946,-0.0110716,0.0284044,0
2024-12-13 15:38:12.513,0.596112,3.45942,5.40838,-0.186996,-0.00923906,0.0192417,0
2024-12-13 15:38:12.516,0.584148,3.47857,5.41556,-0.198602,-0.00557398,0.00946813,0
2024-12-13 15:38:12.518,0.567398,3.49292,5.41316,-0.209597,-0.00374144,0.00213797,0
2024-12-13 15:38:12.520,0.576969,3.51685,5.42034,-0.221203,-0.00557398,-0.010079,0
2024-12-13 15:38:12.523,0.586541,3.5671,5.44188,-0.234642,-0.00801737,-0.01802,0
2024-12-13 15:38:12.525,0.574577,3.60778,5.45863,-0.245637,-0.013515,-0.0271827,0
2024-12-13 15:38:12.527,0.56022,3.63649,5.48016,-0.257854,-0.0208452,-0.0369563,0
2024-12-13 15:38:12.530,0.541077,3.67029,5.50888,-0.270071,-0.0269536,-0.0485624,0
2024-12-13 15:38:12.532,0.52672,3.70858,5.5352,-0.282288,-0.0367272,-0.0565034,0
2024-12-13 15:38:12.534,0.50997,3.74447,5.55913,-0.292061,-0.0452791,-0.0662769,0
2024-12-13 15:38:12.537,0.507577,3.78275,5.59741,-0.302446,-0.0568851,-0.0723854,0
2024-12-13 15:38:12.539,0.490828,3.82104,5.64766,-0.314052,-0.0666587,-0.077883,0
2024-12-13 15:38:12.541,0.464507,3.87129,5.67637,-0.325047,-0.0764323,-0.0833807,0
2024-12-13 15:38:12.544,0.440578,3.93111,5.68355,-0.336042,-0.0819299,-0.0882674,0
2024-12-13 15:38:12.546,0.431007,3.97418,5.70269,-0.348259,-0.0843733,-0.0931542,0
2024-12-13 15:38:12.551,0.469292,4.01725,5.76491,-0.372693,-0.0825407,-0.0955976,0
2024-12-13 15:38:12.553,0.469292,4.01725,5.82234,-0.386132,-0.0831516,-0.0962084,0
2024-12-13 15:38:12.553,0.474078,4.05793,5.82234,-0.386132,-0.0831516,-0.0962084,0
2024-12-13 15:38:12.558,0.476471,4.09621,5.87976,-0.409955,-0.0794865,-0.0955976,0
2024-12-13 15:38:12.558,0.483649,4.12253,5.93749,-0.409955,-0.0794865,-0.0955976,0
2024-12-13 15:38:12.563,0.495613,4.17518,6.02124,-0.433778,-0.0727672,-0.0919325,0
2024-12-13 15:38:12.563,0.495613,4.17518,6.02124,-0.433778,-0.0727672,-0.0919325,0
2024-12-13 15:38:12.565,0.517149,4.20628,6.06431,-0.446606,-0.0660479,-0.0919325,0
2024-12-13 15:38:12.567,0.531506,4.24247,6.09302,-0.459433,-0.0593285,-0.0882674,0
2024-12-13 15:38:12.570,0.536291,4.27597,6.11934,-0.47165,-0.0519984,-0.0876566,0
2024-12-13 15:38:12.572,0.531506,4.32144,6.15045,-0.483257,-0.0428357,-0.0864349,0
2024-12-13 15:38:12.574,0.531506,4.35015,6.16481,-0.494863,-0.0342838,-0.0839915,0
2024-12-13 15:38:12.577,0.538684,4.39083,6.19113,-0.508301,-0.0281753,-0.0809373,0
2024-12-13 15:38:12.582,0.524327,4.4339,6.27488,-0.537622,-0.0171801,-0.0772722,0
2024-12-13 15:38:12.582,0.498006,4.44826,6.27488,-0.537622,-0.0171801,-0.0772722,0
2024-12-13 15:38:12.584,0.486042,4.4674,6.31077,-0.537622,-0.0171801,-0.0772722,0
2024-12-13 15:38:12.586,0.488435,4.48894,6.36102,-0.568164,-0.0116825,-0.0729962,0
2024-12-13 15:38:12.589,0.486042,4.51765,6.42563,-0.58649,-0.0116825,-0.0687203,0
2024-12-13 15:38:12.591,0.464507,4.54876,6.5025,-0.604815,-0.00801737,-0.0650552,0
2024-12-13 15:38:12.593,0.454935,4.57986,6.59342,-0.613367,-0.00374144,-0.0607793,0
2024-12-13 15:38:12.596,0.459721,4.61576,6.68196,-0.631692,-0.00313059,-0.0571142,0
2024-12-13 15:38:12.598,0.469292,4.65883,6.7681,-0.631692,-0.00313059,-0.0571142,0
2024-12-13 15:38:12.600,0.478864,4.67318,6.85663,-0.662235,0.00419957,-0.0473407,0
2024-12-13 15:38:12.603,0.486042,4.68275,6.95235,-0.673841,0.00786466,-0.0424539,0
2024-12-13 15:38:12.605,0.490828,4.70907,7.06272,-0.688501,0.0133623,-0.0387888,0
2024-12-13 15:38:12.607,0.469292,4.72582,7.17039,-0.701329,0.0206925,-0.0345129,0
2024-12-13 15:38:12.611,0.452543,4.7354,7.28286,-0.72393,0.042683,-0.0265719,0
2024-12-13 15:38:12.612,0.45015,4.74736,7.4025,-0.72393,0.042683,-0.0265719,0
2024-12-13 15:38:12.614,0.4334,4.74736,7.53889,-0.735536,0.0548999,-0.0210742,0
2024-12-13 15:38:12.617,0.409472,4.7665,7.69233,-0.744699,0.0683385,-0.0161875,0
2024-12-13 15:38:12.619,0.397508,4.79791,7.8359,-0.751418,0.0872748,-0.010079,0
2024-12-13 15:38:12.622,0.390329,4.82902,7.96989,-0.759359,0.103157,-0.00580305,0
2024-12-13 15:38:12.624,0.383151,4.85773,8.13021,-0.763025,0.117817,-0.00152712,0
2024-12-13 15:38:12.626,0.385544,4.88884,8.28844,-0.772798,0.133088,0.00335966,0
2024-12-13 15:38:12.629,0.392722,4.91994,8.41526,-0.776463,0.147138,0.00763559,0
2024-12-13 15:38:12.631,0.392722,4.94866,8.57318,-0.78135,0.161187,0.0131332,0
2024-12-13 15:38:12.633,0.378365,4.95105,8.7362,-0.784404,0.176459,0.0161875,0
2024-12-13 15:38:12.636,0.359223,4.95823,8.88216,-0.787458,0.188065,0.0210742,0
2024-12-13 15:38:12.638,0.342473,4.99173,9.02573,-0.791124,0.198449,0.0271827,0
2024-12-13 15:38:12.640,0.313759,5.01566,9.17408,-0.791124,0.198449,0.0271827,0
2024-12-13 15:38:12.643,0.304188,5.0348,9.31795,-0.79601,0.210666,0.038178,0
2024-12-13 15:38:12.647,0.316152,5.05873,9.61945,-0.794789,0.204557,0.0485624,0
2024-12-13 15:38:12.647,0.316152,5.05873,9.61945,-0.794789,0.204557,0.0485624,0
2024-12-13 15:38:12.652,0.347258,5.1018,9.92842,-0.792345,0.187454,0.0607793,0
2024-12-13 15:38:12.652,0.347258,5.1018,9.92842,-0.792345,0.187454,0.0607793,0
2024-12-13 15:38:12.655,0.349651,5.12812,10.0552,-0.789902,0.172793,0.0632227,0
2024-12-13 15:38:12.657,0.344866,5.14965,10.194,-0.787458,0.15569,0.0668878,0
2024-12-13 15:38:12.659,0.335294,5.14248,10.3304,-0.78135,0.138586,0.069942,0
2024-12-13 15:38:12.662,0.352044,5.14248,10.4647,-0.772798,0.11965,0.0736071,0
2024-12-13 15:38:12.664,0.390329,5.14248,10.6083,-0.765468,0.102546,0.0772722,0
2024-12-13 15:38:12.666,0.41665,5.14248,10.7471,-0.755694,0.0836097,0.0791047,0
2024-12-13 15:38:12.671,0.498006,5.14008,11.0297,-0.728817,0.0487914,0.0839915,0
2024-12-13 15:38:12.671,0.498006,5.14008,11.0297,-0.728817,0.0487914,0.0839915,0
2024-12-13 15:38:12.673,0.553041,5.14008,11.1852,-0.714768,0.0274118,0.0809373,0
2024-12-13 15:38:12.676,0.622433,5.1353,11.3432,-0.695831,0.00603212,0.0797156,0
2024-12-13 15:38:12.678,0.665504,5.12094,11.4963,-0.677506,-0.0165692,0.077883,0
2024-12-13 15:38:12.680,0.699003,5.10419,11.6282,-0.655515,-0.0367272,0.0754396,0
2024-12-13 15:38:12.683,0.758824,5.08744,11.7503,-0.627416,-0.057496,0.0729962,0
2024-12-13 15:38:12.685,0.811466,5.09223,11.8771,-0.600539,-0.0764323,0.0705529,0
2024-12-13 15:38:12.690,0.895514,5.11855,12.0688,-0.5364,-0.106364,0.0571142,0
2024-12-13 15:38:12.690,0.895514,5.11855,12.0688,-0.5364,-0.106364,0.0571142,0
2024-12-13 15:38:12.692,0.931406,5.13769,12.1214,-0.504025,-0.120413,0.0516166,0
2024-12-13 15:38:12.695,0.974477,5.16162,12.1525,-0.466764,-0.134463,0.0455081,0
2024-12-13 15:38:12.697,1.01037,5.18315,12.1717,-0.429502,-0.148512,0.0387888,0
2024-12-13 15:38:12.699,1.04148,5.20469,12.1717,-0.389797,-0.157675,0.0320695,0
2024-12-13 15:38:12.704,1.08694,5.25972,12.131,-0.31283,-0.173557,0.0155766,0
2024-12-13 15:38:12.704,1.08694,5.25972,12.131,-0.31283,-0.173557,0.0155766,0
2024-12-13 15:38:12.706,1.10369,5.27887,12.0637,-0.276179,-0.179665,0.00885729,0
2024-12-13 15:38:12.709,1.12283,5.29562,11.9871,-0.237085,-0.18272,0.00274881,0
2024-12-13 15:38:12.713,1.14197,5.30519,11.7646,-0.172335,-0.179665,-0.0131332,0
2024-12-13 15:38:12.713,1.14197,5.30519,11.7646,-0.172335,-0.179665,-0.0131332,0
2024-12-13 15:38:12.718,1.15394,5.33659,11.5253,-0.116748,-0.170503,-0.0284044,0
2024-12-13 15:38:12.718,1.15394,5.33659,11.5253,-0.116748,-0.170503,-0.0284044,0
2024-12-13 15:38:12.720,1.15394,5.36531,11.403,-0.0874275,-0.157064,-0.038178,0
2024-12-13 15:38:12.723,1.15633,5.39402,11.2929,-0.065437,-0.144847,-0.0436756,0
2024-12-13 15:38:12.725,1.1659,5.42752,11.1852,-0.0471116,-0.13263,-0.0497841,0
2024-12-13 15:38:12.728,1.18265,5.45863,11.0752,-0.0300079,-0.119192,-0.0558925,0
2024-12-13 15:38:12.730,1.18983,5.49452,10.9938,-0.0171801,-0.10331,-0.0638335,0
2024-12-13 15:38:12.732,1.18026,5.54716,10.9193,-0.00557398,-0.0886492,-0.0705529,0
2024-12-13 15:38:12.737,1.14915,5.62134,10.7806,0.010308,-0.0642153,-0.0760505,0
2024-12-13 15:38:12.738,1.14915,5.62134,10.7806,0.0127514,-0.0568851,-0.0797156,0
2024-12-13 15:38:12.742,1.14437,5.74337,10.7064,0.0164165,-0.0483333,-0.0827698,0
2024-12-13 15:38:12.742,1.14437,5.74337,10.7064,0.0164165,-0.0483333,-0.0827698,0
2024-12-13 15:38:12.744,1.13001,5.78405,10.6753,0.014584,-0.0446682,-0.0839915,0
2024-12-13 15:38:12.746,1.12762,5.83191,10.6442,0.0151948,-0.0391706,-0.0870457,0
2024-12-13 15:38:12.749,1.13001,5.88455,10.6226,0.0151948,-0.037338,-0.0852132,0
2024-12-13 15:38:12.751,1.12044,5.9351,10.6155,0.0133623,-0.033673,-0.085824,0
2024-12-13 15:38:12.753,1.13719,5.97817,10.6107,0.0121406,-0.0312296,-0.0852132,0
2024-12-13 15:38:12.756,1.14676,6.01645,10.6226,0.00725381,-0.0287862,-0.0846023,0
2024-12-13 15:38:12.761,1.13001,6.11934,10.7136,0.00603212,-0.0257319,-0.0846023,0
2024-12-13 15:38:12.761,1.13001,6.11934,10.7136,0.00603212,-0.0257319,-0.0846023,0
2024-12-13 15:38:12.763,1.12044,6.16481,10.7614,0.00297788,-0.0263428,-0.0839915,0
2024-12-13 15:38:12.765,1.12283,6.20549,10.8356,0.00542127,-0.0269536,-0.0797156,0
2024-12-13 15:38:12.768,1.11805,6.25334,10.9361,0.00419957,-0.0275645,-0.077883,0
2024-12-13 15:38:12.770,1.10848,6.30838,11.0297,0.00786466,-0.0300079,-0.0760505,0
2024-12-13 15:38:12.772,1.0989,6.35145,11.1135,0.00847551,-0.0300079,-0.0729962,0
2024-12-13 15:38:12.775,1.09173,6.38016,11.2235,0.014584,-0.0318404,-0.0668878,0
2024-12-13 15:38:12.777,1.08455,6.42084,11.3312,0.0213033,-0.0330621,-0.0662769,0
2024-12-13 15:38:12.779,1.0654,6.46421,11.4317,0.0255792,-0.0330621,-0.0601685,0
2024-12-13 15:38:12.782,1.05583,6.48814,11.554,0.0335202,-0.0312296,-0.0571142,0
2024-12-13 15:38:12.784,1.06301,6.51446,11.6856,0.0396287,-0.029397,-0.0528383,0
2024-12-13 15:38:12.789,1.0654,6.60539,11.889,0.0573433,-0.021456,-0.0455081,0
2024-12-13 15:38:12.789,1.0654,6.60539,11.889,0.0573433,-0.021456,-0.0455081,0
2024-12-13 15:38:12.791,1.07258,6.65564,11.9824,0.0628409,-0.0177909,-0.0436756,0
2024-12-13 15:38:12.793,1.0654,6.69871,12.0613,0.0695602,-0.0129041,-0.038178,0
2024-12-13 15:38:12.796,1.06062,6.73939,12.1262,0.074447,-0.00496313,-0.0363454,0
2024-12-13 15:38:12.798,1.05105,6.78724,12.2004,0.0817772,0.00908635,-0.0332912,0
2024-12-13 15:38:12.801,1.04626,6.81835,12.2483,0.0884965,0.0255792,-0.0290152,0
2024-12-13 15:38:12.803,1.03908,6.86381,12.2961,0.0952158,0.0445155,-0.0247393,0
2024-12-13 15:38:12.808,1.00558,6.98345,12.4062,0.101324,0.0842206,-0.0149658,0
2024-12-13 15:38:12.808,0.967299,6.98345,12.4062,0.101324,0.0842206,-0.0149658,0
2024-12-13 15:38:12.810,0.926621,7.04597,12.4277,0.102546,0.103157,-0.00885729,0
2024-12-13 15:38:12.812,0.893121,7.10339,12.4349,0.104379,0.126369,-0.00335966,0
2024-12-13 15:38:12.815,0.862014,7.15364,12.4469,0.103768,0.14897,0.00274881,0
2024-12-13 15:38:12.817,0.837787,7.17278,12.4445,0.101935,0.170961,0.010079,0
2024-12-13 15:38:12.819,0.828216,7.18236,12.4493,0.0958267,0.192341,0.0149658,0
2024-12-13 15:38:12.822,0.821037,7.18236,12.4732,0.0927724,0.216164,0.0198525,0
2024-12-13 15:38:12.826,0.782752,7.17996,12.5521,0.0793338,0.262588,0.0216851,0
2024-12-13 15:38:12.826,0.782752,7.17996,12.5521,0.0793338,0.262588,0.0216851,0
2024-12-13 15:38:12.829,0.74686,7.16561,12.612,0.0701711,0.281524,0.0229068,0
2024-12-13 15:38:12.831,0.71336,7.15843,12.6553,0.0610084,0.30046,0.0222959,0
2024-12-13 15:38:12.834,0.677468,7.15843,12.7271,0.0524565,0.315732,0.0216851,0
2024-12-13 15:38:12.836,0.629611,7.14168,12.8037,0.0439046,0.328559,0.0192417,0
2024-12-13 15:38:12.838,0.555434,7.11775,12.8731,0.0329094,0.338333,0.0149658,0
2024-12-13 15:38:12.841,0.490828,7.09621,12.9544,0.0255792,0.35055,0.0119115,0
2024-12-13 15:38:12.843,0.426222,7.08664,13.031,0.0151948,0.357269,0.00824644,0
2024-12-13 15:38:12.845,0.342473,7.0675,13.0932,0.00542127,0.362767,0.00580305,0
2024-12-13 15:38:12.848,0.272782,7.01217,13.1674,-0.00374144,0.366432,0.00213797,0
2024-12-13 15:38:12.850,0.198604,6.94517,13.261,-0.0171801,0.368265,-0.000305424,0
2024-12-13 15:38:12.852,0.114855,6.87099,13.3496,-0.0287862,0.37193,-0.00213797,0
2024-12-13 15:38:12.855,0.0430708,6.79681,13.4453,-0.0410031,0.373151,-0.00335966,0
2024-12-13 15:38:12.857,0.00239282,6.70828,13.5673,-0.0532201,0.373151,-0.00213797,0
2024-12-13 15:38:12.859,-0.0191426,6.61017,13.6989,-0.0678804,0.368875,-0.00213797,0
2024-12-13 15:38:12.862,-0.0502493,6.50728,13.8236,-0.0837624,0.359713,-0.000916271,0
2024-12-13 15:38:12.864,-0.0837488,6.37777,13.9528,-0.100255,0.346885,-0.000305424,0
2024-12-13 15:38:12.866,-0.122034,6.2342,14.0821,-0.11797,0.32917,0.000916271,0
2024-12-13 15:38:12.869,-0.16989,6.07627,14.2256,-0.135684,0.310234,0.00458135,0
2024-12-13 15:38:12.871,-0.229711,5.9016,14.3791,-0.153399,0.288244,0.00702474,0
2024-12-13 15:38:12.875,-0.287438,5.71944,14.5274,-0.185163,0.252204,0.0222959,0
2024-12-13 15:38:12.876,-0.316152,5.5328,14.6686,-0.185163,0.252204,0.0222959,0
2024-12-13 15:38:12.878,-0.330509,5.34377,14.8074,-0.198602,0.239987,0.0302369,0
2024-12-13 15:38:12.883,-0.277567,5.00608,15.1403,-0.21876,0.216164,0.0479515,0
2024-12-13 15:38:12.883,-0.277567,5.00608,15.1403,-0.21876,0.216164,0.0479515,0
2024-12-13 15:38:12.885,-0.241675,4.83619,15.3413,-0.223646,0.203947,0.0558925,0
2024-12-13 15:38:12.888,-0.234497,4.63729,15.545,-0.223036,0.192951,0.0656661,0
2024-12-13 15:38:12.892,-0.224925,4.27358,15.923,-0.198602,0.176459,0.0815481,0
2024-12-13 15:38:12.892,-0.224925,4.27358,15.923,-0.198602,0.176459,0.0815481,0
2024-12-13 15:38:12.897,-0.172283,3.91675,16.1674,-0.148512,0.172793,0.0986518,0
2024-12-13 15:38:12.897,-0.172283,3.91675,16.1674,-0.148512,0.172793,0.0986518,0
2024-12-13 15:38:12.899,-0.174676,3.75883,16.244,-0.111251,0.177069,0.110258,0
2024-12-13 15:38:12.902,-0.193819,3.60539,16.3158,-0.0660479,0.183178,0.120031,3
2024-12-13 15:38:12.904,-0.198604,3.43071,16.3277,-0.0104608,0.192341,0.132859,0
2024-12-13 15:38:12.907,-0.215354,3.27996,16.299,0.0524565,0.202725,0.146374,0
2024-12-13 15:38:12.911,-0.138784,2.99492,16.0741,0.203336,0.235711,0.178138,0
2024-12-13 15:38:12.911,-0.138784,2.99492,16.0741,0.203336,0.235711,0.178138,0
2024-12-13 15:38:12.914,-0.0191426,2.87288,15.856,0.287633,0.255258,0.18669,0
2024-12-13 15:38:12.917,0.081356,2.75324,15.5904,0.475239,0.304126,0.209902,0
2024-12-13 15:38:12.918,0.165105,2.63839,15.2886,0.475239,0.304126,0.209902,0
2024-12-13 15:38:12.921,0.22014,2.54746,14.9728,0.571753,0.324894,0.216622,0
2024-12-13 15:38:12.925,0.251246,2.41316,14.2496,0.766002,0.35788,0.233725,0
2024-12-13 15:38:12.925,0.239282,2.41316,14.2496,0.766002,0.35788,0.233725,0
2024-12-13 15:38:12.928,0.210568,2.38445,13.8667,0.86496,0.371319,0.239223,0
2024-12-13 15:38:12.930,0.189033,2.34616,13.4548,0.965139,0.385979,0.245332,0
2024-12-13 15:38:12.932,0.153141,2.30788,13.0047,1.06165,0.396364,0.252051,0
2024-12-13 15:38:12.935,0.138784,2.30309,12.5474,1.15328,0.40858,0.258159,0
2024-12-13 15:38:12.939,0.157926,2.29352,11.5851,1.33165,0.423852,0.265489,0
2024-12-13 15:38:12.939,0.157926,2.29352,11.5851,1.33165,0.423852,0.265489,0
2024-12-13 15:38:12.942,0.18664,2.31266,11.0848,1.41472,0.426906,0.268544,0
2024-12-13 15:38:12.944,0.22014,2.34377,10.5724,1.49047,0.427517,0.266711,0
2024-12-13 15:38:12.947,0.260818,2.36531,10.0624,1.55949,0.424462,0.264268,0
2024-12-13 15:38:12.949,0.289831,2.4012,9.5668,1.6218,0.420797,0.25877,0
2024-12-13 15:38:12.954,0.270389,2.48734,8.6019,1.72198,0.403694,0.241666,0
2024-12-13 15:38:12.954,0.270389,2.48734,8.6019,1.72198,0.403694,0.241666,0
2024-12-13 15:38:12.956,0.236889,2.53549,8.11586,1.76046,0.395753,0.231893,0
2024-12-13 15:38:12.958,0.181855,2.6001,7.63968,1.78917,0.387201,0.221508,0
2024-12-13 15:38:12.961,0.114855,2.67906,7.18953,1.80933,0.375595,0.214178,0
2024-12-13 15:38:12.963,0.0454636,2.76281,6.75613,1.81849,0.369486,0.204405,0
2024-12-13 15:38:12.965,-0.040678,2.84417,6.33948,1.81788,0.361545,0.195242,0
2024-12-13 15:38:12.968,-0.131605,2.91835,5.95424,1.80994,0.352383,0.190355,0
2024-12-13 15:38:12.970,-0.20339,2.99731,5.57109,1.79039,0.346885,0.183636,0
2024-12-13 15:38:12.972,-0.277567,3.08584,5.24297,1.76107,0.335279,0.178138,0
2024-12-13 15:38:12.977,-0.402293,3.24885,4.69233,1.67678,0.315121,0.168976,0
2024-12-13 15:38:12.977,-0.402293,3.24885,4.69233,1.67678,0.315121,0.168976,0
2024-12-13 15:38:12.980,-0.459721,3.32064,4.46022,1.62302,0.309012,0.163478,0
2024-12-13 15:38:12.982,-0.505185,3.38046,4.24965,1.56316,0.298628,0.160424,0
2024-12-13 15:38:12.987,-0.54347,3.49532,3.91197,1.42327,0.290076,0.156148,0
2024-12-13 15:38:12.987,-0.610469,3.49532,3.91197,1.42327,0.290076,0.156148,0
2024-12-13 15:38:12.989,-0.684646,3.56231,3.82582,1.34264,0.287022,0.153094,0
2024-12-13 15:38:12.991,-0.742074,3.59581,3.74208,1.26445,0.291298,0.15065,0
2024-12-13 15:38:12.994,-0.813859,3.62692,3.68226,1.17832,0.292519,0.151872,0
2024-12-13 15:38:12.996,-0.907478,3.65354,3.67268,1.09281,0.29985,0.156148,0
2024-12-13 15:38:12.998,-0.99362,3.67986,3.70618,1.00607,0.309623,0.15798,0
2024-12-13 15:38:13.001,-1.07498,3.70858,3.77318,0.918714,0.320618,0.164089,0
2024-12-13 15:38:13.003,-1.15155,3.73011,3.87129,0.833807,0.3365,0.171419,0
2024-12-13 15:38:13.005,-1.19701,3.73968,3.99811,0.750731,0.353604,0.178749,0
2024-12-13 15:38:13.008,-1.23051,3.7325,4.12971,0.671321,0.37254,0.188523,0
2024-12-13 15:38:13.010,-1.25922,3.7349,4.29751,0.597409,0.392698,0.201351,0
2024-12-13 15:38:13.013,-1.27837,3.73968,4.48415,0.528383,0.414689,0.209902,0
2024-12-13 15:38:13.015,-1.27119,3.72772,4.65883,0.459968,0.436679,0.219676,0
2024-12-13 15:38:13.020,-1.21854,3.67508,5.0013,0.340776,0.48066,0.242277,0
2024-12-13 15:38:13.020,-1.21854,3.67508,5.0013,0.340776,0.48066,0.242277,0
2024-12-13 15:38:13.022,-1.19222,3.62692,5.17358,0.290076,0.497764,0.25144,0
2024-12-13 15:38:13.024,-1.17787,3.58146,5.36052,0.243652,0.511203,0.262435,0
2024-12-13 15:38:13.027,-1.15872,3.53121,5.56152,0.203336,0.521587,0.270376,0
2024-12-13 15:38:13.029,-1.14676,3.48096,5.79123,0.164242,0.526474,0.281982,0
2024-12-13 15:38:13.031,-1.13958,3.44507,6.02363,0.13431,0.526474,0.292367,0
2024-12-13 15:38:13.034,-1.12283,3.43071,6.24616,0.109265,0.521587,0.299697,0
2024-12-13 15:38:13.036,-1.08694,3.41157,6.45195,0.090329,0.513035,0.310081,0
2024-12-13 15:38:13.038,-1.04865,3.402,6.63889,0.0775012,0.502651,0.319855,0
2024-12-13 15:38:13.041,-1.00558,3.402,6.8016,0.0689494,0.491045,0.330239,0
2024-12-13 15:38:13.043,-0.933799,3.40917,6.9356,0.0628409,0.478828,0.336348,0
2024-12-13 15:38:13.045,-0.864407,3.40917,7.04118,0.0640626,0.463557,0.343067,0
2024-12-13 15:38:13.048,-0.80668,3.40439,7.12971,0.0622301,0.447675,0.348565,0
2024-12-13 15:38:13.050,-0.751645,3.39482,7.20389,0.0646735,0.427517,0.353451,0
2024-12-13 15:38:13.053,-0.71336,3.37089,7.27328,0.0695602,0.403694,0.358949,0
2024-12-13 15:38:13.057,-0.663111,3.28235,7.34985,0.0732253,0.351161,0.360171,0
2024-12-13 15:38:13.057,-0.663111,3.28235,7.34985,0.0732253,0.351161,0.360171,0
2024-12-13 15:38:13.060,-0.629611,3.24407,7.38575,0.0750579,0.326727,0.361392,0
2024-12-13 15:38:13.062,-0.610469,3.21057,7.40489,0.0781121,0.299239,0.363225,0
2024-12-13 15:38:13.064,-0.598505,3.18186,7.42882,0.0775012,0.272362,0.365668,0
2024-12-13 15:38:13.067,-0.572184,3.15553,7.43121,0.0787229,0.246706,0.366279,0
2024-12-13 15:38:13.069,-0.553041,3.13161,7.41446,0.0768904,0.219829,0.368723,0
2024-12-13 15:38:13.071,-0.536291,3.11007,7.40728,0.074447,0.192341,0.369944,0
2024-12-13 15:38:13.074,-0.498006,3.08106,7.39053,0.0750579,0.166685,0.372388,0
2024-12-13 15:38:13.077,-0.45015,3.0667,7.38096,0.0707819,0.121482,0.372999,0
2024-12-13 15:38:13.081,-0.373579,3.02842,7.36182,0.0677277,0.100103,0.370555,0
2024-12-13 15:38:13.081,-0.373579,3.02842,7.36182,0.0677277,0.100103,0.370555,0
2024-12-13 15:38:13.086,-0.335294,3.02363,7.34985,0.0652843,0.0579541,0.369334,0
2024-12-13 15:38:13.086,-0.287438,3.01884,7.31635,0.0652843,0.0579541,0.369334,0
2024-12-13 15:38:13.088,-0.234497,3.01406,7.28764,0.0634518,0.0396287,0.36689,0
2024-12-13 15:38:13.090,-0.174676,2.99252,7.26611,0.0628409,0.0237467,0.362614,0
2024-12-13 15:38:13.093,-0.105284,2.96381,7.235,0.0610084,0.00786466,0.361392,0
2024-12-13 15:38:13.095,-0.0526421,2.95185,7.18953,0.0628409,-0.00313059,0.355895,0
2024-12-13 15:38:13.097,0.0,2.94706,7.13689,0.0610084,-0.0147367,0.351619,0
2024-12-13 15:38:13.100,0.0430708,2.93988,7.09621,0.0634518,-0.0208452,0.3449,0
2024-12-13 15:38:13.102,0.0693919,2.92792,7.034,0.066506,-0.0269536,0.33818,0
2024-12-13 15:38:13.104,0.0957129,2.91595,6.98585,0.0677277,-0.0269536,0.332683,0
2024-12-13 15:38:13.107,0.136391,2.89203,6.95235,0.0707819,-0.0269536,0.327796,0
2024-12-13 15:38:13.109,0.172283,2.88963,6.89492,0.0756687,-0.0232886,0.322909,0
2024-12-13 15:38:13.114,0.239282,2.8992,6.75613,0.0842206,-0.0110716,0.308249,0
2024-12-13 15:38:13.114,0.239282,2.8992,6.75613,0.0842206,-0.0110716,0.308249,0
2024-12-13 15:38:13.116,0.267996,2.90638,6.68914,0.0897182,-0.0019089,0.304584,0
2024-12-13 15:38:13.118,0.308973,2.90399,6.61735,0.0976592,0.0109189,0.299697,0
2024-12-13 15:38:13.121,0.313759,2.90878,6.55035,0.106211,0.0255792,0.291756,0
2024-12-13 15:38:13.123,0.32333,2.91117,6.47857,0.113541,0.0414613,0.28748,0
2024-12-13 15:38:13.128,0.335294,2.92074,6.32991,0.129423,0.074447,0.278928,0
2024-12-13 15:38:13.128,0.335294,2.92074,6.32991,0.129423,0.074447,0.278928,0
2024-12-13 15:38:13.133,0.371187,2.93988,6.2007,0.145916,0.108654,0.272209,0
2024-12-13 15:38:13.135,0.387936,2.9662,6.11695,0.158133,0.122093,0.267933,0
2024-12-13 15:38:13.135,0.387936,2.9662,6.11695,0.158133,0.122093,0.267933,0
2024-12-13 15:38:13.137,0.407079,2.98774,6.01406,0.166685,0.136143,0.263046,0
2024-12-13 15:38:13.140,0.428614,3.01406,5.91596,0.171572,0.146527,0.256327,0
2024-12-13 15:38:13.142,0.452543,3.03799,5.81037,0.178291,0.156911,0.249607,0
2024-12-13 15:38:13.147,0.459721,3.08106,5.59023,0.182567,0.171572,0.238001,0
2024-12-13 15:38:13.147,0.445364,3.08106,5.59023,0.182567,0.171572,0.238001,0
2024-12-13 15:38:13.149,0.438186,3.1005,5.49452,0.182567,0.171572,0.238001,0
2024-12-13 15:38:13.151,0.435793,3.12443,5.39641,0.182567,0.181956,0.226395,0
2024-12-13 15:38:13.154,0.426222,3.15075,5.28126,0.180734,0.183789,0.220287,0
2024-12-13 15:38:13.156,0.414257,3.1675,5.19512,0.175848,0.180734,0.212957,0
2024-12-13 15:38:13.159,0.419043,3.201,5.1018,0.167907,0.176459,0.207459,0
2024-12-13 15:38:13.161,0.428614,3.23689,4.99173,0.160576,0.171572,0.20074,0
2024-12-13 15:38:13.163,0.421436,3.25603,4.9008,0.150803,0.167296,0.192188,0
2024-12-13 15:38:13.166,0.423829,3.28475,4.80987,0.139197,0.160576,0.187912,0
2024-12-13 15:38:13.168,0.435793,3.33021,4.72582,0.124536,0.155079,0.181803,0
2024-12-13 15:38:13.170,0.423829,3.36132,4.64447,0.109876,0.14836,0.174473,0
2024-12-13 15:38:13.173,0.407079,3.38046,4.55115,0.094605,0.146527,0.168365,0
2024-12-13 15:38:13.175,0.395115,3.40439,4.47936,0.0750579,0.145916,0.1647,0
2024-12-13 15:38:13.177,0.3999,3.42592,4.41715,0.0555107,0.143473,0.156148,0
2024-12-13 15:38:13.180,0.3999,3.4666,4.37169,0.0365745,0.14164,0.151261,0
2024-12-13 15:38:13.184,0.428614,3.55753,4.31426,-0.00923906,0.140419,0.139044,0
2024-12-13 15:38:13.184,0.428614,3.55753,4.31426,-0.00923906,0.140419,0.139044,0
2024-12-13 15:38:13.189,0.438186,3.61735,4.26401,-0.057496,0.140419,0.126751,0
2024-12-13 15:38:13.189,0.438186,3.61735,4.26401,-0.057496,0.140419,0.126751,0
2024-12-13 15:38:13.192,0.4334,3.66311,4.2664,-0.057496,0.140419,0.126751,0
2024-12-13 15:38:13.194,0.414257,3.71575,4.25444,-0.107585,0.144084,0.11148,0
2024-12-13 15:38:13.196,0.392722,3.7684,4.2329,-0.134463,0.145916,0.109036,0
2024-12-13 15:38:13.199,0.366401,3.81865,4.21855,-0.158897,0.145305,0.102317,0
2024-12-13 15:38:13.201,0.335294,3.87368,4.21376,-0.185774,0.144084,0.0992627,0
2024-12-13 15:38:13.203,0.282652,3.91675,4.21615,-0.217538,0.143473,0.0968193,0
2024-12-13 15:38:13.206,0.260818,3.95743,4.21376,-0.24808,0.143473,0.0931542,0
2024-12-13 15:38:13.208,0.267996,4.00289,4.24008,-0.278623,0.14164,0.0901,0
2024-12-13 15:38:13.210,0.251246,4.04836,4.27119,-0.310998,0.139197,0.0864349,0
2024-12-13 15:38:13.213,0.217747,4.09143,4.31187,-0.339707,0.135532,0.0827698,0
2024-12-13 15:38:13.217,0.196211,4.14407,4.45065,-0.400181,0.128202,0.0742179,0
2024-12-13 15:38:13.217,0.191426,4.14407,4.45065,-0.400181,0.128202,0.0742179,0
2024-12-13 15:38:13.220,0.196211,4.16561,4.54876,-0.430724,0.123926,0.0705529,0
2024-12-13 15:38:13.222,0.196211,4.17757,4.64925,-0.460044,0.120261,0.0650552,0
2024-12-13 15:38:13.227,0.160319,4.21855,4.87687,-0.511356,0.11293,0.0571142,0
2024-12-13 15:38:13.227,0.160319,4.21855,4.87687,-0.511356,0.11293,0.0571142,0
2024-12-13 15:38:13.232,0.136391,4.28076,5.10898,-0.566332,0.108654,0.0479515,0
2024-12-13 15:38:13.232,0.136391,4.28076,5.10898,-0.566332,0.108654,0.0479515,0
2024-12-13 15:38:13.236,0.117248,4.29512,5.41316,-0.611534,0.1056,0.038178,0
2024-12-13 15:38:13.236,0.117248,4.29512,5.41316,-0.611534,0.1056,0.038178,0
2024-12-13 15:38:13.239,0.119641,4.3334,5.54477,-0.632303,0.104989,0.0357346,0
2024-12-13 15:38:13.241,0.0909273,4.37647,5.68834,-0.653683,0.101935,0.0320695,0
2024-12-13 15:38:13.246,0.0454636,4.41715,5.97338,-0.695221,0.090329,0.0265719,0
2024-12-13 15:38:13.246,0.0454636,4.41715,5.97338,-0.695221,0.090329,0.0265719,0
2024-12-13 15:38:13.248,0.026321,4.45065,6.12413,-0.715379,0.0817772,0.0229068,0
2024-12-13 15:38:13.250,0.0,4.47697,6.27488,-0.734315,0.0713928,0.0204634,0
2024-12-13 15:38:13.253,-0.0358923,4.49372,6.43998,-0.753251,0.0603975,0.0186308,0
2024-12-13 15:38:13.255,-0.0526421,4.52243,6.59103,-0.769744,0.050624,0.0192417,0
2024-12-13 15:38:13.260,-0.0981057,4.56072,6.90688,-0.801508,0.0341311,0.0210742,0
2024-12-13 15:38:13.260,-0.0981057,4.56072,6.90688,-0.801508,0.0341311,0.0210742,0
2024-12-13 15:38:13.262,-0.0981057,4.55833,7.05793,-0.814336,0.0310769,0.0216851,0
2024-12-13 15:38:13.265,-0.0837488,4.5679,7.20389,-0.827164,0.030466,0.0222959,0
2024-12-13 15:38:13.267,-0.0622134,4.58226,7.34507,-0.839991,0.0310769,0.0241285,0
2024-12-13 15:38:13.269,-0.0502493,4.59901,7.49103,-0.847322,0.0347419,0.0253502,0
2024-12-13 15:38:13.272,-0.0311067,4.61815,7.62533,-0.855263,0.0402396,0.0222959,0
2024-12-13 15:38:13.274,-0.0119641,4.61815,7.76411,-0.863814,0.0457372,0.0247393,0
2024-12-13 15:38:13.276,-0.00957129,4.62054,7.90768,-0.869312,0.0536782,0.0253502,0
2024-12-13 15:38:13.279,-0.0119641,4.63011,8.068,-0.874199,0.0658951,0.0247393,0
2024-12-13 15:38:13.281,-0.0143569,4.65165,8.21426,-0.877864,0.0762796,0.0222959,0
2024-12-13 15:38:13.283,-0.0191426,4.6684,8.35065,-0.880307,0.0897182,0.0216851,0
2024-12-13 15:38:13.286,-0.0287139,4.68993,8.48944,-0.884583,0.103157,0.0210742,0
2024-12-13 15:38:13.288,-0.0311067,4.72822,8.62343,-0.888248,0.117206,0.0204634,0
2024-12-13 15:38:13.293,-0.0646062,4.8003,8.90848,-0.893746,0.144694,0.0204634,0
2024-12-13 15:38:13.293,-0.0646062,4.8003,8.90848,-0.893746,0.144694,0.0204634,0
2024-12-13 15:38:13.295,-0.0717847,4.82423,9.05683,-0.894357,0.162409,0.0186308,0
2024-12-13 15:38:13.297,-0.0693919,4.86012,9.21955,-0.893746,0.179513,0.0155766,0
2024-12-13 15:38:13.302,-0.0574277,4.94387,9.56441,-0.902298,0.210666,0.0106898,0
2024-12-13 15:38:13.302,-0.0574277,4.94387,9.56441,-0.902298,0.210666,0.0106898,0
2024-12-13 15:38:13.305,-0.0502493,4.97976,9.74866,-0.90413,0.22105,0.00702474,0
2024-12-13 15:38:13.307,-0.040678,5.02523,9.91167,-0.90413,0.228991,0.00213797,0
2024-12-13 15:38:13.309,-0.0239282,5.05873,10.0816,-0.905352,0.2351,-0.00274881,0
2024-12-13 15:38:13.312,-0.0119641,5.07787,10.261,-0.902909,0.234489,-0.00946813,0
2024-12-13 15:38:13.314,-0.00957129,5.09223,10.4145,-0.899854,0.231435,-0.0167983,0
2024-12-13 15:38:13.316,0.00478565,5.12094,10.5724,-0.893746,0.226548,-0.0290152,0
2024-12-13 15:38:13.319,0.00957129,5.15444,10.7471,-0.891913,0.22044,-0.038178,0
2024-12-13 15:38:13.321,-0.00239282,5.17597,10.9146,-0.887027,0.211277,-0.0491732,0
2024-12-13 15:38:13.323,0.00957129,5.19751,11.08,-0.87542,0.19906,-0.0583359,0
2024-12-13 15:38:13.326,0.0239282,5.22862,11.2451,-0.86076,0.181956,-0.0711637,0
2024-12-13 15:38:13.328,0.0334995,5.26212,11.3815,-0.847322,0.158744,-0.0833807,0
2024-12-13 15:38:13.330,0.0550349,5.28844,11.5229,-0.83205,0.133699,-0.0949868,0
2024-12-13 15:38:13.333,0.0789631,5.31954,11.6689,-0.814947,0.104379,-0.109036,0
2024-12-13 15:38:13.335,0.0861416,5.35574,11.7957,-0.792345,0.0750579,-0.123697,0
2024-12-13 15:38:13.340,0.0837488,5.39881,12.035,-0.748975,0.0115297,-0.153017,0
2024-12-13 15:38:13.340,0.0837488,5.39881,12.035,-0.748975,0.0115297,-0.153017,0
2024-12-13 15:38:13.342,0.0837488,5.42991,12.1597,-0.748975,0.0115297,-0.153017,0
2024-12-13 15:38:13.345,0.0861416,5.47059,12.2602,-0.693388,-0.0465007,-0.179895,0
2024-12-13 15:38:13.349,0.0885344,5.53759,12.399,-0.631692,-0.106975,-0.206772,0
2024-12-13 15:38:13.349,0.0885344,5.53759,12.399,-0.631692,-0.106975,-0.206772,0
2024-12-13 15:38:13.352,0.102891,5.54955,12.454,-0.60115,-0.135684,-0.217767,0
2024-12-13 15:38:13.354,0.119641,5.58545,12.4852,-0.568164,-0.159507,-0.231817,0
2024-12-13 15:38:13.356,0.129212,5.63091,12.4971,-0.534568,-0.183941,-0.244644,0
2024-12-13 15:38:13.359,0.150748,5.65723,12.4875,-0.504025,-0.202878,-0.25564,0
2024-12-13 15:38:13.361,0.148355,5.68834,12.4493,-0.469818,-0.216927,-0.265413,0
2024-12-13 15:38:13.363,0.138784,5.72423,12.411,-0.438054,-0.230977,-0.278241,0
2024-12-13 15:38:13.366,0.143569,5.74816,12.3535,-0.408122,-0.237085,-0.290458,0
2024-12-13 15:38:13.368,0.133998,5.77926,12.2818,-0.378191,-0.239528,-0.300231,0
2024-12-13 15:38:13.370,0.133998,5.82473,12.2052,-0.351924,-0.241972,-0.312448,0
2024-12-13 15:38:13.373,0.160319,5.8678,12.119,-0.323825,-0.24075,-0.324054,0
2024-12-13 15:38:13.378,0.165105,5.94228,11.9225,-0.278012,-0.230366,-0.344823,0
2024-12-13 15:38:13.378,0.165105,5.94228,11.9225,-0.278012,-0.230366,-0.344823,0
2024-12-13 15:38:13.380,0.172283,5.99492,11.822,-0.278012,-0.230366,-0.344823,0
2024-12-13 15:38:13.382,0.174676,6.04995,11.7287,-0.245637,-0.212651,-0.368035,0
2024-12-13 15:38:13.385,0.167498,6.09063,11.6641,-0.23342,-0.199823,-0.374144,0
2024-12-13 15:38:13.387,0.172283,6.14088,11.6067,-0.223036,-0.189439,-0.385139,0
2024-12-13 15:38:13.389,0.16989,6.19352,11.5636,-0.213873,-0.178444,-0.392469,0
2024-12-13 15:38:13.392,0.177069,6.24377,11.5373,-0.209597,-0.167449,-0.399189,0
2024-12-13 15:38:13.394,0.18664,6.28684,11.5205,-0.204099,-0.155842,-0.404075,0
2024-12-13 15:38:13.396,0.16989,6.3347,11.5349,-0.199823,-0.141793,-0.412016,0
2024-12-13 15:38:13.399,0.131605,6.39452,11.5517,-0.199823,-0.141793,-0.412016,0
2024-12-13 15:38:13.401,0.0861416,6.44238,11.5756,-0.194326,-0.121024,-0.421179,0
2024-12-13 15:38:13.403,0.026321,6.47378,11.6139,-0.193715,-0.108196,-0.423623,0
2024-12-13 15:38:13.406,-0.0191426,6.5001,11.6713,-0.191882,-0.0972011,-0.425455,0
2024-12-13 15:38:13.411,-0.0215354,6.57667,11.822,-0.187606,-0.0825407,-0.42912,0
2024-12-13 15:38:13.411,-0.0215354,6.57667,11.822,-0.187606,-0.0825407,-0.42912,0
2024-12-13 15:38:13.413,-0.0167498,6.61496,11.9297,-0.185774,-0.0745997,-0.432174,0
2024-12-13 15:38:13.415,-0.0334995,6.64367,12.0278,-0.183941,-0.0697129,-0.43584,0
2024-12-13 15:38:13.420,-0.0550349,6.69871,12.2363,-0.172946,-0.0629936,-0.440115,0
2024-12-13 15:38:13.420,-0.0550349,6.69871,12.2363,-0.172946,-0.0629936,-0.440115,0
2024-12-13 15:38:13.422,-0.0957129,6.70828,12.3535,-0.164394,-0.0636045,-0.44317,0
2024-12-13 15:38:13.425,-0.131605,6.72503,12.4588,-0.155842,-0.0648262,-0.445613,0
2024-12-13 15:38:13.427,-0.141177,6.75613,12.5569,-0.147901,-0.0666587,-0.448056,0
2024-12-13 15:38:13.429,-0.162712,6.78246,12.6553,-0.13935,-0.0703238,-0.451722,0
2024-12-13 15:38:13.432,-0.198604,6.79203,12.7558,-0.125911,-0.0739889,-0.452332,0
2024-12-13 15:38:13.434,-0.222533,6.80638,12.8516,-0.113694,-0.0807082,-0.455387,0
2024-12-13 15:38:13.436,-0.248854,6.81835,12.9162,-0.0984228,-0.0904818,-0.455387,0
2024-12-13 15:38:13.439,-0.267996,6.83749,12.9784,-0.0843733,-0.10331,-0.455997,0
2024-12-13 15:38:13.444,-0.34008,6.85424,13.0956,-0.049555,-0.130187,-0.45783,0
2024-12-13 15:38:13.444,-0.34008,6.85424,13.0956,-0.049555,-0.130187,-0.45783,0
2024-12-13 15:38:13.446,-0.371187,6.87099,13.1291,-0.0318404,-0.149734,-0.455387,0
2024-12-13 15:38:13.448,-0.390329,6.89013,13.1483,-0.0116825,-0.166838,-0.455387,0
2024-12-13 15:38:13.451,-0.387936,6.9021,13.1602,0.00847551,-0.187606,-0.455997,0
2024-12-13 15:38:13.453,-0.3999,6.91406,13.1602,0.0298552,-0.208986,-0.455997,0
2024-12-13 15:38:13.455,-0.414257,6.92363,13.1483,0.0487914,-0.228533,-0.454776,0
2024-12-13 15:38:13.458,-0.409472,6.94517,13.1219,0.0677277,-0.249302,-0.452943,0
2024-12-13 15:38:13.462,-0.411865,6.95474,13.0238,0.11232,-0.287785,-0.453554,0
2024-12-13 15:38:13.462,-0.428614,6.93799,13.0238,0.11232,-0.287785,-0.453554,0
2024-12-13 15:38:13.465,-0.454935,6.9356,12.9688,0.132477,-0.306722,-0.452943,0
2024-12-13 15:38:13.467,-0.464507,6.93799,12.9138,0.152025,-0.324436,-0.454165,0
2024-12-13 15:38:13.469,-0.454935,6.94995,12.8492,0.174626,-0.337264,-0.451722,0
2024-12-13 15:38:13.472,-0.442971,6.9667,12.7511,0.191119,-0.351924,-0.449889,0
2024-12-13 15:38:13.476,-0.409472,6.99781,12.521,0.223494,-0.372082,-0.449889,0
2024-12-13 15:38:13.476,-0.409472,6.99781,12.521,0.223494,-0.372082,-0.449889,0
2024-12-13 15:38:13.479,-0.390329,7.00499,12.4134,0.238154,-0.379413,-0.448667,0
2024-12-13 15:38:13.481,-0.368794,7.00499,12.3105,0.247928,-0.383688,-0.451111,0
2024-12-13 15:38:13.486,-0.318545,7.03879,12.1454,0.26381,-0.394073,-0.454776,0
2024-12-13 15:38:13.486,-0.318545,7.03879,12.1454,0.26381,-0.394073,-0.454776,0
2024-12-13 15:38:13.491,-0.285045,7.02204,11.9489,0.275416,-0.403846,-0.459663,0
2024-12-13 15:38:13.491,-0.285045,7.02204,11.9489,0.275416,-0.403846,-0.459663,0
2024-12-13 15:38:13.495,-0.258425,6.93081,11.7861,0.276027,-0.41362,-0.463328,0
2024-12-13 15:38:13.495,-0.258425,6.93081,11.7861,0.276027,-0.41362,-0.463328,0
2024-12-13 15:38:13.498,-0.270389,6.88056,11.7239,0.270529,-0.420339,-0.464549,0
2024-12-13 15:38:13.500,-0.267996,6.82792,11.6856,0.260755,-0.427059,-0.463328,0
2024-12-13 15:38:13.502,-0.256032,6.74896,11.6545,0.251593,-0.430113,-0.464549,0
2024-12-13 15:38:13.505,-0.236889,6.67717,11.6593,0.238154,-0.433778,-0.461495,0
2024-12-13 15:38:13.509,-0.160319,6.51207,11.767,0.209444,-0.431335,-0.459663,0
2024-12-13 15:38:13.509,-0.160319,6.51207,11.767,0.209444,-0.431335,-0.459663,0
2024-12-13 15:38:13.514,-0.0622134,6.28445,11.8866,0.174626,-0.421561,-0.454165,0
2024-12-13 15:38:13.514,-0.0622134,6.28445,11.8866,0.174626,-0.421561,-0.454165,0
2024-12-13 15:38:13.517,-0.0287139,6.16242,11.956,0.153246,-0.417285,-0.4505,0
2024-12-13 15:38:13.519,-0.00478565,6.04038,12.0518,0.129423,-0.408122,-0.448056,0
2024-12-13 15:38:13.521,0.0334995,5.91835,12.1813,0.109265,-0.400181,-0.444391,0
2024-12-13 15:38:13.524,0.0741775,5.79841,12.3033,0.0860531,-0.391019,-0.440726,0
2024-12-13 15:38:13.528,0.165105,5.53998,12.5833,0.0420721,-0.364752,-0.435229,0
2024-12-13 15:38:13.528,0.165105,5.53998,12.5833,0.0420721,-0.364752,-0.435229,0
2024-12-13 15:38:13.531,0.212961,5.4012,12.7654,0.0213033,-0.34887,-0.432174,0
2024-12-13 15:38:13.533,0.239282,5.27647,12.9784,0.00175619,-0.328101,-0.427898,0
2024-12-13 15:38:13.535,0.270389,5.14248,13.218,-0.0129041,-0.300613,-0.426066,0
2024-12-13 15:38:13.538,0.297009,4.99651,13.474,-0.0238994,-0.26946,-0.424844,0
2024-12-13 15:38:13.540,0.311366,4.85055,13.7157,-0.0306187,-0.237696,-0.423012,0
2024-12-13 15:38:13.542,0.318545,4.71386,13.9624,-0.0355055,-0.202878,-0.419957,0
2024-12-13 15:38:13.545,0.32333,4.58465,14.1969,-0.0342838,-0.163783,-0.416903,0
2024-12-13 15:38:13.547,0.335294,4.4339,14.4269,-0.0281753,-0.127133,-0.412016,0
2024-12-13 15:38:13.552,0.332901,4.29751,14.6399,0.000534491,-0.0562743,-0.407741,0
2024-12-13 15:38:13.552,0.318545,4.18475,14.8002,0.000534491,-0.0562743,-0.407741,0
2024-12-13 15:38:13.557,0.304188,3.95025,15.0183,0.0481806,0.00786466,-0.401021,0
2024-12-13 15:38:13.557,0.304188,3.95025,15.0183,0.0481806,0.00786466,-0.401021,0
2024-12-13 15:38:13.559,0.287438,3.833,15.0876,0.0817772,0.0322986,-0.3998,0
2024-12-13 15:38:13.561,0.260818,3.72772,15.114,0.120261,0.0542891,-0.3998,0
2024-12-13 15:38:13.564,0.239282,3.63649,15.0924,0.159966,0.0689494,-0.397967,0
2024-12-13 15:38:13.566,0.22014,3.55514,14.9943,0.205168,0.0775012,-0.396134,3
2024-12-13 15:38:13.568,0.193819,3.47617,14.8385,0.254036,0.0811663,-0.397356,0
2024-12-13 15:38:13.571,0.162712,3.40439,14.6327,0.302293,0.0738362,-0.395524,0
2024-12-13 15:38:13.573,0.129212,3.3326,14.3839,0.353604,0.0591758,-0.396134,0
2024-12-13 15:38:13.575,0.0885344,3.25603,14.0868,0.404992,0.0390179,-0.397356,0
2024-12-13 15:38:13.578,0.0598206,3.18425,13.759,0.45447,0.0139731,-0.398578,0
2024-12-13 15:38:13.580,0.0526421,3.09811,13.4333,0.507003,-0.0165692,-0.401021,0
2024-12-13 15:38:13.582,0.066999,3.01406,13.1124,0.558314,-0.0489441,-0.405297,0
2024-12-13 15:38:13.585,0.0909273,2.95185,12.775,0.609015,-0.0825407,-0.410184,0
2024-12-13 15:38:13.590,0.165105,2.8322,12.0712,0.715913,-0.144847,-0.42179,0
2024-12-13 15:38:13.590,0.165105,2.8322,12.0712,0.715913,-0.144847,-0.42179,0
2024-12-13 15:38:13.592,0.184247,2.78435,11.7168,0.766002,-0.176611,-0.429731,0
2024-12-13 15:38:13.594,0.212961,2.75085,11.3288,0.81487,-0.212651,-0.437061,0
2024-12-13 15:38:13.597,0.251246,2.74606,10.9217,0.863738,-0.24808,-0.445613,0
2024-12-13 15:38:13.599,0.272782,2.74367,10.515,0.907719,-0.284731,-0.455997,0
2024-12-13 15:38:13.604,0.287438,2.69342,9.71277,0.981632,-0.361698,-0.476155,0
2024-12-13 15:38:13.604,0.287438,2.69342,9.71277,0.981632,-0.361698,-0.476155,0
2024-12-13 15:38:13.606,0.328116,2.67428,9.35384,1.01584,-0.400792,-0.484707,0
2024-12-13 15:38:13.608,0.368794,2.66949,8.98266,1.04272,-0.439276,-0.495092,0
2024-12-13 15:38:13.613,0.395115,2.68385,8.27887,1.08792,-0.517464,-0.517082,0
2024-12-13 15:38:13.613,0.395115,2.68385,8.27887,1.08792,-0.517464,-0.517082,0
2024-12-13 15:38:13.615,0.435793,2.69103,7.97707,1.1038,-0.556558,-0.528077,0
2024-12-13 15:38:13.618,0.478864,2.71017,7.6684,1.11602,-0.590766,-0.536018,0
2024-12-13 15:38:13.623,0.579362,2.75085,7.11536,1.13007,-0.659181,-0.556176,0
2024-12-13 15:38:13.623,0.579362,2.75085,7.11536,1.13007,-0.659181,-0.556176,0
2024-12-13 15:38:13.625,0.63679,2.77238,6.86142,1.13251,-0.689112,-0.566561,0
2024-12-13 15:38:13.627,0.703789,2.81306,6.61496,1.13007,-0.715379,-0.576334,0
2024-12-13 15:38:13.630,0.754038,2.84895,6.38495,1.1209,-0.734926,-0.585497,0
2024-12-13 15:38:13.632,0.797109,2.87288,6.17677,1.10869,-0.753251,-0.594049,0
2024-12-13 15:38:13.637,0.859622,2.89681,5.78644,1.07509,-0.778296,-0.608098,0
2024-12-13 15:38:13.637,0.859622,2.89681,5.78644,1.07509,-0.778296,-0.608098,0
2024-12-13 15:38:13.639,0.878764,2.91356,5.62373,1.05188,-0.782572,-0.614818,0
2024-12-13 15:38:13.641,0.885943,2.9351,5.47298,1.02622,-0.783183,-0.619705,0
2024-12-13 15:38:13.644,0.885943,2.94706,5.35334,0.995681,-0.778907,-0.619705,0
2024-12-13 15:38:13.646,0.9003,2.95663,5.24297,0.963306,-0.770355,-0.619705,0
2024-12-13 15:38:13.648,0.912264,2.98535,5.12573,0.927266,-0.761192,-0.617872,0
2024-12-13 15:38:13.651,0.926621,3.02124,5.03958,0.888172,-0.750197,-0.612985,0
2024-12-13 15:38:13.653,0.933799,3.04517,4.97258,0.888172,-0.750197,-0.612985,0
2024-12-13 15:38:13.655,0.933799,3.0667,4.91276,0.804486,-0.726374,-0.599547,0
2024-12-13 15:38:13.658,0.955334,3.08345,4.86251,0.761116,-0.711713,-0.590384,0
2024-12-13 15:38:13.660,0.972084,3.09571,4.81466,0.715913,-0.695831,-0.577556,0
2024-12-13 15:38:13.663,0.96012,3.10529,4.78594,0.715913,-0.695831,-0.577556,0
2024-12-13 15:38:13.665,0.948156,3.10289,4.78116,0.625508,-0.661624,-0.550068,0
2024-12-13 15:38:13.670,0.955334,3.09093,4.79552,0.532048,-0.620086,-0.51525,0
2024-12-13 15:38:13.670,0.955334,3.09093,4.79552,0.532048,-0.620086,-0.51525,0
2024-12-13 15:38:13.672,0.962513,3.09093,4.82902,0.491732,-0.599317,-0.495092,0
2024-12-13 15:38:13.674,0.96012,3.1005,4.86969,0.446529,-0.580381,-0.473712,0
2024-12-13 15:38:13.677,0.952942,3.1005,4.92234,0.407435,-0.561445,-0.452943,0
2024-12-13 15:38:13.679,0.952942,3.09093,5.00848,0.368952,-0.544952,-0.429731,0
2024-12-13 15:38:13.684,0.94337,3.0667,5.20469,0.296185,-0.516853,-0.37842,0
2024-12-13 15:38:13.684,0.94337,3.0667,5.20469,0.296185,-0.516853,-0.37842,0
2024-12-13 15:38:13.686,0.938585,3.05952,5.31954,0.267475,-0.501582,-0.352153,0
2024-12-13 15:38:13.688,0.94337,3.05234,5.45145,0.238765,-0.4857,-0.324665,0
2024-12-13 15:38:13.691,0.950549,3.05952,5.58784,0.214942,-0.474094,-0.296566,0
2024-12-13 15:38:13.693,0.945763,3.07149,5.70987,0.19173,-0.461266,-0.268467,0
2024-12-13 15:38:13.696,0.952942,3.07388,5.82473,0.173404,-0.450882,-0.239147,0
2024-12-13 15:38:13.698,0.969691,3.07627,5.92553,0.157522,-0.439886,-0.211659,0
2024-12-13 15:38:13.703,0.936192,3.09811,6.08585,0.128202,-0.427059,-0.156682,0
2024-12-13 15:38:13.703,0.936192,3.09811,6.08585,0.128202,-0.427059,-0.156682,0
2024-12-13 15:38:13.707,0.821037,3.1005,6.24377,0.111709,-0.408122,-0.0986518,0
2024-12-13 15:38:13.707,0.821037,3.1005,6.24377,0.111709,-0.408122,-0.0986518,0
2024-12-13 15:38:13.710,0.758824,3.08584,6.3012,0.106822,-0.400181,-0.0742179,0
2024-12-13 15:38:13.712,0.694218,3.07867,6.34666,0.0994917,-0.391629,-0.0455081,0
2024-12-13 15:38:13.717,0.651147,3.06431,6.44238,0.0915507,-0.378802,0.00152712,0
2024-12-13 15:38:13.717,0.627219,3.04995,6.44238,0.0915507,-0.378802,0.00152712,0
2024-12-13 15:38:13.719,0.615255,3.03799,6.48814,0.0878856,-0.373304,0.0241285,0
2024-12-13 15:38:13.721,0.600898,3.01645,6.52164,0.082388,-0.369639,0.0455081,0
2024-12-13 15:38:13.724,0.579362,3.00688,6.536,0.0775012,-0.367196,0.0662769,0
2024-12-13 15:38:13.726,0.572184,2.99252,6.56949,0.0732253,-0.364141,0.0839915,0
2024-12-13 15:38:13.728,0.555434,2.99252,6.58864,0.0726145,-0.359255,0.0992627,0
2024-12-13 15:38:13.731,0.531506,2.99731,6.61496,0.0689494,-0.351314,0.117588,0
2024-12-13 15:38:13.733,0.538684,2.98535,6.65324,0.0677277,-0.343373,0.131027,0
2024-12-13 15:38:13.736,0.565005,2.97577,6.69631,0.066506,-0.33421,0.144542,0
2024-12-13 15:38:13.740,0.627219,2.95424,6.75853,0.0622301,-0.317717,0.163478,0
2024-12-13 15:38:13.740,0.627219,2.95424,6.75853,0.0622301,-0.317717,0.163478,0
2024-12-13 15:38:13.743,0.663111,2.95663,6.79203,0.0616192,-0.313441,0.170808,0
2024-12-13 15:38:13.745,0.696611,2.95185,6.81117,0.0616192,-0.307943,0.173862,0
2024-12-13 15:38:13.747,0.734896,2.94227,6.82313,0.0622301,-0.302446,0.174473,0
2024-12-13 15:38:13.750,0.742074,2.9327,6.84228,0.0622301,-0.297559,0.176917,0
2024-12-13 15:38:13.752,0.734896,2.92313,6.85903,0.0677277,-0.293283,0.175084,0
2024-12-13 15:38:13.754,0.74686,2.91356,6.86142,0.0689494,-0.290229,0.17203,0
2024-12-13 15:38:13.757,0.768395,2.89681,6.88056,0.0750579,-0.286564,0.169586,0
2024-12-13 15:38:13.759,0.770788,2.88245,6.87817,0.082388,-0.285342,0.167754,0
2024-12-13 15:38:13.761,0.76361,2.89442,6.85903,0.0909399,-0.283509,0.162256,0
2024-12-13 15:38:13.764,0.770788,2.90399,6.83988,0.0988809,-0.282899,0.158591,0
2024-12-13 15:38:13.766,0.777966,2.9016,6.80399,0.108654,-0.282288,0.151261,0
2024-12-13 15:38:13.769,0.773181,2.90878,6.75613,0.117817,-0.281677,0.14332,0
2024-12-13 15:38:13.771,0.754038,2.91835,6.69871,0.128202,-0.279234,0.13599,0
2024-12-13 15:38:13.773,0.737288,2.9351,6.63889,0.139808,-0.27679,0.124918,0
2024-12-13 15:38:13.777,0.737288,2.95185,6.57907,0.16302,-0.267627,0.107815,0
2024-12-13 15:38:13.778,0.742074,2.97338,6.53839,0.16302,-0.267627,0.107815,0
2024-12-13 15:38:13.783,0.742074,3.01406,6.39691,0.180734,-0.265184,0.0864349,0
2024-12-13 15:38:13.783,0.742074,3.01406,6.39691,0.180734,-0.265184,0.0864349,0
