timestamp,accel_x,accel_y,accel_z,gyro_x,gyro_y,gyro_z,step_timestamp
2024-12-13 15:30:39.844,-0.354437,4.11296,9.2004,-0.0342838,0.00114534,-0.0131332,0
2024-12-13 15:30:39.844,-0.354437,4.11296,9.2004,-0.0342838,0.00114534,-0.0131332,0
2024-12-13 15:30:39.844,-0.354437,4.11296,9.2004,-0.0342838,0.00114534,-0.0131332,0
2024-12-13 15:30:39.847,-0.347258,4.11775,9.24347,-0.0342838,0.00114534,-0.0131332,0
2024-12-13 15:30:39.847,-0.347258,4.11775,9.24347,-0.0342838,0.00114534,-0.0131332,0
2024-12-13 15:30:39.847,-0.347258,4.11775,9.24347,-0.0342838,0.00114534,-0.0131332,0
2024-12-13 15:30:39.847,-0.347258,4.11775,9.24347,-0.0342838,0.00114534,-0.0131332,0
2024-12-13 15:30:39.849,-0.332901,4.12971,9.26531,-0.0379489,0.00114534,-0.0137441,0
2024-12-13 15:30:39.849,-0.332901,4.12971,9.26531,-0.0379489,0.00114534,-0.0137441,0
2024-12-13 15:30:39.851,-0.304188,4.14168,9.27727,-0.0367272,0.00175619,-0.0143549,0
2024-12-13 15:30:39.851,-0.304188,4.14168,9.27727,-0.0367272,0.00175619,-0.0143549,0
2024-12-13 15:30:39.851,-0.304188,4.14168,9.27727,-0.0367272,0.00175619,-0.0143549,0
2024-12-13 15:30:39.851,-0.304188,4.14168,9.27727,-0.0367272,0.00175619,-0.0143549,0
2024-12-13 15:30:39.851,-0.304188,4.14168,9.27727,-0.0367272,0.00175619,-0.0143549,0
2024-12-13 15:30:39.854,-0.304188,4.14168,9.3012,-0.0361163,0.00114534,-0.0125224,0
2024-12-13 15:30:39.856,-0.30658,4.15843,9.34188,-0.0361163,0.00114534,-0.0125224,0
2024-12-13 15:30:39.858,-0.289831,4.15364,9.38495,-0.037338,0.00175619,-0.0174091,0
2024-12-13 15:30:39.861,-0.285045,4.14407,9.39691,-0.0385597,0.00358873,-0.01802,0
2024-12-13 15:30:39.861,-0.285045,4.14407,9.39691,-0.0385597,0.00358873,-0.01802,0
2024-12-13 15:30:39.861,-0.285045,4.14407,9.39691,-0.0385597,0.00358873,-0.01802,0
2024-12-13 15:30:39.863,-0.275175,4.13689,9.41366,-0.0361163,0.00481042,-0.0204634,0
2024-12-13 15:30:39.863,-0.275175,4.13689,9.41366,-0.0361163,0.00481042,-0.0204634,0
2024-12-13 15:30:39.866,-0.272782,4.13928,9.44477,-0.0367272,0.00481042,-0.0229068,0
2024-12-13 15:30:39.866,-0.272782,4.13928,9.44477,-0.0367272,0.00481042,-0.0229068,0
2024-12-13 15:30:39.866,-0.272782,4.13928,9.44477,-0.0367272,0.00481042,-0.0229068,0
2024-12-13 15:30:39.868,-0.27996,4.13689,9.47348,-0.0348946,0.00786466,-0.0241285,0
2024-12-13 15:30:39.868,-0.27996,4.13689,9.47348,-0.0348946,0.00786466,-0.0241285,0
2024-12-13 15:30:39.868,-0.27996,4.13689,9.47348,-0.0348946,0.00786466,-0.0241285,0
2024-12-13 15:30:39.873,-0.277567,4.11296,9.53091,-0.0355055,0.0109189,-0.0284044,0
2024-12-13 15:30:39.873,-0.277567,4.11296,9.53091,-0.0355055,0.0109189,-0.0284044,0
2024-12-13 15:30:39.873,-0.277567,4.11296,9.53091,-0.0355055,0.0109189,-0.0284044,0
2024-12-13 15:30:39.873,-0.277567,4.11296,9.53091,-0.0355055,0.0109189,-0.0284044,0
2024-12-13 15:30:39.873,-0.277567,4.11296,9.53091,-0.0355055,0.0109189,-0.0284044,0
2024-12-13 15:30:39.873,-0.277567,4.11296,9.53091,-0.0355055,0.0109189,-0.0284044,0
2024-12-13 15:30:39.875,-0.282652,4.12014,9.5357,-0.0324513,0.0109189,-0.0308478,0
2024-12-13 15:30:39.877,-0.292223,4.11536,9.52852,-0.0306187,0.0096972,-0.0345129,0
2024-12-13 15:30:39.877,-0.292223,4.11536,9.52852,-0.0306187,0.0096972,-0.0345129,0
2024-12-13 15:30:39.877,-0.292223,4.11536,9.52852,-0.0306187,0.0096972,-0.0345129,0
2024-12-13 15:30:39.877,-0.292223,4.11536,9.52852,-0.0306187,0.0096972,-0.0345129,0
2024-12-13 15:30:39.880,-0.294616,4.11536,9.53809,-0.0318404,0.00786466,-0.0369563,0
2024-12-13 15:30:39.880,-0.294616,4.11536,9.53809,-0.0318404,0.00786466,-0.0369563,0
2024-12-13 15:30:39.880,-0.294616,4.11536,9.53809,-0.0318404,0.00786466,-0.0369563,0
2024-12-13 15:30:39.882,-0.275175,4.12253,9.56441,-0.0306187,0.00481042,-0.0412322,0
2024-12-13 15:30:39.882,-0.275175,4.12253,9.56441,-0.0306187,0.00481042,-0.0412322,0
2024-12-13 15:30:39.884,-0.277567,4.12493,9.59073,-0.0257319,0.00175619,-0.0424539,0
2024-12-13 15:30:39.884,-0.277567,4.12493,9.59073,-0.0257319,0.00175619,-0.0424539,0
2024-12-13 15:30:39.887,-0.287438,4.1345,9.58834,-0.0238994,-0.00129805,-0.0455081,0
2024-12-13 15:30:39.887,-0.287438,4.1345,9.58834,-0.0238994,-0.00129805,-0.0455081,0
2024-12-13 15:30:39.889,-0.297009,4.12493,9.57159,-0.0184018,-0.00557398,-0.0473407,0
2024-12-13 15:30:39.889,-0.297009,4.12493,9.57159,-0.0184018,-0.00557398,-0.0473407,0
2024-12-13 15:30:39.891,-0.275175,4.11536,9.5668,-0.0177909,-0.00618483,-0.0503949,0
2024-12-13 15:30:39.891,-0.275175,4.11536,9.5668,-0.0177909,-0.00618483,-0.0503949,0
2024-12-13 15:30:39.891,-0.275175,4.11536,9.5668,-0.0177909,-0.00618483,-0.0503949,0
2024-12-13 15:30:39.894,-0.260818,4.11775,9.55723,-0.0141258,-0.00618483,-0.0522274,0
2024-12-13 15:30:39.896,-0.260818,4.11775,9.54048,-0.0116825,-0.0104608,-0.0552817,0
2024-12-13 15:30:39.896,-0.275175,4.11775,9.54048,-0.0116825,-0.0104608,-0.0552817,0
2024-12-13 15:30:39.896,-0.275175,4.11775,9.54048,-0.0116825,-0.0104608,-0.0552817,0
2024-12-13 15:30:39.899,-0.275175,4.12014,9.5357,-0.00862822,-0.0116825,-0.0589468,0
2024-12-13 15:30:39.899,-0.297009,4.12014,9.5357,-0.00862822,-0.0116825,-0.0589468,0
2024-12-13 15:30:39.899,-0.297009,4.12014,9.5357,-0.00862822,-0.0116825,-0.0589468,0
2024-12-13 15:30:39.901,-0.313759,4.12253,9.52373,-0.00313059,-0.0147367,-0.062001,0
2024-12-13 15:30:39.901,-0.313759,4.12253,9.52373,-0.00313059,-0.0147367,-0.062001,0
2024-12-13 15:30:39.903,-0.313759,4.11775,9.5022,0.000534491,-0.021456,-0.0626118,0
2024-12-13 15:30:39.903,-0.313759,4.11775,9.5022,0.000534491,-0.021456,-0.0626118,0
2024-12-13 15:30:39.906,-0.316152,4.10818,9.48306,0.00236703,-0.0232886,-0.0662769,0
2024-12-13 15:30:39.906,-0.316152,4.10818,9.48306,0.00236703,-0.0232886,-0.0662769,0
2024-12-13 15:30:39.908,-0.316152,4.11296,9.45673,0.00603212,-0.0263428,-0.0674986,0
2024-12-13 15:30:39.908,-0.316152,4.11296,9.45673,0.00603212,-0.0263428,-0.0674986,0
2024-12-13 15:30:39.910,-0.316152,4.12014,9.43281,0.0096972,-0.029397,-0.0681095,0
2024-12-13 15:30:39.910,-0.316152,4.12014,9.43281,0.0096972,-0.029397,-0.0681095,0
2024-12-13 15:30:39.913,-0.325723,4.11775,9.42802,0.0127514,-0.033673,-0.0681095,0
2024-12-13 15:30:39.915,-0.325723,4.13211,9.41127,0.0170274,-0.0348946,-0.0705529,0
2024-12-13 15:30:39.915,-0.318545,4.13211,9.41127,0.0170274,-0.0348946,-0.0705529,0
2024-12-13 15:30:39.915,-0.318545,4.13211,9.41127,0.0170274,-0.0348946,-0.0705529,0
2024-12-13 15:30:39.917,-0.308973,4.13928,9.4017,0.0213033,-0.0355055,-0.0711637,0
2024-12-13 15:30:39.917,-0.308973,4.13928,9.4017,0.0213033,-0.0355055,-0.0711637,0
2024-12-13 15:30:39.917,-0.308973,4.13928,9.4017,0.0213033,-0.0355055,-0.0711637,0
2024-12-13 15:30:39.920,-0.30658,4.14168,9.38734,0.0274118,-0.0342838,-0.069942,0
2024-12-13 15:30:39.920,-0.30658,4.14168,9.38734,0.0274118,-0.0342838,-0.069942,0
2024-12-13 15:30:39.922,-0.311366,4.15843,9.35624,0.0298552,-0.0324513,-0.0711637,0
2024-12-13 15:30:39.922,-0.311366,4.15843,9.35624,0.0298552,-0.0324513,-0.0711637,0
2024-12-13 15:30:39.924,-0.30658,4.15843,9.32992,0.0298552,-0.0324513,-0.0711637,0
2024-12-13 15:30:39.927,-0.30658,4.15603,9.29881,0.0341311,-0.0232886,-0.0717745,0
2024-12-13 15:30:39.927,-0.30658,4.15603,9.29881,0.0341311,-0.0232886,-0.0717745,0
2024-12-13 15:30:39.929,-0.30658,4.17039,9.26292,0.0371853,-0.0208452,-0.0723854,0
2024-12-13 15:30:39.929,-0.30658,4.17039,9.26292,0.0371853,-0.0208452,-0.0723854,0
2024-12-13 15:30:39.932,-0.292223,4.18235,9.24347,0.0402396,-0.0159584,-0.0711637,0
2024-12-13 15:30:39.932,-0.292223,4.18235,9.24347,0.0402396,-0.0159584,-0.0711637,0
2024-12-13 15:30:39.932,-0.292223,4.18235,9.24347,0.0402396,-0.0159584,-0.0711637,0
2024-12-13 15:30:39.934,-0.282652,4.1991,9.21237,0.0445155,-0.0116825,-0.0711637,0
2024-12-13 15:30:39.936,-0.282652,4.19671,9.18365,0.0414613,-0.00801737,-0.0705529,0
2024-12-13 15:30:39.936,-0.282652,4.19671,9.18365,0.0414613,-0.00801737,-0.0705529,0
2024-12-13 15:30:39.936,-0.282652,4.19671,9.18365,0.0414613,-0.00801737,-0.0705529,0
2024-12-13 15:30:39.939,-0.285045,4.18953,9.15973,0.0457372,-0.00496313,-0.0711637,0
2024-12-13 15:30:39.941,-0.282652,4.19432,9.12383,0.046348,-0.00862822,-0.069942,0
2024-12-13 15:30:39.941,-0.282652,4.19432,9.12383,0.046348,-0.00862822,-0.069942,0
2024-12-13 15:30:39.943,-0.267996,4.18235,9.07837,0.0451263,-0.00740652,-0.0687203,0
2024-12-13 15:30:39.943,-0.267996,4.18235,9.07837,0.0451263,-0.00740652,-0.0687203,0
2024-12-13 15:30:39.946,-0.272782,4.18953,9.05205,0.042683,-0.00740652,-0.0687203,0
2024-12-13 15:30:39.948,-0.277567,4.19671,9.03051,0.0408504,-0.00801737,-0.0705529,0
2024-12-13 15:30:39.950,-0.258425,4.18953,8.99701,0.0408504,-0.00923906,-0.0711637,0
2024-12-13 15:30:39.953,-0.227318,4.17757,8.9683,0.0377962,-0.0141258,-0.0705529,0
2024-12-13 15:30:39.956,-0.22014,4.16082,8.94437,0.0292443,-0.0232886,-0.0729962,0
2024-12-13 15:30:39.957,-0.217747,4.15603,8.91087,0.0292443,-0.0232886,-0.0729962,0
2024-12-13 15:30:39.960,-0.208176,4.13689,8.90369,0.0280226,-0.0269536,-0.0748288,0
2024-12-13 15:30:39.962,-0.200997,4.12253,8.9013,0.0280226,-0.0269536,-0.0748288,0
2024-12-13 15:30:39.964,-0.191426,4.12732,8.88934,0.0200816,-0.0361163,-0.0791047,0
2024-12-13 15:30:39.967,-0.157926,4.12014,8.91087,0.0164165,-0.0391706,-0.0809373,0
2024-12-13 15:30:39.969,-0.133998,4.09861,8.91805,0.0121406,-0.0440574,-0.0827698,0
2024-12-13 15:30:39.972,-0.136391,4.08425,8.91566,0.0115297,-0.0471116,-0.085824,0
2024-12-13 15:30:39.976,-0.145962,4.09861,8.93241,0.00786466,-0.0526092,-0.0913217,0
2024-12-13 15:30:39.976,-0.145962,4.09861,8.93241,0.00786466,-0.0526092,-0.0913217,0
2024-12-13 15:30:39.979,-0.148355,4.09143,8.92523,0.00725381,-0.0538309,-0.0931542,0
2024-12-13 15:30:39.981,-0.143569,4.10578,8.9348,0.00786466,-0.0544418,-0.0943759,0
2024-12-13 15:30:39.983,-0.16989,4.09861,8.94916,0.0096972,-0.0550526,-0.0968193,0
2024-12-13 15:30:39.986,-0.198604,4.07707,8.96351,0.010308,-0.0550526,-0.0986518,0
2024-12-13 15:30:39.988,-0.222533,4.06271,8.97069,0.0127514,-0.0532201,-0.0998735,0
2024-12-13 15:30:39.990,-0.251246,4.04357,8.98744,0.0127514,-0.0489441,-0.098041,0
2024-12-13 15:30:39.993,-0.270389,4.02204,9.01616,0.0158057,-0.0428357,-0.0968193,0
2024-12-13 15:30:39.995,-0.267996,4.00529,9.05923,0.014584,-0.0403923,-0.0986518,0
2024-12-13 15:30:39.997,-0.272782,4.00289,9.09512,0.0139731,-0.0355055,-0.0962084,0
2024-12-13 15:30:40.000,-0.270389,3.99811,9.11426,0.0158057,-0.0312296,-0.0955976,0
2024-12-13 15:30:40.005,-0.248854,3.98375,9.14297,0.0176382,-0.0312296,-0.0925434,0
2024-12-13 15:30:40.005,-0.229711,3.97657,9.16212,0.0176382,-0.0312296,-0.0925434,0
2024-12-13 15:30:40.007,-0.20339,3.99093,9.17408,0.0158057,-0.0312296,-0.0949868,0
2024-12-13 15:30:40.009,-0.181855,3.99332,9.18365,0.0182491,-0.0318404,-0.0962084,0
2024-12-13 15:30:40.012,-0.177069,3.97897,9.18365,0.0133623,-0.0342838,-0.0949868,0
2024-12-13 15:30:40.014,-0.172283,3.97897,9.19562,0.0109189,-0.0367272,-0.0949868,0
2024-12-13 15:30:40.016,-0.167498,3.97657,9.22672,0.0121406,-0.037338,-0.0955976,0
2024-12-13 15:30:40.019,-0.165105,3.96461,9.23151,0.00908635,-0.037338,-0.0962084,0
2024-12-13 15:30:40.021,-0.148355,3.95982,9.20519,0.00603212,-0.0367272,-0.0974301,0
2024-12-13 15:30:40.023,-0.136391,3.94786,9.21237,0.00358873,-0.0379489,-0.0974301,0
2024-12-13 15:30:40.026,-0.129212,3.9,9.23151,0.00175619,-0.0367272,-0.098041,0
2024-12-13 15:30:40.028,-0.12682,3.85932,9.23869,0.00114534,-0.0379489,-0.098041,0
2024-12-13 15:30:40.030,-0.133998,3.84257,9.24108,-0.000687203,-0.0391706,-0.101706,0
2024-12-13 15:30:40.033,-0.129212,3.84257,9.25544,-0.000687203,-0.0391706,-0.101706,0
2024-12-13 15:30:40.037,-0.131605,3.8019,9.24826,-0.00313059,-0.0452791,-0.101095,0
2024-12-13 15:30:40.037,-0.131605,3.8019,9.24826,-0.00313059,-0.0452791,-0.101095,0
2024-12-13 15:30:40.040,-0.155533,3.80429,9.2339,-0.00557398,-0.0489441,-0.101095,0
2024-12-13 15:30:40.045,-0.165105,3.8019,9.19801,-0.0019089,-0.0483333,-0.0998735,0
2024-12-13 15:30:40.047,-0.165105,3.81386,9.18605,-0.00129805,-0.0501658,-0.101095,0
2024-12-13 15:30:40.047,-0.16989,3.81386,9.18605,-0.00129805,-0.0501658,-0.101095,0
2024-12-13 15:30:40.049,-0.174676,3.82104,9.1669,0.00114534,-0.0489441,-0.0992627,0
2024-12-13 15:30:40.052,-0.165105,3.8354,9.14776,0.00236703,-0.0507767,-0.0998735,0
2024-12-13 15:30:40.054,-0.153141,3.8354,9.13819,0.00419957,-0.0471116,-0.0998735,0
2024-12-13 15:30:40.056,-0.165105,3.84018,9.11665,0.00542127,-0.0489441,-0.101095,0
2024-12-13 15:30:40.059,-0.167498,3.84018,9.08076,0.00847551,-0.049555,-0.0992627,0
2024-12-13 15:30:40.061,-0.155533,3.84257,9.04248,0.010308,-0.0519984,-0.0998735,0
2024-12-13 15:30:40.063,-0.150748,3.85215,9.0018,0.0139731,-0.0538309,-0.101706,0
2024-12-13 15:30:40.066,-0.153141,3.84736,8.97069,0.0164165,-0.0556635,-0.101095,0
2024-12-13 15:30:40.068,-0.141177,3.85215,8.9348,0.0194708,-0.0593285,-0.0992627,0
2024-12-13 15:30:40.070,-0.129212,3.84736,8.89651,0.0231358,-0.0605502,-0.0992627,0
2024-12-13 15:30:40.073,-0.129212,3.85932,8.84626,0.0249684,-0.0636045,-0.0992627,0
2024-12-13 15:30:40.075,-0.138784,3.88325,8.81277,0.0231358,-0.0660479,-0.0968193,0
2024-12-13 15:30:40.078,-0.138784,3.88564,8.79362,0.0237467,-0.0666587,-0.0962084,0
2024-12-13 15:30:40.080,-0.129212,3.9,8.77448,0.0255792,-0.0709346,-0.0968193,0
2024-12-13 15:30:40.082,-0.117248,3.91197,8.74577,0.0243575,-0.0703238,-0.0955976,0
2024-12-13 15:30:40.089,-0.0646062,3.93829,8.6354,0.0206925,-0.073378,-0.0943759,0
2024-12-13 15:30:40.092,-0.0622134,3.95025,8.61625,0.0170274,-0.0758214,-0.0943759,0
2024-12-13 15:30:40.092,-0.0622134,3.95025,8.61625,0.0170274,-0.0758214,-0.0943759,0
2024-12-13 15:30:40.094,-0.0311067,3.967,8.60668,0.0158057,-0.0739889,-0.0943759,0
2024-12-13 15:30:40.096,0.0,3.97897,8.59472,0.0158057,-0.0739889,-0.0943759,0
2024-12-13 15:30:40.099,0.138784,3.90479,8.60908,0.00908635,-0.0678804,-0.0955976,0
2024-12-13 15:30:40.099,0.138784,3.90479,8.60908,0.00908635,-0.0678804,-0.0955976,0
2024-12-13 15:30:40.101,0.490828,3.699,8.81755,0.00542127,-0.0709346,-0.103539,0
2024-12-13 15:30:40.103,0.536291,3.66551,8.87737,0.00847551,-0.0758214,-0.121253,0
2024-12-13 15:30:40.106,0.241675,3.85932,8.66172,0.00664296,-0.057496,-0.131638,0
2024-12-13 15:30:40.108,0.198604,4.0005,8.62343,0.00664296,-0.057496,-0.131638,0
2024-12-13 15:30:40.113,0.35683,4.0005,8.93959,0.00297788,-0.0355055,-0.153017,0
2024-12-13 15:30:40.113,0.35683,4.0005,8.93959,0.00297788,-0.0355055,-0.153017,0
2024-12-13 15:30:40.118,0.11007,4.22572,8.73859,-0.00557398,-0.00251974,-0.159126,0
2024-12-13 15:30:40.118,0.11007,4.22572,8.73859,-0.00557398,-0.00251974,-0.159126,0
2024-12-13 15:30:40.120,0.0909273,4.22572,8.8343,-0.00740652,-0.00618483,-0.164012,0
2024-12-13 15:30:40.122,-0.0885344,4.31187,8.77687,-0.0104608,-0.00496313,-0.16218,0
2024-12-13 15:30:40.125,-0.198604,4.39562,8.71705,-0.0141258,-7.63559e-05,-0.156682,0
2024-12-13 15:30:40.127,-0.0598206,4.32383,8.8008,-0.0245102,-0.00374144,-0.153017,0
2024-12-13 15:30:40.129,0.0478565,4.24487,8.87498,-0.0287862,-0.0177909,-0.15485,0
2024-12-13 15:30:40.132,-0.0430708,4.27119,8.79362,-0.0342838,-0.0275645,-0.153628,0
2024-12-13 15:30:40.134,-0.0574277,4.29033,8.75055,-0.0434465,-0.0385597,-0.150574,0
2024-12-13 15:30:40.136,-0.0191426,4.2999,8.81037,-0.049555,-0.0519984,-0.148741,0
2024-12-13 15:30:40.139,0.00478565,4.3023,8.85584,-0.0556635,-0.0697129,-0.150574,0
2024-12-13 15:30:40.143,0.0933201,4.29033,8.89891,-0.0697129,-0.104531,-0.153017,0
2024-12-13 15:30:40.143,0.0933201,4.29033,8.89891,-0.0697129,-0.104531,-0.153017,0
2024-12-13 15:30:40.146,0.172283,4.29033,8.94437,-0.0764323,-0.117359,-0.157293,0
2024-12-13 15:30:40.149,0.208176,4.29272,9.00419,-0.0880384,-0.145458,-0.167678,0
2024-12-13 15:30:40.151,0.212961,4.2999,9.05683,-0.0880384,-0.145458,-0.167678,0
2024-12-13 15:30:40.153,0.198604,4.30708,9.10708,-0.0880384,-0.158897,-0.173175,0
2024-12-13 15:30:40.155,0.16989,4.31187,9.15255,-0.0917034,-0.172335,-0.177451,0
2024-12-13 15:30:40.158,0.138784,4.31187,9.18126,-0.0965902,-0.185163,-0.18356,0
2024-12-13 15:30:40.160,0.12682,4.29751,9.20519,-0.0990336,-0.199823,-0.186003,0
2024-12-13 15:30:40.162,0.124427,4.2664,9.23869,-0.102699,-0.213873,-0.189668,0
2024-12-13 15:30:40.165,0.119641,4.2353,9.27488,-0.105142,-0.224868,-0.19089,0
2024-12-13 15:30:40.167,0.12682,4.20389,9.27727,-0.106364,-0.237696,-0.189057,0
2024-12-13 15:30:40.169,0.145962,4.16321,9.30359,-0.109418,-0.249913,-0.187225,0
2024-12-13 15:30:40.172,0.167498,4.12732,9.34188,-0.108807,-0.256632,-0.186003,0
2024-12-13 15:30:40.174,0.193819,4.10339,9.35384,-0.112472,-0.266406,-0.182338,0
2024-12-13 15:30:40.176,0.222533,4.07946,9.37777,-0.114305,-0.271903,-0.179284,0
2024-12-13 15:30:40.179,0.260818,4.04118,9.41845,-0.114305,-0.274958,-0.178673,0
2024-12-13 15:30:40.181,0.304188,4.01964,9.45434,-0.113083,-0.275568,-0.176229,0
2024-12-13 15:30:40.184,0.342473,4.02443,9.4687,-0.11064,-0.273736,-0.174397,0
2024-12-13 15:30:40.186,0.402293,4.01964,9.44956,-0.108807,-0.268849,-0.175008,0
2024-12-13 15:30:40.188,0.469292,4.02204,9.41845,-0.105142,-0.26213,-0.173175,0
2024-12-13 15:30:40.191,0.490828,4.01725,9.39452,-0.100255,-0.250524,-0.174397,0
2024-12-13 15:30:40.193,0.474078,3.99571,9.37538,-0.0972011,-0.235253,-0.173175,0
2024-12-13 15:30:40.195,0.486042,4.00529,9.35624,-0.0904818,-0.218149,-0.170732,0
2024-12-13 15:30:40.198,0.536291,4.01964,9.33949,-0.0831516,-0.202267,-0.167678,0
2024-12-13 15:30:40.201,0.565005,4.034,9.33709,-0.0709346,-0.169281,-0.167678,0
2024-12-13 15:30:40.202,0.596112,4.05314,9.32992,-0.0709346,-0.169281,-0.167678,0
2024-12-13 15:30:40.205,0.629611,4.0675,9.29402,-0.0636045,-0.152177,-0.167067,0
2024-12-13 15:30:40.207,0.641576,4.11296,9.24826,-0.0587177,-0.138739,-0.166456,0
2024-12-13 15:30:40.209,0.65354,4.16561,9.18844,-0.0532201,-0.126522,-0.166456,0
2024-12-13 15:30:40.212,0.665504,4.21615,9.11665,-0.0471116,-0.119192,-0.165845,0
2024-12-13 15:30:40.214,0.672682,4.25444,9.03769,-0.0428357,-0.115526,-0.166456,0
2024-12-13 15:30:40.216,0.689432,4.29512,8.97069,-0.0422248,-0.120413,-0.168288,0
2024-12-13 15:30:40.219,0.737288,4.32383,8.9348,-0.0391706,-0.125911,-0.168899,0
2024-12-13 15:30:40.221,0.804287,4.34058,8.93001,-0.0385597,-0.143015,-0.171343,0
2024-12-13 15:30:40.224,0.818644,4.37408,8.97308,-0.033673,-0.171724,-0.175619,0
2024-12-13 15:30:40.226,0.761217,4.42672,9.00898,-0.0306187,-0.204099,-0.17684,0
2024-12-13 15:30:40.228,0.703789,4.51526,8.99223,-0.0287862,-0.242583,-0.175008,0
2024-12-13 15:30:40.231,0.696611,4.62054,8.93001,-0.0269536,-0.277401,-0.173786,0
2024-12-13 15:30:40.233,0.725324,4.71386,8.82712,-0.0257319,-0.304889,-0.176229,0
2024-12-13 15:30:40.235,0.756431,4.77877,8.70748,-0.0275645,-0.328101,-0.179895,0
2024-12-13 15:30:40.238,0.787538,4.81466,8.57797,-0.0361163,-0.34887,-0.182949,0
2024-12-13 15:30:40.240,0.813859,4.85294,8.45115,-0.0489441,-0.36353,-0.189057,0
2024-12-13 15:30:40.242,1.0319,4.733,8.40329,-0.0660479,-0.380634,-0.197609,0
2024-12-13 15:30:40.245,1.32383,4.51286,8.52533,-0.0874275,-0.409344,-0.213491,0
2024-12-13 15:30:40.247,1.18265,4.52243,8.45833,-0.10392,-0.433778,-0.234871,0
2024-12-13 15:30:40.252,0.837787,4.68993,8.2693,-0.154621,-0.430724,-0.248309,0
2024-12-13 15:30:40.252,0.632004,4.83859,8.3339,-0.154621,-0.430724,-0.248309,0
2024-12-13 15:30:40.254,0.514756,4.93909,8.44636,-0.177833,-0.434389,-0.245866,0
2024-12-13 15:30:40.257,0.462114,4.97498,8.49183,-0.207154,-0.439276,-0.242812,0
2024-12-13 15:30:40.264,0.521934,4.73779,8.87737,-0.307943,-0.450882,-0.228151,0
2024-12-13 15:30:40.266,0.514756,4.62772,9.10948,-0.337875,-0.459433,-0.225097,0
2024-12-13 15:30:40.268,0.541077,4.52961,9.29881,-0.361087,-0.458823,-0.22021,0
2024-12-13 15:30:40.271,0.60329,4.45783,9.44716,-0.38491,-0.453936,-0.216545,0
2024-12-13 15:30:40.271,0.60329,4.45783,9.44716,-0.38491,-0.453936,-0.216545,0
2024-12-13 15:30:40.273,0.663111,4.41236,9.5668,-0.40629,-0.441719,-0.217156,0
2024-12-13 15:30:40.273,0.663111,4.41236,9.5668,-0.40629,-0.441719,-0.217156,0
2024-12-13 15:30:40.275,0.710967,4.38126,9.6697,-0.423394,-0.421561,-0.216545,0
2024-12-13 15:30:40.278,0.732503,4.38126,9.76302,-0.438054,-0.395295,-0.2196,0
2024-12-13 15:30:40.280,0.720539,4.39562,9.85664,-0.438054,-0.395295,-0.2196,0
2024-12-13 15:30:40.282,0.679861,4.40997,9.94278,-0.465542,-0.337875,-0.223265,0
2024-12-13 15:30:40.285,0.615255,4.42433,10.0289,-0.465542,-0.337875,-0.223265,0
2024-12-13 15:30:40.287,0.565005,4.40519,10.1246,-0.481424,-0.272514,-0.220821,0
2024-12-13 15:30:40.289,0.521934,4.38365,10.2299,-0.4857,-0.244415,-0.218989,0
2024-12-13 15:30:40.292,0.469292,4.36929,10.3304,-0.490587,-0.21876,-0.216545,0
2024-12-13 15:30:40.294,0.407079,4.34058,10.4408,-0.491198,-0.19005,-0.211659,0
2024-12-13 15:30:40.297,0.328116,4.32144,10.5509,-0.486311,-0.168059,-0.207383,0
2024-12-13 15:30:40.299,0.244068,4.3023,10.6537,-0.479591,-0.147901,-0.202496,0
2024-12-13 15:30:40.301,0.191426,4.28315,10.7471,-0.467985,-0.126522,-0.19822,0
2024-12-13 15:30:40.304,0.148355,4.27837,10.7997,-0.453325,-0.107585,-0.192111,0
2024-12-13 15:30:40.308,0.040678,4.28555,10.826,-0.43561,-0.0904818,-0.186003,0
2024-12-13 15:30:40.311,0.0,4.29751,10.8165,-0.39224,-0.0593285,-0.171343,0
2024-12-13 15:30:40.311,0.0,4.29751,10.8165,-0.39224,-0.0593285,-0.171343,0
2024-12-13 15:30:40.313,-0.0526421,4.2999,10.7758,-0.369639,-0.0452791,-0.164012,0
2024-12-13 15:30:40.315,-0.0981057,4.31905,10.7136,-0.343373,-0.0361163,-0.158515,0
2024-12-13 15:30:40.318,-0.136391,4.34058,10.6801,-0.313441,-0.029397,-0.153017,0
2024-12-13 15:30:40.320,-0.179462,4.36212,10.6202,-0.289007,-0.0269536,-0.146909,0
2024-12-13 15:30:40.322,-0.22014,4.38365,10.5365,-0.262741,-0.0263428,-0.141411,0
2024-12-13 15:30:40.325,-0.265603,4.40997,10.4527,-0.235253,-0.0287862,-0.135914,0
2024-12-13 15:30:40.327,-0.311366,4.43629,10.3759,-0.205932,-0.0324513,-0.130416,0
2024-12-13 15:30:40.330,-0.375972,4.45304,10.3041,-0.182109,-0.0355055,-0.124918,0
2024-12-13 15:30:40.332,-0.445364,4.4674,10.2371,-0.153399,-0.0422248,-0.119421,0
2024-12-13 15:30:40.337,-0.557827,4.49372,10.1031,-0.130187,-0.049555,-0.114534,0
2024-12-13 15:30:40.339,-0.586541,4.52961,10.0193,-0.0831516,-0.0721563,-0.0992627,0
2024-12-13 15:30:40.341,-0.600898,4.56311,9.92842,-0.0617719,-0.0849841,-0.0919325,0
2024-12-13 15:30:40.341,-0.600898,4.56311,9.92842,-0.0617719,-0.0849841,-0.0919325,0
2024-12-13 15:30:40.344,-0.600898,4.58226,9.82314,-0.0617719,-0.0849841,-0.0919325,0
2024-12-13 15:30:40.348,-0.567398,4.55354,9.67209,-0.00557398,-0.131409,-0.069942,0
2024-12-13 15:30:40.348,-0.567398,4.55354,9.67209,-0.00557398,-0.131409,-0.069942,0
2024-12-13 15:30:40.351,-0.574577,4.56311,9.6027,-0.00557398,-0.131409,-0.069942,0
2024-12-13 15:30:40.353,-0.60329,4.58704,9.52134,0.0292443,-0.166227,-0.0571142,0
2024-12-13 15:30:40.355,-0.612862,4.60858,9.42084,0.046348,-0.181498,-0.0485624,0
2024-12-13 15:30:40.358,-0.598505,4.64208,9.32274,0.0597867,-0.191272,-0.0430647,0
2024-12-13 15:30:40.360,-0.574577,4.65165,9.21476,0.074447,-0.200434,-0.0363454,0
2024-12-13 15:30:40.362,-0.567398,4.64447,9.10948,0.0854423,-0.209597,-0.0308478,0
2024-12-13 15:30:40.365,-0.557827,4.63968,9.0018,0.0970484,-0.215095,-0.0265719,0
2024-12-13 15:30:40.367,-0.550648,4.61815,8.88455,0.108654,-0.216316,-0.0216851,0
2024-12-13 15:30:40.370,-0.550648,4.60379,8.78166,0.117206,-0.216927,-0.0167983,0
2024-12-13 15:30:40.372,-0.567398,4.59901,8.67368,0.12698,-0.216316,-0.0119115,0
2024-12-13 15:30:40.374,-0.584148,4.59661,8.55883,0.132477,-0.213873,-0.0051922,0
2024-12-13 15:30:40.377,-0.596112,4.59901,8.45594,0.137975,-0.210208,-0.00213797,0
2024-12-13 15:30:40.379,-0.586541,4.59183,8.36022,0.140419,-0.203488,0.000916271,0
2024-12-13 15:30:40.381,-0.562612,4.58226,8.26451,0.140419,-0.195547,0.00397051,0
2024-12-13 15:30:40.384,-0.550648,4.57986,8.16401,0.143473,-0.188828,0.0051922,0
2024-12-13 15:30:40.386,-0.538684,4.58226,8.05843,0.143473,-0.179055,0.00702474,0
2024-12-13 15:30:40.388,-0.524327,4.58465,7.95314,0.140419,-0.170503,0.00824644,0
2024-12-13 15:30:40.391,-0.500399,4.58465,7.85982,0.13431,-0.163783,0.00885729,0
2024-12-13 15:30:40.393,-0.474078,4.57747,7.78804,0.128202,-0.159507,0.00702474,0
2024-12-13 15:30:40.395,-0.464507,4.57508,7.70429,0.118428,-0.156453,0.00824644,0
2024-12-13 15:30:40.398,-0.469292,4.58943,7.62054,0.108044,-0.152788,0.00702474,0
2024-12-13 15:30:40.400,-0.457328,4.59661,7.56042,0.0952158,-0.149734,0.00580305,0
2024-12-13 15:30:40.403,-0.442971,4.59183,7.52214,0.0787229,-0.147901,0.00763559,0
2024-12-13 15:30:40.405,-0.438186,4.59661,7.51257,0.0652843,-0.146069,0.00702474,0
2024-12-13 15:30:40.407,-0.428614,4.59422,7.51496,0.0500131,-0.145458,0.00702474,0
2024-12-13 15:30:40.412,-0.371187,4.58465,7.49821,0.0164165,-0.147291,0.00763559,0
2024-12-13 15:30:40.412,-0.371187,4.58465,7.49821,0.0164165,-0.147291,0.00763559,0
2024-12-13 15:30:40.414,-0.349651,4.6014,7.51735,0.0164165,-0.147291,0.00763559,0
2024-12-13 15:30:40.417,-0.311366,4.60618,7.52932,-0.0122933,-0.154621,0.00885729,0
2024-12-13 15:30:40.419,-0.253639,4.59422,7.54607,-0.0269536,-0.15401,0.00824644,0
2024-12-13 15:30:40.421,-0.177069,4.59901,7.56282,-0.0410031,-0.155232,0.0064139,0
2024-12-13 15:30:40.424,-0.105284,4.59661,7.58226,-0.0489441,-0.158897,0.0051922,0
2024-12-13 15:30:40.426,-0.0598206,4.57747,7.6014,-0.0587177,-0.16134,-0.000305424,0
2024-12-13 15:30:40.428,-0.0239282,4.57268,7.62533,-0.0666587,-0.163783,-0.00397051,0
2024-12-13 15:30:40.431,0.00957129,4.56551,7.66122,-0.0721563,-0.164394,-0.00824644,0
2024-12-13 15:30:40.433,0.0526421,4.55593,7.69711,-0.0758214,-0.161951,-0.0137441,0
2024-12-13 15:30:40.436,0.11007,4.53918,7.733,-0.0807082,-0.158897,-0.0186308,0
2024-12-13 15:30:40.438,0.141177,4.51286,7.7689,-0.0825407,-0.152788,-0.0235176,0
2024-12-13 15:30:40.440,0.189033,4.50568,7.81436,-0.0837624,-0.144236,-0.0284044,0
2024-12-13 15:30:40.443,0.236889,4.48894,7.86461,-0.0843733,-0.133241,-0.0320695,0
2024-12-13 15:30:40.445,0.248854,4.45544,7.92443,-0.0837624,-0.1253,-0.0351237,0
2024-12-13 15:30:40.447,0.248854,4.44826,7.97707,-0.0831516,-0.120413,-0.033902,0
2024-12-13 15:30:40.450,0.253639,4.46261,7.99861,-0.0843733,-0.114916,-0.0351237,0
2024-12-13 15:30:40.452,0.270389,4.47458,8.001,-0.0843733,-0.109418,-0.0351237,0
2024-12-13 15:30:40.454,0.299402,4.48176,8.01297,-0.0880384,-0.100866,-0.0345129,0
2024-12-13 15:30:40.457,0.344866,4.47936,8.03211,-0.0892601,-0.093536,-0.0351237,0
2024-12-13 15:30:40.459,0.387936,4.48415,8.05125,-0.0929251,-0.0800973,-0.0363454,0
2024-12-13 15:30:40.464,0.45015,4.47936,8.10629,-0.105142,-0.0556635,-0.0400105,0
2024-12-13 15:30:40.464,0.45015,4.47936,8.10629,-0.105142,-0.0556635,-0.0400105,0
2024-12-13 15:30:40.466,0.483649,4.46501,8.11586,-0.113083,-0.0422248,-0.0393996,0
2024-12-13 15:30:40.468,0.505185,4.45304,8.13261,-0.120413,-0.0306187,-0.0393996,0
2024-12-13 15:30:40.471,0.519542,4.44586,8.15683,-0.131409,-0.0226777,-0.0412322,0
2024-12-13 15:30:40.473,0.541077,4.45065,8.17358,-0.143625,-0.0165692,-0.0455081,0
2024-12-13 15:30:40.476,0.562612,4.44347,8.20469,-0.15401,-0.0110716,-0.0485624,0
2024-12-13 15:30:40.478,0.584148,4.4339,8.23819,-0.170503,-0.00679568,-0.0510057,0
2024-12-13 15:30:40.480,0.62004,4.43869,8.2669,-0.185163,-0.00435229,-0.0546708,0
2024-12-13 15:30:40.483,0.643968,4.43629,8.31237,-0.198602,-0.00129805,-0.0571142,0
2024-12-13 15:30:40.487,0.646361,4.44586,8.36979,-0.222425,0.00481042,-0.062001,0
2024-12-13 15:30:40.487,0.632004,4.46022,8.44397,-0.222425,0.00481042,-0.062001,0
2024-12-13 15:30:40.490,0.615255,4.45783,8.52293,-0.235863,0.010308,-0.0644444,0
2024-12-13 15:30:40.492,0.584148,4.45544,8.60908,-0.246859,0.0127514,-0.0668878,0
2024-12-13 15:30:40.494,0.545863,4.45783,8.68804,-0.246859,0.0127514,-0.0668878,0
2024-12-13 15:30:40.499,0.514756,4.44826,8.82712,-0.266406,0.0274118,-0.0674986,0
2024-12-13 15:30:40.499,0.476471,4.44826,8.82712,-0.266406,0.0274118,-0.0674986,0
2024-12-13 15:30:40.501,0.438186,4.43151,8.91566,-0.26946,0.0316877,-0.0644444,0
2024-12-13 15:30:40.504,0.409472,4.42433,9.00419,-0.26946,0.0371853,-0.0626118,0
2024-12-13 15:30:40.506,0.387936,4.41715,9.08315,-0.267627,0.0432938,-0.0607793,0
2024-12-13 15:30:40.509,0.364008,4.41954,9.15733,-0.265184,0.0481806,-0.0565034,0
2024-12-13 15:30:40.511,0.332901,4.42672,9.2339,-0.262741,0.0512348,-0.05406,0
2024-12-13 15:30:40.513,0.289831,4.42194,9.32274,-0.256632,0.0530674,-0.0479515,0
2024-12-13 15:30:40.516,0.244068,4.42194,9.41606,-0.252356,0.0542891,-0.0442864,0
2024-12-13 15:30:40.520,0.239282,4.40997,9.6003,-0.235253,0.0597867,-0.0332912,0
2024-12-13 15:30:40.520,0.239282,4.40997,9.6003,-0.235253,0.0597867,-0.0332912,0
2024-12-13 15:30:40.523,0.232104,4.40758,9.67927,-0.224868,0.0658951,-0.0271827,0
2024-12-13 15:30:40.525,0.222533,4.40519,9.76062,-0.214484,0.0726145,-0.0216851,0
2024-12-13 15:30:40.527,0.232104,4.40519,9.84706,-0.202267,0.0775012,-0.0137441,0
2024-12-13 15:30:40.530,0.244068,4.40758,9.92124,-0.188828,0.0842206,-0.00580305,0
2024-12-13 15:30:40.532,0.267996,4.39801,9.98585,-0.172946,0.0884965,0.00274881,0
2024-12-13 15:30:40.534,0.289831,4.39083,10.0337,-0.162562,0.0958267,0.0119115,0
2024-12-13 15:30:40.537,0.292223,4.38126,10.084,-0.147901,0.100713,0.0186308,0
2024-12-13 15:30:40.539,0.32333,4.35972,10.139,-0.134463,0.104989,0.0284044,0
2024-12-13 15:30:40.546,0.402293,4.31665,10.2156,-0.0959794,0.111098,0.0497841,0
2024-12-13 15:30:40.546,0.402293,4.31665,10.2156,-0.0959794,0.111098,0.0497841,0
2024-12-13 15:30:40.549,0.414257,4.32383,10.2299,-0.0849841,0.109876,0.0571142,0
2024-12-13 15:30:40.551,0.409472,4.35494,10.2275,-0.0752106,0.109265,0.0662769,0
2024-12-13 15:30:40.551,0.409472,4.35494,10.2275,-0.0752106,0.109265,0.0662769,0
2024-12-13 15:30:40.556,0.531506,4.45544,10.1821,-0.0532201,0.111098,0.0760505,0
2024-12-13 15:30:40.558,0.524327,4.44826,10.1916,-0.0428357,0.115374,0.0791047,0
2024-12-13 15:30:40.560,0.474078,4.42672,10.2491,-0.0306187,0.116595,0.0846023,0
2024-12-13 15:30:40.560,0.474078,4.42672,10.2491,-0.0306187,0.116595,0.0846023,0
2024-12-13 15:30:40.563,0.445364,4.38844,10.2634,-0.0122933,0.118428,0.0931542,0
2024-12-13 15:30:40.565,0.4669,4.3669,10.1988,0.00236703,0.11293,0.101706,0
2024-12-13 15:30:40.567,0.512363,4.36451,10.1055,0.0182491,0.110487,0.108425,0
2024-12-13 15:30:40.570,0.574577,4.37887,10.0146,0.0286335,0.109876,0.115145,0
2024-12-13 15:30:40.572,0.629611,4.41954,9.95235,0.038407,0.107433,0.11881,0
2024-12-13 15:30:40.574,0.639183,4.46022,9.92603,0.0457372,0.103157,0.121864,0
2024-12-13 15:30:40.577,0.615255,4.47936,9.87578,0.0457372,0.103157,0.121864,0
2024-12-13 15:30:40.579,0.608076,4.49372,9.80848,0.0603975,0.094605,0.127972,0
2024-12-13 15:30:40.582,0.591326,4.51765,9.75823,0.0671168,0.0909399,0.131638,0
2024-12-13 15:30:40.584,0.576969,4.54876,9.69602,0.074447,0.0897182,0.137822,0
2024-12-13 15:30:40.586,0.581755,4.57508,9.64337,0.0836097,0.0897182,0.143931,0
2024-12-13 15:30:40.589,0.591326,4.59901,9.58355,0.090329,0.0915507,0.150039,0
2024-12-13 15:30:40.591,0.615255,4.62293,9.52852,0.0970484,0.0964375,0.154315,0
2024-12-13 15:30:40.593,0.646361,4.64686,9.49502,0.0970484,0.0964375,0.154315,0
2024-12-13 15:30:40.596,0.660718,4.67079,9.44716,0.110487,0.106822,0.160424,0
2024-12-13 15:30:40.598,0.648754,4.68036,9.39452,0.117817,0.113541,0.162867,0
2024-12-13 15:30:40.603,0.624826,4.70429,9.2677,0.129423,0.123926,0.168976,0
2024-12-13 15:30:40.603,0.624826,4.70429,9.2677,0.129423,0.123926,0.168976,0
2024-12-13 15:30:40.605,0.622433,4.72582,9.19083,0.13431,0.128812,0.172641,0
2024-12-13 15:30:40.607,0.600898,4.733,9.11426,0.138586,0.133088,0.175695,0
2024-12-13 15:30:40.610,0.579362,4.74736,9.04726,0.14164,0.136143,0.178138,0
2024-12-13 15:30:40.612,0.576969,4.7665,8.98026,0.145916,0.136753,0.180582,0
2024-12-13 15:30:40.614,0.565005,4.77398,8.92762,0.143473,0.137975,0.184247,0
2024-12-13 15:30:40.617,0.557827,4.78355,8.90369,0.142862,0.137975,0.185468,0
2024-12-13 15:30:40.619,0.536291,4.8003,8.89891,0.141029,0.136753,0.188523,0
2024-12-13 15:30:40.622,0.502792,4.80269,8.88694,0.138586,0.135532,0.191577,0
2024-12-13 15:30:40.624,0.476471,4.80509,8.89173,0.137975,0.137364,0.194631,0
2024-12-13 15:30:40.626,0.447757,4.82184,8.90609,0.133088,0.136753,0.195853,0
2024-12-13 15:30:40.629,0.421436,4.84816,8.92284,0.129423,0.134921,0.196464,0
2024-12-13 15:30:40.631,0.411865,4.87209,8.95634,0.124536,0.131256,0.198907,0
2024-12-13 15:30:40.633,0.409472,4.9008,8.98266,0.11965,0.12698,0.20074,0
2024-12-13 15:30:40.636,0.419043,4.9343,8.99223,0.117206,0.123315,0.201351,0
2024-12-13 15:30:40.638,0.423829,4.96062,9.0353,0.114763,0.119039,0.199518,0
2024-12-13 15:30:40.640,0.431007,4.99651,9.09512,0.111098,0.114152,0.198907,0
2024-12-13 15:30:40.643,0.435793,5.0013,9.1669,0.108044,0.11232,0.195853,0
2024-12-13 15:30:40.645,0.409472,4.97258,9.24587,0.108654,0.111709,0.194631,0
2024-12-13 15:30:40.647,0.380758,4.95344,9.31795,0.109265,0.113541,0.191577,0
2024-12-13 15:30:40.650,0.342473,4.94626,9.38495,0.109876,0.118428,0.188523,0
2024-12-13 15:30:40.652,0.294616,4.96301,9.44477,0.106822,0.118428,0.187912,0
2024-12-13 15:30:40.657,0.282652,5.11376,9.52134,0.103157,0.111098,0.187301,0
2024-12-13 15:30:40.657,0.282652,5.11376,9.52134,0.103157,0.111098,0.187301,0
2024-12-13 15:30:40.659,0.385544,5.14008,9.5692,0.0970484,0.106211,0.184247,0
2024-12-13 15:30:40.662,0.825823,4.94387,9.8686,0.0872748,0.0958267,0.176306,0
2024-12-13 15:30:40.664,0.919442,4.82662,10.0768,0.0884965,0.0768904,0.158591,0
2024-12-13 15:30:40.666,0.495613,4.99173,9.94756,0.0884965,0.0768904,0.158591,0
2024-12-13 15:30:40.669,0.248854,5.19272,9.94038,0.0683385,0.0891073,0.146374,0
2024-12-13 15:30:40.671,0.378365,5.22383,10.2012,0.0597867,0.0878856,0.145763,0
2024-12-13 15:30:40.673,0.500399,5.19272,10.5413,0.0536782,0.0671168,0.142098,0
2024-12-13 15:30:40.676,0.27996,5.34377,10.6753,0.0487914,0.0494023,0.139655,0
2024-12-13 15:30:40.678,0.0957129,5.48734,10.7064,0.038407,0.0408504,0.142098,0
2024-12-13 15:30:40.680,0.0526421,5.54716,10.8882,0.0286335,0.0268009,0.147596,0
2024-12-13 15:30:40.683,0.0,5.61895,11.1159,0.0213033,0.00786466,0.154926,0
2024-12-13 15:30:40.687,-0.0287139,5.6692,11.4987,0.0133623,-0.0238994,0.170197,0
2024-12-13 15:30:40.690,-0.00478565,5.67398,11.6593,0.010308,-0.0342838,0.178138,0
2024-12-13 15:30:40.691,-0.00478565,5.67398,11.6593,0.0121406,-0.0458899,0.181803,0
2024-12-13 15:30:40.695,0.162712,5.66441,11.9393,0.0121406,-0.0458899,0.181803,0
2024-12-13 15:30:40.695,0.162712,5.66441,11.9393,0.0121406,-0.0458899,0.181803,0
2024-12-13 15:30:40.697,0.285045,5.62134,12.1071,0.0200816,-0.0642153,0.184858,0
2024-12-13 15:30:40.699,0.423829,5.5663,12.253,0.0280226,-0.0752106,0.17936,0
2024-12-13 15:30:40.702,0.56022,5.52563,12.3177,0.0396287,-0.0739889,0.173252,0
2024-12-13 15:30:40.704,0.624826,5.50648,12.3799,0.0512348,-0.065437,0.162256,0
2024-12-13 15:30:40.706,0.608076,5.50409,12.5258,0.0646735,-0.0581068,0.153094,0
2024-12-13 15:30:40.709,0.581755,5.50648,12.6817,0.0811663,-0.0507767,0.14332,0
2024-12-13 15:30:40.711,0.569791,5.52802,12.8516,0.100103,-0.0532201,0.135379,0
2024-12-13 15:30:40.713,0.579362,5.53998,13.0167,0.119039,-0.0556635,0.128583,0
2024-12-13 15:30:40.716,0.574577,5.5352,13.1339,0.139197,-0.0599394,0.122475,0
2024-12-13 15:30:40.718,0.581755,5.55673,13.2275,0.165463,-0.0666587,0.114534,0
2024-12-13 15:30:40.720,0.612862,5.57587,13.2873,0.189897,-0.0666587,0.108425,0
2024-12-13 15:30:40.723,0.655932,5.56391,13.3065,0.215553,-0.0648262,0.0998735,0
2024-12-13 15:30:40.725,0.708575,5.53998,13.2826,0.241819,-0.0593285,0.0901,0
2024-12-13 15:30:40.728,0.754038,5.52802,13.1988,0.268086,-0.0501658,0.0784939,0
2024-12-13 15:30:40.730,0.785145,5.54238,13.0956,0.287633,-0.033673,0.0662769,0
2024-12-13 15:30:40.732,0.797109,5.56391,12.9999,0.310234,-0.0122933,0.0558925,0
2024-12-13 15:30:40.735,0.794716,5.57587,12.9066,0.330392,0.00847551,0.0448973,0
2024-12-13 15:30:40.738,0.792323,5.59502,12.8157,0.358491,0.0341311,0.0235176,0
2024-12-13 15:30:40.739,0.787538,5.63091,12.7128,0.358491,0.0341311,0.0235176,0
2024-12-13 15:30:40.742,0.785145,5.67159,12.5713,0.36773,0.0439046,0.0143549,0
2024-12-13 15:30:40.744,0.797109,5.70509,12.4158,0.37506,0.0487914,0.00335966,0
2024-12-13 15:30:40.749,0.777966,5.75294,12.0927,0.375671,0.0573433,-0.0137441,0
2024-12-13 15:30:40.749,0.777966,5.75294,12.0927,0.375671,0.0573433,-0.0137441,0
2024-12-13 15:30:40.751,0.777966,5.78405,11.9297,0.36773,0.0622301,-0.0204634,0
2024-12-13 15:30:40.753,0.787538,5.80798,11.7814,0.35788,0.0683385,-0.0277936,0
2024-12-13 15:30:40.756,0.821037,5.84866,11.6282,0.344442,0.0787229,-0.0357346,0
2024-12-13 15:30:40.758,0.859622,5.90638,11.4939,0.344442,0.0787229,-0.0357346,0
2024-12-13 15:30:40.763,0.859622,5.96381,11.403,0.272972,0.0829989,-0.0626118,0
2024-12-13 15:30:40.763,0.804287,6.01167,11.3312,0.272972,0.0829989,-0.0626118,0
2024-12-13 15:30:40.765,0.737288,6.0667,11.2666,0.244873,0.0805555,-0.0693312,0
2024-12-13 15:30:40.770,0.655932,6.17917,11.1039,0.180734,0.0793338,-0.0754396,0
2024-12-13 15:30:40.770,0.655932,6.17917,11.1039,0.180734,0.0793338,-0.0754396,0
2024-12-13 15:30:40.772,0.651147,6.22224,11.0393,0.143473,0.0775012,-0.077883,0
2024-12-13 15:30:40.775,0.646361,6.24856,11.0106,0.104989,0.0726145,-0.0766613,0
2024-12-13 15:30:40.777,0.682254,6.28924,10.9627,0.0658951,0.0683385,-0.0760505,0
2024-12-13 15:30:40.779,0.715753,6.32513,10.9098,0.0200816,0.0695602,-0.0827698,0
2024-12-13 15:30:40.782,0.720539,6.33709,10.989,-0.0263428,0.0720036,-0.0870457,0
2024-12-13 15:30:40.784,0.672682,6.34427,11.1422,-0.0691021,0.0677277,-0.0894891,0
2024-12-13 15:30:40.786,0.62004,6.32513,11.2618,-0.10392,0.0597867,-0.0888783,0
2024-12-13 15:30:40.789,0.60329,6.27966,11.3456,-0.143015,0.0457372,-0.0839915,0
2024-12-13 15:30:40.791,0.598505,6.22941,11.415,-0.183331,0.0268009,-0.0815481,0
2024-12-13 15:30:40.793,0.622433,6.16481,11.5229,-0.229144,0.00419957,-0.0784939,0
2024-12-13 15:30:40.796,0.629611,6.07627,11.6593,-0.276179,-0.0202343,-0.0717745,0
2024-12-13 15:30:40.798,0.596112,5.98535,11.8316,-0.321993,-0.049555,-0.069942,0
2024-12-13 15:30:40.801,0.567398,5.89681,12.0494,-0.369028,-0.0764323,-0.0601685,0
2024-12-13 15:30:40.803,0.524327,5.78644,12.2961,-0.414231,-0.102699,-0.0534491,0
2024-12-13 15:30:40.808,0.447757,5.65245,12.5809,-0.460655,-0.129576,-0.0406213,0
2024-12-13 15:30:40.810,0.380758,5.27887,13.1746,-0.542509,-0.171724,-0.0143549,0
2024-12-13 15:30:40.810,0.380758,5.27887,13.1746,-0.542509,-0.171724,-0.0143549,0
2024-12-13 15:30:40.812,0.347258,5.06351,13.4237,-0.580381,-0.178444,0.000916271,0
2024-12-13 15:30:40.815,0.258425,4.87448,13.7037,-0.614589,-0.168059,0.0198525,0
2024-12-13 15:30:40.819,0.0693919,4.52722,14.3886,-0.661013,-0.142404,0.0656661,0
2024-12-13 15:30:40.819,0.0693919,4.52722,14.3886,-0.661013,-0.142404,0.0656661,0
2024-12-13 15:30:40.822,0.0622134,4.33101,14.7452,-0.671398,-0.117359,0.0943759,0
2024-12-13 15:30:40.824,0.0741775,4.13211,15.0494,-0.679339,-0.0886492,0.121253,0
2024-12-13 15:30:40.826,0.11007,3.94068,15.3389,-0.678728,-0.0532201,0.148207,0
2024-12-13 15:30:40.829,0.145962,3.74447,15.6096,-0.674452,-0.0141258,0.171419,0
2024-12-13 15:30:40.831,0.081356,3.62453,15.7866,-0.661624,0.0274118,0.192799,0
2024-12-13 15:30:40.834,-0.129212,3.59821,15.813,-0.64452,0.0915507,0.222119,0
2024-12-13 15:30:40.838,-0.198604,3.34935,16.1842,-0.599928,0.214942,0.283204,0
2024-12-13 15:30:40.838,-0.198604,3.34935,16.1842,-0.599928,0.214942,0.283204,0
2024-12-13 15:30:40.841,-0.145962,3.13639,16.3517,-0.566943,0.265031,0.315579,0
2024-12-13 15:30:40.845,0.0382852,2.71496,16.5048,-0.526016,0.308401,0.341845,0
2024-12-13 15:30:40.848,0.18664,2.51845,16.4857,-0.424615,0.382314,0.382161,3
2024-12-13 15:30:40.848,0.18664,2.51845,16.4857,-0.424615,0.382314,0.382161,3
2024-12-13 15:30:40.852,0.495613,2.14277,16.1889,-0.300613,0.443399,0.403541,0
2024-12-13 15:30:40.852,0.495613,2.14277,16.1889,-0.300613,0.443399,0.403541,0
2024-12-13 15:30:40.855,0.617647,2.0016,15.8824,-0.231587,0.470887,0.404152,0
2024-12-13 15:30:40.857,0.708575,1.90798,15.4971,-0.160118,0.499597,0.40293,0
2024-12-13 15:30:40.859,0.761217,1.82423,15.0374,-0.085595,0.528307,0.3956,0
2024-12-13 15:30:40.862,0.766002,1.75962,14.5418,-0.00801737,0.555795,0.383383,0
2024-12-13 15:30:40.864,0.737288,1.73091,14.0294,-0.00801737,0.555795,0.383383,0
2024-12-13 15:30:40.866,0.682254,1.74527,13.5458,0.135532,0.600997,0.357117,0
2024-12-13 15:30:40.869,0.63679,1.76441,13.0813,0.216164,0.619934,0.338791,0
2024-12-13 15:30:40.871,0.591326,1.78594,12.5928,0.287633,0.629707,0.324131,0
2024-12-13 15:30:40.874,0.538684,1.84098,12.0879,0.359713,0.635816,0.304584,0
2024-12-13 15:30:40.876,0.452543,1.89123,11.5636,0.427593,0.638259,0.288702,0
2024-12-13 15:30:40.878,0.308973,1.93669,11.0297,0.492343,0.634594,0.27282,0
2024-12-13 15:30:40.881,0.155533,1.99442,10.5293,0.554649,0.633372,0.256938,0
2024-12-13 15:30:40.883,0.0167498,2.05424,10.0576,0.610847,0.62421,0.243499,0
2024-12-13 15:30:40.885,-0.100499,2.11884,9.6027,0.66338,0.608938,0.228228,0
2024-12-13 15:30:40.888,-0.241675,2.17866,9.21476,0.711637,0.590613,0.214789,0
2024-12-13 15:30:40.890,-0.392722,2.22413,8.84626,0.759283,0.558238,0.20807,0
2024-12-13 15:30:40.892,-0.457328,2.27199,8.40569,0.795934,0.527085,0.20074,0
2024-12-13 15:30:40.895,-0.474078,2.32463,7.94357,0.825866,0.500818,0.187301,0
2024-12-13 15:30:40.897,-0.514756,2.40359,7.50539,0.842969,0.470887,0.175084,0
2024-12-13 15:30:40.899,-0.541077,2.48255,7.15125,0.853354,0.439734,0.159202,0
2024-12-13 15:30:40.902,-0.581755,2.56182,6.8351,0.856408,0.40858,0.142098,0
2024-12-13 15:30:40.904,-0.648754,2.63599,6.55274,0.850299,0.373762,0.123086,0
2024-12-13 15:30:40.907,-0.706182,2.69821,6.32752,0.839915,0.3365,0.107815,0
2024-12-13 15:30:40.909,-0.756431,2.76281,6.13131,0.825255,0.302293,0.0943759,0
2024-12-13 15:30:40.911,-0.816252,2.84895,5.97578,0.808151,0.265642,0.0827698,0
2024-12-13 15:30:40.916,-0.950549,2.99252,5.82951,0.75012,0.190508,0.0644444,0
2024-12-13 15:30:40.918,-0.950549,3.07867,5.85344,0.717746,0.144694,0.0546708,0
2024-12-13 15:30:40.918,-1.03669,3.07867,5.85344,0.717746,0.144694,0.0546708,0
2024-12-13 15:30:40.921,-1.20419,3.21536,5.82951,0.679873,0.1056,0.0479515,0
2024-12-13 15:30:40.923,-1.28315,3.2991,5.88216,0.638335,0.0683385,0.0448973,0
2024-12-13 15:30:40.925,-1.30469,3.2991,5.9997,0.601685,0.0316877,0.0436756,0
2024-12-13 15:30:40.928,-1.31904,3.25125,6.10499,0.56259,-0.00679568,0.0393996,0
2024-12-13 15:30:40.930,-1.29512,3.18425,6.19113,0.521053,-0.037338,0.0357346,0
2024-12-13 15:30:40.932,-1.24008,3.09811,6.27966,0.481348,-0.0599394,0.0345129,0
2024-12-13 15:30:40.935,-1.19462,3.01645,6.38495,0.442253,-0.0794865,0.0284044,0
2024-12-13 15:30:40.937,-1.16112,2.93988,6.5025,0.40377,-0.0929251,0.0265719,0
2024-12-13 15:30:40.939,-1.14197,2.89442,6.62214,0.372617,-0.101477,0.0247393,0
2024-12-13 15:30:40.942,-1.15155,2.8657,6.7346,0.34322,-0.106364,0.025961,0
2024-12-13 15:30:40.944,-1.18505,2.8346,6.85424,0.313288,-0.10331,0.0296261,0
2024-12-13 15:30:40.947,-1.22094,2.81785,6.95474,0.290076,-0.0929251,0.0351237,0
2024-12-13 15:30:40.949,-1.26162,2.79631,7.04836,0.268086,-0.073378,0.0436756,0
2024-12-13 15:30:40.951,-1.29033,2.76999,7.1345,0.246095,-0.0465007,0.0558925,0
2024-12-13 15:30:40.954,-1.29272,2.73649,7.18236,0.226548,-0.0153475,0.0711637,0
2024-12-13 15:30:40.956,-1.27837,2.69821,7.24696,0.207612,0.0194708,0.085824,0
2024-12-13 15:30:40.958,-1.24008,2.65035,7.31157,0.189286,0.0548999,0.0992627,0
2024-12-13 15:30:40.961,-1.19462,2.58574,7.35943,0.175237,0.0872748,0.117588,0
2024-12-13 15:30:40.963,-1.18744,2.52592,7.40489,0.158744,0.121482,0.131638,0
2024-12-13 15:30:40.965,-1.18265,2.48495,7.45514,0.143473,0.150192,0.147596,0
2024-12-13 15:30:40.970,-1.14437,2.3988,7.56282,0.11232,0.194784,0.176917,0
2024-12-13 15:30:40.970,-1.14437,2.3988,7.56282,0.11232,0.194784,0.176917,0
2024-12-13 15:30:40.972,-1.10369,2.3677,7.59901,0.100103,0.21372,0.189134,0
2024-12-13 15:30:40.975,-1.05344,2.34856,7.65404,0.0915507,0.224715,0.201351,0
2024-12-13 15:30:40.977,-1.01515,2.32463,7.71147,0.0793338,0.236932,0.213567,0
2024-12-13 15:30:40.980,-1.00319,2.3007,7.75693,0.0689494,0.243041,0.22273,0
2024-12-13 15:30:40.982,-0.99362,2.29831,7.82872,0.0597867,0.247928,0.233725,0
2024-12-13 15:30:40.984,-0.986441,2.3007,7.89093,0.050624,0.250371,0.246553,0
2024-12-13 15:30:40.987,-0.969691,2.28873,7.92443,0.0457372,0.250371,0.255105,0
2024-12-13 15:30:40.989,-0.933799,2.28156,7.95554,0.0377962,0.250371,0.261824,0
2024-12-13 15:30:40.991,-0.890728,2.26959,7.98904,0.038407,0.252814,0.267933,0
2024-12-13 15:30:40.994,-0.859622,2.26481,7.98664,0.0377962,0.251593,0.274041,0
2024-12-13 15:30:40.996,-0.837787,2.25524,7.96032,0.0371853,0.251593,0.277706,0
2024-12-13 15:30:40.998,-0.80668,2.2337,7.92682,0.0335202,0.252204,0.280761,0
2024-12-13 15:30:41.001,-0.787538,2.22652,7.89093,0.0359636,0.254036,0.281982,0
2024-12-13 15:30:41.003,-0.775574,2.21695,7.85743,0.0365745,0.254036,0.279539,0
2024-12-13 15:30:41.005,-0.768395,2.21695,7.82872,0.0371853,0.254036,0.278317,0
2024-12-13 15:30:41.008,-0.756431,2.2337,7.79522,0.0359636,0.255869,0.275874,0
2024-12-13 15:30:41.010,-0.739681,2.25524,7.76172,0.0390179,0.255869,0.270376,0
2024-12-13 15:30:41.013,-0.742074,2.28395,7.73061,0.038407,0.260145,0.2661,0
2024-12-13 15:30:41.015,-0.756431,2.30788,7.67797,0.0371853,0.264421,0.259381,0
2024-12-13 15:30:41.017,-0.782752,2.31745,7.60618,0.0402396,0.267475,0.253883,0
2024-12-13 15:30:41.020,-0.789931,2.33898,7.55085,0.038407,0.271751,0.247775,0
2024-12-13 15:30:41.022,-0.773181,2.37966,7.49342,0.0396287,0.277248,0.238001,0
2024-12-13 15:30:41.024,-0.758824,2.39402,7.41207,0.0377962,0.283357,0.229449,0
2024-12-13 15:30:41.027,-0.742074,2.38445,7.31396,0.0396287,0.2858,0.219065,0
2024-12-13 15:30:41.029,-0.720539,2.39402,7.21107,0.0390179,0.290687,0.211124,0
2024-12-13 15:30:41.031,-0.71336,2.42034,7.12014,0.0377962,0.294352,0.198907,0
2024-12-13 15:30:41.034,-0.715753,2.42513,7.01725,0.0347419,0.30046,0.187912,0
2024-12-13 15:30:41.036,-0.701396,2.42273,6.92842,0.0322986,0.303515,0.17936,0
2024-12-13 15:30:41.038,-0.691825,2.42991,6.85424,0.0298552,0.305347,0.167754,0
2024-12-13 15:30:41.041,-0.679861,2.44427,6.77528,0.0255792,0.304736,0.158591,0
2024-12-13 15:30:41.043,-0.665504,2.45384,6.71067,0.0219141,0.301071,0.148818,0
2024-12-13 15:30:41.045,-0.670289,2.46341,6.66042,0.0188599,0.296795,0.138433,0
2024-12-13 15:30:41.048,-0.667897,2.48495,6.59103,0.0158057,0.2858,0.129805,0
2024-12-13 15:30:41.050,-0.672682,2.53071,6.5025,0.0109189,0.274805,0.120031,0
2024-12-13 15:30:41.053,-0.675075,2.57857,6.41845,0.00419957,0.262588,0.110869,0
2024-12-13 15:30:41.055,-0.663111,2.60967,6.3347,-0.000687203,0.24976,0.102317,0
2024-12-13 15:30:41.057,-0.651147,2.64317,6.2342,-0.00557398,0.238154,0.0931542,0
2024-12-13 15:30:41.061,-0.639183,2.68146,6.12892,-0.0226777,0.219218,0.082159,0
2024-12-13 15:30:41.062,-0.641576,2.70299,6.04517,-0.0226777,0.219218,0.082159,0
2024-12-13 15:30:41.067,-0.65354,2.70539,5.8678,-0.041614,0.20639,0.0729962,0
2024-12-13 15:30:41.067,-0.672682,2.69342,5.8678,-0.041614,0.20639,0.0729962,0
2024-12-13 15:30:41.069,-0.665504,2.68624,5.81516,-0.0538309,0.200282,0.0687203,0
2024-12-13 15:30:41.071,-0.639183,2.70539,5.77209,-0.0672696,0.196616,0.0656661,0
2024-12-13 15:30:41.074,-0.643968,2.70778,5.75534,-0.0782648,0.195395,0.0626118,0
2024-12-13 15:30:41.076,-0.646361,2.7006,5.74577,-0.0886492,0.196006,0.0595576,0
2024-12-13 15:30:41.078,-0.634397,2.71496,5.72184,-0.0965902,0.198449,0.0583359,0
2024-12-13 15:30:41.081,-0.63679,2.74128,5.71466,-0.107585,0.203336,0.0589468,0
2024-12-13 15:30:41.083,-0.622433,2.75803,5.69312,-0.116137,0.208833,0.0577251,0
2024-12-13 15:30:41.086,-0.591326,2.77956,5.65245,-0.124078,0.219218,0.0577251,0
2024-12-13 15:30:41.088,-0.572184,2.80588,5.6357,-0.130798,0.230213,0.0589468,0
2024-12-13 15:30:41.090,-0.572184,2.81306,5.6333,-0.13935,0.241208,0.0595576,0
2024-12-13 15:30:41.093,-0.584148,2.81067,5.64766,-0.145458,0.255258,0.062001,0
2024-12-13 15:30:41.095,-0.591326,2.83699,5.67398,-0.15401,0.266864,0.0644444,0
2024-12-13 15:30:41.097,-0.596112,2.87049,5.67398,-0.160729,0.276637,0.0687203,0
2024-12-13 15:30:41.104,-0.565005,2.93749,5.65484,-0.17539,0.289465,0.0760505,0
2024-12-13 15:30:41.104,-0.565005,2.93749,5.65484,-0.17539,0.289465,0.0760505,0
2024-12-13 15:30:41.107,-0.54347,2.97817,5.64766,-0.189439,0.293741,0.0846023,0
2024-12-13 15:30:41.107,-0.54347,2.97817,5.64766,-0.189439,0.293741,0.0846023,0
2024-12-13 15:30:41.109,-0.517149,2.98774,5.64527,-0.19738,0.29313,0.0864349,0
2024-12-13 15:30:41.111,-0.495613,2.98295,5.65245,-0.208375,0.29313,0.0919325,0
2024-12-13 15:30:41.114,-0.488435,3.01167,5.65484,-0.217538,0.288854,0.0974301,0
2024-12-13 15:30:41.118,-0.483649,3.05713,5.68116,-0.236474,0.279081,0.102317,0
2024-12-13 15:30:41.118,-0.483649,3.05713,5.68116,-0.236474,0.279081,0.102317,0
2024-12-13 15:30:41.121,-0.490828,3.07149,5.69073,-0.247469,0.272362,0.105371,0
2024-12-13 15:30:41.123,-0.514756,3.08345,5.7003,-0.259686,0.268086,0.109647,0
2024-12-13 15:30:41.126,-0.574577,3.10529,5.73619,-0.270071,0.262588,0.115145,0
2024-12-13 15:30:41.128,-0.639183,3.13161,5.77209,-0.281066,0.258923,0.120642,0
2024-12-13 15:30:41.130,-0.684646,3.15553,5.79123,-0.289007,0.253425,0.129194,0
2024-12-13 15:30:41.133,-0.691825,3.16271,5.8343,-0.296948,0.246706,0.137212,0
2024-12-13 15:30:41.135,-0.670289,3.18664,5.8678,-0.304889,0.239987,0.145763,0
2024-12-13 15:30:41.137,-0.643968,3.21775,5.89921,-0.315274,0.234489,0.151261,0
2024-12-13 15:30:41.140,-0.624826,3.21775,5.96142,-0.325047,0.226548,0.154926,0
2024-12-13 15:30:41.142,-0.593719,3.22732,6.01167,-0.332377,0.22044,0.161035,0
2024-12-13 15:30:41.144,-0.574577,3.24168,6.06192,-0.337875,0.210666,0.163478,0
2024-12-13 15:30:41.147,-0.569791,3.2656,6.12413,-0.348259,0.205779,0.166532,0
2024-12-13 15:30:41.149,-0.574577,3.28475,6.18395,-0.357422,0.202114,0.170808,0
2024-12-13 15:30:41.151,-0.598505,3.29671,6.24616,-0.361698,0.19906,0.173862,0
2024-12-13 15:30:41.156,-0.612862,3.31346,6.36581,-0.376969,0.200892,0.180582,0
2024-12-13 15:30:41.156,-0.605683,3.31346,6.36581,-0.376969,0.200892,0.180582,0
2024-12-13 15:30:41.159,-0.605683,3.33978,6.44716,-0.382467,0.205168,0.181803,0
2024-12-13 15:30:41.161,-0.624826,3.34218,6.5336,-0.386132,0.210666,0.18669,0
2024-12-13 15:30:41.163,-0.627219,3.33978,6.64128,-0.391019,0.215553,0.188523,0
2024-12-13 15:30:41.168,-0.648754,3.34696,6.89731,-0.394684,0.224715,0.195242,0
2024-12-13 15:30:41.170,-0.667897,3.34935,7.02922,-0.398349,0.229602,0.201351,0
2024-12-13 15:30:41.170,-0.667897,3.34935,7.02922,-0.398349,0.229602,0.201351,0
2024-12-13 15:30:41.173,-0.684646,3.37807,7.1345,-0.395905,0.232046,0.206848,0
2024-12-13 15:30:41.175,-0.689432,3.41875,7.18714,-0.396516,0.233267,0.210513,0
2024-12-13 15:30:41.177,-0.689432,3.4666,7.22543,-0.401403,0.2351,0.210513,0
2024-12-13 15:30:41.180,-0.684646,3.50489,7.27089,-0.403236,0.236322,0.211735,0
2024-12-13 15:30:41.182,-0.696611,3.50728,7.302,-0.403236,0.237543,0.214789,0
2024-12-13 15:30:41.184,-0.732503,3.51207,7.34268,-0.409344,0.239987,0.217843,0
2024-12-13 15:30:41.187,-0.737288,3.52403,7.40728,-0.415452,0.244873,0.22273,0
2024-12-13 15:30:41.189,-0.722932,3.52882,7.48385,-0.420339,0.251593,0.224563,0
2024-12-13 15:30:41.191,-0.718146,3.52882,7.57478,-0.427059,0.253425,0.226395,0
2024-12-13 15:30:41.196,-0.677468,3.56231,7.75693,-0.439886,0.250982,0.231282,0
2024-12-13 15:30:41.199,-0.696611,3.57906,7.81197,-0.439886,0.250982,0.231282,0
2024-12-13 15:30:41.199,-0.696611,3.57906,7.81197,-0.439886,0.250982,0.231282,0
2024-12-13 15:30:41.201,-0.734896,3.6006,7.85982,-0.44966,0.241208,0.236169,0
2024-12-13 15:30:41.203,-0.782752,3.61735,7.9005,-0.455768,0.236322,0.239834,0
2024-12-13 15:30:41.208,-0.833001,3.63649,8.03211,-0.469207,0.233878,0.252051,0
2024-12-13 15:30:41.210,-0.833001,3.63649,8.03211,-0.47837,0.231435,0.253883,0
2024-12-13 15:30:41.210,-0.847657,3.66551,8.12543,-0.47837,0.231435,0.253883,0
2024-12-13 15:30:41.213,-0.821037,3.69183,8.22862,-0.484478,0.228381,0.258159,0
2024-12-13 15:30:41.215,-0.787538,3.70618,8.32194,-0.489365,0.224105,0.259381,0
2024-12-13 15:30:41.217,-0.777966,3.71575,8.43919,-0.494863,0.219218,0.259992,0
2024-12-13 15:30:41.220,-0.773181,3.72772,8.57079,-0.501582,0.213109,0.261214,0
2024-12-13 15:30:41.222,-0.780359,3.73968,8.69043,-0.505247,0.208223,0.259381,0
2024-12-13 15:30:41.224,-0.797109,3.73968,8.78884,-0.502804,0.204557,0.259381,0
2024-12-13 15:30:41.227,-0.809073,3.73729,8.88216,-0.502804,0.197838,0.257548,0
2024-12-13 15:30:41.229,-0.809073,3.74925,8.98744,-0.502804,0.192951,0.256938,0
2024-12-13 15:30:41.232,-0.794716,3.77318,9.08315,-0.499139,0.183789,0.254494,0
2024-12-13 15:30:41.236,-0.797109,3.8019,9.29881,-0.489365,0.164242,0.246553,0
2024-12-13 15:30:41.236,-0.794716,3.8019,9.29881,-0.489365,0.164242,0.246553,0
2024-12-13 15:30:41.239,-0.811466,3.79472,9.39931,-0.482035,0.14836,0.243499,0
2024-12-13 15:30:41.241,-0.862014,3.77318,9.50698,-0.47165,0.13431,0.238001,0
2024-12-13 15:30:41.244,-0.895514,3.75404,9.61227,-0.448438,0.114763,0.231282,0
2024-12-13 15:30:41.246,-0.9003,3.7349,9.69602,-0.448438,0.114763,0.231282,0
2024-12-13 15:30:41.250,-0.912264,3.699,9.8686,-0.419728,0.0915507,0.225784,0
2024-12-13 15:30:41.250,-0.912264,3.699,9.8686,-0.419728,0.0915507,0.225784,0
2024-12-13 15:30:41.253,-0.929013,3.67268,9.9356,-0.402014,0.082388,0.22273,0
2024-12-13 15:30:41.255,-0.917049,3.66311,10.0098,-0.382467,0.0677277,0.217843,0
2024-12-13 15:30:41.257,-0.881157,3.6679,10.0672,-0.364752,0.0555107,0.216011,0
2024-12-13 15:30:41.260,-0.835394,3.67029,10.1294,-0.344594,0.042683,0.212957,0
2024-12-13 15:30:41.262,-0.782752,3.68943,10.1868,-0.32749,0.0274118,0.209292,0
2024-12-13 15:30:41.265,-0.76361,3.70858,10.218,-0.313441,0.0127514,0.204405,0
2024-12-13 15:30:41.267,-0.749253,3.73011,10.2491,-0.299392,-0.00251974,0.198907,0
2024-12-13 15:30:41.269,-0.699003,3.75404,10.2634,-0.282288,-0.0153475,0.194631,0
2024-12-13 15:30:41.272,-0.643968,3.77557,10.261,-0.270682,-0.0300079,0.187301,0
2024-12-13 15:30:41.274,-0.598505,3.78993,10.2706,-0.256021,-0.0434465,0.178749,0
2024-12-13 15:30:41.276,-0.548256,3.79711,10.2873,-0.245026,-0.0532201,0.173862,0
2024-12-13 15:30:41.279,-0.507577,3.80429,10.2802,-0.229755,-0.0629936,0.165921,0
2024-12-13 15:30:41.281,-0.481256,3.81147,10.273,-0.219981,-0.0691021,0.160424,0
2024-12-13 15:30:41.283,-0.462114,3.81865,10.2682,-0.210208,-0.073378,0.154315,0
2024-12-13 15:30:41.286,-0.414257,3.83061,10.2347,-0.200434,-0.0752106,0.145153,0
2024-12-13 15:30:41.288,-0.361615,3.83779,10.1868,-0.186996,-0.0745997,0.139655,0
2024-12-13 15:30:41.290,-0.342473,3.85454,10.1462,-0.176611,-0.0739889,0.131638,0
2024-12-13 15:30:41.293,-0.320937,3.88325,10.1151,-0.169892,-0.0721563,0.121864,0
2024-12-13 15:30:41.295,-0.301795,3.92393,10.1031,-0.160729,-0.0709346,0.113312,0
2024-12-13 15:30:41.297,-0.287438,3.96939,10.0744,-0.155232,-0.065437,0.10476,0
2024-12-13 15:30:41.300,-0.289831,4.0005,10.0433,-0.149123,-0.0581068,0.098041,0
2024-12-13 15:30:41.302,-0.332901,4.02682,10.0193,-0.141793,-0.0513875,0.0888783,0
2024-12-13 15:30:41.305,-0.390329,4.06511,10.0098,-0.135684,-0.041614,0.0809373,0
2024-12-13 15:30:41.307,-0.421436,4.10578,10.0146,-0.135074,-0.0348946,0.0748288,0
2024-12-13 15:30:41.309,-0.426222,4.13928,10.0002,-0.13263,-0.0281753,0.0693312,0
2024-12-13 15:30:41.312,-0.423829,4.15843,9.96431,-0.129576,-0.0257319,0.0626118,0
2024-12-13 15:30:41.316,-0.41665,4.21855,9.91406,-0.133241,-0.0245102,0.0516166,0
2024-12-13 15:30:41.319,-0.41665,4.21855,9.89492,-0.138739,-0.0245102,0.041843,0
2024-12-13 15:30:41.319,-0.409472,4.25683,9.89492,-0.138739,-0.0245102,0.041843,0
2024-12-13 15:30:41.321,-0.407079,4.29512,9.8686,-0.140571,-0.021456,0.033902,0
2024-12-13 15:30:41.323,-0.3999,4.33101,9.87099,-0.145458,-0.0208452,0.025961,0
2024-12-13 15:30:41.328,-0.407079,4.39562,9.92363,-0.157064,-0.0220669,0.00885729,0
2024-12-13 15:30:41.328,-0.431007,4.39562,9.92363,-0.157064,-0.0220669,0.00885729,0
2024-12-13 15:30:41.330,-0.478864,4.45783,9.94278,-0.16134,-0.021456,0.000305424,0
2024-12-13 15:30:41.335,-0.474078,4.5679,9.95235,-0.179055,-0.0251211,-0.0167983,0
2024-12-13 15:30:41.335,-0.474078,4.5679,9.95235,-0.179055,-0.0251211,-0.0167983,0
2024-12-13 15:30:41.338,-0.4669,4.58465,10.0026,-0.179055,-0.0251211,-0.0167983,0
2024-12-13 15:30:41.340,-0.493221,4.58226,10.0959,-0.191882,-0.0257319,-0.0393996,0
2024-12-13 15:30:41.345,-0.557827,4.58226,10.2993,-0.199823,-0.0312296,-0.0485624,0
2024-12-13 15:30:41.345,-0.557827,4.58226,10.2993,-0.199823,-0.0312296,-0.0485624,0
2024-12-13 15:30:41.356,-0.567398,4.69472,10.9074,-0.21143,-0.11064,-0.0992627,0
2024-12-13 15:30:41.359,-0.538684,4.73779,11.013,-0.21143,-0.11064,-0.0992627,0
2024-12-13 15:30:41.359,-0.538684,4.73779,11.013,-0.21143,-0.11064,-0.0992627,0
2024-12-13 15:30:41.359,-0.538684,4.73779,11.013,-0.21143,-0.11064,-0.0992627,0
2024-12-13 15:30:41.359,-0.538684,4.73779,11.013,-0.21143,-0.11064,-0.0992627,0
2024-12-13 15:30:41.361,-0.512363,4.75215,11.1254,-0.203488,-0.147291,-0.122475,0
2024-12-13 15:30:41.361,-0.512363,4.75215,11.1254,-0.203488,-0.147291,-0.122475,0
2024-12-13 15:30:41.363,-0.514756,4.7665,11.2786,-0.194937,-0.169281,-0.137135,0
2024-12-13 15:30:41.366,-0.50997,4.77877,11.4389,-0.187606,-0.190661,-0.151185,0
2024-12-13 15:30:41.368,-0.493221,4.78116,11.6163,-0.176,-0.212651,-0.165845,0
2024-12-13 15:30:41.370,-0.476471,4.78594,11.7957,-0.165005,-0.232198,-0.179895,0
2024-12-13 15:30:41.373,-0.45015,4.80748,11.9513,-0.149123,-0.250524,-0.195166,0
2024-12-13 15:30:41.375,-0.41665,4.84337,12.0879,-0.133241,-0.265184,-0.208604,0
2024-12-13 15:30:41.378,-0.387936,4.86969,12.2195,-0.114916,-0.285342,-0.222043,0
2024-12-13 15:30:41.380,-0.380758,4.88644,12.3416,-0.0990336,-0.307943,-0.234871,0
2024-12-13 15:30:41.382,-0.387936,4.9008,12.4397,-0.0800973,-0.328712,-0.247088,0
2024-12-13 15:30:41.385,-0.380758,4.89362,12.5402,-0.0648262,-0.34887,-0.260526,0
2024-12-13 15:30:41.387,-0.352044,4.87687,12.6434,-0.0477224,-0.369028,-0.272132,0
2024-12-13 15:30:41.392,-0.311366,4.84337,12.8731,-0.00862822,-0.378191,-0.297177,0
2024-12-13 15:30:41.392,-0.311366,4.84337,12.8731,-0.00862822,-0.378191,-0.297177,0
2024-12-13 15:30:41.394,-0.299402,4.85055,13.0334,0.0109189,-0.37758,-0.307562,0
2024-12-13 15:30:41.396,-0.318545,4.88644,13.206,0.0341311,-0.368417,-0.316724,0
2024-12-13 15:30:41.400,-0.337687,4.90798,13.352,0.0756687,-0.353757,-0.32772,0
2024-12-13 15:30:41.401,-0.361615,4.94866,13.4548,0.0756687,-0.353757,-0.32772,0
2024-12-13 15:30:41.403,-0.385544,4.99651,13.5218,0.0982701,-0.348259,-0.333217,0
2024-12-13 15:30:41.411,-0.342473,5.10419,13.7013,0.159966,-0.313441,-0.343602,0
2024-12-13 15:30:41.411,-0.342473,5.10419,13.7013,0.159966,-0.313441,-0.343602,0
2024-12-13 15:30:41.411,-0.342473,5.10419,13.7013,0.159966,-0.313441,-0.343602,0
2024-12-13 15:30:41.418,-0.34008,5.18555,13.7614,0.180124,-0.267017,-0.350932,0
2024-12-13 15:30:41.420,-0.371187,5.2334,13.7348,0.236932,-0.251135,-0.354597,0
2024-12-13 15:30:41.422,-0.419043,5.27169,13.6774,0.254036,-0.237696,-0.35704,0
2024-12-13 15:30:41.422,-0.419043,5.27169,13.6774,0.254036,-0.237696,-0.35704,0
2024-12-13 15:30:41.425,-0.476471,5.30279,13.6176,0.268086,-0.226701,-0.357651,0
2024-12-13 15:30:41.427,-0.553041,5.34616,13.5577,0.280913,-0.218149,-0.358262,0
2024-12-13 15:30:41.427,-0.553041,5.34616,13.5577,0.280913,-0.218149,-0.358262,0
2024-12-13 15:30:41.429,-0.629611,5.40598,13.5027,0.291298,-0.208986,-0.358873,0
2024-12-13 15:30:41.432,-0.687039,5.45623,13.4596,0.301071,-0.206543,-0.357651,0
2024-12-13 15:30:41.434,-0.74686,5.48495,13.4142,0.301071,-0.206543,-0.357651,0
2024-12-13 15:30:41.436,-0.80668,5.53041,13.3807,0.318175,-0.202267,-0.354597,0
2024-12-13 15:30:41.439,-0.842872,5.56152,13.352,0.32184,-0.20471,-0.352764,0
2024-12-13 15:30:41.441,-0.88355,5.58545,13.3185,0.328559,-0.210208,-0.350932,0
2024-12-13 15:30:41.443,-0.926621,5.6333,13.2969,0.332835,-0.218149,-0.350321,0
2024-12-13 15:30:41.446,-0.96012,5.66441,13.285,0.333446,-0.227312,-0.347878,0
2024-12-13 15:30:41.448,-0.979263,5.69073,13.2706,0.334057,-0.24075,-0.344212,0
2024-12-13 15:30:41.451,-0.991227,5.70987,13.2538,0.334668,-0.251745,-0.342991,0
2024-12-13 15:30:41.453,-1.01515,5.72662,13.2443,0.33589,-0.267017,-0.340547,0
2024-12-13 15:30:41.455,-1.03908,5.74816,13.2323,0.332835,-0.283509,-0.338104,0
2024-12-13 15:30:41.458,-1.06301,5.7673,13.218,0.331614,-0.297559,-0.335661,0
2024-12-13 15:30:41.462,-1.0989,5.77448,13.2203,0.320008,-0.325658,-0.324665,0
2024-12-13 15:30:41.462,-1.11326,5.77448,13.2203,0.320008,-0.325658,-0.324665,0
2024-12-13 15:30:41.465,-1.11565,5.75534,13.2347,0.315121,-0.337875,-0.319168,0
2024-12-13 15:30:41.467,-1.10369,5.72662,13.261,0.307791,-0.350703,-0.314281,0
2024-12-13 15:30:41.469,-1.07976,5.71705,13.2921,0.304126,-0.361698,-0.309394,0
2024-12-13 15:30:41.472,-1.04865,5.70748,13.328,0.295574,-0.369639,-0.299621,0
2024-12-13 15:30:41.475,-0.996012,5.68355,13.3807,0.285189,-0.375747,-0.290458,0
2024-12-13 15:30:41.476,-0.945763,5.64527,13.4333,0.285189,-0.375747,-0.290458,0
2024-12-13 15:30:41.479,-0.888335,5.59023,13.4716,0.281524,-0.374526,-0.283739,0
2024-12-13 15:30:41.481,-0.842872,5.53759,13.5003,0.276027,-0.370861,-0.278241,0
2024-12-13 15:30:41.484,-0.809073,5.50648,13.5482,0.276027,-0.367196,-0.273965,0
2024-12-13 15:30:41.486,-0.785145,5.48255,13.6128,0.272362,-0.361087,-0.264191,0
2024-12-13 15:30:41.488,-0.780359,5.45863,13.6415,0.271751,-0.353146,-0.259916,0
2024-12-13 15:30:41.491,-0.770788,5.42273,13.6271,0.267475,-0.348259,-0.251364,0
2024-12-13 15:30:41.493,-0.744467,5.37727,13.608,0.263199,-0.342151,-0.245255,0
2024-12-13 15:30:41.495,-0.737288,5.32433,13.5936,0.260145,-0.334821,-0.238536,0
2024-12-13 15:30:41.498,-0.751645,5.23819,13.5769,0.255258,-0.325658,-0.231206,0
2024-12-13 15:30:41.500,-0.725324,5.15683,13.5553,0.24976,-0.318328,-0.224486,0
2024-12-13 15:30:41.502,-0.689432,5.10419,13.5314,0.245484,-0.312219,-0.218989,0
2024-12-13 15:30:41.505,-0.679861,5.02523,13.5171,0.239987,-0.307943,-0.212269,0
2024-12-13 15:30:41.507,-0.677468,4.92712,13.5075,0.2351,-0.306722,-0.209215,0
2024-12-13 15:30:41.509,-0.665504,4.85055,13.5027,0.228381,-0.303667,-0.204328,0
2024-12-13 15:30:41.512,-0.651147,4.76411,13.4955,0.222883,-0.299392,-0.201885,0
2024-12-13 15:30:41.514,-0.658325,4.66361,13.5003,0.212498,-0.295726,-0.19822,0
2024-12-13 15:30:41.519,-0.675075,4.45304,13.5482,0.197838,-0.278012,-0.187836,0
2024-12-13 15:30:41.519,-0.675075,4.45304,13.5482,0.197838,-0.278012,-0.187836,0
2024-12-13 15:30:41.521,-0.684646,4.35254,13.5936,0.188675,-0.268849,-0.182949,0
2024-12-13 15:30:41.524,-0.710967,4.24487,13.6391,0.180124,-0.259686,-0.179284,0
2024-12-13 15:30:41.526,-0.720539,4.12253,13.7061,0.171572,-0.251745,-0.172564,0
2024-12-13 15:30:41.528,-0.708575,4.01246,13.7877,0.16302,-0.243804,-0.167067,0
2024-12-13 15:30:41.531,-0.710967,3.89282,13.8691,0.153246,-0.237696,-0.159737,0
2024-12-13 15:30:41.533,-0.718146,3.77079,13.9552,0.147138,-0.23342,-0.153017,0
2024-12-13 15:30:41.535,-0.694218,3.66072,14.0198,0.142862,-0.230366,-0.145687,3
2024-12-13 15:30:41.538,-0.632004,3.53599,14.0414,0.136143,-0.223036,-0.1408,0
2024-12-13 15:30:41.541,-0.581755,3.39482,14.0868,0.128812,-0.203488,-0.138357,0
2024-12-13 15:30:41.542,-0.584148,3.27278,14.1921,0.128812,-0.203488,-0.138357,0
2024-12-13 15:30:41.547,-0.584148,2.99731,14.2831,0.142862,-0.196158,-0.127972,0
2024-12-13 15:30:41.547,-0.584148,2.99731,14.2831,0.142862,-0.196158,-0.127972,0
2024-12-13 15:30:41.549,-0.521934,2.84417,14.2113,0.153246,-0.192493,-0.121253,0
2024-12-13 15:30:41.552,-0.423829,2.68864,14.0868,0.161187,-0.187606,-0.113312,0
2024-12-13 15:30:41.554,-0.313759,2.55703,13.9505,0.172183,-0.18272,-0.11148,0
2024-12-13 15:30:41.557,-0.253639,2.45384,13.8117,0.186232,-0.176,-0.109036,0
2024-12-13 15:30:41.559,-0.205783,2.37488,13.6654,0.202725,-0.169892,-0.107204,0
2024-12-13 15:30:41.561,-0.145962,2.32463,13.4907,0.219829,-0.163173,-0.105982,0
2024-12-13 15:30:41.564,-0.0861416,2.27438,13.2538,0.219829,-0.163173,-0.105982,0
2024-12-13 15:30:41.568,0.0741775,2.18106,12.6553,0.290076,-0.133852,-0.101095,0
2024-12-13 15:30:41.568,0.0741775,2.18106,12.6553,0.290076,-0.133852,-0.101095,0
2024-12-13 15:30:41.571,0.18664,2.14756,12.2818,0.31451,-0.121635,-0.104149,0
2024-12-13 15:30:41.573,0.282652,2.11167,11.9082,0.341387,-0.102088,-0.105371,0
2024-12-13 15:30:41.575,0.359223,2.06142,11.5493,0.366432,-0.0807082,-0.110869,0
2024-12-13 15:30:41.578,0.41665,1.9992,11.202,0.392775,-0.0587177,-0.113923,0
2024-12-13 15:30:41.580,0.4669,1.95344,10.8643,0.421485,-0.0361163,-0.11881,0
2024-12-13 15:30:41.585,0.600898,1.91755,10.2132,0.478904,0.00358873,-0.134081,0
2024-12-13 15:30:41.587,0.651147,1.90798,9.87338,0.507614,0.022525,-0.141411,0
2024-12-13 15:30:41.587,0.651147,1.90798,9.87338,0.507614,0.022525,-0.141411,0
2024-12-13 15:30:41.590,0.699003,1.90558,9.51895,0.532659,0.0390179,-0.151796,0
2024-12-13 15:30:41.592,0.751645,1.91994,9.15733,0.554038,0.0518457,-0.162791,0
2024-12-13 15:30:41.594,0.76361,1.94865,8.81994,0.577251,0.0658951,-0.173786,0
2024-12-13 15:30:41.597,0.766002,1.9681,8.50619,0.599852,0.0726145,-0.186003,0
2024-12-13 15:30:41.599,0.775574,1.9992,8.21426,0.62001,0.0768904,-0.199442,0
2024-12-13 15:30:41.601,0.787538,2.04227,7.91964,0.637114,0.0713928,-0.214102,0
2024-12-13 15:30:41.604,0.794716,2.08295,7.62772,0.652996,0.0658951,-0.227541,0
2024-12-13 15:30:41.606,0.780359,2.12602,7.35225,0.665824,0.0579541,-0.24159,0
2024-12-13 15:30:41.608,0.74686,2.1667,7.09143,0.676208,0.042683,-0.255029,0
2024-12-13 15:30:41.611,0.708575,2.20977,6.86142,0.682927,0.0249684,-0.266635,0
2024-12-13 15:30:41.613,0.677468,2.26002,6.65324,0.686592,0.00114534,-0.277019,0
2024-12-13 15:30:41.615,0.646361,2.30309,6.44955,0.688425,-0.0269536,-0.287404,0
2024-12-13 15:30:41.618,0.60329,2.34377,6.28924,0.689647,-0.0526092,-0.294123,0
2024-12-13 15:30:41.620,0.569791,2.38684,6.1672,0.686592,-0.0800973,-0.302675,0
2024-12-13 15:30:41.622,0.56022,2.41795,6.05952,0.682927,-0.111251,-0.308783,0
2024-12-13 15:30:41.625,0.574577,2.44666,5.99013,0.678651,-0.138739,-0.312448,0
2024-12-13 15:30:41.627,0.579362,2.49452,5.9327,0.671321,-0.168059,-0.314281,0
2024-12-13 15:30:41.630,0.596112,2.55703,5.90878,0.665213,-0.195547,-0.316724,0
2024-12-13 15:30:41.632,0.622433,2.61685,5.90878,0.659104,-0.217538,-0.319168,0
2024-12-13 15:30:41.634,0.643968,2.68146,5.9016,0.648109,-0.235863,-0.318557,0
2024-12-13 15:30:41.637,0.65354,2.73171,5.91596,0.637725,-0.252967,-0.317946,0
2024-12-13 15:30:41.639,0.634397,2.76521,5.92313,0.62734,-0.266406,-0.315503,0
2024-12-13 15:30:41.641,0.624826,2.81545,5.94945,0.613291,-0.277401,-0.311838,0
2024-12-13 15:30:41.644,0.622433,2.88485,5.98535,0.599852,-0.286564,-0.305118,0
2024-12-13 15:30:41.646,0.617647,2.92552,6.02363,0.584581,-0.292061,-0.298399,0
2024-12-13 15:30:41.648,0.600898,2.95185,6.08106,0.56931,-0.299392,-0.289847,0
2024-12-13 15:30:41.651,0.572184,2.99252,6.13849,0.552206,-0.301835,-0.278241,0
2024-12-13 15:30:41.653,0.56022,3.0332,6.18156,0.532048,-0.3055,-0.267857,0
2024-12-13 15:30:41.655,0.557827,3.06431,6.21027,0.516777,-0.310387,-0.254418,0
2024-12-13 15:30:41.658,0.533899,3.08854,6.23899,0.498451,-0.313441,-0.238536,0
2024-12-13 15:30:41.660,0.502792,3.09811,6.27966,0.476461,-0.315274,-0.222043,0
2024-12-13 15:30:41.663,0.483649,3.09093,6.32273,0.457525,-0.316495,-0.207993,0
2024-12-13 15:30:41.665,0.469292,3.08106,6.35863,0.435534,-0.313441,-0.188446,0
2024-12-13 15:30:41.667,0.471685,3.0667,6.3993,0.412322,-0.315274,-0.171953,0
2024-12-13 15:30:41.670,0.495613,3.05234,6.43998,0.391553,-0.314052,-0.155461,0
2024-12-13 15:30:41.672,0.505185,3.04038,6.48096,0.370784,-0.313441,-0.138968,0
2024-12-13 15:30:41.674,0.505185,3.00688,6.52164,0.347496,-0.312219,-0.120642,0
2024-12-13 15:30:41.677,0.512363,2.95424,6.57189,0.326116,-0.309165,-0.102928,0
2024-12-13 15:30:41.679,0.514756,2.92074,6.61496,0.305958,-0.301835,-0.0864349,0
2024-12-13 15:30:41.681,0.500399,2.87528,6.66999,0.283968,-0.293894,-0.0668878,0
2024-12-13 15:30:41.691,0.347258,2.70778,6.88774,0.210055,-0.259076,0.0125224,0
2024-12-13 15:30:41.691,0.347258,2.70778,6.88774,0.210055,-0.259076,0.0125224,0
2024-12-13 15:30:41.691,0.347258,2.70778,6.88774,0.210055,-0.259076,0.0125224,0
2024-12-13 15:30:41.693,0.318545,2.67428,6.9356,0.196616,-0.256021,0.0314586,0
2024-12-13 15:30:41.693,0.318545,2.67428,6.9356,0.196616,-0.256021,0.0314586,0
2024-12-13 15:30:41.696,0.287438,2.63121,7.00738,0.180734,-0.246859,0.05406,0
2024-12-13 15:30:41.698,0.275175,2.57857,7.09621,0.166074,-0.238918,0.0760505,0
2024-12-13 15:30:41.700,0.275175,2.54746,7.16082,0.153857,-0.235863,0.0974301,0
2024-12-13 15:30:41.703,0.287438,2.52592,7.235,0.140419,-0.227922,0.11881,0
2024-12-13 15:30:41.705,0.294616,2.49212,7.31875,0.129423,-0.223646,0.138433,0
2024-12-13 15:30:41.707,0.304188,2.4658,7.4001,0.121482,-0.21876,0.158591,0
2024-12-13 15:30:41.710,0.30658,2.44905,7.49582,0.113541,-0.21204,0.175084,0
2024-12-13 15:30:41.712,0.27996,2.42513,7.6014,0.108044,-0.205932,0.191577,0
2024-12-13 15:30:41.714,0.272782,2.3988,7.70908,0.103157,-0.197991,0.20807,0
2024-12-13 15:30:41.717,0.289831,2.38206,7.82872,0.103768,-0.185163,0.227006,0
2024-12-13 15:30:41.719,0.316152,2.38206,7.94118,0.103157,-0.177833,0.241056,0
2024-12-13 15:30:41.721,0.361615,2.38206,8.02254,0.101324,-0.169892,0.253883,0
2024-12-13 15:30:41.724,0.404686,2.37248,8.06561,0.104989,-0.157675,0.267322,0
2024-12-13 15:30:41.726,0.431007,2.35334,8.07996,0.106211,-0.153399,0.278928,0
2024-12-13 15:30:41.728,0.442971,2.34616,8.07996,0.109265,-0.148512,0.288702,0
2024-12-13 15:30:41.731,0.4669,2.3677,8.07518,0.11232,-0.13996,0.297864,0
2024-12-13 15:30:41.733,0.500399,2.38923,8.06561,0.114763,-0.138128,0.304584,0
2024-12-13 15:30:41.736,0.536291,2.39402,8.02493,0.119039,-0.133852,0.309471,0
2024-12-13 15:30:41.738,0.567398,2.38923,7.96511,0.125147,-0.127743,0.309471,0
2024-12-13 15:30:41.740,0.565005,2.38206,7.89572,0.125147,-0.124689,0.313746,0
2024-12-13 15:30:41.743,0.517149,2.34856,7.87897,0.128202,-0.11797,0.317412,0
2024-12-13 15:30:41.745,0.498006,2.32463,7.85504,0.136753,-0.124689,0.324131,0
2024-12-13 15:30:41.747,0.541077,2.31745,7.68276,0.143473,-0.119192,0.326574,0
2024-12-13 15:30:41.750,0.629611,2.30788,7.47667,0.142251,-0.108196,0.325353,0
2024-12-13 15:30:41.752,0.701396,2.32702,7.37378,0.136143,-0.0923143,0.316801,0
2024-12-13 15:30:41.754,0.65354,2.3677,7.37617,0.135532,-0.0758214,0.307638,0
2024-12-13 15:30:41.757,0.596112,2.38445,7.39532,0.136753,-0.057496,0.302751,0
2024-12-13 15:30:41.759,0.629611,2.37727,7.32593,0.141029,-0.0403923,0.296032,0
2024-12-13 15:30:41.761,0.677468,2.37248,7.21825,0.145916,-0.029397,0.284426,0
2024-12-13 15:30:41.764,0.708575,2.36531,7.11536,0.14836,-0.0129041,0.27343,0
2024-12-13 15:30:41.766,0.744467,2.34616,6.98106,0.147138,0.00236703,0.257548,0
2024-12-13 15:30:41.768,0.775574,2.34616,6.85424,0.150192,0.0219141,0.238612,0
2024-12-13 15:30:41.771,0.794716,2.37248,6.75613,0.14897,0.0408504,0.219676,0
2024-12-13 15:30:41.773,0.773181,2.39402,6.66521,0.147749,0.058565,0.196464,0
2024-12-13 15:30:41.776,0.715753,2.42513,6.57667,0.146527,0.0738362,0.175695,0
2024-12-13 15:30:41.778,0.655932,2.47059,6.49532,0.144084,0.090329,0.152483,0
2024-12-13 15:30:41.780,0.591326,2.50648,6.41845,0.142251,0.101324,0.13347,0
2024-12-13 15:30:41.783,0.524327,2.54507,6.32752,0.137975,0.11232,0.115756,0
2024-12-13 15:30:41.785,0.459721,2.59532,6.23181,0.138586,0.119039,0.098041,0
2024-12-13 15:30:41.787,0.409472,2.6336,6.14327,0.131867,0.120261,0.082159,0
2024-12-13 15:30:41.790,0.380758,2.66949,6.0691,0.125147,0.11965,0.0650552,0
2024-12-13 15:30:41.792,0.392722,2.69581,5.98774,0.118428,0.117817,0.0473407,0
2024-12-13 15:30:41.794,0.414257,2.71496,5.88694,0.111709,0.111098,0.0320695,0
2024-12-13 15:30:41.797,0.426222,2.7341,5.82473,0.101324,0.102546,0.0143549,0
2024-12-13 15:30:41.799,0.45015,2.73649,5.77209,0.0909399,0.0921616,-0.00274881,0
2024-12-13 15:30:41.801,0.4669,2.75803,5.71227,0.0787229,0.0829989,-0.0192417,0
2024-12-13 15:30:41.804,0.478864,2.79631,5.65245,0.0787229,0.0829989,-0.0192417,0
2024-12-13 15:30:41.806,0.490828,2.82263,5.59741,0.0597867,0.058565,-0.0528383,0
2024-12-13 15:30:41.809,0.488435,2.84417,5.56152,0.0500131,0.0475697,-0.0668878,0
2024-12-13 15:30:41.811,0.498006,2.8681,5.52323,0.038407,0.0286335,-0.0827698,0
2024-12-13 15:30:41.818,0.495613,2.95902,5.42273,0.00908635,-0.0122933,-0.129805,0
2024-12-13 15:30:41.818,0.495613,2.95902,5.42273,0.00908635,-0.0122933,-0.129805,0
2024-12-13 15:30:41.818,0.495613,2.95902,5.42273,0.00908635,-0.0122933,-0.129805,0
2024-12-13 15:30:41.820,0.498006,2.97817,5.37966,-0.00251974,-0.0245102,-0.142022,0
2024-12-13 15:30:41.823,0.490828,2.99731,5.34377,-0.0165692,-0.0348946,-0.155461,0
2024-12-13 15:30:41.825,0.4669,3.01645,5.32194,-0.0269536,-0.0410031,-0.16951,0
2024-12-13 15:30:41.827,0.438186,3.02602,5.28604,-0.0385597,-0.0489441,-0.179284,0
2024-12-13 15:30:41.830,0.411865,3.02602,5.25733,-0.0538309,-0.0556635,-0.186614,0
2024-12-13 15:30:41.832,0.371187,3.05713,5.25733,-0.0666587,-0.0648262,-0.194555,0
2024-12-13 15:30:41.834,0.318545,3.09332,5.22622,-0.0831516,-0.0709346,-0.199442,0
2024-12-13 15:30:41.837,0.282652,3.10768,5.19272,-0.0984228,-0.0788757,-0.20555,0
2024-12-13 15:30:41.839,0.263211,3.12921,5.18315,-0.113694,-0.081319,-0.208604,0
2024-12-13 15:30:41.842,0.244068,3.18903,5.1688,-0.133241,-0.0819299,-0.211048,0
2024-12-13 15:30:41.844,0.217747,3.23928,5.15683,-0.152177,-0.0831516,-0.212269,0
2024-12-13 15:30:41.846,0.189033,3.2656,5.15683,-0.169281,-0.0794865,-0.211659,0
2024-12-13 15:30:41.849,0.177069,3.28953,5.16162,-0.185163,-0.0770431,-0.211048,0
2024-12-13 15:30:41.851,0.174676,3.31825,5.17597,-0.185163,-0.0770431,-0.211048,0
2024-12-13 15:30:41.856,0.160319,3.34696,5.21426,-0.219371,-0.0697129,-0.206772,0
2024-12-13 15:30:41.858,0.138784,3.40439,5.25015,-0.252356,-0.0556635,-0.196998,0
2024-12-13 15:30:41.860,0.138784,3.45942,5.27887,-0.265795,-0.0471116,-0.193944,0
2024-12-13 15:30:41.860,0.138784,3.45942,5.27887,-0.265795,-0.0471116,-0.193944,0
2024-12-13 15:30:41.863,0.133998,3.51685,5.31237,-0.28412,-0.0385597,-0.189057,0
2024-12-13 15:30:41.865,0.145962,3.56471,5.34616,-0.300613,-0.0318404,-0.182949,0
2024-12-13 15:30:41.867,0.136391,3.61735,5.38684,-0.314663,-0.0257319,-0.178673,0
2024-12-13 15:30:41.870,0.102891,3.66072,5.44666,-0.331766,-0.021456,-0.175619,0
2024-12-13 15:30:41.872,0.0598206,3.70618,5.5328,-0.348259,-0.0153475,-0.168288,0
2024-12-13 15:30:41.874,0.0119641,3.74925,5.6333,-0.36292,-0.00679568,-0.161569,0
2024-12-13 15:30:41.877,-0.026321,3.78515,5.75055,-0.376358,-7.63559e-05,-0.156071,0
2024-12-13 15:30:41.879,-0.0430708,3.84257,5.87976,-0.389797,0.00297788,-0.149352,0
2024-12-13 15:30:41.882,-0.0574277,3.90239,6.02602,-0.403236,0.010308,-0.143244,0
2024-12-13 15:30:41.884,-0.0765703,3.95982,6.15524,-0.411177,0.0170274,-0.134081,0
2024-12-13 15:30:41.886,-0.0957129,4.00768,6.27727,-0.426448,0.0213033,-0.127362,0
2024-12-13 15:30:41.889,-0.143569,4.04596,6.40648,-0.433778,0.0280226,-0.120642,0
2024-12-13 15:30:41.891,-0.20339,4.11057,6.48814,-0.446606,0.0365745,-0.110869,0
2024-12-13 15:30:41.893,-0.224925,4.17996,6.52642,-0.45699,0.0494023,-0.102317,0
2024-12-13 15:30:41.896,-0.210568,4.21615,6.56471,-0.469207,0.0671168,-0.0968193,0
2024-12-13 15:30:41.898,-0.18664,4.24247,6.64367,-0.485089,0.0811663,-0.0913217,0
2024-12-13 15:30:41.900,-0.16989,4.25444,6.73699,-0.501582,0.0952158,-0.085824,0
2024-12-13 15:30:41.903,-0.196211,4.2664,6.81835,-0.519297,0.107433,-0.0815481,0
2024-12-13 15:30:41.905,-0.256032,4.27837,6.92842,-0.537622,0.116595,-0.0742179,0
2024-12-13 15:30:41.907,-0.282652,4.29512,7.06032,-0.555947,0.122704,-0.0693312,0
2024-12-13 15:30:41.910,-0.277567,4.29512,7.17518,-0.573662,0.123926,-0.0662769,0
2024-12-13 15:30:41.912,-0.285045,4.29751,7.28286,-0.592598,0.120871,-0.062001,0
2024-12-13 15:30:41.915,-0.285045,4.32144,7.38814,-0.611534,0.114763,-0.0583359,0
2024-12-13 15:30:41.917,-0.27996,4.33101,7.51257,-0.629249,0.109876,-0.0534491,0
2024-12-13 15:30:41.919,-0.282652,4.34058,7.65165,-0.646353,0.104989,-0.0510057,0
2024-12-13 15:30:41.922,-0.27996,4.35494,7.76411,-0.659791,0.103157,-0.0479515,0
2024-12-13 15:30:41.924,-0.265603,4.35733,7.89572,-0.676284,0.100713,-0.046119,0
2024-12-13 15:30:41.926,-0.248854,4.35972,8.04407,-0.689112,0.0982701,-0.0442864,0
2024-12-13 15:30:41.929,-0.251246,4.35494,8.19033,-0.701329,0.0976592,-0.0442864,0
2024-12-13 15:30:41.931,-0.27996,4.32622,8.35304,-0.712935,0.094605,-0.0412322,0
2024-12-13 15:30:41.933,-0.320937,4.29033,8.53011,-0.72393,0.0878856,-0.0375671,0
2024-12-13 15:30:41.936,-0.349651,4.25683,8.72662,-0.732482,0.082388,-0.0357346,0
2024-12-13 15:30:41.938,-0.371187,4.23051,8.92044,-0.741645,0.0713928,-0.0320695,0
2024-12-13 15:30:41.940,-0.387936,4.19432,9.0999,-0.745921,0.0610084,-0.0302369,0
2024-12-13 15:30:41.943,-0.387936,4.14646,9.27966,-0.752029,0.0542891,-0.0216851,0
2024-12-13 15:30:41.945,-0.380758,4.11536,9.47109,-0.755084,0.046348,-0.0161875,0
2024-12-13 15:30:41.947,-0.380758,4.08425,9.67687,-0.753862,0.0414613,-0.0143549,0
2024-12-13 15:30:41.950,-0.385544,4.05075,9.87817,-0.750197,0.0335202,-0.00946813,0
2024-12-13 15:30:41.952,-0.390329,4.01964,10.0744,-0.748975,0.0292443,-0.00213797,0
2024-12-13 15:30:41.955,-0.378365,3.99332,10.2706,-0.738591,0.030466,0.00213797,0
2024-12-13 15:30:41.957,-0.352044,3.98375,10.4719,-0.727595,0.030466,0.00702474,0
2024-12-13 15:30:41.959,-0.328116,3.99811,10.6681,-0.720876,0.0292443,0.0143549,0
2024-12-13 15:30:41.962,-0.289831,3.99811,10.8284,-0.704994,0.0286335,0.0161875,0
2024-12-13 15:30:41.964,-0.239282,3.98854,10.9627,-0.685447,0.0292443,0.0198525,0
2024-12-13 15:30:41.966,-0.205783,4.00289,11.0776,-0.668954,0.0268009,0.0241285,0
2024-12-13 15:30:41.969,-0.181855,4.00289,11.1733,-0.650629,0.0243575,0.0265719,0
2024-12-13 15:30:41.971,-0.141177,3.99811,11.2642,-0.629249,0.0200816,0.0284044,0
2024-12-13 15:30:41.973,-0.100499,4.02682,11.348,-0.605426,0.0200816,0.0277936,0
2024-12-13 15:30:41.976,-0.0550349,4.01725,11.4054,-0.582825,0.0170274,0.0265719,0
2024-12-13 15:30:41.978,-0.0143569,3.99571,11.4604,-0.561445,0.0176382,0.0247393,0
2024-12-13 15:30:41.980,0.0143569,4.00768,11.4915,-0.535179,0.0176382,0.0216851,0
2024-12-13 15:30:41.983,0.0478565,4.01246,11.4867,-0.50769,0.0151948,0.0192417,0
2024-12-13 15:30:41.985,0.0741775,4.01964,11.4724,-0.482646,0.010308,0.0143549,0
2024-12-13 15:30:41.988,0.0765703,4.02682,11.4532,-0.459433,0.00786466,0.00946813,0
2024-12-13 15:30:41.990,0.0741775,4.04118,11.4078,-0.436221,0.00603212,0.00397051,0
2024-12-13 15:30:41.992,0.066999,4.05793,11.3504,-0.408733,0.00419957,-0.00152712,0
2024-12-13 15:30:41.995,0.0598206,4.07229,11.2905,-0.388575,0.00847551,-0.0064139,0
2024-12-13 15:30:41.997,0.0502493,4.07707,11.2116,-0.366585,0.010308,-0.00946813,0
2024-12-13 15:30:41.999,0.040678,4.07707,11.1302,-0.345205,0.0194708,-0.0155766,0
2024-12-13 15:30:42.002,0.0191426,4.09382,11.0752,-0.323825,0.0249684,-0.0229068,0
2024-12-13 15:30:42.004,-0.00957129,4.12014,11.0536,-0.299392,0.0371853,-0.0265719,0
2024-12-13 15:30:42.006,-0.0167498,4.16561,11.0201,-0.280455,0.0469589,-0.0302369,0
2024-12-13 15:30:42.016,-0.0622134,4.31905,10.8452,-0.219371,0.0811663,-0.0406213,0
2024-12-13 15:30:42.018,-0.0837488,4.39083,10.8045,-0.187606,0.100103,-0.0455081,0
2024-12-13 15:30:42.018,-0.0837488,4.39083,10.8045,-0.187606,0.100103,-0.0455081,0
2024-12-13 15:30:42.020,-0.0933201,4.44347,10.7471,-0.172335,0.1056,-0.0467298,0
2024-12-13 15:30:42.020,-0.0933201,4.44347,10.7471,-0.172335,0.1056,-0.0467298,0
2024-12-13 15:30:42.020,-0.0933201,4.44347,10.7471,-0.172335,0.1056,-0.0467298,0
2024-12-13 15:30:42.025,-0.114855,4.54876,10.5867,-0.144236,0.11293,-0.0503949,0
2024-12-13 15:30:42.025,-0.114855,4.54876,10.5867,-0.144236,0.11293,-0.0503949,0
2024-12-13 15:30:42.032,-0.16989,4.666,10.4192,-0.122857,0.110487,-0.041843,0
2024-12-13 15:30:42.035,-0.193819,4.68036,10.3807,-0.116137,0.109265,-0.0369563,0
2024-12-13 15:30:42.035,-0.193819,4.68036,10.3807,-0.116137,0.109265,-0.0369563,0
2024-12-13 15:30:42.037,-0.217747,4.70429,10.3759,-0.110029,0.106822,-0.0290152,0
2024-12-13 15:30:42.037,-0.217747,4.70429,10.3759,-0.110029,0.106822,-0.0290152,0
2024-12-13 15:30:42.039,-0.253639,4.733,10.3857,-0.106364,0.101324,-0.0192417,0
2024-12-13 15:30:42.042,-0.287438,4.75454,10.3977,-0.100866,0.0988809,-0.00946813,0
2024-12-13 15:30:42.044,-0.289831,4.78834,10.4121,-0.0990336,0.0891073,0.000305424,0
2024-12-13 15:30:42.047,-0.275175,4.83141,10.4216,-0.0953685,0.0811663,0.0137441,0
2024-12-13 15:30:42.049,-0.265603,4.86969,10.4456,-0.0910926,0.0720036,0.0216851,0
2024-12-13 15:30:42.051,-0.224925,4.90798,10.491,-0.0904818,0.058565,0.033902,0
2024-12-13 15:30:42.053,-0.160319,4.94866,10.5341,-0.0904818,0.0439046,0.0448973,0
2024-12-13 15:30:42.056,-0.114855,4.98216,10.6059,-0.0892601,0.0298552,0.0516166,0
2024-12-13 15:30:42.058,-0.0957129,5.01326,10.7279,-0.0886492,0.014584,0.062001,0
2024-12-13 15:30:42.061,-0.0933201,5.04198,10.8428,-0.0825407,-0.000687203,0.0687203,0
2024-12-13 15:30:42.068,-0.0143569,5.15205,11.1039,-0.0752106,-0.0202343,0.100484,0
2024-12-13 15:30:42.072,0.0957129,5.22383,11.2666,-0.0507767,-0.0477224,0.123086,0
2024-12-13 15:30:42.075,0.145962,5.26212,11.336,-0.0434465,-0.0538309,0.132859,0
2024-12-13 15:30:42.075,0.145962,5.26212,11.336,-0.0434465,-0.0538309,0.132859,0
2024-12-13 15:30:42.077,0.181855,5.29322,11.403,-0.0348946,-0.057496,0.14332,0
2024-12-13 15:30:42.077,0.181855,5.29322,11.403,-0.0348946,-0.057496,0.14332,0
2024-12-13 15:30:42.079,0.210568,5.31237,11.47,-0.0245102,-0.0605502,0.15065,0
2024-12-13 15:30:42.082,0.248854,5.32433,11.5421,-0.0153475,-0.0605502,0.162867,0
2024-12-13 15:30:42.084,0.297009,5.35334,11.6163,-0.00374144,-0.0593285,0.171419,0
2024-12-13 15:30:42.084,0.297009,5.35334,11.6163,-0.00374144,-0.0593285,0.171419,0
2024-12-13 15:30:42.086,0.34008,5.39163,11.6809,0.00847551,-0.0587177,0.178138,0
2024-12-13 15:30:42.089,0.397508,5.42752,11.7311,0.0206925,-0.0568851,0.185468,0
2024-12-13 15:30:42.091,0.454935,5.45145,11.7814,0.0268009,-0.057496,0.192188,0
2024-12-13 15:30:42.094,0.476471,5.48016,11.8125,0.0347419,-0.0568851,0.201351,0
2024-12-13 15:30:42.096,0.481256,5.52802,11.8244,0.0451263,-0.0532201,0.207459,0
2024-12-13 15:30:42.098,0.490828,5.57109,11.8651,0.0536782,-0.0458899,0.211735,0
2024-12-13 15:30:42.101,0.495613,5.60698,11.9154,0.0591758,-0.0379489,0.222119,0
2024-12-13 15:30:42.103,0.502792,5.64766,11.9752,0.0640626,-0.0245102,0.228228,0
2024-12-13 15:30:42.105,0.521934,5.67398,12.0494,0.0695602,-0.0110716,0.234336,0
2024-12-13 15:30:42.108,0.531506,5.69791,12.1143,0.0756687,-0.00129805,0.241056,0
2024-12-13 15:30:42.110,0.531506,5.72184,12.1621,0.0799446,0.0133623,0.248997,0
2024-12-13 15:30:42.112,0.548256,5.74577,12.198,0.0872748,0.0292443,0.255105,0
2024-12-13 15:30:42.115,0.567398,5.78405,12.2195,0.0897182,0.0457372,0.261824,0
2024-12-13 15:30:42.117,0.574577,5.80798,12.2243,0.0921616,0.0616192,0.2661,0
2024-12-13 15:30:42.119,0.574577,5.83669,12.2363,0.0933833,0.0768904,0.272209,0
2024-12-13 15:30:42.122,0.569791,5.87498,12.2674,0.0939941,0.0927724,0.277096,0
2024-12-13 15:30:42.124,0.567398,5.91356,12.3153,0.0909399,0.109265,0.282593,0
2024-12-13 15:30:42.126,0.548256,5.96142,12.3847,0.0884965,0.127591,0.288091,0
2024-12-13 15:30:42.129,0.517149,6.00449,12.4493,0.0842206,0.144694,0.292367,0
2024-12-13 15:30:42.131,0.488435,6.05474,12.521,0.0836097,0.164852,0.297254,0
2024-12-13 15:30:42.134,0.457328,6.10738,12.6266,0.0787229,0.183178,0.30214,0
2024-12-13 15:30:42.136,0.4334,6.14567,12.696,0.0726145,0.200282,0.308249,0
2024-12-13 15:30:42.139,0.421436,6.17677,12.7295,0.0567324,0.231435,0.312525,0
2024-12-13 15:30:42.141,0.445364,6.19592,12.7798,0.0567324,0.231435,0.312525,0
2024-12-13 15:30:42.143,0.493221,6.19592,12.8396,0.0475697,0.243652,0.312525,0
2024-12-13 15:30:42.145,0.529113,6.17917,12.9042,0.0365745,0.254036,0.311914,0
2024-12-13 15:30:42.148,0.54347,6.16002,12.9808,0.0249684,0.261366,0.309471,0
2024-12-13 15:30:42.150,0.533899,6.11934,13.0813,0.0127514,0.258923,0.30886,0
2024-12-13 15:30:42.152,0.536291,6.07149,13.177,-0.00374144,0.253425,0.305195,0
2024-12-13 15:30:42.155,0.536291,6.01645,13.2347,-0.0220669,0.249149,0.300919,0
2024-12-13 15:30:42.157,0.495613,5.9662,13.328,-0.0465007,0.247317,0.294199,0
2024-12-13 15:30:42.159,0.407079,5.91596,13.5147,-0.065437,0.236932,0.286869,0
2024-12-13 15:30:42.162,0.342473,5.87498,13.6702,-0.0880384,0.219218,0.286258,0
2024-12-13 15:30:42.164,0.332901,5.84148,13.7806,-0.10392,0.19906,0.285037,0
2024-12-13 15:30:42.167,0.328116,5.77926,13.9146,-0.123468,0.174626,0.286869,0
2024-12-13 15:30:42.169,0.332901,5.70748,14.0318,-0.14668,0.147138,0.289923,0
2024-12-13 15:30:42.171,0.330509,5.63091,14.1251,-0.167449,0.11965,0.290534,0
2024-12-13 15:30:42.174,0.313759,5.52084,14.2448,-0.194937,0.0939941,0.291145,0
2024-12-13 15:30:42.176,0.359223,5.41556,14.3767,-0.223646,0.0695602,0.289923,0
2024-12-13 15:30:42.178,0.414257,5.33181,14.5035,-0.252967,0.0487914,0.288091,0
2024-12-13 15:30:42.181,0.423829,5.24537,14.6542,-0.281066,0.0255792,0.286258,0
2024-12-13 15:30:42.183,0.414257,5.14726,14.8409,-0.307943,0.00419957,0.283815,0
2024-12-13 15:30:42.185,0.409472,5.03719,15.0326,-0.328101,-0.0159584,0.282593,0
2024-12-13 15:30:42.188,0.4334,4.91276,15.224,-0.347648,-0.0330621,0.280761,0
2024-12-13 15:30:42.190,0.447757,4.79552,15.4131,-0.360476,-0.0434465,0.278928,0
2024-12-13 15:30:42.192,0.251246,4.82184,15.4612,-0.369028,-0.0403923,0.281372,0
2024-12-13 15:30:42.195,0.040678,4.85055,15.533,-0.380023,-0.021456,0.290534,0
2024-12-13 15:30:42.197,0.0167498,4.70907,15.8297,-0.381245,-0.00984991,0.307638,0
2024-12-13 15:30:42.199,0.0191426,4.52004,16.1267,-0.379413,-0.00862822,0.322298,0
2024-12-13 15:30:42.202,0.0574277,4.29751,16.3325,-0.371471,-0.00557398,0.338791,0
2024-12-13 15:30:42.204,0.133998,4.0675,16.5407,-0.354979,0.00236703,0.355895,0
2024-12-13 15:30:42.207,0.256032,3.83779,16.7492,-0.332988,0.0121406,0.370555,0
2024-12-13 15:30:42.209,0.387936,3.60299,16.9167,-0.301224,0.0292443,0.385216,0
2024-12-13 15:30:42.211,0.521934,3.37328,17.0459,-0.265795,0.0469589,0.394989,0
2024-12-13 15:30:42.214,0.677468,3.14357,17.1658,-0.222425,0.0732253,0.40293,3
2024-12-13 15:30:42.216,0.816252,2.91595,17.307,-0.173557,0.100713,0.409649,0
2024-12-13 15:30:42.218,0.921835,2.71256,17.4027,-0.112472,0.130034,0.412704,0
2024-12-13 15:30:42.221,1.00798,2.5331,17.4266,-0.049555,0.159966,0.415758,0
2024-12-13 15:30:42.223,1.09173,2.35573,17.3692,0.0219141,0.198449,0.416369,0
2024-12-13 15:30:42.225,1.15394,2.17866,17.252,0.0988809,0.243041,0.416369,0
2024-12-13 15:30:42.228,1.1994,2.0327,17.0985,0.178291,0.291298,0.41698,0
2024-12-13 15:30:42.230,1.23529,1.90798,16.8784,0.263199,0.340776,0.41759,0
2024-12-13 15:30:42.232,1.25922,1.79312,16.6032,0.351772,0.394531,0.415147,0
2024-12-13 15:30:42.235,1.24487,1.70219,16.2655,0.439199,0.446453,0.415147,0
2024-12-13 15:30:42.237,1.2018,1.64477,15.8536,0.528383,0.499597,0.413925,0
2024-12-13 15:30:42.240,1.11087,1.62562,15.4011,0.610847,0.548464,0.409649,0
2024-12-13 15:30:42.242,0.950549,1.64477,14.9513,0.69942,0.594889,0.41026,0
2024-12-13 15:30:42.244,0.768395,1.70219,14.5202,0.781884,0.635205,0.411482,0
2024-12-13 15:30:42.247,0.581755,1.76919,14.0749,0.861905,0.671245,0.413925,0
2024-12-13 15:30:42.249,0.421436,1.84098,13.6152,0.943759,0.701787,0.421256,0
2024-12-13 15:30:42.251,0.294616,1.91037,13.1602,1.02134,0.730573,0.431029,0
2024-12-13 15:30:42.254,0.205783,1.91037,12.7415,1.09281,0.747677,0.436527,0
2024-12-13 15:30:42.256,0.210568,1.82662,12.3727,1.16183,0.744012,0.439581,0
2024-12-13 15:30:42.258,0.222533,1.74766,11.9034,1.23208,0.732406,0.438359,0
2024-12-13 15:30:42.261,0.196211,1.73091,11.2379,1.29683,0.734238,0.437138,0
2024-12-13 15:30:42.263,0.153141,1.78116,10.5102,1.35242,0.744623,0.432862,0
2024-12-13 15:30:42.265,0.0885344,1.8673,9.82074,1.40006,0.761727,0.429197,0
2024-12-13 15:30:42.268,-0.0143569,1.94626,9.16451,1.44343,0.783106,0.425531,0
2024-12-13 15:30:42.270,-0.160319,2.02552,8.55404,1.47092,0.798988,0.421256,0
2024-12-13 15:30:42.272,-0.285045,2.09731,8.00579,1.49352,0.810594,0.41698,0
2024-12-13 15:30:42.275,-0.354437,2.14038,7.55085,1.50635,0.804486,0.411482,0
2024-12-13 15:30:42.282,-0.555434,2.26959,6.21984,1.50085,0.746455,0.388881,0
2024-12-13 15:30:42.282,-0.555434,2.26959,6.21984,1.50085,0.746455,0.388881,0
2024-12-13 15:30:42.284,-0.612862,2.3342,5.85823,1.48375,0.72813,0.378496,0
2024-12-13 15:30:42.284,-0.612862,2.3342,5.85823,1.48375,0.72813,0.378496,0
2024-12-13 15:30:42.287,-0.663111,2.41795,5.5017,1.45931,0.701787,0.369334,0
2024-12-13 15:30:42.289,-0.675075,2.55942,5.19751,1.42938,0.676742,0.362003,0
2024-12-13 15:30:42.291,-0.708575,2.71256,4.97498,1.39518,0.644978,0.351619,0
2024-12-13 15:30:42.294,-0.794716,2.82024,4.71386,1.35852,0.612603,0.342456,0
2024-12-13 15:30:42.296,-0.9003,2.91356,4.42911,1.3121,0.58817,0.333904,0
2024-12-13 15:30:42.298,-0.979263,3.01167,4.19432,1.26323,0.569233,0.32352,0
2024-12-13 15:30:42.301,-1.0678,3.12204,3.95982,1.20398,0.549075,0.312525,0
2024-12-13 15:30:42.303,-1.18265,3.23928,3.75643,1.14167,0.531361,0.300919,0
2024-12-13 15:30:42.305,-1.23529,3.33739,3.62692,1.06776,0.508149,0.289313,0
2024-12-13 15:30:42.308,-1.26401,3.42592,3.55035,0.991405,0.48005,0.279539,0
2024-12-13 15:30:42.310,-1.32861,3.50967,3.48096,0.91566,0.447675,0.270376,0
2024-12-13 15:30:42.313,-1.41984,3.60539,3.44746,0.833196,0.418354,0.261824,0
2024-12-13 15:30:42.315,-1.49402,3.67986,3.47857,0.751342,0.387201,0.255716,0
2024-12-13 15:30:42.317,-1.58734,3.72772,3.53121,0.667045,0.358491,0.250829,0
2024-12-13 15:30:42.320,-1.7333,3.80668,3.58146,0.582137,0.332835,0.249607,0
2024-12-13 15:30:42.322,-1.82184,3.84736,3.67747,0.501506,0.308401,0.252051,0
2024-12-13 15:30:42.331,-1.52273,3.43789,4.45783,0.416598,0.254036,0.256327,0
2024-12-13 15:30:42.334,-1.41266,3.28475,4.74736,0.118428,0.186232,0.247164,0
2024-12-13 15:30:42.334,-1.41266,3.28475,4.74736,0.118428,0.186232,0.247164,0
2024-12-13 15:30:42.336,-1.33101,3.15553,5.04676,0.0579541,0.175848,0.240445,0
2024-12-13 15:30:42.336,-1.33101,3.15553,5.04676,0.0579541,0.175848,0.240445,0
2024-12-13 15:30:42.338,-1.29272,3.06909,5.35574,0.00175619,0.170961,0.232504,0
2024-12-13 15:30:42.338,-1.29272,3.06909,5.35574,0.00175619,0.170961,0.232504,0
2024-12-13 15:30:42.341,-1.30947,3.02363,5.65484,-0.0471116,0.173404,0.225174,0
2024-12-13 15:30:42.343,-1.35733,3.01167,5.94228,-0.0904818,0.177069,0.220898,0
2024-12-13 15:30:42.345,-1.42941,3.01406,6.23181,-0.127133,0.18501,0.213567,0
2024-12-13 15:30:42.348,-1.52513,2.9997,6.48335,-0.159507,0.195395,0.211735,0
2024-12-13 15:30:42.350,-1.59212,2.98295,6.69392,-0.185163,0.204557,0.212346,0
2024-12-13 15:30:42.353,-1.62562,2.96381,6.92363,-0.201656,0.211277,0.211735,0
2024-12-13 15:30:42.355,-1.64477,2.9327,7.14886,-0.219371,0.213109,0.210513,0
2024-12-13 15:30:42.357,-1.6328,2.87767,7.34507,-0.232198,0.211277,0.209902,0
2024-12-13 15:30:42.360,-1.59212,2.81067,7.51974,-0.238307,0.208223,0.20807,0
2024-12-13 15:30:42.362,-1.5347,2.75085,7.65643,-0.245026,0.200282,0.203183,0
2024-12-13 15:30:42.364,-1.48205,2.69821,7.76411,-0.251745,0.191119,0.199518,0
2024-12-13 15:30:42.367,-1.44377,2.63839,7.86461,-0.2548,0.181956,0.19341,0
2024-12-13 15:30:42.369,-1.41266,2.57378,7.96511,-0.254189,0.172793,0.187912,0
2024-12-13 15:30:42.371,-1.41506,2.52592,8.08236,-0.250524,0.164242,0.182414,0
2024-12-13 15:30:42.374,-1.42463,2.4993,8.20469,-0.243804,0.153857,0.178138,0
2024-12-13 15:30:42.376,-1.40788,2.47059,8.30758,-0.240139,0.147138,0.173252,0
2024-12-13 15:30:42.378,-1.38365,2.4347,8.39372,-0.231587,0.137364,0.170197,0
2024-12-13 15:30:42.381,-1.34536,2.4012,8.48465,-0.221203,0.128202,0.166532,0
2024-12-13 15:30:42.383,-1.32144,2.37488,8.57797,-0.209597,0.119039,0.1647,0
2024-12-13 15:30:42.386,-1.29272,2.35813,8.6354,-0.195547,0.108654,0.162867,0
2024-12-13 15:30:42.389,-1.24247,2.33181,8.69043,-0.16134,0.0909399,0.161645,0
2024-12-13 15:30:42.390,-1.19701,2.28634,8.71945,-0.16134,0.0909399,0.161645,0
2024-12-13 15:30:42.393,-1.15633,2.25763,8.72423,-0.143625,0.0799446,0.161645,0
2024-12-13 15:30:42.395,-1.10608,2.24806,8.72662,-0.123468,0.0738362,0.160424,0
2024-12-13 15:30:42.397,-1.1324,2.31266,8.69761,-0.10392,0.0689494,0.160424,0
2024-12-13 15:30:42.400,-1.24487,2.42752,8.52533,-0.0831516,0.0726145,0.165921,0
2024-12-13 15:30:42.402,-1.19462,2.47059,8.44397,-0.0678804,0.0787229,0.173862,0
2024-12-13 15:30:42.404,-1.01515,2.4658,8.47029,-0.0513875,0.074447,0.180582,0
2024-12-13 15:30:42.409,-0.689432,2.32941,8.35304,-0.0330621,0.0689494,0.183636,0
2024-12-13 15:30:42.411,-0.536291,2.25284,8.25972,0.00175619,0.0567324,0.177527,0
2024-12-13 15:30:42.411,-0.536291,2.25284,8.25972,0.00175619,0.0567324,0.177527,0
2024-12-13 15:30:42.414,-0.3999,2.19541,8.11586,0.0164165,0.0524565,0.173862,0
2024-12-13 15:30:42.416,-0.265603,2.13799,7.95793,0.0310769,0.0512348,0.1647,0
2024-12-13 15:30:42.420,-0.160319,2.08056,7.78565,0.0579541,0.0616192,0.142709,0
2024-12-13 15:30:42.421,-0.0646062,2.04467,7.60858,0.0579541,0.0616192,0.142709,0
2024-12-13 15:30:42.423,0.00957129,2.02792,7.436,0.0683385,0.0677277,0.129805,0
2024-12-13 15:30:42.426,0.0287139,2.0327,7.28046,0.0793338,0.0762796,0.11881,0
2024-12-13 15:30:42.428,-0.00239282,2.08295,7.11296,0.0854423,0.0878856,0.105982,0
2024-12-13 15:30:42.430,-0.0574277,2.16431,6.94517,0.0897182,0.103157,0.0968193,0
2024-12-13 15:30:42.434,-0.124427,2.25045,6.8016,0.0988809,0.135532,0.0882674,0
2024-12-13 15:30:42.435,-0.179462,2.33898,6.67478,0.0988809,0.135532,0.0882674,0
2024-12-13 15:30:42.437,-0.227318,2.41316,6.52642,0.0976592,0.150192,0.0852132,0
2024-12-13 15:30:42.440,-0.253639,2.47537,6.37538,0.0964375,0.163631,0.0876566,0
2024-12-13 15:30:42.442,-0.256032,2.52323,6.22702,0.0915507,0.174015,0.0876566,0
2024-12-13 15:30:42.444,-0.246461,2.55224,6.08345,0.0872748,0.181345,0.0888783,0
2024-12-13 15:30:42.447,-0.22014,2.55942,5.95424,0.0805555,0.186232,0.0913217,0
2024-12-13 15:30:42.449,-0.179462,2.55942,5.81994,0.0695602,0.187454,0.0943759,0
2024-12-13 15:30:42.451,-0.138784,2.56421,5.69552,0.0597867,0.188065,0.0937651,0
2024-12-13 15:30:42.454,-0.119641,2.57617,5.59741,0.0487914,0.190508,0.0919325,0
2024-12-13 15:30:42.456,-0.0981057,2.58096,5.4993,0.0371853,0.190508,0.0907108,0
2024-12-13 15:30:42.459,-0.0741775,2.58814,5.41556,0.0243575,0.192951,0.0876566,0
2024-12-13 15:30:42.461,-0.081356,2.61446,5.3677,0.0109189,0.194173,0.0870457,0
2024-12-13 15:30:42.463,-0.107677,2.64317,5.34138,-0.00129805,0.19906,0.0864349,0
2024-12-13 15:30:42.466,-0.12682,2.65514,5.33899,-0.013515,0.203336,0.0864349,0
2024-12-13 15:30:42.468,-0.138784,2.69581,5.33659,-0.0238994,0.207612,0.0882674,0
2024-12-13 15:30:42.470,-0.138784,2.74128,5.31715,-0.033673,0.209444,0.0901,0
2024-12-13 15:30:42.473,-0.12682,2.76521,5.31237,-0.0452791,0.210666,0.0919325,0
2024-12-13 15:30:42.475,-0.0981057,2.80588,5.31715,-0.0562743,0.210666,0.0925434,0
2024-12-13 15:30:42.477,-0.0765703,2.85135,5.29562,-0.0648262,0.211888,0.0937651,0
2024-12-13 15:30:42.480,-0.0550349,2.87767,5.26451,-0.0739889,0.214331,0.0962084,0
2024-12-13 15:30:42.482,-0.0311067,2.8992,5.24058,-0.0831516,0.217996,0.0962084,0
2024-12-13 15:30:42.484,-0.00957129,2.93031,5.23819,-0.0904818,0.217996,0.0974301,0
2024-12-13 15:30:42.487,0.00478565,2.95424,5.24537,-0.0996445,0.214942,0.0974301,0
2024-12-13 15:30:42.489,0.0119641,2.97817,5.25733,-0.106975,0.214331,0.0974301,0
2024-12-13 15:30:42.492,0.00239282,2.99731,5.28126,-0.106975,0.214331,0.0974301,0
2024-12-13 15:30:42.494,-0.00717847,3.03799,5.30279,-0.121635,0.207001,0.100484,0
2024-12-13 15:30:42.496,-0.0167498,3.07388,5.31954,-0.129576,0.202725,0.100484,0
2024-12-13 15:30:42.499,-0.0311067,3.11486,5.3342,-0.135074,0.196006,0.101095,0
2024-12-13 15:30:42.501,-0.0334995,3.15314,5.35574,-0.144847,0.18501,0.104149,0
2024-12-13 15:30:42.503,-0.040678,3.17707,5.36052,-0.151566,0.170961,0.104149,0
2024-12-13 15:30:42.506,-0.0646062,3.20578,5.38924,-0.161951,0.156301,0.105982,0
2024-12-13 15:30:42.508,-0.11007,3.24168,5.44906,-0.171724,0.14164,0.108425,0
2024-12-13 15:30:42.510,-0.138784,3.27996,5.50648,-0.179055,0.124536,0.113923,0
2024-12-13 15:30:42.513,-0.153141,3.31585,5.5663,-0.189439,0.108654,0.118199,0
2024-12-13 15:30:42.515,-0.148355,3.36132,5.61895,-0.198602,0.0915507,0.122475,0
2024-12-13 15:30:42.517,-0.124427,3.38285,5.67637,-0.207154,0.0720036,0.125529,0
2024-12-13 15:30:42.520,-0.0981057,3.40439,5.74337,-0.217538,0.0548999,0.127972,0
2024-12-13 15:30:42.522,-0.0741775,3.44028,5.81994,-0.229144,0.0377962,0.132248,0
2024-12-13 15:30:42.527,-0.0646062,3.49532,5.96381,-0.239528,0.0206925,0.131638,0
2024-12-13 15:30:42.529,-0.0741775,3.51207,6.0332,-0.261519,-0.00251974,0.131027,0
2024-12-13 15:30:42.532,-0.0741775,3.51207,6.12652,-0.272514,-0.00984991,0.132859,0
2024-12-13 15:30:42.532,-0.0909273,3.5336,6.12652,-0.272514,-0.00984991,0.132859,0
2024-12-13 15:30:42.534,-0.124427,3.56231,6.20788,-0.278623,-0.0129041,0.132248,0
2024-12-13 15:30:42.536,-0.18664,3.58385,6.28924,-0.287175,-0.013515,0.132248,0
2024-12-13 15:30:42.539,-0.248854,3.61017,6.35384,-0.29817,-0.0129041,0.134157,0
2024-12-13 15:30:42.541,-0.301795,3.62692,6.40888,-0.3055,-0.00557398,0.134768,0
2024-12-13 15:30:42.543,-0.359223,3.62214,6.48814,-0.314663,0.00481042,0.134157,0
2024-12-13 15:30:42.546,-0.402293,3.61974,6.57428,-0.322604,0.0164165,0.137822,0
2024-12-13 15:30:42.548,-0.4334,3.61256,6.69153,-0.330545,0.0268009,0.139044,0
2024-12-13 15:30:42.550,-0.474078,3.60299,6.83749,-0.338486,0.0347419,0.142709,0
2024-12-13 15:30:42.553,-0.495613,3.6006,6.97388,-0.346427,0.0396287,0.148207,0
2024-12-13 15:30:42.555,-0.517149,3.60539,7.08664,-0.351314,0.0414613,0.153704,0
2024-12-13 15:30:42.557,-0.557827,3.64606,7.19432,-0.355589,0.0390179,0.15737,0
2024-12-13 15:30:42.560,-0.605683,3.69422,7.302,-0.360476,0.0371853,0.165921,0
2024-12-13 15:30:42.562,-0.634397,3.72054,7.38814,-0.36292,0.0353528,0.174473,0
2024-12-13 15:30:42.565,-0.629611,3.73729,7.47907,-0.365974,0.0335202,0.17936,0
2024-12-13 15:30:42.567,-0.60329,3.75165,7.59422,-0.367196,0.030466,0.18669,0
2024-12-13 15:30:42.569,-0.56022,3.77797,7.70908,-0.366585,0.0310769,0.192799,0
2024-12-13 15:30:42.572,-0.524327,3.79711,7.85504,-0.36353,0.0280226,0.198296,0
2024-12-13 15:30:42.574,-0.498006,3.81147,8.02014,-0.357422,0.0274118,0.201351,0
2024-12-13 15:30:42.576,-0.483649,3.84497,8.14965,-0.351314,0.0268009,0.205626,0
2024-12-13 15:30:42.579,-0.493221,3.89043,8.27647,-0.342151,0.0213033,0.209292,0
2024-12-13 15:30:42.581,-0.490828,3.93111,8.39133,-0.328101,0.0213033,0.214178,0
2024-12-13 15:30:42.583,-0.495613,3.98375,8.47269,-0.317106,0.0170274,0.217843,0
2024-12-13 15:30:42.586,-0.498006,4.04357,8.53251,-0.301224,0.0158057,0.221508,0
2024-12-13 15:30:42.588,-0.469292,4.09382,8.57797,-0.29084,0.0121406,0.223952,0
2024-12-13 15:30:42.590,-0.445364,4.13928,8.60429,-0.277401,0.00908635,0.227617,0
2024-12-13 15:30:42.593,-0.428614,4.19432,8.61147,-0.267627,0.00725381,0.228839,0
2024-12-13 15:30:42.595,-0.414257,4.23769,8.61625,-0.259076,0.00603212,0.228839,0
2024-12-13 15:30:42.597,-0.404686,4.27837,8.59711,-0.251135,0.00236703,0.229449,0
2024-12-13 15:30:42.602,-0.411865,4.32383,8.55883,-0.246248,-0.00129805,0.228228,0
2024-12-13 15:30:42.602,-0.421436,4.35015,8.51336,-0.246248,-0.00129805,0.228228,0
2024-12-13 15:30:42.607,-0.45015,4.38844,8.4679,-0.248691,-0.00618483,0.225784,0
2024-12-13 15:30:42.609,-0.45015,4.38844,8.4679,-0.252356,-0.00984991,0.226395,0
2024-12-13 15:30:42.609,-0.488435,4.38604,8.47986,-0.252356,-0.00984991,0.226395,0
2024-12-13 15:30:42.612,-0.52672,4.38365,8.49901,-0.256632,-0.013515,0.228228,0
2024-12-13 15:30:42.614,-0.545863,4.38844,8.51815,-0.260908,-0.0184018,0.228839,0
2024-12-13 15:30:42.616,-0.54347,4.40997,8.52772,-0.267017,-0.0245102,0.229449,0
2024-12-13 15:30:42.621,-0.524327,4.46979,8.58276,-0.285342,-0.033673,0.233115,0
2024-12-13 15:30:42.621,-0.524327,4.46979,8.58276,-0.285342,-0.033673,0.233115,0
2024-12-13 15:30:42.623,-0.507577,4.49851,8.64258,-0.297559,-0.0410031,0.233115,0
2024-12-13 15:30:42.626,-0.517149,4.51286,8.72184,-0.3055,-0.0477224,0.232504,0
2024-12-13 15:30:42.628,-0.54347,4.52483,8.77927,-0.315884,-0.0550526,0.230671,0
2024-12-13 15:30:42.630,-0.565005,4.56072,8.82234,-0.328712,-0.0623828,0.23006,0
2024-12-13 15:30:42.633,-0.557827,4.60618,8.85344,-0.342151,-0.0660479,0.228228,0
2024-12-13 15:30:42.635,-0.52672,4.63011,8.86302,-0.3562,-0.0697129,0.222119,0
2024-12-13 15:30:42.640,-0.438186,4.64447,8.97787,-0.38491,-0.0758214,0.211124,0
2024-12-13 15:30:42.640,-0.438186,4.64447,8.97787,-0.38491,-0.0758214,0.211124,0
2024-12-13 15:30:42.642,-0.428614,4.64686,9.05444,-0.397127,-0.0770431,0.204405,0
2024-12-13 15:30:42.645,-0.423829,4.6349,9.13819,-0.408733,-0.077654,0.195853,0
2024-12-13 15:30:42.647,-0.414257,4.62054,9.26052,-0.419728,-0.0788757,0.188523,0
2024-12-13 15:30:42.649,-0.397508,4.61576,9.38974,-0.426448,-0.0819299,0.181193,0
2024-12-13 15:30:42.652,-0.373579,4.61576,9.5022,-0.433167,-0.0831516,0.172641,0
2024-12-13 15:30:42.656,-0.335294,4.6325,9.74387,-0.438054,-0.0947577,0.155537,0
2024-12-13 15:30:42.656,-0.335294,4.6325,9.74387,-0.438054,-0.0947577,0.155537,0
2024-12-13 15:30:42.659,-0.308973,4.64447,9.83271,-0.436832,-0.0990336,0.145763,0
2024-12-13 15:30:42.661,-0.294616,4.65165,9.9021,-0.439276,-0.10392,0.138433,0
2024-12-13 15:30:42.663,-0.289831,4.65165,9.96431,-0.437443,-0.105142,0.129805,0
2024-12-13 15:30:42.666,-0.287438,4.64686,10.0265,-0.433167,-0.108196,0.120642,0
2024-12-13 15:30:42.668,-0.267996,4.63729,10.084,-0.425837,-0.113694,0.110869,0
2024-12-13 15:30:42.671,-0.227318,4.6325,10.1414,-0.417896,-0.114305,0.101706,0
2024-12-13 15:30:42.673,-0.179462,4.6325,10.1725,-0.407511,-0.11797,0.0949868,0
2024-12-13 15:30:42.675,-0.12682,4.63729,10.1916,-0.39896,-0.119802,0.0864349,0
2024-12-13 15:30:42.678,-0.0837488,4.64208,10.2347,-0.387964,-0.116137,0.0754396,0
2024-12-13 15:30:42.680,-0.0550349,4.64686,10.2921,-0.376969,-0.112472,0.0656661,0
2024-12-13 15:30:42.682,-0.0358923,4.66122,10.3591,-0.366585,-0.106975,0.0577251,0
2024-12-13 15:30:42.685,-0.0311067,4.68754,10.4216,-0.366585,-0.106975,0.0577251,0
2024-12-13 15:30:42.687,-0.0239282,4.70907,10.4575,-0.333599,-0.0959794,0.0400105,0
2024-12-13 15:30:42.689,0.00239282,4.72582,10.4862,-0.32016,-0.0917034,0.0308478,0
2024-12-13 15:30:42.692,0.0382852,4.75215,10.5102,-0.306111,-0.0880384,0.0198525,0
2024-12-13 15:30:42.694,0.0574277,4.7689,10.5078,-0.289007,-0.0868167,0.0113007,0
2024-12-13 15:30:42.699,0.0789631,4.76411,10.4599,-0.257243,-0.077654,-0.00763559,0
2024-12-13 15:30:42.699,0.0789631,4.76411,10.4599,-0.257243,-0.077654,-0.00763559,0
2024-12-13 15:30:42.701,0.11007,4.82184,10.448,-0.241972,-0.0703238,-0.0204634,0
2024-12-13 15:30:42.703,0.129212,4.89123,10.4575,-0.241972,-0.0703238,-0.0204634,0
2024-12-13 15:30:42.706,0.0933201,4.88644,10.4767,-0.206543,-0.0581068,-0.0442864,0
2024-12-13 15:30:42.708,0.0646062,4.84098,10.491,-0.189439,-0.0519984,-0.0571142,0
2024-12-13 15:30:42.711,0.0382852,4.81944,10.4671,-0.172335,-0.0471116,-0.0711637,0
2024-12-13 15:30:42.713,0.0,4.82184,10.4312,-0.158897,-0.0391706,-0.0839915,0
2024-12-13 15:30:42.715,-0.0215354,4.84816,10.4121,-0.145458,-0.033673,-0.0937651,0
2024-12-13 15:30:42.718,-0.0574277,4.88166,10.3953,-0.130187,-0.0306187,-0.10476,0
2024-12-13 15:30:42.720,-0.0861416,4.91994,10.3881,-0.117359,-0.0287862,-0.115756,0
2024-12-13 15:30:42.722,-0.0981057,4.9678,10.3735,-0.108196,-0.0300079,-0.127362,0
2024-12-13 15:30:42.725,-0.119641,5.01326,10.3519,-0.100255,-0.0312296,-0.137746,0
2024-12-13 15:30:42.727,-0.143569,5.06351,10.34,-0.0917034,-0.0361163,-0.149963,0
2024-12-13 15:30:42.729,-0.143569,5.11855,10.3687,-0.0862058,-0.0410031,-0.162791,0
2024-12-13 15:30:42.732,-0.153141,5.15922,10.4121,-0.081319,-0.0489441,-0.172564,0
2024-12-13 15:30:42.734,-0.162712,5.19033,10.4504,-0.0721563,-0.0556635,-0.182949,0
2024-12-13 15:30:42.736,-0.160319,5.22383,10.4982,-0.0666587,-0.0605502,-0.193944,0
2024-12-13 15:30:42.739,-0.179462,5.22862,10.5317,-0.0593285,-0.0666587,-0.203718,0
2024-12-13 15:30:42.741,-0.208176,5.22383,10.57,-0.0526092,-0.073378,-0.209826,0
2024-12-13 15:30:42.744,-0.229711,5.2334,10.6298,-0.0440574,-0.0788757,-0.222654,0
2024-12-13 15:30:42.746,-0.239282,5.24058,10.6705,-0.0397814,-0.0849841,-0.228151,0
2024-12-13 15:30:42.748,-0.239282,5.26212,10.7088,-0.0300079,-0.0862058,-0.231817,0
2024-12-13 15:30:42.753,-0.272782,5.31476,10.8308,-0.0171801,-0.10331,-0.244644,0
2024-12-13 15:30:42.754,-0.256032,5.31476,10.8308,-0.00984991,-0.109418,-0.24892,0
2024-12-13 15:30:42.755,-0.311366,5.34856,10.9002,-0.00984991,-0.109418,-0.24892,0
2024-12-13 15:30:42.758,-0.368794,5.36291,10.9699,-7.63559e-05,-0.121024,-0.251974,0
2024-12-13 15:30:42.760,-0.409472,5.38206,11.0441,0.00542127,-0.130798,-0.258083,0
2024-12-13 15:30:42.762,-0.426222,5.40359,11.1111,0.0133623,-0.138739,-0.260526,0
2024-12-13 15:30:42.765,-0.438186,5.41795,11.1829,0.0231358,-0.145458,-0.26297,0
2024-12-13 15:30:42.767,-0.454935,5.42513,11.2499,0.0347419,-0.152788,-0.263581,0
2024-12-13 15:30:42.769,-0.459721,5.44906,11.3001,0.0451263,-0.158286,-0.266024,0
2024-12-13 15:30:42.772,-0.457328,5.4682,11.3456,0.0567324,-0.158897,-0.266024,0
2024-12-13 15:30:42.776,-0.493221,5.48973,11.4197,0.082388,-0.160729,-0.263581,0
2024-12-13 15:30:42.776,-0.493221,5.48973,11.4197,0.082388,-0.160729,-0.263581,0
2024-12-13 15:30:42.779,-0.464507,5.48495,11.4485,0.0952158,-0.159507,-0.261748,0
2024-12-13 15:30:42.781,-0.440578,5.49691,11.4915,0.108044,-0.160118,-0.257472,0
2024-12-13 15:30:42.784,-0.421436,5.51845,11.5277,0.120261,-0.159507,-0.256861,0
2024-12-13 15:30:42.786,-0.41665,5.52084,11.5684,0.131867,-0.160118,-0.255029,0
2024-12-13 15:30:42.788,-0.423829,5.53041,11.6043,0.144694,-0.160729,-0.251974,0
2024-12-13 15:30:42.791,-0.414257,5.53041,11.6354,0.153246,-0.16134,-0.249531,0
2024-12-13 15:30:42.795,-0.395115,5.55673,11.6713,0.172183,-0.160729,-0.244644,0
2024-12-13 15:30:42.795,-0.395115,5.55673,11.6713,0.172183,-0.160729,-0.244644,0
2024-12-13 15:30:42.798,-0.428614,5.57109,11.6521,0.181345,-0.163173,-0.242812,0
2024-12-13 15:30:42.800,-0.469292,5.57587,11.633,0.186843,-0.162562,-0.240979,0
2024-12-13 15:30:42.805,-0.531506,5.60698,11.621,0.192951,-0.167449,-0.239147,0
2024-12-13 15:30:42.805,-0.531506,5.60698,11.621,0.192951,-0.167449,-0.239147,0
2024-12-13 15:30:42.807,-0.567398,5.5998,11.5636,0.196616,-0.167449,-0.236703,0
2024-12-13 15:30:42.809,-0.584148,5.62134,11.5373,0.197838,-0.169281,-0.234871,0
2024-12-13 15:30:42.814,-0.596112,5.6668,11.5182,0.194173,-0.177833,-0.235482,0
2024-12-13 15:30:42.817,-0.600898,5.71705,11.4963,0.194173,-0.177833,-0.235482,0
2024-12-13 15:30:42.817,-0.600898,5.71705,11.4963,0.194173,-0.177833,-0.235482,0
2024-12-13 15:30:42.821,-0.624826,5.79841,11.4293,0.180124,-0.196769,-0.247699,0
2024-12-13 15:30:42.821,-0.624826,5.79841,11.4293,0.180124,-0.196769,-0.247699,0
2024-12-13 15:30:42.826,-0.663111,5.87258,11.4389,0.168517,-0.216927,-0.259305,0
2024-12-13 15:30:42.826,-0.663111,5.87258,11.4389,0.168517,-0.216927,-0.259305,0
2024-12-13 15:30:42.828,-0.667897,5.90878,11.4628,0.160576,-0.227922,-0.268467,0
2024-12-13 15:30:42.831,-0.670289,5.93749,11.4772,0.153246,-0.24075,-0.276408,0
2024-12-13 15:30:42.833,-0.675075,5.97578,11.4772,0.142251,-0.255411,-0.28496,0
2024-12-13 15:30:42.835,-0.655932,6.00688,11.4772,0.132477,-0.268238,-0.294734,0
2024-12-13 15:30:42.838,-0.60329,6.02363,11.5035,0.11965,-0.276179,-0.300231,0
2024-12-13 15:30:42.840,-0.569791,6.02124,11.5349,0.106822,-0.287175,-0.308172,0
2024-12-13 15:30:42.842,-0.557827,6.00927,11.5708,0.0921616,-0.296948,-0.316724,0
2024-12-13 15:30:42.845,-0.553041,6.02124,11.6091,0.0768904,-0.309165,-0.327109,0
2024-12-13 15:30:42.847,-0.550648,6.01645,11.6402,0.0628409,-0.323825,-0.332606,0
2024-12-13 15:30:42.852,-0.507577,5.94706,11.7574,0.0457372,-0.337875,-0.340547,0
2024-12-13 15:30:42.854,-0.483649,5.91356,11.8627,0.0127514,-0.367806,-0.350932,0
2024-12-13 15:30:42.857,-0.471685,5.85823,11.9991,0.0127514,-0.367806,-0.350932,0
2024-12-13 15:30:42.859,-0.462114,5.79841,12.1406,-0.0238994,-0.407511,-0.36437,0
2024-12-13 15:30:42.859,-0.462114,5.79841,12.1406,-0.0238994,-0.407511,-0.36437,0
2024-12-13 15:30:42.861,-0.454935,5.74098,12.2818,-0.0397814,-0.420339,-0.369257,0
2024-12-13 15:30:42.864,-0.45015,5.67637,12.4182,-0.0550526,-0.432556,-0.373533,0
2024-12-13 15:30:42.866,-0.447757,5.60459,12.5904,-0.0703238,-0.439886,-0.375976,0
2024-12-13 15:30:42.868,-0.435793,5.53998,12.7941,-0.0703238,-0.439886,-0.375976,0
2024-12-13 15:30:42.873,-0.380758,5.4012,13.1459,-0.119192,-0.453936,-0.377198,0
2024-12-13 15:30:42.873,-0.380758,5.4012,13.1459,-0.119192,-0.453936,-0.377198,0
2024-12-13 15:30:42.875,-0.347258,5.30758,13.3304,-0.138739,-0.455768,-0.37842,0
2024-12-13 15:30:42.878,-0.299402,5.21665,13.5338,-0.15401,-0.452103,-0.379642,0
2024-12-13 15:30:42.880,-0.260818,5.13051,13.7686,-0.166838,-0.445384,-0.376587,0
2024-12-13 15:30:42.882,-0.224925,5.0348,13.9863,-0.179665,-0.432556,-0.375366,0
2024-12-13 15:30:42.885,-0.174676,4.95344,14.2065,-0.191272,-0.416063,-0.374755,0
2024-12-13 15:30:42.887,-0.157926,4.88405,14.4604,-0.202267,-0.394073,-0.370479,0
2024-12-13 15:30:42.890,-0.157926,4.80987,14.6949,-0.212651,-0.369028,-0.367425,0
2024-12-13 15:30:42.892,-0.150748,4.73061,14.9225,-0.220592,-0.345205,-0.36437,0
2024-12-13 15:30:42.894,-0.157926,4.65165,15.157,-0.223646,-0.320771,-0.358873,0
2024-12-13 15:30:42.897,-0.174676,4.56551,15.3676,-0.227922,-0.297559,-0.35704,0
2024-12-13 15:30:42.899,-0.184247,4.46979,15.5474,-0.228533,-0.279234,-0.353986,0
2024-12-13 15:30:42.901,-0.189033,4.35972,15.6933,-0.228533,-0.279234,-0.353986,0
2024-12-13 15:30:42.904,-0.198604,4.2329,15.8249,-0.229144,-0.239528,-0.350321,0
2024-12-13 15:30:42.906,-0.200997,4.10339,15.947,-0.224868,-0.221203,-0.346656,0
2024-12-13 15:30:42.908,-0.181855,3.96222,16.0095,-0.218149,-0.199213,-0.349099,0
2024-12-13 15:30:42.911,-0.167498,3.83061,16.0789,-0.215705,-0.17539,-0.350321,0
2024-12-13 15:30:42.913,-0.189033,3.72772,16.2129,-0.207154,-0.162562,-0.354597,0
2024-12-13 15:30:42.915,-0.222533,3.61256,16.311,-0.190661,-0.15401,-0.357651,0
2024-12-13 15:30:42.918,-0.239282,3.49053,16.3588,-0.190661,-0.15401,-0.357651,0
2024-12-13 15:30:42.920,-0.241675,3.35175,16.3588,-0.147901,-0.140571,-0.352764,3
2024-12-13 15:30:42.923,-0.244068,3.20578,16.299,-0.125911,-0.13935,-0.350321,0
2024-12-13 15:30:42.925,-0.232104,3.06909,16.1865,-0.100255,-0.130187,-0.344823,0
2024-12-13 15:30:42.927,-0.232104,2.91356,16.0406,-0.0770431,-0.119192,-0.344823,0
2024-12-13 15:30:42.930,-0.251246,2.77717,15.8632,-0.0513875,-0.102088,-0.346045,0
2024-12-13 15:30:42.932,-0.258425,2.65753,15.6646,-0.0208452,-0.0837624,-0.342991,0
2024-12-13 15:30:42.934,-0.253639,2.55464,15.4373,0.00786466,-0.065437,-0.341158,0
2024-12-13 15:30:42.937,-0.241675,2.44666,15.1834,0.0408504,-0.0391706,-0.339326,0
2024-12-13 15:30:42.939,-0.224925,2.34616,14.8986,0.0732253,-0.0110716,-0.337493,0
2024-12-13 15:30:42.941,-0.217747,2.28395,14.5992,0.106211,0.0170274,-0.339936,0
2024-12-13 15:30:42.944,-0.210568,2.21695,14.2807,0.136753,0.042683,-0.341769,0
2024-12-13 15:30:42.946,-0.198604,2.15234,13.9624,0.167907,0.0695602,-0.341769,0
2024-12-13 15:30:42.948,-0.282652,2.16192,13.6176,0.199671,0.0952158,-0.343602,0
2024-12-13 15:30:42.951,-0.344866,2.18345,13.1554,0.230213,0.120261,-0.342991,0
2024-12-13 15:30:42.953,-0.193819,2.12602,12.7511,0.25709,0.145305,-0.344212,0
2024-12-13 15:30:42.955,-0.0119641,1.98963,12.4564,0.2858,0.160576,-0.351543,0
2024-12-13 15:30:42.958,0.026321,1.89123,12.0999,0.315121,0.169739,-0.360705,0
2024-12-13 15:30:42.960,0.0717847,1.84576,11.6833,0.345663,0.175237,-0.37109,0
2024-12-13 15:30:42.963,0.18664,1.77876,11.281,0.375671,0.180124,-0.382085,0
2024-12-13 15:30:42.965,0.260818,1.72373,10.893,0.407435,0.183178,-0.397967,0
2024-12-13 15:30:42.967,0.297009,1.70698,10.4934,0.434312,0.186232,-0.413849,0
2024-12-13 15:30:42.970,0.299402,1.70937,10.0887,0.464855,0.19173,-0.430342,0
2024-12-13 15:30:42.972,0.270389,1.73809,9.68405,0.491732,0.193562,-0.448056,0
2024-12-13 15:30:42.974,0.212961,1.77637,9.28206,0.514944,0.195395,-0.46516,0
2024-12-13 15:30:42.977,0.155533,1.79791,8.88934,0.538767,0.192951,-0.47921,0
2024-12-13 15:30:42.979,0.117248,1.85533,8.51097,0.557093,0.188065,-0.491427,0
2024-12-13 15:30:42.981,0.081356,1.91276,8.16162,0.574807,0.177069,-0.502422,0
2024-12-13 15:30:42.984,0.0693919,1.97049,7.84786,0.5913,0.161798,-0.513417,0
2024-12-13 15:30:42.986,0.0909273,2.03031,7.55085,0.603517,0.141029,-0.524412,0
2024-12-13 15:30:42.989,0.133998,2.0662,7.2685,0.61268,0.117206,-0.534186,0
2024-12-13 15:30:42.991,0.184247,2.08535,7.00977,0.623675,0.0909399,-0.545181,0
2024-12-13 15:30:42.994,0.232104,2.11167,6.78724,0.631616,0.0206925,-0.564728,0
2024-12-13 15:30:42.996,0.275175,2.15474,6.58146,0.631616,0.0206925,-0.564728,0
2024-12-13 15:30:42.998,0.320937,2.2002,6.39691,0.632838,-0.0159584,-0.575113,0
2024-12-13 15:30:43.000,0.359223,2.23849,6.26291,0.631005,-0.0544418,-0.586719,0
2024-12-13 15:30:43.003,0.395115,2.2672,6.12892,0.630394,-0.0947577,-0.59466,0
2024-12-13 15:30:43.005,0.423829,2.31266,6.01885,0.626729,-0.133852,-0.603823,0
2024-12-13 15:30:43.007,0.41665,2.36052,5.95185,0.620621,-0.174779,-0.611153,0
2024-12-13 15:30:43.010,0.387936,2.39163,5.9016,0.615123,-0.214484,-0.61665,0
2024-12-13 15:30:43.012,0.364008,2.42752,5.85344,0.607793,-0.252356,-0.619705,0
2024-12-13 15:30:43.014,0.335294,2.46341,5.82712,0.599852,-0.287175,-0.620315,0
2024-12-13 15:30:43.019,0.361615,2.55224,5.84148,0.579694,-0.348259,-0.612374,0
2024-12-13 15:30:43.019,0.361615,2.55224,5.84148,0.579694,-0.348259,-0.612374,0
2024-12-13 15:30:43.021,0.371187,2.59053,5.8678,0.56931,-0.374526,-0.607488,0
2024-12-13 15:30:43.026,0.442971,2.68385,5.9351,0.549152,-0.419728,-0.594049,0
2024-12-13 15:30:43.026,0.442971,2.68385,5.9351,0.549152,-0.419728,-0.594049,0
2024-12-13 15:30:43.028,0.469292,2.71256,5.98056,0.535713,-0.436221,-0.586108,0
2024-12-13 15:30:43.031,0.474078,2.73888,6.04038,0.522274,-0.450882,-0.577556,0
2024-12-13 15:30:43.033,0.488435,2.7676,6.06431,0.508225,-0.461877,-0.564728,0
2024-12-13 15:30:43.036,0.512363,2.78196,6.06431,0.492954,-0.473483,-0.554344,0
2024-12-13 15:30:43.038,0.517149,2.79871,6.06192,0.474628,-0.482035,-0.542127,0
2024-12-13 15:30:43.040,0.502792,2.81545,6.05474,0.452638,-0.494252,-0.528688,0
2024-12-13 15:30:43.043,0.498006,2.82024,6.04995,0.429426,-0.501582,-0.513417,0
2024-12-13 15:30:43.045,0.459721,2.82263,6.04995,0.404992,-0.511356,-0.499368,0
2024-12-13 15:30:43.047,0.407079,2.81067,6.0691,0.376893,-0.521129,-0.482264,0
2024-12-13 15:30:43.050,0.352044,2.80588,6.09063,0.347496,-0.527848,-0.462106,0
2024-12-13 15:30:43.052,0.294616,2.78674,6.12174,0.31451,-0.531513,-0.440115,0
2024-12-13 15:30:43.054,0.246461,2.77238,6.16959,0.282135,-0.532124,-0.416903,0
2024-12-13 15:30:43.057,0.215354,2.76999,6.21027,0.250371,-0.52907,-0.391859,0
2024-12-13 15:30:43.059,0.191426,2.74367,6.24138,0.214942,-0.523572,-0.36437,0
2024-12-13 15:30:43.061,0.165105,2.72213,6.28924,0.179513,-0.515631,-0.336882,0
2024-12-13 15:30:43.064,0.150748,2.72213,6.34188,0.147749,-0.501582,-0.306951,0
2024-12-13 15:30:43.069,0.160319,2.71496,6.44955,0.0781121,-0.463709,-0.245866,0
2024-12-13 15:30:43.069,0.160319,2.71496,6.44955,0.0781121,-0.463709,-0.245866,0
2024-12-13 15:30:43.073,0.16989,2.71017,6.55753,0.0139731,-0.42095,-0.18356,0
2024-12-13 15:30:43.073,0.179462,2.70539,6.55753,0.0139731,-0.42095,-0.18356,0
2024-12-13 15:30:43.078,0.167498,2.67906,6.72024,-0.0434465,-0.375137,-0.122475,0
2024-12-13 15:30:43.080,0.167498,2.67906,6.80638,-0.0703238,-0.350703,-0.0925434,0
2024-12-13 15:30:43.080,0.153141,2.67667,6.80638,-0.0703238,-0.350703,-0.0925434,0
2024-12-13 15:30:43.083,0.143569,2.67667,6.89253,-0.0953685,-0.32688,-0.0601685,0
2024-12-13 15:30:43.085,0.136391,2.65753,6.97388,-0.116137,-0.301224,-0.0296261,0
2024-12-13 15:30:43.087,0.133998,2.63839,7.06272,-0.133852,-0.281677,0.000916271,0
2024-12-13 15:30:43.090,0.12682,2.61924,7.14407,-0.152177,-0.263352,0.0302369,0
2024-12-13 15:30:43.092,0.131605,2.62164,7.23739,-0.169892,-0.246248,0.0589468,0
2024-12-13 15:30:43.097,0.136391,2.60967,7.4336,-0.182109,-0.232809,0.0839915,0
2024-12-13 15:30:43.099,0.162712,2.57139,7.50539,-0.200434,-0.216927,0.128583,0
2024-12-13 15:30:43.099,0.162712,2.57139,7.50539,-0.200434,-0.216927,0.128583,0
2024-12-13 15:30:43.101,0.167498,2.5666,7.57478,-0.20471,-0.216316,0.147596,0
2024-12-13 15:30:43.104,0.189033,2.56182,7.65165,-0.208986,-0.214484,0.164089,0
2024-12-13 15:30:43.106,0.234497,2.55464,7.70668,-0.208986,-0.212651,0.17936,0
2024-12-13 15:30:43.109,0.282652,2.54985,7.76411,-0.205932,-0.212651,0.19341,0
2024-12-13 15:30:43.111,0.311366,2.51605,7.81675,-0.200434,-0.212651,0.205016,0
2024-12-13 15:30:43.113,0.359223,2.48734,7.85504,-0.193715,-0.213873,0.2154,0
2024-12-13 15:30:43.116,0.423829,2.49452,7.87657,-0.18272,-0.210819,0.223341,0
2024-12-13 15:30:43.118,0.495613,2.50409,7.88136,-0.170503,-0.210208,0.228839,0
2024-12-13 15:30:43.120,0.56022,2.50648,7.88615,-0.154621,-0.205932,0.231893,0
2024-12-13 15:30:43.123,0.593719,2.5017,7.86222,-0.13996,-0.205321,0.236169,0
2024-12-13 15:30:43.125,0.624826,2.48734,7.8359,-0.124689,-0.20471,0.234336,0
2024-12-13 15:30:43.127,0.667897,2.48016,7.81197,-0.105142,-0.204099,0.231893,0
2024-12-13 15:30:43.130,0.720539,2.48734,7.75693,-0.0868167,-0.200434,0.228228,0
2024-12-13 15:30:43.132,0.766002,2.49452,7.71386,-0.0678804,-0.194326,0.222119,0
2024-12-13 15:30:43.134,0.789931,2.50648,7.67079,-0.0678804,-0.194326,0.222119,0
2024-12-13 15:30:43.139,0.82343,2.5017,7.52453,-0.0116825,-0.174779,0.19341,0
2024-12-13 15:30:43.139,0.82343,2.5017,7.52453,-0.0116825,-0.174779,0.19341,0
2024-12-13 15:30:43.142,0.847657,2.51366,7.44317,0.00419957,-0.167449,0.181803,0
2024-12-13 15:30:43.144,0.854836,2.53549,7.36421,0.0219141,-0.163173,0.167143,0
2024-12-13 15:30:43.146,0.857229,2.54985,7.28286,0.0377962,-0.158286,0.153094,0
2024-12-13 15:30:43.149,0.885943,2.55224,7.17757,0.0542891,-0.155842,0.141487,0
2024-12-13 15:30:43.151,0.890728,2.55703,7.06032,0.0658951,-0.155232,0.123086,0
2024-12-13 15:30:43.153,0.88355,2.57378,6.94517,0.0787229,-0.155842,0.105982,0
2024-12-13 15:30:43.156,0.88355,2.58335,6.83988,0.086664,-0.154621,0.0888783,0
2024-12-13 15:30:43.158,0.871586,2.59053,6.73939,0.094605,-0.153399,0.0705529,0
2024-12-13 15:30:43.160,0.852443,2.61446,6.63171,0.0994917,-0.15401,0.0479515,0
2024-12-13 15:30:43.163,0.835394,2.6336,6.53121,0.106211,-0.152177,0.0284044,0
2024-12-13 15:30:43.165,0.80668,2.6336,6.43998,0.108044,-0.151566,0.00946813,0
2024-12-13 15:30:43.168,0.761217,2.65274,6.35384,0.108044,-0.150345,-0.00763559,0
2024-12-13 15:30:43.170,0.71336,2.6671,6.27966,0.108044,-0.149123,-0.0253502,0
2024-12-13 15:30:43.174,0.641576,2.71496,6.10977,0.101935,-0.149734,-0.0613902,0
2024-12-13 15:30:43.174,0.641576,2.71496,6.10977,0.101935,-0.149734,-0.0613902,0
2024-12-13 15:30:43.177,0.60329,2.72931,6.02363,0.0988809,-0.151566,-0.0791047,0
2024-12-13 15:30:43.179,0.572184,2.76042,5.95424,0.090329,-0.15401,-0.0949868,0
2024-12-13 15:30:43.182,0.562612,2.77238,5.9016,0.090329,-0.15401,-0.0949868,0
2024-12-13 15:30:43.184,0.531506,2.78674,5.83669,0.0701711,-0.16867,-0.124307,0
2024-12-13 15:30:43.186,0.502792,2.81067,5.77687,0.0610084,-0.174779,-0.138968,0
2024-12-13 15:30:43.189,0.454935,2.83938,5.74337,0.046348,-0.182109,-0.151796,0
2024-12-13 15:30:43.191,0.402293,2.87049,5.70987,0.0341311,-0.186996,-0.165234,0
2024-12-13 15:30:43.193,0.380758,2.89442,5.67398,0.0206925,-0.192493,-0.179284,0
2024-12-13 15:30:43.196,0.35683,2.91595,5.65723,0.00786466,-0.196769,-0.186614,0
2024-12-13 15:30:43.198,0.320937,2.94467,5.65484,0.00786466,-0.196769,-0.186614,0
2024-12-13 15:30:43.200,0.297009,2.99252,5.65245,-0.0177909,-0.200434,-0.204328,0
2024-12-13 15:30:43.203,0.270389,3.0332,5.64048,-0.0318404,-0.203488,-0.212269,0
