timestamp,accel_x,accel_y,accel_z,gyro_x,gyro_y,gyro_z,step_timestamp
2024-12-13 15:40:28.605,0.172283,4.20628,9.1334,0.0732253,-0.14668,0.0131332,0
2024-12-13 15:40:28.605,0.172283,4.20628,9.1334,0.0732253,-0.14668,0.0131332,0
2024-12-13 15:40:28.605,0.172283,4.20628,9.1334,0.0732253,-0.14668,0.0131332,0
2024-12-13 15:40:28.605,0.172283,4.20628,9.1334,0.0732253,-0.14668,0.0131332,0
2024-12-13 15:40:28.605,0.172283,4.20628,9.1334,0.0732253,-0.14668,0.0131332,0
2024-12-13 15:40:28.605,0.172283,4.20628,9.1334,0.0732253,-0.14668,0.0131332,0
2024-12-13 15:40:28.605,0.172283,4.20628,9.1334,0.0732253,-0.14668,0.0131332,0
2024-12-13 15:40:28.605,0.172283,4.20628,9.1334,0.0732253,-0.14668,0.0131332,0
2024-12-13 15:40:28.605,0.172283,4.20628,9.1334,0.0732253,-0.14668,0.0131332,0
2024-12-13 15:40:28.605,0.172283,4.20628,9.1334,0.0732253,-0.14668,0.0131332,0
2024-12-13 15:40:28.605,0.172283,4.20628,9.1334,0.0732253,-0.14668,0.0131332,0
2024-12-13 15:40:28.605,0.172283,4.20628,9.1334,0.0732253,-0.14668,0.0131332,0
2024-12-13 15:40:28.605,0.172283,4.20628,9.1334,0.0732253,-0.14668,0.0131332,0
2024-12-13 15:40:28.605,0.172283,4.20628,9.1334,0.0732253,-0.14668,0.0131332,0
2024-12-13 15:40:28.605,0.172283,4.20628,9.1334,0.0732253,-0.14668,0.0131332,0
2024-12-13 15:40:28.605,0.172283,4.20628,9.1334,0.0732253,-0.14668,0.0131332,0
2024-12-13 15:40:28.605,0.172283,4.20628,9.1334,0.0732253,-0.14668,0.0131332,0
2024-12-13 15:40:28.605,0.172283,4.20628,9.1334,0.0732253,-0.14668,0.0131332,0
2024-12-13 15:40:28.605,0.172283,4.20628,9.1334,0.0732253,-0.14668,0.0131332,0
2024-12-13 15:40:28.605,0.172283,4.20628,9.1334,0.0732253,-0.14668,0.0131332,0
2024-12-13 15:40:28.605,0.172283,4.20628,9.1334,0.0732253,-0.14668,0.0131332,0
2024-12-13 15:40:28.605,0.172283,4.20628,9.1334,0.0732253,-0.14668,0.0131332,0
2024-12-13 15:40:28.605,0.172283,4.20628,9.1334,0.0732253,-0.14668,0.0131332,0
2024-12-13 15:40:28.605,0.172283,4.20628,9.1334,0.0732253,-0.14668,0.0131332,0
2024-12-13 15:40:28.605,0.172283,4.20628,9.1334,0.0732253,-0.14668,0.0131332,0
2024-12-13 15:40:28.605,0.172283,4.20628,9.1334,0.0732253,-0.14668,0.0131332,0
2024-12-13 15:40:28.605,0.172283,4.20628,9.1334,0.0732253,-0.14668,0.0131332,0
2024-12-13 15:40:28.605,0.172283,4.20628,9.1334,0.0732253,-0.14668,0.0131332,0
2024-12-13 15:40:28.605,0.172283,4.20628,9.1334,0.0732253,-0.14668,0.0131332,0
2024-12-13 15:40:28.605,0.172283,4.20628,9.1334,0.0732253,-0.14668,0.0131332,0
2024-12-13 15:40:28.605,0.172283,4.20628,9.1334,0.0732253,-0.14668,0.0131332,0
2024-12-13 15:40:28.605,0.172283,4.20628,9.1334,0.0732253,-0.14668,0.0131332,0
2024-12-13 15:40:28.605,0.172283,4.20628,9.1334,0.0732253,-0.14668,0.0131332,0
2024-12-13 15:40:28.605,0.172283,4.20628,9.1334,0.0732253,-0.14668,0.0131332,0
2024-12-13 15:40:28.605,0.172283,4.20628,9.1334,0.0732253,-0.14668,0.0131332,0
2024-12-13 15:40:28.605,0.172283,4.20628,9.1334,0.0732253,-0.14668,0.0131332,0
2024-12-13 15:40:28.605,0.172283,4.20628,9.1334,0.0732253,-0.14668,0.0131332,0
2024-12-13 15:40:28.605,0.172283,4.20628,9.1334,0.0732253,-0.14668,0.0131332,0
2024-12-13 15:40:28.605,0.172283,4.20628,9.1334,0.0732253,-0.14668,0.0131332,0
2024-12-13 15:40:28.605,0.172283,4.20628,9.1334,0.0732253,-0.14668,0.0131332,0
2024-12-13 15:40:28.605,0.172283,4.20628,9.1334,0.0732253,-0.14668,0.0131332,0
2024-12-13 15:40:28.605,0.172283,4.20628,9.1334,0.0732253,-0.14668,0.0131332,0
2024-12-13 15:40:28.605,0.172283,4.20628,9.1334,0.0732253,-0.14668,0.0131332,0
2024-12-13 15:40:28.605,0.172283,4.20628,9.1334,0.0732253,-0.14668,0.0131332,0
2024-12-13 15:40:28.605,0.172283,4.20628,9.1334,0.0732253,-0.14668,0.0131332,0
2024-12-13 15:40:28.605,0.172283,4.20628,9.1334,0.0732253,-0.14668,0.0131332,0
2024-12-13 15:40:28.605,0.172283,4.20628,9.1334,0.0732253,-0.14668,0.0131332,0
2024-12-13 15:40:28.605,0.172283,4.20628,9.1334,0.0732253,-0.14668,0.0131332,0
2024-12-13 15:40:28.605,0.172283,4.20628,9.1334,0.0732253,-0.14668,0.0131332,0
2024-12-13 15:40:28.605,0.172283,4.20628,9.1334,0.0732253,-0.14668,0.0131332,0
2024-12-13 15:40:28.605,0.172283,4.20628,9.1334,0.0732253,-0.14668,0.0131332,0
2024-12-13 15:40:28.605,0.172283,4.20628,9.1334,0.0732253,-0.14668,0.0131332,0
2024-12-13 15:40:28.605,0.172283,4.20628,9.1334,0.0732253,-0.14668,0.0131332,0
2024-12-13 15:40:28.605,0.172283,4.20628,9.1334,0.0732253,-0.14668,0.0131332,0
2024-12-13 15:40:28.605,0.172283,4.20628,9.1334,0.0732253,-0.14668,0.0131332,0
2024-12-13 15:40:28.605,0.172283,4.20628,9.1334,0.0732253,-0.14668,0.0131332,0
2024-12-13 15:40:28.605,0.172283,4.20628,9.1334,0.0732253,-0.14668,0.0131332,0
2024-12-13 15:40:28.605,0.172283,4.20628,9.1334,0.0732253,-0.14668,0.0131332,0
2024-12-13 15:40:28.605,0.172283,4.20628,9.1334,0.0732253,-0.14668,0.0131332,0
2024-12-13 15:40:28.605,0.172283,4.20628,9.1334,0.0732253,-0.14668,0.0131332,0
2024-12-13 15:40:28.605,0.172283,4.20628,9.1334,0.0732253,-0.14668,0.0131332,0
2024-12-13 15:40:28.605,0.172283,4.20628,9.1334,0.0732253,-0.14668,0.0131332,0
2024-12-13 15:40:28.605,0.172283,4.20628,9.1334,0.0732253,-0.14668,0.0131332,0
2024-12-13 15:40:28.605,0.172283,4.20628,9.1334,0.0732253,-0.14668,0.0131332,0
2024-12-13 15:40:28.605,0.172283,4.20628,9.1334,0.0732253,-0.14668,0.0131332,0
2024-12-13 15:40:28.605,0.172283,4.20628,9.1334,0.0732253,-0.14668,0.0131332,0
2024-12-13 15:40:28.605,0.172283,4.20628,9.1334,0.0732253,-0.14668,0.0131332,0
2024-12-13 15:40:28.605,0.172283,4.20628,9.1334,0.0732253,-0.14668,0.0131332,0
2024-12-13 15:40:28.605,0.172283,4.20628,9.1334,0.0732253,-0.14668,0.0131332,0
2024-12-13 15:40:28.607,0.172283,4.18953,9.11187,0.0732253,-0.14668,0.0131332,0
2024-12-13 15:40:28.623,0.313759,4.15843,9.08555,0.082388,-0.0593285,0.0235176,0
2024-12-13 15:40:28.623,0.313759,4.15843,9.08555,0.082388,-0.0593285,0.0235176,0
2024-12-13 15:40:28.623,0.313759,4.15843,9.08555,0.082388,-0.0593285,0.0235176,0
2024-12-13 15:40:28.623,0.313759,4.15843,9.08555,0.082388,-0.0593285,0.0235176,0
2024-12-13 15:40:28.623,0.313759,4.15843,9.08555,0.082388,-0.0593285,0.0235176,0
2024-12-13 15:40:28.623,0.313759,4.15843,9.08555,0.082388,-0.0593285,0.0235176,0
2024-12-13 15:40:28.623,0.313759,4.15843,9.08555,0.082388,-0.0593285,0.0235176,0
2024-12-13 15:40:28.628,0.337687,4.14168,9.07358,0.0848314,-0.0318404,0.0265719,0
2024-12-13 15:40:28.628,0.337687,4.14168,9.07358,0.0848314,-0.0318404,0.0265719,0
2024-12-13 15:40:28.628,0.337687,4.14168,9.07358,0.0848314,-0.0318404,0.0265719,0
2024-12-13 15:40:28.628,0.337687,4.14168,9.07358,0.0848314,-0.0318404,0.0265719,0
2024-12-13 15:40:28.631,0.335294,4.14646,9.05923,0.0842206,-0.0184018,0.0308478,0
2024-12-13 15:40:28.631,0.335294,4.14646,9.05923,0.0842206,-0.0184018,0.0308478,0
2024-12-13 15:40:28.631,0.335294,4.14646,9.05923,0.0842206,-0.0184018,0.0308478,0
2024-12-13 15:40:28.631,0.335294,4.14646,9.05923,0.0842206,-0.0184018,0.0308478,0
2024-12-13 15:40:28.631,0.335294,4.14646,9.05923,0.0842206,-0.0184018,0.0308478,0
2024-12-13 15:40:28.631,0.335294,4.14646,9.05923,0.0842206,-0.0184018,0.0308478,0
2024-12-13 15:40:28.633,0.337687,4.14407,9.04965,0.0854423,-0.00496313,0.0320695,0
2024-12-13 15:40:28.633,0.337687,4.14407,9.04965,0.0854423,-0.00496313,0.0320695,0
2024-12-13 15:40:28.633,0.337687,4.14407,9.04965,0.0854423,-0.00496313,0.0320695,0
2024-12-13 15:40:28.633,0.337687,4.14407,9.04965,0.0854423,-0.00496313,0.0320695,0
2024-12-13 15:40:28.635,0.335294,4.14646,9.03291,0.0872748,0.00847551,0.033902,0
2024-12-13 15:40:28.635,0.335294,4.14646,9.03291,0.0872748,0.00847551,0.033902,0
2024-12-13 15:40:28.635,0.335294,4.14646,9.03291,0.0872748,0.00847551,0.033902,0
2024-12-13 15:40:28.635,0.335294,4.14646,9.03291,0.0872748,0.00847551,0.033902,0
2024-12-13 15:40:28.638,0.330509,4.15364,8.99462,0.0872748,0.022525,0.0363454,0
2024-12-13 15:40:28.640,0.313759,4.17278,8.95155,0.0909399,0.0347419,0.0424539,0
2024-12-13 15:40:28.642,0.289831,4.18235,8.91805,0.0909399,0.0451263,0.046119,0
2024-12-13 15:40:28.645,0.263211,4.18235,8.88694,0.0909399,0.0451263,0.046119,0
2024-12-13 15:40:28.649,0.222533,4.2353,8.79841,0.0884965,0.0646735,0.0565034,0
2024-12-13 15:40:28.649,0.222533,4.2353,8.79841,0.0884965,0.0646735,0.0565034,0
2024-12-13 15:40:28.652,0.212961,4.2664,8.75294,0.0860531,0.0658951,0.0589468,0
2024-12-13 15:40:28.654,0.193819,4.31426,8.71705,0.0848314,0.0628409,0.0607793,0
2024-12-13 15:40:28.656,0.177069,4.35254,8.67847,0.0799446,0.0603975,0.062001,0
2024-12-13 15:40:28.659,0.184247,4.37169,8.64018,0.0762796,0.0555107,0.0668878,0
2024-12-13 15:40:28.661,0.174676,4.39322,8.61147,0.0732253,0.0500131,0.0674986,0
2024-12-13 15:40:28.663,0.157926,4.42433,8.59951,0.066506,0.0420721,0.0674986,0
2024-12-13 15:40:28.666,0.138784,4.44826,8.59472,0.0610084,0.0329094,0.0674986,0
2024-12-13 15:40:28.668,0.114855,4.47219,8.58036,0.0524565,0.0231358,0.0674986,0
2024-12-13 15:40:28.671,0.105284,4.48654,8.5684,0.0475697,0.014584,0.0650552,0
2024-12-13 15:40:28.673,0.100499,4.49611,8.56122,0.0402396,0.00358873,0.0656661,0
2024-12-13 15:40:28.675,0.0885344,4.5009,8.57079,0.0329094,-0.00984991,0.0656661,0
2024-12-13 15:40:28.678,0.0765703,4.49851,8.59711,0.0255792,-0.0177909,0.0644444,0
2024-12-13 15:40:28.680,0.0693919,4.49851,8.62822,0.0164165,-0.0287862,0.0632227,0
2024-12-13 15:40:28.682,0.0789631,4.49611,8.64975,0.00908635,-0.0367272,0.062001,0
2024-12-13 15:40:28.687,0.102891,4.49133,8.68804,-7.63559e-05,-0.041614,0.0613902,0
2024-12-13 15:40:28.687,0.112463,4.48176,8.72423,-7.63559e-05,-0.041614,0.0613902,0
2024-12-13 15:40:28.692,0.160319,4.42672,8.79362,-0.021456,-0.0519984,0.0571142,0
2024-12-13 15:40:28.694,0.177069,4.40758,8.83669,-0.0275645,-0.0483333,0.0558925,0
2024-12-13 15:40:28.699,0.215354,4.38844,8.97069,-0.0397814,-0.0446682,0.0534491,0
2024-12-13 15:40:28.700,0.215354,4.38844,8.97069,-0.0434465,-0.0403923,0.0522274,0
2024-12-13 15:40:28.701,0.229711,4.35015,9.0353,-0.0434465,-0.0403923,0.0522274,0
2024-12-13 15:40:28.701,0.229711,4.35015,9.0353,-0.0434465,-0.0403923,0.0522274,0
2024-12-13 15:40:28.704,0.251246,4.32144,9.08555,-0.0501658,-0.0348946,0.0534491,0
2024-12-13 15:40:28.706,0.260818,4.3023,9.14297,-0.0477224,-0.0281753,0.0503949,0
2024-12-13 15:40:28.711,0.282652,4.25683,9.25544,-0.0471116,-0.0110716,0.0503949,0
2024-12-13 15:40:28.711,0.282652,4.25683,9.25544,-0.0471116,-0.0110716,0.0503949,0
2024-12-13 15:40:28.713,0.282652,4.25683,9.28445,-0.0471116,-0.00129805,0.0510057,0
2024-12-13 15:40:28.715,0.27996,4.25444,9.33231,-0.0483333,0.00664296,0.0503949,0
2024-12-13 15:40:28.718,0.289831,4.2329,9.37059,-0.0440574,0.0121406,0.0516166,0
2024-12-13 15:40:28.720,0.292223,4.21855,9.4017,-0.0428357,0.0219141,0.0497841,0
2024-12-13 15:40:28.722,0.282652,4.2015,9.43041,-0.0397814,0.0255792,0.0485624,0
2024-12-13 15:40:28.725,0.270389,4.1991,9.43759,-0.0403923,0.0316877,0.0497841,0
2024-12-13 15:40:28.727,0.256032,4.18714,9.43759,-0.0367272,0.0359636,0.0503949,0
2024-12-13 15:40:28.729,0.241675,4.17039,9.44716,-0.0367272,0.038407,0.0503949,0
2024-12-13 15:40:28.732,0.222533,4.17757,9.47348,-0.0391706,0.0396287,0.0510057,0
2024-12-13 15:40:28.734,0.198604,4.18714,9.49263,-0.0367272,0.0414613,0.0516166,0
2024-12-13 15:40:28.736,0.174676,4.18475,9.49263,-0.037338,0.0445155,0.0516166,0
2024-12-13 15:40:28.739,0.136391,4.17039,9.49981,-0.037338,0.0487914,0.0528383,0
2024-12-13 15:40:28.741,0.107677,4.15843,9.51416,-0.0367272,0.0512348,0.05406,0
2024-12-13 15:40:28.744,0.0861416,4.16561,9.50938,-0.0342838,0.0561216,0.0534491,0
2024-12-13 15:40:28.746,0.0622134,4.18235,9.51177,-0.0348946,0.058565,0.0534491,0
2024-12-13 15:40:28.748,0.0526421,4.18714,9.53091,-0.0312296,0.0573433,0.0546708,0
2024-12-13 15:40:28.751,0.040678,4.19193,9.55484,-0.029397,0.058565,0.05406,0
2024-12-13 15:40:28.753,0.00957129,4.19432,9.55484,-0.0251211,0.0603975,0.0522274,0
2024-12-13 15:40:28.755,-0.00478565,4.19671,9.55723,-0.0220669,0.0561216,0.0503949,0
2024-12-13 15:40:28.758,-0.00239282,4.21137,9.55484,-0.013515,0.0542891,0.0497841,0
2024-12-13 15:40:28.760,-0.0191426,4.21855,9.54288,-0.00740652,0.0500131,0.0479515,0
2024-12-13 15:40:28.762,-0.0215354,4.24726,9.52373,-0.00129805,0.0451263,0.0442864,0
2024-12-13 15:40:28.765,-0.0311067,4.27837,9.48784,0.00603212,0.042683,0.0430647,0
2024-12-13 15:40:28.767,-0.0454636,4.28076,9.44956,0.0139731,0.0371853,0.0393996,0
2024-12-13 15:40:28.769,-0.0502493,4.29512,9.41127,0.022525,0.0316877,0.0351237,0
2024-12-13 15:40:28.772,-0.0693919,4.32383,9.37299,0.030466,0.0249684,0.0308478,0
2024-12-13 15:40:28.774,-0.0909273,4.34297,9.32992,0.0377962,0.0176382,0.0290152,0
2024-12-13 15:40:28.777,-0.0909273,4.36212,9.28445,0.0439046,0.0115297,0.0265719,0
2024-12-13 15:40:28.779,-0.0885344,4.36929,9.24108,0.0487914,0.00419957,0.0229068,0
2024-12-13 15:40:28.781,-0.0909273,4.3669,9.18844,0.0512348,-0.00557398,0.0198525,0
2024-12-13 15:40:28.784,-0.102891,4.38365,9.1334,0.0548999,-0.00984991,0.0174091,0
2024-12-13 15:40:28.786,-0.0933201,4.39562,9.08555,0.0567324,-0.0159584,0.0131332,0
2024-12-13 15:40:28.788,-0.066999,4.39801,9.04487,0.0579541,-0.0245102,0.0106898,0
2024-12-13 15:40:28.791,-0.0598206,4.41236,9.00419,0.0567324,-0.0300079,0.00824644,0
2024-12-13 15:40:28.793,-0.0550349,4.40997,8.95394,0.0542891,-0.0342838,0.00580305,0
2024-12-13 15:40:28.795,-0.0454636,4.40519,8.92762,0.0469589,-0.0361163,0.00274881,0
2024-12-13 15:40:28.798,-0.0382852,4.39562,8.91566,0.0469589,-0.0361163,0.00274881,0
2024-12-13 15:40:28.800,-0.0334995,4.38365,8.90609,0.0335202,-0.037338,0.00458135,0
2024-12-13 15:40:28.802,-0.0215354,4.37408,8.90369,0.0237467,-0.0379489,0.00458135,0
2024-12-13 15:40:28.805,-0.0119641,4.3669,8.9013,0.0182491,-0.0348946,0.00213797,0
2024-12-13 15:40:28.807,0.00239282,4.35494,8.92523,0.0109189,-0.0306187,0.00580305,0
2024-12-13 15:40:28.810,0.026321,4.34058,8.96351,0.00419957,-0.0238994,0.00763559,0
2024-12-13 15:40:28.812,0.0478565,4.32862,8.99941,-0.00557398,-0.0177909,0.00946813,0
2024-12-13 15:40:28.814,0.066999,4.30947,9.03291,-0.00862822,-0.0116825,0.0125224,0
2024-12-13 15:40:28.817,0.0885344,4.29033,9.07837,-0.0141258,-0.00313059,0.0155766,0
2024-12-13 15:40:28.819,0.122034,4.26401,9.11665,-0.0202343,0.00725381,0.01802,0
2024-12-13 15:40:28.821,0.145962,4.25205,9.15015,-0.021456,0.0182491,0.0204634,0
2024-12-13 15:40:28.824,0.160319,4.2329,9.18605,-0.0269536,0.0268009,0.0235176,0
2024-12-13 15:40:28.826,0.167498,4.21855,9.20997,-0.0238994,0.0377962,0.0253502,0
2024-12-13 15:40:28.828,0.16989,4.21855,9.22672,-0.0226777,0.0475697,0.0253502,0
2024-12-13 15:40:28.831,0.16989,4.19432,9.2339,-0.0196235,0.0567324,0.0277936,0
2024-12-13 15:40:28.833,0.162712,4.17757,9.2363,-0.0171801,0.0646735,0.0302369,0
2024-12-13 15:40:28.835,0.153141,4.18475,9.24108,-0.0153475,0.0695602,0.0314586,0
2024-12-13 15:40:28.838,0.145962,4.18235,9.23151,-0.00923906,0.0762796,0.0326803,0
2024-12-13 15:40:28.840,0.112463,4.18953,9.21237,-0.0019089,0.0793338,0.0357346,0
2024-12-13 15:40:28.842,0.0981057,4.1991,9.19322,0.00419957,0.0811663,0.0369563,0
2024-12-13 15:40:28.845,0.0885344,4.2015,9.17887,0.010308,0.0842206,0.0375671,0
2024-12-13 15:40:28.847,0.066999,4.20389,9.15255,0.0170274,0.0848314,0.0375671,0
2024-12-13 15:40:28.850,0.0454636,4.21855,9.10708,0.0219141,0.0829989,0.0406213,0
2024-12-13 15:40:28.852,0.0311067,4.23769,9.04726,0.0280226,0.0805555,0.0412322,0
2024-12-13 15:40:28.854,0.0191426,4.2329,8.99941,0.0347419,0.0781121,0.0412322,0
2024-12-13 15:40:28.857,0.0,4.2353,8.95634,0.0396287,0.0726145,0.0436756,0
2024-12-13 15:40:28.859,-0.0191426,4.24247,8.89891,0.0439046,0.0689494,0.0455081,0
2024-12-13 15:40:28.864,-0.0598206,4.24487,8.73141,0.0494023,0.0567324,0.046119,0
2024-12-13 15:40:28.864,-0.0598206,4.24487,8.73141,0.0494023,0.0567324,0.046119,0
2024-12-13 15:40:28.866,-0.0646062,4.24247,8.65933,0.0530674,0.0512348,0.0485624,0
2024-12-13 15:40:28.871,-0.114855,4.2329,8.48226,0.0536782,0.042683,0.0497841,0
2024-12-13 15:40:28.871,-0.114855,4.2329,8.48226,0.0536782,0.042683,0.0497841,0
2024-12-13 15:40:28.873,-0.11007,4.22094,8.40569,0.0518457,0.0316877,0.0503949,0
2024-12-13 15:40:28.875,-0.114855,4.21615,8.33869,0.046348,0.0243575,0.0528383,0
2024-12-13 15:40:28.878,-0.131605,4.21376,8.26451,0.0408504,0.0182491,0.0528383,0
2024-12-13 15:40:28.880,-0.155533,4.21376,8.20708,0.0353528,0.0151948,0.0546708,0
2024-12-13 15:40:28.883,-0.193819,4.19432,8.14008,0.0274118,0.0121406,0.0565034,0
2024-12-13 15:40:28.885,-0.22014,4.16082,8.08953,0.0182491,0.0127514,0.0589468,0
2024-12-13 15:40:28.887,-0.244068,4.15843,8.04886,0.00847551,0.0158057,0.062001,0
2024-12-13 15:40:28.890,-0.260818,4.15603,8.02493,-0.00251974,0.0188599,0.0681095,0
2024-12-13 15:40:28.892,-0.265603,4.13211,8.01775,-0.0129041,0.0231358,0.0717745,0
2024-12-13 15:40:28.894,-0.260818,4.101,8.00579,-0.0251211,0.0335202,0.0748288,0
2024-12-13 15:40:28.897,-0.267996,4.07707,7.99861,-0.0342838,0.0402396,0.0803264,0
2024-12-13 15:40:28.899,-0.270389,4.06271,8.00579,-0.0446682,0.0494023,0.0846023,0
2024-12-13 15:40:28.901,-0.256032,4.05075,8.00818,-0.0526092,0.0616192,0.0901,0
2024-12-13 15:40:28.906,-0.248854,4.05554,7.98904,-0.0764323,0.0854423,0.0986518,0
2024-12-13 15:40:28.906,-0.241675,4.05314,7.98904,-0.0764323,0.0854423,0.0986518,0
2024-12-13 15:40:28.908,-0.241675,4.06032,8.00339,-0.0837624,0.0964375,0.103539,0
2024-12-13 15:40:28.911,-0.239282,4.07468,7.99861,-0.0917034,0.107433,0.105371,0
2024-12-13 15:40:28.913,-0.275175,4.08664,8.00818,-0.0996445,0.118428,0.108425,0
2024-12-13 15:40:28.915,-0.316152,4.09382,8.02971,-0.107585,0.131256,0.109647,0
2024-12-13 15:40:28.918,-0.337687,4.08664,8.04168,-0.113083,0.138586,0.11209,0
2024-12-13 15:40:28.920,-0.368794,4.07229,8.06321,-0.116137,0.150192,0.113312,0
2024-12-13 15:40:28.923,-0.397508,4.0675,8.08236,-0.121635,0.159966,0.114534,0
2024-12-13 15:40:28.925,-0.438186,4.07707,8.10389,-0.124689,0.167296,0.115756,0
2024-12-13 15:40:28.927,-0.481256,4.07707,8.12303,-0.1253,0.174015,0.116977,0
2024-12-13 15:40:28.930,-0.529113,4.08186,8.13261,-0.127133,0.182567,0.11881,0
2024-12-13 15:40:28.932,-0.581755,4.09382,8.13021,-0.129576,0.189286,0.121253,0
2024-12-13 15:40:28.934,-0.627219,4.08903,8.13021,-0.128354,0.199671,0.121864,0
2024-12-13 15:40:28.937,-0.670289,4.10578,8.12782,-0.130798,0.207001,0.121864,0
2024-12-13 15:40:28.939,-0.701396,4.13689,8.10629,-0.130798,0.215553,0.123086,0
2024-12-13 15:40:28.941,-0.74686,4.13928,8.07039,-0.13263,0.222883,0.123697,0
2024-12-13 15:40:28.944,-0.794716,4.12014,8.02493,-0.133852,0.233267,0.124307,0
2024-12-13 15:40:28.946,-0.828216,4.12732,7.96032,-0.13935,0.241819,0.123697,0
2024-12-13 15:40:28.948,-0.8668,4.14168,7.91007,-0.143625,0.251593,0.124307,0
2024-12-13 15:40:28.951,-0.907478,4.14407,7.87418,-0.149123,0.262588,0.124307,0
2024-12-13 15:40:28.953,-0.931406,4.16321,7.81675,-0.157064,0.270529,0.124307,0
2024-12-13 15:40:28.956,-0.96012,4.19671,7.75933,-0.165005,0.276027,0.124307,0
2024-12-13 15:40:28.958,-0.986441,4.22812,7.69233,-0.176,0.279692,0.123697,0
2024-12-13 15:40:28.960,-1.01037,4.26162,7.63251,-0.191882,0.279081,0.120031,0
2024-12-13 15:40:28.963,-1.04387,4.28555,7.58704,-0.205321,0.279081,0.116977,0
2024-12-13 15:40:28.965,-1.08455,4.30947,7.54128,-0.227922,0.277859,0.112701,0
2024-12-13 15:40:28.967,-1.11805,4.35015,7.52692,-0.246859,0.277859,0.109647,0
2024-12-13 15:40:28.970,-1.13958,4.38844,7.51496,-0.268238,0.276637,0.105982,0
2024-12-13 15:40:28.972,-1.16112,4.41236,7.51974,-0.292672,0.275416,0.0998735,0
2024-12-13 15:40:28.974,-1.1659,4.44586,7.56521,-0.317106,0.271751,0.0992627,0
2024-12-13 15:40:28.977,-1.18026,4.47458,7.61815,-0.340929,0.26381,0.0931542,0
2024-12-13 15:40:28.979,-1.20658,4.48894,7.68276,-0.365363,0.254647,0.0901,0
2024-12-13 15:40:28.981,-1.21376,4.5009,7.76411,-0.389797,0.244263,0.0864349,0
2024-12-13 15:40:28.984,-1.21376,4.47936,7.85743,-0.411787,0.234489,0.0839915,0
2024-12-13 15:40:28.986,-1.2018,4.47936,7.95314,-0.43561,0.227159,0.0784939,0
2024-12-13 15:40:28.989,-1.17547,4.49851,8.07279,-0.455158,0.217996,0.0748288,0
2024-12-13 15:40:28.991,-1.16112,4.49133,8.22144,-0.474094,0.212498,0.0711637,0
2024-12-13 15:40:28.998,-1.16351,4.46261,8.65454,-0.51441,0.207001,0.0601685,0
2024-12-13 15:40:29.000,-1.16112,4.45065,8.81755,-0.520518,0.207001,0.0583359,0
2024-12-13 15:40:29.000,-1.16112,4.45065,8.81755,-0.520518,0.207001,0.0583359,0
2024-12-13 15:40:29.000,-1.16112,4.45065,8.81755,-0.520518,0.207001,0.0583359,0
2024-12-13 15:40:29.003,-1.15155,4.42911,8.95634,-0.528459,0.210666,0.0558925,0
2024-12-13 15:40:29.005,-1.14197,4.41236,9.09033,-0.529681,0.216774,0.05406,0
2024-12-13 15:40:29.007,-1.1324,4.40279,9.21715,-0.527848,0.22105,0.0534491,0
2024-12-13 15:40:29.010,-1.11326,4.40279,9.32752,-0.526016,0.228381,0.0546708,0
2024-12-13 15:40:29.012,-1.07976,4.40997,9.43281,-0.524794,0.231435,0.0558925,0
2024-12-13 15:40:29.014,-1.0343,4.41715,9.51177,-0.521129,0.236932,0.0565034,0
2024-12-13 15:40:29.017,-1.0008,4.42672,9.57877,-0.517464,0.239987,0.0565034,0
2024-12-13 15:40:29.019,-0.972084,4.47697,9.63859,-0.513188,0.245484,0.0571142,0
2024-12-13 15:40:29.021,-0.933799,4.52722,9.68645,-0.510745,0.247928,0.0565034,0
2024-12-13 15:40:29.024,-0.912264,4.55354,9.71277,-0.509523,0.250371,0.0589468,0
2024-12-13 15:40:29.029,-0.85005,4.62054,9.74387,-0.501582,0.250982,0.0626118,0
2024-12-13 15:40:29.029,-0.85005,4.62054,9.74387,-0.501582,0.250982,0.0626118,0
2024-12-13 15:40:29.031,-0.821037,4.63968,9.76062,-0.501582,0.250371,0.0644444,0
2024-12-13 15:40:29.033,-0.789931,4.6325,9.75823,-0.502804,0.244873,0.0656661,0
2024-12-13 15:40:29.038,-0.665504,4.64208,9.77498,-0.50036,0.227159,0.0662769,0
2024-12-13 15:40:29.038,-0.665504,4.64208,9.77498,-0.50036,0.227159,0.0662769,0
2024-12-13 15:40:29.040,-0.605683,4.62054,9.77977,-0.50036,0.227159,0.0662769,0
2024-12-13 15:40:29.043,-0.529113,4.60379,9.77737,-0.503415,0.201503,0.0626118,0
2024-12-13 15:40:29.045,-0.462114,4.60618,9.77259,-0.506469,0.181956,0.0583359,0
2024-12-13 15:40:29.047,-0.397508,4.62054,9.77737,-0.506469,0.16302,0.0558925,0
2024-12-13 15:40:29.052,-0.260818,4.62772,9.78216,-0.513799,0.120871,0.0455081,0
2024-12-13 15:40:29.052,-0.260818,4.62772,9.78216,-0.513799,0.120871,0.0455081,0
2024-12-13 15:40:29.054,-0.200997,4.63729,9.79173,-0.518075,0.0964375,0.038178,0
2024-12-13 15:40:29.057,-0.141177,4.62533,9.80848,-0.522962,0.0738362,0.0320695,0
2024-12-13 15:40:29.059,-0.0861416,4.62054,9.84228,-0.527848,0.050624,0.0271827,0
2024-12-13 15:40:29.062,-0.0311067,4.61336,9.84946,-0.530903,0.0268009,0.0192417,0
2024-12-13 15:40:29.064,0.0239282,4.6014,9.84946,-0.532124,0.00603212,0.0131332,0
2024-12-13 15:40:29.066,0.0837488,4.57747,9.87099,-0.537011,-0.013515,0.0051922,0
2024-12-13 15:40:29.071,0.20339,4.49372,9.93081,-0.540065,-0.0471116,-0.0113007,0
2024-12-13 15:40:29.071,0.20339,4.49372,9.93081,-0.540065,-0.0471116,-0.0113007,0
2024-12-13 15:40:29.073,0.272782,4.46261,9.95474,-0.540676,-0.0611611,-0.0210742,0
2024-12-13 15:40:29.076,0.318545,4.43151,9.98106,-0.537622,-0.0739889,-0.0290152,0
2024-12-13 15:40:29.078,0.354437,4.39801,10.0002,-0.533957,-0.0794865,-0.0387888,0
2024-12-13 15:40:29.080,0.409472,4.3669,10.0193,-0.529681,-0.0807082,-0.0467298,0
2024-12-13 15:40:29.083,0.474078,4.3334,10.0481,-0.522351,-0.0794865,-0.0558925,0
2024-12-13 15:40:29.085,0.541077,4.3023,10.0552,-0.51441,-0.0758214,-0.0656661,0
2024-12-13 15:40:29.087,0.593719,4.28315,10.0505,-0.505858,-0.0739889,-0.0748288,0
2024-12-13 15:40:29.090,0.648754,4.27358,10.0385,-0.497917,-0.0727672,-0.0839915,0
2024-12-13 15:40:29.092,0.703789,4.2688,10.0409,-0.485089,-0.0660479,-0.0937651,0
2024-12-13 15:40:29.094,0.744467,4.2688,10.0361,-0.472261,-0.0593285,-0.10476,0
2024-12-13 15:40:29.097,0.792323,4.26401,10.0074,-0.460044,-0.0513875,-0.114534,0
2024-12-13 15:40:29.099,0.837787,4.26162,9.98824,-0.445384,-0.0397814,-0.121864,0
2024-12-13 15:40:29.104,0.878764,4.24487,9.92842,-0.412398,-0.0122933,-0.141411,0
2024-12-13 15:40:29.104,0.921835,4.24487,9.92842,-0.412398,-0.0122933,-0.141411,0
2024-12-13 15:40:29.106,0.969691,4.25205,9.88774,-0.394684,0.00542127,-0.151796,0
2024-12-13 15:40:29.109,0.998405,4.26162,9.83749,-0.37758,0.0237467,-0.160347,0
2024-12-13 15:40:29.111,0.99362,4.25205,9.79652,-0.359255,0.0420721,-0.168899,0
2024-12-13 15:40:29.113,0.888335,4.19193,9.78216,-0.340318,0.0622301,-0.175008,0
2024-12-13 15:40:29.116,0.768395,4.13689,9.7343,-0.321382,0.0842206,-0.17684,0
2024-12-13 15:40:29.118,0.725324,4.11536,9.65055,-0.301224,0.102546,-0.178673,0
2024-12-13 15:40:29.120,0.708575,4.09382,9.57398,-0.282899,0.115985,-0.177451,0
2024-12-13 15:40:29.123,0.675075,4.08664,9.51416,-0.268238,0.123926,-0.178673,0
2024-12-13 15:40:29.125,0.634397,4.08903,9.42084,-0.252967,0.130645,-0.17684,0
2024-12-13 15:40:29.127,0.615255,4.12253,9.31077,-0.238307,0.13431,-0.175619,0
2024-12-13 15:40:29.130,0.593719,4.15843,9.21715,-0.226701,0.134921,-0.174397,0
2024-12-13 15:40:29.132,0.588933,4.18475,9.11905,-0.215095,0.135532,-0.173786,0
2024-12-13 15:40:29.135,0.598505,4.22094,9.0353,-0.206543,0.137364,-0.175008,0
2024-12-13 15:40:29.137,0.62004,4.26401,8.95155,-0.200434,0.138586,-0.176229,0
2024-12-13 15:40:29.139,0.648754,4.29512,8.87259,-0.196158,0.137975,-0.182338,0
2024-12-13 15:40:29.142,0.677468,4.31426,8.78884,-0.193715,0.138586,-0.186614,0
2024-12-13 15:40:29.146,0.727717,4.38365,8.61147,-0.192493,0.139197,-0.202496,0
2024-12-13 15:40:29.149,0.770788,4.41715,8.54447,-0.195547,0.13431,-0.212269,0
2024-12-13 15:40:29.149,0.770788,4.41715,8.54447,-0.195547,0.13431,-0.212269,0
2024-12-13 15:40:29.151,0.804287,4.43869,8.51815,-0.198602,0.132477,-0.222654,0
2024-12-13 15:40:29.153,0.835394,4.47219,8.5014,-0.202878,0.129423,-0.23426,0
2024-12-13 15:40:29.156,0.902692,4.52483,8.48944,-0.208986,0.122704,-0.248309,0
2024-12-13 15:40:29.158,0.933799,4.53679,8.47986,-0.212651,0.114763,-0.264802,0
2024-12-13 15:40:29.160,0.881157,4.51765,8.49422,-0.217538,0.111098,-0.279463,0
2024-12-13 15:40:29.163,0.751645,4.46501,8.52054,-0.221814,0.108044,-0.29168,0
2024-12-13 15:40:29.165,0.56022,4.39801,8.55165,-0.22609,0.109876,-0.300842,0
2024-12-13 15:40:29.167,0.380758,4.31905,8.58515,-0.22609,0.109876,-0.300842,0
2024-12-13 15:40:29.170,0.229711,4.20628,8.59472,-0.230366,0.116595,-0.303897,0
2024-12-13 15:40:29.172,0.0957129,4.11296,8.57558,-0.23342,0.120871,-0.300842,0
2024-12-13 15:40:29.175,-0.0215354,4.05075,8.56601,-0.235253,0.124536,-0.29168,0
2024-12-13 15:40:29.179,-0.198604,3.95504,8.5684,-0.242583,0.129423,-0.269689,0
2024-12-13 15:40:29.179,-0.198604,3.95504,8.5684,-0.242583,0.129423,-0.269689,0
2024-12-13 15:40:29.182,-0.265603,3.91436,8.54686,-0.246248,0.130034,-0.25564,0
2024-12-13 15:40:29.184,-0.318545,3.9,8.53969,-0.249302,0.131256,-0.243423,0
2024-12-13 15:40:29.186,-0.354437,3.91197,8.55165,-0.251135,0.13431,-0.228762,0
2024-12-13 15:40:29.189,-0.359223,3.92154,8.57318,-0.255411,0.133699,-0.215324,0
2024-12-13 15:40:29.191,-0.354437,3.94068,8.58993,-0.257243,0.134921,-0.203107,0
2024-12-13 15:40:29.193,-0.361615,3.96939,8.6019,-0.256632,0.134921,-0.191501,0
2024-12-13 15:40:29.196,-0.368794,3.99332,8.63061,-0.256021,0.134921,-0.181116,0
2024-12-13 15:40:29.198,-0.359223,4.00529,8.66172,-0.255411,0.134921,-0.173175,0
2024-12-13 15:40:29.203,-0.328116,4.04836,8.72184,-0.249913,0.135532,-0.156071,0
2024-12-13 15:40:29.203,-0.328116,4.04836,8.72184,-0.249913,0.135532,-0.156071,0
2024-12-13 15:40:29.205,-0.320937,4.07229,8.76252,-0.246248,0.131256,-0.150574,0
2024-12-13 15:40:29.208,-0.325723,4.07946,8.77687,-0.24075,0.12698,-0.146298,0
2024-12-13 15:40:29.210,-0.335294,4.10578,8.79841,-0.237085,0.121482,-0.139579,0
2024-12-13 15:40:29.212,-0.349651,4.12732,8.81277,-0.234031,0.111709,-0.134692,0
2024-12-13 15:40:29.215,-0.385544,4.14168,8.81994,-0.229144,0.103157,-0.132859,0
2024-12-13 15:40:29.217,-0.431007,4.17278,8.81516,-0.225479,0.0921616,-0.127362,0
2024-12-13 15:40:29.219,-0.452543,4.19432,8.79362,-0.223646,0.082388,-0.121864,0
2024-12-13 15:40:29.222,-0.478864,4.20389,8.77448,-0.223646,0.0713928,-0.117588,0
2024-12-13 15:40:29.224,-0.50997,4.22094,8.74098,-0.222425,0.0591758,-0.116977,0
2024-12-13 15:40:29.226,-0.550648,4.2353,8.71466,-0.22609,0.0469589,-0.113923,0
2024-12-13 15:40:29.229,-0.56022,4.23769,8.71227,-0.228533,0.0335202,-0.110869,0
2024-12-13 15:40:29.231,-0.569791,4.24726,8.70748,-0.23342,0.0158057,-0.107815,0
2024-12-13 15:40:29.233,-0.588933,4.25205,8.7003,-0.239528,-0.0019089,-0.105982,0
2024-12-13 15:40:29.236,-0.60329,4.24008,8.71705,-0.246248,-0.0226777,-0.104149,0
2024-12-13 15:40:29.241,-0.624826,4.25205,8.79841,-0.261519,-0.0629936,-0.103539,0
2024-12-13 15:40:29.241,-0.624826,4.25205,8.79841,-0.261519,-0.0629936,-0.103539,0
2024-12-13 15:40:29.243,-0.629611,4.25444,8.84148,-0.271293,-0.0831516,-0.0998735,0
2024-12-13 15:40:29.245,-0.632004,4.2353,8.90609,-0.27679,-0.0996445,-0.0962084,0
2024-12-13 15:40:29.248,-0.639183,4.21855,8.98266,-0.285953,-0.115526,-0.0937651,0
2024-12-13 15:40:29.250,-0.624826,4.20389,9.05444,-0.292672,-0.130187,-0.0913217,0
2024-12-13 15:40:29.255,-0.565005,4.17039,9.24826,-0.300002,-0.152177,-0.0894891,0
2024-12-13 15:40:29.255,-0.565005,4.17039,9.24826,-0.300002,-0.152177,-0.0894891,0
2024-12-13 15:40:29.257,-0.54347,4.15364,9.33709,-0.303667,-0.158286,-0.085824,0
2024-12-13 15:40:29.259,-0.524327,4.12732,9.42323,-0.3055,-0.162562,-0.0864349,0
2024-12-13 15:40:29.262,-0.498006,4.101,9.5022,-0.304889,-0.163783,-0.0839915,0
2024-12-13 15:40:29.264,-0.495613,4.06271,9.5668,-0.304889,-0.163173,-0.0839915,0
2024-12-13 15:40:29.266,-0.495613,4.034,9.64098,-0.303057,-0.159507,-0.0833807,0
2024-12-13 15:40:29.269,-0.478864,4.00529,9.71277,-0.300613,-0.157064,-0.0827698,0
2024-12-13 15:40:29.271,-0.471685,3.96939,9.77498,-0.295726,-0.152177,-0.0864349,0
2024-12-13 15:40:29.273,-0.474078,3.95264,9.83988,-0.289618,-0.146069,-0.0846023,0
2024-12-13 15:40:29.276,-0.471685,3.94068,9.89013,-0.282288,-0.138739,-0.0839915,0
2024-12-13 15:40:29.278,-0.469292,3.91914,9.94038,-0.275568,-0.130798,-0.0846023,0
2024-12-13 15:40:29.281,-0.471685,3.91436,9.99063,-0.268238,-0.122246,-0.0852132,0
2024-12-13 15:40:29.283,-0.464507,3.91436,10.0289,-0.259076,-0.113694,-0.0864349,0
2024-12-13 15:40:29.285,-0.464507,3.90718,10.0552,-0.251135,-0.107585,-0.0839915,0
2024-12-13 15:40:29.290,-0.471685,3.94786,10.1055,-0.23342,-0.0917034,-0.0815481,0
2024-12-13 15:40:29.290,-0.471685,3.94786,10.1055,-0.23342,-0.0917034,-0.0815481,0
2024-12-13 15:40:29.292,-0.462114,3.967,10.1127,-0.221814,-0.0874275,-0.0839915,0
2024-12-13 15:40:29.295,-0.438186,3.98854,10.1079,-0.21143,-0.0837624,-0.0833807,0
2024-12-13 15:40:29.299,-0.426222,4.05314,10.1103,-0.190661,-0.0782648,-0.085824,0
2024-12-13 15:40:29.299,-0.426222,4.05314,10.1103,-0.190661,-0.0782648,-0.085824,0
2024-12-13 15:40:29.302,-0.428614,4.08186,10.0935,-0.177222,-0.0770431,-0.0876566,0
2024-12-13 15:40:29.306,-0.409472,4.15364,10.0409,-0.154621,-0.0709346,-0.0937651,0
2024-12-13 15:40:29.306,-0.409472,4.15364,10.0409,-0.154621,-0.0709346,-0.0937651,0
2024-12-13 15:40:29.309,-0.3999,4.17039,10.0217,-0.144847,-0.0666587,-0.0943759,0
2024-12-13 15:40:29.311,-0.3999,4.2015,9.99063,-0.133852,-0.0629936,-0.0968193,0
2024-12-13 15:40:29.316,-0.411865,4.28315,9.90928,-0.115526,-0.0629936,-0.105371,0
2024-12-13 15:40:29.316,-0.411865,4.28315,9.90928,-0.115526,-0.0629936,-0.105371,0
2024-12-13 15:40:29.318,-0.431007,4.31426,9.87338,-0.104531,-0.0623828,-0.107815,0
2024-12-13 15:40:29.321,-0.45015,4.34537,9.82314,-0.0996445,-0.0642153,-0.113923,0
2024-12-13 15:40:29.323,-0.478864,4.36929,9.77498,-0.0929251,-0.0691021,-0.115756,0
2024-12-13 15:40:29.325,-0.507577,4.39562,9.73669,-0.0880384,-0.0715455,-0.118199,0
2024-12-13 15:40:29.328,-0.541077,4.43151,9.71516,-0.0825407,-0.0752106,-0.121253,0
2024-12-13 15:40:29.330,-0.581755,4.44108,9.68884,-0.077654,-0.0758214,-0.122475,0
2024-12-13 15:40:29.332,-0.60329,4.45304,9.6673,-0.0727672,-0.0752106,-0.123086,0
2024-12-13 15:40:29.335,-0.629611,4.47936,9.66012,-0.0672696,-0.0764323,-0.124918,0
2024-12-13 15:40:29.339,-0.689432,4.5009,9.6673,-0.0562743,-0.077654,-0.127972,0
2024-12-13 15:40:29.339,-0.689432,4.5009,9.6673,-0.0562743,-0.077654,-0.127972,0
2024-12-13 15:40:29.342,-0.708575,4.51526,9.67927,-0.0507767,-0.077654,-0.12614,0
2024-12-13 15:40:29.344,-0.715753,4.52722,9.7008,-0.0465007,-0.0837624,-0.124918,0
2024-12-13 15:40:29.346,-0.73011,4.54397,9.72473,-0.041614,-0.0837624,-0.123697,0
2024-12-13 15:40:29.349,-0.751645,4.57508,9.74866,-0.0361163,-0.0862058,-0.122475,0
2024-12-13 15:40:29.351,-0.780359,4.59661,9.79173,-0.0287862,-0.0868167,-0.123086,0
2024-12-13 15:40:29.354,-0.792323,4.63011,9.82314,-0.0202343,-0.0880384,-0.119421,0
2024-12-13 15:40:29.356,-0.801895,4.6684,9.84467,-0.0116825,-0.0886492,-0.116977,0
2024-12-13 15:40:29.358,-0.80668,4.68754,9.87099,-0.00557398,-0.0892601,-0.115756,0
2024-12-13 15:40:29.361,-0.811466,4.70429,9.90688,0.00603212,-0.0886492,-0.114534,0
2024-12-13 15:40:29.363,-0.818644,4.72822,9.91646,0.0164165,-0.0886492,-0.112701,0
2024-12-13 15:40:29.365,-0.837787,4.73779,9.92363,0.0237467,-0.0874275,-0.11209,0
2024-12-13 15:40:29.368,-0.845265,4.75454,9.94038,0.0377962,-0.0862058,-0.113923,0
2024-12-13 15:40:29.370,-0.837787,4.78355,9.95235,0.0494023,-0.0837624,-0.11209,0
2024-12-13 15:40:29.372,-0.837787,4.80269,9.96192,0.0628409,-0.0862058,-0.113923,0
2024-12-13 15:40:29.375,-0.845265,4.82184,9.9691,0.074447,-0.0880384,-0.114534,0
2024-12-13 15:40:29.377,-0.854836,4.85294,9.9691,0.0848314,-0.0910926,-0.116977,0
2024-12-13 15:40:29.379,-0.871586,4.89123,9.95235,0.0952158,-0.0953685,-0.116366,0
2024-12-13 15:40:29.382,-0.88355,4.91516,9.94517,0.106211,-0.0996445,-0.115756,0
2024-12-13 15:40:29.384,-0.895514,4.94148,9.93081,0.113541,-0.10331,-0.115756,0
2024-12-13 15:40:29.387,-0.907478,4.97258,9.89971,0.120261,-0.108196,-0.115145,0
2024-12-13 15:40:29.389,-0.907478,5.00369,9.89731,0.129423,-0.116137,-0.113923,0
2024-12-13 15:40:29.391,-0.914656,5.03719,9.91406,0.134921,-0.121024,-0.113923,0
2024-12-13 15:40:29.396,-0.890728,5.07787,9.89253,0.14164,-0.134463,-0.113312,0
2024-12-13 15:40:29.396,-0.890728,5.07787,9.89253,0.14164,-0.134463,-0.113312,0
2024-12-13 15:40:29.398,-0.871586,5.10658,9.89731,0.143473,-0.144236,-0.109647,0
2024-12-13 15:40:29.401,-0.852443,5.13051,9.9021,0.145916,-0.155232,-0.11209,0
2024-12-13 15:40:29.403,-0.82343,5.14726,9.91167,0.147749,-0.163783,-0.112701,0
2024-12-13 15:40:29.405,-0.787538,5.16401,9.94038,0.150192,-0.171114,-0.11209,0
2024-12-13 15:40:29.408,-0.739681,5.17837,9.94517,0.151414,-0.180276,-0.11209,0
2024-12-13 15:40:29.410,-0.691825,5.19512,9.93081,0.152025,-0.185163,-0.112701,0
2024-12-13 15:40:29.412,-0.646361,5.20708,9.94038,0.152025,-0.188828,-0.115145,0
2024-12-13 15:40:29.415,-0.610469,5.20469,9.95474,0.14836,-0.194326,-0.116366,0
2024-12-13 15:40:29.417,-0.600898,5.2023,9.95474,0.14897,-0.201045,-0.11881,0
2024-12-13 15:40:29.420,-0.565005,5.20947,9.97628,0.146527,-0.206543,-0.123086,0
2024-12-13 15:40:29.422,-0.519542,5.21905,10.0217,0.145916,-0.210819,-0.12614,0
2024-12-13 15:40:29.424,-0.486042,5.22144,10.0744,0.142862,-0.217538,-0.131027,0
2024-12-13 15:40:29.427,-0.445364,5.2358,10.1294,0.139808,-0.223036,-0.134692,0
2024-12-13 15:40:29.429,-0.421436,5.25494,10.1845,0.136143,-0.224868,-0.137135,0
2024-12-13 15:40:29.434,-0.385544,5.25972,10.3543,0.131867,-0.224868,-0.142022,0
2024-12-13 15:40:29.434,-0.385544,5.25972,10.3543,0.131867,-0.224868,-0.142022,0
2024-12-13 15:40:29.436,-0.35683,5.25494,10.4551,0.12698,-0.21876,-0.142633,0
2024-12-13 15:40:29.438,-0.328116,5.24297,10.57,0.127591,-0.21143,-0.145076,0
2024-12-13 15:40:29.441,-0.308973,5.2334,10.704,0.125147,-0.203488,-0.145687,0
2024-12-13 15:40:29.443,-0.304188,5.21905,10.8715,0.12698,-0.193104,-0.146298,0
2024-12-13 15:40:29.445,-0.299402,5.18555,11.0273,0.128812,-0.179055,-0.143244,0
2024-12-13 15:40:29.448,-0.301795,5.17358,11.1852,0.136753,-0.164394,-0.143244,0
2024-12-13 15:40:29.450,-0.30658,5.15683,11.3551,0.142251,-0.148512,-0.143244,0
2024-12-13 15:40:29.452,-0.294616,5.13051,11.4939,0.153857,-0.135684,-0.141411,0
2024-12-13 15:40:29.455,-0.272782,5.12333,11.6186,0.16302,-0.124078,-0.139579,0
2024-12-13 15:40:29.457,-0.251246,5.0994,11.755,0.176459,-0.113694,-0.135303,0
2024-12-13 15:40:29.460,-0.234497,5.07548,11.889,0.191119,-0.10392,-0.135303,0
2024-12-13 15:40:29.462,-0.208176,5.07308,11.9919,0.210055,-0.0953685,-0.13347,0
2024-12-13 15:40:29.464,-0.177069,5.07548,12.0688,0.225326,-0.0904818,-0.13347,0
2024-12-13 15:40:29.467,-0.145962,5.09462,12.1358,0.246095,-0.0843733,-0.132859,0
2024-12-13 15:40:29.471,-0.124427,5.14248,12.2052,0.288244,-0.081319,-0.131638,0
2024-12-13 15:40:29.471,-0.124427,5.14248,12.2052,0.288244,-0.081319,-0.131638,0
2024-12-13 15:40:29.476,-0.122034,5.21187,12.1669,0.331614,-0.0904818,-0.131027,0
2024-12-13 15:40:29.476,-0.129212,5.21187,12.1669,0.331614,-0.0904818,-0.131027,0
2024-12-13 15:40:29.478,-0.143569,5.24297,12.1119,0.352383,-0.0941468,-0.132248,0
2024-12-13 15:40:29.481,-0.165105,5.27887,12.047,0.372006,-0.102699,-0.134081,0
2024-12-13 15:40:29.483,-0.191426,5.33659,11.9991,0.38911,-0.114916,-0.134081,0
2024-12-13 15:40:29.485,-0.215354,5.38206,11.9393,0.408046,-0.124689,-0.134081,0
2024-12-13 15:40:29.490,-0.22014,5.44427,11.8053,0.437977,-0.152788,-0.134692,0
2024-12-13 15:40:29.493,-0.22014,5.48255,11.7431,0.451416,-0.168059,-0.135303,0
2024-12-13 15:40:29.493,-0.22014,5.48255,11.7431,0.451416,-0.168059,-0.135303,0
2024-12-13 15:40:29.495,-0.22014,5.52323,11.6737,0.458746,-0.187606,-0.137135,0
2024-12-13 15:40:29.500,-0.234497,5.62373,11.5182,0.469131,-0.227312,-0.140189,0
2024-12-13 15:40:29.500,-0.234497,5.62373,11.5182,0.469131,-0.227312,-0.140189,0
2024-12-13 15:40:29.502,-0.22014,5.6668,11.4317,0.474628,-0.246859,-0.1408,0
2024-12-13 15:40:29.504,-0.167498,5.72662,11.3432,0.470352,-0.274347,-0.1408,0
2024-12-13 15:40:29.507,-0.189033,5.78166,11.2857,0.466076,-0.303667,-0.145687,0
2024-12-13 15:40:29.509,-0.447757,5.74337,11.2714,0.455692,-0.329934,-0.144465,0
2024-12-13 15:40:29.511,-0.643968,5.71944,11.2331,0.449584,-0.352535,-0.134081,0
2024-12-13 15:40:29.514,-0.378365,5.87976,11.135,0.434312,-0.387354,-0.129194,0
2024-12-13 15:40:29.516,-0.304188,5.97099,11.0991,0.414765,-0.430724,-0.132859,0
2024-12-13 15:40:29.518,-0.754038,5.89442,11.1374,0.398272,-0.45699,-0.124307,0
2024-12-13 15:40:29.521,-0.945763,5.88216,11.1733,0.377504,-0.479591,-0.109647,0
2024-12-13 15:40:29.523,-0.857229,5.9327,11.1996,0.352383,-0.510745,-0.098041,0
2024-12-13 15:40:29.525,-0.845265,5.99013,11.2187,0.327949,-0.542509,-0.0864349,0
2024-12-13 15:40:29.528,-0.830609,6.03799,11.2546,0.29985,-0.574884,-0.0754396,0
2024-12-13 15:40:29.530,-0.801895,6.08345,11.3192,0.271751,-0.606648,-0.0632227,0
2024-12-13 15:40:29.533,-0.76361,6.14806,11.4174,0.238154,-0.63719,-0.0546708,0
2024-12-13 15:40:29.535,-0.679861,6.21506,11.5564,0.205779,-0.667122,-0.0455081,0
2024-12-13 15:40:29.537,-0.567398,6.26291,11.755,0.170961,-0.695221,-0.0424539,0
2024-12-13 15:40:29.540,-0.452543,6.28924,11.9943,0.136143,-0.719044,-0.041843,0
2024-12-13 15:40:29.542,-0.297009,6.30359,12.2626,0.103768,-0.740423,-0.0448973,0
2024-12-13 15:40:29.544,-0.107677,6.29881,12.5737,0.0726145,-0.758749,-0.0510057,0
2024-12-13 15:40:29.547,0.066999,6.28445,12.8946,0.0445155,-0.775852,-0.0601685,0
2024-12-13 15:40:29.549,0.210568,6.27966,13.2108,0.0206925,-0.785015,-0.0711637,0
2024-12-13 15:40:29.551,0.347258,6.27249,13.5529,-0.00129805,-0.786237,-0.0839915,0
2024-12-13 15:40:29.554,0.488435,6.22702,13.9098,-0.0165692,-0.785626,-0.0992627,0
2024-12-13 15:40:29.556,0.63679,6.17438,14.2448,-0.0281753,-0.778296,-0.116366,0
2024-12-13 15:40:29.558,0.809073,6.10259,14.5777,-0.0361163,-0.766079,-0.132859,0
2024-12-13 15:40:29.561,0.974477,6.00927,14.9034,-0.0397814,-0.750808,-0.150574,0
2024-12-13 15:40:29.563,1.10608,5.90399,15.2025,-0.0348946,-0.731261,-0.170121,0
2024-12-13 15:40:29.566,1.24726,5.7673,15.4756,-0.0287862,-0.706827,-0.190279,0
2024-12-13 15:40:29.570,1.52273,5.47538,15.9398,-0.00435229,-0.655515,-0.230595,0
2024-12-13 15:40:29.571,1.52273,5.47538,15.9398,0.010308,-0.626806,-0.255029,0
2024-12-13 15:40:29.573,1.73569,5.35574,16.1076,0.010308,-0.626806,-0.255029,0
2024-12-13 15:40:29.575,1.97049,5.23819,16.2368,0.0261901,-0.601761,-0.280073,0
2024-12-13 15:40:29.577,2.01356,5.0683,16.3828,0.0445155,-0.574273,-0.307562,0
2024-12-13 15:40:29.580,1.8338,4.83859,16.5721,0.0622301,-0.539454,-0.330774,0
2024-12-13 15:40:29.582,1.58495,4.55833,16.7539,0.0848314,-0.499749,-0.346045,3
2024-12-13 15:40:29.584,1.34058,4.25922,16.8879,0.109265,-0.454547,-0.352153,0
2024-12-13 15:40:29.587,1.11326,3.96222,16.9669,0.133088,-0.416674,-0.350932,0
2024-12-13 15:40:29.589,0.897907,3.67029,16.9837,0.162409,-0.376358,-0.344212,0
2024-12-13 15:40:29.591,0.73011,3.39482,16.9837,0.1844,-0.335431,-0.329552,0
2024-12-13 15:40:29.594,0.600898,3.134,16.9837,0.208833,-0.296337,-0.310616,0
2024-12-13 15:40:29.596,0.493221,2.90878,16.9741,0.2351,-0.264573,-0.287404,0
2024-12-13 15:40:29.599,0.407079,2.72453,16.943,0.258923,-0.229755,-0.260526,0
2024-12-13 15:40:29.603,0.347258,2.54985,16.8927,0.309012,-0.167449,-0.203718,0
2024-12-13 15:40:29.603,0.318545,2.4012,16.8592,0.309012,-0.167449,-0.203718,0
2024-12-13 15:40:29.606,0.325723,2.28156,16.8401,0.331003,-0.137517,-0.176229,0
2024-12-13 15:40:29.608,0.373579,2.18106,16.8042,0.359102,-0.110029,-0.151185,0
2024-12-13 15:40:29.613,0.478864,1.99442,16.6678,0.414154,-0.0562743,-0.105371,0
2024-12-13 15:40:29.613,0.478864,1.99442,16.6678,0.414154,-0.0562743,-0.105371,0
2024-12-13 15:40:29.615,0.531506,1.87208,16.5697,0.442253,-0.0367272,-0.0852132,0
2024-12-13 15:40:29.617,0.567398,1.75244,16.4426,0.472185,-0.0196235,-0.0662769,0
2024-12-13 15:40:29.620,0.567398,1.64955,16.3253,0.505171,-0.00801737,-0.0479515,0
2024-12-13 15:40:29.622,0.541077,1.57537,16.22,0.539378,-7.63559e-05,-0.0302369,0
2024-12-13 15:40:29.624,0.495613,1.52752,16.1052,0.57664,0.00481042,-0.0113007,0
2024-12-13 15:40:29.627,0.476471,1.48205,15.9518,0.618788,0.00603212,0.00946813,0
2024-12-13 15:40:29.629,0.471685,1.4342,15.7771,0.665213,0.00603212,0.0277936,0
2024-12-13 15:40:29.631,0.486042,1.38604,15.5976,0.711026,0.00358873,0.0412322,0
2024-12-13 15:40:29.634,0.572184,1.35015,15.3963,0.760505,-0.0019089,0.0522274,0
2024-12-13 15:40:29.636,0.679861,1.33819,15.1786,0.814259,-0.00801737,0.0595576,0
2024-12-13 15:40:29.639,0.742074,1.36451,14.9225,0.871068,-0.0110716,0.0650552,0
2024-12-13 15:40:29.641,0.76361,1.38604,14.6471,0.928488,-0.0122933,0.069942,0
2024-12-13 15:40:29.643,0.811466,1.38604,14.3432,0.988351,-0.00801737,0.0717745,0
2024-12-13 15:40:29.646,0.897907,1.37169,14.027,1.05615,-0.00251974,0.0674986,0
2024-12-13 15:40:29.648,1.00798,1.35254,13.7157,1.12213,0.000534491,0.0595576,0
2024-12-13 15:40:29.650,1.1013,1.34776,13.3711,1.19237,0.00664296,0.0479515,0
2024-12-13 15:40:29.653,1.1659,1.33819,12.9975,1.25957,0.0109189,0.0345129,0
2024-12-13 15:40:29.655,1.21376,1.32383,12.5833,1.32981,0.0206925,0.0167983,0
2024-12-13 15:40:29.657,1.23529,1.33819,12.1358,1.32981,0.0206925,0.0167983,0
2024-12-13 15:40:29.660,1.22812,1.37886,11.6713,1.46603,0.0341311,-0.0210742,0
2024-12-13 15:40:29.662,1.19222,1.43898,11.1781,1.53262,0.0451263,-0.0412322,0
2024-12-13 15:40:29.664,1.06301,1.4677,10.6801,1.59492,0.0542891,-0.0613902,0
2024-12-13 15:40:29.667,0.629611,1.3669,10.2682,1.6554,0.0677277,-0.0729962,0
2024-12-13 15:40:29.669,0.172283,1.2329,9.86621,1.71098,0.0860531,-0.0742179,0
2024-12-13 15:40:29.674,-0.148355,1.14676,8.85584,1.79956,0.100103,-0.0595576,0
2024-12-13 15:40:29.674,-0.148355,1.14676,8.85584,1.79956,0.100103,-0.0595576,0
2024-12-13 15:40:29.676,-0.289831,1.12283,8.33869,1.83499,0.101935,-0.0442864,0
2024-12-13 15:40:29.679,-0.438186,1.11805,7.82393,1.8582,0.100713,-0.0308478,0
2024-12-13 15:40:29.681,-0.605683,1.14197,7.2996,1.87591,0.0988809,-0.0137441,0
2024-12-13 15:40:29.683,-0.770788,1.17547,6.78724,1.88202,0.0921616,0.0064139,0
2024-12-13 15:40:29.686,-0.926621,1.22572,6.31316,1.88324,0.0860531,0.0302369,0
2024-12-13 15:40:29.688,-1.0678,1.29751,5.83909,1.8753,0.0768904,0.0558925,0
2024-12-13 15:40:29.690,-1.18505,1.38126,5.40359,1.85759,0.0640626,0.0827698,0
2024-12-13 15:40:29.693,-1.27358,1.48205,5.0348,1.82643,0.0487914,0.11148,0
2024-12-13 15:40:29.695,-1.32622,1.57298,4.68754,1.79772,0.0292443,0.142098,0
2024-12-13 15:40:29.697,-1.3669,1.66869,4.36451,1.75802,0.00297788,0.171419,0
2024-12-13 15:40:29.700,-1.39083,1.76441,4.08903,1.75802,0.00297788,0.171419,0
2024-12-13 15:40:29.702,-1.36929,1.85533,3.80668,1.66822,-0.0562743,0.227006,0
2024-12-13 15:40:29.704,-1.29272,1.95583,3.55753,1.66822,-0.0562743,0.227006,0
2024-12-13 15:40:29.707,-1.18744,2.03749,3.33021,1.56133,-0.124078,0.27282,0
2024-12-13 15:40:29.709,-1.0654,2.14038,3.10289,1.5033,-0.162562,0.290534,0
2024-12-13 15:40:29.712,-0.912264,2.26481,2.9351,1.44038,-0.203488,0.303362,0
2024-12-13 15:40:29.714,-0.734896,2.37009,2.79871,1.37807,-0.246248,0.312525,0
2024-12-13 15:40:29.716,-0.521934,2.47537,2.69581,1.31454,-0.288396,0.316801,0
2024-12-13 15:40:29.719,-0.294616,2.59771,2.61446,1.24735,-0.33421,0.313136,0
2024-12-13 15:40:29.721,-0.066999,2.74367,2.5666,1.18138,-0.37758,0.305805,0
2024-12-13 15:40:29.723,0.174676,2.90638,2.55703,1.1148,-0.423394,0.292367,0
2024-12-13 15:40:29.726,0.428614,3.0667,2.58096,1.05554,-0.467375,0.270376,0
2024-12-13 15:40:29.728,0.677468,3.22253,2.64078,0.991405,-0.511356,0.247164,0
2024-12-13 15:40:29.730,0.917049,3.38285,2.73888,0.935207,-0.55778,0.2154,0
2024-12-13 15:40:29.733,1.15633,3.54317,2.8681,0.875955,-0.602372,0.178138,0
2024-12-13 15:40:29.735,1.39083,3.699,3.00449,0.820979,-0.649407,0.140266,0
2024-12-13 15:40:29.740,1.61127,4.00529,3.25603,0.721411,-0.739202,0.0473407,0
2024-12-13 15:40:29.740,1.80509,4.00529,3.25603,0.721411,-0.739202,0.0473407,0
2024-12-13 15:40:29.742,1.9992,4.14407,3.38046,0.671932,-0.78135,-0.0051922,0
2024-12-13 15:40:29.745,2.22891,4.28315,3.48574,0.626118,-0.819833,-0.0601685,0
2024-12-13 15:40:29.749,2.85374,4.62533,3.58385,0.533881,-0.885194,-0.189057,0
2024-12-13 15:40:29.749,2.85374,4.62533,3.58385,0.533881,-0.885194,-0.189057,0
2024-12-13 15:40:29.752,2.82503,4.68515,3.64367,0.484402,-0.904741,-0.259916,0
2024-12-13 15:40:29.754,2.44666,4.60858,3.78036,0.437977,-0.902298,-0.324054,0
2024-12-13 15:40:29.756,1.95583,4.47219,3.95504,0.390942,-0.87542,-0.372311,0
2024-12-13 15:40:29.759,1.52273,4.27597,4.12253,0.344442,-0.824109,-0.402854,0
2024-12-13 15:40:29.761,1.21137,4.07707,4.2688,0.292519,-0.762414,-0.421179,0
2024-12-13 15:40:29.763,1.00558,3.91436,4.38126,0.241208,-0.693388,-0.434618,0
2024-12-13 15:40:29.766,0.864407,3.76361,4.46501,0.183178,-0.621919,-0.43645,0
2024-12-13 15:40:29.768,0.785145,3.65115,4.50329,0.125147,-0.551671,-0.433396,0
2024-12-13 15:40:29.770,0.744467,3.56231,4.48415,0.0603975,-0.479591,-0.423623,0
2024-12-13 15:40:29.773,0.718146,3.51446,4.42194,-0.00862822,-0.403846,-0.415682,0
2024-12-13 15:40:29.775,0.756431,3.50967,4.33101,-0.0788757,-0.326269,-0.402854,0
2024-12-13 15:40:29.778,0.996012,3.59342,4.19193,-0.155232,-0.256021,-0.391859,0
2024-12-13 15:40:29.780,1.20897,3.67508,4.09861,-0.235863,-0.193104,-0.388193,0
2024-12-13 15:40:29.782,1.28076,3.699,4.04836,-0.315274,-0.130187,-0.386361,0
2024-12-13 15:40:29.785,1.35015,3.72533,3.98375,-0.394073,-0.0691021,-0.389415,0
2024-12-13 15:40:29.787,1.40279,3.73729,3.94307,-0.474705,-0.013515,-0.39308,0
2024-12-13 15:40:29.789,1.45813,3.73729,3.9335,-0.55045,0.0414613,-0.401632,0
2024-12-13 15:40:29.792,1.50359,3.71097,3.97897,-0.620086,0.0988809,-0.415682,0
2024-12-13 15:40:29.794,1.53709,3.67986,4.04836,-0.68789,0.154468,-0.431564,0
2024-12-13 15:40:29.796,1.55862,3.65593,4.16082,-0.752029,0.204557,-0.447446,0
2024-12-13 15:40:29.799,1.6017,3.63171,4.2999,-0.811282,0.24976,-0.467604,0
2024-12-13 15:40:29.801,1.6352,3.62214,4.43869,-0.862593,0.294963,-0.491427,0
2024-12-13 15:40:29.803,1.64716,3.61974,4.59422,-0.907795,0.334057,-0.514639,0
2024-12-13 15:40:29.806,1.65912,3.61496,4.75454,-0.950555,0.370097,-0.537851,0
2024-12-13 15:40:29.808,1.6663,3.60539,4.90798,-0.988427,0.404305,-0.564117,0
2024-12-13 15:40:29.810,1.65434,3.59103,5.05394,-1.02141,0.428738,-0.588551,0
2024-12-13 15:40:29.813,1.6352,3.59342,5.20708,-1.05257,0.452561,-0.614207,0
2024-12-13 15:40:29.815,1.6017,3.59342,5.38206,-1.07822,0.467222,-0.639862,0
2024-12-13 15:40:29.818,1.55623,3.58385,5.55195,-1.09533,0.479439,-0.663075,0
2024-12-13 15:40:29.820,1.50838,3.57667,5.71466,-1.11121,0.489823,-0.685676,0
2024-12-13 15:40:29.822,1.45095,3.55753,5.87258,-1.11732,0.495321,-0.707667,0
2024-12-13 15:40:29.825,1.39322,3.53599,6.0021,-1.1222,0.499597,-0.727825,0
2024-12-13 15:40:29.827,1.34297,3.49292,6.13849,-1.12281,0.503873,-0.749815,0
2024-12-13 15:40:29.829,1.29751,3.43789,6.29402,-1.11976,0.505094,-0.76753,0
2024-12-13 15:40:29.832,1.23769,3.39242,6.42802,-1.1106,0.503873,-0.788298,0
2024-12-13 15:40:29.834,1.17547,3.33021,6.536,-1.10266,0.501429,-0.808456,0
2024-12-13 15:40:29.839,1.03669,3.26082,6.76571,-1.06723,0.495321,-0.845718,0
2024-12-13 15:40:29.839,1.03669,3.26082,6.76571,-1.06723,0.495321,-0.845718,0
2024-12-13 15:40:29.841,0.945763,3.2345,6.85185,-1.04829,0.491045,-0.864043,0
2024-12-13 15:40:29.843,0.835394,3.19861,6.90688,-1.02325,0.487991,-0.881147,0
2024-12-13 15:40:29.846,0.715753,3.17707,6.95474,-0.998812,0.486769,-0.895808,0
2024-12-13 15:40:29.848,0.572184,3.16989,6.99781,-0.971934,0.484936,-0.906803,0
2024-12-13 15:40:29.853,0.41665,3.13639,7.04118,-0.916347,0.481271,-0.924517,0
2024-12-13 15:40:29.853,0.27996,3.13639,7.04118,-0.916347,0.481271,-0.924517,0
2024-12-13 15:40:29.855,0.16989,3.11725,7.04357,-0.887637,0.47333,-0.927572,0
2024-12-13 15:40:29.858,0.0574277,3.10289,7.03879,-0.861371,0.464778,-0.930626,0
2024-12-13 15:40:29.860,-0.0598206,3.08345,7.03161,-0.836326,0.451951,-0.930626,0
2024-12-13 15:40:29.863,-0.160319,3.07627,7.04118,-0.78868,0.409191,-0.92635,0
2024-12-13 15:40:29.865,-0.272782,3.06431,7.04118,-0.78868,0.409191,-0.92635,0
2024-12-13 15:40:29.867,-0.383151,3.0332,7.04836,-0.764857,0.379871,-0.922074,0
2024-12-13 15:40:29.869,-0.507577,3.02842,7.05554,-0.744088,0.35055,-0.913522,0
2024-12-13 15:40:29.872,-0.641576,3.02363,7.0675,-0.72393,0.318786,-0.901916,0
2024-12-13 15:40:29.874,-0.732503,2.9997,7.09143,-0.703772,0.285189,-0.889699,0
2024-12-13 15:40:29.876,-0.792323,2.97817,7.13689,-0.681782,0.249149,-0.875039,0
2024-12-13 15:40:29.879,-0.862014,2.94227,7.21107,-0.664067,0.210666,-0.857935,0
2024-12-13 15:40:29.881,-0.938585,2.90878,7.29243,-0.643909,0.168517,-0.83961,0
2024-12-13 15:40:29.883,-1.01515,2.8992,7.38335,-0.620086,0.125147,-0.818841,0
2024-12-13 15:40:29.886,-1.1013,2.88006,7.47428,-0.597485,0.0829989,-0.795018,0
2024-12-13 15:40:29.889,-1.17308,2.8681,7.58465,-0.549228,-0.00618483,-0.743096,0
2024-12-13 15:40:29.891,-1.2329,2.85374,7.69711,-0.549228,-0.00618483,-0.743096,0
2024-12-13 15:40:29.893,-1.28315,2.79871,7.81197,-0.516242,-0.0471116,-0.713164,0
2024-12-13 15:40:29.895,-1.31186,2.74606,7.94357,-0.483257,-0.0862058,-0.684454,0
2024-12-13 15:40:29.898,-1.31426,2.70778,8.06321,-0.448438,-0.122857,-0.653912,0
2024-12-13 15:40:29.901,-1.34058,2.69342,8.15444,-0.371471,-0.180887,-0.58733,0
2024-12-13 15:40:29.902,-1.37647,2.68624,8.24537,-0.371471,-0.180887,-0.58733,0
2024-12-13 15:40:29.905,-1.37647,2.65753,8.31476,-0.326269,-0.203488,-0.553733,0
2024-12-13 15:40:29.907,-1.37408,2.63599,8.35065,-0.28412,-0.220592,-0.517082,0
2024-12-13 15:40:29.909,-1.37647,2.64317,8.37697,-0.240139,-0.229755,-0.479821,0
2024-12-13 15:40:29.912,-1.36211,2.65035,8.38176,-0.194937,-0.239528,-0.441948,0
2024-12-13 15:40:29.914,-1.35494,2.66231,8.35065,-0.150956,-0.243194,-0.403465,0
2024-12-13 15:40:29.916,-1.34058,2.68864,8.29322,-0.112472,-0.241972,-0.363149,0
2024-12-13 15:40:29.919,-1.30469,2.71496,8.21905,-0.0715455,-0.239528,-0.327109,0
2024-12-13 15:40:29.921,-1.28315,2.74367,8.12543,-0.037338,-0.235863,-0.288625,0
2024-12-13 15:40:29.924,-1.26879,2.78674,8.02014,-0.00923906,-0.230977,-0.253807,0
2024-12-13 15:40:29.926,-1.24008,2.8346,7.91247,0.0164165,-0.226701,-0.216545,0
2024-12-13 15:40:29.928,-1.19701,2.87288,7.8024,0.0371853,-0.221203,-0.180505,0
2024-12-13 15:40:29.931,-1.17308,2.89681,7.68754,0.0548999,-0.213262,-0.146909,0
2024-12-13 15:40:29.933,-1.1683,2.9327,7.58465,0.0677277,-0.208375,-0.11148,0
2024-12-13 15:40:29.935,-1.17308,2.98535,7.52692,0.0781121,-0.198602,-0.0772722,0
2024-12-13 15:40:29.938,-1.18983,3.02842,7.4671,0.0848314,-0.19005,-0.0430647,0
2024-12-13 15:40:29.940,-1.13719,3.08854,7.37857,0.0848314,-0.19005,-0.0430647,0
2024-12-13 15:40:29.942,-0.99362,3.18903,7.28525,0.094605,-0.176,0.0216851,0
2024-12-13 15:40:29.945,-0.785145,3.32064,7.2015,0.0952158,-0.176,0.0473407,0
2024-12-13 15:40:29.947,-0.533899,3.48096,7.1345,0.0933833,-0.17539,0.0668878,0
2024-12-13 15:40:29.949,-0.292223,3.65115,7.08904,0.0909399,-0.174779,0.0803264,0
2024-12-13 15:40:29.952,-0.0933201,3.7995,7.05554,0.0884965,-0.173557,0.0864349,0
2024-12-13 15:40:29.954,-0.00478565,3.88804,7.02922,0.0860531,-0.173557,0.0907108,0
2024-12-13 15:40:29.956,-0.0550349,3.89761,7.02204,0.0811663,-0.165616,0.0937651,0
2024-12-13 15:40:29.959,-0.122034,3.90718,7.01725,0.0811663,-0.165616,0.0937651,0
2024-12-13 15:40:29.961,-0.148355,3.94547,7.00738,0.0750579,-0.156453,0.105371,0
2024-12-13 15:40:29.966,-0.157926,4.01246,7.01725,0.0622301,-0.157064,0.119421,0
2024-12-13 15:40:29.966,-0.157926,4.01246,7.01725,0.0622301,-0.157064,0.119421,0
2024-12-13 15:40:29.968,-0.184247,4.06271,7.04357,0.0524565,-0.160118,0.125529,0
2024-12-13 15:40:29.971,-0.222533,4.10578,7.0675,0.0432938,-0.166838,0.132859,0
2024-12-13 15:40:29.973,-0.258425,4.14407,7.08664,0.0329094,-0.176,0.144542,0
2024-12-13 15:40:29.975,-0.277567,4.19671,7.10818,0.0194708,-0.185774,0.156148,0
2024-12-13 15:40:29.980,-0.287438,4.31426,7.16082,-0.00374144,-0.202878,0.178138,0
2024-12-13 15:40:29.980,-0.287438,4.31426,7.16082,-0.00374144,-0.202878,0.178138,0
2024-12-13 15:40:29.982,-0.285045,4.37408,7.2015,-0.0129041,-0.209597,0.187912,0
2024-12-13 15:40:29.985,-0.27996,4.4339,7.25414,-0.0245102,-0.216316,0.200129,0
2024-12-13 15:40:29.989,-0.208176,4.54158,7.32353,-0.0471116,-0.232809,0.216622,0
2024-12-13 15:40:29.989,-0.208176,4.54158,7.32353,-0.0471116,-0.232809,0.216622,0
2024-12-13 15:40:29.992,-0.174676,4.59901,7.37617,-0.0581068,-0.240139,0.228228,0
2024-12-13 15:40:29.994,-0.172283,4.6684,7.45035,-0.0721563,-0.24808,0.233115,0
2024-12-13 15:40:29.999,-0.119641,4.79073,7.63968,-0.0941468,-0.257854,0.242277,0
2024-12-13 15:40:29.999,-0.119641,4.79073,7.63968,-0.0941468,-0.257854,0.242277,0
2024-12-13 15:40:30.001,-0.0837488,4.83859,7.73779,-0.105142,-0.262741,0.245332,0
2024-12-13 15:40:30.004,-0.0574277,4.88644,7.84068,-0.113083,-0.267627,0.247775,0
2024-12-13 15:40:30.006,-0.0287139,4.95344,7.94118,-0.122857,-0.26946,0.249607,0
2024-12-13 15:40:30.008,0.0143569,5.01087,8.04886,-0.131409,-0.268238,0.249607,0
2024-12-13 15:40:30.011,0.0717847,5.05155,8.1688,-0.138128,-0.267017,0.248997,0
2024-12-13 15:40:30.013,0.133998,5.10658,8.28126,-0.143625,-0.265795,0.248997,0
2024-12-13 15:40:30.015,0.184247,5.17119,8.39372,-0.150956,-0.26213,0.247164,0
2024-12-13 15:40:30.018,0.22014,5.23101,8.50858,-0.159507,-0.259076,0.244721,0
2024-12-13 15:40:30.020,0.248854,5.27647,8.59711,-0.165005,-0.251745,0.24411,0
2024-12-13 15:40:30.022,0.258425,5.31954,8.67368,-0.173557,-0.246248,0.243499,0
2024-12-13 15:40:30.025,0.265603,5.37009,8.75773,-0.179665,-0.234642,0.244721,0
2024-12-13 15:40:30.027,0.260818,5.42034,8.83191,-0.188828,-0.221814,0.242888,0
2024-12-13 15:40:30.030,0.267996,5.44906,8.89651,-0.193715,-0.207764,0.242888,0
2024-12-13 15:40:30.032,0.297009,5.45623,8.98026,-0.20471,-0.19738,0.24411,0
2024-12-13 15:40:30.034,0.325723,5.45145,9.06401,-0.215705,-0.189439,0.244721,0
2024-12-13 15:40:30.037,0.364008,5.46102,9.16212,-0.226701,-0.18272,0.244721,0
2024-12-13 15:40:30.039,0.419043,5.49213,9.26052,-0.240139,-0.183331,0.245332,0
2024-12-13 15:40:30.041,0.45015,5.5328,9.35384,-0.256021,-0.183941,0.246553,0
2024-12-13 15:40:30.044,0.452543,5.58305,9.48066,-0.26946,-0.185774,0.245332,0
2024-12-13 15:40:30.046,0.462114,5.62373,9.61466,-0.282288,-0.186996,0.246553,0
2024-12-13 15:40:30.048,0.490828,5.67159,9.74387,-0.300002,-0.186385,0.246553,0
2024-12-13 15:40:30.051,0.505185,5.7338,9.87578,-0.31283,-0.183941,0.245942,0
2024-12-13 15:40:30.053,0.498006,5.76491,10.0074,-0.326269,-0.179665,0.247775,0
2024-12-13 15:40:30.055,0.486042,5.79362,10.1581,-0.339097,-0.174168,0.247775,0
2024-12-13 15:40:30.058,0.4669,5.82712,10.3137,-0.350703,-0.166227,0.25144,0
2024-12-13 15:40:30.060,0.462114,5.85344,10.4815,-0.360476,-0.157675,0.252662,0
2024-12-13 15:40:30.062,0.454935,5.89681,10.6729,-0.368417,-0.145458,0.254494,0
2024-12-13 15:40:30.065,0.454935,5.92074,10.85,-0.375747,-0.130798,0.252662,0
2024-12-13 15:40:30.067,0.452543,5.92553,11.013,-0.378191,-0.114916,0.254494,0
2024-12-13 15:40:30.070,0.438186,5.9351,11.1972,-0.381856,-0.0978119,0.256327,0
2024-12-13 15:40:30.074,0.395115,6.00688,11.5851,-0.376969,-0.0599394,0.253273,0
2024-12-13 15:40:30.074,0.395115,6.00688,11.5851,-0.376969,-0.0599394,0.253273,0
2024-12-13 15:40:30.077,0.383151,6.03799,11.7622,-0.369639,-0.0391706,0.253883,0
2024-12-13 15:40:30.079,0.366401,6.08106,11.9297,-0.361087,-0.0159584,0.254494,0
2024-12-13 15:40:30.081,0.354437,6.11217,12.0975,-0.353757,0.00664296,0.256938,0
2024-12-13 15:40:30.084,0.335294,6.13849,12.265,-0.34154,0.0298552,0.255716,0
2024-12-13 15:40:30.086,0.332901,6.16959,12.4229,-0.328712,0.050624,0.256938,0
2024-12-13 15:40:30.088,0.34008,6.20309,12.5976,-0.313441,0.0720036,0.257548,0
2024-12-13 15:40:30.091,0.342473,6.24856,12.7869,-0.297559,0.0939941,0.256327,0
2024-12-13 15:40:30.093,0.35683,6.28206,12.9712,-0.279844,0.114763,0.25877,0
2024-12-13 15:40:30.098,0.411865,6.39213,13.3591,-0.235253,0.158133,0.25877,0
2024-12-13 15:40:30.098,0.411865,6.39213,13.3591,-0.235253,0.158133,0.25877,0
2024-12-13 15:40:30.100,0.505185,6.47139,13.5218,-0.21204,0.181345,0.256327,0
2024-12-13 15:40:30.103,0.536291,6.55753,13.6199,-0.180276,0.208223,0.252051,0
2024-12-13 15:40:30.105,0.514756,6.60539,13.6893,-0.152177,0.231435,0.252662,0
2024-12-13 15:40:30.110,0.519542,6.62453,13.8356,-0.0886492,0.276027,0.241056,0
2024-12-13 15:40:30.110,0.529113,6.62692,13.8356,-0.0886492,0.276027,0.241056,0
2024-12-13 15:40:30.112,0.531506,6.61735,13.905,-0.0581068,0.291298,0.238612,0
2024-12-13 15:40:30.114,0.512363,6.62214,13.9313,-0.0306187,0.306569,0.234947,0
2024-12-13 15:40:30.117,0.481256,6.64606,13.9217,-7.63559e-05,0.320618,0.234336,0
2024-12-13 15:40:30.119,0.4334,6.67717,13.9002,0.0280226,0.331003,0.233725,0
2024-12-13 15:40:30.121,0.385544,6.69153,13.8739,0.0555107,0.337722,0.234947,0
2024-12-13 15:40:30.124,0.34008,6.71067,13.8476,0.0775012,0.338944,0.240445,0
2024-12-13 15:40:30.126,0.292223,6.74417,13.838,0.100103,0.341998,0.24411,0
2024-12-13 15:40:30.128,0.246461,6.77049,13.8308,0.123926,0.340166,0.248997,0
2024-12-13 15:40:30.131,0.208176,6.79921,13.8093,0.141029,0.335279,0.257548,0
2024-12-13 15:40:30.133,0.177069,6.81835,13.783,0.160576,0.327338,0.266711,0
2024-12-13 15:40:30.135,0.145962,6.83749,13.7854,0.178291,0.315121,0.275874,0
2024-12-13 15:40:30.138,0.131605,6.87817,13.7997,0.195395,0.296795,0.285037,0
2024-12-13 15:40:30.140,0.133998,6.91645,13.8069,0.211888,0.279692,0.296032,0
2024-12-13 15:40:30.143,0.107677,6.9332,13.8236,0.227159,0.259534,0.308249,0
2024-12-13 15:40:30.145,-0.193819,6.84228,13.8906,0.243652,0.241819,0.321077,0
2024-12-13 15:40:30.150,-0.45015,6.83271,14.0103,0.279692,0.211277,0.371777,0
2024-12-13 15:40:30.150,-0.45015,6.83271,14.0103,0.279692,0.211277,0.371777,0
2024-12-13 15:40:30.152,-0.244068,6.8686,14.0342,0.294963,0.194173,0.393157,0
2024-12-13 15:40:30.154,-0.248854,6.8686,14.0749,0.313288,0.180734,0.412093,0
2024-12-13 15:40:30.157,-0.304188,6.89013,14.1036,0.32917,0.172793,0.43164,0
2024-12-13 15:40:30.159,-0.241675,6.90928,14.118,0.343831,0.17035,0.449355,0
2024-12-13 15:40:30.161,-0.150748,6.92602,14.1515,0.361545,0.17035,0.465237,0
2024-12-13 15:40:30.164,-0.0693919,6.94277,14.1754,0.38178,0.174626,0.476232,0
2024-12-13 15:40:30.166,0.026321,6.97867,14.1682,0.400105,0.181345,0.486616,0
2024-12-13 15:40:30.168,0.107677,7.01217,14.1515,0.419041,0.192341,0.494557,0
2024-12-13 15:40:30.171,0.177069,7.03161,14.1467,0.436756,0.205779,0.498222,0
2024-12-13 15:40:30.174,0.260818,7.05554,14.1156,0.46852,0.233878,0.499444,3
2024-12-13 15:40:30.176,0.335294,7.10579,14.0605,0.46852,0.233878,0.499444,0
2024-12-13 15:40:30.178,0.354437,7.16082,14.0151,0.487456,0.250371,0.498222,0
2024-12-13 15:40:30.180,0.35683,7.19911,13.9481,0.499673,0.268086,0.497001,0
2024-12-13 15:40:30.183,0.390329,7.25893,13.8691,0.512501,0.283968,0.493946,0
2024-12-13 15:40:30.185,0.409472,7.31875,13.7806,0.525329,0.302293,0.48906,0
2024-12-13 15:40:30.187,0.3999,7.36182,13.6774,0.533881,0.312677,0.48234,0
2024-12-13 15:40:30.190,0.3999,7.40489,13.5817,0.5406,0.321229,0.476843,0
2024-12-13 15:40:30.192,0.414257,7.42403,13.4668,0.543043,0.32917,0.473178,0
2024-12-13 15:40:30.197,0.488435,7.4025,13.2586,0.54793,0.326116,0.45363,0
2024-12-13 15:40:30.197,0.488435,7.4025,13.2586,0.54793,0.326116,0.45363,0
2024-12-13 15:40:30.199,0.514756,7.41685,13.1698,0.546097,0.318786,0.442635,0
2024-12-13 15:40:30.201,0.541077,7.45753,13.0454,0.541822,0.308401,0.430418,0
2024-12-13 15:40:30.204,0.541077,7.48146,12.9018,0.534491,0.29985,0.41759,0
2024-12-13 15:40:30.206,0.538684,7.48864,12.7917,0.523496,0.286411,0.404763,0
2024-12-13 15:40:30.209,0.581755,7.49342,12.6984,0.510057,0.271751,0.391324,0
2024-12-13 15:40:30.211,0.706182,7.51974,12.5928,0.495397,0.250982,0.373609,0
2024-12-13 15:40:30.213,0.950549,7.6014,12.4612,0.475239,0.226548,0.351619,0
2024-12-13 15:40:30.216,1.13001,7.65643,12.3559,0.45447,0.197227,0.321077,0
2024-12-13 15:40:30.218,1.07019,7.62054,12.3272,0.430036,0.170961,0.288091,0
2024-12-13 15:40:30.220,0.84018,7.49342,12.3488,0.406824,0.153857,0.260603,0
2024-12-13 15:40:30.223,0.548256,7.29243,12.3894,0.384223,0.140419,0.242888,0
2024-12-13 15:40:30.225,0.246461,7.05075,12.4397,0.359102,0.130645,0.23006,0
2024-12-13 15:40:30.227,-0.0311067,6.78724,12.5187,0.334668,0.122093,0.225784,0
2024-12-13 15:40:30.230,-0.267996,6.53839,12.6048,0.309623,0.114152,0.228839,0
2024-12-13 15:40:30.232,-0.454935,6.28684,12.6984,0.286411,0.103768,0.237391,0
2024-12-13 15:40:30.234,-0.581755,6.0332,12.8133,0.263199,0.0958267,0.252051,0
2024-12-13 15:40:30.239,-0.761217,5.58545,13.0502,0.230213,0.0878856,0.292978,0
2024-12-13 15:40:30.239,-0.761217,5.58545,13.0502,0.230213,0.0878856,0.292978,0
2024-12-13 15:40:30.241,-0.801895,5.39402,13.1698,0.22044,0.0909399,0.319244,0
2024-12-13 15:40:30.244,-0.818644,5.20708,13.2682,0.214942,0.0982701,0.343678,0
2024-12-13 15:40:30.246,-0.804287,5.01805,13.3615,0.217996,0.108044,0.369944,0
2024-12-13 15:40:30.249,-0.734896,4.82423,13.4668,0.225937,0.120871,0.3956,0
2024-12-13 15:40:30.251,-0.617647,4.6325,13.5649,0.238154,0.131256,0.418201,0
2024-12-13 15:40:30.253,-0.4669,4.43151,13.6678,0.25709,0.142251,0.438359,0
2024-12-13 15:40:30.256,-0.320937,4.23769,13.7638,0.284578,0.153857,0.456074,0
2024-12-13 15:40:30.258,-0.215354,4.06511,13.8356,0.315732,0.167907,0.471345,0
2024-12-13 15:40:30.260,-0.138784,3.90718,13.8811,0.356658,0.189286,0.482951,0
2024-12-13 15:40:30.265,-0.00957129,3.57906,13.8882,0.455692,0.240597,0.506163,0
2024-12-13 15:40:30.265,-0.00957129,3.57906,13.8882,0.455692,0.240597,0.506163,0
2024-12-13 15:40:30.267,0.040678,3.4355,13.8404,0.515555,0.267475,0.51838,0
2024-12-13 15:40:30.270,0.0789631,3.30628,13.771,0.576029,0.297406,0.531819,0
2024-12-13 15:40:30.272,0.0933201,3.17707,13.675,0.642,0.324284,0.541592,0
2024-12-13 15:40:30.274,0.0861416,3.05234,13.5458,0.714691,0.351772,0.555031,0
2024-12-13 15:40:30.277,0.0741775,2.94706,13.3711,0.791047,0.373762,0.564194,0
2024-12-13 15:40:30.282,0.0239282,2.75324,12.9162,0.943148,0.400029,0.584352,0
2024-12-13 15:40:30.284,0.0,2.69821,12.629,1.02256,0.40858,0.594736,0
2024-12-13 15:40:30.284,0.0,2.69821,12.629,1.02256,0.40858,0.594736,0
2024-12-13 15:40:30.286,-0.0239282,2.67428,12.2889,1.0983,0.410413,0.603288,0
2024-12-13 15:40:30.289,-0.040678,2.65035,11.9273,1.17099,0.409802,0.608175,0
2024-12-13 15:40:30.291,-0.0502493,2.62642,11.5349,1.24185,0.403694,0.613062,0
2024-12-13 15:40:30.293,-0.0550349,2.62642,11.1111,1.30721,0.394531,0.617948,0
2024-12-13 15:40:30.296,-0.0741775,2.65514,10.6681,1.37013,0.382314,0.616727,0
2024-12-13 15:40:30.300,-0.105284,2.71256,9.7678,1.47642,0.347496,0.614894,0
2024-12-13 15:40:30.300,-0.105284,2.71256,9.7678,1.47642,0.347496,0.614894,0
2024-12-13 15:40:30.303,-0.122034,2.76042,9.31795,1.51857,0.318175,0.613062,0
2024-12-13 15:40:30.305,-0.136391,2.78674,8.87737,1.55705,0.287633,0.606342,0
2024-12-13 15:40:30.307,-0.145962,2.81785,8.45833,1.58393,0.253425,0.599623,0
2024-12-13 15:40:30.310,-0.155533,2.87049,8.02493,1.60347,0.212498,0.592293,0
2024-12-13 15:40:30.312,-0.177069,2.90878,7.61336,1.61875,0.166074,0.583741,0
2024-12-13 15:40:30.314,-0.215354,2.95185,7.20389,1.62424,0.120871,0.573357,0
2024-12-13 15:40:30.317,-0.253639,3.01406,6.78485,1.6218,0.074447,0.564194,0
2024-12-13 15:40:30.319,-0.282652,3.07388,6.38734,1.61019,0.0286335,0.551977,0
2024-12-13 15:40:30.322,-0.325723,3.12921,6.01406,1.59309,-0.0122933,0.53976,0
2024-12-13 15:40:30.324,-0.359223,3.17707,5.65962,1.5656,-0.0513875,0.528154,0
2024-12-13 15:40:30.326,-0.383151,3.21296,5.32194,1.532,-0.0862058,0.515937,0
2024-12-13 15:40:30.329,-0.41665,3.25843,5.01326,1.49352,-0.114916,0.501277,0
2024-12-13 15:40:30.331,-0.452543,3.31346,4.75215,1.44832,-0.138128,0.487838,0
2024-12-13 15:40:30.333,-0.488435,3.3685,4.52004,1.3964,-0.157675,0.476232,0
2024-12-13 15:40:30.336,-0.50997,3.40439,4.32383,1.33898,-0.172946,0.461571,0
2024-12-13 15:40:30.338,-0.517149,3.43789,4.16082,1.27728,-0.183331,0.445689,0
2024-12-13 15:40:30.340,-0.531506,3.4666,4.01486,1.21436,-0.184552,0.429807,0
2024-12-13 15:40:30.343,-0.529113,3.48335,3.91197,1.14717,-0.180276,0.413315,0
2024-12-13 15:40:30.345,-0.457328,3.48335,3.86172,1.0757,-0.17539,0.393767,0
2024-12-13 15:40:30.347,-0.378365,3.46899,3.82822,1.00057,-0.164394,0.372388,0
2024-12-13 15:40:30.350,-0.361615,3.51207,3.79232,0.929099,-0.144236,0.351008,0
2024-12-13 15:40:30.353,-0.407079,3.57189,3.75404,0.776998,-0.0800973,0.310081,0
2024-12-13 15:40:30.355,-0.488435,3.60778,3.72772,0.776998,-0.0800973,0.310081,0
2024-12-13 15:40:30.357,-0.533899,3.6341,3.72772,0.702474,-0.037338,0.291145,0
2024-12-13 15:40:30.359,-0.562612,3.65354,3.73968,0.626118,0.00603212,0.275263,0
2024-12-13 15:40:30.362,-0.600898,3.65833,3.78515,0.554038,0.0469589,0.259992,0
2024-12-13 15:40:30.364,-0.632004,3.66072,3.85932,0.48318,0.0884965,0.245942,0
2024-12-13 15:40:30.366,-0.660718,3.64367,3.94307,0.414154,0.12698,0.233725,0
2024-12-13 15:40:30.369,-0.665504,3.62214,4.06032,0.346885,0.162409,0.223341,0
2024-12-13 15:40:30.371,-0.65354,3.60539,4.17996,0.286411,0.197227,0.212957,0
2024-12-13 15:40:30.373,-0.63679,3.5671,4.30469,0.228381,0.225326,0.201961,0
2024-12-13 15:40:30.376,-0.591326,3.52642,4.44586,0.17035,0.250371,0.19341,0
2024-12-13 15:40:30.380,-0.493221,3.44507,4.72343,0.0720036,0.289465,0.178138,0
2024-12-13 15:40:30.380,-0.493221,3.44507,4.72343,0.0720036,0.289465,0.178138,0
2024-12-13 15:40:30.383,-0.457328,3.40917,4.86251,0.0274118,0.303515,0.168976,0
2024-12-13 15:40:30.385,-0.414257,3.38285,4.99412,-0.013515,0.312677,0.15798,0
2024-12-13 15:40:30.390,-0.354437,3.30868,5.26451,-0.0843733,0.322451,0.139655,0
2024-12-13 15:40:30.390,-0.354437,3.30868,5.26451,-0.0843733,0.322451,0.139655,0
2024-12-13 15:40:30.392,-0.332901,3.28475,5.39881,-0.112472,0.322451,0.129805,0
2024-12-13 15:40:30.397,-0.328116,3.24885,5.66441,-0.162562,0.317564,0.110258,0
2024-12-13 15:40:30.397,-0.328116,3.24885,5.66441,-0.162562,0.317564,0.110258,0
2024-12-13 15:40:30.399,-0.335294,3.22014,5.80319,-0.183941,0.312677,0.101095,0
2024-12-13 15:40:30.402,-0.332901,3.18186,5.92074,-0.199823,0.308401,0.0907108,0
2024-12-13 15:40:30.405,-0.347258,3.14596,6.04277,-0.225479,0.294963,0.0748288,0
2024-12-13 15:40:30.406,-0.368794,3.11964,6.18634,-0.225479,0.294963,0.0748288,0
2024-12-13 15:40:30.409,-0.378365,3.08106,6.31077,-0.232198,0.288244,0.0656661,0
2024-12-13 15:40:30.411,-0.378365,3.03799,6.42563,-0.238307,0.27847,0.0552817,0
2024-12-13 15:40:30.413,-0.380758,3.01645,6.55274,-0.242583,0.269918,0.0491732,0
2024-12-13 15:40:30.416,-0.392722,2.99013,6.68196,-0.243194,0.26381,0.0430647,0
2024-12-13 15:40:30.418,-0.421436,2.94706,6.78724,-0.240139,0.258923,0.0351237,0
2024-12-13 15:40:30.423,-0.4669,2.87528,6.94995,-0.226701,0.255258,0.025961,0
2024-12-13 15:40:30.423,-0.4669,2.87528,6.94995,-0.226701,0.255258,0.025961,0
2024-12-13 15:40:30.425,-0.488435,2.82981,7.03161,-0.217538,0.253425,0.0210742,0
2024-12-13 15:40:30.428,-0.500399,2.79631,7.09861,-0.207154,0.252814,0.0192417,0
2024-12-13 15:40:30.430,-0.502792,2.76521,7.14168,-0.197991,0.250982,0.0186308,0
2024-12-13 15:40:30.432,-0.505185,2.72453,7.19432,-0.18272,0.248538,0.0174091,0
2024-12-13 15:40:30.435,-0.517149,2.7006,7.235,-0.164394,0.248538,0.0174091,0
2024-12-13 15:40:30.437,-0.54347,2.67906,7.24457,-0.146069,0.245484,0.0167983,0
2024-12-13 15:40:30.439,-0.567398,2.67189,7.24936,-0.127743,0.245484,0.0192417,0
2024-12-13 15:40:30.442,-0.596112,2.66231,7.23261,-0.110029,0.247317,0.0216851,0
2024-12-13 15:40:30.444,-0.612862,2.65753,7.20389,-0.0862058,0.250982,0.0235176,0
2024-12-13 15:40:30.446,-0.63679,2.64556,7.17518,-0.0648262,0.25709,0.0277936,0
2024-12-13 15:40:30.449,-0.65354,2.61685,7.12254,-0.0410031,0.26381,0.033902,0
2024-12-13 15:40:30.451,-0.624826,2.59053,7.05793,-0.0177909,0.268086,0.0406213,0
2024-12-13 15:40:30.453,-0.574577,2.58574,6.99542,0.00542127,0.271751,0.0455081,0
2024-12-13 15:40:30.456,-0.541077,2.60249,6.91885,0.030466,0.276027,0.0516166,0
2024-12-13 15:40:30.458,-0.517149,2.63121,6.80399,0.0542891,0.276637,0.0589468,0
2024-12-13 15:40:30.461,-0.519542,2.66471,6.6676,0.0750579,0.280303,0.0662769,0
2024-12-13 15:40:30.463,-0.538684,2.69342,6.51207,0.0988809,0.283968,0.0729962,0
2024-12-13 15:40:30.465,-0.562612,2.74128,6.35145,0.116595,0.283968,0.0772722,0
2024-12-13 15:40:30.468,-0.584148,2.8011,6.21267,0.133088,0.282135,0.0870457,0
2024-12-13 15:40:30.470,-0.581755,2.84895,6.07388,0.145305,0.279081,0.0962084,0
2024-12-13 15:40:30.472,-0.584148,2.88245,5.92313,0.154468,0.268696,0.104149,0
2024-12-13 15:40:30.475,-0.562612,2.89442,5.77448,0.164852,0.260145,0.113312,0
2024-12-13 15:40:30.477,-0.521934,2.90638,5.64287,0.17035,0.245484,0.120031,0
2024-12-13 15:40:30.479,-0.514756,2.9327,5.50409,0.175237,0.231435,0.128583,0
2024-12-13 15:40:30.482,-0.531506,2.94706,5.38445,0.175848,0.212498,0.13599,0
2024-12-13 15:40:30.484,-0.545863,2.96381,5.27169,0.177069,0.188675,0.142709,0
2024-12-13 15:40:30.486,-0.548256,2.97817,5.15444,0.174626,0.163631,0.150039,0
2024-12-13 15:40:30.489,-0.54347,2.99731,5.0659,0.172183,0.139197,0.159813,0
2024-12-13 15:40:30.491,-0.54347,3.02363,4.99651,0.170961,0.113541,0.167143,0
2024-12-13 15:40:30.493,-0.565005,3.06192,4.91037,0.166685,0.0897182,0.173862,0
2024-12-13 15:40:30.496,-0.574577,3.10289,4.83859,0.159966,0.0658951,0.182414,0
2024-12-13 15:40:30.498,-0.567398,3.14596,4.7689,0.153857,0.0445155,0.190966,0
2024-12-13 15:40:30.501,-0.548256,3.17707,4.68515,0.146527,0.0231358,0.197685,0
2024-12-13 15:40:30.503,-0.517149,3.19621,4.62054,0.139197,0.00603212,0.205626,0
2024-12-13 15:40:30.506,-0.498006,3.22014,4.55593,0.118428,-0.0202343,0.213567,0
2024-12-13 15:40:30.508,-0.476471,3.23928,4.47936,0.118428,-0.0202343,0.213567,0
2024-12-13 15:40:30.510,-0.447757,3.268,4.41954,0.1056,-0.0312296,0.219676,0
2024-12-13 15:40:30.512,-0.421436,3.30628,4.37647,0.0921616,-0.0397814,0.22273,0
2024-12-13 15:40:30.515,-0.397508,3.335,4.33101,0.0732253,-0.0452791,0.223952,0
2024-12-13 15:40:30.517,-0.385544,3.3685,4.27358,0.0548999,-0.0483333,0.224563,0
2024-12-13 15:40:30.519,-0.359223,3.39003,4.22572,0.0377962,-0.049555,0.226395,0
2024-12-13 15:40:30.522,-0.330509,3.4355,4.18235,0.0176382,-0.0501658,0.227617,0
2024-12-13 15:40:30.526,-0.304188,3.51207,4.12014,-0.0281753,-0.0385597,0.228839,0
2024-12-13 15:40:30.526,-0.304188,3.51207,4.12014,-0.0281753,-0.0385597,0.228839,0
2024-12-13 15:40:30.529,-0.27996,3.55753,4.09382,-0.0532201,-0.0330621,0.230671,0
2024-12-13 15:40:30.531,-0.27996,3.59342,4.08186,-0.0788757,-0.0238994,0.231282,0
2024-12-13 15:40:30.534,-0.275175,3.62214,4.07229,-0.106975,-0.00984991,0.233725,0
2024-12-13 15:40:30.538,-0.256032,3.69422,4.04596,-0.157064,0.0194708,0.238001,0
2024-12-13 15:40:30.538,-0.256032,3.69422,4.04596,-0.157064,0.0194708,0.238001,0
2024-12-13 15:40:30.541,-0.241675,3.7349,4.06032,-0.157064,0.0194708,0.238001,0
2024-12-13 15:40:30.543,-0.210568,3.766,4.06989,-0.213262,0.0622301,0.242277,0
2024-12-13 15:40:30.545,-0.184247,3.7995,4.08664,-0.243194,0.0836097,0.244721,0
2024-12-13 15:40:30.548,-0.148355,3.84018,4.12014,-0.272514,0.104379,0.246553,0
2024-12-13 15:40:30.550,-0.117248,3.87607,4.15125,-0.303057,0.122704,0.25144,0
2024-12-13 15:40:30.552,-0.0909273,3.91197,4.17518,-0.303057,0.122704,0.25144,0
2024-12-13 15:40:30.555,-0.0717847,3.94307,4.21855,-0.366585,0.161798,0.255105,0
2024-12-13 15:40:30.557,-0.0598206,3.98136,4.26162,-0.366585,0.161798,0.255105,0
2024-12-13 15:40:30.559,-0.0358923,4.02921,4.30469,-0.42828,0.194784,0.262435,0
2024-12-13 15:40:30.562,-0.0191426,4.07707,4.37169,-0.459433,0.209444,0.265489,0
2024-12-13 15:40:30.564,-0.0167498,4.09861,4.42194,-0.488754,0.22044,0.264268,0
2024-12-13 15:40:30.567,-0.0167498,4.12014,4.49611,-0.520518,0.232656,0.2661,0
2024-12-13 15:40:30.569,-0.040678,4.14407,4.58943,-0.552893,0.243652,0.268544,0
2024-12-13 15:40:30.571,-0.0741775,4.16561,4.68036,-0.580381,0.250982,0.267933,0
2024-12-13 15:40:30.574,-0.0909273,4.21615,4.79312,-0.607259,0.258312,0.269155,0
2024-12-13 15:40:30.576,-0.105284,4.25205,4.92712,-0.634747,0.260755,0.267322,0
2024-12-13 15:40:30.578,-0.122034,4.28794,5.06112,-0.664067,0.266253,0.265489,0
2024-12-13 15:40:30.581,-0.122034,4.32862,5.18794,-0.690334,0.269307,0.264879,0
2024-12-13 15:40:30.583,-0.122034,4.3669,5.32194,-0.714157,0.274194,0.264268,0
2024-12-13 15:40:30.585,-0.133998,4.41954,5.46341,-0.737369,0.282135,0.262435,0
2024-12-13 15:40:30.588,-0.133998,4.46022,5.61895,-0.759359,0.288854,0.258159,0
2024-12-13 15:40:30.590,-0.117248,4.49133,5.79362,-0.780128,0.298628,0.25877,0
2024-12-13 15:40:30.592,-0.107677,4.53918,5.98295,-0.802119,0.310845,0.257548,0
2024-12-13 15:40:30.595,-0.0933201,4.57747,6.1672,-0.821055,0.324894,0.254494,0
2024-12-13 15:40:30.599,-0.0861416,4.64925,6.51925,-0.855263,0.352383,0.250218,0
2024-12-13 15:40:30.599,-0.0885344,4.64925,6.51925,-0.855263,0.352383,0.250218,0
2024-12-13 15:40:30.602,-0.0789631,4.68515,6.68196,-0.871755,0.368875,0.248386,0
2024-12-13 15:40:30.604,-0.0741775,4.71147,6.8351,-0.886416,0.382925,0.246553,0
2024-12-13 15:40:30.607,-0.0693919,4.7665,6.97867,-0.899854,0.396364,0.247775,0
2024-12-13 15:40:30.609,-0.066999,4.82184,7.11536,-0.912682,0.406137,0.246553,0
2024-12-13 15:40:30.611,-0.0622134,4.87448,7.24936,-0.924899,0.413467,0.245332,0
2024-12-13 15:40:30.615,-0.0526421,4.93191,7.36421,-0.949333,0.421408,0.244721,0
2024-12-13 15:40:30.616,-0.0334995,4.97498,7.47667,-0.949333,0.421408,0.244721,0
2024-12-13 15:40:30.618,-0.0167498,5.02523,7.60618,-0.957885,0.419576,0.241666,0
2024-12-13 15:40:30.621,-0.0143569,5.08983,7.7354,-0.967048,0.415911,0.238001,0
2024-12-13 15:40:30.625,-0.0358923,5.17837,8.02493,-0.987816,0.40125,0.232504,0
2024-12-13 15:40:30.625,-0.0358923,5.17837,8.02493,-0.987816,0.40125,0.232504,0
2024-12-13 15:40:30.628,-0.0550349,5.22383,8.1999,-0.998812,0.392698,0.230671,0
2024-12-13 15:40:30.630,-0.081356,5.27408,8.37219,-1.00553,0.37926,0.227006,0
2024-12-13 15:40:30.632,-0.0981057,5.30997,8.54926,-1.01347,0.370097,0.223341,0
2024-12-13 15:40:30.635,-0.107677,5.33899,8.72902,-1.02019,0.358491,0.221508,0
2024-12-13 15:40:30.637,-0.124427,5.37009,8.90369,-1.0263,0.346274,0.217233,0
2024-12-13 15:40:30.640,-0.114855,5.41556,9.09512,-1.02813,0.340166,0.211735,0
2024-12-13 15:40:30.642,-0.100499,5.45384,9.29642,-1.03119,0.331614,0.207459,0
2024-12-13 15:40:30.647,-0.0717847,5.51366,9.7343,-1.03668,0.324284,0.198907,0
2024-12-13 15:40:30.647,-0.0717847,5.51366,9.7343,-1.03668,0.324284,0.198907,0
2024-12-13 15:40:30.649,-0.0526421,5.5352,9.95235,-1.03546,0.323673,0.195853,0
2024-12-13 15:40:30.651,-0.0239282,5.54955,10.1629,-1.03668,0.320008,0.189134,0
2024-12-13 15:40:30.654,-0.0119641,5.5663,10.3834,-1.03424,0.317564,0.182414,0
2024-12-13 15:40:30.656,-0.00717847,5.59262,10.625,-1.03058,0.316343,0.176917,0
2024-12-13 15:40:30.658,-0.00239282,5.62134,10.8643,-1.02386,0.312677,0.170808,0
2024-12-13 15:40:30.661,0.0,5.65484,11.1087,-1.01286,0.309623,0.163478,0
2024-12-13 15:40:30.663,0.00478565,5.67398,11.3504,-1.00064,0.306569,0.159202,0
2024-12-13 15:40:30.665,0.0167498,5.68595,11.6115,-0.985373,0.303515,0.154315,0
2024-12-13 15:40:30.668,0.0311067,5.71466,11.8866,-0.966437,0.296795,0.15065,0
2024-12-13 15:40:30.670,0.0454636,5.73141,12.1645,-0.939559,0.291298,0.145153,0
2024-12-13 15:40:30.672,0.0693919,5.74577,12.4158,-0.91146,0.281524,0.139044,0
2024-12-13 15:40:30.675,0.107677,5.77448,12.6434,-0.87542,0.269918,0.134157,0
2024-12-13 15:40:30.677,0.155533,5.80559,12.8563,-0.837548,0.25648,0.124918,0
2024-12-13 15:40:30.680,0.217747,5.84866,13.0382,-0.796621,0.240597,0.116977,0
2024-12-13 15:40:30.682,0.285045,5.91356,13.2012,-0.748975,0.22105,0.106593,0
2024-12-13 15:40:30.684,0.342473,5.99253,13.3208,-0.702551,0.197227,0.0962084,0
2024-12-13 15:40:30.687,0.404686,6.05713,13.4142,-0.654905,0.173404,0.0815481,0
2024-12-13 15:40:30.689,0.442971,6.12652,13.474,-0.604815,0.147138,0.0662769,0
2024-12-13 15:40:30.691,0.462114,6.21267,13.4836,-0.555947,0.117817,0.0497841,0
2024-12-13 15:40:30.694,0.490828,6.27249,13.474,-0.50708,0.086664,0.0326803,0
2024-12-13 15:40:30.696,0.517149,6.33948,13.4644,-0.456379,0.0561216,0.0149658,0
2024-12-13 15:40:30.698,0.548256,6.41605,13.4524,-0.411787,0.0249684,-0.00458135,0
2024-12-13 15:40:30.701,0.574577,6.469,13.4357,-0.367806,-0.0110716,-0.025961,0
2024-12-13 15:40:30.703,0.593719,6.51207,13.4166,-0.323215,-0.0452791,-0.0455081,0
2024-12-13 15:40:30.705,0.596112,6.55753,13.3831,-0.284731,-0.081319,-0.0662769,0
2024-12-13 15:40:30.708,0.596112,6.59821,13.34,-0.246248,-0.114305,-0.085824,0
2024-12-13 15:40:30.710,0.608076,6.64606,13.2945,-0.210208,-0.144847,-0.10476,0
2024-12-13 15:40:30.713,0.62004,6.69631,13.2634,-0.177833,-0.172335,-0.12614,0
2024-12-13 15:40:30.715,0.658325,6.74178,13.2515,-0.146069,-0.201656,-0.146298,0
2024-12-13 15:40:30.717,0.699003,6.79203,13.2371,-0.116748,-0.227922,-0.166456,0
2024-12-13 15:40:30.720,0.737288,6.85903,13.2156,-0.0898709,-0.251745,-0.188446,0
2024-12-13 15:40:30.722,0.797109,6.93081,13.2084,-0.0623828,-0.272514,-0.211659,0
2024-12-13 15:40:30.724,0.85005,7.0002,13.218,-0.0391706,-0.293894,-0.229984,0
2024-12-13 15:40:30.727,0.864407,7.06989,13.1964,-0.0165692,-0.31283,-0.250142,0
2024-12-13 15:40:30.729,0.876371,7.15604,13.1892,0.00603212,-0.325047,-0.271522,0
2024-12-13 15:40:30.731,0.936192,7.22543,13.2156,0.0243575,-0.337264,-0.29168,0
2024-12-13 15:40:30.734,0.984048,7.26611,13.2203,0.0451263,-0.352535,-0.311838,0
2024-12-13 15:40:30.736,0.991227,7.31157,13.2227,0.0603975,-0.364141,-0.330774,0
2024-12-13 15:40:30.738,1.00798,7.33789,13.2515,0.0756687,-0.371471,-0.352153,0
2024-12-13 15:40:30.741,1.04148,7.35225,13.2897,0.0897182,-0.372693,-0.371701,0
2024-12-13 15:40:30.743,1.07498,7.39053,13.3185,0.106822,-0.376358,-0.389415,0
2024-12-13 15:40:30.745,1.08215,7.44557,13.3567,0.120871,-0.376969,-0.410795,0
2024-12-13 15:40:30.748,1.05105,7.50539,13.3783,0.13431,-0.375747,-0.42912,0
2024-12-13 15:40:30.750,1.0008,7.56999,13.3831,0.149581,-0.374526,-0.44317,0
2024-12-13 15:40:30.753,0.933799,7.61815,13.3878,0.164852,-0.364141,-0.457219,0
2024-12-13 15:40:30.755,0.881157,7.65404,13.3998,0.179513,-0.351924,-0.470047,0
2024-12-13 15:40:30.757,0.859622,7.68754,13.4118,0.196006,-0.340929,-0.478599,0
2024-12-13 15:40:30.760,0.857229,7.70668,13.4046,0.21372,-0.332377,-0.488372,0
2024-12-13 15:40:30.762,0.854836,7.71865,13.3807,0.22777,-0.325658,-0.497535,0
2024-12-13 15:40:30.764,0.864407,7.74018,13.3376,0.243652,-0.32016,-0.507919,0
2024-12-13 15:40:30.767,0.881157,7.74736,13.2993,0.258923,-0.311608,-0.514028,0
2024-12-13 15:40:30.769,0.888335,7.7665,13.2658,0.273583,-0.306722,-0.521358,0
2024-12-13 15:40:30.771,0.895514,7.79522,13.2443,0.287022,-0.303057,-0.530521,3
2024-12-13 15:40:30.774,0.897907,7.82393,13.2299,0.297406,-0.300002,-0.539684,0
2024-12-13 15:40:30.776,0.907478,7.85504,13.194,0.310234,-0.299392,-0.54457,0
2024-12-13 15:40:30.778,0.9003,7.867,13.1459,0.324284,-0.298781,-0.55129,0
2024-12-13 15:40:30.781,0.873978,7.89572,13.1124,0.335279,-0.301835,-0.559231,0
2024-12-13 15:40:30.783,0.847657,7.91486,13.0669,0.345052,-0.3055,-0.562285,0
2024-12-13 15:40:30.786,0.818644,7.92922,12.9879,0.352993,-0.31283,-0.569615,0
2024-12-13 15:40:30.788,0.794716,7.95314,12.8827,0.359713,-0.32016,-0.578167,0
2024-12-13 15:40:30.790,0.761217,7.97229,12.7726,0.367043,-0.326269,-0.583054,0
2024-12-13 15:40:30.793,0.734896,7.98664,12.6625,0.369563,-0.336653,-0.588551,0
2024-12-13 15:40:30.795,0.73011,7.97468,12.5378,0.370173,-0.351314,-0.596492,0
2024-12-13 15:40:30.797,0.703789,7.94836,12.4134,0.36773,-0.367806,-0.603823,0
2024-12-13 15:40:30.800,0.655932,7.92443,12.3033,0.359713,-0.389797,-0.611764,0
2024-12-13 15:40:30.802,0.605683,7.87657,12.2052,0.352383,-0.416063,-0.616039,0
2024-12-13 15:40:30.804,0.54347,7.81197,12.1286,0.339555,-0.444162,-0.622148,0
2024-12-13 15:40:30.807,0.454935,7.78565,12.0688,0.323673,-0.474094,-0.628256,0
2024-12-13 15:40:30.809,0.354437,7.75933,11.9991,0.304736,-0.500971,-0.628867,0
2024-12-13 15:40:30.811,0.263211,7.70908,11.9273,0.283357,-0.522351,-0.631921,0
2024-12-13 15:40:30.814,0.174676,7.65643,11.8986,0.258312,-0.541898,-0.632532,0
2024-12-13 15:40:30.816,0.107677,7.59661,11.8914,0.22777,-0.552893,-0.6307,0
2024-12-13 15:40:30.819,0.0765703,7.51735,11.9082,0.193562,-0.560223,-0.628867,0
2024-12-13 15:40:30.821,0.0885344,7.40489,11.9656,0.157522,-0.563278,-0.628256,0
2024-12-13 15:40:30.823,0.129212,7.25893,12.035,0.119039,-0.561445,-0.628867,0
2024-12-13 15:40:30.826,0.174676,7.08664,12.1286,0.0781121,-0.554726,-0.628867,0
2024-12-13 15:40:30.828,0.198604,6.91406,12.2219,0.0335202,-0.538844,-0.627646,0
2024-12-13 15:40:30.831,0.18664,6.73939,12.3368,-0.0599394,-0.496084,-0.624591,0
2024-12-13 15:40:30.833,0.153141,6.52882,12.4804,-0.0599394,-0.496084,-0.624591,0
2024-12-13 15:40:30.835,0.100499,6.30598,12.6697,-0.104531,-0.463709,-0.621537,0
2024-12-13 15:40:30.837,0.0311067,6.08824,12.8922,-0.147291,-0.430724,-0.617872,0
2024-12-13 15:40:30.840,-0.0311067,5.84626,13.1459,-0.188217,-0.39224,-0.609931,0
2024-12-13 15:40:30.842,-0.0981057,5.58545,13.4429,-0.223036,-0.346427,-0.599547,0
2024-12-13 15:40:30.844,-0.177069,5.32433,13.7566,-0.249302,-0.298781,-0.587941,0
2024-12-13 15:40:30.847,-0.234497,5.05633,14.0845,-0.270071,-0.251135,-0.57328,0
2024-12-13 15:40:30.849,-0.285045,4.79552,14.4054,-0.283509,-0.200434,-0.557398,0
2024-12-13 15:40:30.851,-0.308973,4.55354,14.6854,-0.28412,-0.149734,-0.541516,0
2024-12-13 15:40:30.854,-0.282652,4.33101,14.9154,-0.277401,-0.102699,-0.523802,0
2024-12-13 15:40:30.856,-0.236889,4.12732,15.114,-0.257854,-0.0587177,-0.509752,0
2024-12-13 15:40:30.859,-0.177069,3.92632,15.2767,-0.231587,-0.0202343,-0.496313,0
2024-12-13 15:40:30.861,-0.0789631,3.75643,15.3652,-0.19738,0.010308,-0.485318,0
2024-12-13 15:40:30.863,0.0,3.60778,15.3891,-0.15401,0.0365745,-0.482264,0
2024-12-13 15:40:30.866,0.0502493,3.45942,15.3772,-0.105142,0.0494023,-0.479821,0
2024-12-13 15:40:30.868,0.267996,3.39242,15.2504,-0.0489441,0.0524565,-0.480431,0
2024-12-13 15:40:30.870,0.557827,3.35653,15.1188,0.00908635,0.0420721,-0.49387,0
2024-12-13 15:40:30.873,0.596112,3.26082,14.9824,0.0781121,0.0322986,-0.512806,0
2024-12-13 15:40:30.875,0.531506,3.14596,14.7404,0.151414,0.022525,-0.531132,0
2024-12-13 15:40:30.877,0.488435,3.03081,14.4867,0.232046,0.0109189,-0.549457,0
2024-12-13 15:40:30.880,0.421436,2.91117,14.1969,0.316343,-0.00496313,-0.569004,0
2024-12-13 15:40:30.882,0.347258,2.78435,13.8571,0.400105,-0.0190126,-0.584275,0
2024-12-13 15:40:30.884,0.270389,2.68624,13.474,0.486845,-0.0355055,-0.599547,0
2024-12-13 15:40:30.887,0.198604,2.59292,13.0549,0.572975,-0.0519984,-0.614207,0
2024-12-13 15:40:30.889,0.122034,2.51127,12.6168,0.652996,-0.0739889,-0.625202,0
2024-12-13 15:40:30.892,0.0622134,2.47777,12.1525,0.731184,-0.0996445,-0.634976,0
2024-12-13 15:40:30.896,-0.129212,2.42513,11.1805,0.865571,-0.168059,-0.648414,0
2024-12-13 15:40:30.896,-0.129212,2.42513,11.1805,0.865571,-0.168059,-0.648414,0
2024-12-13 15:40:30.899,-0.248854,2.39163,10.649,0.926044,-0.207764,-0.649636,0
2024-12-13 15:40:30.901,-0.41665,2.32702,10.1127,0.976134,-0.247469,-0.649025,0
2024-12-13 15:40:30.903,-0.615255,2.26002,9.6027,1.01767,-0.289618,-0.641695,0
2024-12-13 15:40:30.906,-0.76361,2.21695,9.09751,1.05554,-0.330545,-0.629478,0
2024-12-13 15:40:30.908,-0.809073,2.21216,8.56361,1.07815,-0.37758,-0.616039,0
2024-12-13 15:40:30.910,-0.727717,2.24806,8.03689,1.07815,-0.37758,-0.616039,0
2024-12-13 15:40:30.913,-0.572184,2.33181,7.5341,1.10197,-0.473483,-0.589773,0
2024-12-13 15:40:30.915,-0.3999,2.46102,7.06511,1.10075,-0.525405,-0.579389,0
2024-12-13 15:40:30.917,-0.20339,2.60728,6.61735,1.09219,-0.575494,-0.572058,0
2024-12-13 15:40:30.920,-0.0119641,2.75324,6.21506,1.07998,-0.624973,-0.571448,0
2024-12-13 15:40:30.922,0.150748,2.9016,5.87737,1.06226,-0.675063,-0.571448,0
2024-12-13 15:40:30.924,0.277567,3.04756,5.58066,1.03661,-0.72393,-0.575724,0
2024-12-13 15:40:30.928,0.387936,3.16511,5.3342,0.98041,-0.815557,-0.584886,0
2024-12-13 15:40:30.929,0.4669,3.25125,5.12573,0.98041,-0.815557,-0.584886,0
2024-12-13 15:40:30.932,0.4669,3.33021,4.9343,0.948035,-0.854041,-0.589162,0
2024-12-13 15:40:30.934,0.447757,3.39003,4.81227,0.913827,-0.885194,-0.590995,0
2024-12-13 15:40:30.936,0.462114,3.4355,4.74736,0.878398,-0.909017,-0.59466,0
2024-12-13 15:40:30.939,0.474078,3.44985,4.666,0.844191,-0.927342,-0.592216,0
2024-12-13 15:40:30.941,0.478864,3.4355,4.65165,0.809983,-0.940781,-0.590384,0
2024-12-13 15:40:30.943,0.493221,3.4355,4.68515,0.773943,-0.948722,-0.584886,0
2024-12-13 15:40:30.946,0.529113,3.41396,4.69711,0.740347,-0.949944,-0.578167,0
2024-12-13 15:40:30.948,0.576969,3.3996,4.72104,0.707972,-0.945057,-0.567783,0
2024-12-13 15:40:30.950,0.612862,3.3996,4.76172,0.674986,-0.938949,-0.555566,0
2024-12-13 15:40:30.953,0.641576,3.3996,4.80987,0.643833,-0.92551,-0.543349,0
2024-12-13 15:40:30.955,0.672682,3.40678,4.84816,0.610847,-0.907795,-0.52991,0
2024-12-13 15:40:30.957,0.703789,3.41635,4.88166,0.585192,-0.887027,-0.512806,0
2024-12-13 15:40:30.960,0.734896,3.4355,4.93191,0.554649,-0.865036,-0.496924,0
2024-12-13 15:40:30.962,0.751645,3.45942,5.0013,0.525329,-0.83877,-0.481042,0
2024-12-13 15:40:30.965,0.775574,3.48574,5.06112,0.495397,-0.809449,-0.460884,0
2024-12-13 15:40:30.967,0.811466,3.51924,5.11855,0.466687,-0.774631,-0.440115,0
2024-12-13 15:40:30.969,0.842872,3.55274,5.17837,0.436756,-0.741034,-0.420568,0
2024-12-13 15:40:30.972,0.864407,3.56471,5.25494,0.406824,-0.701329,-0.3998,0
2024-12-13 15:40:30.974,0.885943,3.61974,5.32911,0.376893,-0.657959,-0.375366,0
2024-12-13 15:40:30.976,0.897907,3.69183,5.39163,0.346885,-0.614589,-0.354597,0
2024-12-13 15:40:30.979,0.893121,3.74447,5.44906,0.316343,-0.569386,-0.331995,0
2024-12-13 15:40:30.981,0.871586,3.78036,5.50648,0.282746,-0.52174,-0.310616,0
2024-12-13 15:40:30.983,0.825823,3.78515,5.55913,0.247317,-0.474705,-0.288625,0
2024-12-13 15:40:30.986,0.777966,3.79232,5.58545,0.210666,-0.430113,-0.267857,0
2024-12-13 15:40:30.988,0.727717,3.8019,5.61416,0.172793,-0.389797,-0.245255,0
2024-12-13 15:40:30.990,0.65354,3.78754,5.67637,0.137364,-0.351314,-0.223265,0
2024-12-13 15:40:30.993,0.572184,3.75165,5.72662,0.0970484,-0.317106,-0.199442,0
2024-12-13 15:40:30.995,0.486042,3.699,5.75773,0.0616192,-0.283509,-0.175008,0
2024-12-13 15:40:30.998,0.390329,3.63649,5.82473,0.0261901,-0.2548,-0.149963,0
2024-12-13 15:40:31.000,0.311366,3.56949,5.91596,-0.00740652,-0.228533,-0.125529,0
2024-12-13 15:40:31.002,0.246461,3.49532,5.9997,-0.037338,-0.202267,-0.0998735,0
2024-12-13 15:40:31.005,0.193819,3.4355,6.08345,-0.0648262,-0.181498,-0.0742179,0
2024-12-13 15:40:31.007,0.162712,3.38046,6.19831,-0.0898709,-0.164394,-0.0510057,0
2024-12-13 15:40:31.009,0.141177,3.32782,6.31077,-0.110029,-0.149123,-0.025961,0
2024-12-13 15:40:31.012,0.136391,3.27996,6.3993,-0.1253,-0.137517,-0.00580305,0
2024-12-13 15:40:31.014,0.133998,3.2345,6.49771,-0.137517,-0.127133,0.0119115,0
2024-12-13 15:40:31.016,0.131605,3.19621,6.59103,-0.14668,-0.119802,0.0296261,0
2024-12-13 15:40:31.019,0.136391,3.16271,6.6676,-0.15401,-0.113694,0.0467298,0
2024-12-13 15:40:31.021,0.136391,3.134,6.7346,-0.156453,-0.106975,0.0613902,0
2024-12-13 15:40:31.026,0.119641,3.10289,6.85903,-0.158897,-0.102699,0.0833807,0
2024-12-13 15:40:31.026,0.11007,3.07867,6.85903,-0.158897,-0.102699,0.0833807,0
2024-12-13 15:40:31.028,0.105284,3.05474,6.91885,-0.157064,-0.100866,0.0937651,0
2024-12-13 15:40:31.030,0.0909273,3.01884,6.98824,-0.153399,-0.0996445,0.102928,0
2024-12-13 15:40:31.033,0.0765703,2.97338,7.05554,-0.147291,-0.102088,0.112701,0
2024-12-13 15:40:31.035,0.0741775,2.91356,7.10339,-0.138739,-0.105142,0.118199,0
2024-12-13 15:40:31.038,0.081356,2.86092,7.13929,-0.129576,-0.109418,0.124307,0
2024-12-13 15:40:31.040,0.0933201,2.82981,7.14407,-0.11797,-0.115526,0.12614,0
2024-12-13 15:40:31.042,0.12682,2.79153,7.14168,-0.105142,-0.122857,0.127972,0
2024-12-13 15:40:31.046,0.141177,2.74846,7.14168,-0.073378,-0.135074,0.130416,0
2024-12-13 15:40:31.047,0.141177,2.71496,7.12732,-0.073378,-0.135074,0.130416,0
2024-12-13 15:40:31.049,0.165105,2.69581,7.11057,-0.0562743,-0.142404,0.127972,0
2024-12-13 15:40:31.052,0.189033,2.68146,7.09382,-0.0361163,-0.148512,0.124307,0
2024-12-13 15:40:31.054,0.193819,2.65992,7.04118,-0.0147367,-0.157064,0.120031,0
2024-12-13 15:40:31.056,0.193819,2.6336,6.97867,0.00786466,-0.163783,0.114534,0
2024-12-13 15:40:31.059,0.22014,2.62164,6.90928,0.0298552,-0.16867,0.107204,0
2024-12-13 15:40:31.062,0.256032,2.61207,6.81596,0.0726145,-0.179665,0.0864349,0
2024-12-13 15:40:31.063,0.275175,2.59532,6.7346,0.0726145,-0.179665,0.0864349,0
2024-12-13 15:40:31.066,0.285045,2.59771,6.65085,0.0927724,-0.186996,0.0742179,0
2024-12-13 15:40:31.068,0.282652,2.60489,6.55274,0.114763,-0.191882,0.0583359,0
2024-12-13 15:40:31.071,0.260818,2.62881,6.45464,0.131256,-0.201656,0.0424539,0
2024-12-13 15:40:31.073,0.236889,2.64796,6.34188,0.147138,-0.21204,0.0271827,0
2024-12-13 15:40:31.075,0.208176,2.67428,6.24138,0.163631,-0.221814,0.0113007,0
2024-12-13 15:40:31.078,0.191426,2.70299,6.12652,0.178902,-0.231587,-0.00397051,0
2024-12-13 15:40:31.080,0.184247,2.71974,5.98774,0.192341,-0.240139,-0.0192417,0
2024-12-13 15:40:31.082,0.174676,2.74606,5.84866,0.203336,-0.247469,-0.033902,0
2024-12-13 15:40:31.087,0.167498,2.79153,5.56391,0.22105,-0.26213,-0.0632227,0
2024-12-13 15:40:31.087,0.167498,2.79153,5.56391,0.22105,-0.26213,-0.0632227,0
2024-12-13 15:40:31.089,0.172283,2.79631,5.42991,0.224715,-0.26946,-0.0760505,0
2024-12-13 15:40:31.092,0.172283,2.81545,5.32194,0.22777,-0.279234,-0.0894891,0
2024-12-13 15:40:31.094,0.167498,2.8346,5.21187,0.22777,-0.279234,-0.0894891,0
2024-12-13 15:40:31.099,0.160319,2.87288,5.02523,0.223494,-0.313441,-0.130416,0
2024-12-13 15:40:31.100,0.160319,2.87288,5.02523,0.217996,-0.32688,-0.140189,0
2024-12-13 15:40:31.101,0.165105,2.87767,4.94148,0.217996,-0.32688,-0.140189,0
2024-12-13 15:40:31.103,0.165105,2.88963,4.86491,0.211277,-0.337264,-0.151796,0
2024-12-13 15:40:31.106,0.16989,2.91835,4.79312,0.201503,-0.345205,-0.160958,0
2024-12-13 15:40:31.108,0.167498,2.94706,4.72343,0.194784,-0.353146,-0.168899,0
2024-12-13 15:40:31.111,0.167498,2.95424,4.68993,0.181345,-0.357422,-0.177451,0
2024-12-13 15:40:31.113,0.162712,2.97099,4.65883,0.169739,-0.359255,-0.181116,0
2024-12-13 15:40:31.115,0.148355,2.99492,4.61815,0.156911,-0.358033,-0.184781,0
2024-12-13 15:40:31.118,0.143569,3.02124,4.57986,0.142862,-0.358033,-0.18417,0
2024-12-13 15:40:31.120,0.136391,3.04756,4.54397,0.128812,-0.354368,-0.185392,0
2024-12-13 15:40:31.122,0.133998,3.07388,4.50568,0.111709,-0.349481,-0.182338,0
2024-12-13 15:40:31.125,0.143569,3.11964,4.4674,0.0988809,-0.344594,-0.184781,0
2024-12-13 15:40:31.128,0.172283,3.15553,4.44347,0.0597867,-0.331156,-0.175008,0
2024-12-13 15:40:31.129,0.210568,3.17468,4.41236,0.0597867,-0.331156,-0.175008,0
2024-12-13 15:40:31.132,0.244068,3.20339,4.36451,0.0396287,-0.325047,-0.173175,0
2024-12-13 15:40:31.134,0.270389,3.22732,4.34776,0.0182491,-0.317717,-0.170121,0
2024-12-13 15:40:31.136,0.289831,3.2656,4.33101,-0.00496313,-0.309776,-0.16951,0
2024-12-13 15:40:31.139,0.308973,3.30868,4.2999,-0.0312296,-0.300002,-0.167678,0
2024-12-13 15:40:31.141,0.320937,3.33739,4.2664,-0.0550526,-0.284731,-0.165234,0
2024-12-13 15:40:31.144,0.304188,3.36132,4.24726,-0.0807082,-0.267627,-0.163402,0
2024-12-13 15:40:31.146,0.277567,3.39003,4.25205,-0.0807082,-0.267627,-0.163402,0
2024-12-13 15:40:31.148,0.258425,3.40917,4.25444,-0.130187,-0.228533,-0.157904,0
2024-12-13 15:40:31.151,0.258425,3.4355,4.25205,-0.153399,-0.210819,-0.15485,0
2024-12-13 15:40:31.153,0.241675,3.47857,4.26401,-0.179055,-0.193104,-0.153628,0
2024-12-13 15:40:31.155,0.210568,3.51685,4.27837,-0.20471,-0.176,-0.151185,0
2024-12-13 15:40:31.158,0.191426,3.55035,4.27358,-0.227312,-0.159507,-0.146909,0
2024-12-13 15:40:31.160,0.193819,3.59821,4.27358,-0.251745,-0.146069,-0.145687,0
2024-12-13 15:40:31.162,0.198604,3.65593,4.28315,-0.278012,-0.130798,-0.144465,0
2024-12-13 15:40:31.165,0.174676,3.71097,4.28555,-0.301224,-0.115526,-0.142633,0
2024-12-13 15:40:31.167,0.160319,3.75883,4.29033,-0.328101,-0.100866,-0.142022,0
2024-12-13 15:40:31.169,0.148355,3.80907,4.29272,-0.352535,-0.085595,-0.141411,0
2024-12-13 15:40:31.172,0.0957129,3.86172,4.31905,-0.37758,-0.0691021,-0.144465,0
2024-12-13 15:40:31.174,0.0430708,3.89043,4.37169,-0.403846,-0.0544418,-0.142633,0
2024-12-13 15:40:31.176,0.00239282,3.92154,4.43151,-0.430724,-0.0385597,-0.1408,0
2024-12-13 15:40:31.179,-0.0358923,3.97657,4.49851,-0.453325,-0.0251211,-0.141411,0
2024-12-13 15:40:31.181,-0.0741775,4.02204,4.57029,-0.47837,-0.0110716,-0.1408,0
2024-12-13 15:40:31.184,-0.117248,4.06271,4.64686,-0.503415,-0.000687203,-0.137135,0
2024-12-13 15:40:31.186,-0.155533,4.09861,4.72822,-0.527238,0.00603212,-0.134081,0
2024-12-13 15:40:31.188,-0.196211,4.1345,4.80987,-0.553504,0.0115297,-0.132859,0
2024-12-13 15:40:31.191,-0.253639,4.19671,4.90319,-0.577327,0.0164165,-0.129805,0
2024-12-13 15:40:31.193,-0.320937,4.25922,4.99651,-0.601761,0.0206925,-0.12614,0
2024-12-13 15:40:31.195,-0.378365,4.30947,5.10419,-0.627416,0.0231358,-0.122475,0
2024-12-13 15:40:31.198,-0.431007,4.35494,5.2334,-0.65124,0.0243575,-0.118199,0
2024-12-13 15:40:31.200,-0.490828,4.41954,5.35095,-0.673841,0.0249684,-0.114534,0
2024-12-13 15:40:31.202,-0.54347,4.47936,5.48495,-0.699496,0.0243575,-0.109647,0
2024-12-13 15:40:31.205,-0.576969,4.52004,5.63809,-0.72393,0.0237467,-0.105982,0
2024-12-13 15:40:31.207,-0.60329,4.57747,5.78405,-0.747143,0.0182491,-0.102928,0
2024-12-13 15:40:31.209,-0.624826,4.64925,5.93988,-0.769133,0.0164165,-0.100484,0
2024-12-13 15:40:31.212,-0.624826,4.72343,6.10499,-0.790513,0.010308,-0.0962084,0
2024-12-13 15:40:31.214,-0.612862,4.78594,6.25813,-0.810671,0.0096972,-0.0937651,0
2024-12-13 15:40:31.217,-0.586541,4.8338,6.41127,-0.83205,0.00847551,-0.0870457,0
2024-12-13 15:40:31.219,-0.555434,4.88644,6.58146,-0.854652,0.00786466,-0.0827698,0
2024-12-13 15:40:31.221,-0.538684,4.93191,6.74656,-0.87481,0.00664296,-0.0791047,0
2024-12-13 15:40:31.224,-0.531506,4.94866,6.90928,-0.894357,0.00236703,-0.0766613,0
2024-12-13 15:40:31.226,-0.507577,4.96301,7.09621,-0.912682,0.00114534,-0.0729962,0
2024-12-13 15:40:31.228,-0.483649,4.98455,7.29003,-0.930397,0.000534491,-0.0687203,0
2024-12-13 15:40:31.231,-0.4669,4.99173,7.46471,-0.943835,-7.63559e-05,-0.0638335,0
2024-12-13 15:40:31.233,-0.452543,4.99412,7.64208,-0.958496,-0.00313059,-0.0601685,0
2024-12-13 15:40:31.235,-0.445364,5.02523,7.84068,-0.974378,-0.00618483,-0.0552817,0
2024-12-13 15:40:31.238,-0.4334,5.06351,8.05125,-0.986595,-0.0104608,-0.0497841,0
2024-12-13 15:40:31.240,-0.41665,5.08744,8.2358,-0.999422,-0.0141258,-0.0455081,0
2024-12-13 15:40:31.242,-0.411865,5.11137,8.41287,-1.00981,-0.0159584,-0.0363454,0
2024-12-13 15:40:31.245,-0.385544,5.13051,8.59472,-1.01775,-0.013515,-0.0277936,0
2024-12-13 15:40:31.247,-0.349651,5.15205,8.79362,-1.02691,-0.0147367,-0.01802,0
2024-12-13 15:40:31.250,-0.32333,5.18555,8.98744,-1.03363,-0.0159584,-0.00763559,0
2024-12-13 15:40:31.252,-0.289831,5.20947,9.16212,-1.03913,-0.0147367,0.00458135,0
2024-12-13 15:40:31.254,-0.253639,5.24058,9.35145,-1.04768,-0.0129041,0.0149658,0
2024-12-13 15:40:31.257,-0.215354,5.28604,9.54766,-1.05134,-0.00923906,0.0290152,0
2024-12-13 15:40:31.259,-0.167498,5.31715,9.73669,-1.05623,-0.00679568,0.0430647,0
2024-12-13 15:40:31.261,-0.0957129,5.35334,9.90688,-1.05684,-0.00251974,0.0565034,0
2024-12-13 15:40:31.264,-0.0287139,5.39641,10.0696,-1.05929,-7.63559e-05,0.0723854,0
2024-12-13 15:40:31.266,0.0358923,5.41556,10.2251,-1.06173,0.00175619,0.0870457,0
2024-12-13 15:40:31.268,0.119641,5.4347,10.3807,-1.05929,0.00481042,0.101095,0
2024-12-13 15:40:31.271,0.217747,5.46581,10.5174,-1.05867,0.00664296,0.114534,0
2024-12-13 15:40:31.273,0.313759,5.48255,10.6418,-1.0599,0.00847551,0.12614,0
2024-12-13 15:40:31.275,0.395115,5.46341,10.7758,-1.05623,0.010308,0.137212,0
2024-12-13 15:40:31.278,0.490828,5.45145,10.9122,-1.05379,0.0127514,0.145153,0
2024-12-13 15:40:31.280,0.581755,5.45145,11.0584,-1.05073,0.0139731,0.15065,0
2024-12-13 15:40:31.285,0.663111,5.44427,11.3025,-1.03974,0.0206925,0.15798,0
2024-12-13 15:40:31.285,0.71336,5.44188,11.3025,-1.03974,0.0206925,0.15798,0
2024-12-13 15:40:31.287,0.756431,5.43231,11.4365,-1.03424,0.0243575,0.15798,0
2024-12-13 15:40:31.290,0.813859,5.4347,11.5684,-1.02447,0.030466,0.158591,0
2024-12-13 15:40:31.292,0.854836,5.4347,11.6976,-1.0153,0.0377962,0.15798,0
2024-12-13 15:40:31.294,0.893121,5.42991,11.8412,-1.00492,0.0494023,0.153094,0
2024-12-13 15:40:31.297,0.919442,5.45384,11.9943,-0.991481,0.0591758,0.148207,0
2024-12-13 15:40:31.299,0.924228,5.47538,12.1549,-0.977432,0.0701711,0.142709,0
2024-12-13 15:40:31.301,0.94337,5.49452,12.3057,-0.959107,0.0848314,0.137212,0
2024-12-13 15:40:31.304,0.974477,5.51366,12.4301,-0.939559,0.101324,0.131027,0
2024-12-13 15:40:31.306,0.974477,5.54238,12.5904,-0.918791,0.120261,0.124918,0
2024-12-13 15:40:31.308,0.967299,5.57827,12.7606,-0.894357,0.140419,0.119421,0
2024-12-13 15:40:31.311,0.972084,5.61177,12.9114,-0.869312,0.159966,0.112701,0
2024-12-13 15:40:31.313,0.967299,5.65245,13.0645,-0.841824,0.185621,0.107815,0
2024-12-13 15:40:31.315,0.948156,5.69073,13.1964,-0.811282,0.213109,0.102317,0
2024-12-13 15:40:31.318,0.94337,5.73619,13.328,-0.78135,0.240597,0.0968193,0
2024-12-13 15:40:31.320,0.962513,5.78166,13.4477,-0.747753,0.267475,0.0925434,0
2024-12-13 15:40:31.323,0.979263,5.81516,13.5434,-0.713546,0.291298,0.0888783,0
2024-12-13 15:40:31.325,0.972084,5.85344,13.6319,-0.678117,0.312067,0.0846023,0
2024-12-13 15:40:31.327,0.969691,5.91596,13.6989,-0.643299,0.332835,0.0815481,0
2024-12-13 15:40:31.330,0.981655,5.98295,13.7519,-0.603593,0.349939,0.0784939,0
2024-12-13 15:40:31.332,0.991227,6.04517,13.7925,-0.564499,0.364599,0.0784939,0
2024-12-13 15:40:31.334,0.981655,6.12174,13.8428,-0.526016,0.374373,0.0784939,0
2024-12-13 15:40:31.337,0.969691,6.19592,13.8835,-0.486922,0.380481,0.0797156,0
2024-12-13 15:40:31.339,0.981655,6.25334,13.9026,-0.445995,0.381703,0.082159,0
2024-12-13 15:40:31.341,0.996012,6.33948,13.9122,-0.405679,0.37926,0.0876566,0
2024-12-13 15:40:31.344,1.0008,6.42563,13.9193,-0.367196,0.374373,0.0907108,0
2024-12-13 15:40:31.346,1.01994,6.50728,13.917,-0.328712,0.368265,0.0955976,0
2024-12-13 15:40:31.348,1.05344,6.58624,13.8906,-0.290229,0.35788,0.102928,0
2024-12-13 15:40:31.351,1.09173,6.64128,13.8571,-0.253578,0.345663,0.109036,0
2024-12-13 15:40:31.353,1.1324,6.7011,13.8093,-0.214484,0.333446,0.113923,0
2024-12-13 15:40:31.355,1.17787,6.7681,13.742,-0.179055,0.32184,0.120642,0
2024-12-13 15:40:31.358,1.22333,6.84228,13.6941,-0.147291,0.305958,0.126751,0
2024-12-13 15:40:31.360,1.2664,6.91406,13.6415,-0.114916,0.291298,0.132248,0
2024-12-13 15:40:31.363,1.29751,6.9667,13.5769,-0.0825407,0.276637,0.137212,0
2024-12-13 15:40:31.365,1.3334,7.01486,13.5171,-0.0532201,0.263199,0.141487,0
2024-12-13 15:40:31.367,1.35015,7.05793,13.462,-0.0269536,0.250982,0.147596,0
2024-12-13 15:40:31.370,1.34058,7.10339,13.4118,-7.63559e-05,0.243041,0.153094,0
2024-12-13 15:40:31.372,1.35494,7.17039,13.3783,0.0255792,0.235711,0.156759,0
2024-12-13 15:40:31.374,1.40548,7.23978,13.3663,0.0481806,0.227159,0.162867,0
2024-12-13 15:40:31.377,1.4342,7.30678,13.3472,0.0677277,0.216164,0.166532,0
2024-12-13 15:40:31.379,1.42463,7.3666,13.3185,0.0897182,0.205168,0.173252,0
2024-12-13 15:40:31.381,1.40279,7.44557,13.2945,0.106822,0.196616,0.177527,0
2024-12-13 15:40:31.384,1.39322,7.53649,13.273,0.121482,0.191119,0.181803,0
2024-12-13 15:40:31.386,1.41266,7.61576,13.2395,0.13431,0.183789,0.185468,0
2024-12-13 15:40:31.388,1.44138,7.7019,13.2012,0.14897,0.176459,0.189744,0
2024-12-13 15:40:31.391,1.47727,7.78325,13.1483,0.158133,0.167907,0.190966,0
2024-12-13 15:40:31.393,1.51555,7.83111,13.0884,0.16302,0.161187,0.190966,0
2024-12-13 15:40:31.396,1.55623,7.88854,13.0454,0.166685,0.158744,0.189744,0
2024-12-13 15:40:31.398,1.58734,7.94836,13.0286,0.166685,0.154468,0.189134,0
2024-12-13 15:40:31.400,1.60409,7.99382,13.0143,0.163631,0.150192,0.184247,0
2024-12-13 15:40:31.403,1.61605,8.04168,13.0119,0.161798,0.149581,0.179971,0
2024-12-13 15:40:31.405,1.61366,8.1015,13.0262,0.154468,0.14836,0.175695,0
2024-12-13 15:40:31.407,1.6017,8.15205,13.0214,0.142862,0.149581,0.168365,0
2024-12-13 15:40:31.410,1.58495,8.19512,13.0167,0.131256,0.153246,0.161645,0
2024-12-13 15:40:31.412,1.56341,8.25255,13.019,0.114152,0.156911,0.154315,0
2024-12-13 15:40:31.414,1.5347,8.29083,13.0478,0.0982701,0.164852,0.146374,0
2024-12-13 15:40:31.417,1.50598,8.32194,13.0884,0.0787229,0.173404,0.139044,0
2024-12-13 15:40:31.419,1.4677,8.32433,13.1243,0.0542891,0.181345,0.132859,0
2024-12-13 15:40:31.421,1.44616,8.29801,13.1868,0.0280226,0.188675,0.123086,0
2024-12-13 15:40:31.424,1.46291,8.27647,13.2562,-7.63559e-05,0.191119,0.115145,0
2024-12-13 15:40:31.426,1.47248,8.23819,13.3041,-0.0306187,0.193562,0.105371,0
2024-12-13 15:40:31.429,1.47248,8.17837,13.395,-0.0642153,0.194173,0.0949868,0
2024-12-13 15:40:31.431,1.47009,8.10389,13.5099,-0.101477,0.194784,0.0864349,0
2024-12-13 15:40:31.434,1.47009,8.01536,13.6223,-0.17539,0.197838,0.0693312,0
2024-12-13 15:40:31.436,1.48923,7.90289,13.7372,-0.17539,0.197838,0.0693312,0
2024-12-13 15:40:31.438,1.51555,7.76411,13.8787,-0.215705,0.199671,0.0601685,0
2024-12-13 15:40:31.440,1.55384,7.59901,14.0773,-0.2548,0.197227,0.0528383,0
2024-12-13 15:40:31.443,1.59452,7.42403,14.307,-0.293894,0.192951,0.0455081,0
2024-12-13 15:40:31.445,1.5993,7.23739,14.5298,-0.334821,0.188065,0.0357346,0
2024-12-13 15:40:31.447,1.5993,7.034,14.7787,-0.371471,0.186232,0.025961,0
2024-12-13 15:40:31.450,1.61605,6.82792,15.0326,-0.406901,0.187454,0.0174091,0
2024-12-13 15:40:31.452,1.61845,6.61017,15.3126,-0.438665,0.189286,0.0113007,0
2024-12-13 15:40:31.454,1.62562,6.37298,15.6407,-0.464931,0.192341,0.00335966,0
2024-12-13 15:40:31.457,1.64477,6.13131,15.9853,-0.482646,0.198449,-0.0051922,0
2024-12-13 15:40:31.459,1.64477,5.88933,16.3708,-0.496084,0.205779,-0.0106898,0
2024-12-13 15:40:31.461,1.6328,5.65723,16.7635,-0.499749,0.218607,-0.0186308,0
2024-12-13 15:40:31.464,1.59691,5.43231,17.1443,-0.494863,0.233878,-0.0229068,0
2024-12-13 15:40:31.466,1.54427,5.19272,17.5391,-0.478981,0.254036,-0.0253502,0
2024-12-13 15:40:31.469,1.50838,4.93191,17.9557,-0.451492,0.275416,-0.0277936,0
2024-12-13 15:40:31.471,1.47966,4.64686,18.3389,-0.41362,0.303515,-0.0308478,0
2024-12-13 15:40:31.473,1.48205,4.3334,18.7002,-0.361698,0.337722,-0.0308478,0
2024-12-13 15:40:31.476,1.48923,4.01486,19.0379,-0.301224,0.376816,-0.0332912,0
2024-12-13 15:40:31.478,1.48205,3.69183,19.3155,-0.226701,0.423852,-0.0351237,0
2024-12-13 15:40:31.480,1.47009,3.37328,19.5646,-0.137517,0.479439,-0.0363454,0
2024-12-13 15:40:31.483,1.44377,3.08345,19.7632,-0.037338,0.539302,-0.033902,0
2024-12-13 15:40:31.485,1.39322,2.81306,19.8613,0.074447,0.605884,-0.0332912,3
2024-12-13 15:40:31.487,1.34058,2.54746,19.8805,0.198449,0.676742,-0.0308478,0
2024-12-13 15:40:31.490,1.28554,2.31027,19.8302,0.328559,0.746455,-0.0277936,0
2024-12-13 15:40:31.492,1.20897,2.11645,19.6699,0.465466,0.813649,-0.0204634,0
2024-12-13 15:40:31.494,1.11565,1.9657,19.433,0.611458,0.879009,-0.0155766,0
2024-12-13 15:40:31.497,0.996012,1.86251,19.1216,0.758672,0.936429,-0.00824644,0
2024-12-13 15:40:31.499,0.854836,1.79791,18.7313,0.906497,0.981632,0.00213797,0
2024-12-13 15:40:31.502,0.699003,1.76201,18.2815,1.05188,1.01767,0.0119115,0
2024-12-13 15:40:31.504,0.541077,1.75244,17.7476,1.19421,1.04149,0.0222959,0
2024-12-13 15:40:31.506,0.407079,1.76441,17.1562,1.33165,1.05432,0.0332912,0
2024-12-13 15:40:31.509,0.275175,1.77876,16.5359,1.46237,1.06165,0.046119,0
2024-12-13 15:40:31.512,0.148355,1.79312,15.8824,1.7061,1.04821,0.0717745,0
2024-12-13 15:40:31.513,0.0502493,1.82662,15.2121,1.7061,1.04821,0.0717745,0
2024-12-13 15:40:31.516,-0.0358923,1.86491,14.5131,1.82399,1.03722,0.0827698,0
2024-12-13 15:40:31.518,-0.119641,1.88883,13.7638,1.92783,1.01767,0.0925434,0
2024-12-13 15:40:31.520,-0.198604,1.91037,13.019,2.01946,0.991405,0.101095,0
2024-12-13 15:40:31.523,-0.256032,1.95105,12.2913,2.10376,0.957198,0.110258,0
2024-12-13 15:40:31.525,-0.316152,1.99202,11.5612,2.1795,0.918714,0.114534,0
2024-12-13 15:40:31.527,-0.392722,2.03749,10.8452,2.24303,0.87229,0.118199,0
2024-12-13 15:40:31.530,-0.490828,2.10449,10.1294,2.29617,0.8222,0.121253,0
2024-12-13 15:40:31.532,-0.586541,2.18345,9.43041,2.34077,0.766002,0.120642,0
2024-12-13 15:40:31.534,-0.667897,2.26481,8.75534,2.37192,0.707361,0.120642,0
2024-12-13 15:40:31.537,-0.74686,2.34616,8.08953,2.39452,0.640702,0.120642,0
2024-12-13 15:40:31.540,-0.82343,2.44905,7.47667,2.40674,0.498375,0.115145,0
2024-12-13 15:40:31.542,-0.895514,2.55942,6.90928,2.40674,0.498375,0.115145,0
2024-12-13 15:40:31.549,-1.13001,2.8681,5.43231,2.35054,0.246706,0.0998735,0
2024-12-13 15:40:31.549,-1.13001,2.8681,5.43231,2.35054,0.246706,0.0998735,0
2024-12-13 15:40:31.549,-1.13001,2.8681,5.43231,2.35054,0.246706,0.0998735,0
2024-12-13 15:40:31.551,-1.21615,2.95902,5.01805,2.30961,0.158744,0.0925434,0
2024-12-13 15:40:31.553,-1.31186,3.05474,4.65643,2.26013,0.0726145,0.0846023,0
2024-12-13 15:40:31.556,-1.39083,3.14118,4.34058,2.2076,-0.0104608,0.0766613,0
2024-12-13 15:40:31.558,-1.47488,3.22014,4.07707,2.14835,-0.0904818,0.0681095,0
2024-12-13 15:40:31.560,-1.55384,3.29193,3.86411,2.08299,-0.165616,0.0595576,0
2024-12-13 15:40:31.563,-1.58973,3.34696,3.69422,2.01274,-0.232809,0.0497841,0
2024-12-13 15:40:31.565,-1.5993,3.39482,3.58385,1.94188,-0.295116,0.0400105,0
2024-12-13 15:40:31.567,-1.62323,3.42353,3.53121,1.87164,-0.348259,0.0302369,0
2024-12-13 15:40:31.570,-1.64477,3.44507,3.52642,1.79833,-0.391629,0.0210742,0
2024-12-13 15:40:31.572,-1.62802,3.45703,3.55274,1.72687,-0.419728,0.0125224,0
2024-12-13 15:40:31.575,-1.5993,3.45703,3.60778,1.65479,-0.441108,0.00397051,0
2024-12-13 15:40:31.577,-1.5658,3.47139,3.69183,1.58515,-0.451492,-0.00763559,0
2024-12-13 15:40:31.579,-1.52752,3.47857,3.78754,1.51857,-0.450882,-0.0167983,0
2024-12-13 15:40:31.582,-1.48684,3.48096,3.90957,1.45565,-0.44233,-0.0277936,0
2024-12-13 15:40:31.584,-1.4677,3.49532,4.05554,1.39456,-0.425837,-0.0345129,0
2024-12-13 15:40:31.586,-1.45095,3.49771,4.1991,1.33898,-0.403846,-0.0424539,0
2024-12-13 15:40:31.589,-1.41027,3.49292,4.32383,1.28828,-0.376969,-0.0455081,0
2024-12-13 15:40:31.591,-1.37647,3.49771,4.43151,1.23941,-0.350092,-0.0485624,0
2024-12-13 15:40:31.593,-1.32383,3.52164,4.54397,1.18993,-0.321382,-0.0491732,0
2024-12-13 15:40:31.596,-1.27597,3.51446,4.64447,1.14656,-0.295726,-0.0503949,0
2024-12-13 15:40:31.598,-1.24008,3.50967,4.68754,1.10563,-0.273736,-0.0497841,0
2024-12-13 15:40:31.600,-1.20897,3.51924,4.72104,1.05982,-0.256021,-0.0516166,0
2024-12-13 15:40:31.603,-1.18026,3.50489,4.74497,1.02256,-0.240139,-0.0510057,0
2024-12-13 15:40:31.605,-1.17069,3.48574,4.74018,0.981632,-0.228533,-0.0455081,0
2024-12-13 15:40:31.610,-1.10608,3.42832,4.7354,0.907719,-0.215705,-0.0430647,0
2024-12-13 15:40:31.610,-1.10608,3.42832,4.7354,0.907719,-0.215705,-0.0430647,0
2024-12-13 15:40:31.612,-1.05823,3.40917,4.7354,0.871068,-0.214484,-0.0406213,0
2024-12-13 15:40:31.615,-1.01276,3.39721,4.7354,0.835639,-0.215095,-0.0363454,0
2024-12-13 15:40:31.619,-0.914656,3.38285,4.73779,0.766002,-0.230366,-0.0357346,0
2024-12-13 15:40:31.619,-0.914656,3.38285,4.73779,0.766002,-0.230366,-0.0357346,0
2024-12-13 15:40:31.622,-0.825823,3.38764,4.74975,0.733628,-0.243804,-0.0351237,0
2024-12-13 15:40:31.624,-0.739681,3.38285,4.7665,0.704307,-0.263352,-0.0351237,0
2024-12-13 15:40:31.626,-0.720539,3.31585,4.733,0.674375,-0.283509,-0.0357346,0
2024-12-13 15:40:31.629,-0.658325,3.3015,4.68993,0.642,-0.296948,-0.041843,0
2024-12-13 15:40:31.631,-0.505185,3.39003,4.68993,0.609626,-0.313441,-0.0479515,0
2024-12-13 15:40:31.633,-0.375972,3.44746,4.68993,0.578472,-0.339097,-0.0565034,0
2024-12-13 15:40:31.636,-0.294616,3.45942,4.71625,0.547319,-0.372082,-0.0638335,0
2024-12-13 15:40:31.638,-0.270389,3.47857,4.80509,0.522274,-0.410566,-0.0711637,0
2024-12-13 15:40:31.640,-0.260818,3.48814,4.88644,0.498451,-0.450271,-0.0766613,0
2024-12-13 15:40:31.643,-0.248854,3.49053,4.91994,0.472796,-0.494252,-0.0827698,0
2024-12-13 15:40:31.648,-0.267996,3.45703,4.95823,0.426982,-0.576716,-0.0925434,0
2024-12-13 15:40:31.648,-0.270389,3.45703,4.95823,0.426982,-0.576716,-0.0925434,0
2024-12-13 15:40:31.650,-0.265603,3.42114,4.97019,0.403159,-0.616421,-0.0949868,0
2024-12-13 15:40:31.652,-0.258425,3.38525,5.0013,0.379947,-0.653072,-0.0992627,0
2024-12-13 15:40:31.655,-0.251246,3.34218,5.04198,0.359713,-0.681782,-0.103539,0
2024-12-13 15:40:31.657,-0.253639,3.28953,5.07548,0.337722,-0.706827,-0.105982,0
2024-12-13 15:40:31.659,-0.224925,3.21775,5.09462,0.312677,-0.730039,-0.106593,0
2024-12-13 15:40:31.662,-0.184247,3.15075,5.11615,0.290687,-0.745921,-0.110258,0
2024-12-13 15:40:31.664,-0.138784,3.09332,5.15922,0.268086,-0.758138,-0.113923,0
2024-12-13 15:40:31.666,-0.0837488,3.05952,5.2023,0.245484,-0.7673,-0.114534,0
2024-12-13 15:40:31.669,-0.0430708,3.05234,5.25015,0.224105,-0.769133,-0.115756,0
2024-12-13 15:40:31.671,-0.00478565,3.03799,5.31237,0.224105,-0.769133,-0.115756,0
2024-12-13 15:40:31.673,0.0382852,3.01406,5.37249,0.189897,-0.768522,-0.120642,0
2024-12-13 15:40:31.676,0.0646062,2.9997,5.4347,0.174015,-0.763635,-0.119421,0
2024-12-13 15:40:31.678,0.0933201,2.9686,5.5017,0.16302,-0.755084,-0.120642,0
2024-12-13 15:40:31.681,0.119641,2.9351,5.5352,0.150192,-0.738591,-0.11881,0
2024-12-13 15:40:31.683,0.153141,2.90638,5.57587,0.14164,-0.7166,-0.116977,0
2024-12-13 15:40:31.685,0.212961,2.87288,5.62134,0.131867,-0.691555,-0.115756,0
2024-12-13 15:40:31.688,0.258425,2.87288,5.63809,0.124536,-0.663456,-0.11209,0
2024-12-13 15:40:31.690,0.299402,2.88245,5.65962,0.116595,-0.633525,-0.107815,0
2024-12-13 15:40:31.692,0.35683,2.87767,5.67398,0.111098,-0.600539,-0.106593,0
2024-12-13 15:40:31.695,0.4334,2.87528,5.68834,0.107433,-0.573051,-0.10476,0
2024-12-13 15:40:31.697,0.529113,2.88724,5.71466,0.103768,-0.544952,-0.101095,0
2024-12-13 15:40:31.699,0.617647,2.9016,5.71466,0.103157,-0.517464,-0.0998735,0
2024-12-13 15:40:31.702,0.675075,2.91835,5.70509,0.0982701,-0.491198,-0.0986518,0
2024-12-13 15:40:31.704,0.720539,2.9327,5.70748,0.0939941,-0.466153,-0.0968193,0
2024-12-13 15:40:31.706,0.766002,2.93988,5.71705,0.094605,-0.438054,-0.0943759,0
2024-12-13 15:40:31.709,0.801895,2.96142,5.70987,0.0939941,-0.408733,-0.0901,0
2024-12-13 15:40:31.711,0.833001,2.97577,5.69073,0.0958267,-0.379413,-0.0864349,0
2024-12-13 15:40:31.713,0.873978,2.97817,5.69312,0.0976592,-0.355589,-0.0846023,0
2024-12-13 15:40:31.716,0.905085,2.97817,5.6668,0.101935,-0.328712,-0.0797156,0
2024-12-13 15:40:31.718,0.919442,2.95663,5.63091,0.106822,-0.303057,-0.0742179,0
2024-12-13 15:40:31.721,0.96012,2.94945,5.60459,0.110487,-0.27679,-0.0717745,0
2024-12-13 15:40:31.723,1.00798,2.94706,5.55913,0.115985,-0.252356,-0.0668878,0
2024-12-13 15:40:31.725,1.05344,2.94227,5.50888,0.120261,-0.229144,-0.0607793,0
2024-12-13 15:40:31.728,1.10608,2.94706,5.44666,0.125758,-0.210208,-0.0595576,0
2024-12-13 15:40:31.730,1.14676,2.94227,5.36531,0.129423,-0.19005,-0.0583359,0
2024-12-13 15:40:31.732,1.20419,2.94706,5.28126,0.131256,-0.169281,-0.0583359,0
2024-12-13 15:40:31.735,1.26401,2.9662,5.19272,0.13431,-0.148512,-0.062001,0
2024-12-13 15:40:31.737,1.29512,2.9686,5.08983,0.133088,-0.126522,-0.0650552,0
2024-12-13 15:40:31.739,1.30469,2.97577,4.99412,0.133088,-0.105753,-0.0693312,0
2024-12-13 15:40:31.742,1.31665,2.99492,4.90319,0.131256,-0.0825407,-0.077883,0
2024-12-13 15:40:31.744,1.32144,3.01406,4.79552,0.125147,-0.0605502,-0.0833807,0
2024-12-13 15:40:31.746,1.30469,3.01645,4.68993,0.117206,-0.037338,-0.0919325,0
2024-12-13 15:40:31.749,1.25922,3.0332,4.57747,0.110487,-0.0159584,-0.101706,0
2024-12-13 15:40:31.751,1.21137,3.05713,4.46022,0.0964375,0.00236703,-0.110869,0
2024-12-13 15:40:31.754,1.16351,3.08345,4.3669,0.0854423,0.0206925,-0.121864,0
2024-12-13 15:40:31.756,1.11326,3.11486,4.28076,0.0683385,0.0341311,-0.13347,0
2024-12-13 15:40:31.758,1.07258,3.13639,4.21137,0.0500131,0.0500131,-0.143855,0
2024-12-13 15:40:31.761,1.00558,3.17707,4.13689,0.0310769,0.0610084,-0.153628,0
2024-12-13 15:40:31.763,0.929013,3.22253,4.05554,0.00786466,0.0720036,-0.163402,0
2024-12-13 15:40:31.765,0.857229,3.27996,4.00768,-0.013515,0.0787229,-0.175008,0
2024-12-13 15:40:31.768,0.799502,3.335,3.96222,-0.0385597,0.086664,-0.182949,0
2024-12-13 15:40:31.770,0.758824,3.37567,3.93111,-0.0642153,0.0915507,-0.192111,0
2024-12-13 15:40:31.772,0.703789,3.40678,3.9335,-0.0886492,0.094605,-0.198831,0
2024-12-13 15:40:31.775,0.65354,3.4331,3.9335,-0.116748,0.0958267,-0.204939,0
2024-12-13 15:40:31.779,0.610469,3.50249,3.90239,-0.172335,0.0927724,-0.216545,0
2024-12-13 15:40:31.780,0.610469,3.50249,3.90239,-0.172335,0.0927724,-0.216545,0
2024-12-13 15:40:31.782,0.596112,3.55274,3.9,-0.19738,0.0933833,-0.220821,0
2024-12-13 15:40:31.784,0.576969,3.60778,3.89522,-0.223646,0.0921616,-0.225097,0
2024-12-13 15:40:31.787,0.562612,3.65115,3.91197,-0.250524,0.0897182,-0.231206,0
2024-12-13 15:40:31.789,0.529113,3.70858,3.94547,-0.271903,0.0891073,-0.233038,0
2024-12-13 15:40:31.791,0.481256,3.75165,3.967,-0.295726,0.0836097,-0.236092,0
2024-12-13 15:40:31.794,0.440578,3.79472,3.98854,-0.318939,0.0817772,-0.240368,0
2024-12-13 15:40:31.796,0.402293,3.84736,4.01246,-0.340929,0.0781121,-0.24159,0
2024-12-13 15:40:31.798,0.337687,3.89043,4.02443,-0.361698,0.074447,-0.242201,0
2024-12-13 15:40:31.801,0.275175,3.95264,4.03639,-0.387964,0.0701711,-0.239758,0
2024-12-13 15:40:31.803,0.236889,4.02204,4.04357,-0.409955,0.0658951,-0.239758,0
2024-12-13 15:40:31.805,0.193819,4.07468,4.05554,-0.433778,0.0646735,-0.239758,0
2024-12-13 15:40:31.808,0.150748,4.1345,4.0675,-0.458823,0.0591758,-0.237314,0
2024-12-13 15:40:31.810,0.0957129,4.20389,4.08664,-0.483257,0.0536782,-0.237314,0
2024-12-13 15:40:31.812,0.0358923,4.24965,4.12014,-0.508912,0.046348,-0.234871,0
2024-12-13 15:40:31.815,-0.0191426,4.29512,4.16082,-0.535179,0.0420721,-0.231206,0
2024-12-13 15:40:31.817,-0.066999,4.34776,4.21376,-0.563278,0.0365745,-0.228762,0
2024-12-13 15:40:31.819,-0.129212,4.39322,4.27597,-0.588933,0.0292443,-0.225708,0
2024-12-13 15:40:31.822,-0.179462,4.44586,4.35733,-0.617643,0.0219141,-0.22021,0
2024-12-13 15:40:31.824,-0.217747,4.47697,4.45544,-0.642077,0.0151948,-0.215935,0
2024-12-13 15:40:31.827,-0.244068,4.52004,4.54636,-0.668343,0.00297788,-0.209826,0
2024-12-13 15:40:31.829,-0.236889,4.5679,4.6349,-0.693999,-0.00679568,-0.204939,0
2024-12-13 15:40:31.831,-0.227318,4.60379,4.75454,-0.721487,-0.0196235,-0.199442,0
2024-12-13 15:40:31.834,-0.217747,4.64925,4.87209,-0.749586,-0.0330621,-0.193944,0
2024-12-13 15:40:31.836,-0.232104,4.69233,4.97258,-0.775852,-0.0446682,-0.187225,0
2024-12-13 15:40:31.838,-0.248854,4.74018,5.08983,-0.80273,-0.0562743,-0.182338,0
2024-12-13 15:40:31.841,-0.260818,4.79312,5.21426,-0.828996,-0.0636045,-0.17684,0
2024-12-13 15:40:31.843,-0.285045,4.84816,5.34138,-0.85343,-0.0678804,-0.171343,0
2024-12-13 15:40:31.845,-0.289831,4.89123,5.48495,-0.877864,-0.0703238,-0.163402,0
2024-12-13 15:40:31.848,-0.292223,4.91516,5.64048,-0.900465,-0.0752106,-0.154239,0
2024-12-13 15:40:31.850,-0.267996,4.92951,5.8008,-0.922456,-0.077654,-0.146298,0
2024-12-13 15:40:31.852,-0.234497,4.93909,5.95903,-0.942003,-0.0800973,-0.138968,0
2024-12-13 15:40:31.855,-0.193819,4.94626,6.10499,-0.960328,-0.085595,-0.132248,0
2024-12-13 15:40:31.857,-0.136391,4.95105,6.2677,-0.977432,-0.0886492,-0.125529,0
2024-12-13 15:40:31.860,-0.0861416,4.96062,6.41605,-0.994536,-0.0917034,-0.121864,0
2024-12-13 15:40:31.862,-0.0382852,4.96301,6.54557,-1.00859,-0.0880384,-0.116977,0
2024-12-13 15:40:31.864,0.0191426,4.97258,6.68674,-1.02263,-0.0837624,-0.115756,0
2024-12-13 15:40:31.867,0.0646062,4.97976,6.82553,-1.03546,-0.0745997,-0.114534,0
2024-12-13 15:40:31.869,0.100499,4.99651,6.94038,-1.04585,-0.0629936,-0.114534,0
2024-12-13 15:40:31.871,0.122034,5.04198,7.05554,-1.05562,-0.0489441,-0.115756,0
2024-12-13 15:40:31.874,0.138784,5.09223,7.17757,-1.06723,-0.0318404,-0.114534,0
2024-12-13 15:40:31.878,0.191426,5.15444,7.38335,-1.088,0.0121406,-0.113923,0
2024-12-13 15:40:31.878,0.191426,5.15444,7.38335,-1.088,0.0121406,-0.113923,0
2024-12-13 15:40:31.881,0.210568,5.19751,7.49582,-1.09777,0.0329094,-0.113923,0
2024-12-13 15:40:31.883,0.232104,5.22862,7.62054,-1.10754,0.0542891,-0.112701,0
2024-12-13 15:40:31.885,0.258425,5.25972,7.74497,-1.11976,0.0775012,-0.110869,0
2024-12-13 15:40:31.888,0.277567,5.29322,7.88375,-1.13014,0.0988809,-0.107204,0
2024-12-13 15:40:31.890,0.311366,5.31476,8.04168,-1.14297,0.118428,-0.10476,0
2024-12-13 15:40:31.892,0.364008,5.33659,8.19512,-1.15702,0.137364,-0.0998735,0
2024-12-13 15:40:31.897,0.486042,5.39163,8.49422,-1.18573,0.17035,-0.0925434,0
2024-12-13 15:40:31.897,0.486042,5.39163,8.49422,-1.18573,0.17035,-0.0925434,0
2024-12-13 15:40:31.900,0.557827,5.42273,8.68086,-1.20283,0.186232,-0.0901,0
2024-12-13 15:40:31.902,0.60329,5.45384,8.88216,-1.22055,0.199671,-0.0870457,0
2024-12-13 15:40:31.904,0.639183,5.48016,9.0688,-1.23765,0.208833,-0.085824,0
2024-12-13 15:40:31.907,0.677468,5.51127,9.27249,-1.25537,0.219218,-0.0839915,0
2024-12-13 15:40:31.909,0.696611,5.53998,9.47827,-1.27369,0.229602,-0.085824,0
2024-12-13 15:40:31.911,0.684646,5.57109,9.68405,-1.28774,0.237543,-0.0839915,0
2024-12-13 15:40:31.914,0.665504,5.60459,9.89013,-1.30057,0.244873,-0.0846023,0
2024-12-13 15:40:31.916,0.65354,5.64527,10.1007,-1.31218,0.254647,-0.0864349,0
2024-12-13 15:40:31.918,0.63679,5.68834,10.3256,-1.32073,0.264421,-0.0876566,0
2024-12-13 15:40:31.921,0.622433,5.72423,10.5532,-1.32561,0.269918,-0.0882674,0
2024-12-13 15:40:31.923,0.615255,5.7673,10.7973,-1.32867,0.273583,-0.0913217,0
2024-12-13 15:40:31.925,0.605683,5.81755,11.0608,-1.32867,0.273583,-0.0962084,0
2024-12-13 15:40:31.928,0.600898,5.86301,11.3145,-1.32745,0.273583,-0.102928,0
2024-12-13 15:40:31.930,0.600898,5.91835,11.5684,-1.32256,0.268696,-0.11209,0
2024-12-13 15:40:31.933,0.598505,5.98535,11.8077,-1.3134,0.25709,-0.120642,0
2024-12-13 15:40:31.935,0.600898,6.04038,12.0613,-1.30362,0.244263,-0.129805,0
2024-12-13 15:40:31.937,0.579362,6.09542,12.3392,-1.29141,0.230824,-0.1408,0
2024-12-13 15:40:31.940,0.555434,6.15524,12.6024,-1.27064,0.21372,-0.153628,0
