timestamp,accel_x,accel_y,accel_z,gyro_x,gyro_y,gyro_z,step_timestamp
2024-12-13 15:31:45.213,-0.0502493,4.60379,6.31077,0.254647,0.1056,0.00152712,0
2024-12-13 15:31:45.213,-0.0502493,4.60379,6.31077,0.254647,0.1056,0.00152712,0
2024-12-13 15:31:45.213,-0.0502493,4.60379,6.31077,0.254647,0.1056,0.00152712,0
2024-12-13 15:31:45.213,-0.0502493,4.60379,6.31077,0.254647,0.1056,0.00152712,0
2024-12-13 15:31:45.215,-0.00957129,4.60858,6.26291,0.246706,0.1056,0.00274881,0
2024-12-13 15:31:45.218,0.0358923,4.61097,6.20788,0.235711,0.104989,0.00152712,0
2024-12-13 15:31:45.218,0.0358923,4.61097,6.20788,0.235711,0.104989,0.00152712,0
2024-12-13 15:31:45.220,0.0717847,4.61336,6.18395,0.221661,0.104989,-0.000305424,0
2024-12-13 15:31:45.220,0.0717847,4.61336,6.18395,0.221661,0.104989,-0.000305424,0
2024-12-13 15:31:45.223,0.117248,4.63011,6.15284,0.210055,0.104989,-0.000916271,0
2024-12-13 15:31:45.223,0.117248,4.63011,6.15284,0.210055,0.104989,-0.000916271,0
2024-12-13 15:31:45.225,0.16989,4.65404,6.12892,0.197838,0.104379,-0.00458135,0
2024-12-13 15:31:45.225,0.16989,4.65404,6.12892,0.197838,0.104379,-0.00458135,0
2024-12-13 15:31:45.227,0.212961,4.6684,6.10977,0.183789,0.104989,-0.00885729,0
2024-12-13 15:31:45.227,0.212961,4.6684,6.10977,0.183789,0.104989,-0.00885729,0
2024-12-13 15:31:45.227,0.212961,4.6684,6.10977,0.183789,0.104989,-0.00885729,0
2024-12-13 15:31:45.230,0.241675,4.65404,6.10977,0.166685,0.106211,-0.0106898,0
2024-12-13 15:31:45.230,0.241675,4.65404,6.10977,0.166685,0.106211,-0.0106898,0
2024-12-13 15:31:45.230,0.241675,4.65404,6.10977,0.166685,0.106211,-0.0106898,0
2024-12-13 15:31:45.230,0.241675,4.65404,6.10977,0.166685,0.106211,-0.0106898,0
2024-12-13 15:31:45.232,0.265603,4.65883,6.11934,0.152025,0.103768,-0.0161875,0
2024-12-13 15:31:45.232,0.265603,4.65883,6.11934,0.152025,0.103768,-0.0161875,0
2024-12-13 15:31:45.232,0.265603,4.65883,6.11934,0.152025,0.103768,-0.0161875,0
2024-12-13 15:31:45.234,0.285045,4.68275,6.12413,0.136753,0.0988809,-0.0198525,0
2024-12-13 15:31:45.234,0.285045,4.68275,6.12413,0.136753,0.0988809,-0.0198525,0
2024-12-13 15:31:45.234,0.285045,4.68275,6.12413,0.136753,0.0988809,-0.0198525,0
2024-12-13 15:31:45.237,0.301795,4.68993,6.12413,0.119039,0.0958267,-0.0241285,0
2024-12-13 15:31:45.237,0.301795,4.68993,6.12413,0.119039,0.0958267,-0.0241285,0
2024-12-13 15:31:45.237,0.301795,4.68993,6.12413,0.119039,0.0958267,-0.0241285,0
2024-12-13 15:31:45.239,0.330509,4.69472,6.10977,0.0988809,0.0933833,-0.0265719,0
2024-12-13 15:31:45.239,0.330509,4.69472,6.10977,0.0988809,0.0933833,-0.0265719,0
2024-12-13 15:31:45.239,0.330509,4.69472,6.10977,0.0988809,0.0933833,-0.0265719,0
2024-12-13 15:31:45.239,0.330509,4.69472,6.10977,0.0988809,0.0933833,-0.0265719,0
2024-12-13 15:31:45.241,0.366401,4.68515,6.12174,0.0793338,0.0909399,-0.0296261,0
2024-12-13 15:31:45.241,0.366401,4.68515,6.12174,0.0793338,0.0909399,-0.0296261,0
2024-12-13 15:31:45.241,0.366401,4.68515,6.12174,0.0793338,0.0909399,-0.0296261,0
2024-12-13 15:31:45.241,0.366401,4.68515,6.12174,0.0793338,0.0909399,-0.0296261,0
2024-12-13 15:31:45.244,0.397508,4.666,6.17199,0.0555107,0.086664,-0.0320695,0
2024-12-13 15:31:45.244,0.397508,4.666,6.17199,0.0555107,0.086664,-0.0320695,0
2024-12-13 15:31:45.244,0.397508,4.666,6.17199,0.0555107,0.086664,-0.0320695,0
2024-12-13 15:31:45.246,0.431007,4.67079,6.23659,0.0329094,0.0848314,-0.0363454,0
2024-12-13 15:31:45.246,0.431007,4.67079,6.23659,0.0329094,0.0848314,-0.0363454,0
2024-12-13 15:31:45.246,0.431007,4.67079,6.23659,0.0329094,0.0848314,-0.0363454,0
2024-12-13 15:31:45.248,0.45015,4.66361,6.29641,0.010308,0.0842206,-0.0406213,0
2024-12-13 15:31:45.248,0.45015,4.66361,6.29641,0.010308,0.0842206,-0.0406213,0
2024-12-13 15:31:45.248,0.45015,4.66361,6.29641,0.010308,0.0842206,-0.0406213,0
2024-12-13 15:31:45.248,0.45015,4.66361,6.29641,0.010308,0.0842206,-0.0406213,0
2024-12-13 15:31:45.248,0.45015,4.66361,6.29641,0.010308,0.0842206,-0.0406213,0
2024-12-13 15:31:45.251,0.45015,4.65404,6.35623,-0.0159584,0.0829989,-0.0442864,0
2024-12-13 15:31:45.251,0.45015,4.65404,6.35623,-0.0159584,0.0829989,-0.0442864,0
2024-12-13 15:31:45.251,0.45015,4.65404,6.35623,-0.0159584,0.0829989,-0.0442864,0
2024-12-13 15:31:45.253,0.462114,4.65883,6.42802,-0.0422248,0.0781121,-0.0497841,0
2024-12-13 15:31:45.253,0.462114,4.65883,6.42802,-0.0422248,0.0781121,-0.0497841,0
2024-12-13 15:31:45.253,0.462114,4.65883,6.42802,-0.0422248,0.0781121,-0.0497841,0
2024-12-13 15:31:45.254,0.462114,4.65883,6.42802,-0.0697129,0.0768904,-0.0510057,0
2024-12-13 15:31:45.256,0.481256,4.65643,6.52403,-0.0697129,0.0768904,-0.0510057,0
2024-12-13 15:31:45.256,0.481256,4.65643,6.52403,-0.0697129,0.0768904,-0.0510057,0
2024-12-13 15:31:45.256,0.481256,4.65643,6.52403,-0.0697129,0.0768904,-0.0510057,0
2024-12-13 15:31:45.256,0.481256,4.65643,6.52403,-0.0697129,0.0768904,-0.0510057,0
2024-12-13 15:31:45.258,0.500399,4.64925,6.62692,-0.0941468,0.074447,-0.0546708,0
2024-12-13 15:31:45.258,0.500399,4.64925,6.62692,-0.0941468,0.074447,-0.0546708,0
2024-12-13 15:31:45.258,0.500399,4.64925,6.62692,-0.0941468,0.074447,-0.0546708,0
2024-12-13 15:31:45.259,0.500399,4.64925,6.62692,-0.119192,0.0701711,-0.0577251,0
2024-12-13 15:31:45.260,0.517149,4.63968,6.73939,-0.119192,0.0701711,-0.0577251,0
2024-12-13 15:31:45.260,0.517149,4.63968,6.73939,-0.119192,0.0701711,-0.0577251,0
2024-12-13 15:31:45.260,0.517149,4.63968,6.73939,-0.119192,0.0701711,-0.0577251,0
2024-12-13 15:31:45.263,0.538684,4.64447,6.87578,-0.143015,0.0683385,-0.062001,0
2024-12-13 15:31:45.263,0.538684,4.64447,6.87578,-0.143015,0.0683385,-0.062001,0
2024-12-13 15:31:45.263,0.538684,4.64447,6.87578,-0.143015,0.0683385,-0.062001,0
2024-12-13 15:31:45.263,0.538684,4.64447,6.87578,-0.143015,0.0683385,-0.062001,0
2024-12-13 15:31:45.265,0.555434,4.65165,7.01964,-0.163173,0.0713928,-0.0662769,0
2024-12-13 15:31:45.265,0.555434,4.65165,7.01964,-0.163173,0.0713928,-0.0662769,0
2024-12-13 15:31:45.265,0.555434,4.65165,7.01964,-0.163173,0.0713928,-0.0662769,0
2024-12-13 15:31:45.265,0.555434,4.65165,7.01964,-0.163173,0.0713928,-0.0662769,0
2024-12-13 15:31:45.265,0.555434,4.65165,7.01964,-0.163173,0.0713928,-0.0662769,0
2024-12-13 15:31:45.267,0.562612,4.63729,7.168,-0.183331,0.0750579,-0.069942,0
2024-12-13 15:31:45.267,0.562612,4.63729,7.168,-0.183331,0.0750579,-0.069942,0
2024-12-13 15:31:45.270,0.574577,4.61815,7.32832,-0.200434,0.0793338,-0.0742179,0
2024-12-13 15:31:45.270,0.574577,4.61815,7.32832,-0.200434,0.0793338,-0.0742179,0
2024-12-13 15:31:45.270,0.574577,4.61815,7.32832,-0.200434,0.0793338,-0.0742179,0
2024-12-13 15:31:45.270,0.574577,4.61815,7.32832,-0.200434,0.0793338,-0.0742179,0
2024-12-13 15:31:45.272,0.581755,4.62772,7.47907,-0.215095,0.0860531,-0.0772722,0
2024-12-13 15:31:45.272,0.581755,4.62772,7.47907,-0.215095,0.0860531,-0.0772722,0
2024-12-13 15:31:45.272,0.581755,4.62772,7.47907,-0.215095,0.0860531,-0.0772722,0
2024-12-13 15:31:45.274,0.586541,4.62293,7.61576,-0.227312,0.0927724,-0.0833807,0
2024-12-13 15:31:45.274,0.586541,4.62293,7.61576,-0.227312,0.0927724,-0.0833807,0
2024-12-13 15:31:45.274,0.586541,4.62293,7.61576,-0.227312,0.0927724,-0.0833807,0
2024-12-13 15:31:45.274,0.586541,4.62293,7.61576,-0.227312,0.0927724,-0.0833807,0
2024-12-13 15:31:45.274,0.586541,4.62293,7.61576,-0.227312,0.0927724,-0.0833807,0
2024-12-13 15:31:45.274,0.586541,4.62293,7.61576,-0.227312,0.0927724,-0.0833807,0
2024-12-13 15:31:45.274,0.586541,4.62293,7.61576,-0.227312,0.0927724,-0.0833807,0
2024-12-13 15:31:45.274,0.586541,4.62293,7.61576,-0.227312,0.0927724,-0.0833807,0
2024-12-13 15:31:45.274,0.586541,4.62293,7.61576,-0.227312,0.0927724,-0.0833807,0
2024-12-13 15:31:45.279,0.557827,4.57508,7.88375,-0.247469,0.102546,-0.0901,0
2024-12-13 15:31:45.279,0.557827,4.57508,7.88375,-0.247469,0.102546,-0.0901,0
2024-12-13 15:31:45.279,0.557827,4.57508,7.88375,-0.247469,0.102546,-0.0901,0
2024-12-13 15:31:45.279,0.557827,4.57508,7.88375,-0.247469,0.102546,-0.0901,0
2024-12-13 15:31:45.281,0.54347,4.56311,8.00339,-0.251745,0.107433,-0.0949868,0
2024-12-13 15:31:45.281,0.54347,4.56311,8.00339,-0.251745,0.107433,-0.0949868,0
2024-12-13 15:31:45.281,0.54347,4.56311,8.00339,-0.251745,0.107433,-0.0949868,0
2024-12-13 15:31:45.284,0.521934,4.54636,8.12303,-0.259686,0.111709,-0.101095,0
2024-12-13 15:31:45.284,0.521934,4.54636,8.12303,-0.259686,0.111709,-0.101095,0
2024-12-13 15:31:45.284,0.521934,4.54636,8.12303,-0.259686,0.111709,-0.101095,0
2024-12-13 15:31:45.284,0.521934,4.54636,8.12303,-0.259686,0.111709,-0.101095,0
2024-12-13 15:31:45.286,0.498006,4.51047,8.25255,-0.26213,0.115985,-0.10476,0
2024-12-13 15:31:45.286,0.498006,4.51047,8.25255,-0.26213,0.115985,-0.10476,0
2024-12-13 15:31:45.286,0.498006,4.51047,8.25255,-0.26213,0.115985,-0.10476,0
2024-12-13 15:31:45.288,0.469292,4.47697,8.35544,-0.267017,0.120261,-0.105371,0
2024-12-13 15:31:45.288,0.469292,4.47697,8.35544,-0.267017,0.120261,-0.105371,0
2024-12-13 15:31:45.288,0.469292,4.47697,8.35544,-0.267017,0.120261,-0.105371,0
2024-12-13 15:31:45.288,0.469292,4.47697,8.35544,-0.267017,0.120261,-0.105371,0
2024-12-13 15:31:45.288,0.469292,4.47697,8.35544,-0.267017,0.120261,-0.105371,0
2024-12-13 15:31:45.288,0.469292,4.47697,8.35544,-0.267017,0.120261,-0.105371,0
2024-12-13 15:31:45.291,0.442971,4.46501,8.43679,-0.270682,0.125758,-0.105371,0
2024-12-13 15:31:45.291,0.442971,4.46501,8.43679,-0.270682,0.125758,-0.105371,0
2024-12-13 15:31:45.291,0.442971,4.46501,8.43679,-0.270682,0.125758,-0.105371,0
2024-12-13 15:31:45.293,0.438186,4.45065,8.53251,-0.270071,0.130034,-0.108425,0
2024-12-13 15:31:45.293,0.438186,4.45065,8.53251,-0.270071,0.130034,-0.108425,0
2024-12-13 15:31:45.293,0.438186,4.45065,8.53251,-0.270071,0.130034,-0.108425,0
2024-12-13 15:31:45.296,0.447757,4.44347,8.63779,-0.271293,0.135532,-0.110258,0
2024-12-13 15:31:45.296,0.447757,4.44347,8.63779,-0.271293,0.135532,-0.110258,0
2024-12-13 15:31:45.296,0.447757,4.44347,8.63779,-0.271293,0.135532,-0.110258,0
2024-12-13 15:31:45.296,0.447757,4.44347,8.63779,-0.271293,0.135532,-0.110258,0
2024-12-13 15:31:45.298,0.464507,4.42433,8.73141,-0.271293,0.138586,-0.11148,0
2024-12-13 15:31:45.298,0.464507,4.42433,8.73141,-0.271293,0.138586,-0.11148,0
2024-12-13 15:31:45.298,0.464507,4.42433,8.73141,-0.271293,0.138586,-0.11148,0
2024-12-13 15:31:45.298,0.464507,4.42433,8.73141,-0.271293,0.138586,-0.11148,0
2024-12-13 15:31:45.300,0.4669,4.4004,8.80798,-0.273736,0.138586,-0.112701,0
2024-12-13 15:31:45.300,0.4669,4.4004,8.80798,-0.273736,0.138586,-0.112701,0
2024-12-13 15:31:45.300,0.4669,4.4004,8.80798,-0.273736,0.138586,-0.112701,0
2024-12-13 15:31:45.300,0.4669,4.4004,8.80798,-0.273736,0.138586,-0.112701,0
2024-12-13 15:31:45.303,0.457328,4.38365,8.88216,-0.273736,0.136753,-0.114534,0
2024-12-13 15:31:45.303,0.457328,4.38365,8.88216,-0.273736,0.136753,-0.114534,0
2024-12-13 15:31:45.303,0.457328,4.38365,8.88216,-0.273736,0.136753,-0.114534,0
2024-12-13 15:31:45.303,0.457328,4.38365,8.88216,-0.273736,0.136753,-0.114534,0
2024-12-13 15:31:45.305,0.459721,4.3669,8.95155,-0.274347,0.129423,-0.115756,0
2024-12-13 15:31:45.305,0.459721,4.3669,8.95155,-0.274347,0.129423,-0.115756,0
2024-12-13 15:31:45.305,0.459721,4.3669,8.95155,-0.274347,0.129423,-0.115756,0
2024-12-13 15:31:45.305,0.459721,4.3669,8.95155,-0.274347,0.129423,-0.115756,0
2024-12-13 15:31:45.307,0.474078,4.3669,9.02333,-0.274958,0.120871,-0.11881,0
2024-12-13 15:31:45.307,0.474078,4.3669,9.02333,-0.274958,0.120871,-0.11881,0
2024-12-13 15:31:45.307,0.474078,4.3669,9.02333,-0.274958,0.120871,-0.11881,0
2024-12-13 15:31:45.308,0.474078,4.3669,9.02333,-0.274958,0.120871,-0.11881,0
2024-12-13 15:31:45.310,0.483649,4.35972,9.10948,-0.278012,0.108044,-0.120642,0
2024-12-13 15:31:45.310,0.483649,4.35972,9.10948,-0.278012,0.108044,-0.120642,0
2024-12-13 15:31:45.310,0.483649,4.35972,9.10948,-0.278012,0.108044,-0.120642,0
2024-12-13 15:31:45.310,0.483649,4.35972,9.10948,-0.278012,0.108044,-0.120642,0
2024-12-13 15:31:45.312,0.447757,4.34058,9.20997,-0.281677,0.0927724,-0.121253,0
2024-12-13 15:31:45.312,0.447757,4.34058,9.20997,-0.281677,0.0927724,-0.121253,0
2024-12-13 15:31:45.312,0.447757,4.34058,9.20997,-0.281677,0.0927724,-0.121253,0
2024-12-13 15:31:45.314,0.407079,4.3334,9.30599,-0.28412,0.0750579,-0.120031,0
2024-12-13 15:31:45.314,0.407079,4.3334,9.30599,-0.28412,0.0750579,-0.120031,0
2024-12-13 15:31:45.314,0.407079,4.3334,9.30599,-0.28412,0.0750579,-0.120031,0
2024-12-13 15:31:45.314,0.407079,4.3334,9.30599,-0.28412,0.0750579,-0.120031,0
2024-12-13 15:31:45.314,0.407079,4.3334,9.30599,-0.28412,0.0750579,-0.120031,0
2024-12-13 15:31:45.317,0.392722,4.32862,9.39931,-0.285342,0.058565,-0.119421,0
2024-12-13 15:31:45.317,0.392722,4.32862,9.39931,-0.285342,0.058565,-0.119421,0
2024-12-13 15:31:45.319,0.368794,4.29751,9.48545,-0.287175,0.0439046,-0.118199,0
2024-12-13 15:31:45.319,0.368794,4.29751,9.48545,-0.287175,0.0439046,-0.118199,0
2024-12-13 15:31:45.319,0.368794,4.29751,9.48545,-0.287175,0.0439046,-0.118199,0
2024-12-13 15:31:45.319,0.368794,4.29751,9.48545,-0.287175,0.0439046,-0.118199,0
2024-12-13 15:31:45.321,0.368794,4.28555,9.56441,-0.291451,0.0298552,-0.118199,0
2024-12-13 15:31:45.321,0.368794,4.28555,9.56441,-0.291451,0.0298552,-0.118199,0
2024-12-13 15:31:45.321,0.368794,4.28555,9.56441,-0.291451,0.0298552,-0.118199,0
2024-12-13 15:31:45.322,0.368794,4.28555,9.56441,-0.291451,0.0298552,-0.118199,0
2024-12-13 15:31:45.324,0.375972,4.27597,9.65534,-0.29084,0.014584,-0.115145,0
2024-12-13 15:31:45.324,0.375972,4.27597,9.65534,-0.29084,0.014584,-0.115145,0
2024-12-13 15:31:45.324,0.375972,4.27597,9.65534,-0.29084,0.014584,-0.115145,0
2024-12-13 15:31:45.324,0.375972,4.27597,9.65534,-0.29084,0.014584,-0.115145,0
2024-12-13 15:31:45.324,0.375972,4.27597,9.65534,-0.29084,0.014584,-0.115145,0
2024-12-13 15:31:45.326,0.375972,4.23769,9.74866,-0.295116,0.000534491,-0.112701,0
2024-12-13 15:31:45.326,0.375972,4.23769,9.74866,-0.295116,0.000534491,-0.112701,0
2024-12-13 15:31:45.326,0.375972,4.23769,9.74866,-0.295116,0.000534491,-0.112701,0
2024-12-13 15:31:45.329,0.368794,4.2015,9.85424,-0.295726,-0.00923906,-0.110258,0
2024-12-13 15:31:45.329,0.368794,4.2015,9.85424,-0.295726,-0.00923906,-0.110258,0
2024-12-13 15:31:45.329,0.368794,4.2015,9.85424,-0.295726,-0.00923906,-0.110258,0
2024-12-13 15:31:45.329,0.368794,4.2015,9.85424,-0.295726,-0.00923906,-0.110258,0
2024-12-13 15:31:45.331,0.349651,4.17996,9.94517,-0.293894,-0.0208452,-0.109036,0
2024-12-13 15:31:45.331,0.349651,4.17996,9.94517,-0.293894,-0.0208452,-0.109036,0
2024-12-13 15:31:45.331,0.349651,4.17996,9.94517,-0.293894,-0.0208452,-0.109036,0
2024-12-13 15:31:45.331,0.349651,4.17996,9.94517,-0.293894,-0.0208452,-0.109036,0
2024-12-13 15:31:45.333,0.34008,4.15843,10.017,-0.292672,-0.0318404,-0.106593,0
2024-12-13 15:31:45.333,0.34008,4.15843,10.017,-0.292672,-0.0318404,-0.106593,0
2024-12-13 15:31:45.333,0.34008,4.15843,10.017,-0.292672,-0.0318404,-0.106593,0
2024-12-13 15:31:45.333,0.34008,4.15843,10.017,-0.292672,-0.0318404,-0.106593,0
2024-12-13 15:31:45.336,0.34008,4.1345,10.0792,-0.291451,-0.0361163,-0.102928,0
2024-12-13 15:31:45.336,0.34008,4.1345,10.0792,-0.291451,-0.0361163,-0.102928,0
2024-12-13 15:31:45.336,0.34008,4.1345,10.0792,-0.291451,-0.0361163,-0.102928,0
2024-12-13 15:31:45.338,0.347258,4.11775,10.1366,-0.285953,-0.0410031,-0.0998735,0
2024-12-13 15:31:45.338,0.347258,4.11775,10.1366,-0.285953,-0.0410031,-0.0998735,0
2024-12-13 15:31:45.338,0.347258,4.11775,10.1366,-0.285953,-0.0410031,-0.0998735,0
2024-12-13 15:31:45.338,0.347258,4.11775,10.1366,-0.285953,-0.0410031,-0.0998735,0
2024-12-13 15:31:45.338,0.347258,4.11775,10.1366,-0.285953,-0.0410031,-0.0998735,0
2024-12-13 15:31:45.340,0.35683,4.11536,10.1892,-0.281677,-0.0410031,-0.0962084,0
2024-12-13 15:31:45.340,0.35683,4.11536,10.1892,-0.281677,-0.0410031,-0.0962084,0
2024-12-13 15:31:45.343,0.378365,4.10339,10.2395,-0.273736,-0.0391706,-0.0943759,0
2024-12-13 15:31:45.343,0.378365,4.10339,10.2395,-0.273736,-0.0391706,-0.0943759,0
2024-12-13 15:31:45.343,0.378365,4.10339,10.2395,-0.273736,-0.0391706,-0.0943759,0
2024-12-13 15:31:45.343,0.378365,4.10339,10.2395,-0.273736,-0.0391706,-0.0943759,0
2024-12-13 15:31:45.343,0.378365,4.10339,10.2395,-0.273736,-0.0391706,-0.0943759,0
2024-12-13 15:31:45.345,0.392722,4.08425,10.3065,-0.265184,-0.0367272,-0.0913217,0
2024-12-13 15:31:45.345,0.392722,4.08425,10.3065,-0.265184,-0.0367272,-0.0913217,0
2024-12-13 15:31:45.345,0.392722,4.08425,10.3065,-0.265184,-0.0367272,-0.0913217,0
2024-12-13 15:31:45.347,0.395115,4.08186,10.3519,-0.254189,-0.0306187,-0.0901,0
2024-12-13 15:31:45.347,0.395115,4.08186,10.3519,-0.254189,-0.0306187,-0.0901,0
2024-12-13 15:31:45.347,0.395115,4.08186,10.3519,-0.254189,-0.0306187,-0.0901,0
2024-12-13 15:31:45.347,0.395115,4.08186,10.3519,-0.254189,-0.0306187,-0.0901,0
2024-12-13 15:31:45.347,0.395115,4.08186,10.3519,-0.254189,-0.0306187,-0.0901,0
2024-12-13 15:31:45.350,0.395115,4.07946,10.3834,-0.243804,-0.0263428,-0.0882674,0
2024-12-13 15:31:45.350,0.395115,4.07946,10.3834,-0.243804,-0.0263428,-0.0882674,0
2024-12-13 15:31:45.350,0.395115,4.07946,10.3834,-0.243804,-0.0263428,-0.0882674,0
2024-12-13 15:31:45.350,0.395115,4.07946,10.3834,-0.243804,-0.0263428,-0.0882674,0
2024-12-13 15:31:45.352,0.387936,4.06271,10.3977,-0.229755,-0.0238994,-0.0852132,0
2024-12-13 15:31:45.352,0.387936,4.06271,10.3977,-0.229755,-0.0238994,-0.0852132,0
2024-12-13 15:31:45.352,0.387936,4.06271,10.3977,-0.229755,-0.0238994,-0.0852132,0
2024-12-13 15:31:45.354,0.383151,4.06989,10.3905,-0.213262,-0.0190126,-0.082159,0
2024-12-13 15:31:45.354,0.383151,4.06989,10.3905,-0.213262,-0.0190126,-0.082159,0
2024-12-13 15:31:45.354,0.383151,4.06989,10.3905,-0.213262,-0.0190126,-0.082159,0
2024-12-13 15:31:45.354,0.383151,4.06989,10.3905,-0.213262,-0.0190126,-0.082159,0
2024-12-13 15:31:45.357,0.380758,4.07229,10.3735,-0.197991,-0.0129041,-0.082159,0
2024-12-13 15:31:45.357,0.380758,4.07229,10.3735,-0.197991,-0.0129041,-0.082159,0
2024-12-13 15:31:45.357,0.380758,4.07229,10.3735,-0.197991,-0.0129041,-0.082159,0
2024-12-13 15:31:45.357,0.380758,4.07229,10.3735,-0.197991,-0.0129041,-0.082159,0
2024-12-13 15:31:45.359,0.380758,4.07707,10.3184,-0.179055,-0.00496313,-0.077883,0
2024-12-13 15:31:45.359,0.380758,4.07707,10.3184,-0.179055,-0.00496313,-0.077883,0
2024-12-13 15:31:45.359,0.380758,4.07707,10.3184,-0.179055,-0.00496313,-0.077883,0
2024-12-13 15:31:45.359,0.380758,4.07707,10.3184,-0.179055,-0.00496313,-0.077883,0
2024-12-13 15:31:45.361,0.368794,4.10818,10.2323,-0.160729,0.00297788,-0.0742179,0
2024-12-13 15:31:45.361,0.368794,4.10818,10.2323,-0.160729,0.00297788,-0.0742179,0
2024-12-13 15:31:45.361,0.368794,4.10818,10.2323,-0.160729,0.00297788,-0.0742179,0
2024-12-13 15:31:45.361,0.368794,4.10818,10.2323,-0.160729,0.00297788,-0.0742179,0
2024-12-13 15:31:45.364,0.361615,4.1345,10.1462,-0.143625,0.0096972,-0.0717745,0
2024-12-13 15:31:45.364,0.361615,4.1345,10.1462,-0.143625,0.0096972,-0.0717745,0
2024-12-13 15:31:45.364,0.361615,4.1345,10.1462,-0.143625,0.0096972,-0.0717745,0
2024-12-13 15:31:45.364,0.361615,4.1345,10.1462,-0.143625,0.0096972,-0.0717745,0
2024-12-13 15:31:45.364,0.361615,4.1345,10.1462,-0.143625,0.0096972,-0.0717745,0
2024-12-13 15:31:45.366,0.359223,4.16561,10.0337,-0.126522,0.0151948,-0.0681095,0
2024-12-13 15:31:45.366,0.359223,4.16561,10.0337,-0.126522,0.0151948,-0.0681095,0
2024-12-13 15:31:45.369,0.337687,4.18953,9.89971,-0.110029,0.0206925,-0.0632227,0
2024-12-13 15:31:45.369,0.337687,4.18953,9.89971,-0.110029,0.0206925,-0.0632227,0
2024-12-13 15:31:45.369,0.337687,4.18953,9.89971,-0.110029,0.0206925,-0.0632227,0
2024-12-13 15:31:45.369,0.337687,4.18953,9.89971,-0.110029,0.0206925,-0.0632227,0
2024-12-13 15:31:45.371,0.328116,4.21376,9.75823,-0.0965902,0.0231358,-0.0583359,0
2024-12-13 15:31:45.371,0.328116,4.21376,9.75823,-0.0965902,0.0231358,-0.0583359,0
2024-12-13 15:31:45.371,0.328116,4.21376,9.75823,-0.0965902,0.0231358,-0.0583359,0
2024-12-13 15:31:45.371,0.328116,4.21376,9.75823,-0.0965902,0.0231358,-0.0583359,0
2024-12-13 15:31:45.373,0.308973,4.25444,9.61227,-0.0849841,0.0243575,-0.0528383,0
2024-12-13 15:31:45.373,0.308973,4.25444,9.61227,-0.0849841,0.0243575,-0.0528383,0
2024-12-13 15:31:45.373,0.308973,4.25444,9.61227,-0.0849841,0.0243575,-0.0528383,0
2024-12-13 15:31:45.376,0.297009,4.29512,9.46152,-0.0715455,0.0231358,-0.046119,0
2024-12-13 15:31:45.376,0.297009,4.29512,9.46152,-0.0715455,0.0231358,-0.046119,0
2024-12-13 15:31:45.376,0.297009,4.29512,9.46152,-0.0715455,0.0231358,-0.046119,0
2024-12-13 15:31:45.376,0.297009,4.29512,9.46152,-0.0715455,0.0231358,-0.046119,0
2024-12-13 15:31:45.378,0.30658,4.34537,9.30359,-0.0629936,0.022525,-0.0375671,0
2024-12-13 15:31:45.378,0.30658,4.34537,9.30359,-0.0629936,0.022525,-0.0375671,0
2024-12-13 15:31:45.378,0.30658,4.34537,9.30359,-0.0629936,0.022525,-0.0375671,0
2024-12-13 15:31:45.378,0.30658,4.34537,9.30359,-0.0629936,0.022525,-0.0375671,0
2024-12-13 15:31:45.380,0.304188,4.38604,9.16212,-0.0526092,0.0200816,-0.0332912,0
2024-12-13 15:31:45.380,0.304188,4.38604,9.16212,-0.0526092,0.0200816,-0.0332912,0
2024-12-13 15:31:45.380,0.304188,4.38604,9.16212,-0.0526092,0.0200816,-0.0332912,0
2024-12-13 15:31:45.380,0.304188,4.38604,9.16212,-0.0526092,0.0200816,-0.0332912,0
2024-12-13 15:31:45.383,0.311366,4.42433,9.04965,-0.0477224,0.0151948,-0.0247393,0
2024-12-13 15:31:45.383,0.311366,4.42433,9.04965,-0.0477224,0.0151948,-0.0247393,0
2024-12-13 15:31:45.383,0.311366,4.42433,9.04965,-0.0477224,0.0151948,-0.0247393,0
2024-12-13 15:31:45.385,0.342473,4.47458,8.93241,-0.0446682,0.0121406,-0.01802,0
2024-12-13 15:31:45.385,0.342473,4.47458,8.93241,-0.0446682,0.0121406,-0.01802,0
2024-12-13 15:31:45.385,0.342473,4.47458,8.93241,-0.0446682,0.0121406,-0.01802,0
2024-12-13 15:31:45.385,0.342473,4.47458,8.93241,-0.0446682,0.0121406,-0.01802,0
2024-12-13 15:31:45.387,0.368794,4.50568,8.81994,-0.0403923,0.00786466,-0.0106898,0
2024-12-13 15:31:45.387,0.368794,4.50568,8.81994,-0.0403923,0.00786466,-0.0106898,0
2024-12-13 15:31:45.387,0.368794,4.50568,8.81994,-0.0403923,0.00786466,-0.0106898,0
2024-12-13 15:31:45.387,0.368794,4.50568,8.81994,-0.0403923,0.00786466,-0.0106898,0
2024-12-13 15:31:45.390,0.390329,4.53201,8.71705,-0.0367272,0.000534491,-0.00335966,0
2024-12-13 15:31:45.390,0.390329,4.53201,8.71705,-0.0367272,0.000534491,-0.00335966,0
2024-12-13 15:31:45.390,0.390329,4.53201,8.71705,-0.0367272,0.000534491,-0.00335966,0
2024-12-13 15:31:45.392,0.419043,4.57029,8.6019,-0.033673,-0.00251974,0.00580305,0
2024-12-13 15:31:45.392,0.419043,4.57029,8.6019,-0.033673,-0.00251974,0.00580305,0
2024-12-13 15:31:45.394,0.457328,4.6014,8.50619,-0.0342838,-0.00740652,0.0113007,0
2024-12-13 15:31:45.394,0.457328,4.6014,8.50619,-0.0342838,-0.00740652,0.0113007,0
2024-12-13 15:31:45.394,0.457328,4.6014,8.50619,-0.0342838,-0.00740652,0.0113007,0
2024-12-13 15:31:45.394,0.457328,4.6014,8.50619,-0.0342838,-0.00740652,0.0113007,0
2024-12-13 15:31:45.397,0.478864,4.6325,8.42004,-0.0385597,-0.0141258,0.01802,0
2024-12-13 15:31:45.397,0.478864,4.6325,8.42004,-0.0385597,-0.0141258,0.01802,0
2024-12-13 15:31:45.399,0.478864,4.67318,8.32194,-0.0422248,-0.0208452,0.0235176,0
2024-12-13 15:31:45.399,0.476471,4.67318,8.32194,-0.0422248,-0.0208452,0.0235176,0
2024-12-13 15:31:45.399,0.476471,4.67318,8.32194,-0.0422248,-0.0208452,0.0235176,0
2024-12-13 15:31:45.402,0.498006,4.70668,8.2358,-0.0465007,-0.0251211,0.0308478,0
2024-12-13 15:31:45.402,0.498006,4.70668,8.2358,-0.0465007,-0.0251211,0.0308478,0
2024-12-13 15:31:45.402,0.498006,4.70668,8.2358,-0.0465007,-0.0251211,0.0308478,0
2024-12-13 15:31:45.402,0.498006,4.70668,8.2358,-0.0465007,-0.0251211,0.0308478,0
2024-12-13 15:31:45.404,0.507577,4.74257,8.14965,-0.0532201,-0.0318404,0.0345129,0
2024-12-13 15:31:45.404,0.507577,4.74257,8.14965,-0.0532201,-0.0318404,0.0345129,0
2024-12-13 15:31:45.404,0.507577,4.74257,8.14965,-0.0532201,-0.0318404,0.0345129,0
2024-12-13 15:31:45.406,0.50997,4.78116,8.07279,-0.0623828,-0.0361163,0.038178,0
2024-12-13 15:31:45.406,0.50997,4.78116,8.07279,-0.0623828,-0.0361163,0.038178,0
2024-12-13 15:31:45.406,0.50997,4.78116,8.07279,-0.0623828,-0.0361163,0.038178,0
2024-12-13 15:31:45.406,0.50997,4.78116,8.07279,-0.0623828,-0.0361163,0.038178,0
2024-12-13 15:31:45.409,0.519542,4.8338,8.02971,-0.073378,-0.041614,0.0436756,0
2024-12-13 15:31:45.409,0.519542,4.8338,8.02971,-0.073378,-0.041614,0.0436756,0
2024-12-13 15:31:45.409,0.519542,4.8338,8.02971,-0.073378,-0.041614,0.0436756,0
2024-12-13 15:31:45.409,0.519542,4.8338,8.02971,-0.073378,-0.041614,0.0436756,0
2024-12-13 15:31:45.411,0.517149,4.87926,8.01057,-0.0831516,-0.0471116,0.0473407,0
2024-12-13 15:31:45.411,0.517149,4.87926,8.01057,-0.0831516,-0.0471116,0.0473407,0
2024-12-13 15:31:45.413,0.521934,4.89362,7.99861,-0.0947577,-0.0507767,0.0516166,0
2024-12-13 15:31:45.413,0.521934,4.89362,7.99861,-0.0947577,-0.0507767,0.0516166,0
2024-12-13 15:31:45.413,0.521934,4.89362,7.99861,-0.0947577,-0.0507767,0.0516166,0
2024-12-13 15:31:45.413,0.521934,4.89362,7.99861,-0.0947577,-0.0507767,0.0516166,0
2024-12-13 15:31:45.413,0.521934,4.89362,7.99861,-0.0947577,-0.0507767,0.0516166,0
2024-12-13 15:31:45.413,0.521934,4.89362,7.99861,-0.0947577,-0.0507767,0.0516166,0
2024-12-13 15:31:45.416,0.529113,4.91994,8.001,-0.104531,-0.0544418,0.05406,0
2024-12-13 15:31:45.416,0.529113,4.91994,8.001,-0.104531,-0.0544418,0.05406,0
2024-12-13 15:31:45.418,0.538684,4.95344,8.02493,-0.118581,-0.0562743,0.0571142,0
2024-12-13 15:31:45.418,0.538684,4.95344,8.02493,-0.118581,-0.0562743,0.0571142,0
2024-12-13 15:31:45.418,0.538684,4.95344,8.02493,-0.118581,-0.0562743,0.0571142,0
2024-12-13 15:31:45.418,0.538684,4.95344,8.02493,-0.118581,-0.0562743,0.0571142,0
2024-12-13 15:31:45.420,0.538684,4.98216,8.04168,-0.129576,-0.0599394,0.0577251,0
2024-12-13 15:31:45.420,0.533899,4.98216,8.04168,-0.129576,-0.0599394,0.0577251,0
2024-12-13 15:31:45.420,0.533899,4.98216,8.04168,-0.129576,-0.0599394,0.0577251,0
2024-12-13 15:31:45.423,0.529113,5.00608,8.07279,-0.144236,-0.0605502,0.0577251,0
2024-12-13 15:31:45.423,0.529113,5.00608,8.07279,-0.144236,-0.0605502,0.0577251,0
2024-12-13 15:31:45.423,0.529113,5.00608,8.07279,-0.144236,-0.0605502,0.0577251,0
2024-12-13 15:31:45.423,0.529113,5.00608,8.07279,-0.144236,-0.0605502,0.0577251,0
2024-12-13 15:31:45.423,0.529113,5.00608,8.07279,-0.144236,-0.0605502,0.0577251,0
2024-12-13 15:31:45.425,0.52672,5.04198,8.11586,-0.156453,-0.0587177,0.0595576,0
2024-12-13 15:31:45.425,0.52672,5.04198,8.11586,-0.156453,-0.0587177,0.0595576,0
2024-12-13 15:31:45.425,0.52672,5.04198,8.11586,-0.156453,-0.0587177,0.0595576,0
2024-12-13 15:31:45.425,0.52672,5.04198,8.11586,-0.156453,-0.0587177,0.0595576,0
2024-12-13 15:31:45.427,0.529113,5.0683,8.15923,-0.171724,-0.0562743,0.0607793,0
2024-12-13 15:31:45.427,0.529113,5.0683,8.15923,-0.171724,-0.0562743,0.0607793,0
2024-12-13 15:31:45.427,0.529113,5.0683,8.15923,-0.171724,-0.0562743,0.0607793,0
2024-12-13 15:31:45.427,0.529113,5.0683,8.15923,-0.171724,-0.0562743,0.0607793,0
2024-12-13 15:31:45.430,0.536291,5.07069,8.23819,-0.186996,-0.0532201,0.0595576,0
2024-12-13 15:31:45.430,0.536291,5.07069,8.23819,-0.186996,-0.0532201,0.0595576,0
2024-12-13 15:31:45.430,0.536291,5.07069,8.23819,-0.186996,-0.0532201,0.0595576,0
2024-12-13 15:31:45.432,0.517149,5.09462,8.3363,-0.200434,-0.0465007,0.0601685,0
2024-12-13 15:31:45.432,0.517149,5.09462,8.3363,-0.200434,-0.0465007,0.0601685,0
2024-12-13 15:31:45.432,0.517149,5.09462,8.3363,-0.200434,-0.0465007,0.0601685,0
2024-12-13 15:31:45.435,0.488435,5.11615,8.44876,-0.213262,-0.037338,0.0607793,0
2024-12-13 15:31:45.435,0.488435,5.11615,8.44876,-0.213262,-0.037338,0.0607793,0
2024-12-13 15:31:45.435,0.488435,5.11615,8.44876,-0.213262,-0.037338,0.0607793,0
2024-12-13 15:31:45.435,0.488435,5.11615,8.44876,-0.213262,-0.037338,0.0607793,0
2024-12-13 15:31:45.437,0.464507,5.12094,8.58276,-0.227922,-0.0318404,0.0607793,0
2024-12-13 15:31:45.437,0.464507,5.12094,8.58276,-0.227922,-0.0318404,0.0607793,0
2024-12-13 15:31:45.437,0.464507,5.12094,8.58276,-0.227922,-0.0318404,0.0607793,0
2024-12-13 15:31:45.437,0.464507,5.12094,8.58276,-0.227922,-0.0318404,0.0607793,0
2024-12-13 15:31:45.437,0.464507,5.12094,8.58276,-0.227922,-0.0318404,0.0607793,0
2024-12-13 15:31:45.439,0.431007,5.11615,8.72184,-0.238307,-0.0202343,0.0595576,0
2024-12-13 15:31:45.439,0.431007,5.11615,8.72184,-0.238307,-0.0202343,0.0595576,0
2024-12-13 15:31:45.439,0.431007,5.11615,8.72184,-0.238307,-0.0202343,0.0595576,0
2024-12-13 15:31:45.442,0.402293,5.12094,8.87259,-0.249913,-0.0141258,0.0613902,0
2024-12-13 15:31:45.442,0.402293,5.12094,8.87259,-0.249913,-0.0141258,0.0613902,0
2024-12-13 15:31:45.442,0.402293,5.12094,8.87259,-0.249913,-0.0141258,0.0613902,0
2024-12-13 15:31:45.442,0.402293,5.12094,8.87259,-0.249913,-0.0141258,0.0613902,0
2024-12-13 15:31:45.444,0.375972,5.1353,9.0353,-0.256021,-0.00740652,0.0613902,0
2024-12-13 15:31:45.444,0.375972,5.1353,9.0353,-0.256021,-0.00740652,0.0613902,0
2024-12-13 15:31:45.444,0.375972,5.1353,9.0353,-0.256021,-0.00740652,0.0613902,0
2024-12-13 15:31:45.445,0.375972,5.1353,9.0353,-0.265795,-0.00435229,0.062001,0
2024-12-13 15:31:45.446,0.354437,5.14487,9.21476,-0.265795,-0.00435229,0.062001,0
2024-12-13 15:31:45.446,0.354437,5.14487,9.21476,-0.265795,-0.00435229,0.062001,0
2024-12-13 15:31:45.446,0.354437,5.14487,9.21476,-0.265795,-0.00435229,0.062001,0
2024-12-13 15:31:45.446,0.354437,5.14487,9.21476,-0.265795,-0.00435229,0.062001,0
2024-12-13 15:31:45.446,0.354437,5.14487,9.21476,-0.265795,-0.00435229,0.062001,0
2024-12-13 15:31:45.449,0.332901,5.1688,9.39213,-0.272514,0.00114534,0.062001,0
2024-12-13 15:31:45.449,0.332901,5.1688,9.39213,-0.272514,0.00114534,0.062001,0
2024-12-13 15:31:45.449,0.332901,5.1688,9.39213,-0.272514,0.00114534,0.062001,0
2024-12-13 15:31:45.451,0.320937,5.20947,9.54288,-0.273736,0.00664296,0.0632227,0
2024-12-13 15:31:45.451,0.320937,5.20947,9.54288,-0.273736,0.00664296,0.0632227,0
2024-12-13 15:31:45.451,0.320937,5.20947,9.54288,-0.273736,0.00664296,0.0632227,0
2024-12-13 15:31:45.453,0.313759,5.24058,9.68884,-0.27679,0.00908635,0.0626118,0
2024-12-13 15:31:45.453,0.313759,5.24058,9.68884,-0.27679,0.00908635,0.0626118,0
2024-12-13 15:31:45.453,0.313759,5.24058,9.68884,-0.27679,0.00908635,0.0626118,0
2024-12-13 15:31:45.453,0.313759,5.24058,9.68884,-0.27679,0.00908635,0.0626118,0
2024-12-13 15:31:45.456,0.304188,5.26451,9.84467,-0.278012,0.0115297,0.0601685,0
2024-12-13 15:31:45.456,0.304188,5.26451,9.84467,-0.278012,0.0115297,0.0601685,0
2024-12-13 15:31:45.456,0.304188,5.26451,9.84467,-0.278012,0.0115297,0.0601685,0
2024-12-13 15:31:45.458,0.287438,5.27408,10.0074,-0.273125,0.0133623,0.0577251,0
2024-12-13 15:31:45.458,0.287438,5.27408,10.0074,-0.273125,0.0133623,0.0577251,0
2024-12-13 15:31:45.458,0.287438,5.27408,10.0074,-0.273125,0.0133623,0.0577251,0
2024-12-13 15:31:45.458,0.287438,5.27408,10.0074,-0.273125,0.0133623,0.0577251,0
2024-12-13 15:31:45.460,0.267996,5.28126,10.1701,-0.267017,0.014584,0.0552817,0
2024-12-13 15:31:45.460,0.267996,5.28126,10.1701,-0.267017,0.014584,0.0552817,0
2024-12-13 15:31:45.460,0.267996,5.28126,10.1701,-0.267017,0.014584,0.0552817,0
2024-12-13 15:31:45.460,0.267996,5.28126,10.1701,-0.267017,0.014584,0.0552817,0
2024-12-13 15:31:45.463,0.253639,5.29083,10.3208,-0.26213,0.0133623,0.0528383,0
2024-12-13 15:31:45.463,0.253639,5.29083,10.3208,-0.26213,0.0133623,0.0528383,0
2024-12-13 15:31:45.463,0.253639,5.29083,10.3208,-0.26213,0.0133623,0.0528383,0
2024-12-13 15:31:45.463,0.253639,5.29083,10.3208,-0.26213,0.0133623,0.0528383,0
2024-12-13 15:31:45.465,0.236889,5.3004,10.4719,-0.252967,0.0115297,0.0491732,0
2024-12-13 15:31:45.467,0.227318,5.29562,10.6346,-0.243194,0.00908635,0.0473407,0
2024-12-13 15:31:45.470,0.212961,5.29801,10.7662,-0.230977,0.00358873,0.0442864,0
2024-12-13 15:31:45.472,0.193819,5.3342,10.8643,-0.216927,-0.00679568,0.0400105,0
2024-12-13 15:31:45.475,0.184247,5.35574,10.9555,-0.216927,-0.00679568,0.0400105,0
2024-12-13 15:31:45.477,0.174676,5.35813,11.0417,-0.19005,-0.0318404,0.0332912,0
2024-12-13 15:31:45.479,0.160319,5.37009,11.1637,-0.176611,-0.0465007,0.0308478,0
2024-12-13 15:31:45.482,0.141177,5.38684,11.3049,-0.160729,-0.0611611,0.025961,0
2024-12-13 15:31:45.484,0.0957129,5.39402,11.4293,-0.147901,-0.0782648,0.0247393,0
2024-12-13 15:31:45.489,0.0550349,5.45863,11.5971,-0.108807,-0.110029,0.0235176,0
2024-12-13 15:31:45.489,0.0550349,5.45863,11.5971,-0.108807,-0.110029,0.0235176,0
2024-12-13 15:31:45.491,0.0622134,5.48255,11.6761,-0.0929251,-0.130798,0.0229068,0
2024-12-13 15:31:45.493,0.0502493,5.48973,11.7646,-0.0752106,-0.149123,0.0241285,0
2024-12-13 15:31:45.496,0.0430708,5.50888,11.8412,-0.0587177,-0.167449,0.0253502,0
2024-12-13 15:31:45.498,0.0574277,5.53998,11.9154,-0.0410031,-0.180887,0.0271827,0
2024-12-13 15:31:45.500,0.066999,5.5687,11.9824,-0.0208452,-0.195547,0.0265719,0
2024-12-13 15:31:45.503,0.0861416,5.60698,12.0446,-0.00618483,-0.208986,0.0265719,0
2024-12-13 15:31:45.505,0.0957129,5.64766,12.0927,0.0109189,-0.213262,0.0277936,0
2024-12-13 15:31:45.508,0.0837488,5.67398,12.1406,0.0292443,-0.219981,0.0271827,0
2024-12-13 15:31:45.510,0.0933201,5.70509,12.1621,0.0432938,-0.21876,0.0271827,0
2024-12-13 15:31:45.512,0.114855,5.75773,12.1406,0.0591758,-0.213873,0.0290152,0
2024-12-13 15:31:45.515,0.11007,5.81755,12.1358,0.0738362,-0.210819,0.0314586,0
2024-12-13 15:31:45.517,0.0885344,5.87258,12.1406,0.0884965,-0.20471,0.0320695,0
2024-12-13 15:31:45.519,0.0646062,5.93749,12.1167,0.100713,-0.191882,0.0351237,0
2024-12-13 15:31:45.522,0.0526421,6.04517,12.0494,0.111709,-0.172946,0.0363454,0
2024-12-13 15:31:45.524,0.0646062,6.16481,11.9249,0.114763,-0.147291,0.0406213,0
2024-12-13 15:31:45.526,0.112463,6.2342,11.8292,0.117817,-0.111861,0.0430647,0
2024-12-13 15:31:45.529,0.150748,6.28924,11.7957,0.114763,-0.0739889,0.0455081,0
2024-12-13 15:31:45.531,0.165105,6.33231,11.7479,0.115374,-0.0324513,0.0491732,0
2024-12-13 15:31:45.534,0.191426,6.36581,11.6713,0.11232,0.00847551,0.0510057,0
2024-12-13 15:31:45.536,0.196211,6.39691,11.6282,0.106822,0.0494023,0.0534491,0
2024-12-13 15:31:45.538,0.198604,6.42323,11.6378,0.0976592,0.086664,0.0558925,0
2024-12-13 15:31:45.540,0.200997,6.44716,11.6593,0.0878856,0.119039,0.0595576,0
2024-12-13 15:31:45.543,0.160319,6.49053,11.6785,0.0768904,0.150192,0.0613902,0
2024-12-13 15:31:45.545,0.129212,6.56232,11.6928,0.0671168,0.178291,0.0668878,0
2024-12-13 15:31:45.548,0.143569,6.62214,11.7096,0.0671168,0.178291,0.0668878,0
2024-12-13 15:31:45.552,0.155533,6.69153,11.755,0.0316877,0.245484,0.0791047,0
2024-12-13 15:31:45.552,0.157926,6.76571,11.8268,0.0316877,0.245484,0.0791047,0
2024-12-13 15:31:45.555,0.16989,6.82792,11.901,0.0200816,0.260145,0.0833807,0
2024-12-13 15:31:45.557,0.157926,6.8686,11.9632,0.0115297,0.276027,0.0870457,0
2024-12-13 15:31:45.559,0.129212,6.89253,12.0518,0.000534491,0.287633,0.0882674,0
2024-12-13 15:31:45.562,0.12682,6.93081,12.1621,-0.00740652,0.296795,0.0888783,0
2024-12-13 15:31:45.564,0.136391,6.96431,12.2578,-0.0147367,0.29985,0.0901,0
2024-12-13 15:31:45.566,0.136391,6.98824,12.3583,-0.021456,0.29985,0.0925434,0
2024-12-13 15:31:45.569,0.141177,7.0002,12.4349,-0.0257319,0.29985,0.0913217,0
2024-12-13 15:31:45.571,0.138784,7.0026,12.5019,-0.0287862,0.298628,0.0937651,0
2024-12-13 15:31:45.576,0.16989,7.03639,12.6386,-0.0257319,0.298017,0.0901,0
2024-12-13 15:31:45.576,0.16989,7.03639,12.6386,-0.0257319,0.298017,0.0901,0
2024-12-13 15:31:45.578,0.244068,7.05793,12.6721,-0.0287862,0.30046,0.0901,0
2024-12-13 15:31:45.581,0.30658,7.03879,12.7247,-0.033673,0.307791,0.0791047,0
2024-12-13 15:31:45.583,0.285045,6.97149,12.8827,-0.0348946,0.306569,0.0711637,0
2024-12-13 15:31:45.585,0.241675,6.90928,13.0502,-0.0281753,0.296795,0.0662769,0
2024-12-13 15:31:45.588,0.224925,6.84228,13.1578,-0.0220669,0.281524,0.0662769,0
2024-12-13 15:31:45.592,0.287438,6.73221,13.2538,-0.0159584,0.25648,0.0656661,0
2024-12-13 15:31:45.595,0.311366,6.73221,13.3208,-0.0171801,0.187454,0.0607793,0
2024-12-13 15:31:45.595,0.311366,6.73221,13.3208,-0.0171801,0.187454,0.0607793,0
2024-12-13 15:31:45.597,0.318545,6.72981,13.4142,-0.0220669,0.145916,0.0577251,0
2024-12-13 15:31:45.599,0.292223,6.71306,13.529,-0.0300079,0.0970484,0.0534491,0
2024-12-13 15:31:45.602,0.248854,6.68196,13.6798,-0.0361163,0.0500131,0.0510057,0
2024-12-13 15:31:45.604,0.229711,6.62453,13.8093,-0.0434465,0.00419957,0.0528383,0
2024-12-13 15:31:45.606,0.260818,6.55753,13.8715,-0.049555,-0.0367272,0.0491732,0
2024-12-13 15:31:45.609,0.299402,6.46182,13.9624,-0.049555,-0.0367272,0.0491732,0
2024-12-13 15:31:45.611,0.311366,6.36102,14.1275,-0.0721563,-0.11797,0.0424539,0
2024-12-13 15:31:45.613,0.313759,6.27966,14.2878,-0.0800973,-0.157064,0.0375671,0
2024-12-13 15:31:45.618,0.330509,6.0667,14.5322,-0.0947577,-0.223036,0.0326803,0
2024-12-13 15:31:45.618,0.330509,6.0667,14.5322,-0.0947577,-0.223036,0.0326803,0
2024-12-13 15:31:45.621,0.364008,5.94467,14.6303,-0.10392,-0.245026,0.0296261,0
2024-12-13 15:31:45.623,0.378365,5.81755,14.7332,-0.114305,-0.259686,0.025961,0
2024-12-13 15:31:45.625,0.359223,5.69073,14.86,-0.126522,-0.266406,0.0235176,0
2024-12-13 15:31:45.628,0.328116,5.57587,15.023,-0.13935,-0.262741,0.0222959,0
2024-12-13 15:31:45.630,0.289831,5.44188,15.1905,-0.149734,-0.249302,0.0204634,0
2024-12-13 15:31:45.632,0.260818,5.27647,15.3652,-0.152788,-0.227312,0.0198525,0
2024-12-13 15:31:45.635,0.229711,5.09701,15.5378,-0.157675,-0.198602,0.0174091,0
2024-12-13 15:31:45.637,0.184247,4.91037,15.722,-0.157675,-0.158286,0.0241285,0
2024-12-13 15:31:45.639,0.12682,4.72343,15.9398,-0.148512,-0.111861,0.0296261,0
2024-12-13 15:31:45.642,0.0646062,4.51765,16.1507,-0.136906,-0.0599394,0.0369563,0
2024-12-13 15:31:45.644,0.0167498,4.30947,16.3493,-0.11797,-0.00313059,0.0455081,0
2024-12-13 15:31:45.646,-0.0119641,4.09861,16.5455,-0.0929251,0.0573433,0.0565034,0
2024-12-13 15:31:45.649,-0.0358923,3.89043,16.7372,-0.0623828,0.118428,0.0687203,0
2024-12-13 15:31:45.651,-0.0741775,3.69183,16.8951,-0.0220669,0.180734,0.0809373,0
2024-12-13 15:31:45.654,-0.0837488,3.49053,16.9932,0.0206925,0.241819,0.0943759,3
2024-12-13 15:31:45.656,-0.0837488,3.28953,17.0554,0.0707819,0.301682,0.108425,0
2024-12-13 15:31:45.658,-0.0885344,3.1005,17.0674,0.123315,0.359713,0.122475,0
2024-12-13 15:31:45.661,-0.0861416,2.93749,17.0459,0.183789,0.413467,0.13599,0
2024-12-13 15:31:45.663,-0.0765703,2.79392,16.9645,0.244263,0.462335,0.152483,0
2024-12-13 15:31:45.665,-0.066999,2.65992,16.8353,0.30718,0.505094,0.1647,0
2024-12-13 15:31:45.668,-0.0502493,2.54267,16.6989,0.374449,0.541745,0.178749,0
2024-12-13 15:31:45.670,-0.0215354,2.44188,16.5072,0.443475,0.573509,0.19341,0
2024-12-13 15:31:45.672,-0.00478565,2.35334,16.2727,0.514333,0.596721,0.206237,0
2024-12-13 15:31:45.675,0.0334995,2.29113,15.9541,0.586413,0.621155,0.217233,0
2024-12-13 15:31:45.677,0.0693919,2.23849,15.6192,0.657883,0.6462,0.222119,0
2024-12-13 15:31:45.679,0.0358923,2.17866,15.3365,0.730573,0.659028,0.226395,0
2024-12-13 15:31:45.682,-0.0215354,2.11884,15.0015,0.806318,0.66025,0.234947,0
2024-12-13 15:31:45.684,-0.0909273,2.05424,14.5729,0.883285,0.659639,0.243499,0
2024-12-13 15:31:45.687,-0.153141,2.0016,14.0725,0.95903,0.651698,0.253273,0
2024-12-13 15:31:45.689,-0.196211,1.95583,13.5123,1.0305,0.644978,0.262435,0
2024-12-13 15:31:45.691,-0.260818,1.92233,12.9162,1.09219,0.63887,0.270987,0
2024-12-13 15:31:45.694,-0.330509,1.90798,12.32,1.15145,0.633372,0.28015,0
2024-12-13 15:31:45.696,-0.344866,1.90798,11.7503,1.20337,0.627875,0.286258,0
2024-12-13 15:31:45.698,-0.349651,1.91755,11.257,1.25407,0.61749,0.291145,0
2024-12-13 15:31:45.701,-0.419043,1.94865,10.7447,1.3011,0.605884,0.298475,0
2024-12-13 15:31:45.703,-0.517149,1.97767,10.1725,1.34203,0.596721,0.303362,0
2024-12-13 15:31:45.705,-0.62004,1.98245,9.60987,1.38051,0.586337,0.308249,0
2024-12-13 15:31:45.708,-0.715753,1.97528,9.04487,1.41167,0.577785,0.314357,0
2024-12-13 15:31:45.710,-0.82343,1.96062,8.50379,1.43732,0.568622,0.319244,0
2024-12-13 15:31:45.712,-0.912264,1.9681,7.98425,1.45748,0.560681,0.322909,0
2024-12-13 15:31:45.715,-0.929013,1.99202,7.50299,1.47092,0.549686,0.322909,0
2024-12-13 15:31:45.717,-0.871586,2.02074,7.09861,1.47642,0.536858,0.320466,0
2024-12-13 15:31:45.719,-0.813859,2.06381,6.71306,1.48069,0.519144,0.313746,0
2024-12-13 15:31:45.722,-0.804287,2.12602,6.30838,1.47336,0.499597,0.303973,0
2024-12-13 15:31:45.727,-0.859622,2.26481,5.58545,1.44404,0.457448,0.274652,0
2024-12-13 15:31:45.727,-0.859622,2.26481,5.58545,1.44404,0.457448,0.274652,0
2024-12-13 15:31:45.729,-0.938585,2.33659,5.28604,1.41961,0.434236,0.259381,0
2024-12-13 15:31:45.731,-1.05344,2.3988,5.03719,1.3909,0.406137,0.24411,0
2024-12-13 15:31:45.736,-1.26879,2.50648,4.65404,1.31882,0.348717,0.220287,0
2024-12-13 15:31:45.736,-1.26879,2.50648,4.65404,1.31882,0.348717,0.220287,0
2024-12-13 15:31:45.738,-1.36451,2.55942,4.48654,1.27972,0.321229,0.20807,0
2024-12-13 15:31:45.743,-1.48445,2.63839,4.24965,1.18688,0.261366,0.185468,0
2024-12-13 15:31:45.745,-1.48445,2.68146,4.18953,1.13495,0.234489,0.173862,0
2024-12-13 15:31:45.745,-1.51555,2.68146,4.18953,1.13495,0.234489,0.173862,0
2024-12-13 15:31:45.748,-1.52991,2.70539,4.17039,1.08364,0.205779,0.161035,0
2024-12-13 15:31:45.750,-1.54666,2.73171,4.17518,1.03416,0.177069,0.150039,0
2024-12-13 15:31:45.752,-1.53948,2.7676,4.2015,0.982242,0.151414,0.136601,0
2024-12-13 15:31:45.755,-1.52034,2.8011,4.24487,0.932153,0.126369,0.123697,0
2024-12-13 15:31:45.757,-1.5012,2.81785,4.31426,0.882674,0.103157,0.110258,0
2024-12-13 15:31:45.762,-1.44377,2.84656,4.51526,0.831363,0.0805555,0.098041,0
2024-12-13 15:31:45.764,-1.41745,2.85853,4.64447,0.744012,0.0390179,0.0742179,0
2024-12-13 15:31:45.764,-1.41745,2.85853,4.64447,0.744012,0.0390179,0.0742179,0
2024-12-13 15:31:45.767,-1.38844,2.88006,4.77637,0.703696,0.0164165,0.0638335,0
2024-12-13 15:31:45.770,-1.36451,2.88485,4.88644,0.626729,-0.0208452,0.0430647,0
2024-12-13 15:31:45.771,-1.32622,2.8657,4.99173,0.626729,-0.0208452,0.0430647,0
2024-12-13 15:31:45.774,-1.27597,2.84417,5.08505,0.5913,-0.0348946,0.0357346,0
2024-12-13 15:31:45.776,-1.22333,2.83699,5.18076,0.561979,-0.0434465,0.0326803,0
2024-12-13 15:31:45.778,-1.1683,2.79631,5.29322,0.531437,-0.0483333,0.0296261,0
2024-12-13 15:31:45.781,-1.10848,2.73171,5.40359,0.502116,-0.0471116,0.0284044,0
2024-12-13 15:31:45.783,-1.05105,2.68864,5.49213,0.480126,-0.0410031,0.0265719,0
2024-12-13 15:31:45.785,-0.991227,2.65035,5.5663,0.456303,-0.033673,0.0265719,0
2024-12-13 15:31:45.790,-0.876371,2.55942,5.78884,0.415987,-0.0190126,0.0265719,0
2024-12-13 15:31:45.790,-0.876371,2.55942,5.78884,0.415987,-0.0190126,0.0265719,0
2024-12-13 15:31:45.792,-0.847657,2.52832,5.85105,0.39644,-0.00862822,0.0284044,0
2024-12-13 15:31:45.795,-0.837787,2.49691,5.89681,0.380558,0.00114534,0.0308478,0
2024-12-13 15:31:45.800,-0.845265,2.48734,6.06431,0.351161,0.0359636,0.0357346,0
2024-12-13 15:31:45.800,-0.845265,2.48734,6.06431,0.351161,0.0359636,0.0357346,0
2024-12-13 15:31:45.802,-0.862014,2.48734,6.11456,0.340776,0.0567324,0.0436756,0
2024-12-13 15:31:45.804,-0.862014,2.48016,6.13849,0.32917,0.0768904,0.0510057,0
2024-12-13 15:31:45.807,-0.85005,2.44666,6.15284,0.320008,0.094605,0.0577251,0
2024-12-13 15:31:45.810,-0.833001,2.41555,6.1672,0.301071,0.120261,0.0705529,0
2024-12-13 15:31:45.811,-0.80668,2.39641,6.19352,0.301071,0.120261,0.0705529,0
2024-12-13 15:31:45.814,-0.777966,2.39163,6.21027,0.291298,0.128202,0.0760505,0
2024-12-13 15:31:45.818,-0.71336,2.37488,6.21984,0.270529,0.139197,0.0846023,0
2024-12-13 15:31:45.818,-0.71336,2.37488,6.21984,0.270529,0.139197,0.0846023,0
2024-12-13 15:31:45.821,-0.699003,2.37009,6.23659,0.260755,0.141029,0.0894891,0
2024-12-13 15:31:45.823,-0.696611,2.38206,6.24616,0.251593,0.144084,0.0937651,0
2024-12-13 15:31:45.825,-0.701396,2.38923,6.24616,0.251593,0.144084,0.0937651,0
2024-12-13 15:31:45.828,-0.710967,2.40359,6.26291,0.230824,0.146527,0.0986518,0
2024-12-13 15:31:45.830,-0.727717,2.41077,6.26531,0.219218,0.146527,0.101095,0
2024-12-13 15:31:45.833,-0.766002,2.3988,6.29402,0.208833,0.143473,0.10476,0
2024-12-13 15:31:45.835,-0.782752,2.40598,6.31556,0.200892,0.137975,0.109036,0
2024-12-13 15:31:45.837,-0.787538,2.41795,6.30598,0.188675,0.131867,0.11148,0
2024-12-13 15:31:45.840,-0.792323,2.43709,6.29641,0.178291,0.12698,0.113923,0
2024-12-13 15:31:45.842,-0.785145,2.46102,6.28206,0.166685,0.121482,0.119421,0
2024-12-13 15:31:45.844,-0.80668,2.4658,6.28445,0.154468,0.117206,0.120031,0
2024-12-13 15:31:45.849,-0.828216,2.47059,6.26291,0.133088,0.109876,0.127362,0
2024-12-13 15:31:45.849,-0.833001,2.48734,6.26291,0.133088,0.109876,0.127362,0
2024-12-13 15:31:45.851,-0.82343,2.49212,6.25813,0.133088,0.109876,0.127362,0
2024-12-13 15:31:45.854,-0.821037,2.4993,6.24377,0.11232,0.104379,0.134157,0
2024-12-13 15:31:45.858,-0.835394,2.5331,6.22702,0.0933833,0.0988809,0.139655,0
2024-12-13 15:31:45.858,-0.845265,2.56899,6.21027,0.0933833,0.0988809,0.139655,0
2024-12-13 15:31:45.861,-0.828216,2.6001,6.18395,0.0817772,0.0964375,0.140266,0
2024-12-13 15:31:45.863,-0.80668,2.64078,6.13849,0.0720036,0.0909399,0.142098,0
2024-12-13 15:31:45.868,-0.756431,2.68385,6.01167,0.050624,0.0848314,0.146985,0
2024-12-13 15:31:45.868,-0.756431,2.68385,6.01167,0.050624,0.0848314,0.146985,0
2024-12-13 15:31:45.870,-0.73011,2.72453,5.95903,0.0408504,0.0836097,0.146374,0
2024-12-13 15:31:45.873,-0.699003,2.76281,5.92792,0.0329094,0.082388,0.145763,0
2024-12-13 15:31:45.875,-0.672682,2.77717,5.87737,0.0206925,0.0842206,0.144542,0
2024-12-13 15:31:45.877,-0.641576,2.8011,5.83191,0.0115297,0.0854423,0.145763,0
2024-12-13 15:31:45.880,-0.62004,2.82024,5.80319,0.00175619,0.0878856,0.146374,0
2024-12-13 15:31:45.882,-0.591326,2.8346,5.76491,-0.00557398,0.0891073,0.145153,0
2024-12-13 15:31:45.884,-0.545863,2.83699,5.73619,-0.0159584,0.0933833,0.144542,0
2024-12-13 15:31:45.888,-0.490828,2.82981,5.68595,-0.0397814,0.0970484,0.139655,0
2024-12-13 15:31:45.889,-0.457328,2.83699,5.6668,-0.0397814,0.0970484,0.139655,0
2024-12-13 15:31:45.894,-0.478864,2.95663,5.71944,-0.0611611,0.100103,0.138433,0
2024-12-13 15:31:45.894,-0.478864,2.95663,5.71944,-0.0611611,0.100103,0.138433,0
2024-12-13 15:31:45.896,-0.493221,3.0021,5.7338,-0.0697129,0.104379,0.139655,0
2024-12-13 15:31:45.898,-0.474078,3.06431,5.73619,-0.0770431,0.109876,0.142709,0
2024-12-13 15:31:45.903,-0.440578,3.16032,5.74577,-0.0868167,0.115374,0.143931,0
2024-12-13 15:31:45.906,-0.397508,3.19382,5.74337,-0.106975,0.122704,0.146985,0
2024-12-13 15:31:45.906,-0.397508,3.19382,5.74337,-0.106975,0.122704,0.146985,0
2024-12-13 15:31:45.908,-0.383151,3.21296,5.75294,-0.11797,0.12698,0.146985,0
2024-12-13 15:31:45.910,-0.35683,3.23689,5.78405,-0.129576,0.128202,0.147596,0
2024-12-13 15:31:45.913,-0.335294,3.25843,5.83191,-0.13935,0.128812,0.147596,0
2024-12-13 15:31:45.915,-0.325723,3.268,5.87019,-0.150345,0.128202,0.148818,0
2024-12-13 15:31:45.917,-0.32333,3.27996,5.91117,-0.161951,0.124536,0.147596,0
2024-12-13 15:31:45.920,-0.330509,3.30628,5.93749,-0.173557,0.119039,0.148207,0
2024-12-13 15:31:45.922,-0.328116,3.32782,5.96381,-0.185774,0.11293,0.148818,0
2024-12-13 15:31:45.924,-0.325723,3.34696,5.97817,-0.193715,0.106211,0.148207,0
2024-12-13 15:31:45.927,-0.335294,3.37567,5.99013,-0.202878,0.0982701,0.146985,0
2024-12-13 15:31:45.931,-0.299402,3.45703,6.02602,-0.225479,0.0860531,0.143931,0
2024-12-13 15:31:45.931,-0.299402,3.45703,6.02602,-0.225479,0.0860531,0.143931,0
2024-12-13 15:31:45.934,-0.308973,3.47617,6.02842,-0.232198,0.0805555,0.142098,0
2024-12-13 15:31:45.936,-0.313759,3.50489,6.05235,-0.243194,0.0775012,0.139655,0
2024-12-13 15:31:45.939,-0.30658,3.54556,6.08585,-0.251135,0.074447,0.140266,0
2024-12-13 15:31:45.941,-0.304188,3.57428,6.11456,-0.257854,0.0732253,0.139655,0
2024-12-13 15:31:45.943,-0.316152,3.59821,6.13131,-0.263962,0.0701711,0.136601,0
2024-12-13 15:31:45.946,-0.332901,3.61735,6.15763,-0.273125,0.066506,0.13599,0
2024-12-13 15:31:45.948,-0.332901,3.6341,6.19113,-0.277401,0.0646735,0.13347,0
2024-12-13 15:31:45.950,-0.332901,3.65833,6.22463,-0.283509,0.0622301,0.132859,0
2024-12-13 15:31:45.953,-0.330509,3.67747,6.25813,-0.289007,0.0591758,0.130416,0
2024-12-13 15:31:45.955,-0.30658,3.7014,6.28684,-0.296337,0.0561216,0.130416,0
2024-12-13 15:31:45.957,-0.285045,3.74208,6.30598,-0.303667,0.0542891,0.128583,0
2024-12-13 15:31:45.960,-0.270389,3.79472,6.32513,-0.308554,0.0530674,0.123086,0
2024-12-13 15:31:45.962,-0.263211,3.85215,6.36341,-0.316495,0.0518457,0.119421,0
2024-12-13 15:31:45.964,-0.256032,3.89761,6.38734,-0.321382,0.0512348,0.116366,0
2024-12-13 15:31:45.967,-0.246461,3.95264,6.4017,-0.328712,0.0518457,0.112701,0
2024-12-13 15:31:45.969,-0.236889,4.02682,6.42802,-0.336653,0.0524565,0.105371,0
2024-12-13 15:31:45.974,-0.208176,4.13211,6.45464,-0.354979,0.0494023,0.0937651,0
2024-12-13 15:31:45.974,-0.208176,4.13211,6.45464,-0.354979,0.0494023,0.0937651,0
2024-12-13 15:31:45.979,-0.292223,4.19671,6.49771,-0.373915,0.0377962,0.0797156,0
2024-12-13 15:31:45.979,-0.292223,4.19671,6.49771,-0.373915,0.0377962,0.0797156,0
2024-12-13 15:31:45.983,-0.373579,4.23769,6.60299,-0.397127,0.0347419,0.0687203,0
2024-12-13 15:31:45.983,-0.373579,4.23769,6.60299,-0.397127,0.0347419,0.0687203,0
2024-12-13 15:31:45.986,-0.383151,4.2688,6.64846,-0.40629,0.0377962,0.0632227,0
2024-12-13 15:31:45.988,-0.380758,4.30708,6.7011,-0.416674,0.0420721,0.0583359,0
2024-12-13 15:31:45.990,-0.373579,4.3334,6.7681,-0.425226,0.0494023,0.0534491,0
2024-12-13 15:31:45.993,-0.366401,4.36451,6.83031,-0.437443,0.0548999,0.046119,0
2024-12-13 15:31:45.995,-0.368794,4.40519,6.88535,-0.445384,0.0610084,0.0393996,0
2024-12-13 15:31:45.997,-0.378365,4.4339,6.9356,-0.454547,0.0640626,0.0326803,0
2024-12-13 15:31:46.000,-0.402293,4.45304,6.99302,-0.465542,0.0658951,0.0253502,0
2024-12-13 15:31:46.002,-0.445364,4.47458,7.04118,-0.470429,0.0695602,0.0204634,0
2024-12-13 15:31:46.004,-0.481256,4.49851,7.08664,-0.478981,0.0732253,0.0137441,0
2024-12-13 15:31:46.007,-0.490828,4.52483,7.15125,-0.488143,0.0793338,0.00763559,0
2024-12-13 15:31:46.009,-0.45015,4.54876,7.19671,-0.488143,0.0793338,0.00763559,0
2024-12-13 15:31:46.012,-0.411865,4.56311,7.24218,-0.510745,0.0915507,-0.00763559,0
2024-12-13 15:31:46.014,-0.3999,4.58226,7.30439,-0.522962,0.0958267,-0.0174091,0
2024-12-13 15:31:46.016,-0.385544,4.6014,7.37617,-0.532124,0.0970484,-0.0277936,0
2024-12-13 15:31:46.019,-0.407079,4.60618,7.45753,-0.54373,0.0982701,-0.0357346,0
2024-12-13 15:31:46.021,-0.454935,4.61336,7.5341,-0.555947,0.0982701,-0.0430647,0
2024-12-13 15:31:46.023,-0.483649,4.63011,7.6014,-0.555947,0.0982701,-0.0430647,0
2024-12-13 15:31:46.026,-0.493221,4.64925,7.67318,-0.575494,0.0952158,-0.0565034,0
2024-12-13 15:31:46.028,-0.498006,4.67079,7.76411,-0.584046,0.0927724,-0.0626118,0
2024-12-13 15:31:46.030,-0.500399,4.68754,7.86461,-0.591987,0.0952158,-0.0717745,0
2024-12-13 15:31:46.033,-0.517149,4.7019,7.9675,-0.598096,0.0952158,-0.077883,0
2024-12-13 15:31:46.035,-0.557827,4.71147,8.06321,-0.602372,0.0958267,-0.0809373,0
2024-12-13 15:31:46.037,-0.608076,4.71386,8.15205,-0.607869,0.0933833,-0.0864349,0
2024-12-13 15:31:46.040,-0.651147,4.72582,8.2358,-0.60848,0.0921616,-0.0937651,0
2024-12-13 15:31:46.044,-0.715753,4.74736,8.39612,-0.609091,0.090329,-0.100484,0
2024-12-13 15:31:46.047,-0.749253,4.74497,8.46072,-0.606648,0.0884965,-0.105371,0
2024-12-13 15:31:46.047,-0.749253,4.74497,8.46072,-0.606648,0.0884965,-0.105371,0
2024-12-13 15:31:46.049,-0.768395,4.74975,8.53969,-0.602372,0.0897182,-0.109036,0
2024-12-13 15:31:46.052,-0.777966,4.76411,8.64018,-0.594431,0.0884965,-0.110869,0
2024-12-13 15:31:46.054,-0.797109,4.77398,8.69761,-0.583435,0.0860531,-0.115756,0
2024-12-13 15:31:46.056,-0.82343,4.77398,8.7362,-0.573662,0.0848314,-0.121253,0
2024-12-13 15:31:46.059,-0.852443,4.79073,8.7673,-0.562667,0.0762796,-0.123086,0
2024-12-13 15:31:46.064,-0.912264,4.77637,8.85584,-0.535789,0.0622301,-0.129194,0
2024-12-13 15:31:46.066,-0.94337,4.78116,8.89891,-0.52174,0.0518457,-0.129805,0
2024-12-13 15:31:46.066,-0.94337,4.78116,8.89891,-0.52174,0.0518457,-0.129805,0
2024-12-13 15:31:46.068,-0.962513,4.80987,8.92284,-0.505247,0.0439046,-0.129194,0
2024-12-13 15:31:46.070,-0.979263,4.82184,8.93719,-0.489976,0.0341311,-0.128583,0
2024-12-13 15:31:46.073,-0.986441,4.81705,8.95634,-0.472261,0.0249684,-0.126751,0
2024-12-13 15:31:46.075,-0.991227,4.82423,8.9683,-0.472261,0.0249684,-0.126751,0
2024-12-13 15:31:46.077,-0.986441,4.8338,8.97548,-0.438054,0.00236703,-0.126751,0
2024-12-13 15:31:46.080,-0.979263,4.85294,8.95873,-0.422172,-0.00923906,-0.124307,0
2024-12-13 15:31:46.082,-0.96012,4.87209,8.92762,-0.409344,-0.0220669,-0.123697,0
2024-12-13 15:31:46.085,-0.917049,4.88166,8.89412,-0.395905,-0.0348946,-0.123086,0
2024-12-13 15:31:46.087,-0.8668,4.88166,8.84866,-0.384299,-0.0471116,-0.123697,0
2024-12-13 15:31:46.089,-0.82343,4.89123,8.81037,-0.373304,-0.0587177,-0.125529,0
2024-12-13 15:31:46.094,-0.770788,4.9343,8.72662,-0.359865,-0.0800973,-0.129805,0
2024-12-13 15:31:46.094,-0.770788,4.9343,8.72662,-0.359865,-0.0800973,-0.129805,0
2024-12-13 15:31:46.096,-0.799502,4.94626,8.72902,-0.353146,-0.0849841,-0.131027,0
2024-12-13 15:31:46.099,-0.821037,4.94387,8.7362,-0.348259,-0.0868167,-0.127972,0
2024-12-13 15:31:46.101,-0.816252,4.95105,8.76252,-0.342151,-0.0862058,-0.124307,0
2024-12-13 15:31:46.103,-0.782752,4.98216,8.77687,-0.337875,-0.0843733,-0.123697,0
2024-12-13 15:31:46.106,-0.751645,5.01566,8.79602,-0.33421,-0.0788757,-0.121864,0
2024-12-13 15:31:46.108,-0.725324,5.04437,8.81755,-0.33421,-0.073378,-0.119421,0
2024-12-13 15:31:46.110,-0.706182,5.06112,8.82234,-0.33421,-0.065437,-0.117588,0
2024-12-13 15:31:46.113,-0.687039,5.08744,8.81277,-0.33421,-0.0617719,-0.114534,0
2024-12-13 15:31:46.117,-0.694218,5.15683,8.74577,-0.340929,-0.0513875,-0.11148,0
2024-12-13 15:31:46.120,-0.689432,5.18794,8.72423,-0.343983,-0.0440574,-0.110869,0
2024-12-13 15:31:46.122,-0.703789,5.20947,8.74337,-0.350703,-0.0379489,-0.107204,0
2024-12-13 15:31:46.122,-0.703789,5.20947,8.74337,-0.350703,-0.0379489,-0.107204,0
2024-12-13 15:31:46.125,-0.732503,5.24058,8.77209,-0.3562,-0.0318404,-0.102928,0
2024-12-13 15:31:46.127,-0.761217,5.27408,8.81755,-0.36292,-0.0269536,-0.0992627,0
2024-12-13 15:31:46.129,-0.787538,5.30519,8.85823,-0.367806,-0.0232886,-0.0968193,0
2024-12-13 15:31:46.132,-0.801895,5.33181,8.91326,-0.367806,-0.0232886,-0.0968193,0
2024-12-13 15:31:46.134,-0.804287,5.31954,8.97787,-0.379413,-0.0171801,-0.0913217,0
2024-12-13 15:31:46.136,-0.797109,5.3342,9.05205,-0.383688,-0.013515,-0.0876566,0
2024-12-13 15:31:46.139,-0.799502,5.3677,9.14058,-0.385521,-0.00923906,-0.0870457,0
2024-12-13 15:31:46.141,-0.811466,5.3677,9.23151,-0.389797,-0.00862822,-0.085824,0
2024-12-13 15:31:46.143,-0.825823,5.38924,9.31077,-0.387354,-0.00862822,-0.0839915,0
2024-12-13 15:31:46.146,-0.857229,5.42752,9.37299,-0.39224,-0.0110716,-0.0833807,0
2024-12-13 15:31:46.148,-0.873978,5.43709,9.44238,-0.391019,-0.00801737,-0.0833807,0
2024-12-13 15:31:46.150,-0.878764,5.43948,9.52134,-0.391019,-0.0129041,-0.082159,0
2024-12-13 15:31:46.153,-0.888335,5.46341,9.59552,-0.388575,-0.0147367,-0.0815481,0
2024-12-13 15:31:46.155,-0.88355,5.47538,9.65773,-0.387354,-0.0226777,-0.082159,0
2024-12-13 15:31:46.158,-0.881157,5.47538,9.71516,-0.387964,-0.0318404,-0.0827698,0
2024-12-13 15:31:46.161,-0.885943,5.48734,9.78455,-0.383688,-0.0507767,-0.0852132,0
2024-12-13 15:31:46.162,-0.888335,5.48255,9.87578,-0.383688,-0.0507767,-0.0852132,0
2024-12-13 15:31:46.165,-0.885943,5.47777,9.97388,-0.381245,-0.0611611,-0.085824,0
2024-12-13 15:31:46.167,-0.878764,5.48016,10.1007,-0.378802,-0.073378,-0.0876566,0
2024-12-13 15:31:46.169,-0.8668,5.47777,10.2299,-0.373915,-0.085595,-0.0882674,0
2024-12-13 15:31:46.172,-0.842872,5.47538,10.3376,-0.365974,-0.100255,-0.0888783,0
2024-12-13 15:31:46.174,-0.818644,5.48734,10.4647,-0.359865,-0.114916,-0.0925434,0
2024-12-13 15:31:46.176,-0.797109,5.48495,10.5915,-0.352535,-0.126522,-0.0949868,0
2024-12-13 15:31:46.179,-0.782752,5.46341,10.7207,-0.343983,-0.13996,-0.0986518,0
2024-12-13 15:31:46.181,-0.766002,5.45863,10.8715,-0.33421,-0.149123,-0.10476,0
2024-12-13 15:31:46.183,-0.744467,5.46102,11.0201,-0.321382,-0.158897,-0.105982,0
2024-12-13 15:31:46.186,-0.739681,5.45145,11.1709,-0.307943,-0.165616,-0.110869,0
2024-12-13 15:31:46.188,-0.732503,5.4347,11.3336,-0.289007,-0.174779,-0.113923,0
2024-12-13 15:31:46.190,-0.71336,5.44906,11.4772,-0.273736,-0.182109,-0.116366,0
2024-12-13 15:31:46.193,-0.694218,5.50409,11.6019,-0.256632,-0.188217,-0.120031,0
2024-12-13 15:31:46.195,-0.677468,5.57827,11.6785,-0.237696,-0.193715,-0.123086,0
2024-12-13 15:31:46.198,-0.651147,5.62852,11.7287,-0.237696,-0.193715,-0.123086,0
2024-12-13 15:31:46.200,-0.605683,5.6333,11.7838,-0.206543,-0.202267,-0.131638,0
2024-12-13 15:31:46.205,-0.507577,5.65723,11.9441,-0.176,-0.207764,-0.146298,0
2024-12-13 15:31:46.205,-0.507577,5.65723,11.9441,-0.176,-0.207764,-0.146298,0
2024-12-13 15:31:46.207,-0.471685,5.67877,12.0374,-0.158897,-0.209597,-0.15485,0
2024-12-13 15:31:46.209,-0.464507,5.70987,12.1286,-0.13996,-0.216316,-0.159126,0
2024-12-13 15:31:46.212,-0.481256,5.74577,12.21,-0.121635,-0.21876,-0.167678,0
2024-12-13 15:31:46.214,-0.505185,5.78644,12.2842,-0.102699,-0.222425,-0.171343,0
2024-12-13 15:31:46.216,-0.524327,5.82951,12.3224,-0.0819299,-0.220592,-0.177451,0
2024-12-13 15:31:46.219,-0.533899,5.87737,12.3344,-0.0611611,-0.212651,-0.180505,0
2024-12-13 15:31:46.223,-0.569791,5.97099,12.387,-0.0422248,-0.201656,-0.182949,0
2024-12-13 15:31:46.226,-0.615255,6.00688,12.4301,-0.00740652,-0.176,-0.192111,0
2024-12-13 15:31:46.226,-0.615255,6.00688,12.4301,-0.00740652,-0.176,-0.192111,0
2024-12-13 15:31:46.228,-0.665504,6.02842,12.4445,0.0096972,-0.165616,-0.196387,0
2024-12-13 15:31:46.231,-0.720539,6.05474,12.4517,0.0261901,-0.157675,-0.201274,0
2024-12-13 15:31:46.233,-0.773181,6.1002,12.4564,0.0439046,-0.149734,-0.203107,0
2024-12-13 15:31:46.235,-0.82343,6.14806,12.4445,0.0622301,-0.144847,-0.207383,0
2024-12-13 15:31:46.238,-0.854836,6.19113,12.4253,0.0787229,-0.141182,-0.209826,0
2024-12-13 15:31:46.240,-0.905085,6.24616,12.4062,0.0787229,-0.141182,-0.209826,0
2024-12-13 15:31:46.242,-0.96012,6.31316,12.4038,0.11232,-0.138128,-0.21288,0
2024-12-13 15:31:46.245,-0.998405,6.36102,12.3918,0.127591,-0.13935,-0.214713,0
2024-12-13 15:31:46.247,-1.04387,6.40888,12.3727,0.142862,-0.141793,-0.217156,0
2024-12-13 15:31:46.249,-1.07498,6.45464,12.3631,0.155079,-0.148512,-0.218378,0
2024-12-13 15:31:46.252,-1.08694,6.5001,12.3631,0.167296,-0.158286,-0.221432,0
2024-12-13 15:31:46.255,-1.09651,6.52882,12.3775,0.190508,-0.180276,-0.220821,0
2024-12-13 15:31:46.256,-1.10369,6.54796,12.4014,0.190508,-0.180276,-0.220821,0
2024-12-13 15:31:46.261,-1.11565,6.60299,12.4684,0.209444,-0.20471,-0.220821,0
2024-12-13 15:31:46.261,-1.11565,6.60299,12.4684,0.209444,-0.20471,-0.220821,0
2024-12-13 15:31:46.264,-1.13001,6.62692,12.5258,0.218607,-0.216927,-0.222043,0
2024-12-13 15:31:46.266,-1.13958,6.65324,12.5617,0.228991,-0.228533,-0.221432,0
2024-12-13 15:31:46.268,-1.14915,6.68914,12.5928,0.238765,-0.240139,-0.220821,0
2024-12-13 15:31:46.271,-1.15155,6.72981,12.5976,0.247928,-0.251745,-0.220821,0
2024-12-13 15:31:46.273,-1.14197,6.76092,12.5689,0.258312,-0.263962,-0.218378,0
2024-12-13 15:31:46.275,-1.12762,6.79681,12.5569,0.265031,-0.273125,-0.217767,0
2024-12-13 15:31:46.278,-1.12044,6.83031,12.545,0.269918,-0.28412,-0.216545,0
2024-12-13 15:31:46.280,-1.11805,6.85424,12.5258,0.274194,-0.295116,-0.215935,0
2024-12-13 15:31:46.282,-1.10608,6.88535,12.5115,0.27847,-0.303057,-0.214102,0
2024-12-13 15:31:46.285,-1.09651,6.92842,12.4971,0.282135,-0.310387,-0.214713,0
2024-12-13 15:31:46.287,-1.1013,6.96192,12.4899,0.283968,-0.32016,-0.212269,0
2024-12-13 15:31:46.289,-1.10608,6.99542,12.4852,0.283357,-0.328101,-0.209215,0
2024-12-13 15:31:46.292,-1.0989,7.02682,12.4756,0.283357,-0.333599,-0.207383,0
2024-12-13 15:31:46.294,-1.1013,7.04836,12.466,0.282746,-0.338486,-0.204328,0
2024-12-13 15:31:46.299,-1.11805,7.07468,12.4588,0.277859,-0.340318,-0.198831,0
2024-12-13 15:31:46.299,-1.11805,7.07468,12.4588,0.277859,-0.340318,-0.198831,0
2024-12-13 15:31:46.301,-1.11326,7.0675,12.4732,0.276027,-0.34154,-0.196387,0
2024-12-13 15:31:46.304,-1.10848,7.05075,12.5187,0.270529,-0.339097,-0.190279,0
2024-12-13 15:31:46.306,-1.0989,7.03161,12.5833,0.266864,-0.336653,-0.188446,0
2024-12-13 15:31:46.308,-1.07737,7.00499,12.6314,0.263199,-0.33421,-0.186614,0
2024-12-13 15:31:46.311,-1.06301,6.97627,12.6912,0.257701,-0.333599,-0.185392,0
2024-12-13 15:31:46.313,-1.04148,6.9332,12.7487,0.252204,-0.331766,-0.18356,0
2024-12-13 15:31:46.315,-1.01037,6.9021,12.8037,0.247317,-0.33421,-0.182338,0
2024-12-13 15:31:46.318,-0.981655,6.88535,12.8516,0.240597,-0.339097,-0.185392,0
2024-12-13 15:31:46.320,-0.962513,6.86142,12.8803,0.233267,-0.343983,-0.18417,0
2024-12-13 15:31:46.322,-0.921835,6.81835,12.9186,0.225326,-0.347038,-0.185392,0
2024-12-13 15:31:46.325,-0.862014,6.75374,12.964,0.217385,-0.351314,-0.187836,0
2024-12-13 15:31:46.327,-0.801895,6.68196,13.0262,0.210666,-0.358033,-0.189668,0
2024-12-13 15:31:46.329,-0.744467,6.58624,13.1148,0.20639,-0.368417,-0.195166,0
2024-12-13 15:31:46.332,-0.701396,6.49292,13.2251,0.196006,-0.380634,-0.197609,0
2024-12-13 15:31:46.334,-0.655932,6.38973,13.34,0.189286,-0.395905,-0.201885,0
2024-12-13 15:31:46.337,-0.627219,6.25574,13.4596,0.182567,-0.414231,-0.206772,0
2024-12-13 15:31:46.341,-0.545863,5.97338,13.7372,0.16302,-0.448438,-0.215324,0
2024-12-13 15:31:46.341,-0.545863,5.97338,13.7372,0.16302,-0.448438,-0.215324,0
2024-12-13 15:31:46.344,-0.502792,5.82473,13.9146,0.15569,-0.46432,-0.217767,0
2024-12-13 15:31:46.346,-0.452543,5.6692,14.1299,0.147749,-0.474094,-0.223265,0
2024-12-13 15:31:46.348,-0.402293,5.50648,14.3862,0.142862,-0.481424,-0.225097,0
2024-12-13 15:31:46.351,-0.366401,5.34138,14.6351,0.139808,-0.486311,-0.225708,0
2024-12-13 15:31:46.353,-0.313759,5.15683,14.86,0.139197,-0.483867,-0.227541,0
2024-12-13 15:31:46.355,-0.248854,4.97258,15.0302,0.139197,-0.47165,-0.228762,0
2024-12-13 15:31:46.358,-0.198604,4.80987,15.2408,0.138586,-0.450271,-0.23426,0
2024-12-13 15:31:46.360,-0.181855,4.65643,15.4995,0.144694,-0.430113,-0.238536,0
2024-12-13 15:31:46.362,-0.191426,4.48176,15.7196,0.153246,-0.409955,-0.238536,0
2024-12-13 15:31:46.367,-0.193819,4.10818,16.0143,0.190508,-0.367196,-0.229984,0
2024-12-13 15:31:46.367,-0.193819,4.10818,16.0143,0.190508,-0.367196,-0.229984,0
2024-12-13 15:31:46.369,-0.189033,3.91197,16.0621,0.208833,-0.346427,-0.22693,3
2024-12-13 15:31:46.372,-0.184247,3.72533,16.0334,0.231435,-0.321382,-0.223876,0
2024-12-13 15:31:46.374,-0.172283,3.51924,15.9494,0.250982,-0.294505,-0.217767,0
2024-12-13 15:31:46.377,-0.16989,3.31107,15.8273,0.267475,-0.267627,-0.216545,0
2024-12-13 15:31:46.379,-0.174676,3.134,15.679,0.284578,-0.236474,-0.215324,0
2024-12-13 15:31:46.384,-0.222533,2.84417,15.3054,0.305347,-0.205932,-0.213491,0
2024-12-13 15:31:46.384,-0.222533,2.84417,15.3054,0.305347,-0.205932,-0.213491,0
2024-12-13 15:31:46.386,-0.232104,2.72692,15.0685,0.35055,-0.149123,-0.211048,0
2024-12-13 15:31:46.388,-0.239282,2.6336,14.7906,0.372617,-0.117359,-0.209826,0
2024-12-13 15:31:46.391,-0.239282,2.54985,14.4532,0.400105,-0.0868167,-0.208604,0
2024-12-13 15:31:46.393,-0.251246,2.47298,14.0629,0.422706,-0.0568851,-0.207993,0
2024-12-13 15:31:46.395,-0.270389,2.40359,13.6606,0.447751,-0.029397,-0.206161,0
2024-12-13 15:31:46.398,-0.253639,2.32941,13.2371,0.469742,-0.00374144,-0.204328,0
2024-12-13 15:31:46.400,-0.22014,2.26241,12.7798,0.49051,0.0170274,-0.206772,0
2024-12-13 15:31:46.402,-0.205783,2.18106,12.3344,0.512501,0.0329094,-0.208604,0
2024-12-13 15:31:46.405,-0.205783,2.10688,11.8866,0.535102,0.0451263,-0.210437,0
2024-12-13 15:31:46.407,-0.22014,2.03988,11.4197,0.550373,0.0536782,-0.214102,0
2024-12-13 15:31:46.410,-0.241675,1.97767,10.9484,0.568699,0.0579541,-0.215935,0
2024-12-13 15:31:46.412,-0.256032,1.92951,10.4767,0.588857,0.0634518,-0.22021,0
2024-12-13 15:31:46.414,-0.258425,1.87448,9.99781,0.604739,0.0652843,-0.2196,0
2024-12-13 15:31:46.417,-0.251246,1.80748,9.52613,0.620621,0.0671168,-0.218378,0
2024-12-13 15:31:46.419,-0.234497,1.76919,9.07837,0.635281,0.0689494,-0.2196,0
2024-12-13 15:31:46.421,-0.229711,1.73809,8.66172,0.648109,0.0689494,-0.218378,0
2024-12-13 15:31:46.424,-0.229711,1.70459,8.27647,0.660326,0.0677277,-0.214713,0
2024-12-13 15:31:46.426,-0.222533,1.69502,7.90289,0.671321,0.0634518,-0.211659,0
2024-12-13 15:31:46.428,-0.212961,1.6998,7.5341,0.681706,0.0567324,-0.209826,0
2024-12-13 15:31:46.431,-0.196211,1.70459,7.20389,0.687814,0.0475697,-0.20555,0
2024-12-13 15:31:46.433,-0.162712,1.72852,6.91167,0.695144,0.0353528,-0.200663,0
2024-12-13 15:31:46.435,-0.112463,1.77398,6.61974,0.696366,0.0194708,-0.196387,0
2024-12-13 15:31:46.440,0.00717847,1.8673,6.09542,0.696977,0.000534491,-0.189057,0
2024-12-13 15:31:46.441,0.00717847,1.8673,6.09542,0.695755,-0.0410031,-0.18417,0
2024-12-13 15:31:46.445,0.143569,1.98006,5.6668,0.689036,-0.0648262,-0.182338,0
2024-12-13 15:31:46.445,0.143569,1.98006,5.6668,0.689036,-0.0648262,-0.182338,0
2024-12-13 15:31:46.447,0.222533,2.0327,5.50648,0.68476,-0.085595,-0.180505,0
2024-12-13 15:31:46.450,0.299402,2.08535,5.38445,0.67804,-0.108196,-0.182338,0
2024-12-13 15:31:46.452,0.373579,2.11884,5.28126,0.67804,-0.108196,-0.182338,0
2024-12-13 15:31:46.454,0.4334,2.15474,5.17837,0.660937,-0.151566,-0.182338,0
2024-12-13 15:31:46.457,0.478864,2.21216,5.0994,0.64872,-0.173557,-0.182338,0
2024-12-13 15:31:46.459,0.502792,2.25763,5.03958,0.635281,-0.193104,-0.181116,0
2024-12-13 15:31:46.464,0.524327,2.36531,4.92951,0.610236,-0.229755,-0.17684,0
2024-12-13 15:31:46.464,0.524327,2.36531,4.92951,0.610236,-0.229755,-0.17684,0
2024-12-13 15:31:46.466,0.538684,2.41795,4.90559,0.593133,-0.245026,-0.173175,0
2024-12-13 15:31:46.468,0.567398,2.47059,4.90798,0.574196,-0.257854,-0.168899,0
2024-12-13 15:31:46.471,0.596112,2.51366,4.93191,0.557093,-0.268849,-0.162791,0
2024-12-13 15:31:46.473,0.622433,2.56182,4.96301,0.539989,-0.278012,-0.155461,0
2024-12-13 15:31:46.475,0.655932,2.60967,5.00608,0.522274,-0.283509,-0.149352,0
2024-12-13 15:31:46.478,0.677468,2.65274,5.0659,0.502727,-0.289007,-0.142022,0
2024-12-13 15:31:46.480,0.689432,2.68146,5.13051,0.485624,-0.292672,-0.131027,0
2024-12-13 15:31:46.483,0.689432,2.70778,5.18794,0.469742,-0.293894,-0.124307,0
2024-12-13 15:31:46.487,0.658325,2.73649,5.29083,0.451416,-0.29817,-0.11148,0
2024-12-13 15:31:46.488,0.658325,2.73649,5.29083,0.41843,-0.301835,-0.0888783,0
2024-12-13 15:31:46.490,0.677468,2.76999,5.33899,0.41843,-0.301835,-0.0888783,0
2024-12-13 15:31:46.492,0.691825,2.80349,5.37966,0.397662,-0.302446,-0.0791047,0
2024-12-13 15:31:46.494,0.708575,2.82981,5.4012,0.384223,-0.303057,-0.0674986,0
2024-12-13 15:31:46.498,0.708575,2.86331,5.41316,0.34322,-0.300002,-0.0406213,0
2024-12-13 15:31:46.499,0.701396,2.89203,5.40359,0.34322,-0.300002,-0.0406213,0
2024-12-13 15:31:46.501,0.679861,2.90878,5.38445,0.32184,-0.29817,-0.025961,0
2024-12-13 15:31:46.506,0.598505,2.94227,5.35813,0.276027,-0.284731,0.00397051,0
2024-12-13 15:31:46.506,0.598505,2.94227,5.35813,0.276027,-0.284731,0.00397051,0
2024-12-13 15:31:46.511,0.553041,2.9686,5.36052,0.223494,-0.26213,0.0393996,0
2024-12-13 15:31:46.511,0.553041,2.9686,5.36052,0.223494,-0.26213,0.0393996,0
2024-12-13 15:31:46.513,0.512363,2.9686,5.35334,0.195395,-0.251745,0.0565034,0
2024-12-13 15:31:46.516,0.478864,2.97577,5.37727,0.167907,-0.239528,0.0766613,0
2024-12-13 15:31:46.519,0.457328,2.97817,5.41316,0.108654,-0.214484,0.115756,0
2024-12-13 15:31:46.520,0.414257,2.95185,5.43709,0.108654,-0.214484,0.115756,0
2024-12-13 15:31:46.523,0.373579,2.92313,5.47059,0.0775012,-0.205321,0.134768,0
2024-12-13 15:31:46.525,0.328116,2.90638,5.50648,0.0469589,-0.196769,0.151872,0
2024-12-13 15:31:46.527,0.275175,2.88006,5.55195,0.014584,-0.187606,0.169586,0
2024-12-13 15:31:46.530,0.224925,2.84656,5.62373,-0.0165692,-0.177222,0.189134,0
2024-12-13 15:31:46.534,0.200997,2.79392,5.75294,-0.0745997,-0.165005,0.222119,0
2024-12-13 15:31:46.534,0.165105,2.79392,5.75294,-0.0745997,-0.165005,0.222119,0
2024-12-13 15:31:46.537,0.102891,2.76521,5.82951,-0.102699,-0.157064,0.240445,0
2024-12-13 15:31:46.539,0.0765703,2.72453,5.9016,-0.127133,-0.151566,0.258159,0
2024-12-13 15:31:46.544,0.066999,2.67189,6.11217,-0.147901,-0.143015,0.270376,0
2024-12-13 15:31:46.546,0.0526421,2.65514,6.23659,-0.179665,-0.122857,0.299697,0
2024-12-13 15:31:46.546,0.0526421,2.65514,6.23659,-0.179665,-0.122857,0.299697,0
2024-12-13 15:31:46.548,0.0598206,2.65035,6.36102,-0.194326,-0.114305,0.310692,0
2024-12-13 15:31:46.551,0.0693919,2.65274,6.45942,-0.204099,-0.108807,0.319855,0
2024-12-13 15:31:46.553,0.0693919,2.65514,6.55514,-0.208986,-0.105753,0.327185,0
2024-12-13 15:31:46.556,0.081356,2.65753,6.65085,-0.214484,-0.10392,0.333904,0
2024-12-13 15:31:46.558,0.0837488,2.65514,6.72981,-0.216316,-0.101477,0.339402,0
2024-12-13 15:31:46.560,0.0646062,2.66471,6.8016,-0.213873,-0.100866,0.34551,0
2024-12-13 15:31:46.563,0.0454636,2.67428,6.89013,-0.212651,-0.0996445,0.351619,0
2024-12-13 15:31:46.565,0.0430708,2.67906,6.96431,-0.205932,-0.0984228,0.358949,0
2024-12-13 15:31:46.567,0.0646062,2.69342,7.02204,-0.197991,-0.102088,0.363225,0
2024-12-13 15:31:46.572,0.100499,2.75803,7.08664,-0.188828,-0.108807,0.368723,0
2024-12-13 15:31:46.574,0.133998,2.77478,7.10339,-0.165616,-0.119192,0.37422,0
2024-12-13 15:31:46.574,0.133998,2.77478,7.10339,-0.165616,-0.119192,0.37422,0
2024-12-13 15:31:46.577,0.177069,2.79153,7.09621,-0.150956,-0.124078,0.37422,0
2024-12-13 15:31:46.579,0.20339,2.8011,7.05314,-0.135074,-0.134463,0.374831,0
2024-12-13 15:31:46.581,0.251246,2.82742,6.99302,-0.120413,-0.143015,0.374831,0
2024-12-13 15:31:46.584,0.301795,2.84656,6.92602,-0.109418,-0.152177,0.371166,0
2024-12-13 15:31:46.586,0.335294,2.85135,6.85663,-0.0959794,-0.160729,0.369334,0
2024-12-13 15:31:46.589,0.378365,2.86331,6.7681,-0.0825407,-0.169281,0.364447,0
2024-12-13 15:31:46.591,0.421436,2.88724,6.67717,-0.0697129,-0.173557,0.360171,0
2024-12-13 15:31:46.593,0.471685,2.91835,6.58385,-0.0605502,-0.179055,0.352841,0
2024-12-13 15:31:46.596,0.52672,2.94945,6.47617,-0.0513875,-0.180887,0.346732,0
2024-12-13 15:31:46.598,0.572184,2.97817,6.37059,-0.0446682,-0.182109,0.336959,0
2024-12-13 15:31:46.600,0.605683,3.00449,6.27249,-0.0403923,-0.181498,0.330239,0
2024-12-13 15:31:46.603,0.610469,3.04277,6.16002,-0.0379489,-0.180887,0.321687,0
2024-12-13 15:31:46.605,0.629611,3.07388,6.05952,-0.0367272,-0.178444,0.314357,0
2024-12-13 15:31:46.607,0.660718,3.09571,5.97817,-0.0379489,-0.176,0.305805,0
2024-12-13 15:31:46.610,0.691825,3.12921,5.87019,-0.0410031,-0.172946,0.294199,0
2024-12-13 15:31:46.612,0.734896,3.15075,5.76969,-0.0471116,-0.169281,0.284426,0
2024-12-13 15:31:46.614,0.770788,3.18425,5.69073,-0.0581068,-0.165616,0.272209,0
2024-12-13 15:31:46.617,0.816252,3.23689,5.59502,-0.0581068,-0.165616,0.272209,0
2024-12-13 15:31:46.619,0.871586,3.25125,5.48973,-0.0800973,-0.158286,0.247775,0
2024-12-13 15:31:46.621,0.905085,3.27518,5.4012,-0.0959794,-0.153399,0.233115,0
2024-12-13 15:31:46.624,0.917049,3.31825,5.33181,-0.111861,-0.148512,0.217843,0
2024-12-13 15:31:46.626,0.909871,3.33739,5.2669,-0.111861,-0.148512,0.217843,0
2024-12-13 15:31:46.629,0.919442,3.34935,5.21665,-0.150345,-0.13263,0.192188,0
2024-12-13 15:31:46.631,0.931406,3.3661,5.19272,-0.168059,-0.125911,0.176306,0
2024-12-13 15:31:46.633,0.94337,3.38525,5.17597,-0.186385,-0.115526,0.161645,0
2024-12-13 15:31:46.636,0.924228,3.40678,5.16162,-0.205932,-0.105753,0.146985,0
2024-12-13 15:31:46.638,0.895514,3.4331,5.1664,-0.22609,-0.0941468,0.134768,0
2024-12-13 15:31:46.640,0.902692,3.44507,5.18076,-0.244415,-0.0807082,0.122475,0
2024-12-13 15:31:46.643,0.897907,3.45942,5.18076,-0.264573,-0.0660479,0.110869,0
2024-12-13 15:31:46.645,0.897907,3.5001,5.19751,-0.282899,-0.0544418,0.098041,0
2024-12-13 15:31:46.647,0.890728,3.52403,5.23101,-0.297559,-0.0440574,0.085824,0
2024-12-13 15:31:46.650,0.876371,3.55035,5.25733,-0.314663,-0.0355055,0.0736071,0
2024-12-13 15:31:46.652,0.8668,3.58146,5.29801,-0.331766,-0.0306187,0.0626118,0
2024-12-13 15:31:46.654,0.830609,3.60299,5.3342,-0.347648,-0.0263428,0.0528383,0
2024-12-13 15:31:46.657,0.80668,3.62453,5.35574,-0.362309,-0.0275645,0.0430647,0
2024-12-13 15:31:46.659,0.804287,3.63649,5.39641,-0.376358,-0.0287862,0.0320695,0
2024-12-13 15:31:46.662,0.799502,3.66551,5.45384,-0.389797,-0.0318404,0.0229068,0
2024-12-13 15:31:46.664,0.794716,3.69422,5.5017,-0.402014,-0.0403923,0.0131332,0
2024-12-13 15:31:46.666,0.789931,3.71336,5.55673,-0.409955,-0.0458899,0.00397051,0
2024-12-13 15:31:46.669,0.770788,3.73011,5.6333,-0.419728,-0.0544418,-0.00335966,0
2024-12-13 15:31:46.671,0.739681,3.74686,5.71227,-0.429502,-0.0611611,-0.0119115,0
2024-12-13 15:31:46.673,0.701396,3.78515,5.77687,-0.43561,-0.0660479,-0.0167983,0
2024-12-13 15:31:46.676,0.665504,3.82343,5.83909,-0.441719,-0.0721563,-0.0241285,0
2024-12-13 15:31:46.678,0.643968,3.8689,5.90638,-0.448438,-0.0752106,-0.0271827,0
2024-12-13 15:31:46.680,0.612862,3.90957,5.97578,-0.451492,-0.0758214,-0.0302369,0
2024-12-13 15:31:46.683,0.588933,3.9335,6.04995,-0.452103,-0.0788757,-0.0314586,0
2024-12-13 15:31:46.685,0.593719,3.95743,6.10738,-0.454547,-0.077654,-0.0326803,0
2024-12-13 15:31:46.687,0.598505,3.98375,6.16481,-0.455158,-0.0758214,-0.0357346,0
2024-12-13 15:31:46.690,0.60329,4.01246,6.22941,-0.454547,-0.0764323,-0.0363454,0
2024-12-13 15:31:46.694,0.600898,4.07229,6.29641,-0.460044,-0.0703238,-0.0412322,0
2024-12-13 15:31:46.694,0.600898,4.07229,6.29641,-0.460044,-0.0703238,-0.0412322,0
2024-12-13 15:31:46.697,0.584148,4.12253,6.32273,-0.461877,-0.0666587,-0.0424539,0
2024-12-13 15:31:46.699,0.553041,4.17996,6.33231,-0.462488,-0.0587177,-0.041843,0
2024-12-13 15:31:46.702,0.52672,4.24726,6.29163,-0.469818,-0.0489441,-0.041843,0
2024-12-13 15:31:46.704,0.529113,4.2999,6.24377,-0.479591,-0.0410031,-0.041843,0
2024-12-13 15:31:46.706,0.553041,4.33819,6.21984,-0.489976,-0.0275645,-0.0442864,0
2024-12-13 15:31:46.709,0.569791,4.34297,6.23181,-0.504025,-0.0208452,-0.0448973,0
2024-12-13 15:31:46.711,0.567398,4.32383,6.28206,-0.519297,-0.00618483,-0.0442864,0
2024-12-13 15:31:46.714,0.548256,4.34776,6.35145,-0.533346,0.00297788,-0.0467298,0
2024-12-13 15:31:46.716,0.541077,4.37887,6.42084,-0.554115,0.00908635,-0.0442864,0
2024-12-13 15:31:46.718,0.519542,4.39801,6.50489,-0.568164,0.014584,-0.0436756,0
2024-12-13 15:31:46.720,0.490828,4.42911,6.61257,-0.585879,0.0176382,-0.0406213,0
2024-12-13 15:31:46.723,0.4669,4.46022,6.71067,-0.603593,0.0206925,-0.0406213,0
2024-12-13 15:31:46.727,0.395115,4.54636,6.86142,-0.636579,0.0286335,-0.0345129,0
2024-12-13 15:31:46.728,0.428614,4.54636,6.86142,-0.636579,0.0286335,-0.0345129,0
2024-12-13 15:31:46.732,0.378365,4.6014,7.03639,-0.670176,0.0371853,-0.0247393,0
2024-12-13 15:31:46.732,0.378365,4.6014,7.03639,-0.670176,0.0371853,-0.0247393,0
2024-12-13 15:31:46.735,0.371187,4.62772,7.14168,-0.685447,0.042683,-0.0186308,0
2024-12-13 15:31:46.737,0.352044,4.64686,7.24936,-0.700718,0.0451263,-0.0137441,0
2024-12-13 15:31:46.739,0.337687,4.65165,7.35464,-0.715989,0.0481806,-0.010079,0
2024-12-13 15:31:46.742,0.337687,4.65643,7.47428,-0.732482,0.0518457,-0.00824644,0
2024-12-13 15:31:46.744,0.337687,4.66361,7.60618,-0.747143,0.0597867,-0.0064139,0
2024-12-13 15:31:46.746,0.318545,4.68036,7.74975,-0.75997,0.0689494,-0.0064139,0
2024-12-13 15:31:46.749,0.294616,4.68036,7.88854,-0.768522,0.0811663,-0.00274881,0
2024-12-13 15:31:46.753,0.244068,4.68275,8.17119,-0.783793,0.111098,0.000305424,0
2024-12-13 15:31:46.756,0.244068,4.6995,8.29322,-0.790513,0.128202,0.00213797,0
2024-12-13 15:31:46.756,0.210568,4.6995,8.29322,-0.790513,0.128202,0.00213797,0
2024-12-13 15:31:46.758,0.181855,4.68754,8.41287,-0.799065,0.142251,0.00213797,0
2024-12-13 15:31:46.760,0.174676,4.6684,8.56122,-0.804562,0.15569,0.00213797,0
2024-12-13 15:31:46.763,0.148355,4.65404,8.72184,-0.81006,0.166074,0.00397051,0
2024-12-13 15:31:46.765,0.112463,4.62772,8.87019,-0.816168,0.172183,0.00580305,0
2024-12-13 15:31:46.768,0.0909273,4.60618,9.01855,-0.818612,0.174626,0.00702474,0
2024-12-13 15:31:46.770,0.0693919,4.60618,9.17887,-0.821055,0.177069,0.00824644,0
2024-12-13 15:31:46.772,0.0574277,4.6014,9.34427,-0.821666,0.174626,0.010079,0
2024-12-13 15:31:46.775,0.066999,4.59183,9.50938,-0.823498,0.172793,0.0113007,0
2024-12-13 15:31:46.777,0.0741775,4.6014,9.66252,-0.819223,0.166685,0.0119115,0
2024-12-13 15:31:46.779,0.081356,4.60618,9.82553,-0.814336,0.159355,0.0125224,0
2024-12-13 15:31:46.782,0.0885344,4.59183,9.97388,-0.810671,0.153246,0.0131332,0
2024-12-13 15:31:46.784,0.0909273,4.58465,10.0983,-0.80273,0.147749,0.0125224,0
2024-12-13 15:31:46.786,0.114855,4.57986,10.2299,-0.792956,0.139808,0.0125224,0
2024-12-13 15:31:46.789,0.162712,4.57029,10.3304,-0.783183,0.128812,0.0131332,0
2024-12-13 15:31:46.791,0.198604,4.5679,10.4336,-0.772187,0.115985,0.0131332,0
2024-12-13 15:31:46.793,0.210568,4.5679,10.5293,-0.761803,0.104989,0.0106898,0
2024-12-13 15:31:46.796,0.234497,4.55354,10.6226,-0.747753,0.0927724,0.00946813,0
2024-12-13 15:31:46.798,0.263211,4.55593,10.7064,-0.732482,0.0787229,0.00824644,0
2024-12-13 15:31:46.800,0.287438,4.57747,10.7566,-0.719654,0.0634518,0.0064139,0
2024-12-13 15:31:46.803,0.32333,4.58226,10.8021,-0.700718,0.0500131,0.00458135,0
2024-12-13 15:31:46.805,0.349651,4.58704,10.8452,-0.686058,0.0371853,0.00397051,0
2024-12-13 15:31:46.808,0.383151,4.58704,10.8763,-0.667732,0.0280226,0.00274881,0
2024-12-13 15:31:46.812,0.407079,4.59901,10.905,-0.650018,0.0182491,0.00213797,0
2024-12-13 15:31:46.815,0.428614,4.61576,10.9241,-0.61581,0.00297788,-0.00152712,0
2024-12-13 15:31:46.815,0.428614,4.61576,10.9241,-0.61581,0.00297788,-0.00152712,0
2024-12-13 15:31:46.817,0.442971,4.60618,10.9361,-0.595652,-0.0019089,-0.00152712,0
2024-12-13 15:31:46.819,0.476471,4.60379,10.9484,-0.578549,-0.00496313,-0.00213797,0
2024-12-13 15:31:46.822,0.529113,4.63011,10.9531,-0.558391,-0.00801737,-0.00397051,0
2024-12-13 15:31:46.826,0.576969,4.64208,10.9241,-0.524794,-0.0153475,-0.0125224,0
2024-12-13 15:31:46.826,0.576969,4.64208,10.9241,-0.524794,-0.0153475,-0.0125224,0
2024-12-13 15:31:46.829,0.586541,4.65404,10.8882,-0.50708,-0.0147367,-0.0155766,0
2024-12-13 15:31:46.831,0.569791,4.6995,10.85,-0.495473,-0.0171801,-0.0192417,0
2024-12-13 15:31:46.833,0.555434,4.72343,10.8452,-0.484478,-0.0147367,-0.0229068,0
2024-12-13 15:31:46.836,0.548256,4.74975,10.8476,-0.470429,-0.00984991,-0.0271827,0
2024-12-13 15:31:46.838,0.562612,4.80269,10.8452,-0.457601,0.00481042,-0.0277936,0
2024-12-13 15:31:46.841,0.600898,4.85055,10.8404,-0.446606,0.0139731,-0.0277936,0
2024-12-13 15:31:46.845,0.643968,4.93191,10.8356,-0.437443,0.0188599,-0.0314586,0
2024-12-13 15:31:46.848,0.63679,4.94626,10.8188,-0.420339,0.0286335,-0.0412322,0
2024-12-13 15:31:46.848,0.63679,4.94626,10.8188,-0.420339,0.0286335,-0.0412322,0
2024-12-13 15:31:46.850,0.639183,4.95583,10.8188,-0.412398,0.0316877,-0.0442864,0
2024-12-13 15:31:46.852,0.667897,4.98455,10.8284,-0.407511,0.0335202,-0.0479515,0
2024-12-13 15:31:46.855,0.687039,5.0348,10.8523,-0.398349,0.0365745,-0.0528383,0
2024-12-13 15:31:46.857,0.699003,5.07787,10.8906,-0.391019,0.038407,-0.0546708,0
2024-12-13 15:31:46.859,0.739681,5.12094,10.917,-0.380634,0.0445155,-0.0577251,0
2024-12-13 15:31:46.862,0.768395,5.17837,10.917,-0.372693,0.046348,-0.0644444,0
2024-12-13 15:31:46.864,0.734896,5.20708,10.9122,-0.362309,0.0457372,-0.0681095,0
2024-12-13 15:31:46.866,0.658325,5.22862,10.9241,-0.362309,0.0457372,-0.0681095,0
2024-12-13 15:31:46.869,0.588933,5.26212,10.9385,-0.345816,0.0420721,-0.0723854,0
2024-12-13 15:31:46.871,0.569791,5.28604,10.9337,-0.339707,0.0445155,-0.0723854,0
2024-12-13 15:31:46.873,0.596112,5.31715,10.9361,-0.33421,0.0439046,-0.0723854,0
2024-12-13 15:31:46.876,0.629611,5.36052,10.9651,-0.329323,0.042683,-0.0736071,0
2024-12-13 15:31:46.878,0.667897,5.38924,11.0297,-0.325047,0.0414613,-0.0729962,0
2024-12-13 15:31:46.883,0.725324,5.43948,11.2235,-0.314663,0.0329094,-0.0742179,0
2024-12-13 15:31:46.883,0.725324,5.43948,11.2235,-0.314663,0.0329094,-0.0742179,0
2024-12-13 15:31:46.886,0.742074,5.48495,11.336,-0.301224,0.0194708,-0.0760505,0
2024-12-13 15:31:46.888,0.76361,5.53041,11.4293,-0.301224,0.0194708,-0.0760505,0
2024-12-13 15:31:46.892,0.777966,5.59741,11.6258,-0.285342,0.00542127,-0.0797156,0
2024-12-13 15:31:46.892,0.76361,5.68834,11.6258,-0.285342,0.00542127,-0.0797156,0
2024-12-13 15:31:46.895,0.715753,5.75055,11.7598,-0.274347,-0.0019089,-0.0803264,0
2024-12-13 15:31:46.897,0.670289,5.76491,11.9034,-0.260908,-0.0110716,-0.0791047,0
2024-12-13 15:31:46.899,0.641576,5.79841,12.0326,-0.246859,-0.0177909,-0.077883,0
2024-12-13 15:31:46.902,0.634397,5.82712,12.1549,-0.227312,-0.0238994,-0.0723854,0
2024-12-13 15:31:46.904,0.641576,5.84387,12.277,-0.207154,-0.0245102,-0.0674986,0
2024-12-13 15:31:46.906,0.655932,5.87737,12.411,-0.186996,-0.0281753,-0.0613902,0
2024-12-13 15:31:46.909,0.682254,5.91117,12.5617,-0.160729,-0.0275645,-0.0528383,0
2024-12-13 15:31:46.914,0.679861,5.99013,12.8563,-0.106364,-0.0269536,-0.038178,0
2024-12-13 15:31:46.914,0.675075,5.99013,12.8563,-0.106364,-0.0269536,-0.038178,0
2024-12-13 15:31:46.916,0.670289,6.0332,12.964,-0.0739889,-0.0226777,-0.0290152,0
2024-12-13 15:31:46.918,0.682254,6.08106,13.0525,-0.0440574,-0.0141258,-0.0198525,0
2024-12-13 15:31:46.921,0.694218,6.11217,13.1243,-0.00923906,-7.63559e-05,-0.00946813,0
2024-12-13 15:31:46.923,0.696611,6.12892,13.1818,0.0188599,0.0170274,0.00397051,0
2024-12-13 15:31:46.925,0.706182,6.14327,13.2275,0.0494023,0.0316877,0.01802,0
2024-12-13 15:31:46.928,0.701396,6.15045,13.2586,0.0811663,0.0494023,0.0314586,0
2024-12-13 15:31:46.930,0.701396,6.1672,13.2778,0.109265,0.0628409,0.046119,0
2024-12-13 15:31:46.932,0.699003,6.17677,13.2778,0.136143,0.0732253,0.0632227,0
2024-12-13 15:31:46.935,0.682254,6.18634,13.261,0.159355,0.0811663,0.0784939,0
2024-12-13 15:31:46.939,0.677468,6.21027,13.2084,0.180734,0.0897182,0.0943759,0
2024-12-13 15:31:46.940,0.677468,6.21027,13.2084,0.180734,0.0897182,0.0943759,0
2024-12-13 15:31:46.942,0.845265,6.08824,13.0047,0.218607,0.117206,0.12614,0
2024-12-13 15:31:46.944,0.99362,5.9662,12.9353,0.228991,0.14897,0.132859,0
2024-12-13 15:31:46.946,0.869193,6.04277,13.194,0.238765,0.158133,0.138433,0
2024-12-13 15:31:46.949,0.627219,6.21027,13.2873,0.254036,0.159355,0.148818,0
2024-12-13 15:31:46.951,0.459721,6.35863,13.2012,0.260755,0.169128,0.163478,0
2024-12-13 15:31:46.954,0.352044,6.47378,13.1698,0.26381,0.178902,0.17936,0
2024-12-13 15:31:46.956,0.297009,6.54796,13.1746,0.265642,0.183789,0.195853,0
2024-12-13 15:31:46.958,0.258425,6.54796,13.1626,0.265642,0.189897,0.209902,0
2024-12-13 15:31:46.961,0.241675,6.52642,13.1315,0.262588,0.198449,0.224563,0
2024-12-13 15:31:46.963,0.263211,6.48814,13.0932,0.260755,0.208833,0.233115,0
2024-12-13 15:31:46.966,0.294616,6.43759,13.0669,0.254036,0.217385,0.239223,0
2024-12-13 15:31:46.968,0.32333,6.41605,13.0573,0.24976,0.230213,0.240445,0
2024-12-13 15:31:46.970,0.335294,6.40648,13.0621,0.243652,0.241819,0.243499,0
2024-12-13 15:31:46.972,0.32333,6.3993,13.0669,0.239987,0.252814,0.238612,0
2024-12-13 15:31:46.975,0.301795,6.41366,13.0765,0.234489,0.266864,0.234336,0
2024-12-13 15:31:46.977,0.267996,6.43041,13.0956,0.230213,0.279692,0.23006,0
2024-12-13 15:31:46.979,0.217747,6.45942,13.1387,0.223494,0.29313,0.223341,0
2024-12-13 15:31:46.984,0.107677,6.51685,13.2251,0.216774,0.312677,0.214178,0
2024-12-13 15:31:46.984,0.107677,6.51685,13.2251,0.216774,0.312677,0.214178,0
2024-12-13 15:31:46.987,0.0502493,6.52642,13.2897,0.210666,0.316343,0.207459,0
2024-12-13 15:31:46.989,0.0215354,6.52882,13.3543,0.208223,0.312067,0.203183,0
2024-12-13 15:31:46.991,0.00957129,6.53121,13.4022,0.208223,0.312067,0.203183,0
2024-12-13 15:31:46.994,0.00717847,6.49053,13.4429,0.203336,0.292519,0.188523,0
2024-12-13 15:31:46.996,0.0239282,6.42802,13.4716,0.19906,0.280303,0.177527,0
2024-12-13 15:31:46.998,0.0382852,6.36581,13.5218,0.194173,0.266253,0.165921,0
2024-12-13 15:31:47.001,0.0789631,6.28206,13.5793,0.189897,0.247317,0.151872,0
2024-12-13 15:31:47.003,0.119641,6.18634,13.6271,0.183789,0.22105,0.13599,0
2024-12-13 15:31:47.005,0.122034,6.08345,13.6989,0.178902,0.188675,0.117588,0
2024-12-13 15:31:47.008,0.114855,5.97099,13.7806,0.175237,0.154468,0.101095,0
2024-12-13 15:31:47.010,0.0981057,5.86301,13.8547,0.167296,0.123315,0.0846023,0
2024-12-13 15:31:47.012,0.0693919,5.73859,13.9433,0.159355,0.090329,0.0668878,0
2024-12-13 15:31:47.015,0.0358923,5.63091,14.0438,0.154468,0.0634518,0.0503949,0
2024-12-13 15:31:47.017,0.00717847,5.5328,14.1538,0.149581,0.0396287,0.0351237,0
2024-12-13 15:31:47.019,-0.0167498,5.41556,14.2663,0.144694,0.0170274,0.0204634,0
2024-12-13 15:31:47.024,-0.0622134,5.19033,14.5226,0.133088,-0.0232886,0.000916271,0
2024-12-13 15:31:47.027,-0.0646062,5.06351,14.6542,0.127591,-0.0422248,-0.0106898,0
2024-12-13 15:31:47.027,-0.0646062,5.06351,14.6542,0.127591,-0.0422248,-0.0106898,0
2024-12-13 15:31:47.029,-0.0598206,4.93191,14.7715,0.125758,-0.0568851,-0.0174091,0
2024-12-13 15:31:47.034,-0.066999,4.64686,14.9991,0.123315,-0.0703238,-0.0222959,0
2024-12-13 15:31:47.036,-0.0526421,4.50568,15.114,0.124536,-0.0837624,-0.0253502,0
2024-12-13 15:31:47.037,-0.0526421,4.50568,15.114,0.129423,-0.0849841,-0.0277936,0
2024-12-13 15:31:47.038,-0.026321,4.36451,15.2288,0.129423,-0.0849841,-0.0277936,0
2024-12-13 15:31:47.041,0.0,4.21376,15.3509,0.134921,-0.085595,-0.0235176,0
2024-12-13 15:31:47.043,0.0478565,4.07229,15.5091,0.142862,-0.0849841,-0.0204634,0
2024-12-13 15:31:47.045,0.114855,3.94068,15.6455,0.157522,-0.0807082,-0.0186308,0
2024-12-13 15:31:47.048,0.184247,3.7995,15.7412,0.173404,-0.0678804,-0.0174091,0
2024-12-13 15:31:47.050,0.241675,3.65833,15.8321,0.196616,-0.0489441,-0.0143549,0
2024-12-13 15:31:47.052,0.30658,3.50967,15.8943,0.222272,-0.0184018,-0.0106898,0
2024-12-13 15:31:47.055,0.352044,3.34218,15.9159,0.251593,0.0164165,-0.0064139,0
2024-12-13 15:31:47.057,0.392722,3.17707,15.9422,0.288244,0.0536782,0.000305424,0
2024-12-13 15:31:47.060,0.411865,3.04517,15.9565,0.331614,0.0970484,0.00702474,3
2024-12-13 15:31:47.062,0.294616,3.01406,15.813,0.384834,0.14164,0.0174091,0
2024-12-13 15:31:47.064,0.162712,2.98535,15.5785,0.384834,0.14164,0.0174091,0
2024-12-13 15:31:47.069,0.275175,2.69342,15.3102,0.5406,0.267475,0.0729962,0
2024-12-13 15:31:47.069,0.275175,2.69342,15.3102,0.5406,0.267475,0.0729962,0
2024-12-13 15:31:47.071,0.373579,2.4993,15.0685,0.602295,0.306569,0.0882674,0
2024-12-13 15:31:47.076,0.63679,2.16431,14.4796,0.733017,0.385979,0.115145,0
2024-12-13 15:31:47.076,0.63679,2.16431,14.4796,0.733017,0.385979,0.115145,0
2024-12-13 15:31:47.078,0.782752,2.01595,14.1969,0.803875,0.423241,0.120642,0
2024-12-13 15:31:47.081,0.857229,1.91276,13.8643,0.875955,0.463557,0.124307,0
2024-12-13 15:31:47.083,0.845265,1.90319,13.4548,0.949867,0.505094,0.126751,0
2024-12-13 15:31:47.085,0.785145,1.96301,13.019,1.02256,0.547243,0.129805,0
2024-12-13 15:31:47.088,0.691825,2.05424,12.5737,1.09525,0.589391,0.129194,0
2024-12-13 15:31:47.090,0.557827,2.13081,12.0975,1.1655,0.622988,0.132859,0
2024-12-13 15:31:47.093,0.407079,2.19063,11.5875,1.23147,0.654141,0.137822,0
2024-12-13 15:31:47.095,0.267996,2.24088,11.0895,1.29316,0.679797,0.144542,0
2024-12-13 15:31:47.100,0.0239282,2.24327,10.1151,1.408,0.708583,0.165311,0
2024-12-13 15:31:47.100,0.0239282,2.24327,10.1151,1.408,0.708583,0.165311,0
2024-12-13 15:31:47.102,-0.0550349,2.20977,9.61227,1.45748,0.718356,0.178749,0
2024-12-13 15:31:47.104,-0.122034,2.15474,9.11665,1.50452,0.723243,0.190355,0
2024-12-13 15:31:47.109,-0.236889,2.09492,8.17358,1.58454,0.731184,0.217233,0
2024-12-13 15:31:47.109,-0.236889,2.09492,8.17358,1.58454,0.731184,0.217233,0
2024-12-13 15:31:47.111,-0.277567,2.10449,7.70908,1.58454,0.731184,0.217233,0
2024-12-13 15:31:47.115,-0.335294,2.12124,7.24696,1.64074,0.737293,0.242277,0
2024-12-13 15:31:47.118,-0.419043,2.20499,6.37538,1.64074,0.737293,0.242277,0
2024-12-13 15:31:47.121,-0.474078,2.27438,5.97099,1.68044,0.736071,0.268544,0
2024-12-13 15:31:47.123,-0.50997,2.35334,5.59023,1.68227,0.729962,0.274041,0
2024-12-13 15:31:47.125,-0.545863,2.4323,5.2358,1.68227,0.729962,0.274041,0
2024-12-13 15:31:47.125,-0.545863,2.4323,5.2358,1.68227,0.729962,0.274041,0
2024-12-13 15:31:47.128,-0.593719,2.4993,4.93909,1.66395,0.70675,0.283815,0
2024-12-13 15:31:47.130,-0.643968,2.58814,4.64447,1.64684,0.690792,0.283815,0
2024-12-13 15:31:47.133,-0.629611,2.74606,4.38365,1.62485,0.676132,0.283204,0
2024-12-13 15:31:47.135,-0.330509,2.72692,4.40279,1.59431,0.654752,0.278928,0
2024-12-13 15:31:47.137,-0.177069,2.8346,4.28315,1.57049,0.619323,0.256938,0
2024-12-13 15:31:47.140,-0.493221,3.19861,3.85932,1.54239,0.620544,0.234336,0
2024-12-13 15:31:47.142,-0.816252,3.3326,3.68465,1.50879,0.636427,0.220287,0
2024-12-13 15:31:47.144,-0.873978,3.19143,3.77079,1.46848,0.636427,0.214789,0
2024-12-13 15:31:47.147,-0.708575,2.88485,3.98375,1.43244,0.600997,0.201961,0
2024-12-13 15:31:47.149,-0.73011,2.73649,3.7349,1.39518,0.580839,0.183636,0
2024-12-13 15:31:47.151,-0.804287,2.74846,3.2991,1.34814,0.589391,0.172641,0
2024-12-13 15:31:47.154,-0.732503,2.78913,3.27039,1.29622,0.58817,0.156148,0
2024-12-13 15:31:47.156,-0.770788,2.89681,3.31585,1.24246,0.573509,0.137822,0
2024-12-13 15:31:47.158,-0.85005,3.02124,3.34696,1.1881,0.550908,0.123697,0
2024-12-13 15:31:47.161,-0.890728,3.15314,3.3685,1.12457,0.520366,0.110258,0
2024-12-13 15:31:47.163,-0.902692,3.29432,3.4355,1.06226,0.492267,0.0962084,0
2024-12-13 15:31:47.166,-0.988834,3.49532,3.5001,0.998124,0.461113,0.0864349,0
2024-12-13 15:31:47.168,-0.988834,3.6341,3.70858,0.930931,0.428128,0.0784939,0
2024-12-13 15:31:47.170,-1.15394,3.80668,3.81147,0.863127,0.392698,0.0766613,0
2024-12-13 15:31:47.173,-1.50359,4.08425,3.70858,0.789215,0.37193,0.082159,0
2024-12-13 15:31:47.180,-1.54905,3.93829,4.10818,0.552817,0.254036,0.119421,0
2024-12-13 15:31:47.180,-1.54905,3.93829,4.10818,0.552817,0.254036,0.119421,0
2024-12-13 15:31:47.184,-1.26162,3.44985,4.37887,0.392775,0.174626,0.132248,0
2024-12-13 15:31:47.184,-1.26162,3.44985,4.37887,0.392775,0.174626,0.132248,0
2024-12-13 15:31:47.187,-1.10369,3.22253,4.54876,0.31451,0.144694,0.134768,0
2024-12-13 15:31:47.189,-0.969691,3.05474,4.74257,0.238154,0.116595,0.131638,0
2024-12-13 15:31:47.189,-0.969691,3.05474,4.74257,0.238154,0.116595,0.131638,0
2024-12-13 15:31:47.194,-0.794716,2.94467,5.12812,0.0964375,0.0799446,0.125529,0
2024-12-13 15:31:47.196,-0.794716,2.94467,5.37727,0.0292443,0.0689494,0.121253,0
2024-12-13 15:31:47.196,-0.742074,2.98774,5.37727,0.0292443,0.0689494,0.121253,0
2024-12-13 15:31:47.198,-0.732503,3.04995,5.68595,-0.0324513,0.0561216,0.116977,0
2024-12-13 15:31:47.201,-0.742074,3.12682,5.99253,-0.0923143,0.0451263,0.113923,0
2024-12-13 15:31:47.206,-0.756431,3.20818,6.59821,-0.202267,0.0261901,0.108425,0
2024-12-13 15:31:47.208,-0.725324,3.23689,6.87338,-0.250524,0.0206925,0.107815,0
2024-12-13 15:31:47.208,-0.725324,3.23689,6.87338,-0.250524,0.0206925,0.107815,0
2024-12-13 15:31:47.210,-0.684646,3.24407,7.12254,-0.296337,0.022525,0.104149,0
2024-12-13 15:31:47.213,-0.63679,3.22253,7.4001,-0.33421,0.0274118,0.100484,0
2024-12-13 15:31:47.215,-0.579362,3.17468,7.67797,-0.366585,0.0341311,0.0968193,0
2024-12-13 15:31:47.217,-0.529113,3.09571,7.91486,-0.391629,0.0451263,0.0913217,0
2024-12-13 15:31:47.220,-0.474078,3.01406,8.12543,-0.411787,0.0579541,0.0846023,0
2024-12-13 15:31:47.222,-0.462114,2.93749,8.32912,-0.426448,0.074447,0.0760505,0
2024-12-13 15:31:47.224,-0.462114,2.85853,8.52054,-0.438054,0.0933833,0.0656661,0
2024-12-13 15:31:47.227,-0.459721,2.78196,8.71227,-0.441719,0.115374,0.0589468,0
2024-12-13 15:31:47.229,-0.495613,2.70299,8.88934,-0.440497,0.133699,0.0528383,0
2024-12-13 15:31:47.231,-0.538684,2.65035,9.04008,-0.431945,0.14836,0.0485624,0
2024-12-13 15:31:47.234,-0.576969,2.62164,9.17887,-0.418507,0.156911,0.0436756,0
2024-12-13 15:31:47.236,-0.588933,2.59771,9.28684,-0.403236,0.162409,0.0406213,0
2024-12-13 15:31:47.239,-0.593719,2.58574,9.39452,-0.387964,0.164852,0.0387888,0
2024-12-13 15:31:47.241,-0.612862,2.57857,9.49263,-0.364752,0.169739,0.0363454,0
2024-12-13 15:31:47.243,-0.624826,2.58814,9.57877,-0.34154,0.168517,0.0320695,0
2024-12-13 15:31:47.246,-0.629611,2.59053,9.65773,-0.315274,0.167296,0.0296261,0
2024-12-13 15:31:47.250,-0.622433,2.56899,9.76302,-0.246248,0.169128,0.0222959,0
2024-12-13 15:31:47.250,-0.622433,2.56899,9.76302,-0.246248,0.169128,0.0222959,0
2024-12-13 15:31:47.253,-0.593719,2.55224,9.7678,-0.209597,0.17035,0.0167983,0
2024-12-13 15:31:47.255,-0.576969,2.54267,9.75105,-0.169892,0.171572,0.0113007,0
2024-12-13 15:31:47.257,-0.553041,2.54267,9.69841,-0.130187,0.174626,0.0064139,0
2024-12-13 15:31:47.260,-0.519542,2.57139,9.62423,-0.0904818,0.174015,-0.00274881,0
2024-12-13 15:31:47.262,-0.519542,2.60728,9.52613,-0.0526092,0.175848,-0.00580305,0
2024-12-13 15:31:47.264,-0.514756,2.62164,9.41606,-0.00862822,0.172183,-0.0143549,0
2024-12-13 15:31:47.267,-0.502792,2.65274,9.26052,0.0335202,0.164242,-0.0210742,0
2024-12-13 15:31:47.269,-0.512363,2.68624,9.05683,0.0775012,0.158133,-0.0265719,0
2024-12-13 15:31:47.271,-0.519542,2.70299,8.81037,0.0775012,0.158133,-0.0265719,0
2024-12-13 15:31:47.274,-0.519542,2.72213,8.53251,0.149581,0.134921,-0.0424539,0
2024-12-13 15:31:47.276,-0.52672,2.73171,8.27408,0.182567,0.124536,-0.0473407,0
2024-12-13 15:31:47.279,-0.521934,2.7341,8.01057,0.210666,0.11293,-0.0516166,0
2024-12-13 15:31:47.281,-0.512363,2.72213,7.74975,0.210666,0.11293,-0.0516166,0
2024-12-13 15:31:47.286,-0.536291,2.74128,7.23739,0.272972,0.0750579,-0.0674986,0
2024-12-13 15:31:47.287,-0.536291,2.74128,7.23739,0.287022,0.0622301,-0.0693312,0
2024-12-13 15:31:47.288,-0.550648,2.77238,6.97627,0.287022,0.0622301,-0.0693312,0
2024-12-13 15:31:47.290,-0.555434,2.80349,6.73221,0.29313,0.0469589,-0.0711637,0
2024-12-13 15:31:47.293,-0.541077,2.8346,6.49771,0.29985,0.0310769,-0.0723854,0
2024-12-13 15:31:47.295,-0.500399,2.87288,6.26291,0.296185,0.0164165,-0.0723854,0
2024-12-13 15:31:47.297,-0.45015,2.8992,6.05713,0.289465,0.00542127,-0.0723854,0
2024-12-13 15:31:47.300,-0.407079,2.91835,5.88216,0.279081,-0.00801737,-0.0717745,0
2024-12-13 15:31:47.302,-0.375972,2.9327,5.71466,0.269307,-0.0190126,-0.0693312,0
2024-12-13 15:31:47.304,-0.352044,2.95185,5.55434,0.255869,-0.0263428,-0.069942,0
2024-12-13 15:31:47.307,-0.30658,2.98295,5.40838,0.241208,-0.0281753,-0.0681095,0
2024-12-13 15:31:47.309,-0.248854,3.01406,5.28126,0.223494,-0.0318404,-0.0674986,0
2024-12-13 15:31:47.312,-0.196211,3.04517,5.14487,0.202114,-0.0342838,-0.0662769,0
2024-12-13 15:31:47.314,-0.157926,3.09093,5.02762,0.181345,-0.0330621,-0.0662769,0
2024-12-13 15:31:47.316,-0.138784,3.11486,4.93669,0.158744,-0.0300079,-0.0662769,0
2024-12-13 15:31:47.319,-0.119641,3.13161,4.86251,0.135532,-0.0281753,-0.0668878,0
2024-12-13 15:31:47.321,-0.102891,3.15314,4.80748,0.11293,-0.0257319,-0.0674986,0
2024-12-13 15:31:47.323,-0.0885344,3.16032,4.76411,0.0872748,-0.021456,-0.0674986,0
2024-12-13 15:31:47.326,-0.0741775,3.18425,4.73061,0.0640626,-0.0190126,-0.0674986,0
2024-12-13 15:31:47.328,-0.0526421,3.20339,4.71625,0.0390179,-0.0159584,-0.0687203,0
2024-12-13 15:31:47.330,-0.0334995,3.21536,4.71147,0.0151948,-0.00984991,-0.0687203,0
2024-12-13 15:31:47.333,-0.0119641,3.25364,4.70429,-0.00801737,-0.00374144,-0.0681095,0
2024-12-13 15:31:47.335,0.0143569,3.28953,4.6995,-0.0312296,0.00114534,-0.069942,0
2024-12-13 15:31:47.338,0.0382852,3.31585,4.7019,-0.0544418,0.00725381,-0.0723854,0
2024-12-13 15:31:47.340,0.0598206,3.335,4.71147,-0.0794865,0.0121406,-0.0729962,0
2024-12-13 15:31:47.342,0.0526421,3.34935,4.76172,-0.0794865,0.0121406,-0.0729962,0
2024-12-13 15:31:47.345,0.0143569,3.38046,4.82423,-0.124689,0.0213033,-0.0754396,0
2024-12-13 15:31:47.347,-0.0119641,3.40678,4.86012,-0.144236,0.0243575,-0.077883,0
2024-12-13 15:31:47.349,-0.0215354,3.42592,4.90319,-0.162562,0.0292443,-0.0772722,0
2024-12-13 15:31:47.352,-0.0334995,3.44507,4.95344,-0.183331,0.030466,-0.077883,0
2024-12-13 15:31:47.354,-0.0574277,3.46421,5.00608,-0.202878,0.0298552,-0.0784939,0
2024-12-13 15:31:47.356,-0.0909273,3.47857,5.07787,-0.21876,0.0286335,-0.0784939,0
2024-12-13 15:31:47.359,-0.105284,3.48574,5.16401,-0.235863,0.0310769,-0.0784939,0
2024-12-13 15:31:47.361,-0.11007,3.50967,5.25972,-0.251135,0.0316877,-0.0791047,0
2024-12-13 15:31:47.363,-0.122034,3.54556,5.35813,-0.263962,0.0316877,-0.0797156,0
2024-12-13 15:31:47.368,-0.16989,3.61735,5.50409,-0.28412,0.0322986,-0.0803264,0
2024-12-13 15:31:47.370,-0.189033,3.64128,5.55673,-0.295116,0.0347419,-0.0809373,0
2024-12-13 15:31:47.370,-0.189033,3.64128,5.55673,-0.295116,0.0347419,-0.0809373,0
2024-12-13 15:31:47.373,-0.215354,3.67268,5.60698,-0.303057,0.0341311,-0.0803264,0
2024-12-13 15:31:47.375,-0.229711,3.71097,5.64048,-0.312219,0.0390179,-0.0809373,0
2024-12-13 15:31:47.377,-0.253639,3.73729,5.68116,-0.317717,0.0408504,-0.0815481,0
2024-12-13 15:31:47.380,-0.285045,3.74925,5.74816,-0.32688,0.0439046,-0.0827698,0
2024-12-13 15:31:47.382,-0.313759,3.7684,5.83191,-0.33421,0.0457372,-0.0839915,0
2024-12-13 15:31:47.385,-0.349651,3.7995,5.9016,-0.343373,0.0457372,-0.0839915,0
2024-12-13 15:31:47.387,-0.395115,3.82582,5.96142,-0.353757,0.0457372,-0.0846023,0
2024-12-13 15:31:47.389,-0.445364,3.86411,6.02124,-0.361087,0.0500131,-0.0827698,0
2024-12-13 15:31:47.392,-0.478864,3.91436,6.08345,-0.369639,0.0512348,-0.0809373,0
2024-12-13 15:31:47.394,-0.519542,3.95264,6.14327,-0.369639,0.0512348,-0.0809373,0
2024-12-13 15:31:47.396,-0.565005,3.98136,6.19592,-0.388575,0.0469589,-0.0766613,0
2024-12-13 15:31:47.399,-0.605683,4.01246,6.24138,-0.39896,0.0469589,-0.0736071,0
2024-12-13 15:31:47.401,-0.632004,4.04357,6.2677,-0.409955,0.042683,-0.0729962,0
2024-12-13 15:31:47.403,-0.658325,4.08664,6.30359,-0.423394,0.0420721,-0.0711637,0
2024-12-13 15:31:47.406,-0.687039,4.12732,6.35863,-0.433778,0.0408504,-0.0711637,0
2024-12-13 15:31:47.410,-0.739681,4.12253,6.51207,-0.458212,0.0439046,-0.0668878,0
2024-12-13 15:31:47.413,-0.792323,4.14646,6.60539,-0.469818,0.0445155,-0.0650552,0
2024-12-13 15:31:47.414,-0.792323,4.14646,6.60539,-0.478981,0.0487914,-0.0638335,0
2024-12-13 15:31:47.415,-0.847657,4.17039,6.69392,-0.478981,0.0487914,-0.0638335,0
2024-12-13 15:31:47.418,-0.897907,4.18475,6.7681,-0.489365,0.0518457,-0.0601685,0
2024-12-13 15:31:47.420,-0.94337,4.19193,6.83031,-0.50036,0.0561216,-0.0577251,0
2024-12-13 15:31:47.422,-0.981655,4.21615,6.88056,-0.510134,0.058565,-0.0558925,0
2024-12-13 15:31:47.425,-1.00798,4.25683,6.93081,-0.519907,0.0603975,-0.0516166,0
2024-12-13 15:31:47.427,-1.02233,4.29033,6.99302,-0.527848,0.0622301,-0.0479515,0
2024-12-13 15:31:47.429,-1.0343,4.32622,7.04357,-0.538844,0.0634518,-0.0455081,0
2024-12-13 15:31:47.432,-1.05344,4.35733,7.09861,-0.55045,0.0616192,-0.0448973,0
2024-12-13 15:31:47.434,-1.05583,4.37169,7.13929,-0.55778,0.0573433,-0.0424539,0
2024-12-13 15:31:47.436,-1.05823,4.39083,7.18714,-0.569997,0.050624,-0.0412322,0
2024-12-13 15:31:47.439,-1.0654,4.42672,7.23978,-0.57977,0.0451263,-0.0400105,0
2024-12-13 15:31:47.443,-1.08694,4.43629,7.28525,-0.60115,0.0298552,-0.0406213,0
2024-12-13 15:31:47.443,-1.08694,4.43629,7.28525,-0.60115,0.0298552,-0.0406213,0
2024-12-13 15:31:47.446,-1.07258,4.43151,7.31635,-0.614589,0.0231358,-0.0400105,0
2024-12-13 15:31:47.448,-1.0678,4.40758,7.38575,-0.626195,0.0176382,-0.0387888,0
2024-12-13 15:31:47.450,-1.07019,4.40279,7.46949,-0.638412,0.00725381,-0.0424539,0
2024-12-13 15:31:47.453,-1.0678,4.41236,7.54128,-0.645131,-0.0019089,-0.0424539,0
2024-12-13 15:31:47.455,-1.07258,4.41476,7.62533,-0.653072,-0.0122933,-0.041843,0
2024-12-13 15:31:47.458,-1.09173,4.41954,7.71865,-0.661624,-0.0232886,-0.0424539,0
2024-12-13 15:31:47.460,-1.11087,4.4339,7.80718,-0.670176,-0.0330621,-0.0424539,0
2024-12-13 15:31:47.462,-1.13719,4.42194,7.89572,-0.676284,-0.0446682,-0.0393996,0
2024-12-13 15:31:47.465,-1.21854,4.39083,8.04646,-0.678728,-0.065437,-0.0308478,0
2024-12-13 15:31:47.467,-1.32622,4.41476,8.18555,-0.675673,-0.0941468,-0.0149658,0
2024-12-13 15:31:47.469,-1.35254,4.49611,8.18794,-0.675673,-0.108196,-0.00274881,0
2024-12-13 15:31:47.472,-1.29033,4.55593,8.14008,-0.682393,-0.108807,0.00458135,0
2024-12-13 15:31:47.474,-1.21376,4.61336,8.135,-0.695221,-0.106364,0.00824644,0
2024-12-13 15:31:47.476,-1.15633,4.69233,8.2334,-0.705605,-0.0947577,0.00397051,0
2024-12-13 15:31:47.479,-1.10848,4.74497,8.38654,-0.712324,-0.0764323,-0.000305424,0
2024-12-13 15:31:47.481,-1.05344,4.7665,8.55643,-0.714157,-0.0526092,-0.0051922,0
2024-12-13 15:31:47.483,-1.02233,4.76411,8.73141,-0.712935,-0.0300079,-0.0125224,0
2024-12-13 15:31:47.486,-1.02473,4.74975,8.88216,-0.708048,-0.00923906,-0.0210742,0
2024-12-13 15:31:47.488,-1.02951,4.72822,9.02812,-0.698275,0.00725381,-0.0284044,0
2024-12-13 15:31:47.491,-1.05105,4.71625,9.15255,-0.683004,0.0243575,-0.0357346,0
2024-12-13 15:31:47.493,-1.08455,4.71865,9.26531,-0.669565,0.0390179,-0.0406213,0
2024-12-13 15:31:47.495,-1.12044,4.73779,9.35384,-0.654294,0.0524565,-0.0448973,0
2024-12-13 15:31:47.498,-1.15633,4.77877,9.40888,-0.639633,0.0628409,-0.0497841,0
2024-12-13 15:31:47.500,-1.21137,4.82662,9.45195,-0.626195,0.0701711,-0.0534491,0
2024-12-13 15:31:47.502,-1.27837,4.89123,9.45195,-0.614589,0.0713928,-0.0571142,0
2024-12-13 15:31:47.505,-1.31665,4.93191,9.45673,-0.604815,0.074447,-0.0583359,0
2024-12-13 15:31:47.507,-1.32622,4.94866,9.48784,-0.598096,0.0738362,-0.0583359,0
2024-12-13 15:31:47.509,-1.3334,4.95105,9.51655,-0.592598,0.0732253,-0.0607793,0
2024-12-13 15:31:47.512,-1.32861,4.95105,9.54527,-0.587101,0.0695602,-0.0595576,0
2024-12-13 15:31:47.514,-1.31665,4.96541,9.5668,-0.583435,0.0652843,-0.0601685,0
2024-12-13 15:31:47.516,-1.30229,4.97976,9.59073,-0.57977,0.0603975,-0.062001,0
2024-12-13 15:31:47.519,-1.27119,5.00608,9.63141,-0.576105,0.0518457,-0.062001,0
2024-12-13 15:31:47.523,-1.25444,5.08744,9.70798,-0.568775,0.0359636,-0.0638335,0
2024-12-13 15:31:47.523,-1.25444,5.08744,9.70798,-0.568775,0.0359636,-0.0638335,0
2024-12-13 15:31:47.526,-1.21615,5.14248,9.71277,-0.569386,0.0298552,-0.0656661,0
2024-12-13 15:31:47.528,-1.17787,5.17837,9.72234,-0.569386,0.0255792,-0.069942,0
2024-12-13 15:31:47.531,-1.15155,5.20947,9.74866,-0.568164,0.0176382,-0.0729962,0
2024-12-13 15:31:47.533,-1.13001,5.22383,9.77737,-0.565721,0.0133623,-0.0760505,0
2024-12-13 15:31:47.535,-1.11565,5.2334,9.82792,-0.56511,0.010308,-0.0803264,0
2024-12-13 15:31:47.538,-1.11326,5.26212,9.87578,-0.559612,0.00664296,-0.0846023,0
2024-12-13 15:31:47.540,-1.10608,5.28126,9.91406,-0.560223,0.00419957,-0.0888783,0
2024-12-13 15:31:47.542,-1.08215,5.31715,9.94756,-0.555337,0.00542127,-0.0937651,0
2024-12-13 15:31:47.545,-1.05105,5.37249,9.9691,-0.551061,0.00664296,-0.0992627,0
2024-12-13 15:31:47.547,-1.03669,5.40838,9.98824,-0.552282,0.00664296,-0.105371,0
2024-12-13 15:31:47.549,-1.0343,5.41316,10.0217,-0.549228,0.0121406,-0.11209,0
2024-12-13 15:31:47.552,-1.02712,5.42991,10.0672,-0.549228,0.0121406,-0.11209,0
2024-12-13 15:31:47.554,-1.01515,5.45384,10.1222,-0.548006,0.0200816,-0.123086,0
2024-12-13 15:31:47.556,-1.00558,5.47059,10.206,-0.546174,0.0255792,-0.131027,0
2024-12-13 15:31:47.559,-0.99362,5.48255,10.3208,-0.540676,0.0341311,-0.138357,0
2024-12-13 15:31:47.561,-0.962513,5.50888,10.4719,-0.535789,0.0396287,-0.145076,0
2024-12-13 15:31:47.565,-0.938585,5.55673,10.6226,-0.523572,0.0439046,-0.162791,0
2024-12-13 15:31:47.566,-0.940978,5.61177,10.7566,-0.523572,0.0439046,-0.162791,0
2024-12-13 15:31:47.568,-0.969691,5.67637,10.8667,-0.51441,0.046348,-0.170121,0
2024-12-13 15:31:47.571,-0.974477,5.7338,10.9508,-0.50708,0.0494023,-0.179895,0
2024-12-13 15:31:47.573,-0.974477,5.77687,11.0441,-0.500971,0.0530674,-0.187836,0
2024-12-13 15:31:47.575,-0.99362,5.79841,11.1661,-0.490587,0.0573433,-0.19822,0
2024-12-13 15:31:47.578,-0.984048,5.79123,11.3025,-0.478981,0.0573433,-0.208604,0
2024-12-13 15:31:47.580,-0.964906,5.8008,11.4317,-0.465542,0.0536782,-0.217156,0
2024-12-13 15:31:47.582,-0.969691,5.84626,11.5349,-0.451492,0.046348,-0.229984,0
2024-12-13 15:31:47.585,-1.00798,5.89921,11.6163,-0.438665,0.0408504,-0.240979,0
2024-12-13 15:31:47.587,-1.06062,5.94467,11.6928,-0.424004,0.0353528,-0.250142,0
2024-12-13 15:31:47.589,-1.09651,5.99013,11.779,-0.409955,0.0329094,-0.259305,0
2024-12-13 15:31:47.592,-1.11805,6.0356,11.889,-0.394684,0.0249684,-0.268467,0
2024-12-13 15:31:47.594,-1.15155,6.07149,12.0135,-0.380023,0.0188599,-0.275187,0
2024-12-13 15:31:47.596,-1.16351,6.10259,12.1358,-0.365363,0.00908635,-0.281906,0
2024-12-13 15:31:47.599,-1.17787,6.13131,12.2722,-0.345205,-0.00251974,-0.290458,0
2024-12-13 15:31:47.601,-1.22333,6.15763,12.387,-0.326269,-0.0171801,-0.298399,0
2024-12-13 15:31:47.604,-1.2664,6.17438,12.4923,-0.307943,-0.0306187,-0.304507,0
2024-12-13 15:31:47.606,-1.28554,6.18395,12.5976,-0.288396,-0.0446682,-0.308172,0
2024-12-13 15:31:47.608,-1.29033,6.21267,12.6888,-0.265184,-0.057496,-0.314281,0
2024-12-13 15:31:47.611,-1.30469,6.24138,12.763,-0.238918,-0.0691021,-0.317946,0
2024-12-13 15:31:47.613,-1.30708,6.27488,12.8252,-0.215705,-0.0782648,-0.322222,0
2024-12-13 15:31:47.620,-1.29033,6.39213,12.9521,-0.14668,-0.0996445,-0.336271,0
2024-12-13 15:31:47.622,-1.30708,6.42323,12.9688,-0.122246,-0.108196,-0.339936,0
2024-12-13 15:31:47.622,-1.30708,6.42323,12.9688,-0.122246,-0.108196,-0.339936,0
2024-12-13 15:31:47.626,-1.33101,6.43998,12.9808,-0.0727672,-0.122857,-0.346656,0
2024-12-13 15:31:47.627,-1.34776,6.43998,12.9975,-0.0727672,-0.122857,-0.346656,0
2024-12-13 15:31:47.629,-1.36929,6.45942,13.0143,-0.0526092,-0.132019,-0.346656,0
2024-12-13 15:31:47.632,-1.36929,6.45942,13.0286,-0.0526092,-0.132019,-0.346656,0
2024-12-13 15:31:47.632,-1.39801,6.48335,13.0286,-0.0526092,-0.132019,-0.346656,0
2024-12-13 15:31:47.634,-1.40788,6.5025,13.0071,-0.00740652,-0.143015,-0.344823,0
2024-12-13 15:31:47.637,-1.42463,6.5336,12.9855,0.0127514,-0.153399,-0.343602,0
2024-12-13 15:31:47.639,-1.43898,6.55753,12.9832,0.0316877,-0.164394,-0.341158,0
2024-12-13 15:31:47.641,-1.45095,6.59103,12.9784,0.0512348,-0.17539,-0.338104,0
2024-12-13 15:31:47.644,-1.47488,6.61496,12.9688,0.066506,-0.190661,-0.332606,0
2024-12-13 15:31:47.646,-1.50359,6.63889,12.9712,0.086664,-0.206543,-0.329552,0
2024-12-13 15:31:47.649,-1.51555,6.68196,12.9951,0.11965,-0.236474,-0.319779,0
2024-12-13 15:31:47.651,-1.53709,6.72742,13.0143,0.11965,-0.236474,-0.319779,0
2024-12-13 15:31:47.653,-1.57059,6.7681,13.0238,0.133699,-0.252356,-0.315503,0
2024-12-13 15:31:47.655,-1.57537,6.81596,13.0238,0.14897,-0.265795,-0.309394,0
2024-12-13 15:31:47.660,-1.59691,6.91406,12.964,0.173404,-0.291451,-0.297788,0
2024-12-13 15:31:47.660,-1.59691,6.91406,12.964,0.173404,-0.291451,-0.297788,0
2024-12-13 15:31:47.662,-1.59691,6.96192,12.9233,0.183178,-0.304278,-0.29168,0
2024-12-13 15:31:47.665,-1.60409,6.99542,12.9042,0.189286,-0.316495,-0.288014,0
2024-12-13 15:31:47.667,-1.58734,7.01964,12.9018,0.196616,-0.32688,-0.280684,0
2024-12-13 15:31:47.670,-1.56341,7.034,12.8946,0.200282,-0.339707,-0.273354,0
2024-12-13 15:31:47.674,-1.5012,7.06272,12.8683,0.200282,-0.351924,-0.2703,0
2024-12-13 15:31:47.677,-1.48445,7.0675,12.8635,0.198449,-0.368417,-0.260526,0
2024-12-13 15:31:47.677,-1.48445,7.0675,12.8635,0.198449,-0.368417,-0.260526,0
2024-12-13 15:31:47.679,-1.4653,7.05554,12.8851,0.197227,-0.374526,-0.254418,0
2024-12-13 15:31:47.684,-1.44138,7.02204,12.9233,0.183789,-0.389186,-0.245255,0
2024-12-13 15:31:47.686,-1.44138,7.02204,12.9521,0.175237,-0.391629,-0.239758,0
2024-12-13 15:31:47.686,-1.43181,6.97867,12.9521,0.175237,-0.391629,-0.239758,0
2024-12-13 15:31:47.688,-1.42941,6.92602,13.019,0.164852,-0.393462,-0.237314,0
2024-12-13 15:31:47.693,-1.35733,6.78246,13.2156,0.143473,-0.390408,-0.225097,0
2024-12-13 15:31:47.693,-1.35733,6.78246,13.2156,0.143473,-0.390408,-0.225097,0
2024-12-13 15:31:47.695,-1.31186,6.68435,13.3615,0.136143,-0.386743,-0.2196,0
2024-12-13 15:31:47.698,-1.27119,6.59821,13.5314,0.12698,-0.387964,-0.215935,0
2024-12-13 15:31:47.700,-1.22333,6.51685,13.7157,0.115985,-0.391629,-0.211659,0
2024-12-13 15:31:47.702,-1.15872,6.44238,13.9265,0.109265,-0.400181,-0.211048,0
2024-12-13 15:31:47.705,-1.1013,6.36341,14.1203,0.104989,-0.409955,-0.209826,0
2024-12-13 15:31:47.707,-1.05823,6.27488,14.3169,0.0964375,-0.423394,-0.20555,0
2024-12-13 15:31:47.710,-1.00558,6.18395,14.5298,0.094605,-0.435,-0.204328,0
2024-12-13 15:31:47.712,-0.957727,6.08824,14.7141,0.0939941,-0.446606,-0.203718,0
2024-12-13 15:31:47.714,-0.919442,5.9662,14.8843,0.0933833,-0.457601,-0.201274,0
2024-12-13 15:31:47.717,-0.869193,5.83191,15.0709,0.0964375,-0.466153,-0.201274,0
2024-12-13 15:31:47.719,-0.809073,5.67637,15.2815,0.0964375,-0.466153,-0.201274,0
2024-12-13 15:31:47.724,-0.660718,5.34616,15.789,0.119039,-0.479591,-0.201885,0
2024-12-13 15:31:47.724,-0.660718,5.34616,15.789,0.119039,-0.479591,-0.201885,0
2024-12-13 15:31:47.726,-0.572184,5.16162,16.031,0.134921,-0.479591,-0.204328,0
2024-12-13 15:31:47.728,-0.471685,5.0013,16.287,0.150192,-0.470429,-0.208604,0
2024-12-13 15:31:47.731,-0.407079,4.86251,16.5793,0.165463,-0.460044,-0.211659,0
2024-12-13 15:31:47.733,-0.387936,4.69472,16.8473,0.191119,-0.450271,-0.212269,0
2024-12-13 15:31:47.735,-0.361615,4.51765,17.0889,0.219218,-0.438054,-0.209826,0
2024-12-13 15:31:47.738,-0.299402,4.32862,17.3166,0.253425,-0.424004,-0.206772,0
2024-12-13 15:31:47.740,-0.232104,4.13928,17.4888,0.291909,-0.404457,-0.206161,3
2024-12-13 15:31:47.743,-0.184247,3.93829,17.5846,0.334057,-0.386743,-0.203107,0
2024-12-13 15:31:47.745,-0.129212,3.72533,17.6276,0.375671,-0.364141,-0.199442,0
2024-12-13 15:31:47.747,-0.0741775,3.5336,17.6085,0.422706,-0.338486,-0.196998,0
2024-12-13 15:31:47.750,-0.0358923,3.35653,17.5056,0.469742,-0.310998,-0.197609,0
2024-12-13 15:31:47.752,-0.0143569,3.17468,17.3477,0.519831,-0.279234,-0.200052,0
2024-12-13 15:31:47.754,0.00717847,2.99731,17.1419,0.56931,-0.245026,-0.197609,0
2024-12-13 15:31:47.757,0.0358923,2.82742,16.8688,0.623064,-0.213262,-0.197609,0
2024-12-13 15:31:47.759,0.0598206,2.68624,16.5431,0.672543,-0.176611,-0.200052,0
2024-12-13 15:31:47.761,0.0741775,2.57857,16.1746,0.725687,-0.143625,-0.201885,0
2024-12-13 15:31:47.764,0.0885344,2.5017,15.7603,0.774554,-0.112472,-0.204939,0
2024-12-13 15:31:47.768,0.11007,2.35573,14.8624,0.872901,-0.0501658,-0.211048,0
2024-12-13 15:31:47.768,0.145962,2.35573,14.8624,0.872901,-0.0501658,-0.211048,0
2024-12-13 15:31:47.771,0.184247,2.30788,14.3862,0.918103,-0.0232886,-0.2196,0
2024-12-13 15:31:47.773,0.165105,2.26481,13.8906,0.958419,0.00114534,-0.225097,0
2024-12-13 15:31:47.775,0.107677,2.20738,13.3687,0.999957,0.0231358,-0.230595,0
2024-12-13 15:31:47.778,0.0334995,2.16431,12.8061,1.03783,0.0414613,-0.237314,0
2024-12-13 15:31:47.780,-0.0478565,2.12842,12.2291,1.07265,0.0597867,-0.242812,0
2024-12-13 15:31:47.783,-0.107677,2.08056,11.6378,1.10502,0.0756687,-0.246477,0
2024-12-13 15:31:47.785,-0.172283,2.02552,11.0441,1.13312,0.0884965,-0.248309,0
2024-12-13 15:31:47.787,-0.234497,1.97288,10.4791,1.15633,0.0982701,-0.251364,0
2024-12-13 15:31:47.792,-0.308973,1.93191,9.40888,1.19604,0.11293,-0.251364,0
2024-12-13 15:31:47.792,-0.308973,1.93191,9.40888,1.19604,0.11293,-0.251364,0
2024-12-13 15:31:47.794,-0.325723,1.92233,8.90609,1.21009,0.119039,-0.251364,0
2024-12-13 15:31:47.799,-0.332901,1.9008,8.001,1.23025,0.117817,-0.255029,0
2024-12-13 15:31:47.799,-0.332901,1.9008,8.001,1.23025,0.117817,-0.255029,0
2024-12-13 15:31:47.804,-0.316152,1.89601,7.18714,1.23941,0.106822,-0.25564,0
2024-12-13 15:31:47.804,-0.316152,1.89601,7.18714,1.23941,0.106822,-0.25564,0
2024-12-13 15:31:47.806,-0.287438,1.91276,6.81835,1.23758,0.0958267,-0.256861,0
2024-12-13 15:31:47.808,-0.285045,1.9343,6.48814,1.2333,0.082388,-0.261137,0
2024-12-13 15:31:47.811,-0.277567,1.98006,6.18874,1.22169,0.0628409,-0.264191,0
2024-12-13 15:31:47.813,-0.260818,2.01595,5.9351,1.21192,0.0420721,-0.267857,0
2024-12-13 15:31:47.816,-0.239282,2.07099,5.70987,1.19726,0.0200816,-0.2703,0
2024-12-13 15:31:47.818,-0.212961,2.14995,5.52084,1.1826,-0.00374144,-0.273354,0
2024-12-13 15:31:47.820,-0.18664,2.22413,5.37009,1.16489,-0.0324513,-0.278852,0
2024-12-13 15:31:47.823,-0.162712,2.30548,5.25254,1.14351,-0.0629936,-0.281906,0
2024-12-13 15:31:47.825,-0.117248,2.42513,5.18315,1.12213,-0.0972011,-0.28496,0
2024-12-13 15:31:47.827,-0.066999,2.55464,5.12812,1.09953,-0.132019,-0.288014,0
2024-12-13 15:31:47.830,-0.066999,2.62881,5.0659,1.07753,-0.165005,-0.288014,0
2024-12-13 15:31:47.834,-0.081356,2.64796,4.98933,1.02683,-0.218149,-0.287404,0
2024-12-13 15:31:47.834,-0.081356,2.64796,4.98933,1.02683,-0.218149,-0.287404,0
2024-12-13 15:31:47.837,-0.0478565,2.66231,4.97976,0.997514,-0.244415,-0.288625,0
2024-12-13 15:31:47.839,-0.0191426,2.68624,4.97737,0.968804,-0.26946,-0.285571,0
2024-12-13 15:31:47.844,0.0191426,2.80349,5.01805,0.911995,-0.314052,-0.280684,0
2024-12-13 15:31:47.844,0.0191426,2.80349,5.01805,0.911995,-0.314052,-0.280684,0
2024-12-13 15:31:47.846,0.0478565,2.87528,5.08505,0.87962,-0.33421,-0.273965,0
2024-12-13 15:31:47.848,0.081356,2.94227,5.15444,0.852132,-0.347038,-0.268467,0
2024-12-13 15:31:47.851,0.114855,3.01645,5.22862,0.82159,-0.359255,-0.259916,0
2024-12-13 15:31:47.856,0.136391,3.08345,5.41316,0.755618,-0.380023,-0.240979,0
2024-12-13 15:31:47.856,0.136391,3.08345,5.41316,0.755618,-0.380023,-0.240979,0
2024-12-13 15:31:47.858,0.119641,3.11964,5.45623,0.723243,-0.385521,-0.228151,0
2024-12-13 15:31:47.860,0.138784,3.11725,5.47538,0.689036,-0.394073,-0.215935,0
2024-12-13 15:31:47.863,0.162712,3.1005,5.49452,0.652385,-0.39957,-0.199442,0
2024-12-13 15:31:47.867,0.193819,3.09093,5.54716,0.573586,-0.40629,-0.168288,0
2024-12-13 15:31:47.870,0.18664,3.07149,5.58545,0.530215,-0.408733,-0.149963,0
2024-12-13 15:31:47.872,0.179462,3.04995,5.62134,0.486845,-0.409955,-0.130416,0
2024-12-13 15:31:47.872,0.179462,3.04995,5.62134,0.486845,-0.409955,-0.130416,0
2024-12-13 15:31:47.874,0.191426,3.03799,5.67398,0.443475,-0.408733,-0.110258,0
2024-12-13 15:31:47.877,0.184247,3.01645,5.72423,0.397051,-0.405068,-0.0913217,0
2024-12-13 15:31:47.879,0.138784,2.99013,5.78644,0.349328,-0.397127,-0.0687203,0
2024-12-13 15:31:47.881,0.0909273,2.97577,5.87019,0.301071,-0.386743,-0.0479515,0
2024-12-13 15:31:47.884,0.0717847,2.9662,5.95903,0.25648,-0.373915,-0.0247393,0
2024-12-13 15:31:47.886,0.0358923,2.92792,6.0356,0.211277,-0.358644,-0.00458135,0
2024-12-13 15:31:47.889,-0.00957129,2.87049,6.10738,0.211277,-0.358644,-0.00458135,0
2024-12-13 15:31:47.893,-0.0598206,2.78674,6.27009,0.0848314,-0.29817,0.0595576,0
2024-12-13 15:31:47.893,-0.0598206,2.78674,6.27009,0.0848314,-0.29817,0.0595576,0
2024-12-13 15:31:47.896,-0.0741775,2.76042,6.37538,0.0457372,-0.27679,0.0809373,0
2024-12-13 15:31:47.900,-0.112463,2.69581,6.55992,0.00847551,-0.257854,0.100484,0
2024-12-13 15:31:47.900,-0.112463,2.69581,6.55992,0.00847551,-0.257854,0.100484,0
2024-12-13 15:31:47.903,-0.136391,2.67189,6.65324,-0.0568851,-0.223036,0.135379,0
2024-12-13 15:31:47.905,-0.155533,2.63599,6.77049,-0.0862058,-0.208375,0.153094,0
2024-12-13 15:31:47.907,-0.16989,2.61685,6.9021,-0.111861,-0.193715,0.166532,0
2024-12-13 15:31:47.910,-0.179462,2.61924,7.02443,-0.137517,-0.181498,0.180582,0
2024-12-13 15:31:47.912,-0.181855,2.59053,7.15843,-0.158286,-0.169281,0.19402,0
2024-12-13 15:31:47.914,-0.172283,2.55703,7.29721,-0.172335,-0.156453,0.203794,0
2024-12-13 15:31:47.917,-0.160319,2.55703,7.42882,-0.183941,-0.145458,0.212346,0
2024-12-13 15:31:47.919,-0.145962,2.55464,7.53889,-0.193715,-0.134463,0.218454,0
2024-12-13 15:31:47.922,-0.12682,2.5331,7.65165,-0.196158,-0.121024,0.223341,0
2024-12-13 15:31:47.924,-0.117248,2.52084,7.7665,-0.196769,-0.11064,0.227617,0
2024-12-13 15:31:47.926,-0.112463,2.50409,7.88136,-0.194326,-0.0978119,0.230671,0
2024-12-13 15:31:47.929,-0.11007,2.48495,7.97707,-0.185774,-0.0843733,0.232504,0
2024-12-13 15:31:47.933,-0.107677,2.46102,8.10868,-0.169892,-0.0684913,0.233115,0
2024-12-13 15:31:47.933,-0.107677,2.46102,8.10868,-0.169892,-0.0684913,0.233115,0
2024-12-13 15:31:47.936,-0.100499,2.44427,8.15205,-0.143625,-0.0477224,0.234947,0
2024-12-13 15:31:47.938,-0.081356,2.43709,8.14726,-0.121635,-0.0379489,0.236169,0
2024-12-13 15:31:47.940,-0.0646062,2.42752,8.11586,-0.102699,-0.0281753,0.234947,0
2024-12-13 15:31:47.943,-0.0526421,2.42513,8.07279,-0.0788757,-0.0196235,0.231893,0
2024-12-13 15:31:47.945,-0.0311067,2.42273,8.001,-0.0550526,-0.013515,0.230671,0
2024-12-13 15:31:47.947,-0.00478565,2.40838,7.91725,-0.0306187,-0.00618483,0.225784,0
2024-12-13 15:31:47.950,0.0167498,2.40598,7.81915,-0.00496313,-0.0019089,0.220898,0
2024-12-13 15:31:47.954,0.0311067,2.42273,7.5341,0.0445155,0.000534491,0.210513,0
2024-12-13 15:31:47.954,0.0311067,2.42273,7.5341,0.0445155,0.000534491,0.210513,0
2024-12-13 15:31:47.957,0.0478565,2.44666,7.37378,0.0707819,0.000534491,0.203183,0
2024-12-13 15:31:47.959,0.0574277,2.46102,7.17996,0.0933833,-0.00374144,0.197685,0
2024-12-13 15:31:47.962,0.0598206,2.4658,6.97388,0.113541,-0.00801737,0.189744,0
2024-12-13 15:31:47.964,0.0550349,2.48016,6.78724,0.129423,-0.0104608,0.183636,0
2024-12-13 15:31:47.966,0.026321,2.50409,6.6006,0.145916,-0.0122933,0.178138,0
2024-12-13 15:31:47.969,0.00717847,2.53071,6.44238,0.16302,-0.0110716,0.170197,0
2024-12-13 15:31:47.972,0.00957129,2.56182,6.29641,0.182567,-0.0104608,0.161035,0
2024-12-13 15:31:47.973,0.00239282,2.59532,6.13849,0.182567,-0.0104608,0.161035,0
2024-12-13 15:31:47.976,0.00239282,2.64317,5.97578,0.19173,-0.00984991,0.156148,0
2024-12-13 15:31:47.978,0.0430708,2.69103,5.81037,0.196616,-0.0116825,0.150039,0
2024-12-13 15:31:47.980,0.0741775,2.74606,5.63091,0.19906,-0.0165692,0.138433,0
2024-12-13 15:31:47.983,0.0885344,2.79631,5.43231,0.195395,-0.0232886,0.130416,0
2024-12-13 15:31:47.985,0.0909273,2.82742,5.24537,0.189286,-0.033673,0.120642,0
2024-12-13 15:31:47.987,0.0741775,2.84895,5.08983,0.182567,-0.041614,0.110869,0
2024-12-13 15:31:47.990,0.0454636,2.88006,4.95823,0.167907,-0.0526092,0.101095,0
2024-12-13 15:31:47.992,0.0191426,2.91835,4.80748,0.153246,-0.0636045,0.0919325,0
2024-12-13 15:31:47.995,-0.00717847,2.94945,4.67558,0.136143,-0.0752106,0.085824,0
2024-12-13 15:31:47.997,-0.0358923,2.9686,4.56551,0.116595,-0.0825407,0.0766613,0
2024-12-13 15:31:47.999,-0.0502493,2.98295,4.45783,0.094605,-0.0892601,0.0693312,0
2024-12-13 15:31:48.002,-0.0502493,3.00449,4.36212,0.0720036,-0.0947577,0.062001,0
2024-12-13 15:31:48.006,-0.0502493,3.05713,4.15603,0.0237467,-0.102699,0.0455081,0
2024-12-13 15:31:48.006,-0.0502493,3.05713,4.15603,0.0237467,-0.102699,0.0455081,0
2024-12-13 15:31:48.009,-0.0502493,3.08854,4.0675,-0.00251974,-0.105142,0.0357346,0
2024-12-13 15:31:48.013,-0.0741775,3.14836,3.94307,-0.0275645,-0.106364,0.0296261,0
2024-12-13 15:31:48.013,-0.0741775,3.14836,3.94307,-0.0275645,-0.106364,0.0296261,0
2024-12-13 15:31:48.016,-0.0837488,3.18903,3.89761,-0.0819299,-0.109418,0.01802,0
2024-12-13 15:31:48.018,-0.0957129,3.22493,3.833,-0.108196,-0.115526,0.0119115,0
2024-12-13 15:31:48.023,-0.11007,3.28953,3.72772,-0.166838,-0.124078,0.00458135,0
2024-12-13 15:31:48.023,-0.107677,3.28953,3.72772,-0.166838,-0.124078,0.00458135,0
2024-12-13 15:31:48.025,-0.0981057,3.2991,3.73968,-0.193715,-0.13263,-0.000916271,0
2024-12-13 15:31:48.027,-0.0981057,3.31825,3.7684,-0.219981,-0.13996,-0.00458135,0
2024-12-13 15:31:48.030,-0.102891,3.36371,3.80429,-0.245637,-0.146069,-0.00763559,0
2024-12-13 15:31:48.032,-0.112463,3.40917,3.85215,-0.273736,-0.150345,-0.0106898,0
2024-12-13 15:31:48.035,-0.107677,3.45224,3.88804,-0.299392,-0.158286,-0.0119115,0
2024-12-13 15:31:48.037,-0.112463,3.48096,3.94068,-0.320771,-0.163173,-0.0131332,0
2024-12-13 15:31:48.039,-0.122034,3.49053,4.02204,-0.34154,-0.166227,-0.0155766,0
2024-12-13 15:31:48.042,-0.124427,3.51685,4.11536,-0.361087,-0.167449,-0.0161875,0
2024-12-13 15:31:48.044,-0.12682,3.55514,4.20389,-0.380634,-0.16867,-0.0149658,0
