timestamp,accel_x,accel_y,accel_z,gyro_x,gyro_y,gyro_z,step_timestamp
2024-12-13 15:32:17.629,-0.210568,3.57906,9.63141,-0.0226777,-0.0226777,-0.0253502,0
2024-12-13 15:32:17.629,-0.210568,3.57906,9.63141,-0.0226777,-0.0226777,-0.0253502,0
2024-12-13 15:32:17.629,-0.210568,3.57906,9.63141,-0.0226777,-0.0226777,-0.0253502,0
2024-12-13 15:32:17.629,-0.210568,3.57906,9.63141,-0.0226777,-0.0226777,-0.0253502,0
2024-12-13 15:32:17.629,-0.210568,3.57906,9.63141,-0.0226777,-0.0226777,-0.0253502,0
2024-12-13 15:32:17.631,-0.215354,3.57428,9.64337,-0.0190126,-0.0251211,-0.0253502,0
2024-12-13 15:32:17.631,-0.215354,3.57428,9.64337,-0.0190126,-0.0251211,-0.0253502,0
2024-12-13 15:32:17.631,-0.215354,3.57428,9.64337,-0.0190126,-0.0251211,-0.0253502,0
2024-12-13 15:32:17.631,-0.215354,3.57428,9.64337,-0.0190126,-0.0251211,-0.0253502,0
2024-12-13 15:32:17.631,-0.215354,3.57428,9.64337,-0.0190126,-0.0251211,-0.0253502,0
2024-12-13 15:32:17.633,-0.215354,3.55992,9.65055,-0.0153475,-0.0281753,-0.0247393,0
2024-12-13 15:32:17.633,-0.198604,3.55992,9.65055,-0.0153475,-0.0281753,-0.0247393,0
2024-12-13 15:32:17.633,-0.198604,3.55992,9.65055,-0.0153475,-0.0281753,-0.0247393,0
2024-12-13 15:32:17.633,-0.198604,3.55992,9.65055,-0.0153475,-0.0281753,-0.0247393,0
2024-12-13 15:32:17.633,-0.198604,3.55992,9.65055,-0.0153475,-0.0281753,-0.0247393,0
2024-12-13 15:32:17.633,-0.198604,3.55992,9.65055,-0.0153475,-0.0281753,-0.0247393,0
2024-12-13 15:32:17.636,-0.198604,3.56231,9.63859,-0.0129041,-0.0306187,-0.025961,0
2024-12-13 15:32:17.636,-0.198604,3.56231,9.63859,-0.0129041,-0.0306187,-0.025961,0
2024-12-13 15:32:17.636,-0.198604,3.56231,9.63859,-0.0129041,-0.0306187,-0.025961,0
2024-12-13 15:32:17.636,-0.198604,3.56231,9.63859,-0.0129041,-0.0306187,-0.025961,0
2024-12-13 15:32:17.636,-0.198604,3.56231,9.63859,-0.0129041,-0.0306187,-0.025961,0
2024-12-13 15:32:17.636,-0.198604,3.56231,9.63859,-0.0129041,-0.0306187,-0.025961,0
2024-12-13 15:32:17.636,-0.198604,3.56231,9.63859,-0.0129041,-0.0306187,-0.025961,0
2024-12-13 15:32:17.636,-0.198604,3.56231,9.63859,-0.0129041,-0.0306187,-0.025961,0
2024-12-13 15:32:17.636,-0.198604,3.56231,9.63859,-0.0129041,-0.0306187,-0.025961,0
2024-12-13 15:32:17.636,-0.198604,3.56231,9.63859,-0.0129041,-0.0306187,-0.025961,0
2024-12-13 15:32:17.638,-0.20339,3.57428,9.62423,-0.0129041,-0.0306187,-0.025961,0
2024-12-13 15:32:17.640,-0.20339,3.5671,9.61466,-0.0116825,-0.033673,-0.0265719,0
2024-12-13 15:32:17.640,-0.20339,3.5671,9.61466,-0.0116825,-0.033673,-0.0265719,0
2024-12-13 15:32:17.640,-0.20339,3.5671,9.61466,-0.0116825,-0.033673,-0.0265719,0
2024-12-13 15:32:17.640,-0.20339,3.5671,9.61466,-0.0116825,-0.033673,-0.0265719,0
2024-12-13 15:32:17.640,-0.20339,3.5671,9.61466,-0.0116825,-0.033673,-0.0265719,0
2024-12-13 15:32:17.640,-0.20339,3.5671,9.61466,-0.0116825,-0.033673,-0.0265719,0
2024-12-13 15:32:17.640,-0.20339,3.5671,9.61466,-0.0116825,-0.033673,-0.0265719,0
2024-12-13 15:32:17.641,-0.20339,3.5671,9.61466,-0.0116825,-0.033673,-0.0265719,0
2024-12-13 15:32:17.641,-0.20339,3.5671,9.61466,-0.0116825,-0.033673,-0.0265719,0
2024-12-13 15:32:17.648,-0.205783,3.58146,9.55484,-0.00862822,-0.0355055,-0.0247393,0
2024-12-13 15:32:17.648,-0.205783,3.58146,9.55484,-0.00862822,-0.0355055,-0.0247393,0
2024-12-13 15:32:17.648,-0.205783,3.58146,9.55484,-0.00862822,-0.0355055,-0.0247393,0
2024-12-13 15:32:17.648,-0.205783,3.58146,9.55484,-0.00862822,-0.0355055,-0.0247393,0
2024-12-13 15:32:17.648,-0.205783,3.58146,9.55484,-0.00862822,-0.0355055,-0.0247393,0
2024-12-13 15:32:17.650,-0.215354,3.58385,9.53091,-0.00679568,-0.0342838,-0.0253502,0
2024-12-13 15:32:17.650,-0.215354,3.58385,9.53091,-0.00679568,-0.0342838,-0.0253502,0
2024-12-13 15:32:17.650,-0.215354,3.58385,9.53091,-0.00679568,-0.0342838,-0.0253502,0
2024-12-13 15:32:17.650,-0.215354,3.58385,9.53091,-0.00679568,-0.0342838,-0.0253502,0
2024-12-13 15:32:17.652,-0.224925,3.58146,9.51655,-0.00679568,-0.0330621,-0.0222959,0
2024-12-13 15:32:17.652,-0.224925,3.58146,9.51655,-0.00679568,-0.0330621,-0.0222959,0
2024-12-13 15:32:17.652,-0.224925,3.58146,9.51655,-0.00679568,-0.0330621,-0.0222959,0
2024-12-13 15:32:17.655,-0.236889,3.59342,9.49502,-0.00740652,-0.0324513,-0.0204634,0
2024-12-13 15:32:17.655,-0.236889,3.59342,9.49502,-0.00740652,-0.0324513,-0.0204634,0
2024-12-13 15:32:17.655,-0.236889,3.59342,9.49502,-0.00740652,-0.0324513,-0.0204634,0
2024-12-13 15:32:17.655,-0.236889,3.59342,9.49502,-0.00740652,-0.0324513,-0.0204634,0
2024-12-13 15:32:17.657,-0.234497,3.59342,9.4687,-0.00679568,-0.0306187,-0.0210742,0
2024-12-13 15:32:17.657,-0.234497,3.59342,9.4687,-0.00679568,-0.0306187,-0.0210742,0
2024-12-13 15:32:17.657,-0.234497,3.59342,9.4687,-0.00679568,-0.0306187,-0.0210742,0
2024-12-13 15:32:17.659,-0.232104,3.58146,9.43759,-0.00740652,-0.0281753,-0.0198525,0
2024-12-13 15:32:17.659,-0.232104,3.58146,9.43759,-0.00740652,-0.0281753,-0.0198525,0
2024-12-13 15:32:17.659,-0.232104,3.58146,9.43759,-0.00740652,-0.0281753,-0.0198525,0
2024-12-13 15:32:17.662,-0.224925,3.57667,9.40648,-0.00923906,-0.0269536,-0.01802,0
2024-12-13 15:32:17.662,-0.224925,3.57667,9.40648,-0.00923906,-0.0269536,-0.01802,0
2024-12-13 15:32:17.662,-0.224925,3.57667,9.40648,-0.00923906,-0.0269536,-0.01802,0
2024-12-13 15:32:17.662,-0.224925,3.57667,9.40648,-0.00923906,-0.0269536,-0.01802,0
2024-12-13 15:32:17.664,-0.222533,3.57189,9.39452,-0.0110716,-0.0287862,-0.0167983,0
2024-12-13 15:32:17.664,-0.222533,3.57189,9.39452,-0.0110716,-0.0287862,-0.0167983,0
2024-12-13 15:32:17.664,-0.222533,3.57189,9.39452,-0.0110716,-0.0287862,-0.0167983,0
2024-12-13 15:32:17.664,-0.222533,3.57189,9.39452,-0.0110716,-0.0287862,-0.0167983,0
2024-12-13 15:32:17.666,-0.222533,3.58624,9.37059,-0.00862822,-0.0257319,-0.01802,0
2024-12-13 15:32:17.666,-0.222533,3.58624,9.37059,-0.00862822,-0.0257319,-0.01802,0
2024-12-13 15:32:17.666,-0.222533,3.58624,9.37059,-0.00862822,-0.0257319,-0.01802,0
2024-12-13 15:32:17.669,-0.22014,3.59342,9.34427,-0.0116825,-0.0208452,-0.0143549,0
2024-12-13 15:32:17.669,-0.22014,3.59342,9.34427,-0.0116825,-0.0208452,-0.0143549,0
2024-12-13 15:32:17.669,-0.22014,3.59342,9.34427,-0.0116825,-0.0208452,-0.0143549,0
2024-12-13 15:32:17.671,-0.236889,3.57906,9.34188,-0.0141258,-0.0226777,-0.0137441,0
2024-12-13 15:32:17.671,-0.236889,3.57906,9.34188,-0.0141258,-0.0226777,-0.0137441,0
2024-12-13 15:32:17.671,-0.236889,3.57906,9.34188,-0.0141258,-0.0226777,-0.0137441,0
2024-12-13 15:32:17.671,-0.236889,3.57906,9.34188,-0.0141258,-0.0226777,-0.0137441,0
2024-12-13 15:32:17.673,-0.256032,3.57189,9.3347,-0.0159584,-0.0226777,-0.0143549,0
2024-12-13 15:32:17.673,-0.256032,3.57189,9.3347,-0.0159584,-0.0226777,-0.0143549,0
2024-12-13 15:32:17.673,-0.256032,3.57189,9.3347,-0.0159584,-0.0226777,-0.0143549,0
2024-12-13 15:32:17.673,-0.256032,3.57189,9.3347,-0.0159584,-0.0226777,-0.0143549,0
2024-12-13 15:32:17.673,-0.256032,3.57189,9.3347,-0.0159584,-0.0226777,-0.0143549,0
2024-12-13 15:32:17.674,-0.256032,3.57189,9.3347,-0.0159584,-0.0226777,-0.0143549,0
2024-12-13 15:32:17.676,-0.256032,3.57428,9.31795,-0.0159584,-0.0226777,-0.0143549,0
2024-12-13 15:32:17.678,-0.248854,3.58385,9.31556,-0.0177909,-0.0190126,-0.0125224,0
2024-12-13 15:32:17.678,-0.248854,3.58385,9.31556,-0.0177909,-0.0190126,-0.0125224,0
2024-12-13 15:32:17.678,-0.248854,3.58385,9.31556,-0.0177909,-0.0190126,-0.0125224,0
2024-12-13 15:32:17.678,-0.248854,3.58385,9.31556,-0.0177909,-0.0190126,-0.0125224,0
2024-12-13 15:32:17.681,-0.256032,3.59581,9.30838,-0.0202343,-0.0196235,-0.0131332,0
2024-12-13 15:32:17.685,-0.256032,3.59821,9.31316,-0.0202343,-0.0177909,-0.00946813,0
2024-12-13 15:32:17.685,-0.256032,3.59821,9.31316,-0.0202343,-0.0177909,-0.00946813,0
2024-12-13 15:32:17.688,-0.246461,3.60299,9.31556,-0.0202343,-0.0177909,-0.00885729,0
2024-12-13 15:32:17.690,-0.256032,3.60539,9.31795,-0.0232886,-0.0196235,-0.0106898,0
2024-12-13 15:32:17.692,-0.251246,3.59821,9.31316,-0.0232886,-0.0232886,-0.0106898,0
2024-12-13 15:32:17.697,-0.265603,3.58864,9.31556,-0.0251211,-0.0251211,-0.010079,0
2024-12-13 15:32:17.697,-0.265603,3.58864,9.31556,-0.0251211,-0.0251211,-0.010079,0
2024-12-13 15:32:17.699,-0.248854,3.6006,9.32513,-0.0245102,-0.0269536,-0.010079,0
2024-12-13 15:32:17.702,-0.260818,3.61017,9.3347,-0.0220669,-0.0257319,-0.00946813,0
2024-12-13 15:32:17.704,-0.272782,3.60778,9.35145,-0.0208452,-0.0281753,-0.00885729,0
2024-12-13 15:32:17.706,-0.270389,3.60778,9.37059,-0.0208452,-0.0306187,-0.00885729,0
2024-12-13 15:32:17.709,-0.272782,3.60299,9.37777,-0.0202343,-0.029397,-0.0064139,0
2024-12-13 15:32:17.711,-0.251246,3.58864,9.39452,-0.021456,-0.0312296,-0.00702474,0
2024-12-13 15:32:17.713,-0.239282,3.58864,9.40409,-0.0196235,-0.0330621,-0.00580305,0
2024-12-13 15:32:17.716,-0.236889,3.59342,9.41127,-0.0190126,-0.037338,-0.00397051,0
2024-12-13 15:32:17.718,-0.217747,3.58624,9.40888,-0.0196235,-0.0397814,-0.00580305,0
2024-12-13 15:32:17.721,-0.20339,3.57189,9.38734,-0.0177909,-0.0410031,-0.0051922,0
2024-12-13 15:32:17.723,-0.189033,3.56949,9.39213,-0.0184018,-0.0471116,-0.0064139,0
2024-12-13 15:32:17.725,-0.165105,3.57667,9.39452,-0.0190126,-0.0550526,-0.00580305,0
2024-12-13 15:32:17.728,-0.138784,3.57189,9.38256,-0.0238994,-0.0593285,-0.00702474,0
2024-12-13 15:32:17.730,-0.143569,3.56471,9.37777,-0.0208452,-0.0617719,-0.00763559,0
2024-12-13 15:32:17.732,-0.150748,3.56231,9.36341,-0.0238994,-0.0672696,-0.00824644,0
2024-12-13 15:32:17.735,-0.136391,3.55035,9.35863,-0.0245102,-0.0684913,-0.00885729,0
2024-12-13 15:32:17.737,-0.11007,3.5336,9.35863,-0.0251211,-0.0715455,-0.0137441,0
2024-12-13 15:32:17.739,-0.0909273,3.51446,9.35145,-0.0232886,-0.0727672,-0.0143549,0
2024-12-13 15:32:17.742,-0.081356,3.51685,9.35863,-0.029397,-0.0709346,-0.0149658,0
2024-12-13 15:32:17.744,-0.0741775,3.52164,9.36341,-0.029397,-0.0727672,-0.01802,0
2024-12-13 15:32:17.746,-0.0837488,3.49771,9.36581,-0.0287862,-0.0721563,-0.0198525,0
2024-12-13 15:32:17.751,-0.100499,3.50967,9.3682,-0.0287862,-0.0691021,-0.0222959,0
2024-12-13 15:32:17.754,-0.11007,3.50728,9.39213,-0.0287862,-0.0660479,-0.025961,0
2024-12-13 15:32:17.754,-0.11007,3.50728,9.39213,-0.0287862,-0.0660479,-0.025961,0
2024-12-13 15:32:17.757,-0.133998,3.50249,9.41606,-0.0232886,-0.0550526,-0.0284044,0
2024-12-13 15:32:17.758,-0.165105,3.52882,9.42323,-0.0232886,-0.0550526,-0.0284044,0
2024-12-13 15:32:17.761,-0.189033,3.55514,9.42802,-0.0196235,-0.049555,-0.0284044,0
2024-12-13 15:32:17.763,-0.215354,3.55274,9.43041,-0.0171801,-0.0410031,-0.0296261,0
2024-12-13 15:32:17.765,-0.227318,3.56471,9.42802,-0.0116825,-0.037338,-0.0290152,0
2024-12-13 15:32:17.768,-0.232104,3.57428,9.41606,-0.00923906,-0.0306187,-0.0277936,0
2024-12-13 15:32:17.770,-0.253639,3.57428,9.39931,-0.00618483,-0.0226777,-0.0290152,0
2024-12-13 15:32:17.772,-0.272782,3.56949,9.38495,-0.0019089,-0.0202343,-0.0271827,0
2024-12-13 15:32:17.777,-0.277567,3.58146,9.33231,0.00297788,-0.0165692,-0.0265719,0
2024-12-13 15:32:17.777,-0.277567,3.58146,9.33231,0.00297788,-0.0165692,-0.0265719,0
2024-12-13 15:32:17.779,-0.285045,3.58624,9.3012,0.00358873,-0.0171801,-0.0247393,0
2024-12-13 15:32:17.782,-0.438186,3.52164,9.29881,0.00481042,-0.0184018,-0.0235176,0
2024-12-13 15:32:17.784,-0.701396,3.39242,9.41845,0.00786466,-0.0190126,-0.0125224,0
2024-12-13 15:32:17.786,-0.612862,3.38046,9.41366,0.0109189,-0.0202343,-0.000305424,0
2024-12-13 15:32:17.789,-0.332901,3.48335,9.2028,0.00725381,-0.0422248,0.00824644,0
2024-12-13 15:32:17.791,-0.241675,3.58146,9.0999,-0.000687203,-0.0642153,0.0106898,0
2024-12-13 15:32:17.798,-0.0550349,3.75883,9.18844,-0.0202343,-0.0831516,0.00580305,0
2024-12-13 15:32:17.798,-0.0550349,3.75883,9.18844,-0.0202343,-0.0831516,0.00580305,0
2024-12-13 15:32:17.798,-0.0550349,3.75883,9.18844,-0.0202343,-0.0831516,0.00580305,0
2024-12-13 15:32:17.805,0.0693919,3.75643,9.16451,-0.0367272,-0.0917034,-0.0131332,0
2024-12-13 15:32:17.805,0.0693919,3.75643,9.16451,-0.0367272,-0.0917034,-0.0131332,0
2024-12-13 15:32:17.810,0.0287139,3.6341,9.20758,-0.0538309,-0.0941468,-0.0277936,0
2024-12-13 15:32:17.810,0.0287139,3.6341,9.20758,-0.0538309,-0.0941468,-0.0277936,0
2024-12-13 15:32:17.810,0.0287139,3.6341,9.20758,-0.0538309,-0.0941468,-0.0277936,0
2024-12-13 15:32:17.815,-0.210568,3.44028,9.31556,-0.0605502,-0.0910926,-0.0326803,0
2024-12-13 15:32:17.815,-0.210568,3.44028,9.31556,-0.0605502,-0.0910926,-0.0326803,0
2024-12-13 15:32:17.817,-0.153141,3.43071,9.25783,-0.0605502,-0.0910926,-0.0326803,0
2024-12-13 15:32:17.819,-0.155533,3.44746,9.21476,-0.0831516,-0.0892601,-0.0302369,0
2024-12-13 15:32:17.822,-0.205783,3.45703,9.23869,-0.0831516,-0.0892601,-0.0302369,0
2024-12-13 15:32:17.824,-0.229711,3.46182,9.29163,-0.0910926,-0.0721563,-0.0265719,0
2024-12-13 15:32:17.827,-0.227318,3.48096,9.35863,-0.0953685,-0.0648262,-0.0253502,0
2024-12-13 15:32:17.829,-0.210568,3.49053,9.41127,-0.101477,-0.0581068,-0.0229068,0
2024-12-13 15:32:17.831,-0.193819,3.49771,9.43998,-0.100866,-0.0513875,-0.0222959,0
2024-12-13 15:32:17.834,-0.18664,3.49771,9.46631,-0.100866,-0.0428357,-0.0229068,0
2024-12-13 15:32:17.836,-0.167498,3.48096,9.50938,-0.101477,-0.0379489,-0.0241285,0
2024-12-13 15:32:17.838,-0.150748,3.47139,9.54288,-0.0972011,-0.029397,-0.0229068,0
2024-12-13 15:32:17.841,-0.136391,3.4666,9.5692,-0.0965902,-0.0245102,-0.0241285,0
2024-12-13 15:32:17.843,-0.12682,3.46182,9.59313,-0.0923143,-0.0190126,-0.0277936,0
2024-12-13 15:32:17.848,-0.145962,3.44507,9.6338,-0.0825407,-0.00740652,-0.0314586,0
2024-12-13 15:32:17.850,-0.157926,3.44267,9.6362,-0.0715455,-0.00374144,-0.0345129,0
2024-12-13 15:32:17.850,-0.157926,3.44267,9.6362,-0.0715455,-0.00374144,-0.0345129,0
2024-12-13 15:32:17.853,-0.157926,3.44028,9.64337,-0.065437,-0.00129805,-0.033902,0
2024-12-13 15:32:17.855,-0.184247,3.44267,9.63859,-0.0587177,-0.000687203,-0.0345129,0
2024-12-13 15:32:17.857,-0.22014,3.44985,9.6338,-0.0489441,-0.00129805,-0.0345129,0
2024-12-13 15:32:17.859,-0.232104,3.45224,9.62663,-0.0434465,-0.00496313,-0.0351237,0
2024-12-13 15:32:17.862,-0.239282,3.45224,9.60509,-0.0348946,-0.00740652,-0.0332912,0
2024-12-13 15:32:17.864,-0.248854,3.45224,9.58116,-0.0287862,-0.0110716,-0.0296261,0
2024-12-13 15:32:17.867,-0.263211,3.45464,9.56441,-0.0220669,-0.0177909,-0.0284044,0
2024-12-13 15:32:17.869,-0.265603,3.46421,9.55005,-0.0171801,-0.0196235,-0.0265719,0
2024-12-13 15:32:17.871,-0.253639,3.46421,9.52852,-0.0122933,-0.021456,-0.0247393,0
2024-12-13 15:32:17.878,-0.22014,3.4666,9.43998,0.00114534,-0.029397,-0.0229068,0
2024-12-13 15:32:17.878,-0.200997,3.4666,9.43998,0.00114534,-0.029397,-0.0229068,0
2024-12-13 15:32:17.878,-0.200997,3.4666,9.43998,0.00114534,-0.029397,-0.0229068,0
2024-12-13 15:32:17.882,-0.18664,3.45703,9.39931,0.00725381,-0.0330621,-0.0253502,0
2024-12-13 15:32:17.883,-0.179462,3.46899,9.3682,0.00725381,-0.0330621,-0.0253502,0
2024-12-13 15:32:17.885,-0.189033,3.47857,9.34188,0.00725381,-0.0330621,-0.0253502,0
2024-12-13 15:32:17.897,-0.253639,3.52642,9.12623,-7.63559e-05,-0.041614,-0.025961,0
2024-12-13 15:32:17.897,-0.270389,3.52642,9.12623,-7.63559e-05,-0.041614,-0.025961,0
2024-12-13 15:32:17.897,-0.270389,3.52642,9.12623,-7.63559e-05,-0.041614,-0.025961,0
2024-12-13 15:32:17.900,-0.301795,3.52882,9.09751,-0.00435229,-0.041614,-0.0241285,0
2024-12-13 15:32:17.900,-0.301795,3.52882,9.09751,-0.00435229,-0.041614,-0.0241285,0
2024-12-13 15:32:17.900,-0.301795,3.52882,9.09751,-0.00435229,-0.041614,-0.0241285,0
2024-12-13 15:32:17.902,-0.316152,3.53839,9.08076,-0.00618483,-0.037338,-0.0235176,0
2024-12-13 15:32:17.904,-0.313759,3.53839,9.05444,-0.0141258,-0.0403923,-0.0222959,0
2024-12-13 15:32:17.907,-0.332901,3.5336,9.04487,-0.0196235,-0.0397814,-0.0174091,0
2024-12-13 15:32:17.909,-0.352044,3.5336,9.03051,-0.0238994,-0.0385597,-0.0155766,0
2024-12-13 15:32:17.911,-0.35683,3.53599,9.02333,-0.0281753,-0.037338,-0.0143549,0
2024-12-13 15:32:17.914,-0.364008,3.55035,9.04248,-0.0342838,-0.0355055,-0.00885729,0
2024-12-13 15:32:17.916,-0.371187,3.5671,9.06401,-0.0379489,-0.033673,-0.00580305,0
2024-12-13 15:32:17.918,-0.375972,3.57189,9.08315,-0.0422248,-0.0330621,-0.0051922,0
2024-12-13 15:32:17.921,-0.366401,3.57189,9.11426,-0.0489441,-0.0306187,-0.000916271,0
2024-12-13 15:32:17.923,-0.35683,3.57189,9.15973,-0.0519984,-0.0306187,0.000916271,0
2024-12-13 15:32:17.925,-0.359223,3.57667,9.20997,-0.0532201,-0.0263428,0.00335966,0
2024-12-13 15:32:17.928,-0.352044,3.57906,9.26292,-0.0562743,-0.0251211,0.00580305,0
2024-12-13 15:32:17.930,-0.335294,3.57667,9.30359,-0.0593285,-0.0257319,0.0064139,0
2024-12-13 15:32:17.932,-0.335294,3.57667,9.34427,-0.0593285,-0.0257319,0.00824644,0
2024-12-13 15:32:17.935,-0.342473,3.57906,9.3682,-0.0648262,-0.0269536,0.00946813,0
2024-12-13 15:32:17.937,-0.337687,3.56471,9.39691,-0.0666587,-0.0318404,0.0106898,0
2024-12-13 15:32:17.942,-0.332901,3.56471,9.47348,-0.0684913,-0.0379489,0.0113007,0
2024-12-13 15:32:17.942,-0.332901,3.56471,9.47348,-0.0684913,-0.0379489,0.0113007,0
2024-12-13 15:32:17.944,-0.318545,3.56949,9.52134,-0.0678804,-0.0403923,0.0119115,0
2024-12-13 15:32:17.947,-0.287438,3.55274,9.5692,-0.0678804,-0.0428357,0.0106898,0
2024-12-13 15:32:17.949,-0.260818,3.54556,9.60509,-0.0642153,-0.0434465,0.0119115,0
2024-12-13 15:32:17.952,-0.248854,3.5336,9.65295,-0.0623828,-0.0446682,0.0113007,0
2024-12-13 15:32:17.954,-0.227318,3.52164,9.68645,-0.0587177,-0.0428357,0.0119115,0
2024-12-13 15:32:17.956,-0.208176,3.51924,9.71037,-0.0550526,-0.0434465,0.00946813,0
2024-12-13 15:32:17.958,-0.200997,3.52164,9.73191,-0.0507767,-0.0428357,0.00763559,0
2024-12-13 15:32:17.961,-0.179462,3.50967,9.73909,-0.0452791,-0.0422248,0.00702474,0
2024-12-13 15:32:17.963,-0.174676,3.50489,9.75105,-0.0385597,-0.0434465,0.00458135,0
2024-12-13 15:32:17.965,-0.177069,3.50728,9.75344,-0.0330621,-0.0422248,0.00335966,0
2024-12-13 15:32:17.968,-0.16989,3.49771,9.75584,-0.0269536,-0.0403923,0.000305424,0
2024-12-13 15:32:17.970,-0.16989,3.49532,9.76302,-0.0226777,-0.041614,-0.00152712,0
2024-12-13 15:32:17.973,-0.193819,3.49053,9.74866,-0.0159584,-0.0403923,-0.00335966,0
2024-12-13 15:32:17.975,-0.200997,3.48814,9.73909,-0.00679568,-0.0379489,-0.00335966,0
2024-12-13 15:32:17.977,-0.196211,3.49053,9.72234,-0.00251974,-0.0355055,-0.00213797,0
2024-12-13 15:32:17.980,-0.20339,3.48096,9.68405,0.00419957,-0.0348946,-0.00274881,0
2024-12-13 15:32:17.982,-0.198604,3.46182,9.65295,0.0121406,-0.033673,-0.00335966,0
2024-12-13 15:32:17.984,-0.198604,3.44985,9.63859,0.0188599,-0.0318404,-0.00397051,0
2024-12-13 15:32:17.987,-0.196211,3.45942,9.61705,0.022525,-0.0312296,-0.00458135,0
2024-12-13 15:32:17.989,-0.181855,3.45703,9.57638,0.0261901,-0.0330621,-0.0051922,0
2024-12-13 15:32:17.992,-0.181855,3.44985,9.53809,0.0292443,-0.033673,-0.00702474,0
2024-12-13 15:32:17.994,-0.174676,3.46182,9.5022,0.0335202,-0.0355055,-0.00702474,0
2024-12-13 15:32:17.996,-0.153141,3.46421,9.45913,0.0371853,-0.0397814,-0.00885729,0
2024-12-13 15:32:17.998,-0.145962,3.46182,9.41366,0.038407,-0.0428357,-0.00824644,0
2024-12-13 15:32:18.001,-0.148355,3.45942,9.36102,0.0420721,-0.0458899,-0.0106898,0
2024-12-13 15:32:18.003,-0.141177,3.45942,9.32274,0.0414613,-0.0513875,-0.0119115,0
2024-12-13 15:32:18.006,-0.129212,3.45703,9.29881,0.0408504,-0.0605502,-0.0155766,0
2024-12-13 15:32:18.008,-0.119641,3.44985,9.26292,0.0408504,-0.065437,-0.0174091,0
2024-12-13 15:32:18.010,-0.11007,3.44267,9.23151,0.0402396,-0.0715455,-0.0192417,0
2024-12-13 15:32:18.013,-0.102891,3.4331,9.2028,0.0365745,-0.0794865,-0.0216851,0
2024-12-13 15:32:18.015,-0.105284,3.4331,9.1669,0.0353528,-0.085595,-0.0241285,0
2024-12-13 15:32:18.017,-0.0861416,3.42832,9.14058,0.0316877,-0.0917034,-0.0265719,0
2024-12-13 15:32:18.020,-0.0622134,3.42832,9.11187,0.0286335,-0.0972011,-0.0284044,0
2024-12-13 15:32:18.022,-0.0550349,3.42592,9.07358,0.0255792,-0.102699,-0.0320695,0
2024-12-13 15:32:18.024,-0.0550349,3.41875,9.04008,0.0219141,-0.107585,-0.0345129,0
2024-12-13 15:32:18.028,-0.0502493,3.41635,8.99941,0.014584,-0.115526,-0.0430647,0
2024-12-13 15:32:18.029,-0.0454636,3.42353,8.97069,0.014584,-0.115526,-0.0430647,0
2024-12-13 15:32:18.031,-0.0334995,3.4331,8.9348,0.010308,-0.11797,-0.046119,0
2024-12-13 15:32:18.034,-0.026321,3.41157,8.90848,0.00664296,-0.124078,-0.0503949,0
2024-12-13 15:32:18.036,-0.0167498,3.37328,8.89173,0.00236703,-0.128965,-0.05406,0
2024-12-13 15:32:18.038,0.0143569,3.34935,8.87498,-0.00251974,-0.135684,-0.0589468,0
2024-12-13 15:32:18.041,0.0502493,3.34457,8.88216,-0.00679568,-0.143625,-0.062001,0
2024-12-13 15:32:18.043,0.0765703,3.33978,8.88694,-0.0116825,-0.149123,-0.0656661,0
2024-12-13 15:32:18.046,0.100499,3.30868,8.88694,-0.0177909,-0.155232,-0.0693312,0
2024-12-13 15:32:18.049,0.136391,3.28953,8.89891,-0.0257319,-0.164394,-0.0797156,0
2024-12-13 15:32:18.050,0.172283,3.29193,8.89891,-0.0257319,-0.164394,-0.0797156,0
2024-12-13 15:32:18.053,0.205783,3.27278,8.90848,-0.0287862,-0.167449,-0.0839915,0
2024-12-13 15:32:18.055,0.248854,3.25603,8.92284,-0.0318404,-0.172335,-0.0901,0
2024-12-13 15:32:18.057,0.292223,3.24168,8.94676,-0.033673,-0.174779,-0.0925434,0
2024-12-13 15:32:18.060,0.320937,3.21536,8.98026,-0.037338,-0.176,-0.0968193,0
2024-12-13 15:32:18.064,0.364008,3.1675,9.01616,-0.0379489,-0.173557,-0.106593,0
2024-12-13 15:32:18.064,0.364008,3.1675,9.01616,-0.0379489,-0.173557,-0.106593,0
2024-12-13 15:32:18.067,0.366401,3.14118,9.01137,-0.0348946,-0.172335,-0.107815,0
2024-12-13 15:32:18.069,0.380758,3.13639,8.99462,-0.0342838,-0.170503,-0.11209,0
2024-12-13 15:32:18.071,0.3999,3.12682,8.98505,-0.0361163,-0.170503,-0.116977,0
2024-12-13 15:32:18.074,0.390329,3.10289,9.01376,-0.0361163,-0.170503,-0.116977,0
2024-12-13 15:32:18.076,0.392722,3.07627,9.04965,-0.0312296,-0.158286,-0.120642,0
2024-12-13 15:32:18.079,0.409472,3.06909,9.1023,-0.0263428,-0.147901,-0.121864,0
2024-12-13 15:32:18.081,0.431007,3.06909,9.13101,-0.0232886,-0.138128,-0.123697,0
2024-12-13 15:32:18.083,0.474078,3.08106,9.12383,-0.0177909,-0.128354,-0.124918,0
2024-12-13 15:32:18.086,0.50997,3.10289,9.10948,-0.0116825,-0.118581,-0.124307,0
2024-12-13 15:32:18.088,0.529113,3.11246,9.09512,-0.00801737,-0.109418,-0.129805,0
2024-12-13 15:32:18.090,0.52672,3.12921,9.06641,-0.00435229,-0.105142,-0.131027,0
2024-12-13 15:32:18.093,0.517149,3.13879,9.01376,-0.000687203,-0.101477,-0.13347,0
2024-12-13 15:32:18.095,0.519542,3.14357,8.94198,0.00114534,-0.0959794,-0.134692,0
2024-12-13 15:32:18.097,0.529113,3.16511,8.86541,0.00358873,-0.0965902,-0.138357,0
2024-12-13 15:32:18.100,0.553041,3.18664,8.79362,0.00542127,-0.0984228,-0.141411,0
2024-12-13 15:32:18.102,0.56022,3.19861,8.71705,0.00725381,-0.100255,-0.145076,0
2024-12-13 15:32:18.104,0.512363,3.20818,8.63779,0.00603212,-0.10331,-0.146298,0
2024-12-13 15:32:18.107,0.486042,3.21296,8.54686,0.00297788,-0.10392,-0.149352,0
2024-12-13 15:32:18.109,0.524327,3.23928,8.46551,-0.0019089,-0.105142,-0.151185,0
2024-12-13 15:32:18.111,0.569791,3.3015,8.42004,-0.00923906,-0.106364,-0.152406,0
2024-12-13 15:32:18.115,0.634397,3.33978,8.39372,-0.0232886,-0.111251,-0.165234,0
2024-12-13 15:32:18.116,0.679861,3.34935,8.36979,-0.0232886,-0.111251,-0.165234,0
2024-12-13 15:32:18.119,0.699003,3.39003,8.36501,-0.0306187,-0.114305,-0.171953,0
2024-12-13 15:32:18.121,0.727717,3.4355,8.35065,-0.0422248,-0.121024,-0.17684,0
2024-12-13 15:32:18.123,0.756431,3.47139,8.29562,-0.0556635,-0.127743,-0.18356,0
2024-12-13 15:32:18.126,0.773181,3.51685,8.2334,-0.0709346,-0.13935,-0.194555,0
2024-12-13 15:32:18.128,0.785145,3.56231,8.18794,-0.0862058,-0.147901,-0.204328,0
2024-12-13 15:32:18.130,0.794716,3.59342,8.16162,-0.106975,-0.160729,-0.21288,0
2024-12-13 15:32:18.133,0.785145,3.62214,8.1688,-0.128354,-0.177222,-0.220821,0
2024-12-13 15:32:18.135,0.766002,3.64606,8.18794,-0.152788,-0.194326,-0.228151,0
2024-12-13 15:32:18.137,0.749253,3.65354,8.19751,-0.177222,-0.210819,-0.234871,0
2024-12-13 15:32:18.140,0.737288,3.65593,8.2334,-0.199823,-0.222425,-0.243423,0
2024-12-13 15:32:18.142,0.727717,3.64367,8.28126,-0.228533,-0.237085,-0.247699,0
2024-12-13 15:32:18.144,0.708575,3.62692,8.34108,-0.249913,-0.243804,-0.25564,0
2024-12-13 15:32:18.149,0.665504,3.57428,8.53011,-0.299392,-0.251135,-0.268467,0
2024-12-13 15:32:18.152,0.663111,3.53839,8.64497,-0.319549,-0.248691,-0.273354,0
2024-12-13 15:32:18.154,0.660718,3.49292,8.75773,-0.342151,-0.240139,-0.278852,0
2024-12-13 15:32:18.154,0.660718,3.49292,8.75773,-0.342151,-0.240139,-0.278852,0
2024-12-13 15:32:18.156,0.658325,3.46182,8.89651,-0.360476,-0.230366,-0.284349,0
2024-12-13 15:32:18.159,0.646361,3.44267,9.04965,-0.378802,-0.219371,-0.289847,0
2024-12-13 15:32:18.161,0.624826,3.39721,9.18844,-0.378802,-0.219371,-0.289847,0
2024-12-13 15:32:18.163,0.627219,3.35175,9.32513,-0.408733,-0.190661,-0.300842,0
2024-12-13 15:32:18.168,0.591326,3.31107,9.60509,-0.43561,-0.160118,-0.308172,0
2024-12-13 15:32:18.168,0.591326,3.31107,9.60509,-0.43561,-0.160118,-0.308172,0
2024-12-13 15:32:18.170,0.565005,3.268,9.72952,-0.443551,-0.145458,-0.310616,0
2024-12-13 15:32:18.173,0.536291,3.23928,9.84946,-0.450882,-0.131409,-0.314281,0
2024-12-13 15:32:18.175,0.50997,3.20818,9.97628,-0.458212,-0.11797,-0.317946,0
2024-12-13 15:32:18.177,0.481256,3.17707,10.1007,-0.463099,-0.101477,-0.317946,0
2024-12-13 15:32:18.180,0.454935,3.16032,10.2012,-0.464931,-0.0892601,-0.316724,0
2024-12-13 15:32:18.182,0.426222,3.15075,10.285,-0.464931,-0.0745997,-0.317946,0
2024-12-13 15:32:18.184,0.395115,3.12921,10.3905,-0.463099,-0.0611611,-0.317946,0
2024-12-13 15:32:18.187,0.378365,3.11007,10.4934,-0.458823,-0.0465007,-0.316724,0
2024-12-13 15:32:18.189,0.366401,3.10768,10.5867,-0.452103,-0.0330621,-0.316724,0
2024-12-13 15:32:18.192,0.35683,3.11725,10.692,-0.444773,-0.0220669,-0.318557,0
2024-12-13 15:32:18.194,0.354437,3.12921,10.7662,-0.433778,-0.00740652,-0.316113,0
2024-12-13 15:32:18.196,0.349651,3.14357,10.8117,-0.423394,0.000534491,-0.314892,0
2024-12-13 15:32:18.199,0.347258,3.1675,10.8452,-0.409344,0.00847551,-0.316113,0
2024-12-13 15:32:18.201,0.349651,3.19382,10.8691,-0.396516,0.0158057,-0.316724,0
2024-12-13 15:32:18.203,0.342473,3.22493,10.8715,-0.380023,0.0206925,-0.318557,0
2024-12-13 15:32:18.206,0.332901,3.25603,10.8547,-0.364752,0.0231358,-0.322222,0
2024-12-13 15:32:18.208,0.330509,3.28475,10.8045,-0.348259,0.022525,-0.322833,0
2024-12-13 15:32:18.210,0.335294,3.31825,10.7207,-0.331766,0.0182491,-0.325276,0
2024-12-13 15:32:18.213,0.337687,3.37089,10.6202,-0.317106,0.0133623,-0.32833,0
2024-12-13 15:32:18.215,0.332901,3.42114,10.5174,-0.303057,0.00542127,-0.331385,0
2024-12-13 15:32:18.217,0.316152,3.47378,10.3783,-0.292061,-0.00618483,-0.334439,0
2024-12-13 15:32:18.220,0.301795,3.51207,10.2203,-0.281677,-0.0184018,-0.339326,0
2024-12-13 15:32:18.222,0.301795,3.54317,10.0744,-0.273125,-0.033673,-0.341158,0
2024-12-13 15:32:18.225,0.289831,3.6006,9.92603,-0.267627,-0.0501658,-0.344823,0
2024-12-13 15:32:18.229,0.256032,3.6679,9.69123,-0.258465,-0.0770431,-0.34971,0
2024-12-13 15:32:18.229,0.256032,3.6679,9.69123,-0.258465,-0.0770431,-0.34971,0
2024-12-13 15:32:18.232,0.236889,3.72293,9.59313,-0.2548,-0.0868167,-0.349099,0
2024-12-13 15:32:18.234,0.208176,3.77797,9.49263,-0.251745,-0.0990336,-0.349099,0
2024-12-13 15:32:18.239,0.16989,3.82343,9.28206,-0.260908,-0.119802,-0.350321,0
2024-12-13 15:32:18.239,0.16989,3.82343,9.28206,-0.260908,-0.119802,-0.350321,0
2024-12-13 15:32:18.241,0.160319,3.88086,9.2004,-0.265184,-0.131409,-0.347878,0
2024-12-13 15:32:18.243,0.148355,3.94068,9.12383,-0.274347,-0.137517,-0.345434,0
2024-12-13 15:32:18.246,0.145962,3.99093,9.0688,-0.285342,-0.144236,-0.34238,0
2024-12-13 15:32:18.248,0.141177,4.04357,9.04487,-0.296948,-0.147291,-0.341769,0
2024-12-13 15:32:18.250,0.133998,4.08903,9.04487,-0.309165,-0.147901,-0.339936,0
2024-12-13 15:32:18.253,0.138784,4.1345,9.04726,-0.321382,-0.148512,-0.335661,0
2024-12-13 15:32:18.255,0.162712,4.18953,9.06162,-0.339097,-0.146069,-0.332606,0
2024-12-13 15:32:18.258,0.191426,4.22094,9.10708,-0.351924,-0.142404,-0.328941,0
2024-12-13 15:32:18.260,0.198604,4.23051,9.15973,-0.365974,-0.13996,-0.326498,0
2024-12-13 15:32:18.262,0.20339,4.2353,9.22194,-0.381856,-0.141793,-0.323444,0
2024-12-13 15:32:18.265,0.217747,4.25205,9.29642,-0.395295,-0.13935,-0.317335,0
2024-12-13 15:32:18.267,0.248854,4.25444,9.37059,-0.409955,-0.140571,-0.313059,0
2024-12-13 15:32:18.269,0.285045,4.23769,9.43759,-0.423394,-0.147291,-0.310005,0
2024-12-13 15:32:18.272,0.318545,4.2353,9.52852,-0.436221,-0.152788,-0.30634,0
2024-12-13 15:32:18.274,0.344866,4.24008,9.64577,-0.445995,-0.158897,-0.302064,0
2024-12-13 15:32:18.276,0.35683,4.2329,9.75105,-0.455768,-0.163173,-0.298399,0
2024-12-13 15:32:18.281,0.380758,4.1991,9.95235,-0.47165,-0.173557,-0.289847,0
2024-12-13 15:32:18.283,0.378365,4.18235,10.072,-0.475926,-0.176,-0.282517,0
2024-12-13 15:32:18.283,0.378365,4.18235,10.072,-0.475926,-0.176,-0.282517,0
2024-12-13 15:32:18.286,0.352044,4.16082,10.1868,-0.478981,-0.177833,-0.278241,0
2024-12-13 15:32:18.288,0.32333,4.14646,10.3041,-0.475926,-0.174779,-0.270911,0
2024-12-13 15:32:18.290,0.292223,4.13928,10.4097,-0.474094,-0.172335,-0.261137,0
2024-12-13 15:32:18.293,0.253639,4.1345,10.5126,-0.467985,-0.166838,-0.251974,0
2024-12-13 15:32:18.295,0.224925,4.12014,10.6131,-0.458823,-0.158897,-0.24159,0
2024-12-13 15:32:18.298,0.198604,4.09621,10.6896,-0.451492,-0.150956,-0.231206,0
2024-12-13 15:32:18.300,0.16989,4.09382,10.7662,-0.44233,-0.144847,-0.217767,0
2024-12-13 15:32:18.302,0.160319,4.09861,10.838,-0.431335,-0.135074,-0.20555,0
2024-12-13 15:32:18.305,0.141177,4.09143,10.9241,-0.416674,-0.127743,-0.19089,0
2024-12-13 15:32:18.307,0.102891,4.09621,11.013,-0.401403,-0.119192,-0.179895,0
2024-12-13 15:32:18.309,0.0717847,4.09861,11.0824,-0.387354,-0.109418,-0.164623,0
2024-12-13 15:32:18.312,0.0646062,4.08186,11.1302,-0.369639,-0.102699,-0.151185,0
2024-12-13 15:32:18.314,0.0502493,4.0675,11.1661,-0.353757,-0.0947577,-0.138357,0
2024-12-13 15:32:18.316,0.0358923,4.05793,11.2068,-0.334821,-0.0849841,-0.124918,0
2024-12-13 15:32:18.319,0.0454636,4.04118,11.2235,-0.318939,-0.0800973,-0.109647,0
2024-12-13 15:32:18.321,0.0598206,4.02204,11.2259,-0.298781,-0.0758214,-0.098041,0
2024-12-13 15:32:18.323,0.0646062,4.00529,11.2235,-0.280455,-0.0703238,-0.0870457,0
2024-12-13 15:32:18.326,0.0622134,3.98854,11.2164,-0.262741,-0.0642153,-0.0754396,0
2024-12-13 15:32:18.328,0.066999,3.97657,11.1996,-0.243194,-0.0617719,-0.0681095,0
2024-12-13 15:32:18.331,0.0717847,3.97179,11.1781,-0.225479,-0.0593285,-0.0583359,0
2024-12-13 15:32:18.333,0.0574277,3.95982,11.1494,-0.208375,-0.0581068,-0.0503949,0
2024-12-13 15:32:18.335,0.0430708,3.95264,11.1183,-0.188828,-0.0562743,-0.0436756,0
2024-12-13 15:32:18.338,0.0239282,3.95743,11.0895,-0.171724,-0.0562743,-0.0351237,0
2024-12-13 15:32:18.340,-0.00957129,3.96222,11.0345,-0.157064,-0.0556635,-0.0284044,0
2024-12-13 15:32:18.342,-0.0358923,3.96461,10.9723,-0.143015,-0.0568851,-0.0229068,0
2024-12-13 15:32:18.345,-0.0526421,3.97418,10.917,-0.124078,-0.0550526,-0.0155766,0
2024-12-13 15:32:18.347,-0.0861416,3.98136,10.8595,-0.108807,-0.0532201,-0.00885729,0
2024-12-13 15:32:18.349,-0.117248,3.98375,10.7806,-0.0959794,-0.0519984,-0.00152712,0
2024-12-13 15:32:18.352,-0.12682,3.96939,10.6872,-0.081319,-0.0465007,0.00397051,0
2024-12-13 15:32:18.354,-0.124427,3.95982,10.6011,-0.0678804,-0.0440574,0.00763559,0
2024-12-13 15:32:18.356,-0.129212,3.96222,10.5389,-0.0562743,-0.0410031,0.0125224,0
2024-12-13 15:32:18.361,-0.136391,3.95982,10.3929,-0.033673,-0.0318404,0.0186308,0
2024-12-13 15:32:18.361,-0.136391,3.95982,10.3929,-0.033673,-0.0318404,0.0186308,0
2024-12-13 15:32:18.363,-0.155533,3.96461,10.3304,-0.0269536,-0.0275645,0.0198525,0
2024-12-13 15:32:18.366,-0.157926,3.95743,10.2945,-0.0196235,-0.0257319,0.0198525,0
2024-12-13 15:32:18.368,-0.172283,3.94786,10.2682,-0.0104608,-0.0232886,0.0210742,0
2024-12-13 15:32:18.371,-0.205783,3.95743,10.2132,-0.00374144,-0.0208452,0.0204634,0
2024-12-13 15:32:18.373,-0.227318,3.96222,10.1605,0.00725381,-0.0153475,0.0204634,0
2024-12-13 15:32:18.375,-0.253639,3.95264,10.1222,0.0151948,-0.0116825,0.0204634,0
2024-12-13 15:32:18.378,-0.285045,3.94068,10.0672,0.0261901,-0.00740652,0.0210742,0
2024-12-13 15:32:18.380,-0.256032,3.90957,10.0026,0.0335202,-0.00313059,0.0198525,0
2024-12-13 15:32:18.382,0.0334995,3.72054,10.0648,0.0457372,-7.63559e-05,0.0137441,0
2024-12-13 15:32:18.385,0.136391,3.57189,10.0983,0.0597867,-0.00801737,-0.00152712,0
2024-12-13 15:32:18.387,-0.155533,3.6679,9.88056,0.0750579,-0.0019089,-0.0119115,0
2024-12-13 15:32:18.389,-0.349651,3.80429,9.68884,0.086664,0.0139731,-0.0161875,0
2024-12-13 15:32:18.393,-0.272782,3.80907,9.72712,0.111709,0.0139731,-0.025961,0
2024-12-13 15:32:18.394,-0.244068,3.78515,9.78455,0.111709,0.0139731,-0.025961,0
2024-12-13 15:32:18.396,-0.483649,3.8689,9.6338,0.111709,0.0139731,-0.025961,0
2024-12-13 15:32:18.399,-0.667897,3.96222,9.42323,0.134921,0.014584,-0.0247393,0
2024-12-13 15:32:18.401,-0.715753,3.99811,9.34906,0.14164,0.0170274,-0.0186308,0
2024-12-13 15:32:18.404,-0.725324,3.99571,9.33709,0.14836,0.00542127,-0.0137441,0
2024-12-13 15:32:18.406,-0.710967,3.95982,9.28924,0.153246,-0.0110716,-0.0064139,0
2024-12-13 15:32:18.408,-0.667897,3.89761,9.22194,0.159355,-0.029397,-0.00335966,0
2024-12-13 15:32:18.411,-0.591326,3.81386,9.12623,0.159355,-0.029397,-0.00335966,0
2024-12-13 15:32:18.413,-0.502792,3.70618,9.03769,0.167296,-0.0599394,0.00274881,0
2024-12-13 15:32:18.415,-0.423829,3.61017,8.95394,0.169128,-0.0739889,0.00213797,0
2024-12-13 15:32:18.418,-0.354437,3.53121,8.85584,0.173404,-0.0849841,-0.000305424,0
2024-12-13 15:32:18.420,-0.299402,3.46421,8.74816,0.173404,-0.0959794,-0.0051922,0
2024-12-13 15:32:18.422,-0.267996,3.44267,8.65215,0.171572,-0.101477,-0.0106898,0
2024-12-13 15:32:18.425,-0.272782,3.45224,8.54686,0.171572,-0.108807,-0.0137441,0
2024-12-13 15:32:18.427,-0.287438,3.4666,8.44158,0.170961,-0.111251,-0.0204634,0
2024-12-13 15:32:18.429,-0.30658,3.47857,8.3674,0.167296,-0.112472,-0.0235176,0
2024-12-13 15:32:18.432,-0.342473,3.49771,8.28365,0.161187,-0.113694,-0.0265719,0
2024-12-13 15:32:18.434,-0.373579,3.50967,8.20948,0.157522,-0.11797,-0.0271827,0
2024-12-13 15:32:18.436,-0.390329,3.50489,8.14726,0.14897,-0.121024,-0.0247393,0
2024-12-13 15:32:18.439,-0.407079,3.5001,8.07996,0.141029,-0.121024,-0.0235176,0
2024-12-13 15:32:18.442,-0.3999,3.5001,8.02254,0.122704,-0.124078,-0.0186308,0
2024-12-13 15:32:18.444,-0.359223,3.50489,7.97707,0.122704,-0.124078,-0.0186308,0
2024-12-13 15:32:18.446,-0.301795,3.48574,7.934,0.110487,-0.125911,-0.01802,0
2024-12-13 15:32:18.448,-0.229711,3.45464,7.90289,0.101324,-0.124689,-0.0155766,0
2024-12-13 15:32:18.451,-0.167498,3.43071,7.89572,0.101324,-0.124689,-0.0155766,0
2024-12-13 15:32:18.454,-0.133998,3.42114,7.87897,0.0591758,-0.119192,-0.0161875,0
2024-12-13 15:32:18.455,-0.107677,3.40439,7.85265,0.0591758,-0.119192,-0.0161875,0
2024-12-13 15:32:18.458,-0.0957129,3.39721,7.84068,0.0445155,-0.115526,-0.0155766,0
2024-12-13 15:32:18.460,-0.0861416,3.39003,7.82632,0.0322986,-0.111251,-0.0131332,0
2024-12-13 15:32:18.462,-0.0789631,3.37089,7.81675,0.0182491,-0.107585,-0.0119115,0
2024-12-13 15:32:18.465,-0.0693919,3.36132,7.81197,0.00297788,-0.108196,-0.010079,0
2024-12-13 15:32:18.467,-0.0358923,3.35175,7.80958,-0.00984991,-0.105753,-0.00824644,0
2024-12-13 15:32:18.469,-0.0119641,3.33739,7.83111,-0.0226777,-0.10331,-0.00702474,0
2024-12-13 15:32:18.472,0.0215354,3.3326,7.85743,-0.0361163,-0.102088,-0.0051922,0
2024-12-13 15:32:18.474,0.0837488,3.335,7.89572,-0.0501658,-0.0978119,-0.00458135,0
2024-12-13 15:32:18.477,0.155533,3.31585,7.95314,-0.0605502,-0.093536,-0.00458135,0
2024-12-13 15:32:18.479,0.215354,3.2656,8.03211,-0.0691021,-0.0898709,-0.00824644,0
2024-12-13 15:32:18.481,0.248854,3.22971,8.12782,-0.077654,-0.0886492,-0.00885729,0
2024-12-13 15:32:18.484,0.260818,3.23689,8.22144,-0.0825407,-0.0862058,-0.0106898,0
2024-12-13 15:32:18.486,0.265603,3.24885,8.29801,-0.0843733,-0.0831516,-0.0149658,0
2024-12-13 15:32:18.488,0.287438,3.25364,8.35065,-0.0849841,-0.0807082,-0.0174091,0
2024-12-13 15:32:18.491,0.30658,3.25603,8.38176,-0.0886492,-0.0758214,-0.0216851,0
2024-12-13 15:32:18.493,0.34008,3.25843,8.39372,-0.0874275,-0.0678804,-0.0277936,0
2024-12-13 15:32:18.495,0.368794,3.25603,8.38415,-0.0904818,-0.0593285,-0.0345129,0
2024-12-13 15:32:18.498,0.385544,3.23689,8.36022,-0.093536,-0.0489441,-0.0412322,0
2024-12-13 15:32:18.500,0.409472,3.21536,8.35544,-0.0978119,-0.037338,-0.0491732,0
2024-12-13 15:32:18.502,0.414257,3.18664,8.35544,-0.10392,-0.0245102,-0.0571142,0
2024-12-13 15:32:18.505,0.414257,3.14357,8.37697,-0.109418,-0.013515,-0.0650552,0
2024-12-13 15:32:18.507,0.41665,3.11246,8.42962,-0.114916,-0.00618483,-0.0711637,0
2024-12-13 15:32:18.509,0.404686,3.07867,8.49422,-0.120413,-7.63559e-05,-0.077883,0
2024-12-13 15:32:18.513,0.373579,3.06192,8.55883,-0.130798,0.00297788,-0.0882674,0
2024-12-13 15:32:18.514,0.335294,3.0667,8.64258,-0.130798,0.00297788,-0.0882674,0
2024-12-13 15:32:18.517,0.297009,3.06192,8.72423,-0.130798,0.00786466,-0.0925434,0
2024-12-13 15:32:18.519,0.272782,3.08854,8.77209,-0.13263,0.0121406,-0.0943759,0
2024-12-13 15:32:18.521,0.270389,3.10768,8.80559,-0.133241,0.0206925,-0.0968193,0
2024-12-13 15:32:18.524,0.265603,3.10529,8.84387,-0.135684,0.0316877,-0.098041,0
2024-12-13 15:32:18.526,0.256032,3.10768,8.8678,-0.135074,0.0414613,-0.0986518,0
2024-12-13 15:32:18.528,0.253639,3.1005,8.87259,-0.137517,0.0548999,-0.101095,0
2024-12-13 15:32:18.531,0.260818,3.09571,8.87498,-0.138739,0.0677277,-0.101095,0
2024-12-13 15:32:18.533,0.270389,3.09332,8.9013,-0.140571,0.0775012,-0.102317,0
2024-12-13 15:32:18.535,0.282652,3.07388,8.92523,-0.143015,0.0842206,-0.103539,0
2024-12-13 15:32:18.538,0.297009,3.04756,8.94916,-0.144847,0.0854423,-0.10476,0
2024-12-13 15:32:18.540,0.292223,3.05234,8.98505,-0.145458,0.0860531,-0.105371,0
2024-12-13 15:32:18.542,0.258425,3.08345,9.01376,-0.147901,0.0836097,-0.105982,0
2024-12-13 15:32:18.545,0.239282,3.1005,9.02812,-0.149123,0.082388,-0.105982,0
2024-12-13 15:32:18.547,0.227318,3.10289,9.02812,-0.148512,0.0829989,-0.104149,0
2024-12-13 15:32:18.550,0.198604,3.10529,9.02812,-0.150956,0.0781121,-0.103539,0
2024-12-13 15:32:18.552,0.16989,3.10289,9.02812,-0.149734,0.0775012,-0.0986518,0
2024-12-13 15:32:18.554,0.150748,3.09093,9.01137,-0.151566,0.074447,-0.0949868,0
2024-12-13 15:32:18.557,0.136391,3.06431,8.98266,-0.150956,0.074447,-0.0894891,0
2024-12-13 15:32:18.559,0.117248,3.04038,8.96351,-0.153399,0.0732253,-0.085824,0
2024-12-13 15:32:18.561,0.0957129,3.02842,8.99462,-0.156453,0.0720036,-0.0760505,0
2024-12-13 15:32:18.564,0.0789631,3.01167,9.04726,-0.157064,0.0683385,-0.0668878,0
2024-12-13 15:32:18.566,0.0574277,2.98774,9.08555,-0.158286,0.0616192,-0.0607793,0
2024-12-13 15:32:18.568,0.0191426,2.9662,9.12862,-0.159507,0.0548999,-0.0491732,0
2024-12-13 15:32:18.571,-0.00478565,2.93749,9.17887,-0.160118,0.046348,-0.0375671,0
2024-12-13 15:32:18.573,-0.0239282,2.90399,9.21955,-0.158286,0.0329094,-0.0265719,0
2024-12-13 15:32:18.575,-0.0526421,2.88485,9.28445,-0.158897,0.0206925,-0.0106898,0
2024-12-13 15:32:18.578,-0.0693919,2.88245,9.33949,-0.160118,0.00603212,0.000916271,0
2024-12-13 15:32:18.580,-0.0693919,2.9016,9.37059,-0.160729,-0.00862822,0.0167983,0
2024-12-13 15:32:18.583,-0.0622134,2.92074,9.41127,-0.161951,-0.0251211,0.0326803,0
2024-12-13 15:32:18.585,-0.11007,2.88963,9.4352,-0.162562,-0.041614,0.0473407,0
2024-12-13 15:32:18.587,-0.232104,2.8346,9.45913,-0.163173,-0.0617719,0.0650552,0
2024-12-13 15:32:18.590,-0.263211,2.87767,9.50938,-0.161951,-0.0770431,0.085824,0
2024-12-13 15:32:18.592,-0.0885344,2.9662,9.57638,-0.161951,-0.0880384,0.105982,0
2024-12-13 15:32:18.594,0.122034,3.02124,9.61705,-0.160118,-0.100255,0.115145,0
2024-12-13 15:32:18.597,0.0574277,2.92792,9.57877,-0.158897,-0.116137,0.122475,0
2024-12-13 15:32:18.599,-0.12682,2.85374,9.55723,-0.158897,-0.133241,0.142098,0
2024-12-13 15:32:18.601,-0.0526421,2.96142,9.64816,-0.155232,-0.144236,0.159813,0
2024-12-13 15:32:18.604,0.107677,3.00688,9.72712,-0.150956,-0.149734,0.170197,0
2024-12-13 15:32:18.606,0.16989,2.99492,9.70798,-0.14668,-0.157675,0.183025,0
2024-12-13 15:32:18.608,0.212961,3.03799,9.69841,-0.143625,-0.172335,0.192799,0
2024-12-13 15:32:18.611,0.316152,3.06909,9.71994,-0.138739,-0.184552,0.20074,0
2024-12-13 15:32:18.613,0.426222,3.09571,9.72712,-0.138128,-0.19738,0.206237,0
2024-12-13 15:32:18.615,0.500399,3.14357,9.73669,-0.13263,-0.208986,0.209902,0
2024-12-13 15:32:18.618,0.565005,3.18425,9.74627,-0.127743,-0.219981,0.212957,0
2024-12-13 15:32:18.620,0.634397,3.23211,9.7343,-0.121635,-0.231587,0.212346,0
2024-12-13 15:32:18.623,0.710967,3.3015,9.73909,-0.11797,-0.241361,0.212346,0
2024-12-13 15:32:18.625,0.775574,3.37567,9.75584,-0.114305,-0.248691,0.210513,0
2024-12-13 15:32:18.627,0.852443,3.42592,9.75584,-0.111251,-0.252967,0.206237,0
2024-12-13 15:32:18.630,0.933799,3.47857,9.75823,-0.107585,-0.256632,0.201961,0
2024-12-13 15:32:18.632,1.01755,3.53599,9.75823,-0.108196,-0.259076,0.195853,0
2024-12-13 15:32:18.634,1.09173,3.58146,9.75823,-0.105753,-0.263962,0.189744,0
2024-12-13 15:32:18.637,1.12762,3.64367,9.75344,-0.105753,-0.264573,0.181193,0
2024-12-13 15:32:18.639,1.17547,3.71336,9.74866,-0.105753,-0.264573,0.181193,0
2024-12-13 15:32:18.641,1.23051,3.77557,9.75823,-0.110029,-0.270071,0.166532,0
2024-12-13 15:32:18.644,1.27597,3.82343,9.75823,-0.113694,-0.270071,0.15798,0
2024-12-13 15:32:18.648,1.34058,3.93829,9.78934,-0.122246,-0.275568,0.140266,0
2024-12-13 15:32:18.648,1.34058,3.93829,9.78934,-0.122246,-0.275568,0.140266,0
2024-12-13 15:32:18.651,1.39322,4.00289,9.79891,-0.127133,-0.27679,0.130416,0
2024-12-13 15:32:18.653,1.45095,4.05554,9.8351,-0.133852,-0.278012,0.120031,0
2024-12-13 15:32:18.656,1.49402,4.09861,9.87338,-0.141182,-0.278012,0.110869,0
2024-12-13 15:32:18.658,1.52991,4.13211,9.90449,-0.149123,-0.274347,0.0974301,0
2024-12-13 15:32:18.660,1.55145,4.17518,9.94278,-0.157064,-0.26946,0.0876566,0
2024-12-13 15:32:18.663,1.57059,4.2015,9.97149,-0.161951,-0.262741,0.0766613,0
2024-12-13 15:32:18.665,1.58973,4.1991,10.0122,-0.16867,-0.256632,0.0681095,0
2024-12-13 15:32:18.667,1.6017,4.20897,10.06,-0.17539,-0.248691,0.0571142,0
2024-12-13 15:32:18.670,1.60409,4.24008,10.0887,-0.181498,-0.238307,0.0448973,0
2024-12-13 15:32:18.672,1.59212,4.24487,10.1318,-0.188217,-0.228533,0.0369563,0
2024-12-13 15:32:18.674,1.55623,4.23051,10.1964,-0.193715,-0.219371,0.0290152,0
2024-12-13 15:32:18.677,1.4988,4.22572,10.2491,-0.195547,-0.208375,0.0247393,0
2024-12-13 15:32:18.679,1.47009,4.25683,10.3304,-0.201045,-0.196769,0.0192417,0
2024-12-13 15:32:18.681,1.52034,4.30469,10.4049,-0.204099,-0.18272,0.0149658,0
2024-12-13 15:32:18.684,1.55862,4.32622,10.448,-0.205932,-0.170503,0.00885729,0
2024-12-13 15:32:18.686,1.51555,4.36212,10.5126,-0.205321,-0.157064,0.00274881,0
2024-12-13 15:32:18.688,1.44855,4.37887,10.5939,-0.207154,-0.143625,0.000305424,0
2024-12-13 15:32:18.691,1.39322,4.37408,10.6705,-0.207764,-0.128965,-0.00274881,0
2024-12-13 15:32:18.693,1.35015,4.39083,10.7447,-0.210819,-0.114916,-0.00397051,0
2024-12-13 15:32:18.696,1.31426,4.41236,10.8069,-0.210208,-0.0996445,-0.00274881,0
2024-12-13 15:32:18.698,1.31426,4.45544,10.8547,-0.210208,-0.0880384,-0.00458135,0
2024-12-13 15:32:18.700,1.39561,4.52722,10.8858,-0.212651,-0.0745997,-0.00702474,0
2024-12-13 15:32:18.703,1.51555,4.62054,10.9217,-0.214484,-0.0636045,-0.0149658,0
2024-12-13 15:32:18.705,1.56341,4.6995,11.013,-0.218149,-0.0507767,-0.0241285,0
2024-12-13 15:32:18.707,1.51316,4.71386,11.1613,-0.219371,-0.0300079,-0.0351237,0
2024-12-13 15:32:18.710,1.4342,4.67797,11.3288,-0.216927,-0.00862822,-0.0442864,0
2024-12-13 15:32:18.712,1.36211,4.61815,11.47,-0.215705,0.0115297,-0.0516166,0
2024-12-13 15:32:18.714,1.2664,4.55354,11.6019,-0.213262,0.0261901,-0.0589468,0
2024-12-13 15:32:18.717,1.19222,4.51286,11.7191,-0.21204,0.0359636,-0.0613902,0
2024-12-13 15:32:18.721,1.04626,4.45065,11.9656,-0.205321,0.0524565,-0.0626118,0
2024-12-13 15:32:18.721,1.04626,4.45065,11.9656,-0.205321,0.0524565,-0.0626118,0
2024-12-13 15:32:18.724,1.02712,4.45544,12.0808,-0.205321,0.0524565,-0.0626118,0
2024-12-13 15:32:18.726,0.998405,4.44347,12.2028,-0.199213,0.0726145,-0.062001,0
2024-12-13 15:32:18.729,0.909871,4.41236,12.3296,-0.192493,0.094605,-0.0595576,0
2024-12-13 15:32:18.731,0.809073,4.35733,12.3727,-0.183331,0.133088,-0.05406,0
2024-12-13 15:32:18.733,0.727717,4.29272,12.4636,-0.173557,0.174015,-0.0455081,0
2024-12-13 15:32:18.736,0.627219,4.2353,12.6577,-0.161951,0.203947,-0.0363454,0
2024-12-13 15:32:18.738,0.478864,4.17039,12.8851,-0.151566,0.222272,-0.0247393,0
2024-12-13 15:32:18.740,0.387936,4.13928,13.0932,-0.136906,0.226548,-0.0125224,0
2024-12-13 15:32:18.743,0.347258,4.14168,13.2634,-0.122246,0.223494,-0.00152712,0
2024-12-13 15:32:18.745,0.277567,4.15125,13.4213,-0.106364,0.21372,0.00946813,0
2024-12-13 15:32:18.747,0.198604,4.16321,13.5697,-0.0874275,0.208833,0.0204634,0
2024-12-13 15:32:18.750,0.148355,4.18953,13.6606,-0.0636045,0.202725,0.0332912,0
2024-12-13 15:32:18.752,0.107677,4.19671,13.6893,-0.037338,0.19906,0.0479515,0
2024-12-13 15:32:18.754,0.0957129,4.20897,13.6774,-0.0116825,0.202114,0.0607793,0
2024-12-13 15:32:18.757,0.129212,4.25205,13.6008,0.014584,0.211277,0.0711637,0
2024-12-13 15:32:18.759,0.196211,4.29512,13.4979,0.0371853,0.219218,0.0791047,0
2024-12-13 15:32:18.761,0.272782,4.33579,13.3831,0.058565,0.22777,0.0852132,0
2024-12-13 15:32:18.764,0.354437,4.38365,13.2754,0.0787229,0.233878,0.0882674,0
2024-12-13 15:32:18.766,0.423829,4.43151,13.1794,0.0970484,0.238154,0.0833807,0
2024-12-13 15:32:18.769,0.486042,4.45304,13.0573,0.11232,0.235711,0.0784939,0
2024-12-13 15:32:18.771,0.562612,4.48654,12.9449,0.122093,0.229602,0.0717745,0
2024-12-13 15:32:18.773,0.622433,4.52722,12.8372,0.131256,0.221661,0.0601685,0
2024-12-13 15:32:18.776,0.663111,4.55833,12.7247,0.137975,0.207612,0.0455081,0
2024-12-13 15:32:18.778,0.691825,4.58226,12.6266,0.136753,0.192341,0.0332912,0
2024-12-13 15:32:18.780,0.708575,4.60379,12.5234,0.131867,0.178291,0.0155766,0
2024-12-13 15:32:18.783,0.720539,4.60618,12.4158,0.122704,0.162409,-0.00152712,0
2024-12-13 15:32:18.785,0.722932,4.61097,12.332,0.109876,0.145916,-0.0155766,0
2024-12-13 15:32:18.787,0.718146,4.61336,12.253,0.0933833,0.128812,-0.0326803,0
2024-12-13 15:32:18.790,0.701396,4.6014,12.1837,0.0726145,0.114763,-0.0497841,0
2024-12-13 15:32:18.792,0.665504,4.59422,12.1382,0.046348,0.103157,-0.0644444,0
2024-12-13 15:32:18.794,0.634397,4.59183,12.1262,0.046348,0.103157,-0.0644444,0
2024-12-13 15:32:18.797,0.598505,4.59183,12.131,-0.0116825,0.0860531,-0.0943759,0
2024-12-13 15:32:18.799,0.54347,4.58465,12.1502,-0.0446682,0.0805555,-0.109036,0
2024-12-13 15:32:18.802,0.483649,4.56551,12.1693,-0.0800973,0.0781121,-0.121864,0
2024-12-13 15:32:18.804,0.421436,4.54158,12.2004,-0.114916,0.0775012,-0.132248,0
2024-12-13 15:32:18.806,0.364008,4.52483,12.2698,-0.149734,0.0787229,-0.1408,0
2024-12-13 15:32:18.809,0.325723,4.48415,12.3655,-0.186996,0.0817772,-0.150574,0
2024-12-13 15:32:18.811,0.313759,4.41954,12.4852,-0.221814,0.0860531,-0.159126,0
2024-12-13 15:32:18.813,0.304188,4.36212,12.6144,-0.257243,0.0909399,-0.165845,0
2024-12-13 15:32:18.816,0.287438,4.31426,12.763,-0.298781,0.0921616,-0.173175,0
2024-12-13 15:32:18.818,0.265603,4.26401,12.9209,-0.335431,0.0933833,-0.179895,0
2024-12-13 15:32:18.820,0.258425,4.1991,13.0956,-0.373304,0.0909399,-0.186614,0
2024-12-13 15:32:18.823,0.265603,4.1345,13.2802,-0.406901,0.0848314,-0.190279,0
2024-12-13 15:32:18.825,0.282652,4.07468,13.4644,-0.442941,0.0793338,-0.195777,0
2024-12-13 15:32:18.827,0.301795,3.97418,13.6511,-0.480202,0.0701711,-0.200052,0
2024-12-13 15:32:18.830,0.337687,3.85932,13.8547,-0.51441,0.0616192,-0.204939,0
2024-12-13 15:32:18.834,0.390329,3.58146,14.3934,-0.578549,0.0487914,-0.215935,0
2024-12-13 15:32:18.834,0.390329,3.58146,14.3934,-0.578549,0.0487914,-0.215935,0
2024-12-13 15:32:18.837,0.383151,3.4355,14.6949,-0.605426,0.050624,-0.221432,0
2024-12-13 15:32:18.839,0.361615,3.29432,14.9967,-0.62253,0.0542891,-0.222043,0
2024-12-13 15:32:18.842,0.325723,3.13879,15.3389,-0.634136,0.0695602,-0.222654,0
2024-12-13 15:32:18.844,0.292223,2.9686,15.6718,-0.64452,0.0891073,-0.220821,0
2024-12-13 15:32:18.846,0.256032,2.8011,15.9685,-0.643299,0.113541,-0.215935,0
2024-12-13 15:32:18.849,0.153141,2.69103,16.2296,-0.63719,0.145305,-0.208604,0
2024-12-13 15:32:18.851,-0.0334995,2.63839,16.3971,-0.626806,0.18501,-0.192722,0
2024-12-13 15:32:18.853,-0.0861416,2.52323,16.6128,-0.609091,0.228991,-0.172564,0
2024-12-13 15:32:18.856,-0.0119641,2.34138,16.9071,-0.583435,0.259534,-0.157293,0
2024-12-13 15:32:18.858,-0.100499,2.15474,17.1395,-0.554115,0.288244,-0.138968,0
2024-12-13 15:32:18.860,-0.270389,1.95583,17.3548,-0.51441,0.32184,-0.117588,0
2024-12-13 15:32:18.864,-0.318545,1.72373,17.5558,-0.411787,0.391477,-0.0687203,0
2024-12-13 15:32:18.865,-0.256032,1.45573,17.726,-0.411787,0.391477,-0.0687203,0
2024-12-13 15:32:18.867,-0.148355,1.22094,17.8696,-0.353757,0.414078,-0.0455081,3
2024-12-13 15:32:18.870,-0.0741775,1.05105,17.9462,-0.282288,0.442177,-0.0271827,0
2024-12-13 15:32:18.872,-0.0239282,0.902692,17.9725,-0.210208,0.470276,-0.00458135,0
2024-12-13 15:32:18.875,0.040678,0.761217,17.9557,-0.128965,0.497764,0.0155766,0
2024-12-13 15:32:18.877,0.0957129,0.658325,17.884,-0.0434465,0.524641,0.0332912,0
2024-12-13 15:32:18.879,0.122034,0.632004,17.7547,0.0475697,0.55274,0.0510057,0
2024-12-13 15:32:18.882,0.114855,0.667897,17.5582,0.142251,0.583894,0.0662769,0
2024-12-13 15:32:18.884,0.0861416,0.727717,17.2902,0.235711,0.612603,0.0833807,0
2024-12-13 15:32:18.886,0.0358923,0.80668,16.9214,0.327949,0.638259,0.102317,0
2024-12-13 15:32:18.889,-0.040678,0.897907,16.5144,0.421485,0.664525,0.121864,0
2024-12-13 15:32:18.891,-0.122034,0.979263,16.0717,0.516777,0.683462,0.142098,0
2024-12-13 15:32:18.893,-0.198604,1.04148,15.545,0.599852,0.694457,0.1647,0
2024-12-13 15:32:18.896,-0.285045,1.07737,15.0039,0.682927,0.699955,0.187301,0
2024-12-13 15:32:18.898,-0.361615,1.09651,14.458,0.759894,0.698122,0.208681,0
2024-12-13 15:32:18.900,-0.423829,1.09651,13.9122,0.83625,0.688349,0.231282,0
2024-12-13 15:32:18.903,-0.478864,1.0678,13.395,0.910773,0.675521,0.254494,0
2024-12-13 15:32:18.905,-0.495613,1.0343,12.897,0.977966,0.66086,0.276485,0
2024-12-13 15:32:18.908,-0.500399,1.02233,12.399,1.04211,0.644368,0.297864,0
2024-12-13 15:32:18.910,-0.536291,1.01515,11.9034,1.10014,0.630929,0.31619,0
2024-12-13 15:32:18.912,-0.562612,1.0008,11.4174,1.15572,0.616269,0.331461,0
2024-12-13 15:32:18.915,-0.565005,0.998405,10.9193,1.20337,0.601608,0.347954,0
2024-12-13 15:32:18.917,-0.550648,1.02473,10.4288,1.24918,0.590002,0.357727,0
2024-12-13 15:32:18.919,-0.519542,1.04148,9.97388,1.2895,0.580839,0.367501,0
2024-12-13 15:32:18.922,-0.502792,1.07498,9.5333,1.32065,0.56679,0.375442,0
2024-12-13 15:32:18.924,-0.502792,1.13001,9.09512,1.34814,0.554573,0.377885,0
2024-12-13 15:32:18.926,-0.435793,1.11326,8.71227,1.36891,0.541134,0.377885,0
2024-12-13 15:32:18.929,-0.198604,0.97687,8.58515,1.38846,0.508149,0.371777,0
2024-12-13 15:32:18.931,-0.208176,0.964906,8.22383,1.40373,0.468443,0.355284,0
2024-12-13 15:32:18.933,-0.378365,1.10608,7.6349,1.41106,0.457448,0.342456,0
2024-12-13 15:32:18.936,-0.426222,1.23769,7.26132,1.41289,0.449507,0.327185,0
2024-12-13 15:32:18.938,-0.54347,1.39561,6.89253,1.40984,0.439123,0.316801,0
2024-12-13 15:32:18.940,-0.56022,1.47727,6.68674,1.39823,0.418965,0.302751,0
2024-12-13 15:32:18.943,-0.679861,1.55862,6.48814,1.38479,0.382925,0.289923,0
2024-12-13 15:32:18.945,-0.950549,1.7333,6.11456,1.3628,0.360324,0.282593,0
2024-12-13 15:32:18.948,-1.1348,1.90319,5.78884,1.33287,0.340776,0.28015,0
2024-12-13 15:32:18.950,-1.28315,2.02313,5.57827,1.29927,0.31451,0.277706,0
2024-12-13 15:32:18.952,-1.37169,2.09013,5.48973,1.26506,0.2858,0.280761,0
2024-12-13 15:32:18.955,-1.40788,2.12124,5.45145,1.22597,0.245484,0.283204,0
2024-12-13 15:32:18.957,-1.41506,2.12124,5.4012,1.18627,0.207001,0.284426,0
2024-12-13 15:32:18.959,-1.4004,2.07577,5.34138,1.14167,0.172183,0.285647,0
2024-12-13 15:32:18.962,-1.34536,2.02552,5.27887,1.09708,0.137975,0.283815,0
2024-12-13 15:32:18.964,-1.26401,1.99202,5.25015,1.0476,0.106211,0.281982,0
2024-12-13 15:32:18.966,-1.20658,1.93669,5.24058,0.998735,0.0781121,0.277706,0
2024-12-13 15:32:18.969,-1.15394,1.87448,5.21665,0.951089,0.0548999,0.271598,0
2024-12-13 15:32:18.971,-1.10848,1.85773,5.20947,0.901611,0.0408504,0.263046,0
2024-12-13 15:32:18.973,-0.99362,1.89123,5.20469,0.850299,0.0316877,0.250218,0
2024-12-13 15:32:18.976,-0.871586,1.93669,5.17119,0.796545,0.0353528,0.23006,0
2024-12-13 15:32:18.978,-0.837787,1.94387,5.2358,0.741569,0.0451263,0.211735,0
2024-12-13 15:32:18.981,-0.869193,1.95823,5.39402,0.693922,0.0530674,0.19402,0
2024-12-13 15:32:18.983,-0.933799,1.98485,5.54716,0.652385,0.0567324,0.183636,0
2024-12-13 15:32:18.985,-0.988834,1.9992,5.70748,0.613901,0.0591758,0.17936,0
2024-12-13 15:32:18.989,-1.02473,2.01356,5.82712,0.549763,0.0530674,0.177527,0
2024-12-13 15:32:18.990,-1.03908,2.02552,5.88455,0.549763,0.0530674,0.177527,0
2024-12-13 15:32:18.992,-1.0319,2.04706,5.90878,0.513112,0.050624,0.179971,0
2024-12-13 15:32:18.995,-1.00798,2.05424,5.91596,0.480126,0.0561216,0.182414,0
2024-12-13 15:32:18.997,-0.99362,2.05424,5.9351,0.442864,0.0616192,0.182414,0
2024-12-13 15:32:18.999,-0.988834,2.05902,5.98295,0.409268,0.0695602,0.183636,0
2024-12-13 15:32:19.002,-0.974477,2.05185,6.04995,0.375671,0.0707819,0.189134,0
2024-12-13 15:32:19.004,-0.97687,2.03031,6.11695,0.337722,0.0695602,0.195242,0
2024-12-13 15:32:19.006,-0.984048,2.01835,6.16959,0.310234,0.074447,0.201961,0
2024-12-13 15:32:19.009,-0.984048,2.01356,6.23659,0.287633,0.0775012,0.211735,0
2024-12-13 15:32:19.011,-0.952942,1.98963,6.29641,0.258923,0.0787229,0.219676,0
2024-12-13 15:32:19.013,-0.917049,1.96062,6.32752,0.236932,0.0829989,0.23006,0
2024-12-13 15:32:19.017,-0.9003,1.96301,6.38734,0.189286,0.0872748,0.248386,0
2024-12-13 15:32:19.018,-0.871586,1.99681,6.48814,0.189286,0.0872748,0.248386,0
2024-12-13 15:32:19.021,-0.80668,2.02313,6.54557,0.168517,0.0860531,0.255105,0
2024-12-13 15:32:19.023,-0.715753,2.02313,6.56949,0.149581,0.0921616,0.258159,0
2024-12-13 15:32:19.025,-0.677468,2.01595,6.66999,0.125758,0.0952158,0.261824,0
2024-12-13 15:32:19.028,-0.691825,2.02313,6.80638,0.106822,0.0952158,0.267933,0
2024-12-13 15:32:19.030,-0.706182,2.02552,6.92363,0.0915507,0.094605,0.272209,0
2024-12-13 15:32:19.032,-0.718146,2.01595,7.02204,0.0768904,0.0927724,0.281982,0
2024-12-13 15:32:19.035,-0.703789,1.99442,7.08664,0.0658951,0.0878856,0.288091,0
2024-12-13 15:32:19.037,-0.65354,1.96301,7.12732,0.0536782,0.0933833,0.294199,0
2024-12-13 15:32:19.039,-0.584148,1.94865,7.17278,0.0371853,0.0994917,0.296643,0
2024-12-13 15:32:19.042,-0.521934,1.94387,7.22782,0.0200816,0.104379,0.296643,0
2024-12-13 15:32:19.044,-0.498006,1.92951,7.30918,0.00603212,0.108044,0.294199,0
2024-12-13 15:32:19.046,-0.507577,1.91037,7.39292,-0.00496313,0.114152,0.292978,0
2024-12-13 15:32:19.049,-0.52672,1.89601,7.46471,-0.0153475,0.11965,0.288702,0
2024-12-13 15:32:19.051,-0.533899,1.88166,7.5341,-0.0245102,0.124536,0.286258,0
2024-12-13 15:32:19.054,-0.538684,1.86491,7.60858,-0.0324513,0.133088,0.283815,0
2024-12-13 15:32:19.056,-0.541077,1.84576,7.68515,-0.0403923,0.139808,0.278317,0
2024-12-13 15:32:19.058,-0.529113,1.83141,7.74497,-0.0434465,0.147138,0.274041,0
2024-12-13 15:32:19.061,-0.519542,1.81944,7.80718,-0.0477224,0.152635,0.269155,0
2024-12-13 15:32:19.063,-0.498006,1.80748,7.88136,-0.0507767,0.161798,0.260603,0
2024-12-13 15:32:19.065,-0.481256,1.81466,7.93879,-0.0501658,0.169739,0.25144,0
2024-12-13 15:32:19.068,-0.474078,1.82423,7.99143,-0.049555,0.177069,0.242277,0
2024-12-13 15:32:19.070,-0.459721,1.82184,8.04646,-0.0440574,0.1844,0.230671,0
2024-12-13 15:32:19.072,-0.457328,1.82662,8.07757,-0.0379489,0.192341,0.219065,0
2024-12-13 15:32:19.075,-0.435793,1.84576,8.10629,-0.033673,0.200282,0.205016,0
2024-12-13 15:32:19.077,-0.419043,1.87926,8.11825,-0.0238994,0.204557,0.19341,0
2024-12-13 15:32:19.079,-0.426222,1.90319,8.10629,-0.0159584,0.211277,0.180582,0
2024-12-13 15:32:19.082,-0.426222,1.91755,8.11107,-0.00313059,0.217385,0.165311,0
2024-12-13 15:32:19.084,-0.423829,1.93669,8.13021,0.00786466,0.221661,0.151872,0
2024-12-13 15:32:19.086,-0.431007,1.95105,8.11586,0.0188599,0.228991,0.139044,0
2024-12-13 15:32:19.089,-0.435793,1.96301,8.09193,0.0322986,0.232656,0.123086,0
2024-12-13 15:32:19.091,-0.4334,1.97288,8.07279,0.0500131,0.235711,0.109036,0
2024-12-13 15:32:19.094,-0.440578,1.97767,8.02254,0.0628409,0.237543,0.0962084,0
2024-12-13 15:32:19.096,-0.45015,2.0016,7.97468,0.0787229,0.2351,0.0803264,0
2024-12-13 15:32:19.098,-0.457328,2.0016,7.91964,0.0958267,0.233267,0.0674986,0
2024-12-13 15:32:19.101,-0.462114,1.99202,7.8335,0.11232,0.228381,0.05406,0
2024-12-13 15:32:19.103,-0.45015,2.00877,7.73061,0.125147,0.22044,0.0412322,0
2024-12-13 15:32:19.105,-0.452543,2.03749,7.60379,0.138586,0.210055,0.025961,0
2024-12-13 15:32:19.108,-0.459721,2.05424,7.47667,0.151414,0.200282,0.0149658,0
2024-12-13 15:32:19.110,-0.457328,2.07099,7.35943,0.161187,0.189286,0.00213797,0
2024-12-13 15:32:19.112,-0.464507,2.10209,7.25175,0.169128,0.175848,-0.00946813,0
2024-12-13 15:32:19.115,-0.476471,2.12842,7.14168,0.177069,0.165463,-0.0222959,0
2024-12-13 15:32:19.117,-0.502792,2.14756,7.01964,0.180734,0.152635,-0.0296261,0
2024-12-13 15:32:19.119,-0.521934,2.1667,6.91406,0.181956,0.141029,-0.0387888,0
2024-12-13 15:32:19.122,-0.538684,2.19063,6.79921,0.18501,0.129423,-0.0479515,0
2024-12-13 15:32:19.124,-0.562612,2.22413,6.6676,0.185621,0.117817,-0.0558925,0
2024-12-13 15:32:19.127,-0.600898,2.24088,6.54796,0.183178,0.108044,-0.0595576,0
2024-12-13 15:32:19.129,-0.646361,2.25045,6.4352,0.178902,0.0976592,-0.0626118,0
2024-12-13 15:32:19.131,-0.684646,2.27199,6.32752,0.17035,0.086664,-0.0668878,0
2024-12-13 15:32:19.134,-0.715753,2.27916,6.22702,0.159355,0.0817772,-0.0687203,0
2024-12-13 15:32:19.136,-0.754038,2.3007,6.14088,0.159355,0.0817772,-0.0687203,0
2024-12-13 15:32:19.138,-0.785145,2.31984,6.0691,0.147138,0.0732253,-0.0681095,0
2024-12-13 15:32:19.141,-0.801895,2.32702,5.99731,0.114152,0.0622301,-0.0668878,0
2024-12-13 15:32:19.143,-0.816252,2.34616,5.94706,0.0933833,0.0579541,-0.0656661,0
2024-12-13 15:32:19.145,-0.828216,2.38923,5.91356,0.074447,0.0567324,-0.0638335,0
2024-12-13 15:32:19.148,-0.84018,2.42034,5.88216,0.0555107,0.0524565,-0.0632227,0
2024-12-13 15:32:19.150,-0.837787,2.4323,5.86301,0.0322986,0.0548999,-0.0601685,0
2024-12-13 15:32:19.152,-0.82343,2.45145,5.86062,0.010308,0.058565,-0.0589468,0
2024-12-13 15:32:19.155,-0.813859,2.48973,5.86541,-0.0116825,0.0616192,-0.0577251,0
2024-12-13 15:32:19.157,-0.799502,2.51845,5.88694,-0.0355055,0.0671168,-0.0565034,0
2024-12-13 15:32:19.160,-0.773181,2.52084,5.89921,-0.0587177,0.0713928,-0.0577251,0
2024-12-13 15:32:19.162,-0.761217,2.5331,5.91117,-0.0831516,0.0762796,-0.0589468,0
2024-12-13 15:32:19.164,-0.744467,2.56182,5.94467,-0.106975,0.0836097,-0.0607793,0
2024-12-13 15:32:19.167,-0.71336,2.57857,5.98295,-0.130798,0.0933833,-0.0613902,0
2024-12-13 15:32:19.169,-0.706182,2.57857,6.04038,-0.154621,0.101324,-0.0638335,0
2024-12-13 15:32:19.171,-0.715753,2.57378,6.12174,-0.178444,0.110487,-0.0644444,0
2024-12-13 15:32:19.174,-0.706182,2.57857,6.22224,-0.202267,0.120871,-0.0668878,0
2024-12-13 15:32:19.176,-0.703789,2.59053,6.32752,-0.219981,0.131256,-0.0681095,0
2024-12-13 15:32:19.178,-0.694218,2.59771,6.43041,-0.245026,0.140419,-0.0681095,0
2024-12-13 15:32:19.181,-0.667897,2.59053,6.55274,-0.263352,0.153246,-0.0717745,0
2024-12-13 15:32:19.183,-0.663111,2.58096,6.67717,-0.281066,0.162409,-0.0717745,0
2024-12-13 15:32:19.185,-0.672682,2.57617,6.79681,-0.296948,0.17035,-0.0729962,0
2024-12-13 15:32:19.188,-0.684646,2.57139,6.90928,-0.311608,0.179513,-0.0754396,0
2024-12-13 15:32:19.190,-0.701396,2.5666,7.02443,-0.326269,0.183178,-0.0766613,0
2024-12-13 15:32:19.192,-0.725324,2.57378,7.14407,-0.342762,0.18501,-0.0748288,0
2024-12-13 15:32:19.195,-0.742074,2.57617,7.25175,-0.357422,0.187454,-0.0754396,0
2024-12-13 15:32:19.198,-0.76361,2.57617,7.35943,-0.381856,0.186232,-0.0772722,0
2024-12-13 15:32:19.200,-0.76361,2.58574,7.47667,-0.381856,0.186232,-0.0772722,0
2024-12-13 15:32:19.202,-0.76361,2.62164,7.58465,-0.39224,0.183178,-0.0766613,0
2024-12-13 15:32:19.204,-0.768395,2.65514,7.69472,-0.400181,0.17768,-0.0784939,0
2024-12-13 15:32:19.207,-0.756431,2.67906,7.8024,-0.409955,0.172793,-0.0791047,0
2024-12-13 15:32:19.209,-0.768395,2.70778,7.89332,-0.415452,0.169128,-0.0784939,0
2024-12-13 15:32:19.211,-0.797109,2.73888,7.99382,-0.420339,0.16302,-0.0784939,0
2024-12-13 15:32:19.214,-0.828216,2.76521,8.09671,-0.42828,0.156301,-0.0797156,0
2024-12-13 15:32:19.216,-0.864407,2.77717,8.1999,-0.42828,0.156301,-0.0797156,0
2024-12-13 15:32:19.218,-0.88355,2.80828,8.29083,-0.429502,0.14836,-0.0784939,0
2024-12-13 15:32:19.221,-0.9003,2.81785,8.3674,-0.429502,0.141029,-0.0772722,0
2024-12-13 15:32:19.223,-0.919442,2.81785,8.44158,-0.427059,0.136753,-0.0772722,0
2024-12-13 15:32:19.225,-0.933799,2.82742,8.49661,-0.428891,0.131256,-0.0784939,0
2024-12-13 15:32:19.228,-0.950549,2.81545,8.53729,-0.427669,0.126369,-0.0791047,0
2024-12-13 15:32:19.230,-0.962513,2.79392,8.57558,-0.423394,0.121482,-0.077883,0
2024-12-13 15:32:19.233,-0.969691,2.79631,8.63301,-0.422172,0.11293,-0.0784939,0
2024-12-13 15:32:19.235,-0.981655,2.79153,8.67847,-0.424004,0.104379,-0.0766613,0
2024-12-13 15:32:19.237,-0.996012,2.77238,8.72423,-0.422172,0.0921616,-0.0754396,0
2024-12-13 15:32:19.240,-1.01276,2.76999,8.78884,-0.419728,0.0799446,-0.0760505,0
2024-12-13 15:32:19.242,-1.02233,2.77478,8.84148,-0.422172,0.0707819,-0.0766613,0
2024-12-13 15:32:19.244,-1.01276,2.77478,8.9013,-0.419728,0.0542891,-0.0748288,0
2024-12-13 15:32:19.247,-1.01276,2.77238,8.96112,-0.417285,0.0439046,-0.0742179,0
2024-12-13 15:32:19.249,-1.01755,2.78196,9.00658,-0.416674,0.0298552,-0.0717745,0
2024-12-13 15:32:19.251,-1.01994,2.82503,9.04726,-0.41362,0.0182491,-0.0693312,0
2024-12-13 15:32:19.254,-0.998405,2.84417,9.07358,-0.41362,0.00603212,-0.0668878,0
2024-12-13 15:32:19.256,-0.974477,2.85613,9.09033,-0.411787,-0.00557398,-0.0681095,0
2024-12-13 15:32:19.258,-0.962513,2.88006,9.1358,-0.408733,-0.0159584,-0.0650552,0
2024-12-13 15:32:19.261,-0.94337,2.88724,9.17887,-0.409955,-0.0232886,-0.0650552,0
2024-12-13 15:32:19.263,-0.912264,2.91356,9.19083,-0.408733,-0.0330621,-0.0638335,0
2024-12-13 15:32:19.265,-0.881157,2.9351,9.20519,-0.409344,-0.0391706,-0.0632227,0
2024-12-13 15:32:19.268,-0.857229,2.92792,9.20997,-0.408733,-0.0477224,-0.0632227,0
2024-12-13 15:32:19.270,-0.825823,2.92313,9.20997,-0.408122,-0.0526092,-0.0656661,0
2024-12-13 15:32:19.273,-0.818644,2.9327,9.23869,-0.408733,-0.0581068,-0.0687203,0
2024-12-13 15:32:19.275,-0.835394,2.95185,9.28445,-0.409344,-0.0623828,-0.0674986,0
2024-12-13 15:32:19.277,-0.845265,2.97817,9.32992,-0.409344,-0.0623828,-0.0674986,0
2024-12-13 15:32:19.281,-0.830609,2.99731,9.36102,-0.401403,-0.057496,-0.0632227,0
2024-12-13 15:32:19.282,-0.821037,3.02124,9.39452,-0.401403,-0.057496,-0.0632227,0
2024-12-13 15:32:19.284,-0.813859,3.05952,9.41845,-0.401403,-0.0513875,-0.0626118,0
2024-12-13 15:32:19.287,-0.76361,3.19143,9.42323,-0.39896,-0.0489441,-0.0607793,0
2024-12-13 15:32:19.289,-0.718146,3.32782,9.46391,-0.394073,-0.0446682,-0.0583359,0
2024-12-13 15:32:19.291,-0.744467,3.32782,9.47109,-0.394684,-0.0348946,-0.0528383,0
2024-12-13 15:32:19.294,-0.804287,3.27757,9.45913,-0.39224,-0.0232886,-0.0485624,0
2024-12-13 15:32:19.296,-0.830609,3.21536,9.47348,-0.389186,-0.00679568,-0.0436756,0
2024-12-13 15:32:19.298,-0.842872,3.134,9.49981,-0.38491,0.0127514,-0.0363454,0
2024-12-13 15:32:19.301,-0.837787,3.07388,9.54766,-0.380634,0.0329094,-0.0271827,0
2024-12-13 15:32:19.303,-0.830609,3.04038,9.58834,-0.378191,0.0536782,-0.0216851,0
2024-12-13 15:32:19.306,-0.825823,3.02602,9.6338,-0.370861,0.0793338,-0.0131332,0
2024-12-13 15:32:19.308,-0.828216,3.02842,9.66491,-0.36292,0.101935,-0.00702474,0
2024-12-13 15:32:19.310,-0.842872,3.06192,9.66491,-0.351924,0.12698,-0.000305424,0
2024-12-13 15:32:19.313,-0.864407,3.11964,9.65534,-0.343373,0.150192,0.00580305,0
2024-12-13 15:32:19.315,-0.897907,3.17946,9.60987,-0.336042,0.170961,0.0113007,0
2024-12-13 15:32:19.317,-0.936192,3.22732,9.58834,-0.328712,0.19173,0.01802,0
2024-12-13 15:32:19.320,-0.974477,3.26321,9.61466,-0.321382,0.210055,0.0235176,0
2024-12-13 15:32:19.322,-1.01037,3.29193,9.61705,-0.31283,0.221661,0.0277936,0
2024-12-13 15:32:19.324,-1.04148,3.30628,9.60509,-0.304278,0.236322,0.0357346,0
2024-12-13 15:32:19.327,-1.07976,3.3326,9.58595,-0.294505,0.251593,0.0412322,0
2024-12-13 15:32:19.329,-1.12044,3.37328,9.56441,-0.286564,0.261366,0.0455081,0
2024-12-13 15:32:19.331,-1.16351,3.39482,9.56202,-0.277401,0.269918,0.0516166,0
2024-12-13 15:32:19.334,-1.22094,3.40678,9.5692,-0.26946,0.274805,0.0552817,0
2024-12-13 15:32:19.336,-1.25683,3.42832,9.5668,-0.264573,0.279692,0.0607793,0
2024-12-13 15:32:19.338,-1.27597,3.45942,9.55963,-0.258465,0.285189,0.0650552,0
2024-12-13 15:32:19.341,-1.30947,3.49532,9.53091,-0.254189,0.288244,0.0717745,0
2024-12-13 15:32:19.343,-1.33579,3.52642,9.51895,-0.254189,0.285189,0.0748288,0
2024-12-13 15:32:19.346,-1.36211,3.52642,9.5357,-0.251135,0.285189,0.0809373,0
2024-12-13 15:32:19.348,-1.38844,3.52164,9.54527,-0.249302,0.282746,0.085824,0
2024-12-13 15:32:19.350,-1.41984,3.5336,9.56202,-0.250524,0.275416,0.0882674,0
2024-12-13 15:32:19.353,-1.46291,3.53599,9.60748,-0.24808,0.267475,0.0913217,0
2024-12-13 15:32:19.355,-1.51795,3.55035,9.69123,-0.246248,0.257701,0.0962084,0
2024-12-13 15:32:19.357,-1.57059,3.5671,9.77019,-0.243194,0.245484,0.0986518,0
2024-12-13 15:32:19.360,-1.59691,3.58385,9.81326,-0.237696,0.231435,0.102928,0
2024-12-13 15:32:19.362,-1.62084,3.6006,9.84706,-0.232198,0.219829,0.107815,0
2024-12-13 15:32:19.364,-1.6663,3.61496,9.9021,-0.227922,0.203947,0.11148,0
2024-12-13 15:32:19.367,-1.6998,3.64367,9.94517,-0.224257,0.187454,0.114534,0
2024-12-13 15:32:19.369,-1.72373,3.66072,9.9667,-0.219981,0.176459,0.116977,0
2024-12-13 15:32:19.371,-1.74527,3.65833,9.98585,-0.214484,0.164852,0.120642,0
2024-12-13 15:32:19.374,-1.75484,3.65593,9.99781,-0.210819,0.152025,0.121253,0
2024-12-13 15:32:19.376,-1.76919,3.66072,9.99542,-0.205932,0.142862,0.121864,0
2024-12-13 15:32:19.379,-1.76919,3.66311,10.0026,-0.201045,0.133699,0.121864,0
2024-12-13 15:32:19.381,-1.44138,3.44507,10.2491,-0.200434,0.120871,0.120031,0
2024-12-13 15:32:19.383,-1.19701,3.23928,10.5078,-0.188217,0.0860531,0.103539,0
2024-12-13 15:32:19.386,-1.42702,3.32782,10.3352,-0.180887,0.0720036,0.0888783,0
2024-12-13 15:32:19.388,-1.5658,3.44028,10.1773,-0.17539,0.0829989,0.0815481,0
2024-12-13 15:32:19.390,-1.55862,3.51685,10.3184,-0.167449,0.086664,0.0723854,0
2024-12-13 15:32:19.393,-1.65194,3.62453,10.4336,-0.157675,0.0811663,0.0650552,0
2024-12-13 15:32:19.395,-1.80269,3.766,10.436,-0.155842,0.0793338,0.062001,0
2024-12-13 15:32:19.397,-1.91755,3.89761,10.4575,-0.147901,0.0799446,0.0601685,0
2024-12-13 15:32:19.400,-1.98006,3.99093,10.5485,-0.146069,0.0787229,0.0601685,0
2024-12-13 15:32:19.402,-2.01835,4.09382,10.6466,-0.146069,0.0726145,0.0613902,0
2024-12-13 15:32:19.404,-2.05663,4.19193,10.7447,-0.14668,0.0658951,0.0656661,0
2024-12-13 15:32:19.409,-2.10688,4.32622,11.0034,-0.151566,0.0530674,0.0723854,0
2024-12-13 15:32:19.409,-2.10688,4.32622,11.0034,-0.151566,0.0530674,0.0723854,0
2024-12-13 15:32:19.421,-2.00399,4.38844,11.7,-0.18272,0.0231358,0.0864349,0
2024-12-13 15:32:19.426,-1.77637,4.32144,12.0999,-0.18272,0.0231358,0.0864349,0
2024-12-13 15:32:19.428,-1.67348,4.28555,12.2961,-0.204099,0.000534491,0.0803264,0
2024-12-13 15:32:19.431,-1.57059,4.25683,12.478,-0.207764,-0.00984991,0.0736071,0
2024-12-13 15:32:19.433,-1.48445,4.2329,12.6506,-0.208375,-0.0129041,0.0638335,0
2024-12-13 15:32:19.433,-1.48445,4.2329,12.6506,-0.208375,-0.0129041,0.0638335,0
2024-12-13 15:32:19.433,-1.48445,4.2329,12.6506,-0.208375,-0.0129041,0.0638335,0
2024-12-13 15:32:19.433,-1.48445,4.2329,12.6506,-0.208375,-0.0129041,0.0638335,0
2024-12-13 15:32:19.434,-1.48445,4.2329,12.6506,-0.207154,-0.0147367,0.0522274,0
2024-12-13 15:32:19.435,-1.40548,4.20628,12.8468,-0.207154,-0.0147367,0.0522274,0
2024-12-13 15:32:19.435,-1.40548,4.20628,12.8468,-0.207154,-0.0147367,0.0522274,0
2024-12-13 15:32:19.437,-1.33101,4.18475,13.043,-0.208375,-0.0208452,0.0400105,0
2024-12-13 15:32:19.440,-1.28794,4.19432,13.2323,-0.199823,-0.0238994,0.025961,0
2024-12-13 15:32:19.442,-1.2664,4.21376,13.4309,-0.193104,-0.0287862,0.0125224,0
2024-12-13 15:32:19.444,-1.25683,4.24247,13.6295,-0.184552,-0.0367272,-0.000916271,0
2024-12-13 15:32:19.447,-1.26162,4.2688,13.759,-0.168059,-0.0452791,-0.0143549,0
2024-12-13 15:32:19.449,-1.28315,4.31187,13.8332,-0.152788,-0.0501658,-0.0271827,0
2024-12-13 15:32:19.452,-1.30947,4.35254,13.9313,-0.13996,-0.057496,-0.0393996,0
2024-12-13 15:32:19.454,-1.35015,4.36212,14.0103,-0.119802,-0.0672696,-0.0473407,0
2024-12-13 15:32:19.456,-1.37886,4.37647,14.0557,-0.0990336,-0.0770431,-0.0601685,0
2024-12-13 15:32:19.459,-1.41027,4.40758,14.0892,-0.0788757,-0.0923143,-0.069942,0
2024-12-13 15:32:19.461,-1.4342,4.43151,14.1036,-0.0513875,-0.105142,-0.077883,0
2024-12-13 15:32:19.463,-1.45095,4.45304,14.0964,-0.0287862,-0.124078,-0.0839915,0
2024-12-13 15:32:19.466,-1.45334,4.47936,14.0845,-0.00435229,-0.13996,-0.0931542,0
2024-12-13 15:32:19.468,-1.43181,4.51286,14.0653,0.0194708,-0.156453,-0.101095,0
2024-12-13 15:32:19.470,-1.40279,4.55115,14.0318,0.0451263,-0.171114,-0.107204,0
2024-12-13 15:32:19.473,-1.36451,4.59183,13.9792,0.0689494,-0.187606,-0.116366,0
2024-12-13 15:32:19.475,-1.31426,4.63011,13.8978,0.0958267,-0.200434,-0.12614,0
2024-12-13 15:32:19.477,-1.27358,4.66122,13.8093,0.115985,-0.21143,-0.134692,0
2024-12-13 15:32:19.480,-1.24726,4.71625,13.7157,0.139808,-0.224257,-0.145687,0
2024-12-13 15:32:19.482,-1.23051,4.7665,13.6271,0.159966,-0.234031,-0.156071,0
2024-12-13 15:32:19.485,-1.2329,4.81227,13.5218,0.183178,-0.24075,-0.164012,0
2024-12-13 15:32:19.487,-1.22333,4.85773,13.4022,0.201503,-0.248691,-0.172564,0
2024-12-13 15:32:19.489,-1.20897,4.88405,13.2897,0.218607,-0.254189,-0.181116,0
2024-12-13 15:32:19.492,-1.21854,4.90559,13.1868,0.228991,-0.261519,-0.187225,0
2024-12-13 15:32:19.494,-1.20897,4.94148,13.1028,0.240597,-0.267017,-0.192722,0
2024-12-13 15:32:19.496,-1.1994,4.97737,13.0669,0.250982,-0.270682,-0.19822,0
2024-12-13 15:32:19.499,-1.2018,4.99173,13.0286,0.258312,-0.278623,-0.203718,0
2024-12-13 15:32:19.501,-1.17308,5.01566,12.9784,0.263199,-0.280455,-0.20555,0
2024-12-13 15:32:19.503,-1.0008,4.94148,13.0238,0.269918,-0.282899,-0.211659,0
2024-12-13 15:32:19.506,-0.825823,4.8338,13.1195,0.274194,-0.293283,-0.222043,0
2024-12-13 15:32:19.508,-0.88355,4.87687,13.0071,0.277248,-0.293894,-0.231206,0
2024-12-13 15:32:19.510,-0.933799,4.96301,12.842,0.276637,-0.282288,-0.237925,0
2024-12-13 15:32:19.513,-0.782752,4.95823,12.9449,0.270529,-0.274958,-0.242201,0
2024-12-13 15:32:19.515,-0.706182,4.97498,13.0597,0.266253,-0.274347,-0.250753,0
2024-12-13 15:32:19.517,-0.751645,5.05394,13.0119,0.262588,-0.267627,-0.254418,0
2024-12-13 15:32:19.520,-0.706182,5.09701,13.0214,0.257701,-0.255411,-0.259305,0
2024-12-13 15:32:19.522,-0.677468,5.13769,13.0789,0.246706,-0.241361,-0.263581,0
2024-12-13 15:32:19.525,-0.677468,5.17837,13.1004,0.237543,-0.227312,-0.264191,0
2024-12-13 15:32:19.527,-0.612862,5.22622,13.1674,0.226548,-0.21143,-0.264191,0
2024-12-13 15:32:19.529,-0.505185,5.24537,13.2132,0.212498,-0.190661,-0.267857,0
2024-12-13 15:32:19.532,-0.414257,5.21665,13.2993,0.195395,-0.158897,-0.275187,0
2024-12-13 15:32:19.534,-0.375972,5.1688,13.4979,0.178902,-0.136906,-0.283739,0
2024-12-13 15:32:19.536,-0.378365,5.1018,13.7228,0.170961,-0.121635,-0.286182,0
2024-12-13 15:32:19.539,-0.972084,4.83859,14.1084,0.160576,-0.112472,-0.281906,0
2024-12-13 15:32:19.541,-1.30469,4.52961,14.3336,0.156301,-0.101477,-0.255029,0
2024-12-13 15:32:19.543,-0.76361,4.42672,14.348,0.147138,-0.127743,-0.234871,0
2024-12-13 15:32:19.546,-0.440578,4.38126,14.4628,0.132477,-0.171114,-0.225097,0
2024-12-13 15:32:19.548,-0.359223,4.30947,14.6519,0.11965,-0.195547,-0.215324,0
2024-12-13 15:32:19.550,-0.265603,4.21615,14.9465,0.103768,-0.213262,-0.209215,0
2024-12-13 15:32:19.553,-0.157926,4.12253,15.2264,0.0952158,-0.221203,-0.204939,0
2024-12-13 15:32:19.556,0.00239282,4.05554,15.4155,0.0713928,-0.21876,-0.21288,0
2024-12-13 15:32:19.558,0.179462,3.99571,15.5785,0.0713928,-0.21876,-0.21288,0
2024-12-13 15:32:19.560,0.258425,3.9,15.7747,0.0603975,-0.214484,-0.222043,0
2024-12-13 15:32:19.562,0.342473,3.77318,15.9661,0.0518457,-0.208375,-0.229373,0
2024-12-13 15:32:19.565,0.464507,3.64876,16.1363,0.0524565,-0.204099,-0.239147,0
2024-12-13 15:32:19.567,0.524327,3.5001,16.2631,0.050624,-0.197991,-0.250142,0
2024-12-13 15:32:19.569,0.54347,3.33021,16.3301,0.0530674,-0.188217,-0.259916,0
2024-12-13 15:32:19.572,0.545863,3.13639,16.3636,0.0536782,-0.177222,-0.269078,3
2024-12-13 15:32:19.574,0.56022,2.9351,16.3588,0.0603975,-0.167449,-0.275798,0
2024-12-13 15:32:19.576,0.584148,2.76521,16.2823,0.0646735,-0.160729,-0.282517,0
2024-12-13 15:32:19.579,0.565005,2.60249,16.177,0.0658951,-0.151566,-0.289847,0
2024-12-13 15:32:19.581,0.514756,2.44427,16.0238,0.0726145,-0.140571,-0.29168,0
2024-12-13 15:32:19.583,0.495613,2.28873,15.8201,0.0811663,-0.128354,-0.29229,0
2024-12-13 15:32:19.586,0.519542,2.15474,15.5833,0.0909399,-0.114916,-0.292901,0
2024-12-13 15:32:19.590,0.533899,1.88883,14.9752,0.109265,-0.0764323,-0.286182,0
2024-12-13 15:32:19.590,0.533899,1.88883,14.9752,0.109265,-0.0764323,-0.286182,0
2024-12-13 15:32:19.593,0.548256,1.77398,14.6351,0.124536,-0.0489441,-0.283128,0
2024-12-13 15:32:19.595,0.584148,1.64955,14.2807,0.136143,-0.0184018,-0.278241,0
2024-12-13 15:32:19.598,0.600898,1.5323,13.9313,0.14897,0.0194708,-0.272132,0
2024-12-13 15:32:19.600,0.60329,1.41984,13.5864,0.166074,0.058565,-0.269078,0
2024-12-13 15:32:19.602,0.615255,1.34536,13.2538,0.183789,0.0976592,-0.266635,0
2024-12-13 15:32:19.605,0.627219,1.30229,12.9209,0.205168,0.136753,-0.267857,0
2024-12-13 15:32:19.607,0.643968,1.24008,12.5976,0.225326,0.174015,-0.267857,0
2024-12-13 15:32:19.609,0.761217,1.23529,12.2985,0.249149,0.208223,-0.2703,0
2024-12-13 15:32:19.612,0.945763,1.39561,12.2722,0.281524,0.226548,-0.280073,0
2024-12-13 15:32:19.614,0.984048,1.3669,12.0712,0.329781,0.2351,-0.295956,0
2024-12-13 15:32:19.616,0.948156,1.15872,11.5708,0.369563,0.265642,-0.307562,0
2024-12-13 15:32:19.619,0.940978,1.05823,11.1685,0.409879,0.30046,-0.321,0
2024-12-13 15:32:19.621,0.878764,0.97687,10.7734,0.444697,0.316343,-0.332606,0
2024-12-13 15:32:19.623,0.751645,0.876371,10.3929,0.483791,0.318175,-0.343602,0
2024-12-13 15:32:19.626,0.615255,0.780359,9.91885,0.517998,0.321229,-0.350932,0
2024-12-13 15:32:19.628,0.488435,0.744467,9.44716,0.545487,0.323673,-0.357651,0
2024-12-13 15:32:19.631,0.385544,0.785145,9.14537,0.566866,0.31451,-0.360705,0
2024-12-13 15:32:19.633,0.289831,0.835394,8.80319,0.591911,0.293741,-0.36437,0
2024-12-13 15:32:19.635,0.155533,0.902692,8.35065,0.609626,0.270529,-0.36437,0
2024-12-13 15:32:19.638,0.0741775,0.972084,7.95075,0.621232,0.2351,-0.365592,0
2024-12-13 15:32:19.640,0.112463,1.04148,7.68993,0.628562,0.196006,-0.364981,0
2024-12-13 15:32:19.642,0.181855,1.11565,7.49342,0.636503,0.146527,-0.366814,0
2024-12-13 15:32:19.645,0.217747,1.18026,7.23261,0.642,0.101935,-0.372922,0
2024-12-13 15:32:19.647,0.270389,1.2329,6.99302,0.643222,0.0616192,-0.37842,0
2024-12-13 15:32:19.649,0.375972,1.29512,6.88295,0.644444,0.0231358,-0.383918,0
2024-12-13 15:32:19.652,0.476471,1.35015,6.83031,0.64872,-0.0238994,-0.394302,0
2024-12-13 15:32:19.654,0.533899,1.35733,6.71067,0.652996,-0.0666587,-0.403465,0
2024-12-13 15:32:19.656,0.572184,1.33579,6.60539,0.655439,-0.102699,-0.412016,0
2024-12-13 15:32:19.659,0.612862,1.34297,6.54796,0.654217,-0.137517,-0.420568,0
2024-12-13 15:32:19.661,0.63679,1.40788,6.55514,0.658493,-0.179055,-0.430953,0
2024-12-13 15:32:19.663,0.598505,1.44616,6.47857,0.66338,-0.214484,-0.435229,0
2024-12-13 15:32:19.666,0.553041,1.4653,6.33948,0.658493,-0.242583,-0.441337,0
2024-12-13 15:32:19.668,0.533899,1.49163,6.26291,0.653607,-0.271293,-0.441337,0
2024-12-13 15:32:19.671,0.52672,1.52513,6.19831,0.649331,-0.295726,-0.439505,0
2024-12-13 15:32:19.673,0.533899,1.59212,6.18874,0.642,-0.321993,-0.43584,0
2024-12-13 15:32:19.675,0.519542,1.64955,6.17917,0.633449,-0.34887,-0.42912,0
2024-12-13 15:32:19.678,0.505185,1.68544,6.15284,0.623675,-0.367806,-0.419957,0
2024-12-13 15:32:19.680,0.521934,1.73091,6.16242,0.615734,-0.384299,-0.408351,0
2024-12-13 15:32:19.682,0.538684,1.76919,6.17677,0.608404,-0.39896,-0.397967,0
2024-12-13 15:32:19.685,0.569791,1.80748,6.20788,0.602295,-0.411177,-0.38575,0
2024-12-13 15:32:19.687,0.617647,1.85294,6.24616,0.600463,-0.419728,-0.372922,0
2024-12-13 15:32:19.689,0.663111,1.89362,6.2677,0.592522,-0.42828,-0.358262,0
2024-12-13 15:32:19.692,0.694218,1.91755,6.29163,0.590078,-0.430724,-0.345434,0
2024-12-13 15:32:19.694,0.720539,1.93669,6.31316,0.585802,-0.430113,-0.332606,0
2024-12-13 15:32:19.696,0.749253,1.97049,6.31556,0.580305,-0.428891,-0.316724,0
2024-12-13 15:32:19.699,0.777966,1.99681,6.29641,0.579694,-0.422783,-0.300842,0
2024-12-13 15:32:19.701,0.787538,2.01835,6.2677,0.575418,-0.416674,-0.286182,0
2024-12-13 15:32:19.704,0.789931,2.03749,6.20549,0.570531,-0.408733,-0.271522,0
2024-12-13 15:32:19.706,0.785145,2.04467,6.13849,0.561979,-0.404457,-0.25564,0
2024-12-13 15:32:19.708,0.773181,2.05663,6.0691,0.554649,-0.394684,-0.24159,0
2024-12-13 15:32:19.711,0.801895,2.04945,5.98535,0.541211,-0.389186,-0.22693,0
2024-12-13 15:32:19.713,0.854836,2.01356,5.9351,0.522885,-0.385521,-0.215324,0
2024-12-13 15:32:19.715,0.777966,2.02792,5.83191,0.503338,-0.383688,-0.203107,0
2024-12-13 15:32:19.718,0.598505,2.10927,5.68355,0.48318,-0.37025,-0.19089,0
2024-12-13 15:32:19.720,0.4669,2.20259,5.61416,0.459357,-0.359255,-0.174397,0
2024-12-13 15:32:19.722,0.402293,2.25524,5.62612,0.433702,-0.350703,-0.154239,0
2024-12-13 15:32:19.725,0.337687,2.27677,5.63809,0.40377,-0.342762,-0.137135,0
2024-12-13 15:32:19.727,0.234497,2.3007,5.60937,0.368952,-0.337264,-0.120031,0
2024-12-13 15:32:19.729,0.138784,2.32223,5.58784,0.338333,-0.328101,-0.101095,0
2024-12-13 15:32:19.732,0.0765703,2.31745,5.58784,0.307791,-0.319549,-0.0797156,0
2024-12-13 15:32:19.734,0.0358923,2.31027,5.60459,0.27114,-0.310998,-0.062001,0
2024-12-13 15:32:19.736,0.00957129,2.30309,5.62852,0.236322,-0.303057,-0.0442864,0
2024-12-13 15:32:19.739,-0.0119641,2.27916,5.65005,0.203947,-0.295116,-0.0271827,0
2024-12-13 15:32:19.741,-0.0358923,2.25524,5.69791,0.171572,-0.285953,-0.0125224,0
2024-12-13 15:32:19.744,-0.040678,2.22652,5.74816,0.137975,-0.274347,0.00335966,0
2024-12-13 15:32:19.746,-0.0358923,2.20499,5.8008,0.108654,-0.265184,0.0167983,0
2024-12-13 15:32:19.748,-0.0358923,2.20499,5.88455,0.0762796,-0.2548,0.0290152,0
2024-12-13 15:32:19.751,-0.0382852,2.21216,5.9686,0.0481806,-0.245637,0.0387888,0
2024-12-13 15:32:19.753,-0.0382852,2.21216,6.04756,0.022525,-0.240139,0.0467298,0
2024-12-13 15:32:19.755,-0.0574277,2.20977,6.15524,0.00114534,-0.23342,0.0571142,0
2024-12-13 15:32:19.758,-0.0957129,2.2002,6.28206,-0.0196235,-0.227312,0.0638335,0
2024-12-13 15:32:19.760,-0.129212,2.18345,6.38495,-0.0391706,-0.224257,0.0729962,0
2024-12-13 15:32:19.762,-0.167498,2.16909,6.50489,-0.0550526,-0.219981,0.0791047,0
2024-12-13 15:32:19.765,-0.193819,2.15952,6.63649,-0.0678804,-0.216316,0.0882674,0
2024-12-13 15:32:19.767,-0.208176,2.14517,6.74417,-0.0758214,-0.215095,0.0955976,0
2024-12-13 15:32:19.769,-0.229711,2.13559,6.8351,-0.0819299,-0.214484,0.101706,0
2024-12-13 15:32:19.772,-0.239282,2.11884,6.92842,-0.085595,-0.213262,0.105982,0
2024-12-13 15:32:19.774,-0.239282,2.10209,7.0026,-0.0862058,-0.213262,0.110258,0
2024-12-13 15:32:19.777,-0.246461,2.10209,7.0675,-0.0843733,-0.21876,0.114534,0
2024-12-13 15:32:19.779,-0.256032,2.08056,7.13689,-0.0843733,-0.223036,0.116366,0
2024-12-13 15:32:19.781,-0.258425,2.06142,7.20389,-0.0782648,-0.228533,0.119421,0
2024-12-13 15:32:19.784,-0.248854,2.06381,7.23978,-0.0721563,-0.234642,0.120642,0
2024-12-13 15:32:19.788,-0.248854,2.0662,7.25893,-0.0611611,-0.253578,0.120031,0
2024-12-13 15:32:19.791,-0.248854,2.0662,7.25893,-0.0544418,-0.26213,0.120642,0
2024-12-13 15:32:19.791,-0.241675,2.07817,7.26611,-0.0544418,-0.26213,0.120642,0
2024-12-13 15:32:19.793,-0.258425,2.08535,7.24696,-0.0501658,-0.276179,0.119421,0
2024-12-13 15:32:19.795,-0.265603,2.09252,7.22543,-0.0440574,-0.287785,0.116366,0
2024-12-13 15:32:19.798,-0.258425,2.11167,7.20628,-0.0367272,-0.301224,0.113312,0
2024-12-13 15:32:19.800,-0.260818,2.12363,7.19193,-0.0300079,-0.313441,0.11148,0
2024-12-13 15:32:19.802,-0.272782,2.12363,7.15364,-0.0220669,-0.325658,0.107815,0
2024-12-13 15:32:19.805,-0.275175,2.12842,7.11296,-0.0196235,-0.339707,0.104149,0
2024-12-13 15:32:19.807,-0.258425,2.12602,7.06272,-0.0159584,-0.350092,0.0986518,0
2024-12-13 15:32:19.810,-0.251246,2.1332,7.00738,-0.0129041,-0.361087,0.0919325,0
2024-12-13 15:32:19.812,-0.234497,2.13799,6.9691,-0.0104608,-0.370861,0.0864349,0
2024-12-13 15:32:19.814,-0.20339,2.14756,6.92124,-0.0104608,-0.37758,0.0815481,0
2024-12-13 15:32:19.817,-0.18664,2.16192,6.8686,-0.00984991,-0.384299,0.0742179,0
2024-12-13 15:32:19.819,-0.167498,2.16431,6.81356,-0.0116825,-0.389797,0.0662769,0
2024-12-13 15:32:19.824,-0.12682,2.16431,6.72742,-0.0177909,-0.391629,0.0497841,0
2024-12-13 15:32:19.824,-0.12682,2.16431,6.72742,-0.0177909,-0.391629,0.0497841,0
2024-12-13 15:32:19.826,-0.0981057,2.17388,6.67717,-0.0245102,-0.390408,0.0406213,0
2024-12-13 15:32:19.828,-0.0693919,2.18584,6.62692,-0.029397,-0.387354,0.0314586,0
2024-12-13 15:32:19.831,-0.0430708,2.19302,6.59582,-0.0348946,-0.382467,0.0204634,0
2024-12-13 15:32:19.833,-0.0239282,2.19781,6.57667,-0.0428357,-0.376358,0.00946813,0
2024-12-13 15:32:19.835,0.00239282,2.21216,6.55753,-0.0513875,-0.365363,-0.000305424,0
2024-12-13 15:32:19.838,0.0119641,2.22413,6.55992,-0.0581068,-0.360476,-0.010079,0
2024-12-13 15:32:19.840,0.0167498,2.24566,6.55274,-0.0684913,-0.350092,-0.0216851,0
2024-12-13 15:32:19.842,0.0167498,2.25284,6.52164,-0.0752106,-0.336653,-0.0320695,0
2024-12-13 15:32:19.845,0.00957129,2.22413,6.49771,-0.0843733,-0.324436,-0.0424539,0
2024-12-13 15:32:19.847,-0.00239282,2.22413,6.49771,-0.0965902,-0.312219,-0.0528383,0
2024-12-13 15:32:19.851,-0.0167498,2.24806,6.49771,-0.111861,-0.282288,-0.0693312,0
2024-12-13 15:32:19.852,-0.0358923,2.25524,6.49532,-0.111861,-0.282288,-0.0693312,0
2024-12-13 15:32:19.854,-0.0646062,2.26241,6.48814,-0.119192,-0.266406,-0.0766613,0
2024-12-13 15:32:19.857,-0.0837488,2.27438,6.49292,-0.128965,-0.251135,-0.0833807,0
2024-12-13 15:32:19.859,-0.105284,2.28156,6.51925,-0.134463,-0.235863,-0.0894891,0
2024-12-13 15:32:19.861,-0.136391,2.29591,6.5336,-0.141793,-0.223036,-0.0943759,0
2024-12-13 15:32:19.864,-0.174676,2.31745,6.54557,-0.149123,-0.208986,-0.0968193,0
2024-12-13 15:32:19.866,-0.193819,2.33181,6.55992,-0.155842,-0.198602,-0.0992627,0
2024-12-13 15:32:19.868,-0.215354,2.35813,6.57667,-0.164394,-0.187606,-0.101095,0
2024-12-13 15:32:19.871,-0.248854,2.39641,6.59582,-0.171114,-0.182109,-0.103539,0
2024-12-13 15:32:19.873,-0.265603,2.42273,6.61257,-0.178444,-0.174779,-0.104149,0
2024-12-13 15:32:19.875,-0.270389,2.45145,6.62931,-0.184552,-0.170503,-0.102928,0
2024-12-13 15:32:19.878,-0.292223,2.49212,6.64128,-0.193715,-0.166227,-0.101706,0
2024-12-13 15:32:19.883,-0.299402,2.51366,6.65803,-0.207154,-0.159507,-0.0949868,0
2024-12-13 15:32:19.883,-0.301795,2.54507,6.68196,-0.207154,-0.159507,-0.0949868,0
2024-12-13 15:32:19.885,-0.330509,2.57857,6.69871,-0.214484,-0.155232,-0.0913217,0
2024-12-13 15:32:19.887,-0.342473,2.59771,6.71546,-0.21876,-0.152177,-0.0870457,0
2024-12-13 15:32:19.890,-0.34008,2.62164,6.74896,-0.223646,-0.146069,-0.0833807,0
2024-12-13 15:32:19.892,-0.34008,2.64796,6.79681,-0.226701,-0.13935,-0.077883,0
2024-12-13 15:32:19.894,-0.318545,2.67428,6.8351,-0.229144,-0.128354,-0.0723854,0
2024-12-13 15:32:19.897,-0.289831,2.68864,6.87338,-0.231587,-0.119802,-0.0662769,0
2024-12-13 15:32:19.899,-0.27996,2.71017,6.90449,-0.235253,-0.108807,-0.0638335,0
2024-12-13 15:32:19.901,-0.275175,2.75324,6.92842,-0.235253,-0.0990336,-0.0571142,0
2024-12-13 15:32:19.904,-0.272782,2.77956,6.95952,-0.237085,-0.0892601,-0.0534491,0
2024-12-13 15:32:19.906,-0.282652,2.80349,6.9691,-0.240139,-0.081319,-0.0503949,0
2024-12-13 15:32:19.911,-0.30658,2.84178,6.95474,-0.248691,-0.0703238,-0.0400105,0
2024-12-13 15:32:19.911,-0.335294,2.86331,6.94517,-0.248691,-0.0703238,-0.0400105,0
2024-12-13 15:32:19.913,-0.352044,2.89203,6.96192,-0.251135,-0.0660479,-0.0351237,0
2024-12-13 15:32:19.915,-0.371187,2.94227,6.98345,-0.257854,-0.0636045,-0.0314586,0
2024-12-13 15:32:19.920,-0.419043,3.0021,7.02682,-0.273125,-0.0562743,-0.0222959,0
2024-12-13 15:32:19.920,-0.419043,3.0021,7.02682,-0.273125,-0.0562743,-0.0222959,0
2024-12-13 15:32:19.923,-0.438186,3.0332,7.04118,-0.281677,-0.0519984,-0.0198525,0
2024-12-13 15:32:19.925,-0.457328,3.07388,7.07468,-0.291451,-0.0507767,-0.0155766,0
2024-12-13 15:32:19.927,-0.488435,3.10289,7.09382,-0.298781,-0.0458899,-0.0113007,0
2024-12-13 15:32:19.930,-0.502792,3.12921,7.11057,-0.310387,-0.0446682,-0.00702474,0
2024-12-13 15:32:19.932,-0.50997,3.15075,7.14886,-0.318328,-0.0428357,-0.00458135,0
2024-12-13 15:32:19.934,-0.519542,3.16271,7.19911,-0.330545,-0.0391706,-0.000916271,0
2024-12-13 15:32:19.937,-0.536291,3.16989,7.23261,-0.342762,-0.0391706,0.00213797,0
2024-12-13 15:32:19.939,-0.562612,3.17946,7.27089,-0.354979,-0.0379489,0.00458135,0
2024-12-13 15:32:19.944,-0.600898,3.20578,7.39771,-0.380023,-0.0379489,0.00885729,0
2024-12-13 15:32:19.944,-0.600898,3.20578,7.39771,-0.380023,-0.0379489,0.00885729,0
2024-12-13 15:32:19.946,-0.622433,3.23928,7.4671,-0.396516,-0.0379489,0.0137441,0
2024-12-13 15:32:19.948,-0.624826,3.26082,7.5676,-0.409955,-0.0385597,0.0167983,0
2024-12-13 15:32:19.951,-0.634397,3.27039,7.68754,-0.421561,-0.0403923,0.0174091,0
2024-12-13 15:32:19.953,-0.660718,3.29432,7.80718,-0.43561,-0.041614,0.0204634,0
2024-12-13 15:32:19.956,-0.672682,3.32543,7.92922,-0.448438,-0.0440574,0.0216851,0
2024-12-13 15:32:19.960,-0.663111,3.402,8.20469,-0.472872,-0.0507767,0.0247393,0
2024-12-13 15:32:19.960,-0.663111,3.402,8.20469,-0.472872,-0.0507767,0.0247393,0
2024-12-13 15:32:19.963,-0.663111,3.44028,8.32912,-0.480813,-0.0501658,0.0271827,0
2024-12-13 15:32:19.965,-0.670289,3.49053,8.44636,-0.491198,-0.0507767,0.0290152,0
2024-12-13 15:32:19.967,-0.670289,3.52642,8.54447,-0.502804,-0.0458899,0.033902,0
2024-12-13 15:32:19.970,-0.643968,3.55992,8.63301,-0.516242,-0.0361163,0.0351237,0
2024-12-13 15:32:19.972,-0.593719,3.58146,8.71945,-0.526016,-0.0287862,0.0332912,0
2024-12-13 15:32:19.974,-0.56022,3.58146,8.79602,-0.533346,-0.0165692,0.033902,0
2024-12-13 15:32:19.977,-0.541077,3.57428,8.90609,-0.544341,-0.00679568,0.0326803,0
2024-12-13 15:32:19.979,-0.531506,3.57428,9.02812,-0.544341,-0.00679568,0.0326803,0
2024-12-13 15:32:19.981,-0.521934,3.57189,9.14776,-0.562667,0.0127514,0.0369563,0
2024-12-13 15:32:19.984,-0.512363,3.58146,9.29163,-0.562667,0.0127514,0.0369563,0
2024-12-13 15:32:19.986,-0.519542,3.58385,9.43759,-0.576716,0.0243575,0.0393996,0
2024-12-13 15:32:19.988,-0.533899,3.58624,9.58595,-0.57977,0.0286335,0.0430647,0
2024-12-13 15:32:19.991,-0.538684,3.59342,9.74627,-0.582825,0.0322986,0.0455081,0
2024-12-13 15:32:19.993,-0.553041,3.59103,9.89492,-0.582825,0.0377962,0.0491732,0
2024-12-13 15:32:19.996,-0.569791,3.58146,10.0457,-0.581603,0.0457372,0.0546708,0
2024-12-13 15:32:19.998,-0.569791,3.57906,10.1988,-0.577327,0.0542891,0.0583359,0
2024-12-13 15:32:20.000,-0.569791,3.58146,10.3472,-0.571829,0.0671168,0.0662769,0
2024-12-13 15:32:20.003,-0.579362,3.59581,10.5054,-0.562667,0.0781121,0.0717745,0
2024-12-13 15:32:20.005,-0.586541,3.59581,10.6561,-0.548617,0.0927724,0.0784939,0
2024-12-13 15:32:20.007,-0.574577,3.59103,10.7901,-0.533957,0.107433,0.0870457,0
2024-12-13 15:32:20.010,-0.576969,3.60778,10.8978,-0.518686,0.121482,0.0955976,0
2024-12-13 15:32:20.012,-0.567398,3.62214,10.9819,-0.503415,0.133088,0.101095,0
2024-12-13 15:32:20.014,-0.533899,3.61735,11.08,-0.483257,0.144694,0.109036,0
2024-12-13 15:32:20.017,-0.519542,3.62453,11.1709,-0.463709,0.157522,0.11881,0
2024-12-13 15:32:20.019,-0.514756,3.62931,11.2427,-0.442941,0.169128,0.123697,0
2024-12-13 15:32:20.021,-0.486042,3.64876,11.2977,-0.419118,0.175848,0.132248,0
2024-12-13 15:32:20.024,-0.442971,3.68226,11.3456,-0.398349,0.18501,0.137212,0
2024-12-13 15:32:20.029,-0.387936,3.71097,11.3719,-0.350703,0.193562,0.146985,0
2024-12-13 15:32:20.031,-0.383151,3.74686,11.3623,-0.325658,0.197838,0.149429,0
2024-12-13 15:32:20.031,-0.383151,3.74686,11.3623,-0.325658,0.197838,0.149429,0
2024-12-13 15:32:20.033,-0.395115,3.78275,11.336,-0.301224,0.196616,0.153704,0
2024-12-13 15:32:20.036,-0.407079,3.80668,11.2881,-0.280455,0.194173,0.155537,0
2024-12-13 15:32:20.038,-0.431007,3.82822,11.2307,-0.255411,0.188065,0.15737,0
2024-12-13 15:32:20.040,-0.459721,3.85693,11.1685,-0.234031,0.178902,0.158591,0
2024-12-13 15:32:20.043,-0.483649,3.89761,11.0991,-0.213873,0.169739,0.161645,0
2024-12-13 15:32:20.045,-0.498006,3.92154,11.0225,-0.194937,0.158133,0.163478,0
2024-12-13 15:32:20.047,-0.514756,3.94307,10.9361,-0.17539,0.142862,0.1647,0
2024-12-13 15:32:20.050,-0.517149,3.99093,10.8452,-0.158286,0.131256,0.166532,0
2024-12-13 15:32:20.052,-0.50997,4.03639,10.7758,-0.143625,0.115985,0.167754,0
2024-12-13 15:32:20.054,-0.502792,4.07707,10.7183,-0.132019,0.102546,0.170197,0
2024-12-13 15:32:20.057,-0.486042,4.10578,10.6561,-0.132019,0.102546,0.170197,0
2024-12-13 15:32:20.059,-0.471685,4.13689,10.6011,-0.115526,0.0799446,0.17203,0
2024-12-13 15:32:20.062,-0.474078,4.18475,10.5509,-0.107585,0.0707819,0.174473,0
2024-12-13 15:32:20.064,-0.4669,4.21376,10.5245,-0.101477,0.0628409,0.177527,0
2024-12-13 15:32:20.066,-0.442971,4.25444,10.5317,-0.0972011,0.0579541,0.179971,0
2024-12-13 15:32:20.069,-0.426222,4.29751,10.5461,-0.0904818,0.0567324,0.179971,0
2024-12-13 15:32:20.071,-0.41665,4.35254,10.5413,-0.0874275,0.0579541,0.184247,0
2024-12-13 15:32:20.073,-0.402293,4.40997,10.5413,-0.0819299,0.0603975,0.185468,0
2024-12-13 15:32:20.076,-0.390329,4.43629,10.5748,-0.0788757,0.0646735,0.188523,0
2024-12-13 15:32:20.078,-0.375972,4.46261,10.5748,-0.0745997,0.0677277,0.192188,0
2024-12-13 15:32:20.080,-0.35683,4.48176,10.5604,-0.0721563,0.0707819,0.194631,0
2024-12-13 15:32:20.085,-0.519542,4.0005,11.1183,-0.0666587,0.101935,0.216011,0
2024-12-13 15:32:20.085,-1.24726,4.0005,11.1183,-0.0666587,0.101935,0.216011,0
2024-12-13 15:32:20.087,-1.38365,3.78515,11.3599,-0.0477224,0.143473,0.255105,0
2024-12-13 15:32:20.090,-0.648754,4.02921,10.8619,-0.0446682,0.11232,0.280761,0
2024-12-13 15:32:20.094,-0.605683,4.27597,10.5796,-0.0611611,0.0402396,0.303973,0
2024-12-13 15:32:20.094,-0.605683,4.27597,10.5796,-0.0611611,0.0402396,0.303973,0
2024-12-13 15:32:20.097,-0.600898,4.31187,10.8165,-0.0642153,0.0432938,0.321077,0
2024-12-13 15:32:20.099,-0.426222,4.38604,11.0513,-0.0617719,0.0457372,0.335737,0
2024-12-13 15:32:20.102,-0.241675,4.51526,11.1183,-0.0556635,0.0439046,0.347954,0
2024-12-13 15:32:20.104,-0.0622134,4.59183,11.1422,-0.049555,0.0371853,0.352841,0
2024-12-13 15:32:20.106,0.210568,4.59661,11.2786,-0.0458899,0.0353528,0.352841,0
2024-12-13 15:32:20.109,0.447757,4.6995,11.3599,-0.0379489,0.0243575,0.34551,0
2024-12-13 15:32:20.113,0.3999,4.89362,11.5875,-0.0208452,0.0243575,0.330239,0
2024-12-13 15:32:20.113,0.3999,4.89362,11.5875,-0.0208452,0.0243575,0.330239,0
2024-12-13 15:32:20.116,0.490828,4.97258,11.6545,-0.0110716,0.022525,0.326574,0
2024-12-13 15:32:20.118,0.553041,5.0324,11.6474,-0.00313059,0.0139731,0.321077,0
2024-12-13 15:32:20.120,0.60329,5.07787,11.6186,0.00297788,0.00481042,0.314357,0
2024-12-13 15:32:20.123,0.622433,5.09701,11.6426,0.010308,-0.00251974,0.30886,0
2024-12-13 15:32:20.127,0.63679,5.05873,11.8077,0.0231358,-0.00374144,0.299697,0
2024-12-13 15:32:20.127,0.63679,5.05873,11.8077,0.0231358,-0.00374144,0.299697,0
2024-12-13 15:32:20.130,0.679861,5.02044,11.8723,0.0316877,-0.00251974,0.296032,0
2024-12-13 15:32:20.132,0.641576,4.96062,11.9489,0.0402396,0.00725381,0.29481,0
2024-12-13 15:32:20.135,0.632004,4.93191,11.968,0.0500131,0.0206925,0.296032,0
2024-12-13 15:32:20.137,0.696611,4.96541,11.9656,0.0567324,0.0292443,0.294199,0
2024-12-13 15:32:20.142,0.679861,5.00369,12.0422,0.0658951,0.0561216,0.288702,0
2024-12-13 15:32:20.144,0.703789,5.05155,12.0422,0.0658951,0.0561216,0.288702,0
2024-12-13 15:32:20.144,0.703789,5.05155,12.0422,0.0658951,0.0561216,0.288702,0
2024-12-13 15:32:20.146,0.74686,5.12812,12.0326,0.0683385,0.0878856,0.284426,0
2024-12-13 15:32:20.149,0.766002,5.22144,12.0326,0.0671168,0.0982701,0.278317,0
2024-12-13 15:32:20.151,0.804287,5.3342,12.0206,0.0622301,0.106211,0.270987,0
2024-12-13 15:32:20.156,0.751645,5.47538,12.1095,0.0414613,0.128202,0.253273,0
2024-12-13 15:32:20.156,0.751645,5.47538,12.1095,0.0414613,0.128202,0.253273,0
2024-12-13 15:32:20.158,0.718146,5.52084,12.1932,0.0298552,0.142251,0.245942,0
2024-12-13 15:32:20.160,0.694218,5.56152,12.2842,0.0182491,0.158133,0.235558,0
2024-12-13 15:32:20.163,0.670289,5.59741,12.3703,0.00481042,0.174626,0.228228,0
2024-12-13 15:32:20.165,0.65354,5.6357,12.4564,-0.00801737,0.192951,0.222119,0
2024-12-13 15:32:20.167,0.634397,5.69073,12.5665,-0.0257319,0.217385,0.217843,0
2024-12-13 15:32:20.170,0.62004,5.72184,12.6745,-0.0385597,0.241819,0.213567,0
2024-12-13 15:32:20.172,0.62004,5.7338,12.7869,-0.0562743,0.26381,0.206848,0
2024-12-13 15:32:20.175,0.646361,5.72423,12.9329,-0.0770431,0.287633,0.201961,0
2024-12-13 15:32:20.177,0.739681,5.67877,13.1291,-0.0953685,0.30718,0.19402,0
2024-12-13 15:32:20.179,0.828216,5.65962,13.3137,-0.112472,0.318175,0.183025,0
2024-12-13 15:32:20.182,0.842872,5.68595,13.3998,-0.130798,0.327949,0.173862,0
2024-12-13 15:32:20.184,0.816252,5.72184,13.4357,-0.150345,0.338944,0.163478,0
2024-12-13 15:32:20.186,0.766002,5.75055,13.5027,-0.171724,0.349939,0.153704,0
2024-12-13 15:32:20.189,0.701396,5.77209,13.6104,-0.193715,0.361545,0.143931,0
2024-12-13 15:32:20.191,0.624826,5.7673,13.7495,-0.193715,0.361545,0.143931,0
2024-12-13 15:32:20.193,0.541077,5.73141,13.9241,-0.237085,0.375595,0.131638,0
2024-12-13 15:32:20.196,0.4669,5.66441,14.1443,-0.259076,0.377427,0.125529,0
2024-12-13 15:32:20.198,0.3999,5.60937,14.3791,-0.279234,0.373762,0.11881,0
2024-12-13 15:32:20.200,0.316152,5.57348,14.616,-0.300613,0.370097,0.11209,0
2024-12-13 15:32:20.203,0.222533,5.49691,14.8795,-0.322604,0.366432,0.106593,0
2024-12-13 15:32:20.205,0.133998,5.39881,15.1379,-0.342151,0.35788,0.103539,0
2024-12-13 15:32:20.208,0.0167498,5.31954,15.382,-0.360476,0.346885,0.0992627,0
2024-12-13 15:32:20.212,-0.562612,5.39641,15.6479,-0.409344,0.348107,0.101706,0
2024-12-13 15:32:20.212,-0.562612,5.39641,15.6479,-0.409344,0.348107,0.101706,0
2024-12-13 15:32:20.215,-0.588933,5.27887,15.9829,-0.435,0.341998,0.108425,0
2024-12-13 15:32:20.217,-0.639183,5.1018,16.2894,-0.45699,0.324894,0.113923,0
2024-12-13 15:32:20.219,-0.677468,4.87448,16.5431,-0.478981,0.306569,0.117588,0
2024-12-13 15:32:20.222,-0.672682,4.62772,16.7851,-0.502193,0.292519,0.119421,0
2024-12-13 15:32:20.224,-0.63679,4.36212,17.0124,-0.502193,0.292519,0.119421,0
2024-12-13 15:32:20.226,-0.617647,4.10818,17.2424,-0.537011,0.260755,0.121253,0
2024-12-13 15:32:20.229,-0.605683,3.85215,17.5032,-0.549228,0.247928,0.121253,0
2024-12-13 15:32:20.231,-0.581755,3.58864,17.7452,-0.554115,0.231435,0.11881,0
2024-12-13 15:32:20.233,-0.555434,3.34696,17.9438,-0.549839,0.216164,0.115756,0
2024-12-13 15:32:20.236,-0.505185,3.10529,18.1232,-0.538233,0.200282,0.112701,0
2024-12-13 15:32:20.238,-0.459721,2.87767,18.2647,-0.52174,0.188675,0.110869,0
2024-12-13 15:32:20.240,-0.407079,2.67189,18.3867,-0.494863,0.17768,0.105371,0
2024-12-13 15:32:20.243,-0.32333,2.4682,18.4872,-0.460655,0.167907,0.102928,0
2024-12-13 15:32:20.245,-0.239282,2.28634,18.5686,-0.422172,0.158744,0.100484,0
2024-12-13 15:32:20.250,-0.181855,2.11406,18.6189,-0.314663,0.14897,0.0962084,3
2024-12-13 15:32:20.250,-0.133998,1.93908,18.6356,-0.314663,0.14897,0.0962084,3
2024-12-13 15:32:20.252,-0.0789631,1.7668,18.6093,-0.249302,0.147749,0.0974301,0
2024-12-13 15:32:20.255,-0.040678,1.62323,18.5614,-0.176611,0.152025,0.0998735,0
2024-12-13 15:32:20.257,0.00957129,1.48445,18.504,-0.100255,0.15569,0.106593,0
2024-12-13 15:32:20.259,0.0717847,1.32383,18.4011,-0.0165692,0.164852,0.112701,0
2024-12-13 15:32:20.262,0.117248,1.15872,18.2599,0.074447,0.175848,0.121253,0
2024-12-13 15:32:20.264,0.16989,0.998405,18.0897,0.17035,0.194173,0.130416,0
2024-12-13 15:32:20.266,0.232104,0.862014,17.9055,0.271751,0.218607,0.14332,0
2024-12-13 15:32:20.269,0.304188,0.742074,17.7117,0.376282,0.247928,0.155537,0
2024-12-13 15:32:20.271,0.390329,0.624826,17.5104,0.482569,0.287633,0.167143,0
2024-12-13 15:32:20.273,0.454935,0.524327,17.2639,0.594354,0.327338,0.180582,0
2024-12-13 15:32:20.276,0.459721,0.478864,16.9214,0.594354,0.327338,0.180582,0
2024-12-13 15:32:20.278,0.378365,0.500399,16.5984,0.814259,0.418354,0.201351,0
2024-12-13 15:32:20.283,0.165105,0.629611,15.9613,1.03783,0.517922,0.235558,0
2024-12-13 15:32:20.283,0.165105,0.629611,15.9613,1.03783,0.517922,0.235558,0
2024-12-13 15:32:20.285,0.0909273,0.722932,15.5545,1.14534,0.563125,0.255716,0
2024-12-13 15:32:20.288,0.0311067,0.799502,15.1164,1.2504,0.602219,0.274652,0
2024-12-13 15:32:20.290,-0.0215354,0.862014,14.6542,1.35119,0.638259,0.292978,0
2024-12-13 15:32:20.292,-0.040678,0.921835,14.1658,1.45137,0.665136,0.309471,0
2024-12-13 15:32:20.295,-0.0550349,0.974477,13.6487,1.54117,0.691403,0.32352,0
2024-12-13 15:32:20.297,-0.0861416,1.01037,13.098,1.54117,0.691403,0.32352,0
2024-12-13 15:32:20.299,-0.081356,0.984048,12.5665,1.70121,0.728741,0.348565,0
2024-12-13 15:32:20.302,-0.0287139,0.929013,12.0808,1.77085,0.739125,0.355284,0
2024-12-13 15:32:20.304,-0.0191426,0.893121,11.5445,1.83437,0.745844,0.360171,0
2024-12-13 15:32:20.306,-0.0550349,0.881157,10.9627,1.88813,0.752564,0.362003,0
2024-12-13 15:32:20.311,-0.131605,0.909871,9.95953,1.97426,0.768446,0.365058,0
2024-12-13 15:32:20.311,-0.131605,0.909871,9.95953,1.97426,0.768446,0.365058,0
2024-12-13 15:32:20.316,-0.311366,1.02233,8.98744,2.02496,0.770889,0.365668,0
2024-12-13 15:32:20.316,-0.311366,1.02233,8.98744,2.02496,0.770889,0.365668,0
2024-12-13 15:32:20.321,-0.531506,1.15872,8.12303,2.04206,0.766002,0.365668,0
2024-12-13 15:32:20.321,-0.531506,1.15872,8.12303,2.04206,0.766002,0.365668,0
2024-12-13 15:32:20.323,-0.643968,1.24247,7.72583,2.03656,0.755618,0.366279,0
2024-12-13 15:32:20.325,-0.756431,1.33101,7.33789,2.02985,0.74279,0.369334,0
2024-12-13 15:32:20.328,-0.862014,1.4004,6.95235,2.01091,0.725076,0.371777,0
2024-12-13 15:32:20.330,-0.950549,1.4653,6.6006,1.98648,0.707972,0.376664,0
2024-12-13 15:32:20.332,-1.01994,1.52991,6.28206,1.95227,0.688959,0.377885,0
2024-12-13 15:32:20.335,-0.986441,1.50598,5.99492,1.91378,0.665136,0.377275,0
2024-12-13 15:32:20.337,-0.584148,1.23769,6.0667,1.91378,0.665136,0.377275,0
2024-12-13 15:32:20.339,-0.691825,1.20419,5.80559,1.82949,0.579007,0.348565,0
2024-12-13 15:32:20.342,-1.03669,1.39801,5.22862,1.7739,0.580839,0.337569,0
2024-12-13 15:32:20.344,-1.02712,1.49402,5.07308,1.71709,0.568622,0.321077,0
2024-12-13 15:32:20.346,-1.18744,1.63998,4.94387,1.65845,0.557627,0.310692,0
2024-12-13 15:32:20.349,-1.36929,1.79551,4.8003,1.59675,0.542967,0.300919,0
2024-12-13 15:32:20.354,-1.61605,2.24088,4.48415,1.45992,0.525252,0.280761,0
2024-12-13 15:32:20.354,-1.61605,2.24088,4.48415,1.45992,0.525252,0.280761,0
2024-12-13 15:32:20.356,-1.7668,2.35334,4.43629,1.3854,0.513646,0.274041,0
2024-12-13 15:32:20.358,-1.91276,2.4012,4.45783,1.31699,0.500818,0.269765,0
2024-12-13 15:32:20.361,-2.0662,2.44666,4.45065,1.2504,0.48738,0.270376,0
2024-12-13 15:32:20.363,-2.1667,2.48255,4.42194,1.18138,0.470887,0.275874,0
2024-12-13 15:32:20.365,-2.23609,2.52592,4.35254,1.11296,0.450118,0.286258,0
2024-12-13 15:32:20.368,-2.27916,2.58814,4.25444,1.04394,0.426906,0.296032,0
2024-12-13 15:32:20.370,-2.21934,2.58096,4.21137,1.04394,0.426906,0.296032,0
2024-12-13 15:32:20.372,-2.10449,2.53789,4.22333,0.902221,0.374984,0.311914,0
2024-12-13 15:32:20.375,-1.98963,2.51366,4.24008,0.826476,0.346885,0.312525,0
2024-12-13 15:32:20.378,-1.88644,2.45623,4.28315,0.681706,0.296185,0.306416,0
2024-12-13 15:32:20.379,-1.79791,2.38923,4.37408,0.681706,0.296185,0.306416,0
2024-12-13 15:32:20.382,-1.68784,2.33181,4.49133,0.612069,0.27114,0.300919,0
2024-12-13 15:32:20.384,-1.56102,2.26959,4.62772,0.549152,0.246095,0.292367,0
2024-12-13 15:32:20.387,-1.45573,2.22652,4.74975,0.486845,0.22777,0.279539,0
2024-12-13 15:32:20.391,-1.28554,2.20738,4.91276,0.37506,0.197838,0.254494,0
2024-12-13 15:32:20.394,-1.21615,2.20499,4.99651,0.324894,0.19173,0.239834,0
2024-12-13 15:32:20.394,-1.21615,2.20499,4.99651,0.324894,0.19173,0.239834,0
2024-12-13 15:32:20.396,-1.15633,2.21695,5.09462,0.275416,0.18501,0.225784,0
2024-12-13 15:32:20.398,-1.11087,2.23849,5.18794,0.275416,0.18501,0.225784,0
2024-12-13 15:32:20.401,-1.08455,2.25045,5.25494,0.188065,0.177069,0.200129,0
2024-12-13 15:32:20.404,-1.07976,2.25763,5.32911,0.11293,0.161798,0.176917,0
2024-12-13 15:32:20.405,-1.07737,2.25284,5.42273,0.11293,0.161798,0.176917,0
2024-12-13 15:32:20.408,-1.0654,2.23609,5.52802,0.0805555,0.153246,0.167143,0
2024-12-13 15:32:20.410,-1.0654,2.23849,5.61655,0.0457372,0.14836,0.159202,0
2024-12-13 15:32:20.412,-1.04148,2.24327,5.71705,0.0182491,0.142862,0.152483,0
2024-12-13 15:32:20.415,-0.979263,2.20738,5.81755,-0.0116825,0.134921,0.146985,0
2024-12-13 15:32:20.417,-0.912264,2.15952,5.89442,-0.0379489,0.123926,0.139655,0
2024-12-13 15:32:20.419,-0.852443,2.12363,5.99253,-0.0593285,0.114763,0.129805,0
2024-12-13 15:32:20.422,-0.80668,2.08056,6.10259,-0.0825407,0.100103,0.123086,0
2024-12-13 15:32:20.424,-0.756431,2.03749,6.20788,-0.100255,0.0878856,0.116366,0
2024-12-13 15:32:20.429,-0.639183,1.97767,6.41366,-0.126522,0.0610084,0.102317,0
2024-12-13 15:32:20.429,-0.639183,1.97767,6.41366,-0.126522,0.0610084,0.102317,0
2024-12-13 15:32:20.434,-0.557827,1.95583,6.56232,-0.144236,0.0335202,0.0882674,0
2024-12-13 15:32:20.434,-0.557827,1.95583,6.56232,-0.144236,0.0335202,0.0882674,0
2024-12-13 15:32:20.438,-0.500399,1.9681,6.68435,-0.152788,0.00603212,0.0791047,0
2024-12-13 15:32:20.439,-0.500399,1.9681,6.68435,-0.154621,-0.00679568,0.0736071,0
2024-12-13 15:32:20.441,-0.474078,1.98724,6.73221,-0.154621,-0.00679568,0.0736071,0
2024-12-13 15:32:20.443,-0.442971,1.99681,6.78246,-0.15401,-0.0196235,0.0717745,0
2024-12-13 15:32:20.448,-0.378365,2.01835,6.90449,-0.147901,-0.0342838,0.0638335,0
2024-12-13 15:32:20.448,-0.378365,2.01835,6.90449,-0.147901,-0.0342838,0.0638335,0
2024-12-13 15:32:20.450,-0.344866,2.02792,6.94277,-0.13935,-0.0385597,0.0632227,0
2024-12-13 15:32:20.452,-0.311366,2.01835,6.97627,-0.128965,-0.0410031,0.0601685,0
2024-12-13 15:32:20.455,-0.277567,2.02074,6.98824,-0.120413,-0.0385597,0.0595576,0
2024-12-13 15:32:20.457,-0.256032,2.02552,7.0026,-0.106975,-0.0385597,0.0589468,0
2024-12-13 15:32:20.460,-0.244068,2.03031,7.0026,-0.0923143,-0.0348946,0.0595576,0
2024-12-13 15:32:20.462,-0.227318,2.0327,6.9667,-0.0788757,-0.0318404,0.0583359,0
2024-12-13 15:32:20.464,-0.217747,2.03749,6.94038,-0.0623828,-0.0226777,0.0583359,0
2024-12-13 15:32:20.467,-0.229711,2.04706,6.91645,-0.0483333,-0.0147367,0.0613902,0
2024-12-13 15:32:20.469,-0.241675,2.06142,6.89253,-0.0324513,-0.00557398,0.0638335,0
2024-12-13 15:32:20.471,-0.236889,2.0686,6.86142,-0.0153475,0.00542127,0.0662769,0
2024-12-13 15:32:20.474,-0.229711,2.08056,6.81596,-7.63559e-05,0.0133623,0.0711637,0
2024-12-13 15:32:20.476,-0.234497,2.12363,6.74417,0.014584,0.022525,0.0766613,0
2024-12-13 15:32:20.478,-0.22014,2.15474,6.65564,0.0274118,0.0298552,0.0803264,0
2024-12-13 15:32:20.481,-0.212961,2.17149,6.56949,0.0402396,0.0359636,0.0864349,0
2024-12-13 15:32:20.483,-0.212961,2.19781,6.50489,0.0512348,0.0408504,0.0913217,0
2024-12-13 15:32:20.485,-0.205783,2.21216,6.43041,0.0591758,0.0439046,0.0943759,0
2024-12-13 15:32:20.488,-0.224925,2.22174,6.33709,0.066506,0.0451263,0.101706,0
2024-12-13 15:32:20.490,-0.236889,2.22652,6.25813,0.0683385,0.0457372,0.109036,0
2024-12-13 15:32:20.492,-0.241675,2.23609,6.16242,0.0713928,0.0439046,0.116366,0
2024-12-13 15:32:20.495,-0.244068,2.2672,6.05952,0.0707819,0.0432938,0.119421,0
2024-12-13 15:32:20.497,-0.248854,2.29831,5.98535,0.0616192,0.0371853,0.125529,0
2024-12-13 15:32:20.500,-0.270389,2.31984,5.92553,0.0567324,0.0310769,0.131638,0
2024-12-13 15:32:20.502,-0.301795,2.34856,5.85105,0.0469589,0.0249684,0.139044,0
2024-12-13 15:32:20.504,-0.318545,2.38445,5.80798,0.0335202,0.0182491,0.146985,0
2024-12-13 15:32:20.507,-0.32333,2.42273,5.77926,0.0188599,0.0109189,0.152483,0
2024-12-13 15:32:20.509,-0.308973,2.46102,5.73859,0.00236703,0.00664296,0.159813,0
2024-12-13 15:32:20.511,-0.277567,2.48016,5.73141,-0.0165692,0.00358873,0.165311,0
2024-12-13 15:32:20.514,-0.256032,2.48734,5.75055,-0.0361163,0.00297788,0.170808,0
2024-12-13 15:32:20.516,-0.232104,2.50887,5.76012,-0.0568851,0.00542127,0.173862,0
2024-12-13 15:32:20.518,-0.205783,2.52323,5.77209,-0.0752106,0.00908635,0.175084,0
2024-12-13 15:32:20.521,-0.179462,2.5331,5.78884,-0.0965902,0.0139731,0.177527,0
2024-12-13 15:32:20.523,-0.143569,2.54267,5.80798,-0.119802,0.0200816,0.177527,0
2024-12-13 15:32:20.525,-0.112463,2.54985,5.82473,-0.141793,0.0255792,0.176917,0
2024-12-13 15:32:20.528,-0.0717847,2.54267,5.84626,-0.163783,0.0329094,0.172641,0
2024-12-13 15:32:20.530,-0.040678,2.54507,5.8678,-0.186996,0.0396287,0.169586,0
2024-12-13 15:32:20.533,-0.040678,2.55942,5.88694,-0.210819,0.0432938,0.163478,0
2024-12-13 15:32:20.535,-0.0382852,2.57378,5.92074,-0.231587,0.046348,0.15798,0
2024-12-13 15:32:20.537,-0.0502493,2.59532,5.9686,-0.2548,0.0494023,0.151872,0
2024-12-13 15:32:20.540,-0.0789631,2.59771,6.02842,-0.273736,0.0524565,0.145153,0
2024-12-13 15:32:20.542,-0.107677,2.60728,6.09542,-0.295116,0.0542891,0.140266,0
2024-12-13 15:32:20.544,-0.141177,2.6336,6.15763,-0.315884,0.0555107,0.13347,0
2024-12-13 15:32:20.547,-0.172283,2.65992,6.20549,-0.33421,0.0536782,0.129194,0
2024-12-13 15:32:20.549,-0.205783,2.68864,6.26531,-0.351314,0.0561216,0.122475,0
2024-12-13 15:32:20.551,-0.241675,2.70778,6.34188,-0.364141,0.0548999,0.116977,0
2024-12-13 15:32:20.554,-0.285045,2.72453,6.42802,-0.380634,0.0548999,0.113312,0
2024-12-13 15:32:20.556,-0.318545,2.74846,6.52642,-0.390408,0.0542891,0.108425,0
2024-12-13 15:32:20.558,-0.335294,2.78196,6.60539,-0.402014,0.0567324,0.104149,0
2024-12-13 15:32:20.561,-0.366401,2.78674,6.68435,-0.406901,0.0561216,0.101095,0
2024-12-13 15:32:20.563,-0.385544,2.78196,6.78963,-0.41362,0.0579541,0.0974301,0
2024-12-13 15:32:20.565,-0.404686,2.79631,6.88295,-0.418507,0.0591758,0.0943759,0
2024-12-13 15:32:20.568,-0.45015,2.81306,6.9691,-0.420339,0.0610084,0.0907108,0
2024-12-13 15:32:20.570,-0.490828,2.82981,7.07946,-0.422172,0.0591758,0.0870457,0
2024-12-13 15:32:20.573,-0.495613,2.84178,7.168,-0.42095,0.0610084,0.0888783,0
2024-12-13 15:32:20.575,-0.502792,2.86331,7.25175,-0.418507,0.0634518,0.0852132,0
2024-12-13 15:32:20.578,-0.536291,2.89203,7.30678,-0.412398,0.066506,0.0791047,0
2024-12-13 15:32:20.580,-0.572184,2.91835,7.3355,-0.412398,0.066506,0.0791047,0
2024-12-13 15:32:20.583,-0.600898,2.95902,7.36182,-0.407511,0.0787229,0.0729962,0
2024-12-13 15:32:20.584,-0.612862,3.00449,7.37617,-0.407511,0.0787229,0.0729962,0
2024-12-13 15:32:20.587,-0.617647,3.02363,7.38575,-0.403236,0.086664,0.069942,0
2024-12-13 15:32:20.589,-0.63679,3.04756,7.4001,-0.402625,0.0939941,0.0656661,0
2024-12-13 15:32:20.591,-0.672682,3.07867,7.42642,-0.400181,0.100103,0.062001,0
2024-12-13 15:32:20.594,-0.710967,3.10289,7.42882,-0.395905,0.1056,0.0583359,0
2024-12-13 15:32:20.596,-0.761217,3.134,7.44796,-0.391629,0.111098,0.0546708,0
2024-12-13 15:32:20.598,-0.804287,3.17468,7.48864,-0.389186,0.111709,0.05406,0
2024-12-13 15:32:20.601,-0.828216,3.21057,7.49821,-0.385521,0.113541,0.0503949,0
2024-12-13 15:32:20.603,-0.847657,3.24646,7.48624,-0.381245,0.113541,0.0467298,0
2024-12-13 15:32:20.606,-0.859622,3.28475,7.47907,-0.378802,0.11293,0.0442864,0
2024-12-13 15:32:20.608,-0.890728,3.31825,7.46471,-0.373304,0.114152,0.0412322,0
2024-12-13 15:32:20.610,-0.917049,3.35653,7.44796,-0.373304,0.114152,0.0412322,0
2024-12-13 15:32:20.613,-0.938585,3.40917,7.42164,-0.37025,0.109876,0.0357346,0
2024-12-13 15:32:20.615,-0.974477,3.44985,7.4025,-0.37025,0.109876,0.0357346,0
2024-12-13 15:32:20.617,-0.99362,3.47378,7.39292,-0.366585,0.106822,0.0320695,0
2024-12-13 15:32:20.620,-1.0008,3.50489,7.369,-0.365363,0.1056,0.0284044,0
2024-12-13 15:32:20.622,-0.988834,3.53839,7.34746,-0.364141,0.101935,0.0235176,0
2024-12-13 15:32:20.624,-0.981655,3.57189,7.32832,-0.364141,0.101935,0.0235176,0
2024-12-13 15:32:20.629,-0.952942,3.64128,7.29003,-0.37025,0.0805555,0.00946813,0
2024-12-13 15:32:20.629,-0.952942,3.64128,7.29003,-0.37025,0.0805555,0.00946813,0
2024-12-13 15:32:20.631,-0.955334,3.69183,7.28525,-0.372693,0.0750579,0.00213797,0
2024-12-13 15:32:20.634,-0.945763,3.7325,7.2996,-0.379413,0.0671168,-0.00335966,0
2024-12-13 15:32:20.636,-0.950549,3.77797,7.302,-0.385521,0.0573433,-0.010079,0
2024-12-13 15:32:20.641,-0.988834,3.85932,7.32832,-0.394073,0.050624,-0.0186308,0
2024-12-13 15:32:20.643,-0.981655,3.90239,7.32832,-0.409955,0.0335202,-0.0314586,0
2024-12-13 15:32:20.643,-0.981655,3.90239,7.32832,-0.409955,0.0335202,-0.0314586,0
2024-12-13 15:32:20.646,-0.97687,3.92632,7.33789,-0.417896,0.0237467,-0.0375671,0
2024-12-13 15:32:20.648,-0.979263,3.94307,7.3666,-0.428891,0.0158057,-0.046119,0
2024-12-13 15:32:20.650,-0.97687,3.95982,7.38814,-0.440497,0.00786466,-0.0558925,0
2024-12-13 15:32:20.653,-0.967299,3.96939,7.4025,-0.450882,-7.63559e-05,-0.0632227,0
2024-12-13 15:32:20.655,-0.955334,3.98375,7.436,-0.461266,-0.00496313,-0.0711637,0
2024-12-13 15:32:20.657,-0.950549,4.01007,7.47428,-0.47165,-0.0122933,-0.0809373,0
2024-12-13 15:32:20.660,-0.955334,4.01964,7.51257,-0.483257,-0.0153475,-0.0913217,0
2024-12-13 15:32:20.662,-0.962513,4.02204,7.54846,-0.490587,-0.0184018,-0.100484,0
2024-12-13 15:32:20.664,-0.962513,4.03879,7.58465,-0.497917,-0.0208452,-0.107204,0
2024-12-13 15:32:20.667,-0.948156,4.05075,7.65883,-0.504636,-0.0232886,-0.115756,0
2024-12-13 15:32:20.669,-0.945763,4.05314,7.74497,-0.511356,-0.0245102,-0.121864,0
2024-12-13 15:32:20.671,-0.955334,4.06032,7.83111,-0.519297,-0.029397,-0.127362,0
2024-12-13 15:32:20.674,-0.969691,4.09382,7.95075,-0.522962,-0.033673,-0.134692,0
2024-12-13 15:32:20.676,-0.986441,4.12253,8.068,-0.52907,-0.0397814,-0.139579,0
2024-12-13 15:32:20.679,-1.0008,4.12971,8.15683,-0.529681,-0.0446682,-0.145687,0
2024-12-13 15:32:20.681,-1.00558,4.14407,8.25255,-0.530903,-0.0501658,-0.14752,0
2024-12-13 15:32:20.683,-0.998405,4.17039,8.33869,-0.533957,-0.0562743,-0.152406,0
2024-12-13 15:32:20.688,-0.974477,4.21376,8.50619,-0.534568,-0.0605502,-0.154239,0
2024-12-13 15:32:20.688,-0.974477,4.21376,8.50619,-0.534568,-0.0605502,-0.154239,0
2024-12-13 15:32:20.690,-0.955334,4.23769,8.59951,-0.529681,-0.0758214,-0.164012,0
2024-12-13 15:32:20.693,-0.926621,4.24008,8.67368,-0.526016,-0.0831516,-0.170121,0
2024-12-13 15:32:20.695,-0.890728,4.24726,8.75055,-0.524183,-0.0898709,-0.176229,0
2024-12-13 15:32:20.697,-0.857229,4.27119,8.85584,-0.518686,-0.0959794,-0.181727,0
2024-12-13 15:32:20.700,-0.833001,4.29272,8.95634,-0.513799,-0.100866,-0.187225,0
2024-12-13 15:32:20.702,-0.792323,4.36212,9.05205,-0.510745,-0.0996445,-0.192722,0
2024-12-13 15:32:20.704,-0.739681,4.50808,9.15973,-0.50769,-0.102088,-0.201274,0
2024-12-13 15:32:20.707,-0.777966,4.52961,9.25065,-0.502193,-0.10331,-0.207383,0
2024-12-13 15:32:20.709,-0.852443,4.46261,9.33709,-0.502193,-0.10331,-0.207383,0
2024-12-13 15:32:20.712,-0.876371,4.4339,9.4352,-0.49303,-0.104531,-0.217767,0
2024-12-13 15:32:20.714,-0.893121,4.37647,9.49981,-0.487532,-0.10331,-0.22021,0
2024-12-13 15:32:20.716,-0.9003,4.34058,9.54288,-0.482035,-0.105753,-0.222043,0
2024-12-13 15:32:20.719,-0.893121,4.3334,9.61466,-0.479591,-0.106364,-0.226319,0
2024-12-13 15:32:20.721,-0.888335,4.35015,9.70319,-0.475316,-0.110029,-0.229373,0
2024-12-13 15:32:20.723,-0.9003,4.40758,9.77259,-0.474705,-0.114305,-0.233038,0
2024-12-13 15:32:20.726,-0.893121,4.48654,9.83988,-0.472872,-0.11797,-0.237314,0
2024-12-13 15:32:20.728,-0.881157,4.55115,9.91406,-0.468596,-0.122857,-0.239147,0
2024-12-13 15:32:20.730,-0.885943,4.59901,9.98345,-0.469207,-0.128965,-0.240368,0
2024-12-13 15:32:20.733,-0.873978,4.63968,10.0696,-0.468596,-0.136906,-0.247088,0
2024-12-13 15:32:20.735,-0.859622,4.66122,10.1677,-0.466153,-0.147901,-0.254418,0
2024-12-13 15:32:20.737,-0.859622,4.67797,10.2538,-0.465542,-0.156453,-0.259305,0
2024-12-13 15:32:20.741,-0.871586,4.68515,10.3496,-0.460655,-0.17539,-0.273354,0
2024-12-13 15:32:20.742,-0.893121,4.69711,10.4551,-0.460655,-0.17539,-0.273354,0
2024-12-13 15:32:20.744,-0.921835,4.72104,10.5891,-0.458823,-0.188217,-0.278852,0
2024-12-13 15:32:20.749,-0.933799,4.78355,10.8571,-0.452714,-0.209597,-0.292901,0
2024-12-13 15:32:20.749,-0.933799,4.78355,10.8571,-0.452714,-0.209597,-0.292901,0
2024-12-13 15:32:20.752,-0.938585,4.78834,10.9938,-0.446606,-0.221203,-0.299621,0
2024-12-13 15:32:20.754,-0.972084,4.80269,11.123,-0.439886,-0.232809,-0.305118,0
2024-12-13 15:32:20.756,-0.981655,4.86012,11.2427,-0.433778,-0.245026,-0.31367,0
2024-12-13 15:32:20.759,-1.00798,4.87926,11.3527,-0.425837,-0.257243,-0.322222,0
2024-12-13 15:32:20.761,-1.02233,4.9008,11.4676,-0.420339,-0.268849,-0.32772,0
2024-12-13 15:32:20.763,-1.01755,4.94626,11.5756,-0.420339,-0.268849,-0.32772,0
2024-12-13 15:32:20.766,-1.01276,4.99412,11.688,-0.406901,-0.289618,-0.338104,0
2024-12-13 15:32:20.768,-1.02233,5.03958,11.8292,-0.39957,-0.296948,-0.342991,0
2024-12-13 15:32:20.770,-1.04148,5.07308,11.9704,-0.39224,-0.300002,-0.348488,0
2024-12-13 15:32:20.773,-1.04387,5.09462,12.1119,-0.38491,-0.300613,-0.352153,0
2024-12-13 15:32:20.775,-1.03908,5.12812,12.2243,-0.376969,-0.303057,-0.355819,0
2024-12-13 15:32:20.777,-1.0319,5.1664,12.3488,-0.369028,-0.301224,-0.359484,0
2024-12-13 15:32:20.780,-1.01515,5.18315,12.4756,-0.36353,-0.302446,-0.361927,0
2024-12-13 15:32:20.782,-0.979263,5.21187,12.588,-0.353757,-0.302446,-0.36437,0
2024-12-13 15:32:20.785,-0.962513,5.21665,12.7247,-0.347038,-0.302446,-0.367425,0
2024-12-13 15:32:20.787,-0.964906,5.19272,12.8635,-0.347038,-0.302446,-0.367425,0
2024-12-13 15:32:20.789,-0.955334,5.18555,13.0071,-0.33421,-0.304278,-0.372311,0
2024-12-13 15:32:20.792,-0.940978,5.19272,13.1483,-0.329934,-0.3055,-0.375976,0
2024-12-13 15:32:20.794,-0.933799,5.21426,13.3065,-0.321382,-0.306722,-0.375976,0
2024-12-13 15:32:20.796,-0.926621,5.21426,13.4788,-0.315274,-0.310387,-0.379031,0
2024-12-13 15:32:20.799,-0.933799,5.21905,13.6415,-0.308554,-0.31283,-0.379642,0
2024-12-13 15:32:20.801,-0.931406,5.22862,13.8021,-0.300002,-0.315274,-0.380252,0
2024-12-13 15:32:20.806,-0.890728,5.22862,14.1443,-0.284731,-0.32749,-0.382696,0
2024-12-13 15:32:20.806,-0.890728,5.22862,14.1443,-0.284731,-0.32749,-0.382696,0
2024-12-13 15:32:20.808,-0.878764,5.24058,14.307,-0.274958,-0.329323,-0.383307,0
2024-12-13 15:32:20.810,-0.852443,5.26212,14.4628,-0.268849,-0.335431,-0.382085,0
2024-12-13 15:32:20.813,-0.835394,5.27647,14.5992,-0.258465,-0.336653,-0.382696,0
2024-12-13 15:32:20.815,-0.842872,5.28126,14.7093,-0.249302,-0.340318,-0.383307,0
2024-12-13 15:32:20.817,-0.857229,5.30279,14.8146,-0.238918,-0.342151,-0.383918,0
2024-12-13 15:32:20.820,-0.885943,5.31954,14.8986,-0.227312,-0.342762,-0.38575,0
2024-12-13 15:32:20.822,-0.909871,5.35095,14.9584,-0.220592,-0.344594,-0.385139,0
2024-12-13 15:32:20.825,-0.914656,5.37966,15.0087,-0.209597,-0.34887,-0.387583,0
2024-12-13 15:32:20.827,-0.912264,5.38684,15.0374,-0.209597,-0.34887,-0.387583,0
2024-12-13 15:32:20.829,-0.909871,5.37966,15.0637,-0.186996,-0.359255,-0.391859,0
2024-12-13 15:32:20.832,-0.905085,5.36531,15.0972,-0.186996,-0.359255,-0.391859,0
2024-12-13 15:32:20.834,-0.902692,5.36052,15.1188,-0.165005,-0.375747,-0.40041,0
2024-12-13 15:32:20.836,-0.912264,5.3677,15.1283,-0.153399,-0.384299,-0.406519,0
2024-12-13 15:32:20.839,-0.909871,5.36291,15.1211,-0.140571,-0.392851,-0.412627,0
2024-12-13 15:32:20.841,-0.876371,5.34138,15.0948,-0.127133,-0.403846,-0.422401,0
2024-12-13 15:32:20.843,-0.852443,5.29801,15.0661,-0.113694,-0.416674,-0.430342,0
2024-12-13 15:32:20.846,-0.847657,5.25733,15.0326,-0.101477,-0.42828,-0.438894,0
2024-12-13 15:32:20.848,-0.825823,5.21187,15.0063,-0.0910926,-0.441108,-0.448056,0
2024-12-13 15:32:20.850,-0.789931,5.13769,14.9895,-0.077654,-0.453936,-0.455997,0
2024-12-13 15:32:20.853,-0.734896,5.07069,14.9728,-0.065437,-0.468596,-0.463939,0
2024-12-13 15:32:20.855,-0.670289,4.99891,14.9728,-0.057496,-0.480202,-0.471269,0
2024-12-13 15:32:20.858,-0.598505,4.90559,14.968,-0.0483333,-0.489976,-0.479821,0
2024-12-13 15:32:20.860,-0.52672,4.82423,14.9752,-0.037338,-0.496084,-0.487762,0
2024-12-13 15:32:20.862,-0.447757,4.74497,15.0063,-0.0318404,-0.502804,-0.49387,0
2024-12-13 15:32:20.865,-0.347258,4.65643,15.0302,-0.0232886,-0.506469,-0.498757,0
2024-12-13 15:32:20.867,-0.256032,4.5344,15.047,-0.0159584,-0.510134,-0.506087,0
2024-12-13 15:32:20.869,-0.193819,4.40997,15.0781,-0.0129041,-0.508301,-0.513417,0
2024-12-13 15:32:20.872,-0.131605,4.28794,15.0757,-0.0104608,-0.504025,-0.518915,0
2024-12-13 15:32:20.874,-0.0765703,4.15843,15.0494,-0.00801737,-0.497306,-0.525023,0
2024-12-13 15:32:20.876,-0.0454636,4.04118,15.0494,-0.0104608,-0.488754,-0.530521,0
2024-12-13 15:32:20.879,-0.0311067,3.93111,15.0972,-0.0129041,-0.477759,-0.536018,0
2024-12-13 15:32:20.881,-0.0119641,3.8019,15.2192,-0.0153475,-0.459433,-0.540294,0
2024-12-13 15:32:20.883,0.0119641,3.66072,15.3461,-0.0141258,-0.438054,-0.540294,0
2024-12-13 15:32:20.886,0.0382852,3.52164,15.454,-0.0104608,-0.413009,-0.540905,0
2024-12-13 15:32:20.888,0.0765703,3.37328,15.5737,-0.00557398,-0.38491,-0.543959,0
2024-12-13 15:32:20.890,0.0909273,3.19143,15.7125,-7.63559e-05,-0.357422,-0.54457,0
2024-12-13 15:32:20.893,0.0717847,3.01884,15.8273,0.00664296,-0.326269,-0.543349,0
2024-12-13 15:32:20.895,0.0574277,2.85374,15.9135,0.0158057,-0.289618,-0.546403,0
2024-12-13 15:32:20.900,0.0550349,2.51366,16.1339,0.042683,-0.21876,-0.54457,0
2024-12-13 15:32:20.900,0.0550349,2.51366,16.1339,0.042683,-0.21876,-0.54457,0
2024-12-13 15:32:20.902,0.0167498,2.36531,16.22,0.0603975,-0.182109,-0.545181,0
2024-12-13 15:32:20.905,-0.026321,2.22174,16.2727,0.0829989,-0.143015,-0.540905,0
2024-12-13 15:32:20.909,-0.162712,1.95823,16.3756,0.136753,-0.0629936,-0.532353,3
2024-12-13 15:32:20.909,-0.162712,1.95823,16.3756,0.136753,-0.0629936,-0.532353,3
2024-12-13 15:32:20.912,-0.239282,1.84337,16.4234,0.167296,-0.0257319,-0.526856,0
2024-12-13 15:32:20.914,-0.304188,1.74766,16.3995,0.167296,-0.0257319,-0.526856,0
2024-12-13 15:32:20.916,-0.368794,1.65673,16.3205,0.243652,0.0487914,-0.506698,0
2024-12-13 15:32:20.919,-0.4334,1.57777,16.1961,0.283357,0.0793338,-0.49387,0
2024-12-13 15:32:20.921,-0.481256,1.50598,16.0191,0.325505,0.104989,-0.484096,0
2024-12-13 15:32:20.923,-0.541077,1.43898,15.7962,0.36773,0.126369,-0.47249,0
2024-12-13 15:32:20.926,-0.651147,1.35494,15.5306,0.408657,0.14164,-0.460884,0
2024-12-13 15:32:20.928,-1.07737,1.10608,15.4493,0.450805,0.158744,-0.441337,0
2024-12-13 15:32:20.931,-1.4004,0.845265,15.3197,0.500284,0.186843,-0.407741,0
2024-12-13 15:32:20.933,-1.12044,0.837787,14.7571,0.54793,0.17768,-0.377809,0
2024-12-13 15:32:20.935,-0.837787,0.940978,14.1251,0.54793,0.17768,-0.377809,0
2024-12-13 15:32:20.940,-0.869193,0.972084,13.3639,0.661548,0.109265,-0.324054,0
2024-12-13 15:32:20.940,-0.869193,0.972084,13.3639,0.661548,0.109265,-0.324054,0
2024-12-13 15:32:20.942,-0.825823,0.964906,13.0837,0.700642,0.101935,-0.309394,0
