timestamp,accel_x,accel_y,accel_z,gyro_x,gyro_y,gyro_z,step_timestamp
2024-12-13 15:29:31.771,0.100499,3.05952,9.8686,-0.0257319,-0.0300079,-0.0314586,0
2024-12-13 15:29:31.772,0.102891,3.05474,9.88056,-0.0257319,-0.0300079,-0.0314586,0
2024-12-13 15:29:31.775,0.102891,3.05474,9.89731,-0.0226777,-0.0318404,-0.0351237,0
2024-12-13 15:29:31.775,0.102891,3.05474,9.89731,-0.0226777,-0.0318404,-0.0351237,0
2024-12-13 15:29:31.777,0.11007,3.05952,9.91406,-0.0165692,-0.033673,-0.0363454,0
2024-12-13 15:29:31.777,0.11007,3.05952,9.91406,-0.0165692,-0.033673,-0.0363454,0
2024-12-13 15:29:31.780,0.100499,3.05713,9.90449,-0.013515,-0.0348946,-0.0412322,0
2024-12-13 15:29:31.782,0.0933201,3.05474,9.89492,-0.0104608,-0.0361163,-0.0455081,0
2024-12-13 15:29:31.784,0.0861416,3.05234,9.89731,-0.00557398,-0.0361163,-0.0479515,0
2024-12-13 15:29:31.787,0.0574277,3.04517,9.90928,-0.00129805,-0.0379489,-0.0516166,0
2024-12-13 15:29:31.789,0.0287139,3.04995,9.90688,0.00542127,-0.0330621,-0.0528383,0
2024-12-13 15:29:31.790,0.0574277,3.04517,9.90928,0.0109189,-0.0324513,-0.0571142,0
2024-12-13 15:29:31.791,0.00478565,3.06431,9.89253,0.0109189,-0.0324513,-0.0571142,0
2024-12-13 15:29:31.794,-0.0311067,3.08345,9.87578,0.014584,-0.0300079,-0.0552817,0
2024-12-13 15:29:31.794,0.00478565,3.08345,9.87578,0.014584,-0.0300079,-0.0552817,0
2024-12-13 15:29:31.796,-0.0478565,3.10289,9.84706,0.022525,-0.0257319,-0.0546708,0
2024-12-13 15:29:31.796,-0.0478565,3.10289,9.84706,0.022525,-0.0257319,-0.0546708,0
2024-12-13 15:29:31.798,-0.0430708,3.10289,9.80848,0.0286335,-0.0257319,-0.0565034,0
2024-12-13 15:29:31.801,-0.0598206,3.11486,9.77737,0.0322986,-0.0220669,-0.0558925,0
2024-12-13 15:29:31.803,-0.0837488,3.14118,9.73909,0.0377962,-0.0190126,-0.0552817,0
2024-12-13 15:29:31.803,-0.0837488,3.14118,9.73909,0.0377962,-0.0190126,-0.0552817,0
2024-12-13 15:29:31.808,-0.107677,3.17468,9.64337,0.0420721,-0.0116825,-0.0534491,0
2024-12-13 15:29:31.810,-0.107677,3.17228,9.60987,0.0457372,-0.00740652,-0.0516166,0
2024-12-13 15:29:31.812,-0.124427,3.15793,9.56202,0.0481806,-0.00557398,-0.0491732,0
2024-12-13 15:29:31.812,-0.160319,3.15793,9.56202,0.0481806,-0.00557398,-0.0491732,0
2024-12-13 15:29:31.815,-0.18664,3.16032,9.52373,0.0481806,-0.00557398,-0.0467298,0
2024-12-13 15:29:31.817,-0.18664,3.16511,9.49981,0.0451263,0.00419957,-0.0436756,0
2024-12-13 15:29:31.817,-0.18664,3.16511,9.49981,0.0451263,0.00419957,-0.0436756,0
2024-12-13 15:29:31.822,-0.12682,3.18425,9.44956,0.042683,0.0115297,-0.0393996,0
2024-12-13 15:29:31.824,-0.12682,3.18425,9.44956,0.042683,0.0115297,-0.0393996,0
2024-12-13 15:29:31.827,-0.136391,3.19621,9.42084,0.0329094,0.00358873,-0.0369563,0
2024-12-13 15:29:31.829,-0.136391,3.19861,9.42802,0.0249684,-0.00251974,-0.033902,0
2024-12-13 15:29:31.831,-0.184247,3.19861,9.43041,0.0194708,-0.00801737,-0.0314586,0
2024-12-13 15:29:31.831,-0.184247,3.19861,9.43041,0.0194708,-0.00801737,-0.0314586,0
2024-12-13 15:29:31.836,-0.165105,3.19382,9.41606,0.0158057,-0.0116825,-0.0296261,0
2024-12-13 15:29:31.836,-0.165105,3.19382,9.41606,0.0158057,-0.0116825,-0.0296261,0
2024-12-13 15:29:31.841,-0.0741775,3.20339,9.43041,-0.00557398,-0.0269536,-0.0204634,0
2024-12-13 15:29:31.843,-0.0215354,3.201,9.47109,-0.00862822,-0.0330621,-0.0186308,0
2024-12-13 15:29:31.848,-0.0287139,3.20818,9.51655,-0.0177909,-0.0452791,-0.0198525,0
2024-12-13 15:29:31.848,-0.0287139,3.20818,9.51655,-0.0177909,-0.0452791,-0.0198525,0
2024-12-13 15:29:31.853,-0.0358923,3.18664,9.55245,-0.0232886,-0.0599394,-0.0204634,0
2024-12-13 15:29:31.855,-0.0119641,3.14118,9.57159,-0.0232886,-0.0599394,-0.0204634,0
2024-12-13 15:29:31.860,0.00717847,3.10529,9.62423,-0.0361163,-0.0782648,-0.0241285,0
2024-12-13 15:29:31.860,0.00957129,3.09811,9.62423,-0.0361163,-0.0782648,-0.0241285,0
2024-12-13 15:29:31.864,0.026321,3.07627,9.68884,-0.0367272,-0.0843733,-0.0302369,0
2024-12-13 15:29:31.867,0.0215354,3.05474,9.73191,-0.0367272,-0.0843733,-0.0302369,0
2024-12-13 15:29:31.869,0.0287139,3.04517,9.77019,-0.037338,-0.085595,-0.0326803,0
2024-12-13 15:29:31.871,0.0334995,3.04038,9.78455,-0.0342838,-0.0825407,-0.0375671,0
2024-12-13 15:29:31.874,0.0287139,3.03559,9.81566,-0.0312296,-0.0788757,-0.0375671,0
2024-12-13 15:29:31.876,0.026321,3.02842,9.83749,-0.0312296,-0.0788757,-0.0375671,0
2024-12-13 15:29:31.881,0.00717847,3.01406,9.8351,-0.021456,-0.0684913,-0.0412322,0
2024-12-13 15:29:31.883,0.00717847,3.01167,9.83749,-0.0129041,-0.057496,-0.0442864,0
2024-12-13 15:29:31.885,0.0,3.00688,9.83988,-0.00740652,-0.0519984,-0.0436756,0
2024-12-13 15:29:31.888,-0.00957129,3.01406,9.83749,-0.00129805,-0.0440574,-0.0485624,0
2024-12-13 15:29:31.890,-0.0143569,3.01884,9.82314,0.00542127,-0.0385597,-0.0467298,0
2024-12-13 15:29:31.895,-0.00717847,3.03559,9.78934,0.00786466,-0.0348946,-0.0467298,0
2024-12-13 15:29:31.897,-0.00717847,3.05474,9.77019,0.0206925,-0.0220669,-0.0503949,0
2024-12-13 15:29:31.897,-0.00717847,3.05474,9.77019,0.0206925,-0.0220669,-0.0503949,0
2024-12-13 15:29:31.902,0.0191426,3.04995,9.71994,0.0329094,-0.00923906,-0.0522274,0
2024-12-13 15:29:31.904,0.0287139,3.06192,9.67687,0.0347419,-0.00679568,-0.0546708,0
2024-12-13 15:29:31.907,0.040678,3.08584,9.62423,0.038407,-0.00435229,-0.0571142,0
2024-12-13 15:29:31.909,0.0358923,3.10289,9.58595,0.0396287,-0.00374144,-0.0613902,0
2024-12-13 15:29:31.911,0.026321,3.11725,9.55005,0.0396287,-0.00374144,-0.0613902,0
2024-12-13 15:29:31.914,0.00478565,3.12204,9.52134,0.0439046,-0.00496313,-0.0644444,0
2024-12-13 15:29:31.918,-0.0382852,3.12921,9.4352,0.0445155,-0.0104608,-0.0668878,0
2024-12-13 15:29:31.921,-0.0382852,3.12204,9.40888,0.0445155,-0.0104608,-0.0668878,0
2024-12-13 15:29:31.923,-0.0622134,3.12682,9.38016,0.0451263,-0.0165692,-0.0662769,0
2024-12-13 15:29:31.926,-0.0741775,3.13161,9.35384,0.0451263,-0.0165692,-0.0662769,0
2024-12-13 15:29:31.930,-0.0861416,3.14596,9.34427,0.0396287,-0.0251211,-0.0662769,0
2024-12-13 15:29:31.930,-0.0909273,3.14596,9.34427,0.0396287,-0.0251211,-0.0662769,0
2024-12-13 15:29:31.933,-0.081356,3.14836,9.32274,0.0396287,-0.0251211,-0.0662769,0
2024-12-13 15:29:31.935,-0.081356,3.15793,9.29881,0.0377962,-0.029397,-0.0626118,0
2024-12-13 15:29:31.935,-0.081356,3.15793,9.29881,0.0377962,-0.029397,-0.0626118,0
2024-12-13 15:29:31.937,-0.081356,3.16511,9.27249,0.0365745,-0.0312296,-0.0607793,0
2024-12-13 15:29:31.944,-0.0287139,3.15793,9.24826,0.0347419,-0.0318404,-0.0607793,0
2024-12-13 15:29:31.944,-0.0287139,3.15793,9.24826,0.0347419,-0.0318404,-0.0607793,0
2024-12-13 15:29:31.947,-0.00478565,3.14596,9.22912,0.0347419,-0.0318404,-0.0607793,0
2024-12-13 15:29:31.954,0.00717847,3.09811,9.24347,0.010308,-0.0385597,-0.0534491,0
2024-12-13 15:29:31.954,0.0287139,3.09811,9.24347,0.010308,-0.0385597,-0.0534491,0
2024-12-13 15:29:31.956,0.0430708,3.07149,9.25065,0.00236703,-0.041614,-0.0516166,0
2024-12-13 15:29:31.961,0.0909273,3.07149,9.28684,-0.00740652,-0.0397814,-0.0510057,0
2024-12-13 15:29:31.963,0.11007,3.07388,9.31077,-0.0122933,-0.0385597,-0.0503949,0
2024-12-13 15:29:31.968,0.107677,3.07388,9.35863,-0.0202343,-0.033673,-0.0510057,0
2024-12-13 15:29:31.968,0.105284,3.07388,9.35863,-0.0202343,-0.033673,-0.0510057,0
2024-12-13 15:29:31.973,0.160319,3.04517,9.42084,-0.0245102,-0.0300079,-0.0503949,0
2024-12-13 15:29:31.975,0.191426,3.03559,9.47588,-0.0245102,-0.0202343,-0.0516166,0
2024-12-13 15:29:31.980,0.179462,2.98535,9.59313,-0.021456,-0.0177909,-0.0534491,0
2024-12-13 15:29:31.982,0.172283,2.96381,9.64577,-0.0171801,-0.0165692,-0.0516166,0
2024-12-13 15:29:31.987,0.124427,2.99731,9.74866,-0.00251974,-0.00740652,-0.0516166,0
2024-12-13 15:29:31.991,0.0574277,2.9997,9.72473,0.00725381,-0.00129805,-0.0510057,0
2024-12-13 15:29:31.996,0.0741775,3.00927,9.65534,0.0341311,0.0249684,-0.0479515,0
2024-12-13 15:29:31.996,0.0741775,3.00927,9.65534,0.0341311,0.0249684,-0.0479515,0
2024-12-13 15:29:32.001,0.0981057,2.99252,9.54527,0.0457372,0.0445155,-0.0473407,0
2024-12-13 15:29:32.003,0.0933201,2.97577,9.50938,0.0524565,0.0536782,-0.0491732,0
2024-12-13 15:29:32.006,0.100499,2.9662,9.48066,0.0542891,0.0591758,-0.0473407,0
2024-12-13 15:29:32.008,0.11007,2.9686,9.4352,0.0567324,0.0640626,-0.0485624,0
2024-12-13 15:29:32.010,0.102891,2.98056,9.39931,0.0597867,0.0695602,-0.0503949,0
2024-12-13 15:29:32.013,0.0933201,3.00927,9.41606,0.0597867,0.0695602,-0.0503949,0
2024-12-13 15:29:32.017,0.0693919,3.05474,9.38016,0.0707819,0.0775012,-0.0436756,0
2024-12-13 15:29:32.017,0.0693919,3.05474,9.38016,0.0707819,0.0775012,-0.0436756,0
2024-12-13 15:29:32.022,0.0981057,3.07149,9.24587,0.0732253,0.0732253,-0.0442864,0
2024-12-13 15:29:32.022,0.0981057,3.07149,9.24587,0.0732253,0.0732253,-0.0442864,0
2024-12-13 15:29:32.027,0.107677,3.14836,9.10708,0.0677277,0.0701711,-0.0510057,0
2024-12-13 15:29:32.029,0.112463,3.16989,9.05444,0.0628409,0.066506,-0.0510057,0
2024-12-13 15:29:32.032,0.112463,3.18425,9.01855,0.0591758,0.0634518,-0.0522274,0
2024-12-13 15:29:32.034,0.11007,3.19861,8.99223,0.0591758,0.0634518,-0.0522274,0
2024-12-13 15:29:32.036,0.0981057,3.21296,8.9683,0.0475697,0.0542891,-0.0546708,0
2024-12-13 15:29:32.036,0.0981057,3.21296,8.9683,0.0475697,0.0542891,-0.0546708,0
2024-12-13 15:29:32.041,0.0574277,3.24407,8.94916,0.0420721,0.0475697,-0.0571142,0
2024-12-13 15:29:32.041,0.0574277,3.24407,8.94916,0.0420721,0.0475697,-0.0571142,0
2024-12-13 15:29:32.048,0.102891,3.268,8.98983,0.0188599,0.0274118,-0.0644444,0
2024-12-13 15:29:32.048,0.102891,3.268,8.98983,0.0188599,0.0274118,-0.0644444,0
2024-12-13 15:29:32.053,0.081356,3.24646,8.99462,0.00481042,0.0176382,-0.0681095,0
2024-12-13 15:29:32.054,0.081356,3.24646,8.99462,0.00481042,0.0176382,-0.0681095,0
2024-12-13 15:29:32.057,0.0885344,3.201,9.00658,-0.00740652,0.0139731,-0.0644444,0
2024-12-13 15:29:32.061,0.0837488,3.1675,9.04248,-0.0190126,0.0133623,-0.0626118,0
2024-12-13 15:29:32.062,0.0861416,3.14596,9.0999,-0.0190126,0.0133623,-0.0626118,0
2024-12-13 15:29:32.064,0.102891,3.11246,9.16451,-0.0190126,0.0133623,-0.0626118,0
2024-12-13 15:29:32.067,0.12682,3.08584,9.22433,-0.037338,0.0158057,-0.0571142,0
2024-12-13 15:29:32.069,0.150748,3.08106,9.30599,-0.0428357,0.0206925,-0.0552817,0
2024-12-13 15:29:32.072,0.177069,3.07149,9.39931,-0.0428357,0.0206925,-0.0552817,0
2024-12-13 15:29:32.074,0.189033,3.04517,9.47109,-0.0532201,0.0292443,-0.0497841,0
2024-12-13 15:29:32.079,0.189033,3.01884,9.53091,-0.0605502,0.0445155,-0.0430647,0
2024-12-13 15:29:32.079,0.189033,2.99013,9.59791,-0.0605502,0.0445155,-0.0430647,0
2024-12-13 15:29:32.083,0.138784,2.9327,9.7008,-0.0666587,0.0591758,-0.033902,0
2024-12-13 15:29:32.083,0.138784,2.9327,9.7008,-0.0666587,0.0591758,-0.033902,0
2024-12-13 15:29:32.088,0.105284,2.89442,9.73909,-0.0678804,0.0768904,-0.0235176,0
2024-12-13 15:29:32.090,0.0574277,2.87288,9.74866,-0.0678804,0.0768904,-0.0235176,0
2024-12-13 15:29:32.093,0.0741775,2.88485,9.78455,-0.0691021,0.103157,-0.010079,0
2024-12-13 15:29:32.093,0.0741775,2.88485,9.78455,-0.0691021,0.103157,-0.010079,0
2024-12-13 15:29:32.097,0.114855,2.87528,9.89013,-0.0684913,0.114152,-0.00274881,0
2024-12-13 15:29:32.097,0.114855,2.87528,9.89013,-0.0684913,0.114152,-0.00274881,0
2024-12-13 15:29:32.102,0.155533,2.91595,9.89731,-0.0581068,0.128202,-0.000305424,0
2024-12-13 15:29:32.105,0.177069,2.97338,9.87338,-0.0581068,0.128202,-0.000916271,0
2024-12-13 15:29:32.107,0.174676,3.03081,9.85424,-0.0465007,0.136143,-0.00213797,0
2024-12-13 15:29:32.109,0.167498,3.05952,9.80848,-0.0403923,0.13431,-0.0051922,0
2024-12-13 15:29:32.114,0.145962,3.09811,9.74627,-0.0281753,0.127591,-0.00702474,0
2024-12-13 15:29:32.114,0.119641,3.134,9.70559,-0.0281753,0.127591,-0.00702474,0
2024-12-13 15:29:32.119,0.143569,3.20578,9.55245,-0.0177909,0.1056,-0.0125224,0
2024-12-13 15:29:32.119,0.143569,3.20578,9.55245,-0.0177909,0.1056,-0.0125224,0
2024-12-13 15:29:32.123,0.18664,3.27757,9.39931,-0.0122933,0.0610084,-0.0229068,0
2024-12-13 15:29:32.123,0.18664,3.27757,9.39931,-0.0122933,0.0610084,-0.0229068,0
2024-12-13 15:29:32.128,0.162712,3.35653,9.30838,-0.00618483,0.0286335,-0.0351237,0
2024-12-13 15:29:32.129,0.162712,3.35653,9.30838,-0.00618483,0.0286335,-0.0351237,0
2024-12-13 15:29:32.133,0.215354,3.38285,9.14058,-0.00435229,-0.0153475,-0.0448973,0
2024-12-13 15:29:32.135,0.232104,3.38764,9.1023,-0.00435229,-0.0153475,-0.0448973,0
2024-12-13 15:29:32.137,0.256032,3.40439,9.07598,-0.0104608,-0.0660479,-0.0565034,0
2024-12-13 15:29:32.137,0.256032,3.40439,9.07598,-0.0104608,-0.0660479,-0.0565034,0
2024-12-13 15:29:32.142,0.292223,3.42592,9.02812,-0.0232886,-0.113694,-0.0656661,0
2024-12-13 15:29:32.142,0.292223,3.42592,9.02812,-0.0232886,-0.113694,-0.0656661,0
2024-12-13 15:29:32.147,0.718146,3.22971,9.15733,-0.0446682,-0.169281,-0.0815481,0
2024-12-13 15:29:32.147,0.718146,3.22971,9.15733,-0.0446682,-0.169281,-0.0815481,0
2024-12-13 15:29:32.152,0.452543,3.35653,8.98983,-0.0642153,-0.201656,-0.107204,0
2024-12-13 15:29:32.152,0.452543,3.35653,8.98983,-0.0642153,-0.201656,-0.107204,0
2024-12-13 15:29:32.152,0.452543,3.35653,8.98983,-0.0642153,-0.201656,-0.107204,0
2024-12-13 15:29:32.156,0.313759,3.55514,9.14297,-0.0898709,-0.214484,-0.108425,0
2024-12-13 15:29:32.161,0.263211,3.58864,9.25783,-0.0898709,-0.214484,-0.108425,0
2024-12-13 15:29:32.161,0.263211,3.58864,9.25783,-0.0898709,-0.214484,-0.108425,0
2024-12-13 15:29:32.166,0.380758,3.5001,9.27966,-0.153399,-0.2548,-0.0992627,0
2024-12-13 15:29:32.168,0.459721,3.41157,9.31077,-0.171724,-0.259686,-0.0986518,0
2024-12-13 15:29:32.170,0.52672,3.32543,9.35624,-0.188828,-0.261519,-0.098041,0
2024-12-13 15:29:32.173,0.598505,3.26321,9.40888,-0.188828,-0.259686,-0.0968193,0
2024-12-13 15:29:32.175,0.65354,3.20339,9.46152,-0.212651,-0.251135,-0.0986518,0
2024-12-13 15:29:32.178,0.689432,3.17468,9.49023,-0.212651,-0.236474,-0.100484,0
2024-12-13 15:29:32.180,0.706182,3.18664,9.52134,-0.230977,-0.221814,-0.105371,0
2024-12-13 15:29:32.185,0.739681,3.22493,9.5668,-0.239528,-0.187606,-0.110869,0
2024-12-13 15:29:32.185,0.739681,3.22493,9.5668,-0.239528,-0.187606,-0.110869,0
2024-12-13 15:29:32.187,0.751645,3.24407,9.54288,-0.242583,-0.171114,-0.116366,0
2024-12-13 15:29:32.189,0.744467,3.25603,9.51895,-0.244415,-0.15401,-0.117588,0
2024-12-13 15:29:32.192,0.722932,3.268,9.51416,-0.246248,-0.13935,-0.121864,0
2024-12-13 15:29:32.194,0.675075,3.27518,9.50698,-0.24808,-0.123468,-0.123086,0
2024-12-13 15:29:32.196,0.617647,3.30389,9.48306,-0.248691,-0.10392,-0.124307,0
2024-12-13 15:29:32.201,0.586541,3.35414,9.45195,-0.246859,-0.085595,-0.124918,0
2024-12-13 15:29:32.201,0.581755,3.39721,9.41606,-0.246859,-0.085595,-0.124918,0
2024-12-13 15:29:32.206,0.569791,3.46421,9.31556,-0.243804,-0.0532201,-0.124918,0
2024-12-13 15:29:32.206,0.569791,3.46421,9.31556,-0.243804,-0.0532201,-0.124918,0
2024-12-13 15:29:32.211,0.634397,3.53599,9.18365,-0.237696,-0.0281753,-0.127972,0
2024-12-13 15:29:32.212,0.634397,3.53599,9.18365,-0.237085,-0.0208452,-0.140189,0
2024-12-13 15:29:32.215,0.708575,3.57906,8.99941,-0.234642,-0.0153475,-0.145076,0
2024-12-13 15:29:32.215,0.708575,3.57906,8.99941,-0.234642,-0.0153475,-0.145076,0
2024-12-13 15:29:32.218,0.737288,3.62453,8.92044,-0.238307,-0.0184018,-0.151796,0
2024-12-13 15:29:32.220,0.751645,3.67508,8.85344,-0.238918,-0.0269536,-0.16218,0
2024-12-13 15:29:32.225,0.74686,3.75883,8.72423,-0.252356,-0.0519984,-0.179284,0
2024-12-13 15:29:32.227,0.74686,3.81147,8.67608,-0.261519,-0.0697129,-0.189057,0
2024-12-13 15:29:32.229,0.751645,3.87129,8.64258,-0.274958,-0.0929251,-0.196998,0
2024-12-13 15:29:32.229,0.756431,3.87129,8.64258,-0.274958,-0.0929251,-0.196998,0
2024-12-13 15:29:32.234,0.744467,3.95504,8.60908,-0.307333,-0.142404,-0.211659,0
2024-12-13 15:29:32.236,0.732503,3.99571,8.64018,-0.307333,-0.142404,-0.211659,0
2024-12-13 15:29:32.239,0.727717,4.04118,8.68565,-0.347648,-0.197991,-0.227541,0
2024-12-13 15:29:32.241,0.73011,4.05075,8.76252,-0.367806,-0.224257,-0.232427,0
2024-12-13 15:29:32.241,0.73011,4.05075,8.76252,-0.367806,-0.224257,-0.232427,0
2024-12-13 15:29:32.243,0.727717,4.03879,8.87019,-0.367806,-0.224257,-0.232427,0
2024-12-13 15:29:32.246,0.744467,4.02682,8.97069,-0.402014,-0.270682,-0.243423,0
2024-12-13 15:29:32.248,0.744467,4.02682,8.97069,-0.402014,-0.270682,-0.243423,0
2024-12-13 15:29:32.253,0.768395,3.967,9.30838,-0.445995,-0.31283,-0.256861,0
2024-12-13 15:29:32.255,0.768395,3.967,9.30838,-0.460044,-0.320771,-0.259305,0
2024-12-13 15:29:32.255,0.766002,3.93111,9.39452,-0.460044,-0.320771,-0.259305,0
2024-12-13 15:29:32.258,0.76361,3.89043,9.49981,-0.460044,-0.320771,-0.259305,0
2024-12-13 15:29:32.262,0.780359,3.81147,9.67927,-0.494863,-0.317106,-0.263581,0
2024-12-13 15:29:32.265,0.76361,3.76361,9.78934,-0.506469,-0.31283,-0.262359,0
2024-12-13 15:29:32.267,0.754038,3.74447,9.90688,-0.518075,-0.304278,-0.260526,0
2024-12-13 15:29:32.269,0.742074,3.71815,10.0289,-0.518075,-0.304278,-0.257472,0
2024-12-13 15:29:32.272,0.725324,3.68226,10.1438,-0.541898,-0.28412,-0.254418,0
2024-12-13 15:29:32.274,0.682254,3.65354,10.2419,-0.55045,-0.270682,-0.24892,0
2024-12-13 15:29:32.276,0.632004,3.6006,10.3448,-0.55778,-0.256021,-0.240979,0
2024-12-13 15:29:32.276,0.632004,3.6006,10.3448,-0.55778,-0.256021,-0.240979,0
2024-12-13 15:29:32.282,0.574577,3.52642,10.5772,-0.567553,-0.219981,-0.212269,0
2024-12-13 15:29:32.284,0.545863,3.47857,10.6777,-0.567553,-0.219981,-0.212269,0
2024-12-13 15:29:32.288,0.409472,3.41396,10.9002,-0.565721,-0.162562,-0.191501,0
2024-12-13 15:29:32.288,0.409472,3.41396,10.9002,-0.565721,-0.162562,-0.191501,0
2024-12-13 15:29:32.291,0.373579,3.38525,10.9914,-0.55778,-0.140571,-0.180505,0
2024-12-13 15:29:32.293,0.325723,3.35414,11.0704,-0.55778,-0.140571,-0.180505,0
2024-12-13 15:29:32.298,0.248854,3.2991,11.2211,-0.52174,-0.0691021,-0.142022,0
2024-12-13 15:29:32.300,0.210568,3.28235,11.2594,-0.499749,-0.0403923,-0.129805,0
2024-12-13 15:29:32.302,0.181855,3.2656,11.2905,-0.482646,-0.0153475,-0.115756,0
2024-12-13 15:29:32.305,0.138784,3.25364,11.3001,-0.461266,0.010308,-0.105982,0
2024-12-13 15:29:32.309,0.0861416,3.25125,11.281,-0.418507,0.058565,-0.0846023,0
2024-12-13 15:29:32.309,0.0358923,3.24407,11.281,-0.418507,0.058565,-0.0846023,0
2024-12-13 15:29:32.314,-0.0311067,3.25364,11.2427,-0.37025,0.0988809,-0.0650552,0
2024-12-13 15:29:32.314,-0.102891,3.27757,11.1924,-0.37025,0.0988809,-0.0650552,0
2024-12-13 15:29:32.319,-0.157926,3.32064,11.08,-0.326269,0.130034,-0.0467298,0
2024-12-13 15:29:32.321,-0.212961,3.34218,11.0201,-0.326269,0.130034,-0.0467298,0
2024-12-13 15:29:32.324,-0.392722,3.34696,10.9436,-0.302446,0.142251,-0.0357346,0
2024-12-13 15:29:32.324,-0.392722,3.34696,10.9436,-0.302446,0.142251,-0.0357346,0
2024-12-13 15:29:32.326,-0.447757,3.3661,10.8476,-0.261519,0.165463,-0.0161875,0
2024-12-13 15:29:32.331,-0.610469,3.38046,10.692,-0.24075,0.169739,-0.00458135,0
2024-12-13 15:29:32.333,-0.663111,3.39482,10.6011,-0.205932,0.174015,0.0186308,0
2024-12-13 15:29:32.333,-0.663111,3.39482,10.6011,-0.205932,0.174015,0.0186308,0
2024-12-13 15:29:32.338,-0.696611,3.4355,10.4073,-0.176611,0.160576,0.0393996,0
2024-12-13 15:29:32.338,-0.696611,3.4355,10.4073,-0.176611,0.160576,0.0393996,0
2024-12-13 15:29:32.342,-0.782752,3.44028,10.2873,-0.14668,0.157522,0.0601685,0
2024-12-13 15:29:32.345,-0.780359,3.45703,10.2084,-0.14668,0.151414,0.0711637,0
2024-12-13 15:29:32.347,-0.792323,3.46182,10.151,-0.119802,0.146527,0.0791047,0
2024-12-13 15:29:32.352,-0.842872,3.46899,10.0337,-0.0959794,0.134921,0.101706,0
2024-12-13 15:29:32.354,-0.842872,3.46899,10.0337,-0.0843733,0.129423,0.113312,0
2024-12-13 15:29:32.357,-0.897907,3.44028,9.90688,-0.0745997,0.125758,0.123086,0
2024-12-13 15:29:32.357,-0.897907,3.44028,9.90688,-0.0745997,0.125758,0.123086,0
2024-12-13 15:29:32.359,-0.88355,3.42114,9.83031,-0.065437,0.125147,0.135379,0
2024-12-13 15:29:32.361,-0.862014,3.41157,9.75584,-0.065437,0.125147,0.135379,0
2024-12-13 15:29:32.364,-0.821037,3.41396,9.70798,-0.0446682,0.12698,0.154926,0
2024-12-13 15:29:32.368,-0.615255,3.3015,9.67687,-0.0251211,0.122093,0.170197,0
2024-12-13 15:29:32.368,-0.615255,3.3015,9.67687,-0.0251211,0.122093,0.170197,0
2024-12-13 15:29:32.373,-0.710967,3.34218,9.46152,-0.00374144,0.119039,0.173862,0
2024-12-13 15:29:32.373,-0.710967,3.34218,9.46152,-0.00374144,0.119039,0.173862,0
2024-12-13 15:29:32.375,-0.821037,3.44028,9.30838,-0.00374144,0.119039,0.173862,0
2024-12-13 15:29:32.378,-0.854836,3.48574,9.27009,0.0096972,0.13431,0.187301,0
2024-12-13 15:29:32.382,-0.873978,3.51207,9.1669,0.0213033,0.133699,0.202572,0
2024-12-13 15:29:32.382,-0.873978,3.51207,9.1669,0.0213033,0.133699,0.202572,0
2024-12-13 15:29:32.387,-0.792323,3.46182,8.98983,0.0292443,0.129423,0.217843,0
2024-12-13 15:29:32.387,-0.792323,3.46182,8.98983,0.0292443,0.129423,0.217843,0
2024-12-13 15:29:32.392,-0.658325,3.36371,8.8343,0.0347419,0.125147,0.225784,0
2024-12-13 15:29:32.392,-0.658325,3.36371,8.8343,0.0347419,0.125147,0.225784,0
2024-12-13 15:29:32.397,-0.56022,3.30389,8.72902,0.0402396,0.128812,0.225174,0
2024-12-13 15:29:32.397,-0.56022,3.30389,8.72902,0.0402396,0.128812,0.225174,0
2024-12-13 15:29:32.401,-0.557827,3.31585,8.58754,0.0487914,0.136753,0.22273,0
2024-12-13 15:29:32.401,-0.557827,3.31585,8.58754,0.0487914,0.136753,0.22273,0
2024-12-13 15:29:32.406,-0.553041,3.38285,8.46551,0.0573433,0.146527,0.217843,0
2024-12-13 15:29:32.408,-0.553041,3.38285,8.46551,0.0573433,0.146527,0.217843,0
2024-12-13 15:29:32.411,-0.562612,3.44028,8.36979,0.0597867,0.150192,0.218454,0
2024-12-13 15:29:32.413,-0.567398,3.45224,8.31715,0.0597867,0.150192,0.218454,0
2024-12-13 15:29:32.415,-0.533899,3.45942,8.27647,0.0652843,0.155079,0.216011,0
2024-12-13 15:29:32.418,-0.533899,3.45942,8.25015,0.0652843,0.155079,0.216011,0
2024-12-13 15:29:32.420,-0.469292,3.42592,8.21187,0.0658951,0.152025,0.211124,0
2024-12-13 15:29:32.422,-0.3999,3.4331,8.15444,0.0658951,0.152025,0.211124,0
2024-12-13 15:29:32.425,-0.34008,3.4355,8.11825,0.0683385,0.14897,0.203794,0
2024-12-13 15:29:32.427,-0.34008,3.4355,8.08475,0.0683385,0.14897,0.203794,0
2024-12-13 15:29:32.430,-0.248854,3.42832,8.03211,0.0671168,0.137975,0.195853,0
2024-12-13 15:29:32.432,-0.229711,3.4331,7.99143,0.0689494,0.130034,0.190355,0
2024-12-13 15:29:32.434,-0.222533,3.45464,7.95554,0.0646735,0.122704,0.185468,0
2024-12-13 15:29:32.437,-0.20339,3.47857,7.90289,0.0646735,0.122704,0.185468,0
2024-12-13 15:29:32.439,-0.174676,3.49771,7.85743,0.0561216,0.104379,0.172641,0
2024-12-13 15:29:32.441,-0.141177,3.50489,7.82872,0.046348,0.0939941,0.170808,0
2024-12-13 15:29:32.444,-0.0981057,3.50967,7.8024,0.0365745,0.0854423,0.165311,0
2024-12-13 15:29:32.446,-0.0550349,3.50967,7.77129,0.0237467,0.0756687,0.160424,0
2024-12-13 15:29:32.448,-0.0287139,3.51207,7.73779,0.0237467,0.0756687,0.160424,0
2024-12-13 15:29:32.451,-0.0119641,3.50249,7.71147,-0.00862822,0.058565,0.153704,0
2024-12-13 15:29:32.453,0.0191426,3.49053,7.7019,-0.00862822,0.058565,0.153704,0
2024-12-13 15:29:32.458,0.0765703,3.5001,7.69233,-0.0715455,0.0280226,0.138433,0
2024-12-13 15:29:32.458,0.114855,3.5001,7.69711,-0.0715455,0.0280226,0.138433,0
2024-12-13 15:29:32.460,0.150748,3.50249,7.72583,-0.0715455,0.0280226,0.138433,0
2024-12-13 15:29:32.465,0.181855,3.50249,7.80958,-0.145458,0.00175619,0.123086,0
2024-12-13 15:29:32.465,0.181855,3.50249,7.80958,-0.145458,0.00175619,0.123086,0
2024-12-13 15:29:32.467,0.191426,3.48096,7.9005,-0.169281,-0.00557398,0.118199,0
2024-12-13 15:29:32.470,0.210568,3.46182,7.99861,-0.195547,-0.0110716,0.11209,0
2024-12-13 15:29:32.474,0.222533,3.42832,8.25494,-0.234642,-0.0220669,0.101706,0
2024-12-13 15:29:32.477,0.232104,3.40439,8.38654,-0.253578,-0.0220669,0.0968193,0
2024-12-13 15:29:32.479,0.253639,3.39721,8.51815,-0.268849,-0.0208452,0.0925434,0
2024-12-13 15:29:32.481,0.253639,3.38046,8.64497,-0.281677,-0.0238994,0.0882674,0
2024-12-13 15:29:32.484,0.253639,3.38046,8.64497,-0.290229,-0.0202343,0.0846023,0
2024-12-13 15:29:32.486,0.253639,3.335,8.92284,-0.29817,-0.0147367,0.0797156,0
2024-12-13 15:29:32.488,0.253639,3.30628,9.05683,-0.304889,-0.00923906,0.0748288,0
2024-12-13 15:29:32.491,0.270389,3.28235,9.19083,-0.310998,0.000534491,0.0717745,0
2024-12-13 15:29:32.491,0.270389,3.28235,9.19083,-0.310998,0.000534491,0.0717745,0
2024-12-13 15:29:32.495,0.318545,3.20818,9.45913,-0.31283,0.00419957,0.0681095,0
2024-12-13 15:29:32.498,0.34008,3.16511,9.57398,-0.310387,0.0109189,0.0589468,0
2024-12-13 15:29:32.498,0.34008,3.16511,9.57398,-0.310387,0.0109189,0.0589468,0
2024-12-13 15:29:32.505,0.359223,3.09811,9.94995,-0.300613,0.014584,0.0485624,0
2024-12-13 15:29:32.505,0.359223,3.09811,9.94995,-0.300613,0.014584,0.0485624,0
2024-12-13 15:29:32.507,0.361615,3.09093,10.0624,-0.293283,0.0164165,0.0467298,0
2024-12-13 15:29:32.507,0.361615,3.09093,10.0624,-0.293283,0.0164165,0.0467298,0
2024-12-13 15:29:32.512,0.373579,3.06909,10.2706,-0.279234,0.0188599,0.041843,0
2024-12-13 15:29:32.514,0.371187,3.06192,10.3615,-0.271293,0.0206925,0.0412322,0
2024-12-13 15:29:32.517,0.366401,3.06431,10.4336,-0.260297,0.0243575,0.041843,0
2024-12-13 15:29:32.519,0.366401,3.07388,10.4934,-0.24808,0.0286335,0.0412322,0
2024-12-13 15:29:32.521,0.390329,3.08106,10.5532,-0.243194,0.0316877,0.0442864,0
2024-12-13 15:29:32.524,0.387936,3.09093,10.6011,-0.231587,0.0347419,0.0473407,0
2024-12-13 15:29:32.528,0.41665,3.1005,10.6849,-0.210208,0.0420721,0.0510057,0
2024-12-13 15:29:32.528,0.41665,3.1005,10.6849,-0.210208,0.0420721,0.0510057,0
2024-12-13 15:29:32.533,0.431007,3.1005,10.7542,-0.19005,0.0512348,0.0589468,0
2024-12-13 15:29:32.536,0.431007,3.1005,10.783,-0.19005,0.0512348,0.0589468,0
2024-12-13 15:29:32.543,0.495613,3.15075,10.7901,-0.148512,0.0707819,0.0736071,0
2024-12-13 15:29:32.545,0.517149,3.14118,10.783,-0.148512,0.0707819,0.0736071,0
2024-12-13 15:29:32.547,0.519542,3.15075,10.771,-0.129576,0.0836097,0.0827698,0
2024-12-13 15:29:32.547,0.519542,3.15075,10.771,-0.129576,0.0836097,0.0827698,0
2024-12-13 15:29:32.552,0.536291,3.21775,10.7566,-0.112472,0.094605,0.0907108,0
2024-12-13 15:29:32.552,0.536291,3.21775,10.7566,-0.112472,0.094605,0.0907108,0
2024-12-13 15:29:32.557,0.507577,3.24168,10.7303,-0.0978119,0.1056,0.0998735,0
2024-12-13 15:29:32.559,0.507577,3.24646,10.7375,-0.0978119,0.1056,0.0998735,0
2024-12-13 15:29:32.561,0.476471,3.268,10.7088,-0.0837624,0.116595,0.11209,0
2024-12-13 15:29:32.561,0.476471,3.268,10.7088,-0.0837624,0.116595,0.11209,0
2024-12-13 15:29:32.566,0.524327,3.32543,10.6537,-0.0691021,0.124536,0.122475,0
2024-12-13 15:29:32.566,0.524327,3.32543,10.6537,-0.0691021,0.124536,0.122475,0
2024-12-13 15:29:32.571,0.56022,3.37567,10.6298,-0.0642153,0.12698,0.127972,0
2024-12-13 15:29:32.573,0.569791,3.3996,10.6394,-0.0642153,0.12698,0.127972,0
2024-12-13 15:29:32.576,0.593719,3.42832,10.6633,-0.0434465,0.129423,0.139044,0
2024-12-13 15:29:32.576,0.593719,3.42832,10.6633,-0.0434465,0.129423,0.139044,0
2024-12-13 15:29:32.580,0.612862,3.49292,10.704,-0.0330621,0.128202,0.142098,0
2024-12-13 15:29:32.583,0.60329,3.51446,10.7303,-0.0330621,0.128202,0.146374,0
2024-12-13 15:29:32.585,0.588933,3.55274,10.7638,-0.0153475,0.128812,0.148818,0
2024-12-13 15:29:32.587,0.581755,3.58385,10.8141,-0.0153475,0.128812,0.148818,0
2024-12-13 15:29:32.590,0.588933,3.58385,10.8667,0.00664296,0.128812,0.148818,0
2024-12-13 15:29:32.592,0.598505,3.61735,10.9026,0.0194708,0.127591,0.151261,0
2024-12-13 15:29:32.594,0.584148,3.65593,10.9436,0.0329094,0.123926,0.150039,0
2024-12-13 15:29:32.597,0.581755,3.68465,10.9771,0.0469589,0.121482,0.151261,0
2024-12-13 15:29:32.599,0.593719,3.73011,11.0225,0.0591758,0.115985,0.15065,0
2024-12-13 15:29:32.601,0.591326,3.77079,11.0776,0.0707819,0.106211,0.151261,0
2024-12-13 15:29:32.604,0.593719,3.7995,11.123,0.0842206,0.0964375,0.147596,0
2024-12-13 15:29:32.606,0.600898,3.82582,11.19,0.0994917,0.0848314,0.145763,0
2024-12-13 15:29:32.609,0.62004,3.8689,11.2427,0.115374,0.0732253,0.144542,0
2024-12-13 15:29:32.611,0.641576,3.91675,11.269,0.115374,0.0610084,0.141487,0
2024-12-13 15:29:32.613,0.65354,3.94786,11.3025,0.143473,0.0500131,0.140877,0
2024-12-13 15:29:32.616,0.665504,3.96939,11.3456,0.160576,0.0396287,0.139044,0
2024-12-13 15:29:32.618,0.675075,3.99093,11.3743,0.175237,0.030466,0.135379,0
2024-12-13 15:29:32.620,0.687039,4.00529,11.3839,0.175237,0.0231358,0.136601,0
2024-12-13 15:29:32.625,0.701396,3.99332,11.403,0.208833,0.00358873,0.134768,0
2024-12-13 15:29:32.625,0.732503,3.98136,11.4341,0.208833,0.00358873,0.134768,0
2024-12-13 15:29:32.627,0.754038,3.98136,11.4772,0.217385,-0.00496313,0.132859,0
2024-12-13 15:29:32.630,0.770788,3.97179,11.5229,0.224105,-0.0141258,0.130416,0
2024-12-13 15:29:32.634,0.813859,3.97657,11.6593,0.2351,-0.0269536,0.127972,0
2024-12-13 15:29:32.634,0.813859,3.97657,11.6593,0.2351,-0.0269536,0.127972,0
2024-12-13 15:29:32.639,0.80668,3.99811,11.8675,0.241208,-0.0330621,0.126751,0
2024-12-13 15:29:32.640,0.799502,3.99811,11.8675,0.241208,-0.0330621,0.126751,0
2024-12-13 15:29:32.644,0.739681,4.01725,12.0927,0.246706,-0.0275645,0.124307,0
2024-12-13 15:29:32.644,0.739681,4.01725,12.0927,0.246706,-0.0275645,0.124307,0
2024-12-13 15:29:32.649,0.672682,4.07468,12.3057,0.253425,-0.0177909,0.12614,0
2024-12-13 15:29:32.651,0.672682,4.09621,12.3847,0.255869,-0.0129041,0.12614,0
2024-12-13 15:29:32.653,0.663111,4.12253,12.4493,0.263199,-0.00496313,0.122475,0
2024-12-13 15:29:32.656,0.651147,4.12732,12.4995,0.263199,-0.00496313,0.122475,0
2024-12-13 15:29:32.658,0.643968,4.1345,12.5737,0.270529,0.00847551,0.119421,0
2024-12-13 15:29:32.660,0.643968,4.1345,12.6673,0.270529,0.00847551,0.119421,0
2024-12-13 15:29:32.663,0.581755,4.19193,12.7726,0.288244,0.030466,0.113312,0
2024-12-13 15:29:32.663,0.581755,4.19193,12.7726,0.288244,0.030466,0.113312,0
2024-12-13 15:29:32.667,0.550648,4.21376,12.9018,0.311456,0.0494023,0.107815,0
2024-12-13 15:29:32.670,0.550648,4.21376,12.9592,0.311456,0.0494023,0.107815,0
2024-12-13 15:29:32.672,0.519542,4.26401,13.0119,0.340166,0.0610084,0.102928,0
2024-12-13 15:29:32.674,0.500399,4.28315,13.0167,0.340166,0.0610084,0.102928,0
2024-12-13 15:29:32.677,0.488435,4.28076,12.9999,0.374449,0.058565,0.0901,0
2024-12-13 15:29:32.679,0.454935,4.2999,12.9832,0.374449,0.058565,0.0901,0
2024-12-13 15:29:32.682,0.419043,4.32862,12.9425,0.408046,0.0469589,0.0815481,0
2024-12-13 15:29:32.684,0.3999,4.35015,12.8898,0.425761,0.0414613,0.0760505,0
2024-12-13 15:29:32.686,0.409472,4.39083,12.83,0.439199,0.0335202,0.0723854,0
2024-12-13 15:29:32.689,0.426222,4.42194,12.7391,0.456303,0.0219141,0.0681095,0
2024-12-13 15:29:32.693,0.4334,4.44347,12.6506,0.477072,-0.000687203,0.0565034,0
2024-12-13 15:29:32.693,0.428614,4.47697,12.5761,0.477072,-0.000687203,0.0565034,0
2024-12-13 15:29:32.698,0.409472,4.5679,12.3775,0.492954,-0.0275645,0.046119,0
2024-12-13 15:29:32.698,0.409472,4.5679,12.3775,0.492954,-0.0275645,0.046119,0
2024-12-13 15:29:32.700,0.359223,4.61336,12.2889,0.492954,-0.0275645,0.046119,0
2024-12-13 15:29:32.703,0.301795,4.67797,12.1837,0.491121,-0.0617719,0.0351237,0
2024-12-13 15:29:32.707,0.208176,4.76411,12.0063,0.477683,-0.0904818,0.0302369,0
2024-12-13 15:29:32.710,0.177069,4.81466,11.9608,0.477683,-0.0904818,0.0302369,0
2024-12-13 15:29:32.712,0.155533,4.8673,11.9106,0.455081,-0.119802,0.0235176,0
2024-12-13 15:29:32.715,0.129212,4.91037,11.8268,0.455081,-0.119802,0.0235176,0
2024-12-13 15:29:32.717,0.0933201,4.9343,11.7718,0.422706,-0.144236,0.01802,0
2024-12-13 15:29:32.719,0.0717847,4.95105,11.7503,0.400716,-0.156453,0.0174091,0
2024-12-13 15:29:32.722,0.0598206,4.95105,11.7168,0.378114,-0.170503,0.0149658,0
2024-12-13 15:29:32.724,0.0478565,4.94148,11.7024,0.354826,-0.184552,0.0155766,0
2024-12-13 15:29:32.729,0.0550349,4.91755,11.7598,0.297406,-0.225479,0.0155766,0
2024-12-13 15:29:32.729,0.0550349,4.91755,11.7598,0.297406,-0.225479,0.0155766,0
2024-12-13 15:29:32.733,0.0909273,4.84577,11.8627,0.233267,-0.267017,0.0210742,0
2024-12-13 15:29:32.733,0.0909273,4.84577,11.8627,0.233267,-0.267017,0.0210742,0
2024-12-13 15:29:32.738,0.160319,4.73061,12.0832,0.164852,-0.300002,0.0284044,0
2024-12-13 15:29:32.740,0.184247,4.666,12.2507,0.128812,-0.310387,0.0375671,0
2024-12-13 15:29:32.740,0.184247,4.666,12.2507,0.128812,-0.310387,0.0375671,0
2024-12-13 15:29:32.745,0.205783,4.51286,12.612,0.0958267,-0.312219,0.0473407,0
2024-12-13 15:29:32.747,0.217747,4.41236,12.8372,0.0341311,-0.303057,0.0729962,0
2024-12-13 15:29:32.750,0.260818,4.30708,13.0765,0.00847551,-0.291451,0.0882674,0
2024-12-13 15:29:32.755,0.375972,4.09143,13.5003,-0.0397814,-0.249913,0.120642,0
2024-12-13 15:29:32.755,0.332901,4.09143,13.5003,-0.0397814,-0.249913,0.120642,0
2024-12-13 15:29:32.759,0.419043,3.77557,14.0007,-0.0629936,-0.179055,0.159202,0
2024-12-13 15:29:32.759,0.419043,3.77557,14.0007,-0.0629936,-0.179055,0.159202,0
2024-12-13 15:29:32.764,0.512363,3.48096,14.3264,-0.0623828,-0.073378,0.198296,0
2024-12-13 15:29:32.765,0.512363,3.48096,14.3264,-0.0623828,-0.073378,0.198296,0
2024-12-13 15:29:32.769,0.462114,3.10289,14.5968,-0.049555,0.0469589,0.241056,0
2024-12-13 15:29:32.769,0.462114,3.10289,14.5968,-0.049555,0.0469589,0.241056,0
2024-12-13 15:29:32.773,0.517149,2.70299,14.7165,-0.021456,0.169739,0.280761,0
2024-12-13 15:29:32.774,0.517149,2.70299,14.7165,-0.021456,0.169739,0.280761,0
2024-12-13 15:29:32.778,0.555434,2.31027,14.7523,0.00114534,0.27114,0.31619,0
2024-12-13 15:29:32.778,0.555434,2.31027,14.7523,0.00114534,0.27114,0.31619,0
2024-12-13 15:29:32.783,0.579362,1.9343,14.7547,0.0151948,0.342609,0.346732,0
2024-12-13 15:29:32.785,0.591326,1.75244,14.7547,0.0151948,0.342609,0.346732,3
2024-12-13 15:29:32.788,0.567398,1.57537,14.7547,0.0237467,0.390255,0.370555,0
2024-12-13 15:29:32.790,0.531506,1.41027,14.7571,0.0237467,0.390255,0.370555,0
2024-12-13 15:29:32.792,0.517149,1.24965,14.75,0.0359636,0.428128,0.390102,0
2024-12-13 15:29:32.795,0.514756,1.09651,14.7404,0.0451263,0.441566,0.399265,0
2024-12-13 15:29:32.797,0.502792,0.97687,14.7141,0.0542891,0.453172,0.407206,0
2024-12-13 15:29:32.799,0.4669,0.878764,14.6782,0.0652843,0.467222,0.413925,0
2024-12-13 15:29:32.802,0.431007,0.782752,14.6519,0.0829989,0.478828,0.418201,0
2024-12-13 15:29:32.804,0.414257,0.71336,14.6207,0.103157,0.490434,0.423699,0
2024-12-13 15:29:32.806,0.392722,0.660718,14.5729,0.125758,0.508149,0.427364,0
2024-12-13 15:29:32.809,0.354437,0.627219,14.4939,0.153246,0.527085,0.429197,0
2024-12-13 15:29:32.811,0.316152,0.617647,14.3695,0.186232,0.546021,0.429807,0
2024-12-13 15:29:32.814,0.292223,0.62004,14.2137,0.22044,0.570455,0.431029,0
2024-12-13 15:29:32.816,0.251246,0.634397,14.0294,0.258923,0.596721,0.427975,0
2024-12-13 15:29:32.820,0.136391,0.663111,13.5482,0.340776,0.651087,0.41759,0
2024-12-13 15:29:32.820,0.136391,0.663111,13.5482,0.340776,0.651087,0.41759,0
2024-12-13 15:29:32.823,0.0693919,0.684646,13.2682,0.383612,0.673077,0.409649,0
2024-12-13 15:29:32.825,-0.00957129,0.720539,12.9832,0.429426,0.698733,0.399265,0
2024-12-13 15:29:32.828,-0.102891,0.770788,12.7008,0.474628,0.720189,0.389491,0
2024-12-13 15:29:32.830,-0.208176,0.811466,12.4205,0.524107,0.740958,0.377885,0
2024-12-13 15:29:32.832,-0.301795,0.893121,12.1358,0.524107,0.740958,0.377885,0
2024-12-13 15:29:32.835,-0.421436,0.986441,11.8292,0.572364,0.770278,0.355895,0
2024-12-13 15:29:32.837,-0.524327,1.05583,11.4796,0.665213,0.777609,0.3449,0
2024-12-13 15:29:32.842,-0.76361,1.22572,10.7734,0.750731,0.776998,0.325963,0
2024-12-13 15:29:32.842,-0.76361,1.22572,10.7734,0.750731,0.776998,0.325963,0
2024-12-13 15:29:32.844,-0.8668,1.29272,10.4384,0.750731,0.776998,0.325963,0
2024-12-13 15:29:32.846,-0.945763,1.33101,10.0935,0.82892,0.759894,0.309471,0
2024-12-13 15:29:32.851,-1.05105,1.42223,9.41127,0.89428,0.730573,0.291145,0
2024-12-13 15:29:32.851,-1.05105,1.42223,9.41127,0.89428,0.730573,0.291145,0
2024-12-13 15:29:32.856,-1.09651,1.54427,8.8678,0.946202,0.682851,0.277706,0
2024-12-13 15:29:32.858,-1.09651,1.57298,8.59233,0.970636,0.654141,0.271598,0
2024-12-13 15:29:32.861,-1.07498,1.59452,8.31237,0.970636,0.654141,0.271598,0
2024-12-13 15:29:32.863,-1.07258,1.63998,8.02254,0.983464,0.628486,0.261824,0
2024-12-13 15:29:32.865,-1.07737,1.72852,7.7354,0.997514,0.579007,0.236169,0
2024-12-13 15:29:32.865,-1.07737,1.72852,7.7354,0.997514,0.579007,0.236169,0
2024-12-13 15:29:32.870,-1.08215,1.94387,7.21107,0.986518,0.539302,0.20807,0
2024-12-13 15:29:32.872,-1.08215,1.94387,7.01964,0.986518,0.539302,0.20807,0
2024-12-13 15:29:32.875,-1.07498,2.15474,6.83988,0.953533,0.489212,0.181803,0
2024-12-13 15:29:32.877,-1.07498,2.24088,6.69631,0.953533,0.489212,0.181803,0
2024-12-13 15:29:32.879,-1.11565,2.31984,6.59582,0.905886,0.424462,0.159813,0
2024-12-13 15:29:32.882,-1.14915,2.37009,6.5025,0.905886,0.424462,0.159813,0
2024-12-13 15:29:32.884,-1.19222,2.39641,6.4328,0.839304,0.354826,0.142098,0
2024-12-13 15:29:32.886,-1.24726,2.42513,6.38016,0.839304,0.354826,0.142098,0
2024-12-13 15:29:32.889,-1.2999,2.46102,6.33948,0.766613,0.293741,0.134157,0
2024-12-13 15:29:32.891,-1.33579,2.48495,6.31316,0.766613,0.293741,0.131027,0
2024-12-13 15:29:32.894,-1.37408,2.49212,6.28924,0.683538,0.241208,0.131638,0
2024-12-13 15:29:32.896,-1.41745,2.49212,6.27727,0.642,0.218607,0.134768,0
2024-12-13 15:29:32.898,-1.44616,2.48973,6.29402,0.602295,0.197838,0.140266,0
2024-12-13 15:29:32.901,-1.46291,2.48255,6.30598,0.602295,0.197838,0.140266,0
2024-12-13 15:29:32.903,-1.4677,2.47298,6.32513,0.519831,0.171572,0.152483,0
2024-12-13 15:29:32.905,-1.46052,2.47059,6.36341,0.481348,0.158133,0.159813,0
2024-12-13 15:29:32.908,-1.44616,2.4682,6.4017,0.443475,0.145305,0.170197,0
2024-12-13 15:29:32.910,-1.41745,2.46341,6.4352,0.443475,0.145305,0.180582,0
2024-12-13 15:29:32.912,-1.39083,2.45145,6.469,0.373839,0.137364,0.190966,0
2024-12-13 15:29:32.915,-1.32861,2.44905,6.48575,0.339555,0.132477,0.201351,0
2024-12-13 15:29:32.917,-1.30708,2.43709,6.56949,0.30718,0.127591,0.208681,0
2024-12-13 15:29:32.919,-1.34058,2.41555,6.6676,0.279081,0.134921,0.217843,0
2024-12-13 15:29:32.924,-1.32861,2.4012,6.69153,0.226548,0.152025,0.235558,0
2024-12-13 15:29:32.924,-1.29272,2.37727,6.72264,0.226548,0.152025,0.235558,0
2024-12-13 15:29:32.929,-1.26162,2.35573,6.74896,0.178902,0.176459,0.254494,0
2024-12-13 15:29:32.929,-1.23769,2.35095,6.78724,0.178902,0.176459,0.254494,0
2024-12-13 15:29:32.934,-1.21137,2.33181,6.84706,0.13431,0.19906,0.269765,0
2024-12-13 15:29:32.936,-1.18744,2.31984,6.89492,0.111709,0.204557,0.277706,0
2024-12-13 15:29:32.938,-1.15394,2.30788,6.95952,0.0891073,0.208223,0.283204,0
2024-12-13 15:29:32.941,-1.11805,2.30548,7.01725,0.0891073,0.208223,0.283204,0
2024-12-13 15:29:32.943,-1.11805,2.30548,7.05793,0.0487914,0.217385,0.289313,0
2024-12-13 15:29:32.943,-1.08694,2.30788,7.05793,0.0487914,0.217385,0.289313,0
2024-12-13 15:29:32.948,-0.99362,2.28873,7.15364,0.0109189,0.22777,0.285647,0
2024-12-13 15:29:32.948,-0.99362,2.28873,7.15364,0.0109189,0.22777,0.285647,0
2024-12-13 15:29:32.952,-0.936192,2.27199,7.24218,-0.0226777,0.237543,0.275874,0
2024-12-13 15:29:32.952,-0.936192,2.27199,7.24218,-0.0226777,0.237543,0.275874,0
2024-12-13 15:29:32.957,-0.9003,2.24566,7.35703,-0.0458899,0.244263,0.261214,0
2024-12-13 15:29:32.957,-0.9003,2.24566,7.35703,-0.0458899,0.244263,0.261214,0
2024-12-13 15:29:32.962,-0.876371,2.26002,7.49582,-0.0660479,0.246095,0.245332,0
2024-12-13 15:29:32.964,-0.871586,2.2672,7.54128,-0.0660479,0.246095,0.245332,0
2024-12-13 15:29:32.967,-0.869193,2.27916,7.57747,-0.0752106,0.244873,0.227617,0
2024-12-13 15:29:32.967,-0.869193,2.27916,7.57747,-0.0752106,0.244873,0.227617,0
2024-12-13 15:29:32.971,-0.813859,2.29591,7.64686,-0.077654,0.243041,0.20807,0
2024-12-13 15:29:32.971,-0.813859,2.29591,7.64686,-0.077654,0.243041,0.20807,0
2024-12-13 15:29:32.976,-0.751645,2.29591,7.64447,-0.0764323,0.247928,0.186079,0
2024-12-13 15:29:32.976,-0.751645,2.29591,7.64447,-0.0764323,0.247928,0.186079,0
2024-12-13 15:29:32.981,-0.699003,2.32223,7.69472,-0.073378,0.252204,0.162867,0
2024-12-13 15:29:32.983,-0.699003,2.32223,7.69472,-0.073378,0.252204,0.162867,0
2024-12-13 15:29:32.985,-0.687039,2.34856,7.74736,-0.0617719,0.254036,0.139044,0
2024-12-13 15:29:32.990,-0.703789,2.35813,7.77368,-0.049555,0.254036,0.118199,0
2024-12-13 15:29:32.990,-0.71336,2.37966,7.77368,-0.049555,0.254036,0.118199,0
2024-12-13 15:29:32.992,-0.701396,2.40598,7.81197,-0.049555,0.254036,0.118199,0
2024-12-13 15:29:32.995,-0.687039,2.4347,7.82872,-0.033673,0.246706,0.0968193,0
2024-12-13 15:29:32.997,-0.665504,2.45863,7.81197,-0.033673,0.246706,0.0852132,0
2024-12-13 15:29:32.999,-0.655932,2.48255,7.8,-0.0159584,0.238765,0.0748288,0
2024-12-13 15:29:33.002,-0.651147,2.51127,7.7689,-0.0159584,0.238765,0.0748288,0
2024-12-13 15:29:33.004,-0.634397,2.53549,7.73779,0.00542127,0.231435,0.0552817,0
2024-12-13 15:29:33.008,-0.639183,2.55224,7.6995,0.0194708,0.233878,0.0467298,0
2024-12-13 15:29:33.011,-0.663111,2.59292,7.57747,0.0390179,0.233878,0.0332912,0
2024-12-13 15:29:33.011,-0.663111,2.59292,7.57747,0.0390179,0.233878,0.0332912,0
2024-12-13 15:29:33.016,-0.687039,2.61207,7.47428,0.0512348,0.2351,0.0265719,0
2024-12-13 15:29:33.021,-0.73011,2.63839,7.31635,0.0561216,0.236322,0.0229068,0
2024-12-13 15:29:33.023,-0.754038,2.65753,7.24457,0.0573433,0.224715,0.0229068,0
2024-12-13 15:29:33.025,-0.782752,2.67189,7.17757,0.0536782,0.221661,0.0241285,0
2024-12-13 15:29:33.028,-0.818644,2.71496,7.10818,0.0494023,0.217385,0.025961,0
2024-12-13 15:29:33.030,-0.871586,2.75324,7.03639,0.0494023,0.217385,0.025961,0
2024-12-13 15:29:33.035,-0.912264,2.79392,6.99302,0.022525,0.203336,0.0363454,0
2024-12-13 15:29:33.035,-0.919442,2.79392,6.99302,0.022525,0.203336,0.0363454,0
2024-12-13 15:29:33.040,-0.931406,2.80349,6.94756,-7.63559e-05,0.201503,0.0442864,0
2024-12-13 15:29:33.042,-0.929013,2.79631,6.93081,-7.63559e-05,0.201503,0.0442864,0
2024-12-13 15:29:33.047,-0.945763,2.81067,6.89013,-0.033673,0.209444,0.0552817,0
2024-12-13 15:29:33.051,-0.97687,2.81067,6.85903,-0.0556635,0.217996,0.0656661,0
2024-12-13 15:29:33.052,-0.97687,2.81067,6.85903,-0.0678804,0.225326,0.0705529,0
2024-12-13 15:29:33.054,-0.981655,2.81067,6.85903,-0.0678804,0.225326,0.0705529,0
2024-12-13 15:29:33.056,-0.979263,2.81067,6.85663,-0.0807082,0.232656,0.0754396,0
2024-12-13 15:29:33.056,-0.979263,2.81067,6.85663,-0.0807082,0.232656,0.0754396,0
2024-12-13 15:29:33.056,-0.979263,2.81067,6.85663,-0.0807082,0.232656,0.0754396,0
2024-12-13 15:29:33.056,-0.979263,2.81067,6.85663,-0.0807082,0.232656,0.0754396,0
2024-12-13 15:29:33.070,-1.06062,2.74367,6.97627,-0.137517,0.29985,0.105371,0
2024-12-13 15:29:33.070,-1.06062,2.74367,6.97627,-0.137517,0.29985,0.105371,0
2024-12-13 15:29:33.077,-1.04865,2.73649,7.07229,-0.150345,0.327949,0.116977,0
2024-12-13 15:29:33.080,-1.04865,2.73649,7.07229,-0.151566,0.334057,0.121864,0
2024-12-13 15:29:33.080,-1.05583,2.72213,7.09382,-0.151566,0.334057,0.121864,0
2024-12-13 15:29:33.080,-1.05583,2.72213,7.09382,-0.151566,0.334057,0.121864,0
2024-12-13 15:29:33.089,-1.07498,2.74606,7.13929,-0.152788,0.35788,0.135379,0
2024-12-13 15:29:33.089,-1.07498,2.74606,7.13929,-0.152788,0.35788,0.135379,0
2024-12-13 15:29:33.094,-1.06062,2.71974,7.17039,-0.149734,0.362156,0.139655,0
2024-12-13 15:29:33.096,-1.02473,2.7006,7.19671,-0.143625,0.362156,0.139655,0
2024-12-13 15:29:33.103,-1.04387,2.75803,7.2015,-0.128354,0.35055,0.137822,0
2024-12-13 15:29:33.105,-1.07019,2.79631,7.19671,-0.128354,0.35055,0.137822,0
2024-12-13 15:29:33.108,-1.08933,2.8346,7.19671,-0.117359,0.339555,0.139655,0
2024-12-13 15:29:33.113,-1.07258,2.86331,7.17996,-0.113083,0.326727,0.137822,0
2024-12-13 15:29:33.115,-1.07976,2.8657,7.18714,-0.107585,0.296795,0.138433,0
2024-12-13 15:29:33.117,-1.08455,2.85853,7.20628,-0.107585,0.296795,0.138433,0
2024-12-13 15:29:33.120,-1.08455,2.85613,7.22064,-0.105142,0.257701,0.138433,0
2024-12-13 15:29:33.122,-1.10369,2.87049,7.22543,-0.105142,0.236932,0.137212,0
2024-12-13 15:29:33.124,-1.10369,2.89442,7.24696,-0.105142,0.236932,0.137212,0
2024-12-13 15:29:33.127,-1.10848,2.91595,7.25653,-0.104531,0.199671,0.136601,0
2024-12-13 15:29:33.131,-1.1683,2.91356,7.27807,-0.10392,0.168517,0.140266,0
2024-12-13 15:29:33.134,-1.17787,2.92313,7.29482,-0.10392,0.168517,0.140266,0
2024-12-13 15:29:33.136,-1.17069,2.93031,7.29721,-0.108196,0.137975,0.142098,0
2024-12-13 15:29:33.138,-1.15394,2.9351,7.29243,-0.108196,0.137975,0.142098,0
2024-12-13 15:29:33.138,-1.15394,2.9351,7.29243,-0.108196,0.137975,0.142098,0
2024-12-13 15:29:33.138,-1.15394,2.9351,7.29243,-0.108196,0.137975,0.142098,0
2024-12-13 15:29:33.138,-1.15394,2.9351,7.29243,-0.108196,0.137975,0.142098,0
2024-12-13 15:29:33.153,-1.04626,3.01884,7.31157,-0.149734,0.0860531,0.162867,0
2024-12-13 15:29:33.155,-1.02233,3.03559,7.30439,-0.159507,0.0848314,0.168365,0
2024-12-13 15:29:33.157,-1.02233,3.03559,7.30439,-0.159507,0.0848314,0.168365,0
2024-12-13 15:29:33.162,-1.00558,3.07149,7.31635,-0.194937,0.0878856,0.176306,0
2024-12-13 15:29:33.164,-1.00319,3.06909,7.32114,-0.194937,0.0878856,0.176306,0
2024-12-13 15:29:33.168,-1.05105,3.05952,7.33071,-0.21876,0.0939941,0.192188,0
2024-12-13 15:29:33.169,-1.05823,3.07627,7.37617,-0.21876,0.0939941,0.192188,0
2024-12-13 15:29:33.174,-1.05344,3.08106,7.45514,-0.261519,0.094605,0.198907,0
2024-12-13 15:29:33.176,-1.02951,3.08854,7.49821,-0.261519,0.094605,0.198907,0
2024-12-13 15:29:33.178,-1.01276,3.08345,7.54128,-0.29817,0.094605,0.203794,0
2024-12-13 15:29:33.181,-1.00798,3.08106,7.61336,-0.316495,0.0915507,0.206848,0
2024-12-13 15:29:33.186,-1.01755,3.06909,7.82393,-0.345205,0.0836097,0.213567,0
2024-12-13 15:29:33.188,-1.02233,3.07627,7.94597,-0.361087,0.0781121,0.216011,0
2024-12-13 15:29:33.193,-1.02712,3.09093,8.06082,-0.383078,0.0677277,0.223952,0
2024-12-13 15:29:33.193,-1.02473,3.09811,8.15205,-0.383078,0.0677277,0.223952,0
2024-12-13 15:29:33.197,-0.974477,3.11246,8.35544,-0.39896,0.0530674,0.230671,0
2024-12-13 15:29:33.197,-0.974477,3.11246,8.35544,-0.39896,0.0530674,0.230671,0
2024-12-13 15:29:33.202,-0.912264,3.12204,8.56601,-0.408733,0.0329094,0.233725,0
2024-12-13 15:29:33.202,-0.912264,3.12204,8.56601,-0.408733,0.0329094,0.233725,0
2024-12-13 15:29:33.208,-0.8668,3.10768,8.75534,-0.414231,-0.00557398,0.238001,0
2024-12-13 15:29:33.209,-0.830609,3.13639,8.84387,-0.414231,-0.00557398,0.238001,0
2024-12-13 15:29:33.211,-0.811466,3.13879,8.92284,-0.412398,-0.0202343,0.23678,0
2024-12-13 15:29:33.216,-0.761217,3.12443,9.0353,-0.408733,-0.0544418,0.236169,0
2024-12-13 15:29:33.219,-0.751645,3.14836,9.12623,-0.408733,-0.0544418,0.236169,0
2024-12-13 15:29:33.221,-0.737288,3.17468,9.22912,-0.400792,-0.0904818,0.233725,0
2024-12-13 15:29:33.226,-0.694218,3.22014,9.41366,-0.386743,-0.129576,0.231893,0
2024-12-13 15:29:33.226,-0.694218,3.22014,9.41366,-0.386743,-0.129576,0.231893,0
2024-12-13 15:29:33.230,-0.651147,3.23928,9.55484,-0.369639,-0.162562,0.227006,0
2024-12-13 15:29:33.230,-0.612862,3.268,9.55484,-0.369639,-0.162562,0.227006,0
2024-12-13 15:29:33.235,-0.524327,3.33978,9.66252,-0.350703,-0.188217,0.219676,0
2024-12-13 15:29:33.235,-0.524327,3.33978,9.66252,-0.350703,-0.188217,0.219676,0
2024-12-13 15:29:33.240,-0.426222,3.38764,9.72952,-0.331156,-0.20471,0.208681,0
2024-12-13 15:29:33.242,-0.390329,3.41635,9.75105,-0.331156,-0.20471,0.208681,0
2024-12-13 15:29:33.244,-0.361615,3.45942,9.77977,-0.313441,-0.213262,0.192799,0
2024-12-13 15:29:33.250,-0.318545,3.52164,9.81566,-0.294505,-0.215095,0.166532,0
2024-12-13 15:29:33.251,-0.30658,3.51207,9.79891,-0.294505,-0.215095,0.166532,0
2024-12-13 15:29:33.254,-0.30658,3.51207,9.81805,-0.294505,-0.215095,0.166532,0
2024-12-13 15:29:33.256,-0.246461,3.52642,9.88296,-0.289618,-0.201656,0.154926,0
2024-12-13 15:29:33.259,-0.229711,3.56231,9.95953,-0.287785,-0.196158,0.145763,0
2024-12-13 15:29:33.261,-0.210568,3.60299,10.0193,-0.287785,-0.196158,0.145763,0
2024-12-13 15:29:33.263,-0.212961,3.63889,10.072,-0.288396,-0.194937,0.131638,0
2024-12-13 15:29:33.268,-0.212961,3.72054,10.261,-0.292672,-0.190661,0.116366,0
2024-12-13 15:29:33.270,-0.200997,3.78275,10.3663,-0.292672,-0.190661,0.116366,0
2024-12-13 15:29:33.273,-0.172283,3.83779,10.4575,-0.296948,-0.183941,0.0986518,0
2024-12-13 15:29:33.275,-0.138784,3.88804,10.5509,-0.296948,-0.183941,0.0986518,0
2024-12-13 15:29:33.277,-0.119641,3.9335,10.6585,-0.300613,-0.170503,0.0760505,0
2024-12-13 15:29:33.280,-0.129212,3.95504,10.759,-0.300613,-0.170503,0.0760505,0
2024-12-13 15:29:33.284,-0.155533,3.95504,10.9843,-0.300613,-0.14668,0.0430647,0
2024-12-13 15:29:33.287,-0.167498,3.97418,11.1302,-0.300613,-0.14668,0.0430647,0
2024-12-13 15:29:33.292,-0.193819,4.00529,11.4389,-0.289618,-0.124078,0.00763559,0
2024-12-13 15:29:33.292,-0.260818,4.03879,11.4389,-0.289618,-0.124078,0.00763559,0
2024-12-13 15:29:33.294,-0.330509,4.06271,11.5564,-0.289618,-0.124078,0.00763559,0
2024-12-13 15:29:33.296,-0.378365,4.09382,11.6498,-0.273125,-0.106975,-0.0131332,0
2024-12-13 15:29:33.301,-0.426222,4.12732,11.9201,-0.255411,-0.0868167,-0.0320695,0
2024-12-13 15:29:33.301,-0.474078,4.12732,11.9201,-0.255411,-0.0868167,-0.0320695,0
2024-12-13 15:29:33.306,-0.529113,4.13689,12.2124,-0.237696,-0.0807082,-0.0516166,0
2024-12-13 15:29:33.306,-0.529113,4.13689,12.2124,-0.237696,-0.0807082,-0.0516166,0
2024-12-13 15:29:33.310,-0.591326,4.16321,12.4923,-0.210819,-0.0898709,-0.0729962,0
2024-12-13 15:29:33.313,-0.612862,4.18475,12.612,-0.194937,-0.0965902,-0.0864349,0
2024-12-13 15:29:33.315,-0.643968,4.23051,12.7558,-0.194937,-0.0965902,-0.0864349,0
2024-12-13 15:29:33.320,-0.73011,4.29272,13.0669,-0.160729,-0.114916,-0.105982,0
2024-12-13 15:29:33.320,-0.73011,4.29272,13.0669,-0.160729,-0.114916,-0.105982,0
2024-12-13 15:29:33.324,-0.670289,4.35733,13.2826,-0.124689,-0.132019,-0.124307,0
2024-12-13 15:29:33.327,-0.667897,4.36929,13.4022,-0.0837624,-0.151566,-0.146909,0
2024-12-13 15:29:33.329,-0.667897,4.39801,13.5242,-0.0837624,-0.151566,-0.146909,0
2024-12-13 15:29:33.332,-0.665504,4.4339,13.6271,-0.0440574,-0.179055,-0.16951,0
2024-12-13 15:29:33.334,-0.663111,4.46501,13.7013,-0.0440574,-0.179055,-0.16951,0
2024-12-13 15:29:33.336,-0.660718,4.49851,13.7686,-0.00557398,-0.21143,-0.190279,0
2024-12-13 15:29:33.339,-0.660718,4.55354,13.8212,0.0151948,-0.227312,-0.199442,0
2024-12-13 15:29:33.343,-0.651147,4.6349,13.8811,0.0500131,-0.260908,-0.218989,0
2024-12-13 15:29:33.346,-0.651147,4.6349,13.8906,0.0500131,-0.260908,-0.218989,0
2024-12-13 15:29:33.348,-0.605683,4.6995,13.9026,0.0854423,-0.285953,-0.234871,0
2024-12-13 15:29:33.350,-0.586541,4.72822,13.9361,0.0854423,-0.285953,-0.234871,0
2024-12-13 15:29:33.353,-0.584148,4.74257,13.9576,0.116595,-0.31283,-0.249531,0
2024-12-13 15:29:33.353,-0.584148,4.74257,13.9576,0.116595,-0.31283,-0.249531,0
2024-12-13 15:29:33.357,-0.584148,4.75932,14.0031,0.140419,-0.339707,-0.265413,0
2024-12-13 15:29:33.360,-0.612862,4.77398,14.027,0.140419,-0.349481,-0.270911,0
2024-12-13 15:29:33.362,-0.634397,4.77877,14.051,0.164852,-0.361087,-0.277019,0
2024-12-13 15:29:33.365,-0.63679,4.79791,14.0797,0.172793,-0.369639,-0.282517,0
2024-12-13 15:29:33.369,-0.598505,4.81466,14.1395,0.191119,-0.385521,-0.292901,0
2024-12-13 15:29:33.372,-0.567398,4.81227,14.161,0.199671,-0.392851,-0.302064,0
2024-12-13 15:29:33.374,-0.56022,4.81466,14.1921,0.205168,-0.396516,-0.308783,0
2024-12-13 15:29:33.376,-0.550648,4.83859,14.2113,0.205168,-0.396516,-0.308783,0
2024-12-13 15:29:33.379,-0.538684,4.85534,14.1945,0.22044,-0.402014,-0.321611,0
2024-12-13 15:29:33.383,-0.457328,4.86969,14.1897,0.225326,-0.405679,-0.338104,3
2024-12-13 15:29:33.386,-0.457328,4.87209,14.1634,0.225326,-0.405679,-0.338104,0
2024-12-13 15:29:33.386,-0.409472,4.87209,14.1634,0.225326,-0.405679,-0.338104,0
2024-12-13 15:29:33.388,-0.359223,4.87209,14.1347,0.240597,-0.407511,-0.352153,0
2024-12-13 15:29:33.390,-0.308973,4.86969,14.0868,0.250982,-0.406901,-0.36376,0
2024-12-13 15:29:33.395,-0.267996,4.82184,13.9624,0.262588,-0.409344,-0.380863,0
2024-12-13 15:29:33.395,-0.217747,4.82184,13.9624,0.262588,-0.409344,-0.380863,0
2024-12-13 15:29:33.400,-0.141177,4.78594,13.8236,0.266253,-0.410566,-0.3998,0
2024-12-13 15:29:33.400,-0.141177,4.78594,13.8236,0.266253,-0.410566,-0.3998,0
2024-12-13 15:29:33.405,-0.0502493,4.74018,13.6654,0.265642,-0.408122,-0.415682,0
2024-12-13 15:29:33.407,-0.0239282,4.7019,13.6104,0.265642,-0.408122,-0.415682,0
2024-12-13 15:29:33.409,-0.0143569,4.64925,13.5434,0.255869,-0.40629,-0.435229,0
2024-12-13 15:29:33.412,0.00957129,4.61336,13.4812,0.251593,-0.405068,-0.442559,0
2024-12-13 15:29:33.414,0.0430708,4.57747,13.4261,0.246095,-0.400792,-0.449278,0
2024-12-13 15:29:33.416,0.0622134,4.5344,13.3639,0.246095,-0.396516,-0.453554,0
2024-12-13 15:29:33.419,0.0861416,4.48894,13.3113,0.226548,-0.389797,-0.459663,0
2024-12-13 15:29:33.421,0.105284,4.45304,13.2467,0.21372,-0.37758,-0.464549,0
2024-12-13 15:29:33.426,0.174676,4.34297,13.1267,0.202725,-0.365974,-0.467604,0
2024-12-13 15:29:33.426,0.174676,4.34297,13.1267,0.202725,-0.365974,-0.467604,0
2024-12-13 15:29:33.430,0.18664,4.22094,13.0669,0.149581,-0.310998,-0.477377,0
2024-12-13 15:29:33.430,0.196211,4.22094,13.0669,0.149581,-0.310998,-0.477377,0
2024-12-13 15:29:33.435,0.244068,4.06271,13.1004,0.109265,-0.271903,-0.47921,0
2024-12-13 15:29:33.438,0.239282,3.98136,13.1267,0.109265,-0.271903,-0.47921,0
2024-12-13 15:29:33.442,0.227318,3.9,13.1459,0.0432938,-0.202878,-0.476766,0
2024-12-13 15:29:33.445,0.16989,3.75404,13.2634,0.0432938,-0.202878,-0.476766,0
2024-12-13 15:29:33.447,0.124427,3.65833,13.2969,-0.00374144,-0.15401,-0.474323,0
2024-12-13 15:29:33.447,0.124427,3.65833,13.2969,-0.00374144,-0.15401,-0.474323,0
2024-12-13 15:29:33.454,0.0574277,3.42114,13.407,-0.0715455,-0.0800973,-0.470658,0
2024-12-13 15:29:33.454,0.00717847,3.30868,13.407,-0.0715455,-0.0800973,-0.470658,0
2024-12-13 15:29:33.459,-0.114855,3.00688,13.5625,-0.106364,-0.0275645,-0.468825,0
2024-12-13 15:29:33.461,-0.114855,2.83699,13.6487,-0.106364,-0.0275645,-0.468825,0
2024-12-13 15:29:33.463,-0.275175,2.68146,13.742,-0.135074,0.0188599,-0.46516,0
2024-12-13 15:29:33.466,-0.342473,2.53071,13.8165,-0.143625,0.0414613,-0.462717,0
2024-12-13 15:29:33.468,-0.411865,2.36291,13.8763,-0.145458,0.0652843,-0.463939,0
2024-12-13 15:29:33.471,-0.454935,2.21456,13.9241,-0.143625,0.0848314,-0.460273,0
2024-12-13 15:29:33.471,-0.454935,2.21456,13.9241,-0.143625,0.0848314,-0.460273,0
2024-12-13 15:29:33.473,-0.481256,2.09252,13.9481,-0.143625,0.0848314,-0.460273,0
2024-12-13 15:29:33.480,-0.541077,1.65912,13.893,-0.0868167,0.158133,-0.460884,0
2024-12-13 15:29:33.485,-0.576969,1.52273,13.7806,-0.0324513,0.186232,-0.459663,0
2024-12-13 15:29:33.485,-0.598505,1.40548,13.6176,-0.0324513,0.186232,-0.459663,0
2024-12-13 15:29:33.489,-0.632004,1.21854,13.1411,-0.00129805,0.198449,-0.458441,0
2024-12-13 15:29:33.489,-0.632004,1.21854,13.1411,-0.00129805,0.198449,-0.458441,0
2024-12-13 15:29:33.492,-0.643968,1.1324,12.8587,0.0329094,0.214331,-0.454165,0
2024-12-13 15:29:33.496,-0.706182,1.02712,12.2459,0.143473,0.230213,-0.446835,0
2024-12-13 15:29:33.496,-0.706182,1.02712,12.2459,0.143473,0.230213,-0.446835,0
2024-12-13 15:29:33.501,-0.699003,0.99362,11.5493,0.182567,0.243041,-0.437061,0
2024-12-13 15:29:33.503,-0.617647,0.996012,11.1829,0.224105,0.243041,-0.437061,0
2024-12-13 15:29:33.506,-0.531506,0.991227,10.838,0.307791,0.237543,-0.432174,0
2024-12-13 15:29:33.506,-0.531506,0.991227,10.838,0.307791,0.237543,-0.432174,0
2024-12-13 15:29:33.511,-0.517149,0.988834,10.1701,0.393386,0.235711,-0.432785,0
2024-12-13 15:29:33.513,-0.493221,0.991227,9.82553,0.434923,0.235711,-0.431564,0
2024-12-13 15:29:33.515,-0.469292,1.01755,9.49023,0.47585,0.231435,-0.430953,0
2024-12-13 15:29:33.518,-0.440578,1.0654,9.1358,0.47585,0.228381,-0.434007,0
2024-12-13 15:29:33.520,-0.419043,1.12522,8.76012,0.554649,0.226548,-0.43645,0
2024-12-13 15:29:33.522,-0.419043,1.12522,8.76012,0.591911,0.219218,-0.43645,0
2024-12-13 15:29:33.525,-0.392722,1.2664,8.07757,0.624286,0.207001,-0.43584,0
2024-12-13 15:29:33.527,-0.337687,1.34297,7.73779,0.654828,0.192951,-0.437061,0
2024-12-13 15:29:33.532,-0.272782,1.41745,7.436,0.69942,0.150803,-0.442559,0
2024-12-13 15:29:33.532,-0.208176,1.48923,7.14646,0.69942,0.150803,-0.442559,0
2024-12-13 15:29:33.536,-0.141177,1.64955,6.63649,0.730573,0.0958267,-0.4505,0
2024-12-13 15:29:33.536,-0.141177,1.64955,6.63649,0.730573,0.0958267,-0.4505,0
2024-12-13 15:29:33.541,-0.114855,1.80987,6.21267,0.746455,0.0292443,-0.457219,0
2024-12-13 15:29:33.541,-0.114855,1.80987,6.21267,0.746455,0.0292443,-0.457219,0
2024-12-13 15:29:33.546,-0.0741775,1.92473,5.88694,0.748288,-0.041614,-0.464549,0
2024-12-13 15:29:33.546,-0.0741775,1.92473,5.88694,0.748288,-0.041614,-0.464549,0
2024-12-13 15:29:33.551,-0.0765703,2.10209,5.67159,0.740958,-0.114916,-0.46516,0
2024-12-13 15:29:33.553,-0.0981057,2.20499,5.58545,0.740958,-0.114916,-0.46516,0
2024-12-13 15:29:33.555,-0.119641,2.3007,5.50648,0.740958,-0.114916,-0.46516,0
2024-12-13 15:29:33.558,-0.119641,2.41077,5.44666,0.705529,-0.209597,-0.456608,0
2024-12-13 15:29:33.562,-0.112463,2.60249,5.39881,0.67071,-0.259076,-0.443781,0
2024-12-13 15:29:33.565,-0.114855,2.67906,5.41077,0.67071,-0.259076,-0.443781,0
2024-12-13 15:29:33.567,-0.12682,2.7341,5.42513,0.623675,-0.308554,-0.421179,0
2024-12-13 15:29:33.569,-0.143569,2.77956,5.46102,0.599852,-0.329323,-0.409573,0
2024-12-13 15:29:33.572,-0.136391,2.8322,5.50648,0.599852,-0.329323,-0.409573,0
2024-12-13 15:29:33.579,-0.0526421,2.90878,5.64048,0.502116,-0.38491,-0.350932,0
2024-12-13 15:29:33.579,-0.0119641,2.92552,5.64048,0.502116,-0.38491,-0.350932,0
2024-12-13 15:29:33.581,0.0358923,2.94706,5.67877,0.474628,-0.386743,-0.335661,0
2024-12-13 15:29:33.584,0.0909273,2.94945,5.67877,0.448973,-0.386132,-0.321611,0
2024-12-13 15:29:33.586,0.12682,2.9351,5.68595,0.448973,-0.386132,-0.321611,0
2024-12-13 15:29:33.588,0.150748,2.93031,5.70269,0.393996,-0.376969,-0.288014,0
2024-12-13 15:29:33.591,0.177069,2.92313,5.70748,0.362156,-0.370861,-0.273354,0
2024-12-13 15:29:33.595,0.267996,2.8657,5.74337,0.291909,-0.355589,-0.244033,0
2024-12-13 15:29:33.595,0.267996,2.8657,5.74337,0.291909,-0.355589,-0.244033,0
2024-12-13 15:29:33.598,0.304188,2.8346,5.76969,0.255258,-0.349481,-0.225708,0
2024-12-13 15:29:33.602,0.316152,2.76999,5.89203,0.216774,-0.343983,-0.211659,0
2024-12-13 15:29:33.605,0.299402,2.73888,5.95663,0.132477,-0.330545,-0.179284,0
2024-12-13 15:29:33.605,0.299402,2.73888,5.95663,0.132477,-0.330545,-0.179284,0
2024-12-13 15:29:33.609,0.191426,2.68864,6.10259,0.050624,-0.314052,-0.142022,0
2024-12-13 15:29:33.612,0.119641,2.66231,6.19113,0.050624,-0.314052,-0.142022,0
2024-12-13 15:29:33.614,0.0622134,2.62164,6.27009,-0.0300079,-0.29817,-0.101095,0
2024-12-13 15:29:33.617,0.026321,2.57139,6.3682,-0.0684913,-0.289007,-0.0815481,0
2024-12-13 15:29:33.619,-0.00478565,2.51127,6.49292,-0.10331,-0.282899,-0.0607793,0
2024-12-13 15:29:33.621,-0.0239282,2.45384,6.62453,-0.134463,-0.27679,-0.0400105,0
2024-12-13 15:29:33.626,-0.0382852,2.35573,6.95474,-0.193715,-0.267017,-0.00152712,0
2024-12-13 15:29:33.628,-0.0311067,2.30788,7.1345,-0.193715,-0.267017,-0.00152712,0
2024-12-13 15:29:33.631,-0.00957129,2.27438,7.30439,-0.244415,-0.268238,0.0326803,0
2024-12-13 15:29:33.631,-0.0311067,2.30788,7.30439,-0.244415,-0.268238,0.0326803,0
2024-12-13 15:29:33.635,0.00957129,2.19063,7.69472,-0.283509,-0.274958,0.0583359,0
2024-12-13 15:29:33.635,0.00957129,2.19063,7.69472,-0.283509,-0.274958,0.0583359,0
2024-12-13 15:29:33.640,0.081356,2.13799,8.11107,-0.306111,-0.281677,0.0827698,0
2024-12-13 15:29:33.642,0.0909273,2.11645,8.3339,-0.306111,-0.281677,0.0827698,0
2024-12-13 15:29:33.645,0.117248,2.09252,8.55404,-0.311608,-0.284731,0.100484,0
2024-12-13 15:29:33.650,0.174676,2.0662,8.94916,-0.303667,-0.276179,0.113312,0
2024-12-13 15:29:33.650,0.174676,2.0662,8.94916,-0.303667,-0.276179,0.113312,0
2024-12-13 15:29:33.652,0.215354,2.04945,9.11187,-0.291451,-0.267627,0.117588,0
2024-12-13 15:29:33.654,0.236889,2.03031,9.26531,-0.278012,-0.257854,0.121864,0
2024-12-13 15:29:33.659,0.260818,1.9992,9.48306,-0.260297,-0.245026,0.124918,0
2024-12-13 15:29:33.661,0.263211,1.98724,9.58834,-0.21876,-0.219371,0.130416,0
2024-12-13 15:29:33.662,0.263211,1.98724,9.58834,-0.196769,-0.205321,0.131027,0
2024-12-13 15:29:33.666,0.275175,1.97767,9.69362,-0.196769,-0.205321,0.131027,0
2024-12-13 15:29:33.666,0.275175,1.97767,9.69362,-0.196769,-0.205321,0.131027,0
2024-12-13 15:29:33.671,0.27996,1.98245,9.7008,-0.118581,-0.169892,0.135379,0
2024-12-13 15:29:33.673,0.27996,1.98245,9.7008,-0.0953685,-0.157675,0.132859,0
2024-12-13 15:29:33.676,0.27996,2.00638,9.60987,-0.0709346,-0.14668,0.130416,0
2024-12-13 15:29:33.678,0.263211,2.0016,9.5357,-0.0709346,-0.14668,0.130416,0
2024-12-13 15:29:33.682,0.136391,1.9657,9.38016,0.00358873,-0.144236,0.130416,0
2024-12-13 15:29:33.685,0.16989,1.99202,9.04008,0.0194708,-0.146069,0.134157,0
2024-12-13 15:29:33.687,0.210568,2.04706,8.79602,0.0255792,-0.142404,0.129194,0
2024-12-13 15:29:33.687,0.210568,2.04706,8.79602,0.0255792,-0.142404,0.129194,0
2024-12-13 15:29:33.692,0.241675,2.23609,8.51815,0.0414613,-0.117359,0.115145,0
2024-12-13 15:29:33.694,0.241675,2.29352,8.34108,0.0414613,-0.117359,0.115145,0
2024-12-13 15:29:33.699,0.244068,2.31984,8.0345,0.0445155,-0.0880384,0.0791047,0
2024-12-13 15:29:33.699,0.244068,2.31984,8.0345,0.0445155,-0.0880384,0.0791047,0
2024-12-13 15:29:33.704,0.260818,2.31745,7.73061,0.0402396,-0.0599394,0.0430647,0
2024-12-13 15:29:33.704,0.260818,2.31745,7.73061,0.0402396,-0.0599394,0.0430647,0
2024-12-13 15:29:33.713,0.165105,2.42034,7.38335,0.0365745,-0.0391706,-0.0113007,0
2024-12-13 15:29:33.715,0.129212,2.45145,7.32114,0.0182491,-0.0208452,-0.0436756,0
2024-12-13 15:29:33.720,0.0191426,2.52832,7.20868,0.00664296,-0.0208452,-0.069942,0
2024-12-13 15:29:33.725,-0.0191426,2.55224,7.12971,-0.00862822,-0.0208452,-0.0913217,0
2024-12-13 15:29:33.725,-0.0287139,2.57617,7.03879,-0.00862822,-0.0208452,-0.0913217,0
2024-12-13 15:29:33.727,-0.040678,2.60489,6.98106,-0.00862822,-0.0208452,-0.0913217,0
2024-12-13 15:29:33.730,-0.0574277,2.62164,6.92602,-0.0196235,-0.0110716,-0.11148,0
2024-12-13 15:29:33.732,-0.0574277,2.62164,6.92602,-0.0269536,-0.00801737,-0.120642,0
2024-12-13 15:29:33.734,-0.0598206,2.63121,6.78963,-0.0318404,-0.00251974,-0.128583,0
2024-12-13 15:29:33.737,-0.0598206,2.63121,6.78963,-0.0385597,0.00297788,-0.138357,0
2024-12-13 15:29:33.739,-0.102891,2.63839,6.69871,-0.0458899,0.00542127,-0.146909,0
2024-12-13 15:29:33.741,-0.117248,2.64078,6.66999,-0.0489441,0.0096972,-0.156682,0
2024-12-13 15:29:33.744,-0.12682,2.65753,6.64367,-0.0526092,0.0127514,-0.164623,0
2024-12-13 15:29:33.746,-0.153141,2.67428,6.61974,-0.057496,0.0158057,-0.172564,0
2024-12-13 15:29:33.748,-0.167498,2.69342,6.59342,-0.0611611,0.0133623,-0.178673,0
2024-12-13 15:29:33.751,-0.179462,2.72213,6.55514,-0.0660479,0.0151948,-0.185392,0
2024-12-13 15:29:33.755,-0.193819,2.79871,6.49053,-0.0703238,0.0164165,-0.196998,0
2024-12-13 15:29:33.755,-0.193819,2.79871,6.49053,-0.0703238,0.0164165,-0.196998,0
2024-12-13 15:29:33.760,-0.232104,2.93988,6.41366,-0.077654,0.0164165,-0.201274,0
2024-12-13 15:29:33.760,-0.270389,2.93988,6.41366,-0.077654,0.0164165,-0.201274,0
2024-12-13 15:29:33.765,-0.325723,3.02363,6.30598,-0.0917034,0.00786466,-0.20555,0
2024-12-13 15:29:33.765,-0.325723,3.02363,6.30598,-0.0917034,0.00786466,-0.20555,0
2024-12-13 15:29:33.770,-0.366401,3.07149,6.25574,-0.102088,-0.00313059,-0.203718,0
2024-12-13 15:29:33.772,-0.366401,3.09571,6.21745,-0.107585,-0.0116825,-0.203107,0
2024-12-13 15:29:33.774,-0.359223,3.11725,6.19113,-0.113694,-0.0257319,-0.201274,0
2024-12-13 15:29:33.777,-0.359223,3.14836,6.17438,-0.120413,-0.0385597,-0.200052,0
2024-12-13 15:29:33.781,-0.352044,3.18425,6.15763,-0.128354,-0.0519984,-0.198831,0
2024-12-13 15:29:33.781,-0.35683,3.22732,6.15524,-0.128354,-0.0519984,-0.198831,0
2024-12-13 15:29:33.786,-0.344866,3.30628,6.17438,-0.150956,-0.0990336,-0.193333,0
2024-12-13 15:29:33.786,-0.344866,3.30628,6.17438,-0.150956,-0.0990336,-0.193333,0
2024-12-13 15:29:33.791,-0.352044,3.3661,6.2342,-0.171724,-0.141793,-0.187836,0
2024-12-13 15:29:33.793,-0.335294,3.41875,6.28684,-0.171724,-0.141793,-0.187836,0
2024-12-13 15:29:33.796,-0.335294,3.46421,6.33231,-0.191882,-0.179665,-0.184781,0
2024-12-13 15:29:33.800,-0.375972,3.52403,6.44477,-0.21143,-0.210819,-0.178062,0
2024-12-13 15:29:33.800,-0.375972,3.52403,6.44477,-0.21143,-0.210819,-0.178062,0
2024-12-13 15:29:33.805,-0.383151,3.55992,6.62453,-0.21143,-0.221814,-0.174397,0
2024-12-13 15:29:33.805,-0.378365,3.55992,6.62453,-0.21143,-0.221814,-0.174397,0
2024-12-13 15:29:33.807,-0.390329,3.57906,6.72264,-0.237696,-0.235863,-0.168288,0
2024-12-13 15:29:33.810,-0.395115,3.6006,6.82074,-0.237696,-0.235863,-0.168288,0
2024-12-13 15:29:33.812,-0.385544,3.60778,6.90688,-0.248691,-0.240139,-0.158515,0
2024-12-13 15:29:33.817,-0.380758,3.61256,7.06511,-0.257243,-0.234031,-0.146909,0
2024-12-13 15:29:33.819,-0.380758,3.61256,7.13211,-0.260297,-0.227312,-0.143244,0
2024-12-13 15:29:33.821,-0.316152,3.60778,7.21346,-0.260908,-0.21876,-0.135914,0
2024-12-13 15:29:33.824,-0.294616,3.60778,7.27568,-0.260908,-0.21876,-0.135914,0
2024-12-13 15:29:33.826,-0.294616,3.61735,7.3331,-0.265184,-0.196158,-0.124918,0
2024-12-13 15:29:33.829,-0.301795,3.63171,7.39292,-0.265184,-0.196158,-0.124918,0
2024-12-13 15:29:33.831,-0.294616,3.63889,7.436,-0.272514,-0.163173,-0.113923,0
2024-12-13 15:29:33.833,-0.282652,3.64876,7.48624,-0.275568,-0.144236,-0.109036,0
2024-12-13 15:29:33.836,-0.265603,3.66072,7.54607,-0.277401,-0.128354,-0.101706,0
2024-12-13 15:29:33.838,-0.253639,3.65593,7.62293,-0.285342,-0.114916,-0.0949868,0
2024-12-13 15:29:33.843,-0.260818,3.64367,7.77368,-0.293894,-0.0843733,-0.0864349,0
2024-12-13 15:29:33.843,-0.260818,3.64367,7.77368,-0.293894,-0.0843733,-0.0864349,0
2024-12-13 15:29:33.847,-0.289831,3.63889,7.84786,-0.304889,-0.0642153,-0.0736071,0
2024-12-13 15:29:33.847,-0.313759,3.64876,7.94836,-0.304889,-0.0642153,-0.0736071,0
2024-12-13 15:29:33.852,-0.32333,3.66311,8.15205,-0.317106,-0.0452791,-0.0626118,0
2024-12-13 15:29:33.854,-0.32333,3.66311,8.15205,-0.317106,-0.0452791,-0.0626118,0
2024-12-13 15:29:33.857,-0.320937,3.69183,8.36022,-0.326269,-0.0275645,-0.05406,0
2024-12-13 15:29:33.859,-0.320937,3.699,8.45354,-0.326269,-0.0275645,-0.0497841,0
2024-12-13 15:29:33.861,-0.313759,3.69661,8.54686,-0.339097,-0.0110716,-0.0448973,0
2024-12-13 15:29:33.864,-0.308973,3.70858,8.64497,-0.339097,-0.0110716,-0.0430647,0
2024-12-13 15:29:33.866,-0.299402,3.70858,8.74337,-0.34887,0.00664296,-0.0430647,0
2024-12-13 15:29:33.869,-0.299402,3.7014,8.84626,-0.34887,0.00664296,-0.0430647,0
2024-12-13 15:29:33.871,-0.299402,3.70379,8.94437,-0.356811,0.0231358,-0.0393996,0
2024-12-13 15:29:33.873,-0.304188,3.68943,9.04487,-0.356811,0.030466,-0.0400105,0
2024-12-13 15:29:33.876,-0.297009,3.68704,9.16212,-0.365974,0.0365745,-0.0400105,0
2024-12-13 15:29:33.880,-0.27996,3.71097,9.36341,-0.376969,0.0469589,-0.0387888,0
2024-12-13 15:29:33.880,-0.27996,3.71097,9.36341,-0.376969,0.0469589,-0.0387888,0
2024-12-13 15:29:33.883,-0.297009,3.70858,9.47827,-0.381245,0.0500131,-0.038178,0
2024-12-13 15:29:33.885,-0.320937,3.7014,9.59073,-0.381245,0.0500131,-0.038178,0
2024-12-13 15:29:33.887,-0.34008,3.70618,9.69123,-0.388575,0.0518457,-0.0387888,0
2024-12-13 15:29:33.890,-0.361615,3.71575,9.79173,-0.388575,0.0518457,-0.0387888,0
2024-12-13 15:29:33.892,-0.352044,3.72772,9.90449,-0.391019,0.0536782,-0.0400105,0
2024-12-13 15:29:33.897,-0.344866,3.71097,10.1486,-0.388575,0.0536782,-0.0455081,0
2024-12-13 15:29:33.899,-0.335294,3.71097,10.2515,-0.388575,0.0536782,-0.0455081,0
2024-12-13 15:29:33.902,-0.320937,3.71097,10.3615,-0.380023,0.0518457,-0.0473407,0
2024-12-13 15:29:33.904,-0.318545,3.71336,10.4839,-0.380023,0.0518457,-0.0473407,0
2024-12-13 15:29:33.904,-0.318545,3.71336,10.4839,-0.380023,0.0518457,-0.0473407,0
2024-12-13 15:29:33.906,-0.304188,3.71575,10.5867,-0.361698,0.0548999,-0.0565034,0
2024-12-13 15:29:33.911,-0.294616,3.71575,10.8045,-0.337264,0.050624,-0.062001,0
2024-12-13 15:29:33.911,-0.294616,3.71575,10.8045,-0.337264,0.050624,-0.062001,0
2024-12-13 15:29:33.916,-0.285045,3.699,11.0178,-0.3055,0.0500131,-0.0742179,0
2024-12-13 15:29:33.918,-0.265603,3.69422,11.1278,-0.3055,0.0500131,-0.0742179,0
2024-12-13 15:29:33.920,-0.265603,3.7014,11.2044,-0.264573,0.0524565,-0.0852132,0
2024-12-13 15:29:33.923,-0.222533,3.71336,11.2786,-0.243194,0.050624,-0.0894891,0
2024-12-13 15:29:33.925,-0.205783,3.74686,11.3384,-0.219371,0.0542891,-0.0931542,0
2024-12-13 15:29:33.927,-0.189033,3.77079,11.3839,-0.219371,0.0536782,-0.0992627,0
2024-12-13 15:29:33.930,-0.18664,3.79472,11.4269,-0.174168,0.0548999,-0.105982,0
2024-12-13 15:29:33.932,-0.189033,3.83779,11.4461,-0.151566,0.0573433,-0.11209,0
2024-12-13 15:29:33.937,-0.172283,3.9,11.4174,-0.107585,0.0610084,-0.11881,0
2024-12-13 15:29:33.937,-0.172283,3.9,11.4174,-0.107585,0.0610084,-0.11881,0
2024-12-13 15:29:33.939,-0.165105,3.92872,11.3791,-0.107585,0.0610084,-0.11881,0
2024-12-13 15:29:33.943,-0.172283,3.94786,11.3456,-0.0727672,0.0628409,-0.123697,0
2024-12-13 15:29:33.946,-0.189033,3.99571,11.2714,-0.0428357,0.0683385,-0.127362,0
2024-12-13 15:29:33.946,-0.189033,3.99571,11.2714,-0.0428357,0.0683385,-0.127362,0
2024-12-13 15:29:33.951,-0.191426,4.06032,11.1996,-0.0232886,0.0726145,-0.125529,0
2024-12-13 15:29:33.953,-0.177069,4.06032,11.1996,-0.0232886,0.0726145,-0.125529,0
2024-12-13 15:29:33.956,-0.122034,4.14168,11.135,-0.013515,0.0756687,-0.120642,0
2024-12-13 15:29:33.958,-0.122034,4.14168,11.135,-0.013515,0.0756687,-0.120642,0
2024-12-13 15:29:33.960,-0.0598206,4.22572,11.1039,-0.00923906,0.0793338,-0.114534,0
2024-12-13 15:29:33.963,-0.0430708,4.28076,11.0895,-0.00923906,0.0793338,-0.114534,0
2024-12-13 15:29:33.965,-0.040678,4.31665,11.1039,-0.0110716,0.0817772,-0.107204,0
2024-12-13 15:29:33.967,-0.0287139,4.33819,11.1135,-0.0110716,0.0817772,-0.107204,0
2024-12-13 15:29:33.970,-0.00957129,4.35733,11.1254,-0.0141258,0.0842206,-0.0986518,0
2024-12-13 15:29:33.970,-0.00957129,4.35733,11.1254,-0.0141258,0.0842206,-0.0986518,0
2024-12-13 15:29:33.975,-0.00957129,4.37887,11.1829,-0.0238994,0.0927724,-0.0852132,0
2024-12-13 15:29:33.977,-0.00478565,4.40279,11.2187,-0.0238994,0.0927724,-0.0852132,0
2024-12-13 15:29:33.979,-0.00717847,4.41476,11.2307,-0.0306187,0.103157,-0.0717745,0
2024-12-13 15:29:33.984,-0.0167498,4.42911,11.2522,-0.0318404,0.111098,-0.0638335,0
2024-12-13 15:29:33.984,-0.0239282,4.44108,11.3097,-0.0318404,0.111098,-0.0638335,0
2024-12-13 15:29:33.986,-0.0215354,4.45783,11.348,-0.0324513,0.124536,-0.0467298,0
2024-12-13 15:29:33.989,-0.0239282,4.47936,11.3791,-0.0324513,0.124536,-0.0467298,0
2024-12-13 15:29:33.991,-0.0311067,4.48894,11.4413,-0.0275645,0.133088,-0.0277936,0
2024-12-13 15:29:33.993,-0.0478565,4.47936,11.4963,-0.0275645,0.133088,-0.0277936,0
2024-12-13 15:29:33.996,-0.0622134,4.49133,11.5325,-0.0147367,0.137975,-0.0119115,0
2024-12-13 15:29:33.998,-0.081356,4.49611,11.566,-0.0147367,0.137975,-0.0119115,0
2024-12-13 15:29:34.000,-0.0933201,4.47936,11.6186,0.00175619,0.14164,0.0051922,0
2024-12-13 15:29:34.005,-0.112463,4.51286,11.7096,0.00908635,0.144084,0.0137441,0
2024-12-13 15:29:34.007,-0.117248,4.53201,11.7479,0.0310769,0.141029,0.0271827,0
2024-12-13 15:29:34.010,-0.122034,4.55115,11.7861,0.0310769,0.141029,0.0271827,0
2024-12-13 15:29:34.012,-0.131605,4.58465,11.8125,0.0524565,0.13431,0.0393996,0
2024-12-13 15:29:34.015,-0.148355,4.62533,11.8388,0.0634518,0.128202,0.0479515,0
2024-12-13 15:29:34.017,-0.162712,4.65404,11.8579,0.0634518,0.128202,0.0479515,0
2024-12-13 15:29:34.019,-0.16989,4.68993,11.8627,0.0848314,0.114152,0.0577251,0
2024-12-13 15:29:34.022,-0.179462,4.7019,11.889,0.0848314,0.114152,0.0577251,0
2024-12-13 15:29:34.024,-0.20339,4.71865,11.9034,0.0988809,0.0994917,0.0632227,0
2024-12-13 15:29:34.026,-0.215354,4.74257,11.8986,0.0988809,0.0994917,0.0656661,0
2024-12-13 15:29:34.029,-0.244068,4.7689,11.9082,0.109876,0.0842206,0.069942,0
2024-12-13 15:29:34.031,-0.270389,4.79312,11.9465,0.11293,0.0738362,0.0748288,0
2024-12-13 15:29:34.033,-0.270389,4.80269,11.9919,0.115985,0.0671168,0.077883,0
2024-12-13 15:29:34.036,-0.258425,4.81705,12.0254,0.116595,0.0573433,0.0815481,0
2024-12-13 15:29:34.040,-0.236889,4.86969,12.0951,0.117817,0.0377962,0.085824,0
2024-12-13 15:29:34.040,-0.236889,4.86969,12.0951,0.117817,0.0377962,0.085824,0
2024-12-13 15:29:34.045,-0.244068,4.92473,12.1741,0.109265,0.0274118,0.0852132,0
2024-12-13 15:29:34.048,-0.217747,4.96301,12.2291,0.109265,0.0274118,0.0852132,0
2024-12-13 15:29:34.050,-0.191426,4.99412,12.2842,0.0988809,0.0268009,0.0901,0
2024-12-13 15:29:34.050,-0.191426,4.99412,12.2842,0.0988809,0.0268009,0.0901,0
2024-12-13 15:29:34.055,-0.136391,5.09223,12.3847,0.0872748,0.0365745,0.0937651,0
2024-12-13 15:29:34.059,-0.102891,5.15444,12.4421,0.0726145,0.0475697,0.0968193,0
2024-12-13 15:29:34.059,-0.0765703,5.18555,12.5067,0.0726145,0.0475697,0.0968193,0
2024-12-13 15:29:34.062,-0.0765703,5.21905,12.588,0.0726145,0.0475697,0.0968193,0
2024-12-13 15:29:34.064,-0.0478565,5.25733,12.6506,0.0561216,0.0634518,0.103539,0
2024-12-13 15:29:34.066,-0.0478565,5.27647,12.696,0.0561216,0.0634518,0.103539,0
2024-12-13 15:29:34.069,-0.0574277,5.27647,12.7439,0.0390179,0.0829989,0.117588,0
2024-12-13 15:29:34.071,-0.0478565,5.25972,12.8061,0.0390179,0.0829989,0.126751,0
2024-12-13 15:29:34.073,-0.0358923,5.24537,12.8635,0.0200816,0.0970484,0.136601,0
2024-12-13 15:29:34.076,-0.0143569,5.1999,12.9186,0.0200816,0.0970484,0.136601,0
2024-12-13 15:29:34.078,-0.00957129,5.14965,12.9808,-0.0110716,0.104379,0.155537,0
2024-12-13 15:29:34.081,-0.0191426,5.0994,13.0454,-0.0306187,0.103157,0.168365,0
2024-12-13 15:29:34.083,-0.0191426,5.02523,13.1124,-0.0526092,0.103157,0.178749,0
2024-12-13 15:29:34.085,0.00717847,4.92712,13.1868,-0.0770431,0.102546,0.188523,0
2024-12-13 15:29:34.088,0.0430708,4.80748,13.2682,-0.104531,0.0988809,0.198907,0
2024-12-13 15:29:34.092,0.0693919,4.68754,13.4788,-0.168059,0.090329,0.213567,0
2024-12-13 15:29:34.095,0.0693919,4.45065,13.608,-0.20471,0.0878856,0.219676,0
2024-12-13 15:29:34.095,0.0693919,4.45065,13.608,-0.20471,0.0878856,0.219676,0
2024-12-13 15:29:34.097,0.066999,4.32862,13.742,-0.24075,0.0891073,0.223952,0
2024-12-13 15:29:34.099,0.0287139,4.22094,13.8882,-0.27679,0.0915507,0.23006,0
2024-12-13 15:29:34.104,-0.081356,3.98614,14.1491,-0.352535,0.108654,0.235558,0
2024-12-13 15:29:34.104,-0.081356,3.98614,14.1491,-0.352535,0.108654,0.235558,0
2024-12-13 15:29:34.109,-0.18664,3.76122,14.4485,-0.421561,0.132477,0.240445,0
2024-12-13 15:29:34.111,-0.239282,3.64606,14.6184,-0.421561,0.132477,0.240445,0
2024-12-13 15:29:34.113,-0.285045,3.51207,14.7811,-0.486922,0.16302,0.245332,0
2024-12-13 15:29:34.116,-0.285045,3.51207,14.7811,-0.486922,0.16302,0.245332,0
2024-12-13 15:29:34.118,-0.3999,3.22253,15.2336,-0.531513,0.193562,0.246553,0
2024-12-13 15:29:34.121,-0.454935,3.07149,15.4852,-0.531513,0.213109,0.247775,0
2024-12-13 15:29:34.123,-0.50997,2.91117,15.7316,-0.552282,0.2351,0.252662,0
2024-12-13 15:29:34.125,-0.565005,2.75803,15.9757,-0.552282,0.2351,0.252662,0
2024-12-13 15:29:34.128,-0.596112,2.59532,16.22,-0.541898,0.283357,0.25877,0
2024-12-13 15:29:34.130,-0.596112,2.41077,16.4593,-0.541898,0.283357,0.25877,0
2024-12-13 15:29:34.132,-0.557827,2.20499,16.6893,-0.496695,0.334057,0.263046,0
2024-12-13 15:29:34.135,-0.519542,2.00638,16.8903,-0.46432,0.355437,0.260603,0
2024-12-13 15:29:34.137,-0.478864,1.81466,17.0387,-0.421561,0.377427,0.259381,0
2024-12-13 15:29:34.139,-0.459721,1.63041,17.1323,-0.371471,0.399418,0.258159,0
2024-12-13 15:29:34.142,-0.469292,1.45573,17.1826,-0.371471,0.399418,0.258159,3
2024-12-13 15:29:34.144,-0.481256,1.29751,17.1945,-0.256632,0.435458,0.249607,0
2024-12-13 15:29:34.149,-0.586541,1.05583,17.0195,-0.11797,0.467833,0.245942,0
2024-12-13 15:29:34.149,-0.586541,1.05583,17.0195,-0.11797,0.467833,0.245942,0
2024-12-13 15:29:34.154,-0.715753,0.9003,16.6104,0.0414613,0.504483,0.248386,0
2024-12-13 15:29:34.154,-0.715753,0.9003,16.6104,0.0414613,0.504483,0.248386,0
2024-12-13 15:29:34.158,-0.811466,0.816252,15.9951,0.208833,0.537469,0.259381,0
2024-12-13 15:29:34.158,-0.811466,0.816252,15.9951,0.208833,0.537469,0.259381,0
2024-12-13 15:29:34.163,-0.869193,0.813859,15.2767,0.376282,0.565568,0.271598,0
2024-12-13 15:29:34.165,-0.869193,0.813859,14.8843,0.376282,0.565568,0.271598,0
2024-12-13 15:29:34.168,-0.8668,0.876371,14.4604,0.539989,0.58878,0.281372,0
2024-12-13 15:29:34.170,-0.837787,0.907478,14.0127,0.539989,0.58878,0.281372,0
2024-12-13 15:29:34.172,-0.837787,0.940978,13.5673,0.694533,0.604052,0.289313,0
2024-12-13 15:29:34.175,-0.852443,0.984048,13.086,0.694533,0.604052,0.289313,0
2024-12-13 15:29:34.177,-0.862014,1.04626,12.5593,0.838693,0.61749,0.294199,0
2024-12-13 15:29:34.179,-0.862014,1.12283,11.9895,0.838693,0.61749,0.294199,0
2024-12-13 15:29:34.182,-0.881157,1.19462,11.3839,0.966971,0.627875,0.294199,0
2024-12-13 15:29:34.184,-0.88355,1.25683,10.771,1.02011,0.63154,0.29481,0
2024-12-13 15:29:34.186,-0.893121,1.29751,10.1653,1.06654,0.630318,0.291756,0
2024-12-13 15:29:34.189,-0.909871,1.35972,9.58355,1.1093,0.627264,0.289923,0
2024-12-13 15:29:34.191,-0.940978,1.45095,8.99701,1.14045,0.616879,0.288702,0
2024-12-13 15:29:34.196,-0.979263,1.5347,7.8359,1.18016,0.583283,0.28015,0
2024-12-13 15:29:34.196,-1.00798,1.62802,7.8359,1.18016,0.583283,0.28015,0
2024-12-13 15:29:34.198,-1.00558,1.7333,7.32114,1.18504,0.563125,0.276485,0
2024-12-13 15:29:34.201,-0.998405,1.83859,6.90688,1.18504,0.563125,0.276485,0
2024-12-13 15:29:34.203,-0.981655,1.92233,6.50489,1.1771,0.495321,0.264879,0
2024-12-13 15:29:34.208,-1.05105,2.09013,5.57587,1.13557,0.434847,0.249607,0
2024-12-13 15:29:34.208,-1.05105,2.09013,5.57587,1.13557,0.434847,0.249607,0
2024-12-13 15:29:34.210,-1.11087,2.19063,5.20469,1.13557,0.434847,0.249607,0
2024-12-13 15:29:34.212,-1.16112,2.28634,4.87687,1.0586,0.387201,0.229449,0
2024-12-13 15:29:34.217,-1.21137,2.49691,4.35733,0.954754,0.331003,0.210513,0
2024-12-13 15:29:34.217,-1.21137,2.49691,4.35733,0.954754,0.331003,0.210513,0
2024-12-13 15:29:34.222,-1.24965,2.65753,3.99571,0.832585,0.269307,0.190355,0
2024-12-13 15:29:34.222,-1.24965,2.65753,3.99571,0.832585,0.269307,0.190355,0
2024-12-13 15:29:34.227,-1.31186,2.78435,3.78275,0.690257,0.211277,0.172641,0
2024-12-13 15:29:34.229,-1.36451,2.83938,3.75165,0.690257,0.211277,0.172641,0
2024-12-13 15:29:34.231,-1.41745,2.86092,3.75883,0.543654,0.169739,0.158591,0
2024-12-13 15:29:34.234,-1.47248,2.87288,3.80668,0.543654,0.169739,0.158591,0
2024-12-13 15:29:34.236,-1.53709,2.88724,3.91197,0.393386,0.145916,0.149429,0
2024-12-13 15:29:34.238,-1.58255,2.90399,4.07946,0.323673,0.140419,0.147596,0
2024-12-13 15:29:34.241,-1.61366,2.90399,4.27119,0.24976,0.134921,0.146985,0
2024-12-13 15:29:34.243,-1.61366,2.88006,4.47936,0.24976,0.134921,0.146985,0
2024-12-13 15:29:34.248,-1.65194,2.84417,4.9678,0.0610084,0.147138,0.145763,0
2024-12-13 15:29:34.248,-1.65194,2.84417,4.9678,0.0610084,0.147138,0.145763,0
2024-12-13 15:29:34.252,-1.63998,2.76521,5.50648,0.0115297,0.156911,0.142709,0
2024-12-13 15:29:34.257,-1.46052,2.64556,5.98774,-0.120413,0.183178,0.139655,0
2024-12-13 15:29:34.259,-1.43181,2.59532,6.22463,-0.120413,0.189286,0.139044,0
2024-12-13 15:29:34.262,-1.42702,2.54028,6.4352,-0.185774,0.192341,0.13599,0
2024-12-13 15:29:34.264,-1.45334,2.4658,6.64367,-0.214484,0.192341,0.134157,0
2024-12-13 15:29:34.267,-1.49163,2.38206,6.84706,-0.235863,0.192951,0.132859,0
2024-12-13 15:29:34.271,-1.55384,2.24088,7.23021,-0.271903,0.186232,0.131027,0
2024-12-13 15:29:34.274,-1.55145,2.17866,7.40489,-0.271903,0.186232,0.131027,0
2024-12-13 15:29:34.276,-1.5658,2.10449,7.54128,-0.29084,0.176459,0.128583,0
2024-12-13 15:29:34.278,-1.61366,2.03749,7.68754,-0.29084,0.176459,0.128583,0
2024-12-13 15:29:34.281,-1.66391,2.01117,7.8694,-0.29084,0.176459,0.128583,0
2024-12-13 15:29:34.288,-1.74048,1.94387,8.24776,-0.301224,0.155079,0.137822,0
2024-12-13 15:29:34.292,-1.75723,1.85773,8.4009,-0.291451,0.150803,0.14332,0
2024-12-13 15:29:34.295,-1.76441,1.83141,8.4679,-0.291451,0.150803,0.14332,0
2024-12-13 15:29:34.297,-1.75962,1.80269,8.52293,-0.281066,0.144084,0.149429,0
2024-12-13 15:29:34.302,-1.75484,1.76441,8.57797,-0.26946,0.133699,0.148818,0
2024-12-13 15:29:34.304,-1.70937,1.67109,8.67608,-0.263352,0.127591,0.150039,0
2024-12-13 15:29:34.304,-1.70937,1.67109,8.67608,-0.263352,0.127591,0.150039,0
2024-12-13 15:29:34.309,-1.70698,1.65194,8.77927,-0.245637,0.122704,0.148207,0
2024-12-13 15:29:34.311,-1.6998,1.63759,8.82473,-0.245637,0.122704,0.148207,0
2024-12-13 15:29:34.314,-1.67827,1.62323,8.87019,-0.224868,0.114763,0.145763,0
2024-12-13 15:29:34.316,-1.67827,1.62323,8.87019,-0.224868,0.114763,0.145763,0
2024-12-13 15:29:34.318,-1.6328,1.65912,8.91805,-0.197991,0.109876,0.144542,0
2024-12-13 15:29:34.321,-1.6328,1.65434,8.94198,-0.197991,0.109876,0.144542,0
2024-12-13 15:29:34.323,-1.58016,1.67109,8.95155,-0.165616,0.0988809,0.139044,0
2024-12-13 15:29:34.325,-1.54427,1.70937,8.93241,-0.149734,0.0958267,0.140266,0
2024-12-13 15:29:34.328,-1.50359,1.72373,8.89173,-0.13263,0.0909399,0.137212,0
2024-12-13 15:29:34.328,-1.50359,1.72373,8.89173,-0.13263,0.0909399,0.137212,0
2024-12-13 15:29:34.335,-1.43181,1.75484,8.78884,-0.0684913,0.0787229,0.132248,0
2024-12-13 15:29:34.335,-1.4004,1.76201,8.70748,-0.0684913,0.0787229,0.132248,0
2024-12-13 15:29:34.337,-1.38126,1.78594,8.59711,-0.0483333,0.0781121,0.129805,0
2024-12-13 15:29:34.340,-1.38126,1.78594,8.59711,-0.029397,0.0799446,0.128583,0
2024-12-13 15:29:34.344,-1.25922,1.84337,8.1688,0.0139731,0.0872748,0.127972,0
2024-12-13 15:29:34.344,-1.25922,1.84337,8.1688,0.0139731,0.0872748,0.127972,0
2024-12-13 15:29:34.349,-1.18983,1.90558,7.86222,0.0329094,0.0897182,0.126751,0
2024-12-13 15:29:34.349,-1.18983,1.90558,7.86222,0.0329094,0.0897182,0.126751,0
2024-12-13 15:29:34.354,-1.10848,1.98245,7.52932,0.0762796,0.0897182,0.127972,0
2024-12-13 15:29:34.356,-1.08455,2.02552,7.3666,0.0762796,0.0897182,0.127972,0
2024-12-13 15:29:34.358,-1.05583,2.07099,7.23739,0.100103,0.0878856,0.129194,0
2024-12-13 15:29:34.361,-1.0343,2.10209,7.11775,0.100103,0.0878856,0.129194,0
2024-12-13 15:29:34.363,-1.00798,2.12842,7.00738,0.107433,0.0854423,0.131638,0
2024-12-13 15:29:34.365,-0.967299,2.17627,6.89253,0.116595,0.0829989,0.134768,0
2024-12-13 15:29:34.370,-0.912264,2.26241,6.66281,0.119039,0.0793338,0.13599,0
2024-12-13 15:29:34.370,-0.852443,2.26241,6.66281,0.119039,0.0793338,0.13599,0
2024-12-13 15:29:34.373,-0.797109,2.30548,6.56471,0.121482,0.0677277,0.137822,0
2024-12-13 15:29:34.375,-0.751645,2.34377,6.43998,0.122093,0.0628409,0.134157,0
2024-12-13 15:29:34.380,-0.663111,2.41795,6.24377,0.114763,0.0475697,0.134768,0
2024-12-13 15:29:34.380,-0.663111,2.41795,6.24377,0.114763,0.0475697,0.134768,0
2024-12-13 15:29:34.384,-0.632004,2.4682,6.05474,0.0994917,0.0390179,0.132859,0
2024-12-13 15:29:34.384,-0.632004,2.4682,6.05474,0.0994917,0.0390179,0.132859,0
2024-12-13 15:29:34.389,-0.646361,2.51605,5.90399,0.0817772,0.0292443,0.134768,0
2024-12-13 15:29:34.389,-0.646361,2.51605,5.90399,0.0817772,0.0292443,0.134768,0
2024-12-13 15:29:34.394,-0.675075,2.57617,5.80319,0.0603975,0.0170274,0.139044,0
2024-12-13 15:29:34.396,-0.684646,2.61924,5.77448,0.0603975,0.0170274,0.139044,0
2024-12-13 15:29:34.398,-0.691825,2.65274,5.74098,0.0371853,0.00847551,0.143931,0
2024-12-13 15:29:34.398,-0.691825,2.65274,5.74098,0.0371853,0.00847551,0.143931,0
2024-12-13 15:29:34.403,-0.715753,2.7341,5.70269,0.0121406,-0.0019089,0.151261,0
2024-12-13 15:29:34.403,-0.715753,2.7341,5.70269,0.0121406,-0.0019089,0.151261,0
2024-12-13 15:29:34.408,-0.660718,2.78435,5.65723,-0.0122933,-0.00801737,0.15737,0
2024-12-13 15:29:34.408,-0.660718,2.78435,5.65723,-0.0122933,-0.00801737,0.15737,0
2024-12-13 15:29:34.413,-0.634397,2.81067,5.64527,-0.0379489,-0.013515,0.160424,0
2024-12-13 15:29:34.415,-0.648754,2.8322,5.69552,-0.0507767,-0.013515,0.163478,0
2024-12-13 15:29:34.417,-0.655932,2.84417,5.71944,-0.0623828,-0.0129041,0.167754,0
2024-12-13 15:29:34.417,-0.655932,2.84417,5.71944,-0.0623828,-0.0129041,0.167754,0
2024-12-13 15:29:34.422,-0.660718,2.85135,5.78166,-0.0819299,-0.00618483,0.178138,0
2024-12-13 15:29:34.424,-0.63679,2.88724,5.82951,-0.0819299,-0.00618483,0.178138,0
2024-12-13 15:29:34.427,-0.629611,2.91356,5.85344,-0.105142,0.00358873,0.187301,0
2024-12-13 15:29:34.429,-0.629611,2.9327,5.89681,-0.105142,0.00358873,0.187301,0
2024-12-13 15:29:34.431,-0.624826,2.97099,5.96381,-0.121635,0.014584,0.195853,0
2024-12-13 15:29:34.434,-0.624826,2.97099,6.0356,-0.121635,0.014584,0.195853,0
2024-12-13 15:29:34.436,-0.600898,3.06431,6.09302,-0.138739,0.0280226,0.206237,0
2024-12-13 15:29:34.441,-0.627219,3.11725,6.21506,-0.149123,0.0469589,0.214178,0
2024-12-13 15:29:34.441,-0.627219,3.11725,6.21506,-0.149123,0.0469589,0.214178,0
2024-12-13 15:29:34.443,-0.634397,3.14596,6.26291,-0.149123,0.0469589,0.218454,0
2024-12-13 15:29:34.446,-0.617647,3.18186,6.32273,-0.16134,0.0683385,0.22273,0
2024-12-13 15:29:34.448,-0.588933,3.21536,6.37538,-0.163783,0.0726145,0.227617,0
2024-12-13 15:29:34.450,-0.545863,3.2656,6.42802,-0.167449,0.0762796,0.226395,0
2024-12-13 15:29:34.453,-0.519542,3.31107,6.48096,-0.172946,0.0762796,0.227617,0
2024-12-13 15:29:34.455,-0.493221,3.36132,6.52882,-0.177833,0.0707819,0.229449,0
2024-12-13 15:29:34.457,-0.4669,3.40439,6.57189,-0.183331,0.0616192,0.229449,0
2024-12-13 15:29:34.462,-0.576969,3.44985,6.64846,-0.187606,0.0518457,0.230671,0
2024-12-13 15:29:34.462,-0.502792,3.44985,6.64846,-0.187606,0.0518457,0.230671,0
2024-12-13 15:29:34.464,-0.622433,3.4666,6.68914,-0.196769,0.0396287,0.227006,0
2024-12-13 15:29:34.467,-0.658325,3.47617,6.72024,-0.203488,0.0353528,0.224563,0
2024-12-13 15:29:34.469,-0.701396,3.48335,6.74656,-0.21204,0.0268009,0.220898,0
2024-12-13 15:29:34.471,-0.720539,3.51207,6.8016,-0.216927,0.0170274,0.2154,0
2024-12-13 15:29:34.476,-0.766002,3.53599,6.95474,-0.228533,-0.0110716,0.207459,0
2024-12-13 15:29:34.476,-0.766002,3.53599,6.95474,-0.228533,-0.0110716,0.207459,0
2024-12-13 15:29:34.481,-0.818644,3.58146,7.15125,-0.235253,-0.0434465,0.197685,0
2024-12-13 15:29:34.481,-0.873978,3.58146,7.15125,-0.235253,-0.0434465,0.197685,0
2024-12-13 15:29:34.486,-0.996012,3.57906,7.31157,-0.24075,-0.0825407,0.194631,0
2024-12-13 15:29:34.486,-0.996012,3.57906,7.31157,-0.24075,-0.0825407,0.194631,0
2024-12-13 15:29:34.490,-1.07737,3.55514,7.44317,-0.248691,-0.115526,0.19402,0
2024-12-13 15:29:34.491,-1.07737,3.55514,7.44317,-0.254189,-0.13263,0.19402,0
2024-12-13 15:29:34.493,-1.11087,3.54556,7.52453,-0.254189,-0.13263,0.19402,0
2024-12-13 15:29:34.495,-1.12283,3.54317,7.60858,-0.259686,-0.150956,0.195242,0
2024-12-13 15:29:34.500,-1.11805,3.55035,7.7689,-0.279844,-0.183331,0.197075,0
2024-12-13 15:29:34.500,-1.11805,3.55035,7.7689,-0.279844,-0.183331,0.197075,0
2024-12-13 15:29:34.502,-1.12283,3.55753,7.867,-0.279844,-0.183331,0.197075,0
2024-12-13 15:29:34.504,-1.12044,3.56471,7.96032,-0.303667,-0.219371,0.200129,0
2024-12-13 15:29:34.509,-1.14915,3.59581,8.18794,-0.325047,-0.253578,0.206848,0
2024-12-13 15:29:34.511,-1.30469,3.7684,8.32912,-0.325047,-0.253578,0.206848,0
2024-12-13 15:29:34.514,-1.48205,3.94068,8.4679,-0.345816,-0.249913,0.218454,0
2024-12-13 15:29:34.514,-1.48205,3.94068,8.4679,-0.345816,-0.249913,0.218454,0
2024-12-13 15:29:34.521,-0.871586,3.44028,8.67608,-0.366585,-0.18272,0.230671,0
2024-12-13 15:29:34.521,-0.871586,3.44028,8.67608,-0.366585,-0.18272,0.230671,0
2024-12-13 15:29:34.526,-0.919442,3.38525,9.19801,-0.390408,-0.234031,0.228228,0
2024-12-13 15:29:34.526,-0.919442,3.38525,9.19801,-0.390408,-0.234031,0.228228,0
2024-12-13 15:29:34.530,-1.08933,3.402,9.42802,-0.414231,-0.28412,0.23006,0
2024-12-13 15:29:34.533,-1.14437,3.41875,9.51895,-0.422172,-0.29084,0.234947,0
2024-12-13 15:29:34.535,-1.1683,3.45224,9.67687,-0.428891,-0.282899,0.242888,0
2024-12-13 15:29:34.537,-1.17787,3.49053,9.84228,-0.428891,-0.268849,0.248386,0
2024-12-13 15:29:34.542,-1.1324,3.47378,10.1581,-0.442941,-0.227312,0.260603,0
2024-12-13 15:29:34.545,-1.1013,3.44028,10.34,-0.442941,-0.227312,0.260603,0
2024-12-13 15:29:34.547,-1.0654,3.38525,10.5413,-0.445995,-0.179665,0.269155,0
2024-12-13 15:29:34.549,-1.0343,3.31825,10.7088,-0.445995,-0.179665,0.269155,0
2024-12-13 15:29:34.552,-0.998405,3.27518,10.8739,-0.439886,-0.143015,0.274041,0
2024-12-13 15:29:34.554,-1.01515,3.31585,11.0632,-0.433167,-0.121635,0.277096,0
2024-12-13 15:29:34.559,-1.06062,3.40917,11.3312,-0.404457,-0.0422248,0.280761,0
2024-12-13 15:29:34.559,-1.06062,3.40917,11.3312,-0.404457,-0.0422248,0.280761,0
2024-12-13 15:29:34.563,-0.706182,3.15793,11.5035,-0.370861,0.0182491,0.277096,0
2024-12-13 15:29:34.566,-0.722932,3.12921,11.7239,-0.358033,0.0176382,0.271598,0
2024-12-13 15:29:34.570,-0.761217,3.134,11.8843,-0.321382,0.00297788,0.254494,0
2024-12-13 15:29:34.570,-0.761217,3.14118,11.9345,-0.321382,0.00297788,0.254494,0
2024-12-13 15:29:34.575,-0.813859,3.19143,11.9919,-0.282288,-0.00862822,0.237391,0
2024-12-13 15:29:34.577,-0.813859,3.19143,11.9919,-0.257854,-0.00679568,0.228839,0
2024-12-13 15:29:34.582,-0.821037,3.29193,12.0712,-0.208986,0.00236703,0.209292,0
2024-12-13 15:29:34.585,-0.766002,3.31107,12.0784,-0.208986,0.00236703,0.209292,0
2024-12-13 15:29:34.587,-0.703789,3.33021,12.0927,-0.158897,-0.00374144,0.183025,0
2024-12-13 15:29:34.589,-0.658325,3.32303,12.0832,-0.158897,-0.00374144,0.183025,0
2024-12-13 15:29:34.594,-0.612862,3.31107,12.0326,-0.0904818,-0.0434465,0.134768,0
2024-12-13 15:29:34.596,-0.60329,3.32064,12.0159,-0.0672696,-0.0587177,0.120031,0
2024-12-13 15:29:34.599,-0.596112,3.32303,11.968,-0.0428357,-0.0715455,0.105371,0
2024-12-13 15:29:34.601,-0.565005,3.335,11.913,-0.0428357,-0.0715455,0.105371,0
2024-12-13 15:29:34.603,-0.536291,3.37089,11.8651,-0.00496313,-0.0941468,0.0760505,0
2024-12-13 15:29:34.606,-0.495613,3.40678,11.7861,-0.00496313,-0.100866,0.0613902,0
2024-12-13 15:29:34.608,-0.459721,3.43789,11.7096,0.0329094,-0.107585,0.0455081,0
2024-12-13 15:29:34.610,-0.438186,3.46899,11.6234,0.0329094,-0.107585,0.0455081,0
2024-12-13 15:29:34.615,-0.409472,3.53121,11.3839,0.0720036,-0.117359,-0.00213797,0
2024-12-13 15:29:34.615,-0.409472,3.53121,11.3839,0.0720036,-0.117359,-0.00213797,0
2024-12-13 15:29:34.617,-0.409472,3.55753,11.2642,0.0829989,-0.11797,-0.0149658,0
2024-12-13 15:29:34.620,-0.423829,3.57428,11.1613,0.0915507,-0.115526,-0.0271827,0
2024-12-13 15:29:34.622,-0.438186,3.59821,11.0584,0.0915507,-0.115526,-0.0271827,0
2024-12-13 15:29:34.627,-0.419043,3.66072,10.8547,0.108044,-0.105142,-0.0656661,0
2024-12-13 15:29:34.629,-0.4334,3.71575,10.7782,0.109876,-0.102088,-0.0803264,0
2024-12-13 15:29:34.629,-0.4334,3.71575,10.7782,0.109876,-0.102088,-0.0803264,0
2024-12-13 15:29:34.634,-0.502792,3.82343,10.6322,0.109876,-0.0990336,-0.105982,0
2024-12-13 15:29:34.636,-0.541077,3.86172,10.5891,0.109876,-0.0990336,-0.105982,0
2024-12-13 15:29:34.639,-0.574577,3.89043,10.5509,0.102546,-0.0953685,-0.132859,0
2024-12-13 15:29:34.641,-0.596112,3.93589,10.5102,0.102546,-0.0953685,-0.132859,0
2024-12-13 15:29:34.643,-0.629611,3.98614,10.5102,0.100713,-0.093536,-0.158515,0
2024-12-13 15:29:34.646,-0.665504,4.02921,10.5078,0.100713,-0.0904818,-0.170121,0
2024-12-13 15:29:34.648,-0.703789,4.06511,10.5102,0.0939941,-0.0892601,-0.181727,0
2024-12-13 15:29:34.650,-0.751645,4.11296,10.5245,0.0909399,-0.085595,-0.192111,0
2024-12-13 15:29:34.653,-0.780359,4.168,10.5102,0.0860531,-0.0874275,-0.203107,0
2024-12-13 15:29:34.655,-0.794716,4.20628,10.515,0.0848314,-0.0892601,-0.210437,0
2024-12-13 15:29:34.660,-0.809073,4.24487,10.558,0.0817772,-0.0996445,-0.228151,0
2024-12-13 15:29:34.660,-0.828216,4.28076,10.558,0.0817772,-0.0996445,-0.228151,0
2024-12-13 15:29:34.665,-0.873978,4.34537,10.6155,0.0793338,-0.106975,-0.234871,0
2024-12-13 15:29:34.665,-0.873978,4.34537,10.6155,0.0793338,-0.106975,-0.234871,0
2024-12-13 15:29:34.669,-0.871586,4.39801,10.6849,0.0701711,-0.144236,-0.252585,0
2024-12-13 15:29:34.672,-0.859622,4.44586,10.7375,0.0701711,-0.144236,-0.252585,0
2024-12-13 15:29:34.674,-0.837787,4.47936,10.7806,0.0646735,-0.172335,-0.262359,0
2024-12-13 15:29:34.674,-0.837787,4.47936,10.7806,0.0646735,-0.172335,-0.262359,0
2024-12-13 15:29:34.679,-0.818644,4.52243,10.917,0.058565,-0.208375,-0.273354,0
2024-12-13 15:29:34.681,-0.804287,4.54636,10.9747,0.0542891,-0.227922,-0.27763,0
2024-12-13 15:29:34.683,-0.787538,4.56311,11.0513,0.050624,-0.249302,-0.280684,0
2024-12-13 15:29:34.683,-0.787538,4.56311,11.0513,0.050624,-0.249302,-0.280684,0
2024-12-13 15:29:34.689,-0.727717,4.5679,11.202,0.0329094,-0.313441,-0.293512,0
2024-12-13 15:29:34.690,-0.696611,4.58465,11.3049,0.0329094,-0.313441,-0.293512,0
2024-12-13 15:29:34.693,-0.677468,4.58465,11.4365,0.0286335,-0.334821,-0.297788,0
2024-12-13 15:29:34.695,-0.663111,4.57747,11.5684,0.022525,-0.350703,-0.301453,0
2024-12-13 15:29:34.700,-0.687039,4.57508,11.8077,0.014584,-0.37758,-0.303286,0
2024-12-13 15:29:34.700,-0.687039,4.57508,11.8077,0.014584,-0.37758,-0.303286,0
2024-12-13 15:29:34.705,-0.672682,4.57029,12.0446,0.0115297,-0.392851,-0.305118,0
2024-12-13 15:29:34.707,-0.670289,4.56311,12.1573,0.0115297,-0.392851,-0.305118,0
2024-12-13 15:29:34.709,-0.677468,4.56072,12.277,0.00786466,-0.398349,-0.301453,0
2024-12-13 15:29:34.712,-0.675075,4.54397,12.4014,0.0096972,-0.39957,-0.300842,0
2024-12-13 15:29:34.714,-0.658325,4.51765,12.5091,0.010308,-0.400792,-0.301453,0
2024-12-13 15:29:34.716,-0.641576,4.52004,12.6191,0.00908635,-0.400792,-0.302064,0
2024-12-13 15:29:34.719,-0.610469,4.52483,12.7463,0.0096972,-0.39957,-0.302675,0
2024-12-13 15:29:34.721,-0.617647,4.5344,12.8874,0.0127514,-0.400792,-0.305729,0
2024-12-13 15:29:34.723,-0.648754,4.55354,13.0238,0.0170274,-0.396516,-0.30634,0
2024-12-13 15:29:34.726,-0.665504,4.57508,13.1219,0.0200816,-0.391019,-0.308172,0
2024-12-13 15:29:34.728,-0.672682,4.59661,13.1892,0.0200816,-0.391019,-0.308172,0
2024-12-13 15:29:34.731,-0.663111,4.61815,13.2347,0.0322986,-0.375137,-0.314281,0
2024-12-13 15:29:34.733,-0.655932,4.63968,13.2706,0.0322986,-0.375137,-0.314281,0
2024-12-13 15:29:34.735,-0.643968,4.65165,13.3017,0.0451263,-0.356811,-0.320389,0
2024-12-13 15:29:34.738,-0.62004,4.6325,13.3065,0.0481806,-0.348259,-0.325887,0
2024-12-13 15:29:34.740,-0.591326,4.61576,13.2921,0.0512348,-0.342762,-0.32833,0
2024-12-13 15:29:34.742,-0.581755,4.61097,13.2993,0.0518457,-0.339097,-0.333828,0
2024-12-13 15:29:34.745,-0.576969,4.60618,13.3113,0.0555107,-0.336042,-0.338104,0
2024-12-13 15:29:34.747,-0.584148,4.58226,13.2993,0.0536782,-0.333599,-0.339936,0
2024-12-13 15:29:34.749,-0.586541,4.55833,13.2873,0.0536782,-0.333599,-0.341158,0
2024-12-13 15:29:34.754,-0.581755,4.54636,13.2443,0.0475697,-0.328712,-0.344212,0
2024-12-13 15:29:34.754,-0.591326,4.51047,13.2443,0.0475697,-0.328712,-0.344212,0
2024-12-13 15:29:34.756,-0.579362,4.47219,13.2419,0.0475697,-0.328712,-0.344212,0
2024-12-13 15:29:34.759,-0.531506,4.41236,13.2515,0.0359636,-0.328101,-0.342991,0
2024-12-13 15:29:34.763,-0.423829,4.29272,13.3304,0.0121406,-0.336653,-0.341769,0
2024-12-13 15:29:34.763,-0.423829,4.29272,13.3304,0.0121406,-0.336653,-0.341769,0
2024-12-13 15:29:34.766,-0.373579,4.24487,13.407,0.0121406,-0.336653,-0.341769,0
2024-12-13 15:29:34.771,-0.227318,4.08903,13.5506,-0.0129041,-0.345816,-0.341158,0
2024-12-13 15:29:34.773,-0.181855,4.04357,13.6343,-0.0471116,-0.354979,-0.346045,0
2024-12-13 15:29:34.773,-0.181855,4.04357,13.6343,-0.0471116,-0.354979,-0.346045,0
2024-12-13 15:29:34.775,-0.148355,4.0005,13.7204,-0.0471116,-0.354979,-0.346045,0
2024-12-13 15:29:34.778,-0.11007,3.94786,13.8165,-0.0831516,-0.34887,-0.350932,0
2024-12-13 15:29:34.782,-0.0454636,3.7684,14.094,-0.121024,-0.325047,-0.358262,0
2024-12-13 15:29:34.782,-0.0454636,3.7684,14.094,-0.121024,-0.325047,-0.358262,0
2024-12-13 15:29:34.787,-0.0478565,3.54317,14.4867,-0.156453,-0.286564,-0.365592,0
2024-12-13 15:29:34.789,-0.0717847,3.40917,14.6997,-0.156453,-0.286564,-0.365592,0
2024-12-13 15:29:34.792,-0.117248,3.26082,14.889,-0.178444,-0.236474,-0.370479,0
2024-12-13 15:29:34.794,-0.239282,3.11486,15.0709,-0.178444,-0.236474,-0.370479,0
2024-12-13 15:29:34.796,-0.239282,3.11486,15.2671,-0.191272,-0.169892,-0.372311,0
2024-12-13 15:29:34.796,-0.299402,2.99013,15.2671,-0.191272,-0.169892,-0.372311,0
2024-12-13 15:29:34.801,-0.371187,2.86331,15.4636,-0.190661,-0.0972011,-0.368035,0
2024-12-13 15:29:34.804,-0.488435,2.55224,15.7819,-0.190661,-0.0972011,-0.368035,0
2024-12-13 15:29:34.806,-0.56022,2.42752,15.9159,-0.168059,-0.0275645,-0.366203,0
2024-12-13 15:29:34.808,-0.646361,2.30548,16.0262,-0.168059,-0.0275645,-0.366203,0
2024-12-13 15:29:34.811,-0.734896,2.18345,16.0765,-0.125911,0.0353528,-0.358262,0
2024-12-13 15:29:34.813,-0.811466,2.06381,16.1124,-0.125911,0.0658951,-0.354597,0
2024-12-13 15:29:34.818,-0.847657,1.92473,16.0741,-0.0275645,0.11232,-0.346045,3
2024-12-13 15:29:34.818,-0.862014,1.7668,16.0741,-0.0275645,0.11232,-0.346045,3
2024-12-13 15:29:34.822,-0.902692,1.49402,15.8058,0.0652843,0.14897,-0.338715,0
2024-12-13 15:29:34.827,-0.926621,1.40279,15.5737,0.0652843,0.14897,-0.333828,0
2024-12-13 15:29:34.832,-1.03908,1.2329,14.6327,0.272972,0.196006,-0.322833,0
2024-12-13 15:29:34.832,-1.03908,1.2329,14.6327,0.272972,0.196006,-0.322833,0
2024-12-13 15:29:34.837,-1.01755,1.2018,13.8284,0.325505,0.200282,-0.318557,0
2024-12-13 15:29:34.838,-1.01755,1.2018,13.8284,0.428815,0.197838,-0.317335,0
2024-12-13 15:29:34.841,-0.924228,1.1659,12.8874,0.477683,0.192951,-0.31367,0
2024-12-13 15:29:34.841,-0.924228,1.1659,12.8874,0.477683,0.192951,-0.31367,0
2024-12-13 15:29:34.846,-0.828216,1.11805,11.9513,0.575418,0.169128,-0.31367,0
2024-12-13 15:29:34.846,-0.828216,1.11805,11.9513,0.575418,0.169128,-0.31367,0
2024-12-13 15:29:34.851,-0.722932,1.10608,10.9795,0.66338,0.139808,-0.318557,0
2024-12-13 15:29:34.853,-0.722932,1.10608,10.9795,0.66338,0.139808,-0.318557,0
2024-12-13 15:29:34.855,-0.54347,1.15633,10.06,0.742179,0.090329,-0.32833,0
2024-12-13 15:29:34.855,-0.54347,1.15633,10.06,0.742179,0.090329,-0.32833,0
2024-12-13 15:29:34.860,-0.457328,1.2664,9.2028,0.805708,0.0292443,-0.339326,0
2024-12-13 15:29:34.862,-0.395115,1.35733,8.79123,0.805708,0.0292443,-0.339326,0
2024-12-13 15:29:34.865,-0.318545,1.44616,8.41047,0.855797,-0.041614,-0.350932,0
2024-12-13 15:29:34.865,-0.318545,1.44616,8.41047,0.855797,-0.041614,-0.350932,0
2024-12-13 15:29:34.869,-0.153141,1.61366,7.67318,0.888172,-0.116137,-0.36437,0
2024-12-13 15:29:34.872,-0.0622134,1.72852,7.3355,0.888172,-0.116137,-0.36437,0
2024-12-13 15:29:34.874,0.00478565,1.83859,7.03639,0.906497,-0.198602,-0.377809,0
2024-12-13 15:29:34.877,0.00478565,1.91516,6.75613,0.906497,-0.198602,-0.377809,0
2024-12-13 15:29:34.879,0.133998,1.97049,6.47378,0.903443,-0.293283,-0.392469,0
2024-12-13 15:29:34.881,0.191426,2.03988,6.21745,0.893059,-0.340318,-0.399189,0
2024-12-13 15:29:34.884,0.232104,2.0997,5.99731,0.875955,-0.38491,-0.405297,0
2024-12-13 15:29:34.886,0.275175,2.14756,5.81276,0.875955,-0.38491,-0.405297,0
2024-12-13 15:29:34.888,0.354437,2.19781,5.65723,0.830752,-0.47104,-0.413849,0
2024-12-13 15:29:34.891,0.435793,2.25045,5.53998,0.802042,-0.50708,-0.415071,0
2024-12-13 15:29:34.893,0.493221,2.31266,5.45145,0.769057,-0.541287,-0.417514,0
2024-12-13 15:29:34.898,0.651147,2.44666,5.3342,0.698809,-0.588322,-0.415071,0
2024-12-13 15:29:34.898,0.651147,2.44666,5.3342,0.698809,-0.588322,-0.415071,0
2024-12-13 15:29:34.900,0.744467,2.48734,5.31476,0.698809,-0.588322,-0.415071,0
2024-12-13 15:29:34.905,0.789931,2.5331,5.31237,0.571142,-0.626195,-0.406519,0
2024-12-13 15:29:34.905,0.821037,2.58814,5.36052,0.571142,-0.626195,-0.406519,0
2024-12-13 15:29:34.907,0.890728,2.61446,5.43231,0.524718,-0.624362,-0.398578,0
2024-12-13 15:29:34.910,0.969691,2.63121,5.51845,0.479515,-0.619475,-0.391859,0
2024-12-13 15:29:34.912,1.04865,2.65992,5.61655,0.479515,-0.619475,-0.391859,0
2024-12-13 15:29:34.914,1.13958,2.68146,5.71466,0.387277,-0.57977,-0.380252,0
2024-12-13 15:29:34.917,1.1994,2.67906,5.87019,0.341998,-0.552282,-0.376587,0
2024-12-13 15:29:34.919,1.20419,2.6671,6.04995,0.301071,-0.526627,-0.369257,0
2024-12-13 15:29:34.924,1.20658,2.60728,6.30838,0.22777,-0.469818,-0.343602,0
2024-12-13 15:29:34.926,1.22333,2.57139,6.37538,0.189286,-0.44233,-0.32772,0
2024-12-13 15:29:34.926,1.22333,2.57139,6.37538,0.189286,-0.44233,-0.32772,0
2024-12-13 15:29:34.928,1.22812,2.52592,6.42563,0.150803,-0.41362,-0.310005,0
2024-12-13 15:29:34.931,1.21376,2.49452,6.48575,0.150803,-0.41362,-0.310005,0
2024-12-13 15:29:34.933,1.19222,2.45384,6.56949,0.0701711,-0.3562,-0.276408,0
2024-12-13 15:29:34.938,1.0989,2.37488,6.7681,0.0329094,-0.32749,-0.239147,0
2024-12-13 15:29:34.938,1.0989,2.37488,6.7681,0.0329094,-0.32749,-0.239147,0
2024-12-13 15:29:34.942,0.936192,2.25763,7.01486,-0.0703238,-0.249302,-0.196387,0
2024-12-13 15:29:34.945,0.828216,2.18824,7.15125,-0.0703238,-0.249302,-0.196387,0
2024-12-13 15:29:34.947,0.74686,2.14038,7.29482,-0.124689,-0.209597,-0.146909,0
2024-12-13 15:29:34.950,0.665504,2.10449,7.43839,-0.147901,-0.197991,-0.122475,0
2024-12-13 15:29:34.952,0.591326,2.05663,7.57747,-0.16867,-0.19005,-0.0955976,0
2024-12-13 15:29:34.952,0.591326,2.05663,7.57747,-0.16867,-0.19005,-0.0955976,0
2024-12-13 15:29:34.957,0.483649,1.98485,7.82632,-0.201045,-0.182109,-0.0503949,0
2024-12-13 15:29:34.959,0.452543,1.95105,7.94836,-0.201045,-0.180276,-0.0284044,0
2024-12-13 15:29:34.964,0.407079,1.90798,8.2023,-0.23342,-0.180887,0.00763559,0
2024-12-13 15:29:34.964,0.378365,1.86969,8.2023,-0.23342,-0.180887,0.00763559,0
2024-12-13 15:29:34.966,0.361615,1.84337,8.3363,-0.238918,-0.182109,0.0241285,0
2024-12-13 15:29:34.968,0.34008,1.82662,8.47508,-0.24075,-0.180887,0.0387888,0
2024-12-13 15:29:34.971,0.328116,1.80748,8.60668,-0.237696,-0.182109,0.0516166,0
2024-12-13 15:29:34.973,0.304188,1.77637,8.73141,-0.234642,-0.183941,0.062001,0
2024-12-13 15:29:34.978,0.27996,1.72852,8.9348,-0.213873,-0.186996,0.0815481,0
2024-12-13 15:29:34.978,0.267996,1.68066,8.9348,-0.213873,-0.186996,0.0815481,0
2024-12-13 15:29:34.980,0.253639,1.65673,9.00658,-0.199213,-0.186385,0.0888783,0
2024-12-13 15:29:34.983,0.248854,1.6352,9.05683,-0.199213,-0.186385,0.0888783,0
2024-12-13 15:29:34.985,0.253639,1.60887,9.1023,-0.184552,-0.188217,0.102928,0
2024-12-13 15:29:34.987,0.251246,1.58734,9.12144,-0.147901,-0.188828,0.105371,0
2024-12-13 15:29:34.990,0.244068,1.58734,9.1358,-0.147901,-0.188828,0.105371,0
2024-12-13 15:29:34.992,0.239282,1.59691,9.13101,-0.10392,-0.192493,0.112701,0
2024-12-13 15:29:34.994,0.239282,1.61127,9.09512,-0.0825407,-0.194326,0.115145,0
2024-12-13 15:29:34.997,0.258425,1.61366,9.04487,-0.0593285,-0.193715,0.116366,0
2024-12-13 15:29:35.000,0.248854,1.60887,8.99223,-0.0122933,-0.191272,0.116977,0
2024-12-13 15:29:35.001,0.234497,1.61127,8.92523,-0.0122933,-0.191272,0.116977,0
2024-12-13 15:29:35.006,0.248854,1.60648,8.72423,0.0347419,-0.188828,0.115756,0
2024-12-13 15:29:35.006,0.248854,1.60648,8.72423,0.0347419,-0.188828,0.115756,0
2024-12-13 15:29:35.011,0.260818,1.63041,8.44876,0.0781121,-0.176611,0.112701,0
2024-12-13 15:29:35.011,0.260818,1.63041,8.44876,0.0781121,-0.176611,0.112701,0
2024-12-13 15:29:35.015,0.294616,1.68544,8.15205,0.116595,-0.163783,0.107815,0
2024-12-13 15:29:35.015,0.294616,1.68544,8.15205,0.116595,-0.163783,0.107815,0
2024-12-13 15:29:35.020,0.337687,1.74527,7.8335,0.147138,-0.150345,0.0992627,0
2024-12-13 15:29:35.020,0.337687,1.74527,7.8335,0.147138,-0.150345,0.0992627,0
2024-12-13 15:29:35.025,0.337687,1.81944,7.48146,0.171572,-0.127133,0.0839915,0
2024-12-13 15:29:35.025,0.337687,1.81944,7.48146,0.171572,-0.127133,0.0839915,0
2024-12-13 15:29:35.030,0.34008,1.86012,7.14168,0.1844,-0.0972011,0.0717745,0
2024-12-13 15:29:35.030,0.364008,1.89123,7.14168,0.1844,-0.0972011,0.0717745,0
2024-12-13 15:29:35.034,0.407079,1.94148,6.79921,0.189286,-0.0721563,0.0516166,0
2024-12-13 15:29:35.034,0.407079,1.94148,6.79921,0.189286,-0.0721563,0.0516166,0
2024-12-13 15:29:35.039,0.423829,2.01356,6.51207,0.18501,-0.049555,0.0351237,0
2024-12-13 15:29:35.041,0.421436,2.04467,6.37538,0.18501,-0.049555,0.0351237,0
2024-12-13 15:29:35.044,0.407079,2.08295,6.25813,0.175237,-0.0269536,0.0137441,0
2024-12-13 15:29:35.044,0.407079,2.08295,6.25813,0.175237,-0.0269536,0.0137441,0
2024-12-13 15:29:35.048,0.383151,2.13799,6.02363,0.161187,-0.00679568,-0.00458135,0
2024-12-13 15:29:35.048,0.383151,2.13799,6.02363,0.161187,-0.00679568,-0.00458135,0
2024-12-13 15:29:35.053,0.35683,2.21695,5.8343,0.14164,0.0109189,-0.0210742,0
2024-12-13 15:29:35.056,0.35683,2.21695,5.74337,0.14164,0.0109189,-0.0210742,0
2024-12-13 15:29:35.058,0.330509,2.29591,5.65962,0.123315,0.0310769,-0.0369563,0
2024-12-13 15:29:35.058,0.330509,2.29591,5.65962,0.123315,0.0310769,-0.0369563,0
2024-12-13 15:29:35.063,0.304188,2.39402,5.51605,0.102546,0.0487914,-0.0516166,0
2024-12-13 15:29:35.065,0.294616,2.42273,5.44188,0.102546,0.0487914,-0.0516166,0
2024-12-13 15:29:35.067,0.277567,2.45145,5.37488,0.0775012,0.0591758,-0.0650552,0
2024-12-13 15:29:35.067,0.277567,2.45145,5.37488,0.0775012,0.0591758,-0.0650552,0
2024-12-13 15:29:35.072,0.253639,2.52832,5.27887,0.0487914,0.0610084,-0.0754396,0
2024-12-13 15:29:35.074,0.234497,2.55703,5.2358,0.0396287,0.0622301,-0.0809373,0
2024-12-13 15:29:35.077,0.198604,2.60967,5.18794,0.0237467,0.0573433,-0.0882674,0
2024-12-13 15:29:35.081,0.153141,2.68624,5.10658,-0.00557398,0.0457372,-0.0955976,0
2024-12-13 15:29:35.084,0.153141,2.68624,5.07787,-0.0226777,0.0371853,-0.098041,0
2024-12-13 15:29:35.084,0.124427,2.7341,5.07787,-0.0226777,0.0371853,-0.098041,0
2024-12-13 15:29:35.086,0.0909273,2.76999,5.07787,-0.0226777,0.0371853,-0.098041,0
2024-12-13 15:29:35.091,0.0287139,2.84417,5.07548,-0.0758214,0.0127514,-0.106593,0
2024-12-13 15:29:35.093,0.0287139,2.84417,5.07548,-0.0947577,0.00358873,-0.107204,0
2024-12-13 15:29:35.096,0.0287139,2.84178,5.16162,-0.107585,-0.00679568,-0.109647,0
2024-12-13 15:29:35.098,0.0287139,2.85613,5.22383,-0.1253,-0.0184018,-0.110869,0
2024-12-13 15:29:35.098,0.0287139,2.85613,5.22383,-0.1253,-0.0184018,-0.110869,0
2024-12-13 15:29:35.103,-0.0789631,2.98056,5.27408,-0.153399,-0.0367272,-0.113923,0
2024-12-13 15:29:35.103,-0.0789631,2.98056,5.27408,-0.153399,-0.0367272,-0.113923,0
2024-12-13 15:29:35.107,-0.119641,3.04517,5.31476,-0.185163,-0.0471116,-0.115145,0
2024-12-13 15:29:35.110,-0.16989,3.11246,5.42034,-0.199213,-0.0550526,-0.115145,0
2024-12-13 15:29:35.112,-0.189033,3.11964,5.47777,-0.199213,-0.0550526,-0.115145,0
2024-12-13 15:29:35.112,-0.189033,3.11964,5.47777,-0.199213,-0.0550526,-0.115145,0
2024-12-13 15:29:35.117,-0.200997,3.15793,5.61416,-0.24075,-0.0758214,-0.115145,0
2024-12-13 15:29:35.119,-0.193819,3.16989,5.68355,-0.24075,-0.0758214,-0.115145,0
2024-12-13 15:29:35.121,-0.205783,3.16511,5.73859,-0.267627,-0.0972011,-0.113923,0
2024-12-13 15:29:35.124,-0.234497,3.18186,5.80319,-0.277401,-0.110029,-0.115756,0
2024-12-13 15:29:35.126,-0.246461,3.19382,5.87258,-0.292672,-0.121635,-0.116977,0
2024-12-13 15:29:35.129,-0.246461,3.201,5.96142,-0.292672,-0.121635,-0.116977,0
2024-12-13 15:29:35.131,-0.270389,3.21296,6.04517,-0.31283,-0.141793,-0.113923,0
2024-12-13 15:29:35.133,-0.270389,3.22732,6.10499,-0.31283,-0.141793,-0.113923,0
2024-12-13 15:29:35.136,-0.297009,3.23928,6.18874,-0.336653,-0.154621,-0.11148,0
2024-12-13 15:29:35.138,-0.297009,3.25125,6.28206,-0.345205,-0.156453,-0.107815,0
2024-12-13 15:29:35.140,-0.285045,3.24885,6.3682,-0.353146,-0.156453,-0.10476,0
2024-12-13 15:29:35.143,-0.267996,3.25603,6.45942,-0.353146,-0.156453,-0.10476,0
2024-12-13 15:29:35.145,-0.248854,3.2656,6.54078,-0.370861,-0.150345,-0.0998735,0
2024-12-13 15:29:35.147,-0.217747,3.25125,6.62692,-0.370861,-0.150345,-0.0998735,0
2024-12-13 15:29:35.150,-0.196211,3.24168,6.71067,-0.386743,-0.13996,-0.0968193,0
2024-12-13 15:29:35.152,-0.191426,3.24646,6.80399,-0.386743,-0.13996,-0.0968193,0
2024-12-13 15:29:35.154,-0.18664,3.26082,6.9021,-0.401403,-0.127743,-0.0894891,0
2024-12-13 15:29:35.159,-0.177069,3.28714,7.12254,-0.416063,-0.116748,-0.082159,0
2024-12-13 15:29:35.159,-0.177069,3.28714,7.12254,-0.416063,-0.116748,-0.082159,0
2024-12-13 15:29:35.162,-0.143569,3.29432,7.24936,-0.424615,-0.111251,-0.0791047,0
2024-12-13 15:29:35.164,-0.112463,3.29193,7.37139,-0.431945,-0.105753,-0.0748288,0
2024-12-13 15:29:35.166,-0.112463,3.28235,7.5006,-0.431945,-0.105753,-0.0717745,0
2024-12-13 15:29:35.169,-0.117248,3.27278,7.63011,-0.443551,-0.0984228,-0.0687203,0
2024-12-13 15:29:35.171,-0.117248,3.27996,7.75215,-0.453936,-0.0978119,-0.0662769,0
2024-12-13 15:29:35.173,-0.112463,3.3015,7.88854,-0.459433,-0.0965902,-0.062001,0
2024-12-13 15:29:35.173,-0.112463,3.3015,7.88854,-0.459433,-0.0965902,-0.062001,0
2024-12-13 15:29:35.178,-0.0693919,3.32303,8.16401,-0.466153,-0.0978119,-0.0577251,0
2024-12-13 15:29:35.178,-0.0693919,3.32303,8.16401,-0.466153,-0.0978119,-0.0577251,0
2024-12-13 15:29:35.183,0.00478565,3.33978,8.46551,-0.470429,-0.102088,-0.05406,0
2024-12-13 15:29:35.183,0.00478565,3.33978,8.46551,-0.470429,-0.102088,-0.05406,0
2024-12-13 15:29:35.187,0.0933201,3.34696,8.75294,-0.469207,-0.105142,-0.0577251,0
2024-12-13 15:29:35.190,0.117248,3.34696,8.87019,-0.469207,-0.105142,-0.0577251,0
2024-12-13 15:29:35.192,0.141177,3.34457,8.98505,-0.463099,-0.104531,-0.0589468,0
2024-12-13 15:29:35.194,0.16989,3.32303,9.09751,-0.463099,-0.104531,-0.0589468,0
2024-12-13 15:29:35.197,0.18664,3.31346,9.17408,-0.453936,-0.0996445,-0.0626118,0
2024-12-13 15:29:35.199,0.20339,3.30389,9.23151,-0.453936,-0.0996445,-0.0626118,0
2024-12-13 15:29:35.202,0.212961,3.28235,9.30838,-0.445384,-0.0892601,-0.0644444,0
2024-12-13 15:29:35.204,0.210568,3.27757,9.39213,-0.445384,-0.0892601,-0.0644444,0
2024-12-13 15:29:35.206,0.208176,3.27039,9.45673,-0.434389,-0.0800973,-0.0668878,0
2024-12-13 15:29:35.209,0.217747,3.2656,9.50698,-0.434389,-0.0800973,-0.0668878,0
2024-12-13 15:29:35.211,0.208176,3.28235,9.55723,-0.430113,-0.0666587,-0.0681095,0
2024-12-13 15:29:35.213,0.184247,3.28475,9.61945,-0.430113,-0.0666587,-0.0681095,0
2024-12-13 15:29:35.216,0.177069,3.28235,9.67448,-0.435,-0.0556635,-0.0687203,0
2024-12-13 15:29:35.218,0.172283,3.28475,9.72712,-0.435,-0.0556635,-0.0687203,0
2024-12-13 15:29:35.220,0.172283,3.27757,9.8013,-0.441719,-0.0471116,-0.0693312,0
2024-12-13 15:29:35.223,0.181855,3.27278,9.88056,-0.441719,-0.0471116,-0.0693312,0
2024-12-13 15:29:35.225,0.196211,3.2656,9.9667,-0.450882,-0.0385597,-0.0754396,0
2024-12-13 15:29:35.230,0.210568,3.25843,10.0744,-0.457601,-0.0251211,-0.0827698,0
2024-12-13 15:29:35.230,0.196211,3.25364,10.1701,-0.457601,-0.0251211,-0.0827698,0
2024-12-13 15:29:35.232,0.181855,3.25364,10.2682,-0.457601,-0.0251211,-0.0827698,0
2024-12-13 15:29:35.235,0.157926,3.25364,10.3881,-0.460044,0.00297788,-0.0907108,0
2024-12-13 15:29:35.237,0.133998,3.23928,10.5078,-0.460044,0.0231358,-0.0937651,0
2024-12-13 15:29:35.239,0.119641,3.22971,10.6131,-0.458212,0.0432938,-0.0968193,0
2024-12-13 15:29:35.242,0.0933201,3.23928,10.7064,-0.453325,0.0671168,-0.0998735,0
2024-12-13 15:29:35.242,0.0933201,3.23928,10.7064,-0.453325,0.0671168,-0.0998735,0
2024-12-13 15:29:35.244,0.0717847,3.24885,10.7925,-0.453325,0.0671168,-0.0998735,0
2024-12-13 15:29:35.249,0.0502493,3.25843,10.9699,-0.424615,0.139197,-0.11148,0
2024-12-13 15:29:35.251,0.0382852,3.28235,11.0297,-0.424615,0.139197,-0.11148,0
2024-12-13 15:29:35.253,0.0382852,3.32064,11.0824,-0.397127,0.183178,-0.116977,0
2024-12-13 15:29:35.253,0.0143569,3.32064,11.0824,-0.397127,0.183178,-0.116977,0
2024-12-13 15:29:35.258,-0.0143569,3.3326,11.135,-0.36292,0.225326,-0.119421,0
2024-12-13 15:29:35.260,-0.0382852,3.38764,11.1829,-0.345816,0.239376,-0.120642,0
2024-12-13 15:29:35.263,-0.0526421,3.41635,11.1972,-0.326269,0.250371,-0.121864,0
2024-12-13 15:29:35.265,-0.0646062,3.43071,11.1996,-0.326269,0.250371,-0.121864,0
2024-12-13 15:29:35.267,-0.0717847,3.45942,11.1685,-0.287785,0.267475,-0.12614,0
2024-12-13 15:29:35.270,-0.0717847,3.50728,11.1159,-0.287785,0.267475,-0.12614,0
2024-12-13 15:29:35.272,-0.0765703,3.55753,11.0465,-0.246248,0.266253,-0.126751,0
2024-12-13 15:29:35.272,-0.0765703,3.55753,11.0465,-0.246248,0.266253,-0.126751,0
2024-12-13 15:29:35.277,-0.0693919,3.66072,10.8858,-0.207764,0.25648,-0.126751,0
2024-12-13 15:29:35.279,-0.0478565,3.70618,10.7758,-0.207764,0.25648,-0.126751,0
2024-12-13 15:29:35.282,-0.0215354,3.74447,10.6896,-0.174779,0.232656,-0.127362,0
2024-12-13 15:29:35.284,-0.0215354,3.74447,10.6107,-0.174779,0.232656,-0.127362,0
2024-12-13 15:29:35.286,0.0741775,3.84257,10.5293,-0.146069,0.198449,-0.129805,0
2024-12-13 15:29:35.289,0.129212,3.88086,10.4408,-0.133852,0.178291,-0.131638,0
2024-12-13 15:29:35.291,0.162712,3.92632,10.3376,-0.122246,0.157522,-0.132859,0
2024-12-13 15:29:35.293,0.162712,3.92632,10.2395,-0.113083,0.137364,-0.134081,0
2024-12-13 15:29:35.296,0.208176,4.01964,10.1605,-0.10331,0.125147,-0.137135,0
2024-12-13 15:29:35.298,0.22014,4.07468,10.0792,-0.10331,0.125147,-0.137135,0
2024-12-13 15:29:35.300,0.215354,4.11536,10.0026,-0.0892601,0.104379,-0.135914,0
2024-12-13 15:29:35.304,0.210568,4.16082,9.93081,-0.081319,0.100103,-0.134081,0
2024-12-13 15:29:35.305,0.177069,4.21376,9.86381,-0.081319,0.100103,-0.134081,0
2024-12-13 15:29:35.305,0.177069,4.21376,9.86381,-0.081319,0.100103,-0.134081,0
2024-12-13 15:29:35.308,0.136391,4.2353,9.80369,-0.0745997,0.0891073,-0.124918,0
2024-12-13 15:29:35.310,0.122034,4.25205,9.76302,-0.0727672,0.0891073,-0.11881,0
2024-12-13 15:29:35.312,0.114855,4.27119,9.72234,-0.0709346,0.0884965,-0.112701,0
2024-12-13 15:29:35.317,0.131605,4.32383,9.6362,-0.0703238,0.0915507,-0.102928,0
2024-12-13 15:29:35.319,0.131605,4.32383,9.61227,-0.0739889,0.103157,-0.0827698,0
2024-12-13 15:29:35.319,0.153141,4.34537,9.61227,-0.0739889,0.103157,-0.0827698,0
2024-12-13 15:29:35.322,0.174676,4.35254,9.60509,-0.077654,0.107433,-0.0717745,0
2024-12-13 15:29:35.326,0.217747,4.39322,9.61705,-0.081319,0.114763,-0.0601685,0
2024-12-13 15:29:35.329,0.236889,4.42911,9.62423,-0.0874275,0.131256,-0.033902,0
2024-12-13 15:29:35.331,0.256032,4.45065,9.65295,-0.0874275,0.131256,-0.033902,0
2024-12-13 15:29:35.333,0.285045,4.45783,9.71037,-0.0929251,0.14836,-0.00946813,0
2024-12-13 15:29:35.333,0.285045,4.45783,9.71037,-0.0929251,0.14836,-0.00946813,0
2024-12-13 15:29:35.338,0.301795,4.49611,9.78216,-0.0965902,0.172793,0.0198525,0
2024-12-13 15:29:35.342,0.285045,4.48654,9.83749,-0.0953685,0.196616,0.0497841,0
2024-12-13 15:29:35.343,0.275175,4.47936,9.90688,-0.0953685,0.196616,0.0497841,0
2024-12-13 15:29:35.343,0.275175,4.47936,9.90688,-0.0953685,0.196616,0.0497841,0
2024-12-13 15:29:35.348,0.292223,4.49372,10.0624,-0.0923143,0.217996,0.0797156,0
2024-12-13 15:29:35.352,0.292223,4.48654,10.2203,-0.0862058,0.231435,0.106593,0
2024-12-13 15:29:35.352,0.297009,4.48654,10.2203,-0.0862058,0.231435,0.106593,0
2024-12-13 15:29:35.355,0.294616,4.48415,10.2969,-0.0837624,0.236322,0.120031,0
2024-12-13 15:29:35.359,0.277567,4.47697,10.4312,-0.0715455,0.24243,0.141487,0
2024-12-13 15:29:35.359,0.263211,4.45304,10.4312,-0.0715455,0.24243,0.141487,0
2024-12-13 15:29:35.363,0.251246,4.43629,10.5174,-0.0562743,0.243041,0.159813,0
2024-12-13 15:29:35.364,0.22014,4.42433,10.5796,-0.0562743,0.243041,0.159813,0
2024-12-13 15:29:35.369,0.18664,4.42433,10.6729,-0.0422248,0.238154,0.171419,0
2024-12-13 15:29:35.371,0.16989,4.41476,10.7064,-0.0348946,0.233878,0.176917,0
2024-12-13 15:29:35.376,0.162712,4.41236,10.7806,-0.0177909,0.22044,0.179971,0
2024-12-13 15:29:35.381,0.12682,4.42433,10.8715,-0.00496313,0.209444,0.178749,0
2024-12-13 15:29:35.381,0.12682,4.42433,10.8715,-0.00496313,0.209444,0.178749,0
2024-12-13 15:29:35.383,0.0933201,4.42433,10.9436,-0.000687203,0.200892,0.175084,0
2024-12-13 15:29:35.385,0.0526421,4.4339,11.0369,0.00725381,0.193562,0.170808,0
2024-12-13 15:29:35.388,0.0239282,4.43629,11.135,0.0182491,0.188065,0.168365,0
2024-12-13 15:29:35.390,0.0,4.45065,11.2235,0.0268009,0.183789,0.162867,0
2024-12-13 15:29:35.392,-0.00478565,4.4674,11.3049,0.0359636,0.180124,0.156148,0
2024-12-13 15:29:35.395,0.00239282,4.48654,11.3719,0.0457372,0.175237,0.151872,0
2024-12-13 15:29:35.397,0.0191426,4.51526,11.4389,0.0457372,0.175237,0.151872,0
2024-12-13 15:29:35.399,0.026321,4.56072,11.5205,0.0610084,0.162409,0.132859,0
2024-12-13 15:29:35.402,0.026321,4.60618,11.5851,0.0683385,0.152635,0.122475,0
2024-12-13 15:29:35.404,0.0215354,4.62772,11.6474,0.074447,0.139197,0.11209,0
2024-12-13 15:29:35.406,0.00478565,4.65404,11.7239,0.074447,0.139197,0.11209,0
2024-12-13 15:29:35.409,-0.0167498,4.67558,11.8077,0.086664,0.125758,0.0913217,0
2024-12-13 15:29:35.411,-0.0334995,4.6995,11.8675,0.0921616,0.119039,0.0833807,0
2024-12-13 15:29:35.414,-0.0454636,4.74018,11.9225,0.100103,0.116595,0.0748288,0
2024-12-13 15:29:35.416,-0.0430708,4.75693,11.9895,0.102546,0.111709,0.0687203,0
2024-12-13 15:29:35.418,-0.0334995,4.77877,12.0565,0.109265,0.107433,0.0613902,0
2024-12-13 15:29:35.421,-0.0191426,4.81466,12.1382,0.109265,0.103157,0.0552817,0
2024-12-13 15:29:35.423,-0.00717847,4.82902,12.2028,0.11232,0.102546,0.0485624,0
2024-12-13 15:29:35.425,-0.00717847,4.83619,12.2578,0.11293,0.101324,0.0436756,0
2024-12-13 15:29:35.428,0.00957129,4.84577,12.3248,0.114152,0.101324,0.0375671,0
2024-12-13 15:29:35.430,0.0382852,4.86012,12.4086,0.114152,0.101324,0.0375671,0
2024-12-13 15:29:35.432,0.0526421,4.87687,12.4828,0.114763,0.113541,0.0320695,0
2024-12-13 15:29:35.435,0.0526421,4.88884,12.5665,0.114152,0.123926,0.0296261,0
2024-12-13 15:29:35.437,0.0837488,4.91276,12.6745,0.11232,0.137364,0.0302369,0
2024-12-13 15:29:35.439,0.0981057,4.94148,12.7606,0.111709,0.152025,0.0296261,0
2024-12-13 15:29:35.442,0.107677,4.9678,12.8444,0.108044,0.169128,0.0302369,0
2024-12-13 15:29:35.444,0.129212,4.99412,12.9377,0.108044,0.169128,0.0302369,0
2024-12-13 15:29:35.446,0.160319,5.01566,13.019,0.104379,0.210666,0.0320695,0
2024-12-13 15:29:35.446,0.160319,5.01566,13.019,0.104379,0.210666,0.0320695,0
2024-12-13 15:29:35.451,0.222533,5.08026,13.165,0.0988809,0.260145,0.0332912,0
2024-12-13 15:29:35.454,0.222533,5.08026,13.2443,0.0976592,0.291909,0.0387888,0
2024-12-13 15:29:35.454,0.253639,5.12812,13.2443,0.0976592,0.291909,0.0387888,0
2024-12-13 15:29:35.456,0.256032,5.14487,13.3161,0.0958267,0.326727,0.0412322,0
2024-12-13 15:29:35.461,0.267996,5.11615,13.4166,0.0958267,0.363378,0.0448973,0
2024-12-13 15:29:35.461,0.267996,5.11615,13.4166,0.0958267,0.363378,0.0448973,0
2024-12-13 15:29:35.465,0.200997,5.07069,13.4644,0.0872748,0.478217,0.0565034,0
2024-12-13 15:29:35.465,0.200997,5.07069,13.4644,0.0872748,0.478217,0.0565034,0
2024-12-13 15:29:35.468,0.131605,5.0659,13.4285,0.0842206,0.513035,0.0595576,0
2024-12-13 15:29:35.472,-0.0789631,5.05873,13.3831,0.0622301,0.560071,0.0723854,0
2024-12-13 15:29:35.475,-0.0789631,5.05155,13.3663,0.0500131,0.575953,0.0809373,0
2024-12-13 15:29:35.475,-0.208176,5.05155,13.3663,0.0500131,0.575953,0.0809373,0
2024-12-13 15:29:35.477,-0.320937,5.01326,13.3711,0.0335202,0.583894,0.0864349,0
2024-12-13 15:29:35.479,-0.404686,4.94866,13.3902,0.00847551,0.585726,0.0925434,0
2024-12-13 15:29:35.484,-0.519542,4.77877,13.407,-0.0428357,0.564957,0.105982,0
2024-12-13 15:29:35.487,-0.576969,4.68515,13.4524,-0.0739889,0.546632,0.11148,0
2024-12-13 15:29:35.488,-0.576969,4.68515,13.4524,-0.107585,0.520366,0.115145,0
2024-12-13 15:29:35.489,-0.610469,4.58226,13.5362,-0.107585,0.520366,0.115145,0
2024-12-13 15:29:35.491,-0.62004,4.47936,13.6558,-0.143015,0.486158,0.118199,0
2024-12-13 15:29:35.496,-0.562612,4.24965,13.9289,-0.224868,0.40858,0.118199,0
2024-12-13 15:29:35.496,-0.562612,4.24965,13.9289,-0.224868,0.40858,0.118199,0
2024-12-13 15:29:35.498,-0.502792,4.11775,14.1251,-0.224868,0.40858,0.118199,0
2024-12-13 15:29:35.501,-0.428614,3.98854,14.3551,-0.304889,0.331003,0.107204,0
2024-12-13 15:29:35.505,-0.3999,3.7014,14.7739,-0.38491,0.257701,0.0913217,0
2024-12-13 15:29:35.505,-0.3999,3.7014,14.7739,-0.38491,0.257701,0.0913217,0
2024-12-13 15:29:35.508,-0.375972,3.51924,15.0135,-0.418507,0.225326,0.0815481,0
2024-12-13 15:29:35.510,-0.332901,3.32782,15.2839,-0.418507,0.225326,0.0815481,0
2024-12-13 15:29:35.512,-0.260818,3.12204,15.6,-0.472872,0.180734,0.0632227,0
