timestamp,accel_x,accel_y,accel_z,gyro_x,gyro_y,gyro_z,step_timestamp
2024-12-13 15:37:33.294,0.82343,3.9,9.13819,-0.0202343,-0.085595,0.0497841,0
2024-12-13 15:37:33.294,0.82343,3.9,9.13819,-0.0202343,-0.085595,0.0497841,0
2024-12-13 15:37:33.294,0.82343,3.9,9.13819,-0.0202343,-0.085595,0.0497841,0
2024-12-13 15:37:33.294,0.82343,3.9,9.13819,-0.0202343,-0.085595,0.0497841,0
2024-12-13 15:37:33.294,0.82343,3.9,9.13819,-0.0202343,-0.085595,0.0497841,0
2024-12-13 15:37:33.294,0.82343,3.9,9.13819,-0.0202343,-0.085595,0.0497841,0
2024-12-13 15:37:33.294,0.82343,3.9,9.13819,-0.0202343,-0.085595,0.0497841,0
2024-12-13 15:37:33.294,0.82343,3.9,9.13819,-0.0202343,-0.085595,0.0497841,0
2024-12-13 15:37:33.294,0.82343,3.9,9.13819,-0.0202343,-0.085595,0.0497841,0
2024-12-13 15:37:33.294,0.82343,3.9,9.13819,-0.0202343,-0.085595,0.0497841,0
2024-12-13 15:37:33.294,0.82343,3.9,9.13819,-0.0202343,-0.085595,0.0497841,0
2024-12-13 15:37:33.294,0.82343,3.9,9.13819,-0.0202343,-0.085595,0.0497841,0
2024-12-13 15:37:33.294,0.82343,3.9,9.13819,-0.0202343,-0.085595,0.0497841,0
2024-12-13 15:37:33.294,0.82343,3.9,9.13819,-0.0202343,-0.085595,0.0497841,0
2024-12-13 15:37:33.294,0.82343,3.9,9.13819,-0.0202343,-0.085595,0.0497841,0
2024-12-13 15:37:33.294,0.82343,3.9,9.13819,-0.0202343,-0.085595,0.0497841,0
2024-12-13 15:37:33.294,0.82343,3.9,9.13819,-0.0202343,-0.085595,0.0497841,0
2024-12-13 15:37:33.294,0.82343,3.9,9.13819,-0.0202343,-0.085595,0.0497841,0
2024-12-13 15:37:33.294,0.82343,3.9,9.13819,-0.0202343,-0.085595,0.0497841,0
2024-12-13 15:37:33.294,0.82343,3.9,9.13819,-0.0202343,-0.085595,0.0497841,0
2024-12-13 15:37:33.294,0.82343,3.9,9.13819,-0.0202343,-0.085595,0.0497841,0
2024-12-13 15:37:33.294,0.82343,3.9,9.13819,-0.0202343,-0.085595,0.0497841,0
2024-12-13 15:37:33.294,0.82343,3.9,9.13819,-0.0202343,-0.085595,0.0497841,0
2024-12-13 15:37:33.294,0.82343,3.9,9.13819,-0.0202343,-0.085595,0.0497841,0
2024-12-13 15:37:33.294,0.82343,3.9,9.13819,-0.0202343,-0.085595,0.0497841,0
2024-12-13 15:37:33.294,0.82343,3.9,9.13819,-0.0202343,-0.085595,0.0497841,0
2024-12-13 15:37:33.294,0.82343,3.9,9.13819,-0.0202343,-0.085595,0.0497841,0
2024-12-13 15:37:33.294,0.82343,3.9,9.13819,-0.0202343,-0.085595,0.0497841,0
2024-12-13 15:37:33.294,0.82343,3.9,9.13819,-0.0202343,-0.085595,0.0497841,0
2024-12-13 15:37:33.294,0.82343,3.9,9.13819,-0.0202343,-0.085595,0.0497841,0
2024-12-13 15:37:33.294,0.82343,3.9,9.13819,-0.0202343,-0.085595,0.0497841,0
2024-12-13 15:37:33.294,0.82343,3.9,9.13819,-0.0202343,-0.085595,0.0497841,0
2024-12-13 15:37:33.294,0.82343,3.9,9.13819,-0.0202343,-0.085595,0.0497841,0
2024-12-13 15:37:33.294,0.82343,3.9,9.13819,-0.0202343,-0.085595,0.0497841,0
2024-12-13 15:37:33.294,0.82343,3.9,9.13819,-0.0202343,-0.085595,0.0497841,0
2024-12-13 15:37:33.294,0.82343,3.9,9.13819,-0.0202343,-0.085595,0.0497841,0
2024-12-13 15:37:33.294,0.82343,3.9,9.13819,-0.0202343,-0.085595,0.0497841,0
2024-12-13 15:37:33.294,0.82343,3.9,9.13819,-0.0202343,-0.085595,0.0497841,0
2024-12-13 15:37:33.294,0.82343,3.9,9.13819,-0.0202343,-0.085595,0.0497841,0
2024-12-13 15:37:33.294,0.82343,3.9,9.13819,-0.0202343,-0.085595,0.0497841,0
2024-12-13 15:37:33.294,0.82343,3.9,9.13819,-0.0202343,-0.085595,0.0497841,0
2024-12-13 15:37:33.294,0.82343,3.9,9.13819,-0.0202343,-0.085595,0.0497841,0
2024-12-13 15:37:33.294,0.82343,3.9,9.13819,-0.0202343,-0.085595,0.0497841,0
2024-12-13 15:37:33.294,0.82343,3.9,9.13819,-0.0202343,-0.085595,0.0497841,0
2024-12-13 15:37:33.294,0.82343,3.9,9.13819,-0.0202343,-0.085595,0.0497841,0
2024-12-13 15:37:33.294,0.82343,3.9,9.13819,-0.0202343,-0.085595,0.0497841,0
2024-12-13 15:37:33.294,0.82343,3.9,9.13819,-0.0202343,-0.085595,0.0497841,0
2024-12-13 15:37:33.294,0.82343,3.9,9.13819,-0.0202343,-0.085595,0.0497841,0
2024-12-13 15:37:33.294,0.82343,3.9,9.13819,-0.0202343,-0.085595,0.0497841,0
2024-12-13 15:37:33.294,0.82343,3.9,9.13819,-0.0202343,-0.085595,0.0497841,0
2024-12-13 15:37:33.294,0.82343,3.9,9.13819,-0.0202343,-0.085595,0.0497841,0
2024-12-13 15:37:33.294,0.82343,3.9,9.13819,-0.0202343,-0.085595,0.0497841,0
2024-12-13 15:37:33.294,0.82343,3.9,9.13819,-0.0202343,-0.085595,0.0497841,0
2024-12-13 15:37:33.294,0.82343,3.9,9.13819,-0.0202343,-0.085595,0.0497841,0
2024-12-13 15:37:33.294,0.82343,3.9,9.13819,-0.0202343,-0.085595,0.0497841,0
2024-12-13 15:37:33.294,0.82343,3.9,9.13819,-0.0202343,-0.085595,0.0497841,0
2024-12-13 15:37:33.294,0.82343,3.9,9.13819,-0.0202343,-0.085595,0.0497841,0
2024-12-13 15:37:33.294,0.82343,3.9,9.13819,-0.0202343,-0.085595,0.0497841,0
2024-12-13 15:37:33.294,0.82343,3.9,9.13819,-0.0202343,-0.085595,0.0497841,0
2024-12-13 15:37:33.294,0.82343,3.9,9.13819,-0.0202343,-0.085595,0.0497841,0
2024-12-13 15:37:33.294,0.82343,3.9,9.13819,-0.0202343,-0.085595,0.0497841,0
2024-12-13 15:37:33.294,0.82343,3.9,9.13819,-0.0202343,-0.085595,0.0497841,0
2024-12-13 15:37:33.294,0.82343,3.9,9.13819,-0.0202343,-0.085595,0.0497841,0
2024-12-13 15:37:33.294,0.82343,3.9,9.13819,-0.0202343,-0.085595,0.0497841,0
2024-12-13 15:37:33.294,0.82343,3.9,9.13819,-0.0202343,-0.085595,0.0497841,0
2024-12-13 15:37:33.294,0.82343,3.9,9.13819,-0.0202343,-0.085595,0.0497841,0
2024-12-13 15:37:33.294,0.82343,3.9,9.13819,-0.0202343,-0.085595,0.0497841,0
2024-12-13 15:37:33.294,0.82343,3.9,9.13819,-0.0202343,-0.085595,0.0497841,0
2024-12-13 15:37:33.294,0.82343,3.9,9.13819,-0.0202343,-0.085595,0.0497841,0
2024-12-13 15:37:33.294,0.82343,3.9,9.13819,-0.0202343,-0.085595,0.0497841,0
2024-12-13 15:37:33.295,0.82343,3.9,9.13819,-0.0202343,-0.085595,0.0497841,0
2024-12-13 15:37:33.295,0.82343,3.9,9.13819,-0.0202343,-0.085595,0.0497841,0
2024-12-13 15:37:33.299,0.885943,3.9,9.15255,-0.0202343,-0.085595,0.0497841,0
2024-12-13 15:37:33.306,0.94337,3.89043,9.22194,-0.0202343,-0.085595,0.0497841,0
2024-12-13 15:37:33.322,0.936192,3.8665,9.30359,-0.0684913,-0.00740652,-0.0149658,0
2024-12-13 15:37:33.322,0.936192,3.8665,9.30359,-0.0684913,-0.00740652,-0.0149658,0
2024-12-13 15:37:33.322,0.936192,3.8665,9.30359,-0.0684913,-0.00740652,-0.0149658,0
2024-12-13 15:37:33.322,0.936192,3.8665,9.30359,-0.0684913,-0.00740652,-0.0149658,0
2024-12-13 15:37:33.322,0.936192,3.8665,9.30359,-0.0684913,-0.00740652,-0.0149658,0
2024-12-13 15:37:33.322,0.936192,3.8665,9.30359,-0.0684913,-0.00740652,-0.0149658,0
2024-12-13 15:37:33.322,0.936192,3.8665,9.30359,-0.0684913,-0.00740652,-0.0149658,0
2024-12-13 15:37:33.322,0.936192,3.8665,9.30359,-0.0684913,-0.00740652,-0.0149658,0
2024-12-13 15:37:33.322,0.936192,3.8665,9.30359,-0.0684913,-0.00740652,-0.0149658,0
2024-12-13 15:37:33.322,0.936192,3.8665,9.30359,-0.0684913,-0.00740652,-0.0149658,0
2024-12-13 15:37:33.325,0.926621,3.86172,9.29163,-0.0727672,-0.00251974,-0.0161875,0
2024-12-13 15:37:33.325,0.926621,3.86172,9.29163,-0.0727672,-0.00251974,-0.0161875,0
2024-12-13 15:37:33.327,0.909871,3.85454,9.28684,-0.0745997,0.000534491,-0.0222959,0
2024-12-13 15:37:33.327,0.909871,3.85454,9.28684,-0.0745997,0.000534491,-0.0222959,0
2024-12-13 15:37:33.329,0.909871,3.8354,9.28924,-0.0764323,0.00114534,-0.0277936,0
2024-12-13 15:37:33.329,0.893121,3.8354,9.28924,-0.0764323,0.00114534,-0.0277936,0
2024-12-13 15:37:33.329,0.893121,3.8354,9.28924,-0.0764323,0.00114534,-0.0277936,0
2024-12-13 15:37:33.329,0.893121,3.8354,9.28924,-0.0764323,0.00114534,-0.0277936,0
2024-12-13 15:37:33.329,0.893121,3.8354,9.28924,-0.0764323,0.00114534,-0.0277936,0
2024-12-13 15:37:33.329,0.893121,3.8354,9.28924,-0.0764323,0.00114534,-0.0277936,0
2024-12-13 15:37:33.332,0.885943,3.82582,9.28445,-0.0788757,0.00358873,-0.0308478,0
2024-12-13 15:37:33.332,0.885943,3.82582,9.28445,-0.0788757,0.00358873,-0.0308478,0
2024-12-13 15:37:33.334,0.888335,3.8354,9.28206,-0.0831516,0.00725381,-0.0314586,0
2024-12-13 15:37:33.339,0.871586,3.82822,9.32992,-0.0886492,0.0188599,-0.0351237,0
2024-12-13 15:37:33.339,0.871586,3.82822,9.32992,-0.0886492,0.0188599,-0.0351237,0
2024-12-13 15:37:33.341,0.862014,3.83061,9.39452,-0.0929251,0.0176382,-0.0326803,0
2024-12-13 15:37:33.346,0.835394,3.8019,9.50938,-0.0929251,0.00847551,-0.0320695,0
2024-12-13 15:37:33.346,0.835394,3.8019,9.50938,-0.0929251,0.00847551,-0.0320695,0
2024-12-13 15:37:33.351,0.744467,3.78275,9.53091,-0.0837624,-7.63559e-05,-0.0314586,0
2024-12-13 15:37:33.351,0.744467,3.78275,9.53091,-0.0837624,-7.63559e-05,-0.0314586,0
2024-12-13 15:37:33.353,0.71336,3.78275,9.52373,-0.0752106,-0.00435229,-0.0320695,0
2024-12-13 15:37:33.355,0.706182,3.77557,9.50938,-0.0648262,-0.000687203,-0.033902,0
2024-12-13 15:37:33.358,0.708575,3.766,9.49741,-0.057496,0.00419957,-0.033902,0
2024-12-13 15:37:33.360,0.708575,3.766,9.49741,-0.0477224,0.00786466,-0.033902,0
2024-12-13 15:37:33.365,0.789931,3.75643,9.64816,-0.0257319,0.0188599,-0.0387888,0
2024-12-13 15:37:33.365,0.789931,3.75643,9.64816,-0.0257319,0.0188599,-0.0387888,0
2024-12-13 15:37:33.367,0.84018,3.75404,9.75823,-0.013515,0.0292443,-0.0400105,0
2024-12-13 15:37:33.370,0.854836,3.75404,9.81326,-0.013515,0.0292443,-0.0400105,0
2024-12-13 15:37:33.372,0.828216,3.75404,9.77977,0.0158057,0.050624,-0.046119,0
2024-12-13 15:37:33.377,0.734896,3.80907,9.55723,0.0365745,0.0542891,-0.0503949,0
2024-12-13 15:37:33.378,0.780359,3.80907,9.55723,0.0414613,0.0561216,-0.0510057,0
2024-12-13 15:37:33.381,0.699003,3.84018,9.35624,0.0414613,0.0561216,-0.0510057,0
2024-12-13 15:37:33.384,0.679861,3.85454,9.30359,0.0481806,0.050624,-0.0528383,0
2024-12-13 15:37:33.386,0.670289,3.8689,9.28445,0.0481806,0.050624,-0.0528383,0
2024-12-13 15:37:33.388,0.658325,3.87847,9.26531,0.050624,0.0414613,-0.0552817,0
2024-12-13 15:37:33.391,0.639183,3.87129,9.24826,0.0500131,0.0377962,-0.05406,0
2024-12-13 15:37:33.395,0.588933,3.87607,9.19562,0.0561216,0.0286335,-0.0565034,0
2024-12-13 15:37:33.398,0.588933,3.88325,9.15494,0.0542891,0.022525,-0.0565034,0
2024-12-13 15:37:33.400,0.514756,3.88564,9.1023,0.0524565,0.0182491,-0.0552817,0
2024-12-13 15:37:33.400,0.514756,3.88564,9.1023,0.0524565,0.0182491,-0.0552817,0
2024-12-13 15:37:33.400,0.514756,3.88564,9.1023,0.0524565,0.0182491,-0.0552817,0
2024-12-13 15:37:33.402,0.512363,3.89043,9.05205,0.0518457,0.0115297,-0.05406,0
2024-12-13 15:37:33.405,0.507577,3.91675,9.01376,0.0481806,0.00725381,-0.0516166,0
2024-12-13 15:37:33.407,0.486042,3.93111,8.98983,0.0457372,0.00114534,-0.0503949,0
2024-12-13 15:37:33.410,0.483649,3.91914,8.96591,0.0432938,-0.0019089,-0.0479515,0
2024-12-13 15:37:33.412,0.486042,3.91197,8.93719,0.0402396,-0.00740652,-0.046119,0
2024-12-13 15:37:33.414,0.483649,3.91675,8.93001,0.0341311,-0.0116825,-0.0448973,0
2024-12-13 15:37:33.417,0.507577,3.91914,8.92284,0.0268009,-0.0190126,-0.0436756,0
2024-12-13 15:37:33.419,0.54347,3.92632,8.9013,0.0213033,-0.0257319,-0.0406213,0
2024-12-13 15:37:33.421,0.576969,3.93589,8.89412,0.0133623,-0.033673,-0.0412322,0
2024-12-13 15:37:33.424,0.610469,3.93111,8.89412,0.00725381,-0.0403923,-0.0406213,0
2024-12-13 15:37:33.426,0.641576,3.93589,8.88455,0.00725381,-0.0403923,-0.0406213,0
2024-12-13 15:37:33.428,0.675075,3.9335,8.87498,-0.00557398,-0.0471116,-0.0393996,0
2024-12-13 15:37:33.431,0.706182,3.92393,8.88694,-0.0153475,-0.0501658,-0.041843,0
2024-12-13 15:37:33.433,0.727717,3.92154,8.91326,-0.021456,-0.0513875,-0.0467298,0
2024-12-13 15:37:33.435,0.756431,3.90239,8.96112,-0.0306187,-0.0550526,-0.0467298,0
2024-12-13 15:37:33.438,0.792323,3.87368,8.99223,-0.0342838,-0.0556635,-0.0467298,0
2024-12-13 15:37:33.440,0.816252,3.86411,9.01855,-0.0422248,-0.0544418,-0.0528383,0
2024-12-13 15:37:33.443,0.84018,3.87847,9.06641,-0.0489441,-0.0526092,-0.0571142,0
2024-12-13 15:37:33.445,0.847657,3.87368,9.10469,-0.0526092,-0.0507767,-0.0601685,0
2024-12-13 15:37:33.447,0.842872,3.85215,9.1334,-0.0556635,-0.0465007,-0.0632227,0
2024-12-13 15:37:33.450,0.845265,3.84018,9.16212,-0.057496,-0.0452791,-0.0674986,0
2024-12-13 15:37:33.452,0.842872,3.833,9.19083,-0.0599394,-0.0410031,-0.0693312,0
2024-12-13 15:37:33.454,0.833001,3.8354,9.21476,-0.0599394,-0.0385597,-0.0717745,0
2024-12-13 15:37:33.457,0.82343,3.82104,9.22912,-0.0617719,-0.0330621,-0.0754396,0
2024-12-13 15:37:33.461,0.799502,3.80429,9.27249,-0.0617719,-0.0275645,-0.0815481,0
2024-12-13 15:37:33.461,0.799502,3.80429,9.27249,-0.0617719,-0.0275645,-0.0815481,0
2024-12-13 15:37:33.464,0.792323,3.78036,9.29642,-0.0605502,-0.0226777,-0.0815481,0
2024-12-13 15:37:33.466,0.768395,3.77797,9.33231,-0.0605502,-0.0190126,-0.082159,0
2024-12-13 15:37:33.471,0.718146,3.76122,9.37299,-0.0605502,-0.0147367,-0.0833807,0
2024-12-13 15:37:33.471,0.718146,3.76122,9.37299,-0.0605502,-0.0147367,-0.0833807,0
2024-12-13 15:37:33.473,0.703789,3.7684,9.37059,-0.0599394,-0.0122933,-0.082159,0
2024-12-13 15:37:33.475,0.679861,3.7684,9.37299,-0.0605502,-0.0141258,-0.0797156,0
2024-12-13 15:37:33.480,0.643968,3.76361,9.39931,-0.0599394,-0.0171801,-0.0742179,0
2024-12-13 15:37:33.480,0.643968,3.76361,9.39931,-0.0599394,-0.0171801,-0.0742179,0
2024-12-13 15:37:33.483,0.617647,3.77797,9.4017,-0.0611611,-0.021456,-0.0711637,0
2024-12-13 15:37:33.485,0.605683,3.78036,9.40648,-0.0599394,-0.0226777,-0.0681095,0
2024-12-13 15:37:33.487,0.593719,3.766,9.40648,-0.0599394,-0.0251211,-0.0650552,0
2024-12-13 15:37:33.490,0.591326,3.75883,9.39691,-0.0605502,-0.0263428,-0.0632227,0
2024-12-13 15:37:33.492,0.627219,3.74208,9.39452,-0.057496,-0.0269536,-0.0607793,0
2024-12-13 15:37:33.494,0.663111,3.73729,9.38974,-0.0568851,-0.0281753,-0.0558925,0
2024-12-13 15:37:33.497,0.679861,3.75404,9.38734,-0.0581068,-0.0269536,-0.0552817,0
2024-12-13 15:37:33.499,0.687039,3.74686,9.37777,-0.0550526,-0.0275645,-0.05406,0
2024-12-13 15:37:33.501,0.691825,3.74925,9.37059,-0.0550526,-0.0275645,-0.05406,0
2024-12-13 15:37:33.504,0.694218,3.75404,9.3682,-0.0513875,-0.033673,-0.0516166,0
2024-12-13 15:37:33.506,0.703789,3.7684,9.37538,-0.049555,-0.0342838,-0.0516166,0
2024-12-13 15:37:33.508,0.722932,3.78993,9.39691,-0.0465007,-0.0348946,-0.0528383,0
2024-12-13 15:37:33.511,0.751645,3.78993,9.42563,-0.041614,-0.0330621,-0.0522274,0
2024-12-13 15:37:33.513,0.799502,3.78515,9.44716,-0.0379489,-0.0300079,-0.0528383,0
2024-12-13 15:37:33.516,0.830609,3.78275,9.45673,-0.0324513,-0.0251211,-0.0546708,0
2024-12-13 15:37:33.518,0.809073,3.79232,9.43759,-0.0263428,-0.0220669,-0.0577251,0
2024-12-13 15:37:33.520,0.758824,3.78993,9.41606,-0.0208452,-0.0196235,-0.0583359,0
2024-12-13 15:37:33.523,0.742074,3.76361,9.41127,-0.0177909,-0.0202343,-0.0607793,0
2024-12-13 15:37:33.525,0.73011,3.75643,9.39452,-0.0141258,-0.0190126,-0.0626118,0
2024-12-13 15:37:33.527,0.708575,3.766,9.37777,-0.0129041,-0.0226777,-0.0632227,0
2024-12-13 15:37:33.530,0.691825,3.74447,9.36581,-0.00801737,-0.0251211,-0.0644444,0
2024-12-13 15:37:33.532,0.675075,3.7325,9.35863,-0.00496313,-0.029397,-0.0644444,0
2024-12-13 15:37:33.534,0.658325,3.7349,9.3682,-0.00374144,-0.0330621,-0.0626118,0
2024-12-13 15:37:33.537,0.643968,3.73011,9.36341,-0.00251974,-0.0361163,-0.0626118,0
2024-12-13 15:37:33.541,0.576969,3.71575,9.39691,0.00358873,-0.0348946,-0.0571142,0
2024-12-13 15:37:33.541,0.576969,3.71575,9.39691,0.00358873,-0.0348946,-0.0571142,0
2024-12-13 15:37:33.546,0.579362,3.7014,9.38256,0.0127514,-0.0318404,-0.0510057,0
2024-12-13 15:37:33.546,0.579362,3.7014,9.38256,0.0127514,-0.0318404,-0.0510057,0
2024-12-13 15:37:33.551,0.596112,3.7014,9.37299,0.0231358,-0.0226777,-0.046119,0
2024-12-13 15:37:33.551,0.596112,3.7014,9.37299,0.0231358,-0.0226777,-0.046119,0
2024-12-13 15:37:33.553,0.624826,3.69661,9.35624,0.0249684,-0.0177909,-0.0448973,0
2024-12-13 15:37:33.556,0.643968,3.699,9.33231,0.0280226,-0.0122933,-0.0430647,0
2024-12-13 15:37:33.560,0.660718,3.7014,9.27488,0.0329094,-0.00129805,-0.0393996,0
2024-12-13 15:37:33.560,0.660718,3.7014,9.27488,0.0329094,-0.00129805,-0.0393996,0
2024-12-13 15:37:33.563,0.672682,3.71815,9.25305,0.0335202,0.00236703,-0.038178,0
2024-12-13 15:37:33.565,0.684646,3.74925,9.2363,0.0335202,0.00908635,-0.0387888,0
2024-12-13 15:37:33.567,0.701396,3.77079,9.21476,0.0329094,0.0139731,-0.0375671,0
2024-12-13 15:37:33.570,0.718146,3.77797,9.2028,0.0322986,0.0176382,-0.0387888,0
2024-12-13 15:37:33.572,0.720539,3.77797,9.20519,0.0298552,0.022525,-0.0387888,0
2024-12-13 15:37:33.574,0.725324,3.78993,9.2004,0.030466,0.0274118,-0.0412322,0
2024-12-13 15:37:33.577,0.742074,3.7995,9.18365,0.0274118,0.0292443,-0.0436756,0
2024-12-13 15:37:33.581,0.744467,3.79472,9.20997,0.0243575,0.0341311,-0.0448973,0
2024-12-13 15:37:33.584,0.751645,3.80429,9.21715,0.0243575,0.0353528,-0.0497841,0
2024-12-13 15:37:33.584,0.751645,3.80429,9.21715,0.0243575,0.0353528,-0.0497841,0
2024-12-13 15:37:33.586,0.749253,3.79472,9.21715,0.0231358,0.0353528,-0.0534491,0
2024-12-13 15:37:33.589,0.749253,3.79472,9.2004,0.0231358,0.0335202,-0.0552817,0
2024-12-13 15:37:33.591,0.74686,3.78754,9.17169,0.0200816,0.0310769,-0.0577251,0
2024-12-13 15:37:33.596,0.742074,3.77797,9.1334,0.0170274,0.0237467,-0.0613902,0
2024-12-13 15:37:33.596,0.742074,3.77797,9.1334,0.0170274,0.0237467,-0.0613902,0
2024-12-13 15:37:33.598,0.74686,3.7684,9.1023,0.0170274,0.0206925,-0.062001,0
2024-12-13 15:37:33.600,0.744467,3.78275,9.06401,0.014584,0.014584,-0.0638335,0
2024-12-13 15:37:33.603,0.74686,3.7995,9.04487,0.0115297,0.00481042,-0.0662769,0
2024-12-13 15:37:33.605,0.739681,3.79711,9.03051,0.00725381,-0.0019089,-0.0693312,0
2024-12-13 15:37:33.607,0.725324,3.78515,8.99462,0.00481042,-0.0104608,-0.069942,0
2024-12-13 15:37:33.610,0.727717,3.77797,8.97787,0.00236703,-0.0202343,-0.0705529,0
2024-12-13 15:37:33.614,0.754038,3.78275,8.93959,-0.00129805,-0.0361163,-0.0729962,0
2024-12-13 15:37:33.614,0.754038,3.78275,8.93959,-0.00129805,-0.0361163,-0.0729962,0
2024-12-13 15:37:33.617,0.773181,3.77557,8.93241,-0.00435229,-0.0410031,-0.0742179,0
2024-12-13 15:37:33.619,0.789931,3.77557,8.93001,-0.00557398,-0.049555,-0.0766613,0
2024-12-13 15:37:33.622,0.797109,3.77318,8.94198,-0.00801737,-0.0526092,-0.0784939,0
2024-12-13 15:37:33.626,0.828216,3.77318,8.95394,-0.0122933,-0.0593285,-0.0827698,0
2024-12-13 15:37:33.626,0.828216,3.77318,8.95394,-0.0122933,-0.0593285,-0.0827698,0
2024-12-13 15:37:33.631,0.828216,3.77557,8.97787,-0.0141258,-0.0593285,-0.0846023,0
2024-12-13 15:37:33.631,0.828216,3.77557,8.97787,-0.0141258,-0.0593285,-0.0846023,0
2024-12-13 15:37:33.633,0.830609,3.77557,8.98744,-0.0165692,-0.0593285,-0.0876566,0
2024-12-13 15:37:33.637,0.837787,3.76122,8.98026,-0.0165692,-0.0587177,-0.0864349,0
2024-12-13 15:37:33.640,0.869193,3.74208,8.98266,-0.0177909,-0.0562743,-0.0876566,0
2024-12-13 15:37:33.640,0.869193,3.74208,8.98266,-0.0177909,-0.0562743,-0.0876566,0
2024-12-13 15:37:33.643,0.873978,3.73729,8.98744,-0.0202343,-0.0550526,-0.0876566,0
2024-12-13 15:37:33.645,0.88355,3.74208,8.97308,-0.021456,-0.0501658,-0.0888783,0
2024-12-13 15:37:33.647,0.893121,3.72293,8.97308,-0.0226777,-0.0471116,-0.0870457,0
2024-12-13 15:37:33.650,0.897907,3.70618,8.97308,-0.0251211,-0.0483333,-0.085824,0
2024-12-13 15:37:33.652,0.902692,3.70618,8.95394,-0.0263428,-0.0458899,-0.0846023,0
2024-12-13 15:37:33.654,0.914656,3.71575,8.95873,-0.0318404,-0.0465007,-0.0846023,0
2024-12-13 15:37:33.657,0.924228,3.72293,8.97787,-0.0330621,-0.0458899,-0.0809373,0
2024-12-13 15:37:33.659,0.912264,3.72054,8.99223,-0.0361163,-0.0477224,-0.0797156,0
2024-12-13 15:37:33.662,0.9003,3.72293,9.00898,-0.0361163,-0.0477224,-0.0797156,0
2024-12-13 15:37:33.664,0.914656,3.72533,9.03051,-0.0397814,-0.0513875,-0.0736071,0
2024-12-13 15:37:33.666,0.921835,3.71815,9.04965,-0.0428357,-0.0532201,-0.069942,0
2024-12-13 15:37:33.669,0.914656,3.70379,9.06641,-0.0434465,-0.0513875,-0.0687203,0
2024-12-13 15:37:33.671,0.924228,3.70379,9.07837,-0.0458899,-0.0519984,-0.0632227,0
2024-12-13 15:37:33.673,0.940978,3.71336,9.09751,-0.0434465,-0.0501658,-0.0595576,0
2024-12-13 15:37:33.676,0.950549,3.73011,9.12144,-0.0422248,-0.0483333,-0.0565034,0
2024-12-13 15:37:33.678,0.962513,3.75404,9.14776,-0.0391706,-0.0458899,-0.0552817,0
2024-12-13 15:37:33.680,0.97687,3.77797,9.15973,-0.0391706,-0.0410031,-0.0485624,0
2024-12-13 15:37:33.683,1.00319,3.79472,9.1693,-0.037338,-0.0355055,-0.0473407,0
2024-12-13 15:37:33.685,1.0343,3.8354,9.17408,-0.0355055,-0.0306187,-0.0467298,0
2024-12-13 15:37:33.687,1.0678,3.87847,9.15973,-0.0324513,-0.021456,-0.0448973,0
2024-12-13 15:37:33.690,1.09173,3.91914,9.12623,-0.0281753,-0.0165692,-0.0442864,0
2024-12-13 15:37:33.692,1.0989,3.96939,9.10469,-0.0306187,-0.0122933,-0.0455081,0
2024-12-13 15:37:33.697,1.1324,4.06032,9.06162,-0.0312296,-0.00557398,-0.0467298,0
2024-12-13 15:37:33.697,1.1324,4.06032,9.06162,-0.0312296,-0.00557398,-0.0467298,0
2024-12-13 15:37:33.699,1.13958,4.11057,9.00419,-0.0312296,-0.00557398,-0.0467298,0
2024-12-13 15:37:33.702,1.1324,4.16561,8.96351,-0.0324513,-0.00984991,-0.0503949,0
2024-12-13 15:37:33.704,1.13001,4.20628,8.9348,-0.033673,-0.0141258,-0.0546708,0
2024-12-13 15:37:33.706,1.12283,4.2353,8.9013,-0.0391706,-0.0190126,-0.0589468,0
2024-12-13 15:37:33.709,1.11087,4.29033,8.85823,-0.0422248,-0.0263428,-0.062001,0
2024-12-13 15:37:33.711,1.12283,4.32622,8.83191,-0.0440574,-0.037338,-0.0632227,0
2024-12-13 15:37:33.713,1.13001,4.3334,8.81994,-0.0489441,-0.0489441,-0.0668878,0
2024-12-13 15:37:33.716,1.12762,4.35254,8.81277,-0.0519984,-0.0648262,-0.0723854,0
2024-12-13 15:37:33.718,1.12522,4.38604,8.81277,-0.057496,-0.0825407,-0.0760505,0
2024-12-13 15:37:33.720,1.12283,4.42194,8.80559,-0.0617719,-0.10331,-0.0784939,0
2024-12-13 15:37:33.723,1.14676,4.45304,8.78884,-0.0672696,-0.123468,-0.082159,0
2024-12-13 15:37:33.725,1.16112,4.49133,8.79362,-0.0709346,-0.147291,-0.0839915,0
2024-12-13 15:37:33.727,1.16112,4.53679,8.79602,-0.0782648,-0.169281,-0.0864349,0
2024-12-13 15:37:33.730,1.20419,4.57268,8.77209,-0.0862058,-0.191272,-0.0919325,0
2024-12-13 15:37:33.732,1.23529,4.59901,8.74098,-0.0959794,-0.212651,-0.098041,0
2024-12-13 15:37:33.735,1.25444,4.60858,8.72662,-0.107585,-0.232198,-0.102317,0
2024-12-13 15:37:33.737,1.26879,4.60618,8.72662,-0.121635,-0.2548,-0.105982,0
2024-12-13 15:37:33.739,1.28794,4.6325,8.74816,-0.138128,-0.274347,-0.110869,0
2024-12-13 15:37:33.742,1.29272,4.66361,8.78884,-0.154621,-0.297559,-0.114534,0
2024-12-13 15:37:33.744,1.29272,4.68275,8.81755,-0.172335,-0.314663,-0.117588,0
2024-12-13 15:37:33.746,1.29512,4.6995,8.86541,-0.172335,-0.314663,-0.117588,0
2024-12-13 15:37:33.749,1.29033,4.71625,8.92044,-0.208375,-0.34154,-0.124307,0
2024-12-13 15:37:33.751,1.28315,4.71865,8.97548,-0.208375,-0.34154,-0.124307,0
2024-12-13 15:37:33.753,1.2664,4.70907,9.05683,-0.249302,-0.353146,-0.12614,0
2024-12-13 15:37:33.757,1.26401,4.70668,9.12623,-0.285953,-0.352535,-0.126751,0
2024-12-13 15:37:33.758,1.25922,4.69472,9.20519,-0.285953,-0.352535,-0.126751,0
2024-12-13 15:37:33.760,1.27358,4.69233,9.31556,-0.285953,-0.352535,-0.126751,0
2024-12-13 15:37:33.763,1.28794,4.68515,9.41606,-0.317717,-0.330545,-0.124307,0
2024-12-13 15:37:33.768,1.29033,4.6349,9.59313,-0.345205,-0.292672,-0.116977,0
2024-12-13 15:37:33.768,1.29033,4.6349,9.59313,-0.345205,-0.292672,-0.116977,0
2024-12-13 15:37:33.772,1.34058,4.61815,9.76302,-0.369028,-0.246859,-0.112701,0
2024-12-13 15:37:33.772,1.34058,4.61815,9.76302,-0.369028,-0.246859,-0.112701,0
2024-12-13 15:37:33.775,1.35015,4.59661,9.86381,-0.378802,-0.221203,-0.110869,0
2024-12-13 15:37:33.777,1.36929,4.57986,9.94995,-0.389797,-0.196158,-0.109647,0
2024-12-13 15:37:33.779,1.37408,4.57986,10.0361,-0.395295,-0.171724,-0.106593,0
2024-12-13 15:37:33.782,1.35015,4.57029,10.1222,-0.402014,-0.147901,-0.10476,0
2024-12-13 15:37:33.784,1.34058,4.55833,10.1964,-0.407511,-0.124689,-0.103539,0
2024-12-13 15:37:33.789,1.32622,4.50808,10.3977,-0.411177,-0.0831516,-0.102928,0
2024-12-13 15:37:33.789,1.32622,4.50808,10.3977,-0.411177,-0.0831516,-0.102928,0
2024-12-13 15:37:33.791,1.29033,4.50808,10.4934,-0.410566,-0.0629936,-0.0986518,0
2024-12-13 15:37:33.793,1.25444,4.50808,10.5724,-0.408733,-0.0440574,-0.0949868,0
2024-12-13 15:37:33.796,1.1994,4.48894,10.6681,-0.402625,-0.0300079,-0.0894891,0
2024-12-13 15:37:33.798,1.13001,4.46022,10.7447,-0.397127,-0.013515,-0.0870457,0
2024-12-13 15:37:33.801,1.07737,4.44586,10.8045,-0.387354,-0.00251974,-0.0827698,0
2024-12-13 15:37:33.803,1.02712,4.44586,10.8595,-0.374526,0.00664296,-0.0772722,0
2024-12-13 15:37:33.805,0.988834,4.44108,10.9122,-0.360476,0.014584,-0.0754396,0
2024-12-13 15:37:33.808,0.955334,4.43869,10.9699,-0.343983,0.0188599,-0.0705529,0
2024-12-13 15:37:33.810,0.907478,4.44586,11.0178,-0.326269,0.022525,-0.0656661,0
2024-12-13 15:37:33.812,0.873978,4.44586,11.0297,-0.309165,0.0255792,-0.0632227,0
2024-12-13 15:37:33.815,0.85005,4.44826,11.0297,-0.286564,0.0255792,-0.0565034,0
2024-12-13 15:37:33.817,0.813859,4.44826,11.0297,-0.264573,0.0243575,-0.0522274,0
2024-12-13 15:37:33.819,0.775574,4.44826,11.0273,-0.241361,0.0237467,-0.0491732,0
2024-12-13 15:37:33.822,0.756431,4.44347,11.0225,-0.215705,0.0231358,-0.046119,0
2024-12-13 15:37:33.824,0.744467,4.45544,10.9938,-0.190661,0.0194708,-0.0412322,0
2024-12-13 15:37:33.826,0.737288,4.47219,10.9484,-0.165005,0.0164165,-0.0406213,0
2024-12-13 15:37:33.829,0.720539,4.47219,10.8978,-0.13996,0.014584,-0.0363454,0
2024-12-13 15:37:33.831,0.710967,4.47219,10.8404,-0.111861,0.0109189,-0.0326803,0
2024-12-13 15:37:33.833,0.699003,4.47936,10.7662,-0.0862058,0.00908635,-0.0308478,0
2024-12-13 15:37:33.836,0.670289,4.49133,10.6825,-0.0629936,0.00847551,-0.0284044,0
2024-12-13 15:37:33.838,0.658325,4.48654,10.6155,-0.0367272,0.00664296,-0.0271827,0
2024-12-13 15:37:33.841,0.646361,4.48654,10.5437,-0.0116825,0.00603212,-0.0235176,0
2024-12-13 15:37:33.843,0.624826,4.48176,10.4336,0.0127514,0.00603212,-0.0216851,0
2024-12-13 15:37:33.848,0.569791,4.4339,10.2132,0.0524565,0.00542127,-0.0161875,0
2024-12-13 15:37:33.848,0.569791,4.4339,10.2132,0.0524565,0.00542127,-0.0161875,0
2024-12-13 15:37:33.850,0.562612,4.4339,10.0887,0.0732253,0.00603212,-0.0113007,0
2024-12-13 15:37:33.852,0.52672,4.42911,9.95713,0.0909399,0.00908635,-0.0064139,0
2024-12-13 15:37:33.855,0.500399,4.41476,9.83749,0.108654,0.00908635,-0.00458135,0
2024-12-13 15:37:33.857,0.478864,4.38844,9.71516,0.123926,0.0109189,0.000305424,0
2024-12-13 15:37:33.859,0.457328,4.37887,9.57877,0.136143,0.0109189,0.0064139,0
2024-12-13 15:37:33.862,0.438186,4.36929,9.45913,0.147138,0.010308,0.010079,0
2024-12-13 15:37:33.864,0.41665,4.36451,9.34906,0.159355,0.010308,0.0131332,0
2024-12-13 15:37:33.867,0.402293,4.35733,9.22433,0.169128,0.00908635,0.0198525,0
2024-12-13 15:37:33.871,0.387936,4.35733,8.98983,0.182567,0.00847551,0.0284044,0
2024-12-13 15:37:33.871,0.387936,4.35733,8.98983,0.182567,0.00847551,0.0284044,0
2024-12-13 15:37:33.874,0.371187,4.35494,8.86062,0.188065,0.00603212,0.0351237,0
2024-12-13 15:37:33.876,0.352044,4.35972,8.74816,0.19173,0.00542127,0.0375671,0
2024-12-13 15:37:33.878,0.34008,4.36451,8.64497,0.195395,0.00297788,0.0400105,0
2024-12-13 15:37:33.881,0.320937,4.35254,8.54447,0.196006,0.00419957,0.0467298,0
2024-12-13 15:37:33.883,0.316152,4.35015,8.44636,0.194173,0.00236703,0.0510057,0
2024-12-13 15:37:33.885,0.325723,4.35254,8.36262,0.194784,0.00419957,0.05406,0
2024-12-13 15:37:33.888,0.330509,4.35494,8.29562,0.192341,0.00297788,0.0552817,0
2024-12-13 15:37:33.890,0.316152,4.37169,8.21187,0.192341,0.00175619,0.0589468,0
2024-12-13 15:37:33.892,0.313759,4.38844,8.12303,0.191119,-7.63559e-05,0.062001,0
2024-12-13 15:37:33.895,0.328116,4.38604,8.02971,0.189286,0.00114534,0.0632227,0
2024-12-13 15:37:33.897,0.347258,4.36929,7.92682,0.185621,0.00358873,0.0650552,0
2024-12-13 15:37:33.899,0.404686,4.36212,7.83829,0.180734,0.00419957,0.0656661,0
2024-12-13 15:37:33.902,0.452543,4.35733,7.7689,0.178291,0.00481042,0.0632227,0
2024-12-13 15:37:33.904,0.481256,4.34776,7.6995,0.173404,0.00603212,0.0595576,0
2024-12-13 15:37:33.907,0.517149,4.34297,7.61815,0.168517,0.00481042,0.0558925,0
2024-12-13 15:37:33.909,0.514756,4.35015,7.52932,0.164242,0.00358873,0.0528383,0
2024-12-13 15:37:33.911,0.481256,4.34537,7.45035,0.15569,0.00236703,0.0491732,0
2024-12-13 15:37:33.914,0.462114,4.35733,7.38096,0.151414,0.00419957,0.0473407,0
2024-12-13 15:37:33.916,0.469292,4.37169,7.30918,0.142862,0.00481042,0.0430647,0
2024-12-13 15:37:33.918,0.452543,4.37647,7.23739,0.13431,0.00175619,0.0412322,0
2024-12-13 15:37:33.921,0.440578,4.38604,7.16561,0.124536,0.000534491,0.0387888,0
2024-12-13 15:37:33.923,0.452543,4.37647,7.101,0.113541,-0.00251974,0.0357346,0
2024-12-13 15:37:33.925,0.457328,4.36451,7.03879,0.0994917,-0.00740652,0.033902,0
2024-12-13 15:37:33.928,0.462114,4.3669,6.9667,0.0860531,-0.013515,0.0302369,0
2024-12-13 15:37:33.930,0.471685,4.36929,6.90688,0.0689494,-0.0220669,0.0265719,0
2024-12-13 15:37:33.932,0.486042,4.35972,6.85424,0.0500131,-0.0306187,0.0241285,0
2024-12-13 15:37:33.935,0.505185,4.35733,6.81835,0.0341311,-0.0367272,0.0186308,0
2024-12-13 15:37:33.937,0.529113,4.36451,6.80399,0.0139731,-0.0471116,0.0137441,0
2024-12-13 15:37:33.939,0.562612,4.37647,6.79921,-0.00618483,-0.0562743,0.00763559,0
2024-12-13 15:37:33.942,0.596112,4.37647,6.8016,-0.0312296,-0.0629936,0.000305424,0
2024-12-13 15:37:33.944,0.651147,4.37169,6.78963,-0.0526092,-0.0691021,-0.00763559,0
2024-12-13 15:37:33.947,0.710967,4.38126,6.79681,-0.0739889,-0.073378,-0.0174091,0
2024-12-13 15:37:33.951,0.835394,4.39083,6.87099,-0.116137,-0.081319,-0.0393996,0
2024-12-13 15:37:33.951,0.835394,4.39083,6.87099,-0.116137,-0.081319,-0.0393996,0
2024-12-13 15:37:33.956,0.881157,4.36929,6.9691,-0.156453,-0.0843733,-0.0638335,0
2024-12-13 15:37:33.956,0.881157,4.36929,6.9691,-0.156453,-0.0843733,-0.0638335,0
2024-12-13 15:37:33.961,0.888335,4.32622,7.10579,-0.191882,-0.0770431,-0.0907108,0
2024-12-13 15:37:33.961,0.888335,4.32622,7.10579,-0.191882,-0.0770431,-0.0907108,0
2024-12-13 15:37:33.963,0.876371,4.28794,7.17757,-0.206543,-0.0691021,-0.102928,0
2024-12-13 15:37:33.965,0.85005,4.24487,7.25414,-0.220592,-0.0593285,-0.113312,0
2024-12-13 15:37:33.970,0.809073,4.19193,7.4001,-0.24808,-0.0361163,-0.139579,0
2024-12-13 15:37:33.970,0.809073,4.19193,7.4001,-0.24808,-0.0361163,-0.139579,0
2024-12-13 15:37:33.972,0.809073,4.15843,7.47907,-0.260297,-0.0232886,-0.149352,0
2024-12-13 15:37:33.976,0.816252,4.1345,7.57986,-0.284731,-0.00313059,-0.171953,0
2024-12-13 15:37:33.977,0.809073,4.1345,7.65883,-0.284731,-0.00313059,-0.171953,0
2024-12-13 15:37:33.979,0.799502,4.13689,7.73779,-0.296337,0.00664296,-0.181727,0
2024-12-13 15:37:33.982,0.789931,4.12732,7.80718,-0.304889,0.0170274,-0.191501,0
2024-12-13 15:37:33.984,0.780359,4.11296,7.87418,-0.314663,0.0261901,-0.200663,0
2024-12-13 15:37:33.987,0.76361,4.11296,7.96032,-0.323215,0.0371853,-0.209826,0
2024-12-13 15:37:33.989,0.722932,4.10578,8.03211,-0.328712,0.0457372,-0.2196,0
2024-12-13 15:37:33.991,0.701396,4.10339,8.09432,-0.334821,0.0518457,-0.225097,0
2024-12-13 15:37:33.994,0.687039,4.10578,8.17598,-0.340929,0.0567324,-0.233038,0
2024-12-13 15:37:33.996,0.658325,4.09143,8.26212,-0.348259,0.058565,-0.24159,0
2024-12-13 15:37:33.998,0.639183,4.07468,8.3339,-0.353757,0.058565,-0.245866,0
2024-12-13 15:37:34.001,0.600898,4.07229,8.39612,-0.359255,0.0573433,-0.251364,0
2024-12-13 15:37:34.003,0.569791,4.07707,8.47269,-0.36292,0.0548999,-0.256861,0
2024-12-13 15:37:34.005,0.553041,4.08186,8.54686,-0.368417,0.046348,-0.259305,0
2024-12-13 15:37:34.008,0.548256,4.07468,8.60668,-0.373304,0.0396287,-0.264802,0
2024-12-13 15:37:34.010,0.536291,4.08425,8.69043,-0.375137,0.0341311,-0.269078,0
2024-12-13 15:37:34.012,0.507577,4.10578,8.78405,-0.378802,0.0268009,-0.272132,0
2024-12-13 15:37:34.015,0.481256,4.09861,8.88694,-0.380634,0.0200816,-0.275798,0
2024-12-13 15:37:34.017,0.464507,4.09382,8.99941,-0.382467,0.0158057,-0.276408,0
2024-12-13 15:37:34.020,0.442971,4.10818,9.09273,-0.382467,0.0109189,-0.275798,0
2024-12-13 15:37:34.022,0.395115,4.11057,9.2004,-0.381245,0.00847551,-0.279463,0
2024-12-13 15:37:34.024,0.359223,4.11057,9.30838,-0.376969,0.00664296,-0.277019,0
2024-12-13 15:37:34.027,0.32333,4.11536,9.39452,-0.375137,0.00542127,-0.274576,0
2024-12-13 15:37:34.031,0.287438,4.09621,9.58116,-0.364752,0.00847551,-0.267246,0
2024-12-13 15:37:34.031,0.287438,4.09621,9.58116,-0.364752,0.00847551,-0.267246,0
2024-12-13 15:37:34.034,0.265603,4.07946,9.6673,-0.360476,0.0133623,-0.263581,0
2024-12-13 15:37:34.036,0.246461,4.07468,9.74387,-0.349481,0.0194708,-0.260526,0
2024-12-13 15:37:34.038,0.229711,4.06989,9.81326,-0.340318,0.0219141,-0.255029,0
2024-12-13 15:37:34.041,0.205783,4.06271,9.87817,-0.33421,0.0316877,-0.250142,0
2024-12-13 15:37:34.043,0.153141,4.03879,9.94995,-0.32688,0.0414613,-0.244644,0
2024-12-13 15:37:34.045,0.0454636,3.99571,10.0265,-0.314663,0.0518457,-0.233649,0
2024-12-13 15:37:34.048,-0.112463,3.94547,10.1127,-0.304278,0.0616192,-0.22021,0
2024-12-13 15:37:34.050,-0.246461,3.90957,10.1892,-0.292672,0.0720036,-0.204939,0
2024-12-13 15:37:34.055,-0.308973,3.85693,10.2969,-0.266406,0.0915507,-0.168899,0
2024-12-13 15:37:34.055,-0.313759,3.85693,10.2969,-0.266406,0.0915507,-0.168899,0
2024-12-13 15:37:34.060,-0.299402,3.8689,10.3519,-0.238918,0.108654,-0.127972,0
2024-12-13 15:37:34.060,-0.299402,3.8689,10.3519,-0.238918,0.108654,-0.127972,0
2024-12-13 15:37:34.062,-0.282652,3.8665,10.3783,-0.224257,0.120261,-0.105982,0
2024-12-13 15:37:34.064,-0.229711,3.88325,10.3929,-0.21204,0.127591,-0.0870457,0
2024-12-13 15:37:34.068,-0.189033,3.89282,10.4073,-0.185163,0.141029,-0.0473407,0
2024-12-13 15:37:34.069,-0.155533,3.90239,10.4336,-0.185163,0.141029,-0.0473407,0
2024-12-13 15:37:34.071,-0.102891,3.93111,10.4575,-0.169892,0.149581,-0.0290152,0
2024-12-13 15:37:34.074,-0.0717847,3.94547,10.4743,-0.153399,0.154468,-0.0119115,0
2024-12-13 15:37:34.076,-0.040678,3.967,10.4671,-0.135074,0.156911,0.00702474,0
2024-12-13 15:37:34.078,0.00478565,3.99571,10.4527,-0.120413,0.160576,0.0235176,0
2024-12-13 15:37:34.081,0.0430708,4.02443,10.436,-0.105142,0.16302,0.0387888,0
2024-12-13 15:37:34.083,0.0622134,4.0675,10.4192,-0.0886492,0.16302,0.05406,0
2024-12-13 15:37:34.085,0.0837488,4.10818,10.3977,-0.0752106,0.159966,0.0693312,0
2024-12-13 15:37:34.088,0.0933201,4.13689,10.3615,-0.0587177,0.157522,0.0839915,0
2024-12-13 15:37:34.090,0.100499,4.17518,10.3208,-0.0440574,0.152635,0.098041,0
2024-12-13 15:37:34.093,0.117248,4.21376,10.273,-0.0300079,0.149581,0.110258,0
2024-12-13 15:37:34.097,0.143569,4.26401,10.1366,-0.0019089,0.139197,0.139044,0
2024-12-13 15:37:34.097,0.143569,4.26401,10.1366,-0.0019089,0.139197,0.139044,0
2024-12-13 15:37:34.100,0.179462,4.29751,10.084,0.0096972,0.133088,0.152483,0
2024-12-13 15:37:34.102,0.193819,4.33101,10.005,0.0200816,0.122704,0.165311,0
2024-12-13 15:37:34.104,0.212961,4.35972,9.93081,0.0310769,0.111098,0.178749,0
2024-12-13 15:37:34.107,0.227318,4.36929,9.8686,0.0414613,0.100103,0.19341,0
2024-12-13 15:37:34.109,0.212961,4.37647,9.79891,0.0487914,0.0884965,0.206848,0
2024-12-13 15:37:34.111,0.200997,4.41236,9.71994,0.0573433,0.0781121,0.22273,0
2024-12-13 15:37:34.116,0.12682,4.45065,9.55484,0.0671168,0.0542891,0.254494,0
2024-12-13 15:37:34.116,0.12682,4.45065,9.55484,0.0671168,0.0542891,0.254494,0
2024-12-13 15:37:34.121,0.0765703,4.4674,9.39213,0.0713928,0.0365745,0.293588,0
2024-12-13 15:37:34.121,0.0765703,4.4674,9.39213,0.0713928,0.0365745,0.293588,0
2024-12-13 15:37:34.123,0.107677,4.48415,9.32513,0.0720036,0.0280226,0.312525,0
2024-12-13 15:37:34.126,0.138784,4.51047,9.27249,0.0720036,0.0194708,0.332683,0
2024-12-13 15:37:34.130,0.253639,4.57029,9.17408,0.0695602,0.00908635,0.369944,0
2024-12-13 15:37:34.130,0.253639,4.57029,9.17408,0.0695602,0.00908635,0.369944,0
2024-12-13 15:37:34.133,0.344866,4.61576,9.14297,0.0652843,0.00175619,0.385826,0
2024-12-13 15:37:34.135,0.431007,4.65404,9.12383,0.0616192,-0.00435229,0.399876,0
2024-12-13 15:37:34.140,0.624826,4.7354,9.1358,0.050624,-0.0129041,0.421256,0
2024-12-13 15:37:34.140,0.624826,4.7354,9.1358,0.050624,-0.0129041,0.421256,0
2024-12-13 15:37:34.144,0.833001,4.84577,9.1693,0.0347419,-0.0220669,0.432862,0
2024-12-13 15:37:34.144,0.833001,4.84577,9.1693,0.0347419,-0.0220669,0.432862,0
2024-12-13 15:37:34.147,0.917049,4.91755,9.18605,0.0255792,-0.0220669,0.435916,0
2024-12-13 15:37:34.149,1.0343,4.98933,9.21237,0.014584,-0.0232886,0.437748,0
2024-12-13 15:37:34.154,1.14197,5.06112,9.24826,-0.00984991,-0.0257319,0.427364,0
2024-12-13 15:37:34.154,1.26401,5.12573,9.27727,-0.00984991,-0.0257319,0.427364,0
2024-12-13 15:37:34.156,1.39801,5.18076,9.31556,-0.0220669,-0.0245102,0.418812,0
2024-12-13 15:37:34.158,1.52034,5.23101,9.36581,-0.0367272,-0.0263428,0.406595,0
2024-12-13 15:37:34.161,1.62323,5.28126,9.43281,-0.0367272,-0.0263428,0.406595,0
2024-12-13 15:37:34.163,1.73091,5.32911,9.52373,-0.0642153,-0.0269536,0.376664,0
2024-12-13 15:37:34.166,1.82184,5.37488,9.62423,-0.0800973,-0.0245102,0.356506,0
2024-12-13 15:37:34.168,1.9008,5.42034,9.73191,-0.093536,-0.0251211,0.335737,0
2024-12-13 15:37:34.170,1.99681,5.48016,9.86621,-0.108807,-0.0263428,0.313136,0
2024-12-13 15:37:34.173,2.05185,5.52563,10.0026,-0.122857,-0.0263428,0.289313,0
2024-12-13 15:37:34.175,2.14995,5.57348,10.1533,-0.132019,-0.0251211,0.264268,0
2024-12-13 15:37:34.177,2.26959,5.63091,10.3208,-0.143625,-0.0257319,0.233725,0
2024-12-13 15:37:34.180,2.28156,5.66441,10.4791,-0.153399,-0.0269536,0.203794,0
2024-12-13 15:37:34.182,2.22413,5.67159,10.6418,-0.165005,-0.0275645,0.174473,0
2024-12-13 15:37:34.184,2.16431,5.67637,10.8093,-0.17539,-0.029397,0.145153,0
2024-12-13 15:37:34.187,2.11884,5.68355,10.9866,-0.185774,-0.0300079,0.119421,0
2024-12-13 15:37:34.189,2.07817,5.67159,11.1709,-0.195547,-0.0269536,0.0943759,0
2024-12-13 15:37:34.191,2.03031,5.63809,11.3527,-0.20471,-0.0232886,0.0711637,0
2024-12-13 15:37:34.194,1.98485,5.61177,11.5421,-0.21143,-0.0159584,0.0491732,0
2024-12-13 15:37:34.196,1.91276,5.58305,11.7072,-0.217538,-0.00862822,0.0302369,0
2024-12-13 15:37:34.201,1.56341,5.43231,12.1119,-0.227922,0.0127514,0.00335966,0
2024-12-13 15:37:34.201,1.56341,5.43231,12.1119,-0.227922,0.0127514,0.00335966,0
2024-12-13 15:37:34.206,1.13001,5.27408,12.5809,-0.224868,0.0555107,-0.000916271,0
2024-12-13 15:37:34.206,1.13001,5.27408,12.5809,-0.224868,0.0555107,-0.000916271,0
2024-12-13 15:37:34.208,0.926621,5.18315,12.8133,-0.215095,0.0842206,0.0064139,0
2024-12-13 15:37:34.210,0.727717,5.11137,13.0262,-0.204099,0.118428,0.01802,0
2024-12-13 15:37:34.213,0.562612,5.05394,13.2036,-0.19005,0.156301,0.0357346,0
2024-12-13 15:37:34.215,0.4334,5.01087,13.34,-0.169892,0.194784,0.0552817,0
2024-12-13 15:37:34.217,0.330509,4.98455,13.4548,-0.149123,0.236322,0.0803264,0
2024-12-13 15:37:34.220,0.272782,4.97976,13.5194,-0.127133,0.279081,0.106593,0
2024-12-13 15:37:34.222,0.260818,4.98933,13.5362,-0.100255,0.323062,0.132859,0
2024-12-13 15:37:34.224,0.270389,5.01566,13.5266,-0.0745997,0.36521,0.158591,0
2024-12-13 15:37:34.227,0.297009,5.06112,13.4644,-0.0538309,0.403083,0.181193,0
2024-12-13 15:37:34.229,0.34008,5.1353,13.3687,-0.0318404,0.436069,0.204405,0
2024-12-13 15:37:34.231,0.390329,5.21426,13.2491,-0.0129041,0.464778,0.221508,0
2024-12-13 15:37:34.234,0.464507,5.26929,13.1124,0.00236703,0.485547,0.236169,0
2024-12-13 15:37:34.236,0.531506,5.3342,12.9975,0.0158057,0.497764,0.244721,0
2024-12-13 15:37:34.239,0.550648,5.41316,12.8779,0.0219141,0.501429,0.252662,0
2024-12-13 15:37:34.241,0.545863,5.47777,12.7415,0.0274118,0.499597,0.259992,0
2024-12-13 15:37:34.243,0.548256,5.52563,12.6024,0.0261901,0.496542,0.261214,0
2024-12-13 15:37:34.246,0.54347,5.55434,12.4612,0.0249684,0.48738,0.261824,0
2024-12-13 15:37:34.248,0.531506,5.55913,12.3583,0.0158057,0.470276,0.261824,0
2024-12-13 15:37:34.253,0.512363,5.47538,12.1956,-0.0104608,0.424462,0.257548,0
2024-12-13 15:37:34.253,0.512363,5.47538,12.1956,-0.0104608,0.424462,0.257548,0
2024-12-13 15:37:34.257,0.486042,5.38445,12.0712,-0.0593285,0.35788,0.248997,0
2024-12-13 15:37:34.257,0.486042,5.38445,12.0712,-0.0593285,0.35788,0.248997,0
2024-12-13 15:37:34.260,0.474078,5.31476,12.0159,-0.0898709,0.32184,0.240445,0
2024-12-13 15:37:34.262,0.459721,5.22383,11.98,-0.125911,0.283357,0.232504,0
2024-12-13 15:37:34.264,0.469292,5.14965,11.9536,-0.166838,0.240597,0.224563,0
2024-12-13 15:37:34.267,0.505185,5.09701,11.9489,-0.214484,0.196006,0.213567,0
2024-12-13 15:37:34.269,0.541077,5.02523,11.9848,-0.270682,0.151414,0.205016,0
2024-12-13 15:37:34.272,0.574577,4.94866,12.0254,-0.331766,0.109265,0.194631,0
2024-12-13 15:37:34.274,0.608076,4.87687,12.0832,-0.397738,0.0677277,0.181193,0
2024-12-13 15:37:34.276,0.639183,4.78834,12.1597,-0.469818,0.0298552,0.169586,0
2024-12-13 15:37:34.281,0.684646,4.61576,12.3488,-0.626806,-0.0330621,0.149429,0
2024-12-13 15:37:34.281,0.684646,4.61576,12.3488,-0.626806,-0.0330621,0.149429,0
2024-12-13 15:37:34.286,0.780359,4.37408,12.6984,-0.791734,-0.0684913,0.127972,0
2024-12-13 15:37:34.286,0.780359,4.37408,12.6984,-0.791734,-0.0684913,0.127972,0
2024-12-13 15:37:34.288,0.84018,4.23051,12.9257,-0.87542,-0.0807082,0.116366,0
2024-12-13 15:37:34.290,0.929013,4.07946,13.1916,-0.957885,-0.0874275,0.105371,0
2024-12-13 15:37:34.295,1.32622,3.89761,13.7468,-1.11609,-0.0898709,0.0766613,0
2024-12-13 15:37:34.295,1.32622,3.89761,13.7468,-1.11609,-0.0898709,0.0766613,0
2024-12-13 15:37:34.300,1.6017,3.68704,14.47,-1.2517,-0.0666587,0.0332912,0
2024-12-13 15:37:34.300,1.6017,3.68704,14.47,-1.2517,-0.0666587,0.0332912,0
2024-12-13 15:37:34.302,1.69262,3.52882,14.9058,-1.30424,-0.0355055,0.0106898,0
2024-12-13 15:37:34.305,1.7668,3.35175,15.3844,-1.34455,0.00603212,-0.0131332,0
2024-12-13 15:37:34.307,1.83141,3.16989,15.8489,-1.37143,0.0555107,-0.0351237,0
2024-12-13 15:37:34.309,1.87926,3.00449,16.2823,-1.38426,0.114763,-0.0577251,0
2024-12-13 15:37:34.312,1.91276,2.8322,16.6965,-1.38487,0.179513,-0.0772722,0
2024-12-13 15:37:34.314,1.92712,2.63599,17.0674,-1.37204,0.253425,-0.098041,0
2024-12-13 15:37:34.316,1.92473,2.47298,17.4194,-1.34028,0.334668,-0.117588,0
2024-12-13 15:37:34.319,1.74527,2.46341,17.63,-1.29507,0.421408,-0.132859,0
2024-12-13 15:37:34.321,1.48445,2.46341,17.738,-1.24193,0.527085,-0.137135,0
2024-12-13 15:37:34.323,1.44138,2.28156,17.9629,-1.18084,0.62421,-0.136524,0
2024-12-13 15:37:34.326,1.49641,2.04227,18.2022,-1.10754,0.69629,-0.138357,0
2024-12-13 15:37:34.328,1.51077,1.79073,18.3413,-1.02386,0.759283,-0.143244,0
2024-12-13 15:37:34.330,1.51316,1.55384,18.4155,-0.931618,0.81487,-0.148741,0
2024-12-13 15:37:34.333,1.5012,1.32383,18.449,-0.830218,0.860684,-0.157293,3
2024-12-13 15:37:34.335,1.41266,1.15155,18.4202,-0.720265,0.903443,-0.165234,0
2024-12-13 15:37:34.337,1.21137,1.08455,18.3245,-0.600539,0.9517,-0.168288,0
2024-12-13 15:37:34.340,0.931406,1.07737,18.1687,-0.474705,1.00057,-0.164012,0
2024-12-13 15:37:34.342,0.612862,1.11565,17.9462,-0.342762,1.05005,-0.153017,0
2024-12-13 15:37:34.347,0.27996,1.18744,17.386,-0.0623828,1.12396,-0.109036,0
2024-12-13 15:37:34.347,-0.0287139,1.18744,17.386,-0.0623828,1.12396,-0.109036,0
2024-12-13 15:37:34.349,-0.267996,1.19701,17.077,0.0787229,1.14228,-0.0772722,0
2024-12-13 15:37:34.352,-0.464507,1.19222,16.7181,0.222272,1.14778,-0.041843,0
2024-12-13 15:37:34.354,-0.615255,1.19462,16.3182,0.360934,1.13862,-0.00397051,0
2024-12-13 15:37:34.356,-0.706182,1.18983,15.8871,0.498451,1.11602,0.0332912,0
2024-12-13 15:37:34.359,-0.754038,1.18505,15.4011,0.634059,1.0812,0.0723854,0
2024-12-13 15:37:34.361,-0.76361,1.18983,14.8795,0.763559,1.03722,0.107204,0
2024-12-13 15:37:34.363,-0.718146,1.20897,14.3192,0.888783,0.991405,0.139044,0
2024-12-13 15:37:34.366,-0.648754,1.24965,13.7181,1.00484,0.938261,0.167143,0
2024-12-13 15:37:34.370,-0.514756,1.35972,12.4708,1.11174,0.883896,0.189134,0
2024-12-13 15:37:34.370,-0.514756,1.35972,12.4708,1.11174,0.883896,0.189134,0
2024-12-13 15:37:34.373,-0.4334,1.43898,11.8508,1.30843,0.764781,0.216622,0
2024-12-13 15:37:34.375,-0.371187,1.52991,11.2475,1.3909,0.700565,0.222119,0
2024-12-13 15:37:34.380,-0.359223,1.68305,10.1127,1.52101,0.563125,0.228228,0
2024-12-13 15:37:34.380,-0.359223,1.68305,10.1127,1.52101,0.563125,0.228228,0
2024-12-13 15:37:34.382,-0.371187,1.77159,9.59073,1.56988,0.491656,0.228228,0
2024-12-13 15:37:34.385,-0.402293,1.8338,9.09512,1.61203,0.418965,0.225174,0
2024-12-13 15:37:34.387,-0.457328,1.88883,8.61625,1.63951,0.345052,0.22273,0
2024-12-13 15:37:34.389,-0.423829,1.88644,8.20469,1.65967,0.269918,0.219676,0
2024-12-13 15:37:34.394,-0.27996,1.69741,7.65643,1.678,0.0933833,0.186079,0
2024-12-13 15:37:34.394,-0.27996,1.69741,7.65643,1.678,0.0933833,0.186079,0
2024-12-13 15:37:34.396,-0.876371,2.05185,6.95952,1.67189,0.046348,0.181803,0
2024-12-13 15:37:34.399,-1.07258,2.26002,6.59103,1.65479,0.0139731,0.185468,0
2024-12-13 15:37:34.403,-1.1324,2.43709,6.18395,1.59553,-0.0917034,0.194631,0
2024-12-13 15:37:34.403,-1.1324,2.43709,6.18395,1.59553,-0.0917034,0.194631,0
2024-12-13 15:37:34.406,-1.18983,2.48973,5.97817,1.55583,-0.149734,0.197075,0
2024-12-13 15:37:34.408,-1.23769,2.49691,5.78166,1.50513,-0.204099,0.202572,0
2024-12-13 15:37:34.410,-1.2329,2.47777,5.61655,1.45137,-0.253578,0.205626,0
2024-12-13 15:37:34.413,-1.13719,2.4012,5.5352,1.39395,-0.301224,0.207459,0
2024-12-13 15:37:34.415,-0.864407,2.16909,5.5998,1.33104,-0.353146,0.205626,0
2024-12-13 15:37:34.418,-0.682254,2.0327,5.6692,1.27056,-0.405679,0.19341,0
2024-12-13 15:37:34.420,-0.828216,2.12602,5.57109,1.21131,-0.439886,0.185468,0
2024-12-13 15:37:34.422,-1.02712,2.25763,5.44188,1.15206,-0.444162,0.184247,0
2024-12-13 15:37:34.427,-1.17308,2.45863,5.44906,1.03355,-0.408733,0.19402,0
2024-12-13 15:37:34.427,-1.17308,2.45863,5.44906,1.03355,-0.408733,0.19402,0
2024-12-13 15:37:34.429,-1.18026,2.51127,5.51127,0.978577,-0.387964,0.201961,0
2024-12-13 15:37:34.432,-1.15155,2.52832,5.57827,0.923601,-0.361698,0.209902,0
2024-12-13 15:37:34.434,-1.09651,2.52832,5.67159,0.869847,-0.332377,0.220898,0
2024-12-13 15:37:34.436,-1.00558,2.49691,5.79841,0.820979,-0.3055,0.227006,0
2024-12-13 15:37:34.439,-0.871586,2.44427,5.92553,0.775165,-0.279234,0.231282,0
2024-12-13 15:37:34.441,-0.744467,2.38206,6.04995,0.733017,-0.253578,0.236169,0
2024-12-13 15:37:34.443,-0.651147,2.31506,6.16959,0.694533,-0.227312,0.238612,0
2024-12-13 15:37:34.446,-0.581755,2.25045,6.26531,0.660937,-0.19738,0.243499,0
2024-12-13 15:37:34.448,-0.536291,2.20259,6.34906,0.628562,-0.166227,0.24411,0
2024-12-13 15:37:34.451,-0.498006,2.16909,6.41845,0.600463,-0.126522,0.244721,0
2024-12-13 15:37:34.453,-0.478864,2.15713,6.48335,0.57664,-0.0880384,0.248386,0
2024-12-13 15:37:34.455,-0.481256,2.15474,6.56232,0.553428,-0.0501658,0.253883,0
2024-12-13 15:37:34.458,-0.483649,2.14517,6.63171,0.535102,-0.0129041,0.259992,0
2024-12-13 15:37:34.460,-0.490828,2.14995,6.70349,0.51922,0.0200816,0.264879,0
2024-12-13 15:37:34.462,-0.495613,2.13799,6.77288,0.502727,0.0469589,0.272209,0
2024-12-13 15:37:34.465,-0.507577,2.13081,6.83271,0.487456,0.0713928,0.280761,0
2024-12-13 15:37:34.467,-0.536291,2.12842,6.9021,0.487456,0.0713928,0.280761,0
2024-12-13 15:37:34.469,-0.548256,2.10209,6.9667,0.464855,0.106211,0.299086,0
2024-12-13 15:37:34.474,-0.562612,2.05185,7.06032,0.445308,0.117817,0.319855,0
2024-12-13 15:37:34.474,-0.562612,2.05185,7.06032,0.445308,0.117817,0.319855,0
2024-12-13 15:37:34.476,-0.572184,2.00877,7.10339,0.445308,0.117817,0.319855,0
2024-12-13 15:37:34.479,-0.567398,2.00877,7.168,0.436145,0.120261,0.341845,0
2024-12-13 15:37:34.481,-0.529113,2.01356,7.23261,0.433091,0.120261,0.356506,0
2024-12-13 15:37:34.483,-0.459721,2.00877,7.27807,0.433091,0.115985,0.365668,0
2024-12-13 15:37:34.486,-0.411865,2.01356,7.31396,0.433091,0.115985,0.365668,0
2024-12-13 15:37:34.488,-0.392722,2.02313,7.35703,0.431869,0.100103,0.377275,0
2024-12-13 15:37:34.491,-0.387936,2.0351,7.38096,0.43248,0.0884965,0.385216,0
2024-12-13 15:37:34.493,-0.385544,2.05902,7.39771,0.433091,0.0762796,0.388881,0
2024-12-13 15:37:34.495,-0.383151,2.07338,7.41207,0.433702,0.0640626,0.391935,0
2024-12-13 15:37:34.498,-0.378365,2.09252,7.41685,0.435534,0.0494023,0.396211,0
2024-12-13 15:37:34.500,-0.378365,2.09731,7.39053,0.437977,0.0347419,0.397433,0
2024-12-13 15:37:34.502,-0.390329,2.10449,7.35225,0.438588,0.0213033,0.399265,0
2024-12-13 15:37:34.505,-0.404686,2.13559,7.34028,0.442864,0.0115297,0.398654,0
2024-12-13 15:37:34.507,-0.375972,2.15474,7.31396,0.444086,0.00297788,0.398654,0
2024-12-13 15:37:34.509,-0.311366,2.17388,7.28046,0.442253,-0.00557398,0.394378,0
2024-12-13 15:37:34.512,-0.258425,2.19063,7.23261,0.442864,-0.0116825,0.38827,0
2024-12-13 15:37:34.514,-0.208176,2.19781,7.168,0.441643,-0.0171801,0.38094,0
2024-12-13 15:37:34.516,-0.179462,2.20977,7.09382,0.438588,-0.0226777,0.372388,0
2024-12-13 15:37:34.519,-0.16989,2.22652,7.02682,0.437367,-0.0281753,0.358949,0
2024-12-13 15:37:34.521,-0.162712,2.24566,6.96431,0.430647,-0.029397,0.349786,0
2024-12-13 15:37:34.526,-0.181855,2.2672,6.82792,0.421485,-0.0269536,0.325353,0
2024-12-13 15:37:34.526,-0.181855,2.2672,6.82792,0.421485,-0.0269536,0.325353,0
2024-12-13 15:37:34.528,-0.189033,2.27438,6.76331,0.414154,-0.0275645,0.313746,0
2024-12-13 15:37:34.531,-0.212961,2.26959,6.68674,0.406213,-0.0281753,0.30214,0
2024-12-13 15:37:34.533,-0.234497,2.26241,6.61735,0.400105,-0.0281753,0.289313,0
2024-12-13 15:37:34.535,-0.239282,2.27916,6.55992,0.390331,-0.0306187,0.278928,0
2024-12-13 15:37:34.540,-0.30658,2.26959,6.41127,0.372006,-0.037338,0.257548,0
2024-12-13 15:37:34.540,-0.30658,2.26959,6.41127,0.372006,-0.037338,0.257548,0
2024-12-13 15:37:34.545,-0.373579,2.27916,6.33948,0.352993,-0.0452791,0.236169,0
2024-12-13 15:37:34.545,-0.373579,2.27916,6.33948,0.352993,-0.0452791,0.236169,0
2024-12-13 15:37:34.549,-0.438186,2.2672,6.25095,0.326727,-0.057496,0.222119,0
2024-12-13 15:37:34.549,-0.438186,2.2672,6.25095,0.326727,-0.057496,0.222119,0
2024-12-13 15:37:34.554,-0.464507,2.27677,6.18634,0.30718,-0.0721563,0.209292,0
2024-12-13 15:37:34.554,-0.483649,2.28873,6.18634,0.30718,-0.0721563,0.209292,0
2024-12-13 15:37:34.557,-0.498006,2.29831,6.14567,0.298628,-0.0764323,0.203183,0
2024-12-13 15:37:34.559,-0.493221,2.32463,6.12652,0.287022,-0.081319,0.197685,0
2024-12-13 15:37:34.561,-0.486042,2.35095,6.09781,0.277859,-0.0837624,0.19341,0
2024-12-13 15:37:34.564,-0.471685,2.35095,6.07388,0.268696,-0.0849841,0.190355,0
2024-12-13 15:37:34.568,-0.426222,2.40359,6.02842,0.249149,-0.093536,0.178749,0
2024-12-13 15:37:34.568,-0.426222,2.40359,6.02842,0.249149,-0.093536,0.178749,0
2024-12-13 15:37:34.573,-0.404686,2.42513,6.01645,0.230213,-0.100255,0.165921,0
2024-12-13 15:37:34.573,-0.397508,2.44427,5.97817,0.230213,-0.100255,0.165921,0
2024-12-13 15:37:34.575,-0.407079,2.4682,5.94706,0.22105,-0.10392,0.160424,0
2024-12-13 15:37:34.578,-0.411865,2.51366,5.93031,0.212498,-0.104531,0.154926,0
2024-12-13 15:37:34.580,-0.421436,2.54028,5.89442,0.204557,-0.10331,0.15065,0
2024-12-13 15:37:34.582,-0.435793,2.56421,5.8678,0.196006,-0.100866,0.150039,0
2024-12-13 15:37:34.585,-0.442971,2.58335,5.84387,0.186843,-0.0972011,0.146374,0
2024-12-13 15:37:34.587,-0.454935,2.60728,5.82712,0.175848,-0.0910926,0.143931,0
2024-12-13 15:37:34.590,-0.4669,2.64078,5.81276,0.169739,-0.0825407,0.145153,0
2024-12-13 15:37:34.592,-0.462114,2.65992,5.78166,0.161798,-0.0758214,0.145763,0
2024-12-13 15:37:34.594,-0.440578,2.69342,5.73859,0.161798,-0.0758214,0.145763,0
2024-12-13 15:37:34.597,-0.407079,2.7341,5.70748,0.145305,-0.057496,0.14332,0
2024-12-13 15:37:34.601,-0.364008,2.82742,5.65723,0.122704,-0.0440574,0.145153,0
2024-12-13 15:37:34.601,-0.364008,2.82742,5.65723,0.122704,-0.0440574,0.145153,0
2024-12-13 15:37:34.604,-0.337687,2.85374,5.62134,0.11232,-0.0379489,0.142709,0
2024-12-13 15:37:34.606,-0.311366,2.88245,5.60937,0.0976592,-0.0324513,0.141487,0
2024-12-13 15:37:34.611,-0.311366,2.97099,5.59502,0.0671168,-0.0202343,0.142098,0
2024-12-13 15:37:34.611,-0.311366,2.97099,5.59502,0.0671168,-0.0202343,0.142098,0
2024-12-13 15:37:34.613,-0.294616,3.00688,5.61895,0.0500131,-0.0171801,0.143931,0
2024-12-13 15:37:34.615,-0.267996,3.04277,5.62373,0.0298552,-0.0116825,0.143931,0
2024-12-13 15:37:34.618,-0.241675,3.07867,5.62612,0.0298552,-0.0116825,0.143931,0
2024-12-13 15:37:34.620,-0.208176,3.11007,5.65245,-0.00618483,-0.00129805,0.143931,0
2024-12-13 15:37:34.622,-0.18664,3.14596,5.69073,-0.0238994,0.00481042,0.145153,0
2024-12-13 15:37:34.625,-0.172283,3.19382,5.70748,-0.0458899,0.0109189,0.141487,0
2024-12-13 15:37:34.627,-0.143569,3.2345,5.73619,-0.0648262,0.014584,0.138433,0
2024-12-13 15:37:34.630,-0.141177,3.26321,5.77687,-0.0862058,0.0194708,0.137212,0
2024-12-13 15:37:34.632,-0.153141,3.2991,5.81994,-0.106975,0.0261901,0.134157,0
2024-12-13 15:37:34.634,-0.157926,3.3326,5.85584,-0.130187,0.0310769,0.131027,0
2024-12-13 15:37:34.639,-0.184247,3.38525,5.94467,-0.16867,0.0445155,0.12614,0
2024-12-13 15:37:34.639,-0.184247,3.38525,5.94467,-0.16867,0.0445155,0.12614,0
2024-12-13 15:37:34.641,-0.196211,3.38285,5.98056,-0.186996,0.0512348,0.125529,0
2024-12-13 15:37:34.644,-0.212961,3.39003,6.01645,-0.207154,0.058565,0.125529,0
2024-12-13 15:37:34.646,-0.22014,3.41396,6.08106,-0.226701,0.066506,0.122475,0
2024-12-13 15:37:34.648,-0.224925,3.44507,6.14327,-0.247469,0.0671168,0.119421,0
2024-12-13 15:37:34.651,-0.229711,3.4666,6.17677,-0.270682,0.0701711,0.117588,0
2024-12-13 15:37:34.653,-0.229711,3.46899,6.24377,-0.289618,0.0713928,0.113312,0
2024-12-13 15:37:34.658,-0.253639,3.51446,6.42802,-0.330545,0.0640626,0.109036,0
2024-12-13 15:37:34.658,-0.253639,3.51446,6.42802,-0.330545,0.0640626,0.109036,0
2024-12-13 15:37:34.660,-0.270389,3.54556,6.51685,-0.350092,0.0579541,0.107204,0
2024-12-13 15:37:34.662,-0.289831,3.57906,6.62453,-0.369639,0.0518457,0.10476,0
2024-12-13 15:37:34.667,-0.308973,3.60778,6.84228,-0.403236,0.0402396,0.101095,0
2024-12-13 15:37:34.667,-0.308973,3.60778,6.84228,-0.403236,0.0402396,0.101095,0
2024-12-13 15:37:34.670,-0.316152,3.63171,6.94277,-0.419118,0.0365745,0.101706,0
2024-12-13 15:37:34.672,-0.32333,3.64367,7.07468,-0.431945,0.030466,0.0998735,0
2024-12-13 15:37:34.674,-0.30658,3.65354,7.19911,-0.443551,0.0255792,0.0974301,0
2024-12-13 15:37:34.677,-0.285045,3.67029,7.30918,-0.45699,0.0219141,0.0955976,0
2024-12-13 15:37:34.679,-0.282652,3.67747,7.42164,-0.466153,0.0133623,0.0925434,0
2024-12-13 15:37:34.681,-0.263211,3.699,7.54128,-0.474705,0.00725381,0.0876566,0
2024-12-13 15:37:34.684,-0.241675,3.72533,7.67079,-0.481424,0.000534491,0.082159,0
2024-12-13 15:37:34.686,-0.22014,3.74686,7.8024,-0.486922,-0.00679568,0.077883,0
2024-12-13 15:37:34.691,-0.18664,3.78754,8.07279,-0.495473,-0.0238994,0.0674986,0
2024-12-13 15:37:34.691,-0.18664,3.78754,8.07279,-0.495473,-0.0238994,0.0674986,0
2024-12-13 15:37:34.693,-0.179462,3.78993,8.20708,-0.499139,-0.0306187,0.0613902,0
2024-12-13 15:37:34.696,-0.157926,3.80668,8.32912,-0.499139,-0.0385597,0.0589468,0
2024-12-13 15:37:34.698,-0.133998,3.82343,8.44158,-0.497917,-0.0465007,0.0528383,0
2024-12-13 15:37:34.700,-0.119641,3.81865,8.55643,-0.497917,-0.0538309,0.0497841,0
2024-12-13 15:37:34.703,-0.105284,3.82582,8.64736,-0.495473,-0.0611611,0.0455081,0
2024-12-13 15:37:34.705,-0.0861416,3.82343,8.7338,-0.492419,-0.0672696,0.0387888,0
2024-12-13 15:37:34.707,-0.0622134,3.80668,8.82234,-0.490587,-0.0703238,0.0363454,0
2024-12-13 15:37:34.710,-0.0334995,3.8019,8.90609,-0.491198,-0.0764323,0.0345129,0
2024-12-13 15:37:34.712,-0.00717847,3.80668,8.99462,-0.485089,-0.0758214,0.0296261,0
2024-12-13 15:37:34.714,0.0239282,3.81147,9.07358,-0.480202,-0.0758214,0.025961,0
2024-12-13 15:37:34.717,0.0502493,3.7995,9.14537,-0.477148,-0.0721563,0.0229068,0
2024-12-13 15:37:34.719,0.0693919,3.78993,9.19322,-0.473483,-0.0672696,0.0210742,0
2024-12-13 15:37:34.721,0.0933201,3.78515,9.21955,-0.468596,-0.0623828,0.0167983,0
2024-12-13 15:37:34.724,0.112463,3.77557,9.24347,-0.466153,-0.0556635,0.0125224,0
2024-12-13 15:37:34.726,0.119641,3.76122,9.27249,-0.463099,-0.0458899,0.010079,0
2024-12-13 15:37:34.728,0.122034,3.75165,9.28206,-0.461266,-0.0379489,0.00702474,0
2024-12-13 15:37:34.731,0.122034,3.75165,9.29163,-0.458212,-0.0306187,0.00397051,0
2024-12-13 15:37:34.733,0.102891,3.74925,9.29881,-0.457601,-0.0238994,0.00397051,0
2024-12-13 15:37:34.738,0.0598206,3.7325,9.29642,-0.458823,-0.00862822,0.00213797,0
2024-12-13 15:37:34.738,0.0598206,3.7325,9.29642,-0.458823,-0.00862822,0.00213797,0
2024-12-13 15:37:34.743,0.0311067,3.73729,9.31077,-0.459433,0.00236703,0.00335966,0
2024-12-13 15:37:34.743,0.0311067,3.73729,9.31077,-0.459433,0.00236703,0.00335966,0
2024-12-13 15:37:34.745,0.0191426,3.7325,9.32034,-0.460044,0.00419957,0.00580305,0
2024-12-13 15:37:34.747,0.00957129,3.7325,9.33231,-0.460044,0.00664296,0.00763559,0
2024-12-13 15:37:34.750,-0.00478565,3.73729,9.36102,-0.463099,0.00908635,0.00946813,0
2024-12-13 15:37:34.752,-0.00957129,3.74447,9.39452,-0.463099,0.0096972,0.0106898,0
2024-12-13 15:37:34.754,-0.0215354,3.74925,9.43281,-0.461266,0.0109189,0.0143549,0
2024-12-13 15:37:34.757,-0.0358923,3.75643,9.49023,-0.463099,0.0096972,0.0174091,0
2024-12-13 15:37:34.761,-0.0861416,3.77557,9.58595,-0.457601,0.00847551,0.0241285,0
2024-12-13 15:37:34.761,-0.0861416,3.77557,9.58595,-0.457601,0.00847551,0.0241285,0
2024-12-13 15:37:34.766,-0.105284,3.79232,9.70798,-0.44966,0.00847551,0.033902,0
2024-12-13 15:37:34.766,-0.105284,3.79232,9.70798,-0.44966,0.00847551,0.033902,0
2024-12-13 15:37:34.771,-0.0765703,3.86172,9.80848,-0.439276,0.0121406,0.0400105,0
2024-12-13 15:37:34.771,-0.0765703,3.86172,9.80848,-0.439276,0.0121406,0.0400105,0
2024-12-13 15:37:34.773,-0.0646062,3.88804,9.86142,-0.431335,0.014584,0.0424539,0
2024-12-13 15:37:34.776,-0.0430708,3.94068,9.9021,-0.426448,0.0164165,0.0442864,0
2024-12-13 15:37:34.780,0.0358923,4.05075,9.94517,-0.408733,0.0182491,0.046119,0
2024-12-13 15:37:34.783,0.066999,4.08425,9.9691,-0.402014,0.0206925,0.0455081,0
2024-12-13 15:37:34.783,0.066999,4.08425,9.9691,-0.402014,0.0206925,0.0455081,0
2024-12-13 15:37:34.785,0.081356,4.13689,9.98345,-0.397127,0.0231358,0.0430647,0
2024-12-13 15:37:34.787,0.0885344,4.18953,9.99303,-0.389797,0.0206925,0.0412322,0
2024-12-13 15:37:34.790,0.0885344,4.23769,10.005,-0.383078,0.0194708,0.038178,0
2024-12-13 15:37:34.792,0.0837488,4.29033,10.0146,-0.376969,0.0182491,0.0357346,0
2024-12-13 15:37:34.794,0.0765703,4.32862,10.0146,-0.374526,0.0109189,0.033902,0
2024-12-13 15:37:34.797,0.0574277,4.34776,10.0217,-0.37025,0.00542127,0.0308478,0
2024-12-13 15:37:34.799,0.0239282,4.37408,10.0361,-0.367196,-0.0019089,0.0308478,0
2024-12-13 15:37:34.804,0.00239282,4.45304,10.0552,-0.371471,-0.0232886,0.0296261,0
2024-12-13 15:37:34.804,0.00239282,4.45304,10.0552,-0.371471,-0.0232886,0.0296261,0
2024-12-13 15:37:34.806,-0.00717847,4.49372,10.0816,-0.374526,-0.0355055,0.0308478,0
2024-12-13 15:37:34.809,-0.0191426,4.54636,10.1198,-0.379413,-0.0477224,0.0284044,0
2024-12-13 15:37:34.811,-0.0334995,4.57747,10.1366,-0.38491,-0.0629936,0.0296261,0
2024-12-13 15:37:34.813,-0.0358923,4.61097,10.1557,-0.391629,-0.0794865,0.0308478,0
2024-12-13 15:37:34.816,-0.0382852,4.65404,10.1868,-0.397127,-0.093536,0.0302369,0
2024-12-13 15:37:34.818,-0.0382852,4.69233,10.2299,-0.404457,-0.110029,0.0308478,0
2024-12-13 15:37:34.820,-0.0215354,4.72104,10.2802,-0.412398,-0.127743,0.0314586,0
2024-12-13 15:37:34.823,-0.0143569,4.74257,10.3352,-0.425837,-0.144847,0.0320695,0
2024-12-13 15:37:34.825,-0.00478565,4.7665,10.4025,-0.435,-0.161951,0.0326803,0
2024-12-13 15:37:34.827,0.0191426,4.77877,10.4719,-0.445995,-0.179665,0.033902,0
2024-12-13 15:37:34.830,0.0358923,4.78594,10.5485,-0.460044,-0.197991,0.0345129,0
2024-12-13 15:37:34.832,0.0550349,4.80987,10.6226,-0.472261,-0.212651,0.033902,0
2024-12-13 15:37:34.837,0.066999,4.83619,10.8141,-0.50036,-0.241972,0.0363454,0
2024-12-13 15:37:34.837,0.066999,4.83619,10.8141,-0.50036,-0.241972,0.0363454,0
2024-12-13 15:37:34.839,0.0933201,4.85294,10.9098,-0.51441,-0.2548,0.0375671,0
2024-12-13 15:37:34.841,0.138784,4.85534,11.0417,-0.531513,-0.26946,0.0375671,0
2024-12-13 15:37:34.849,0.258425,4.9343,11.5158,-0.565721,-0.309165,0.0320695,0
2024-12-13 15:37:34.849,0.258425,4.9343,11.5158,-0.565721,-0.309165,0.0320695,0
2024-12-13 15:37:34.851,0.285045,4.96541,11.7144,-0.598707,-0.320771,0.0296261,0
2024-12-13 15:37:34.851,0.285045,4.96541,11.7144,-0.598707,-0.320771,0.0296261,0
2024-12-13 15:37:34.853,0.304188,4.98216,11.9249,-0.614589,-0.328712,0.0229068,0
2024-12-13 15:37:34.856,0.320937,5.0013,12.1573,-0.627416,-0.337264,0.0204634,0
2024-12-13 15:37:34.860,0.373579,5.03719,12.6072,-0.647574,-0.344594,0.0125224,0
2024-12-13 15:37:34.860,0.373579,5.03719,12.6072,-0.647574,-0.344594,0.0125224,0
2024-12-13 15:37:34.863,0.404686,5.03958,12.8324,-0.653683,-0.345205,0.00763559,0
2024-12-13 15:37:34.865,0.4334,5.03719,13.043,-0.656126,-0.34154,0.00274881,0
2024-12-13 15:37:34.870,0.545863,5.03958,13.474,-0.65857,-0.331766,-0.010079,0
2024-12-13 15:37:34.870,0.545863,5.03958,13.474,-0.65857,-0.331766,-0.010079,0
2024-12-13 15:37:34.872,0.600898,5.02762,13.7037,-0.656737,-0.324436,-0.0204634,0
2024-12-13 15:37:34.874,0.660718,5.02283,13.9217,-0.649407,-0.315884,-0.0277936,0
2024-12-13 15:37:34.877,0.727717,5.0348,14.094,-0.640855,-0.301835,-0.0369563,0
2024-12-13 15:37:34.879,0.794716,5.03001,14.2711,-0.631082,-0.290229,-0.0485624,0
2024-12-13 15:37:34.882,0.857229,5.01087,14.4748,-0.61581,-0.279234,-0.062001,0
2024-12-13 15:37:34.884,0.912264,5.02044,14.6638,-0.599928,-0.26946,-0.0711637,0
2024-12-13 15:37:34.886,0.950549,5.02283,14.8193,-0.599928,-0.26946,-0.0711637,0
2024-12-13 15:37:34.889,0.979263,5.00848,14.9608,-0.562056,-0.246248,-0.0962084,0
2024-12-13 15:37:34.891,0.99362,4.98933,15.0996,-0.54373,-0.238307,-0.109647,0
2024-12-13 15:37:34.893,0.998405,4.98455,15.2216,-0.522351,-0.231587,-0.122475,0
2024-12-13 15:37:34.898,1.0008,4.98455,15.4131,-0.472261,-0.219981,-0.145687,0
2024-12-13 15:37:34.898,1.0008,4.98455,15.4131,-0.472261,-0.219981,-0.145687,0
2024-12-13 15:37:34.900,1.0008,4.97976,15.5091,-0.446606,-0.216316,-0.15485,0
2024-12-13 15:37:34.903,1.01755,4.97498,15.5857,-0.421561,-0.215095,-0.165845,0
2024-12-13 15:37:34.905,1.01994,4.99891,15.6574,-0.392851,-0.215705,-0.177451,0
2024-12-13 15:37:34.907,1.02712,5.02523,15.7244,-0.361698,-0.213262,-0.186003,0
2024-12-13 15:37:34.910,1.03669,5.02523,15.7819,-0.332377,-0.21143,-0.195777,0
2024-12-13 15:37:34.912,1.04387,5.0348,15.8225,-0.301224,-0.21143,-0.20555,0
2024-12-13 15:37:34.914,1.05823,5.06112,15.8417,-0.270071,-0.213873,-0.217156,0
2024-12-13 15:37:34.917,1.05823,5.09701,15.8656,-0.238918,-0.215705,-0.225708,0
2024-12-13 15:37:34.919,1.05823,5.12573,15.8871,-0.206543,-0.218149,-0.238536,3
2024-12-13 15:37:34.922,1.05583,5.13769,15.8871,-0.172335,-0.221814,-0.250142,0
2024-12-13 15:37:34.924,1.05583,5.1329,15.8704,-0.144236,-0.22609,-0.260526,0
2024-12-13 15:37:34.926,1.05105,5.11376,15.8489,-0.111861,-0.232809,-0.273354,0
2024-12-13 15:37:34.929,1.03669,5.09462,15.8178,-0.111861,-0.232809,-0.273354,0
2024-12-13 15:37:34.931,1.01994,5.06351,15.7675,-0.057496,-0.252356,-0.292901,0
2024-12-13 15:37:34.933,0.996012,5.00848,15.7268,-0.033673,-0.260908,-0.303897,0
2024-12-13 15:37:34.936,0.979263,4.94626,15.6885,-0.013515,-0.270071,-0.313059,0
2024-12-13 15:37:34.940,0.99362,4.80509,15.6838,0.022525,-0.292061,-0.325276,0
2024-12-13 15:37:34.940,0.99362,4.80509,15.6838,0.022525,-0.292061,-0.325276,0
2024-12-13 15:37:34.943,0.945763,4.72104,15.7053,0.0390179,-0.298781,-0.331385,0
2024-12-13 15:37:34.945,0.842872,4.60618,15.6838,0.0548999,-0.306722,-0.333828,0
2024-12-13 15:37:34.947,0.727717,4.49611,15.6885,0.0695602,-0.310387,-0.331995,0
2024-12-13 15:37:34.950,0.643968,4.38365,15.722,0.0811663,-0.304889,-0.325887,0
2024-12-13 15:37:34.952,0.574577,4.24726,15.7675,0.0976592,-0.302446,-0.314892,0
2024-12-13 15:37:34.955,0.495613,4.101,15.8369,0.109265,-0.292672,-0.303897,0
2024-12-13 15:37:34.957,0.45015,3.96939,15.8752,0.123926,-0.279844,-0.29229,0
2024-12-13 15:37:34.959,0.4334,3.85693,15.8895,0.141029,-0.261519,-0.276408,0
2024-12-13 15:37:34.964,0.409472,3.59103,15.9781,0.17768,-0.208986,-0.24159,0
2024-12-13 15:37:34.964,0.409472,3.59103,15.9781,0.17768,-0.208986,-0.24159,0
2024-12-13 15:37:34.966,0.411865,3.45703,16.0023,0.197838,-0.174168,-0.223876,0
2024-12-13 15:37:34.969,0.41665,3.3326,16.031,0.217996,-0.13935,-0.204328,0
2024-12-13 15:37:34.971,0.421436,3.22732,16.0406,0.24243,-0.0965902,-0.187836,0
2024-12-13 15:37:34.973,0.447757,3.11964,16.0406,0.269918,-0.0501658,-0.16951,0
2024-12-13 15:37:34.976,0.476471,3.02124,16.0262,0.299239,-0.0019089,-0.151796,0
2024-12-13 15:37:34.978,0.490828,2.92792,15.9951,0.331003,0.0500131,-0.13347,0
2024-12-13 15:37:34.980,0.505185,2.83699,15.9565,0.363989,0.104379,-0.117588,0
2024-12-13 15:37:34.983,0.54347,2.74367,15.8919,0.399494,0.159355,-0.102317,0
2024-12-13 15:37:34.985,0.593719,2.66231,15.7986,0.43981,0.215553,-0.0876566,0
2024-12-13 15:37:34.988,0.627219,2.58814,15.679,0.478904,0.268696,-0.0736071,0
2024-12-13 15:37:34.990,0.65354,2.50648,15.5187,0.51922,0.320008,-0.0638335,0
2024-12-13 15:37:34.992,0.687039,2.43709,15.3126,0.561979,0.369486,-0.0522274,0
2024-12-13 15:37:34.995,0.710967,2.3677,15.0805,0.602906,0.413467,-0.0406213,0
2024-12-13 15:37:34.997,0.722932,2.29113,14.817,0.645666,0.456227,-0.033902,0
2024-12-13 15:37:35.002,0.703789,2.17149,14.2113,0.729352,0.525863,-0.0192417,0
2024-12-13 15:37:35.002,0.703789,2.17149,14.2113,0.729352,0.525863,-0.0192417,0
2024-12-13 15:37:35.004,0.694218,2.11884,13.8787,0.773943,0.553962,-0.0119115,0
2024-12-13 15:37:35.007,0.672682,2.07099,13.5338,0.811816,0.576563,-0.0051922,0
2024-12-13 15:37:35.009,0.646361,2.02313,13.1674,0.852743,0.596721,0.00213797,0
2024-12-13 15:37:35.011,0.624826,1.98245,12.8109,0.888172,0.612603,0.00824644,0
2024-12-13 15:37:35.013,0.634397,1.93669,12.4421,0.927266,0.626653,0.0125224,0
2024-12-13 15:37:35.016,0.632004,1.91037,12.047,0.962695,0.636427,0.0161875,0
2024-12-13 15:37:35.018,0.610469,1.89362,11.6521,0.99507,0.639481,0.0186308,0
2024-12-13 15:37:35.020,0.591326,1.87208,11.2499,1.02683,0.63887,0.0222959,0
2024-12-13 15:37:35.023,0.576969,1.85055,10.8356,1.05554,0.636427,0.0241285,0
2024-12-13 15:37:35.025,0.562612,1.84098,10.436,1.08242,0.627875,0.0265719,0
2024-12-13 15:37:35.030,0.505185,1.85773,9.6362,1.12885,0.596721,0.0241285,0
2024-12-13 15:37:35.030,0.505185,1.85773,9.6362,1.12885,0.596721,0.0241285,0
2024-12-13 15:37:35.032,0.452543,1.86251,9.24587,1.14717,0.575342,0.0247393,0
2024-12-13 15:37:35.035,0.402293,1.87448,8.87976,1.16244,0.547243,0.0229068,0
2024-12-13 15:37:35.039,0.35683,1.88166,8.53969,1.18016,0.474552,0.0192417,0
2024-12-13 15:37:35.039,0.318545,1.88405,8.20469,1.18016,0.474552,0.0192417,0
2024-12-13 15:37:35.042,0.474078,1.72852,7.99382,1.18016,0.474552,0.0192417,0
2024-12-13 15:37:35.044,0.744467,1.47966,7.93639,1.18749,0.357269,-0.00274881,0
2024-12-13 15:37:35.046,0.586541,1.55145,7.60618,1.19176,0.283357,-0.0210742,0
2024-12-13 15:37:35.049,0.155533,1.8673,7.04597,1.19176,0.283357,-0.0210742,0
2024-12-13 15:37:35.051,-0.0334995,2.12124,6.71546,1.18077,0.223494,-0.025961,0
2024-12-13 15:37:35.053,0.179462,2.0997,6.69871,1.16977,0.176459,-0.0247393,0
2024-12-13 15:37:35.056,0.512363,1.91994,6.82792,1.15817,0.0952158,-0.0375671,0
2024-12-13 15:37:35.058,0.368794,2.04227,6.60299,1.14778,0.0133623,-0.0485624,0
2024-12-13 15:37:35.061,0.0215354,2.34856,6.14327,1.1319,-0.0306187,-0.0510057,0
2024-12-13 15:37:35.063,-0.0574277,2.54985,5.95663,1.10808,-0.0642153,-0.0497841,0
2024-12-13 15:37:35.068,0.165105,2.67667,5.90638,1.06349,-0.179055,-0.0467298,0
2024-12-13 15:37:35.068,0.165105,2.67667,5.90638,1.06349,-0.179055,-0.0467298,0
2024-12-13 15:37:35.072,0.267996,2.68385,5.71227,1.01645,-0.29084,-0.0558925,0
2024-12-13 15:37:35.072,0.359223,2.64796,5.71227,1.01645,-0.29084,-0.0558925,0
2024-12-13 15:37:35.075,0.464507,2.59292,5.63809,0.992016,-0.337264,-0.0626118,0
2024-12-13 15:37:35.077,0.576969,2.5331,5.58545,0.963306,-0.381245,-0.0723854,0
2024-12-13 15:37:35.079,0.699003,2.48016,5.55434,0.941316,-0.419728,-0.0852132,0
2024-12-13 15:37:35.082,0.782752,2.45623,5.53998,0.918103,-0.452714,-0.0968193,0
2024-12-13 15:37:35.084,0.821037,2.44666,5.51605,0.894891,-0.47837,-0.110258,0
2024-12-13 15:37:35.086,0.84018,2.45863,5.48734,0.873512,-0.491808,-0.122475,0
2024-12-13 15:37:35.089,0.85005,2.4993,5.45623,0.85091,-0.499749,-0.132859,0
2024-12-13 15:37:35.091,0.842872,2.54746,5.41077,0.82892,-0.50036,-0.138357,0
2024-12-13 15:37:35.096,0.85005,2.64317,5.36531,0.82892,-0.50036,-0.138357,0
2024-12-13 15:37:35.098,0.878764,2.68864,5.34377,0.754396,-0.4857,-0.149352,0
2024-12-13 15:37:35.098,0.878764,2.68864,5.34377,0.754396,-0.4857,-0.149352,0
2024-12-13 15:37:35.101,0.905085,2.70539,5.31476,0.72813,-0.476537,-0.149352,0
2024-12-13 15:37:35.103,0.917049,2.71256,5.28604,0.693922,-0.474094,-0.14813,0
2024-12-13 15:37:35.105,0.948156,2.71974,5.23101,0.662158,-0.465542,-0.148741,0
2024-12-13 15:37:35.110,1.01515,2.70299,5.16401,0.593744,-0.448438,-0.143855,0
2024-12-13 15:37:35.110,1.06301,2.70299,5.16401,0.593744,-0.448438,-0.143855,0
2024-12-13 15:37:35.112,1.09651,2.70539,5.13051,0.556482,-0.439886,-0.142022,0
2024-12-13 15:37:35.115,1.12762,2.69821,5.08983,0.516166,-0.429502,-0.138968,0
2024-12-13 15:37:35.117,1.15155,2.69581,5.0659,0.47585,-0.415452,-0.139579,0
2024-12-13 15:37:35.119,1.18505,2.69342,5.05873,0.433091,-0.39896,-0.137746,0
2024-12-13 15:37:35.122,1.21376,2.68385,5.06112,0.392164,-0.381856,-0.135303,0
2024-12-13 15:37:35.124,1.22812,2.68864,5.05873,0.346274,-0.364752,-0.13347,0
2024-12-13 15:37:35.126,1.24247,2.69581,5.0659,0.302904,-0.346427,-0.129805,0
2024-12-13 15:37:35.129,1.24247,2.7006,5.08983,0.260145,-0.328712,-0.127362,0
2024-12-13 15:37:35.134,1.26162,2.69581,5.1353,0.177069,-0.289618,-0.116977,0
2024-12-13 15:37:35.134,1.26162,2.69581,5.1353,0.177069,-0.289618,-0.116977,0
2024-12-13 15:37:35.137,1.28794,2.68385,5.15683,0.0915507,-0.256632,-0.106593,0
2024-12-13 15:37:35.139,1.2999,2.69342,5.2023,0.0500131,-0.241361,-0.100484,0
2024-12-13 15:37:35.141,1.30947,2.69342,5.25733,0.0500131,-0.241361,-0.100484,0
2024-12-13 15:37:35.143,1.31904,2.68385,5.30997,0.0127514,-0.226701,-0.0949868,0
2024-12-13 15:37:35.145,1.31904,2.67189,5.38445,-0.0232886,-0.214484,-0.0876566,0
2024-12-13 15:37:35.148,1.31665,2.65274,5.46341,-0.0611611,-0.204099,-0.0797156,0
2024-12-13 15:37:35.150,1.31186,2.63839,5.54716,-0.0978119,-0.196769,-0.0717745,0
2024-12-13 15:37:35.152,1.30947,2.64078,5.64287,-0.131409,-0.191272,-0.0650552,0
2024-12-13 15:37:35.155,1.30229,2.64078,5.73859,-0.16134,-0.183941,-0.0558925,0
2024-12-13 15:37:35.157,1.31186,2.64078,5.83191,-0.19005,-0.180276,-0.0467298,0
2024-12-13 15:37:35.159,1.30947,2.63121,5.91596,-0.216927,-0.174168,-0.0387888,0
2024-12-13 15:37:35.162,1.2999,2.60967,6.01167,-0.242583,-0.166227,-0.0296261,0
2024-12-13 15:37:35.164,1.30947,2.59532,6.10499,-0.265795,-0.157675,-0.0241285,0
2024-12-13 15:37:35.166,1.31186,2.59292,6.19113,-0.285342,-0.147291,-0.0143549,0
2024-12-13 15:37:35.169,1.31665,2.59053,6.29402,-0.304889,-0.134463,-0.00397051,0
2024-12-13 15:37:35.171,1.3334,2.58096,6.38495,-0.320771,-0.121024,0.00397051,0
2024-12-13 15:37:35.174,1.34536,2.56899,6.45942,-0.334821,-0.104531,0.0119115,0
2024-12-13 15:37:35.176,1.35494,2.56182,6.536,-0.346427,-0.0837624,0.0204634,0
2024-12-13 15:37:35.181,1.37886,2.54028,6.65564,-0.371471,-0.0440574,0.0345129,0
2024-12-13 15:37:35.181,1.37886,2.54028,6.65564,-0.371471,-0.0440574,0.0345129,0
2024-12-13 15:37:35.183,1.38365,2.52084,6.71546,-0.380023,-0.0245102,0.0400105,0
2024-12-13 15:37:35.185,1.38604,2.51845,6.77528,-0.388575,-0.00496313,0.0455081,0
2024-12-13 15:37:35.188,1.38604,2.51127,6.81596,-0.396516,0.0127514,0.0491732,0
2024-12-13 15:37:35.190,1.39322,2.5017,6.88295,-0.403236,0.0329094,0.0534491,0
2024-12-13 15:37:35.192,1.38126,2.5017,6.97388,-0.409344,0.0500131,0.0565034,0
2024-12-13 15:37:35.195,1.33101,2.52832,7.04357,-0.412398,0.0695602,0.062001,0
2024-12-13 15:37:35.199,1.28076,2.48973,7.12971,-0.417285,0.109265,0.069942,0
2024-12-13 15:37:35.199,1.28076,2.48973,7.12971,-0.417285,0.109265,0.069942,0
2024-12-13 15:37:35.202,1.2999,2.42991,7.16561,-0.418507,0.127591,0.0729962,0
2024-12-13 15:37:35.204,1.31904,2.39163,7.18714,-0.415452,0.145305,0.0729962,0
2024-12-13 15:37:35.207,1.32861,2.35334,7.23021,-0.413009,0.159966,0.0729962,0
2024-12-13 15:37:35.209,1.30947,2.31506,7.28286,-0.410566,0.174626,0.0729962,0
2024-12-13 15:37:35.211,1.24247,2.29591,7.33071,-0.403236,0.1844,0.0723854,0
2024-12-13 15:37:35.214,1.15155,2.29831,7.369,-0.39224,0.191119,0.0729962,0
2024-12-13 15:37:35.216,1.08694,2.29113,7.37139,-0.383688,0.200892,0.0760505,0
2024-12-13 15:37:35.218,1.05823,2.25284,7.35703,-0.37025,0.210055,0.0803264,0
2024-12-13 15:37:35.221,1.05344,2.2337,7.33789,-0.357422,0.222272,0.082159,0
2024-12-13 15:37:35.223,1.05823,2.22413,7.32593,-0.340929,0.233878,0.0864349,0
2024-12-13 15:37:35.225,1.04865,2.19541,7.31875,-0.322604,0.244263,0.0876566,0
2024-12-13 15:37:35.228,1.01276,2.16192,7.29721,-0.306111,0.252204,0.0894891,0
2024-12-13 15:37:35.230,0.952942,2.12363,7.26371,-0.285953,0.259534,0.0919325,0
2024-12-13 15:37:35.232,0.885943,2.10209,7.22782,-0.263352,0.26381,0.0925434,0
2024-12-13 15:37:35.237,0.828216,2.09731,7.18953,-0.223036,0.26381,0.100484,0
2024-12-13 15:37:35.237,0.766002,2.08774,7.14407,-0.223036,0.26381,0.100484,0
2024-12-13 15:37:35.242,0.634397,2.08295,7.05554,-0.181498,0.24976,0.105982,0
2024-12-13 15:37:35.242,0.634397,2.08295,7.05554,-0.181498,0.24976,0.105982,0
2024-12-13 15:37:35.244,0.576969,2.08295,7.02682,-0.162562,0.238765,0.110258,0
2024-12-13 15:37:35.247,0.545863,2.09492,6.97867,-0.13935,0.225937,0.115756,0
2024-12-13 15:37:35.249,0.514756,2.11645,6.9356,-0.119192,0.20639,0.119421,0
2024-12-13 15:37:35.251,0.481256,2.14038,6.89731,-0.101477,0.188675,0.123086,0
2024-12-13 15:37:35.254,0.457328,2.16431,6.8662,-0.0807082,0.168517,0.12614,0
2024-12-13 15:37:35.256,0.438186,2.20499,6.84228,-0.0605502,0.151414,0.129805,0
2024-12-13 15:37:35.258,0.435793,2.25045,6.82553,-0.0434465,0.132477,0.130416,0
2024-12-13 15:37:35.261,0.438186,2.28634,6.81835,-0.0226777,0.111709,0.13347,0
2024-12-13 15:37:35.263,0.435793,2.31506,6.79442,-0.00313059,0.0927724,0.132248,0
2024-12-13 15:37:35.265,0.454935,2.34856,6.78006,0.0151948,0.0713928,0.132248,0
2024-12-13 15:37:35.268,0.476471,2.40359,6.78963,0.0322986,0.0524565,0.129805,0
2024-12-13 15:37:35.270,0.500399,2.46102,6.81117,0.0524565,0.0316877,0.12614,0
2024-12-13 15:37:35.272,0.521934,2.48495,6.80638,0.0683385,0.0109189,0.123086,0
2024-12-13 15:37:35.275,0.548256,2.51845,6.78246,0.0860531,-0.00740652,0.11881,0
2024-12-13 15:37:35.277,0.572184,2.57378,6.76331,0.101324,-0.0275645,0.113923,0
2024-12-13 15:37:35.280,0.569791,2.61924,6.71785,0.117206,-0.0422248,0.105982,0
2024-12-13 15:37:35.284,0.576969,2.7006,6.62214,0.144084,-0.0691021,0.0931542,0
2024-12-13 15:37:35.284,0.576969,2.7006,6.62214,0.144084,-0.0691021,0.0931542,0
2024-12-13 15:37:35.288,0.574577,2.74367,6.53839,0.164242,-0.0874275,0.0797156,0
2024-12-13 15:37:35.289,0.557827,2.79153,6.46421,0.164242,-0.0874275,0.0797156,0
2024-12-13 15:37:35.291,0.557827,2.8322,6.38973,0.17035,-0.0947577,0.0736071,0
2024-12-13 15:37:35.294,0.555434,2.87049,6.31795,0.174626,-0.104531,0.0656661,0
2024-12-13 15:37:35.296,0.52672,2.92313,6.2342,0.175237,-0.110029,0.0595576,0
2024-12-13 15:37:35.298,0.507577,2.97338,6.14567,0.173404,-0.115526,0.0546708,0
2024-12-13 15:37:35.301,0.498006,3.01167,6.0691,0.167907,-0.122246,0.0497841,0
2024-12-13 15:37:35.303,0.481256,3.05952,5.98774,0.159355,-0.128965,0.046119,0
2024-12-13 15:37:35.305,0.4669,3.12204,5.91356,0.14897,-0.136906,0.041843,0
2024-12-13 15:37:35.308,0.45015,3.18903,5.85105,0.13431,-0.146069,0.0387888,0
2024-12-13 15:37:35.310,0.442971,3.26082,5.79123,0.117206,-0.154621,0.0357346,0
2024-12-13 15:37:35.313,0.440578,3.33021,5.74337,0.0982701,-0.163173,0.0357346,0
2024-12-13 15:37:35.315,0.423829,3.402,5.72423,0.0762796,-0.174779,0.0332912,0
2024-12-13 15:37:35.317,0.423829,3.47617,5.70748,0.0536782,-0.18272,0.033902,0
2024-12-13 15:37:35.320,0.428614,3.55753,5.70748,0.0298552,-0.191882,0.033902,0
2024-12-13 15:37:35.322,0.421436,3.63171,5.71227,0.00236703,-0.201656,0.0332912,0
2024-12-13 15:37:35.324,0.423829,3.67508,5.71944,-0.0251211,-0.21143,0.0345129,0
2024-12-13 15:37:35.327,0.423829,3.72533,5.74816,-0.0550526,-0.222425,0.0332912,0
2024-12-13 15:37:35.329,0.41665,3.77318,5.76252,-0.0843733,-0.232809,0.0320695,0
2024-12-13 15:37:35.331,0.407079,3.78515,5.80319,-0.117359,-0.243804,0.033902,0
2024-12-13 15:37:35.336,0.352044,3.8354,5.93749,-0.182109,-0.270071,0.0369563,0
2024-12-13 15:37:35.336,0.352044,3.8354,5.93749,-0.182109,-0.270071,0.0369563,0
2024-12-13 15:37:35.338,0.301795,3.87607,5.99492,-0.182109,-0.270071,0.0369563,0
2024-12-13 15:37:35.341,0.272782,3.91436,6.05952,-0.252967,-0.292672,0.0436756,0
2024-12-13 15:37:35.345,0.289831,3.94068,6.25095,-0.319549,-0.309165,0.0522274,0
2024-12-13 15:37:35.346,0.289831,3.94068,6.25095,-0.319549,-0.309165,0.0522274,0
2024-12-13 15:37:35.348,0.313759,3.94547,6.37777,-0.353146,-0.318328,0.0558925,0
2024-12-13 15:37:35.350,0.347258,3.93829,6.51207,-0.38491,-0.32749,0.0613902,0
2024-12-13 15:37:35.355,0.421436,3.92154,6.78485,-0.444162,-0.338486,0.0681095,0
2024-12-13 15:37:35.355,0.421436,3.92154,6.78485,-0.444162,-0.338486,0.0681095,0
2024-12-13 15:37:35.357,0.45015,3.92632,6.92842,-0.470429,-0.340929,0.0717745,0
2024-12-13 15:37:35.360,0.469292,3.9335,7.0675,-0.491198,-0.339707,0.0723854,0
2024-12-13 15:37:35.362,0.486042,3.92154,7.21107,-0.515021,-0.336653,0.0754396,0
2024-12-13 15:37:35.364,0.505185,3.90718,7.35225,-0.531513,-0.326269,0.077883,0
2024-12-13 15:37:35.367,0.52672,3.89761,7.49821,-0.549228,-0.313441,0.0839915,0
2024-12-13 15:37:35.369,0.548256,3.89761,7.64208,-0.564499,-0.298781,0.0882674,0
2024-12-13 15:37:35.371,0.553041,3.90239,7.78565,-0.576716,-0.281677,0.0931542,0
2024-12-13 15:37:35.374,0.569791,3.87607,7.94597,-0.588322,-0.263962,0.100484,0
2024-12-13 15:37:35.376,0.586541,3.86172,8.10389,-0.597485,-0.24808,0.104149,0
2024-12-13 15:37:35.378,0.608076,3.87368,8.24537,-0.607869,-0.229755,0.110869,0
2024-12-13 15:37:35.381,0.627219,3.8689,8.37937,-0.617032,-0.215095,0.116366,0
2024-12-13 15:37:35.383,0.643968,3.85215,8.51097,-0.624362,-0.198602,0.122475,0
2024-12-13 15:37:35.386,0.670289,3.84497,8.63061,-0.631082,-0.18272,0.129194,0
2024-12-13 15:37:35.388,0.696611,3.84736,8.7362,-0.637801,-0.167449,0.134157,0
2024-12-13 15:37:35.390,0.73011,3.85932,8.8343,-0.637801,-0.167449,0.134157,0
2024-12-13 15:37:35.393,0.770788,3.8689,8.9348,-0.646964,-0.13996,0.142709,0
2024-12-13 15:37:35.395,0.813859,3.8689,9.04726,-0.652461,-0.128354,0.14332,0
2024-12-13 15:37:35.397,0.852443,3.88086,9.16451,-0.660402,-0.116137,0.145763,0
2024-12-13 15:37:35.400,0.878764,3.90718,9.26531,-0.664067,-0.10392,0.146374,0
2024-12-13 15:37:35.402,0.893121,3.91914,9.35863,-0.666511,-0.0923143,0.146374,0
2024-12-13 15:37:35.404,0.905085,3.94068,9.46631,-0.672619,-0.0843733,0.146985,0
2024-12-13 15:37:35.407,0.938585,3.96222,9.58355,-0.676895,-0.0739889,0.148207,0
2024-12-13 15:37:35.409,0.986441,3.98614,9.70798,-0.679339,-0.0648262,0.147596,0
2024-12-13 15:37:35.411,1.0319,4.01964,9.82314,-0.683004,-0.0538309,0.146374,0
2024-12-13 15:37:35.414,1.07258,4.04118,9.93799,-0.681782,-0.041614,0.145153,0
2024-12-13 15:37:35.416,1.08694,4.05793,10.0457,-0.681171,-0.029397,0.142709,0
2024-12-13 15:37:35.419,1.10369,4.07946,10.1486,-0.682393,-0.0153475,0.140266,0
2024-12-13 15:37:35.421,1.12044,4.101,10.2419,-0.68056,0.000534491,0.137822,0
2024-12-13 15:37:35.426,1.12283,4.09143,10.436,-0.677506,0.0310769,0.128583,0
2024-12-13 15:37:35.426,1.12283,4.09143,10.436,-0.677506,0.0310769,0.128583,0
2024-12-13 15:37:35.430,1.11805,4.09621,10.6131,-0.669565,0.0628409,0.116366,0
2024-12-13 15:37:35.430,1.11805,4.09621,10.6131,-0.669565,0.0628409,0.116366,0
2024-12-13 15:37:35.433,1.10848,4.101,10.6968,-0.6659,0.0781121,0.110258,0
2024-12-13 15:37:35.435,1.1013,4.11057,10.7614,-0.660402,0.0897182,0.10476,0
2024-12-13 15:37:35.437,1.08933,4.12014,10.8284,-0.654905,0.100103,0.0974301,0
2024-12-13 15:37:35.441,1.07976,4.13211,10.9193,-0.646964,0.108044,0.0913217,0
2024-12-13 15:37:35.444,1.08455,4.15603,11.0106,-0.630471,0.122704,0.0784939,0
2024-12-13 15:37:35.444,1.09412,4.17757,11.0824,-0.630471,0.122704,0.0784939,0
2024-12-13 15:37:35.447,1.09651,4.20897,11.1446,-0.619475,0.128812,0.0723854,0
2024-12-13 15:37:35.449,1.1013,4.24726,11.1948,-0.610313,0.136143,0.0674986,0
2024-12-13 15:37:35.451,1.1013,4.27597,11.2235,-0.597485,0.142862,0.062001,0
2024-12-13 15:37:35.454,1.09412,4.31187,11.2642,-0.587101,0.14897,0.0571142,0
2024-12-13 15:37:35.459,1.08933,4.37169,11.3169,-0.563278,0.159966,0.0503949,0
2024-12-13 15:37:35.459,1.08933,4.37169,11.3169,-0.563278,0.159966,0.0503949,0
2024-12-13 15:37:35.461,1.07737,4.39801,11.3575,-0.548617,0.163631,0.046119,0
2024-12-13 15:37:35.463,1.07258,4.42672,11.3815,-0.535789,0.165463,0.0448973,0
2024-12-13 15:37:35.466,1.05583,4.45304,11.4054,-0.52174,0.165463,0.0424539,0
2024-12-13 15:37:35.468,1.03669,4.4674,11.4413,-0.50708,0.164242,0.0406213,0
2024-12-13 15:37:35.470,1.04387,4.47219,11.4867,-0.491198,0.163631,0.041843,0
2024-12-13 15:37:35.473,1.04387,4.49133,11.5253,-0.474094,0.162409,0.0430647,0
2024-12-13 15:37:35.476,1.05344,4.52243,11.554,-0.442941,0.152635,0.0436756,0
2024-12-13 15:37:35.477,1.07737,4.55354,11.5851,-0.442941,0.152635,0.0436756,0
2024-12-13 15:37:35.480,1.08215,4.57747,11.6043,-0.42095,0.147749,0.0455081,0
2024-12-13 15:37:35.482,1.07258,4.6014,11.6139,-0.39957,0.142862,0.0467298,0
2024-12-13 15:37:35.484,1.07498,4.64447,11.6163,-0.381856,0.132477,0.0455081,0
2024-12-13 15:37:35.487,1.08694,4.68754,11.6163,-0.365363,0.123926,0.0485624,0
2024-12-13 15:37:35.489,1.08215,4.72104,11.6258,-0.340318,0.115985,0.0516166,0
2024-12-13 15:37:35.492,1.04865,4.74736,11.6306,-0.320771,0.106822,0.0528383,0
2024-12-13 15:37:35.494,1.02951,4.78834,11.6258,-0.299392,0.0964375,0.0571142,0
2024-12-13 15:37:35.496,1.02473,4.86012,11.6163,-0.280455,0.0842206,0.0589468,0
2024-12-13 15:37:35.499,1.01515,4.91037,11.6186,-0.258465,0.0726145,0.0638335,0
2024-12-13 15:37:35.501,1.00798,4.94387,11.6115,-0.238918,0.0622301,0.0674986,0
2024-12-13 15:37:35.503,1.00558,4.99412,11.5971,-0.221203,0.0469589,0.0729962,0
2024-12-13 15:37:35.506,0.99362,5.02762,11.6019,-0.203488,0.0329094,0.077883,0
2024-12-13 15:37:35.510,1.0008,5.12333,11.5851,-0.171114,0.00236703,0.0901,0
2024-12-13 15:37:35.510,1.0008,5.12333,11.5851,-0.171114,0.00236703,0.0901,0
2024-12-13 15:37:35.515,1.02712,5.1999,11.5947,-0.140571,-0.0196235,0.100484,0
2024-12-13 15:37:35.515,1.02712,5.1999,11.5947,-0.140571,-0.0196235,0.100484,0
2024-12-13 15:37:35.520,1.05823,5.26212,11.6043,-0.119192,-0.0342838,0.114534,0
2024-12-13 15:37:35.520,1.05823,5.26212,11.6043,-0.119192,-0.0342838,0.114534,0
2024-12-13 15:37:35.522,1.0678,5.29083,11.6378,-0.108807,-0.0361163,0.11881,0
2024-12-13 15:37:35.524,1.08694,5.31954,11.6785,-0.100866,-0.037338,0.125529,0
2024-12-13 15:37:35.527,1.11087,5.33659,11.7239,-0.0929251,-0.0355055,0.13347,0
2024-12-13 15:37:35.529,1.13001,5.36291,11.7718,-0.0849841,-0.0342838,0.138433,0
2024-12-13 15:37:35.532,1.15155,5.39881,11.8101,-0.0825407,-0.029397,0.145153,0
2024-12-13 15:37:35.534,1.16112,5.42752,11.8699,-0.0770431,-0.029397,0.15065,0
2024-12-13 15:37:35.536,1.1659,5.43709,11.9178,-0.0770431,-0.0269536,0.15798,0
2024-12-13 15:37:35.539,1.17547,5.4682,11.9417,-0.0770431,-0.0238994,0.162256,0
2024-12-13 15:37:35.541,1.19462,5.49691,11.9895,-0.0770431,-0.0238994,0.162256,0
2024-12-13 15:37:35.543,1.20658,5.50888,12.0518,-0.0800973,-0.0171801,0.174473,0
2024-12-13 15:37:35.546,1.21615,5.51845,12.119,-0.0800973,-0.0171801,0.174473,0
2024-12-13 15:37:35.548,1.22333,5.52563,12.186,-0.0874275,-0.00679568,0.187301,0
2024-12-13 15:37:35.550,1.24247,5.54955,12.2554,-0.0917034,-0.000687203,0.191577,0
2024-12-13 15:37:35.553,1.27597,5.57348,12.344,-0.0947577,0.0096972,0.194631,0
2024-12-13 15:37:35.555,1.31186,5.58545,12.4588,-0.0990336,0.0176382,0.199518,0
2024-12-13 15:37:35.557,1.32144,5.60698,12.5761,-0.0996445,0.0255792,0.204405,0
2024-12-13 15:37:35.560,1.2999,5.63091,12.6793,-0.102088,0.0371853,0.206848,0
2024-12-13 15:37:35.562,1.30947,5.66202,12.7798,-0.102699,0.0451263,0.209902,0
2024-12-13 15:37:35.565,1.33579,5.69073,12.8755,-0.10331,0.0555107,0.211735,0
2024-12-13 15:37:35.567,1.34058,5.71705,12.9927,-0.102699,0.0658951,0.211735,0
2024-12-13 15:37:35.569,1.35733,5.75534,13.1243,-0.100866,0.0738362,0.211735,0
2024-12-13 15:37:35.572,1.38365,5.77448,13.2706,-0.100255,0.0817772,0.211124,0
2024-12-13 15:37:35.574,1.39083,5.76252,13.4261,-0.0972011,0.0884965,0.20807,0
2024-12-13 15:37:35.576,1.39801,5.76252,13.5841,-0.0917034,0.0958267,0.204405,0
2024-12-13 15:37:35.581,1.38604,5.79601,13.917,-0.081319,0.103768,0.195242,0
2024-12-13 15:37:35.581,1.38604,5.79601,13.917,-0.081319,0.103768,0.195242,0
2024-12-13 15:37:35.583,1.37886,5.79123,14.0725,-0.0752106,0.108654,0.189134,0
2024-12-13 15:37:35.586,1.39322,5.8008,14.228,-0.0636045,0.11232,0.181803,0
2024-12-13 15:37:35.590,1.40788,5.8343,14.4867,-0.0391706,0.122704,0.166532,0
2024-12-13 15:37:35.590,1.40788,5.8343,14.4867,-0.0391706,0.122704,0.166532,0
2024-12-13 15:37:35.593,1.43181,5.85344,14.5418,-0.029397,0.130034,0.15798,0
2024-12-13 15:37:35.596,1.44855,5.87737,14.6255,-0.0122933,0.140419,0.137212,0
2024-12-13 15:37:35.597,1.43659,5.90399,14.7595,-0.0122933,0.140419,0.137212,0
2024-12-13 15:37:35.600,1.41745,5.91356,14.86,-0.00435229,0.137364,0.12614,0
2024-12-13 15:37:35.602,1.41506,5.91356,14.9249,0.00175619,0.133699,0.115756,0
2024-12-13 15:37:35.605,1.42702,5.90878,14.9919,0.00603212,0.131256,0.102928,0
2024-12-13 15:37:35.607,1.40548,5.89681,15.0757,0.00725381,0.127591,0.0907108,0
2024-12-13 15:37:35.609,1.35733,5.87737,15.1618,0.00908635,0.123315,0.0797156,0
2024-12-13 15:37:35.612,1.30469,5.82712,15.2456,0.0121406,0.120871,0.0681095,0
2024-12-13 15:37:35.614,1.24247,5.77687,15.3413,0.00786466,0.116595,0.0601685,0
2024-12-13 15:37:35.616,1.17547,5.71466,15.4298,0.00786466,0.116595,0.0601685,0
2024-12-13 15:37:35.619,1.11565,5.63091,15.5282,0.00542127,0.109876,0.0436756,0
2024-12-13 15:37:35.623,1.0678,5.53759,15.7125,-0.00496313,0.102546,0.0345129,0
2024-12-13 15:37:35.623,1.03669,5.44666,15.7125,-0.00496313,0.102546,0.0345129,0
2024-12-13 15:37:35.626,1.01755,5.34856,15.8393,-0.00984991,0.0958267,0.0296261,0
2024-12-13 15:37:35.628,0.998405,5.22144,15.9829,-0.0147367,0.0915507,0.0277936,0
2024-12-13 15:37:35.630,1.0008,5.10419,16.1172,-0.0220669,0.086664,0.0253502,0
2024-12-13 15:37:35.633,1.02712,4.98933,16.2512,-0.0312296,0.0787229,0.0222959,0
2024-12-13 15:37:35.635,1.02473,4.87209,16.421,-0.0379489,0.0738362,0.0216851,0
2024-12-13 15:37:35.638,0.972084,4.79791,16.5864,-0.0440574,0.0695602,0.0216851,0
2024-12-13 15:37:35.640,0.890728,4.75215,16.675,-0.0501658,0.0732253,0.0247393,0
2024-12-13 15:37:35.642,0.818644,4.65404,16.8209,-0.0568851,0.0878856,0.0326803,0
2024-12-13 15:37:35.645,0.80668,4.50568,17.053,-0.0623828,0.102546,0.0387888,0
2024-12-13 15:37:35.647,0.837787,4.33819,17.2855,-0.0611611,0.111709,0.0455081,0
2024-12-13 15:37:35.649,0.902692,4.12493,17.5319,-0.0568851,0.124536,0.0516166,0
2024-12-13 15:37:35.652,0.988834,3.89761,17.7691,-0.0477224,0.138586,0.0546708,0
2024-12-13 15:37:35.654,1.0989,3.69422,17.9892,-0.0287862,0.156911,0.0595576,0
2024-12-13 15:37:35.656,1.21615,3.49292,18.2094,-0.00313059,0.183178,0.0607793,0
2024-12-13 15:37:35.659,1.31904,3.29193,18.4274,0.0316877,0.21372,0.0607793,0
2024-12-13 15:37:35.661,1.4342,3.09811,18.5925,0.0756687,0.252204,0.0607793,3
2024-12-13 15:37:35.663,1.54188,2.9016,18.6882,0.130645,0.297406,0.0565034,0
2024-12-13 15:37:35.666,1.65673,2.7006,18.7672,0.194784,0.346885,0.0491732,0
2024-12-13 15:37:35.668,1.76441,2.5331,18.7959,0.266253,0.401861,0.0436756,0
2024-12-13 15:37:35.671,1.81226,2.40359,18.7481,0.349939,0.462335,0.0387888,0
2024-12-13 15:37:35.673,1.80748,2.29352,18.6045,0.438588,0.529528,0.0332912,0
2024-12-13 15:37:35.675,1.78834,2.20499,18.3844,0.535102,0.602219,0.0314586,0
2024-12-13 15:37:35.680,1.73809,2.14277,18.1137,0.737903,0.73546,0.0308478,0
2024-12-13 15:37:35.680,1.66391,2.09252,17.8026,0.737903,0.73546,0.0308478,0
2024-12-13 15:37:35.682,1.59212,2.04227,17.4506,0.847245,0.795934,0.0320695,0
2024-12-13 15:37:35.685,1.51316,1.99442,17.0267,0.952311,0.851521,0.0363454,0
2024-12-13 15:37:35.687,1.4342,1.96301,16.5553,1.05982,0.901,0.041843,0
2024-12-13 15:37:35.689,1.36211,1.92473,16.0717,1.1655,0.943759,0.0491732,0
2024-12-13 15:37:35.692,1.27119,1.86969,15.5522,1.27301,0.978577,0.0571142,0
2024-12-13 15:37:35.694,1.17547,1.82423,15.0087,1.37624,1.00973,0.0687203,0
2024-12-13 15:37:35.696,1.09412,1.78834,14.4652,1.47642,1.03233,0.0797156,0
2024-12-13 15:37:35.699,1.00319,1.75962,13.8835,1.5711,1.04516,0.0919325,0
2024-12-13 15:37:35.701,0.907478,1.74527,13.2826,1.66334,1.0531,0.107204,0
2024-12-13 15:37:35.703,0.813859,1.74048,12.7032,1.75191,1.04882,0.119421,0
2024-12-13 15:37:35.706,0.718146,1.72852,12.1167,1.83743,1.03905,0.134157,0
2024-12-13 15:37:35.708,0.632004,1.73091,11.5229,1.91562,1.01889,0.146985,0
2024-12-13 15:37:35.711,0.550648,1.73809,10.9337,1.98892,0.996292,0.159813,0
2024-12-13 15:37:35.713,0.471685,1.73091,10.3567,2.0555,0.964528,0.173252,0
2024-12-13 15:37:35.715,0.404686,1.70937,9.80369,2.11781,0.93032,0.185468,0
2024-12-13 15:37:35.718,0.332901,1.70937,9.26292,2.16973,0.891226,0.194631,0
2024-12-13 15:37:35.720,0.251246,1.72373,8.7362,2.21982,0.849078,0.206237,0
2024-12-13 15:37:35.722,0.16989,1.72852,8.24537,2.2638,0.804486,0.2154,0
2024-12-13 15:37:35.725,0.122034,1.72373,7.77129,2.29923,0.758672,0.225784,0
2024-12-13 15:37:35.727,0.124427,1.71177,7.32353,2.3316,0.708583,0.229449,0
2024-12-13 15:37:35.729,0.119641,1.71894,6.9021,2.35482,0.652919,0.234336,0
2024-12-13 15:37:35.732,0.0741775,1.75005,6.48096,2.37192,0.596721,0.236169,0
2024-12-13 15:37:35.734,0.0167498,1.79791,6.05713,2.38169,0.541745,0.234336,0
2024-12-13 15:37:35.736,-0.0502493,1.86969,5.64766,2.3823,0.485547,0.23678,0
2024-12-13 15:37:35.739,-0.129212,1.97767,5.26212,2.3823,0.485547,0.23678,0
2024-12-13 15:37:35.741,-0.210568,2.10209,4.91276,2.36398,0.376816,0.238612,0
2024-12-13 15:37:35.744,-0.292223,2.21216,4.62772,2.34016,0.324894,0.237391,0
2024-12-13 15:37:35.746,-0.366401,2.30309,4.33819,2.31022,0.274194,0.239223,0
2024-12-13 15:37:35.751,-0.469292,2.48016,3.8354,2.22959,0.175848,0.234947,0
2024-12-13 15:37:35.751,-0.469292,2.48016,3.8354,2.22959,0.175848,0.234947,0
2024-12-13 15:37:35.753,-0.495613,2.54746,3.64367,2.18195,0.128202,0.229449,0
2024-12-13 15:37:35.755,-0.514756,2.61446,3.46899,2.13125,0.0811663,0.227617,0
2024-12-13 15:37:35.758,-0.536291,2.67667,3.31585,2.07444,0.0377962,0.221508,0
2024-12-13 15:37:35.760,-0.545863,2.72692,3.19382,2.01213,-0.00435229,0.214178,0
2024-12-13 15:37:35.762,-0.545863,2.79392,3.1005,1.94738,-0.0428357,0.203794,0
2024-12-13 15:37:35.765,-0.486042,2.9016,3.02124,1.88385,-0.0684913,0.190966,0
2024-12-13 15:37:35.767,-0.435793,2.98295,2.98535,1.81177,-0.085595,0.17203,0
2024-12-13 15:37:35.769,-0.4669,3.00449,3.01406,1.74275,-0.102088,0.153094,0
2024-12-13 15:37:35.772,-0.524327,3.04277,3.09093,1.67555,-0.119192,0.136601,0
2024-12-13 15:37:35.774,-0.591326,3.1005,3.16271,1.61264,-0.130798,0.121253,0
2024-12-13 15:37:35.776,-0.634397,3.18425,3.20339,1.5485,-0.140571,0.10476,0
2024-12-13 15:37:35.779,-0.567398,3.42353,3.25843,1.48741,-0.138739,0.0870457,0
2024-12-13 15:37:35.781,-0.440578,3.56231,3.28714,1.42877,-0.121635,0.0583359,0
2024-12-13 15:37:35.784,-0.337687,3.42832,3.27996,1.36524,-0.0941468,0.0302369,0
2024-12-13 15:37:35.786,-0.244068,3.25364,3.29671,1.30355,-0.0556635,0.00580305,0
2024-12-13 15:37:35.788,-0.224925,3.11246,3.35653,1.24185,-0.0202343,-0.0137441,0
2024-12-13 15:37:35.791,-0.282652,2.98774,3.45464,1.18199,0.0096972,-0.0265719,0
2024-12-13 15:37:35.793,-0.373579,2.8992,3.56231,1.11907,0.0231358,-0.0393996,0
2024-12-13 15:37:35.795,-0.4334,2.84895,3.64876,1.05799,0.0213033,-0.0516166,0
2024-12-13 15:37:35.798,-0.454935,2.81545,3.7014,0.996903,0.00908635,-0.0607793,0
2024-12-13 15:37:35.800,-0.457328,2.81067,3.68704,0.930931,-0.0129041,-0.0681095,0
2024-12-13 15:37:35.802,-0.435793,2.8346,3.61496,0.863738,-0.0330621,-0.0754396,0
2024-12-13 15:37:35.805,-0.407079,2.89442,3.51446,0.794101,-0.0513875,-0.0797156,0
2024-12-13 15:37:35.807,-0.407079,2.9662,3.42353,0.719578,-0.0605502,-0.0852132,0
2024-12-13 15:37:35.809,-0.419043,3.01406,3.3685,0.64139,-0.0599394,-0.0919325,0
2024-12-13 15:37:35.812,-0.404686,3.02363,3.37328,0.561369,-0.0513875,-0.0931542,0
2024-12-13 15:37:35.814,-0.364008,3.0021,3.42832,0.481348,-0.0367272,-0.0968193,0
2024-12-13 15:37:35.817,-0.299402,2.97577,3.51924,0.40377,-0.0202343,-0.101095,0
2024-12-13 15:37:35.819,-0.234497,2.93031,3.64367,0.32184,-0.00740652,-0.105371,0
2024-12-13 15:37:35.821,-0.18664,2.87288,3.7995,0.243652,-0.00374144,-0.107204,0
2024-12-13 15:37:35.824,-0.174676,2.81545,3.98375,0.169739,-0.00496313,-0.109647,0
2024-12-13 15:37:35.826,-0.177069,2.75085,4.18953,0.0982701,-0.00801737,-0.11209,0
2024-12-13 15:37:35.831,-0.148355,2.61924,4.57747,-0.0355055,-0.0122933,-0.110869,0
2024-12-13 15:37:35.832,-0.148355,2.61924,4.57747,-0.0953685,-0.0122933,-0.109647,0
2024-12-13 15:37:35.833,-0.11007,2.60489,4.77398,-0.0953685,-0.0122933,-0.109647,0
2024-12-13 15:37:35.835,-0.0502493,2.6001,4.96301,-0.154621,-0.0104608,-0.109036,0
2024-12-13 15:37:35.838,-0.00478565,2.59532,5.1353,-0.154621,-0.0104608,-0.109036,0
2024-12-13 15:37:35.840,0.0502493,2.61446,5.30997,-0.262741,0.00725381,-0.110258,0
2024-12-13 15:37:35.842,0.117248,2.62403,5.50648,-0.311608,0.0182491,-0.110869,0
2024-12-13 15:37:35.845,0.165105,2.6001,5.72184,-0.353757,0.0341311,-0.113312,0
2024-12-13 15:37:35.848,0.198604,2.5666,5.92792,-0.425226,0.0781121,-0.115145,0
2024-12-13 15:37:35.849,0.227318,2.53549,6.14088,-0.425226,0.0781121,-0.115145,0
2024-12-13 15:37:35.852,0.246461,2.49452,6.35145,-0.450882,0.103768,-0.118199,0
2024-12-13 15:37:35.854,0.267996,2.45863,6.54317,-0.47104,0.130034,-0.11881,0
2024-12-13 15:37:35.857,0.285045,2.42513,6.72981,-0.491198,0.15569,-0.120031,0
2024-12-13 15:37:35.859,0.304188,2.40359,6.90688,-0.504025,0.186232,-0.123086,0
2024-12-13 15:37:35.861,0.328116,2.39402,7.04836,-0.51441,0.216164,-0.12614,0
2024-12-13 15:37:35.864,0.330509,2.38684,7.19193,-0.521129,0.245484,-0.129194,0
2024-12-13 15:37:35.866,0.318545,2.4012,7.35943,-0.524794,0.27114,-0.134081,0
2024-12-13 15:37:35.869,0.32333,2.41077,7.51257,-0.523572,0.294963,-0.136524,0
2024-12-13 15:37:35.873,0.301795,2.42273,7.75454,-0.509523,0.338333,-0.140189,0
2024-12-13 15:37:35.873,0.301795,2.42273,7.75454,-0.509523,0.338333,-0.140189,0
2024-12-13 15:37:35.875,0.287438,2.42752,7.86222,-0.496084,0.355437,-0.145076,0
2024-12-13 15:37:35.878,0.285045,2.42752,7.95554,-0.481424,0.37193,-0.146298,0
2024-12-13 15:37:35.880,0.289831,2.44427,8.0345,-0.463099,0.384757,-0.148741,0
2024-12-13 15:37:35.882,0.311366,2.45623,8.09432,-0.441719,0.394531,-0.151185,0
2024-12-13 15:37:35.887,0.30658,2.45145,8.14487,-0.391629,0.40797,-0.157904,0
2024-12-13 15:37:35.887,0.30658,2.45145,8.14487,-0.391629,0.40797,-0.157904,0
2024-12-13 15:37:35.890,0.304188,2.46341,8.13021,-0.364141,0.412246,-0.158515,0
2024-12-13 15:37:35.892,0.270389,2.48255,8.12064,-0.336042,0.414078,-0.161569,0
2024-12-13 15:37:35.894,0.217747,2.47777,8.08475,-0.3055,0.414078,-0.164012,0
2024-12-13 15:37:35.897,0.172283,2.47298,8.02014,-0.274347,0.40858,-0.163402,0
2024-12-13 15:37:35.901,0.143569,2.49212,7.88854,-0.212651,0.387201,-0.159126,0
2024-12-13 15:37:35.901,0.102891,2.5017,7.88854,-0.212651,0.387201,-0.159126,0
2024-12-13 15:37:35.906,0.00478565,2.51605,7.66361,-0.154621,0.353604,-0.143855,0
2024-12-13 15:37:35.906,0.00478565,2.51605,7.66361,-0.154621,0.353604,-0.143855,0
2024-12-13 15:37:35.911,-0.0861416,2.54028,7.436,-0.100866,0.304126,-0.127972,0
2024-12-13 15:37:35.911,-0.0861416,2.54028,7.436,-0.100866,0.304126,-0.127972,0
2024-12-13 15:37:35.913,-0.138784,2.54985,7.31635,-0.0770431,0.270529,-0.118199,0
2024-12-13 15:37:35.915,-0.16989,2.57139,7.19911,-0.0532201,0.236932,-0.10476,0
2024-12-13 15:37:35.918,-0.189033,2.58574,7.07946,-0.0355055,0.200892,-0.0931542,0
2024-12-13 15:37:35.920,-0.208176,2.60728,6.97149,-0.0129041,0.160576,-0.082159,0
2024-12-13 15:37:35.923,-0.234497,2.65035,6.87338,0.00358873,0.120871,-0.0681095,0
2024-12-13 15:37:35.925,-0.260818,2.69581,6.77767,0.0158057,0.0829989,-0.0552817,0
2024-12-13 15:37:35.927,-0.260818,2.74367,6.66999,0.0322986,0.0414613,-0.0430647,0
2024-12-13 15:37:35.930,-0.256032,2.80349,6.55753,0.0420721,0.00297788,-0.0265719,0
2024-12-13 15:37:35.932,-0.253639,2.8657,6.43998,0.0518457,-0.033673,-0.0143549,0
2024-12-13 15:37:35.934,-0.244068,2.92792,6.32273,0.0597867,-0.0623828,-0.00335966,0
2024-12-13 15:37:35.937,-0.232104,2.99492,6.20549,0.0628409,-0.0874275,0.00946813,0
2024-12-13 15:37:35.939,-0.208176,3.04277,6.1002,0.0658951,-0.108196,0.0192417,0
2024-12-13 15:37:35.941,-0.191426,3.08345,5.99253,0.0658951,-0.108196,0.0192417,0
2024-12-13 15:37:35.944,-0.184247,3.11964,5.87498,0.0610084,-0.13996,0.0351237,0
2024-12-13 15:37:35.946,-0.153141,3.14118,5.76252,0.058565,-0.147291,0.041843,0
2024-12-13 15:37:35.948,-0.143569,3.16989,5.67159,0.0512348,-0.155232,0.0479515,0
2024-12-13 15:37:35.951,-0.141177,3.19861,5.5998,0.0414613,-0.16134,0.0534491,0
2024-12-13 15:37:35.953,-0.143569,3.21775,5.54955,0.0286335,-0.169281,0.0552817,0
2024-12-13 15:37:35.955,-0.153141,3.24407,5.50409,0.0182491,-0.176,0.0571142,0
2024-12-13 15:37:35.958,-0.167498,3.27518,5.45623,0.00481042,-0.18272,0.0595576,0
2024-12-13 15:37:35.960,-0.189033,3.31346,5.42034,-0.00923906,-0.188217,0.0638335,0
2024-12-13 15:37:35.963,-0.181855,3.35653,5.37727,-0.0257319,-0.196769,0.0632227,0
2024-12-13 15:37:35.965,-0.172283,3.38046,5.34377,-0.0440574,-0.202267,0.0644444,0
2024-12-13 15:37:35.967,-0.160319,3.43071,5.29801,-0.0617719,-0.205321,0.0644444,0
2024-12-13 15:37:35.970,-0.145962,3.48096,5.25494,-0.077654,-0.207154,0.0644444,0
2024-12-13 15:37:35.972,-0.129212,3.51207,5.21905,-0.0959794,-0.207154,0.0638335,0
2024-12-13 15:37:35.974,-0.117248,3.55753,5.17597,-0.115526,-0.205321,0.0607793,0
2024-12-13 15:37:35.977,-0.117248,3.59342,5.14248,-0.134463,-0.199823,0.0583359,0
2024-12-13 15:37:35.979,-0.11007,3.61256,5.12094,-0.155232,-0.193715,0.0565034,0
2024-12-13 15:37:35.981,-0.114855,3.61496,5.10419,-0.17539,-0.188217,0.0552817,0
2024-12-13 15:37:35.984,-0.131605,3.6341,5.09701,-0.194937,-0.183941,0.0491732,0
2024-12-13 15:37:35.986,-0.157926,3.65593,5.11615,-0.216316,-0.180887,0.0467298,0
2024-12-13 15:37:35.988,-0.18664,3.66551,5.14726,-0.237085,-0.177833,0.0442864,0
2024-12-13 15:37:35.991,-0.20339,3.68226,5.1688,-0.259686,-0.173557,0.0406213,0
2024-12-13 15:37:35.993,-0.222533,3.72054,5.17119,-0.279844,-0.170503,0.0387888,0
2024-12-13 15:37:35.996,-0.217747,3.76361,5.19512,-0.299392,-0.166838,0.0357346,0
2024-12-13 15:37:36.000,-0.165105,3.81386,5.25972,-0.336042,-0.154621,0.0308478,0
2024-12-13 15:37:36.000,-0.165105,3.81386,5.25972,-0.336042,-0.154621,0.0308478,0
2024-12-13 15:37:36.003,-0.145962,3.833,5.28365,-0.353757,-0.150956,0.0277936,0
2024-12-13 15:37:36.005,-0.117248,3.86411,5.29322,-0.372082,-0.146069,0.0235176,0
2024-12-13 15:37:36.007,-0.0909273,3.89522,5.29801,-0.386132,-0.13935,0.0210742,0
2024-12-13 15:37:36.010,-0.0885344,3.90479,5.31715,-0.401403,-0.135684,0.0149658,0
2024-12-13 15:37:36.012,-0.081356,3.91914,5.34138,-0.419118,-0.133852,0.0106898,0
2024-12-13 15:37:36.014,-0.0933201,3.95743,5.37009,-0.436221,-0.131409,0.00763559,0
2024-12-13 15:37:36.017,-0.112463,3.98375,5.4012,-0.453325,-0.132019,0.00213797,0
2024-12-13 15:37:36.019,-0.105284,4.00529,5.43709,-0.470429,-0.133852,-0.00213797,0
2024-12-13 15:37:36.021,-0.100499,4.02443,5.47059,-0.488143,-0.135684,-0.0064139,0
2024-12-13 15:37:36.024,-0.11007,4.04836,5.51127,-0.504636,-0.138739,-0.0106898,0
2024-12-13 15:37:36.026,-0.124427,4.08186,5.5687,-0.523572,-0.144236,-0.0131332,0
2024-12-13 15:37:36.028,-0.133998,4.11057,5.63091,-0.541898,-0.149734,-0.0161875,0
2024-12-13 15:37:36.031,-0.129212,4.13689,5.68834,-0.562056,-0.155842,-0.0186308,0
2024-12-13 15:37:36.033,-0.133998,4.17518,5.74577,-0.580381,-0.163173,-0.0229068,0
2024-12-13 15:37:36.036,-0.133998,4.20897,5.80319,-0.60115,-0.168059,-0.0241285,0
2024-12-13 15:37:36.038,-0.136391,4.22812,5.87976,-0.620086,-0.173557,-0.0284044,0
2024-12-13 15:37:36.040,-0.124427,4.25922,5.96381,-0.638412,-0.179665,-0.0302369,0
2024-12-13 15:37:36.043,-0.114855,4.29751,6.03799,-0.65857,-0.184552,-0.0332912,0
2024-12-13 15:37:36.045,-0.105284,4.32622,6.10499,-0.678728,-0.187606,-0.0357346,0
2024-12-13 15:37:36.047,-0.0885344,4.34537,6.16002,-0.696442,-0.191272,-0.0393996,0
2024-12-13 15:37:36.050,-0.081356,4.36929,6.22941,-0.715989,-0.197991,-0.041843,0
2024-12-13 15:37:36.052,-0.0693919,4.39562,6.31077,-0.735536,-0.203488,-0.0448973,0
2024-12-13 15:37:36.054,-0.0789631,4.39801,6.3993,-0.757527,-0.208375,-0.0497841,0
2024-12-13 15:37:36.057,-0.117248,4.4004,6.49053,-0.777685,-0.21876,-0.0546708,0
2024-12-13 15:37:36.059,-0.150748,4.40279,6.58624,-0.798454,-0.227922,-0.0589468,0
2024-12-13 15:37:36.061,-0.16989,4.39322,6.68435,-0.819223,-0.237085,-0.0626118,0
2024-12-13 15:37:36.064,-0.208176,4.40279,6.8016,-0.839991,-0.244415,-0.0674986,0
2024-12-13 15:37:36.066,-0.265603,4.41476,6.94038,-0.861982,-0.2548,-0.0687203,0
2024-12-13 15:37:36.069,-0.318545,4.42911,7.08186,-0.879696,-0.26213,-0.0711637,0
2024-12-13 15:37:36.071,-0.354437,4.43869,7.22543,-0.898022,-0.268238,-0.0711637,0
2024-12-13 15:37:36.073,-0.385544,4.42433,7.38096,-0.916958,-0.275568,-0.0717745,0
2024-12-13 15:37:36.076,-0.414257,4.41954,7.54367,-0.931618,-0.282899,-0.0693312,0
2024-12-13 15:37:36.080,-0.409472,4.43629,7.91725,-0.959717,-0.289007,-0.0681095,0
2024-12-13 15:37:36.081,-0.409472,4.43629,7.91725,-0.970713,-0.289007,-0.0674986,0
2024-12-13 15:37:36.083,-0.392722,4.45783,8.09911,-0.970713,-0.289007,-0.0674986,0
2024-12-13 15:37:36.085,-0.359223,4.47936,8.28365,-0.978043,-0.285342,-0.0668878,0
2024-12-13 15:37:36.090,-0.318545,4.49133,8.65215,-0.990871,-0.273736,-0.0674986,0
2024-12-13 15:37:36.090,-0.318545,4.49133,8.65215,-0.990871,-0.273736,-0.0674986,0
2024-12-13 15:37:36.092,-0.27996,4.50808,8.83669,-0.992703,-0.262741,-0.0687203,0
2024-12-13 15:37:36.094,-0.248854,4.52243,9.0353,-0.992703,-0.248691,-0.0674986,0
2024-12-13 15:37:36.097,-0.200997,4.53201,9.23151,-0.995147,-0.235253,-0.0674986,0
2024-12-13 15:37:36.099,-0.143569,4.55833,9.42323,-0.992703,-0.220592,-0.0693312,0
2024-12-13 15:37:36.102,-0.0909273,4.57508,9.60509,-0.987206,-0.201656,-0.0705529,0
2024-12-13 15:37:36.104,-0.0382852,4.58704,9.77737,-0.98293,-0.184552,-0.0742179,0
2024-12-13 15:37:36.106,0.0215354,4.59901,9.95474,-0.98293,-0.184552,-0.0742179,0
2024-12-13 15:37:36.109,0.0646062,4.60379,10.1342,-0.974989,-0.147901,-0.0803264,0
2024-12-13 15:37:36.111,0.0909273,4.61097,10.273,-0.965215,-0.128354,-0.082159,0
2024-12-13 15:37:36.113,0.117248,4.62533,10.4216,-0.962772,-0.11064,-0.0870457,0
2024-12-13 15:37:36.116,0.143569,4.65404,10.5844,-0.956663,-0.0953685,-0.0931542,0
2024-12-13 15:37:36.118,0.157926,4.68754,10.704,-0.949944,-0.0819299,-0.0974301,0
2024-12-13 15:37:36.120,0.155533,4.72582,10.8188,-0.942614,-0.0684913,-0.100484,0
2024-12-13 15:37:36.123,0.153141,4.75215,10.9361,-0.94017,-0.0593285,-0.105371,0
2024-12-13 15:37:36.125,0.145962,4.79073,11.0656,-0.934062,-0.0513875,-0.11148,0
2024-12-13 15:37:36.127,0.136391,4.84098,11.1852,-0.927953,-0.0458899,-0.116366,0
2024-12-13 15:37:36.132,0.117248,4.92473,11.4054,-0.917569,-0.0397814,-0.129805,0
2024-12-13 15:37:36.132,0.117248,4.92473,11.4054,-0.917569,-0.0397814,-0.129805,0
2024-12-13 15:37:36.134,0.0981057,4.9678,11.5134,-0.913904,-0.041614,-0.137135,0
2024-12-13 15:37:36.137,0.102891,5.00848,11.6474,-0.907795,-0.0465007,-0.142633,0
2024-12-13 15:37:36.139,0.107677,5.05873,11.767,-0.899854,-0.0489441,-0.150574,0
2024-12-13 15:37:36.142,0.107677,5.10898,11.8795,-0.893135,-0.0593285,-0.157904,0
2024-12-13 15:37:36.144,0.107677,5.1688,12.0111,-0.890081,-0.0715455,-0.167067,0
2024-12-13 15:37:36.146,0.12682,5.22862,12.1358,-0.880307,-0.085595,-0.179895,0
2024-12-13 15:37:36.149,0.160319,5.27647,12.2507,-0.872366,-0.10392,-0.189668,0
2024-12-13 15:37:36.151,0.189033,5.32433,12.3559,-0.866869,-0.125911,-0.201274,0
2024-12-13 15:37:36.153,0.205783,5.36291,12.4493,-0.857095,-0.144847,-0.213491,0
2024-12-13 15:37:36.156,0.208176,5.40359,12.5641,-0.849765,-0.172946,-0.226319,0
2024-12-13 15:37:36.158,0.217747,5.45863,12.6936,-0.840602,-0.201045,-0.240368,0
2024-12-13 15:37:36.160,0.234497,5.50648,12.8276,-0.83205,-0.229755,-0.255029,0
2024-12-13 15:37:36.163,0.239282,5.54238,12.9568,-0.818001,-0.257243,-0.269689,0
2024-12-13 15:37:36.165,0.241675,5.57109,13.0884,-0.809449,-0.285953,-0.283739,0
2024-12-13 15:37:36.167,0.234497,5.60937,13.2419,-0.799065,-0.318328,-0.296566,0
2024-12-13 15:37:36.170,0.246461,5.65484,13.3807,-0.786237,-0.347038,-0.313059,0
2024-12-13 15:37:36.172,0.275175,5.68834,13.5194,-0.772187,-0.376969,-0.325887,0
2024-12-13 15:37:36.175,0.311366,5.72662,13.6678,-0.758138,-0.403846,-0.338715,0
2024-12-13 15:37:36.177,0.352044,5.7673,13.8093,-0.741645,-0.430724,-0.352764,0
2024-12-13 15:37:36.180,0.411865,5.79123,13.96,-0.704994,-0.475926,-0.377809,0
2024-12-13 15:37:36.182,0.4669,5.80798,14.0821,-0.704994,-0.475926,-0.377809,0
2024-12-13 15:37:36.184,0.519542,5.81755,14.2065,-0.684836,-0.495473,-0.391859,0
2024-12-13 15:37:36.186,0.579362,5.82712,14.3432,-0.661624,-0.511966,-0.402854,0
2024-12-13 15:37:36.189,0.627219,5.84148,14.4676,-0.639023,-0.523572,-0.417514,0
2024-12-13 15:37:36.191,0.677468,5.85344,14.5968,-0.6152,-0.532124,-0.431564,0
2024-12-13 15:37:36.193,0.703789,5.86541,14.7141,-0.587101,-0.532735,-0.445002,0
2024-12-13 15:37:36.196,0.720539,5.87737,14.8409,-0.560223,-0.533957,-0.452943,0
2024-12-13 15:37:36.198,0.694218,5.96142,14.9106,-0.528459,-0.527848,-0.463328,0
2024-12-13 15:37:36.200,0.562612,6.10499,14.8385,-0.500971,-0.503415,-0.469436,0
2024-12-13 15:37:36.203,0.498006,6.17438,14.8843,-0.473483,-0.477759,-0.470658,0
2024-12-13 15:37:36.205,0.565005,6.13609,15.0853,-0.443551,-0.46432,-0.473101,0
2024-12-13 15:37:36.207,0.646361,6.05474,15.2623,-0.413009,-0.463709,-0.47921,0
2024-12-13 15:37:36.212,0.768395,5.94945,15.4274,-0.351314,-0.474705,-0.498757,0
2024-12-13 15:37:36.212,0.924228,5.80559,15.5761,-0.351314,-0.474705,-0.498757,0
2024-12-13 15:37:36.215,1.07258,5.69312,15.6455,-0.314052,-0.479591,-0.514028,0
2024-12-13 15:37:36.217,1.18744,5.67637,15.6215,-0.278012,-0.472872,-0.52991,0
2024-12-13 15:37:36.219,1.25683,5.72662,15.5833,-0.240139,-0.455768,-0.550679,0
2024-12-13 15:37:36.222,1.28554,5.81755,15.5474,-0.203488,-0.430113,-0.567172,0
2024-12-13 15:37:36.224,1.28076,5.93988,15.4923,-0.165616,-0.402014,-0.582443,0
2024-12-13 15:37:36.226,1.24008,6.06192,15.425,-0.129576,-0.372082,-0.595271,0
2024-12-13 15:37:36.231,1.10369,6.28445,15.2839,-0.0642153,-0.319549,-0.619094,0
2024-12-13 15:37:36.231,1.10369,6.28445,15.2839,-0.0642153,-0.319549,-0.619094,0
2024-12-13 15:37:36.233,1.02951,6.37059,15.2001,-0.037338,-0.297559,-0.627035,0
2024-12-13 15:37:36.236,0.984048,6.44477,15.114,-0.0129041,-0.281677,-0.634365,0
2024-12-13 15:37:36.238,0.945763,6.49292,15.0541,0.00908635,-0.273125,-0.636808,0
2024-12-13 15:37:36.241,0.912264,6.51685,14.9871,0.0268009,-0.262741,-0.639252,0
2024-12-13 15:37:36.245,0.902692,6.54557,14.8624,0.0432938,-0.257854,-0.642306,0
2024-12-13 15:37:36.245,0.902692,6.54557,14.8624,0.0432938,-0.257854,-0.642306,0
2024-12-13 15:37:36.248,0.897907,6.55274,14.8313,0.0634518,-0.254189,-0.646582,0
2024-12-13 15:37:36.250,0.895514,6.54557,14.8122,0.0707819,-0.253578,-0.646582,0
2024-12-13 15:37:36.252,0.888335,6.51207,14.8385,0.0707819,-0.253578,-0.646582,0
2024-12-13 15:37:36.255,0.873978,6.48096,14.8696,0.0775012,-0.257854,-0.651469,0
2024-12-13 15:37:36.257,0.859622,6.45464,14.9178,0.0793338,-0.256632,-0.654523,0
2024-12-13 15:37:36.259,0.8668,6.40888,14.9943,0.0817772,-0.257243,-0.655745,0
2024-12-13 15:37:36.262,0.878764,6.35863,15.0781,0.0817772,-0.257854,-0.656966,0
2024-12-13 15:37:36.264,0.897907,6.30598,15.1714,0.082388,-0.256632,-0.658188,0
2024-12-13 15:37:36.266,0.907478,6.22941,15.2839,0.0805555,-0.2548,-0.658799,0
2024-12-13 15:37:36.269,0.912264,6.13849,15.4202,0.0817772,-0.24808,-0.66002,0
2024-12-13 15:37:36.271,0.921835,6.04995,15.5498,0.082388,-0.24075,-0.661853,0
2024-12-13 15:37:36.273,0.936192,5.9686,15.6933,0.0842206,-0.228533,-0.660631,0
2024-12-13 15:37:36.276,0.955334,5.87258,15.8752,0.086664,-0.212651,-0.661853,0
2024-12-13 15:37:36.278,0.957727,5.75294,16.0789,0.0915507,-0.192493,-0.65941,0
2024-12-13 15:37:36.283,0.948156,5.47777,16.445,0.111098,-0.138739,-0.656966,0
2024-12-13 15:37:36.283,0.948156,5.47777,16.445,0.111098,-0.138739,-0.656966,0
2024-12-13 15:37:36.285,0.950549,5.3342,16.6223,0.125147,-0.102699,-0.654523,0
2024-12-13 15:37:36.288,0.957727,5.19033,16.7851,0.142251,-0.0629936,-0.650858,0
2024-12-13 15:37:36.290,0.933799,5.0348,16.9238,0.160576,-0.0202343,-0.64536,0
2024-12-13 15:37:36.292,0.897907,4.88166,17.065,0.186843,0.0249684,-0.640473,0
2024-12-13 15:37:36.295,0.881157,4.733,17.1969,0.214331,0.074447,-0.636197,0
2024-12-13 15:37:36.297,0.869193,4.58465,17.3094,0.244263,0.122093,-0.629478,0
2024-12-13 15:37:36.299,0.830609,4.41715,17.4003,0.276027,0.169739,-0.622148,0
2024-12-13 15:37:36.302,0.768395,4.25444,17.4458,0.315121,0.22105,-0.614818,0
2024-12-13 15:37:36.306,0.701396,3.96461,17.4817,0.395829,0.313899,-0.596492,3
2024-12-13 15:37:36.306,0.701396,3.96461,17.4817,0.395829,0.313899,-0.596492,3
2024-12-13 15:37:36.309,0.684646,3.81625,17.4314,0.441032,0.357269,-0.58733,0
2024-12-13 15:37:36.311,0.672682,3.65354,17.3548,0.485624,0.394531,-0.579389,0
2024-12-13 15:37:36.313,0.682254,3.49532,17.24,0.532659,0.429349,-0.574502,0
2024-12-13 15:37:36.316,0.699003,3.38046,17.0818,0.578472,0.460502,-0.567783,0
2024-12-13 15:37:36.321,0.766002,3.23689,16.8568,0.670099,0.510592,-0.562285,0
2024-12-13 15:37:36.321,0.897907,3.04995,16.6223,0.670099,0.510592,-0.562285,0
2024-12-13 15:37:36.325,0.881157,2.78435,16.1698,0.765392,0.541745,-0.570837,0
2024-12-13 15:37:36.325,0.881157,2.78435,16.1698,0.765392,0.541745,-0.570837,0
2024-12-13 15:37:36.328,0.84018,2.69581,15.9111,0.808151,0.544799,-0.579999,0
2024-12-13 15:37:36.330,0.85005,2.60728,15.6479,0.853964,0.541745,-0.586108,0
2024-12-13 15:37:36.332,0.871586,2.5331,15.37,0.902221,0.529528,-0.595271,0
2024-12-13 15:37:36.335,0.862014,2.48495,15.0733,0.946202,0.51609,-0.604433,0
2024-12-13 15:37:36.337,0.845265,2.44427,14.75,0.993849,0.498986,-0.613596,0
2024-12-13 15:37:36.339,0.828216,2.40359,14.3862,1.03844,0.481882,-0.622759,0
2024-12-13 15:37:36.342,0.80668,2.35573,13.9959,1.08059,0.467833,-0.632532,0
2024-12-13 15:37:36.344,0.811466,2.30548,13.596,1.12213,0.452561,-0.638641,0
2024-12-13 15:37:36.346,0.833001,2.24806,13.1892,1.1655,0.434236,-0.647193,0
2024-12-13 15:37:36.349,0.857229,2.18584,12.7654,1.20398,0.415911,-0.656355,0
2024-12-13 15:37:36.351,0.890728,2.11167,12.3344,1.24185,0.394531,-0.66674,0
2024-12-13 15:37:36.354,0.938585,2.03031,11.901,1.27667,0.371319,-0.678957,0
2024-12-13 15:37:36.356,1.00558,1.95105,11.4604,1.30905,0.345052,-0.694228,0
2024-12-13 15:37:36.358,1.05105,1.87208,11.0034,1.33837,0.318175,-0.711332,0
2024-12-13 15:37:36.361,1.08215,1.80509,10.5389,1.36524,0.283968,-0.727825,0
2024-12-13 15:37:36.363,1.11087,1.75005,10.0983,1.38601,0.250371,-0.749204,0
2024-12-13 15:37:36.365,1.12522,1.71416,9.69362,1.40128,0.212498,-0.769362,0
2024-12-13 15:37:36.368,1.11565,1.68544,9.29881,1.41594,0.170961,-0.791963,0
2024-12-13 15:37:36.370,1.11087,1.67587,8.91087,1.42572,0.125758,-0.813343,0
2024-12-13 15:37:36.372,1.11087,1.67109,8.54686,1.43183,0.0768904,-0.835334,0
2024-12-13 15:37:36.375,1.09173,1.67587,8.20948,1.43183,0.0261901,-0.856102,0
2024-12-13 15:37:36.377,1.05344,1.69502,7.90289,1.43244,-0.0263428,-0.879315,0
2024-12-13 15:37:36.379,1.0008,1.70219,7.61815,1.42755,-0.0758214,-0.898251,0
2024-12-13 15:37:36.382,0.957727,1.71177,7.37139,1.42022,-0.130187,-0.915965,0
2024-12-13 15:37:36.384,0.914656,1.74287,7.14646,1.41167,-0.184552,-0.93368,0
2024-12-13 15:37:36.386,0.88355,1.78116,6.94038,1.40006,-0.237085,-0.945897,0
2024-12-13 15:37:36.389,0.897907,1.81226,6.75613,1.38968,-0.288396,-0.961168,0
2024-12-13 15:37:36.391,0.907478,1.85533,6.57667,1.37441,-0.337875,-0.973996,0
2024-12-13 15:37:36.394,0.864407,1.89841,6.38973,1.35791,-0.382467,-0.984991,0
2024-12-13 15:37:36.396,0.830609,1.92951,6.22224,1.33898,-0.424004,-0.9911,0
2024-12-13 15:37:36.398,0.857229,1.96062,6.1002,1.32187,-0.458823,-1.00026,0
2024-12-13 15:37:36.401,0.895514,1.98006,5.98056,1.30416,-0.490587,-1.00515,0
2024-12-13 15:37:36.403,0.917049,2.00399,5.85344,1.28217,-0.518686,-1.01309,0
2024-12-13 15:37:36.405,0.94337,2.0351,5.76491,1.25896,-0.538844,-1.01492,0
2024-12-13 15:37:36.408,0.912264,2.05185,5.69552,1.23635,-0.556558,-1.01614,0
2024-12-13 15:37:36.410,0.833001,2.0686,5.60937,1.21559,-0.565721,-1.01798,0
2024-12-13 15:37:36.415,0.893121,2.07577,5.45384,1.16977,-0.573662,-1.01004,0
2024-12-13 15:37:36.415,0.893121,2.07577,5.45384,1.16977,-0.573662,-1.01004,0
2024-12-13 15:37:36.417,0.97687,2.09252,5.4347,1.14595,-0.57244,-1.00637,0
2024-12-13 15:37:36.419,1.04865,2.10927,5.42273,1.12396,-0.569386,-1.00148,0
2024-12-13 15:37:36.423,1.11326,2.12842,5.39881,1.08059,-0.547396,-0.988656,0
2024-12-13 15:37:36.424,1.17069,2.1667,5.36291,1.08059,-0.547396,-0.988656,0
2024-12-13 15:37:36.427,1.22333,2.21695,5.35095,1.05738,-0.532735,-0.981937,0
2024-12-13 15:37:36.429,1.27358,2.24327,5.32911,1.03783,-0.511356,-0.974607,0
2024-12-13 15:37:36.431,1.30708,2.26481,5.28604,1.01767,-0.483257,-0.965444,0
2024-12-13 15:37:36.434,1.31426,2.29591,5.26451,0.999346,-0.452714,-0.956892,0
2024-12-13 15:37:36.436,1.33101,2.31984,5.24776,0.979799,-0.419118,-0.944675,0
2024-12-13 15:37:36.438,1.34536,2.3342,5.21426,0.961474,-0.38491,-0.931848,0
2024-12-13 15:37:36.441,1.34058,2.34138,5.1664,0.942537,-0.351924,-0.918409,0
2024-12-13 15:37:36.443,1.33579,2.35095,5.13051,0.922379,-0.314663,-0.903138,0
2024-12-13 15:37:36.445,1.31186,2.35095,5.10419,0.904054,-0.280455,-0.886645,0
2024-12-13 15:37:36.448,1.26401,2.34616,5.07548,0.884507,-0.248691,-0.867098,0
2024-12-13 15:37:36.450,1.2018,2.36052,5.03001,0.862516,-0.216316,-0.844496,0
2024-12-13 15:37:36.452,1.15155,2.37727,4.98694,0.842358,-0.183941,-0.820062,0
2024-12-13 15:37:36.455,1.1013,2.38684,4.94148,0.8222,-0.153399,-0.795018,0
2024-12-13 15:37:36.457,1.04626,2.3988,4.89362,0.799599,-0.127133,-0.766308,0
2024-12-13 15:37:36.459,1.01755,2.42513,4.85294,0.775776,-0.102088,-0.736376,0
2024-12-13 15:37:36.462,1.00319,2.44905,4.80987,0.751342,-0.0807082,-0.705834,0
2024-12-13 15:37:36.464,0.969691,2.48016,4.7689,0.728741,-0.0593285,-0.674681,0
2024-12-13 15:37:36.467,0.931406,2.52323,4.71625,0.701253,-0.0410031,-0.642306,0
2024-12-13 15:37:36.469,0.893121,2.56182,4.6684,0.676819,-0.0251211,-0.608098,0
2024-12-13 15:37:36.471,0.828216,2.6001,4.63011,0.650552,-0.0110716,-0.572058,0
2024-12-13 15:37:36.474,0.749253,2.63599,4.58465,0.622453,0.000534491,-0.53724,0
2024-12-13 15:37:36.476,0.675075,2.68385,4.5344,0.590689,0.0096972,-0.501811,0
2024-12-13 15:37:36.481,0.536291,2.77717,4.45544,0.530826,0.0200816,-0.425455,0
2024-12-13 15:37:36.481,0.536291,2.77717,4.45544,0.530826,0.0200816,-0.425455,0
2024-12-13 15:37:36.483,0.488435,2.82503,4.42672,0.497841,0.0231358,-0.386361,0
2024-12-13 15:37:36.485,0.438186,2.85374,4.4004,0.464855,0.022525,-0.350321,0
2024-12-13 15:37:36.488,0.385544,2.89442,4.3669,0.430036,0.0219141,-0.313059,0
2024-12-13 15:37:36.490,0.342473,2.95663,4.36212,0.395218,0.0176382,-0.278241,0
2024-12-13 15:37:36.492,0.32333,2.99013,4.37408,0.363378,0.0133623,-0.246477,0
2024-12-13 15:37:36.495,0.316152,3.02363,4.37169,0.332225,0.00725381,-0.216545,0
2024-12-13 15:37:36.497,0.297009,3.05952,4.3669,0.298628,0.000534491,-0.187836,0
2024-12-13 15:37:36.500,0.267996,3.07627,4.36929,0.267475,-0.00557398,-0.160958,0
2024-12-13 15:37:36.502,0.241675,3.09093,4.37169,0.2351,-0.0122933,-0.136524,0
2024-12-13 15:37:36.504,0.196211,3.09811,4.39322,0.208223,-0.0196235,-0.11148,0
2024-12-13 15:37:36.507,0.148355,3.10529,4.4004,0.182567,-0.029397,-0.0882674,0
2024-12-13 15:37:36.509,0.112463,3.10768,4.40279,0.157522,-0.0342838,-0.0668878,0
2024-12-13 15:37:36.511,0.066999,3.08854,4.41715,0.130034,-0.041614,-0.0455081,0
2024-12-13 15:37:36.514,0.0311067,3.07627,4.44347,0.107433,-0.0507767,-0.025961,0
2024-12-13 15:37:36.516,0.00478565,3.05952,4.47458,0.0848314,-0.0605502,-0.00824644,0
2024-12-13 15:37:36.518,-0.0358923,3.04995,4.53918,0.0628409,-0.0758214,0.00763559,0
2024-12-13 15:37:36.521,-0.081356,3.02602,4.60379,0.046348,-0.093536,0.0204634,0
2024-12-13 15:37:36.523,-0.12682,3.01406,4.63968,0.0316877,-0.11064,0.0351237,0
2024-12-13 15:37:36.528,-0.148355,3.02602,4.68754,0.00297788,-0.140571,0.0650552,0
2024-12-13 15:37:36.528,-0.160319,3.02602,4.68754,0.00297788,-0.140571,0.0650552,0
2024-12-13 15:37:36.530,-0.191426,3.02363,4.69711,-0.0104608,-0.15401,0.0772722,0
2024-12-13 15:37:36.532,-0.217747,3.02602,4.70429,-0.0220669,-0.166838,0.0894891,0
2024-12-13 15:37:36.535,-0.239282,3.02124,4.70907,-0.0220669,-0.166838,0.0894891,0
2024-12-13 15:37:36.538,-0.246461,3.01645,4.71386,-0.0458899,-0.194326,0.124918,0
2024-12-13 15:37:36.540,-0.229711,3.01645,4.71865,-0.0458899,-0.194326,0.124918,0
2024-12-13 15:37:36.542,-0.227318,3.01884,4.7354,-0.0556635,-0.202267,0.132248,0
2024-12-13 15:37:36.544,-0.239282,3.04756,4.7665,-0.0629936,-0.213873,0.139655,0
2024-12-13 15:37:36.547,-0.232104,3.07627,4.78594,-0.0697129,-0.224257,0.146985,0
2024-12-13 15:37:36.549,-0.244068,3.09093,4.80509,-0.0764323,-0.235253,0.154315,0
2024-12-13 15:37:36.551,-0.27996,3.10768,4.82423,-0.0837624,-0.249913,0.159202,0
2024-12-13 15:37:36.554,-0.316152,3.12682,4.82184,-0.0929251,-0.267017,0.165311,0
2024-12-13 15:37:36.556,-0.34008,3.14596,4.82902,-0.10331,-0.282899,0.168976,0
2024-12-13 15:37:36.558,-0.361615,3.17228,4.85294,-0.113083,-0.299392,0.175084,0
2024-12-13 15:37:36.561,-0.387936,3.20339,4.87687,-0.121635,-0.316495,0.181193,0
2024-12-13 15:37:36.563,-0.409472,3.22253,4.89601,-0.130187,-0.333599,0.185468,0
2024-12-13 15:37:36.565,-0.419043,3.2345,4.92712,-0.141793,-0.354368,0.19402,0
2024-12-13 15:37:36.568,-0.41665,3.23928,4.96301,-0.153399,-0.374526,0.199518,0
2024-12-13 15:37:36.570,-0.392722,3.24885,4.98216,-0.162562,-0.391629,0.205016,0
2024-12-13 15:37:36.573,-0.364008,3.26321,5.01805,-0.17539,-0.410566,0.209902,0
2024-12-13 15:37:36.575,-0.354437,3.29193,5.0659,-0.183941,-0.42828,0.216622,0
2024-12-13 15:37:36.577,-0.344866,3.34935,5.10898,-0.196769,-0.447217,0.220287,0
2024-12-13 15:37:36.580,-0.297009,3.38525,5.14487,-0.208986,-0.463099,0.224563,0
2024-12-13 15:37:36.582,-0.222533,3.38764,5.18794,-0.208986,-0.463099,0.224563,0
2024-12-13 15:37:36.584,-0.181855,3.38764,5.24537,-0.230366,-0.489976,0.23006,0
2024-12-13 15:37:36.587,-0.145962,3.39003,5.29083,-0.242583,-0.505247,0.232504,0
2024-12-13 15:37:36.589,-0.0933201,3.38525,5.33181,-0.252356,-0.515021,0.232504,0
2024-12-13 15:37:36.591,-0.0358923,3.39003,5.37488,-0.260908,-0.526016,0.232504,0
2024-12-13 15:37:36.596,0.0765703,3.39003,5.45384,-0.285342,-0.539454,0.228839,0
2024-12-13 15:37:36.596,0.0765703,3.39003,5.45384,-0.285342,-0.539454,0.228839,0
2024-12-13 15:37:36.598,0.148355,3.38525,5.50409,-0.296948,-0.548617,0.223341,0
2024-12-13 15:37:36.601,0.191426,3.39721,5.53998,-0.304889,-0.551061,0.219065,0
2024-12-13 15:37:36.603,0.224925,3.3996,5.57348,-0.313441,-0.552893,0.213567,0
2024-12-13 15:37:36.606,0.260818,3.3996,5.61416,-0.324436,-0.552282,0.208681,0
2024-12-13 15:37:36.608,0.289831,3.40678,5.6692,-0.332988,-0.549228,0.202572,0
2024-12-13 15:37:36.610,0.320937,3.402,5.72902,-0.338486,-0.548006,0.19402,0
2024-12-13 15:37:36.613,0.337687,3.40917,5.77687,-0.347648,-0.544952,0.18669,0
2024-12-13 15:37:36.615,0.328116,3.4331,5.81755,-0.354979,-0.540065,0.178749,0
2024-12-13 15:37:36.617,0.328116,3.44507,5.85584,-0.361698,-0.534568,0.168365,0
2024-12-13 15:37:36.620,0.354437,3.44507,5.89921,-0.37025,-0.524794,0.15737,0
2024-12-13 15:37:36.622,0.392722,3.45703,5.95185,-0.376969,-0.511356,0.147596,0
2024-12-13 15:37:36.624,0.431007,3.47617,6.02124,-0.383078,-0.502193,0.137212,0
