timestamp,accel_x,accel_y,accel_z,gyro_x,gyro_y,gyro_z,step_timestamp
2024-12-13 15:38:28.314,0.0957129,4.09861,9.2339,-0.0342838,-0.0410031,-0.0351237,0
2024-12-13 15:38:28.314,0.0957129,4.09861,9.2339,-0.0342838,-0.0410031,-0.0351237,0
2024-12-13 15:38:28.314,0.0957129,4.09861,9.2339,-0.0342838,-0.0410031,-0.0351237,0
2024-12-13 15:38:28.314,0.0957129,4.09861,9.2339,-0.0342838,-0.0410031,-0.0351237,0
2024-12-13 15:38:28.314,0.0957129,4.09861,9.2339,-0.0342838,-0.0410031,-0.0351237,0
2024-12-13 15:38:28.314,0.0957129,4.09861,9.2339,-0.0342838,-0.0410031,-0.0351237,0
2024-12-13 15:38:28.314,0.0957129,4.09861,9.2339,-0.0342838,-0.0410031,-0.0351237,0
2024-12-13 15:38:28.314,0.0957129,4.09861,9.2339,-0.0342838,-0.0410031,-0.0351237,0
2024-12-13 15:38:28.314,0.0957129,4.09861,9.2339,-0.0342838,-0.0410031,-0.0351237,0
2024-12-13 15:38:28.314,0.0957129,4.09861,9.2339,-0.0342838,-0.0410031,-0.0351237,0
2024-12-13 15:38:28.314,0.0957129,4.09861,9.2339,-0.0342838,-0.0410031,-0.0351237,0
2024-12-13 15:38:28.314,0.0957129,4.09861,9.2339,-0.0342838,-0.0410031,-0.0351237,0
2024-12-13 15:38:28.314,0.0957129,4.09861,9.2339,-0.0342838,-0.0410031,-0.0351237,0
2024-12-13 15:38:28.314,0.0957129,4.09861,9.2339,-0.0342838,-0.0410031,-0.0351237,0
2024-12-13 15:38:28.314,0.0957129,4.09861,9.2339,-0.0342838,-0.0410031,-0.0351237,0
2024-12-13 15:38:28.314,0.0957129,4.09861,9.2339,-0.0342838,-0.0410031,-0.0351237,0
2024-12-13 15:38:28.314,0.0957129,4.09861,9.2339,-0.0342838,-0.0410031,-0.0351237,0
2024-12-13 15:38:28.314,0.0957129,4.09861,9.2339,-0.0342838,-0.0410031,-0.0351237,0
2024-12-13 15:38:28.314,0.0957129,4.09861,9.2339,-0.0342838,-0.0410031,-0.0351237,0
2024-12-13 15:38:28.314,0.0957129,4.09861,9.2339,-0.0342838,-0.0410031,-0.0351237,0
2024-12-13 15:38:28.314,0.0957129,4.09861,9.2339,-0.0342838,-0.0410031,-0.0351237,0
2024-12-13 15:38:28.314,0.0957129,4.09861,9.2339,-0.0342838,-0.0410031,-0.0351237,0
2024-12-13 15:38:28.314,0.0957129,4.09861,9.2339,-0.0342838,-0.0410031,-0.0351237,0
2024-12-13 15:38:28.314,0.0957129,4.09861,9.2339,-0.0342838,-0.0410031,-0.0351237,0
2024-12-13 15:38:28.314,0.0957129,4.09861,9.2339,-0.0342838,-0.0410031,-0.0351237,0
2024-12-13 15:38:28.314,0.0957129,4.09861,9.2339,-0.0342838,-0.0410031,-0.0351237,0
2024-12-13 15:38:28.314,0.0957129,4.09861,9.2339,-0.0342838,-0.0410031,-0.0351237,0
2024-12-13 15:38:28.314,0.0957129,4.09861,9.2339,-0.0342838,-0.0410031,-0.0351237,0
2024-12-13 15:38:28.314,0.0957129,4.09861,9.2339,-0.0342838,-0.0410031,-0.0351237,0
2024-12-13 15:38:28.314,0.0957129,4.09861,9.2339,-0.0342838,-0.0410031,-0.0351237,0
2024-12-13 15:38:28.314,0.0957129,4.09861,9.2339,-0.0342838,-0.0410031,-0.0351237,0
2024-12-13 15:38:28.314,0.0957129,4.09861,9.2339,-0.0342838,-0.0410031,-0.0351237,0
2024-12-13 15:38:28.314,0.0957129,4.09861,9.2339,-0.0342838,-0.0410031,-0.0351237,0
2024-12-13 15:38:28.314,0.0957129,4.09861,9.2339,-0.0342838,-0.0410031,-0.0351237,0
2024-12-13 15:38:28.314,0.0957129,4.09861,9.2339,-0.0342838,-0.0410031,-0.0351237,0
2024-12-13 15:38:28.314,0.0957129,4.09861,9.2339,-0.0342838,-0.0410031,-0.0351237,0
2024-12-13 15:38:28.314,0.0957129,4.09861,9.2339,-0.0342838,-0.0410031,-0.0351237,0
2024-12-13 15:38:28.314,0.0957129,4.09861,9.2339,-0.0342838,-0.0410031,-0.0351237,0
2024-12-13 15:38:28.314,0.0957129,4.09861,9.2339,-0.0342838,-0.0410031,-0.0351237,0
2024-12-13 15:38:28.314,0.0957129,4.09861,9.2339,-0.0342838,-0.0410031,-0.0351237,0
2024-12-13 15:38:28.314,0.0957129,4.09861,9.2339,-0.0342838,-0.0410031,-0.0351237,0
2024-12-13 15:38:28.314,0.0957129,4.09861,9.2339,-0.0342838,-0.0410031,-0.0351237,0
2024-12-13 15:38:28.314,0.0957129,4.09861,9.2339,-0.0342838,-0.0410031,-0.0351237,0
2024-12-13 15:38:28.314,0.0957129,4.09861,9.2339,-0.0342838,-0.0410031,-0.0351237,0
2024-12-13 15:38:28.314,0.0957129,4.09861,9.2339,-0.0342838,-0.0410031,-0.0351237,0
2024-12-13 15:38:28.314,0.0957129,4.09861,9.2339,-0.0342838,-0.0410031,-0.0351237,0
2024-12-13 15:38:28.314,0.0957129,4.09861,9.2339,-0.0342838,-0.0410031,-0.0351237,0
2024-12-13 15:38:28.314,0.0957129,4.09861,9.2339,-0.0342838,-0.0410031,-0.0351237,0
2024-12-13 15:38:28.314,0.0957129,4.09861,9.2339,-0.0342838,-0.0410031,-0.0351237,0
2024-12-13 15:38:28.314,0.0957129,4.09861,9.2339,-0.0342838,-0.0410031,-0.0351237,0
2024-12-13 15:38:28.314,0.0957129,4.09861,9.2339,-0.0342838,-0.0410031,-0.0351237,0
2024-12-13 15:38:28.314,0.0957129,4.09861,9.2339,-0.0342838,-0.0410031,-0.0351237,0
2024-12-13 15:38:28.314,0.0957129,4.09861,9.2339,-0.0342838,-0.0410031,-0.0351237,0
2024-12-13 15:38:28.314,0.0957129,4.09861,9.2339,-0.0342838,-0.0410031,-0.0351237,0
2024-12-13 15:38:28.314,0.0957129,4.09861,9.2339,-0.0342838,-0.0410031,-0.0351237,0
2024-12-13 15:38:28.314,0.0957129,4.09861,9.2339,-0.0342838,-0.0410031,-0.0351237,0
2024-12-13 15:38:28.314,0.0957129,4.09861,9.2339,-0.0342838,-0.0410031,-0.0351237,0
2024-12-13 15:38:28.314,0.0957129,4.09861,9.2339,-0.0342838,-0.0410031,-0.0351237,0
2024-12-13 15:38:28.314,0.0957129,4.09861,9.2339,-0.0342838,-0.0410031,-0.0351237,0
2024-12-13 15:38:28.314,0.0957129,4.09861,9.2339,-0.0342838,-0.0410031,-0.0351237,0
2024-12-13 15:38:28.314,0.0957129,4.09861,9.2339,-0.0342838,-0.0410031,-0.0351237,0
2024-12-13 15:38:28.314,0.0957129,4.09861,9.2339,-0.0342838,-0.0410031,-0.0351237,0
2024-12-13 15:38:28.314,0.0957129,4.09861,9.2339,-0.0342838,-0.0410031,-0.0351237,0
2024-12-13 15:38:28.314,0.0957129,4.09861,9.2339,-0.0342838,-0.0410031,-0.0351237,0
2024-12-13 15:38:28.321,0.0502493,4.10339,9.1693,-0.0342838,-0.0410031,-0.0351237,0
2024-12-13 15:38:28.330,0.0119641,4.09621,9.04965,-0.0184018,-0.0477224,-0.0284044,0
2024-12-13 15:38:28.337,0.0382852,4.101,8.95394,-0.0232886,-0.0825407,-0.0210742,0
2024-12-13 15:38:28.337,0.0478565,4.101,8.95394,-0.0232886,-0.0825407,-0.0210742,0
2024-12-13 15:38:28.337,0.0478565,4.101,8.95394,-0.0232886,-0.0825407,-0.0210742,0
2024-12-13 15:38:28.337,0.0478565,4.101,8.95394,-0.0232886,-0.0825407,-0.0210742,0
2024-12-13 15:38:28.337,0.0478565,4.101,8.95394,-0.0232886,-0.0825407,-0.0210742,0
2024-12-13 15:38:28.337,0.0478565,4.101,8.95394,-0.0232886,-0.0825407,-0.0210742,0
2024-12-13 15:38:28.337,0.0478565,4.101,8.95394,-0.0232886,-0.0825407,-0.0210742,0
2024-12-13 15:38:28.340,0.0550349,4.10578,8.93719,-0.0287862,-0.0874275,-0.0222959,0
2024-12-13 15:38:28.340,0.0550349,4.10578,8.93719,-0.0287862,-0.0874275,-0.0222959,0
2024-12-13 15:38:28.340,0.0550349,4.10578,8.93719,-0.0287862,-0.0874275,-0.0222959,0
2024-12-13 15:38:28.340,0.0550349,4.10578,8.93719,-0.0287862,-0.0874275,-0.0222959,0
2024-12-13 15:38:28.340,0.0550349,4.10578,8.93719,-0.0287862,-0.0874275,-0.0222959,0
2024-12-13 15:38:28.340,0.0550349,4.10578,8.93719,-0.0287862,-0.0874275,-0.0222959,0
2024-12-13 15:38:28.340,0.0550349,4.10578,8.93719,-0.0287862,-0.0874275,-0.0222959,0
2024-12-13 15:38:28.340,0.0550349,4.10578,8.93719,-0.0287862,-0.0874275,-0.0222959,0
2024-12-13 15:38:28.340,0.0550349,4.10578,8.93719,-0.0287862,-0.0874275,-0.0222959,0
2024-12-13 15:38:28.340,0.0550349,4.10578,8.93719,-0.0287862,-0.0874275,-0.0222959,0
2024-12-13 15:38:28.340,0.0550349,4.10578,8.93719,-0.0287862,-0.0874275,-0.0222959,0
2024-12-13 15:38:28.340,0.0550349,4.10578,8.93719,-0.0287862,-0.0874275,-0.0222959,0
2024-12-13 15:38:28.340,0.0550349,4.10578,8.93719,-0.0287862,-0.0874275,-0.0222959,0
2024-12-13 15:38:28.340,0.0550349,4.10578,8.93719,-0.0287862,-0.0874275,-0.0222959,0
2024-12-13 15:38:28.347,0.119641,4.08425,8.93719,-0.0391706,-0.100255,-0.0241285,0
2024-12-13 15:38:28.347,0.150748,4.08425,8.93719,-0.0391706,-0.100255,-0.0241285,0
2024-12-13 15:38:28.347,0.150748,4.08425,8.93719,-0.0391706,-0.100255,-0.0241285,0
2024-12-13 15:38:28.349,0.18664,4.06989,8.96351,-0.0434465,-0.107585,-0.0247393,0
2024-12-13 15:38:28.352,0.210568,4.07229,8.97548,-0.0477224,-0.107585,-0.0271827,0
2024-12-13 15:38:28.354,0.241675,4.05793,8.9683,-0.0501658,-0.111251,-0.0296261,0
2024-12-13 15:38:28.356,0.277567,4.03161,8.98505,-0.0519984,-0.111861,-0.033902,0
2024-12-13 15:38:28.359,0.308973,4.01725,9.01855,-0.0544418,-0.113083,-0.038178,0
2024-12-13 15:38:28.361,0.320937,4.00768,9.04248,-0.0562743,-0.114916,-0.0436756,0
2024-12-13 15:38:28.366,0.354437,3.98375,9.09512,-0.0550526,-0.111251,-0.05406,0
2024-12-13 15:38:28.366,0.354437,3.98375,9.09512,-0.0550526,-0.111251,-0.05406,0
2024-12-13 15:38:28.368,0.366401,3.97179,9.10469,-0.0568851,-0.111251,-0.0595576,0
2024-12-13 15:38:28.370,0.375972,3.94786,9.11665,-0.0556635,-0.109418,-0.0650552,0
2024-12-13 15:38:28.373,0.359223,3.92872,9.14058,-0.0550526,-0.106975,-0.0693312,0
2024-12-13 15:38:28.375,0.34008,3.92632,9.15973,-0.0538309,-0.105142,-0.0729962,0
2024-12-13 15:38:28.379,0.328116,3.91436,9.1693,-0.0519984,-0.101477,-0.0784939,0
2024-12-13 15:38:28.380,0.316152,3.90479,9.18126,-0.0519984,-0.101477,-0.0784939,0
2024-12-13 15:38:28.382,0.304188,3.9,9.19083,-0.049555,-0.100866,-0.0815481,0
2024-12-13 15:38:28.385,0.272782,3.9,9.2028,-0.0446682,-0.100255,-0.0815481,0
2024-12-13 15:38:28.387,0.248854,3.90239,9.19322,-0.0446682,-0.0990336,-0.0815481,0
2024-12-13 15:38:28.389,0.241675,3.9,9.18126,-0.0422248,-0.0978119,-0.082159,0
2024-12-13 15:38:28.392,0.241675,3.89522,9.18605,-0.0385597,-0.0984228,-0.0803264,0
2024-12-13 15:38:28.394,0.244068,3.88804,9.17408,-0.0348946,-0.0984228,-0.0797156,0
2024-12-13 15:38:28.396,0.248854,3.88086,9.15733,-0.0330621,-0.100866,-0.0797156,0
2024-12-13 15:38:28.401,0.260818,3.87847,9.1334,-0.0287862,-0.0996445,-0.0772722,0
2024-12-13 15:38:28.401,0.260818,3.87847,9.1334,-0.0287862,-0.0996445,-0.0772722,0
2024-12-13 15:38:28.403,0.267996,3.89282,9.10708,-0.0251211,-0.102699,-0.0736071,0
2024-12-13 15:38:28.408,0.30658,3.93111,9.07119,-0.0177909,-0.10392,-0.0681095,0
2024-12-13 15:38:28.408,0.30658,3.93111,9.07119,-0.0177909,-0.10392,-0.0681095,0
2024-12-13 15:38:28.410,0.330509,3.94068,9.04487,-0.0171801,-0.10331,-0.0656661,0
2024-12-13 15:38:28.413,0.354437,3.94068,9.01137,-0.0129041,-0.104531,-0.0644444,0
2024-12-13 15:38:28.415,0.383151,3.96461,8.97308,-0.0122933,-0.105142,-0.0644444,0
2024-12-13 15:38:28.418,0.407079,3.98136,8.94437,-0.013515,-0.106364,-0.0638335,0
2024-12-13 15:38:28.420,0.421436,3.99093,8.91566,-0.0147367,-0.108196,-0.0644444,0
2024-12-13 15:38:28.422,0.447757,4.01246,8.89651,-0.0159584,-0.109418,-0.0656661,0
2024-12-13 15:38:28.425,0.476471,4.01486,8.87976,-0.0171801,-0.11064,-0.0656661,0
2024-12-13 15:38:28.427,0.502792,4.01725,8.84148,-0.0165692,-0.112472,-0.0662769,0
2024-12-13 15:38:28.429,0.531506,4.04357,8.81516,-0.0171801,-0.112472,-0.0693312,0
2024-12-13 15:38:28.432,0.565005,4.05554,8.79123,-0.0184018,-0.114916,-0.0693312,0
2024-12-13 15:38:28.434,0.572184,4.06032,8.77687,-0.021456,-0.118581,-0.0736071,0
2024-12-13 15:38:28.436,0.588933,4.07946,8.75773,-0.0238994,-0.121635,-0.0760505,0
2024-12-13 15:38:28.439,0.608076,4.101,8.74816,-0.0263428,-0.127133,-0.0791047,0
2024-12-13 15:38:28.441,0.622433,4.11057,8.7338,-0.029397,-0.132019,-0.0839915,0
2024-12-13 15:38:28.443,0.651147,4.12971,8.70987,-0.0342838,-0.138739,-0.0846023,0
2024-12-13 15:38:28.446,0.684646,4.17039,8.71466,-0.0379489,-0.141793,-0.0925434,0
2024-12-13 15:38:28.448,0.701396,4.18953,8.71705,-0.0410031,-0.147901,-0.0968193,0
2024-12-13 15:38:28.451,0.691825,4.19671,8.7027,-0.0471116,-0.152177,-0.101706,0
2024-12-13 15:38:28.453,0.703789,4.20897,8.70509,-0.049555,-0.154621,-0.106593,0
2024-12-13 15:38:28.455,0.725324,4.21855,8.68325,-0.0519984,-0.155232,-0.11148,0
2024-12-13 15:38:28.458,0.739681,4.22333,8.66172,-0.0556635,-0.155842,-0.116366,0
2024-12-13 15:38:28.460,0.768395,4.23769,8.65454,-0.0587177,-0.160729,-0.122475,0
2024-12-13 15:38:28.462,0.821037,4.24008,8.64497,-0.0642153,-0.162562,-0.131027,0
2024-12-13 15:38:28.465,0.873978,4.2353,8.6354,-0.0697129,-0.165616,-0.138968,0
2024-12-13 15:38:28.467,0.912264,4.2329,8.6019,-0.0752106,-0.171724,-0.143855,0
2024-12-13 15:38:28.469,0.952942,4.21855,8.58515,-0.0843733,-0.178444,-0.153017,0
2024-12-13 15:38:28.472,1.0008,4.22572,8.60668,-0.0910926,-0.185774,-0.164623,0
2024-12-13 15:38:28.474,1.05105,4.2353,8.62822,-0.100866,-0.194326,-0.172564,0
2024-12-13 15:38:28.476,1.10369,4.2329,8.62583,-0.109418,-0.201656,-0.182338,0
2024-12-13 15:38:28.479,1.1348,4.22333,8.63779,-0.119802,-0.21143,-0.193944,0
2024-12-13 15:38:28.481,1.15872,4.21376,8.65693,-0.129576,-0.215095,-0.204328,0
2024-12-13 15:38:28.483,1.18983,4.20628,8.68086,-0.136906,-0.217538,-0.214102,0
2024-12-13 15:38:28.486,1.22094,4.19193,8.7027,-0.147291,-0.221814,-0.223876,0
2024-12-13 15:38:28.488,1.25922,4.18475,8.74337,-0.156453,-0.221203,-0.235482,0
2024-12-13 15:38:28.491,1.29033,4.17757,8.77209,-0.162562,-0.218149,-0.247088,0
2024-12-13 15:38:28.493,1.30469,4.16082,8.79362,-0.169281,-0.212651,-0.258083,0
2024-12-13 15:38:28.496,1.30229,4.14168,8.81994,-0.176611,-0.194937,-0.278852,0
2024-12-13 15:38:28.498,1.28794,4.12732,8.82952,-0.176611,-0.194937,-0.278852,0
2024-12-13 15:38:28.500,1.26401,4.11775,8.84866,-0.179055,-0.18272,-0.288014,0
2024-12-13 15:38:28.502,1.24487,4.11057,8.86062,-0.18272,-0.168059,-0.298399,0
2024-12-13 15:38:28.505,1.21854,4.10578,8.87259,-0.184552,-0.15401,-0.306951,0
2024-12-13 15:38:28.507,1.18983,4.09143,8.87259,-0.184552,-0.140571,-0.316113,0
2024-12-13 15:38:28.509,1.15872,4.0675,8.85823,-0.185163,-0.127133,-0.323444,0
2024-12-13 15:38:28.512,1.11087,4.05793,8.85584,-0.186385,-0.111861,-0.331385,0
2024-12-13 15:38:28.514,1.07737,4.05314,8.83909,-0.188217,-0.0953685,-0.337493,0
2024-12-13 15:38:28.516,1.03669,4.05314,8.82473,-0.187606,-0.0794865,-0.342991,0
2024-12-13 15:38:28.519,0.97687,4.05314,8.81037,-0.188828,-0.0660479,-0.345434,0
2024-12-13 15:38:28.521,0.917049,4.04836,8.76491,-0.187606,-0.0519984,-0.34971,0
2024-12-13 15:38:28.524,0.859622,4.04357,8.72662,-0.185774,-0.0397814,-0.350321,0
2024-12-13 15:38:28.526,0.813859,4.05075,8.70509,-0.186385,-0.0281753,-0.351543,0
2024-12-13 15:38:28.528,0.756431,4.07229,8.68325,-0.187606,-0.0165692,-0.350321,0
2024-12-13 15:38:28.532,0.710967,4.08425,8.65454,-0.186996,-0.00862822,-0.346045,0
2024-12-13 15:38:28.533,0.677468,4.09143,8.61386,-0.186996,-0.00862822,-0.346045,0
2024-12-13 15:38:28.535,0.643968,4.11536,8.5684,-0.19005,-0.00313059,-0.340547,0
2024-12-13 15:38:28.538,0.622433,4.13211,8.5349,-0.190661,-0.00251974,-0.336882,0
2024-12-13 15:38:28.540,0.600898,4.14168,8.51576,-0.194937,-0.00557398,-0.333217,0
2024-12-13 15:38:28.542,0.593719,4.15843,8.49901,-0.197991,-0.00679568,-0.32833,0
2024-12-13 15:38:28.545,0.586541,4.18235,8.47269,-0.201045,-0.0116825,-0.324054,0
2024-12-13 15:38:28.547,0.596112,4.21137,8.45115,-0.205932,-0.0153475,-0.319779,0
2024-12-13 15:38:28.549,0.600898,4.24487,8.43919,-0.213262,-0.0202343,-0.314892,0
2024-12-13 15:38:28.552,0.596112,4.27597,8.43919,-0.218149,-0.0245102,-0.311227,0
2024-12-13 15:38:28.554,0.610469,4.2999,8.45354,-0.222425,-0.0300079,-0.308783,0
2024-12-13 15:38:28.557,0.610469,4.33819,8.4679,-0.227312,-0.0312296,-0.302675,0
2024-12-13 15:38:28.559,0.608076,4.38126,8.47508,-0.232809,-0.033673,-0.300231,0
2024-12-13 15:38:28.561,0.605683,4.40279,8.5014,-0.238307,-0.0379489,-0.297788,0
2024-12-13 15:38:28.566,0.581755,4.46261,8.53969,-0.244415,-0.0385597,-0.293512,0
2024-12-13 15:38:28.566,0.581755,4.46261,8.53969,-0.244415,-0.0385597,-0.293512,0
2024-12-13 15:38:28.568,0.596112,4.49851,8.55404,-0.245637,-0.0391706,-0.29168,0
2024-12-13 15:38:28.571,0.593719,4.53918,8.56601,-0.249913,-0.0379489,-0.291069,0
2024-12-13 15:38:28.573,0.584148,4.57508,8.58036,-0.252356,-0.0410031,-0.291069,0
2024-12-13 15:38:28.575,0.572184,4.61336,8.59233,-0.253578,-0.041614,-0.29229,0
2024-12-13 15:38:28.578,0.550648,4.65165,8.61625,-0.256021,-0.0422248,-0.291069,0
2024-12-13 15:38:28.580,0.529113,4.68036,8.61625,-0.260297,-0.0428357,-0.292901,0
2024-12-13 15:38:28.582,0.505185,4.71386,8.62583,-0.264573,-0.0471116,-0.292901,0
2024-12-13 15:38:28.585,0.483649,4.76172,8.64258,-0.270071,-0.049555,-0.29168,0
2024-12-13 15:38:28.587,0.452543,4.80987,8.65454,-0.275568,-0.0550526,-0.291069,0
2024-12-13 15:38:28.589,0.404686,4.85055,8.67847,-0.279844,-0.057496,-0.287404,0
2024-12-13 15:38:28.592,0.373579,4.8673,8.7027,-0.285342,-0.0623828,-0.285571,0
2024-12-13 15:38:28.594,0.366401,4.88405,8.73141,-0.292672,-0.0703238,-0.283128,0
2024-12-13 15:38:28.597,0.347258,4.93191,8.7673,-0.29817,-0.0764323,-0.278852,0
2024-12-13 15:38:28.599,0.308973,4.96062,8.78884,-0.304278,-0.0849841,-0.274576,0
2024-12-13 15:38:28.601,0.294616,4.98216,8.80798,-0.309165,-0.0953685,-0.269078,0
2024-12-13 15:38:28.604,0.299402,5.01805,8.84387,-0.316495,-0.105142,-0.264802,0
2024-12-13 15:38:28.606,0.297009,5.0348,8.89891,-0.323825,-0.117359,-0.259916,0
2024-12-13 15:38:28.608,0.308973,5.04915,8.93241,-0.331156,-0.128965,-0.251974,0
2024-12-13 15:38:28.611,0.328116,5.07069,8.98026,-0.335431,-0.142404,-0.246477,0
2024-12-13 15:38:28.615,0.354437,5.09462,9.09273,-0.350703,-0.169281,-0.235482,0
2024-12-13 15:38:28.618,0.380758,5.11137,9.15973,-0.355589,-0.18272,-0.231206,0
2024-12-13 15:38:28.618,0.380758,5.11137,9.15973,-0.355589,-0.18272,-0.231206,0
2024-12-13 15:38:28.620,0.421436,5.12333,9.24108,-0.364752,-0.194937,-0.22693,0
2024-12-13 15:38:28.622,0.464507,5.12094,9.32034,-0.370861,-0.205321,-0.222043,0
2024-12-13 15:38:28.625,0.490828,5.11615,9.39691,-0.37758,-0.216316,-0.218378,0
2024-12-13 15:38:28.627,0.536291,5.11855,9.48066,-0.386132,-0.225479,-0.214713,0
2024-12-13 15:38:28.630,0.581755,5.1353,9.56202,-0.391019,-0.234642,-0.21288,0
2024-12-13 15:38:28.632,0.634397,5.14487,9.64816,-0.395905,-0.240139,-0.21288,0
2024-12-13 15:38:28.634,0.694218,5.13769,9.73191,-0.401403,-0.246859,-0.211048,0
2024-12-13 15:38:28.637,0.737288,5.10658,9.81805,-0.40629,-0.251135,-0.211659,0
2024-12-13 15:38:28.639,0.787538,5.08026,9.90928,-0.409955,-0.256021,-0.212269,0
2024-12-13 15:38:28.644,0.871586,5.07308,10.0744,-0.418507,-0.257243,-0.213491,0
2024-12-13 15:38:28.644,0.871586,5.07308,10.0744,-0.418507,-0.257243,-0.213491,0
2024-12-13 15:38:28.646,0.912264,5.05873,10.1749,-0.419118,-0.259076,-0.215935,0
2024-12-13 15:38:28.648,0.933799,5.03719,10.273,-0.422783,-0.259076,-0.214713,0
2024-12-13 15:38:28.652,0.962513,5.0324,10.3591,-0.421561,-0.252967,-0.217767,0
2024-12-13 15:38:28.653,0.996012,5.02283,10.436,-0.421561,-0.252967,-0.217767,0
2024-12-13 15:38:28.655,1.01515,4.98933,10.5102,-0.419118,-0.248691,-0.216545,0
2024-12-13 15:38:28.658,1.02951,4.97019,10.5844,-0.417285,-0.242583,-0.215935,0
2024-12-13 15:38:28.660,1.0319,4.94626,10.6681,-0.412398,-0.235253,-0.218989,0
2024-12-13 15:38:28.662,1.03908,4.93191,10.771,-0.407511,-0.227922,-0.22021,0
2024-12-13 15:38:28.666,1.03908,4.92473,10.8858,-0.389797,-0.210819,-0.222654,0
2024-12-13 15:38:28.668,1.02951,4.89601,10.9771,-0.378191,-0.201045,-0.223265,0
2024-12-13 15:38:28.670,1.02951,4.87926,11.056,-0.378191,-0.201045,-0.223265,0
2024-12-13 15:38:28.672,1.00798,4.86012,11.1398,-0.36353,-0.186385,-0.225097,0
2024-12-13 15:38:28.674,0.974477,4.85534,11.1972,-0.346427,-0.172946,-0.22693,0
2024-12-13 15:38:28.678,0.933799,4.8673,11.2546,-0.306722,-0.142404,-0.228762,0
2024-12-13 15:38:28.679,0.890728,4.86491,11.3097,-0.306722,-0.142404,-0.228762,0
2024-12-13 15:38:28.681,0.842872,4.84577,11.348,-0.281677,-0.126522,-0.22693,0
2024-12-13 15:38:28.684,0.777966,4.83141,11.3623,-0.257854,-0.112472,-0.227541,0
2024-12-13 15:38:28.686,0.696611,4.82662,11.348,-0.23342,-0.0959794,-0.225708,0
2024-12-13 15:38:28.688,0.62004,4.80987,11.3169,-0.201656,-0.0825407,-0.225097,0
2024-12-13 15:38:28.691,0.545863,4.79791,11.2786,-0.17539,-0.0691021,-0.221432,0
2024-12-13 15:38:28.693,0.476471,4.8003,11.2355,-0.147291,-0.0587177,-0.218378,0
2024-12-13 15:38:28.695,0.407079,4.79791,11.1709,-0.121024,-0.0513875,-0.21288,0
2024-12-13 15:38:28.698,0.330509,4.78834,11.0871,-0.0910926,-0.0446682,-0.209215,0
2024-12-13 15:38:28.700,0.267996,4.77398,10.9866,-0.065437,-0.041614,-0.203718,0
2024-12-13 15:38:28.703,0.200997,4.76172,10.8691,-0.0385597,-0.0403923,-0.19822,0
2024-12-13 15:38:28.705,0.136391,4.75932,10.7614,-0.0165692,-0.0434465,-0.193333,0
2024-12-13 15:38:28.707,0.0837488,4.77398,10.6561,0.00603212,-0.0507767,-0.186003,0
2024-12-13 15:38:28.710,0.0382852,4.7665,10.5389,0.0280226,-0.0581068,-0.181727,0
2024-12-13 15:38:28.712,0.0,4.75454,10.4312,0.046348,-0.0666587,-0.175008,0
2024-12-13 15:38:28.714,-0.0287139,4.74736,10.3304,0.0640626,-0.0788757,-0.168288,0
2024-12-13 15:38:28.717,-0.0550349,4.74975,10.2108,0.0811663,-0.0892601,-0.162791,0
2024-12-13 15:38:28.720,-0.0526421,4.75693,10.0935,0.108044,-0.114305,-0.152406,0
2024-12-13 15:38:28.721,-0.0454636,4.75454,10.0098,0.108044,-0.114305,-0.152406,0
2024-12-13 15:38:28.724,-0.0526421,4.75215,9.9332,0.121482,-0.1253,-0.148741,0
2024-12-13 15:38:28.726,-0.0478565,4.73779,9.83749,0.133699,-0.135684,-0.144465,0
2024-12-13 15:38:28.728,-0.040678,4.72104,9.75584,0.14164,-0.147291,-0.142633,0
2024-12-13 15:38:28.731,-0.026321,4.69711,9.67209,0.150803,-0.155232,-0.1408,0
2024-12-13 15:38:28.733,0.00478565,4.67558,9.58834,0.161187,-0.162562,-0.138968,0
2024-12-13 15:38:28.736,0.0358923,4.67318,9.50698,0.170961,-0.169281,-0.137135,0
2024-12-13 15:38:28.738,0.0454636,4.666,9.43281,0.175237,-0.171724,-0.138968,0
2024-12-13 15:38:28.740,0.0622134,4.63011,9.36341,0.181956,-0.174168,-0.139579,0
2024-12-13 15:38:28.743,0.081356,4.60379,9.28206,0.188065,-0.176611,-0.141411,0
2024-12-13 15:38:28.746,0.0933201,4.58465,9.20519,0.194173,-0.174779,-0.14752,0
2024-12-13 15:38:28.747,0.11007,4.57029,9.13101,0.194173,-0.174779,-0.14752,0
2024-12-13 15:38:28.750,0.119641,4.55354,9.08076,0.197838,-0.17539,-0.149963,0
2024-12-13 15:38:28.752,0.129212,4.52961,9.0353,0.19906,-0.171114,-0.154239,0
2024-12-13 15:38:28.754,0.138784,4.51047,8.9683,0.202725,-0.16867,-0.160347,0
2024-12-13 15:38:28.757,0.145962,4.49611,8.90848,0.202725,-0.165616,-0.163402,0
2024-12-13 15:38:28.759,0.138784,4.46979,8.8678,0.200892,-0.160729,-0.165234,0
2024-12-13 15:38:28.761,0.133998,4.43629,8.81755,0.203947,-0.152788,-0.171343,0
2024-12-13 15:38:28.764,0.129212,4.41954,8.7673,0.205168,-0.147901,-0.171343,0
2024-12-13 15:38:28.766,0.119641,4.4004,8.73141,0.20639,-0.13996,-0.173786,0
2024-12-13 15:38:28.768,0.105284,4.37647,8.68086,0.207001,-0.128965,-0.178062,0
2024-12-13 15:38:28.771,0.0837488,4.34297,8.62583,0.207001,-0.121024,-0.180505,0
2024-12-13 15:38:28.773,0.066999,4.32144,8.58276,0.207612,-0.11064,-0.181116,0
2024-12-13 15:38:28.776,0.040678,4.3023,8.51576,0.209444,-0.102088,-0.180505,0
2024-12-13 15:38:28.778,0.0191426,4.27597,8.45115,0.207612,-0.0947577,-0.181727,0
2024-12-13 15:38:28.780,-0.00239282,4.25922,8.40569,0.208833,-0.085595,-0.182338,0
2024-12-13 15:38:28.784,-0.026321,4.2329,8.35065,0.209444,-0.0703238,-0.179284,0
2024-12-13 15:38:28.785,-0.0502493,4.20897,8.28605,0.209444,-0.0703238,-0.179284,0
2024-12-13 15:38:28.787,-0.0741775,4.18714,8.20948,0.208833,-0.0666587,-0.177451,0
2024-12-13 15:38:28.790,-0.0981057,4.17039,8.14726,0.207612,-0.0642153,-0.173786,0
2024-12-13 15:38:28.792,-0.129212,4.14168,8.09193,0.205168,-0.0617719,-0.170732,0
2024-12-13 15:38:28.794,-0.150748,4.10818,8.02493,0.201503,-0.0587177,-0.166456,0
2024-12-13 15:38:28.797,-0.160319,4.101,7.96272,0.198449,-0.0605502,-0.161569,0
2024-12-13 15:38:28.799,-0.167498,4.10818,7.91964,0.196006,-0.0611611,-0.157293,0
2024-12-13 15:38:28.801,-0.162712,4.08664,7.8694,0.189286,-0.0672696,-0.152406,0
2024-12-13 15:38:28.804,-0.148355,4.06032,7.80958,0.183178,-0.0721563,-0.148741,0
2024-12-13 15:38:28.806,-0.131605,4.05554,7.74975,0.175848,-0.0770431,-0.143244,0
2024-12-13 15:38:28.809,-0.114855,4.05554,7.71386,0.168517,-0.0849841,-0.140189,0
2024-12-13 15:38:28.811,-0.100499,4.04118,7.69711,0.158133,-0.0953685,-0.136524,0
2024-12-13 15:38:28.813,-0.081356,4.02921,7.67318,0.14836,-0.105142,-0.135914,0
2024-12-13 15:38:28.816,-0.0646062,4.034,7.64447,0.139808,-0.111861,-0.13347,0
2024-12-13 15:38:28.818,-0.0574277,4.034,7.63011,0.12698,-0.122857,-0.131638,0
2024-12-13 15:38:28.820,-0.0239282,4.01964,7.63251,0.117206,-0.133241,-0.130416,0
2024-12-13 15:38:28.823,0.0334995,4.00768,7.62772,0.108044,-0.142404,-0.130416,0
2024-12-13 15:38:28.825,0.081356,4.01246,7.65404,0.0909399,-0.151566,-0.131027,0
2024-12-13 15:38:28.827,0.114855,4.00768,7.68993,0.0775012,-0.159507,-0.13347,0
2024-12-13 15:38:28.830,0.143569,4.0005,7.70908,0.0652843,-0.167449,-0.134081,0
2024-12-13 15:38:28.832,0.177069,4.01486,7.71865,0.0518457,-0.172946,-0.137746,0
2024-12-13 15:38:28.834,0.222533,4.01964,7.74736,0.0408504,-0.177222,-0.142022,0
2024-12-13 15:38:28.837,0.256032,3.99332,7.81197,0.0298552,-0.182109,-0.145076,0
2024-12-13 15:38:28.839,0.258425,3.96939,7.88615,0.0182491,-0.188828,-0.150574,0
2024-12-13 15:38:28.841,0.263211,3.95743,7.95075,0.0096972,-0.191272,-0.154239,0
2024-12-13 15:38:28.844,0.270389,3.95982,8.02254,0.00297788,-0.195547,-0.160347,0
2024-12-13 15:38:28.846,0.260818,3.96222,8.07518,-0.00251974,-0.19738,-0.165234,0
2024-12-13 15:38:28.849,0.275175,3.95025,8.09911,-0.00313059,-0.193715,-0.168899,0
2024-12-13 15:38:28.851,0.297009,3.95264,8.10868,-0.00740652,-0.188217,-0.173175,0
2024-12-13 15:38:28.853,0.301795,3.95025,8.1015,-0.0122933,-0.176611,-0.175619,0
2024-12-13 15:38:28.856,0.34008,3.93829,8.08714,-0.0147367,-0.163173,-0.179895,0
2024-12-13 15:38:28.858,0.359223,3.91197,8.068,-0.0196235,-0.150345,-0.181727,0
2024-12-13 15:38:28.865,0.371187,3.86411,7.97947,-0.0434465,-0.111251,-0.194555,0
2024-12-13 15:38:28.865,0.371187,3.86411,7.97947,-0.0434465,-0.111251,-0.194555,0
2024-12-13 15:38:28.865,0.371187,3.86411,7.97947,-0.0434465,-0.111251,-0.194555,0
2024-12-13 15:38:28.867,0.354437,3.83779,7.96032,-0.0507767,-0.0996445,-0.196387,0
2024-12-13 15:38:28.870,0.354437,3.8354,7.95075,-0.0642153,-0.0898709,-0.19822,0
2024-12-13 15:38:28.872,0.347258,3.83061,7.93639,-0.0782648,-0.0849841,-0.198831,0
2024-12-13 15:38:28.874,0.32333,3.82343,7.91486,-0.0917034,-0.0794865,-0.200663,0
2024-12-13 15:38:28.877,0.301795,3.83779,7.91007,-0.10331,-0.0727672,-0.201274,0
2024-12-13 15:38:28.879,0.289831,3.84975,7.89811,-0.117359,-0.0691021,-0.200663,0
2024-12-13 15:38:28.882,0.289831,3.82582,7.89093,-0.128965,-0.0629936,-0.199442,0
2024-12-13 15:38:28.884,0.275175,3.81386,7.91007,-0.145458,-0.0550526,-0.196998,0
2024-12-13 15:38:28.886,0.265603,3.80429,7.91964,-0.162562,-0.0513875,-0.194555,0
2024-12-13 15:38:28.889,0.263211,3.79232,7.92682,-0.176,-0.0452791,-0.193333,0
2024-12-13 15:38:28.891,0.256032,3.77318,7.95075,-0.190661,-0.0385597,-0.19089,0
2024-12-13 15:38:28.893,0.256032,3.74208,7.97468,-0.202878,-0.0324513,-0.187836,0
2024-12-13 15:38:28.898,0.248854,3.70379,8.03211,-0.231587,-0.0232886,-0.18356,0
2024-12-13 15:38:28.898,0.248854,3.70379,8.03211,-0.231587,-0.0232886,-0.18356,0
2024-12-13 15:38:28.900,0.236889,3.699,8.07279,-0.242583,-0.0196235,-0.179895,0
2024-12-13 15:38:28.904,0.227318,3.699,8.11586,-0.266406,-0.00801737,-0.172564,0
2024-12-13 15:38:28.905,0.217747,3.7014,8.14487,-0.266406,-0.00801737,-0.172564,0
2024-12-13 15:38:28.907,0.20339,3.7014,8.17119,-0.275568,-0.00435229,-0.168899,0
2024-12-13 15:38:28.910,0.16989,3.7014,8.21665,-0.280455,0.00419957,-0.164012,0
2024-12-13 15:38:28.912,0.143569,3.70858,8.26451,-0.287785,0.0109189,-0.158515,0
2024-12-13 15:38:28.914,0.119641,3.73729,8.29801,-0.295726,0.0127514,-0.151796,0
2024-12-13 15:38:28.917,0.0789631,3.75404,8.32194,-0.301224,0.0182491,-0.142633,0
2024-12-13 15:38:28.919,0.0382852,3.7684,8.35544,-0.309165,0.022525,-0.134692,0
2024-12-13 15:38:28.923,0.0143569,3.78515,8.40569,-0.310998,0.0280226,-0.125529,0
2024-12-13 15:38:28.924,-0.00478565,3.7995,8.44158,-0.313441,0.0316877,-0.114534,0
2024-12-13 15:38:28.926,-0.026321,3.84257,8.45354,-0.317106,0.0335202,-0.10476,0
2024-12-13 15:38:28.929,-0.0334995,3.87368,8.4679,-0.318328,0.0390179,-0.0937651,0
2024-12-13 15:38:28.931,-0.0358923,3.89282,8.48704,-0.321382,0.038407,-0.0815481,0
2024-12-13 15:38:28.933,-0.0454636,3.92393,8.50619,-0.323825,0.0371853,-0.0687203,0
2024-12-13 15:38:28.936,-0.0454636,3.95982,8.52293,-0.325658,0.0365745,-0.0571142,0
2024-12-13 15:38:28.938,-0.0311067,3.99571,8.54447,-0.325658,0.0341311,-0.0467298,0
2024-12-13 15:38:28.940,-0.0239282,4.02921,8.57558,-0.329323,0.0329094,-0.0357346,0
2024-12-13 15:38:28.943,-0.0119641,4.05793,8.61147,-0.332988,0.0274118,-0.0253502,0
2024-12-13 15:38:28.945,0.00478565,4.08664,8.64258,-0.334821,0.0231358,-0.0149658,0
2024-12-13 15:38:28.947,0.0358923,4.13928,8.67847,-0.337875,0.0151948,-0.00397051,0
2024-12-13 15:38:28.950,0.0646062,4.19671,8.72423,-0.337875,0.00908635,0.00458135,0
2024-12-13 15:38:28.952,0.081356,4.22094,8.77687,-0.337875,0.00175619,0.0137441,0
2024-12-13 15:38:28.955,0.107677,4.25683,8.83669,-0.337875,-0.00618483,0.0229068,0
2024-12-13 15:38:28.957,0.129212,4.29272,8.89651,-0.337875,-0.0122933,0.0302369,0
2024-12-13 15:38:28.959,0.165105,4.33579,8.94198,-0.337264,-0.0184018,0.0375671,0
2024-12-13 15:38:28.962,0.20339,4.37647,8.97787,-0.33421,-0.0196235,0.0442864,0
2024-12-13 15:38:28.964,0.222533,4.39801,9.0353,-0.329323,-0.021456,0.0516166,0
2024-12-13 15:38:28.966,0.246461,4.4339,9.09033,-0.325658,-0.021456,0.0571142,0
2024-12-13 15:38:28.970,0.272782,4.46261,9.13101,-0.315884,-0.021456,0.0668878,0
2024-12-13 15:38:28.971,0.289831,4.49851,9.16212,-0.315884,-0.021456,0.0668878,0
2024-12-13 15:38:28.973,0.308973,4.5344,9.19801,-0.310998,-0.0220669,0.0711637,0
2024-12-13 15:38:28.976,0.335294,4.56551,9.24347,-0.303057,-0.0202343,0.0766613,0
2024-12-13 15:38:28.978,0.349651,4.60379,9.2677,-0.297559,-0.0220669,0.0803264,0
2024-12-13 15:38:28.980,0.371187,4.65404,9.29163,-0.289618,-0.0220669,0.0839915,0
2024-12-13 15:38:28.983,0.390329,4.69472,9.32034,-0.282899,-0.0238994,0.0876566,0
2024-12-13 15:38:28.985,0.392722,4.72104,9.35624,-0.278623,-0.0238994,0.0937651,0
2024-12-13 15:38:28.988,0.397508,4.75454,9.37777,-0.271903,-0.0232886,0.0962084,0
2024-12-13 15:38:28.990,0.407079,4.79073,9.38974,-0.265795,-0.0257319,0.0998735,0
2024-12-13 15:38:28.992,0.423829,4.82902,9.41845,-0.259076,-0.029397,0.104149,0
2024-12-13 15:38:28.995,0.431007,4.86491,9.44238,-0.251745,-0.0263428,0.109647,0
2024-12-13 15:38:28.997,0.421436,4.9008,9.46152,-0.246248,-0.0251211,0.113312,0
2024-12-13 15:38:28.999,0.423829,4.95344,9.47588,-0.241361,-0.0238994,0.117588,0
2024-12-13 15:38:29.002,0.440578,5.00369,9.51177,-0.235253,-0.021456,0.120031,0
2024-12-13 15:38:29.004,0.462114,5.0324,9.54048,-0.229144,-0.0190126,0.12614,0
2024-12-13 15:38:29.006,0.4669,5.0683,9.55005,-0.222425,-0.0190126,0.131027,0
2024-12-13 15:38:29.009,0.464507,5.12812,9.55723,-0.217538,-0.0153475,0.136601,0
2024-12-13 15:38:29.011,0.474078,5.1688,9.55963,-0.21204,-0.0147367,0.14332,0
2024-12-13 15:38:29.013,0.476471,5.19033,9.56441,-0.205932,-0.0116825,0.146985,0
2024-12-13 15:38:29.017,0.495613,5.23101,9.57877,-0.200434,-0.0184018,0.154315,0
2024-12-13 15:38:29.018,0.519542,5.28126,9.6027,-0.200434,-0.0184018,0.154315,0
2024-12-13 15:38:29.020,0.531506,5.31954,9.64337,-0.19738,-0.0220669,0.159813,0
2024-12-13 15:38:29.023,0.555434,5.35095,9.6673,-0.194937,-0.0263428,0.162256,0
2024-12-13 15:38:29.025,0.569791,5.38924,9.69123,-0.194326,-0.0287862,0.162256,0
2024-12-13 15:38:29.028,0.584148,5.44188,9.72234,-0.194326,-0.0342838,0.164089,0
2024-12-13 15:38:29.030,0.615255,5.48495,9.74387,-0.193715,-0.0367272,0.165921,0
2024-12-13 15:38:29.032,0.648754,5.51605,9.77977,-0.193715,-0.0403923,0.1647,0
2024-12-13 15:38:29.035,0.672682,5.56391,9.8351,-0.196769,-0.0452791,0.164089,0
2024-12-13 15:38:29.037,0.689432,5.61895,9.88774,-0.198602,-0.0489441,0.162256,0
2024-12-13 15:38:29.039,0.715753,5.63809,9.95235,-0.197991,-0.0568851,0.161645,0
2024-12-13 15:38:29.043,0.734896,5.64527,10.0122,-0.201045,-0.065437,0.152483,0
2024-12-13 15:38:29.044,0.73011,5.67637,10.0911,-0.201045,-0.065437,0.152483,0
2024-12-13 15:38:29.046,0.74686,5.70987,10.1916,-0.201656,-0.0703238,0.148818,0
2024-12-13 15:38:29.049,0.768395,5.74577,10.2754,-0.201656,-0.0758214,0.142098,0
2024-12-13 15:38:29.051,0.782752,5.77926,10.3711,-0.202267,-0.0819299,0.134157,0
2024-12-13 15:38:29.053,0.818644,5.79123,10.4862,-0.201656,-0.0886492,0.125529,0
2024-12-13 15:38:29.056,0.862014,5.78166,10.6011,-0.199823,-0.0959794,0.115145,0
2024-12-13 15:38:29.058,0.897907,5.76969,10.7303,-0.198602,-0.10392,0.102928,0
2024-12-13 15:38:29.061,0.917049,5.76969,10.8452,-0.196158,-0.108196,0.0913217,0
2024-12-13 15:38:29.063,0.948156,5.75534,10.9603,-0.193715,-0.113083,0.077883,0
2024-12-13 15:38:29.065,0.991227,5.7338,11.0895,-0.188828,-0.116748,0.0644444,0
2024-12-13 15:38:29.068,1.01994,5.72902,11.2116,-0.18272,-0.120413,0.0497841,0
2024-12-13 15:38:29.070,1.03908,5.70269,11.336,-0.177222,-0.121635,0.0369563,0
2024-12-13 15:38:29.072,1.0654,5.67159,11.4604,-0.168059,-0.120413,0.0253502,0
2024-12-13 15:38:29.075,1.08215,5.64527,11.5828,-0.159507,-0.117359,0.00946813,0
2024-12-13 15:38:29.077,1.08933,5.61416,11.712,-0.148512,-0.116748,-0.00213797,0
2024-12-13 15:38:29.079,1.10608,5.59502,11.8268,-0.136906,-0.113083,-0.0161875,0
2024-12-13 15:38:29.082,1.13001,5.58545,11.9249,-0.1253,-0.102088,-0.0290152,0
2024-12-13 15:38:29.084,1.13719,5.55913,12.0063,-0.113694,-0.0904818,-0.0363454,0
2024-12-13 15:38:29.086,1.13958,5.52084,12.0832,-0.102088,-0.0745997,-0.0467298,0
2024-12-13 15:38:29.089,1.15872,5.49691,12.1669,-0.0862058,-0.057496,-0.0565034,0
2024-12-13 15:38:29.091,1.17308,5.46581,12.2507,-0.0709346,-0.0403923,-0.0638335,0
2024-12-13 15:38:29.093,1.17308,5.4347,12.3248,-0.0544418,-0.0208452,-0.0723854,0
2024-12-13 15:38:29.096,1.16351,5.41795,12.3894,-0.0391706,-0.00435229,-0.077883,0
2024-12-13 15:38:29.098,1.15155,5.4012,12.466,-0.021456,0.0164165,-0.0827698,0
2024-12-13 15:38:29.101,1.13719,5.38924,12.5306,-0.00313059,0.0353528,-0.0864349,0
2024-12-13 15:38:29.103,1.11565,5.37727,12.5737,0.014584,0.0561216,-0.0888783,0
2024-12-13 15:38:29.105,1.07976,5.38445,12.6072,0.0329094,0.0756687,-0.0901,0
2024-12-13 15:38:29.108,1.03669,5.39163,12.6239,0.0518457,0.0982701,-0.0925434,0
2024-12-13 15:38:29.110,0.981655,5.39881,12.6215,0.0671168,0.116595,-0.0919325,0
2024-12-13 15:38:29.112,0.936192,5.41556,12.6144,0.0860531,0.139197,-0.0888783,0
2024-12-13 15:38:29.115,0.897907,5.41556,12.6072,0.102546,0.15569,-0.0888783,0
2024-12-13 15:38:29.117,0.869193,5.41795,12.5976,0.117206,0.173404,-0.0846023,0
2024-12-13 15:38:29.119,0.85005,5.42752,12.5833,0.130645,0.185621,-0.0833807,0
2024-12-13 15:38:29.122,0.862014,5.41316,12.5617,0.141029,0.194173,-0.0797156,0
2024-12-13 15:38:29.124,0.890728,5.39163,12.533,0.152025,0.200892,-0.0791047,0
2024-12-13 15:38:29.126,0.905085,5.37249,12.5067,0.16302,0.205779,-0.0797156,0
2024-12-13 15:38:29.129,0.924228,5.35334,12.4899,0.170961,0.20639,-0.0803264,0
2024-12-13 15:38:29.131,0.940978,5.35574,12.4684,0.175237,0.209444,-0.0833807,0
2024-12-13 15:38:29.134,0.952942,5.37009,12.4588,0.181345,0.210055,-0.085824,0
2024-12-13 15:38:29.136,0.955334,5.38684,12.4588,0.182567,0.214942,-0.0907108,0
2024-12-13 15:38:29.138,0.96012,5.40838,12.4445,0.1844,0.222883,-0.0974301,0
2024-12-13 15:38:29.141,0.962513,5.4347,12.4397,0.185621,0.232046,-0.102928,0
2024-12-13 15:38:29.143,0.962513,5.44427,12.4301,0.188065,0.244263,-0.109036,0
2024-12-13 15:38:29.145,0.96012,5.45623,12.411,0.18501,0.254036,-0.116977,0
2024-12-13 15:38:29.148,0.940978,5.49452,12.3751,0.182567,0.269918,-0.12614,0
2024-12-13 15:38:29.150,0.919442,5.51845,12.332,0.180124,0.287022,-0.134081,0
2024-12-13 15:38:29.152,0.907478,5.54955,12.2937,0.170961,0.305958,-0.143244,0
2024-12-13 15:38:29.155,0.869193,5.59023,12.2459,0.162409,0.325505,-0.151185,0
2024-12-13 15:38:29.157,0.813859,5.60937,12.2004,0.153246,0.342609,-0.160347,0
2024-12-13 15:38:29.159,0.766002,5.63091,12.1525,0.136143,0.360324,-0.168288,0
2024-12-13 15:38:29.162,0.703789,5.6668,12.0927,0.120261,0.374984,-0.178062,0
2024-12-13 15:38:29.164,0.646361,5.68595,12.0374,0.101324,0.388422,-0.187836,0
2024-12-13 15:38:29.167,0.593719,5.69791,11.9895,0.0787229,0.399418,-0.195777,0
2024-12-13 15:38:29.169,0.524327,5.72184,11.9393,0.0530674,0.410413,-0.204939,0
2024-12-13 15:38:29.171,0.45015,5.74337,11.901,0.0243575,0.415911,-0.211659,0
2024-12-13 15:38:29.174,0.395115,5.76969,11.8651,-0.00862822,0.420797,-0.2196,0
2024-12-13 15:38:29.176,0.335294,5.78884,11.8364,-0.0397814,0.422019,-0.22693,0
2024-12-13 15:38:29.178,0.275175,5.78405,11.8484,-0.0758214,0.421408,-0.233038,0
2024-12-13 15:38:29.181,0.232104,5.76969,11.8555,-0.110029,0.415911,-0.239147,0
2024-12-13 15:38:29.183,0.189033,5.76491,11.8603,-0.147291,0.410413,-0.247088,0
2024-12-13 15:38:29.185,0.16989,5.74816,11.8962,-0.184552,0.397585,-0.250753,0
2024-12-13 15:38:29.188,0.16989,5.70509,11.9465,-0.222425,0.380481,-0.257472,0
2024-12-13 15:38:29.190,0.193819,5.6668,12.0087,-0.261519,0.359102,-0.263581,0
2024-12-13 15:38:29.192,0.236889,5.62134,12.0951,-0.303667,0.332835,-0.268467,0
2024-12-13 15:38:29.195,0.270389,5.53998,12.2004,-0.340929,0.305347,-0.276408,0
2024-12-13 15:38:29.197,0.320937,5.47059,12.3177,-0.375137,0.274805,-0.284349,0
2024-12-13 15:38:29.199,0.385544,5.41077,12.4612,-0.414231,0.241819,-0.291069,0
2024-12-13 15:38:29.202,0.459721,5.34138,12.6386,-0.447827,0.210055,-0.298399,0
2024-12-13 15:38:29.204,0.550648,5.25733,12.83,-0.480202,0.178902,-0.30634,0
2024-12-13 15:38:29.207,0.643968,5.17119,13.0214,-0.511966,0.152635,-0.315503,0
2024-12-13 15:38:29.209,0.742074,5.07787,13.2203,-0.5364,0.129423,-0.325887,0
2024-12-13 15:38:29.211,0.835394,4.97498,13.4261,-0.560834,0.106822,-0.33505,0
2024-12-13 15:38:29.214,0.921835,4.87687,13.6319,-0.581603,0.0860531,-0.341158,0
2024-12-13 15:38:29.216,1.0319,4.74018,13.8308,-0.598096,0.0726145,-0.34971,0
2024-12-13 15:38:29.218,1.16112,4.58465,14.0438,-0.60848,0.058565,-0.360094,0
2024-12-13 15:38:29.221,1.30469,4.44826,14.2735,-0.618254,0.0481806,-0.371701,0
2024-12-13 15:38:29.223,1.42941,4.31665,14.5059,-0.621308,0.0353528,-0.383307,0
2024-12-13 15:38:29.225,1.5347,4.18235,14.7141,-0.618865,0.0280226,-0.396134,0
2024-12-13 15:38:29.228,1.64477,4.06032,14.9034,-0.60848,0.0298552,-0.409573,0
2024-12-13 15:38:29.230,1.75484,3.92872,15.0996,-0.595652,0.0335202,-0.425455,0
2024-12-13 15:38:29.232,1.85533,3.78275,15.2791,-0.573662,0.0439046,-0.438894,0
2024-12-13 15:38:29.235,1.93669,3.64367,15.4373,-0.544952,0.0646735,-0.454165,0
2024-12-13 15:38:29.237,2.01117,3.5001,15.5713,-0.510745,0.0878856,-0.470658,0
2024-12-13 15:38:29.240,2.05902,3.34457,15.6933,-0.469207,0.115985,-0.485318,0
2024-12-13 15:38:29.242,2.0662,3.18664,15.8106,-0.422783,0.14836,-0.498146,0
2024-12-13 15:38:29.244,2.03031,3.03799,15.8776,-0.368417,0.181345,-0.513417,0
2024-12-13 15:38:29.247,1.96301,2.91117,15.9111,-0.306722,0.216774,-0.526245,0
2024-12-13 15:38:29.249,1.85294,2.79153,15.8991,-0.239528,0.25709,-0.533575,0
2024-12-13 15:38:29.251,1.71177,2.67428,15.8369,-0.16867,0.298628,-0.539684,3
2024-12-13 15:38:29.254,1.54427,2.55464,15.7388,-0.0917034,0.342609,-0.543349,0
2024-12-13 15:38:29.256,1.35733,2.45384,15.5833,-0.00923906,0.392088,-0.540294,0
2024-12-13 15:38:29.258,1.17787,2.37009,15.3844,0.074447,0.438512,-0.534186,0
2024-12-13 15:38:29.261,1.00319,2.28634,15.1451,0.160576,0.489212,-0.523802,0
2024-12-13 15:38:29.263,0.825823,2.20977,14.8696,0.24976,0.539913,-0.510363,0
2024-12-13 15:38:29.265,0.632004,2.14517,14.5753,0.3365,0.584504,-0.495703,0
2024-12-13 15:38:29.268,0.407079,2.10449,14.2735,0.423317,0.622988,-0.474323,0
2024-12-13 15:38:29.270,0.167498,2.07338,13.9552,0.505782,0.652919,-0.449278,0
2024-12-13 15:38:29.272,-0.081356,2.07338,13.5888,0.586413,0.676132,-0.42179,0
2024-12-13 15:38:29.275,-0.318545,2.09252,13.2156,0.665824,0.691403,-0.391248,0
2024-12-13 15:38:29.277,-0.553041,2.09252,12.8324,0.740347,0.69629,-0.35704,0
2024-12-13 15:38:29.280,-0.777966,2.09731,12.4205,0.810594,0.694457,-0.321611,0
2024-12-13 15:38:29.282,-0.986441,2.12602,12.0206,0.876566,0.685294,-0.283128,0
2024-12-13 15:38:29.284,-1.18505,2.14038,11.6115,0.93704,0.666358,-0.240368,0
2024-12-13 15:38:29.287,-1.34536,2.14756,11.1996,0.996292,0.645589,-0.19822,0
2024-12-13 15:38:29.289,-1.48684,2.15952,10.8045,1.04821,0.618712,-0.158515,0
2024-12-13 15:38:29.291,-1.60887,2.17388,10.4288,1.09586,0.586948,-0.116977,0
2024-12-13 15:38:29.294,-1.71416,2.19781,10.0624,1.1374,0.546021,-0.0742179,0
2024-12-13 15:38:29.296,-1.79073,2.2337,9.69841,1.17527,0.503873,-0.0308478,0
2024-12-13 15:38:29.298,-1.84337,2.26002,9.35384,1.2107,0.453783,0.00397051,0
2024-12-13 15:38:29.301,-1.88883,2.2672,9.03051,1.24002,0.400639,0.0412322,0
2024-12-13 15:38:29.303,-1.9343,2.29113,8.72423,1.26384,0.341387,0.0766613,0
2024-12-13 15:38:29.305,-1.94626,2.32941,8.44158,1.28217,0.280303,0.110869,0
2024-12-13 15:38:29.310,-1.91755,2.41795,7.95793,1.30966,0.145916,0.168365,0
2024-12-13 15:38:29.310,-1.91755,2.41795,7.95793,1.30966,0.145916,0.168365,0
2024-12-13 15:38:29.315,-1.86491,2.54267,7.49582,1.32004,0.0096972,0.216622,0
2024-12-13 15:38:29.315,-1.86491,2.54267,7.49582,1.32004,0.0096972,0.216622,0
2024-12-13 15:38:29.317,-1.82901,2.60249,7.30918,1.32004,-0.0593285,0.23678,0
2024-12-13 15:38:29.320,-1.78355,2.66231,7.14407,1.31821,-0.127743,0.254494,0
2024-12-13 15:38:29.322,-1.73569,2.72692,7.00738,1.31149,-0.192493,0.268544,0
2024-12-13 15:38:29.324,-1.66152,2.78196,6.8997,1.3011,-0.257243,0.28015,0
2024-12-13 15:38:29.327,-1.57059,2.82503,6.78485,1.29072,-0.317106,0.288702,0
2024-12-13 15:38:29.329,-1.47727,2.85374,6.68914,1.27423,-0.37758,0.296643,0
2024-12-13 15:38:29.331,-1.36929,2.88245,6.62692,1.2614,-0.430724,0.298475,0
2024-12-13 15:38:29.334,-1.24965,2.90878,6.57428,1.24796,-0.480202,0.298475,0
2024-12-13 15:38:29.336,-1.13958,2.93749,6.53839,1.22841,-0.522351,0.298475,0
2024-12-13 15:38:29.338,-1.01276,2.95424,6.49771,1.20948,-0.563888,0.292978,0
2024-12-13 15:38:29.341,-0.881157,2.9662,6.48096,1.1881,-0.595042,0.285647,0
2024-12-13 15:38:29.343,-0.777966,2.98774,6.47857,1.16672,-0.62253,0.277096,0
2024-12-13 15:38:29.345,-0.667897,3.01406,6.47139,1.14473,-0.643299,0.2661,0
2024-12-13 15:38:29.348,-0.569791,3.04995,6.4666,1.12701,-0.654905,0.255716,0
2024-12-13 15:38:29.350,-0.493221,3.05474,6.44955,1.1038,-0.661624,0.24411,0
2024-12-13 15:38:29.353,-0.414257,3.06431,6.45703,1.08609,-0.662235,0.23006,0
2024-12-13 15:38:29.355,-0.35683,3.07867,6.47139,1.06532,-0.65857,0.216011,0
2024-12-13 15:38:29.357,-0.311366,3.08106,6.4666,1.04272,-0.650018,0.203183,0
2024-12-13 15:38:29.360,-0.272782,3.08106,6.47139,1.02256,-0.637801,0.189134,0
2024-12-13 15:38:29.362,-0.232104,3.09093,6.46182,1.00057,-0.623141,0.177527,0
2024-12-13 15:38:29.364,-0.196211,3.1005,6.44238,0.981632,-0.604815,0.165921,0
2024-12-13 15:38:29.367,-0.174676,3.09571,6.41605,0.962084,-0.58649,0.154315,0
2024-12-13 15:38:29.369,-0.148355,3.09811,6.38495,0.938261,-0.567553,0.140877,0
2024-12-13 15:38:29.371,-0.12682,3.09571,6.35863,0.916271,-0.542509,0.126751,0
2024-12-13 15:38:29.374,-0.119641,3.08854,6.31556,0.889394,-0.518686,0.116366,0
2024-12-13 15:38:29.376,-0.107677,3.09811,6.26291,0.863738,-0.496695,0.103539,0
2024-12-13 15:38:29.378,-0.0957129,3.11964,6.21745,0.838693,-0.47165,0.0913217,0
2024-12-13 15:38:29.381,-0.0957129,3.12682,6.16959,0.809983,-0.445995,0.0803264,0
2024-12-13 15:38:29.383,-0.100499,3.14357,6.09781,0.77883,-0.419728,0.0687203,0
2024-12-13 15:38:29.386,-0.112463,3.14596,6.0332,0.746455,-0.395905,0.0546708,0
2024-12-13 15:38:29.388,-0.107677,3.14357,5.98056,0.71408,-0.372082,0.0442864,0
2024-12-13 15:38:29.390,-0.0981057,3.16032,5.94228,0.679262,-0.354368,0.0351237,0
2024-12-13 15:38:29.393,-0.112463,3.17228,5.91596,0.640779,-0.334821,0.0216851,0
2024-12-13 15:38:29.395,-0.112463,3.18425,5.89203,0.601074,-0.32016,0.010079,0
2024-12-13 15:38:29.397,-0.0981057,3.17946,5.87258,0.560147,-0.307333,-0.00274881,0
2024-12-13 15:38:29.400,-0.0885344,3.18186,5.87258,0.518609,-0.299392,-0.0167983,0
2024-12-13 15:38:29.402,-0.0909273,3.19382,5.88455,0.474017,-0.288396,-0.0314586,0
2024-12-13 15:38:29.404,-0.100499,3.19143,5.89921,0.431258,-0.280455,-0.0448973,0
2024-12-13 15:38:29.407,-0.112463,3.19621,5.9327,0.386666,-0.271903,-0.0607793,0
2024-12-13 15:38:29.409,-0.133998,3.19621,5.99013,0.345663,-0.263352,-0.0760505,0
2024-12-13 15:38:29.411,-0.148355,3.20339,6.05474,0.301071,-0.251135,-0.0913217,0
2024-12-13 15:38:29.414,-0.155533,3.20818,6.1337,0.261366,-0.240139,-0.107815,0
2024-12-13 15:38:29.416,-0.165105,3.18425,6.2342,0.22105,-0.229755,-0.123086,0
2024-12-13 15:38:29.419,-0.179462,3.16271,6.3347,0.185621,-0.213873,-0.138968,0
2024-12-13 15:38:29.421,-0.189033,3.15314,6.43998,0.152025,-0.196769,-0.15485,0
2024-12-13 15:38:29.423,-0.200997,3.13879,6.54796,0.11965,-0.177222,-0.170121,0
2024-12-13 15:38:29.426,-0.229711,3.1005,6.65324,0.0933833,-0.155232,-0.18417,0
2024-12-13 15:38:29.428,-0.256032,3.05474,6.76092,0.0671168,-0.13263,-0.201274,0
2024-12-13 15:38:29.430,-0.267996,3.00688,6.87338,0.0469589,-0.11064,-0.21288,0
2024-12-13 15:38:29.433,-0.275175,2.96142,6.96431,0.0286335,-0.0868167,-0.226319,0
2024-12-13 15:38:29.435,-0.301795,2.92792,7.04118,0.0109189,-0.0617719,-0.238536,0
2024-12-13 15:38:29.437,-0.361615,2.87767,7.11536,-0.00496313,-0.041614,-0.250142,0
2024-12-13 15:38:29.440,-0.431007,2.8322,7.17278,-0.0177909,-0.0202343,-0.258694,0
2024-12-13 15:38:29.442,-0.488435,2.78435,7.21107,-0.0287862,-7.63559e-05,-0.269078,0
2024-12-13 15:38:29.444,-0.557827,2.73649,7.25893,-0.0361163,0.0194708,-0.278241,0
2024-12-13 15:38:29.447,-0.658325,2.70778,7.32114,-0.0428357,0.0371853,-0.284349,0
2024-12-13 15:38:29.449,-0.756431,2.68146,7.35943,-0.049555,0.0518457,-0.287404,0
2024-12-13 15:38:29.451,-0.847657,2.64078,7.38335,-0.0501658,0.0658951,-0.288625,0
2024-12-13 15:38:29.454,-0.950549,2.59532,7.41446,-0.0513875,0.0799446,-0.288014,0
2024-12-13 15:38:29.457,-1.06062,2.56182,7.44078,-0.0452791,0.100103,-0.282517,0
2024-12-13 15:38:29.459,-1.16112,2.5331,7.45992,-0.0452791,0.100103,-0.282517,0
2024-12-13 15:38:29.461,-1.26162,2.4993,7.46471,-0.0422248,0.108044,-0.276408,0
2024-12-13 15:38:29.463,-1.35733,2.46341,7.45035,-0.0379489,0.113541,-0.268467,0
2024-12-13 15:38:29.466,-1.43898,2.44666,7.43839,-0.0300079,0.114763,-0.258083,0
2024-12-13 15:38:29.468,-1.51795,2.4323,7.41207,-0.0238994,0.117817,-0.247699,0
2024-12-13 15:38:29.470,-1.5993,2.40598,7.37378,-0.0147367,0.120261,-0.234871,0
2024-12-13 15:38:29.473,-1.67109,2.37248,7.33789,-0.00557398,0.120261,-0.222654,0
2024-12-13 15:38:29.475,-1.71655,2.33181,7.302,0.00236703,0.116595,-0.209215,0
2024-12-13 15:38:29.477,-1.75962,2.31027,7.26132,0.010308,0.114152,-0.196387,0
2024-12-13 15:38:29.480,-1.80509,2.30788,7.2015,0.0170274,0.106211,-0.179284,0
2024-12-13 15:38:29.482,-1.83141,2.30548,7.13929,0.0243575,0.0988809,-0.162791,0
2024-12-13 15:38:29.484,-1.85294,2.3007,7.08664,0.0292443,0.090329,-0.146298,0
2024-12-13 15:38:29.487,-1.87448,2.29591,7.03639,0.0335202,0.0811663,-0.131027,0
2024-12-13 15:38:29.489,-1.89123,2.3007,6.99302,0.0365745,0.0713928,-0.114534,0
2024-12-13 15:38:29.492,-1.91276,2.30788,6.95235,0.0377962,0.0640626,-0.0992627,0
2024-12-13 15:38:29.494,-1.92473,2.31266,6.90449,0.0390179,0.0524565,-0.0827698,0
2024-12-13 15:38:29.496,-1.93669,2.32941,6.85424,0.0408504,0.046348,-0.0674986,0
2024-12-13 15:38:29.499,-1.95344,2.35334,6.80399,0.0432938,0.0432938,-0.0510057,0
2024-12-13 15:38:29.501,-1.97288,2.37248,6.76331,0.042683,0.0414613,-0.0345129,0
2024-12-13 15:38:29.503,-2.0016,2.39641,6.72981,0.0439046,0.0439046,-0.0204634,0
2024-12-13 15:38:29.506,-2.0327,2.40598,6.68196,0.0469589,0.0439046,-0.00458135,0
2024-12-13 15:38:29.508,-2.04706,2.41795,6.65085,0.0487914,0.0445155,0.0125224,0
2024-12-13 15:38:29.510,-2.05663,2.42991,6.61496,0.0481806,0.042683,0.0296261,0
2024-12-13 15:38:29.513,-2.08295,2.44188,6.56471,0.0487914,0.0414613,0.0455081,0
2024-12-13 15:38:29.515,-2.09492,2.44427,6.53121,0.0500131,0.0396287,0.0589468,0
2024-12-13 15:38:29.517,-2.10209,2.45145,6.48096,0.0524565,0.0353528,0.0742179,0
2024-12-13 15:38:29.520,-2.1332,2.4658,6.4328,0.0518457,0.0310769,0.0913217,0
2024-12-13 15:38:29.522,-2.16431,2.4993,6.37059,0.050624,0.0243575,0.107815,0
2024-12-13 15:38:29.524,-2.18584,2.53071,6.30598,0.0487914,0.0182491,0.122475,0
2024-12-13 15:38:29.527,-2.20259,2.55224,6.25813,0.0475697,0.0133623,0.138433,0
2024-12-13 15:38:29.529,-2.21456,2.5666,6.20309,0.0457372,0.00542127,0.154315,0
2024-12-13 15:38:29.532,-2.21216,2.58096,6.14567,0.0396287,-0.0019089,0.168976,0
2024-12-13 15:38:29.534,-2.21216,2.60249,6.09302,0.0335202,-0.00862822,0.185468,0
2024-12-13 15:38:29.536,-2.20259,2.60967,6.05952,0.0243575,-0.0171801,0.201961,0
2024-12-13 15:38:29.539,-2.18824,2.61685,6.04517,0.0182491,-0.0281753,0.216622,0
2024-12-13 15:38:29.541,-2.17388,2.62881,6.02842,0.0109189,-0.0367272,0.231282,0
2024-12-13 15:38:29.543,-2.14277,2.65035,6.00449,0.00114534,-0.0465007,0.245332,0
2024-12-13 15:38:29.546,-2.10927,2.67428,6.0021,-0.00923906,-0.0532201,0.259992,0
2024-12-13 15:38:29.548,-2.07338,2.68624,6.00449,-0.0171801,-0.0611611,0.274652,0
2024-12-13 15:38:29.550,-2.02074,2.70299,6.01885,-0.0275645,-0.065437,0.286869,0
2024-12-13 15:38:29.553,-1.9657,2.71735,6.03799,-0.0367272,-0.0691021,0.300919,0
2024-12-13 15:38:29.555,-1.91037,2.72692,6.04995,-0.0483333,-0.0715455,0.313136,0
2024-12-13 15:38:29.557,-1.85773,2.73888,6.0667,-0.0581068,-0.0727672,0.325963,0
2024-12-13 15:38:29.560,-1.80269,2.75324,6.07627,-0.0666587,-0.0691021,0.336348,0
2024-12-13 15:38:29.562,-1.75005,2.7676,6.09063,-0.0794865,-0.0666587,0.347343,0
2024-12-13 15:38:29.565,-1.69741,2.77478,6.10977,-0.0880384,-0.0623828,0.358949,0
2024-12-13 15:38:29.567,-1.63998,2.79871,6.12652,-0.0990336,-0.0538309,0.368723,0
2024-12-13 15:38:29.569,-1.57537,2.82742,6.15045,-0.11064,-0.0440574,0.378496,0
2024-12-13 15:38:29.572,-1.51555,2.84656,6.16959,-0.124078,-0.0312296,0.386437,0
2024-12-13 15:38:29.574,-1.4653,2.87049,6.18634,-0.138128,-0.0208452,0.394378,0
2024-12-13 15:38:29.576,-1.39561,2.9016,6.21506,-0.155232,-0.00679568,0.401708,0
2024-12-13 15:38:29.579,-1.31426,2.92792,6.25574,-0.172335,0.010308,0.407206,0
2024-12-13 15:38:29.581,-1.24008,2.92792,6.28684,-0.189439,0.0286335,0.414536,0
2024-12-13 15:38:29.583,-1.17787,2.93988,6.31077,-0.207154,0.0481806,0.418201,0
2024-12-13 15:38:29.586,-1.10848,2.97577,6.35863,-0.225479,0.0707819,0.422477,0
2024-12-13 15:38:29.588,-1.04865,2.99731,6.4017,-0.245637,0.094605,0.42431,0
2024-12-13 15:38:29.590,-0.991227,3.00449,6.46182,-0.264573,0.114763,0.425531,0
2024-12-13 15:38:29.593,-0.924228,3.01167,6.536,-0.28412,0.138586,0.427364,0
2024-12-13 15:38:29.595,-0.871586,3.04038,6.59582,-0.301835,0.159966,0.428586,0
2024-12-13 15:38:29.597,-0.825823,3.05952,6.65803,-0.32016,0.183178,0.427975,0
2024-12-13 15:38:29.600,-0.787538,3.06431,6.72981,-0.337875,0.204557,0.426142,0
2024-12-13 15:38:29.602,-0.780359,3.08584,6.81356,-0.354368,0.223494,0.42431,0
2024-12-13 15:38:29.605,-0.780359,3.11246,6.89013,-0.37025,0.241208,0.423699,0
2024-12-13 15:38:29.607,-0.789931,3.14357,6.97627,-0.383078,0.258312,0.422477,0
2024-12-13 15:38:29.612,-0.825823,3.1675,7.18714,-0.406901,0.281524,0.421256,0
2024-12-13 15:38:29.612,-0.854836,3.18425,7.18714,-0.406901,0.281524,0.421256,0
2024-12-13 15:38:29.614,-0.897907,3.22493,7.28525,-0.417896,0.288854,0.420645,0
2024-12-13 15:38:29.616,-0.950549,3.26321,7.3666,-0.426448,0.294352,0.418812,0
2024-12-13 15:38:29.619,-1.00798,3.29432,7.45753,-0.43561,0.296185,0.421256,0
2024-12-13 15:38:29.621,-1.06062,3.32303,7.55803,-0.438665,0.297406,0.42431,0
2024-12-13 15:38:29.623,-1.10608,3.33978,7.65165,-0.441719,0.296795,0.426142,0
2024-12-13 15:38:29.626,-1.17787,3.37328,7.7354,-0.443551,0.296185,0.427364,0
2024-12-13 15:38:29.628,-1.2329,3.40917,7.82154,-0.443551,0.294963,0.434083,0
2024-12-13 15:38:29.630,-1.26401,3.42353,7.90529,-0.444162,0.290076,0.440192,0
2024-12-13 15:38:29.633,-1.29033,3.44267,7.9675,-0.441719,0.287633,0.444468,0
2024-12-13 15:38:29.635,-1.31426,3.47617,8.02493,-0.439886,0.280913,0.449965,0
2024-12-13 15:38:29.638,-1.33101,3.48574,8.09671,-0.439276,0.273583,0.457296,0
2024-12-13 15:38:29.640,-1.34058,3.49053,8.16162,-0.438665,0.262588,0.464015,0
2024-12-13 15:38:29.642,-1.34297,3.50728,8.23101,-0.437443,0.254036,0.470734,0
2024-12-13 15:38:29.645,-1.34776,3.51924,8.29083,-0.436221,0.244873,0.478675,0
2024-12-13 15:38:29.647,-1.35015,3.5336,8.34826,-0.43561,0.232046,0.486616,0
2024-12-13 15:38:29.649,-1.34776,3.54317,8.41765,-0.435,0.22105,0.497001,0
2024-12-13 15:38:29.652,-1.34297,3.56471,8.48465,-0.432556,0.211277,0.506163,0
2024-12-13 15:38:29.654,-1.33579,3.58146,8.55883,-0.429502,0.199671,0.516548,0
2024-12-13 15:38:29.656,-1.31426,3.59103,8.62343,-0.429502,0.188675,0.527543,0
2024-12-13 15:38:29.659,-1.28076,3.61017,8.68086,-0.430113,0.178902,0.536706,0
2024-12-13 15:38:29.662,-1.25683,3.62692,8.74816,-0.429502,0.162409,0.559918,0
2024-12-13 15:38:29.663,-1.22572,3.64128,8.81516,-0.429502,0.162409,0.559918,0
2024-12-13 15:38:29.666,-1.16351,3.65593,8.86541,-0.427059,0.156911,0.569081,0
2024-12-13 15:38:29.668,-1.0989,3.67029,8.92284,-0.426448,0.153246,0.579465,0
2024-12-13 15:38:29.671,-1.06062,3.69183,8.98026,-0.424004,0.151414,0.589849,0
2024-12-13 15:38:29.673,-1.01994,3.71097,9.02573,-0.421561,0.149581,0.599623,0
2024-12-13 15:38:29.675,-0.948156,3.7349,9.07598,-0.424615,0.146527,0.607564,0
2024-12-13 15:38:29.678,-0.881157,3.75883,9.14058,-0.423394,0.147749,0.617338,0
2024-12-13 15:38:29.680,-0.82343,3.7684,9.22433,-0.425226,0.14836,0.625889,0
2024-12-13 15:38:29.682,-0.758824,3.79232,9.29402,-0.425226,0.150192,0.630165,0
2024-12-13 15:38:29.685,-0.701396,3.8354,9.35863,-0.427059,0.153246,0.636274,0
2024-12-13 15:38:29.687,-0.651147,3.87129,9.42084,-0.432556,0.156911,0.642993,0
2024-12-13 15:38:29.689,-0.60329,3.90479,9.46631,-0.43561,0.164242,0.647269,0
2024-12-13 15:38:29.692,-0.54347,3.94307,9.5333,-0.436221,0.170961,0.650323,0
2024-12-13 15:38:29.694,-0.481256,3.98136,9.60987,-0.438054,0.18501,0.652767,0
2024-12-13 15:38:29.696,-0.435793,4.03879,9.65773,-0.443551,0.195395,0.652156,0
2024-12-13 15:38:29.700,-0.385544,4.06271,9.70559,-0.452103,0.223494,0.650323,0
2024-12-13 15:38:29.701,-0.325723,4.08664,9.75344,-0.452103,0.223494,0.650323,0
2024-12-13 15:38:29.703,-0.27996,4.13928,9.81805,-0.45699,0.238765,0.649712,0
2024-12-13 15:38:29.706,-0.236889,4.18714,9.87578,-0.464931,0.252814,0.646658,0
2024-12-13 15:38:29.708,-0.198604,4.22094,9.9021,-0.468596,0.266864,0.642993,0
2024-12-13 15:38:29.711,-0.165105,4.24247,9.92842,-0.478981,0.281524,0.639939,0
2024-12-13 15:38:29.713,-0.136391,4.27358,9.97628,-0.4857,0.296185,0.631998,0
2024-12-13 15:38:29.715,-0.11007,4.31905,10.0313,-0.494252,0.30718,0.6265,0
2024-12-13 15:38:29.718,-0.0957129,4.36212,10.084,-0.504636,0.321229,0.620392,0
2024-12-13 15:38:29.720,-0.0837488,4.40758,10.151,-0.511966,0.334668,0.614894,0
2024-12-13 15:38:29.722,-0.081356,4.46022,10.218,-0.522351,0.345663,0.607564,0
2024-12-13 15:38:29.725,-0.0693919,4.5009,10.2802,-0.532124,0.357269,0.600234,0
2024-12-13 15:38:29.727,-0.0574277,4.52961,10.3567,-0.541898,0.364599,0.595347,0
2024-12-13 15:38:29.729,-0.0574277,4.56311,10.4384,-0.55045,0.375595,0.591071,0
2024-12-13 15:38:29.732,-0.066999,4.59901,10.5126,-0.562056,0.380481,0.58313,0
2024-12-13 15:38:29.734,-0.0765703,4.63011,10.6059,-0.568775,0.384757,0.575189,0
2024-12-13 15:38:29.736,-0.081356,4.666,10.7112,-0.576716,0.387812,0.569691,0
2024-12-13 15:38:29.739,-0.107677,4.69233,10.7949,-0.583435,0.390255,0.564194,0
2024-12-13 15:38:29.741,-0.141177,4.71865,10.8811,-0.589544,0.393309,0.558696,0
2024-12-13 15:38:29.744,-0.172283,4.74975,10.9795,-0.593209,0.392088,0.553199,0
2024-12-13 15:38:29.746,-0.198604,4.78594,11.0776,-0.596874,0.389033,0.549533,0
2024-12-13 15:38:29.748,-0.22014,4.82662,11.1805,-0.598707,0.382925,0.544647,0
2024-12-13 15:38:29.751,-0.241675,4.86491,11.3001,-0.599317,0.377427,0.539149,0
2024-12-13 15:38:29.753,-0.270389,4.89841,11.4341,-0.599928,0.367043,0.536706,0
2024-12-13 15:38:29.755,-0.294616,4.9343,11.5636,-0.594431,0.354215,0.533041,0
2024-12-13 15:38:29.758,-0.308973,4.97976,11.6952,-0.590766,0.337722,0.531819,0
2024-12-13 15:38:29.760,-0.316152,5.02523,11.8173,-0.587101,0.321229,0.528154,0
2024-12-13 15:38:29.762,-0.325723,5.06351,11.9417,-0.57916,0.301682,0.527543,0
2024-12-13 15:38:29.765,-0.325723,5.0994,12.0784,-0.570608,0.282135,0.523267,0
2024-12-13 15:38:29.767,-0.320937,5.14726,12.2172,-0.560223,0.260145,0.522045,0
2024-12-13 15:38:29.769,-0.304188,5.18076,12.3631,-0.549228,0.239376,0.520824,0
2024-12-13 15:38:29.772,-0.248854,5.20708,12.4899,-0.535179,0.219218,0.51838,0
2024-12-13 15:38:29.774,-0.193819,5.24058,12.6314,-0.520518,0.199671,0.516548,0
2024-12-13 15:38:29.776,-0.12682,5.27887,12.7869,-0.504025,0.177069,0.514104,0
2024-12-13 15:38:29.779,-0.0430708,5.30997,12.9425,-0.484478,0.159966,0.510439,0
2024-12-13 15:38:29.781,0.0311067,5.34377,13.098,-0.463099,0.144084,0.505552,0
2024-12-13 15:38:29.784,0.102891,5.37727,13.2443,-0.441108,0.126369,0.500055,0
2024-12-13 15:38:29.786,0.165105,5.41556,13.3831,-0.416674,0.116595,0.494557,0
2024-12-13 15:38:29.788,0.224925,5.45384,13.5051,-0.392851,0.109876,0.490892,0
2024-12-13 15:38:29.791,0.294616,5.48495,13.6199,-0.364141,0.1056,0.486005,0
2024-12-13 15:38:29.793,0.35683,5.53041,13.73,-0.332988,0.101935,0.479286,0
2024-12-13 15:38:29.795,0.3999,5.57827,13.8212,-0.303667,0.100103,0.471956,0
2024-12-13 15:38:29.798,0.438186,5.62852,13.8882,-0.268238,0.0988809,0.466458,0
2024-12-13 15:38:29.800,0.474078,5.68116,13.9385,-0.238307,0.100713,0.46035,0
2024-12-13 15:38:29.802,0.500399,5.74816,13.9624,-0.205321,0.101935,0.455463,0
2024-12-13 15:38:29.805,0.521934,5.81276,13.96,-0.172335,0.100713,0.449965,0
2024-12-13 15:38:29.807,0.521934,5.86301,13.9385,-0.144236,0.0970484,0.444468,0
2024-12-13 15:38:29.809,0.502792,5.93749,13.9146,-0.114916,0.0964375,0.436527,0
2024-12-13 15:38:29.813,0.486042,6.03799,13.8882,-0.0660479,0.0872748,0.428586,0
2024-12-13 15:38:29.814,0.459721,6.11456,13.8332,-0.0660479,0.0872748,0.428586,0
2024-12-13 15:38:29.817,0.423829,6.19831,13.7662,-0.0422248,0.0817772,0.423088,0
2024-12-13 15:38:29.819,0.387936,6.3012,13.7204,-0.0263428,0.0756687,0.421866,0
2024-12-13 15:38:29.821,0.349651,6.39213,13.663,-0.0110716,0.0707819,0.41759,0
2024-12-13 15:38:29.824,0.30658,6.49053,13.5817,0.00236703,0.0646735,0.418812,0
2024-12-13 15:38:29.826,0.270389,6.59103,13.5099,0.0127514,0.0548999,0.41698,0
2024-12-13 15:38:29.828,0.222533,6.68435,13.4477,0.0219141,0.0487914,0.416369,0
2024-12-13 15:38:29.831,0.191426,6.78485,13.3878,0.0237467,0.0390179,0.418201,0
2024-12-13 15:38:29.833,0.184247,6.88535,13.3161,0.022525,0.0292443,0.416369,0
2024-12-13 15:38:29.835,0.184247,6.98345,13.2515,0.0182491,0.0151948,0.416369,0
2024-12-13 15:38:29.838,0.210568,7.08425,13.2084,0.0109189,-0.00129805,0.415758,0
2024-12-13 15:38:29.840,0.239282,7.15843,13.1698,-7.63559e-05,-0.0171801,0.414536,0
2024-12-13 15:38:29.842,0.27996,7.22543,13.1339,-0.0171801,-0.037338,0.413925,0
2024-12-13 15:38:29.845,0.352044,7.2996,13.1148,-0.0348946,-0.0593285,0.409649,0
2024-12-13 15:38:29.847,0.445364,7.34268,13.1076,-0.0556635,-0.0825407,0.403541,0
2024-12-13 15:38:29.850,0.545863,7.37617,13.1172,-0.0807082,-0.107585,0.394378,0
2024-12-13 15:38:29.852,0.663111,7.40489,13.1411,-0.106975,-0.130798,0.383383,0
2024-12-13 15:38:29.854,0.797109,7.42403,13.1868,-0.136295,-0.156453,0.368723,0
2024-12-13 15:38:29.857,0.948156,7.44317,13.2467,-0.165005,-0.178444,0.354062,0
2024-12-13 15:38:29.859,1.12762,7.45035,13.3185,-0.194937,-0.202267,0.334515,0
2024-12-13 15:38:29.864,1.48923,7.40489,13.5218,-0.259686,-0.246248,0.280761,0
2024-12-13 15:38:29.864,1.48923,7.40489,13.5218,-0.259686,-0.246248,0.280761,0
2024-12-13 15:38:29.866,1.67827,7.37857,13.6487,-0.287175,-0.263352,0.250829,0
2024-12-13 15:38:29.868,1.88405,7.32832,13.8021,-0.317106,-0.279844,0.217233,0
2024-12-13 15:38:29.873,2.28395,7.22064,14.1443,-0.37025,-0.306722,0.139044,0
2024-12-13 15:38:29.873,2.28395,7.22064,14.1443,-0.37025,-0.306722,0.139044,0
2024-12-13 15:38:29.875,2.47537,7.14168,14.3216,-0.392851,-0.313441,0.0943759,0
2024-12-13 15:38:29.878,2.67428,7.04597,14.5179,-0.413009,-0.317717,0.0497841,0
2024-12-13 15:38:29.880,2.85853,6.9356,14.7045,-0.431335,-0.319549,0.00152712,0
2024-12-13 15:38:29.882,3.03081,6.81356,14.8795,-0.444162,-0.318939,-0.0479515,0
2024-12-13 15:38:29.885,3.20339,6.68914,15.0613,-0.450882,-0.314052,-0.098041,0
2024-12-13 15:38:29.887,3.3685,6.55514,15.2575,-0.458212,-0.311608,-0.150574,0
2024-12-13 15:38:29.890,3.52403,6.39213,15.4469,-0.460655,-0.304278,-0.204328,0
2024-12-13 15:38:29.892,3.66551,6.21506,15.6215,-0.459433,-0.296948,-0.258694,0
2024-12-13 15:38:29.897,3.92632,5.8678,15.9446,-0.44233,-0.273736,-0.369257,0
2024-12-13 15:38:29.897,3.92632,5.8678,15.9446,-0.44233,-0.273736,-0.369257,0
2024-12-13 15:38:29.899,3.99093,5.69073,16.1076,-0.425837,-0.260297,-0.425455,0
2024-12-13 15:38:29.902,4.00768,5.51845,16.244,-0.381245,-0.21876,-0.533575,0
2024-12-13 15:38:29.906,4.02682,5.14965,16.3899,-0.350092,-0.195547,-0.584275,3
2024-12-13 15:38:29.906,4.02682,5.14965,16.3899,-0.350092,-0.195547,-0.584275,3
2024-12-13 15:38:29.908,4.01725,4.94387,16.4498,-0.314052,-0.166227,-0.634365,0
2024-12-13 15:38:29.911,3.97897,4.73779,16.4857,-0.274958,-0.134463,-0.683233,0
2024-12-13 15:38:29.913,3.91675,4.53201,16.4713,-0.228533,-0.10392,-0.727825,0
2024-12-13 15:38:29.915,3.84018,4.34537,16.4258,-0.180887,-0.0703238,-0.769362,0
2024-12-13 15:38:29.918,3.72293,4.15843,16.354,-0.126522,-0.0348946,-0.807235,0
2024-12-13 15:38:29.920,3.58864,3.98375,16.2607,-0.0715455,0.00297788,-0.84022,0
2024-12-13 15:38:29.923,3.41396,3.81865,16.1363,-0.0122933,0.0390179,-0.86893,0
2024-12-13 15:38:29.925,3.22971,3.65115,15.9876,0.0500131,0.074447,-0.893364,0
2024-12-13 15:38:29.927,3.04277,3.49771,15.8321,0.11232,0.111098,-0.9123,0
2024-12-13 15:38:29.930,2.82981,3.34218,15.6694,0.17768,0.147749,-0.925128,0
2024-12-13 15:38:29.932,2.60728,3.22493,15.4828,0.247317,0.181345,-0.93368,0
2024-12-13 15:38:29.934,2.37488,3.13879,15.2791,0.316343,0.212498,-0.933069,0
2024-12-13 15:38:29.937,2.13081,3.02124,15.0518,0.384834,0.244263,-0.928182,0
2024-12-13 15:38:29.939,1.9008,2.89681,14.8002,0.453249,0.27847,-0.91902,0
2024-12-13 15:38:29.941,1.70219,2.78196,14.5346,0.525939,0.310845,-0.903749,0
2024-12-13 15:38:29.944,1.50838,2.6671,14.2424,0.596187,0.339555,-0.884812,0
2024-12-13 15:38:29.946,1.30229,2.55942,13.9265,0.665213,0.370097,-0.860378,0
2024-12-13 15:38:29.948,1.09412,2.45145,13.5888,0.731184,0.398196,-0.834723,0
2024-12-13 15:38:29.951,0.890728,2.36291,13.2467,0.800821,0.425073,-0.801737,0
2024-12-13 15:38:29.953,0.684646,2.29113,12.8994,0.867403,0.448896,-0.766308,0
2024-12-13 15:38:29.955,0.495613,2.22174,12.5689,0.932764,0.467222,-0.727214,0
2024-12-13 15:38:29.958,0.313759,2.15474,12.2363,0.995681,0.478217,-0.685676,0
2024-12-13 15:38:29.960,0.143569,2.11167,11.889,1.05493,0.485547,-0.641695,0
2024-12-13 15:38:29.963,0.0,2.07577,11.5493,1.11419,0.484326,-0.59466,0
2024-12-13 15:38:29.965,-0.133998,2.03031,11.2044,1.16977,0.475163,-0.546403,0
2024-12-13 15:38:29.967,-0.253639,2.00638,10.8547,1.22047,0.461113,-0.499368,0
2024-12-13 15:38:29.970,-0.35683,1.98245,10.5126,1.26934,0.439734,-0.449889,0
2024-12-13 15:38:29.972,-0.452543,1.95583,10.1749,1.31577,0.412856,-0.404075,0
2024-12-13 15:38:29.977,-0.505185,1.91994,9.54048,1.39273,0.340166,-0.308783,0
2024-12-13 15:38:29.977,-0.548256,1.91994,9.54048,1.39273,0.340166,-0.308783,0
2024-12-13 15:38:29.979,-0.596112,1.92712,9.24347,1.42633,0.298017,-0.262359,0
2024-12-13 15:38:29.981,-0.615255,1.95105,8.93719,1.45931,0.252814,-0.217767,0
2024-12-13 15:38:29.984,-0.622433,1.95823,8.64975,1.48436,0.202114,-0.173175,0
2024-12-13 15:38:29.988,-0.622433,1.97049,8.38894,1.52834,0.0939941,-0.0925434,0
2024-12-13 15:38:29.988,-0.593719,1.99202,8.135,1.52834,0.0939941,-0.0925434,0
2024-12-13 15:38:29.991,-0.545863,2.02074,7.88854,1.54239,0.0359636,-0.0552817,0
2024-12-13 15:38:29.993,-0.486042,2.04467,7.65165,1.55277,-0.0208452,-0.0198525,0
2024-12-13 15:38:29.996,-0.41665,2.07099,7.42882,1.55705,-0.0800973,0.0131332,0
2024-12-13 15:38:30.000,-0.311366,2.12363,7.06511,1.55583,-0.194326,0.0723854,0
2024-12-13 15:38:30.000,-0.174676,2.19063,7.06511,1.55583,-0.194326,0.0723854,0
2024-12-13 15:38:30.003,-0.0454636,2.24806,6.90449,1.5485,-0.248691,0.0949868,0
2024-12-13 15:38:30.005,0.0957129,2.28395,6.75853,1.53689,-0.298781,0.116366,0
2024-12-13 15:38:30.007,0.258425,2.31266,6.62931,1.52284,-0.345205,0.132859,0
2024-12-13 15:38:30.010,0.409472,2.35813,6.54317,1.50757,-0.389797,0.145763,0
2024-12-13 15:38:30.012,0.56022,2.41316,6.48814,1.49108,-0.430724,0.158591,0
2024-12-13 15:38:30.017,0.85005,2.49691,6.39691,1.45015,-0.496084,0.170197,0
2024-12-13 15:38:30.017,0.85005,2.49691,6.39691,1.45015,-0.496084,0.170197,0
2024-12-13 15:38:30.019,1.00319,2.54028,6.37777,1.42755,-0.519297,0.170808,0
2024-12-13 15:38:30.024,1.23769,2.63599,6.35384,1.38784,-0.546174,0.165311,0
2024-12-13 15:38:30.024,1.23769,2.63599,6.35384,1.38784,-0.546174,0.165311,0
2024-12-13 15:38:30.026,1.3334,2.6671,6.33948,1.37074,-0.546785,0.159813,0
2024-12-13 15:38:30.028,1.41745,2.70778,6.31795,1.35303,-0.54373,0.151872,0
2024-12-13 15:38:30.031,1.49163,2.73888,6.30598,1.33653,-0.539454,0.141487,0
2024-12-13 15:38:30.033,1.54666,2.75324,6.29402,1.32065,-0.52907,0.129805,0
2024-12-13 15:38:30.038,1.6352,2.78435,6.24616,1.29194,-0.499749,0.104149,0
2024-12-13 15:38:30.038,1.6352,2.78435,6.24616,1.29194,-0.499749,0.104149,0
2024-12-13 15:38:30.040,1.64477,2.80588,6.21745,1.27728,-0.483257,0.0913217,0
2024-12-13 15:38:30.044,1.6663,2.82742,6.17199,1.24491,-0.451492,0.0650552,0
2024-12-13 15:38:30.045,1.66869,2.82981,6.12174,1.24491,-0.451492,0.0650552,0
2024-12-13 15:38:30.047,1.64477,2.84417,6.0667,1.23208,-0.439276,0.0534491,0
2024-12-13 15:38:30.050,1.62323,2.87767,5.98056,1.21375,-0.427059,0.0387888,0
2024-12-13 15:38:30.052,1.61127,2.90399,5.91117,1.19543,-0.413009,0.0277936,0
2024-12-13 15:38:30.054,1.58495,2.92552,5.83909,1.17405,-0.402625,0.0161875,0
2024-12-13 15:38:30.057,1.53709,2.95424,5.75534,1.15511,-0.392851,0.00885729,0
2024-12-13 15:38:30.059,1.50359,2.9686,5.68116,1.13068,-0.383688,0.00152712,0
2024-12-13 15:38:30.061,1.47727,2.98295,5.6022,1.10686,-0.378191,-0.00580305,0
2024-12-13 15:38:30.064,1.42941,3.0021,5.51127,1.10686,-0.378191,-0.00580305,0
2024-12-13 15:38:30.066,1.38126,3.01645,5.42752,1.05677,-0.367806,-0.0149658,0
2024-12-13 15:38:30.069,1.35015,3.04517,5.35095,1.02989,-0.361698,-0.0192417,0
2024-12-13 15:38:30.071,1.32622,3.06909,5.27408,0.998735,-0.354979,-0.0216851,0
2024-12-13 15:38:30.073,1.30229,3.09332,5.21665,0.971858,-0.348259,-0.0241285,0
2024-12-13 15:38:30.076,1.28554,3.11486,5.15444,0.938261,-0.342151,-0.0247393,0
2024-12-13 15:38:30.078,1.2664,3.13161,5.10419,0.905886,-0.336042,-0.0247393,0
2024-12-13 15:38:30.080,1.23769,3.16032,5.07069,0.874122,-0.328712,-0.0229068,0
2024-12-13 15:38:30.083,1.22094,3.18903,5.02523,0.874122,-0.328712,-0.0229068,0
2024-12-13 15:38:30.085,1.20658,3.20578,4.97737,0.804486,-0.308554,-0.0222959,0
2024-12-13 15:38:30.087,1.19222,3.22971,4.92951,0.769668,-0.295116,-0.0186308,0
2024-12-13 15:38:30.090,1.18744,3.25125,4.87687,0.734849,-0.279844,-0.0167983,0
2024-12-13 15:38:30.092,1.18026,3.27039,4.84816,0.698198,-0.263352,-0.0143549,0
2024-12-13 15:38:30.094,1.18026,3.3015,4.82423,0.662158,-0.245637,-0.0143549,0
2024-12-13 15:38:30.097,1.19222,3.31825,4.80987,0.626118,-0.224868,-0.0131332,0
2024-12-13 15:38:30.099,1.20658,3.3326,4.78594,0.588857,-0.207154,-0.0113007,0
2024-12-13 15:38:30.102,1.23051,3.335,4.75454,0.549763,-0.187606,-0.0119115,0
2024-12-13 15:38:30.104,1.25444,3.33739,4.76172,0.510668,-0.166838,-0.0113007,0
2024-12-13 15:38:30.106,1.25683,3.34218,4.76411,0.510668,-0.166838,-0.0113007,0
2024-12-13 15:38:30.109,1.26162,3.34696,4.7665,0.434923,-0.124078,-0.0161875,0
2024-12-13 15:38:30.113,1.24965,3.35892,4.79552,0.363378,-0.0788757,-0.0229068,0
2024-12-13 15:38:30.113,1.24965,3.35892,4.79552,0.363378,-0.0788757,-0.0229068,0
2024-12-13 15:38:30.116,1.24008,3.35653,4.82423,0.329781,-0.0513875,-0.0284044,0
2024-12-13 15:38:30.118,1.22333,3.34696,4.85294,0.298017,-0.0275645,-0.033902,0
2024-12-13 15:38:30.123,1.18026,3.33739,4.9343,0.239987,0.0268009,-0.041843,0
2024-12-13 15:38:30.123,1.18026,3.33739,4.9343,0.239987,0.0268009,-0.041843,0
2024-12-13 15:38:30.125,1.14676,3.32543,4.96062,0.213109,0.0530674,-0.0479515,0
2024-12-13 15:38:30.127,1.12283,3.30389,4.97976,0.19173,0.0762796,-0.0516166,0
2024-12-13 15:38:30.130,1.11326,3.27278,5.01087,0.166685,0.0976592,-0.0558925,0
2024-12-13 15:38:30.132,1.07976,3.24885,5.02523,0.147138,0.11965,-0.0595576,0
2024-12-13 15:38:30.134,1.03669,3.2345,5.02283,0.128202,0.137975,-0.0638335,0
2024-12-13 15:38:30.137,1.0008,3.21775,5.03001,0.111098,0.154468,-0.0674986,0
2024-12-13 15:38:30.139,0.969691,3.19621,5.02044,0.0939941,0.168517,-0.0742179,0
2024-12-13 15:38:30.142,0.940978,3.17468,5.02523,0.0781121,0.180734,-0.0784939,0
2024-12-13 15:38:30.144,0.905085,3.16271,5.04198,0.0622301,0.190508,-0.082159,0
2024-12-13 15:38:30.146,0.857229,3.15793,5.04676,0.0494023,0.197227,-0.0833807,0
2024-12-13 15:38:30.149,0.811466,3.15553,5.03719,0.0347419,0.203947,-0.0870457,0
2024-12-13 15:38:30.151,0.770788,3.15314,5.02762,0.022525,0.208833,-0.0888783,0
2024-12-13 15:38:30.153,0.722932,3.14596,5.02044,0.0115297,0.211277,-0.0919325,0
2024-12-13 15:38:30.156,0.684646,3.134,5.00369,-0.00129805,0.214942,-0.0913217,0
2024-12-13 15:38:30.158,0.651147,3.13161,5.00608,-0.0129041,0.216164,-0.0919325,0
2024-12-13 15:38:30.160,0.627219,3.13639,4.99651,-0.0232886,0.217996,-0.0931542,0
2024-12-13 15:38:30.163,0.593719,3.13639,4.97258,-0.033673,0.218607,-0.0931542,0
2024-12-13 15:38:30.165,0.555434,3.14118,4.96301,-0.0458899,0.216774,-0.0913217,0
2024-12-13 15:38:30.167,0.512363,3.134,4.97258,-0.0568851,0.215553,-0.0919325,0
2024-12-13 15:38:30.170,0.476471,3.12682,4.98216,-0.0660479,0.21372,-0.0919325,0
2024-12-13 15:38:30.172,0.45015,3.12443,4.97258,-0.0752106,0.210055,-0.0882674,0
2024-12-13 15:38:30.175,0.404686,3.12204,4.97498,-0.0831516,0.204557,-0.0876566,0
2024-12-13 15:38:30.179,0.359223,3.11486,5.00369,-0.100866,0.190508,-0.0846023,0
2024-12-13 15:38:30.179,0.313759,3.11486,5.00369,-0.100866,0.190508,-0.0846023,0
2024-12-13 15:38:30.184,0.234497,3.11007,5.01805,-0.110029,0.177069,-0.0839915,0
2024-12-13 15:38:30.184,0.234497,3.11007,5.01805,-0.110029,0.177069,-0.0839915,0
2024-12-13 15:38:30.186,0.208176,3.11246,5.02762,-0.114305,0.167907,-0.082159,0
2024-12-13 15:38:30.189,0.177069,3.11007,5.0324,-0.11797,0.164242,-0.0809373,0
2024-12-13 15:38:30.191,0.136391,3.11964,5.04437,-0.11797,0.164242,-0.0809373,0
2024-12-13 15:38:30.193,0.0885344,3.13639,5.04676,-0.119802,0.153246,-0.0791047,0
2024-12-13 15:38:30.196,0.0454636,3.14836,5.03001,-0.122857,0.147749,-0.0754396,0
2024-12-13 15:38:30.198,0.00478565,3.15793,5.01566,-0.124078,0.142251,-0.0736071,0
2024-12-13 15:38:30.203,-0.0598206,3.19382,4.96541,-0.126522,0.132477,-0.069942,0
2024-12-13 15:38:30.203,-0.0598206,3.19382,4.96541,-0.126522,0.132477,-0.069942,0
2024-12-13 15:38:30.205,-0.0957129,3.20578,4.93909,-0.130187,0.12698,-0.0638335,0
2024-12-13 15:38:30.207,-0.119641,3.21775,4.91755,-0.133241,0.117817,-0.0613902,0
2024-12-13 15:38:30.210,-0.150748,3.23689,4.88166,-0.13996,0.1056,-0.0565034,0
2024-12-13 15:38:30.212,-0.181855,3.26321,4.86969,-0.14668,0.0921616,-0.0497841,0
2024-12-13 15:38:30.215,-0.198604,3.28235,4.88644,-0.156453,0.074447,-0.0455081,0
2024-12-13 15:38:30.217,-0.224925,3.30389,4.89841,-0.164394,0.0561216,-0.0412322,0
2024-12-13 15:38:30.219,-0.251246,3.33021,4.92234,-0.17539,0.0353528,-0.0351237,0
2024-12-13 15:38:30.222,-0.263211,3.34457,4.93191,-0.185163,0.0151948,-0.0302369,0
2024-12-13 15:38:30.224,-0.265603,3.35414,4.95344,-0.195547,-0.00496313,-0.0235176,0
2024-12-13 15:38:30.226,-0.260818,3.37328,5.00608,-0.20471,-0.0238994,-0.01802,0
2024-12-13 15:38:30.229,-0.272782,3.38285,5.05873,-0.213262,-0.0397814,-0.0113007,0
2024-12-13 15:38:30.231,-0.265603,3.38046,5.11615,-0.220592,-0.0538309,-0.0051922,0
2024-12-13 15:38:30.233,-0.251246,3.39003,5.16401,-0.225479,-0.0666587,0.000916271,0
2024-12-13 15:38:30.236,-0.251246,3.3996,5.20708,-0.229144,-0.0770431,0.0064139,0
2024-12-13 15:38:30.238,-0.244068,3.40678,5.24058,-0.232809,-0.0880384,0.0131332,0
2024-12-13 15:38:30.240,-0.256032,3.41635,5.2669,-0.23342,-0.0965902,0.0167983,0
2024-12-13 15:38:30.243,-0.267996,3.44028,5.28844,-0.237696,-0.104531,0.0229068,0
2024-12-13 15:38:30.245,-0.265603,3.47857,5.30758,-0.244415,-0.113083,0.0284044,0
2024-12-13 15:38:30.248,-0.253639,3.50728,5.31476,-0.247469,-0.120413,0.0345129,0
2024-12-13 15:38:30.250,-0.246461,3.53839,5.31715,-0.254189,-0.127743,0.0393996,0
2024-12-13 15:38:30.252,-0.256032,3.57667,5.32672,-0.26213,-0.134463,0.0436756,0
2024-12-13 15:38:30.255,-0.253639,3.61735,5.33899,-0.270682,-0.142404,0.0510057,0
2024-12-13 15:38:30.257,-0.256032,3.6679,5.35574,-0.279844,-0.146069,0.0552817,0
2024-12-13 15:38:30.259,-0.275175,3.72772,5.37488,-0.292061,-0.150956,0.0589468,0
2024-12-13 15:38:30.262,-0.270389,3.78515,5.42752,-0.303667,-0.155842,0.0656661,0
2024-12-13 15:38:30.264,-0.253639,3.8354,5.46341,-0.318939,-0.160118,0.0717745,0
2024-12-13 15:38:30.266,-0.258425,3.88564,5.48495,-0.332377,-0.165616,0.0748288,0
2024-12-13 15:38:30.269,-0.253639,3.92393,5.53041,-0.34887,-0.169281,0.0815481,0
2024-12-13 15:38:30.271,-0.236889,3.967,5.57348,-0.362309,-0.16867,0.0870457,0
2024-12-13 15:38:30.273,-0.232104,4.00768,5.60937,-0.379413,-0.170503,0.0913217,0
2024-12-13 15:38:30.276,-0.217747,4.03639,5.66202,-0.396516,-0.170503,0.0949868,0
2024-12-13 15:38:30.279,-0.200997,4.08664,5.72423,-0.413009,-0.171114,0.0992627,0
2024-12-13 15:38:30.283,-0.184247,4.18714,5.86062,-0.452714,-0.172335,0.105982,0
2024-12-13 15:38:30.283,-0.184247,4.18714,5.86062,-0.452714,-0.172335,0.105982,0
2024-12-13 15:38:30.285,-0.167498,4.22572,5.94945,-0.472872,-0.173557,0.109036,0
2024-12-13 15:38:30.288,-0.160319,4.28555,6.03081,-0.496084,-0.176,0.110869,0
2024-12-13 15:38:30.290,-0.155533,4.35972,6.11456,-0.518075,-0.177222,0.11209,0
2024-12-13 15:38:30.292,-0.153141,4.40758,6.21745,-0.540065,-0.181498,0.115145,0
2024-12-13 15:38:30.295,-0.157926,4.44108,6.3347,-0.562056,-0.18272,0.115756,0
2024-12-13 15:38:30.297,-0.141177,4.48415,6.44955,-0.583435,-0.183331,0.118199,0
2024-12-13 15:38:30.299,-0.138784,4.52722,6.57907,-0.606648,-0.181498,0.120031,0
2024-12-13 15:38:30.303,-0.117248,4.55354,6.70349,-0.645131,-0.180276,0.122475,0
2024-12-13 15:38:30.304,-0.0885344,4.58226,6.82553,-0.645131,-0.180276,0.122475,0
2024-12-13 15:38:30.306,-0.0717847,4.61336,6.97149,-0.662846,-0.177833,0.124307,0
2024-12-13 15:38:30.309,-0.0454636,4.62293,7.12254,-0.679949,-0.17539,0.124918,0
2024-12-13 15:38:30.311,-0.026321,4.63968,7.28286,-0.692777,-0.176,0.123086,0
2024-12-13 15:38:30.313,-0.0191426,4.65404,7.45035,-0.706216,-0.176611,0.123086,0
2024-12-13 15:38:30.316,-0.0191426,4.65643,7.60858,-0.717822,-0.176,0.123086,0
2024-12-13 15:38:30.318,-0.00478565,4.65883,7.78325,-0.729428,-0.179665,0.122475,0
2024-12-13 15:38:30.321,0.00239282,4.67079,7.94597,-0.734926,-0.182109,0.122475,0
2024-12-13 15:38:30.323,-0.0143569,4.68275,8.09671,-0.741034,-0.186385,0.123086,0
2024-12-13 15:38:30.325,-0.026321,4.70668,8.25972,-0.74531,-0.188217,0.123086,0
2024-12-13 15:38:30.328,-0.0311067,4.74018,8.41287,-0.748364,-0.191882,0.12614,0
2024-12-13 15:38:30.330,-0.0334995,4.75693,8.55165,-0.747753,-0.19738,0.126751,0
2024-12-13 15:38:30.332,-0.026321,4.79552,8.67608,-0.749586,-0.19738,0.130416,0
2024-12-13 15:38:30.335,-0.0287139,4.8338,8.78405,-0.747143,-0.20471,0.134768,0
2024-12-13 15:38:30.337,-0.0191426,4.85294,8.89651,-0.745921,-0.209597,0.140266,0
2024-12-13 15:38:30.339,0.00717847,4.87448,9.01376,-0.74531,-0.215095,0.145153,0
2024-12-13 15:38:30.342,0.026321,4.89841,9.11905,-0.742867,-0.222425,0.151872,0
2024-12-13 15:38:30.344,0.0717847,4.93669,9.21955,-0.741034,-0.228533,0.15737,0
2024-12-13 15:38:30.346,0.117248,4.96301,9.30838,-0.741034,-0.232809,0.1647,0
2024-12-13 15:38:30.349,0.150748,4.98694,9.39691,-0.739202,-0.236474,0.170197,0
2024-12-13 15:38:30.351,0.20339,5.01566,9.49023,-0.737369,-0.238918,0.176306,0
2024-12-13 15:38:30.354,0.251246,5.02762,9.58355,-0.738591,-0.239528,0.183636,0
2024-12-13 15:38:30.356,0.292223,5.05394,9.68166,-0.73798,-0.234031,0.18669,0
2024-12-13 15:38:30.358,0.342473,5.08744,9.76062,-0.736758,-0.227312,0.191577,0
2024-12-13 15:38:30.363,0.4334,5.14726,9.93799,-0.735536,-0.204099,0.203794,0
2024-12-13 15:38:30.363,0.4334,5.14726,9.93799,-0.735536,-0.204099,0.203794,0
2024-12-13 15:38:30.365,0.4669,5.19272,10.005,-0.735536,-0.191882,0.206848,0
2024-12-13 15:38:30.368,0.514756,5.24537,10.0768,-0.736758,-0.174779,0.210513,0
2024-12-13 15:38:30.372,0.54347,5.33899,10.2012,-0.737369,-0.133852,0.216622,0
2024-12-13 15:38:30.372,0.54347,5.33899,10.2012,-0.737369,-0.133852,0.216622,0
2024-12-13 15:38:30.377,0.584148,5.43948,10.3496,-0.741645,-0.0825407,0.221508,0
2024-12-13 15:38:30.377,0.584148,5.43948,10.3496,-0.741645,-0.0825407,0.221508,0
2024-12-13 15:38:30.382,0.610469,5.54477,10.4216,-0.750197,-0.0232886,0.220898,0
2024-12-13 15:38:30.382,0.610469,5.54477,10.4216,-0.750197,-0.0232886,0.220898,0
2024-12-13 15:38:30.384,0.622433,5.5998,10.4791,-0.754473,0.00542127,0.222119,0
2024-12-13 15:38:30.386,0.62004,5.64766,10.5293,-0.760581,0.0402396,0.220287,0
2024-12-13 15:38:30.389,0.596112,5.70269,10.5676,-0.769744,0.074447,0.217233,0
2024-12-13 15:38:30.391,0.569791,5.74816,10.625,-0.775852,0.107433,0.216622,0
2024-12-13 15:38:30.394,0.555434,5.79841,10.7064,-0.785626,0.139197,0.2154,0
2024-12-13 15:38:30.396,0.517149,5.8678,10.7925,-0.793567,0.170961,0.214178,0
2024-12-13 15:38:30.398,0.488435,5.91596,10.8619,-0.802119,0.201503,0.212346,0
2024-12-13 15:38:30.401,0.454935,5.9662,10.9241,-0.81006,0.231435,0.212346,0
2024-12-13 15:38:30.403,0.421436,6.02602,11.0058,-0.819223,0.257701,0.216011,0
2024-12-13 15:38:30.405,0.387936,6.07149,11.1111,-0.826553,0.284578,0.218454,0
2024-12-13 15:38:30.408,0.35683,6.12892,11.2283,-0.832661,0.310234,0.219065,0
2024-12-13 15:38:30.410,0.347258,6.17677,11.3384,-0.840602,0.334668,0.220898,0
2024-12-13 15:38:30.412,0.32333,6.21984,11.4365,-0.847322,0.355437,0.225174,0
2024-12-13 15:38:30.415,0.289831,6.26531,11.566,-0.852208,0.373151,0.228228,0
2024-12-13 15:38:30.417,0.272782,6.3012,11.7024,-0.855873,0.393309,0.231893,0
2024-12-13 15:38:30.419,0.256032,6.33709,11.822,-0.857706,0.411024,0.232504,0
2024-12-13 15:38:30.422,0.244068,6.37538,11.9417,-0.858317,0.427517,0.238001,0
2024-12-13 15:38:30.424,0.248854,6.4017,12.0903,-0.855263,0.442788,0.239834,0
2024-12-13 15:38:30.427,0.241675,6.42084,12.2387,-0.851597,0.456837,0.24411,0
2024-12-13 15:38:30.429,0.232104,6.44238,12.3607,-0.8461,0.466611,0.248386,0
2024-12-13 15:38:30.431,0.215354,6.47139,12.4995,-0.83877,0.470276,0.253273,0
2024-12-13 15:38:30.434,0.198604,6.49292,12.6338,-0.829607,0.471498,0.259992,0
2024-12-13 15:38:30.436,0.193819,6.51685,12.7463,-0.816779,0.468443,0.2661,0
2024-12-13 15:38:30.438,0.198604,6.53839,12.8851,-0.808227,0.460502,0.27343,0
2024-12-13 15:38:30.441,0.208176,6.55992,13.043,-0.794789,0.449507,0.280761,0
2024-12-13 15:38:30.443,0.222533,6.59103,13.1868,-0.780128,0.437901,0.288702,0
2024-12-13 15:38:30.445,0.227318,6.62214,13.3304,-0.764246,0.425073,0.298475,0
2024-12-13 15:38:30.448,0.222533,6.64846,13.462,-0.74531,0.411024,0.307638,0
2024-12-13 15:38:30.450,0.244068,6.67239,13.5841,-0.726374,0.396974,0.319855,0
2024-12-13 15:38:30.452,0.258425,6.71306,13.7228,-0.704383,0.383536,0.331461,0
2024-12-13 15:38:30.455,0.267996,6.75135,13.8595,-0.704383,0.383536,0.331461,0
2024-12-13 15:38:30.457,0.30658,6.77767,14.0007,-0.656126,0.354826,0.356506,0
2024-12-13 15:38:30.459,0.354437,6.80878,14.1371,-0.629249,0.3365,0.368723,0
2024-12-13 15:38:30.462,0.414257,6.83271,14.2687,-0.600539,0.321229,0.378496,0
2024-12-13 15:38:30.464,0.476471,6.85185,14.4054,-0.573051,0.304126,0.389491,0
2024-12-13 15:38:30.467,0.541077,6.87817,14.5537,-0.542509,0.29313,0.403541,0
2024-12-13 15:38:30.469,0.617647,6.91167,14.6734,-0.510745,0.282746,0.412093,0
2024-12-13 15:38:30.471,0.658325,6.95474,14.7667,-0.474705,0.271751,0.423088,0
2024-12-13 15:38:30.474,0.684646,6.99302,14.8552,-0.438054,0.266864,0.433472,0
2024-12-13 15:38:30.476,0.722932,7.03879,14.9273,-0.400792,0.261977,0.442024,0
2024-12-13 15:38:30.478,0.742074,7.08186,14.9919,-0.36292,0.259534,0.45302,0
2024-12-13 15:38:30.481,0.751645,7.13689,15.0326,-0.323215,0.25648,0.461571,0
2024-12-13 15:38:30.483,0.756431,7.20389,15.0541,-0.285953,0.254036,0.471956,0
2024-12-13 15:38:30.485,0.754038,7.24936,15.0589,-0.249913,0.250982,0.481729,0
2024-12-13 15:38:30.488,0.754038,7.2996,15.035,-0.216927,0.246706,0.48967,0
2024-12-13 15:38:30.490,0.758824,7.36421,14.9824,-0.185163,0.239987,0.498222,0
2024-12-13 15:38:30.492,0.780359,7.42882,14.9201,-0.155842,0.232656,0.507996,0
2024-12-13 15:38:30.495,0.830609,7.45992,14.8576,-0.127743,0.224105,0.514715,0
2024-12-13 15:38:30.497,0.885943,7.46949,14.8026,-0.106975,0.21372,0.51838,0
2024-12-13 15:38:30.500,0.929013,7.49103,14.7404,-0.0886492,0.200282,0.521434,0
2024-12-13 15:38:30.502,0.981655,7.50778,14.6854,-0.0752106,0.183789,0.520824,0
2024-12-13 15:38:30.504,1.05344,7.52214,14.6375,-0.065437,0.166074,0.517769,0
2024-12-13 15:38:30.507,1.12522,7.5341,14.5801,-0.057496,0.146527,0.512883,0
2024-12-13 15:38:30.509,1.19701,7.53889,14.5322,-0.0556635,0.123926,0.504942,0
2024-12-13 15:38:30.511,1.30229,7.5341,14.5059,-0.0556635,0.0970484,0.49639,0
2024-12-13 15:38:30.514,1.41027,7.51735,14.5011,-0.0617719,0.0726145,0.484784,0
2024-12-13 15:38:30.516,1.50598,7.49103,14.5083,-0.0709346,0.0457372,0.465237,0
2024-12-13 15:38:30.518,1.61366,7.44317,14.5179,-0.0825407,0.0182491,0.445689,0
2024-12-13 15:38:30.521,1.72373,7.37857,14.5442,-0.0972011,-0.00618483,0.423088,0
2024-12-13 15:38:30.523,1.80509,7.31875,14.6016,-0.116137,-0.0318404,0.398043,0
2024-12-13 15:38:30.525,1.88405,7.26132,14.683,-0.132019,-0.0519984,0.368723,0
2024-12-13 15:38:30.528,1.96301,7.17996,14.7906,-0.150345,-0.0660479,0.336959,0
2024-12-13 15:38:30.530,2.03988,7.07468,14.9273,-0.16867,-0.0739889,0.306416,0
2024-12-13 15:38:30.533,2.11645,6.94517,15.0948,-0.186996,-0.0764323,0.271598,0
2024-12-13 15:38:30.535,2.19063,6.8016,15.2886,-0.202267,-0.0745997,0.239223,0
2024-12-13 15:38:30.537,2.27916,6.65324,15.4732,-0.215705,-0.0636045,0.202572,0
2024-12-13 15:38:30.540,2.34138,6.49292,15.6503,-0.215705,-0.0636045,0.202572,0
2024-12-13 15:38:30.542,2.37248,6.32991,15.8632,-0.224257,-0.0257319,0.132859,0
2024-12-13 15:38:30.544,2.3988,6.16002,16.0765,-0.223036,0.000534491,0.0968193,0
2024-12-13 15:38:30.548,2.41077,5.99492,16.2607,-0.207154,0.0548999,0.0296261,0
2024-12-13 15:38:30.549,2.4012,5.82951,16.4354,-0.207154,0.0548999,0.0296261,0
2024-12-13 15:38:30.551,2.37488,5.64766,16.5936,-0.189439,0.0860531,-0.00335966,0
2024-12-13 15:38:30.554,2.34138,5.45384,16.7228,-0.189439,0.0860531,-0.00335966,0
2024-12-13 15:38:30.556,2.30548,5.23819,16.8257,-0.143625,0.145305,-0.0626118,0
2024-12-13 15:38:30.558,2.25045,5.0013,16.9238,-0.109418,0.172183,-0.0894891,3
2024-12-13 15:38:30.561,2.21456,4.75693,16.9956,-0.0691021,0.203947,-0.115145,0
2024-12-13 15:38:30.563,2.17627,4.52722,17.0363,-0.0184018,0.231435,-0.135303,0
2024-12-13 15:38:30.565,2.09013,4.28555,17.0411,0.0341311,0.260145,-0.156071,0
2024-12-13 15:38:30.568,2.00638,4.03879,17.0195,0.0970484,0.29313,-0.173786,0
2024-12-13 15:38:30.570,1.89601,3.80668,16.9765,0.168517,0.32184,-0.189668,0
2024-12-13 15:38:30.573,1.75484,3.58624,16.8903,0.241819,0.35055,-0.196387,0
2024-12-13 15:38:30.575,1.59452,3.38525,16.742,0.323673,0.378649,-0.203107,0
2024-12-13 15:38:30.577,1.39561,3.20818,16.5503,0.409268,0.403083,-0.203718,0
2024-12-13 15:38:30.580,1.17069,3.04995,16.3349,0.499673,0.431793,-0.198831,0
2024-12-13 15:38:30.582,0.940978,2.91356,16.0908,0.592522,0.459281,-0.185392,0
2024-12-13 15:38:30.584,0.701396,2.8011,15.8201,0.689647,0.483715,-0.164623,0
2024-12-13 15:38:30.589,0.18664,2.59771,15.2025,0.888172,0.528917,-0.102928,0
2024-12-13 15:38:30.589,0.18664,2.59771,15.2025,0.888172,0.528917,-0.102928,0
2024-12-13 15:38:30.594,-0.0478565,2.52084,14.4987,1.08425,0.555184,-0.0143549,0
2024-12-13 15:38:30.594,-0.287438,2.45384,14.4987,1.08425,0.555184,-0.0143549,0
2024-12-13 15:38:30.596,-0.533899,2.37966,14.0988,1.17955,0.561292,0.0363454,0
2024-12-13 15:38:30.598,-0.751645,2.29352,13.6702,1.27423,0.560681,0.0937651,0
2024-12-13 15:38:30.603,-1.11805,2.17627,12.7295,1.45076,0.53808,0.212957,0
2024-12-13 15:38:30.603,-1.11805,2.17627,12.7295,1.45076,0.53808,0.212957,0
2024-12-13 15:38:30.606,-1.28076,2.13081,12.2483,1.53262,0.519755,0.277096,0
2024-12-13 15:38:30.608,-1.40548,2.10688,11.7574,1.60714,0.496542,0.341845,0
2024-12-13 15:38:30.610,-1.51077,2.09252,11.257,1.67189,0.466,0.406595,0
2024-12-13 15:38:30.613,-1.58016,2.08295,10.7447,1.73603,0.431793,0.468902,0
2024-12-13 15:38:30.615,-1.6328,2.08535,10.2491,1.78856,0.393309,0.533651,0
2024-12-13 15:38:30.617,-1.67348,2.10449,9.78216,1.83132,0.343831,0.595347,0
2024-12-13 15:38:30.620,-1.69023,2.12602,9.31795,1.86919,0.291909,0.652767,0
2024-12-13 15:38:30.622,-1.69741,2.15234,8.87259,1.89729,0.236932,0.707132,0
2024-12-13 15:38:30.624,-1.67109,2.20738,8.46072,1.9205,0.172793,0.761497,0
2024-12-13 15:38:30.627,-1.62562,2.28156,8.07996,1.93272,0.109265,0.810365,0
2024-12-13 15:38:30.629,-1.58734,2.34856,7.73779,1.93883,0.0390179,0.85679,0
2024-12-13 15:38:30.631,-1.52034,2.41795,7.41925,1.93944,-0.0324513,0.898938,0
2024-12-13 15:38:30.634,-1.41984,2.49691,7.12493,1.93333,-0.102088,0.938032,0
2024-12-13 15:38:30.636,-1.28554,2.56421,6.85663,1.92356,-0.172335,0.968575,0
2024-12-13 15:38:30.638,-1.1348,2.61446,6.63649,1.90829,-0.241361,0.994841,0
2024-12-13 15:38:30.641,-0.974477,2.68146,6.44955,1.89118,-0.309776,1.01683,0
2024-12-13 15:38:30.643,-0.809073,2.76999,6.28684,1.86736,-0.379413,1.03149,0
2024-12-13 15:38:30.646,-0.655932,2.87049,6.1337,1.84048,-0.439886,1.04127,0
2024-12-13 15:38:30.648,-0.495613,2.9662,5.9997,1.81238,-0.491808,1.04615,0
2024-12-13 15:38:30.650,-0.313759,3.05234,5.89442,1.78245,-0.541898,1.04127,0
2024-12-13 15:38:30.653,-0.133998,3.14596,5.81037,1.75313,-0.580381,1.03149,0
2024-12-13 15:38:30.655,0.0574277,3.24168,5.74337,1.72198,-0.617032,1.01866,0
2024-12-13 15:38:30.657,0.256032,3.3326,5.70509,1.69266,-0.646964,0.998506,0
2024-12-13 15:38:30.660,0.438186,3.40678,5.69791,1.66212,-0.668954,0.97224,0
2024-12-13 15:38:30.662,0.617647,3.46421,5.68834,1.63096,-0.684836,0.942308,0
2024-12-13 15:38:30.664,0.780359,3.53599,5.68595,1.60286,-0.69461,0.906879,0
2024-12-13 15:38:30.667,0.938585,3.59821,5.67877,1.57232,-0.701329,0.867785,0
2024-12-13 15:38:30.669,1.09651,3.64606,5.66202,1.54483,-0.703162,0.825026,0
2024-12-13 15:38:30.671,1.22572,3.68704,5.65005,1.5149,-0.701329,0.779212,0
2024-12-13 15:38:30.674,1.34297,3.71575,5.61655,1.48802,-0.690945,0.730344,0
2024-12-13 15:38:30.676,1.44616,3.7325,5.57348,1.45992,-0.678117,0.680255,0
2024-12-13 15:38:30.679,1.5323,3.75883,5.52802,1.42877,-0.664678,0.629554,0
2024-12-13 15:38:30.681,1.61127,3.766,5.47298,1.39701,-0.648796,0.579465,0
2024-12-13 15:38:30.683,1.67109,3.74447,5.41316,1.36341,-0.631082,0.526932,0
2024-12-13 15:38:30.686,1.71655,3.72533,5.33659,1.32859,-0.609091,0.474399,0
2024-12-13 15:38:30.688,1.77398,3.72054,5.26451,1.2895,-0.589544,0.423699,0
2024-12-13 15:38:30.693,1.82184,3.68465,5.10658,1.20948,-0.546174,0.326574,0
2024-12-13 15:38:30.693,1.82184,3.68465,5.10658,1.20948,-0.546174,0.326574,0
2024-12-13 15:38:30.695,1.81705,3.65354,5.02762,1.16366,-0.522351,0.278317,0
2024-12-13 15:38:30.697,1.78834,3.63649,4.96062,1.11724,-0.497917,0.235558,0
2024-12-13 15:38:30.700,1.75244,3.61974,4.90319,1.06837,-0.469818,0.191577,0
2024-12-13 15:38:30.702,1.6998,3.58385,4.85294,1.01706,-0.440497,0.149429,0
2024-12-13 15:38:30.704,1.65673,3.54556,4.81705,0.963917,-0.411177,0.11148,0
2024-12-13 15:38:30.707,1.59212,3.51685,4.78834,0.910162,-0.380634,0.0760505,0
2024-12-13 15:38:30.709,1.51316,3.49532,4.75215,0.855797,-0.351314,0.0406213,0
2024-12-13 15:38:30.711,1.42463,3.46899,4.72104,0.802653,-0.320771,0.00946813,0
2024-12-13 15:38:30.714,1.33579,3.41635,4.71625,0.746455,-0.287785,-0.0198525,0
2024-12-13 15:38:30.716,1.24726,3.38525,4.72343,0.69209,-0.259076,-0.0479515,0
2024-12-13 15:38:30.719,1.15155,3.37567,4.74497,0.637725,-0.227312,-0.0711637,0
2024-12-13 15:38:30.721,1.05105,3.34457,4.78834,0.582748,-0.193715,-0.0913217,0
2024-12-13 15:38:30.723,0.936192,3.32064,4.81705,0.530826,-0.161951,-0.11148,0
2024-12-13 15:38:30.726,0.828216,3.31107,4.84816,0.476461,-0.124078,-0.127362,0
2024-12-13 15:38:30.728,0.744467,3.29432,4.88884,0.425761,-0.0849841,-0.141411,0
2024-12-13 15:38:30.730,0.663111,3.25843,4.90798,0.376282,-0.0458899,-0.152406,0
2024-12-13 15:38:30.733,0.581755,3.22971,4.93669,0.328559,-0.00435229,-0.16218,0
2024-12-13 15:38:30.735,0.521934,3.19382,4.96541,0.280303,0.038407,-0.168899,0
2024-12-13 15:38:30.740,0.3999,3.11486,5.02044,0.188065,0.121482,-0.180505,0
2024-12-13 15:38:30.740,0.3999,3.11486,5.02044,0.188065,0.121482,-0.180505,0
2024-12-13 15:38:30.742,0.354437,3.09332,5.0348,0.141029,0.159966,-0.18417,0
2024-12-13 15:38:30.744,0.301795,3.05952,5.07548,0.0982701,0.19906,-0.187836,0
2024-12-13 15:38:30.747,0.253639,3.03081,5.13769,0.058565,0.232046,-0.193333,0
2024-12-13 15:38:30.749,0.217747,2.99492,5.21426,0.0182491,0.264421,-0.195777,0
2024-12-13 15:38:30.752,0.184247,2.95185,5.3004,-0.0184018,0.293741,-0.195166,0
2024-12-13 15:38:30.754,0.141177,2.92792,5.38924,-0.0538309,0.318786,-0.199442,0
2024-12-13 15:38:30.756,0.105284,2.90638,5.48734,-0.0831516,0.341998,-0.201885,0
2024-12-13 15:38:30.759,0.0717847,2.88245,5.58545,-0.111861,0.362767,-0.201274,0
2024-12-13 15:38:30.761,0.0311067,2.84895,5.67877,-0.135684,0.378038,-0.201274,0
2024-12-13 15:38:30.763,0.0,2.81545,5.79123,-0.154621,0.39392,-0.200052,0
2024-12-13 15:38:30.766,-0.0191426,2.81067,5.89203,-0.172946,0.405526,-0.201885,0
2024-12-13 15:38:30.768,-0.0287139,2.78435,5.98535,-0.188217,0.414078,-0.202496,0
2024-12-13 15:38:30.770,-0.040678,2.74606,6.08585,-0.198602,0.42263,-0.201885,0
2024-12-13 15:38:30.773,-0.0574277,2.72453,6.17199,-0.205932,0.428128,-0.204939,0
2024-12-13 15:38:30.775,-0.0574277,2.70539,6.24856,-0.210208,0.434236,-0.206161,0
2024-12-13 15:38:30.777,-0.0574277,2.69103,6.34188,-0.210819,0.442788,-0.20555,0
2024-12-13 15:38:30.780,-0.0717847,2.67428,6.40888,-0.213262,0.448286,-0.20555,0
2024-12-13 15:38:30.782,-0.0717847,2.64796,6.43998,-0.208986,0.456837,-0.206772,0
2024-12-13 15:38:30.785,-0.081356,2.61924,6.47857,-0.201045,0.467222,-0.209826,0
2024-12-13 15:38:30.787,-0.0981057,2.58574,6.52403,-0.195547,0.475774,-0.209826,0
2024-12-13 15:38:30.789,-0.117248,2.5666,6.536,-0.183941,0.484936,-0.210437,0
2024-12-13 15:38:30.792,-0.143569,2.54746,6.52164,-0.172335,0.491656,-0.210437,0
2024-12-13 15:38:30.794,-0.184247,2.52084,6.53121,-0.162562,0.497153,-0.210437,0
2024-12-13 15:38:30.796,-0.234497,2.50887,6.51925,-0.147901,0.500208,-0.208604,0
2024-12-13 15:38:30.799,-0.27996,2.51366,6.47857,-0.13263,0.498375,-0.206161,0
2024-12-13 15:38:30.801,-0.347258,2.51366,6.44238,-0.119192,0.497153,-0.204328,0
2024-12-13 15:38:30.803,-0.419043,2.52832,6.38495,-0.105142,0.492877,-0.199442,0
2024-12-13 15:38:30.806,-0.481256,2.54028,6.29163,-0.0917034,0.486769,-0.192722,0
2024-12-13 15:38:30.808,-0.533899,2.54028,6.19352,-0.077654,0.478217,-0.186003,0
2024-12-13 15:38:30.810,-0.586541,2.55464,6.09063,-0.0666587,0.466,-0.176229,0
2024-12-13 15:38:30.813,-0.648754,2.57857,5.99731,-0.0581068,0.450118,-0.166456,0
2024-12-13 15:38:30.815,-0.694218,2.59292,5.90399,-0.0465007,0.434236,-0.15485,0
2024-12-13 15:38:30.817,-0.715753,2.60967,5.78644,-0.0410031,0.414689,-0.143244,0
2024-12-13 15:38:30.820,-0.758824,2.64556,5.6692,-0.0361163,0.39392,-0.13347,0
2024-12-13 15:38:30.822,-0.799502,2.67667,5.55434,-0.0342838,0.373762,-0.121253,0
2024-12-13 15:38:30.825,-0.816252,2.71496,5.45863,-0.0367272,0.352993,-0.106593,0
2024-12-13 15:38:30.827,-0.825823,2.76999,5.36291,-0.041614,0.332835,-0.0925434,0
2024-12-13 15:38:30.829,-0.833001,2.82742,5.28844,-0.0434465,0.312677,-0.0809373,0
2024-12-13 15:38:30.832,-0.811466,2.88006,5.24058,-0.0513875,0.294963,-0.0656661,0
2024-12-13 15:38:30.834,-0.770788,2.92313,5.1664,-0.0562743,0.277859,-0.0534491,0
2024-12-13 15:38:30.836,-0.754038,2.96142,5.10658,-0.065437,0.261366,-0.0424539,0
2024-12-13 15:38:30.839,-0.732503,2.99731,5.05873,-0.0770431,0.247317,-0.0308478,0
2024-12-13 15:38:30.843,-0.646361,3.07388,4.99173,-0.0978119,0.224715,-0.0131332,0
2024-12-13 15:38:30.843,-0.646361,3.07388,4.99173,-0.0978119,0.224715,-0.0131332,0
2024-12-13 15:38:30.846,-0.610469,3.10529,4.97258,-0.113083,0.211888,-0.0064139,0
2024-12-13 15:38:30.848,-0.538684,3.14357,4.95105,-0.128354,0.203336,0.00213797,0
2024-12-13 15:38:30.850,-0.474078,3.17946,4.94626,-0.142404,0.195395,0.00397051,0
2024-12-13 15:38:30.853,-0.41665,3.21057,4.95823,-0.156453,0.19173,0.00458135,0
2024-12-13 15:38:30.858,-0.272782,3.28714,4.95105,-0.186996,0.1844,0.00702474,0
2024-12-13 15:38:30.858,-0.272782,3.28714,4.95105,-0.186996,0.1844,0.00702474,0
2024-12-13 15:38:30.860,-0.227318,3.32064,4.95105,-0.205321,0.185621,0.00580305,0
2024-12-13 15:38:30.862,-0.18664,3.35653,4.96541,-0.220592,0.183789,0.00152712,0
2024-12-13 15:38:30.865,-0.143569,3.38525,4.99412,-0.235253,0.183789,-0.000916271,0
2024-12-13 15:38:30.867,-0.107677,3.42114,5.02044,-0.255411,0.185621,-0.00335966,0
2024-12-13 15:38:30.869,-0.0646062,3.45942,5.06351,-0.272514,0.186232,-0.00885729,0
2024-12-13 15:38:30.872,-0.0311067,3.48574,5.09462,-0.289007,0.188675,-0.0137441,0
2024-12-13 15:38:30.876,0.00717847,3.54078,5.17358,-0.323825,0.194173,-0.0247393,0
2024-12-13 15:38:30.876,0.00717847,3.54078,5.17358,-0.323825,0.194173,-0.0247393,0
2024-12-13 15:38:30.879,0.040678,3.55274,5.21426,-0.340318,0.197227,-0.0296261,0
2024-12-13 15:38:30.881,0.0741775,3.57189,5.26929,-0.354979,0.203336,-0.0375671,0
2024-12-13 15:38:30.883,0.0861416,3.59342,5.31715,-0.367196,0.209444,-0.0424539,0
2024-12-13 15:38:30.886,0.0981057,3.61496,5.35334,-0.380634,0.214331,-0.0479515,0
2024-12-13 15:38:30.888,0.102891,3.63171,5.38445,-0.395295,0.217996,-0.0558925,0
2024-12-13 15:38:30.890,0.0981057,3.65115,5.42991,-0.409955,0.222272,-0.0595576,0
2024-12-13 15:38:30.893,0.0981057,3.68465,5.47298,-0.424615,0.22777,-0.0668878,0
2024-12-13 15:38:30.895,0.112463,3.71815,5.50409,-0.437443,0.230824,-0.0729962,0
2024-12-13 15:38:30.898,0.112463,3.74447,5.54955,-0.450271,0.232046,-0.077883,0
2024-12-13 15:38:30.900,0.112463,3.75404,5.58305,-0.46432,0.232046,-0.0839915,0
2024-12-13 15:38:30.902,0.129212,3.78275,5.64048,-0.46432,0.232046,-0.0839915,0
2024-12-13 15:38:30.905,0.124427,3.82343,5.70987,-0.488754,0.230213,-0.0931542,0
2024-12-13 15:38:30.907,0.102891,3.85215,5.7673,-0.502193,0.228991,-0.0992627,0
2024-12-13 15:38:30.909,0.0861416,3.88804,5.82712,-0.513188,0.227159,-0.106593,0
2024-12-13 15:38:30.912,0.0717847,3.92154,5.89203,-0.525405,0.224715,-0.110869,0
2024-12-13 15:38:30.914,0.0526421,3.95504,5.9662,-0.535179,0.22044,-0.116977,0
2024-12-13 15:38:30.917,0.0382852,3.99332,6.02842,-0.544341,0.215553,-0.122475,0
2024-12-13 15:38:30.919,0.0119641,4.02443,6.09542,-0.553504,0.210055,-0.127362,0
2024-12-13 15:38:30.921,-0.0239282,4.04357,6.18395,-0.559002,0.201503,-0.131638,0
2024-12-13 15:38:30.923,-0.0454636,4.07707,6.26052,-0.565721,0.195395,-0.135303,0
2024-12-13 15:38:30.926,-0.0789631,4.11057,6.3347,-0.573051,0.187454,-0.139579,0
2024-12-13 15:38:30.928,-0.105284,4.13689,6.4017,-0.577938,0.175237,-0.143855,0
2024-12-13 15:38:30.933,-0.141177,4.20628,6.55274,-0.588322,0.154468,-0.14813,0
2024-12-13 15:38:30.933,-0.141177,4.20628,6.55274,-0.588322,0.154468,-0.14813,0
2024-12-13 15:38:30.935,-0.172283,4.22812,6.61735,-0.592598,0.140419,-0.154239,0
2024-12-13 15:38:30.938,-0.189033,4.26401,6.67478,-0.596263,0.128812,-0.155461,0
2024-12-13 15:38:30.940,-0.210568,4.29512,6.73221,-0.602983,0.115374,-0.157904,0
2024-12-13 15:38:30.942,-0.244068,4.32622,6.77767,-0.606648,0.102546,-0.158515,0
2024-12-13 15:38:30.945,-0.282652,4.37169,6.83031,-0.607259,0.0921616,-0.158515,0
2024-12-13 15:38:30.947,-0.311366,4.43629,6.89731,-0.616421,0.0768904,-0.156071,0
2024-12-13 15:38:30.949,-0.330509,4.47458,6.94995,-0.620697,0.0640626,-0.15485,0
2024-12-13 15:38:30.952,-0.349651,4.49133,7.0002,-0.629249,0.0481806,-0.151185,0
2024-12-13 15:38:30.954,-0.35683,4.52004,7.06511,-0.636579,0.0353528,-0.148741,0
2024-12-13 15:38:30.956,-0.361615,4.54876,7.13211,-0.645131,0.022525,-0.145076,0
2024-12-13 15:38:30.959,-0.368794,4.58943,7.2015,-0.653683,0.00786466,-0.142022,0
2024-12-13 15:38:30.961,-0.366401,4.61336,7.27807,-0.662846,-0.00313059,-0.139579,0
2024-12-13 15:38:30.964,-0.35683,4.64208,7.35225,-0.670787,-0.0116825,-0.136524,0
2024-12-13 15:38:30.966,-0.344866,4.67797,7.42882,-0.679339,-0.0159584,-0.134081,0
2024-12-13 15:38:30.968,-0.316152,4.68993,7.52453,-0.690334,-0.0190126,-0.132859,0
2024-12-13 15:38:30.971,-0.270389,4.69472,7.62054,-0.700107,-0.0257319,-0.128583,0
2024-12-13 15:38:30.973,-0.234497,4.71147,7.71865,-0.708659,-0.0269536,-0.125529,0
2024-12-13 15:38:30.975,-0.184247,4.72104,7.8359,-0.717211,-0.0281753,-0.123086,0
2024-12-13 15:38:30.978,-0.124427,4.7354,7.95075,-0.724541,-0.0275645,-0.121864,0
2024-12-13 15:38:30.980,-0.0789631,4.74018,8.06082,-0.731261,-0.0269536,-0.11881,0
2024-12-13 15:38:30.982,-0.0239282,4.733,8.18555,-0.736758,-0.0275645,-0.120031,0
2024-12-13 15:38:30.985,0.0478565,4.74497,8.30997,-0.739812,-0.0245102,-0.117588,0
2024-12-13 15:38:30.987,0.105284,4.75215,8.41287,-0.741645,-0.021456,-0.116366,0
2024-12-13 15:38:30.989,0.155533,4.76172,8.52533,-0.744699,-0.0184018,-0.113923,0
2024-12-13 15:38:30.992,0.215354,4.78355,8.64736,-0.746532,-0.0141258,-0.115756,0
2024-12-13 15:38:30.994,0.267996,4.80509,8.75055,-0.747753,-0.00984991,-0.115145,0
2024-12-13 15:38:30.996,0.313759,4.8338,8.84626,-0.749586,-0.00435229,-0.115145,0
2024-12-13 15:38:30.999,0.361615,4.85055,8.95394,-0.748364,0.00114534,-0.116977,0
2024-12-13 15:38:31.004,0.502792,4.84098,9.20997,-0.739202,0.0188599,-0.124918,0
2024-12-13 15:38:31.004,0.502792,4.84098,9.20997,-0.739202,0.0188599,-0.124918,0
2024-12-13 15:38:31.006,0.474078,4.91516,9.30838,-0.73798,0.0261901,-0.129194,0
2024-12-13 15:38:31.008,0.423829,4.99891,9.37777,-0.731871,0.0329094,-0.131027,0
2024-12-13 15:38:31.013,0.313759,5.2023,9.54527,-0.72332,0.050624,-0.13347,0
2024-12-13 15:38:31.013,0.313759,5.2023,9.54527,-0.72332,0.050624,-0.13347,0
2024-12-13 15:38:31.015,0.287438,5.28365,9.59791,-0.720876,0.0561216,-0.13347,0
2024-12-13 15:38:31.018,0.287438,5.35095,9.65055,-0.715379,0.0616192,-0.132248,0
2024-12-13 15:38:31.020,0.304188,5.41795,9.70319,-0.713546,0.0671168,-0.13347,0
2024-12-13 15:38:31.022,0.316152,5.47298,9.7343,-0.712324,0.0750579,-0.134081,0
2024-12-13 15:38:31.025,0.330509,5.50888,9.75105,-0.711103,0.0811663,-0.138357,0
2024-12-13 15:38:31.027,0.359223,5.5328,9.77977,-0.711713,0.0842206,-0.142022,0
2024-12-13 15:38:31.029,0.383151,5.54477,9.83031,-0.709881,0.0915507,-0.149352,0
2024-12-13 15:38:31.032,0.366401,5.61416,9.87578,-0.711103,0.0970484,-0.15485,0
2024-12-13 15:38:31.034,0.318545,5.71466,9.87817,-0.711103,0.101935,-0.16218,0
2024-12-13 15:38:31.037,0.272782,5.80319,9.89492,-0.7166,0.100713,-0.167678,0
2024-12-13 15:38:31.039,0.224925,5.91596,9.94517,-0.726374,0.0958267,-0.170121,0
2024-12-13 15:38:31.041,0.184247,6.01645,9.98585,-0.726985,0.0915507,-0.173786,0
2024-12-13 15:38:31.044,0.148355,6.07867,10.0648,-0.734315,0.0817772,-0.177451,0
2024-12-13 15:38:31.046,0.148355,6.11934,10.1701,-0.746532,0.0695602,-0.181116,0
2024-12-13 15:38:31.048,0.160319,6.16242,10.2634,-0.753862,0.0567324,-0.187225,0
2024-12-13 15:38:31.051,0.119641,6.24856,10.3496,-0.75997,0.0377962,-0.193944,0
2024-12-13 15:38:31.053,0.0789631,6.33948,10.4551,-0.770355,0.0139731,-0.19822,0
2024-12-13 15:38:31.055,0.0837488,6.40409,10.5844,-0.782572,-0.00862822,-0.203718,0
2024-12-13 15:38:31.058,0.0885344,6.44716,10.7303,-0.792956,-0.029397,-0.208604,0
2024-12-13 15:38:31.060,0.0837488,6.49532,10.8763,-0.799065,-0.0532201,-0.214102,0
2024-12-13 15:38:31.062,0.0717847,6.54557,11.0249,-0.804562,-0.0758214,-0.218989,0
2024-12-13 15:38:31.065,0.0622134,6.57189,11.1996,-0.811282,-0.0984228,-0.223265,0
2024-12-13 15:38:31.067,0.0837488,6.61735,11.3958,-0.811282,-0.0984228,-0.223265,0
2024-12-13 15:38:31.069,0.0957129,6.67239,11.5875,-0.814336,-0.147901,-0.231206,0
2024-12-13 15:38:31.072,0.0981057,6.70589,11.7861,-0.816168,-0.172946,-0.235482,0
2024-12-13 15:38:31.074,0.11007,6.7346,11.9871,-0.813725,-0.198602,-0.239147,0
2024-12-13 15:38:31.077,0.12682,6.77049,12.1884,-0.810671,-0.223646,-0.24159,0
2024-12-13 15:38:31.079,0.155533,6.8016,12.4038,-0.805784,-0.245637,-0.242201,0
2024-12-13 15:38:31.081,0.193819,6.83271,12.5904,-0.799065,-0.265795,-0.242201,0
2024-12-13 15:38:31.084,0.236889,6.87099,12.7654,-0.789902,-0.285342,-0.244033,0
2024-12-13 15:38:31.086,0.299402,6.89731,12.9544,-0.779517,-0.303057,-0.245255,0
2024-12-13 15:38:31.088,0.359223,6.92602,13.1339,-0.769744,-0.315884,-0.246477,0
2024-12-13 15:38:31.091,0.409472,6.94277,13.3089,-0.759359,-0.32749,-0.246477,0
2024-12-13 15:38:31.093,0.476471,6.94517,13.5075,-0.744699,-0.332377,-0.247699,0
2024-12-13 15:38:31.095,0.548256,6.98106,13.6941,-0.728817,-0.338486,-0.24892,0
2024-12-13 15:38:31.098,0.624826,7.01217,13.8619,-0.711713,-0.339707,-0.251974,0
2024-12-13 15:38:31.100,0.689432,7.02922,14.0342,-0.69461,-0.335431,-0.25564,0
2024-12-13 15:38:31.102,0.751645,7.06032,14.2041,-0.67323,-0.328712,-0.258694,0
2024-12-13 15:38:31.105,0.818644,7.08186,14.3647,-0.650018,-0.317717,-0.263581,0
2024-12-13 15:38:31.107,0.864407,7.11057,14.5083,-0.627416,-0.303667,-0.270911,0
2024-12-13 15:38:31.110,0.893121,7.14886,14.6303,-0.602983,-0.285953,-0.278241,0
2024-12-13 15:38:31.112,0.926621,7.18236,14.7404,-0.577938,-0.270071,-0.281906,0
2024-12-13 15:38:31.114,0.938585,7.22064,14.8433,-0.551671,-0.251135,-0.289847,0
2024-12-13 15:38:31.117,0.940978,7.25893,14.9082,-0.522962,-0.234031,-0.29901,0
2024-12-13 15:38:31.119,0.940978,7.29243,14.9608,-0.494863,-0.215705,-0.308172,0
2024-12-13 15:38:31.121,0.919442,7.32832,15.0183,-0.469818,-0.201045,-0.315503,0
2024-12-13 15:38:31.124,0.888335,7.38096,15.0661,-0.443551,-0.186996,-0.324665,0
2024-12-13 15:38:31.126,0.837787,7.42403,15.0733,-0.419118,-0.173557,-0.333217,0
2024-12-13 15:38:31.128,0.773181,7.47189,15.0565,-0.394684,-0.160729,-0.342991,0
2024-12-13 15:38:31.131,0.708575,7.53171,15.0422,-0.369639,-0.152788,-0.34971,0
2024-12-13 15:38:31.133,0.639183,7.57239,15.0206,-0.346427,-0.144847,-0.357651,0
2024-12-13 15:38:31.140,0.414257,7.6684,14.9584,-0.290229,-0.150345,-0.369257,0
2024-12-13 15:38:31.140,0.414257,7.6684,14.9584,-0.290229,-0.150345,-0.369257,0
2024-12-13 15:38:31.142,0.419043,7.63968,14.9871,-0.272514,-0.157064,-0.372311,0
2024-12-13 15:38:31.142,0.419043,7.63968,14.9871,-0.272514,-0.157064,-0.372311,0
2024-12-13 15:38:31.145,0.361615,7.64447,14.9919,-0.256021,-0.163783,-0.379642,0
2024-12-13 15:38:31.152,0.0741775,7.84786,14.8723,-0.219981,-0.221814,-0.381474,0
2024-12-13 15:38:31.154,0.0478565,7.867,14.8552,-0.21204,-0.242583,-0.377198,0
2024-12-13 15:38:31.154,0.0478565,7.867,14.8552,-0.21204,-0.242583,-0.377198,0
2024-12-13 15:38:31.157,0.0382852,7.8694,14.8409,-0.20471,-0.26946,-0.377198,0
2024-12-13 15:38:31.157,0.0382852,7.8694,14.8409,-0.20471,-0.26946,-0.377198,0
2024-12-13 15:38:31.159,0.0454636,7.85265,14.8433,-0.199823,-0.300002,-0.374755,0
2024-12-13 15:38:31.161,0.0837488,7.82154,14.8552,-0.193715,-0.329934,-0.374144,0
2024-12-13 15:38:31.164,0.12682,7.8,14.8648,-0.191272,-0.364141,-0.375366,0
2024-12-13 15:38:31.166,0.174676,7.75693,14.889,-0.187606,-0.39896,-0.379031,0
2024-12-13 15:38:31.168,0.241675,7.69233,14.9201,-0.186385,-0.434389,-0.384528,0
2024-12-13 15:38:31.171,0.320937,7.63251,14.9704,-0.185774,-0.469207,-0.390637,0
2024-12-13 15:38:31.173,0.411865,7.56282,15.035,-0.186385,-0.502804,-0.396134,0
2024-12-13 15:38:31.175,0.512363,7.47667,15.0996,-0.184552,-0.535789,-0.403465,0
2024-12-13 15:38:31.178,0.612862,7.38335,15.1618,-0.186385,-0.565721,-0.411406,0
2024-12-13 15:38:31.180,0.725324,7.27328,15.2384,-0.183941,-0.59382,-0.420568,0
2024-12-13 15:38:31.183,0.852443,7.15364,15.3269,-0.181498,-0.618254,-0.430953,0
2024-12-13 15:38:31.185,0.984048,7.01725,15.4226,-0.180887,-0.637801,-0.440726,0
2024-12-13 15:38:31.187,1.12522,6.8686,15.5378,-0.176611,-0.654905,-0.451722,0
2024-12-13 15:38:31.190,1.27597,6.71067,15.6718,-0.170503,-0.670176,-0.464549,0
2024-12-13 15:38:31.192,1.42941,6.52164,15.8082,-0.163783,-0.678728,-0.476155,0
2024-12-13 15:38:31.194,1.61366,6.32513,15.9422,-0.155232,-0.688501,-0.489594,0
2024-12-13 15:38:31.197,1.80509,6.13609,16.0884,-0.142404,-0.690945,-0.506087,0
2024-12-13 15:38:31.199,1.9992,5.9327,16.2344,-0.127743,-0.688501,-0.521969,0
2024-12-13 15:38:31.201,2.2002,5.71705,16.3684,-0.11064,-0.679949,-0.542127,3
2024-12-13 15:38:31.204,2.39402,5.50648,16.5072,-0.0880384,-0.665289,-0.562896,0
2024-12-13 15:38:31.206,2.55703,5.30519,16.6152,-0.0587177,-0.643909,-0.58733,0
2024-12-13 15:38:31.208,2.70299,5.09701,16.6965,-0.0275645,-0.617643,-0.612374,0
2024-12-13 15:38:31.211,2.85135,4.87926,16.7563,0.00603212,-0.588933,-0.636808,0
2024-12-13 15:38:31.213,2.97099,4.67079,16.7779,0.0457372,-0.551061,-0.661242,0
2024-12-13 15:38:31.216,3.05474,4.45065,16.7611,0.0878856,-0.510745,-0.691174,0
2024-12-13 15:38:31.218,3.11725,4.25683,16.6822,0.133699,-0.46432,-0.716829,0
2024-12-13 15:38:31.220,3.14357,4.0675,16.5601,0.18501,-0.415452,-0.742485,0
2024-12-13 15:38:31.223,3.134,3.84257,16.4043,0.238765,-0.359865,-0.765697,0
2024-12-13 15:38:31.225,3.09332,3.61496,16.2392,0.294352,-0.302446,-0.786466,0
2024-12-13 15:38:31.227,3.01406,3.41157,16.0597,0.356658,-0.245637,-0.807845,0
2024-12-13 15:38:31.230,2.89203,3.22971,15.8632,0.420263,-0.182109,-0.822506,0
2024-12-13 15:38:31.232,2.74846,3.07867,15.6479,0.487456,-0.119802,-0.838388,0
2024-12-13 15:38:31.234,2.57378,2.94706,15.3939,0.560147,-0.0544418,-0.849383,0
2024-12-13 15:38:31.237,2.37966,2.81785,15.114,0.628562,0.0127514,-0.854881,0
2024-12-13 15:38:31.239,2.17149,2.69821,14.8002,0.702474,0.0787229,-0.854881,0
2024-12-13 15:38:31.244,1.68305,2.48973,14.0557,0.851521,0.212498,-0.845718,0
2024-12-13 15:38:31.244,1.68305,2.48973,14.0557,0.851521,0.212498,-0.845718,0
2024-12-13 15:38:31.246,1.41984,2.40838,13.6463,0.924212,0.27114,-0.831058,0
2024-12-13 15:38:31.248,1.16112,2.32702,13.2251,0.996903,0.324894,-0.813954,0
2024-12-13 15:38:31.251,0.905085,2.25524,12.7798,1.06287,0.376206,-0.791963,0
2024-12-13 15:38:31.253,0.646361,2.18106,12.3105,1.1264,0.414689,-0.76753,0
2024-12-13 15:38:31.256,0.385544,2.13081,11.8268,1.18627,0.442788,-0.740041,0
2024-12-13 15:38:31.258,0.12682,2.10209,11.3216,1.24002,0.462946,-0.707667,0
2024-12-13 15:38:31.260,-0.112463,2.09013,10.8117,1.28889,0.472719,-0.675292,0
2024-12-13 15:38:31.263,-0.335294,2.07817,10.3376,1.32981,0.469665,-0.63803,0
2024-12-13 15:38:31.265,-0.541077,2.05663,9.88535,1.36463,0.460502,-0.597103,0
2024-12-13 15:38:31.267,-0.737288,2.04706,9.43281,1.39579,0.438512,-0.55862,0
2024-12-13 15:38:31.270,-0.917049,2.05663,8.99223,1.41839,0.40797,-0.520747,0
2024-12-13 15:38:31.272,-1.05583,2.0686,8.58993,1.43855,0.373151,-0.47921,0
2024-12-13 15:38:31.277,-1.25683,2.09013,7.85504,1.46481,0.281524,-0.40041,0
2024-12-13 15:38:31.277,-1.25683,2.09013,7.85504,1.46481,0.281524,-0.40041,0
2024-12-13 15:38:31.279,-1.32144,2.09252,7.52453,1.4697,0.227159,-0.36437,0
2024-12-13 15:38:31.281,-1.35972,2.11167,7.22303,1.47092,0.165463,-0.330163,0
2024-12-13 15:38:31.284,-1.35972,2.13081,6.96431,1.46848,0.0994917,-0.298399,0
2024-12-13 15:38:31.286,-1.35494,2.14995,6.72024,1.46603,0.0316877,-0.267857,0
2024-12-13 15:38:31.289,-1.35733,2.19063,6.49771,1.45809,-0.0367272,-0.239758,0
2024-12-13 15:38:31.291,-1.34297,2.24088,6.3012,1.44465,-0.107585,-0.215935,0
2024-12-13 15:38:31.293,-1.31426,2.31027,6.12652,1.43488,-0.174779,-0.190279,0
2024-12-13 15:38:31.296,-1.27358,2.3677,5.98535,1.42144,-0.24075,-0.166456,0
2024-12-13 15:38:31.298,-1.23051,2.40838,5.86062,1.40678,-0.304278,-0.146909,0
2024-12-13 15:38:31.300,-1.16351,2.44188,5.76491,1.38968,-0.366585,-0.126751,0
2024-12-13 15:38:31.303,-1.07498,2.47298,5.69791,1.37013,-0.427669,-0.110258,0
2024-12-13 15:38:31.305,-0.957727,2.50887,5.63809,1.35242,-0.488754,-0.0962084,0
2024-12-13 15:38:31.307,-0.818644,2.52832,5.60459,1.33165,-0.544952,-0.0852132,0
2024-12-13 15:38:31.312,-0.54347,2.51845,5.55673,1.29377,-0.645742,-0.0705529,0
2024-12-13 15:38:31.312,-0.54347,2.51845,5.55673,1.29377,-0.645742,-0.0705529,0
2024-12-13 15:38:31.314,-0.3999,2.5331,5.56152,1.27239,-0.689112,-0.0632227,0
2024-12-13 15:38:31.319,-0.263211,2.54267,5.59023,1.23697,-0.752029,-0.0583359,0
2024-12-13 15:38:31.319,-0.141177,2.54267,5.59023,1.23697,-0.752029,-0.0583359,0
2024-12-13 15:38:31.321,-0.0382852,2.53549,5.60937,1.22047,-0.774631,-0.0583359,0
2024-12-13 15:38:31.324,0.0693919,2.53071,5.62612,1.20459,-0.791124,-0.0558925,0
2024-12-13 15:38:31.326,0.189033,2.53789,5.64287,1.19054,-0.80273,-0.0558925,0
2024-12-13 15:38:31.329,0.292223,2.54507,5.65962,1.17466,-0.809449,-0.0552817,0
2024-12-13 15:38:31.331,0.380758,2.55464,5.65484,1.16122,-0.815557,-0.0571142,0
2024-12-13 15:38:31.333,0.474078,2.55464,5.64048,1.14412,-0.819833,-0.0552817,0
2024-12-13 15:38:31.336,0.567398,2.54507,5.62852,1.12701,-0.822888,-0.0558925,0
2024-12-13 15:38:31.338,0.646361,2.55464,5.60937,1.10808,-0.826553,-0.0565034,0
2024-12-13 15:38:31.340,0.715753,2.55703,5.58066,1.08731,-0.825942,-0.0546708,0
2024-12-13 15:38:31.343,0.797109,2.56421,5.54477,1.06593,-0.827164,-0.0546708,0
2024-12-13 15:38:31.347,0.97687,2.60728,5.50888,1.02195,-0.825331,-0.0497841,0
2024-12-13 15:38:31.347,0.97687,2.60728,5.50888,1.02195,-0.825331,-0.0497841,0
2024-12-13 15:38:31.350,1.04865,2.63121,5.49452,0.997514,-0.823498,-0.0510057,0
2024-12-13 15:38:31.352,1.13719,2.64078,5.48495,0.970636,-0.821666,-0.0522274,0
2024-12-13 15:38:31.354,1.22333,2.65274,5.47538,0.946813,-0.815557,-0.0516166,0
2024-12-13 15:38:31.357,1.29272,2.67428,5.44906,0.919936,-0.810671,-0.05406,0
2024-12-13 15:38:31.359,1.36211,2.71974,5.41795,0.890004,-0.808838,-0.0558925,0
2024-12-13 15:38:31.362,1.42223,2.77478,5.38445,0.859462,-0.802119,-0.0607793,0
2024-12-13 15:38:31.364,1.47488,2.82024,5.35813,0.82892,-0.795399,-0.0632227,0
2024-12-13 15:38:31.366,1.54188,2.87528,5.35334,0.796545,-0.789291,-0.0681095,0
2024-12-13 15:38:31.369,1.6017,2.9351,5.35813,0.796545,-0.789291,-0.0681095,0
2024-12-13 15:38:31.371,1.65194,2.98295,5.34856,0.731184,-0.767911,-0.0809373,0
2024-12-13 15:38:31.373,1.71177,3.02842,5.33899,0.696366,-0.753862,-0.0901,0
2024-12-13 15:38:31.376,1.76919,3.06909,5.33659,0.662158,-0.73798,-0.0992627,0
2024-12-13 15:38:31.378,1.82184,3.12204,5.35574,0.662158,-0.73798,-0.0992627,0
2024-12-13 15:38:31.380,1.88883,3.17946,5.37488,0.596798,-0.69461,-0.123086,0
2024-12-13 15:38:31.383,1.94148,3.21775,5.3677,0.560758,-0.670176,-0.138968,0
2024-12-13 15:38:31.385,1.97288,3.24407,5.38445,0.525939,-0.642688,-0.156682,0
2024-12-13 15:38:31.390,2.00638,3.27278,5.40838,0.459357,-0.576105,-0.195166,0
2024-12-13 15:38:31.391,2.03749,3.30389,5.40359,0.427593,-0.539454,-0.214102,0
2024-12-13 15:38:31.392,2.05185,3.33739,5.40598,0.427593,-0.539454,-0.214102,0
2024-12-13 15:38:31.395,2.06142,3.35892,5.4012,0.394607,-0.505247,-0.233649,0
2024-12-13 15:38:31.397,2.07338,3.37807,5.39641,0.362767,-0.46432,-0.254418,0
2024-12-13 15:38:31.399,2.07338,3.39721,5.40838,0.328559,-0.424615,-0.277019,0
2024-12-13 15:38:31.402,2.06142,3.38764,5.40838,0.298017,-0.38491,-0.298399,0
2024-12-13 15:38:31.404,2.03988,3.37089,5.39402,0.264421,-0.340929,-0.319779,0
2024-12-13 15:38:31.409,1.9657,3.33739,5.36291,0.203336,-0.259076,-0.360705,0
2024-12-13 15:38:31.409,1.9657,3.33739,5.36291,0.203336,-0.259076,-0.360705,0
2024-12-13 15:38:31.411,1.92712,3.31346,5.34856,0.17035,-0.218149,-0.379642,0
2024-12-13 15:38:31.413,1.89601,3.28714,5.32911,0.139808,-0.178444,-0.395524,0
2024-12-13 15:38:31.418,1.80748,3.21536,5.31954,0.0848314,-0.10392,-0.427898,0
2024-12-13 15:38:31.419,1.80748,3.21536,5.31954,0.0561216,-0.0709346,-0.441337,0
2024-12-13 15:38:31.420,1.74287,3.18425,5.33899,0.0561216,-0.0709346,-0.441337,0
2024-12-13 15:38:31.423,1.68544,3.14357,5.37488,0.0329094,-0.0440574,-0.453554,0
2024-12-13 15:38:31.427,1.55862,3.08584,5.39402,-0.0171801,0.0127514,-0.47249,0
2024-12-13 15:38:31.427,1.55862,3.08584,5.39402,-0.0171801,0.0127514,-0.47249,0
2024-12-13 15:38:31.430,1.48684,3.05474,5.40359,-0.0324513,0.0353528,-0.47921,0
2024-12-13 15:38:31.432,1.39561,3.03799,5.41556,-0.049555,0.0542891,-0.482875,0
2024-12-13 15:38:31.435,1.29272,3.01406,5.41795,-0.0678804,0.0738362,-0.488372,0
2024-12-13 15:38:31.437,1.20419,3.00927,5.41556,-0.0800973,0.0915507,-0.488372,0
2024-12-13 15:38:31.439,1.13958,3.00688,5.4012,-0.0941468,0.1056,-0.488983,0
2024-12-13 15:38:31.442,1.07258,2.98774,5.37009,-0.105753,0.121482,-0.488983,0
2024-12-13 15:38:31.444,1.01994,2.9662,5.33899,-0.118581,0.134921,-0.487762,0
2024-12-13 15:38:31.446,0.97687,2.95663,5.30279,-0.129576,0.147749,-0.48654,0
2024-12-13 15:38:31.449,0.912264,2.94706,5.26212,-0.13996,0.159355,-0.484096,0
2024-12-13 15:38:31.451,0.857229,2.93031,5.21905,-0.151566,0.167907,-0.481653,0
2024-12-13 15:38:31.453,0.82343,2.8992,5.18315,-0.163173,0.175237,-0.477988,0
2024-12-13 15:38:31.456,0.789931,2.88006,5.14965,-0.176,0.178902,-0.477988,0
2024-12-13 15:38:31.458,0.754038,2.85613,5.12573,-0.183941,0.182567,-0.475545,0
2024-12-13 15:38:31.460,0.715753,2.83938,5.10419,-0.194326,0.185621,-0.471269,0
2024-12-13 15:38:31.463,0.677468,2.84656,5.0659,-0.204099,0.185621,-0.469436,0
2024-12-13 15:38:31.465,0.639183,2.8346,5.03719,-0.215095,0.180734,-0.466382,0
2024-12-13 15:38:31.468,0.600898,2.82263,5.02523,-0.221814,0.178902,-0.463939,0
2024-12-13 15:38:31.470,0.562612,2.81306,5.02283,-0.230366,0.174626,-0.460884,0
2024-12-13 15:38:31.472,0.531506,2.8011,5.00848,-0.238918,0.171572,-0.455387,0
2024-12-13 15:38:31.475,0.498006,2.80349,5.00369,-0.246859,0.17035,-0.449889,0
2024-12-13 15:38:31.477,0.454935,2.81545,5.00369,-0.250524,0.163631,-0.443781,0
2024-12-13 15:38:31.479,0.419043,2.82263,4.99891,-0.2548,0.159966,-0.437672,0
2024-12-13 15:38:31.482,0.392722,2.82024,4.97976,-0.260297,0.157522,-0.430342,0
2024-12-13 15:38:31.484,0.366401,2.80828,4.97976,-0.260297,0.152025,-0.42179,0
2024-12-13 15:38:31.486,0.335294,2.80349,4.98216,-0.261519,0.145916,-0.41446,0
2024-12-13 15:38:31.489,0.30658,2.81306,4.96301,-0.26213,0.142251,-0.40713,0
2024-12-13 15:38:31.491,0.285045,2.81067,4.94626,-0.262741,0.133088,-0.399189,0
2024-12-13 15:38:31.493,0.253639,2.83699,4.91994,-0.262741,0.125147,-0.388804,0
2024-12-13 15:38:31.496,0.224925,2.8657,4.91037,-0.262741,0.115374,-0.380252,0
2024-12-13 15:38:31.498,0.22014,2.87049,4.88884,-0.260908,0.1056,-0.372311,0
2024-12-13 15:38:31.500,0.212961,2.87767,4.85294,-0.260297,0.0909399,-0.363149,0
2024-12-13 15:38:31.503,0.196211,2.88724,4.82902,-0.258465,0.0787229,-0.352764,0
2024-12-13 15:38:31.505,0.189033,2.90878,4.80748,-0.257243,0.0616192,-0.344823,0
2024-12-13 15:38:31.508,0.181855,2.93031,4.78355,-0.254189,0.0432938,-0.335661,0
2024-12-13 15:38:31.510,0.18664,2.93988,4.75932,-0.254189,0.0432938,-0.335661,0
2024-12-13 15:38:31.512,0.205783,2.98535,4.74257,-0.256021,-7.63559e-05,-0.319168,0
2024-12-13 15:38:31.515,0.232104,3.01645,4.733,-0.252967,-0.0245102,-0.310005,0
2024-12-13 15:38:31.517,0.251246,3.05234,4.72343,-0.251135,-0.0507767,-0.303286,0
2024-12-13 15:38:31.519,0.277567,3.10768,4.71625,-0.247469,-0.0745997,-0.297788,0
2024-12-13 15:38:31.522,0.311366,3.12682,4.68515,-0.251135,-0.0990336,-0.291069,0
2024-12-13 15:38:31.524,0.330509,3.15553,4.64686,-0.252967,-0.124078,-0.288625,0
2024-12-13 15:38:31.526,0.337687,3.20578,4.61097,-0.253578,-0.144236,-0.281906,0
2024-12-13 15:38:31.529,0.347258,3.25364,4.55354,-0.256632,-0.162562,-0.280073,0
2024-12-13 15:38:31.531,0.366401,3.29671,4.49611,-0.264573,-0.183331,-0.277019,0
2024-12-13 15:38:31.533,0.364008,3.32543,4.44108,-0.274347,-0.203488,-0.275187,0
2024-12-13 15:38:31.536,0.373579,3.37567,4.38604,-0.286564,-0.221814,-0.277019,0
2024-12-13 15:38:31.538,0.404686,3.4331,4.33819,-0.299392,-0.24075,-0.275798,0
2024-12-13 15:38:31.541,0.414257,3.48096,4.31187,-0.315884,-0.26213,-0.274576,0
2024-12-13 15:38:31.543,0.41665,3.5336,4.29751,-0.334821,-0.279844,-0.276408,0
2024-12-13 15:38:31.545,0.421436,3.57428,4.28315,-0.3562,-0.299392,-0.278852,0
2024-12-13 15:38:31.548,0.41665,3.61974,4.29272,-0.378191,-0.317106,-0.280684,0
2024-12-13 15:38:31.550,0.407079,3.6679,4.31426,-0.397738,-0.330545,-0.283739,0
2024-12-13 15:38:31.552,0.397508,3.70858,4.33579,-0.421561,-0.342762,-0.285571,0
2024-12-13 15:38:31.555,0.380758,3.75404,4.37169,-0.444162,-0.351924,-0.289847,0
2024-12-13 15:38:31.559,0.366401,3.84736,4.48654,-0.488143,-0.364752,-0.295956,0
2024-12-13 15:38:31.559,0.366401,3.84736,4.48654,-0.488143,-0.364752,-0.295956,0
2024-12-13 15:38:31.562,0.366401,3.89761,4.55354,-0.510134,-0.370861,-0.29901,0
2024-12-13 15:38:31.564,0.375972,3.9335,4.60618,-0.532124,-0.374526,-0.302675,0
2024-12-13 15:38:31.566,0.368794,3.96461,4.65643,-0.555337,-0.374526,-0.305118,0
2024-12-13 15:38:31.569,0.35683,4.00289,4.72822,-0.577327,-0.376969,-0.305118,0
2024-12-13 15:38:31.571,0.361615,4.04596,4.79552,-0.599928,-0.376969,-0.307562,0
2024-12-13 15:38:31.573,0.359223,4.101,4.84816,-0.621308,-0.375747,-0.308783,0
2024-12-13 15:38:31.576,0.344866,4.12971,4.90559,-0.645131,-0.372693,-0.311227,0
2024-12-13 15:38:31.578,0.34008,4.14407,4.96062,-0.670176,-0.365363,-0.312448,0
2024-12-13 15:38:31.581,0.337687,4.17518,5.00608,-0.69461,-0.361087,-0.31367,0
2024-12-13 15:38:31.583,0.32333,4.1991,5.06112,-0.720876,-0.3562,-0.312448,0
2024-12-13 15:38:31.585,0.318545,4.22572,5.12094,-0.748364,-0.350703,-0.312448,0
2024-12-13 15:38:31.588,0.328116,4.26401,5.17119,-0.773409,-0.347648,-0.313059,0
2024-12-13 15:38:31.590,0.320937,4.29272,5.23101,-0.798454,-0.343983,-0.313059,0
2024-12-13 15:38:31.592,0.313759,4.31665,5.29801,-0.830829,-0.344594,-0.312448,0
2024-12-13 15:38:31.595,0.30658,4.33819,5.37249,-0.86076,-0.346427,-0.311227,0
2024-12-13 15:38:31.597,0.301795,4.35254,5.44906,-0.891303,-0.349481,-0.308783,0
2024-12-13 15:38:31.599,0.311366,4.3669,5.53998,-0.92551,-0.354368,-0.306951,0
2024-12-13 15:38:31.602,0.332901,4.38365,5.64048,-0.959717,-0.359255,-0.304507,0
2024-12-13 15:38:31.604,0.368794,4.38844,5.75534,-0.994536,-0.365363,-0.301453,0
2024-12-13 15:38:31.609,0.495613,4.33819,6.07149,-1.05867,-0.358033,-0.29901,0
2024-12-13 15:38:31.609,0.495613,4.33819,6.07149,-1.05867,-0.358033,-0.29901,0
2024-12-13 15:38:31.611,0.545863,4.35733,6.18395,-1.05867,-0.358033,-0.29901,0
2024-12-13 15:38:31.614,0.581755,4.39083,6.32513,-1.12526,-0.36292,-0.297788,0
2024-12-13 15:38:31.616,0.632004,4.42194,6.48335,-1.16313,-0.364752,-0.297788,0
2024-12-13 15:38:31.618,0.687039,4.44826,6.64128,-1.19795,-0.364752,-0.297177,0
2024-12-13 15:38:31.621,0.737288,4.48654,6.80878,-1.23093,-0.365974,-0.297788,0
2024-12-13 15:38:31.623,0.801895,4.51286,6.99781,-1.23093,-0.365974,-0.297788,0
2024-12-13 15:38:31.625,0.876371,4.51286,7.20868,-1.30118,-0.360476,-0.296566,0
2024-12-13 15:38:31.628,0.967299,4.50808,7.42642,-1.33295,-0.34887,-0.295345,0
2024-12-13 15:38:31.630,1.05823,4.48654,7.65643,-1.36104,-0.328712,-0.296566,0
2024-12-13 15:38:31.632,1.15872,4.47219,7.89093,-1.38242,-0.304278,-0.300231,0
2024-12-13 15:38:31.635,1.2664,4.44586,8.12064,-1.39769,-0.268849,-0.305118,0
2024-12-13 15:38:31.637,1.35972,4.40279,8.36979,-1.41297,-0.227312,-0.311227,0
2024-12-13 15:38:31.639,1.44616,4.37887,8.59711,-1.4203,-0.18272,-0.319779,0
2024-12-13 15:38:31.643,1.51316,4.36451,8.78166,-1.42763,-0.0898709,-0.339936,0
2024-12-13 15:38:31.644,1.54666,4.35733,8.96351,-1.42763,-0.0898709,-0.339936,0
2024-12-13 15:38:31.647,1.54905,4.35254,9.12144,-1.42824,-0.0452791,-0.351543,0
2024-12-13 15:38:31.649,1.54905,4.37169,9.24347,-1.42579,-0.00129805,-0.360094,0
2024-12-13 15:38:31.651,1.52991,4.39801,9.35145,-1.42579,0.0420721,-0.369257,0
2024-12-13 15:38:31.654,1.49163,4.40997,9.43759,-1.42274,0.0805555,-0.380252,0
