timestamp,accel_x,accel_y,accel_z,gyro_x,gyro_y,gyro_z,step_timestamp
2024-11-29 18:14:24.631,1.36451,3.48814,9.46391,-0.0255792,-0.0219905,0.17852,0
2024-11-29 18:14:24.631,1.36451,3.48814,9.46391,-0.0255792,-0.0219905,0.17852,0
2024-11-29 18:14:24.631,1.36451,3.48814,9.46391,-0.0255792,-0.0219905,0.17852,0
2024-11-29 18:14:24.631,1.36451,3.48814,9.46391,-0.0255792,-0.0219905,0.17852,0
2024-11-29 18:14:24.631,1.36451,3.48814,9.46391,-0.0255792,-0.0219905,0.17852,0
2024-11-29 18:14:24.631,1.36451,3.48814,9.46391,-0.0255792,-0.0219905,0.17852,0
2024-11-29 18:14:24.631,1.36451,3.48814,9.46391,-0.0255792,-0.0219905,0.17852,0
2024-11-29 18:14:24.631,1.36451,3.48814,9.46391,-0.0255792,-0.0219905,0.17852,0
2024-11-29 18:14:24.631,1.36451,3.48814,9.46391,-0.0255792,-0.0219905,0.17852,0
2024-11-29 18:14:24.631,1.36451,3.48814,9.46391,-0.0255792,-0.0219905,0.17852,0
2024-11-29 18:14:24.632,1.36451,3.48814,9.46391,-0.0335202,-0.023823,0.160195,0
2024-11-29 18:14:24.632,1.36451,3.48814,9.46391,-0.0335202,-0.023823,0.160195,0
2024-11-29 18:14:24.632,1.36451,3.48814,9.46391,-0.0335202,-0.023823,0.160195,0
2024-11-29 18:14:24.632,1.36451,3.48814,9.46391,-0.0335202,-0.023823,0.160195,0
2024-11-29 18:14:24.632,1.36451,3.48814,9.46391,-0.0335202,-0.023823,0.160195,0
2024-11-29 18:14:24.632,1.36451,3.48814,9.46391,-0.0335202,-0.023823,0.160195,0
2024-11-29 18:14:24.632,1.36451,3.48814,9.46391,-0.0335202,-0.023823,0.160195,0
2024-11-29 18:14:24.632,1.36451,3.48814,9.46391,-0.0335202,-0.023823,0.160195,0
2024-11-29 18:14:24.634,1.42702,3.52403,9.43041,-0.0335202,-0.023823,0.160195,0
2024-11-29 18:14:24.634,1.42702,3.52403,9.43041,-0.0335202,-0.023823,0.160195,0
2024-11-29 18:14:24.634,1.42702,3.52403,9.43041,-0.0335202,-0.023823,0.160195,0
2024-11-29 18:14:24.634,1.42702,3.52403,9.43041,-0.0335202,-0.023823,0.160195,0
2024-11-29 18:14:24.635,1.42702,3.52403,9.43041,-0.0487914,-0.0226013,0.14248,0
2024-11-29 18:14:24.635,1.42702,3.52403,9.43041,-0.0487914,-0.0226013,0.14248,0
2024-11-29 18:14:24.635,1.42702,3.52403,9.43041,-0.0487914,-0.0226013,0.14248,0
2024-11-29 18:14:24.635,1.42702,3.52403,9.43041,-0.0487914,-0.0226013,0.14248,0
2024-11-29 18:14:24.635,1.42702,3.52403,9.43041,-0.0487914,-0.0226013,0.14248,0
2024-11-29 18:14:24.635,1.42702,3.52403,9.43041,-0.0487914,-0.0226013,0.14248,0
2024-11-29 18:14:24.635,1.42702,3.52403,9.43041,-0.0487914,-0.0226013,0.14248,0
2024-11-29 18:14:24.635,1.42702,3.52403,9.43041,-0.0487914,-0.0226013,0.14248,0
2024-11-29 18:14:24.636,1.47966,3.55514,9.38974,-0.0487914,-0.0226013,0.14248,0
2024-11-29 18:14:24.636,1.47966,3.55514,9.38974,-0.0487914,-0.0226013,0.14248,0
2024-11-29 18:14:24.636,1.47966,3.55514,9.38974,-0.0487914,-0.0226013,0.14248,0
2024-11-29 18:14:24.636,1.47966,3.55514,9.38974,-0.0487914,-0.0226013,0.14248,0
2024-11-29 18:14:24.636,1.47966,3.55514,9.38974,-0.0487914,-0.0226013,0.14248,0
2024-11-29 18:14:24.636,1.47966,3.55514,9.38974,-0.0487914,-0.0226013,0.14248,0
2024-11-29 18:14:24.636,1.47966,3.55514,9.38974,-0.0487914,-0.0226013,0.14248,0
2024-11-29 18:14:24.637,1.47966,3.55514,9.38974,-0.0622301,-0.0207688,0.123544,0
2024-11-29 18:14:24.637,1.47966,3.55514,9.38974,-0.0622301,-0.0207688,0.123544,0
2024-11-29 18:14:24.637,1.47966,3.55514,9.38974,-0.0622301,-0.0207688,0.123544,0
2024-11-29 18:14:24.637,1.47966,3.55514,9.38974,-0.0622301,-0.0207688,0.123544,0
2024-11-29 18:14:24.637,1.47966,3.55514,9.38974,-0.0622301,-0.0207688,0.123544,0
2024-11-29 18:14:24.637,1.47966,3.55514,9.38974,-0.0622301,-0.0207688,0.123544,0
2024-11-29 18:14:24.637,1.47966,3.55514,9.38974,-0.0622301,-0.0207688,0.123544,0
2024-11-29 18:14:24.637,1.47966,3.55514,9.38974,-0.0622301,-0.0207688,0.123544,0
2024-11-29 18:14:24.638,1.5323,3.57906,9.34906,-0.0622301,-0.0207688,0.123544,0
2024-11-29 18:14:24.638,1.47966,3.55514,9.34906,-0.0622301,-0.0207688,0.123544,0
2024-11-29 18:14:24.638,1.5323,3.57906,9.34906,-0.0622301,-0.0207688,0.123544,0
2024-11-29 18:14:24.638,1.5323,3.57906,9.34906,-0.0622301,-0.0207688,0.123544,0
2024-11-29 18:14:24.638,1.5323,3.57906,9.34906,-0.0622301,-0.0207688,0.123544,0
2024-11-29 18:14:24.639,1.5323,3.57906,9.34906,-0.0775012,-0.0189363,0.105218,0
2024-11-29 18:14:24.639,1.5323,3.57906,9.34906,-0.0775012,-0.0189363,0.105218,0
2024-11-29 18:14:24.639,1.5323,3.57906,9.34906,-0.0775012,-0.0189363,0.105218,0
2024-11-29 18:14:24.639,1.5323,3.57906,9.34906,-0.0775012,-0.0189363,0.105218,0
2024-11-29 18:14:24.639,1.5323,3.57906,9.34906,-0.0775012,-0.0189363,0.105218,0
2024-11-29 18:14:24.641,1.56102,3.61017,9.31077,-0.0775012,-0.0189363,0.105218,0
2024-11-29 18:14:24.641,1.56102,3.61017,9.31077,-0.0775012,-0.0189363,0.105218,0
2024-11-29 18:14:24.641,1.56102,3.61017,9.31077,-0.0775012,-0.0189363,0.105218,0
2024-11-29 18:14:24.641,1.56102,3.61017,9.31077,-0.0775012,-0.0189363,0.105218,0
2024-11-29 18:14:24.642,1.56102,3.61017,9.31077,-0.094605,-0.0177146,0.0832279,0
2024-11-29 18:14:24.642,1.56102,3.61017,9.31077,-0.094605,-0.0177146,0.0832279,0
2024-11-29 18:14:24.642,1.56102,3.61017,9.31077,-0.094605,-0.0177146,0.0832279,0
2024-11-29 18:14:24.642,1.56102,3.61017,9.31077,-0.094605,-0.0177146,0.0832279,0
2024-11-29 18:14:24.642,1.56102,3.61017,9.31077,-0.094605,-0.0177146,0.0832279,0
2024-11-29 18:14:24.642,1.56102,3.61017,9.31077,-0.094605,-0.0177146,0.0832279,0
2024-11-29 18:14:24.643,1.58255,3.64367,9.26292,-0.094605,-0.0177146,0.0832279,0
2024-11-29 18:14:24.643,1.58255,3.64367,9.26292,-0.094605,-0.0177146,0.0832279,0
2024-11-29 18:14:24.643,1.58255,3.64367,9.26292,-0.094605,-0.0177146,0.0832279,0
2024-11-29 18:14:24.643,1.58255,3.64367,9.26292,-0.094605,-0.0177146,0.0832279,0
2024-11-29 18:14:24.644,1.58255,3.64367,9.26292,-0.113541,-0.0122169,0.0624591,0
2024-11-29 18:14:24.644,1.58255,3.64367,9.26292,-0.113541,-0.0122169,0.0624591,0
2024-11-29 18:14:24.644,1.58255,3.64367,9.26292,-0.113541,-0.0122169,0.0624591,0
2024-11-29 18:14:24.644,1.58255,3.64367,9.26292,-0.113541,-0.0122169,0.0624591,0
2024-11-29 18:14:24.644,1.58255,3.64367,9.26292,-0.113541,-0.0122169,0.0624591,0
2024-11-29 18:14:24.645,1.61366,3.67986,9.21476,-0.113541,-0.0122169,0.0624591,0
2024-11-29 18:14:24.645,1.61366,3.67986,9.21476,-0.113541,-0.0122169,0.0624591,0
2024-11-29 18:14:24.645,1.61366,3.67986,9.21476,-0.113541,-0.0122169,0.0624591,0
2024-11-29 18:14:24.646,1.61366,3.67986,9.21476,-0.113541,-0.0122169,0.0624591,0
2024-11-29 18:14:24.646,1.61366,3.67986,9.21476,-0.113541,-0.0122169,0.0624591,0
2024-11-29 18:14:24.646,1.61366,3.67986,9.21476,-0.113541,-0.0122169,0.0624591,0
2024-11-29 18:14:24.648,1.6352,3.71097,9.18126,-0.134921,-0.00794101,0.0423012,0
2024-11-29 18:14:24.648,1.6352,3.71097,9.18126,-0.134921,-0.00794101,0.0423012,0
2024-11-29 18:14:24.648,1.6352,3.71097,9.18126,-0.134921,-0.00794101,0.0423012,0
2024-11-29 18:14:24.649,1.6352,3.71097,9.18126,-0.156911,-0.00366508,0.0233649,0
2024-11-29 18:14:24.649,1.6352,3.71097,9.18126,-0.156911,-0.00366508,0.0233649,0
2024-11-29 18:14:24.649,1.6352,3.71097,9.18126,-0.156911,-0.00366508,0.0233649,0
2024-11-29 18:14:24.650,1.64716,3.7349,9.14297,-0.156911,-0.00366508,0.0233649,0
2024-11-29 18:14:24.650,1.64716,3.7349,9.14297,-0.156911,-0.00366508,0.0233649,0
2024-11-29 18:14:24.650,1.64716,3.7349,9.14297,-0.156911,-0.00366508,0.0233649,0
2024-11-29 18:14:24.650,1.64716,3.7349,9.14297,-0.156911,-0.00366508,0.0233649,0
2024-11-29 18:14:24.651,1.64716,3.7349,9.14297,-0.156911,-0.00366508,0.0233649,0
2024-11-29 18:14:24.651,1.64716,3.7349,9.14297,-0.156911,-0.00366508,0.0233649,0
2024-11-29 18:14:24.651,1.64716,3.7349,9.14297,-0.156911,-0.00366508,0.0233649,0
2024-11-29 18:14:24.651,1.64716,3.7349,9.14297,-0.156911,-0.00366508,0.0233649,0
2024-11-29 18:14:24.652,1.66391,3.77318,9.0999,-0.181345,0.00122169,0.00137441,0
2024-11-29 18:14:24.652,1.66391,3.77318,9.0999,-0.181345,0.00122169,0.00137441,0
2024-11-29 18:14:24.653,1.66391,3.77318,9.0999,-0.181345,0.00122169,0.00137441,0
2024-11-29 18:14:24.653,1.66391,3.77318,9.0999,-0.181345,0.00122169,0.00137441,0
2024-11-29 18:14:24.655,1.6663,3.80907,9.07119,-0.207001,0.00549763,-0.016951,0
2024-11-29 18:14:24.655,1.6663,3.80907,9.07119,-0.207001,0.00549763,-0.016951,0
2024-11-29 18:14:24.655,1.6663,3.80907,9.07119,-0.207001,0.00549763,-0.016951,0
2024-11-29 18:14:24.655,1.6663,3.80907,9.07119,-0.207001,0.00549763,-0.016951,0
2024-11-29 18:14:24.656,1.6663,3.80907,9.07119,-0.233267,0.00977356,-0.0395524,0
2024-11-29 18:14:24.656,1.6663,3.80907,9.07119,-0.233267,0.00977356,-0.0395524,0
2024-11-29 18:14:24.656,1.66391,3.80907,9.07119,-0.233267,0.00977356,-0.0395524,0
2024-11-29 18:14:24.656,1.6663,3.80907,9.07119,-0.233267,0.00977356,-0.0395524,0
2024-11-29 18:14:24.657,1.65434,3.83061,9.05205,-0.233267,0.00977356,-0.0395524,0
2024-11-29 18:14:24.657,1.65434,3.83061,9.05205,-0.233267,0.00977356,-0.0395524,0
2024-11-29 18:14:24.657,1.65434,3.83061,9.05205,-0.233267,0.00977356,-0.0395524,0
2024-11-29 18:14:24.658,1.65434,3.83061,9.05205,-0.259534,0.0116061,-0.0615429,0
2024-11-29 18:14:24.660,1.65673,3.84975,9.04008,-0.259534,0.0116061,-0.0615429,0
2024-11-29 18:14:24.661,1.65673,3.84975,9.04008,-0.288244,0.00855186,-0.0823117,0
2024-11-29 18:14:24.661,1.65673,3.84975,9.04008,-0.288244,0.00855186,-0.0823117,0
2024-11-29 18:14:24.661,1.65673,3.84975,9.04008,-0.288244,0.00855186,-0.0823117,0
2024-11-29 18:14:24.661,1.65673,3.84975,9.04008,-0.288244,0.00855186,-0.0823117,0
2024-11-29 18:14:24.661,1.65673,3.84975,9.04008,-0.288244,0.00855186,-0.0823117,0
2024-11-29 18:14:24.661,1.65673,3.84975,9.04008,-0.288244,0.00855186,-0.0823117,0
2024-11-29 18:14:24.662,1.63998,3.87607,9.02812,-0.288244,0.00855186,-0.0823117,0
2024-11-29 18:14:24.662,1.63998,3.87607,9.02812,-0.288244,0.00855186,-0.0823117,0
2024-11-29 18:14:24.662,1.63998,3.87607,9.02812,-0.288244,0.00855186,-0.0823117,0
2024-11-29 18:14:24.662,1.63998,3.87607,9.02812,-0.288244,0.00855186,-0.0823117,0
2024-11-29 18:14:24.662,1.63998,3.87607,9.02812,-0.288244,0.00855186,-0.0823117,0
2024-11-29 18:14:24.663,1.63998,3.87607,9.02812,-0.317564,0.00733017,-0.10247,0
2024-11-29 18:14:24.663,1.63998,3.87607,9.02812,-0.317564,0.00733017,-0.10247,0
2024-11-29 18:14:24.663,1.63998,3.87607,9.02812,-0.317564,0.00733017,-0.10247,0
2024-11-29 18:14:24.664,1.62084,3.90479,9.02333,-0.317564,0.00733017,-0.10247,0
2024-11-29 18:14:24.664,1.62084,3.90479,9.02333,-0.317564,0.00733017,-0.10247,0
2024-11-29 18:14:24.664,1.62084,3.90479,9.02333,-0.317564,0.00733017,-0.10247,0
2024-11-29 18:14:24.664,1.62084,3.90479,9.02333,-0.317564,0.00733017,-0.10247,0
2024-11-29 18:14:24.665,1.62084,3.90479,9.02333,-0.346274,0.00366508,-0.123238,0
2024-11-29 18:14:24.665,1.62084,3.90479,9.02333,-0.346274,0.00366508,-0.123238,0
2024-11-29 18:14:24.665,1.62084,3.90479,9.02333,-0.346274,0.00366508,-0.123238,0
2024-11-29 18:14:24.665,1.62084,3.90479,9.02333,-0.346274,0.00366508,-0.123238,0
2024-11-29 18:14:24.665,1.62084,3.90479,9.02333,-0.346274,0.00366508,-0.123238,0
2024-11-29 18:14:24.665,1.62084,3.90479,9.02333,-0.346274,0.00366508,-0.123238,0
2024-11-29 18:14:24.667,1.61845,3.92393,9.04248,-0.346274,0.00366508,-0.123238,0
2024-11-29 18:14:24.667,1.61845,3.92393,9.04248,-0.346274,0.00366508,-0.123238,0
2024-11-29 18:14:24.667,1.61845,3.92393,9.04248,-0.346274,0.00366508,-0.123238,0
2024-11-29 18:14:24.668,1.61845,3.92393,9.04248,-0.376206,-0.00305424,-0.145229,0
2024-11-29 18:14:24.668,1.61845,3.92393,9.04248,-0.376206,-0.00305424,-0.145229,0
2024-11-29 18:14:24.668,1.61845,3.92393,9.04248,-0.376206,-0.00305424,-0.145229,0
2024-11-29 18:14:24.668,1.61845,3.92393,9.04248,-0.376206,-0.00305424,-0.145229,0
2024-11-29 18:14:24.668,1.61845,3.92393,9.04248,-0.376206,-0.00305424,-0.145229,0
2024-11-29 18:14:24.668,1.61845,3.92393,9.04248,-0.376206,-0.00305424,-0.145229,0
2024-11-29 18:14:24.669,1.61366,3.93589,9.05444,-0.376206,-0.00305424,-0.145229,0
2024-11-29 18:14:24.669,1.61366,3.93589,9.05444,-0.376206,-0.00305424,-0.145229,0
2024-11-29 18:14:24.669,1.61366,3.93589,9.05444,-0.376206,-0.00305424,-0.145229,0
2024-11-29 18:14:24.670,1.61366,3.93589,9.05444,-0.406137,-0.00916271,-0.163554,0
2024-11-29 18:14:24.670,1.61366,3.93589,9.05444,-0.406137,-0.00916271,-0.163554,0
2024-11-29 18:14:24.670,1.61366,3.93589,9.05444,-0.406137,-0.00916271,-0.163554,0
2024-11-29 18:14:24.670,1.61366,3.93589,9.05444,-0.406137,-0.00916271,-0.163554,0
2024-11-29 18:14:24.670,1.61366,3.93589,9.05444,-0.406137,-0.00916271,-0.163554,0
2024-11-29 18:14:24.670,1.61366,3.93589,9.05444,-0.406137,-0.00916271,-0.163554,0
2024-11-29 18:14:24.671,1.58016,3.92872,9.09033,-0.406137,-0.00916271,-0.163554,0
2024-11-29 18:14:24.671,1.58016,3.92872,9.09033,-0.406137,-0.00916271,-0.163554,0
2024-11-29 18:14:24.671,1.58016,3.92872,9.09033,-0.406137,-0.00916271,-0.163554,0
2024-11-29 18:14:24.671,1.58016,3.92872,9.09033,-0.406137,-0.00916271,-0.163554,0
2024-11-29 18:14:24.671,1.58016,3.92872,9.09033,-0.406137,-0.00916271,-0.163554,0
2024-11-29 18:14:24.672,1.58016,3.92872,9.09033,-0.433014,-0.0207688,-0.184323,0
2024-11-29 18:14:24.672,1.58016,3.92872,9.09033,-0.433014,-0.0207688,-0.184323,0
2024-11-29 18:14:24.672,1.58016,3.92872,9.09033,-0.433014,-0.0207688,-0.184323,0
2024-11-29 18:14:24.672,1.58016,3.92872,9.09033,-0.433014,-0.0207688,-0.184323,0
2024-11-29 18:14:24.674,1.54188,3.9335,9.15973,-0.433014,-0.0207688,-0.184323,0
2024-11-29 18:14:24.674,1.54188,3.9335,9.15973,-0.433014,-0.0207688,-0.184323,0
2024-11-29 18:14:24.674,1.54188,3.9335,9.15973,-0.433014,-0.0207688,-0.184323,0
2024-11-29 18:14:24.674,1.54188,3.9335,9.15973,-0.433014,-0.0207688,-0.184323,0
2024-11-29 18:14:24.675,1.54188,3.9335,9.15973,-0.463557,-0.0335966,-0.203259,0
2024-11-29 18:14:24.675,1.54188,3.9335,9.15973,-0.463557,-0.0335966,-0.203259,0
2024-11-29 18:14:24.675,1.54188,3.9335,9.15973,-0.463557,-0.0335966,-0.203259,0
2024-11-29 18:14:24.675,1.54188,3.9335,9.15973,-0.463557,-0.0335966,-0.203259,0
2024-11-29 18:14:24.675,1.54188,3.9335,9.15973,-0.463557,-0.0335966,-0.203259,0
2024-11-29 18:14:24.675,1.54188,3.9335,9.15973,-0.463557,-0.0335966,-0.203259,0
2024-11-29 18:14:24.676,1.50838,3.95264,9.2339,-0.463557,-0.0335966,-0.203259,0
2024-11-29 18:14:24.676,1.50838,3.95264,9.2339,-0.463557,-0.0335966,-0.203259,0
2024-11-29 18:14:24.676,1.50838,3.95264,9.2339,-0.463557,-0.0335966,-0.203259,0
2024-11-29 18:14:24.676,1.50838,3.95264,9.2339,-0.463557,-0.0335966,-0.203259,0
2024-11-29 18:14:24.676,1.50838,3.95264,9.2339,-0.463557,-0.0335966,-0.203259,0
2024-11-29 18:14:24.677,1.50838,3.95264,9.2339,-0.489212,-0.0470352,-0.220974,0
2024-11-29 18:14:24.677,1.50838,3.95264,9.2339,-0.489212,-0.0470352,-0.220974,0
2024-11-29 18:14:24.677,1.50838,3.95264,9.2339,-0.489212,-0.0470352,-0.220974,0
2024-11-29 18:14:24.677,1.50838,3.95264,9.2339,-0.489212,-0.0470352,-0.220974,0
2024-11-29 18:14:24.678,1.48445,3.95743,9.29881,-0.489212,-0.0470352,-0.220974,0
2024-11-29 18:14:24.678,1.48445,3.95743,9.29881,-0.489212,-0.0470352,-0.220974,0
2024-11-29 18:14:24.678,1.48445,3.95743,9.29881,-0.489212,-0.0470352,-0.220974,0
2024-11-29 18:14:24.678,1.48445,3.95743,9.29881,-0.489212,-0.0470352,-0.220974,0
2024-11-29 18:14:24.678,1.48445,3.95743,9.29881,-0.489212,-0.0470352,-0.220974,0
2024-11-29 18:14:24.679,1.48445,3.95743,9.29881,-0.489212,-0.0470352,-0.220974,0
2024-11-29 18:14:24.679,1.48445,3.95743,9.29881,-0.489212,-0.0470352,-0.220974,0
2024-11-29 18:14:24.679,1.48445,3.95743,9.29881,-0.489212,-0.0470352,-0.220974,0
2024-11-29 18:14:24.679,1.48445,3.95743,9.29881,-0.489212,-0.0470352,-0.220974,0
2024-11-29 18:14:24.679,1.48445,3.95743,9.29881,-0.489212,-0.0470352,-0.220974,0
2024-11-29 18:14:24.681,1.45813,3.96939,9.37059,-0.51609,-0.059863,-0.238078,0
2024-11-29 18:14:24.681,1.45813,3.96939,9.37059,-0.51609,-0.059863,-0.238078,0
2024-11-29 18:14:24.681,1.45813,3.96939,9.37059,-0.51609,-0.059863,-0.238078,0
2024-11-29 18:14:24.681,1.45813,3.96939,9.37059,-0.51609,-0.059863,-0.238078,0
2024-11-29 18:14:24.682,1.45813,3.96939,9.37059,-0.541745,-0.0708583,-0.257014,0
2024-11-29 18:14:24.682,1.45813,3.96939,9.37059,-0.541745,-0.0708583,-0.257014,0
2024-11-29 18:14:24.682,1.45813,3.96939,9.37059,-0.541745,-0.0708583,-0.257014,0
2024-11-29 18:14:24.682,1.45813,3.96939,9.37059,-0.541745,-0.0708583,-0.257014,0
2024-11-29 18:14:24.682,1.48445,3.95743,9.37059,-0.541745,-0.0708583,-0.257014,0
2024-11-29 18:14:24.683,1.42702,3.99093,9.4687,-0.541745,-0.0708583,-0.257014,0
2024-11-29 18:14:24.683,1.42702,3.99093,9.4687,-0.541745,-0.0708583,-0.257014,0
2024-11-29 18:14:24.683,1.42702,3.99093,9.4687,-0.541745,-0.0708583,-0.257014,0
2024-11-29 18:14:24.683,1.42702,3.99093,9.4687,-0.541745,-0.0708583,-0.257014,0
2024-11-29 18:14:24.683,1.42702,3.99093,9.4687,-0.541745,-0.0708583,-0.257014,0
2024-11-29 18:14:24.683,1.42702,3.99093,9.4687,-0.541745,-0.0708583,-0.257014,0
2024-11-29 18:14:24.683,1.42702,3.99093,9.4687,-0.541745,-0.0708583,-0.257014,0
2024-11-29 18:14:24.684,1.42702,3.99093,9.4687,-0.564346,-0.0775776,-0.273507,0
2024-11-29 18:14:24.684,1.42702,3.99093,9.4687,-0.564346,-0.0775776,-0.273507,0
2024-11-29 18:14:24.684,1.42702,3.99093,9.4687,-0.564346,-0.0775776,-0.273507,0
2024-11-29 18:14:24.684,1.42702,3.99093,9.4687,-0.564346,-0.0775776,-0.273507,0
2024-11-29 18:14:24.685,1.39083,4.01007,9.57877,-0.564346,-0.0775776,-0.273507,0
2024-11-29 18:14:24.685,1.39083,4.01007,9.57877,-0.564346,-0.0775776,-0.273507,0
2024-11-29 18:14:24.685,1.39083,4.01007,9.57877,-0.564346,-0.0775776,-0.273507,0
2024-11-29 18:14:24.685,1.39083,4.01007,9.57877,-0.564346,-0.0775776,-0.273507,0
2024-11-29 18:14:24.686,1.39083,4.01007,9.57877,-0.564346,-0.0775776,-0.273507,0
2024-11-29 18:14:24.686,1.39083,4.01007,9.57877,-0.564346,-0.0775776,-0.273507,0
2024-11-29 18:14:24.686,1.39083,4.01007,9.57877,-0.564346,-0.0775776,-0.273507,0
2024-11-29 18:14:24.686,1.39083,4.01007,9.57877,-0.564346,-0.0775776,-0.273507,0
2024-11-29 18:14:24.688,1.32383,4.01964,9.71277,-0.583283,-0.0836861,-0.288167,0
2024-11-29 18:14:24.688,1.32383,4.01964,9.71277,-0.583283,-0.0836861,-0.288167,0
2024-11-29 18:14:24.688,1.32383,4.01964,9.71277,-0.583283,-0.0836861,-0.288167,0
2024-11-29 18:14:24.688,1.32383,4.01964,9.71277,-0.583283,-0.0836861,-0.288167,0
2024-11-29 18:14:24.688,1.32383,4.01964,9.71277,-0.583283,-0.0836861,-0.288167,0
2024-11-29 18:14:24.689,1.32383,4.01964,9.71277,-0.600997,-0.087962,-0.302217,0
2024-11-29 18:14:24.689,1.32383,4.01964,9.71277,-0.600997,-0.087962,-0.302217,0
2024-11-29 18:14:24.689,1.32383,4.01964,9.71277,-0.600997,-0.087962,-0.302217,0
2024-11-29 18:14:24.689,1.32383,4.01964,9.71277,-0.600997,-0.087962,-0.302217,0
2024-11-29 18:14:24.689,1.32383,4.01964,9.71277,-0.600997,-0.087962,-0.302217,0
2024-11-29 18:14:24.690,1.26879,4.04118,9.85903,-0.600997,-0.087962,-0.302217,0
2024-11-29 18:14:24.690,1.26879,4.04118,9.85903,-0.600997,-0.087962,-0.302217,0
2024-11-29 18:14:24.690,1.26879,4.04118,9.85903,-0.600997,-0.087962,-0.302217,0
2024-11-29 18:14:24.690,1.26879,4.04118,9.85903,-0.600997,-0.087962,-0.302217,0
2024-11-29 18:14:24.690,1.26879,4.04118,9.85903,-0.600997,-0.087962,-0.302217,0
2024-11-29 18:14:24.691,1.26879,4.04118,9.85903,-0.61016,-0.0873512,-0.313823,0
2024-11-29 18:14:24.691,1.26879,4.04118,9.85903,-0.61016,-0.0873512,-0.313823,0
2024-11-29 18:14:24.691,1.26879,4.04118,9.85903,-0.61016,-0.0873512,-0.313823,0
2024-11-29 18:14:24.691,1.26879,4.04118,9.85903,-0.61016,-0.0873512,-0.313823,0
2024-11-29 18:14:24.692,1.22572,4.04596,9.99781,-0.61016,-0.0873512,-0.313823,0
2024-11-29 18:14:24.692,1.22572,4.04596,9.99781,-0.61016,-0.0873512,-0.313823,0
2024-11-29 18:14:24.692,1.22572,4.04596,9.99781,-0.61016,-0.0873512,-0.313823,0
2024-11-29 18:14:24.692,1.22572,4.04596,9.99781,-0.61016,-0.0873512,-0.313823,0
2024-11-29 18:14:24.693,1.22572,4.04596,9.99781,-0.61016,-0.0873512,-0.313823,0
2024-11-29 18:14:24.693,1.22572,4.04596,9.99781,-0.61016,-0.0873512,-0.313823,0
2024-11-29 18:14:24.693,1.22572,4.04596,9.99781,-0.61016,-0.0873512,-0.313823,0
2024-11-29 18:14:24.693,1.22572,4.04596,9.99781,-0.61016,-0.0873512,-0.313823,0
2024-11-29 18:14:24.693,1.22572,4.04596,9.99781,-0.61016,-0.0873512,-0.313823,0
2024-11-29 18:14:24.693,1.22572,4.04596,9.99781,-0.61016,-0.0873512,-0.313823,0
2024-11-29 18:14:24.693,1.22572,4.04596,9.99781,-0.61016,-0.0873512,-0.313823,0
2024-11-29 18:14:24.693,1.22572,4.04596,9.99781,-0.61016,-0.0873512,-0.313823,0
2024-11-29 18:14:24.693,1.22572,4.04596,9.99781,-0.61016,-0.0873512,-0.313823,0
2024-11-29 18:14:24.693,1.22572,4.04596,9.99781,-0.61016,-0.0873512,-0.313823,0
2024-11-29 18:14:24.695,1.16112,4.04118,10.1486,-0.619934,-0.0836861,-0.325429,0
2024-11-29 18:14:24.695,1.16112,4.04118,10.1486,-0.619934,-0.0836861,-0.325429,0
2024-11-29 18:14:24.695,1.16112,4.04118,10.1486,-0.619934,-0.0836861,-0.325429,0
2024-11-29 18:14:24.695,1.16112,4.04118,10.1486,-0.619934,-0.0836861,-0.325429,0
2024-11-29 18:14:24.696,1.16112,4.04118,10.1486,-0.62482,-0.0763559,-0.336424,0
2024-11-29 18:14:24.696,1.16112,4.04118,10.1486,-0.62482,-0.0763559,-0.336424,0
2024-11-29 18:14:24.697,1.07976,4.04596,10.2993,-0.62482,-0.0763559,-0.336424,0
2024-11-29 18:14:24.697,1.07976,4.04596,10.2993,-0.62482,-0.0763559,-0.336424,0
2024-11-29 18:14:24.697,1.07976,4.04596,10.2993,-0.62482,-0.0763559,-0.336424,0
2024-11-29 18:14:24.697,1.07976,4.04596,10.2993,-0.62482,-0.0763559,-0.336424,0
2024-11-29 18:14:24.698,1.07976,4.04596,10.2993,-0.623599,-0.0671932,-0.344976,0
2024-11-29 18:14:24.698,1.16112,4.04596,10.2993,-0.623599,-0.0671932,-0.344976,0
2024-11-29 18:14:24.698,1.07976,4.04596,10.2993,-0.623599,-0.0671932,-0.344976,0
2024-11-29 18:14:24.698,1.07976,4.04596,10.2993,-0.623599,-0.0671932,-0.344976,0
2024-11-29 18:14:24.698,1.07976,4.04596,10.2993,-0.623599,-0.0671932,-0.344976,0
2024-11-29 18:14:24.700,0.991227,4.04596,10.4312,-0.623599,-0.0671932,-0.344976,0
2024-11-29 18:14:24.700,0.991227,4.04596,10.4312,-0.623599,-0.0671932,-0.344976,0
2024-11-29 18:14:24.700,0.991227,4.04596,10.4312,-0.623599,-0.0671932,-0.344976,0
2024-11-29 18:14:24.701,0.991227,4.04596,10.4312,-0.618101,-0.0537546,-0.351084,0
2024-11-29 18:14:24.701,0.991227,4.04596,10.4312,-0.618101,-0.0537546,-0.351084,0
2024-11-29 18:14:24.701,0.991227,4.04596,10.4312,-0.618101,-0.0537546,-0.351084,0
2024-11-29 18:14:24.701,0.991227,4.04596,10.4312,-0.618101,-0.0537546,-0.351084,0
2024-11-29 18:14:24.701,0.991227,4.04596,10.4312,-0.618101,-0.0537546,-0.351084,0
2024-11-29 18:14:24.702,0.917049,4.02921,10.57,-0.618101,-0.0537546,-0.351084,0
2024-11-29 18:14:24.702,0.917049,4.02921,10.57,-0.618101,-0.0537546,-0.351084,0
2024-11-29 18:14:24.702,0.917049,4.02921,10.57,-0.618101,-0.0537546,-0.351084,0
2024-11-29 18:14:24.702,0.917049,4.02921,10.57,-0.618101,-0.0537546,-0.351084,0
2024-11-29 18:14:24.702,0.917049,4.02921,10.57,-0.618101,-0.0537546,-0.351084,0
2024-11-29 18:14:24.703,0.917049,4.02921,10.57,-0.609549,-0.03604,-0.358415,0
2024-11-29 18:14:24.703,0.917049,4.02921,10.57,-0.609549,-0.03604,-0.358415,0
2024-11-29 18:14:24.703,0.917049,4.02921,10.57,-0.609549,-0.03604,-0.358415,0
2024-11-29 18:14:24.703,0.917049,4.02921,10.57,-0.609549,-0.03604,-0.358415,0
2024-11-29 18:14:24.703,0.917049,4.02921,10.57,-0.609549,-0.03604,-0.358415,0
2024-11-29 18:14:24.704,0.847657,4.0005,10.7183,-0.609549,-0.03604,-0.358415,0
2024-11-29 18:14:24.704,0.847657,4.0005,10.7183,-0.609549,-0.03604,-0.358415,0
2024-11-29 18:14:24.704,0.847657,4.0005,10.7183,-0.609549,-0.03604,-0.358415,0
2024-11-29 18:14:24.704,0.847657,4.0005,10.7183,-0.609549,-0.03604,-0.358415,0
2024-11-29 18:14:24.704,0.847657,4.0005,10.7183,-0.609549,-0.03604,-0.358415,0
2024-11-29 18:14:24.705,0.847657,4.0005,10.7183,-0.594278,-0.0183254,-0.362691,0
2024-11-29 18:14:24.705,0.847657,4.0005,10.7183,-0.594278,-0.0183254,-0.362691,0
2024-11-29 18:14:24.705,0.847657,4.0005,10.7183,-0.594278,-0.0183254,-0.362691,0
2024-11-29 18:14:24.705,0.847657,4.0005,10.7183,-0.594278,-0.0183254,-0.362691,0
2024-11-29 18:14:24.707,0.768395,3.99811,10.8308,-0.594278,-0.0183254,-0.362691,0
2024-11-29 18:14:24.707,0.768395,3.99811,10.8308,-0.594278,-0.0183254,-0.362691,0
2024-11-29 18:14:24.707,0.768395,3.99811,10.8308,-0.594278,-0.0183254,-0.362691,0
2024-11-29 18:14:24.707,0.768395,3.99811,10.8308,-0.594278,-0.0183254,-0.362691,0
2024-11-29 18:14:24.708,0.768395,3.99811,10.8308,-0.594278,-0.0183254,-0.362691,0
2024-11-29 18:14:24.708,0.768395,3.99811,10.8308,-0.594278,-0.0183254,-0.362691,0
2024-11-29 18:14:24.708,0.768395,3.99811,10.8308,-0.594278,-0.0183254,-0.362691,0
2024-11-29 18:14:24.708,0.768395,3.99811,10.8308,-0.594278,-0.0183254,-0.362691,0
2024-11-29 18:14:24.708,0.768395,3.99811,10.8308,-0.594278,-0.0183254,-0.362691,0
2024-11-29 18:14:24.708,0.768395,3.99811,10.8308,-0.594278,-0.0183254,-0.362691,0
2024-11-29 18:14:24.708,0.768395,3.99811,10.8308,-0.594278,-0.0183254,-0.362691,0
2024-11-29 18:14:24.710,0.679861,3.99332,10.9241,-0.553351,0.0219905,-0.36941,0
2024-11-29 18:14:24.711,0.600898,3.95743,11.0154,-0.553351,0.0219905,-0.36941,0
2024-11-29 18:14:24.714,0.512363,3.92154,11.0728,-0.526474,0.0452027,-0.371242,0
2024-11-29 18:14:24.716,0.423829,3.89282,11.0848,-0.496542,0.0690257,-0.371242,0
2024-11-29 18:14:24.718,0.344866,3.85215,11.0704,-0.462946,0.0928488,-0.36941,0
2024-11-29 18:14:24.722,0.265603,3.81625,11.0225,-0.432404,0.11545,-0.368188,0
2024-11-29 18:14:24.723,0.177069,3.79472,10.9531,-0.395753,0.137441,-0.362691,0
2024-11-29 18:14:24.726,0.0909273,3.74925,10.8619,-0.361545,0.15882,-0.359025,0
2024-11-29 18:14:24.728,0.0143569,3.69422,10.7566,-0.324284,0.179589,-0.352306,0
2024-11-29 18:14:24.730,-0.0646062,3.65593,10.6322,-0.289465,0.197915,-0.344976,0
2024-11-29 18:14:24.734,-0.136391,3.64876,10.4695,-0.25648,0.20891,-0.335813,0
2024-11-29 18:14:24.735,-0.20339,3.64128,10.2969,-0.222272,0.221127,-0.32604,0
2024-11-29 18:14:24.738,-0.275175,3.62453,10.1175,-0.194784,0.231511,-0.312601,0
2024-11-29 18:14:24.741,-0.354437,3.61974,9.9332,-0.143473,0.239452,-0.28328,0
2024-11-29 18:14:24.742,-0.4334,3.62214,9.75584,-0.143473,0.239452,-0.28328,0
2024-11-29 18:14:24.744,-0.500399,3.63649,9.59552,-0.122704,0.237009,-0.266177,0
2024-11-29 18:14:24.748,-0.56022,3.65833,9.41366,-0.0897182,0.225403,-0.233191,0
2024-11-29 18:14:24.750,-0.622433,3.67986,9.25065,-0.0793338,0.215629,-0.213644,0
2024-11-29 18:14:24.752,-0.672682,3.72054,9.13101,-0.0793338,0.215629,-0.213644,0
2024-11-29 18:14:24.755,-0.706182,3.74925,9.01616,-0.0652843,0.207688,-0.195318,0
2024-11-29 18:14:24.757,-0.727717,3.77318,8.90848,-0.0432938,0.189363,-0.156835,0
2024-11-29 18:14:24.759,-0.732503,3.7995,8.82712,-0.0432938,0.189363,-0.156835,0
2024-11-29 18:14:24.761,-0.706182,3.8019,8.78405,-0.0341311,0.1802,-0.139731,0
2024-11-29 18:14:24.763,-0.667897,3.833,8.74337,-0.0255792,0.173481,-0.122017,0
2024-11-29 18:14:24.767,-0.632004,3.86411,8.71945,-0.00236703,0.157599,-0.0975828,0
2024-11-29 18:14:24.769,-0.588933,3.85932,8.69283,0.00740652,0.152101,-0.0884201,0
2024-11-29 18:14:24.771,-0.541077,3.88086,8.62104,0.00740652,0.152101,-0.0884201,0
2024-11-29 18:14:24.774,-0.490828,3.89282,8.5349,0.0165692,0.147825,-0.0817008,0
2024-11-29 18:14:24.776,-0.447757,3.89282,8.46551,0.0220669,0.142938,-0.076814,0
2024-11-29 18:14:24.778,-0.414257,3.92632,8.42004,0.0287862,0.137441,-0.0737598,0
2024-11-29 18:14:24.781,-0.395115,3.96222,8.39133,0.037338,0.131943,-0.0749815,0
2024-11-29 18:14:24.782,-0.385544,3.98854,8.36501,0.0446682,0.128278,-0.076814,0
2024-11-29 18:14:24.785,-0.364008,4.01486,8.33151,0.0526092,0.121559,-0.0804791,0
2024-11-29 18:14:24.788,-0.344866,4.03161,8.28605,0.065437,0.112396,-0.089031,0
2024-11-29 18:14:24.789,-0.342473,4.05554,8.22383,0.065437,0.112396,-0.089031,0
2024-11-29 18:14:24.792,-0.337687,4.07468,8.14726,0.0715455,0.10812,-0.0939178,0
2024-11-29 18:14:24.794,-0.335294,4.07946,8.1015,0.0745997,0.102622,-0.0988045,0
2024-11-29 18:14:24.796,-0.35683,4.06989,8.068,0.077654,0.101401,-0.103691,0
2024-11-29 18:14:24.798,-0.378365,4.04836,8.01057,0.0794865,0.10079,-0.107356,0
2024-11-29 18:14:24.802,-0.385544,4.034,7.94836,0.0807082,0.102011,-0.114076,0
2024-11-29 18:14:24.803,-0.390329,4.04118,7.90289,0.0807082,0.102011,-0.114076,0
2024-11-29 18:14:24.807,-0.385544,4.05554,7.86461,0.0758214,0.102622,-0.119573,0
2024-11-29 18:14:24.808,-0.373579,4.06032,7.81675,0.0758214,0.102622,-0.119573,0
2024-11-29 18:14:24.810,-0.380758,4.05314,7.77847,0.0721563,0.102011,-0.12446,0
2024-11-29 18:14:24.814,-0.402293,4.04118,7.72822,0.0629936,0.0989573,-0.131179,0
2024-11-29 18:14:24.815,-0.421436,4.01964,7.68036,0.0629936,0.0989573,-0.131179,0
2024-11-29 18:14:24.818,-0.4334,4.01007,7.63251,0.0581068,0.095903,-0.134845,0
2024-11-29 18:14:24.820,-0.426222,4.00529,7.58465,0.0526092,0.0940705,-0.139731,0
2024-11-29 18:14:24.823,-0.423829,3.97418,7.53889,0.0446682,0.0928488,-0.142786,0
2024-11-29 18:14:24.825,-0.440578,3.96222,7.49821,0.0367272,0.0916271,-0.147061,0
2024-11-29 18:14:24.828,-0.471685,3.97418,7.45753,0.0184018,0.0849078,-0.152559,0
2024-11-29 18:14:24.830,-0.490828,3.96461,7.41685,0.00740652,0.0818535,-0.155613,0
2024-11-29 18:14:24.831,-0.505185,3.94068,7.4001,0.00740652,0.0818535,-0.155613,0
2024-11-29 18:14:24.834,-0.538684,3.9335,7.38575,-0.00358873,0.0781884,-0.155002,0
2024-11-29 18:14:24.837,-0.574577,3.93111,7.35943,-0.0170274,0.0733017,-0.155613,0
2024-11-29 18:14:24.840,-0.596112,3.93589,7.33789,-0.0445155,0.0635281,-0.159889,0
2024-11-29 18:14:24.841,-0.62004,3.94307,7.31875,-0.0445155,0.0635281,-0.159889,0
2024-11-29 18:14:24.843,-0.646361,3.95743,7.30918,-0.0579541,0.059863,-0.1605,0
2024-11-29 18:14:24.846,-0.675075,3.97657,7.30678,-0.0713928,0.0561979,-0.158668,0
2024-11-29 18:14:24.848,-0.710967,3.99093,7.30918,-0.0854423,0.0525329,-0.158668,0
2024-11-29 18:14:24.851,-0.742074,3.99811,7.32353,-0.100103,0.0494786,-0.156224,0
2024-11-29 18:14:24.854,-0.758824,4.00768,7.34985,-0.128812,0.0464244,-0.154392,0
2024-11-29 18:14:24.856,-0.780359,4.02204,7.3666,-0.128812,0.0464244,-0.154392,0
2024-11-29 18:14:24.858,-0.809073,4.02921,7.38575,-0.142251,0.043981,-0.151337,0
2024-11-29 18:14:24.860,-0.837787,4.04357,7.41925,-0.158744,0.0427593,-0.148894,0
2024-11-29 18:14:24.863,-0.845265,4.07229,7.45992,-0.174626,0.0409268,-0.144618,0
2024-11-29 18:14:24.864,-0.854836,4.08903,7.49821,-0.189897,0.0415376,-0.142786,0
2024-11-29 18:14:24.867,-0.885943,4.09382,7.52932,-0.20639,0.0409268,-0.139731,0
2024-11-29 18:14:24.869,-0.907478,4.11296,7.57747,-0.219218,0.0390942,-0.134234,0
2024-11-29 18:14:24.873,-0.926621,4.13211,7.63729,-0.244873,0.0403159,-0.128125,0
2024-11-29 18:14:24.875,-0.957727,4.15843,7.69233,-0.25648,0.0390942,-0.125071,0
2024-11-29 18:14:24.876,-0.97687,4.19432,7.74736,-0.25648,0.0390942,-0.125071,0
2024-11-29 18:14:24.880,-1.00319,4.21376,7.8024,-0.269918,0.0372617,-0.117741,0
2024-11-29 18:14:24.881,-1.04626,4.24487,7.87657,-0.281524,0.03604,-0.110411,0
2024-11-29 18:14:24.884,-1.0654,4.27597,7.96989,-0.291909,0.0329858,-0.106746,0
2024-11-29 18:14:24.886,-1.07019,4.29272,8.06561,-0.302904,0.028099,-0.0981937,0
2024-11-29 18:14:24.889,-1.10608,4.30708,8.15205,-0.323062,0.0171037,-0.0835334,0
2024-11-29 18:14:24.890,-1.1348,4.32622,8.24058,-0.323062,0.0171037,-0.0835334,0
2024-11-29 18:14:24.893,-1.13958,4.34058,8.34108,-0.329781,0.00855186,-0.0762032,0
2024-11-29 18:14:24.895,-1.14676,4.34537,8.44158,-0.337722,-0.00244339,-0.068873,0
2024-11-29 18:14:24.898,-1.15872,4.35733,8.54926,-0.34322,-0.0146603,-0.0590995,0
2024-11-29 18:14:24.900,-1.14197,4.37647,8.66411,-0.349939,-0.0256556,-0.0523802,0
2024-11-29 18:14:24.903,-1.12283,4.38126,8.77927,-0.351772,-0.0378725,-0.0432174,0
2024-11-29 18:14:24.905,-1.12044,4.38604,8.89412,-0.356048,-0.0494786,-0.0334439,0
2024-11-29 18:14:24.907,-1.12044,4.39801,9.01137,-0.357269,-0.0604739,-0.024892,0
2024-11-29 18:14:24.910,-1.1013,4.40279,9.14537,-0.356658,-0.0702474,-0.0175619,0
2024-11-29 18:14:24.912,-1.08215,4.41236,9.27249,-0.355437,-0.0787993,-0.0114534,0
2024-11-29 18:14:24.914,-1.07019,4.44108,9.38734,-0.353604,-0.0891837,-0.00106898,0
2024-11-29 18:14:24.917,-1.05105,4.45544,9.51655,-0.351161,-0.0971247,0.00503949,0
2024-11-29 18:14:24.920,-1.03669,4.45304,9.64816,-0.340776,-0.111785,0.0227541,0
2024-11-29 18:14:24.922,-1.02951,4.46979,9.76302,-0.340776,-0.111785,0.0227541,0
2024-11-29 18:14:24.924,-1.02233,4.49851,9.86142,-0.334668,-0.116672,0.0306951,0
2024-11-29 18:14:24.927,-1.01755,4.51286,9.95713,-0.327338,-0.122169,0.0380252,0
2024-11-29 18:14:24.928,-1.01276,4.53201,10.0552,-0.319397,-0.125224,0.0465771,0
2024-11-29 18:14:24.931,-1.00798,4.55593,10.1629,-0.312677,-0.125835,0.0557398,0
2024-11-29 18:14:24.934,-1.01755,4.55833,10.285,-0.289465,-0.125224,0.0746761,0
2024-11-29 18:14:24.935,-1.03669,4.57747,10.4049,-0.289465,-0.125224,0.0746761,0
2024-11-29 18:14:24.938,-1.04148,4.60379,10.5054,-0.277859,-0.126445,0.0820062,0
2024-11-29 18:14:24.940,-1.04626,4.6014,10.5844,-0.26381,-0.123391,0.0899473,0
2024-11-29 18:14:24.942,-1.04626,4.60379,10.6537,-0.24976,-0.11545,0.09911,0
2024-11-29 18:14:24.945,-1.03669,4.62293,10.7327,-0.234489,-0.109953,0.108884,0
2024-11-29 18:14:24.947,-1.02473,4.62293,10.7997,-0.221661,-0.102622,0.117435,0
2024-11-29 18:14:24.950,-1.02233,4.61815,10.8452,-0.205779,-0.0922379,0.125987,0
2024-11-29 18:14:24.953,-1.02473,4.62293,10.893,-0.191119,-0.0812427,0.133317,0
2024-11-29 18:14:24.954,-1.02473,4.61815,10.9265,-0.178291,-0.0690257,0.141869,0
2024-11-29 18:14:24.956,-1.02951,4.60618,10.9361,-0.166685,-0.0555871,0.151032,0
2024-11-29 18:14:24.959,-1.03908,4.60379,10.9385,-0.153857,-0.0415376,0.160195,0
2024-11-29 18:14:24.961,-1.05344,4.58465,10.9337,-0.142251,-0.0244339,0.169968,0
2024-11-29 18:14:24.964,-1.0654,4.5679,10.9409,-0.131867,-0.00855186,0.179742,0
2024-11-29 18:14:24.967,-1.07498,4.57508,10.9508,-0.111709,0.023823,0.203565,0
2024-11-29 18:14:24.969,-1.08215,4.57029,10.9436,-0.111709,0.023823,0.203565,0
2024-11-29 18:14:24.971,-1.08933,4.56311,10.946,-0.103157,0.0415376,0.215782,0
2024-11-29 18:14:24.973,-1.08455,4.56072,10.9603,-0.0970484,0.0586413,0.22922,0
2024-11-29 18:14:24.975,-1.07976,4.54636,10.9675,-0.0891073,0.0745234,0.242048,0
2024-11-29 18:14:24.978,-1.07498,4.53918,10.9771,-0.0860531,0.0940705,0.256098,0
2024-11-29 18:14:24.980,-1.07019,4.53679,10.9962,-0.0781121,0.111174,0.268926,0
2024-11-29 18:14:24.983,-1.05823,4.52722,11.0178,-0.0707819,0.13011,0.283586,0
2024-11-29 18:14:24.986,-1.04148,4.52961,11.0465,-0.0573433,0.166761,0.309241,0
2024-11-29 18:14:24.988,-1.02473,4.52243,11.0776,-0.0573433,0.166761,0.309241,0
2024-11-29 18:14:24.990,-1.01755,4.52722,11.1015,-0.050624,0.183865,0.322069,0
2024-11-29 18:14:24.992,-1.01276,4.54397,11.1206,-0.0408504,0.200969,0.334286,0
2024-11-29 18:14:24.994,-1.0008,4.53918,11.1494,-0.0322986,0.217462,0.345281,0
2024-11-29 18:14:24.997,-0.988834,4.54158,11.1709,-0.0249684,0.230289,0.356277,0
2024-11-29 18:14:25.000,-0.969691,4.54397,11.1876,-0.00297788,0.251058,0.377045,0
2024-11-29 18:14:25.001,-0.962513,4.53918,11.2116,-0.00297788,0.251058,0.377045,0
2024-11-29 18:14:25.004,-0.972084,4.54636,11.2259,0.00740652,0.258999,0.388652,0
2024-11-29 18:14:25.006,-0.967299,4.56311,11.2499,0.0226777,0.269384,0.396593,0
2024-11-29 18:14:25.009,-0.964906,4.58704,11.2666,0.0348946,0.279157,0.403923,0
2024-11-29 18:14:25.011,-0.97687,4.59661,11.281,0.0483333,0.287098,0.414307,0
2024-11-29 18:14:25.013,-0.979263,4.60379,11.2881,0.0636045,0.29565,0.42347,0
2024-11-29 18:14:25.016,-0.988834,4.60618,11.2834,0.081319,0.301148,0.431411,0
2024-11-29 18:14:25.018,-0.996012,4.61576,11.269,0.0972011,0.306034,0.438741,0
2024-11-29 18:14:25.021,-1.00558,4.61336,11.2762,0.135684,0.307256,0.456456,0
2024-11-29 18:14:25.023,-1.02712,4.60618,11.2786,0.135684,0.307256,0.456456,0
2024-11-29 18:14:25.025,-1.02712,4.60618,11.2499,0.150956,0.304202,0.466229,0
2024-11-29 18:14:25.027,-1.01276,4.6014,11.2283,0.170503,0.298704,0.47417,0
2024-11-29 18:14:25.030,-1.00798,4.59661,11.2116,0.188828,0.293818,0.482722,0
2024-11-29 18:14:25.033,-1.01755,4.58943,11.1829,0.223646,0.282211,0.499826,0
2024-11-29 18:14:25.035,-1.02473,4.57029,11.1302,0.223646,0.282211,0.499826,0
2024-11-29 18:14:25.036,-1.02712,4.55833,11.0871,0.24075,0.277936,0.506545,0
2024-11-29 18:14:25.040,-1.01276,4.55593,11.0536,0.270682,0.262664,0.523649,0
2024-11-29 18:14:25.041,-1.00798,4.55354,11.0106,0.270682,0.262664,0.523649,0
2024-11-29 18:14:25.043,-1.01515,4.55354,10.9651,0.286564,0.255945,0.527925,0
2024-11-29 18:14:25.047,-1.00558,4.55593,10.9217,0.315884,0.240674,0.542585,0
2024-11-29 18:14:25.048,-1.0008,4.55354,10.893,0.315884,0.240674,0.542585,0
2024-11-29 18:14:25.052,-0.998405,4.54397,10.8715,0.33421,0.228457,0.555413,0
2024-11-29 18:14:25.053,-0.998405,4.52722,10.8547,0.33421,0.228457,0.555413,0
2024-11-29 18:14:25.055,-0.996012,4.51765,10.8404,0.343983,0.227235,0.561521,0
2024-11-29 18:14:25.059,-0.988834,4.51286,10.8165,0.36292,0.225403,0.576793,0
2024-11-29 18:14:25.060,-0.99362,4.50329,10.783,0.36292,0.225403,0.576793,0
2024-11-29 18:14:25.062,-0.981655,4.49851,10.7471,0.367806,0.2309,0.583512,0
2024-11-29 18:14:25.066,-0.964906,4.49133,10.7231,0.375747,0.241285,0.597561,0
2024-11-29 18:14:25.067,-0.972084,4.49611,10.7183,0.375747,0.241285,0.597561,0
2024-11-29 18:14:25.070,-0.972084,4.48654,10.7136,0.378802,0.249226,0.603059,0
2024-11-29 18:14:25.072,-0.962513,4.48654,10.7303,0.380023,0.257778,0.609778,0
2024-11-29 18:14:25.074,-0.964906,4.48654,10.7495,0.382467,0.266329,0.616498,0
2024-11-29 18:14:25.076,-0.962513,4.47458,10.7327,0.386132,0.276714,0.623828,0
2024-11-29 18:14:25.079,-0.945763,4.48415,10.7064,0.384299,0.289542,0.628715,0
2024-11-29 18:14:25.082,-0.952942,4.48415,10.692,0.384299,0.30298,0.635434,0
2024-11-29 18:14:25.085,-0.972084,4.47219,10.6753,0.381245,0.330468,0.646429,0
2024-11-29 18:14:25.087,-0.974477,4.44826,10.6633,0.381245,0.330468,0.646429,0
2024-11-29 18:14:25.088,-0.964906,4.42911,10.6514,0.37758,0.340853,0.652538,0
2024-11-29 18:14:25.091,-0.955334,4.42672,10.6298,0.373915,0.350626,0.656814,0
2024-11-29 18:14:25.093,-0.948156,4.4339,10.6035,0.364752,0.358567,0.661089,0
2024-11-29 18:14:25.096,-0.931406,4.4339,10.5772,0.344594,0.370173,0.670252,0
2024-11-29 18:14:25.098,-0.895514,4.42672,10.5604,0.344594,0.370173,0.670252,0
2024-11-29 18:14:25.100,-0.8668,4.41715,10.5437,0.331156,0.374449,0.672696,0
2024-11-29 18:14:25.103,-0.835394,4.42433,10.5269,0.316495,0.372617,0.675139,0
2024-11-29 18:14:25.106,-0.799502,4.4339,10.5317,0.278623,0.368952,0.67575,0
2024-11-29 18:14:25.107,-0.76361,4.43869,10.5485,0.278623,0.368952,0.67575,0
2024-11-29 18:14:25.109,-0.720539,4.47458,10.5867,0.257854,0.362843,0.673306,0
2024-11-29 18:14:25.113,-0.670289,4.50568,10.6442,0.213873,0.356124,0.666587,0
2024-11-29 18:14:25.115,-0.63679,4.52483,10.7064,0.213873,0.356124,0.666587,0
2024-11-29 18:14:25.117,-0.598505,4.55833,10.7925,0.191882,0.351237,0.659257,0
2024-11-29 18:14:25.120,-0.545863,4.58465,10.9098,0.149123,0.34635,0.650094,0
2024-11-29 18:14:25.121,-0.517149,4.59183,11.0321,0.149123,0.34635,0.650094,0
2024-11-29 18:14:25.124,-0.490828,4.59422,11.1446,0.131409,0.343907,0.641542,0
2024-11-29 18:14:25.126,-0.457328,4.59661,11.2546,0.114305,0.342074,0.63238,0
2024-11-29 18:14:25.129,-0.440578,4.60618,11.3839,0.0990336,0.341464,0.624439,0
2024-11-29 18:14:25.132,-0.426222,4.59422,11.5062,0.073378,0.341464,0.604281,0
2024-11-29 18:14:25.133,-0.41665,4.55833,11.6163,0.073378,0.341464,0.604281,0
2024-11-29 18:14:25.136,-0.419043,4.5344,11.7263,0.0629936,0.342685,0.595118,0
2024-11-29 18:14:25.138,-0.423829,4.50568,11.8173,0.0556635,0.343296,0.585344,0
2024-11-29 18:14:25.140,-0.440578,4.46022,11.8938,0.0483333,0.34574,0.574349,0
2024-11-29 18:14:25.143,-0.435793,4.42194,11.9656,0.0391706,0.34574,0.56763,0
2024-11-29 18:14:25.145,-0.421436,4.37408,12.0183,0.0330621,0.342074,0.559078,0
2024-11-29 18:14:25.147,-0.419043,4.30469,12.0422,0.0245102,0.332912,0.552359,0
2024-11-29 18:14:25.150,-0.397508,4.24247,12.0494,0.0153475,0.322527,0.543196,0
2024-11-29 18:14:25.152,-0.385544,4.17278,12.0613,0.00251974,0.30298,0.535255,0
2024-11-29 18:14:25.154,-0.385544,4.11057,12.0975,-0.00908635,0.278546,0.528536,0
2024-11-29 18:14:25.157,-0.35683,4.04836,12.1358,-0.0231358,0.244339,0.521816,0
2024-11-29 18:14:25.159,-0.316152,3.97897,12.1789,-0.0377962,0.204634,0.515097,0
2024-11-29 18:14:25.161,-0.277567,3.92154,12.2459,-0.0542891,0.159431,0.505934,0
2024-11-29 18:14:25.165,-0.232104,3.85454,12.3344,-0.0732253,0.111174,0.497993,0
2024-11-29 18:14:25.166,-0.177069,3.78275,12.4517,-0.0909399,0.0610847,0.490052,0
2024-11-29 18:14:25.168,-0.117248,3.7014,12.6048,-0.106211,0.0128278,0.480889,0
2024-11-29 18:14:25.171,-0.066999,3.61974,12.7606,-0.120871,-0.0335966,0.470505,0
2024-11-29 18:14:25.173,-0.0143569,3.54796,12.9209,-0.130034,-0.0763559,0.463786,0
2024-11-29 18:14:25.176,0.0358923,3.46421,13.1028,-0.136143,-0.112396,0.453401,0
2024-11-29 18:14:25.178,0.0765703,3.37089,13.2993,-0.137364,-0.141106,0.443017,0
2024-11-29 18:14:25.181,0.117248,3.28235,13.5003,-0.13431,-0.164318,0.433243,0
2024-11-29 18:14:25.183,0.160319,3.19861,13.7061,-0.125147,-0.178367,0.42347,0
2024-11-29 18:14:25.186,0.196211,3.08106,13.9074,-0.109876,-0.186919,0.413085,0
2024-11-29 18:14:25.187,0.212961,2.95185,14.0916,-0.086664,-0.189363,0.405144,0
2024-11-29 18:14:25.190,0.227318,2.81306,14.2567,-0.0561216,-0.184476,0.400258,0
2024-11-29 18:14:25.192,0.241675,2.66949,14.3934,-0.0237467,-0.175924,0.391706,0
2024-11-29 18:14:25.195,0.258425,2.50887,14.5059,0.0153475,-0.163707,0.388041,0
2024-11-29 18:14:25.198,0.285045,2.32223,14.5705,0.113083,-0.127056,0.379489,0
2024-11-29 18:14:25.200,0.325723,2.11884,14.5968,0.113083,-0.127056,0.379489,1
2024-11-29 18:14:25.201,0.378365,1.92233,14.6088,0.167449,-0.10812,0.377656,0
2024-11-29 18:14:25.205,0.438186,1.73569,14.5633,0.284731,-0.0751342,0.37338,0
2024-11-29 18:14:25.206,0.514756,1.52752,14.482,0.284731,-0.0751342,0.37338,0
2024-11-29 18:14:25.208,0.596112,1.31426,14.3958,0.347038,-0.0653607,0.37338,0
2024-11-29 18:14:25.211,0.667897,1.11805,14.2902,0.409344,-0.0604739,0.37277,0
2024-11-29 18:14:25.213,0.73011,0.914656,14.1467,0.469207,-0.059863,0.373991,0
2024-11-29 18:14:25.216,0.773181,0.708575,13.9696,0.528459,-0.064139,0.376435,0
2024-11-29 18:14:25.218,0.794716,0.512363,13.7495,0.58649,-0.0726908,0.3801,0
2024-11-29 18:14:25.220,0.816252,0.332901,13.5003,0.637801,-0.0824644,0.383154,0
2024-11-29 18:14:25.222,0.816252,0.193819,13.2658,0.68789,-0.0934596,0.389873,0
2024-11-29 18:14:25.226,0.801895,0.066999,13.0406,0.774631,-0.122169,0.410642,0
2024-11-29 18:14:25.228,0.773181,-0.0287139,12.83,0.812503,-0.135608,0.425302,0
2024-11-29 18:14:25.231,0.734896,-0.081356,12.629,0.812503,-0.135608,0.425302,0
2024-11-29 18:14:25.232,0.701396,-0.114855,12.4445,0.846711,-0.152101,0.440574,0
2024-11-29 18:14:25.234,0.665504,-0.138784,12.2578,0.877864,-0.163096,0.458899,0
2024-11-29 18:14:25.238,0.643968,-0.138784,12.0613,0.933451,-0.175313,0.497993,0
2024-11-29 18:14:25.239,0.634397,-0.129212,11.8699,0.933451,-0.175313,0.497993,0
2024-11-29 18:14:25.241,0.634397,-0.117248,11.6904,0.954831,-0.174091,0.51693,0
2024-11-29 18:14:25.245,0.651147,-0.0693919,11.5086,0.989038,-0.153323,0.552969,0
2024-11-29 18:14:25.247,0.658325,0.00957129,11.3312,0.989038,-0.153323,0.552969,0
2024-11-29 18:14:25.248,0.684646,0.0885344,11.1661,1.00431,-0.133776,0.569462,0
2024-11-29 18:14:25.252,0.739681,0.141177,11.013,1.02874,-0.0812427,0.587177,0
2024-11-29 18:14:25.254,0.801895,0.205783,10.8619,1.04157,-0.0452027,0.587788,0
2024-11-29 18:14:25.256,0.862014,0.287438,10.6992,1.04157,-0.0452027,0.587788,0
2024-11-29 18:14:25.258,0.914656,0.35683,10.5437,1.05073,-0.0109953,0.585344,0
2024-11-29 18:14:25.260,0.964906,0.428614,10.3759,1.06173,0.0274881,0.578625,0
2024-11-29 18:14:25.264,0.99362,0.500399,10.2012,1.07761,0.101401,0.549304,0
2024-11-29 18:14:25.265,1.00798,0.565005,10.0074,1.07761,0.101401,0.549304,0
2024-11-29 18:14:25.267,1.00319,0.615255,9.77737,1.08128,0.135608,0.530368,0
2024-11-29 18:14:25.271,0.996012,0.651147,9.5333,1.07639,0.19486,0.486387,0
2024-11-29 18:14:25.272,0.97687,0.689432,9.27966,1.07639,0.19486,0.486387,0
2024-11-29 18:14:25.274,0.94337,0.706182,9.00658,1.06784,0.224792,0.461342,0
2024-11-29 18:14:25.277,0.919442,0.718146,8.72423,1.05196,0.247393,0.437519,0
2024-11-29 18:14:25.279,0.862014,0.744467,8.43679,1.03302,0.269384,0.411253,0
2024-11-29 18:14:25.281,0.794716,0.758824,8.14008,1.00736,0.288931,0.383765,0
2024-11-29 18:14:25.285,0.742074,0.756431,7.85504,0.974989,0.304813,0.356888,0
2024-11-29 18:14:25.286,0.691825,0.780359,7.57986,0.933451,0.316419,0.330621,0
2024-11-29 18:14:25.288,0.624826,0.82343,7.31875,0.888859,0.328025,0.303744,0
2024-11-29 18:14:25.292,0.557827,0.84018,7.06989,0.838159,0.335966,0.277477,0
2024-11-29 18:14:25.293,0.500399,0.859622,6.83988,0.78135,0.342685,0.254265,0
2024-11-29 18:14:25.296,0.431007,0.878764,6.63649,0.72332,0.34635,0.229831,0
2024-11-29 18:14:25.299,0.380758,0.905085,6.469,0.591987,0.348183,0.184629,0
2024-11-29 18:14:25.301,0.34008,0.952942,6.32991,0.591987,0.348183,0.184629,0
2024-11-29 18:14:25.303,0.299402,0.984048,6.21027,0.523572,0.34574,0.161416,0
2024-11-29 18:14:25.306,0.267996,0.988834,6.11934,0.378802,0.336577,0.117435,0
2024-11-29 18:14:25.308,0.253639,1.00558,6.0332,0.378802,0.336577,0.117435,0
2024-11-29 18:14:25.311,0.246461,1.02233,5.99492,0.304278,0.328025,0.0942232,0
2024-11-29 18:14:25.312,0.241675,1.01994,5.98535,0.232198,0.320084,0.0697893,0
2024-11-29 18:14:25.314,0.239282,1.01994,5.98774,0.156453,0.313365,0.0465771,0
2024-11-29 18:14:25.318,0.234497,1.02233,6.0332,0.0862058,0.307867,0.0215324,0
2024-11-29 18:14:25.320,0.236889,1.01755,6.10259,0.0165692,0.303591,-0.00290152,0
2024-11-29 18:14:25.321,0.236889,1.01755,6.18634,-0.050624,0.301148,-0.029168,0
2024-11-29 18:14:25.325,0.232104,1.01994,6.27966,-0.172183,0.299315,-0.0859767,0
2024-11-29 18:14:25.327,0.22014,1.01515,6.37538,-0.22777,0.298704,-0.113465,0
2024-11-29 18:14:25.329,0.184247,0.99362,6.49771,-0.22777,0.298704,-0.113465,0
2024-11-29 18:14:25.332,0.133998,0.986441,6.64606,-0.277248,0.298093,-0.145229,0
2024-11-29 18:14:25.334,0.0741775,0.979263,6.81117,-0.324894,0.295039,-0.17455,0
2024-11-29 18:14:25.336,0.0143569,0.952942,6.95474,-0.366432,0.290152,-0.203259,0
2024-11-29 18:14:25.339,-0.0478565,0.926621,7.08904,-0.404305,0.280379,-0.235023,0
2024-11-29 18:14:25.341,-0.117248,0.893121,7.22543,-0.436069,0.269384,-0.263122,0
2024-11-29 18:14:25.343,-0.189033,0.857229,7.34985,-0.467222,0.257167,-0.290611,0
2024-11-29 18:14:25.346,-0.265603,0.813859,7.48385,-0.492267,0.240674,-0.320542,0
2024-11-29 18:14:25.348,-0.344866,0.780359,7.62054,-0.515479,0.224792,-0.350474,0
2024-11-29 18:14:25.351,-0.411865,0.742074,7.7665,-0.533193,0.207688,-0.375518,0
2024-11-29 18:14:25.352,-0.474078,0.694218,7.89332,-0.548464,0.191806,-0.399952,0
2024-11-29 18:14:25.354,-0.531506,0.655932,7.99861,-0.560071,0.171648,-0.424997,0
2024-11-29 18:14:25.357,-0.576969,0.632004,8.12543,-0.569844,0.154544,-0.446377,0
2024-11-29 18:14:25.359,-0.641576,0.608076,8.24298,-0.574731,0.142327,-0.467756,0
2024-11-29 18:14:25.362,-0.734896,0.581755,8.35065,-0.578396,0.127667,-0.484249,0
2024-11-29 18:14:25.365,-0.84018,0.557827,8.46551,-0.575953,0.10079,-0.509905,0
2024-11-29 18:14:25.367,-0.955334,0.545863,8.57558,-0.575953,0.10079,-0.509905,0
2024-11-29 18:14:25.370,-1.07019,0.536291,8.67608,-0.569844,0.0861295,-0.519067,0
2024-11-29 18:14:25.372,-1.18744,0.517149,8.77448,-0.563125,0.0708583,-0.522733,0
2024-11-29 18:14:25.373,-1.30947,0.507577,8.8678,-0.557016,0.0500895,-0.524565,0
2024-11-29 18:14:25.376,-1.42941,0.490828,8.92762,-0.544799,0.0293207,-0.522733,0
2024-11-29 18:14:25.380,-1.66869,0.457328,9.07119,-0.527696,-0.020158,-0.50624,0
2024-11-29 18:14:25.381,-1.55145,0.469292,8.99462,-0.527696,-0.020158,-0.50624,0
2024-11-29 18:14:25.383,-1.79312,0.452543,9.14058,-0.527696,-0.020158,-0.50624,0
2024-11-29 18:14:25.386,-1.90798,0.435793,9.19801,-0.48738,-0.0873512,-0.457983,0
2024-11-29 18:14:25.387,-2.00399,0.431007,9.2339,-0.48738,-0.0873512,-0.457983,0
2024-11-29 18:14:25.390,-2.10688,0.442971,9.2677,-0.476995,-0.10812,-0.435992,0
2024-11-29 18:14:25.394,-2.26959,0.438186,9.37299,-0.446453,-0.138051,-0.379794,0
2024-11-29 18:14:25.395,-2.26959,0.438186,9.37299,-0.446453,-0.138051,-0.379794,0
2024-11-29 18:14:25.397,-2.32941,0.447757,9.45434,-0.430571,-0.149658,-0.351084,0
2024-11-29 18:14:25.400,-2.38445,0.447757,9.52373,-0.394531,-0.169816,-0.28267,0
2024-11-29 18:14:25.403,-2.41555,0.452543,9.58116,-0.376206,-0.181422,-0.247851,0
2024-11-29 18:14:25.405,-2.42034,0.459721,9.6338,-0.376206,-0.181422,-0.247851,0
2024-11-29 18:14:25.406,-2.42991,0.469292,9.66491,-0.357269,-0.186919,-0.209979,0
2024-11-29 18:14:25.410,-2.4347,0.495613,9.67687,-0.3365,-0.195471,-0.171495,0
2024-11-29 18:14:25.412,-2.41555,0.50997,9.70319,-0.29985,-0.204023,-0.0981937,0
2024-11-29 18:14:25.414,-2.39163,0.517149,9.73191,-0.29985,-0.204023,-0.0981937,0
2024-11-29 18:14:25.417,-2.38684,0.541077,9.75105,-0.259534,-0.210742,-0.0224486,0
2024-11-29 18:14:25.419,-2.35334,0.569791,9.75823,-0.259534,-0.210742,-0.0224486,0
2024-11-29 18:14:25.420,-2.3007,0.610469,9.74866,-0.241819,-0.211964,0.0154239,0
2024-11-29 18:14:25.423,-2.24088,0.65354,9.72473,-0.225937,-0.209521,0.0514639,0
2024-11-29 18:14:25.426,-2.17388,0.689432,9.71994,-0.211277,-0.209521,0.0850605,0
2024-11-29 18:14:25.428,-2.12124,0.737288,9.73909,-0.196006,-0.205856,0.117435,0
2024-11-29 18:14:25.430,-2.03749,0.782752,9.76062,-0.179513,-0.197915,0.151643,0
2024-11-29 18:14:25.432,-1.93908,0.847657,9.76302,-0.164852,-0.191195,0.180964,0
2024-11-29 18:14:25.434,-1.84816,0.912264,9.78216,-0.150803,-0.185698,0.211506,0
2024-11-29 18:14:25.437,-1.75484,0.979263,9.79652,-0.135532,-0.180811,0.237772,0
2024-11-29 18:14:25.440,-1.65194,1.05344,9.81566,-0.122704,-0.175924,0.262817,0
2024-11-29 18:14:25.443,-1.52034,1.11565,9.84467,-0.0933833,-0.164929,0.303133,0
2024-11-29 18:14:25.444,-1.35972,1.18505,9.84228,-0.0933833,-0.164929,0.303133,0
2024-11-29 18:14:25.446,-1.20658,1.25444,9.81326,-0.0799446,-0.156988,0.319015,0
2024-11-29 18:14:25.450,-1.06301,1.32144,9.79891,-0.0671168,-0.153934,0.330621,0
2024-11-29 18:14:25.451,-0.931406,1.38844,9.77498,-0.0567324,-0.146603,0.338562,0
2024-11-29 18:14:25.454,-0.797109,1.44616,9.71516,-0.0469589,-0.137441,0.343449,0
2024-11-29 18:14:25.456,-0.675075,1.49641,9.64577,-0.0371853,-0.128889,0.347114,0
2024-11-29 18:14:25.459,-0.574577,1.57298,9.59313,-0.022525,-0.112396,0.341616,0
2024-11-29 18:14:25.461,-0.464507,1.65194,9.52852,-0.022525,-0.112396,0.341616,0
2024-11-29 18:14:25.463,-0.371187,1.72134,9.46391,-0.0194708,-0.103844,0.33734,0
2024-11-29 18:14:25.466,-0.299402,1.78594,9.39213,-0.0206925,-0.0983464,0.328178,0
2024-11-29 18:14:25.468,-0.224925,1.84098,9.31556,-0.022525,-0.0916271,0.319626,0
2024-11-29 18:14:25.471,-0.155533,1.90558,9.25065,-0.0231358,-0.0836861,0.307409,0
2024-11-29 18:14:25.472,-0.0981057,1.97767,9.18126,-0.0298552,-0.0794101,0.295192,0
2024-11-29 18:14:25.476,-0.0598206,2.03031,9.1358,-0.038407,-0.0745234,0.279921,0
2024-11-29 18:14:25.477,-0.0311067,2.07577,9.10469,-0.046348,-0.0708583,0.264039,0
2024-11-29 18:14:25.479,-0.00957129,2.1332,9.07119,-0.0567324,-0.0659715,0.248768,0
2024-11-29 18:14:25.482,-0.00239282,2.18345,9.02094,-0.0677277,-0.0635281,0.234107,0
2024-11-29 18:14:25.484,0.0143569,2.20977,8.95873,-0.0787229,-0.059863,0.217614,0
2024-11-29 18:14:25.486,0.0311067,2.24566,8.91566,-0.0927724,-0.0568088,0.204787,0
2024-11-29 18:14:25.490,0.026321,2.27916,8.91326,-0.101935,-0.0525329,0.188294,0
2024-11-29 18:14:25.491,0.00239282,2.31266,8.90609,-0.117206,-0.0500895,0.170579,0
2024-11-29 18:14:25.493,-0.026321,2.32702,8.88934,-0.131256,-0.0458135,0.155308,0
2024-11-29 18:14:25.497,-0.0526421,2.31984,8.88216,-0.142862,-0.043981,0.143702,0
2024-11-29 18:14:25.499,-0.081356,2.3342,8.89173,-0.156301,-0.0427593,0.132707,0
2024-11-29 18:14:25.501,-0.119641,2.33181,8.89651,-0.167907,-0.0397051,0.12049,0
2024-11-29 18:14:25.503,-0.160319,2.32702,8.91805,-0.178291,-0.0390942,0.111327,0
2024-11-29 18:14:25.506,-0.20339,2.33181,8.95394,-0.196006,-0.0378725,0.0978883,0
2024-11-29 18:14:25.509,-0.248854,2.32702,8.97069,-0.202725,-0.0348183,0.0917798,0
2024-11-29 18:14:25.510,-0.292223,2.31027,8.99462,-0.202725,-0.0348183,0.0917798,0
2024-11-29 18:14:25.512,-0.344866,2.29831,9.04248,-0.205779,-0.0323749,0.0893364,0
2024-11-29 18:14:25.516,-0.402293,2.31266,9.09512,-0.208833,-0.0226013,0.0862822,0
2024-11-29 18:14:25.518,-0.445364,2.31506,9.13101,-0.203947,-0.015882,0.0875039,0
2024-11-29 18:14:25.520,-0.495613,2.32223,9.15494,-0.203947,-0.015882,0.0875039,0
2024-11-29 18:14:25.523,-0.536291,2.34616,9.17408,-0.199671,-0.00794101,0.0923906,0
2024-11-29 18:14:25.524,-0.572184,2.37727,9.2028,-0.194173,0.00122169,0.0954449,0
2024-11-29 18:14:25.526,-0.617647,2.41077,9.20997,-0.181956,0.0103844,0.0984991,0
2024-11-29 18:14:25.529,-0.639183,2.4347,9.2004,-0.173404,0.020158,0.104608,0
2024-11-29 18:14:25.531,-0.679861,2.44188,9.16212,-0.16302,0.0293207,0.110716,0
2024-11-29 18:14:25.533,-0.727717,2.44905,9.0999,-0.152025,0.0409268,0.115603,0
2024-11-29 18:14:25.537,-0.74686,2.4682,9.06641,-0.131256,0.0610847,0.127209,0
2024-11-29 18:14:25.539,-0.742074,2.48734,9.03291,-0.131256,0.0610847,0.127209,0
2024-11-29 18:14:25.540,-0.73011,2.52832,8.98505,-0.120261,0.0690257,0.133317,0
2024-11-29 18:14:25.544,-0.732503,2.57617,8.93719,-0.0988809,0.0842969,0.146756,0
2024-11-29 18:14:25.546,-0.737288,2.62403,8.88216,-0.0988809,0.0842969,0.146756,0
2024-11-29 18:14:25.549,-0.739681,2.69821,8.81277,-0.0829989,0.0946813,0.15714,0
2024-11-29 18:14:25.551,-0.727717,2.75085,8.72902,-0.0756687,0.101401,0.165692,0
2024-11-29 18:14:25.553,-0.691825,2.8011,8.64258,-0.0756687,0.101401,0.165692,0
2024-11-29 18:14:25.556,-0.648754,2.87049,8.57558,-0.0652843,0.113618,0.174244,0
2024-11-29 18:14:25.558,-0.622433,2.92313,8.48704,-0.0634518,0.12278,0.180353,0
2024-11-29 18:14:25.560,-0.588933,2.96142,8.39612,-0.0634518,0.12278,0.180353,0
2024-11-29 18:14:25.562,-0.536291,3.01167,8.31237,-0.0616192,0.132554,0.182796,0
2024-11-29 18:14:25.564,-0.478864,3.06431,8.21426,-0.0622301,0.14416,0.184629,0
2024-11-29 18:14:25.567,-0.426222,3.11007,8.12782,-0.0683385,0.154544,0.187072,0
2024-11-29 18:14:25.569,-0.366401,3.15314,8.05125,-0.0720036,0.16554,0.184018,0
2024-11-29 18:14:25.571,-0.304188,3.201,7.99382,-0.0768904,0.177757,0.180964,0
2024-11-29 18:14:25.573,-0.251246,3.2345,7.96511,-0.0817772,0.186308,0.176688,0
2024-11-29 18:14:25.577,-0.18664,3.24885,7.92922,-0.0976592,0.195471,0.160195,0
2024-11-29 18:14:25.579,-0.129212,3.27039,7.91247,-0.1056,0.200969,0.148589,0
2024-11-29 18:14:25.582,-0.081356,3.30868,7.88854,-0.109876,0.208299,0.138815,0
2024-11-29 18:14:25.584,-0.026321,3.35414,7.84786,-0.118428,0.215629,0.124155,0
2024-11-29 18:14:25.586,0.00957129,3.39003,7.80958,-0.12698,0.222959,0.112549,0
2024-11-29 18:14:25.588,0.0358923,3.42832,7.77129,-0.12698,0.222959,0.112549,0
2024-11-29 18:14:25.591,0.066999,3.46899,7.74258,-0.144694,0.235176,0.086893,0
2024-11-29 18:14:25.593,0.081356,3.5001,7.71147,-0.144694,0.235176,0.086893,0
2024-11-29 18:14:25.595,0.0765703,3.54796,7.67318,-0.156911,0.240063,0.0722327,0
2024-11-29 18:14:25.597,0.0717847,3.59581,7.64447,-0.168517,0.243117,0.0594049,0
2024-11-29 18:14:25.600,0.0646062,3.6341,7.64208,-0.183178,0.244339,0.0453554,0
2024-11-29 18:14:25.603,0.0454636,3.67747,7.66122,-0.194784,0.243728,0.0355819,0
2024-11-29 18:14:25.605,0.0311067,3.69661,7.68754,-0.208833,0.239452,0.0221432,0
2024-11-29 18:14:25.607,0.00239282,3.70618,7.74497,-0.219829,0.231511,0.0123697,0
2024-11-29 18:14:25.610,-0.0191426,3.72054,7.81436,-0.229602,0.224792,0.00137441,0
2024-11-29 18:14:25.612,-0.0191426,3.7325,7.91007,-0.244873,0.198525,-0.0200052,0
2024-11-29 18:14:25.615,-0.0215354,3.7325,8.04407,-0.247317,0.185087,-0.0316113,0
2024-11-29 18:14:25.616,-0.0119641,3.71815,8.17598,-0.247317,0.185087,-0.0316113,0
2024-11-29 18:14:25.619,-0.00717847,3.71097,8.30758,-0.239987,0.158209,-0.0517693,0
2024-11-29 18:14:25.621,-0.0143569,3.7014,8.44636,-0.239987,0.158209,-0.0517693,0
2024-11-29 18:14:25.623,-0.0215354,3.69183,8.58036,-0.232656,0.14416,-0.0615429,0
2024-11-29 18:14:25.625,-0.0454636,3.68943,8.72662,-0.22044,0.131943,-0.0713164,0
2024-11-29 18:14:25.628,-0.0765703,3.68465,8.87737,-0.205168,0.120948,-0.0786466,0
2024-11-29 18:14:25.631,-0.117248,3.67747,9.00898,-0.164852,0.0946813,-0.0908635,0
2024-11-29 18:14:25.633,-0.172283,3.65593,9.12862,-0.164852,0.0946813,-0.0908635,0
2024-11-29 18:14:25.635,-0.265603,3.66072,9.22194,-0.143473,0.0787993,-0.0939178,0
2024-11-29 18:14:25.638,-0.385544,3.70618,9.28684,-0.0939941,0.0537546,-0.0908635,0
2024-11-29 18:14:25.640,-0.483649,3.71575,9.35145,-0.0939941,0.0537546,-0.0908635,0
2024-11-29 18:14:25.643,-0.545863,3.70618,9.43281,-0.0420721,0.0256556,-0.0823117,0
2024-11-29 18:14:25.645,-0.600898,3.71097,9.51655,-0.0420721,0.0256556,-0.0823117,0
2024-11-29 18:14:25.646,-0.663111,3.69661,9.58834,-0.014584,0.0116061,-0.0737598,0
2024-11-29 18:14:25.649,-0.710967,3.67029,9.6673,0.0147367,-0.00183254,-0.0682622,0
2024-11-29 18:14:25.651,-0.766002,3.6679,9.72712,0.0458899,-0.0128278,-0.0584886,0
2024-11-29 18:14:25.655,-0.813859,3.68465,9.77737,0.0745997,-0.0262664,-0.0505476,0
2024-11-29 18:14:25.657,-0.85005,3.68943,9.82553,0.140571,-0.0397051,-0.0322222,0
2024-11-29 18:14:25.658,-0.885943,3.69422,9.85424,0.140571,-0.0397051,-0.0322222,0
2024-11-29 18:14:25.661,-0.895514,3.70379,9.89731,0.170503,-0.0470352,-0.0218378,0
2024-11-29 18:14:25.663,-0.902692,3.71575,9.9332,0.205321,-0.0494786,-0.00839915,0
2024-11-29 18:14:25.666,-0.929013,3.73968,9.9332,0.238307,-0.0507003,0.00137441,0
2024-11-29 18:14:25.669,-0.952942,3.77318,9.89971,0.268238,-0.0458135,0.0123697,0
2024-11-29 18:14:25.671,-0.964906,3.81386,9.84706,0.328101,-0.0329858,0.0355819,0
2024-11-29 18:14:25.673,-0.967299,3.84736,9.79173,0.328101,-0.0329858,0.0355819,0
2024-11-29 18:14:25.676,-0.952942,3.88804,9.71277,0.351314,-0.0250447,0.047188,0
2024-11-29 18:14:25.677,-0.926621,3.93111,9.61466,0.373915,-0.0171037,0.0575724,0
2024-11-29 18:14:25.679,-0.907478,3.967,9.5022,0.386743,-0.0134386,0.0697893,0
2024-11-29 18:14:25.682,-0.893121,4.01486,9.39931,0.400792,-0.00671932,0.0795629,0
2024-11-29 18:14:25.684,-0.881157,4.06989,9.31556,0.406901,-0.00366508,0.086893,0
2024-11-29 18:14:25.687,-0.857229,4.12732,9.22912,0.410566,0.000610847,0.0942232,0
2024-11-29 18:14:25.690,-0.821037,4.19432,9.1334,0.411177,0.00549763,0.0997208,0
2024-11-29 18:14:25.692,-0.775574,4.24487,9.0688,0.406901,0.00794101,0.103386,0
2024-11-29 18:14:25.695,-0.73011,4.29033,9.03051,0.400792,0.0116061,0.104608,0
2024-11-29 18:14:25.696,-0.679861,4.34058,8.99941,0.391629,0.00916271,0.105829,0
2024-11-29 18:14:25.699,-0.632004,4.39322,9.0018,0.380023,0.00794101,0.103997,0
2024-11-29 18:14:25.702,-0.610469,4.44108,9.03769,0.367806,0.00610847,0.103997,0
2024-11-29 18:14:25.703,-0.581755,4.47697,9.08315,0.356811,0.00366508,0.0997208,0
2024-11-29 18:14:25.705,-0.553041,4.50808,9.13819,0.342151,0.00122169,0.0954449,0
2024-11-29 18:14:25.710,-0.45015,4.58226,9.29881,0.317717,-0.00488678,0.0844496,0
2024-11-29 18:14:25.711,-0.45015,4.58226,9.29881,0.317717,-0.00488678,0.0844496,0
2024-11-29 18:14:25.713,-0.383151,4.60618,9.39931,0.3055,-0.00610847,0.0746761,0
2024-11-29 18:14:25.716,-0.320937,4.63011,9.49502,0.287785,-0.0122169,0.0532964,0
2024-11-29 18:14:25.717,-0.27996,4.65643,9.6027,0.287785,-0.0122169,0.0532964,0
2024-11-29 18:14:25.720,-0.229711,4.67318,9.71516,0.279234,-0.0146603,0.0380252,0
2024-11-29 18:14:25.723,-0.18664,4.68036,9.82553,0.274958,-0.0189363,0.0245866,0
2024-11-29 18:14:25.725,-0.150748,4.666,9.94038,0.268238,-0.023823,0.011148,0
2024-11-29 18:14:25.728,-0.129212,4.65404,10.0409,0.263352,-0.0329858,-0.0193944,0
2024-11-29 18:14:25.729,-0.114855,4.64447,10.1222,0.263352,-0.0329858,-0.0193944,0
2024-11-29 18:14:25.732,-0.081356,4.61815,10.206,0.263962,-0.0372617,-0.0346656,0
2024-11-29 18:14:25.735,-0.0646062,4.59661,10.3041,0.262741,-0.0403159,-0.0499368,0
2024-11-29 18:14:25.736,-0.0550349,4.58704,10.3953,0.262741,-0.0421485,-0.0639862,0
2024-11-29 18:14:25.738,-0.0430708,4.57986,10.4934,0.268849,-0.0421485,-0.0792574,0
2024-11-29 18:14:25.742,-0.0454636,4.56551,10.6155,0.277401,-0.0427593,-0.104913,0
2024-11-29 18:14:25.744,-0.0693919,4.56072,10.704,0.287175,-0.0372617,-0.118963,0
2024-11-29 18:14:25.746,-0.0885344,4.55593,10.7901,0.287175,-0.0372617,-0.118963,0
2024-11-29 18:14:25.749,-0.0981057,4.54158,10.893,0.307333,-0.0287098,-0.141564,0
2024-11-29 18:14:25.751,-0.124427,4.52722,10.9771,0.307333,-0.0287098,-0.141564,0
2024-11-29 18:14:25.753,-0.143569,4.51526,11.056,0.320771,-0.0219905,-0.151948,0
2024-11-29 18:14:25.755,-0.165105,4.49611,11.1183,0.337875,-0.0134386,-0.164165,0
2024-11-29 18:14:25.757,-0.193819,4.48894,11.1613,0.351924,-0.00671932,-0.172106,0
2024-11-29 18:14:25.761,-0.227318,4.48415,11.1996,0.370861,0.00122169,-0.180658,0
2024-11-29 18:14:25.763,-0.251246,4.46022,11.2068,0.405679,0.0177146,-0.201427,0
2024-11-29 18:14:25.765,-0.267996,4.44108,11.1613,0.405679,0.0177146,-0.201427,0
2024-11-29 18:14:25.767,-0.301795,4.42433,11.1135,0.422172,0.0262664,-0.208757,0
2024-11-29 18:14:25.770,-0.325723,4.38844,11.0513,0.436221,0.0311532,-0.216087,0
2024-11-29 18:14:25.772,-0.35683,4.35254,10.9531,0.452714,0.0354291,-0.225861,0
2024-11-29 18:14:25.774,-0.392722,4.33101,10.8284,0.462488,0.0390942,-0.233802,0
2024-11-29 18:14:25.777,-0.428614,4.32144,10.6705,0.470429,0.0403159,-0.24663,0
2024-11-29 18:14:25.779,-0.474078,4.3023,10.4815,0.470429,0.0403159,-0.24663,0
2024-11-29 18:14:25.781,-0.545863,4.27597,10.3113,0.467985,0.0403159,-0.25396,0
2024-11-29 18:14:25.784,-0.627219,4.27119,10.1581,0.453325,0.0384834,-0.263122,0
2024-11-29 18:14:25.786,-0.687039,4.27119,10.0193,0.453325,0.0384834,-0.263122,0
2024-11-29 18:14:25.789,-0.734896,4.27837,9.90449,0.437443,0.0335966,-0.264344,0
2024-11-29 18:14:25.791,-0.775574,4.28315,9.79412,0.420339,0.0293207,-0.265566,0
2024-11-29 18:14:25.793,-0.809073,4.29512,9.71277,0.400181,0.0226013,-0.266177,0
2024-11-29 18:14:25.796,-0.837787,4.31426,9.65055,0.378802,0.0171037,-0.265566,0
2024-11-29 18:14:25.797,-0.864407,4.3023,9.6027,0.354979,0.00855186,-0.265566,0
2024-11-29 18:14:25.801,-0.876371,4.28794,9.5668,0.3055,-0.00549763,-0.262512,0
2024-11-29 18:14:25.803,-0.885943,4.28315,9.55723,0.3055,-0.00549763,-0.262512,0
2024-11-29 18:14:25.805,-0.912264,4.29033,9.57159,0.281066,-0.0109953,-0.263122,0
2024-11-29 18:14:25.807,-0.945763,4.29751,9.58116,0.257854,-0.0140495,-0.262512,0
2024-11-29 18:14:25.809,-0.99362,4.3023,9.58116,0.234642,-0.0122169,-0.263122,0
2024-11-29 18:14:25.812,-1.04626,4.31187,9.58116,0.212651,-0.0109953,-0.262512,0
2024-11-29 18:14:25.815,-1.05583,4.31665,9.61945,0.188217,-0.0109953,-0.26129,0
2024-11-29 18:14:25.816,-1.05583,4.31426,9.67687,0.165005,-0.0122169,-0.262512,0
2024-11-29 18:14:25.818,-1.08455,4.31426,9.73909,0.144847,-0.0171037,-0.263733,0
2024-11-29 18:14:25.821,-1.11805,4.31665,9.79412,0.125911,-0.0213797,-0.266788,0
2024-11-29 18:14:25.823,-1.15633,4.32144,9.85424,0.110029,-0.0287098,-0.268009,0
2024-11-29 18:14:25.826,-1.20419,4.32862,9.91406,0.0910926,-0.0366508,-0.269231,0
2024-11-29 18:14:25.828,-1.25922,4.31665,9.95953,0.077654,-0.0427593,-0.271674,0
2024-11-29 18:14:25.831,-1.31904,4.31426,10.0146,0.0562743,-0.0568088,-0.26862,0
2024-11-29 18:14:25.834,-1.38365,4.32862,10.0768,0.0562743,-0.0568088,-0.26862,0
2024-11-29 18:14:25.835,-1.45813,4.32144,10.139,0.049555,-0.0592522,-0.266177,0
2024-11-29 18:14:25.837,-1.52752,4.31665,10.2012,0.0391706,-0.0635281,-0.264955,0
2024-11-29 18:14:25.841,-1.59691,4.31187,10.2538,0.0312296,-0.080021,-0.252738,0
2024-11-29 18:14:25.842,-1.65194,4.31426,10.2993,0.0312296,-0.080021,-0.252738,0
2024-11-29 18:14:25.844,-1.70219,4.31905,10.3352,0.0269536,-0.0928488,-0.24663,0
2024-11-29 18:14:25.847,-1.76201,4.30469,10.3567,0.0232886,-0.104455,-0.237467,0
2024-11-29 18:14:25.849,-1.80269,4.2999,10.3735,0.0208452,-0.116672,-0.227082,0
2024-11-29 18:14:25.852,-1.84098,4.30947,10.3783,0.0177909,-0.13011,-0.21792,0
2024-11-29 18:14:25.854,-1.88405,4.33101,10.3905,0.0147367,-0.141717,-0.208146,0
2024-11-29 18:14:25.856,-1.91516,4.34776,10.4097,0.00984991,-0.153934,-0.198373,0
2024-11-29 18:14:25.858,-1.94387,4.38126,10.4264,0.00313059,-0.163707,-0.184323,0
2024-11-29 18:14:25.862,-1.95823,4.41715,10.4432,-0.000534491,-0.175924,-0.172106,0
2024-11-29 18:14:25.863,-1.98963,4.4339,10.4432,-0.00603212,-0.184476,-0.156224,0
2024-11-29 18:14:25.867,-2.02792,4.45065,10.4504,-0.0096972,-0.191806,-0.143396,0
2024-11-29 18:14:25.870,-2.04706,4.50329,10.491,-0.0206925,-0.207077,-0.114076,0
2024-11-29 18:14:25.870,-2.04706,4.50329,10.491,-0.0206925,-0.207077,-0.114076,0
2024-11-29 18:14:25.875,-2.01835,4.45304,10.4623,-0.0316877,-0.222348,-0.0823117,0
2024-11-29 18:14:25.876,-1.97767,4.45304,10.4623,-0.038407,-0.233955,-0.0700947,0
2024-11-29 18:14:25.877,-1.91755,4.41715,10.424,-0.038407,-0.233955,-0.0700947,0
2024-11-29 18:14:25.880,-1.83619,4.36212,10.3424,-0.0494023,-0.245561,-0.0578778,0
2024-11-29 18:14:25.882,-1.73809,4.29512,10.2275,-0.0634518,-0.260221,-0.0474934,0
2024-11-29 18:14:25.884,-1.64477,4.24008,10.0935,-0.0811663,-0.278546,-0.0401632,0
2024-11-29 18:14:25.888,-1.55145,4.18235,9.9691,-0.13431,-0.329858,-0.0340547,0
2024-11-29 18:14:25.890,-1.43898,4.12493,9.84228,-0.167296,-0.365287,-0.032833,0
2024-11-29 18:14:25.891,-1.32861,4.05554,9.72234,-0.167296,-0.365287,-0.032833,0
2024-11-29 18:14:25.894,-1.21615,4.0005,9.62184,-0.209444,-0.408046,-0.0334439,0
2024-11-29 18:14:25.897,-1.0989,3.96222,9.55963,-0.258312,-0.452638,-0.0401632,0
2024-11-29 18:14:25.900,-0.962513,3.91914,9.5357,-0.363989,-0.558314,-0.0560452,0
2024-11-29 18:14:25.902,-0.80668,3.88564,9.56202,-0.363989,-0.558314,-0.0560452,0
2024-11-29 18:14:25.904,-0.63679,3.833,9.65295,-0.481271,-0.673154,-0.0798683,0
2024-11-29 18:14:25.906,-0.464507,3.76122,9.79173,-0.481271,-0.673154,-0.0798683,0
2024-11-29 18:14:25.908,-0.285045,3.69183,9.96431,-0.536858,-0.732406,-0.0963612,0
2024-11-29 18:14:25.910,-0.107677,3.60778,10.1533,-0.593667,-0.788604,-0.115297,0
2024-11-29 18:14:25.914,0.0526421,3.50249,10.3977,-0.700642,-0.89367,-0.161722,0
2024-11-29 18:14:25.916,0.200997,3.38764,10.704,-0.746455,-0.943148,-0.184323,0
2024-11-29 18:14:25.917,0.337687,3.25125,11.0321,-0.746455,-0.943148,-0.184323,0
2024-11-29 18:14:25.921,0.478864,3.11486,11.3647,-0.787993,-0.987129,-0.21059,0
2024-11-29 18:14:25.923,0.617647,2.98774,11.7,-0.851521,-1.04699,-0.266788,0
2024-11-29 18:14:25.924,0.742074,2.88006,12.0183,-0.851521,-1.04699,-0.266788,0
2024-11-29 18:14:25.927,0.782752,2.80349,12.3105,-0.875955,-1.06593,-0.296108,0
2024-11-29 18:14:25.930,0.789931,2.72931,12.6434,-0.89428,-1.07509,-0.326651,0
2024-11-29 18:14:25.932,0.818644,2.6336,13.043,-0.902221,-1.07753,-0.357193,0
2024-11-29 18:14:25.936,0.663111,2.51127,13.7901,-0.897335,-1.06593,-0.412169,0
2024-11-29 18:14:25.937,0.789931,2.53071,13.4477,-0.897335,-1.06593,-0.412169,0
2024-11-29 18:14:25.939,0.371187,2.54028,13.8858,-0.87962,-1.04638,-0.431716,0
2024-11-29 18:14:25.941,0.193819,2.4347,14.0175,-0.866792,-1.01034,-0.440268,0
2024-11-29 18:14:25.944,0.253639,2.23609,14.3815,-0.846023,-0.978577,-0.445766,0
2024-11-29 18:14:25.947,0.299402,2.02074,14.6997,-0.778219,-0.916882,-0.464091,0
2024-11-29 18:14:25.949,0.297009,1.79312,14.9465,-0.733628,-0.876566,-0.473865,0
2024-11-29 18:14:25.951,0.304188,1.55862,15.1546,-0.733628,-0.876566,-0.473865,0
2024-11-29 18:14:25.954,0.297009,1.30469,15.303,-0.622377,-0.760505,-0.489747,0
2024-11-29 18:14:25.955,0.265603,1.06301,15.4179,-0.622377,-0.760505,-0.489747,0
2024-11-29 18:14:25.957,0.224925,0.85005,15.4852,-0.555184,-0.681706,-0.496466,1
2024-11-29 18:14:25.960,0.133998,0.639183,15.5163,-0.484936,-0.596798,-0.500131,0
2024-11-29 18:14:25.963,0.00239282,0.454935,15.5282,-0.40797,-0.507003,-0.49952,0
2024-11-29 18:14:25.965,-0.150748,0.282652,15.4947,-0.328559,-0.4111,-0.495855,0
2024-11-29 18:14:25.968,-0.344866,0.133998,15.4155,-0.244873,-0.313365,-0.485471,0
2024-11-29 18:14:25.970,-0.572184,0.00478565,15.291,-0.16302,-0.221127,-0.469589,0
2024-11-29 18:14:25.972,-0.816252,-0.11007,15.1164,-0.0768904,-0.128889,-0.443933,0
2024-11-29 18:14:25.974,-1.0654,-0.18664,14.8962,0.00313059,-0.03604,-0.41278,0
2024-11-29 18:14:25.977,-1.32861,-0.251246,14.671,0.162562,0.132554,-0.328483,0
2024-11-29 18:14:25.979,-1.56341,-0.304188,14.4078,0.162562,0.132554,-0.328483,0
2024-11-29 18:14:25.982,-1.77398,-0.330509,14.0438,0.301835,0.28832,-0.221585,0
2024-11-29 18:14:25.984,-1.9992,-0.316152,13.6104,0.301835,0.28832,-0.221585,0
2024-11-29 18:14:25.987,-2.19541,-0.256032,13.1698,0.360476,0.368341,-0.161722,0
2024-11-29 18:14:25.989,-2.33659,-0.20339,12.7511,0.450882,0.500284,-0.0316113,0
2024-11-29 18:14:25.991,-2.45623,-0.155533,12.3392,0.450882,0.500284,-0.0316113,0
2024-11-29 18:14:25.994,-2.57139,-0.0885344,11.9393,0.4857,0.549152,0.0361927,0
2024-11-29 18:14:25.996,-2.66231,-0.0191426,11.5708,0.511356,0.587635,0.103997,0
2024-11-29 18:14:25.998,-2.69103,0.0574277,11.2044,0.531513,0.616956,0.17119,0
2024-11-29 18:14:26.000,-2.65753,0.124427,10.8428,0.541898,0.63467,0.237161,0
2024-11-29 18:14:26.002,-2.57617,0.184247,10.5197,0.546785,0.642,0.3013,0
2024-11-29 18:14:26.005,-2.45863,0.258425,10.2443,0.544952,0.640779,0.360553,0
2024-11-29 18:14:26.008,-2.30548,0.330509,10.0122,0.538844,0.631616,0.415529,0
2024-11-29 18:14:26.009,-2.11406,0.390329,9.83271,0.538844,0.631616,0.415529,0
2024-11-29 18:14:26.013,-1.87687,0.45015,9.69362,0.515631,0.587024,0.508378,0
2024-11-29 18:14:26.015,-1.62084,0.505185,9.57638,0.504636,0.55526,0.543196,0
2024-11-29 18:14:26.017,-1.36211,0.550648,9.49023,0.477759,0.481348,0.592064,0
2024-11-29 18:14:26.020,-1.09651,0.596112,9.45195,0.477759,0.481348,0.592064,0
2024-11-29 18:14:26.021,-0.82343,0.658325,9.44716,0.465542,0.439199,0.608557,0
2024-11-29 18:14:26.024,-0.557827,0.725324,9.46391,0.45699,0.400716,0.616498,0
2024-11-29 18:14:26.027,-0.313759,0.785145,9.49502,0.447217,0.362843,0.620163,0
2024-11-29 18:14:26.030,0.0741775,0.929013,9.51895,0.438054,0.290152,0.612222,0
2024-11-29 18:14:26.031,-0.0981057,0.929013,9.51895,0.438054,0.290152,0.612222,0
2024-11-29 18:14:26.034,0.227318,0.988834,9.54766,0.434389,0.253502,0.60367,0
2024-11-29 18:14:26.036,0.579362,0.9003,9.76302,0.431945,0.215018,0.593285,0
2024-11-29 18:14:26.039,1.09412,0.699003,10.1773,0.460655,0.0922379,0.534033,0
2024-11-29 18:14:26.040,1.30469,0.655932,10.3328,0.460655,0.0922379,0.534033,0
2024-11-29 18:14:26.042,1.19462,0.785145,10.0409,0.477148,0.0586413,0.504102,0
2024-11-29 18:14:26.046,1.17787,0.909871,9.76302,0.495473,0.0433702,0.456456,0
2024-11-29 18:14:26.048,1.32383,0.984048,9.72712,0.50036,0.0323749,0.435687,0
2024-11-29 18:14:26.050,1.47966,1.04387,9.74627,0.504025,0.0171037,0.410031,0
2024-11-29 18:14:26.052,1.60409,1.10369,9.71516,0.504025,0.0171037,0.410031,0
2024-11-29 18:14:26.055,1.72373,1.14197,9.6362,0.496695,-0.0250447,0.358109,0
2024-11-29 18:14:26.056,1.83859,1.17069,9.50698,0.496695,-0.0250447,0.358109,0
2024-11-29 18:14:26.060,1.92951,1.17547,9.34427,0.474094,-0.0531437,0.304965,0
2024-11-29 18:14:26.062,2.02792,1.18744,9.18126,0.474094,-0.0531437,0.304965,0
2024-11-29 18:14:26.064,2.13081,1.20897,9.04008,0.457601,-0.0568088,0.275034,0
2024-11-29 18:14:26.066,2.22652,1.22094,8.94676,0.438665,-0.0586413,0.241437,0
2024-11-29 18:14:26.069,2.31027,1.24008,8.89412,0.417896,-0.0592522,0.205397,0
2024-11-29 18:14:26.071,2.3677,1.27358,8.8343,0.39957,-0.0580305,0.168747,0
2024-11-29 18:14:26.073,2.39402,1.30229,8.74098,0.378802,-0.0592522,0.130263,0
2024-11-29 18:14:26.075,2.39641,1.33579,8.64258,0.355589,-0.0580305,0.0881147,0
2024-11-29 18:14:26.078,2.37009,1.3669,8.56122,0.329934,-0.0568088,0.0465771,0
2024-11-29 18:14:26.080,2.33898,1.37647,8.51097,0.306111,-0.0537546,0.00503949,0
2024-11-29 18:14:26.083,2.30548,1.37408,8.4679,0.27679,-0.0537546,-0.0346656,0
2024-11-29 18:14:26.086,2.24566,1.37169,8.42244,0.224868,-0.0507003,-0.121406,0
2024-11-29 18:14:26.087,2.1667,1.3669,8.38415,0.224868,-0.0507003,-0.121406,0
2024-11-29 18:14:26.090,2.0662,1.35494,8.3363,0.200434,-0.0421485,-0.162944,0
2024-11-29 18:14:26.093,1.95823,1.3334,8.29562,0.172335,-0.0293207,-0.200205,0
2024-11-29 18:14:26.096,1.67348,1.27119,8.23819,0.130187,0.00427593,-0.273507,0
2024-11-29 18:14:26.097,1.82662,1.27119,8.23819,0.130187,0.00427593,-0.273507,0
2024-11-29 18:14:26.100,1.52273,1.24247,8.21187,0.108807,0.023823,-0.302828,0
2024-11-29 18:14:26.102,1.35972,1.22572,8.18315,0.0892601,0.0470352,-0.330316,0
2024-11-29 18:14:26.104,1.18505,1.20897,8.13769,0.0709346,0.0702474,-0.351084,0
2024-11-29 18:14:26.107,1.02712,1.19701,8.11346,0.0361163,0.123391,-0.384681,0
2024-11-29 18:14:26.109,0.869193,1.16112,8.10629,0.0202343,0.149658,-0.392622,0
2024-11-29 18:14:26.112,0.710967,1.13958,8.07279,0.00862822,0.175924,-0.399341,0
2024-11-29 18:14:26.113,0.562612,1.14437,8.04407,0.00862822,0.175924,-0.399341,0
2024-11-29 18:14:26.116,0.435793,1.14676,8.01775,-0.00419957,0.204023,-0.399952,0
2024-11-29 18:14:26.120,0.217747,1.12762,7.94836,-0.0280226,0.255945,-0.395065,0
2024-11-29 18:14:26.120,0.217747,1.12762,7.94836,-0.0280226,0.255945,-0.395065,0
2024-11-29 18:14:26.123,0.117248,1.1324,7.91007,-0.0353528,0.284044,-0.388957,0
2024-11-29 18:14:26.125,0.00478565,1.13719,7.8694,-0.042683,0.310921,-0.380405,0
2024-11-29 18:14:26.127,-0.081356,1.14676,7.82632,-0.050624,0.332912,-0.368799,0
2024-11-29 18:14:26.129,-0.155533,1.15394,7.78325,-0.0524565,0.353681,-0.357193,0
2024-11-29 18:14:26.132,-0.224925,1.17547,7.73061,-0.0579541,0.372617,-0.341922,0
2024-11-29 18:14:26.135,-0.27996,1.19462,7.67558,-0.0628409,0.384834,-0.324818,0
2024-11-29 18:14:26.137,-0.32333,1.19222,7.62533,-0.0658951,0.395218,-0.309547,0
2024-11-29 18:14:26.140,-0.347258,1.20897,7.57478,-0.0720036,0.40377,-0.272896,0
2024-11-29 18:14:26.142,-0.35683,1.24008,7.53171,-0.0738362,0.400716,-0.255181,0
2024-11-29 18:14:26.145,-0.366401,1.2664,7.51496,-0.0720036,0.394607,-0.239299,0
2024-11-29 18:14:26.147,-0.368794,1.29512,7.49582,-0.074447,0.389721,-0.219141,0
2024-11-29 18:14:26.148,-0.35683,1.33579,7.47189,-0.074447,0.389721,-0.219141,0
2024-11-29 18:14:26.151,-0.335294,1.37169,7.44317,-0.0720036,0.379336,-0.202649,0
2024-11-29 18:14:26.154,-0.294616,1.41027,7.4025,-0.0726145,0.368341,-0.185545,0
2024-11-29 18:14:26.156,-0.256032,1.46052,7.37139,-0.0677277,0.356735,-0.170274,0
2024-11-29 18:14:26.159,-0.234497,1.5012,7.34268,-0.0671168,0.340853,-0.155002,0
2024-11-29 18:14:26.160,-0.200997,1.53948,7.32353,-0.0616192,0.329247,-0.140342,0
2024-11-29 18:14:26.163,-0.162712,1.58255,7.30678,-0.0579541,0.313975,-0.127514,0
2024-11-29 18:14:26.166,-0.131605,1.64716,7.28286,-0.0494023,0.284655,-0.106135,0
2024-11-29 18:14:26.167,-0.0909273,1.70937,7.27328,-0.0494023,0.284655,-0.106135,0
2024-11-29 18:14:26.170,-0.0358923,1.75962,7.25653,-0.0414613,0.26694,-0.0957503,0
2024-11-29 18:14:26.173,0.0119641,1.81226,7.23261,-0.0268009,0.226624,-0.0835334,0
2024-11-29 18:14:26.174,0.0765703,1.85773,7.20628,-0.0268009,0.226624,-0.0835334,0
2024-11-29 18:14:26.177,0.143569,1.89362,7.17039,-0.0219141,0.204023,-0.0798683,0
2024-11-29 18:14:26.180,0.20339,1.94148,7.12732,-0.0182491,0.179589,-0.0798683,0
2024-11-29 18:14:26.182,0.270389,1.98963,7.09143,-0.014584,0.152101,-0.0817008,0
2024-11-29 18:14:26.184,0.313759,2.0351,7.05554,-0.0109189,0.128278,-0.0865876,0
2024-11-29 18:14:26.187,0.342473,2.08295,7.01217,-0.0115297,0.0769668,-0.0988045,0
2024-11-29 18:14:26.189,0.364008,2.1332,6.95474,-0.0121406,0.0525329,-0.104913,0
2024-11-29 18:14:26.192,0.383151,2.17627,6.90449,-0.0121406,0.0525329,-0.104913,0
2024-11-29 18:14:26.193,0.476471,2.16431,6.94756,-0.0170274,0.0244339,-0.112243,0
2024-11-29 18:14:26.196,0.574577,2.13799,7.05075,-0.0182491,-0.00671932,-0.128736,0
2024-11-29 18:14:26.198,0.498006,2.17866,7.01486,-0.0151948,-0.0329858,-0.140342,0
2024-11-29 18:14:26.200,0.390329,2.23131,6.91645,-0.0188599,-0.0549763,-0.150116,0
2024-11-29 18:14:26.203,0.567398,2.15234,7.15843,-0.0219141,-0.0806318,-0.162944,0
2024-11-29 18:14:26.205,0.684646,2.09492,7.38575,-0.0139731,-0.114228,-0.180658,0
2024-11-29 18:14:26.208,0.397508,2.21695,7.16082,-0.00725381,-0.139273,-0.195318,0
2024-11-29 18:14:26.209,0.0837488,2.36531,6.87578,-0.0096972,-0.141106,-0.198373,0
2024-11-29 18:14:26.212,0.0382852,2.45145,6.82313,-0.0170274,-0.142327,-0.197762,0
2024-11-29 18:14:26.214,0.112463,2.47298,6.88295,-0.022525,-0.153934,-0.197151,0
2024-11-29 18:14:26.218,0.114855,2.46102,6.89492,-0.0494023,-0.200969,-0.193486,0
2024-11-29 18:14:26.219,0.0957129,2.44188,6.89013,-0.0494023,-0.200969,-0.193486,0
2024-11-29 18:14:26.221,0.0909273,2.4012,6.88535,-0.0646735,-0.227235,-0.192264,0
2024-11-29 18:14:26.225,0.107677,2.34616,6.89492,-0.0994917,-0.271216,-0.193486,0
2024-11-29 18:14:26.227,0.131605,2.30788,6.95952,-0.0994917,-0.271216,-0.193486,0
2024-11-29 18:14:26.228,0.155533,2.27916,7.07229,-0.115985,-0.288931,-0.195318,0
2024-11-29 18:14:26.232,0.160319,2.24088,7.2015,-0.139808,-0.306034,-0.197762,0
2024-11-29 18:14:26.234,0.138784,2.23131,7.33071,-0.139808,-0.306034,-0.197762,0
2024-11-29 18:14:26.236,0.105284,2.25284,7.47907,-0.145916,-0.310921,-0.197151,0
2024-11-29 18:14:26.239,0.0646062,2.26241,7.62772,-0.153857,-0.312143,-0.194097,0
2024-11-29 18:14:26.241,0.0287139,2.2672,7.75215,-0.150803,-0.307867,-0.18921,0
2024-11-29 18:14:26.243,-0.0191426,2.29831,7.84307,-0.150803,-0.307867,-0.18921,0
2024-11-29 18:14:26.246,-0.066999,2.33659,7.93161,-0.147138,-0.296872,-0.177604,0
2024-11-29 18:14:26.248,-0.107677,2.37009,8.01775,-0.144694,-0.28832,-0.16783,0
2024-11-29 18:14:26.251,-0.143569,2.39402,8.07039,-0.144694,-0.28832,-0.16783,0
2024-11-29 18:14:26.253,-0.172283,2.41077,8.09671,-0.140419,-0.278546,-0.157446,0
2024-11-29 18:14:26.255,-0.18664,2.43709,8.11346,-0.137975,-0.268773,-0.147061,0
2024-11-29 18:14:26.257,-0.200997,2.45863,8.135,-0.13431,-0.25961,-0.134845,0
2024-11-29 18:14:26.259,-0.222533,2.49691,8.15923,-0.130645,-0.245561,-0.125071,0
2024-11-29 18:14:26.261,-0.258425,2.52832,8.19273,-0.130034,-0.233955,-0.114076,0
2024-11-29 18:14:26.264,-0.282652,2.54507,8.23101,-0.125147,-0.219294,-0.10247,0
2024-11-29 18:14:26.267,-0.272782,2.57139,8.2693,-0.121482,-0.206466,-0.0896418,0
2024-11-29 18:14:26.268,-0.256032,2.59053,8.29801,-0.118428,-0.192417,-0.0762032,0
2024-11-29 18:14:26.272,-0.244068,2.60489,8.31476,-0.110487,-0.175313,-0.0645971,0
2024-11-29 18:14:26.273,-0.239282,2.63839,8.3339,-0.110487,-0.175313,-0.0645971,0
2024-11-29 18:14:26.275,-0.236889,2.67906,8.35544,-0.103768,-0.139884,-0.0407741,0
2024-11-29 18:14:26.279,-0.232104,2.71974,8.36262,-0.0884965,-0.0971247,-0.0151185,0
2024-11-29 18:14:26.281,-0.241675,2.7676,8.36501,-0.0817772,-0.0763559,-0.000458135,0
2024-11-29 18:14:26.283,-0.253639,2.82503,8.36501,-0.0817772,-0.0763559,-0.000458135,0
2024-11-29 18:14:26.285,-0.239282,2.87049,8.36979,-0.0756687,-0.0555871,0.0105371,0
2024-11-29 18:14:26.288,-0.212961,2.91356,8.36979,-0.066506,-0.0354291,0.0209215,0
2024-11-29 18:14:26.291,-0.193819,2.96381,8.3363,-0.0603975,-0.0164929,0.0313059,0
2024-11-29 18:14:26.292,-0.172283,3.0021,8.3004,-0.0518457,0.00183254,0.0416903,0
2024-11-29 18:14:26.294,-0.145962,3.04756,8.27169,-0.0475697,0.0183254,0.0496313,0
2024-11-29 18:14:26.297,-0.129212,3.08345,8.24537,-0.042683,0.0317641,0.0581832,0
2024-11-29 18:14:26.300,-0.119641,3.10768,8.2023,-0.0310769,0.051922,0.0673459,0
2024-11-29 18:14:26.302,-0.119641,3.134,8.15444,-0.0310769,0.051922,0.0673459,0
2024-11-29 18:14:26.304,-0.122034,3.17468,8.11586,-0.0280226,0.0580305,0.0722327,0
2024-11-29 18:14:26.306,-0.124427,3.20818,8.08236,-0.0255792,0.0616956,0.0771195,0
2024-11-29 18:14:26.309,-0.107677,3.23211,8.06561,-0.0274118,0.0623064,0.0807846,0
2024-11-29 18:14:26.312,-0.0909273,3.27039,8.03929,-0.0261901,0.0586413,0.0807846,0
2024-11-29 18:14:26.313,-0.0885344,3.3015,8.00579,-0.0261901,0.0525329,0.0844496,0
2024-11-29 18:14:26.316,-0.0885344,3.34218,8.00818,-0.0255792,0.0488678,0.0850605,0
2024-11-29 18:14:26.318,-0.0741775,3.39721,8.02732,-0.0274118,0.0415376,0.0856713,0
2024-11-29 18:14:26.321,-0.0646062,3.44985,8.04407,-0.0292443,0.0268773,0.086893,0
2024-11-29 18:14:26.324,-0.0646062,3.50728,8.068,-0.0292443,0.0268773,0.086893,0
2024-11-29 18:14:26.326,-0.0550349,3.55753,8.1015,-0.0280226,0.0152712,0.0893364,0
2024-11-29 18:14:26.327,-0.0622134,3.60778,8.1664,-0.0280226,0.0152712,0.0893364,0
2024-11-29 18:14:26.332,-0.0765703,3.67508,8.29322,-0.022525,0.00183254,0.0881147,0
2024-11-29 18:14:26.333,-0.0765703,3.67508,8.29322,-0.0170274,-0.00549763,0.0856713,0
2024-11-29 18:14:26.337,-0.122034,3.78275,8.41526,-0.0096972,-0.0134386,0.0856713,0
2024-11-29 18:14:26.338,-0.122034,3.78275,8.41526,-0.00542127,-0.0250447,0.0862822,0
2024-11-29 18:14:26.340,-0.153141,3.81865,8.4679,-0.00542127,-0.0250447,0.0862822,0
2024-11-29 18:14:26.342,-0.181855,3.85215,8.52054,0.000687203,-0.0354291,0.0862822,0
2024-11-29 18:14:26.344,-0.205783,3.88325,8.5684,0.00740652,-0.0494786,0.0844496,0
2024-11-29 18:14:26.347,-0.248854,3.90239,8.61147,0.0141258,-0.0653607,0.086893,0
2024-11-29 18:14:26.349,-0.294616,3.91197,8.65215,0.0196235,-0.0818535,0.0856713,0
2024-11-29 18:14:26.352,-0.342473,3.9335,8.69522,0.0251211,-0.126445,0.0936123,0
2024-11-29 18:14:26.354,-0.373579,3.95743,8.75055,0.0251211,-0.126445,0.0936123,0
2024-11-29 18:14:26.357,-0.407079,3.97897,8.81037,0.0312296,-0.145382,0.0966666,0
2024-11-29 18:14:26.358,-0.440578,4.02443,8.88934,0.0342838,-0.170426,0.102164,0
2024-11-29 18:14:26.361,-0.469292,4.06271,8.99462,0.0348946,-0.194249,0.109494,0
2024-11-29 18:14:26.364,-0.500399,4.07946,9.0999,0.0428357,-0.239452,0.125987,0
2024-11-29 18:14:26.366,-0.529113,4.11536,9.20758,0.0428357,-0.239452,0.125987,0
2024-11-29 18:14:26.368,-0.548256,4.168,9.32752,0.0538309,-0.278546,0.147367,0
2024-11-29 18:14:26.370,-0.548256,4.20897,9.44956,0.0538309,-0.278546,0.147367,0
2024-11-29 18:14:26.372,-0.536291,4.21855,9.55963,0.0605502,-0.294428,0.160806,0
2024-11-29 18:14:26.374,-0.512363,4.23769,9.66252,0.0666587,-0.306645,0.173633,0
2024-11-29 18:14:26.377,-0.483649,4.27837,9.76541,0.0739889,-0.318251,0.185239,0
2024-11-29 18:14:26.380,-0.457328,4.33579,9.85664,0.081319,-0.32436,0.198067,0
2024-11-29 18:14:26.381,-0.41665,4.39322,9.9356,0.0849841,-0.330468,0.210284,0
2024-11-29 18:14:26.384,-0.373579,4.43869,10.0217,0.093536,-0.332912,0.221279,0
2024-11-29 18:14:26.387,-0.337687,4.48415,10.1175,0.0984228,-0.330468,0.234107,0
2024-11-29 18:14:26.390,-0.287438,4.52483,10.2132,0.113694,-0.318251,0.2506,0
2024-11-29 18:14:26.392,-0.229711,4.57268,10.3113,0.118581,-0.307256,0.260984,0
2024-11-29 18:14:26.393,-0.184247,4.63968,10.4073,0.118581,-0.307256,0.260984,0
2024-11-29 18:14:26.396,-0.114855,4.69472,10.491,0.123468,-0.292596,0.269536,0
2024-11-29 18:14:26.399,-0.0358923,4.72582,10.5437,0.128965,-0.277325,0.275645,0
2024-11-29 18:14:26.400,0.040678,4.77159,10.5939,0.135074,-0.260221,0.27931,0
2024-11-29 18:14:26.404,0.117248,4.81705,10.625,0.13996,-0.240063,0.283586,0
2024-11-29 18:14:26.406,0.198604,4.85773,10.6514,0.145458,-0.20158,0.281142,0
2024-11-29 18:14:26.407,0.287438,4.89362,10.6657,0.145458,-0.20158,0.281142,0
2024-11-29 18:14:26.411,0.373579,4.92473,10.6681,0.145458,-0.176535,0.278088,0
2024-11-29 18:14:26.412,0.454935,4.97258,10.6801,0.143625,-0.154544,0.27198,0
2024-11-29 18:14:26.414,0.52672,5.01566,10.6801,0.140571,-0.134997,0.264039,0
2024-11-29 18:14:26.418,0.593719,5.05155,10.6729,0.136295,-0.112396,0.254876,0
2024-11-29 18:14:26.421,0.73011,5.08983,10.6849,0.121635,-0.0757451,0.232275,0
2024-11-29 18:14:26.421,0.73011,5.08983,10.6849,0.121635,-0.0757451,0.232275,0
2024-11-29 18:14:26.425,0.787538,5.09223,10.7064,0.11064,-0.0592522,0.218225,0
2024-11-29 18:14:26.427,0.862014,5.10898,10.7255,0.0874275,-0.0342074,0.186461,0
2024-11-29 18:14:26.430,0.945763,5.11615,10.7566,0.0874275,-0.0342074,0.186461,0
2024-11-29 18:14:26.432,0.998405,5.12812,10.8045,0.0599394,-0.00733017,0.147367,0
2024-11-29 18:14:26.434,1.01037,5.15205,10.8619,0.0501658,0.00549763,0.126598,0
2024-11-29 18:14:26.437,1.02712,5.17119,10.9385,0.0501658,0.00549763,0.126598,0
2024-11-29 18:14:26.438,1.04387,5.19272,11.0465,0.0391706,0.0195471,0.109494,0
2024-11-29 18:14:26.440,1.1013,5.18555,11.269,0.0312296,0.0299315,0.0893364,0
2024-11-29 18:14:26.443,1.18983,5.14248,11.554,0.0324513,0.0348183,0.0673459,0
2024-11-29 18:14:26.445,1.15394,5.14726,11.6426,0.0324513,0.0348183,0.0673459,0
2024-11-29 18:14:26.447,0.974477,5.24537,11.5134,0.041614,0.0671932,0.0258083,0
2024-11-29 18:14:26.451,0.85005,5.31715,11.4604,0.0434465,0.106287,0.0129805,0
2024-11-29 18:14:26.453,0.825823,5.32911,11.5732,0.0489441,0.140495,-0.000458135,0
2024-11-29 18:14:26.454,0.789931,5.33181,11.7191,0.0556635,0.162485,-0.0114534,0
2024-11-29 18:14:26.457,0.734896,5.31715,11.8053,0.0617719,0.177146,-0.0218378,0
2024-11-29 18:14:26.459,0.665504,5.29801,11.8244,0.0684913,0.18753,-0.0303897,0
2024-11-29 18:14:26.463,0.584148,5.26451,11.8196,0.0752106,0.198525,-0.0401632,0
2024-11-29 18:14:26.465,0.538684,5.21426,11.8244,0.0965902,0.224792,-0.0584886,0
2024-11-29 18:14:26.466,0.524327,5.15444,11.834,0.0965902,0.224792,-0.0584886,0
2024-11-29 18:14:26.470,0.488435,5.0994,11.8388,0.106364,0.235787,-0.0682622,0
2024-11-29 18:14:26.471,0.438186,5.03719,11.8268,0.116748,0.244339,-0.0762032,0
2024-11-29 18:14:26.474,0.375972,4.97258,11.8173,0.128965,0.248615,-0.0853659,0
2024-11-29 18:14:26.476,0.282652,4.91994,11.7885,0.136906,0.247393,-0.0933069,0
2024-11-29 18:14:26.478,0.174676,4.88166,11.7407,0.143625,0.246171,-0.0981937,0
2024-11-29 18:14:26.481,0.0598206,4.85773,11.7024,0.149123,0.245561,-0.100026,0
2024-11-29 18:14:26.484,-0.0478565,4.83859,11.688,0.154621,0.239452,-0.100026,0
2024-11-29 18:14:26.485,-0.136391,4.81944,11.6928,0.158897,0.235787,-0.0975828,0
2024-11-29 18:14:26.488,-0.232104,4.79312,11.6928,0.164394,0.234565,-0.0902527,0
2024-11-29 18:14:26.491,-0.30658,4.75932,11.6976,0.171114,0.235787,-0.0658188,0
2024-11-29 18:14:26.492,-0.368794,4.74257,11.7215,0.171114,0.235787,-0.0658188,0
2024-11-29 18:14:26.495,-0.421436,4.72104,11.7526,0.180276,0.242506,-0.0499368,0
2024-11-29 18:14:26.497,-0.454935,4.69233,11.7838,0.186996,0.250447,-0.032833,0
2024-11-29 18:14:26.502,-0.462114,4.61815,11.846,0.209597,0.276103,0.00503949,0
2024-11-29 18:14:26.503,-0.462114,4.61815,11.846,0.209597,0.276103,0.00503949,0
2024-11-29 18:14:26.505,-0.452543,4.58704,11.8555,0.219981,0.290763,0.0221432,0
2024-11-29 18:14:26.507,-0.452543,4.55833,11.846,0.242583,0.326803,0.0563507,0
2024-11-29 18:14:26.510,-0.438186,4.51526,11.822,0.253578,0.34574,0.0728435,0
2024-11-29 18:14:26.511,-0.411865,4.47458,11.779,0.253578,0.34574,0.0728435,0
2024-11-29 18:14:26.513,-0.385544,4.4674,11.7335,0.268238,0.366508,0.0893364,0
2024-11-29 18:14:26.516,-0.342473,4.46979,11.6856,0.281066,0.384223,0.103386,0
2024-11-29 18:14:26.518,-0.304188,4.45783,11.6186,0.29084,0.404992,0.116825,0
2024-11-29 18:14:26.520,-0.267996,4.45304,11.5301,0.300613,0.429426,0.126598,0
2024-11-29 18:14:26.525,-0.248854,4.47697,11.3288,0.318328,0.47585,0.144313,0
2024-11-29 18:14:26.526,-0.248854,4.47697,11.3288,0.318328,0.47585,0.144313,0
2024-11-29 18:14:26.530,-0.224925,4.4674,11.068,0.332377,0.527161,0.155308,0
2024-11-29 18:14:26.531,-0.224925,4.4674,11.068,0.332377,0.527161,0.155308,0
2024-11-29 18:14:26.532,-0.217747,4.46979,10.946,0.337264,0.554649,0.158973,0
2024-11-29 18:14:26.536,-0.232104,4.46979,10.8045,0.337875,0.61268,0.158973,0
2024-11-29 18:14:26.538,-0.251246,4.4674,10.6418,0.337875,0.61268,0.158973,0
2024-11-29 18:14:26.540,-0.282652,4.46022,10.4575,0.334821,0.637114,0.158362,0
2024-11-29 18:14:26.543,-0.34008,4.43869,10.2538,0.325658,0.660937,0.158362,0
2024-11-29 18:14:26.544,-0.390329,4.39801,10.0241,0.312219,0.679873,0.154086,0
2024-11-29 18:14:26.547,-0.428614,4.36451,9.77977,0.291451,0.691479,0.147978,0
2024-11-29 18:14:26.550,-0.267996,4.21137,9.82553,0.251745,0.654828,0.118657,0
2024-11-29 18:14:26.552,0.0861416,3.90239,10.2586,0.241972,0.607793,0.0850605,0
2024-11-29 18:14:26.554,-0.026321,3.78993,10.1821,0.241972,0.607793,0.0850605,0
2024-11-29 18:14:26.556,-0.505185,3.9,9.59313,0.223036,0.594965,0.0618483,0
2024-11-29 18:14:26.558,-0.737288,3.97897,9.33231,0.199213,0.596187,0.047188,0
2024-11-29 18:14:26.560,-0.852443,4.04596,9.31316,0.170503,0.581527,0.0331385,0
2024-11-29 18:14:26.564,-1.02712,4.11536,9.26531,0.100255,0.49723,0.0135914,0
2024-11-29 18:14:26.565,-1.20419,4.17518,9.1669,0.100255,0.49723,0.0135914,0
2024-11-29 18:14:26.569,-1.34536,4.21137,9.07358,0.00435229,0.342685,0.00687203,0
2024-11-29 18:14:26.571,-1.47248,4.21615,8.97069,-0.0518457,0.247393,0.00565034,0
2024-11-29 18:14:26.573,-1.55384,4.2015,8.93001,-0.0518457,0.247393,0.00565034,0
2024-11-29 18:14:26.576,-1.48205,4.18714,9.08315,-0.114152,0.139884,0.00442864,0
2024-11-29 18:14:26.577,-1.26162,4.06511,9.42802,-0.173404,0.0122169,-0.00167983,0
2024-11-29 18:14:26.580,-0.984048,3.83779,9.85664,-0.273583,-0.275492,-0.0419957,0
2024-11-29 18:14:26.583,-0.718146,3.6006,10.3184,-0.273583,-0.275492,-0.0419957,0
2024-11-29 18:14:26.584,-0.486042,3.37567,10.8165,-0.310845,-0.41782,-0.073149,0
2024-11-29 18:14:26.586,-0.325723,3.17946,11.2953,-0.340776,-0.545487,-0.105524,0
2024-11-29 18:14:26.589,-0.157926,2.95663,11.8101,-0.357269,-0.657272,-0.136677,0
2024-11-29 18:14:26.591,0.0741775,2.74128,12.3392,-0.368875,-0.760505,-0.166609,0
2024-11-29 18:14:26.594,0.122034,2.68864,12.6888,-0.369486,-0.847856,-0.199594,0
2024-11-29 18:14:26.597,-0.00717847,2.70539,12.897,-0.368875,-0.911384,-0.222196,0
2024-11-29 18:14:26.598,0.0454636,2.59053,13.328,-0.360934,-0.963917,-0.241132,0
2024-11-29 18:14:26.601,0.215354,2.42034,13.9457,-0.347496,-1.02134,-0.258236,0
2024-11-29 18:14:26.605,0.426222,2.07099,14.8289,-0.289465,-1.11724,-0.292443,0
2024-11-29 18:14:26.606,0.426222,2.07099,14.8289,-0.289465,-1.11724,-0.292443,0
2024-11-29 18:14:26.608,0.524327,1.88166,15.1905,-0.248538,-1.14106,-0.307103,0
2024-11-29 18:14:26.610,0.612862,1.69262,15.5402,-0.19906,-1.14167,-0.321764,0
2024-11-29 18:14:26.613,0.687039,1.52034,15.8656,-0.0652843,-1.07387,-0.346809,0
2024-11-29 18:14:26.616,0.758824,1.33579,16.1507,0.0153475,-1.00668,-0.359636,0
2024-11-29 18:14:26.618,0.818644,1.12762,16.3636,0.0153475,-1.00668,-0.359636,0
2024-11-29 18:14:26.620,0.881157,0.933799,16.5191,0.10392,-0.921158,-0.366966,1
2024-11-29 18:14:26.623,0.909871,0.742074,16.608,0.292061,-0.704918,-0.381016,0
2024-11-29 18:14:26.624,0.888335,0.56022,16.5912,0.292061,-0.704918,-0.381016,0
2024-11-29 18:14:26.627,0.816252,0.380758,16.4617,0.39224,-0.577861,-0.383459,0
2024-11-29 18:14:26.631,0.550648,0.0119641,15.8991,0.590155,-0.299315,-0.372464,0
2024-11-29 18:14:26.632,0.550648,0.0119641,15.8991,0.681782,-0.15149,-0.359636,0
2024-11-29 18:14:26.634,0.316152,-0.112463,15.382,0.681782,-0.15149,-0.359636,0
2024-11-29 18:14:26.637,0.0311067,-0.153141,14.7308,0.836937,0.168594,-0.308325,0
2024-11-29 18:14:26.639,-0.248854,-0.12682,14.0294,0.836937,0.168594,-0.308325,0
2024-11-29 18:14:26.641,-0.514756,-0.0765703,13.3161,0.893135,0.321306,-0.270453,0
2024-11-29 18:14:26.643,-0.787538,0.0119641,12.5809,0.934673,0.461801,-0.227082,0
2024-11-29 18:14:26.646,-0.931406,0.0717847,11.9225,0.959717,0.582137,-0.18188,0
2024-11-29 18:14:26.648,-0.96012,0.081356,11.3408,0.970102,0.67804,-0.136066,0
2024-11-29 18:14:26.650,-1.01037,0.0646062,10.7255,0.967048,0.751953,-0.0957503,0
2024-11-29 18:14:26.652,-0.85005,-0.026321,10.3208,0.956663,0.802653,-0.0627646,0
2024-11-29 18:14:26.656,-0.775574,-0.0574277,9.85903,0.913904,0.86496,-0.0187836,0
2024-11-29 18:14:26.658,-0.952942,0.040678,9.17408,0.913904,0.86496,-0.0187836,0
2024-11-29 18:14:26.660,-1.06062,0.124427,8.59233,0.87542,0.899167,0.00320695,0
2024-11-29 18:14:26.663,-1.14197,0.241675,8.1015,0.830829,0.927266,0.0245866,0
2024-11-29 18:14:26.666,-1.26162,0.569791,7.31635,0.718433,0.957808,0.0636808,0
2024-11-29 18:14:26.667,-1.26162,0.569791,7.31635,0.718433,0.957808,0.0636808,0
2024-11-29 18:14:26.671,-1.28554,0.94337,6.7346,0.575494,0.935207,0.100332,0
2024-11-29 18:14:26.671,-1.28554,0.94337,6.7346,0.575494,0.935207,0.100332,0
2024-11-29 18:14:26.675,-1.23769,1.11565,6.51685,0.413009,0.86496,0.129041,0
2024-11-29 18:14:26.677,-1.19462,1.26401,6.32752,0.413009,0.86496,0.129041,0
2024-11-29 18:14:26.678,-1.16351,1.39801,6.16002,0.325047,0.824644,0.138204,0
2024-11-29 18:14:26.681,-1.0989,1.55145,6.0332,0.238307,0.782495,0.146145,0
2024-11-29 18:14:26.684,-1.00558,1.70219,5.98056,0.0642153,0.696977,0.149199,0
2024-11-29 18:14:26.686,-0.873978,1.85055,6.01167,0.0642153,0.696977,0.149199,0
2024-11-29 18:14:26.688,-0.758824,1.99442,6.08585,-0.0133623,0.658493,0.143702,0
2024-11-29 18:14:26.690,-0.660718,2.12842,6.17677,-0.0921616,0.616956,0.134539,0
2024-11-29 18:14:26.693,-0.550648,2.23849,6.34427,-0.162409,0.573586,0.121711,0
2024-11-29 18:14:26.697,-0.265603,2.27677,6.96431,-0.282746,0.458135,0.0758978,0
2024-11-29 18:14:26.698,-0.265603,2.27677,6.96431,-0.327338,0.390331,0.042912,0
2024-11-29 18:14:26.700,-0.122034,2.24806,7.27328,-0.327338,0.390331,0.042912,0
2024-11-29 18:14:26.703,-0.00478565,2.20499,7.54846,-0.363989,0.318862,0.00320695,0
2024-11-29 18:14:26.705,0.0957129,2.17149,7.8335,-0.394531,0.242506,-0.04505,0
2024-11-29 18:14:26.707,0.167498,2.15474,8.12782,-0.410413,0.170426,-0.0920852,0
2024-11-29 18:14:26.710,0.20339,2.14038,8.39372,-0.423241,0.101401,-0.143396,0
2024-11-29 18:14:26.711,0.189033,2.14756,8.61865,-0.426906,0.0348183,-0.195929,0
2024-11-29 18:14:26.715,0.119641,2.15713,8.81516,-0.417132,-0.0940705,-0.29733,0
2024-11-29 18:14:26.717,0.0143569,2.13799,8.98983,-0.409802,-0.155155,-0.3407,0
2024-11-29 18:14:26.718,-0.138784,2.13799,9.10948,-0.409802,-0.155155,-0.3407,0
2024-11-29 18:14:26.722,-0.318545,2.12602,9.21476,-0.399418,-0.212575,-0.376129,0
2024-11-29 18:14:26.723,-0.493221,2.07338,9.31556,-0.389644,-0.272438,-0.408504,0
2024-11-29 18:14:26.728,-0.857229,1.95344,9.42323,-0.37193,-0.389721,-0.44882,0
2024-11-29 18:14:26.729,-0.857229,1.95344,9.42323,-0.37193,-0.389721,-0.44882,0
2024-11-29 18:14:26.731,-1.03669,1.88644,9.46152,-0.358491,-0.496008,-0.459815,0
2024-11-29 18:14:26.732,-1.19701,1.80987,9.50698,-0.358491,-0.496008,-0.459815,0
2024-11-29 18:14:26.735,-1.31426,1.7333,9.5692,-0.355437,-0.539989,-0.457983,0
2024-11-29 18:14:26.738,-1.41506,1.6663,9.66491,-0.345663,-0.580305,-0.453096,0
2024-11-29 18:14:26.742,-1.51316,1.54427,9.92603,-0.327949,-0.643833,-0.435992,0
2024-11-29 18:14:26.743,-1.51316,1.54427,9.92603,-0.327949,-0.643833,-0.435992,0
2024-11-29 18:14:26.744,-1.5347,1.5012,10.0241,-0.318175,-0.665824,-0.423164,0
2024-11-29 18:14:26.747,-1.65434,1.51077,9.99303,-0.30718,-0.678651,-0.407282,0
2024-11-29 18:14:26.749,-1.76201,1.54666,9.98824,-0.30718,-0.678651,-0.407282,0
2024-11-29 18:14:26.752,-1.75962,1.54905,10.1031,-0.287022,-0.67804,-0.364523,0
2024-11-29 18:14:26.754,-1.75484,1.51077,10.2084,-0.275416,-0.676819,-0.343754,0
2024-11-29 18:14:26.756,-1.75962,1.44855,10.2826,-0.266253,-0.67804,-0.322986,0
2024-11-29 18:14:26.758,-1.73569,1.39561,10.34,-0.25709,-0.673765,-0.300995,0
2024-11-29 18:14:26.761,-1.69262,1.32144,10.3977,-0.244263,-0.665213,-0.279004,0
2024-11-29 18:14:26.764,-1.64237,1.24726,10.4599,-0.232046,-0.64872,-0.26129,0
2024-11-29 18:14:26.766,-1.57537,1.20658,10.515,-0.212498,-0.624286,-0.241743,0
2024-11-29 18:14:26.769,-1.52273,1.17308,10.5652,-0.201503,-0.595576,-0.223417,0
2024-11-29 18:14:26.770,-1.46052,1.14197,10.625,-0.18501,-0.561369,-0.207535,0
2024-11-29 18:14:26.772,-1.40279,1.10369,10.692,-0.166685,-0.52655,-0.193486,0
2024-11-29 18:14:26.775,-1.39322,1.08455,10.6896,-0.147749,-0.486845,-0.178215,0
2024-11-29 18:14:26.780,-1.45334,1.17308,10.5221,-0.114152,-0.383001,-0.142786,0
2024-11-29 18:14:26.781,-1.45334,1.17308,10.5221,-0.114152,-0.383001,-0.142786,0
2024-11-29 18:14:26.783,-1.51316,1.21615,10.4336,-0.0994917,-0.326192,-0.120184,0
2024-11-29 18:14:26.784,-1.55384,1.26162,10.3304,-0.0897182,-0.268162,-0.0957503,0
2024-11-29 18:14:26.788,-1.57537,1.29512,10.2156,-0.0762796,-0.153323,-0.0419957,0
2024-11-29 18:14:26.790,-1.58495,1.32622,10.0911,-0.0738362,-0.0952922,-0.0145076,0
2024-11-29 18:14:26.792,-1.56102,1.35254,9.96192,-0.0732253,-0.0397051,0.014813,0
2024-11-29 18:14:26.795,-1.52034,1.37886,9.83031,-0.0781121,0.0109953,0.0416903,0
2024-11-29 18:14:26.797,-1.48205,1.4004,9.70798,-0.0781121,0.0109953,0.0416903,0
2024-11-29 18:14:26.798,-1.41984,1.40548,9.59313,-0.0793338,0.0623064,0.0673459,0
2024-11-29 18:14:26.801,-1.34776,1.42223,9.49023,-0.0842206,0.107509,0.0899473,0
2024-11-29 18:14:26.804,-1.29512,1.45095,9.40888,-0.0927724,0.193028,0.131485,0
2024-11-29 18:14:26.806,-1.23769,1.47966,9.33709,-0.0927724,0.193028,0.131485,0
2024-11-29 18:14:26.808,-1.17069,1.51316,9.24587,-0.0939941,0.230289,0.145534,0
2024-11-29 18:14:26.810,-1.12044,1.55384,9.15733,-0.0952158,0.265108,0.160806,0
2024-11-29 18:14:26.813,-1.07976,1.58734,9.08315,-0.0964375,0.293818,0.171801,0
2024-11-29 18:14:26.815,-1.0319,1.61845,9.0018,-0.0982701,0.318862,0.179742,0
2024-11-29 18:14:26.818,-0.97687,1.66152,8.91805,-0.0964375,0.351848,0.190737,0
2024-11-29 18:14:26.820,-0.931406,1.69741,8.83191,-0.0964375,0.351848,0.190737,0
2024-11-29 18:14:26.823,-0.905085,1.72373,8.75534,-0.0964375,0.364676,0.195013,0
2024-11-29 18:14:26.825,-0.862014,1.75962,8.67608,-0.0952158,0.37506,0.196235,0
2024-11-29 18:14:26.827,-0.82343,1.79551,8.57797,-0.0909399,0.38239,0.198678,0
2024-11-29 18:14:26.831,-0.756431,1.86012,8.46072,-0.0829989,0.387888,0.202343,0
2024-11-29 18:14:26.832,-0.756431,1.86012,8.46072,-0.0829989,0.387888,0.202343,0
2024-11-29 18:14:26.835,-0.710967,1.86251,8.42004,-0.0775012,0.385445,0.202954,0
2024-11-29 18:14:26.836,-0.682254,1.87448,8.34826,-0.0726145,0.383001,0.202343,0
2024-11-29 18:14:26.839,-0.648754,1.88166,8.28126,-0.0640626,0.379947,0.203565,0
2024-11-29 18:14:26.841,-0.593719,1.88644,8.22144,-0.0561216,0.374449,0.203565,0
2024-11-29 18:14:26.843,-0.541077,1.88883,8.12064,-0.046348,0.366508,0.201121,0
2024-11-29 18:14:26.846,-0.50997,1.88405,8.01057,-0.0359636,0.359789,0.198067,0
2024-11-29 18:14:26.848,-0.483649,1.88644,7.93879,-0.0261901,0.348183,0.19318,0
2024-11-29 18:14:26.850,-0.469292,1.89362,7.88136,-0.0170274,0.334744,0.187072,0
2024-11-29 18:14:26.853,-0.4669,1.91037,7.79043,-0.00603212,0.321306,0.182185,0
2024-11-29 18:14:26.856,-0.459721,1.92473,7.71147,0.0116825,0.282822,0.173633,0
2024-11-29 18:14:26.860,-0.478864,1.92473,7.55564,0.0226777,0.260832,0.169357,0
2024-11-29 18:14:26.860,-0.478864,1.92473,7.55564,0.0226777,0.260832,0.169357,0
2024-11-29 18:14:26.862,-0.495613,1.9343,7.47428,0.0318404,0.234565,0.165081,0
2024-11-29 18:14:26.865,-0.495613,1.93191,7.4025,0.0403923,0.207688,0.160195,0
2024-11-29 18:14:26.867,-0.486042,1.93191,7.32114,0.0458899,0.181422,0.15653,0
2024-11-29 18:14:26.869,-0.493221,1.94148,7.23739,0.0526092,0.152712,0.155308,0
2024-11-29 18:14:26.872,-0.505185,1.95344,7.14886,0.0587177,0.12278,0.151643,0
2024-11-29 18:14:26.874,-0.507577,1.95583,7.07707,0.0623828,0.0934596,0.149199,0
2024-11-29 18:14:26.877,-0.512363,1.96062,7.01217,0.0678804,0.0684149,0.146145,0
2024-11-29 18:14:26.879,-0.519542,1.97288,6.94038,0.0709346,0.0427593,0.144924,0
2024-11-29 18:14:26.882,-0.52672,1.9992,6.87338,0.0745997,0.0164929,0.143702,0
2024-11-29 18:14:26.883,-0.536291,2.00877,6.81117,0.0758214,-0.00794101,0.144924,0
2024-11-29 18:14:26.888,-0.54347,2.02792,6.71067,0.0758214,-0.0561979,0.144313,0
2024-11-29 18:14:26.889,-0.54347,2.02792,6.71067,0.0758214,-0.0561979,0.144313,0
2024-11-29 18:14:26.890,-0.56022,2.02552,6.6676,0.073378,-0.0818535,0.14248,0
2024-11-29 18:14:26.894,-0.555434,2.0351,6.62931,0.0672696,-0.132554,0.143091,0
2024-11-29 18:14:26.898,-0.536291,2.08535,6.61017,0.0581068,-0.183865,0.138815,0
2024-11-29 18:14:26.898,-0.536291,2.08535,6.61017,0.0581068,-0.183865,0.138815,0
2024-11-29 18:14:26.901,-0.54347,2.10209,6.60299,0.0483333,-0.210742,0.136983,0
2024-11-29 18:14:26.902,-0.545863,2.13081,6.62692,0.0483333,-0.210742,0.136983,0
2024-11-29 18:14:26.905,-0.538684,2.15474,6.66281,0.0446682,-0.232733,0.133317,0
2024-11-29 18:14:26.907,-0.538684,2.2002,6.69631,0.037338,-0.255334,0.131485,0
2024-11-29 18:14:26.909,-0.529113,2.22652,6.74896,0.0318404,-0.27427,0.130874,0
2024-11-29 18:14:26.911,-0.517149,2.25045,6.81835,0.0269536,-0.290763,0.127209,0
2024-11-29 18:14:26.914,-0.512363,2.29113,6.88056,0.021456,-0.306645,0.123544,0
2024-11-29 18:14:26.917,-0.505185,2.30309,6.94995,0.0177909,-0.322527,0.121711,0
2024-11-29 18:14:26.919,-0.502792,2.31984,7.04357,0.0141258,-0.334133,0.118657,0
2024-11-29 18:14:26.921,-0.486042,2.32702,7.12254,0.0141258,-0.342685,0.114992,0
2024-11-29 18:14:26.926,-0.431007,2.35813,7.25893,0.0129041,-0.357956,0.109494,0
2024-11-29 18:14:26.927,-0.431007,2.35813,7.25893,0.0141258,-0.359789,0.105829,0
2024-11-29 18:14:26.929,-0.411865,2.3677,7.32832,0.0122933,-0.362232,0.10644,0
2024-11-29 18:14:26.930,-0.3999,2.37966,7.39771,0.0122933,-0.362232,0.10644,0
2024-11-29 18:14:26.935,-0.383151,2.4347,7.49821,0.0153475,-0.362843,0.100943,0
2024-11-29 18:14:26.935,-0.383151,2.4347,7.49821,0.0153475,-0.362843,0.100943,0
2024-11-29 18:14:26.937,-0.361615,2.46102,7.54367,0.0153475,-0.362843,0.100943,0
2024-11-29 18:14:26.941,-0.35683,2.48255,7.58944,0.0171801,-0.3604,0.101553,0
2024-11-29 18:14:26.943,-0.359223,2.50409,7.6349,0.0202343,-0.353681,0.102164,0
2024-11-29 18:14:26.947,-0.325723,2.54746,7.74736,0.0226777,-0.347572,0.103997,0
2024-11-29 18:14:26.948,-0.325723,2.54746,7.74736,0.0226777,-0.347572,0.103997,0
2024-11-29 18:14:26.949,-0.297009,2.57139,7.8,0.0226777,-0.340242,0.105218,0
2024-11-29 18:14:26.951,-0.256032,2.59771,7.82872,0.0281753,-0.330468,0.105829,0
2024-11-29 18:14:26.954,-0.210568,2.64078,7.86222,0.0263428,-0.323138,0.107051,0
2024-11-29 18:14:26.957,-0.160319,2.68864,7.91486,0.0275645,-0.307867,0.10644,0
2024-11-29 18:14:26.959,-0.119641,2.72213,7.96511,0.0312296,-0.294428,0.108273,0
2024-11-29 18:14:26.962,-0.0765703,2.76281,8.01297,0.0355055,-0.263275,0.103997,0
2024-11-29 18:14:26.964,-0.0334995,2.81306,8.07039,0.0379489,-0.243117,0.102164,0
2024-11-29 18:14:26.967,0.00239282,2.8657,8.13021,0.0428357,-0.224792,0.0960557,0
2024-11-29 18:14:26.971,0.0741775,2.95424,8.17837,0.0446682,-0.205245,0.0887256,0
2024-11-29 18:14:26.971,0.0741775,2.95424,8.17837,0.0446682,-0.205245,0.0887256,0
2024-11-29 18:14:26.973,0.131605,2.99492,8.18555,0.0501658,-0.180811,0.0783412,0
2024-11-29 18:14:26.976,0.200997,3.05713,8.18555,0.0532201,-0.162485,0.0667351,0
2024-11-29 18:14:26.977,0.251246,3.11246,8.17837,0.0550526,-0.139884,0.0539073,0
2024-11-29 18:14:26.980,0.285045,3.13639,8.15683,0.0556635,-0.120337,0.0374144,0
2024-11-29 18:14:26.983,0.294616,3.17707,8.13021,0.0568851,-0.0812427,0.00442864,0
2024-11-29 18:14:26.985,0.287438,3.22493,8.1015,0.0568851,-0.0812427,0.00442864,0
2024-11-29 18:14:26.988,0.272782,3.268,8.08236,0.0507767,-0.0464244,-0.0303897,0
2024-11-29 18:14:26.990,0.244068,3.31346,8.05604,0.0507767,-0.0464244,-0.0303897,0
2024-11-29 18:14:26.992,0.215354,3.35653,8.02971,0.0489441,-0.0342074,-0.0481042,0
2024-11-29 18:14:26.995,0.184247,3.39721,8.00579,0.0422248,-0.0244339,-0.0676513,0
2024-11-29 18:14:26.996,0.136391,3.43071,7.9675,0.0361163,-0.0122169,-0.0841442,0
2024-11-29 18:14:26.999,0.0885344,3.46421,7.94118,0.029397,-0.00671932,-0.0975828,0
2024-11-29 18:14:27.002,0.0550349,3.50249,7.92443,0.0147367,0.00733017,-0.130569,0
2024-11-29 18:14:27.004,0.026321,3.53599,7.91725,0.00435229,0.0116061,-0.144618,0
2024-11-29 18:14:27.006,-0.0334995,3.57189,7.92922,0.00435229,0.0116061,-0.144618,0
2024-11-29 18:14:27.009,-0.0981057,3.61735,7.95075,-0.00297788,0.0189363,-0.156224,0
2024-11-29 18:14:27.011,-0.150748,3.65115,7.97468,-0.0127514,0.023823,-0.164776,0
2024-11-29 18:14:27.013,-0.208176,3.68943,7.99382,-0.0206925,0.0305424,-0.176993,0
2024-11-29 18:14:27.015,-0.265603,3.73968,8.001,-0.0280226,0.0384834,-0.184934,0
2024-11-29 18:14:27.017,-0.30658,3.77318,8.02014,-0.0347419,0.043981,-0.194708,0
2024-11-29 18:14:27.021,-0.366401,3.82104,8.04646,-0.0500131,0.0555871,-0.206925,0
2024-11-29 18:14:27.022,-0.4334,3.86411,8.07039,-0.0500131,0.0555871,-0.206925,0
2024-11-29 18:14:27.026,-0.483649,3.89043,8.07518,-0.0671168,0.0653607,-0.215476,0
2024-11-29 18:14:27.028,-0.538684,3.93111,8.09193,-0.0671168,0.0653607,-0.215476,0
2024-11-29 18:14:27.029,-0.60329,3.97179,8.12064,-0.074447,0.0684149,-0.218531,0
2024-11-29 18:14:27.033,-0.667897,4.01964,8.16162,-0.0909399,0.0702474,-0.219141,0
2024-11-29 18:14:27.035,-0.710967,4.06511,8.22862,-0.0982701,0.067804,-0.220974,0
2024-11-29 18:14:27.036,-0.739681,4.11536,8.29562,-0.0982701,0.067804,-0.220974,0
2024-11-29 18:14:27.039,-0.76361,4.17996,8.36979,-0.106211,0.059863,-0.219752,0
2024-11-29 18:14:27.041,-0.799502,4.2353,8.43919,-0.115374,0.0513112,-0.218531,0
2024-11-29 18:14:27.043,-0.828216,4.28315,8.50379,-0.120871,0.043981,-0.219141,0
2024-11-29 18:14:27.047,-0.85005,4.32144,8.58515,-0.128202,0.0311532,-0.216698,0
2024-11-29 18:14:27.049,-0.8668,4.37169,8.69522,-0.13431,0.0164929,-0.216698,0
2024-11-29 18:14:27.051,-0.871586,4.40997,8.80319,-0.138586,0.000610847,-0.218531,0
2024-11-29 18:14:27.053,-0.893121,4.44347,8.91087,-0.143473,-0.0183254,-0.219141,0
2024-11-29 18:14:27.055,-0.909871,4.50568,9.04008,-0.143473,-0.0183254,-0.219141,0
2024-11-29 18:14:27.058,-0.931406,4.55593,9.17408,-0.150192,-0.0610847,-0.217309,0
2024-11-29 18:14:27.061,-0.955334,4.58704,9.32034,-0.151414,-0.107509,-0.214866,0
2024-11-29 18:14:27.063,-0.969691,4.63729,9.47348,-0.150192,-0.1295,-0.212422,0
2024-11-29 18:14:27.065,-0.974477,4.68275,9.61945,-0.150192,-0.1295,-0.212422,0
2024-11-29 18:14:27.068,-0.984048,4.71625,9.76541,-0.139808,-0.168594,-0.21059,0
2024-11-29 18:14:27.069,-0.998405,4.76411,9.91167,-0.139808,-0.168594,-0.21059,0
2024-11-29 18:14:27.073,-1.0008,4.81466,10.0696,-0.131867,-0.184476,-0.209368,0
2024-11-29 18:14:27.074,-0.99362,4.85055,10.2299,-0.123926,-0.202801,-0.205703,0
2024-11-29 18:14:27.076,-0.988834,4.89601,10.3881,-0.11293,-0.218683,-0.201427,0
2024-11-29 18:14:27.079,-0.984048,4.92712,10.5389,-0.0982701,-0.2309,-0.199594,0
2024-11-29 18:14:27.082,-0.967299,4.94866,10.6825,-0.0720036,-0.251669,-0.194708,0
2024-11-29 18:14:27.084,-0.952942,4.98455,10.8093,-0.0720036,-0.251669,-0.194708,0
2024-11-29 18:14:27.087,-0.96012,5.01566,10.9241,-0.0573433,-0.258388,-0.191042,0
2024-11-29 18:14:27.089,-0.96012,5.0348,11.0345,-0.0237467,-0.266329,-0.186156,0
2024-11-29 18:14:27.090,-0.950549,5.04437,11.1302,-0.0237467,-0.266329,-0.186156,0
2024-11-29 18:14:27.094,-0.94337,5.04676,11.2211,0.00679568,-0.263886,-0.181269,0
2024-11-29 18:14:27.095,-0.936192,5.05394,11.3097,0.00679568,-0.263886,-0.181269,0
2024-11-29 18:14:27.098,-0.924228,5.05633,11.3862,0.0245102,-0.262664,-0.178826,0
2024-11-29 18:14:27.101,-0.895514,5.03958,11.4221,0.037338,-0.260832,-0.176382,0
2024-11-29 18:14:27.102,-0.862014,5.01566,11.4413,0.0507767,-0.258388,-0.172717,0
2024-11-29 18:14:27.105,-0.825823,5.0013,11.482,0.0642153,-0.253502,-0.169663,0
2024-11-29 18:14:27.107,-0.789931,4.98216,11.5062,0.0709346,-0.249837,-0.16783,0
2024-11-29 18:14:27.109,-0.751645,4.95583,11.5134,0.0794865,-0.244339,-0.162944,0
2024-11-29 18:14:27.112,-0.722932,4.94866,11.5086,0.0843733,-0.234565,-0.159278,0
2024-11-29 18:14:27.115,-0.691825,4.93909,11.4987,0.0898709,-0.224792,-0.156835,0
2024-11-29 18:14:27.116,-0.677468,4.92712,11.4987,0.0886492,-0.214407,-0.151948,0
2024-11-29 18:14:27.120,-0.677468,4.92712,11.4915,0.0880384,-0.200358,-0.147061,0
2024-11-29 18:14:27.122,-0.660718,4.92234,11.5086,0.0843733,-0.169816,-0.137899,0
2024-11-29 18:14:27.124,-0.660718,4.92473,11.5205,0.0843733,-0.169816,-0.137899,0
2024-11-29 18:14:27.127,-0.677468,4.92951,11.5229,0.077654,-0.138662,-0.122628,0
2024-11-29 18:14:27.128,-0.691825,4.93909,11.5445,0.077654,-0.138662,-0.122628,0
2024-11-29 18:14:27.132,-0.706182,4.94866,11.5612,0.0721563,-0.126445,-0.115297,0
2024-11-29 18:14:27.134,-0.732503,4.96301,11.5923,0.0623828,-0.0977356,-0.100026,0
2024-11-29 18:14:27.136,-0.74686,4.97976,11.6234,0.0587177,-0.0836861,-0.0933069,0
2024-11-29 18:14:27.138,-0.758824,4.99173,11.6306,0.0587177,-0.0836861,-0.0933069,0
2024-11-29 18:14:27.140,-0.782752,5.00848,11.6593,0.057496,-0.0684149,-0.0859767,0
2024-11-29 18:14:27.142,-0.80668,5.03001,11.6856,0.0556635,-0.0531437,-0.0780357,0
2024-11-29 18:14:27.145,-0.85005,5.06351,11.6809,0.0532201,-0.0397051,-0.0694839,0
2024-11-29 18:14:27.148,-0.893121,5.09223,11.6904,0.0513875,-0.023823,-0.0621537,0
2024-11-29 18:14:27.149,-0.948156,5.12094,11.6952,0.0513875,-0.0116061,-0.0517693,0
2024-11-29 18:14:27.153,-1.00558,5.15922,11.6928,0.0501658,0.00855186,-0.0334439,0
2024-11-29 18:14:27.155,-1.06062,5.18555,11.6976,0.0501658,0.00855186,-0.0334439,0
2024-11-29 18:14:27.157,-1.11326,5.20947,11.6952,0.0483333,0.0140495,-0.0212269,0
2024-11-29 18:14:27.159,-1.14915,5.22862,11.6904,0.049555,0.020158,-0.0077883,0
2024-11-29 18:14:27.161,-1.17308,5.24776,11.6833,0.0526092,0.0226013,0.00626118,0
2024-11-29 18:14:27.163,-1.19701,5.2669,11.6689,0.0532201,0.0244339,0.0215324,0
2024-11-29 18:14:27.166,-1.21854,5.27647,11.6521,0.0526092,0.0256556,0.0343602,0
2024-11-29 18:14:27.168,-1.23051,5.28604,11.6354,0.0532201,0.0250447,0.050853,0
2024-11-29 18:14:27.171,-1.23529,5.30997,11.6306,0.0544418,0.0268773,0.0649025,0
2024-11-29 18:14:27.173,-1.24487,5.32911,11.6545,0.0544418,0.023823,0.0795629,0
2024-11-29 18:14:27.176,-1.25444,5.34856,11.6665,0.0556635,0.020158,0.0936123,0
2024-11-29 18:14:27.178,-1.25922,5.39163,11.6713,0.057496,0.020158,0.109494,0
2024-11-29 18:14:27.181,-1.26162,5.42991,11.6928,0.0617719,0.0116061,0.136372,0
2024-11-29 18:14:27.185,-1.27358,5.48255,11.767,0.0636045,0.00671932,0.14981,0
2024-11-29 18:14:27.186,-1.27358,5.48255,11.767,0.0636045,0.00671932,0.14981,0
2024-11-29 18:14:27.189,-1.25683,5.49452,11.8436,0.0752106,-0.00427593,0.172412,0
2024-11-29 18:14:27.189,-1.25683,5.49452,11.8436,0.0752106,-0.00427593,0.172412,0
2024-11-29 18:14:27.193,-1.2329,5.50409,11.8723,0.0825407,-0.00977356,0.182796,0
2024-11-29 18:14:27.194,-1.18983,5.49452,11.889,0.0917034,-0.0146603,0.191348,0
2024-11-29 18:14:27.197,-1.14437,5.48016,11.9178,0.0996445,-0.020158,0.196235,0
2024-11-29 18:14:27.199,-1.10608,5.46102,11.9273,0.110029,-0.0232122,0.203565,0
2024-11-29 18:14:27.202,-1.08933,5.42513,11.9273,0.128965,-0.0329858,0.211506,0
2024-11-29 18:14:27.204,-1.07498,5.40838,11.9465,0.128965,-0.0329858,0.211506,0
2024-11-29 18:14:27.207,-1.0319,5.38445,11.9345,0.151566,-0.0403159,0.218836,0
2024-11-29 18:14:27.209,-1.00798,5.35095,11.8843,0.151566,-0.0403159,0.218836,0
2024-11-29 18:14:27.212,-1.00558,5.32433,11.834,0.166838,-0.0513112,0.225555,0
2024-11-29 18:14:27.214,-0.988834,5.29322,11.7718,0.166838,-0.0513112,0.225555,0
2024-11-29 18:14:27.215,-0.972084,5.28126,11.7024,0.174168,-0.0561979,0.22861,0
2024-11-29 18:14:27.218,-0.969691,5.27647,11.6354,0.176,-0.0610847,0.231664,0
2024-11-29 18:14:27.220,-0.972084,5.25015,11.554,0.178444,-0.0702474,0.23594,0
2024-11-29 18:14:27.223,-0.972084,5.21426,11.4485,0.177222,-0.0794101,0.238383,0
2024-11-29 18:14:27.226,-0.926621,5.19272,11.3336,0.164394,-0.103844,0.240827,0
2024-11-29 18:14:27.227,-0.876371,5.1688,11.2187,0.164394,-0.103844,0.240827,0
2024-11-29 18:14:27.229,-0.821037,5.12812,11.0991,0.150345,-0.119726,0.240216,0
2024-11-29 18:14:27.232,-0.74686,5.08026,10.9938,0.134463,-0.140495,0.238994,0
2024-11-29 18:14:27.238,-0.562612,4.94387,10.8141,0.0947577,-0.19486,0.231053,0
2024-11-29 18:14:27.238,-0.562612,4.94387,10.8141,0.0947577,-0.19486,0.231053,0
2024-11-29 18:14:27.240,-0.45015,4.85534,10.7518,0.0397814,-0.268162,0.212728,0
2024-11-29 18:14:27.241,-0.342473,4.78116,10.6849,0.0397814,-0.268162,0.212728,0
2024-11-29 18:14:27.245,-0.244068,4.6995,10.6226,-0.0310769,-0.354291,0.181574,0
2024-11-29 18:14:27.246,-0.148355,4.60379,10.582,-0.0310769,-0.354291,0.181574,0
2024-11-29 18:14:27.249,-0.0526421,4.51526,10.5652,-0.113541,-0.452638,0.14981,0
2024-11-29 18:14:27.252,0.0334995,4.43869,10.5748,-0.156301,-0.500895,0.129652,0
2024-11-29 18:14:27.254,0.129212,4.3669,10.6274,-0.156301,-0.500895,0.129652,0
2024-11-29 18:14:27.256,0.236889,4.30469,10.7064,-0.201503,-0.554038,0.109494,0
2024-11-29 18:14:27.259,0.349651,4.23051,10.8093,-0.291909,-0.651774,0.0697893,0
2024-11-29 18:14:27.261,0.476471,4.13928,10.9484,-0.291909,-0.651774,0.0697893,0
2024-11-29 18:14:27.262,0.612862,4.02443,11.1302,-0.33589,-0.696977,0.0477988,0
2024-11-29 18:14:27.265,0.773181,3.91197,11.3599,-0.378649,-0.738514,0.0276408,0
2024-11-29 18:14:27.268,0.948156,3.8019,11.6163,-0.418354,-0.773943,0.00442864,0
2024-11-29 18:14:27.270,1.10608,3.67508,11.8795,-0.452561,-0.804486,-0.0212269,0
2024-11-29 18:14:27.273,1.24247,3.53599,12.1525,-0.506927,-0.841748,-0.0755923,0
2024-11-29 18:14:27.275,1.38365,3.39003,12.4277,-0.506927,-0.841748,-0.0755923,0
2024-11-29 18:14:27.277,1.51795,3.25125,12.7128,-0.527696,-0.856408,-0.105524,0
2024-11-29 18:14:27.279,1.61366,3.11486,12.9808,-0.539913,-0.86496,-0.134845,0
2024-11-29 18:14:27.281,1.68784,2.97577,13.2515,-0.548464,-0.87229,-0.167219,0
2024-11-29 18:14:27.285,1.72852,2.82742,13.5601,-0.546632,-0.869847,-0.23258,0
2024-11-29 18:14:27.287,1.7333,2.65992,13.8715,-0.546632,-0.869847,-0.23258,0
2024-11-29 18:14:27.289,1.72852,2.51127,14.1251,-0.535026,-0.858851,-0.258847,0
2024-11-29 18:14:27.291,1.70459,2.36052,14.336,-0.514257,-0.841748,-0.286945,0
2024-11-29 18:14:27.293,1.60648,2.23609,14.4772,-0.488601,-0.813038,-0.311379,0
2024-11-29 18:14:27.295,1.4988,2.11884,14.5753,-0.459281,-0.768446,-0.329705,0
2024-11-29 18:14:27.299,1.47966,1.92473,14.7212,-0.42263,-0.720189,-0.343143,0
2024-11-29 18:14:27.302,1.39561,1.51316,14.9058,-0.3365,-0.610236,-0.366966,1
2024-11-29 18:14:27.303,1.39561,1.51316,14.9058,-0.3365,-0.610236,-0.366966,0
2024-11-29 18:14:27.306,1.26162,1.38365,14.8026,-0.287633,-0.543654,-0.376129,0
2024-11-29 18:14:27.308,0.828216,1.40279,14.2567,-0.20639,-0.337799,-0.352917,0
2024-11-29 18:14:27.311,0.52672,1.35733,13.8715,-0.20639,-0.337799,-0.352917,0
2024-11-29 18:14:27.312,0.699003,1.10369,14.0079,-0.170961,-0.246171,-0.33337,0
2024-11-29 18:14:27.314,0.794716,0.857229,14.0629,-0.130034,-0.17287,-0.316266,0
2024-11-29 18:14:27.318,0.725324,0.641576,13.9648,-0.0915507,-0.109953,-0.300995,0
2024-11-29 18:14:27.319,0.641576,0.4334,13.8093,-0.0475697,-0.03604,-0.28328,0
2024-11-29 18:14:27.321,0.56022,0.244068,13.6152,-0.00358873,0.0421485,-0.263733,0
2024-11-29 18:14:27.325,0.478864,0.0933201,13.4166,0.093536,0.222959,-0.22525,0
2024-11-29 18:14:27.327,0.3999,-0.00239282,13.2945,0.093536,0.222959,-0.22525,0
2024-11-29 18:14:27.329,0.282652,-0.0358923,13.2084,0.149734,0.318862,-0.202649,0
2024-11-29 18:14:27.332,0.0765703,-0.00957129,12.9784,0.207154,0.419652,-0.180047,0
2024-11-29 18:14:27.335,-0.419043,0.162712,12.1573,0.313441,0.626118,-0.114687,0
2024-11-29 18:14:27.336,-0.419043,0.162712,12.1573,0.313441,0.626118,-0.114687,0
2024-11-29 18:14:27.340,-0.847657,0.35683,11.2834,0.395295,0.799599,-0.0334439,0
2024-11-29 18:14:27.341,-0.847657,0.35683,11.2834,0.425226,0.864349,0.0142022,0
2024-11-29 18:14:27.343,-1.01037,0.419043,10.8739,0.425226,0.864349,0.0142022,0
2024-11-29 18:14:27.346,-1.11326,0.4669,10.4862,0.444773,0.909552,0.0624591,0
2024-11-29 18:14:27.350,-1.15155,0.519542,9.62423,0.461266,0.963917,0.154086,0
2024-11-29 18:14:27.351,-1.15155,0.519542,9.62423,0.458823,0.975523,0.196846,0
2024-11-29 18:14:27.353,-1.13719,0.54347,9.20997,0.449049,0.979799,0.238383,0
2024-11-29 18:14:27.354,-1.11326,0.576969,8.85105,0.449049,0.979799,0.238383,0
2024-11-29 18:14:27.358,-1.0654,0.622433,8.54208,0.418507,0.970025,0.308631,0
2024-11-29 18:14:27.360,-0.988834,0.651147,8.26212,0.418507,0.970025,0.308631,0
2024-11-29 18:14:27.361,-0.907478,0.699003,8.02971,0.39896,0.952311,0.338562,0
2024-11-29 18:14:27.364,-0.813859,0.754038,7.81915,0.373304,0.93032,0.364829,0
2024-11-29 18:14:27.367,-0.708575,0.811466,7.63251,0.346427,0.896113,0.388652,0
2024-11-29 18:14:27.368,-0.60329,0.876371,7.49821,0.318328,0.855797,0.407588,0
2024-11-29 18:14:27.372,-0.478864,0.948156,7.40967,0.29084,0.806318,0.42347,0
2024-11-29 18:14:27.374,-0.352044,1.02951,7.37857,0.231587,0.687814,0.44546,0
2024-11-29 18:14:27.376,-0.224925,1.10369,7.35225,0.231587,0.687814,0.44546,0
2024-11-29 18:14:27.379,-0.0933201,1.1683,7.34507,0.202267,0.616956,0.454012,0
2024-11-29 18:14:27.381,0.0550349,1.23051,7.39771,0.176,0.549152,0.457066,0
2024-11-29 18:14:27.384,0.282652,1.24726,7.57747,0.13996,0.390942,0.446071,0
2024-11-29 18:14:27.386,0.667897,1.1683,7.92443,0.13996,0.390942,0.446071,0
2024-11-29 18:14:27.387,0.991227,1.07019,8.22622,0.137517,0.304202,0.426524,0
2024-11-29 18:14:27.390,1.0343,1.1013,8.29083,0.144236,0.227235,0.402701,0
2024-11-29 18:14:27.393,0.912264,1.24726,8.1688,0.159507,0.13683,0.365439,0
2024-11-29 18:14:27.395,0.852443,1.38604,8.11107,0.159507,0.13683,0.365439,0
2024-11-29 18:14:27.398,0.907478,1.5012,8.19273,0.169281,0.0995681,0.352001,0
2024-11-29 18:14:27.400,0.933799,1.62084,8.2334,0.179055,0.0146603,0.328789,0
2024-11-29 18:14:27.402,0.969691,1.7333,8.24058,0.187606,0.0146603,0.328789,0
2024-11-29 18:14:27.404,1.05583,1.78834,8.23101,0.190661,-0.0390942,0.319626,0
2024-11-29 18:14:27.406,1.1683,1.80269,8.2023,0.193104,-0.0940705,0.307409,0
2024-11-29 18:14:27.409,1.30947,1.8003,8.1664,0.19005,-0.147214,0.291527,0
2024-11-29 18:14:27.412,1.45334,1.75484,8.11825,0.189439,-0.193639,0.272591,0
2024-11-29 18:14:27.413,1.6017,1.68784,8.08236,0.185163,-0.236398,0.249378,0
2024-11-29 18:14:27.416,1.74766,1.63759,8.07039,0.181498,-0.27366,0.220058,0
2024-11-29 18:14:27.420,1.98006,1.57298,8.08953,0.174779,-0.328025,0.152865,0
2024-11-29 18:14:27.420,1.98006,1.57298,8.08953,0.174779,-0.328025,0.152865,0
2024-11-29 18:14:27.424,2.01595,1.5682,8.07996,0.174779,-0.328025,0.152865,0
2024-11-29 18:14:27.425,2.01595,1.57059,8.068,0.170503,-0.359789,0.0758978,0
2024-11-29 18:14:27.428,1.99202,1.58734,8.03689,0.166227,-0.368952,0.0355819,0
2024-11-29 18:14:27.430,1.92951,1.61366,7.99861,0.158897,-0.37506,-0.000458135,0
2024-11-29 18:14:27.433,1.84576,1.62562,7.94118,0.152177,-0.376282,-0.037109,0
2024-11-29 18:14:27.434,1.73091,1.64716,7.8694,0.140571,-0.376893,-0.0719273,0
2024-11-29 18:14:27.437,1.60887,1.65434,7.8,0.127133,-0.369563,-0.10308,0
2024-11-29 18:14:27.439,1.50838,1.63998,7.71386,0.112472,-0.3604,-0.129347,0
2024-11-29 18:14:27.441,1.39801,1.62562,7.62772,0.0923143,-0.348183,-0.15317,0
2024-11-29 18:14:27.444,1.28554,1.5993,7.55085,0.073378,-0.329247,-0.178215,0
2024-11-29 18:14:27.447,1.16112,1.57059,7.49103,0.0519984,-0.312754,-0.198373,0
2024-11-29 18:14:27.450,1.03669,1.54427,7.44317,0.00251974,-0.265108,-0.235634,0
2024-11-29 18:14:27.451,0.933799,1.51316,7.41446,0.00251974,-0.265108,-0.235634,0
2024-11-29 18:14:27.453,0.835394,1.48684,7.4001,-0.0213033,-0.237009,-0.249684,0
2024-11-29 18:14:27.456,0.727717,1.46291,7.40967,-0.0451263,-0.208299,-0.260679,0
2024-11-29 18:14:27.458,0.617647,1.44616,7.44557,-0.0689494,-0.177146,-0.269231,0
2024-11-29 18:14:27.460,0.514756,1.43181,7.47428,-0.0891073,-0.144771,-0.27595,0
2024-11-29 18:14:27.463,0.428614,1.42702,7.50299,-0.106822,-0.112396,-0.279615,0
2024-11-29 18:14:27.466,0.354437,1.4342,7.51974,-0.123315,-0.0787993,-0.280837,0
2024-11-29 18:14:27.467,0.282652,1.44616,7.54367,-0.138586,-0.0433702,-0.284502,0
2024-11-29 18:14:27.470,0.210568,1.44616,7.59183,-0.150803,-0.00916271,-0.28328,0
2024-11-29 18:14:27.472,0.150748,1.45813,7.62054,-0.161798,0.0244339,-0.282059,0
2024-11-29 18:14:27.475,0.100499,1.45813,7.63251,-0.174015,0.0586413,-0.281448,0
2024-11-29 18:14:27.478,0.0550349,1.46291,7.6349,-0.189286,0.124002,-0.274729,0
2024-11-29 18:14:27.480,0.0119641,1.49163,7.64447,-0.196006,0.153323,-0.271063,0
2024-11-29 18:14:27.481,-0.0454636,1.50359,7.63968,-0.196006,0.153323,-0.271063,0
2024-11-29 18:14:27.484,-0.112463,1.51795,7.61097,-0.203947,0.183865,-0.264344,0
2024-11-29 18:14:27.487,-0.165105,1.54188,7.59901,-0.209444,0.235787,-0.247851,0
2024-11-29 18:14:27.490,-0.22014,1.55384,7.59183,-0.209444,0.235787,-0.247851,0
2024-11-29 18:14:27.492,-0.260818,1.58495,7.59422,-0.21372,0.255945,-0.23991,0
