timestamp,accel_x,accel_y,accel_z,gyro_x,gyro_y,gyro_z,step_timestamp
2024-11-29 18:13:05.077,0.105284,3.07388,9.28445,-0.0555107,-0.0787993,-0.0981937,0
2024-11-29 18:13:05.077,0.105284,3.07388,9.28445,-0.0555107,-0.0787993,-0.0981937,0
2024-11-29 18:13:05.077,0.105284,3.07388,9.28445,-0.0555107,-0.0787993,-0.0981937,0
2024-11-29 18:13:05.077,0.105284,3.07388,9.28445,-0.0555107,-0.0787993,-0.0981937,0
2024-11-29 18:13:05.077,0.105284,3.07388,9.28445,-0.0555107,-0.0787993,-0.0981937,0
2024-11-29 18:13:05.077,0.105284,3.07388,9.28445,-0.0555107,-0.0787993,-0.0981937,0
2024-11-29 18:13:05.077,0.105284,3.07388,9.28445,-0.0555107,-0.0787993,-0.0981937,0
2024-11-29 18:13:05.077,0.105284,3.07388,9.28445,-0.0555107,-0.0787993,-0.0981937,0
2024-11-29 18:13:05.077,0.105284,3.07388,9.28445,-0.0555107,-0.0787993,-0.0981937,0
2024-11-29 18:13:05.077,0.105284,3.07388,9.28445,-0.0555107,-0.0787993,-0.0981937,0
2024-11-29 18:13:05.077,0.105284,3.07388,9.28445,-0.0555107,-0.0787993,-0.0981937,0
2024-11-29 18:13:05.077,0.105284,3.07388,9.28445,-0.0555107,-0.0787993,-0.0981937,0
2024-11-29 18:13:05.077,0.105284,3.07388,9.28445,-0.0555107,-0.0787993,-0.0981937,0
2024-11-29 18:13:05.077,0.105284,3.07388,9.28445,-0.0555107,-0.0787993,-0.0981937,0
2024-11-29 18:13:05.077,0.105284,3.07388,9.28445,-0.0555107,-0.0787993,-0.0981937,0
2024-11-29 18:13:05.077,0.105284,3.07388,9.28445,-0.0555107,-0.0787993,-0.0981937,0
2024-11-29 18:13:05.077,0.105284,3.07388,9.28445,-0.0555107,-0.0787993,-0.0981937,0
2024-11-29 18:13:05.077,0.105284,3.07388,9.28445,-0.0555107,-0.0787993,-0.0981937,0
2024-11-29 18:13:05.077,0.105284,3.07388,9.28445,-0.0555107,-0.0787993,-0.0981937,0
2024-11-29 18:13:05.078,0.105284,3.07388,9.28445,-0.0555107,-0.0787993,-0.0981937,0
2024-11-29 18:13:05.078,0.105284,3.07388,9.28445,-0.0555107,-0.0787993,-0.0981937,0
2024-11-29 18:13:05.078,0.105284,3.07388,9.28445,-0.0555107,-0.0787993,-0.0981937,0
2024-11-29 18:13:05.078,0.105284,3.07388,9.28445,-0.0555107,-0.0787993,-0.0981937,0
2024-11-29 18:13:05.078,0.105284,3.07388,9.28445,-0.0555107,-0.0787993,-0.0981937,0
2024-11-29 18:13:05.078,0.105284,3.07388,9.28445,-0.0555107,-0.0787993,-0.0981937,0
2024-11-29 18:13:05.078,0.105284,3.07388,9.28445,-0.0555107,-0.0787993,-0.0981937,0
2024-11-29 18:13:05.078,0.105284,3.07388,9.28445,-0.0555107,-0.0787993,-0.0981937,0
2024-11-29 18:13:05.078,0.105284,3.07388,9.28445,-0.0555107,-0.0787993,-0.0981937,0
2024-11-29 18:13:05.078,0.105284,3.07388,9.28445,-0.0555107,-0.0787993,-0.0981937,0
2024-11-29 18:13:05.078,0.105284,3.07388,9.28445,-0.0555107,-0.0787993,-0.0981937,0
2024-11-29 18:13:05.078,0.105284,3.07388,9.28445,-0.0555107,-0.0787993,-0.0981937,0
2024-11-29 18:13:05.078,0.105284,3.07388,9.28445,-0.0555107,-0.0787993,-0.0981937,0
2024-11-29 18:13:05.078,0.105284,3.07388,9.28445,-0.0555107,-0.0787993,-0.0981937,0
2024-11-29 18:13:05.078,0.105284,3.07388,9.28445,-0.0555107,-0.0787993,-0.0981937,0
2024-11-29 18:13:05.078,0.105284,3.07388,9.28445,-0.0555107,-0.0787993,-0.0981937,0
2024-11-29 18:13:05.078,0.105284,3.07388,9.28445,-0.0555107,-0.0787993,-0.0981937,0
2024-11-29 18:13:05.078,0.105284,3.07388,9.28445,-0.0555107,-0.0787993,-0.0981937,0
2024-11-29 18:13:05.078,0.105284,3.07388,9.28445,-0.0555107,-0.0787993,-0.0981937,0
2024-11-29 18:13:05.078,0.105284,3.07388,9.28445,-0.0555107,-0.0787993,-0.0981937,0
2024-11-29 18:13:05.078,0.105284,3.07388,9.28445,-0.0555107,-0.0787993,-0.0981937,0
2024-11-29 18:13:05.078,0.105284,3.07388,9.28445,-0.0555107,-0.0787993,-0.0981937,0
2024-11-29 18:13:05.078,0.105284,3.07388,9.28445,-0.0555107,-0.0787993,-0.0981937,0
2024-11-29 18:13:05.080,0.0981057,3.04995,9.30599,-0.0555107,-0.0787993,-0.0981937,0
2024-11-29 18:13:05.084,0.105284,2.97577,9.33709,-0.0536782,-0.0897945,-0.104913,0
2024-11-29 18:13:05.084,0.105284,2.97577,9.33709,-0.0536782,-0.0897945,-0.104913,0
2024-11-29 18:13:05.084,0.105284,2.97577,9.33709,-0.0536782,-0.0897945,-0.104913,0
2024-11-29 18:13:05.084,0.105284,2.97577,9.33709,-0.0536782,-0.0897945,-0.104913,0
2024-11-29 18:13:05.084,0.105284,2.97577,9.33709,-0.0536782,-0.0897945,-0.104913,0
2024-11-29 18:13:05.084,0.105284,2.97577,9.33709,-0.0536782,-0.0897945,-0.104913,0
2024-11-29 18:13:05.084,0.105284,2.97577,9.33709,-0.0536782,-0.0897945,-0.104913,0
2024-11-29 18:13:05.084,0.105284,2.97577,9.33709,-0.0536782,-0.0897945,-0.104913,0
2024-11-29 18:13:05.084,0.105284,2.97577,9.33709,-0.0536782,-0.0897945,-0.104913,0
2024-11-29 18:13:05.085,0.105284,2.97577,9.33709,-0.0512348,-0.0910162,-0.105524,0
2024-11-29 18:13:05.085,0.105284,2.97577,9.33709,-0.0512348,-0.0910162,-0.105524,0
2024-11-29 18:13:05.085,0.105284,2.97577,9.33709,-0.0512348,-0.0910162,-0.105524,0
2024-11-29 18:13:05.085,0.105284,2.97577,9.33709,-0.0512348,-0.0910162,-0.105524,0
2024-11-29 18:13:05.085,0.105284,2.97577,9.33709,-0.0512348,-0.0910162,-0.105524,0
2024-11-29 18:13:05.085,0.105284,2.97577,9.33709,-0.0512348,-0.0910162,-0.105524,0
2024-11-29 18:13:05.085,0.105284,2.97577,9.33709,-0.0512348,-0.0910162,-0.105524,0
2024-11-29 18:13:05.085,0.105284,2.97577,9.33709,-0.0512348,-0.0910162,-0.105524,0
2024-11-29 18:13:05.085,0.105284,2.97577,9.33709,-0.0512348,-0.0910162,-0.105524,0
2024-11-29 18:13:05.086,0.11007,2.9662,9.35863,-0.0512348,-0.0910162,-0.105524,0
2024-11-29 18:13:05.086,0.11007,2.9662,9.35863,-0.0512348,-0.0910162,-0.105524,0
2024-11-29 18:13:05.086,0.11007,2.9662,9.35863,-0.0512348,-0.0910162,-0.105524,0
2024-11-29 18:13:05.086,0.11007,2.9662,9.35863,-0.0512348,-0.0910162,-0.105524,0
2024-11-29 18:13:05.086,0.11007,2.9662,9.35863,-0.0512348,-0.0910162,-0.105524,0
2024-11-29 18:13:05.086,0.11007,2.9662,9.35863,-0.0512348,-0.0910162,-0.105524,0
2024-11-29 18:13:05.086,0.11007,2.9662,9.35863,-0.0512348,-0.0910162,-0.105524,0
2024-11-29 18:13:05.086,0.11007,2.9662,9.35863,-0.0512348,-0.0910162,-0.105524,0
2024-11-29 18:13:05.087,0.11007,2.9662,9.35863,-0.0512348,-0.0910162,-0.105524,0
2024-11-29 18:13:05.087,0.11007,2.9662,9.35863,-0.0512348,-0.0910162,-0.105524,0
2024-11-29 18:13:05.087,0.11007,2.9662,9.35863,-0.0512348,-0.0910162,-0.105524,0
2024-11-29 18:13:05.087,0.11007,2.9662,9.35863,-0.0512348,-0.0910162,-0.105524,0
2024-11-29 18:13:05.087,0.11007,2.9662,9.35863,-0.0512348,-0.0910162,-0.105524,0
2024-11-29 18:13:05.087,0.11007,2.9662,9.35863,-0.0512348,-0.0910162,-0.105524,0
2024-11-29 18:13:05.087,0.11007,2.9662,9.35863,-0.0512348,-0.0910162,-0.105524,0
2024-11-29 18:13:05.087,0.11007,2.9662,9.35863,-0.0512348,-0.0910162,-0.105524,0
2024-11-29 18:13:05.087,0.11007,2.9662,9.35863,-0.0512348,-0.0910162,-0.105524,0
2024-11-29 18:13:05.087,0.11007,2.9662,9.35863,-0.0512348,-0.0910162,-0.105524,0
2024-11-29 18:13:05.087,0.11007,2.9662,9.35863,-0.0512348,-0.0910162,-0.105524,0
2024-11-29 18:13:05.087,0.11007,2.9662,9.35863,-0.0512348,-0.0910162,-0.105524,0
2024-11-29 18:13:05.087,0.11007,2.9662,9.35863,-0.0512348,-0.0910162,-0.105524,0
2024-11-29 18:13:05.087,0.11007,2.9662,9.35863,-0.0512348,-0.0910162,-0.105524,0
2024-11-29 18:13:05.087,0.11007,2.9662,9.35863,-0.0512348,-0.0910162,-0.105524,0
2024-11-29 18:13:05.094,0.105284,2.9016,9.33949,-0.0512348,-0.0824644,-0.10247,0
2024-11-29 18:13:05.096,0.0693919,2.84656,9.32034,-0.0512348,-0.0824644,-0.10247,0
2024-11-29 18:13:05.097,0.0693919,2.84656,9.32034,-0.0518457,-0.0787993,-0.100026,0
2024-11-29 18:13:05.097,0.0693919,2.84656,9.32034,-0.0518457,-0.0787993,-0.100026,0
2024-11-29 18:13:05.097,0.0693919,2.84656,9.32034,-0.0518457,-0.0787993,-0.100026,0
2024-11-29 18:13:05.098,0.0693919,2.82503,9.29881,-0.0518457,-0.0787993,-0.100026,0
2024-11-29 18:13:05.098,0.0478565,2.82503,9.29881,-0.0518457,-0.0787993,-0.100026,0
2024-11-29 18:13:05.098,0.0478565,2.82503,9.29881,-0.0518457,-0.0787993,-0.100026,0
2024-11-29 18:13:05.098,0.0478565,2.82503,9.29881,-0.0518457,-0.0787993,-0.100026,0
2024-11-29 18:13:05.101,0.0287139,2.80349,9.28684,-0.0542891,-0.0690257,-0.0951395,0
2024-11-29 18:13:05.104,0.0287139,2.77717,9.27727,-0.0542891,-0.0690257,-0.0951395,0
2024-11-29 18:13:05.106,0.0430708,2.75324,9.25544,-0.0573433,-0.0659715,-0.0896418,0
2024-11-29 18:13:05.107,0.0502493,2.73171,9.25305,-0.0610084,-0.064139,-0.0865876,0
2024-11-29 18:13:05.111,0.0502493,2.71496,9.24347,-0.0652843,-0.0580305,-0.0792574,0
2024-11-29 18:13:05.113,0.0598206,2.7006,9.21955,-0.0652843,-0.0580305,-0.0792574,0
2024-11-29 18:13:05.115,0.0598206,2.68864,9.2028,-0.0683385,-0.0549763,-0.0749815,0
2024-11-29 18:13:05.118,0.0741775,2.67906,9.2004,-0.0762796,-0.0537546,-0.0725381,0
2024-11-29 18:13:05.120,0.100499,2.66949,9.20519,-0.0817772,-0.0513112,-0.0694839,0
2024-11-29 18:13:05.122,0.107677,2.67667,9.20519,-0.0872748,-0.0500895,-0.0658188,0
2024-11-29 18:13:05.125,0.114855,2.67667,9.21955,-0.0891073,-0.0488678,-0.0639862,0
2024-11-29 18:13:05.127,0.138784,2.67667,9.22912,-0.0976592,-0.0494786,-0.0603212,0
2024-11-29 18:13:05.128,0.167498,2.68864,9.2363,-0.0976592,-0.0494786,-0.0603212,0
2024-11-29 18:13:05.131,0.193819,2.70778,9.24108,-0.101324,-0.0482569,-0.0584886,0
2024-11-29 18:13:05.133,0.210568,2.72931,9.25305,-0.103157,-0.0494786,-0.0578778,0
2024-11-29 18:13:05.137,0.229711,2.74128,9.26531,-0.108044,-0.0482569,-0.0554344,0
2024-11-29 18:13:05.139,0.258425,2.73649,9.27488,-0.113541,-0.043981,-0.0566561,0
2024-11-29 18:13:05.141,0.270389,2.74606,9.28445,-0.113541,-0.043981,-0.0566561,0
2024-11-29 18:13:05.144,0.289831,2.76042,9.28684,-0.115374,-0.0403159,-0.0584886,0
2024-11-29 18:13:05.146,0.316152,2.7676,9.28924,-0.115374,-0.0403159,-0.0584886,0
2024-11-29 18:13:05.148,0.330509,2.79153,9.28206,-0.11965,-0.0372617,-0.0597103,0
2024-11-29 18:13:05.150,0.344866,2.81306,9.2677,-0.120871,-0.0329858,-0.0615429,0
2024-11-29 18:13:05.153,0.364008,2.8011,9.26052,-0.125758,-0.0317641,-0.0590995,0
2024-11-29 18:13:05.154,0.387936,2.79392,9.2363,-0.126369,-0.0274881,-0.0603212,0
2024-11-29 18:13:05.157,0.409472,2.81306,9.21476,-0.130034,-0.0274881,-0.0621537,0
2024-11-29 18:13:05.159,0.438186,2.8346,9.2028,-0.133699,-0.0262664,-0.0615429,0
2024-11-29 18:13:05.161,0.462114,2.8322,9.18844,-0.138586,-0.0262664,-0.0627646,0
2024-11-29 18:13:05.164,0.488435,2.83938,9.1669,-0.143473,-0.0250447,-0.0621537,0
2024-11-29 18:13:05.166,0.507577,2.8657,9.14058,-0.146527,-0.0256556,-0.0633754,0
2024-11-29 18:13:05.170,0.533899,2.88485,9.12623,-0.153857,-0.0287098,-0.0639862,0
2024-11-29 18:13:05.172,0.591326,2.90399,9.12383,-0.159355,-0.0323749,-0.0645971,0
2024-11-29 18:13:05.174,0.634397,2.92792,9.11187,-0.167296,-0.0335966,-0.0670405,0
2024-11-29 18:13:05.176,0.667897,2.9327,9.11665,-0.174015,-0.0397051,-0.0707056,0
2024-11-29 18:13:05.178,0.720539,2.92313,9.12623,-0.183178,-0.0470352,-0.0725381,0
2024-11-29 18:13:05.180,0.773181,2.93988,9.12862,-0.188675,-0.0494786,-0.0774249,0
2024-11-29 18:13:05.184,0.821037,2.94706,9.15973,-0.196616,-0.0549763,-0.0829225,0
2024-11-29 18:13:05.186,0.864407,2.96142,9.19562,-0.203336,-0.0586413,-0.0884201,0
2024-11-29 18:13:05.188,0.907478,2.98774,9.22672,-0.210666,-0.0635281,-0.0933069,0
2024-11-29 18:13:05.190,0.952942,3.0021,9.25783,-0.217385,-0.0647498,-0.101248,0
2024-11-29 18:13:05.192,0.991227,3.01645,9.29402,-0.219829,-0.0671932,-0.108578,0
2024-11-29 18:13:05.195,1.01515,3.03559,9.32513,-0.224715,-0.0665824,-0.119573,0
2024-11-29 18:13:05.198,1.0319,3.04517,9.34188,-0.231435,-0.064139,-0.133623,0
2024-11-29 18:13:05.200,1.03669,3.04995,9.3682,-0.231435,-0.064139,-0.133623,0
2024-11-29 18:13:05.203,1.0319,3.06431,9.39213,-0.2351,-0.0543654,-0.150727,0
2024-11-29 18:13:05.205,1.01515,3.08345,9.39691,-0.2351,-0.0543654,-0.150727,0
2024-11-29 18:13:05.206,1.00558,3.08854,9.38974,-0.238154,-0.0488678,-0.157446,0
2024-11-29 18:13:05.210,0.998405,3.1005,9.38495,-0.24243,-0.0415376,-0.165387,0
2024-11-29 18:13:05.211,0.981655,3.11486,9.3682,-0.245484,-0.0342074,-0.172717,0
2024-11-29 18:13:05.214,0.957727,3.09811,9.34188,-0.252204,-0.0195471,-0.183712,0
2024-11-29 18:13:05.217,0.919442,3.09811,9.31316,-0.255869,-0.0122169,-0.186156,0
2024-11-29 18:13:05.219,0.881157,3.10768,9.28924,-0.261977,-0.00549763,-0.192264,0
2024-11-29 18:13:05.221,0.84018,3.09332,9.26531,-0.261977,-0.00549763,-0.192264,0
2024-11-29 18:13:05.223,0.785145,3.09332,9.2339,-0.268086,0.00244339,-0.195318,0
2024-11-29 18:13:05.226,0.71336,3.1005,9.2004,-0.272362,0.0109953,-0.197762,0
2024-11-29 18:13:05.227,0.641576,3.10768,9.15733,-0.27847,0.0183254,-0.195929,0
2024-11-29 18:13:05.231,0.579362,3.12204,9.1023,-0.287022,0.0268773,-0.192264,0
2024-11-29 18:13:05.233,0.512363,3.13161,9.04487,-0.294352,0.0329858,-0.192264,0
2024-11-29 18:13:05.234,0.445364,3.15075,9.00898,-0.301682,0.0397051,-0.184934,0
2024-11-29 18:13:05.238,0.371187,3.17946,8.97308,-0.312067,0.0458135,-0.179436,0
2024-11-29 18:13:05.239,0.313759,3.22732,8.92762,-0.320008,0.0507003,-0.169052,0
2024-11-29 18:13:05.242,0.267996,3.28475,8.91087,-0.331003,0.0513112,-0.159889,0
2024-11-29 18:13:05.245,0.22014,3.335,8.89891,-0.349939,0.0482569,-0.141564,0
2024-11-29 18:13:05.246,0.189033,3.39242,8.88455,-0.349939,0.0482569,-0.141564,0
2024-11-29 18:13:05.250,0.165105,3.44507,8.88216,-0.374373,0.0354291,-0.122017,0
2024-11-29 18:13:05.251,0.16989,3.51207,8.88455,-0.374373,0.0354291,-0.122017,0
2024-11-29 18:13:05.254,0.181855,3.5671,8.91326,-0.38659,0.0244339,-0.113465,0
2024-11-29 18:13:05.257,0.208176,3.61256,8.96112,-0.399418,0.0134386,-0.106135,0
2024-11-29 18:13:05.259,0.258425,3.68465,9.03051,-0.417743,-0.0128278,-0.0988045,0
2024-11-29 18:13:05.261,0.299402,3.75404,9.10708,-0.417743,-0.0128278,-0.0988045,0
2024-11-29 18:13:05.263,0.347258,3.81386,9.19322,-0.427517,-0.0293207,-0.0957503,0
2024-11-29 18:13:05.265,0.397508,3.87847,9.29402,-0.434847,-0.0464244,-0.0957503,0
2024-11-29 18:13:05.267,0.459721,3.9335,9.39691,-0.438512,-0.0647498,-0.0994154,0
2024-11-29 18:13:05.270,0.52672,3.95982,9.50459,-0.44401,-0.0849078,-0.104302,0
2024-11-29 18:13:05.273,0.576969,3.99093,9.60987,-0.445842,-0.103844,-0.111632,0
2024-11-29 18:13:05.278,0.675075,4.00768,9.84467,-0.441566,-0.164318,-0.139731,0
2024-11-29 18:13:05.278,0.675075,4.00768,9.84467,-0.441566,-0.164318,-0.139731,0
2024-11-29 18:13:05.279,0.71336,4.02682,9.9667,-0.441566,-0.164318,-0.139731,0
2024-11-29 18:13:05.282,0.732503,4.04118,10.0744,-0.433625,-0.179589,-0.152559,0
2024-11-29 18:13:05.285,0.749253,4.04357,10.1845,-0.418965,-0.206466,-0.17455,0
2024-11-29 18:13:05.287,0.761217,4.03161,10.3017,-0.418965,-0.206466,-0.17455,0
2024-11-29 18:13:05.290,0.770788,4.02204,10.4192,-0.411024,-0.21624,-0.185545,0
2024-11-29 18:13:05.291,0.777966,4.01964,10.5102,-0.399418,-0.221738,-0.194708,0
2024-11-29 18:13:05.294,0.770788,3.98854,10.5963,-0.387201,-0.221738,-0.204481,0
2024-11-29 18:13:05.297,0.756431,3.95025,10.6801,-0.358491,-0.20891,-0.219752,0
2024-11-29 18:13:05.298,0.727717,3.92632,10.7542,-0.358491,-0.20891,-0.219752,0
2024-11-29 18:13:05.301,0.675075,3.90718,10.8236,-0.340166,-0.197304,-0.224028,0
2024-11-29 18:13:05.304,0.610469,3.87847,10.8739,-0.321229,-0.183865,-0.227693,0
2024-11-29 18:13:05.305,0.550648,3.85693,10.9074,-0.304126,-0.167372,-0.228304,0
2024-11-29 18:13:05.308,0.483649,3.83061,10.9313,-0.280303,-0.149047,-0.226472,0
2024-11-29 18:13:05.311,0.397508,3.7995,10.9265,-0.258923,-0.128278,-0.222807,0
2024-11-29 18:13:05.312,0.330509,3.77079,10.8811,-0.238765,-0.106287,-0.219141,0
2024-11-29 18:13:05.315,0.265603,3.74686,10.8356,-0.217385,-0.0836861,-0.214255,0
2024-11-29 18:13:05.319,0.11007,3.69422,10.6825,-0.175848,-0.0317641,-0.197762,0
2024-11-29 18:13:05.320,0.11007,3.69422,10.6825,-0.175848,-0.0317641,-0.197762,0
2024-11-29 18:13:05.324,-0.0334995,3.65354,10.4671,-0.142862,0.0146603,-0.180047,0
2024-11-29 18:13:05.324,-0.0334995,3.65354,10.4671,-0.142862,0.0146603,-0.180047,0
2024-11-29 18:13:05.327,-0.0933201,3.64606,10.3543,-0.128812,0.0390942,-0.16783,0
2024-11-29 18:13:05.329,-0.153141,3.62931,10.2275,-0.113541,0.0586413,-0.157446,0
2024-11-29 18:13:05.332,-0.189033,3.62931,10.0983,-0.100713,0.0781884,-0.146451,0
2024-11-29 18:13:05.333,-0.200997,3.62453,9.98345,-0.0915507,0.0971247,-0.135455,0
2024-11-29 18:13:05.337,-0.215354,3.61017,9.8686,-0.0836097,0.114228,-0.123238,0
2024-11-29 18:13:05.339,-0.234497,3.6006,9.75584,-0.0677277,0.147214,-0.101859,0
2024-11-29 18:13:05.340,-0.239282,3.6006,9.64577,-0.0677277,0.147214,-0.101859,0
2024-11-29 18:13:05.344,-0.232104,3.6006,9.5333,-0.0634518,0.160042,-0.0914744,0
2024-11-29 18:13:05.346,-0.222533,3.57428,9.42323,-0.0603975,0.171648,-0.0823117,0
2024-11-29 18:13:05.349,-0.193819,3.56231,9.32274,-0.0536782,0.183865,-0.0755923,0
2024-11-29 18:13:05.350,-0.160319,3.57189,9.22672,-0.050624,0.194249,-0.0664296,0
2024-11-29 18:13:05.353,-0.131605,3.5671,9.12144,-0.0451263,0.210742,-0.0554344,0
2024-11-29 18:13:05.356,-0.117248,3.55514,9.01376,-0.0451263,0.210742,-0.0554344,0
2024-11-29 18:13:05.358,-0.11007,3.55753,8.9348,-0.0414613,0.227235,-0.0456608,0
2024-11-29 18:13:05.360,-0.081356,3.55992,8.85105,-0.0414613,0.227235,-0.0456608,0
2024-11-29 18:13:05.362,-0.0502493,3.55992,8.77209,-0.0377962,0.235176,-0.0413849,0
2024-11-29 18:13:05.364,-0.026321,3.56471,8.71227,-0.0402396,0.243117,-0.0364981,0
2024-11-29 18:13:05.367,-0.00717847,3.55992,8.63301,-0.0377962,0.249226,-0.0340547,0
2024-11-29 18:13:05.369,0.0,3.55514,8.55883,-0.0371853,0.254112,-0.032833,0
2024-11-29 18:13:05.372,0.00478565,3.55514,8.48944,-0.038407,0.256556,-0.0322222,0
2024-11-29 18:13:05.373,0.0287139,3.55035,8.42004,-0.0396287,0.257167,-0.0346656,0
2024-11-29 18:13:05.376,0.0526421,3.55992,8.36262,-0.0402396,0.255945,-0.0358873,0
2024-11-29 18:13:05.378,0.0717847,3.56949,8.30519,-0.0414613,0.252891,-0.0389415,0
2024-11-29 18:13:05.381,0.081356,3.5671,8.24298,-0.0445155,0.249837,-0.0432174,0
2024-11-29 18:13:05.388,0.627219,3.21057,8.74816,-0.0219141,0.184476,-0.0957503,0
2024-11-29 18:13:05.389,0.627219,3.21057,8.74816,-0.0219141,0.184476,-0.0957503,0
2024-11-29 18:13:05.389,0.627219,3.21057,8.74816,-0.0219141,0.184476,-0.0957503,0
2024-11-29 18:13:05.391,0.0550349,3.42353,8.2669,-0.0121406,0.221127,-0.111632,0
2024-11-29 18:13:05.392,-0.0957129,3.5336,8.1664,-0.0121406,0.221127,-0.111632,0
2024-11-29 18:13:05.395,-0.141177,3.59103,8.28844,-0.00419957,0.233955,-0.111021,0
2024-11-29 18:13:05.398,-0.174676,3.62453,8.39372,0.00374144,0.240674,-0.101248,0
2024-11-29 18:13:05.399,-0.205783,3.66311,8.35065,0.00374144,0.240674,-0.101248,0
2024-11-29 18:13:05.403,-0.270389,3.7014,8.14008,0.00435229,0.237009,-0.0914744,0
2024-11-29 18:13:05.404,-0.335294,3.70858,7.92443,-0.00725381,0.229679,-0.0804791,0
2024-11-29 18:13:05.406,-0.378365,3.67508,7.82393,-0.0206925,0.213797,-0.0670405,0
2024-11-29 18:13:05.409,-0.387936,3.63171,7.82872,-0.0347419,0.19486,-0.0566561,0
2024-11-29 18:13:05.411,-0.366401,3.60539,7.85504,-0.0481806,0.17287,-0.0487151,0
2024-11-29 18:13:05.414,-0.328116,3.58146,7.86222,-0.0628409,0.150879,-0.0432174,0
2024-11-29 18:13:05.417,-0.272782,3.5671,7.87179,-0.074447,0.128889,-0.0395524,0
2024-11-29 18:13:05.418,-0.20339,3.54317,7.89811,-0.0878856,0.110563,-0.0358873,0
2024-11-29 18:13:05.422,-0.12682,3.52642,7.93639,-0.0982701,0.0971247,-0.0364981,0
2024-11-29 18:13:05.424,-0.0646062,3.53121,8.00339,-0.118428,0.0757451,-0.0389415,0
2024-11-29 18:13:05.425,-0.0311067,3.53839,8.07518,-0.118428,0.0757451,-0.0389415,0
2024-11-29 18:13:05.429,-0.0191426,3.55035,8.14248,-0.122704,0.0647498,-0.0401632,0
2024-11-29 18:13:05.430,-0.0191426,3.58385,8.2023,-0.128812,0.0580305,-0.0438283,0
2024-11-29 18:13:05.432,-0.0287139,3.62214,8.24298,-0.132477,0.0500895,-0.04505,0
2024-11-29 18:13:05.435,-0.0287139,3.66072,8.27887,-0.136143,0.0470352,-0.0468825,0
2024-11-29 18:13:05.437,-0.0215354,3.70379,8.31715,-0.14164,0.0409268,-0.0468825,0
2024-11-29 18:13:05.440,-0.0191426,3.73729,8.36262,-0.145916,0.0366508,-0.0481042,0
2024-11-29 18:13:05.442,-0.0287139,3.766,8.41765,-0.151414,0.0317641,-0.0481042,0
2024-11-29 18:13:05.444,-0.0358923,3.79711,8.46072,-0.15569,0.028099,-0.0493259,0
2024-11-29 18:13:05.447,-0.0239282,3.80907,8.49901,-0.161187,0.0250447,-0.0474934,0
2024-11-29 18:13:05.450,-0.00717847,3.81625,8.54686,-0.166685,0.015882,-0.0487151,0
2024-11-29 18:13:05.452,0.00717847,3.82582,8.61147,-0.166685,0.015882,-0.0487151,0
2024-11-29 18:13:05.455,0.0191426,3.81625,8.68086,-0.169739,0.0116061,-0.0474934,0
2024-11-29 18:13:05.456,0.0358923,3.81865,8.73141,-0.170961,0.00733017,-0.0499368,0
2024-11-29 18:13:05.458,0.0526421,3.81147,8.78166,-0.174015,0.00183254,-0.0493259,0
2024-11-29 18:13:05.462,0.0646062,3.8019,8.84866,-0.174015,0.00122169,-0.0523802,0
2024-11-29 18:13:05.464,0.0741775,3.83061,8.9013,-0.176459,-0.000610847,-0.0505476,0
2024-11-29 18:13:05.465,0.0837488,3.84736,8.94437,-0.175237,-0.00122169,-0.0499368,0
2024-11-29 18:13:05.468,0.0765703,3.84975,8.98026,-0.176459,-0.000610847,-0.0493259,0
2024-11-29 18:13:05.471,0.0550349,3.8665,9.01137,-0.175237,0.00733017,-0.0468825,0
2024-11-29 18:13:05.473,0.0430708,3.87129,9.04965,-0.175237,0.00733017,-0.0468825,0
2024-11-29 18:13:05.476,0.040678,3.89043,9.09273,-0.172183,0.0164929,-0.0426066,0
2024-11-29 18:13:05.478,0.0287139,3.90479,9.12144,-0.170961,0.0213797,-0.0389415,0
2024-11-29 18:13:05.480,0.00957129,3.93111,9.15494,-0.170961,0.0213797,-0.0389415,0
2024-11-29 18:13:05.483,-0.0119641,3.967,9.18844,-0.167296,0.0311532,-0.032833,0
2024-11-29 18:13:05.485,-0.0239282,3.95982,9.20997,-0.167296,0.0311532,-0.032833,0
2024-11-29 18:13:05.488,-0.0334995,3.967,9.2339,-0.164852,0.0415376,-0.0242812,0
2024-11-29 18:13:05.490,-0.0550349,3.98854,9.25305,-0.164852,0.0415376,-0.0242812,0
2024-11-29 18:13:05.492,-0.0622134,3.98614,9.26292,-0.16302,0.0415376,-0.0218378,0
2024-11-29 18:13:05.494,-0.0646062,3.99093,9.28684,-0.161798,0.0464244,-0.016951,0
2024-11-29 18:13:05.496,-0.0837488,4.0005,9.31795,-0.161187,0.0488678,-0.0126751,0
2024-11-29 18:13:05.498,-0.100499,4.01486,9.34427,-0.158744,0.0494786,-0.00901,0
2024-11-29 18:13:05.501,-0.102891,4.02682,9.37059,-0.158133,0.0507003,-0.00595576,0
2024-11-29 18:13:05.503,-0.105284,4.02204,9.38974,-0.156301,0.0525329,-0.000458135,0
2024-11-29 18:13:05.506,-0.11007,4.01725,9.40409,-0.153246,0.0513112,0.00565034,0
2024-11-29 18:13:05.509,-0.119641,4.03639,9.43281,-0.149581,0.0488678,0.00809373,0
2024-11-29 18:13:05.511,-0.129212,4.04596,9.46391,-0.145916,0.0513112,0.0196998,0
2024-11-29 18:13:05.512,-0.133998,4.05075,9.48545,-0.145916,0.0513112,0.0196998,0
2024-11-29 18:13:05.516,-0.141177,4.05554,9.50938,-0.142251,0.0513112,0.0233649,0
2024-11-29 18:13:05.518,-0.153141,4.06032,9.55245,-0.135532,0.0500895,0.0319168,0
2024-11-29 18:13:05.521,-0.177069,4.07946,9.57638,-0.135532,0.0500895,0.0319168,0
2024-11-29 18:13:05.523,-0.189033,4.08186,9.58116,-0.12698,0.0494786,0.0416903,0
2024-11-29 18:13:05.525,-0.191426,4.07946,9.59791,-0.12698,0.0494786,0.0416903,0
2024-11-29 18:13:05.527,-0.193819,4.10818,9.61945,-0.123315,0.0464244,0.0465771,0
2024-11-29 18:13:05.530,-0.198604,4.11296,9.65773,-0.111098,0.0421485,0.0557398,0
2024-11-29 18:13:05.531,-0.193819,4.10339,9.68884,-0.111098,0.0421485,0.0557398,0
2024-11-29 18:13:05.535,-0.179462,4.101,9.70559,-0.109265,0.0403159,0.0612374,0
2024-11-29 18:13:05.536,-0.177069,4.10339,9.72234,-0.102546,0.0372617,0.0649025,0
2024-11-29 18:13:05.539,-0.157926,4.11057,9.74627,-0.0976592,0.0354291,0.0685676,0
2024-11-29 18:13:05.541,-0.129212,4.10578,9.78216,-0.0921616,0.0323749,0.0716218,0
2024-11-29 18:13:05.544,-0.122034,4.09143,9.80369,-0.0799446,0.028099,0.0771195,0
2024-11-29 18:13:05.546,-0.119641,4.07946,9.80369,-0.0799446,0.028099,0.0771195,0
2024-11-29 18:13:05.549,-0.107677,4.07229,9.81326,-0.0768904,0.0244339,0.078952,0
2024-11-29 18:13:05.551,-0.102891,4.08664,9.82314,-0.0695602,0.0195471,0.0813954,0
2024-11-29 18:13:05.553,-0.124427,4.07946,9.84228,-0.0695602,0.0195471,0.0813954,0
2024-11-29 18:13:05.555,-0.143569,4.07946,9.8686,-0.0640626,0.0171037,0.0832279,0
2024-11-29 18:13:05.557,-0.153141,4.10818,9.88056,-0.058565,0.015882,0.086893,0
2024-11-29 18:13:05.561,-0.165105,4.13211,9.88774,-0.0524565,0.0152712,0.091169,0
2024-11-29 18:13:05.562,-0.172283,4.12253,9.89971,-0.0475697,0.015882,0.0942232,0
2024-11-29 18:13:05.564,-0.184247,4.10818,9.91167,-0.0445155,0.0195471,0.09911,0
2024-11-29 18:13:05.567,-0.198604,4.12014,9.92842,-0.0390179,0.0232122,0.102775,0
2024-11-29 18:13:05.570,-0.198604,4.12493,9.94038,-0.0347419,0.0262664,0.108884,0
2024-11-29 18:13:05.572,-0.200997,4.11536,9.9356,-0.0298552,0.0335966,0.11377,0
2024-11-29 18:13:05.574,-0.208176,4.11536,9.92842,-0.0274118,0.0403159,0.119879,0
2024-11-29 18:13:05.577,-0.200997,4.11775,9.92842,-0.0237467,0.0482569,0.126598,0
2024-11-29 18:13:05.579,-0.184247,4.10818,9.93081,-0.0219141,0.0549763,0.132707,0
2024-11-29 18:13:05.581,-0.177069,4.11536,9.91885,-0.0182491,0.0616956,0.138815,0
2024-11-29 18:13:05.584,-0.172283,4.12253,9.89971,-0.0151948,0.0702474,0.149199,0
2024-11-29 18:13:05.585,-0.165105,4.1345,9.89013,-0.0151948,0.0702474,0.149199,0
2024-11-29 18:13:05.590,-0.157926,4.17996,9.88535,-0.0158057,0.0763559,0.162027,0
2024-11-29 18:13:05.590,-0.143569,4.17996,9.88535,-0.0158057,0.0763559,0.162027,0
2024-11-29 18:13:05.593,-0.129212,4.1991,9.88296,-0.014584,0.0769668,0.167525,0
2024-11-29 18:13:05.595,-0.0861416,4.20897,9.88056,-0.0133623,0.0781884,0.17119,0
2024-11-29 18:13:05.597,-0.0550349,4.22333,9.89492,-0.014584,0.0775776,0.174244,0
2024-11-29 18:13:05.601,-0.0598206,4.25683,9.9021,-0.0158057,0.0769668,0.177909,0
2024-11-29 18:13:05.603,-0.0382852,4.28076,9.89492,-0.0170274,0.0751342,0.179742,0
2024-11-29 18:13:05.604,0.0119641,4.28555,9.89253,-0.0170274,0.0751342,0.179742,0
2024-11-29 18:13:05.607,0.0574277,4.29751,9.90688,-0.0188599,0.0751342,0.179131,0
2024-11-29 18:13:05.610,0.11007,4.30947,9.91885,-0.0194708,0.0745234,0.177909,0
2024-11-29 18:13:05.611,0.162712,4.32383,9.9356,-0.0219141,0.0733017,0.176688,0
2024-11-29 18:13:05.614,0.196211,4.34776,9.95953,-0.0237467,0.07208,0.171801,0
2024-11-29 18:13:05.617,0.215354,4.36212,9.99303,-0.0280226,0.0708583,0.167525,0
2024-11-29 18:13:05.619,0.229711,4.38604,10.0193,-0.0280226,0.0708583,0.167525,0
2024-11-29 18:13:05.621,0.241675,4.40279,10.06,-0.0286335,0.0733017,0.163249,0
2024-11-29 18:13:05.623,0.260818,4.41715,10.0935,-0.0298552,0.0745234,0.158362,0
2024-11-29 18:13:05.626,0.277567,4.43869,10.1055,-0.0310769,0.0757451,0.154697,0
2024-11-29 18:13:05.628,0.282652,4.44826,10.1438,-0.0310769,0.0775776,0.150421,0
2024-11-29 18:13:05.630,0.277567,4.45783,10.1749,-0.0286335,0.0794101,0.144313,0
2024-11-29 18:13:05.633,0.265603,4.47219,10.194,-0.0292443,0.080021,0.140648,0
2024-11-29 18:13:05.635,0.251246,4.47458,10.2084,-0.0255792,0.0806318,0.137593,0
2024-11-29 18:13:05.638,0.241675,4.47458,10.2371,-0.022525,0.0830752,0.130263,0
2024-11-29 18:13:05.641,0.224925,4.48415,10.2754,-0.0219141,0.0836861,0.126598,0
2024-11-29 18:13:05.643,0.198604,4.5009,10.3017,-0.0206925,0.0861295,0.124766,0
2024-11-29 18:13:05.645,0.16989,4.53201,10.328,-0.0206925,0.0861295,0.124766,0
2024-11-29 18:13:05.650,0.100499,4.55593,10.3953,-0.0151948,0.0934596,0.124766,0
2024-11-29 18:13:05.650,0.100499,4.55593,10.3953,-0.0151948,0.0934596,0.124766,0
2024-11-29 18:13:05.652,0.0693919,4.58226,10.4073,-0.0121406,0.0952922,0.123544,0
2024-11-29 18:13:05.654,0.0382852,4.59661,10.4169,-0.00603212,0.102011,0.122322,0
2024-11-29 18:13:05.656,0.00478565,4.61336,10.4408,-0.00236703,0.108731,0.124766,0
2024-11-29 18:13:05.659,-0.0358923,4.64447,10.4575,0.00129805,0.116061,0.124766,0
2024-11-29 18:13:05.661,-0.0717847,4.66122,10.4695,0.00618483,0.12278,0.125376,0
2024-11-29 18:13:05.664,-0.122034,4.68275,10.4719,0.0159584,0.139884,0.132096,0
2024-11-29 18:13:05.667,-0.155533,4.71386,10.4719,0.0159584,0.139884,0.132096,0
2024-11-29 18:13:05.669,-0.193819,4.74018,10.4647,0.0220669,0.148436,0.134539,0
2024-11-29 18:13:05.671,-0.251246,4.75215,10.436,0.0269536,0.153934,0.139426,0
2024-11-29 18:13:05.673,-0.287438,4.75693,10.4169,0.0300079,0.157599,0.143091,0
2024-11-29 18:13:05.676,-0.320937,4.76411,10.4073,0.0355055,0.161264,0.14981,0
2024-11-29 18:13:05.678,-0.35683,4.77637,10.4001,0.0355055,0.161264,0.14981,0
2024-11-29 18:13:05.680,-0.387936,4.79073,10.3807,0.0379489,0.159431,0.155308,0
2024-11-29 18:13:05.683,-0.414257,4.80509,10.3639,0.0379489,0.157599,0.158362,0
2024-11-29 18:13:05.684,-0.426222,4.81705,10.3543,0.037338,0.150879,0.16386,0
2024-11-29 18:13:05.687,-0.445364,4.80509,10.3472,0.0367272,0.142938,0.169357,0
2024-11-29 18:13:05.689,-0.45015,4.79312,10.3711,0.033673,0.134386,0.174244,0
2024-11-29 18:13:05.692,-0.419043,4.79312,10.4121,0.0324513,0.122169,0.177909,0
2024-11-29 18:13:05.694,-0.390329,4.79073,10.4671,0.0324513,0.105066,0.181574,0
2024-11-29 18:13:05.697,-0.354437,4.79552,10.5221,0.029397,0.0873512,0.18585,0
2024-11-29 18:13:05.699,-0.32333,4.79312,10.5844,0.0281753,0.0665824,0.187072,0
2024-11-29 18:13:05.702,-0.27996,4.79552,10.6561,0.0257319,0.0274881,0.188294,0
2024-11-29 18:13:05.704,-0.227318,4.79312,10.7375,0.0251211,0.00733017,0.187683,0
2024-11-29 18:13:05.708,-0.196211,4.79552,10.8188,0.0251211,-0.00916271,0.188294,0
2024-11-29 18:13:05.709,-0.167498,4.80269,10.9146,0.0251211,-0.00916271,0.188294,0
2024-11-29 18:13:05.714,-0.105284,4.79312,11.1063,0.0300079,-0.0366508,0.190126,0
2024-11-29 18:13:05.714,-0.105284,4.79312,11.1063,0.0300079,-0.0366508,0.190126,0
2024-11-29 18:13:05.715,-0.0765703,4.77159,11.202,0.0318404,-0.0482569,0.188905,0
2024-11-29 18:13:05.717,-0.0526421,4.75693,11.3049,0.0348946,-0.0555871,0.19257,0
2024-11-29 18:13:05.721,-0.0478565,4.75215,11.4078,0.0458899,-0.0635281,0.198067,0
2024-11-29 18:13:05.723,-0.0382852,4.75215,11.5086,0.0507767,-0.064139,0.200511,0
2024-11-29 18:13:05.725,-0.0334995,4.75215,11.6043,0.0507767,-0.064139,0.200511,0
2024-11-29 18:13:05.727,-0.0119641,4.73779,11.7,0.0587177,-0.059863,0.204787,0
2024-11-29 18:13:05.729,0.0119641,4.72822,11.7885,0.0678804,-0.051922,0.208452,0
2024-11-29 18:13:05.732,0.0143569,4.71865,11.846,0.0770431,-0.0390942,0.212728,0
2024-11-29 18:13:05.735,0.00717847,4.71147,11.8843,0.0965902,-0.000610847,0.224334,0
2024-11-29 18:13:05.736,-0.0119641,4.71147,11.9201,0.0965902,-0.000610847,0.224334,0
2024-11-29 18:13:05.739,-0.0502493,4.70907,11.9225,0.105753,0.0226013,0.232886,0
2024-11-29 18:13:05.742,-0.0789631,4.70429,11.901,0.122246,0.0733017,0.246324,0
2024-11-29 18:13:05.744,-0.112463,4.70429,11.8627,0.130187,0.102011,0.256709,0
2024-11-29 18:13:05.747,-0.155533,4.69711,11.8101,0.13263,0.126445,0.263428,0
2024-11-29 18:13:05.749,-0.196211,4.69233,11.7455,0.135684,0.145992,0.273201,0
2024-11-29 18:13:05.753,-0.275175,4.65165,11.5828,0.134463,0.162485,0.27931,0
2024-11-29 18:13:05.753,-0.275175,4.65165,11.5828,0.134463,0.162485,0.27931,0
2024-11-29 18:13:05.758,-0.299402,4.57268,11.4317,0.122857,0.169205,0.290305,0
2024-11-29 18:13:05.758,-0.299402,4.57268,11.4317,0.122857,0.169205,0.290305,0
2024-11-29 18:13:05.761,-0.299402,4.5344,11.3839,0.114305,0.160042,0.294581,0
2024-11-29 18:13:05.763,-0.265603,4.47697,11.3432,0.0904818,0.120948,0.295803,0
2024-11-29 18:13:05.765,-0.217747,4.39562,11.3312,0.0904818,0.120948,0.295803,0
2024-11-29 18:13:05.768,-0.160319,4.31187,11.3456,0.0636045,0.0427593,0.287862,0
2024-11-29 18:13:05.770,-0.081356,4.22812,11.3815,0.049555,-0.0103844,0.279921,0
2024-11-29 18:13:05.772,0.0167498,4.12732,11.4509,0.049555,-0.0103844,0.279921,0
2024-11-29 18:13:05.775,0.153141,3.99811,11.5612,0.0202343,-0.138051,0.254265,0
2024-11-29 18:13:05.777,0.289831,3.85693,11.712,0.00801737,-0.211964,0.237772,0
2024-11-29 18:13:05.780,0.419043,3.72533,11.8938,-0.00481042,-0.285877,0.220058,0
2024-11-29 18:13:05.782,0.529113,3.59342,12.0999,-0.00481042,-0.285877,0.220058,0
2024-11-29 18:13:05.783,0.62004,3.46421,12.3153,-0.0139731,-0.357346,0.199289,0
2024-11-29 18:13:05.786,0.710967,3.33739,12.5474,-0.0219141,-0.428204,0.180353,0
2024-11-29 18:13:05.788,0.782752,3.22014,12.8181,-0.022525,-0.493565,0.16386,0
2024-11-29 18:13:05.791,0.857229,3.10768,13.098,-0.0231358,-0.55526,0.148589,0
2024-11-29 18:13:05.794,0.929013,2.99013,13.3878,-0.0115297,-0.667045,0.1211,0
2024-11-29 18:13:05.797,1.0654,2.7676,13.9935,7.63559e-05,-0.709194,0.110716,0
2024-11-29 18:13:05.798,1.0654,2.7676,13.9935,7.63559e-05,-0.709194,0.110716,0
2024-11-29 18:13:05.801,1.12044,2.65992,14.295,0.0391706,-0.783106,0.091169,0
2024-11-29 18:13:05.803,1.14676,2.55703,14.5729,0.0391706,-0.783106,0.091169,0
2024-11-29 18:13:05.805,1.15155,2.47298,14.7715,0.0629936,-0.80754,0.0850605,0
2024-11-29 18:13:05.807,1.17069,2.39163,14.9082,0.0898709,-0.817924,0.0820062,0
2024-11-29 18:13:05.810,1.21854,2.29831,15.0422,0.149123,-0.828309,0.0795629,0
2024-11-29 18:13:05.813,1.27358,2.18106,15.236,0.149123,-0.828309,0.0795629,0
2024-11-29 18:13:05.814,1.30947,2.06381,15.4445,0.18272,-0.825255,0.0801737,0
2024-11-29 18:13:05.816,1.34297,1.96301,15.5761,0.21876,-0.81487,0.0844496,0
2024-11-29 18:13:05.820,1.39561,1.86969,15.6622,0.259686,-0.797156,0.086893,0
2024-11-29 18:13:05.822,1.45334,1.78116,15.7101,0.303057,-0.7715,0.0917798,1
2024-11-29 18:13:05.823,1.50598,1.66869,15.7077,0.347038,-0.734238,0.0984991,0
2024-11-29 18:13:05.826,1.57298,1.53709,15.6718,0.391019,-0.691479,0.104608,0
2024-11-29 18:13:05.829,1.6352,1.4004,15.6192,0.439276,-0.64139,0.109494,0
2024-11-29 18:13:05.830,1.69502,1.28076,15.5091,0.480813,-0.584581,0.115603,0
2024-11-29 18:13:05.834,1.74527,1.15633,15.3389,0.571829,-0.444086,0.127209,0
2024-11-29 18:13:05.835,1.79312,1.02233,15.1379,0.571829,-0.444086,0.127209,0
2024-11-29 18:13:05.839,1.82901,0.905085,14.8866,0.647574,-0.284044,0.139426,0
2024-11-29 18:13:05.841,1.84098,0.799502,14.6112,0.647574,-0.284044,0.139426,0
2024-11-29 18:13:05.843,1.83141,0.720539,14.307,0.681171,-0.199747,0.146756,0
2024-11-29 18:13:05.845,1.78594,0.646361,13.9672,0.714157,-0.113618,0.154086,0
2024-11-29 18:13:05.847,1.70698,0.579362,13.6152,0.742256,-0.0250447,0.166303,0
2024-11-29 18:13:05.849,1.62323,0.550648,13.2706,0.769133,0.0561979,0.176688,0
2024-11-29 18:13:05.853,1.55145,0.557827,12.9401,0.811892,0.226624,0.197456,0
2024-11-29 18:13:05.855,1.4988,0.574577,12.612,0.811892,0.226624,0.197456,0
2024-11-29 18:13:05.856,1.44616,0.588933,12.2818,0.830829,0.308478,0.208452,0
2024-11-29 18:13:05.859,1.36451,0.610469,11.9369,0.843046,0.389721,0.218836,0
2024-11-29 18:13:05.861,1.25444,0.648754,11.5708,0.855263,0.465466,0.230442,0
2024-11-29 18:13:05.864,1.14676,0.677468,11.1996,0.866258,0.546097,0.242659,0
2024-11-29 18:13:05.867,1.08215,0.694218,10.8117,0.877253,0.625508,0.254265,0
2024-11-29 18:13:05.868,1.03908,0.71336,10.4145,0.884583,0.704307,0.267704,0
2024-11-29 18:13:05.871,0.99362,0.727717,10.0146,0.885805,0.778219,0.277477,0
2024-11-29 18:13:05.874,0.938585,0.706182,9.60987,0.878475,0.914438,0.295803,0
2024-11-29 18:13:05.876,0.871586,0.696611,9.21237,0.878475,0.914438,0.295803,0
2024-11-29 18:13:05.879,0.811466,0.706182,8.82712,0.869312,0.968804,0.303744,0
2024-11-29 18:13:05.880,0.74686,0.691825,8.46072,0.856484,1.01645,0.312296,0
2024-11-29 18:13:05.883,0.663111,0.696611,8.11825,0.83877,1.05493,0.319015,0
2024-11-29 18:13:05.885,0.586541,0.720539,7.78804,0.818612,1.08486,0.325123,0
2024-11-29 18:13:05.888,0.521934,0.739681,7.49342,0.769133,1.11785,0.33734,0
2024-11-29 18:13:05.890,0.4669,0.76361,7.23021,0.769133,1.11785,0.33734,0
2024-11-29 18:13:05.892,0.41665,0.785145,6.97867,0.744088,1.1209,0.339173,0
2024-11-29 18:13:05.895,0.366401,0.816252,6.76571,0.714157,1.11541,0.34406,0
2024-11-29 18:13:05.896,0.313759,0.845265,6.59582,0.689723,1.09891,0.345281,0
2024-11-29 18:13:05.899,0.253639,0.869193,6.44955,0.660402,1.07753,0.345281,0
2024-11-29 18:13:05.901,0.189033,0.909871,6.32991,0.631692,1.04577,0.345281,0
2024-11-29 18:13:05.903,0.131605,0.950549,6.21745,0.604204,1.01034,0.342227,0
2024-11-29 18:13:05.906,0.0933201,0.97687,6.10499,0.576105,0.970025,0.337951,0
2024-11-29 18:13:05.909,0.500399,0.777966,6.44955,0.548006,0.835028,0.298857,0
2024-11-29 18:13:05.912,0.648754,0.667897,6.57428,0.523572,0.784328,0.278088,0
2024-11-29 18:13:05.914,0.157926,0.878764,6.03799,0.523572,0.784328,0.278088,0
2024-11-29 18:13:05.916,0.0909273,0.921835,5.87737,0.494863,0.678651,0.235329,0
2024-11-29 18:13:05.919,0.96012,0.531506,6.67478,0.500971,0.582137,0.179742,0
2024-11-29 18:13:05.920,1.22812,0.364008,7.02204,0.500971,0.582137,0.179742,0
2024-11-29 18:13:05.923,0.488435,0.651147,6.3682,0.500971,0.521664,0.136372,0
2024-11-29 18:13:05.925,0.105284,0.864407,6.01645,0.495473,0.489289,0.105829,0
2024-11-29 18:13:05.928,-0.107677,1.01515,5.91596,0.480202,0.452027,0.0832279,0
2024-11-29 18:13:05.932,-0.285045,1.1659,5.81276,0.439886,0.338409,0.0539073,0
2024-11-29 18:13:05.933,-0.385544,1.30469,5.76969,0.439886,0.338409,0.0539073,0
2024-11-29 18:13:05.934,-0.486042,1.42223,5.76969,0.411787,0.258388,0.0416903,0
2024-11-29 18:13:05.937,-0.550648,1.51077,5.74577,0.379413,0.16554,0.0319168,0
2024-11-29 18:13:05.940,-0.682254,1.61366,5.61177,0.342151,0.07208,0.0258083,0
2024-11-29 18:13:05.942,-0.921835,1.74287,5.33659,0.296337,-0.0128278,0.0245866,0
2024-11-29 18:13:05.944,-0.94337,1.79073,5.22144,0.246248,-0.0891837,0.0245866,0
2024-11-29 18:13:05.947,-0.708575,1.69023,5.37727,0.193715,-0.175313,0.0221432,0
2024-11-29 18:13:05.949,-0.428614,1.52991,5.60698,0.0990336,-0.359178,-0.00839915,0
2024-11-29 18:13:05.952,-0.20339,1.37169,5.81037,0.0605502,-0.441643,-0.032833,0
2024-11-29 18:13:05.953,-0.0239282,1.21376,5.99253,0.0605502,-0.441643,-0.032833,0
2024-11-29 18:13:05.956,0.162712,1.05105,6.19831,0.0275645,-0.51189,-0.0645971,0
2024-11-29 18:13:05.959,0.32333,0.907478,6.43041,-0.00236703,-0.571753,-0.101859,0
2024-11-29 18:13:05.962,0.471685,0.722932,6.92363,-0.0365745,-0.656661,-0.181269,0
2024-11-29 18:13:05.963,0.471685,0.722932,6.92363,-0.0365745,-0.656661,-0.181269,0
2024-11-29 18:13:05.965,0.421436,0.694218,7.12014,-0.0475697,-0.682927,-0.218531,0
2024-11-29 18:13:05.968,0.330509,0.691825,7.24696,-0.0542891,-0.700031,-0.251516,0
2024-11-29 18:13:05.969,0.222533,0.694218,7.33789,-0.0616192,-0.707972,-0.277172,0
2024-11-29 18:13:05.973,0.0981057,0.701396,7.39532,-0.0829989,-0.711026,-0.31932,0
2024-11-29 18:13:05.975,-0.0239282,0.701396,7.40489,-0.0829989,-0.711026,-0.31932,0
2024-11-29 18:13:05.976,-0.133998,0.691825,7.40728,-0.0952158,-0.71347,-0.329705,0
2024-11-29 18:13:05.980,-0.236889,0.675075,7.43121,-0.131867,-0.719578,-0.346809,0
2024-11-29 18:13:05.982,-0.320937,0.624826,7.47667,-0.131867,-0.719578,-0.346809,0
2024-11-29 18:13:05.984,-0.392722,0.567398,7.52214,-0.154468,-0.726297,-0.350474,0
2024-11-29 18:13:05.987,-0.459721,0.52672,7.55803,-0.17768,-0.731184,-0.350474,0
2024-11-29 18:13:05.988,-0.505185,0.490828,7.6014,-0.19906,-0.736682,-0.351695,0
2024-11-29 18:13:05.992,-0.541077,0.457328,7.65883,-0.223494,-0.744012,-0.351695,0
2024-11-29 18:13:05.994,-0.572184,0.421436,7.74258,-0.249149,-0.748288,-0.349252,0
2024-11-29 18:13:05.996,-0.598505,0.407079,7.85982,-0.270529,-0.751953,-0.343754,0
2024-11-29 18:13:05.998,-0.629611,0.402293,7.99861,-0.294352,-0.757451,-0.341922,0
2024-11-29 18:13:06.001,-0.660718,0.404686,8.12543,-0.31451,-0.760505,-0.340089,0
2024-11-29 18:13:06.002,-0.689432,0.419043,8.25972,-0.332835,-0.766002,-0.335202,0
2024-11-29 18:13:06.006,-0.722932,0.431007,8.40569,-0.349328,-0.768446,-0.332148,0
2024-11-29 18:13:06.008,-0.766002,0.440578,8.53011,-0.364599,-0.769668,-0.328483,0
2024-11-29 18:13:06.009,-0.797109,0.45015,8.65933,-0.376816,-0.770889,-0.322986,0
2024-11-29 18:13:06.013,-0.811466,0.454935,8.79123,-0.40125,-0.770278,-0.31199,0
2024-11-29 18:13:06.015,-0.835394,0.4669,8.9013,-0.412856,-0.767224,-0.305271,0
2024-11-29 18:13:06.018,-0.878764,0.474078,9.01137,-0.412856,-0.767224,-0.305271,0
2024-11-29 18:13:06.019,-0.912264,0.493221,9.12144,-0.422019,-0.762337,-0.298552,0
2024-11-29 18:13:06.021,-1.01755,0.56022,9.13101,-0.430571,-0.755007,-0.290611,0
2024-11-29 18:13:06.024,-1.08215,0.608076,9.16451,-0.441566,-0.736071,-0.274729,0
2024-11-29 18:13:06.027,-1.01755,0.588933,9.36102,-0.461724,-0.717746,-0.24724,0
2024-11-29 18:13:06.029,-0.964906,0.562612,9.57159,-0.463557,-0.715302,-0.236856,0
2024-11-29 18:13:06.031,-0.950549,0.54347,9.70559,-0.463557,-0.715302,-0.236856,0
2024-11-29 18:13:06.034,-0.948156,0.553041,9.77977,-0.465389,-0.702474,-0.223417,0
2024-11-29 18:13:06.035,-0.96012,0.555434,9.84706,-0.467222,-0.684149,-0.208146,0
2024-11-29 18:13:06.039,-0.964906,0.555434,9.93799,-0.467222,-0.659104,-0.192875,0
2024-11-29 18:13:06.041,-0.96012,0.584148,10.0337,-0.461724,-0.628562,-0.176382,0
2024-11-29 18:13:06.043,-0.967299,0.610469,10.1198,-0.459281,-0.593744,-0.158668,0
2024-11-29 18:13:06.046,-0.964906,0.629611,10.194,-0.454394,-0.561369,-0.139731,0
2024-11-29 18:13:06.047,-0.962513,0.651147,10.2754,-0.447064,-0.524107,-0.120184,0
2024-11-29 18:13:06.050,-0.964906,0.663111,10.3472,-0.437901,-0.489289,-0.0994154,0
2024-11-29 18:13:06.053,-0.981655,0.687039,10.3834,-0.42996,-0.453249,-0.0780357,0
2024-11-29 18:13:06.055,-0.998405,0.732503,10.4073,-0.421408,-0.415987,-0.0554344,0
2024-11-29 18:13:06.058,-1.01276,0.768395,10.4192,-0.401861,-0.338409,-0.00412322,0
2024-11-29 18:13:06.060,-1.02473,0.804287,10.424,-0.391477,-0.299315,0.0203107,0
2024-11-29 18:13:06.062,-1.0343,0.852443,10.424,-0.391477,-0.299315,0.0203107,0
2024-11-29 18:13:06.064,-1.0319,0.902692,10.4121,-0.381703,-0.258388,0.047188,0
2024-11-29 18:13:06.066,-1.0008,0.948156,10.3857,-0.37193,-0.215629,0.0740652,0
2024-11-29 18:13:06.069,-0.972084,0.991227,10.3567,-0.362156,-0.174091,0.0997208,0
2024-11-29 18:13:06.072,-0.950549,1.05583,10.3304,-0.352383,-0.133776,0.123544,0
2024-11-29 18:13:06.074,-0.924228,1.10369,10.2826,-0.345052,-0.0928488,0.14981,0
2024-11-29 18:13:06.075,-0.881157,1.13958,10.2108,-0.338333,-0.0537546,0.173633,0
2024-11-29 18:13:06.079,-0.835394,1.2018,10.1366,-0.330392,-0.0152712,0.197456,0
2024-11-29 18:13:06.080,-0.799502,1.2664,10.0552,-0.32917,0.020158,0.217614,0
2024-11-29 18:13:06.083,-0.761217,1.32144,9.97149,-0.32184,0.0555871,0.234718,0
2024-11-29 18:13:06.086,-0.706182,1.38126,9.89253,-0.320618,0.0891837,0.251822,0
2024-11-29 18:13:06.091,-0.667897,1.50598,9.71516,-0.320618,0.144771,0.276867,0
2024-11-29 18:13:06.091,-0.667897,1.50598,9.71516,-0.320618,0.144771,0.276867,0
2024-11-29 18:13:06.093,-0.624826,1.57059,9.63141,-0.323673,0.16615,0.287251,0
2024-11-29 18:13:06.095,-0.584148,1.62802,9.54766,-0.328559,0.205245,0.299468,0
2024-11-29 18:13:06.098,-0.576969,1.68305,9.48306,-0.328559,0.205245,0.299468,0
2024-11-29 18:13:06.099,-0.565005,1.73809,9.41127,-0.332835,0.217462,0.303133,0
2024-11-29 18:13:06.102,-0.541077,1.79312,9.34188,-0.3365,0.229068,0.306798,0
2024-11-29 18:13:06.105,-0.52672,1.84576,9.27488,-0.341998,0.23823,0.30802,0
2024-11-29 18:13:06.107,-0.507577,1.89601,9.22912,-0.352383,0.252891,0.311685,0
2024-11-29 18:13:06.109,-0.493221,1.94148,9.18844,-0.352383,0.252891,0.311685,0
2024-11-29 18:13:06.112,-0.486042,1.98006,9.14297,-0.357269,0.260221,0.311074,0
2024-11-29 18:13:06.113,-0.474078,1.99681,9.1334,-0.362767,0.257778,0.311074,0
2024-11-29 18:13:06.115,-0.464507,2.01595,9.11426,-0.368265,0.258388,0.310463,0
2024-11-29 18:13:06.119,-0.459721,2.0351,9.08076,-0.373762,0.257778,0.309241,0
2024-11-29 18:13:06.121,-0.445364,2.04945,9.07119,-0.373762,0.257778,0.309241,0
2024-11-29 18:13:06.124,-0.428614,2.07817,9.07119,-0.375595,0.255334,0.306187,0
2024-11-29 18:13:06.126,-0.428614,2.09731,9.06401,-0.37926,0.240063,0.306187,0
2024-11-29 18:13:06.128,-0.419043,2.11645,9.05923,-0.378649,0.2309,0.306798,0
2024-11-29 18:13:06.131,-0.404686,2.15474,9.07358,-0.376816,0.218683,0.305576,0
2024-11-29 18:13:06.133,-0.387936,2.17627,9.10948,-0.376816,0.218683,0.305576,0
2024-11-29 18:13:06.135,-0.373579,2.17866,9.12383,-0.371319,0.191806,0.303133,0
2024-11-29 18:13:06.138,-0.361615,2.18824,9.13101,-0.371319,0.191806,0.303133,0
2024-11-29 18:13:06.140,-0.361615,2.22174,9.16212,-0.367043,0.175924,0.3013,0
2024-11-29 18:13:06.141,-0.354437,2.25284,9.20519,-0.360934,0.161264,0.300079,0
2024-11-29 18:13:06.144,-0.328116,2.2672,9.24347,-0.355437,0.145992,0.300079,0
2024-11-29 18:13:06.147,-0.318545,2.27199,9.28206,-0.344442,0.133165,0.298857,0
2024-11-29 18:13:06.148,-0.313759,2.28395,9.32513,-0.3365,0.120337,0.298246,0
2024-11-29 18:13:06.152,-0.289831,2.30548,9.36581,-0.326116,0.106898,0.296414,0
2024-11-29 18:13:06.154,-0.265603,2.31984,9.39931,-0.30046,0.0910162,0.297635,0
2024-11-29 18:13:06.155,-0.253639,2.33898,9.42084,-0.30046,0.0910162,0.297635,0
2024-11-29 18:13:06.158,-0.253639,2.35813,9.44238,-0.284578,0.0806318,0.298857,0
2024-11-29 18:13:06.160,-0.239282,2.37009,9.46152,-0.272362,0.07208,0.299468,0
2024-11-29 18:13:06.163,-0.227318,2.37727,9.47827,-0.255258,0.0647498,0.303744,0
2024-11-29 18:13:06.165,-0.222533,2.38206,9.48306,-0.236322,0.0568088,0.305576,0
2024-11-29 18:13:06.168,-0.212961,2.3988,9.49023,-0.200282,0.043981,0.314128,0
2024-11-29 18:13:06.171,-0.20339,2.42034,9.49741,-0.1844,0.0384834,0.319015,0
2024-11-29 18:13:06.172,-0.193819,2.42752,9.47109,-0.1844,0.0384834,0.319015,0
2024-11-29 18:13:06.175,-0.174676,2.44427,9.43041,-0.168517,0.0335966,0.324513,0
2024-11-29 18:13:06.177,-0.155533,2.46341,9.39931,-0.153246,0.0299315,0.331843,0
2024-11-29 18:13:06.180,-0.136391,2.47537,9.3682,-0.136143,0.0268773,0.33734,0
2024-11-29 18:13:06.181,-0.102891,2.48016,9.32034,-0.121482,0.0256556,0.343449,0
2024-11-29 18:13:06.184,-0.0741775,2.5017,9.2677,-0.109876,0.0244339,0.349557,0
2024-11-29 18:13:06.186,-0.0382852,2.52832,9.22672,-0.0964375,0.0226013,0.355055,0
2024-11-29 18:13:06.188,0.0167498,2.54746,9.18605,-0.0842206,0.0213797,0.35872,0
2024-11-29 18:13:06.192,0.0550349,2.56899,9.13819,-0.0750579,0.0213797,0.362996,0
2024-11-29 18:13:06.193,0.0885344,2.59771,9.07598,-0.0683385,0.0256556,0.367272,0
2024-11-29 18:13:06.196,0.141177,2.64556,9.00419,-0.0603975,0.0287098,0.370937,0
2024-11-29 18:13:06.199,0.184247,2.68864,8.95394,-0.0512348,0.0415376,0.373991,0
2024-11-29 18:13:06.201,0.234497,2.72931,8.90369,-0.0512348,0.0415376,0.373991,0
2024-11-29 18:13:06.203,0.282652,2.77956,8.84387,-0.0457372,0.0494786,0.374602,0
2024-11-29 18:13:06.205,0.320937,2.81545,8.79362,-0.0432938,0.0561979,0.371548,0
2024-11-29 18:13:06.210,0.390329,2.88963,8.68804,-0.0469589,0.0714691,0.36605,0
2024-11-29 18:13:06.211,0.390329,2.88963,8.68804,-0.0469589,0.0714691,0.36605,0
2024-11-29 18:13:06.212,0.438186,2.93749,8.64258,-0.0487914,0.080021,0.363607,0
2024-11-29 18:13:06.215,0.459721,2.99252,8.59711,-0.0518457,0.0891837,0.357498,0
2024-11-29 18:13:06.217,0.481256,3.05474,8.55165,-0.0579541,0.0995681,0.35139,0
2024-11-29 18:13:06.219,0.514756,3.09571,8.51576,-0.0652843,0.111174,0.346503,0
2024-11-29 18:13:06.222,0.536291,3.15075,8.49422,-0.0713928,0.121559,0.339173,0
2024-11-29 18:13:06.225,0.56022,3.18664,8.45594,-0.0872748,0.147214,0.322069,0
2024-11-29 18:13:06.226,0.596112,3.21536,8.42004,-0.0872748,0.147214,0.322069,0
2024-11-29 18:13:06.230,0.63679,3.24646,8.39612,-0.109265,0.167372,0.304965,0
2024-11-29 18:13:06.231,0.672682,3.26082,8.37219,-0.109265,0.167372,0.304965,0
2024-11-29 18:13:06.233,0.708575,3.27757,8.34347,-0.11965,0.175313,0.291527,0
2024-11-29 18:13:06.236,0.76361,3.29193,8.30519,-0.132477,0.181422,0.27931,0
2024-11-29 18:13:06.238,0.828216,3.2991,8.29562,-0.147749,0.186919,0.26465,0
2024-11-29 18:13:06.244,0.936192,3.32064,8.31237,-0.180734,0.189974,0.231053,0
2024-11-29 18:13:06.244,0.936192,3.32064,8.31237,-0.180734,0.189974,0.231053,0
2024-11-29 18:13:06.245,0.950549,3.33739,8.33869,-0.197838,0.191195,0.215782,0
2024-11-29 18:13:06.248,0.969691,3.34696,8.38176,-0.212498,0.191195,0.198067,0
2024-11-29 18:13:06.251,1.00798,3.35414,8.46311,-0.227159,0.191195,0.181574,0
2024-11-29 18:13:06.252,1.04148,3.36371,8.54208,-0.240597,0.191195,0.165081,0
2024-11-29 18:13:06.255,1.05583,3.38525,8.63061,-0.250371,0.189363,0.145534,0
2024-11-29 18:13:06.257,1.0654,3.40917,8.71466,-0.260755,0.18753,0.128431,0
2024-11-29 18:13:06.259,1.09412,3.42353,8.80798,-0.267475,0.185698,0.111327,0
2024-11-29 18:13:06.262,1.10848,3.42353,8.91087,-0.274194,0.183865,0.0936123,0
2024-11-29 18:13:06.264,1.11326,3.42592,9.01376,-0.275416,0.1802,0.0777303,0
2024-11-29 18:13:06.267,1.12283,3.4331,9.11665,-0.276027,0.177757,0.0600157,0
2024-11-29 18:13:06.269,1.11565,3.42592,9.21237,-0.273583,0.174702,0.0453554,0
2024-11-29 18:13:06.272,1.11565,3.42353,9.3012,-0.268086,0.172259,0.0294734,0
2024-11-29 18:13:06.273,1.11565,3.40917,9.41127,-0.262588,0.166761,0.0117588,0
2024-11-29 18:13:06.276,1.1013,3.39482,9.52373,-0.252814,0.161875,-0.00351237,0
2024-11-29 18:13:06.279,1.07498,3.39721,9.61466,-0.230213,0.145992,-0.029168,0
2024-11-29 18:13:06.281,1.04148,3.39242,9.68405,-0.230213,0.145992,-0.029168,0
2024-11-29 18:13:06.283,0.996012,3.3996,9.75584,-0.214331,0.139273,-0.0407741,0
2024-11-29 18:13:06.286,0.952942,3.40917,9.83988,-0.17768,0.119726,-0.060932,0
2024-11-29 18:13:06.288,0.912264,3.42592,9.9021,-0.17768,0.119726,-0.060932,0
2024-11-29 18:13:06.290,0.864407,3.42592,9.96192,-0.15569,0.105677,-0.0682622,0
2024-11-29 18:13:06.293,0.809073,3.41157,10.0122,-0.109265,0.0818535,-0.0798683,0
2024-11-29 18:13:06.295,0.751645,3.42592,10.0409,-0.109265,0.0818535,-0.0798683,0
2024-11-29 18:13:06.297,0.694218,3.4355,10.0672,-0.0842206,0.0708583,-0.0835334,0
2024-11-29 18:13:06.300,0.624826,3.43789,10.084,-0.0603975,0.0610847,-0.0847551,0
2024-11-29 18:13:06.303,0.56022,3.44267,10.0887,-0.0341311,0.0494786,-0.0865876,0
2024-11-29 18:13:06.305,0.514756,3.45464,10.0863,0.0190126,0.0268773,-0.0847551,0
2024-11-29 18:13:06.306,0.459721,3.4666,10.0911,0.0190126,0.0268773,-0.0847551,0
2024-11-29 18:13:06.309,0.378365,3.47857,10.0768,0.0422248,0.015882,-0.0847551,0
2024-11-29 18:13:06.312,0.320937,3.47617,10.0361,0.0880384,0.0,-0.0755923,0
2024-11-29 18:13:06.313,0.294616,3.47139,9.99542,0.0880384,0.0,-0.0755923,0
2024-11-29 18:13:06.317,0.260818,3.48335,9.95713,0.129576,-0.0122169,-0.0676513,0
2024-11-29 18:13:06.319,0.227318,3.50249,9.91885,0.129576,-0.0122169,-0.0676513,0
2024-11-29 18:13:06.321,0.210568,3.51685,9.85664,0.147901,-0.0189363,-0.0615429,0
2024-11-29 18:13:06.324,0.193819,3.52164,9.77977,0.163783,-0.0232122,-0.0548235,0
2024-11-29 18:13:06.326,0.179462,3.54317,9.70798,0.188828,-0.023823,-0.0462717,0
2024-11-29 18:13:06.328,0.167498,3.5671,9.64337,0.188828,-0.023823,-0.0462717,0
2024-11-29 18:13:06.330,0.174676,3.59342,9.57159,0.188828,-0.023823,-0.0462717,0
2024-11-29 18:13:06.333,0.184247,3.61256,9.49741,0.205321,-0.0171037,-0.0340547,0
2024-11-29 18:13:06.336,0.198604,3.62453,9.4352,0.21143,-0.0128278,-0.0316113,0
2024-11-29 18:13:06.342,0.234497,3.70618,9.25065,0.212651,0.00305424,-0.0224486,0
2024-11-29 18:13:06.343,0.234497,3.70618,9.25065,0.212651,0.00305424,-0.0224486,0
2024-11-29 18:13:06.343,0.234497,3.70618,9.25065,0.212651,0.00305424,-0.0224486,0
2024-11-29 18:13:06.344,0.241675,3.74447,9.20519,0.208986,0.00977356,-0.0236703,0
2024-11-29 18:13:06.347,0.241675,3.78036,9.14058,0.195547,0.020158,-0.0230595,0
2024-11-29 18:13:06.350,0.246461,3.8019,9.08794,0.195547,0.020158,-0.0230595,0
2024-11-29 18:13:06.352,0.253639,3.82104,9.06641,0.191272,0.0250447,-0.024892,0
2024-11-29 18:13:06.353,0.267996,3.85932,9.06401,0.179055,0.0262664,-0.0261137,0
2024-11-29 18:13:06.356,0.270389,3.87129,9.06162,0.179055,0.0262664,-0.0261137,0
2024-11-29 18:13:06.358,0.282652,3.88086,9.04726,0.158897,0.0274881,-0.0316113,0
2024-11-29 18:13:06.361,0.304188,3.90957,9.04248,0.144847,0.0256556,-0.0352764,0
2024-11-29 18:13:06.363,0.311366,3.92154,9.0688,0.13263,0.0226013,-0.0407741,0
2024-11-29 18:13:06.366,0.325723,3.91914,9.1023,0.123468,0.0152712,-0.0462717,0
2024-11-29 18:13:06.368,0.35683,3.91197,9.15255,0.110029,0.00549763,-0.052991,0
2024-11-29 18:13:06.370,0.383151,3.91914,9.21955,0.0984228,-0.00610847,-0.0590995,0
2024-11-29 18:13:06.372,0.392722,3.92154,9.29163,0.0874275,-0.0219905,-0.0664296,0
2024-11-29 18:13:06.376,0.397508,3.91197,9.38974,0.0660479,-0.0555871,-0.0817008,0
2024-11-29 18:13:06.378,0.419043,3.90718,9.4687,0.0660479,-0.0555871,-0.0817008,0
2024-11-29 18:13:06.379,0.4334,3.92154,9.54527,0.0568851,-0.0733017,-0.0914744,0
2024-11-29 18:13:06.382,0.442971,3.92872,9.66491,0.0513875,-0.0904054,-0.0994154,0
2024-11-29 18:13:06.384,0.454935,3.93111,9.77977,0.0452791,-0.10812,-0.106746,0
2024-11-29 18:13:06.387,0.464507,3.93111,9.89492,0.0422248,-0.128278,-0.112854,0
2024-11-29 18:13:06.389,0.4669,3.93589,10.0409,0.0385597,-0.149047,-0.117741,0
2024-11-29 18:13:06.391,0.474078,3.94307,10.1749,0.0348946,-0.170426,-0.125682,0
2024-11-29 18:13:06.393,0.505185,3.94547,10.3304,0.0361163,-0.191806,-0.13179,0
2024-11-29 18:13:06.397,0.519542,3.94547,10.5006,0.0379489,-0.213797,-0.137288,0
2024-11-29 18:13:06.399,0.521934,3.94307,10.6537,0.0440574,-0.235787,-0.144007,0
2024-11-29 18:13:06.400,0.54347,3.94307,10.7997,0.0501658,-0.255334,-0.149505,0
2024-11-29 18:13:06.404,0.567398,3.92632,10.9531,0.0648262,-0.297483,-0.1605,0
2024-11-29 18:13:06.406,0.569791,3.90957,11.08,0.0745997,-0.318251,-0.163554,0
2024-11-29 18:13:06.408,0.567398,3.9,11.19,0.0745997,-0.318251,-0.163554,0
2024-11-29 18:13:06.410,0.567398,3.89522,11.3097,0.0868167,-0.338409,-0.16783,0
2024-11-29 18:13:06.413,0.56022,3.88804,11.415,0.0959794,-0.357956,-0.171495,0
2024-11-29 18:13:06.415,0.541077,3.8689,11.5086,0.110029,-0.373839,-0.173328,0
2024-11-29 18:13:06.417,0.524327,3.84975,11.5756,0.118581,-0.391553,-0.173328,0
2024-11-29 18:13:06.419,0.514756,3.84497,11.6474,0.129576,-0.406213,-0.173939,0
2024-11-29 18:13:06.422,0.490828,3.84975,11.7359,0.138128,-0.419652,-0.171495,0
2024-11-29 18:13:06.424,0.4669,3.84497,11.7814,0.149734,-0.429426,-0.169052,0
2024-11-29 18:13:06.427,0.4334,3.85454,11.8244,0.160729,-0.436145,-0.166609,0
2024-11-29 18:13:06.429,0.402293,3.87129,11.8866,0.168059,-0.440421,-0.163554,0
2024-11-29 18:13:06.431,0.383151,3.88325,11.9441,0.177833,-0.440421,-0.158668,0
2024-11-29 18:13:06.433,0.35683,3.9,11.98,0.186996,-0.436145,-0.151948,0
2024-11-29 18:13:06.437,0.337687,3.91675,11.9871,0.197991,-0.416598,-0.139731,0
2024-11-29 18:13:06.438,0.332901,3.94547,11.9943,0.197991,-0.416598,-0.139731,0
2024-11-29 18:13:06.442,0.328116,3.95982,11.9871,0.201656,-0.40377,-0.132401,0
2024-11-29 18:13:06.443,0.311366,3.97897,11.9584,0.208375,-0.384223,-0.125071,0
2024-11-29 18:13:06.445,0.301795,4.01486,11.9201,0.207764,-0.366508,-0.118963,0
2024-11-29 18:13:06.448,0.294616,4.04836,11.8771,0.207154,-0.341464,-0.112854,0
2024-11-29 18:13:06.450,0.275175,4.07707,11.8316,0.20471,-0.317641,-0.106135,0
2024-11-29 18:13:06.453,0.251246,4.11775,11.7957,0.196769,-0.293207,-0.100637,0
2024-11-29 18:13:06.456,0.239282,4.16561,11.7622,0.183331,-0.241896,-0.0896418,0
2024-11-29 18:13:06.458,0.248854,4.21137,11.712,0.183331,-0.241896,-0.0896418,0
2024-11-29 18:13:06.462,0.248854,4.31426,11.6163,0.161951,-0.192417,-0.0835334,0
2024-11-29 18:13:06.463,0.248854,4.31426,11.6163,0.161951,-0.192417,-0.0835334,0
2024-11-29 18:13:06.464,0.267996,4.32862,11.5971,0.147901,-0.17287,-0.0817008,0
2024-11-29 18:13:06.467,0.282652,4.3334,11.5684,0.136906,-0.150268,-0.0798683,0
2024-11-29 18:13:06.469,0.292223,4.3669,11.5397,0.121024,-0.127667,-0.0786466,0
2024-11-29 18:13:06.471,0.297009,4.39801,11.5182,0.108807,-0.108731,-0.0786466,0
2024-11-29 18:13:06.473,0.311366,4.41954,11.5011,0.0910926,-0.0922379,-0.0829225,0
2024-11-29 18:13:06.477,0.292223,4.45065,11.4867,0.0605502,-0.0592522,-0.0902527,0
2024-11-29 18:13:06.479,0.248854,4.5009,11.4748,0.0428357,-0.0421485,-0.0933069,0
2024-11-29 18:13:06.481,0.196211,4.55115,11.4676,0.0428357,-0.0421485,-0.0933069,0
2024-11-29 18:13:06.483,0.122034,4.60858,11.4652,0.0287862,-0.0250447,-0.0945286,0
2024-11-29 18:13:06.485,0.0502493,4.67079,11.458,0.0129041,-0.00916271,-0.0975828,0
2024-11-29 18:13:06.489,-0.0167498,4.72822,11.4461,-0.00114534,0.00244339,-0.0988045,0
2024-11-29 18:13:06.491,-0.0789631,4.78116,11.4461,-0.0182491,0.0122169,-0.0963612,0
2024-11-29 18:13:06.492,-0.150748,4.83619,11.4652,-0.0347419,0.0189363,-0.0988045,0
2024-11-29 18:13:06.496,-0.20339,4.87448,11.4796,-0.0536782,0.0195471,-0.0981937,0
2024-11-29 18:13:06.498,-0.193819,4.89841,11.5011,-0.0878856,-0.000610847,-0.0994154,0
2024-11-29 18:13:06.500,-0.157926,4.89123,11.554,-0.0878856,-0.000610847,-0.0994154,0
2024-11-29 18:13:06.502,-0.107677,4.86251,11.5971,-0.106211,-0.023823,-0.104302,0
2024-11-29 18:13:06.504,-0.0382852,4.81944,11.6521,-0.125147,-0.0580305,-0.111021,0
2024-11-29 18:13:06.507,0.0430708,4.76411,11.7383,-0.14164,-0.0983464,-0.119573,0
2024-11-29 18:13:06.509,0.165105,4.7019,11.8101,-0.161187,-0.147214,-0.132401,0
2024-11-29 18:13:06.512,0.301795,4.62054,11.901,-0.183178,-0.205856,-0.14584,0
2024-11-29 18:13:06.514,0.438186,4.53918,12.0278,-0.202114,-0.271216,-0.165998,0
2024-11-29 18:13:06.517,0.576969,4.44586,12.1693,-0.22044,-0.33902,-0.185545,0
2024-11-29 18:13:06.519,0.71336,4.34058,12.3464,-0.253425,-0.480737,-0.231969,0
2024-11-29 18:13:06.522,0.837787,4.24726,12.5545,-0.267475,-0.545487,-0.255181,0
2024-11-29 18:13:06.524,0.94337,4.15603,12.7582,-0.267475,-0.545487,-0.255181,0
2024-11-29 18:13:06.526,1.03669,4.05314,12.976,-0.277859,-0.607182,-0.277172,0
2024-11-29 18:13:06.528,1.1348,3.95264,13.2203,-0.2858,-0.664602,-0.296719,0
2024-11-29 18:13:06.530,1.24487,3.86411,13.4501,-0.291909,-0.711026,-0.315655,0
2024-11-29 18:13:06.533,1.35733,3.74686,13.675,-0.295574,-0.748899,-0.334592,0
2024-11-29 18:13:06.535,1.4677,3.6341,13.9122,-0.291909,-0.779441,-0.353528,0
2024-11-29 18:13:06.538,1.58016,3.53839,14.1443,-0.277859,-0.813649,-0.390179,0
2024-11-29 18:13:06.539,1.68544,3.43071,14.3647,-0.277859,-0.813649,-0.390179,0
2024-11-29 18:13:06.542,1.77637,3.31107,14.5896,-0.265031,-0.824644,-0.411558,0
2024-11-29 18:13:06.545,1.86251,3.19143,14.8122,-0.222883,-0.824644,-0.450042,0
2024-11-29 18:13:06.548,1.92951,3.08106,15.0111,-0.222883,-0.824644,-0.450042,0
2024-11-29 18:13:06.549,1.98006,2.96381,15.1427,-0.198449,-0.817924,-0.467756,0
2024-11-29 18:13:06.551,2.07099,2.82263,15.2312,-0.169739,-0.799599,-0.48486,0
2024-11-29 18:13:06.554,2.17627,2.65514,15.3221,-0.139808,-0.774554,-0.505018,0
2024-11-29 18:13:06.557,2.24566,2.47537,15.382,-0.0720036,-0.717746,-0.541058,1
2024-11-29 18:13:06.559,2.26481,2.29113,15.3844,-0.0720036,-0.717746,-0.541058,0
2024-11-29 18:13:06.562,2.25763,2.0997,15.3389,-0.00664296,-0.640168,-0.570379,0
2024-11-29 18:13:06.564,2.25045,1.91755,15.2671,0.0287862,-0.595576,-0.585039,0
2024-11-29 18:13:06.566,2.23609,1.73569,15.2001,0.0287862,-0.595576,-0.585039,0
2024-11-29 18:13:06.569,2.21216,1.55623,15.1092,0.0972011,-0.494786,-0.60764,0
2024-11-29 18:13:06.571,2.18584,1.38604,14.9967,0.0972011,-0.494786,-0.60764,0
2024-11-29 18:13:06.573,2.03031,1.26879,14.7595,0.133241,-0.437367,-0.614971,0
2024-11-29 18:13:06.576,1.93669,1.1348,14.5968,0.163173,-0.369563,-0.615581,0
2024-11-29 18:13:06.578,2.03749,0.94337,14.5992,0.196769,-0.301148,-0.615581,0
2024-11-29 18:13:06.579,2.04945,0.766002,14.5322,0.229755,-0.236398,-0.616803,0
2024-11-29 18:13:06.582,1.93908,0.624826,14.3791,0.266406,-0.16615,-0.615581,0
2024-11-29 18:13:06.585,1.75962,0.538684,14.1467,0.304889,-0.0812427,-0.60764,0
2024-11-29 18:13:06.589,1.43898,0.390329,13.6774,0.378802,0.117283,-0.581985,0
2024-11-29 18:13:06.589,1.43898,0.390329,13.6774,0.378802,0.117283,-0.581985,0
2024-11-29 18:13:06.592,1.28794,0.328116,13.4979,0.417896,0.220516,-0.56427,0
2024-11-29 18:13:06.595,1.11565,0.260818,13.3113,0.495473,0.426371,-0.519067,0
2024-11-29 18:13:06.596,0.938585,0.222533,13.0956,0.495473,0.426371,-0.519067,0
2024-11-29 18:13:06.598,0.76361,0.18664,12.8252,0.535179,0.524107,-0.49219,0
2024-11-29 18:13:06.602,0.579362,0.138784,12.5282,0.57244,0.618177,-0.464702,0
2024-11-29 18:13:06.604,0.409472,0.102891,12.2387,0.643299,0.783106,-0.399341,0
2024-11-29 18:13:06.605,0.248854,0.0885344,11.9393,0.643299,0.783106,-0.399341,0
2024-11-29 18:13:06.608,0.0861416,0.0789631,11.6282,0.674452,0.855797,-0.366356,0
2024-11-29 18:13:06.611,-0.0622134,0.066999,11.3192,0.704383,0.920547,-0.329705,0
2024-11-29 18:13:06.613,-0.172283,0.0646062,11.0249,0.734315,0.978577,-0.292443,0
2024-11-29 18:13:06.616,-0.251246,0.0622134,10.7088,0.782572,1.06959,-0.21792,0
2024-11-29 18:13:06.617,-0.328116,0.0646062,10.3881,0.782572,1.06959,-0.21792,0
2024-11-29 18:13:06.621,-0.385544,0.0574277,10.0696,0.803951,1.10441,-0.180047,0
2024-11-29 18:13:06.623,-0.435793,0.0430708,9.76541,0.820444,1.12885,-0.143396,0
2024-11-29 18:13:06.625,-0.4669,0.0239282,9.47827,0.847322,1.14717,-0.0737598,0
2024-11-29 18:13:06.628,-0.459721,-0.0143569,9.19801,0.854652,1.1429,-0.0419957,0
2024-11-29 18:13:06.630,-0.428614,-0.0382852,8.92044,0.854652,1.1429,-0.0419957,0
2024-11-29 18:13:06.631,-0.397508,-0.0382852,8.65454,0.859538,1.13251,-0.0108425,0
2024-11-29 18:13:06.634,-0.380758,-0.0550349,8.40808,0.860149,1.11296,0.0172564,0
2024-11-29 18:13:06.636,-0.352044,-0.0646062,8.18315,0.858317,1.08731,0.0435229,0
2024-11-29 18:13:06.638,-0.301795,-0.0502493,7.97707,0.855263,1.05677,0.0679568,0
2024-11-29 18:13:06.642,-0.253639,-0.026321,7.78565,0.849765,1.0195,0.0923906,0
2024-11-29 18:13:06.644,-0.20339,0.0143569,7.62054,0.838159,0.979188,0.115603,0
2024-11-29 18:13:06.646,-0.122034,0.0550349,7.47189,0.826553,0.933985,0.13515,0
2024-11-29 18:13:06.648,-0.026321,0.0933201,7.33071,0.813114,0.886339,0.152254,0
2024-11-29 18:13:06.650,0.081356,0.138784,7.23261,0.797843,0.836861,0.168136,0
2024-11-29 18:13:06.653,0.20339,0.189033,7.15843,0.782572,0.783717,0.182185,0
2024-11-29 18:13:06.655,0.337687,0.246461,7.09621,0.765468,0.731795,0.19257,0
2024-11-29 18:13:06.657,0.474078,0.318545,7.06032,0.747143,0.680484,0.202343,0
2024-11-29 18:13:06.660,0.600898,0.390329,7.01725,0.730039,0.630394,0.207841,0
2024-11-29 18:13:06.662,0.720539,0.459721,6.98345,0.713546,0.583359,0.209673,0
2024-11-29 18:13:06.664,0.85005,0.541077,6.96431,0.698886,0.538767,0.210895,0
2024-11-29 18:13:06.667,0.964906,0.612862,6.95474,0.683004,0.495397,0.207841,0
2024-11-29 18:13:06.669,1.06301,0.658325,6.95235,0.670176,0.455081,0.202343,0
2024-11-29 18:13:06.672,1.18026,0.718146,6.94517,0.654905,0.41782,0.194402,0
2024-11-29 18:13:06.675,1.2999,0.770788,6.94277,0.642077,0.379336,0.184018,0
2024-11-29 18:13:06.677,1.41266,0.82343,6.94756,0.61581,0.305424,0.155308,0
2024-11-29 18:13:06.679,1.52273,0.873978,6.95713,0.61581,0.305424,0.155308,0
2024-11-29 18:13:06.682,1.62084,0.907478,6.94756,0.603593,0.265719,0.135761,0
2024-11-29 18:13:06.683,1.85533,0.88355,7.09621,0.590155,0.227235,0.114992,0
2024-11-29 18:13:06.685,2.19541,0.754038,7.3355,0.590766,0.171648,0.0795629,0
2024-11-29 18:13:06.689,2.10688,0.792323,7.16561,0.568775,0.106287,0.0142022,0
2024-11-29 18:13:06.691,1.84098,0.979263,6.81117,0.568775,0.106287,0.0142022,0
2024-11-29 18:13:06.694,1.86012,1.08215,6.72264,0.532735,0.0751342,-0.0389415,0
2024-11-29 18:13:06.696,1.91276,1.13958,6.73699,0.532735,0.0751342,-0.0389415,0
2024-11-29 18:13:06.698,1.91516,1.20419,6.73221,0.513799,0.0482569,-0.0652079,0
2024-11-29 18:13:06.700,1.93669,1.25922,6.74178,0.489976,0.0146603,-0.0926961,0
2024-11-29 18:13:06.703,1.92233,1.30469,6.68914,0.460044,-0.0268773,-0.118352,0
2024-11-29 18:13:06.705,1.84098,1.35972,6.55514,0.427669,-0.0659715,-0.144618,0
2024-11-29 18:13:06.708,1.81705,1.39083,6.48575,0.394684,-0.102622,-0.170274,0
2024-11-29 18:13:06.710,1.84098,1.4004,6.48814,0.317717,-0.17287,-0.223417,0
2024-11-29 18:13:06.712,1.87208,1.39801,6.52882,0.317717,-0.17287,-0.223417,0
2024-11-29 18:13:06.715,1.92233,1.38126,6.59821,0.245637,-0.238841,-0.285113,0
2024-11-29 18:13:06.716,1.94865,1.37647,6.68914,0.245637,-0.238841,-0.285113,0
2024-11-29 18:13:06.718,1.96062,1.37647,6.78246,0.210819,-0.26694,-0.316266,0
2024-11-29 18:13:06.723,1.95583,1.33101,6.98106,0.147291,-0.305424,-0.38407,0
2024-11-29 18:13:06.724,1.95583,1.33101,6.98106,0.147291,-0.305424,-0.38407,0
2024-11-29 18:13:06.727,1.91516,1.33819,7.10818,0.0923143,-0.331079,-0.450653,0
2024-11-29 18:13:06.728,1.84576,1.33819,7.22782,0.0923143,-0.331079,-0.450653,0
2024-11-29 18:13:06.730,1.78116,1.30947,7.32593,0.0666587,-0.33902,-0.479973,0
2024-11-29 18:13:06.734,1.69741,1.29272,7.41685,0.0446682,-0.342685,-0.508683,0
2024-11-29 18:13:06.736,1.5993,1.28076,7.51735,-0.000534491,-0.341464,-0.552053,0
2024-11-29 18:13:06.737,1.50838,1.25444,7.60618,-0.000534491,-0.341464,-0.552053,0
2024-11-29 18:13:06.741,1.41266,1.2329,7.68754,-0.0194708,-0.335355,-0.569768,0
2024-11-29 18:13:06.743,1.2999,1.20419,7.77608,-0.0390179,-0.328636,-0.585039,0
2024-11-29 18:13:06.745,1.19462,1.18505,7.84068,-0.0567324,-0.316419,-0.597256,0
2024-11-29 18:13:06.748,1.09412,1.18265,7.89811,-0.0872748,-0.284655,-0.609473,0
2024-11-29 18:13:06.749,0.984048,1.17069,7.96272,-0.0872748,-0.284655,-0.609473,0
2024-11-29 18:13:06.751,0.8668,1.17308,8.03689,-0.101324,-0.265719,-0.614971,0
2024-11-29 18:13:06.755,0.761217,1.16351,8.12303,-0.122704,-0.219905,-0.609473,0
2024-11-29 18:13:06.757,0.663111,1.14676,8.22144,-0.128202,-0.193028,-0.602754,0
2024-11-29 18:13:06.760,0.576969,1.15394,8.31715,-0.128202,-0.193028,-0.602754,0
2024-11-29 18:13:06.762,0.500399,1.17308,8.37219,-0.130645,-0.164929,-0.591147,0
2024-11-29 18:13:06.763,0.41665,1.18983,8.40808,-0.132477,-0.134386,-0.580763,0
2024-11-29 18:13:06.766,0.352044,1.2018,8.44397,-0.132477,-0.101401,-0.566103,0
2024-11-29 18:13:06.769,0.294616,1.2018,8.46551,-0.129423,-0.0647498,-0.551442,0
2024-11-29 18:13:06.771,0.229711,1.2018,8.4679,-0.119039,0.0134386,-0.512348,0
2024-11-29 18:13:06.774,0.177069,1.2329,8.44158,-0.119039,0.0134386,-0.512348,0
2024-11-29 18:13:06.776,0.12682,1.24726,8.39851,-0.110487,0.0910162,-0.468367,0
2024-11-29 18:13:06.778,0.0741775,1.24487,8.34108,-0.110487,0.0910162,-0.468367,0
2024-11-29 18:13:06.781,0.0358923,1.26401,8.2693,-0.108044,0.13011,-0.443322,0
2024-11-29 18:13:06.782,0.0143569,1.27837,8.18076,-0.101935,0.167983,-0.418889,0
2024-11-29 18:13:06.784,-0.00717847,1.2999,8.07757,-0.100713,0.200358,-0.395065,0
2024-11-29 18:13:06.788,-0.0239282,1.33819,7.96989,-0.100103,0.229068,-0.36941,0
2024-11-29 18:13:06.789,-0.0430708,1.37647,7.86461,-0.101935,0.257167,-0.343143,0
2024-11-29 18:13:06.791,-0.0598206,1.44377,7.76172,-0.104989,0.284044,-0.31871,0
2024-11-29 18:13:06.794,-0.0574277,1.52273,7.65404,-0.107433,0.307867,-0.295497,0
2024-11-29 18:13:06.797,-0.0622134,1.59452,7.55564,-0.11232,0.329858,-0.271674,0
2024-11-29 18:13:06.799,-0.0502493,1.67109,7.46232,-0.121482,0.348794,-0.249684,0
2024-11-29 18:13:06.801,-0.0287139,1.74766,7.38096,-0.125147,0.366508,-0.231358,0
2024-11-29 18:13:06.804,0.0,1.81705,7.31875,-0.132477,0.376893,-0.215476,0
2024-11-29 18:13:06.807,0.0311067,1.88166,7.24696,-0.139808,0.387277,-0.199594,0
2024-11-29 18:13:06.808,0.066999,1.95344,7.168,-0.147749,0.391553,-0.186156,0
2024-11-29 18:13:06.810,0.11007,2.0016,7.11057,-0.15569,0.393386,-0.177604,0
2024-11-29 18:13:06.814,0.157926,2.05185,7.06032,-0.172793,0.386666,-0.165998,0
2024-11-29 18:13:06.816,0.196211,2.11406,6.99302,-0.181956,0.376893,-0.162944,0
2024-11-29 18:13:06.818,0.224925,2.16909,6.91645,-0.181956,0.376893,-0.162944,0
2024-11-29 18:13:06.821,0.256032,2.22174,6.84945,-0.192951,0.365898,-0.162944,0
2024-11-29 18:13:06.822,0.27996,2.27677,6.82074,-0.203947,0.356735,-0.164165,0
2024-11-29 18:13:06.825,0.308973,2.31745,6.78006,-0.215553,0.342685,-0.167219,0
2024-11-29 18:13:06.828,0.330509,2.36052,6.74178,-0.227159,0.329247,-0.170274,0
2024-11-29 18:13:06.829,0.352044,2.42273,6.7346,-0.237543,0.313975,-0.173328,0
2024-11-29 18:13:06.832,0.371187,2.48495,6.72981,-0.250982,0.291985,-0.179436,0
2024-11-29 18:13:06.834,0.385544,2.54507,6.72981,-0.264421,0.269384,-0.188599,0
2024-11-29 18:13:06.836,0.395115,2.58814,6.76331,-0.275416,0.244339,-0.197151,0
2024-11-29 18:13:06.839,0.387936,2.62403,6.81596,-0.287022,0.218683,-0.208146,0
2024-11-29 18:13:06.841,0.378365,2.65035,6.85663,-0.297406,0.186919,-0.21792,0
2024-11-29 18:13:06.844,0.35683,2.68146,6.91167,-0.305958,0.15882,-0.229526,0
2024-11-29 18:13:06.846,0.313759,2.72213,6.98345,-0.315121,0.13011,-0.236856,0
2024-11-29 18:13:06.849,0.265603,2.75803,7.07707,-0.323062,0.0769668,-0.257625,0
2024-11-29 18:13:06.850,0.22014,2.78674,7.17518,-0.323062,0.0769668,-0.257625,0
2024-11-29 18:13:06.853,0.181855,2.81306,7.27568,-0.323062,0.0507003,-0.263122,0
2024-11-29 18:13:06.856,0.148355,2.85135,7.39771,-0.319397,-0.00122169,-0.277783,0
2024-11-29 18:13:06.857,0.0957129,2.88963,7.50778,-0.319397,-0.00122169,-0.277783,0
2024-11-29 18:13:06.860,0.0526421,2.89203,7.59661,-0.312067,-0.0250447,-0.281448,0
2024-11-29 18:13:06.863,0.0191426,2.87767,7.67079,-0.297406,-0.0702474,-0.290611,0
2024-11-29 18:13:06.866,-0.0239282,2.87528,7.72822,-0.287022,-0.0867403,-0.29,0
2024-11-29 18:13:06.867,-0.0789631,2.88006,7.81915,-0.287022,-0.0867403,-0.29,0
2024-11-29 18:13:06.870,-0.136391,2.89442,7.89572,-0.276027,-0.100179,-0.288167,0
2024-11-29 18:13:06.873,-0.179462,2.88006,7.94357,-0.264421,-0.112396,-0.285113,0
2024-11-29 18:13:06.874,-0.217747,2.87049,7.99143,-0.252814,-0.12278,-0.280837,0
2024-11-29 18:13:06.877,-0.258425,2.87528,8.03689,-0.230213,-0.137441,-0.263733,0
2024-11-29 18:13:06.879,-0.289831,2.84417,8.07518,-0.230213,-0.137441,-0.263733,0
2024-11-29 18:13:06.882,-0.313759,2.8346,8.08953,-0.216164,-0.141717,-0.251516,0
2024-11-29 18:13:06.883,-0.337687,2.83699,8.13021,-0.202114,-0.143549,-0.238689,0
2024-11-29 18:13:06.887,-0.364008,2.82503,8.16162,-0.191119,-0.144771,-0.224028,0
2024-11-29 18:13:06.888,-0.385544,2.82263,8.16162,-0.178902,-0.143549,-0.208146,0
2024-11-29 18:13:06.891,-0.387936,2.82024,8.19033,-0.169128,-0.141106,-0.192875,0
2024-11-29 18:13:06.893,-0.390329,2.84656,8.2023,-0.159355,-0.13683,-0.177604,0
2024-11-29 18:13:06.896,-0.392722,2.8681,8.20469,-0.139197,-0.124613,-0.144007,0
2024-11-29 18:13:06.898,-0.397508,2.87528,8.20708,-0.139197,-0.124613,-0.144007,0
2024-11-29 18:13:06.901,-0.402293,2.8992,8.20708,-0.124536,-0.107509,-0.113465,0
2024-11-29 18:13:06.903,-0.395115,2.93749,8.21905,-0.116595,-0.0965139,-0.0963612,0
2024-11-29 18:13:06.906,-0.385544,2.97338,8.21426,-0.116595,-0.0965139,-0.0963612,0
2024-11-29 18:13:06.907,-0.378365,3.0021,8.22622,-0.109876,-0.0855186,-0.08109,0
2024-11-29 18:13:06.910,-0.361615,3.04756,8.24537,-0.104379,-0.0757451,-0.068873,0
2024-11-29 18:13:06.912,-0.337687,3.09571,8.25972,-0.0964375,-0.0629173,-0.052991,0
2024-11-29 18:13:06.914,-0.320937,3.12921,8.2693,-0.0939941,-0.0507003,-0.0401632,0
2024-11-29 18:13:06.916,-0.311366,3.17468,8.27408,-0.086664,-0.0378725,-0.0273354,0
2024-11-29 18:13:06.919,-0.304188,3.2345,8.27169,-0.0817772,-0.0256556,-0.0157293,0
2024-11-29 18:13:06.922,-0.304188,3.2991,8.27647,-0.074447,-0.00366508,0.00320695,0
2024-11-29 18:13:06.924,-0.304188,3.34696,8.30758,-0.074447,-0.00366508,0.00320695,0
2024-11-29 18:13:06.926,-0.27996,3.402,8.33151,-0.0707819,0.00671932,0.014813,0
2024-11-29 18:13:06.929,-0.253639,3.46421,8.34826,-0.0658951,0.0177146,0.0209215,0
2024-11-29 18:13:06.931,-0.224925,3.51207,8.3674,-0.0658951,0.0177146,0.0209215,0
2024-11-29 18:13:06.933,-0.193819,3.5671,8.40329,-0.0573433,0.0305424,0.0361927,0
2024-11-29 18:13:06.936,-0.165105,3.62453,8.4344,-0.0542891,0.0329858,0.0416903,0
2024-11-29 18:13:06.938,-0.148355,3.67029,8.44158,-0.0494023,0.0354291,0.0465771,0
2024-11-29 18:13:06.941,-0.124427,3.71336,8.45833,-0.0451263,0.0348183,0.0514639,0
2024-11-29 18:13:06.943,-0.081356,3.75643,8.47269,-0.0341311,0.0335966,0.0526856,0
2024-11-29 18:13:06.946,-0.0646062,3.8019,8.47029,-0.0316877,0.0299315,0.0520747,0
2024-11-29 18:13:06.947,-0.066999,3.85693,8.47269,-0.0316877,0.0299315,0.0520747,0
2024-11-29 18:13:06.949,-0.0646062,3.9,8.48226,-0.0298552,0.0262664,0.0545181,0
2024-11-29 18:13:06.952,-0.0741775,3.94307,8.47269,-0.0261901,0.0244339,0.0526856,0
2024-11-29 18:13:06.955,-0.0789631,3.97897,8.47029,-0.0280226,0.020158,0.0526856,0
2024-11-29 18:13:06.956,-0.081356,4.01964,8.47986,-0.0286335,0.0146603,0.050853,0
2024-11-29 18:13:06.960,-0.0765703,4.05314,8.50379,-0.0322986,-0.00244339,0.0453554,0
2024-11-29 18:13:06.961,-0.0693919,4.08425,8.54208,-0.0322986,-0.00244339,0.0453554,0
2024-11-29 18:13:06.963,-0.0765703,4.12732,8.58276,-0.0347419,-0.0140495,0.0398578,0
2024-11-29 18:13:06.966,-0.0789631,4.16561,8.64736,-0.0359636,-0.0262664,0.0355819,0
2024-11-29 18:13:06.969,-0.0693919,4.1991,8.72184,-0.0371853,-0.0403159,0.0313059,0
2024-11-29 18:13:06.972,-0.0502493,4.21137,8.79362,-0.038407,-0.0561979,0.02703,0
2024-11-29 18:13:06.974,-0.0502493,4.22333,8.86302,-0.0414613,-0.0726908,0.0172564,0
2024-11-29 18:13:06.975,-0.0550349,4.25205,8.93959,-0.0396287,-0.0873512,0.011148,0
2024-11-29 18:13:06.979,-0.0478565,4.26162,9.02333,-0.0390179,-0.102011,0.00442864,0
2024-11-29 18:13:06.981,-0.0598206,4.28076,9.10469,-0.0377962,-0.131943,-0.00839915,0
2024-11-29 18:13:06.982,-0.0502493,4.31187,9.19562,-0.0377962,-0.131943,-0.00839915,0
2024-11-29 18:13:06.986,-0.0334995,4.31665,9.27966,-0.0371853,-0.146603,-0.0138968,0
2024-11-29 18:13:06.987,-0.0311067,4.32862,9.37538,-0.0341311,-0.161264,-0.0206161,0
2024-11-29 18:13:06.989,-0.0287139,4.35015,9.48066,-0.0316877,-0.176535,-0.0255029,0
2024-11-29 18:13:06.993,-0.0191426,4.35733,9.57638,-0.0274118,-0.200969,-0.032833,0
2024-11-29 18:13:06.994,-0.0143569,4.34776,9.68645,-0.0274118,-0.200969,-0.032833,0
2024-11-29 18:13:06.996,-0.0215354,4.34537,9.82074,-0.0243575,-0.210742,-0.037109,0
2024-11-29 18:13:06.999,-0.0167498,4.34058,9.92363,-0.0194708,-0.220516,-0.0432174,0
2024-11-29 18:13:07.001,-0.0287139,4.32144,10.0122,-0.014584,-0.228457,-0.0426066,0
2024-11-29 18:13:07.004,-0.040678,4.32144,10.1342,-0.010308,-0.233955,-0.04505,0
2024-11-29 18:13:07.006,-0.0454636,4.33101,10.2802,-0.00236703,-0.23823,-0.0456608,0
2024-11-29 18:13:07.009,-0.0454636,4.33579,10.4288,0.0141258,-0.243117,-0.0468825,0
2024-11-29 18:13:07.011,-0.040678,4.35015,10.5844,0.0141258,-0.243117,-0.0468825,0
2024-11-29 18:13:07.013,-0.0526421,4.37169,10.7255,0.0232886,-0.240674,-0.04505,0
2024-11-29 18:13:07.015,-0.0646062,4.36451,10.8547,0.037338,-0.233955,-0.0419957,0
2024-11-29 18:13:07.018,-0.0598206,4.35733,10.9747,0.0507767,-0.226013,-0.0401632,0
2024-11-29 18:13:07.021,-0.0526421,4.36451,11.1015,0.0697129,-0.212575,-0.0358873,0
2024-11-29 18:13:07.022,-0.0334995,4.35494,11.2116,0.0849841,-0.195471,-0.0310005,0
2024-11-29 18:13:07.026,-0.0167498,4.35972,11.2929,0.10331,-0.177757,-0.0261137,0
2024-11-29 18:13:07.028,-0.00717847,4.36451,11.3719,0.122857,-0.152712,-0.0224486,0
2024-11-29 18:13:07.029,0.0143569,4.35733,11.4269,0.141793,-0.12278,-0.0193944,0
2024-11-29 18:13:07.032,0.0382852,4.35972,11.4652,0.16134,-0.0940705,-0.0132859,0
2024-11-29 18:13:07.034,0.0526421,4.36212,11.4772,0.179665,-0.0610847,-0.00962084,0
2024-11-29 18:13:07.036,0.0574277,4.35015,11.4724,0.198602,-0.0262664,-0.00534491,0
2024-11-29 18:13:07.040,0.0574277,4.32622,11.458,0.213262,0.00733017,0.000152712,0
2024-11-29 18:13:07.041,0.0861416,4.31665,11.458,0.225479,0.0378725,0.0025961,0
2024-11-29 18:13:07.044,0.114855,4.31187,11.4532,0.237696,0.0726908,0.00565034,0
2024-11-29 18:13:07.047,0.122034,4.29512,11.4006,0.251135,0.107509,0.00931542,0
2024-11-29 18:13:07.049,0.143569,4.28555,11.348,0.260297,0.136219,0.0135914,0
2024-11-29 18:13:07.051,0.153141,4.27119,11.2977,0.265184,0.167372,0.0172564,0
2024-11-29 18:13:07.053,0.157926,4.24487,11.2331,0.270071,0.197915,0.0196998,0
2024-11-29 18:13:07.056,0.179462,4.2329,11.1733,0.270682,0.224181,0.0215324,0
2024-11-29 18:13:07.058,0.191426,4.2329,11.1302,0.273125,0.251669,0.0233649,0
2024-11-29 18:13:07.060,0.18664,4.22572,11.0776,0.271903,0.275492,0.0258083,0
2024-11-29 18:13:07.062,0.191426,4.22094,11.0441,0.267627,0.296872,0.02703,0
2024-11-29 18:13:07.066,0.20339,4.22572,11.0369,0.264573,0.314586,0.0288625,0
2024-11-29 18:13:07.068,0.198604,4.2353,11.0178,0.260908,0.330468,0.0294734,0
2024-11-29 18:13:07.072,0.165105,4.24487,10.9962,0.256021,0.352459,0.0294734,0
2024-11-29 18:13:07.073,0.165105,4.24487,10.9962,0.256021,0.352459,0.0294734,0
2024-11-29 18:13:07.074,0.153141,4.24487,11.0178,0.250524,0.361622,0.0288625,0
2024-11-29 18:13:07.078,0.148355,4.24726,11.0489,0.246859,0.366508,0.0258083,0
2024-11-29 18:13:07.080,0.141177,4.24965,11.0776,0.241972,0.371395,0.0258083,0
2024-11-29 18:13:07.082,0.12682,4.24008,11.1039,0.243194,0.372006,0.0258083,0
2024-11-29 18:13:07.086,0.102891,4.24247,11.1757,0.241972,0.370784,0.0239758,0
2024-11-29 18:13:07.087,0.102891,4.24247,11.1757,0.241972,0.370784,0.0239758,0
2024-11-29 18:13:07.088,0.0885344,4.24726,11.2116,0.244415,0.372006,0.0227541,0
2024-11-29 18:13:07.092,0.0837488,4.23769,11.2594,0.250524,0.371395,0.0196998,0
2024-11-29 18:13:07.093,0.0622134,4.22094,11.2834,0.250524,0.371395,0.0196998,0
2024-11-29 18:13:07.096,0.0311067,4.20897,11.3025,0.251135,0.368341,0.0215324,0
2024-11-29 18:13:07.098,0.0143569,4.20628,11.3336,0.256021,0.368952,0.0209215,0
2024-11-29 18:13:07.101,0.00717847,4.19193,11.3504,0.263352,0.367119,0.0215324,0
2024-11-29 18:13:07.103,-0.00957129,4.17278,11.3575,0.267017,0.362232,0.0227541,0
2024-11-29 18:13:07.105,-0.0287139,4.168,11.3599,0.26946,0.357346,0.0251975,0
2024-11-29 18:13:07.108,-0.0622134,4.168,11.3527,0.273125,0.351848,0.0276408,0
2024-11-29 18:13:07.110,-0.112463,4.15603,11.3527,0.273125,0.351848,0.0276408,0
2024-11-29 18:13:07.113,-0.136391,4.15125,11.3623,0.279234,0.343296,0.034971,0
2024-11-29 18:13:07.114,-0.153141,4.15603,11.348,0.283509,0.338409,0.0386361,0
2024-11-29 18:13:07.118,-0.189033,4.16561,11.348,0.285342,0.335966,0.0453554,0
2024-11-29 18:13:07.119,-0.229711,4.16561,11.3599,0.289618,0.337188,0.0514639,0
2024-11-29 18:13:07.121,-0.260818,4.16561,11.336,0.292672,0.340853,0.0606266,0
2024-11-29 18:13:07.125,-0.304188,4.17996,11.3001,0.29817,0.362843,0.0801737,0
2024-11-29 18:13:07.127,-0.366401,4.2015,11.2475,0.29817,0.362843,0.0801737,0
2024-11-29 18:13:07.129,-0.440578,4.24247,11.1852,0.300613,0.38239,0.0923906,0
2024-11-29 18:13:07.131,-0.524327,4.28076,11.0871,0.299392,0.406824,0.103386,0
2024-11-29 18:13:07.134,-0.612862,4.31665,10.9555,0.295726,0.469131,0.134539,0
2024-11-29 18:13:07.135,-0.71336,4.36929,10.8236,0.295726,0.469131,0.134539,0
2024-11-29 18:13:07.139,-0.821037,4.41236,10.6801,0.288396,0.500895,0.152865,0
2024-11-29 18:13:07.141,-0.929013,4.45783,10.515,0.257243,0.556482,0.191959,0
2024-11-29 18:13:07.142,-1.05105,4.49851,10.34,0.257243,0.556482,0.191959,0
2024-11-29 18:13:07.145,-1.14676,4.54876,10.1988,0.234642,0.57664,0.212117,0
2024-11-29 18:13:07.148,-1.19222,4.59422,10.06,0.207764,0.590078,0.230442,0
2024-11-29 18:13:07.150,-1.23051,4.60618,9.90688,0.179055,0.596798,0.247546,0
2024-11-29 18:13:07.152,-1.22812,4.59183,9.78934,0.143625,0.591911,0.259763,0
2024-11-29 18:13:07.154,-1.17547,4.56551,9.73191,0.100255,0.576029,0.270147,0
2024-11-29 18:13:07.158,-1.14676,4.57747,9.7008,0.0116825,0.49723,0.268926,0
2024-11-29 18:13:07.160,-1.11087,4.58465,9.68405,0.0116825,0.49723,0.268926,0
2024-11-29 18:13:07.162,-1.02473,4.55593,9.74148,-0.0353528,0.433702,0.264039,0
2024-11-29 18:13:07.164,-0.897907,4.52243,9.84228,-0.0860531,0.351237,0.2506,0
2024-11-29 18:13:07.166,-0.780359,4.48654,9.94756,-0.139197,0.252891,0.232886,0
2024-11-29 18:13:07.169,-0.663111,4.43629,10.0768,-0.193562,0.139273,0.207841,0
2024-11-29 18:13:07.171,-0.538684,4.38365,10.2371,-0.246095,0.0134386,0.179742,0
2024-11-29 18:13:07.173,-0.414257,4.31187,10.4575,-0.29985,-0.119726,0.146756,0
2024-11-29 18:13:07.176,-0.282652,4.23051,10.7471,-0.355437,-0.263886,0.110105,0
2024-11-29 18:13:07.178,-0.141177,4.14886,11.1159,-0.404915,-0.405603,0.0691785,0
2024-11-29 18:13:07.180,0.00239282,4.05075,11.5612,-0.453783,-0.550373,0.02703,0
2024-11-29 18:13:07.183,0.114855,3.95264,12.0589,-0.491045,-0.690257,-0.0163402,0
2024-11-29 18:13:07.185,0.215354,3.85454,12.6024,-0.524641,-0.820368,-0.0560452,0
2024-11-29 18:13:07.187,0.352044,3.7349,13.1626,-0.546632,-0.936429,-0.0951395,0
2024-11-29 18:13:07.191,0.498006,3.61496,13.7037,-0.557627,-1.03905,-0.133012,0
2024-11-29 18:13:07.193,0.596112,3.53599,14.2352,-0.547243,-1.20276,-0.207535,0
2024-11-29 18:13:07.195,0.60329,3.49771,14.8002,-0.527085,-1.26873,-0.23991,0
2024-11-29 18:13:07.197,0.593719,3.44028,15.4083,-0.527085,-1.26873,-0.23991,0
2024-11-29 18:13:07.200,0.655932,3.32782,16.0119,-0.492877,-1.32126,-0.268009,0
2024-11-29 18:13:07.201,0.737288,3.18664,16.5311,-0.447064,-1.3586,-0.293054,0
2024-11-29 18:13:07.204,0.794716,3.03559,16.9406,-0.390866,-1.38181,-0.317488,0
2024-11-29 18:13:07.206,0.655932,2.96142,17.1129,-0.324894,-1.38548,-0.332759,0
2024-11-29 18:13:07.209,0.591326,2.82981,17.2855,-0.262588,-1.37021,-0.338257,0
2024-11-29 18:13:07.211,0.782752,2.55942,17.6276,-0.188065,-1.34761,-0.343754,0
2024-11-29 18:13:07.214,0.924228,2.29831,17.872,-0.0255792,-1.29255,-0.349863,1
2024-11-29 18:13:07.215,0.979263,2.0662,17.9486,-0.0255792,-1.29255,-0.349863,0
2024-11-29 18:13:07.219,1.0008,1.82901,17.8816,0.0593285,-1.24796,-0.346198,0
2024-11-29 18:13:07.220,0.996012,1.59212,17.7404,0.145458,-1.1881,-0.3407,0
2024-11-29 18:13:07.223,0.979263,1.37169,17.5702,0.229755,-1.11724,-0.326651,0
2024-11-29 18:13:07.226,0.952942,1.15394,17.3572,0.31283,-1.04027,-0.307714,0
2024-11-29 18:13:07.227,0.914656,0.948156,17.0961,0.393462,-0.95903,-0.28328,0
2024-11-29 18:13:07.231,0.876371,0.775574,16.7922,0.465542,-0.873512,-0.252738,0
2024-11-29 18:13:07.233,0.804287,0.624826,16.4474,0.533957,-0.783717,-0.215476,0
2024-11-29 18:13:07.235,0.718146,0.500399,16.043,0.59382,-0.690868,-0.173939,0
2024-11-29 18:13:07.237,0.60329,0.476471,15.6072,0.65185,-0.588857,-0.129347,0
2024-11-29 18:13:07.239,0.459721,0.521934,15.1044,0.696442,-0.481348,-0.0749815,0
2024-11-29 18:13:07.244,0.373579,0.541077,14.5872,0.75997,-0.260832,0.0453554,0
2024-11-29 18:13:07.245,0.349651,0.553041,14.1156,0.75997,-0.260832,0.0453554,0
2024-11-29 18:13:07.247,0.330509,0.596112,13.6606,0.786848,-0.0378725,0.167525,0
2024-11-29 18:13:07.249,0.313759,0.651147,13.2012,0.786848,-0.0378725,0.167525,0
2024-11-29 18:13:07.252,0.34008,0.715753,12.7654,0.787458,0.177146,0.275645,0
2024-11-29 18:13:07.254,0.387936,0.794716,12.3799,0.778907,0.283433,0.321458,0
2024-11-29 18:13:07.256,0.411865,0.902692,11.9967,0.778907,0.283433,0.321458,0
2024-11-29 18:13:07.258,0.435793,1.01994,11.6641,0.768522,0.384223,0.361774,0
2024-11-29 18:13:07.261,0.486042,1.12522,11.415,0.753251,0.588246,0.418583,0
2024-11-29 18:13:07.263,0.54347,1.22812,11.1757,0.753251,0.588246,0.418583,0
2024-11-29 18:13:07.265,0.574577,1.33819,10.8954,0.74531,0.67743,0.435076,0
2024-11-29 18:13:07.268,0.56022,1.47727,10.5604,0.718433,0.824644,0.460121,0
2024-11-29 18:13:07.271,0.517149,1.61845,10.2132,0.697053,0.87962,0.461953,0
2024-11-29 18:13:07.273,0.474078,1.74287,9.76541,0.662846,0.921158,0.465007,0
2024-11-29 18:13:07.275,0.421436,1.87448,9.26052,0.662846,0.921158,0.465007,0
2024-11-29 18:13:07.277,0.361615,2.00399,8.82234,0.618865,0.955976,0.461342,0
2024-11-29 18:13:07.280,0.337687,2.10449,8.42722,0.569997,0.990794,0.455845,0
2024-11-29 18:13:07.282,0.371187,2.16909,8.11825,0.519907,1.02073,0.447293,0
2024-11-29 18:13:07.284,0.440578,2.21695,7.89811,0.465542,1.04394,0.432633,0
2024-11-29 18:13:07.287,0.498006,2.23609,7.70429,0.358033,1.07876,0.383765,0
2024-11-29 18:13:07.289,0.531506,2.25524,7.49582,0.358033,1.07876,0.383765,0
2024-11-29 18:13:07.291,0.54347,2.31266,7.302,0.304889,1.09097,0.353833,0
2024-11-29 18:13:07.294,0.553041,2.32941,7.13211,0.199823,1.09158,0.286029,0
2024-11-29 18:13:07.297,0.569791,2.32941,6.99302,0.199823,1.09158,0.286029,0
2024-11-29 18:13:07.299,0.567398,2.3342,6.89731,0.146069,1.07631,0.248768,0
2024-11-29 18:13:07.300,0.538684,2.32941,6.81356,0.0910926,1.05066,0.209062,0
2024-11-29 18:13:07.303,0.505185,2.3342,6.71067,0.0379489,1.02256,0.170579,0
2024-11-29 18:13:07.305,0.464507,2.31984,6.62692,-0.0139731,0.988351,0.12782,0
2024-11-29 18:13:07.307,0.419043,2.29831,6.58385,-0.0646735,0.951089,0.0875039,0
2024-11-29 18:13:07.311,0.378365,2.27677,6.59342,-0.110487,0.910773,0.0465771,0
2024-11-29 18:13:07.313,0.328116,2.24088,6.64128,-0.150192,0.872901,0.00565034,0
2024-11-29 18:13:07.315,0.270389,2.21695,6.7011,-0.182567,0.833196,-0.0352764,0
2024-11-29 18:13:07.318,0.193819,2.19781,6.75135,-0.216774,0.791658,-0.0725381,0
2024-11-29 18:13:07.319,0.0981057,2.15474,6.77049,-0.243652,0.746455,-0.111021,0
2024-11-29 18:13:07.322,0.00478565,2.10449,6.80399,-0.268086,0.697588,-0.147672,0
2024-11-29 18:13:07.325,-0.0957129,2.04467,6.8662,-0.306569,0.594965,-0.209979,0
2024-11-29 18:13:07.327,-0.215354,1.99202,6.92602,-0.306569,0.594965,-0.209979,0
2024-11-29 18:13:07.329,-0.332901,1.94626,6.97388,-0.32184,0.538767,-0.238078,0
2024-11-29 18:13:07.332,-0.457328,1.87926,7.02443,-0.332225,0.486234,-0.262512,0
2024-11-29 18:13:07.334,-0.588933,1.80509,7.101,-0.339555,0.430036,-0.283891,0
2024-11-29 18:13:07.336,-0.722932,1.75484,7.19671,-0.342609,0.380558,-0.300384,0
2024-11-29 18:13:07.340,-0.950549,1.63998,7.31157,-0.340166,0.283433,-0.324207,0
2024-11-29 18:13:07.341,-0.950549,1.63998,7.31157,-0.340166,0.283433,-0.324207,0
2024-11-29 18:13:07.343,-1.0678,1.55862,7.3331,-0.33589,0.233344,-0.328483,0
2024-11-29 18:13:07.345,-1.18983,1.51555,7.37378,-0.32917,0.183254,-0.332148,0
2024-11-29 18:13:07.348,-1.30947,1.47966,7.40967,-0.323673,0.133165,-0.331537,0
2024-11-29 18:13:07.351,-1.42223,1.42463,7.43121,-0.309623,0.0342074,-0.321153,0
2024-11-29 18:13:07.353,-1.53948,1.39083,7.46471,-0.309623,0.0342074,-0.321153,0
2024-11-29 18:13:07.355,-1.65194,1.36211,7.50539,-0.302904,-0.0128278,-0.308936,0
2024-11-29 18:13:07.357,-1.75723,1.32622,7.53649,-0.294963,-0.0586413,-0.295497,0
2024-11-29 18:13:07.359,-1.84098,1.28794,7.57986,-0.2858,-0.101401,-0.27595,0
2024-11-29 18:13:07.362,-1.90798,1.25444,7.64208,-0.277859,-0.142938,-0.257014,0
2024-11-29 18:13:07.365,-1.9657,1.23769,7.67797,-0.25648,-0.21624,-0.212422,0
2024-11-29 18:13:07.367,-2.02313,1.2329,7.71147,-0.25648,-0.21624,-0.212422,0
2024-11-29 18:13:07.369,-2.05663,1.22812,7.75693,-0.247317,-0.25228,-0.18921,0
2024-11-29 18:13:07.372,-2.0686,1.22094,7.8,-0.238154,-0.28099,-0.165387,0
2024-11-29 18:13:07.373,-2.0662,1.22094,7.83111,-0.22777,-0.309089,-0.13912,0
2024-11-29 18:13:07.376,-2.06142,1.23051,7.85982,-0.217996,-0.330468,-0.117741,0
2024-11-29 18:13:07.379,-2.0686,1.25683,7.88854,-0.209444,-0.350626,-0.0951395,0
2024-11-29 18:13:07.380,-2.06381,1.28315,7.91247,-0.201503,-0.364676,-0.0713164,0
2024-11-29 18:13:07.384,-2.05902,1.2999,7.94357,-0.186232,-0.385445,-0.0273354,0
2024-11-29 18:13:07.386,-2.04945,1.31665,7.97468,-0.180734,-0.389721,-0.00717746,0
2024-11-29 18:13:07.388,-2.03988,1.35494,8.001,-0.180734,-0.389721,-0.00717746,0
2024-11-29 18:13:07.390,-2.03031,1.37886,8.01297,-0.173404,-0.390331,0.0129805,0
2024-11-29 18:13:07.392,-2.01356,1.39083,8.00579,-0.166685,-0.387888,0.0319168,0
2024-11-29 18:13:07.396,-1.98963,1.41506,8.00579,-0.164852,-0.384223,0.0520747,0
2024-11-29 18:13:07.397,-1.95583,1.43181,7.99621,-0.163631,-0.376282,0.0673459,0
2024-11-29 18:13:07.399,-1.91994,1.4342,7.96511,-0.164242,-0.368952,0.0856713,0
2024-11-29 18:13:07.403,-1.87687,1.43898,7.94597,-0.168517,-0.351848,0.118046,0
2024-11-29 18:13:07.405,-1.82662,1.43659,7.92922,-0.172183,-0.340853,0.133317,0
2024-11-29 18:13:07.407,-1.77637,1.42702,7.91725,-0.172183,-0.340853,0.133317,0
2024-11-29 18:13:07.409,-1.72852,1.42702,7.9005,-0.17768,-0.331079,0.145534,0
2024-11-29 18:13:07.412,-1.68305,1.42223,7.89093,-0.186232,-0.321916,0.158362,0
2024-11-29 18:13:07.414,-1.64716,1.41745,7.89811,-0.193562,-0.311532,0.170579,0
2024-11-29 18:13:07.416,-1.58255,1.4342,7.90768,-0.205779,-0.302369,0.185239,0
2024-11-29 18:13:07.418,-1.51555,1.44377,7.94357,-0.216774,-0.291985,0.195624,0
2024-11-29 18:13:07.420,-1.4653,1.43898,7.99382,-0.22777,-0.279768,0.209062,0
2024-11-29 18:13:07.424,-1.39322,1.44377,8.03929,-0.24243,-0.267551,0.222501,0
2024-11-29 18:13:07.426,-1.30947,1.45813,8.08236,-0.261977,-0.241285,0.245102,0
2024-11-29 18:13:07.428,-1.24965,1.48445,8.13769,-0.261977,-0.241285,0.245102,0
2024-11-29 18:13:07.431,-1.19222,1.49641,8.1999,-0.280913,-0.202801,0.269536,0
2024-11-29 18:13:07.433,-1.12762,1.50598,8.25972,-0.280913,-0.202801,0.269536,0
2024-11-29 18:13:07.436,-1.0678,1.54666,8.32912,-0.289465,-0.183865,0.281753,0
2024-11-29 18:13:07.437,-1.02712,1.56341,8.39133,-0.294963,-0.160653,0.293359,0
2024-11-29 18:13:07.439,-0.97687,1.57298,8.44397,-0.303515,-0.141717,0.304355,0
2024-11-29 18:13:07.442,-0.909871,1.58973,8.50379,-0.309012,-0.119726,0.314739,0
2024-11-29 18:13:07.445,-0.842872,1.58734,8.58276,-0.31451,-0.0989573,0.32268,0
2024-11-29 18:13:07.446,-0.766002,1.58973,8.64975,-0.318786,-0.0806318,0.330621,0
2024-11-29 18:13:07.449,-0.696611,1.60409,8.69043,-0.32184,-0.0647498,0.334897,0
2024-11-29 18:13:07.452,-0.658325,1.61845,8.7362,-0.328559,-0.0397051,0.345281,0
2024-11-29 18:13:07.454,-0.63679,1.6352,8.78884,-0.328559,-0.0397051,0.345281,0
2024-11-29 18:13:07.456,-0.600898,1.65912,8.85344,-0.332225,-0.0287098,0.347114,0
2024-11-29 18:13:07.459,-0.562612,1.69023,8.91805,-0.332835,-0.0134386,0.348336,0
2024-11-29 18:13:07.461,-0.529113,1.71655,8.97787,-0.332835,-0.0134386,0.348336,0
2024-11-29 18:13:07.464,-0.512363,1.74527,9.04487,-0.331614,0.000610847,0.345892,0
2024-11-29 18:13:07.465,-0.517149,1.7668,9.09273,-0.331614,0.000610847,0.345892,0
2024-11-29 18:13:07.469,-0.502792,1.79551,9.14058,-0.331003,0.00488678,0.343449,0
2024-11-29 18:13:07.471,-0.483649,1.81944,9.2004,-0.323062,0.00366508,0.33673,0
2024-11-29 18:13:07.473,-0.478864,1.83141,9.25544,-0.323062,0.00366508,0.33673,0
2024-11-29 18:13:07.476,-0.45015,1.84576,9.31077,-0.318786,-0.000610847,0.331232,0
2024-11-29 18:13:07.478,-0.423829,1.83619,9.34427,-0.310845,-0.00427593,0.328789,0
2024-11-29 18:13:07.480,-0.41665,1.82662,9.37059,-0.304736,-0.00916271,0.32268,0
2024-11-29 18:13:07.482,-0.3999,1.83141,9.39691,-0.299239,-0.0140495,0.317793,0
2024-11-29 18:13:07.484,-0.392722,1.8338,9.41127,-0.294963,-0.0207688,0.314128,0
2024-11-29 18:13:07.486,-0.402293,1.82901,9.42802,-0.286411,-0.0262664,0.310463,0
2024-11-29 18:13:07.489,-0.414257,1.80987,9.45673,-0.280913,-0.0354291,0.305576,0
2024-11-29 18:13:07.492,-0.423829,1.80269,9.49502,-0.274805,-0.0409268,0.301911,0
2024-11-29 18:13:07.494,-0.4334,1.80748,9.51655,-0.268696,-0.0464244,0.300079,0
2024-11-29 18:13:07.497,-0.445364,1.81466,9.55005,-0.262588,-0.0537546,0.299468,0
2024-11-29 18:13:07.499,-0.459721,1.81705,9.59552,-0.255258,-0.0604739,0.298857,0
2024-11-29 18:13:07.501,-0.462114,1.80269,9.64098,-0.248538,-0.067804,0.301911,0
2024-11-29 18:13:07.503,-0.4669,1.78355,9.67687,-0.238765,-0.0702474,0.303744,0
2024-11-29 18:13:07.505,-0.454935,1.78116,9.69123,-0.230824,-0.0763559,0.306798,0
2024-11-29 18:13:07.508,-0.426222,1.78116,9.71037,-0.222883,-0.0824644,0.309241,0
2024-11-29 18:13:07.510,-0.414257,1.77159,9.75344,-0.212498,-0.0842969,0.312296,0
2024-11-29 18:13:07.512,-0.373579,1.79312,9.78216,-0.203336,-0.0885729,0.31535,0
2024-11-29 18:13:07.516,-0.344866,1.80987,9.80848,-0.193562,-0.0867403,0.317793,0
2024-11-29 18:13:07.518,-0.337687,1.81226,9.84467,-0.180734,-0.0842969,0.320848,0
2024-11-29 18:13:07.519,-0.316152,1.82423,9.87338,-0.17035,-0.0842969,0.325123,0
2024-11-29 18:13:07.522,-0.308973,1.83859,9.88296,-0.158744,-0.0812427,0.328178,0
2024-11-29 18:13:07.524,-0.316152,1.86251,9.88535,-0.147138,-0.0781884,0.334286,0
2024-11-29 18:13:07.527,-0.297009,1.88405,9.88056,-0.13431,-0.0745234,0.341005,0
2024-11-29 18:13:07.530,-0.270389,1.9008,9.87817,-0.122704,-0.0714691,0.346503,0
2024-11-29 18:13:07.531,-0.241675,1.92473,9.88535,-0.109876,-0.0659715,0.353222,0
2024-11-29 18:13:07.533,-0.215354,1.9343,9.87338,-0.0952158,-0.0616956,0.358109,0
2024-11-29 18:13:07.536,-0.181855,1.94626,9.85424,-0.0842206,-0.0574196,0.363607,0
2024-11-29 18:13:07.539,-0.138784,1.96301,9.82553,-0.0610084,-0.0494786,0.37338,0
2024-11-29 18:13:07.542,-0.0957129,1.98485,9.78455,-0.0481806,-0.0452027,0.377656,0
2024-11-29 18:13:07.543,-0.0646062,2.01117,9.75344,-0.0481806,-0.0452027,0.377656,0
2024-11-29 18:13:07.545,-0.026321,2.03749,9.73191,-0.0402396,-0.0427593,0.380711,0
2024-11-29 18:13:07.548,0.0239282,2.0686,9.69841,-0.0298552,-0.0372617,0.381932,0
2024-11-29 18:13:07.551,0.0717847,2.09731,9.64337,-0.0200816,-0.03604,0.385597,0
2024-11-29 18:13:07.553,0.136391,2.12363,9.59073,-0.0139731,-0.0323749,0.385597,0
2024-11-29 18:13:07.556,0.20339,2.15952,9.53809,-0.00664296,-0.028099,0.386208,0
2024-11-29 18:13:07.557,0.263211,2.2002,9.49741,-0.000534491,-0.023823,0.384986,0
2024-11-29 18:13:07.559,0.320937,2.23609,9.46631,0.00740652,-0.0183254,0.382543,0
2024-11-29 18:13:07.562,0.368794,2.26481,9.4017,0.0147367,-0.0122169,0.379489,0
2024-11-29 18:13:07.565,0.409472,2.29591,9.34666,0.0208452,-0.00794101,0.375824,0
2024-11-29 18:13:07.567,0.462114,2.33659,9.29881,0.0269536,-0.00366508,0.369715,0
2024-11-29 18:13:07.569,0.519542,2.36291,9.24826,0.0306187,-0.000610847,0.361163,0
2024-11-29 18:13:07.571,0.562612,2.37966,9.2004,0.0324513,0.00305424,0.355666,0
2024-11-29 18:13:07.574,0.591326,2.39641,9.15733,0.0355055,0.00794101,0.346503,0
2024-11-29 18:13:07.577,0.612862,2.42991,9.10708,0.0410031,0.0146603,0.329399,0
2024-11-29 18:13:07.578,0.632004,2.47298,9.05444,0.0410031,0.0146603,0.329399,0
2024-11-29 18:13:07.582,0.641576,2.51127,9.01376,0.0422248,0.0213797,0.319626,0
2024-11-29 18:13:07.583,0.646361,2.56182,8.96112,0.0422248,0.0287098,0.308631,0
2024-11-29 18:13:07.586,0.675075,2.58814,8.90848,0.0446682,0.0390942,0.3013,0
2024-11-29 18:13:07.588,0.689432,2.60489,8.84626,0.0446682,0.0390942,0.3013,0
2024-11-29 18:13:07.591,0.682254,2.63121,8.8008,0.0489441,0.0684149,0.27198,0
2024-11-29 18:13:07.593,0.691825,2.64317,8.7697,0.0489441,0.0684149,0.27198,0
2024-11-29 18:13:07.595,0.696611,2.65992,8.71705,0.0483333,0.080021,0.260984,0
2024-11-29 18:13:07.598,0.706182,2.69342,8.67608,0.0507767,0.0977356,0.242048,0
2024-11-29 18:13:07.600,0.696611,2.72692,8.62583,0.0507767,0.0977356,0.242048,0
2024-11-29 18:13:07.603,0.665504,2.75324,8.57079,0.049555,0.105677,0.232275,0
2024-11-29 18:13:07.605,0.65354,2.8011,8.51097,0.0477224,0.12278,0.215171,0
2024-11-29 18:13:07.606,0.632004,2.84417,8.46072,0.0477224,0.12278,0.215171,0
2024-11-29 18:13:07.610,0.605683,2.8681,8.42962,0.0458899,0.137441,0.196846,0
2024-11-29 18:13:07.612,0.593719,2.9016,8.40808,0.0458899,0.137441,0.196846,0
2024-11-29 18:13:07.614,0.572184,2.9327,8.37458,0.0440574,0.143549,0.191959,0
2024-11-29 18:13:07.616,0.536291,2.96142,8.32194,0.0452791,0.148436,0.183407,0
2024-11-29 18:13:07.619,0.507577,2.9997,8.28126,0.0440574,0.153934,0.176688,0
2024-11-29 18:13:07.621,0.493221,3.01167,8.26451,0.0446682,0.158209,0.170579,0
2024-11-29 18:13:07.624,0.486042,3.02124,8.23819,0.0458899,0.159431,0.162027,0
2024-11-29 18:13:07.626,0.488435,3.05234,8.22144,0.0471116,0.160042,0.154697,0
2024-11-29 18:13:07.629,0.478864,3.09093,8.19751,0.0471116,0.160653,0.149199,0
2024-11-29 18:13:07.631,0.471685,3.11725,8.1664,0.049555,0.153934,0.133317,0
2024-11-29 18:13:07.632,0.476471,3.12443,8.14487,0.049555,0.153934,0.133317,0
2024-11-29 18:13:07.636,0.454935,3.134,8.10868,0.0513875,0.150268,0.128431,0
2024-11-29 18:13:07.637,0.426222,3.16032,8.07757,0.0550526,0.146603,0.122322,0
2024-11-29 18:13:07.639,0.409472,3.21057,8.07518,0.0587177,0.142327,0.115603,0
2024-11-29 18:13:07.643,0.392722,3.24168,8.06321,0.0636045,0.131943,0.105829,0
2024-11-29 18:13:07.644,0.373579,3.25364,8.03929,0.0636045,0.131943,0.105829,0
2024-11-29 18:13:07.647,0.361615,3.29671,8.02254,0.0636045,0.127056,0.101553,0
2024-11-29 18:13:07.650,0.349651,3.33021,7.99382,0.0642153,0.118504,0.0972774,0
2024-11-29 18:13:07.651,0.32333,3.35414,7.96272,0.065437,0.10812,0.0917798,0
2024-11-29 18:13:07.654,0.308973,3.38046,7.96272,0.065437,0.095903,0.0881147,0
2024-11-29 18:13:07.656,0.289831,3.42353,7.95793,0.0672696,0.0830752,0.0826171,0
2024-11-29 18:13:07.658,0.267996,3.46182,7.94357,0.0672696,0.0684149,0.0783412,0
2024-11-29 18:13:07.661,0.256032,3.5001,7.93161,0.065437,0.0561979,0.0758978,0
2024-11-29 18:13:07.664,0.244068,3.54796,7.92443,0.065437,0.0409268,0.0697893,0
2024-11-29 18:13:07.666,0.246461,3.58864,7.93161,0.0636045,0.0256556,0.0636808,0
2024-11-29 18:13:07.668,0.248854,3.62692,7.93639,0.0611611,0.0134386,0.0600157,0
2024-11-29 18:13:07.672,0.232104,3.7349,7.98425,0.0581068,-0.0134386,0.0496313,0
2024-11-29 18:13:07.673,0.232104,3.7349,7.98425,0.0581068,-0.0134386,0.0496313,0
2024-11-29 18:13:07.676,0.208176,3.75643,8.001,0.0587177,-0.0274881,0.0435229,0
2024-11-29 18:13:07.678,0.184247,3.8019,8.02254,0.0556635,-0.0415376,0.0392469,0
2024-11-29 18:13:07.680,0.191426,3.84257,8.05125,0.0581068,-0.0543654,0.0331385,0
2024-11-29 18:13:07.682,0.191426,3.8665,8.09193,0.0538309,-0.0684149,0.02703,0
2024-11-29 18:13:07.685,0.179462,3.90239,8.12543,0.0507767,-0.0830752,0.0203107,0
2024-11-29 18:13:07.687,0.174676,3.94786,8.15444,0.0526092,-0.0977356,0.0123697,0
2024-11-29 18:13:07.690,0.16989,3.98614,8.17837,0.0501658,-0.111174,0.00687203,0
2024-11-29 18:13:07.691,0.181855,4.03161,8.20708,0.0471116,-0.12278,-0.00351237,0
2024-11-29 18:13:07.695,0.157926,4.07946,8.24537,0.0452791,-0.133776,-0.0108425,0
2024-11-29 18:13:07.697,0.12682,4.12253,8.27408,0.0422248,-0.145992,-0.0157293,0
2024-11-29 18:13:07.699,0.12682,4.17039,8.3004,0.0379489,-0.158209,-0.0242812,0
2024-11-29 18:13:07.702,0.11007,4.19671,8.34587,0.0287862,-0.183865,-0.0358873,0
2024-11-29 18:13:07.703,0.0957129,4.22094,8.39372,0.0287862,-0.183865,-0.0358873,0
2024-11-29 18:13:07.706,0.0861416,4.24247,8.42483,0.0245102,-0.195471,-0.0426066,0
2024-11-29 18:13:07.709,0.0693919,4.25444,8.44158,0.0129041,-0.214407,-0.0560452,0
2024-11-29 18:13:07.710,0.0693919,4.28076,8.4679,0.0129041,-0.214407,-0.0560452,0
2024-11-29 18:13:07.713,0.081356,4.29272,8.51815,0.00374144,-0.222959,-0.0621537,0
2024-11-29 18:13:07.715,0.0957129,4.30947,8.57079,-0.00358873,-0.229068,-0.068873,0
2024-11-29 18:13:07.717,0.11007,4.33579,8.63061,-0.0109189,-0.236398,-0.0762032,0
2024-11-29 18:13:07.720,0.12682,4.34058,8.69283,-0.0200816,-0.243728,-0.0835334,0
2024-11-29 18:13:07.724,0.150748,4.34058,8.83909,-0.0390179,-0.260221,-0.0963612,0
2024-11-29 18:13:07.725,0.150748,4.34058,8.83909,-0.0390179,-0.260221,-0.0963612,0
2024-11-29 18:13:07.731,0.155533,4.37169,9.10469,-0.0707819,-0.287709,-0.115908,0
2024-11-29 18:13:07.731,0.155533,4.37169,9.10469,-0.0707819,-0.287709,-0.115908,0
2024-11-29 18:13:07.732,0.155533,4.37169,9.10469,-0.0707819,-0.287709,-0.115908,0
2024-11-29 18:13:07.735,0.160319,4.3669,9.21237,-0.0793338,-0.29565,-0.122017,0
2024-11-29 18:13:07.736,0.177069,4.36212,9.29402,-0.0793338,-0.29565,-0.122017,0
2024-11-29 18:13:07.741,0.191426,4.37647,9.47348,-0.108654,-0.31703,-0.141564,0
2024-11-29 18:13:07.742,0.191426,4.37647,9.47348,-0.115374,-0.320695,-0.14584,0
2024-11-29 18:13:07.744,0.184247,4.37887,9.58595,-0.122704,-0.32436,-0.148894,0
2024-11-29 18:13:07.746,0.160319,4.37408,9.70559,-0.122704,-0.32436,-0.148894,0
2024-11-29 18:13:07.749,0.138784,4.38126,9.81087,-0.136753,-0.326803,-0.159278,0
2024-11-29 18:13:07.751,0.124427,4.39562,9.92603,-0.142251,-0.326803,-0.162333,0
2024-11-29 18:13:07.754,0.11007,4.40758,10.0433,-0.145916,-0.326192,-0.165998,0
2024-11-29 18:13:07.756,0.0957129,4.42194,10.1462,-0.147138,-0.324971,-0.168441,0
2024-11-29 18:13:07.758,0.0765703,4.43151,10.2586,-0.145916,-0.323138,-0.170885,0
2024-11-29 18:13:07.760,0.0430708,4.42911,10.3615,-0.145916,-0.323138,-0.170885,0
2024-11-29 18:13:07.763,0.0167498,4.42672,10.4336,-0.146527,-0.320695,-0.173328,0
2024-11-29 18:13:07.764,-0.0119641,4.43869,10.515,-0.147138,-0.315197,-0.173328,0
2024-11-29 18:13:07.768,-0.040678,4.43869,10.6083,-0.144084,-0.306645,-0.172717,0
2024-11-29 18:13:07.770,-0.0885344,4.43151,10.6825,-0.137975,-0.296872,-0.170885,0
2024-11-29 18:13:07.772,-0.131605,4.45304,10.7495,-0.136143,-0.288931,-0.171495,0
2024-11-29 18:13:07.775,-0.191426,4.46501,10.8021,-0.133699,-0.279768,-0.168441,0
2024-11-29 18:13:07.776,-0.270389,4.46261,10.8571,-0.128202,-0.273049,-0.165387,0
2024-11-29 18:13:07.779,-0.337687,4.47458,10.9217,-0.123926,-0.266329,-0.162333,0
2024-11-29 18:13:07.782,-0.395115,4.49611,10.9675,-0.120871,-0.258999,-0.156835,0
2024-11-29 18:13:07.784,-0.462114,4.51286,11.0225,-0.109876,-0.241896,-0.144007,0
2024-11-29 18:13:07.787,-0.541077,4.5344,11.08,-0.101935,-0.234565,-0.133623,0
2024-11-29 18:13:07.789,-0.600898,4.55354,11.123,-0.0933833,-0.229068,-0.123238,0
2024-11-29 18:13:07.791,-0.658325,4.5344,11.1589,-0.0854423,-0.222348,-0.114076,0
2024-11-29 18:13:07.794,-0.71336,4.52961,11.2092,-0.0854423,-0.222348,-0.114076,0
2024-11-29 18:13:07.795,-0.751645,4.53679,11.257,-0.0781121,-0.215629,-0.101859,0
2024-11-29 18:13:07.798,-0.787538,4.54158,11.2738,-0.0591758,-0.211353,-0.0755923,0
2024-11-29 18:13:07.801,-0.828216,4.54636,11.2929,-0.0530674,-0.209521,-0.0615429,0
2024-11-29 18:13:07.803,-0.864407,4.5344,11.324,-0.0530674,-0.209521,-0.0615429,0
2024-11-29 18:13:07.804,-0.890728,4.5344,11.3599,-0.0445155,-0.20891,-0.0487151,0
2024-11-29 18:13:07.807,-0.890728,4.54158,11.391,-0.0347419,-0.208299,-0.0352764,0
2024-11-29 18:13:07.812,-0.897907,4.58704,11.4628,-0.0206925,-0.211964,-0.0108425,0
2024-11-29 18:13:07.812,-0.897907,4.58704,11.4628,-0.0206925,-0.211964,-0.0108425,0
2024-11-29 18:13:07.814,-0.888335,4.59901,11.5035,-0.0121406,-0.215018,0.0025961,0
2024-11-29 18:13:07.817,-0.871586,4.61576,11.5493,-0.00419957,-0.217462,0.0142022,0
2024-11-29 18:13:07.818,-0.857229,4.64686,11.6139,0.00313059,-0.221738,0.0276408,0
2024-11-29 18:13:07.822,-0.84018,4.67079,11.6641,0.0202343,-0.22357,0.0502422,0
2024-11-29 18:13:07.824,-0.818644,4.6684,11.7239,0.0202343,-0.22357,0.0502422,0
2024-11-29 18:13:07.827,-0.797109,4.67558,11.7957,0.0410031,-0.222959,0.0685676,0
2024-11-29 18:13:07.829,-0.758824,4.68993,11.8531,0.0410031,-0.222959,0.0685676,0
2024-11-29 18:13:07.830,-0.722932,4.69711,11.9034,0.0410031,-0.222959,0.0685676,0
2024-11-29 18:13:07.833,-0.687039,4.71147,11.956,0.0666587,-0.219294,0.0838388,0
2024-11-29 18:13:07.835,-0.665504,4.72822,11.9919,0.0782648,-0.217462,0.0930015,0
2024-11-29 18:13:07.841,-0.682254,4.81944,11.9967,0.113083,-0.197915,0.116214,0
2024-11-29 18:13:07.841,-0.682254,4.81944,11.9967,0.113083,-0.197915,0.116214,0
2024-11-29 18:13:07.842,-0.708575,4.85055,11.98,0.113083,-0.197915,0.116214,0
2024-11-29 18:13:07.844,-0.74686,4.89362,11.9417,0.121635,-0.189363,0.124155,0
2024-11-29 18:13:07.848,-0.770788,4.94148,11.8795,0.127743,-0.174702,0.145534,0
2024-11-29 18:13:07.850,-0.773181,4.97019,11.8029,0.128965,-0.17287,0.154086,0
2024-11-29 18:13:07.852,-0.780359,5.0013,11.7407,0.128965,-0.17287,0.154086,0
2024-11-29 18:13:07.854,-0.787538,5.0324,11.6809,0.123468,-0.170426,0.164471,0
2024-11-29 18:13:07.857,-0.758824,5.04437,11.6067,0.102699,-0.178367,0.181574,0
2024-11-29 18:13:07.859,-0.684646,5.03001,11.5325,0.102699,-0.178367,0.181574,0
2024-11-29 18:13:07.861,-0.574577,5.01087,11.4724,0.0886492,-0.189363,0.183407,0
2024-11-29 18:13:07.863,-0.45015,4.97737,11.4269,0.0691021,-0.207077,0.184629,0
2024-11-29 18:13:07.866,-0.30658,4.92473,11.4006,0.0489441,-0.2309,0.182796,0
2024-11-29 18:13:07.868,-0.145962,4.8673,11.3862,0.021456,-0.267551,0.176688,0
2024-11-29 18:13:07.870,0.0239282,4.80269,11.3934,-0.00908635,-0.311532,0.164471,0
2024-11-29 18:13:07.874,0.198604,4.74497,11.4317,-0.0799446,-0.423928,0.132707,0
2024-11-29 18:13:07.876,0.390329,4.68993,11.511,-0.0799446,-0.423928,0.132707,0
2024-11-29 18:13:07.877,0.608076,4.62293,11.6186,-0.120261,-0.486845,0.110105,0
2024-11-29 18:13:07.880,0.794716,4.55354,11.7407,-0.164242,-0.550984,0.0832279,0
2024-11-29 18:13:07.882,0.962513,4.48654,11.8986,-0.207612,-0.61268,0.058794,0
2024-11-29 18:13:07.885,1.13958,4.41954,12.0951,-0.251593,-0.673765,0.0313059,0
2024-11-29 18:13:07.887,1.31426,4.33819,12.32,-0.293741,-0.730573,0.00320695,0
2024-11-29 18:13:07.889,1.50598,4.24726,12.5737,-0.335279,-0.781274,-0.0230595,0
2024-11-29 18:13:07.893,1.71416,4.15603,12.8659,-0.410413,-0.874122,-0.0804791,0
2024-11-29 18:13:07.895,1.90558,4.05793,13.2012,-0.410413,-0.874122,-0.0804791,0
2024-11-29 18:13:07.897,2.10209,3.96461,13.5864,-0.467833,-0.94437,-0.142786,0
2024-11-29 18:13:07.900,2.29352,3.88325,13.9505,-0.486158,-0.968804,-0.178826,0
2024-11-29 18:13:07.902,2.4658,3.80907,14.2807,-0.498986,-0.985297,-0.213033,0
2024-11-29 18:13:07.904,2.64078,3.7349,14.6064,-0.498986,-0.985297,-0.213033,0
2024-11-29 18:13:07.907,2.77717,3.65354,14.9154,-0.506316,-0.992016,-0.288167,0
2024-11-29 18:13:07.908,2.89681,3.55035,15.2551,-0.506316,-0.992016,-0.288167,0
2024-11-29 18:13:07.910,3.01406,3.42353,15.6263,-0.497764,-0.984686,-0.32604,0
2024-11-29 18:13:07.913,3.10529,3.29671,15.9709,-0.481271,-0.96636,-0.363912,0
2024-11-29 18:13:07.916,3.15314,3.1675,16.2679,-0.457448,-0.941926,-0.401174,0
2024-11-29 18:13:07.917,3.14836,3.0332,16.5096,-0.423241,-0.906497,-0.435381,0
2024-11-29 18:13:07.920,3.11246,2.8992,16.6941,-0.384147,-0.861905,-0.467145,0
2024-11-29 18:13:07.922,2.88245,2.81785,16.6654,-0.337722,-0.803875,-0.495244,0
2024-11-29 18:13:07.925,2.74606,2.69342,16.6343,-0.290076,-0.733628,-0.514792,0
2024-11-29 18:13:07.928,2.84656,2.42991,16.7922,-0.179513,-0.603517,-0.551442,1
2024-11-29 18:13:07.929,2.85135,2.14277,16.8473,-0.179513,-0.603517,-0.551442,0
2024-11-29 18:13:07.933,2.7676,1.89123,16.7516,-0.0536782,-0.45386,-0.579541,0
2024-11-29 18:13:07.935,2.63599,1.67109,16.5841,-0.0536782,-0.45386,-0.579541,0
2024-11-29 18:13:07.936,2.47537,1.4677,16.3804,0.0110716,-0.364676,-0.584428,0
2024-11-29 18:13:07.940,2.28634,1.27358,16.1267,0.0770431,-0.265719,-0.586261,0
2024-11-29 18:13:07.942,2.0997,1.08933,15.8417,0.13996,-0.164318,-0.581374,0
2024-11-29 18:13:07.943,1.9008,0.938585,15.5833,0.202878,-0.0604739,-0.569768,0
2024-11-29 18:13:07.946,1.68305,0.821037,15.3102,0.262741,0.0390942,-0.550831,0
2024-11-29 18:13:07.949,1.47727,0.725324,14.9704,0.373304,0.23823,-0.492801,0
2024-11-29 18:13:07.950,1.24965,0.634397,14.5801,0.373304,0.23823,-0.492801,0
2024-11-29 18:13:07.953,1.0008,0.550648,14.1706,0.42095,0.335355,-0.458594,0
2024-11-29 18:13:07.956,0.766002,0.490828,13.7444,0.498528,0.517388,-0.373075,0
2024-11-29 18:13:07.958,0.536291,0.431007,13.3113,0.498528,0.517388,-0.373075,0
2024-11-29 18:13:07.960,0.316152,0.373579,12.9042,0.529681,0.596187,-0.323596,0
2024-11-29 18:13:07.962,0.141177,0.352044,12.5282,0.555337,0.667045,-0.274729,0
2024-11-29 18:13:07.965,-0.00478565,0.34008,12.1669,0.574884,0.729352,-0.220974,0
2024-11-29 18:13:07.968,-0.11007,0.32333,11.8173,0.602372,0.830752,-0.118963,0
2024-11-29 18:13:07.973,-0.205783,0.325723,11.4796,0.610313,0.868014,-0.068873,0
2024-11-29 18:13:07.973,-0.287438,0.335294,11.1494,0.610313,0.868014,-0.068873,0
2024-11-29 18:13:07.974,-0.342473,0.34008,10.8404,0.6152,0.899167,-0.0218378,0
2024-11-29 18:13:07.977,-0.371187,0.364008,10.5652,0.614589,0.947424,0.0661242,0
2024-11-29 18:13:07.979,-0.364008,0.404686,10.3089,0.614589,0.947424,0.0661242,0
2024-11-29 18:13:07.981,-0.352044,0.435793,10.084,0.60848,0.962695,0.10644,0
2024-11-29 18:13:07.984,-0.342473,0.4669,9.89253,0.602983,0.974301,0.14248,0
2024-11-29 18:13:07.986,-0.297009,0.514756,9.71994,0.597485,0.981632,0.175466,0
2024-11-29 18:13:07.988,-0.236889,0.579362,9.56202,0.588933,0.985907,0.206008,0
2024-11-29 18:13:07.991,-0.174676,0.646361,9.43759,0.580992,0.988351,0.232275,0
2024-11-29 18:13:07.994,-0.0789631,0.706182,9.35145,0.566943,0.981632,0.27198,0
2024-11-29 18:13:07.996,0.040678,0.773181,9.28445,0.562056,0.971858,0.287862,0
2024-11-29 18:13:07.999,0.153141,0.835394,9.21955,0.562056,0.971858,0.287862,0
2024-11-29 18:13:08.000,0.267996,0.881157,9.1693,0.559612,0.957198,0.297024,0
2024-11-29 18:13:08.005,0.550648,0.962513,9.08076,0.560223,0.929099,0.304965,0
2024-11-29 18:13:08.006,0.550648,0.962513,9.08076,0.560223,0.929099,0.304965,0
2024-11-29 18:13:08.008,0.687039,0.996012,9.03051,0.565721,0.894891,0.297635,0
2024-11-29 18:13:08.010,0.816252,1.01515,9.00898,0.565721,0.894891,0.297635,0
2024-11-29 18:13:08.013,0.917049,1.05105,8.97787,0.573662,0.874733,0.289694,0
2024-11-29 18:13:08.014,1.01994,1.08215,8.92284,0.57916,0.855797,0.278699,0
2024-11-29 18:13:08.017,1.17547,1.0654,8.90848,0.590766,0.832585,0.267704,0
2024-11-29 18:13:08.019,1.46291,0.97687,9.07598,0.610924,0.802042,0.245102,0
2024-11-29 18:13:08.021,1.5012,0.981655,9.00658,0.623141,0.761116,0.22189,0
2024-11-29 18:13:08.023,1.31186,1.0989,8.6665,0.635357,0.748288,0.202954,0
2024-11-29 18:13:08.027,1.30469,1.16351,8.50379,0.662846,0.7208,0.17119,0
2024-11-29 18:13:08.029,1.37169,1.18983,8.45115,0.662846,0.7208,0.17119,0
2024-11-29 18:13:08.031,1.42941,1.20419,8.39851,0.67323,0.695755,0.15714,0
2024-11-29 18:13:08.034,1.44377,1.20419,8.27647,0.683004,0.665213,0.143091,0
2024-11-29 18:13:08.036,1.4342,1.2018,8.10868,0.68728,0.594965,0.11377,0
2024-11-29 18:13:08.039,1.41984,1.19462,7.94597,0.68728,0.594965,0.11377,0
2024-11-29 18:13:08.041,1.42702,1.16351,7.80958,0.68728,0.560147,0.101553,0
2024-11-29 18:13:08.043,1.44377,1.14437,7.68754,0.679949,0.481348,0.0734544,0
2024-11-29 18:13:08.046,1.46052,1.12283,7.57747,0.679949,0.481348,0.0734544,0
2024-11-29 18:13:08.048,1.48205,1.11087,7.47428,0.678117,0.444086,0.0569615,0
2024-11-29 18:13:08.050,1.49402,1.10608,7.37139,0.670787,0.408046,0.0416903,0
2024-11-29 18:13:08.053,1.47488,1.10608,7.27568,0.661624,0.373839,0.0245866,0
2024-11-29 18:13:08.054,1.42463,1.1324,7.18714,0.653683,0.338409,0.00748288,0
2024-11-29 18:13:08.056,1.37408,1.16351,7.101,0.64452,0.300537,-0.00656661,0
2024-11-29 18:13:08.060,1.32622,1.19701,7.01964,0.632303,0.265719,-0.0193944,0
2024-11-29 18:13:08.062,1.26401,1.21615,6.95952,0.60115,0.189974,-0.0474934,0
2024-11-29 18:13:08.063,1.19701,1.25204,6.8997,0.60115,0.189974,-0.0474934,0
2024-11-29 18:13:08.067,1.12522,1.29751,6.85424,0.570608,0.10812,-0.0682622,0
2024-11-29 18:13:08.069,1.0654,1.34058,6.83031,0.570608,0.10812,-0.0682622,0
2024-11-29 18:13:08.071,1.01037,1.37886,6.82074,0.555337,0.0690257,-0.08109,0
2024-11-29 18:13:08.074,0.974477,1.39561,6.81356,0.539454,0.0287098,-0.0902527,0
2024-11-29 18:13:08.075,0.948156,1.42702,6.80399,0.518686,-0.0128278,-0.100637,0
2024-11-29 18:13:08.078,0.931406,1.45813,6.79681,0.501582,-0.0513112,-0.112854,0
2024-11-29 18:13:08.081,0.917049,1.47488,6.78006,0.465542,-0.126445,-0.13912,0
2024-11-29 18:13:08.085,0.924228,1.5012,6.80878,0.443551,-0.161875,-0.155613,0
2024-11-29 18:13:08.086,0.924228,1.5012,6.80878,0.443551,-0.161875,-0.155613,0
2024-11-29 18:13:08.090,0.905085,1.5323,6.90449,0.402625,-0.228457,-0.186156,0
2024-11-29 18:13:08.090,0.905085,1.5323,6.90449,0.402625,-0.228457,-0.186156,0
2024-11-29 18:13:08.093,0.890728,1.54905,6.96192,0.381856,-0.256556,-0.202649,0
2024-11-29 18:13:08.095,0.873978,1.57537,7.03161,0.360476,-0.28099,-0.220363,0
2024-11-29 18:13:08.097,0.847657,1.59212,7.12014,0.338486,-0.301759,-0.235634,0
2024-11-29 18:13:08.099,0.825823,1.59452,7.20628,0.322604,-0.318862,-0.252127,0
2024-11-29 18:13:08.102,0.799502,1.60409,7.27328,0.302446,-0.331079,-0.264955,0
2024-11-29 18:13:08.105,0.761217,1.61366,7.34268,0.267017,-0.343296,-0.288167,0
2024-11-29 18:13:08.107,0.715753,1.6017,7.42882,0.267017,-0.343296,-0.288167,0
2024-11-29 18:13:08.109,0.677468,1.58734,7.5006,0.239528,-0.340853,-0.30466,0
2024-11-29 18:13:08.112,0.660718,1.56341,7.55085,0.226701,-0.330468,-0.313823,0
2024-11-29 18:13:08.113,0.639183,1.54427,7.60618,0.226701,-0.330468,-0.313823,0
2024-11-29 18:13:08.115,0.608076,1.55384,7.65165,0.21143,-0.318862,-0.320542,0
2024-11-29 18:13:08.119,0.576969,1.55384,7.69472,0.198602,-0.307256,-0.324818,0
2024-11-29 18:13:08.127,0.390329,1.57059,7.97229,0.158897,-0.246171,-0.334592,0
2024-11-29 18:13:08.128,0.390329,1.57059,7.97229,0.15401,-0.226013,-0.33337,0
2024-11-29 18:13:08.128,0.390329,1.57059,7.97229,0.15401,-0.226013,-0.33337,0
2024-11-29 18:13:08.128,0.390329,1.57059,7.97229,0.15401,-0.226013,-0.33337,0
2024-11-29 18:13:08.129,0.378365,1.5682,7.99621,0.15401,-0.226013,-0.33337,0
2024-11-29 18:13:08.132,0.361615,1.58016,8.00818,0.14668,-0.203412,-0.333981,0
2024-11-29 18:13:08.135,0.320937,1.58255,8.02493,0.136906,-0.152101,-0.324207,0
2024-11-29 18:13:08.136,0.272782,1.58255,8.04886,0.136906,-0.152101,-0.324207,0
2024-11-29 18:13:08.139,0.239282,1.58495,8.07039,0.133241,-0.127667,-0.320542,0
2024-11-29 18:13:08.142,0.212961,1.58973,8.08475,0.128965,-0.101401,-0.310769,0
2024-11-29 18:13:08.144,0.179462,1.61127,8.08236,0.127743,-0.0757451,-0.300995,0
2024-11-29 18:13:08.146,0.148355,1.62802,8.05843,0.125911,-0.0488678,-0.291221,0
2024-11-29 18:13:08.149,0.133998,1.64716,8.05125,0.119802,0.00122169,-0.266177,0
2024-11-29 18:13:08.151,0.129212,1.68784,8.02732,0.119802,0.00122169,-0.266177,0
2024-11-29 18:13:08.153,0.124427,1.72852,7.98664,0.118581,0.0299315,-0.253349,0
2024-11-29 18:13:08.156,0.129212,1.74287,7.97229,0.115526,0.0549763,-0.23991,0
2024-11-29 18:13:08.158,0.143569,1.76441,7.94118,0.115526,0.0781884,-0.226472,0
2024-11-29 18:13:08.161,0.155533,1.80987,7.88375,0.113694,0.10079,-0.209368,0
2024-11-29 18:13:08.162,0.174676,1.84816,7.82632,0.11064,0.124002,-0.194708,0
2024-11-29 18:13:08.166,0.217747,1.87687,7.77129,0.10392,0.164318,-0.167219,0
2024-11-29 18:13:08.168,0.260818,1.92233,7.70429,0.10392,0.164318,-0.167219,0
2024-11-29 18:13:08.170,0.289831,1.9657,7.63011,0.100866,0.183865,-0.153781,0
2024-11-29 18:13:08.172,0.313759,1.99681,7.55085,0.0953685,0.20158,-0.144007,0
2024-11-29 18:13:08.175,0.366401,2.04227,7.48385,0.0886492,0.221127,-0.133012,0
2024-11-29 18:13:08.177,0.421436,2.08774,7.42642,0.0825407,0.239452,-0.126293,0
2024-11-29 18:13:08.179,0.457328,2.14995,7.35464,0.0727672,0.254112,-0.119573,0
2024-11-29 18:13:08.181,0.486042,2.21456,7.28046,0.065437,0.270605,-0.112854,0
2024-11-29 18:13:08.184,0.517149,2.26959,7.21107,0.0550526,0.282211,-0.110411,0
2024-11-29 18:13:08.187,0.553041,2.32463,7.1345,0.0422248,0.291374,-0.109189,0
2024-11-29 18:13:08.189,0.591326,2.36531,7.07229,0.0324513,0.296872,-0.111021,0
2024-11-29 18:13:08.191,0.624826,2.40359,7.01725,0.0177909,0.299926,-0.113465,0
2024-11-29 18:13:08.194,0.648754,2.43948,6.96431,0.00251974,0.299926,-0.117741,0
2024-11-29 18:13:08.195,0.684646,2.48255,6.91885,-0.0115297,0.293207,-0.123238,0
2024-11-29 18:13:08.198,0.691825,2.52323,6.87817,-0.0280226,0.284655,-0.132401,0
2024-11-29 18:13:08.201,0.706182,2.56182,6.85424,-0.0658951,0.263886,-0.15317,0
2024-11-29 18:13:08.202,0.749253,2.58574,6.84228,-0.0658951,0.263886,-0.15317,0
2024-11-29 18:13:08.206,0.761217,2.61446,6.84706,-0.0811663,0.249837,-0.166609,0
2024-11-29 18:13:08.208,0.766002,2.65274,6.84945,-0.0958267,0.236398,-0.178215,0
2024-11-29 18:13:08.211,0.758824,2.68385,6.86142,-0.130645,0.196693,-0.204481,0
2024-11-29 18:13:08.213,0.732503,2.72213,6.9021,-0.130645,0.196693,-0.204481,0
2024-11-29 18:13:08.215,0.708575,2.75085,6.93799,-0.161187,0.146603,-0.230748,0
2024-11-29 18:13:08.217,0.682254,2.77478,6.9667,-0.161187,0.146603,-0.230748,0
2024-11-29 18:13:08.219,0.646361,2.79631,7.02443,-0.172183,0.120948,-0.244797,0
2024-11-29 18:13:08.222,0.60329,2.81067,7.09621,-0.196616,0.07208,-0.265566,0
2024-11-29 18:13:08.224,0.565005,2.8322,7.14886,-0.196616,0.07208,-0.265566,0
2024-11-29 18:13:08.227,0.521934,2.84178,7.19911,-0.204557,0.0482569,-0.275339,0
2024-11-29 18:13:08.229,0.4669,2.85853,7.25414,-0.212498,0.0250447,-0.282059,0
2024-11-29 18:13:08.231,0.409472,2.89203,7.32832,-0.218607,0.00488678,-0.289389,0
2024-11-29 18:13:08.234,0.34008,2.91595,7.4001,-0.229602,-0.0311532,-0.29733,0
2024-11-29 18:13:08.235,0.275175,2.9351,7.46471,-0.229602,-0.0311532,-0.29733,0
2024-11-29 18:13:08.238,0.229711,2.94945,7.53889,-0.230213,-0.0476461,-0.297941,0
2024-11-29 18:13:08.240,0.184247,2.95902,7.60379,-0.230824,-0.0635281,-0.299162,0
2024-11-29 18:13:08.242,0.133998,2.9686,7.66601,-0.229602,-0.0775776,-0.299773,0
2024-11-29 18:13:08.246,0.0957129,2.98295,7.72583,-0.228381,-0.105066,-0.296108,0
2024-11-29 18:13:08.248,0.066999,3.0021,7.77847,-0.228381,-0.105066,-0.296108,0
2024-11-29 18:13:08.251,0.0382852,3.02602,7.84307,-0.224105,-0.117894,-0.291832,0
2024-11-29 18:13:08.253,0.0,3.04517,7.91007,-0.217996,-0.128278,-0.286945,0
2024-11-29 18:13:08.254,-0.040678,3.06192,7.95075,-0.21372,-0.138662,-0.281448,0
2024-11-29 18:13:08.257,-0.081356,3.08854,7.99621,-0.210666,-0.148436,-0.275339,0
2024-11-29 18:13:08.260,-0.114855,3.11486,8.03929,-0.200892,-0.164929,-0.260068,0
2024-11-29 18:13:08.262,-0.136391,3.14596,8.07518,-0.200892,-0.164929,-0.260068,0
2024-11-29 18:13:08.264,-0.160319,3.15553,8.12064,-0.196006,-0.173481,-0.253349,0
2024-11-29 18:13:08.266,-0.167498,3.16271,8.16162,-0.190508,-0.182032,-0.244797,0
2024-11-29 18:13:08.268,-0.167498,3.18664,8.19751,-0.186232,-0.188752,-0.235023,0
2024-11-29 18:13:08.271,-0.165105,3.21296,8.24537,-0.182567,-0.19486,-0.226472,0
2024-11-29 18:13:08.274,-0.143569,3.22732,8.31237,-0.175237,-0.199747,-0.21792,0
2024-11-29 18:13:08.275,-0.12682,3.23689,8.3674,-0.171572,-0.206466,-0.209979,0
2024-11-29 18:13:08.278,-0.117248,3.25843,8.39612,-0.166685,-0.207688,-0.200816,0
2024-11-29 18:13:08.281,-0.0981057,3.28714,8.4344,-0.15569,-0.207077,-0.184934,0
2024-11-29 18:13:08.283,-0.0717847,3.31585,8.48704,-0.15569,-0.207077,-0.184934,0
2024-11-29 18:13:08.286,-0.0502493,3.34457,8.54208,-0.14897,-0.202801,-0.175771,0
2024-11-29 18:13:08.288,-0.026321,3.38046,8.58276,-0.139808,-0.199747,-0.166609,0
2024-11-29 18:13:08.291,-0.0119641,3.41875,8.63301,-0.128202,-0.186308,-0.153781,0
2024-11-29 18:13:08.293,-0.00717847,3.44507,8.68086,-0.128202,-0.186308,-0.153781,0
2024-11-29 18:13:08.294,0.0167498,3.48096,8.71945,-0.120261,-0.177146,-0.14584,0
2024-11-29 18:13:08.297,0.0191426,3.50489,8.76012,-0.109265,-0.166761,-0.137899,0
2024-11-29 18:13:08.299,0.0311067,3.51685,8.79123,-0.0994917,-0.155155,-0.133012,0
2024-11-29 18:13:08.302,0.0765703,3.54078,8.82234,-0.0909399,-0.14416,-0.125682,0
2024-11-29 18:13:08.304,0.107677,3.56471,8.83909,-0.0793338,-0.1295,-0.120795,0
2024-11-29 18:13:08.307,0.143569,3.57189,8.86062,-0.0701711,-0.118504,-0.11713,0
2024-11-29 18:13:08.309,0.189033,3.58385,8.88694,-0.0628409,-0.105677,-0.113465,0
2024-11-29 18:13:08.311,0.210568,3.59103,8.89651,-0.0512348,-0.0940705,-0.109189,0
2024-11-29 18:13:08.314,0.227318,3.61017,8.9013,-0.0420721,-0.0824644,-0.106746,0
2024-11-29 18:13:08.317,0.251246,3.61256,8.9013,-0.0329094,-0.0696366,-0.104913,0
2024-11-29 18:13:08.319,0.272782,3.61256,8.89891,-0.0261901,-0.059863,-0.10308,0
2024-11-29 18:13:08.320,0.285045,3.63171,8.88694,-0.0200816,-0.0513112,-0.100637,0
2024-11-29 18:13:08.324,0.294616,3.64876,8.88694,-0.0176382,-0.0458135,-0.0994154,0
2024-11-29 18:13:08.325,0.299402,3.66072,8.89651,-0.00908635,-0.0384834,-0.0981937,0
2024-11-29 18:13:08.328,0.294616,3.67986,8.90369,-0.00358873,-0.0323749,-0.0957503,0
2024-11-29 18:13:08.330,0.277567,3.71097,8.91087,-0.00114534,-0.0256556,-0.0914744,0
2024-11-29 18:13:08.333,0.248854,3.75165,8.92523,0.000687203,-0.020158,-0.0865876,0
2024-11-29 18:13:08.334,0.229711,3.78754,8.94676,0.00496313,-0.0116061,-0.0829225,0
2024-11-29 18:13:08.337,0.215354,3.82343,8.97069,0.0104608,-0.00183254,-0.0762032,0
2024-11-29 18:13:08.340,0.200997,3.86411,8.99941,0.0153475,0.00549763,-0.068873,0
2024-11-29 18:13:08.342,0.18664,3.90479,9.02094,0.021456,0.0152712,-0.0615429,0
2024-11-29 18:13:08.344,0.189033,3.94068,9.02333,0.0275645,0.028099,-0.052991,0
2024-11-29 18:13:08.346,0.200997,3.96939,9.01376,0.0318404,0.0378725,-0.0456608,0
2024-11-29 18:13:08.349,0.198604,3.99093,9.02573,0.0361163,0.0488678,-0.0401632,0
2024-11-29 18:13:08.352,0.215354,4.02443,9.02573,0.0397814,0.0586413,-0.0346656,0
2024-11-29 18:13:08.354,0.234497,4.06032,9.0018,0.041614,0.0696366,-0.029168,0
2024-11-29 18:13:08.356,0.239282,4.10339,8.98505,0.0483333,0.0794101,-0.0230595,0
2024-11-29 18:13:08.358,0.244068,4.15843,8.96591,0.0489441,0.0861295,-0.0200052,0
2024-11-29 18:13:08.361,0.229711,4.1991,8.95394,0.0513875,0.104455,-0.0120642,0
2024-11-29 18:13:08.363,0.205783,4.24726,8.9348,0.0513875,0.104455,-0.0120642,0
2024-11-29 18:13:08.366,0.200997,4.30947,8.90848,0.0483333,0.120337,-0.00901,0
2024-11-29 18:13:08.367,0.212961,4.36212,8.88934,0.0483333,0.120337,-0.00901,0
2024-11-29 18:13:08.370,0.234497,4.38365,8.89412,0.0465007,0.120948,-0.0077883,0
2024-11-29 18:13:08.373,0.246461,4.41476,8.89412,0.0403923,0.122169,-0.0102317,0
2024-11-29 18:13:08.374,0.253639,4.43869,8.87737,0.0403923,0.122169,-0.0102317,0
2024-11-29 18:13:08.377,0.260818,4.47219,8.8678,0.037338,0.119115,-0.0114534,0
