timestamp,accel_x,accel_y,accel_z,gyro_x,gyro_y,gyro_z,step_timestamp
2024-11-29 18:18:21.201,0.4669,3.32064,11.5182,-0.353604,0.531437,0.449125,0
2024-11-29 18:18:21.201,0.4669,3.32064,11.5182,-0.353604,0.531437,0.449125,0
2024-11-29 18:18:21.201,0.4669,3.32064,11.5182,-0.353604,0.531437,0.449125,0
2024-11-29 18:18:21.201,0.4669,3.32064,11.5182,-0.353604,0.531437,0.449125,0
2024-11-29 18:18:21.201,0.4669,3.32064,11.5182,-0.353604,0.531437,0.449125,0
2024-11-29 18:18:21.201,0.4669,3.32064,11.5182,-0.353604,0.531437,0.449125,0
2024-11-29 18:18:21.201,0.4669,3.32064,11.5182,-0.353604,0.531437,0.449125,0
2024-11-29 18:18:21.201,0.4669,3.32064,11.5182,-0.353604,0.531437,0.449125,0
2024-11-29 18:18:21.201,0.4669,3.32064,11.5182,-0.353604,0.531437,0.449125,0
2024-11-29 18:18:21.201,0.4669,3.32064,11.5182,-0.353604,0.531437,0.449125,0
2024-11-29 18:18:21.201,0.4669,3.32064,11.5182,-0.353604,0.531437,0.449125,0
2024-11-29 18:18:21.201,0.4669,3.32064,11.5182,-0.353604,0.531437,0.449125,0
2024-11-29 18:18:21.201,0.4669,3.32064,11.5182,-0.353604,0.531437,0.449125,0
2024-11-29 18:18:21.201,0.4669,3.32064,11.5182,-0.353604,0.531437,0.449125,0
2024-11-29 18:18:21.202,0.608076,3.20339,11.7359,-0.353604,0.531437,0.449125,0
2024-11-29 18:18:21.202,0.608076,3.20339,11.7359,-0.353604,0.531437,0.449125,0
2024-11-29 18:18:21.202,0.608076,3.20339,11.7359,-0.353604,0.531437,0.449125,0
2024-11-29 18:18:21.202,0.608076,3.20339,11.7359,-0.353604,0.531437,0.449125,0
2024-11-29 18:18:21.202,0.608076,3.20339,11.7359,-0.353604,0.531437,0.449125,0
2024-11-29 18:18:21.202,0.608076,3.20339,11.7359,-0.353604,0.531437,0.449125,0
2024-11-29 18:18:21.203,0.608076,3.20339,11.7359,-0.375595,0.456303,0.42347,0
2024-11-29 18:18:21.203,0.608076,3.20339,11.7359,-0.375595,0.456303,0.42347,0
2024-11-29 18:18:21.203,0.608076,3.20339,11.7359,-0.375595,0.456303,0.42347,0
2024-11-29 18:18:21.203,0.608076,3.20339,11.7359,-0.375595,0.456303,0.42347,0
2024-11-29 18:18:21.203,0.608076,3.20339,11.7359,-0.375595,0.456303,0.42347,0
2024-11-29 18:18:21.203,0.608076,3.20339,11.7359,-0.375595,0.456303,0.42347,0
2024-11-29 18:18:21.205,0.744467,3.06431,11.9991,-0.375595,0.456303,0.42347,0
2024-11-29 18:18:21.205,0.744467,3.06431,11.9991,-0.375595,0.456303,0.42347,0
2024-11-29 18:18:21.205,0.744467,3.06431,11.9991,-0.375595,0.456303,0.42347,0
2024-11-29 18:18:21.205,0.744467,3.06431,11.9991,-0.375595,0.456303,0.42347,0
2024-11-29 18:18:21.205,0.744467,3.06431,11.9991,-0.375595,0.456303,0.42347,0
2024-11-29 18:18:21.206,0.744467,3.06431,11.9991,-0.395142,0.379947,0.395371,0
2024-11-29 18:18:21.206,0.744467,3.06431,11.9991,-0.395142,0.379947,0.395371,0
2024-11-29 18:18:21.206,0.744467,3.06431,11.9991,-0.395142,0.379947,0.395371,0
2024-11-29 18:18:21.206,0.744467,3.06431,11.9991,-0.395142,0.379947,0.395371,0
2024-11-29 18:18:21.206,0.744467,3.06431,11.9991,-0.395142,0.379947,0.395371,0
2024-11-29 18:18:21.206,0.744467,3.06431,11.9991,-0.395142,0.379947,0.395371,0
2024-11-29 18:18:21.206,0.744467,3.06431,11.9991,-0.395142,0.379947,0.395371,0
2024-11-29 18:18:21.206,0.744467,3.06431,11.9991,-0.395142,0.379947,0.395371,0
2024-11-29 18:18:21.206,0.744467,3.06431,11.9991,-0.395142,0.379947,0.395371,0
2024-11-29 18:18:21.207,0.852443,2.95185,12.2746,-0.395142,0.379947,0.395371,0
2024-11-29 18:18:21.207,0.852443,2.95185,12.2746,-0.395142,0.379947,0.395371,0
2024-11-29 18:18:21.207,0.852443,2.95185,12.2746,-0.395142,0.379947,0.395371,0
2024-11-29 18:18:21.207,0.852443,2.95185,12.2746,-0.395142,0.379947,0.395371,0
2024-11-29 18:18:21.207,0.852443,2.95185,12.2746,-0.395142,0.379947,0.395371,0
2024-11-29 18:18:21.208,0.852443,2.95185,12.2746,-0.395142,0.379947,0.395371,0
2024-11-29 18:18:21.208,0.852443,2.95185,12.2746,-0.395142,0.379947,0.395371,0
2024-11-29 18:18:21.208,0.852443,2.95185,12.2746,-0.395142,0.379947,0.395371,0
2024-11-29 18:18:21.208,0.852443,2.95185,12.2746,-0.395142,0.379947,0.395371,0
2024-11-29 18:18:21.208,0.852443,2.95185,12.2746,-0.395142,0.379947,0.395371,0
2024-11-29 18:18:21.208,0.852443,2.95185,12.2746,-0.395142,0.379947,0.395371,0
2024-11-29 18:18:21.208,0.852443,2.95185,12.2746,-0.395142,0.379947,0.395371,0
2024-11-29 18:18:21.209,0.945763,2.87528,12.588,-0.411635,0.300537,0.362996,0
2024-11-29 18:18:21.209,0.945763,2.87528,12.588,-0.411635,0.300537,0.362996,0
2024-11-29 18:18:21.209,0.945763,2.87528,12.588,-0.411635,0.300537,0.362996,0
2024-11-29 18:18:21.210,0.945763,2.87528,12.588,-0.421408,0.221127,0.328789,0
2024-11-29 18:18:21.210,0.945763,2.87528,12.588,-0.421408,0.221127,0.328789,0
2024-11-29 18:18:21.210,0.945763,2.87528,12.588,-0.421408,0.221127,0.328789,0
2024-11-29 18:18:21.210,0.945763,2.87528,12.588,-0.421408,0.221127,0.328789,0
2024-11-29 18:18:21.210,0.945763,2.87528,12.588,-0.421408,0.221127,0.328789,0
2024-11-29 18:18:21.210,0.945763,2.87528,12.588,-0.421408,0.221127,0.328789,0
2024-11-29 18:18:21.212,1.02951,2.79392,12.9497,-0.421408,0.221127,0.328789,0
2024-11-29 18:18:21.212,1.02951,2.79392,12.9497,-0.421408,0.221127,0.328789,0
2024-11-29 18:18:21.213,1.02951,2.79392,12.9497,-0.425073,0.14416,0.291527,0
2024-11-29 18:18:21.213,1.02951,2.79392,12.9497,-0.425073,0.14416,0.291527,0
2024-11-29 18:18:21.213,1.02951,2.79392,12.9497,-0.425073,0.14416,0.291527,0
2024-11-29 18:18:21.213,1.02951,2.79392,12.9497,-0.425073,0.14416,0.291527,0
2024-11-29 18:18:21.213,1.02951,2.79392,12.9497,-0.425073,0.14416,0.291527,0
2024-11-29 18:18:21.214,1.08215,2.70539,13.3472,-0.425073,0.14416,0.291527,0
2024-11-29 18:18:21.214,1.08215,2.70539,13.3472,-0.425073,0.14416,0.291527,0
2024-11-29 18:18:21.214,1.08215,2.70539,13.3472,-0.425073,0.14416,0.291527,0
2024-11-29 18:18:21.214,1.08215,2.70539,13.3472,-0.425073,0.14416,0.291527,0
2024-11-29 18:18:21.215,1.08215,2.70539,13.3472,-0.421408,0.0763559,0.254876,0
2024-11-29 18:18:21.215,1.08215,2.70539,13.3472,-0.421408,0.0763559,0.254876,0
2024-11-29 18:18:21.215,1.08215,2.70539,13.3472,-0.421408,0.0763559,0.254876,0
2024-11-29 18:18:21.215,1.08215,2.70539,13.3472,-0.421408,0.0763559,0.254876,0
2024-11-29 18:18:21.216,1.11565,2.62164,13.7444,-0.421408,0.0763559,0.254876,0
2024-11-29 18:18:21.216,1.11565,2.62164,13.7444,-0.421408,0.0763559,0.254876,0
2024-11-29 18:18:21.217,1.11565,2.62164,13.7444,-0.421408,0.0763559,0.254876,0
2024-11-29 18:18:21.217,1.11565,2.62164,13.7444,-0.421408,0.0763559,0.254876,0
2024-11-29 18:18:21.217,1.11565,2.62164,13.7444,-0.421408,0.0763559,0.254876,0
2024-11-29 18:18:21.217,1.11565,2.62164,13.7444,-0.421408,0.0763559,0.254876,0
2024-11-29 18:18:21.217,1.11565,2.62164,13.7444,-0.421408,0.0763559,0.254876,0
2024-11-29 18:18:21.219,1.15394,2.54028,14.1586,-0.40858,0.0195471,0.219447,0
2024-11-29 18:18:21.219,1.15394,2.54028,14.1586,-0.40858,0.0195471,0.219447,0
2024-11-29 18:18:21.219,1.15394,2.54028,14.1586,-0.40858,0.0195471,0.219447,0
2024-11-29 18:18:21.220,1.15394,2.54028,14.1586,-0.38659,-0.028099,0.184629,0
2024-11-29 18:18:21.220,1.15394,2.54028,14.1586,-0.38659,-0.028099,0.184629,0
2024-11-29 18:18:21.220,1.15394,2.54028,14.1586,-0.38659,-0.028099,0.184629,0
2024-11-29 18:18:21.220,1.15394,2.54028,14.1586,-0.38659,-0.028099,0.184629,0
2024-11-29 18:18:21.220,1.15394,2.54028,14.1586,-0.38659,-0.028099,0.184629,0
2024-11-29 18:18:21.221,1.16112,2.46341,14.5968,-0.38659,-0.028099,0.184629,0
2024-11-29 18:18:21.221,1.16112,2.46341,14.5968,-0.38659,-0.028099,0.184629,0
2024-11-29 18:18:21.221,1.16112,2.46341,14.5968,-0.38659,-0.028099,0.184629,0
2024-11-29 18:18:21.222,1.16112,2.46341,14.5968,-0.356658,-0.0647498,0.15714,0
2024-11-29 18:18:21.222,1.16112,2.46341,14.5968,-0.356658,-0.0647498,0.15714,0
2024-11-29 18:18:21.222,1.16112,2.46341,14.5968,-0.356658,-0.0647498,0.15714,0
2024-11-29 18:18:21.222,1.16112,2.46341,14.5968,-0.356658,-0.0647498,0.15714,0
2024-11-29 18:18:21.222,1.16112,2.46341,14.5968,-0.356658,-0.0647498,0.15714,0
2024-11-29 18:18:21.223,1.13719,2.3677,14.9895,-0.356658,-0.0647498,0.15714,0
2024-11-29 18:18:21.223,1.13719,2.3677,14.9895,-0.356658,-0.0647498,0.15714,0
2024-11-29 18:18:21.223,1.13719,2.3677,14.9895,-0.356658,-0.0647498,0.15714,0
2024-11-29 18:18:21.224,1.13719,2.3677,14.9895,-0.356658,-0.0647498,0.15714,0
2024-11-29 18:18:21.224,1.13719,2.3677,14.9895,-0.356658,-0.0647498,0.15714,0
2024-11-29 18:18:21.224,1.13719,2.3677,14.9895,-0.356658,-0.0647498,0.15714,0
2024-11-29 18:18:21.226,1.12522,2.2337,15.315,-0.319397,-0.0855186,0.130874,0
2024-11-29 18:18:21.227,1.12522,2.2337,15.315,-0.269918,-0.0910162,0.108273,0
2024-11-29 18:18:21.227,1.12522,2.2337,15.315,-0.269918,-0.0910162,0.108273,0
2024-11-29 18:18:21.228,1.08215,2.08535,15.5713,-0.269918,-0.0910162,0.108273,0
2024-11-29 18:18:21.228,1.08215,2.08535,15.5713,-0.269918,-0.0910162,0.108273,0
2024-11-29 18:18:21.228,1.08215,2.08535,15.5713,-0.269918,-0.0910162,0.108273,0
2024-11-29 18:18:21.228,1.08215,2.08535,15.5713,-0.269918,-0.0910162,0.108273,0
2024-11-29 18:18:21.229,1.08215,2.08535,15.5713,-0.216774,-0.0818535,0.0893364,0
2024-11-29 18:18:21.229,1.08215,2.08535,15.5713,-0.216774,-0.0818535,0.0893364,0
2024-11-29 18:18:21.229,1.08215,2.08535,15.5713,-0.216774,-0.0818535,0.0893364,0
2024-11-29 18:18:21.229,1.08215,2.08535,15.5713,-0.216774,-0.0818535,0.0893364,0
2024-11-29 18:18:21.231,1.01755,1.94387,15.7555,-0.216774,-0.0818535,0.0893364,0
2024-11-29 18:18:21.231,1.01755,1.94387,15.7555,-0.216774,-0.0818535,0.0893364,0
2024-11-29 18:18:21.231,1.01755,1.94387,15.7555,-0.216774,-0.0818535,0.0893364,0
2024-11-29 18:18:21.231,1.01755,1.94387,15.7555,-0.216774,-0.0818535,0.0893364,0
2024-11-29 18:18:21.232,1.01755,1.94387,15.7555,-0.156911,-0.0568088,0.078952,0
2024-11-29 18:18:21.232,1.01755,1.94387,15.7555,-0.156911,-0.0568088,0.078952,0
2024-11-29 18:18:21.232,1.01755,1.94387,15.7555,-0.156911,-0.0568088,0.078952,0
2024-11-29 18:18:21.232,1.01755,1.94387,15.7555,-0.156911,-0.0568088,0.078952,0
2024-11-29 18:18:21.232,1.01755,1.94387,15.7555,-0.156911,-0.0568088,0.078952,0
2024-11-29 18:18:21.232,1.01755,1.94387,15.7555,-0.156911,-0.0568088,0.078952,0
2024-11-29 18:18:21.233,0.952942,1.81705,15.8991,-0.156911,-0.0568088,0.078952,0
2024-11-29 18:18:21.233,0.952942,1.81705,15.8991,-0.156911,-0.0568088,0.078952,0
2024-11-29 18:18:21.233,0.952942,1.81705,15.8991,-0.156911,-0.0568088,0.078952,0
2024-11-29 18:18:21.233,0.952942,1.81705,15.8991,-0.156911,-0.0568088,0.078952,0
2024-11-29 18:18:21.234,0.952942,1.81705,15.8991,-0.0927724,-0.0183254,0.0691785,0
2024-11-29 18:18:21.234,0.952942,1.81705,15.8991,-0.0927724,-0.0183254,0.0691785,0
2024-11-29 18:18:21.234,0.952942,1.81705,15.8991,-0.0927724,-0.0183254,0.0691785,0
2024-11-29 18:18:21.234,0.952942,1.81705,15.8991,-0.0927724,-0.0183254,0.0691785,0
2024-11-29 18:18:21.234,0.952942,1.81705,15.8991,-0.0927724,-0.0183254,0.0691785,0
2024-11-29 18:18:21.235,0.890728,1.70219,16.0119,-0.0927724,-0.0183254,0.0691785,0
2024-11-29 18:18:21.235,0.890728,1.70219,16.0119,-0.0927724,-0.0183254,0.0691785,0
2024-11-29 18:18:21.235,0.890728,1.70219,16.0119,-0.0927724,-0.0183254,0.0691785,0
2024-11-29 18:18:21.235,0.890728,1.70219,16.0119,-0.0927724,-0.0183254,0.0691785,0
2024-11-29 18:18:21.235,0.890728,1.70219,16.0119,-0.0927724,-0.0183254,0.0691785,0
2024-11-29 18:18:21.236,0.890728,1.70219,16.0119,-0.030466,0.0219905,0.0642917,0
2024-11-29 18:18:21.236,0.890728,1.70219,16.0119,-0.030466,0.0219905,0.0642917,0
2024-11-29 18:18:21.236,0.890728,1.70219,16.0119,-0.030466,0.0219905,0.0642917,0
2024-11-29 18:18:21.236,0.890728,1.70219,16.0119,-0.030466,0.0219905,0.0642917,0
2024-11-29 18:18:21.236,0.890728,1.70219,16.0119,-0.030466,0.0219905,0.0642917,0
2024-11-29 18:18:21.238,0.835394,1.56341,16.0908,-0.030466,0.0219905,0.0642917,0
2024-11-29 18:18:21.238,0.835394,1.56341,16.0908,-0.030466,0.0219905,0.0642917,0
2024-11-29 18:18:21.239,0.835394,1.56341,16.0908,0.0379489,0.0665824,0.0642917,0
2024-11-29 18:18:21.239,0.835394,1.56341,16.0908,0.0379489,0.0665824,0.0642917,0
2024-11-29 18:18:21.239,0.835394,1.56341,16.0908,0.0379489,0.0665824,0.0642917,0
2024-11-29 18:18:21.239,0.835394,1.56341,16.0908,0.0379489,0.0665824,0.0642917,0
2024-11-29 18:18:21.239,0.835394,1.56341,16.0908,0.0379489,0.0665824,0.0642917,0
2024-11-29 18:18:21.239,0.835394,1.56341,16.0908,0.0379489,0.0665824,0.0642917,0
2024-11-29 18:18:21.240,0.785145,1.40548,16.1315,0.0379489,0.0665824,0.0642917,0
2024-11-29 18:18:21.240,0.785145,1.40548,16.1315,0.0379489,0.0665824,0.0642917,0
2024-11-29 18:18:21.240,0.785145,1.40548,16.1315,0.0379489,0.0665824,0.0642917,0
2024-11-29 18:18:21.240,0.785145,1.40548,16.1315,0.0379489,0.0665824,0.0642917,0
2024-11-29 18:18:21.241,0.785145,1.40548,16.1315,0.107585,0.111785,0.0661242,0
2024-11-29 18:18:21.241,0.785145,1.40548,16.1315,0.107585,0.111785,0.0661242,0
2024-11-29 18:18:21.241,0.785145,1.40548,16.1315,0.107585,0.111785,0.0661242,0
2024-11-29 18:18:21.241,0.785145,1.40548,16.1315,0.107585,0.111785,0.0661242,0
2024-11-29 18:18:21.241,0.785145,1.40548,16.1315,0.107585,0.111785,0.0661242,0
2024-11-29 18:18:21.241,0.785145,1.40548,16.1315,0.107585,0.111785,0.0661242,0
2024-11-29 18:18:21.241,0.785145,1.40548,16.1315,0.107585,0.111785,0.0661242,0
2024-11-29 18:18:21.242,0.766002,1.21376,16.043,0.107585,0.111785,0.0661242,0
2024-11-29 18:18:21.242,0.766002,1.21376,16.043,0.107585,0.111785,0.0661242,0
2024-11-29 18:18:21.242,0.766002,1.21376,16.043,0.107585,0.111785,0.0661242,0
2024-11-29 18:18:21.242,0.766002,1.21376,16.043,0.107585,0.111785,0.0661242,0
2024-11-29 18:18:21.243,0.766002,1.21376,16.043,0.174168,0.161264,0.0716218,0
2024-11-29 18:18:21.243,0.766002,1.21376,16.043,0.174168,0.161264,0.0716218,0
2024-11-29 18:18:21.243,0.766002,1.21376,16.043,0.174168,0.161264,0.0716218,0
2024-11-29 18:18:21.243,0.766002,1.21376,16.043,0.174168,0.161264,0.0716218,0
2024-11-29 18:18:21.245,0.768395,1.00798,15.9111,0.174168,0.161264,0.0716218,0
2024-11-29 18:18:21.245,0.768395,1.00798,15.9111,0.174168,0.161264,0.0716218,0
2024-11-29 18:18:21.245,0.768395,1.00798,15.9111,0.174168,0.161264,0.0716218,0
2024-11-29 18:18:21.246,0.768395,1.00798,15.9111,0.243804,0.213797,0.078952,0
2024-11-29 18:18:21.246,0.768395,1.00798,15.9111,0.243804,0.213797,0.078952,0
2024-11-29 18:18:21.246,0.768395,1.00798,15.9111,0.243804,0.213797,0.078952,0
2024-11-29 18:18:21.246,0.768395,1.00798,15.9111,0.243804,0.213797,0.078952,0
2024-11-29 18:18:21.246,0.768395,1.00798,15.9111,0.243804,0.213797,0.078952,0
2024-11-29 18:18:21.246,0.768395,1.00798,15.9111,0.243804,0.213797,0.078952,0
2024-11-29 18:18:21.247,0.766002,0.816252,15.7244,0.243804,0.213797,0.078952,0
2024-11-29 18:18:21.247,0.766002,0.816252,15.7244,0.243804,0.213797,0.078952,0
2024-11-29 18:18:21.247,0.766002,0.816252,15.7244,0.243804,0.213797,0.078952,0
2024-11-29 18:18:21.247,0.766002,0.816252,15.7244,0.243804,0.213797,0.078952,0
2024-11-29 18:18:21.247,0.766002,0.816252,15.7244,0.243804,0.213797,0.078952,0
2024-11-29 18:18:21.247,0.766002,0.816252,15.7244,0.243804,0.213797,0.078952,0
2024-11-29 18:18:21.248,0.766002,0.816252,15.7244,0.303667,0.263886,0.086893,0
2024-11-29 18:18:21.248,0.766002,0.816252,15.7244,0.303667,0.263886,0.086893,0
2024-11-29 18:18:21.248,0.766002,0.816252,15.7244,0.303667,0.263886,0.086893,0
2024-11-29 18:18:21.248,0.766002,0.816252,15.7244,0.303667,0.263886,0.086893,0
2024-11-29 18:18:21.249,0.761217,0.622433,15.466,0.303667,0.263886,0.086893,0
2024-11-29 18:18:21.249,0.761217,0.622433,15.466,0.303667,0.263886,0.086893,0
2024-11-29 18:18:21.249,0.761217,0.622433,15.466,0.303667,0.263886,0.086893,0
2024-11-29 18:18:21.249,0.761217,0.622433,15.466,0.303667,0.263886,0.086893,0
2024-11-29 18:18:21.249,0.761217,0.622433,15.466,0.303667,0.263886,0.086893,0
2024-11-29 18:18:21.250,0.761217,0.622433,15.466,0.303667,0.263886,0.086893,0
2024-11-29 18:18:21.250,0.761217,0.622433,15.466,0.303667,0.263886,0.086893,0
2024-11-29 18:18:21.250,0.761217,0.622433,15.466,0.303667,0.263886,0.086893,0
2024-11-29 18:18:21.250,0.761217,0.622433,15.466,0.303667,0.263886,0.086893,0
2024-11-29 18:18:21.250,0.761217,0.622433,15.466,0.303667,0.263886,0.086893,0
2024-11-29 18:18:21.250,0.761217,0.622433,15.466,0.303667,0.263886,0.086893,0
2024-11-29 18:18:21.250,0.766002,0.816252,15.7244,0.303667,0.263886,0.086893,0
2024-11-29 18:18:21.252,0.761217,0.45015,15.2145,0.360476,0.317641,0.0972774,0
2024-11-29 18:18:21.252,0.761217,0.45015,15.2145,0.360476,0.317641,0.0972774,0
2024-11-29 18:18:21.253,0.761217,0.45015,15.2145,0.415452,0.372006,0.107662,0
2024-11-29 18:18:21.253,0.761217,0.45015,15.2145,0.415452,0.372006,0.107662,0
2024-11-29 18:18:21.253,0.761217,0.45015,15.2145,0.415452,0.372006,0.107662,0
2024-11-29 18:18:21.253,0.761217,0.45015,15.2145,0.415452,0.372006,0.107662,0
2024-11-29 18:18:21.254,0.739681,0.318545,14.9154,0.415452,0.372006,0.107662,0
2024-11-29 18:18:21.254,0.739681,0.318545,14.9154,0.415452,0.372006,0.107662,0
2024-11-29 18:18:21.254,0.739681,0.318545,14.9154,0.415452,0.372006,0.107662,0
2024-11-29 18:18:21.254,0.739681,0.318545,14.9154,0.415452,0.372006,0.107662,0
2024-11-29 18:18:21.255,0.739681,0.318545,14.9154,0.463099,0.423928,0.118657,0
2024-11-29 18:18:21.255,0.739681,0.318545,14.9154,0.463099,0.423928,0.118657,0
2024-11-29 18:18:21.255,0.739681,0.318545,14.9154,0.463099,0.423928,0.118657,0
2024-11-29 18:18:21.255,0.739681,0.318545,14.9154,0.463099,0.423928,0.118657,0
2024-11-29 18:18:21.255,0.739681,0.318545,14.9154,0.463099,0.423928,0.118657,0
2024-11-29 18:18:21.255,0.739681,0.318545,14.9154,0.463099,0.423928,0.118657,0
2024-11-29 18:18:21.255,0.739681,0.318545,14.9154,0.463099,0.423928,0.118657,0
2024-11-29 18:18:21.256,0.699003,0.212961,14.5657,0.463099,0.423928,0.118657,0
2024-11-29 18:18:21.256,0.699003,0.212961,14.5657,0.463099,0.423928,0.118657,0
2024-11-29 18:18:21.256,0.699003,0.212961,14.5657,0.463099,0.423928,0.118657,0
2024-11-29 18:18:21.257,0.699003,0.212961,14.5657,0.463099,0.423928,0.118657,0
2024-11-29 18:18:21.257,0.699003,0.212961,14.5657,0.463099,0.423928,0.118657,0
2024-11-29 18:18:21.257,0.699003,0.212961,14.5657,0.463099,0.423928,0.118657,0
2024-11-29 18:18:21.257,0.699003,0.212961,14.5657,0.463099,0.423928,0.118657,0
2024-11-29 18:18:21.257,0.699003,0.212961,14.5657,0.463099,0.423928,0.118657,0
2024-11-29 18:18:21.257,0.699003,0.212961,14.5657,0.463099,0.423928,0.118657,0
2024-11-29 18:18:21.259,0.646361,0.12682,14.228,0.50769,0.474628,0.131485,0
2024-11-29 18:18:21.259,0.646361,0.12682,14.228,0.50769,0.474628,0.131485,0
2024-11-29 18:18:21.259,0.646361,0.12682,14.228,0.50769,0.474628,0.131485,0
2024-11-29 18:18:21.259,0.646361,0.12682,14.228,0.50769,0.474628,0.131485,0
2024-11-29 18:18:21.259,0.646361,0.12682,14.228,0.50769,0.474628,0.131485,0
2024-11-29 18:18:21.259,0.646361,0.12682,14.228,0.50769,0.474628,0.131485,0
2024-11-29 18:18:21.260,0.646361,0.12682,14.228,0.544952,0.51922,0.149199,0
2024-11-29 18:18:21.260,0.646361,0.12682,14.228,0.544952,0.51922,0.149199,0
2024-11-29 18:18:21.260,0.646361,0.12682,14.228,0.544952,0.51922,0.149199,0
2024-11-29 18:18:21.260,0.646361,0.12682,14.228,0.544952,0.51922,0.149199,0
2024-11-29 18:18:21.261,0.598505,0.0598206,13.9146,0.544952,0.51922,0.149199,0
2024-11-29 18:18:21.261,0.598505,0.0598206,13.9146,0.544952,0.51922,0.149199,0
2024-11-29 18:18:21.261,0.598505,0.0598206,13.9146,0.544952,0.51922,0.149199,0
2024-11-29 18:18:21.261,0.598505,0.0598206,13.9146,0.544952,0.51922,0.149199,0
2024-11-29 18:18:21.262,0.598505,0.0598206,13.9146,0.577327,0.564423,0.167525,0
2024-11-29 18:18:21.262,0.598505,0.0598206,13.9146,0.577327,0.564423,0.167525,0
2024-11-29 18:18:21.262,0.598505,0.0598206,13.9146,0.577327,0.564423,0.167525,0
2024-11-29 18:18:21.262,0.598505,0.0598206,13.9146,0.577327,0.564423,0.167525,0
2024-11-29 18:18:21.263,0.548256,0.0167498,13.5912,0.577327,0.564423,0.167525,0
2024-11-29 18:18:21.263,0.548256,0.0167498,13.5912,0.577327,0.564423,0.167525,0
2024-11-29 18:18:21.263,0.548256,0.0167498,13.5912,0.577327,0.564423,0.167525,0
2024-11-29 18:18:21.263,0.548256,0.0167498,13.5912,0.577327,0.564423,0.167525,0
2024-11-29 18:18:21.263,0.548256,0.0167498,13.5912,0.577327,0.564423,0.167525,0
2024-11-29 18:18:21.264,0.548256,0.0167498,13.5912,0.577327,0.564423,0.167525,0
2024-11-29 18:18:21.264,0.548256,0.0167498,13.5912,0.577327,0.564423,0.167525,0
2024-11-29 18:18:21.264,0.548256,0.0167498,13.5912,0.577327,0.564423,0.167525,0
2024-11-29 18:18:21.264,0.548256,0.0167498,13.5912,0.577327,0.564423,0.167525,0
2024-11-29 18:18:21.264,0.548256,0.0167498,13.5912,0.577327,0.564423,0.167525,0
2024-11-29 18:18:21.266,0.500399,-0.0167498,13.2897,0.607259,0.604739,0.184018,0
2024-11-29 18:18:21.266,0.548256,-0.0167498,13.2897,0.607259,0.604739,0.184018,0
2024-11-29 18:18:21.266,0.500399,-0.0167498,13.2897,0.607259,0.604739,0.184018,0
2024-11-29 18:18:21.266,0.500399,-0.0167498,13.2897,0.607259,0.604739,0.184018,0
2024-11-29 18:18:21.266,0.500399,-0.0167498,13.2897,0.607259,0.604739,0.184018,0
2024-11-29 18:18:21.267,0.500399,-0.0167498,13.2897,0.630471,0.642,0.202343,0
2024-11-29 18:18:21.267,0.500399,-0.0167498,13.2897,0.630471,0.642,0.202343,0
2024-11-29 18:18:21.267,0.500399,-0.0167498,13.2897,0.630471,0.642,0.202343,0
2024-11-29 18:18:21.268,0.488435,-0.0191426,13.0047,0.607259,0.642,0.202343,0
2024-11-29 18:18:21.268,0.488435,-0.0191426,13.0047,0.607259,0.642,0.202343,0
2024-11-29 18:18:21.268,0.488435,-0.0191426,13.0047,0.607259,0.642,0.202343,0
2024-11-29 18:18:21.268,0.488435,-0.0191426,13.0047,0.607259,0.642,0.202343,0
2024-11-29 18:18:21.269,0.488435,-0.0191426,13.0047,0.653072,0.673154,0.218225,0
2024-11-29 18:18:21.269,0.488435,-0.0191426,13.0047,0.653072,0.673154,0.218225,0
2024-11-29 18:18:21.269,0.488435,-0.0191426,13.0047,0.653072,0.673154,0.218225,0
2024-11-29 18:18:21.269,0.488435,-0.0191426,13.0047,0.653072,0.673154,0.218225,0
2024-11-29 18:18:21.269,0.488435,-0.0191426,13.0047,0.653072,0.673154,0.218225,0
2024-11-29 18:18:21.269,0.488435,-0.0191426,13.0047,0.653072,0.673154,0.218225,0
2024-11-29 18:18:21.271,0.469292,-0.0167498,12.7176,0.653072,0.673154,0.218225,0
2024-11-29 18:18:21.271,0.469292,-0.0167498,12.7176,0.653072,0.673154,0.218225,0
2024-11-29 18:18:21.271,0.469292,-0.0167498,12.7176,0.653072,0.673154,0.218225,0
2024-11-29 18:18:21.271,0.469292,-0.0167498,12.7176,0.653072,0.673154,0.218225,0
2024-11-29 18:18:21.271,0.469292,-0.0167498,12.7176,0.653072,0.673154,0.218225,0
2024-11-29 18:18:21.271,0.469292,-0.0167498,12.7176,0.653072,0.673154,0.218225,0
2024-11-29 18:18:21.272,0.469292,-0.0167498,12.7176,0.670176,0.703085,0.234107,0
2024-11-29 18:18:21.272,0.469292,-0.0167498,12.7176,0.670176,0.703085,0.234107,0
2024-11-29 18:18:21.272,0.469292,-0.0167498,12.7176,0.670176,0.703085,0.234107,0
2024-11-29 18:18:21.272,0.469292,-0.0167498,12.7176,0.670176,0.703085,0.234107,0
2024-11-29 18:18:21.273,0.447757,-0.0239282,12.4612,0.670176,0.703085,0.234107,0
2024-11-29 18:18:21.273,0.447757,-0.0239282,12.4612,0.670176,0.703085,0.234107,0
2024-11-29 18:18:21.273,0.447757,-0.0239282,12.4612,0.670176,0.703085,0.234107,0
2024-11-29 18:18:21.274,0.447757,-0.0239282,12.4612,0.686058,0.730573,0.248768,0
2024-11-29 18:18:21.274,0.447757,-0.0239282,12.4612,0.686058,0.730573,0.248768,0
2024-11-29 18:18:21.274,0.447757,-0.0239282,12.4612,0.686058,0.730573,0.248768,0
2024-11-29 18:18:21.274,0.447757,-0.0239282,12.4612,0.686058,0.730573,0.248768,0
2024-11-29 18:18:21.274,0.447757,-0.0239282,12.4612,0.686058,0.730573,0.248768,0
2024-11-29 18:18:21.274,0.447757,-0.0239282,12.4612,0.686058,0.730573,0.248768,0
2024-11-29 18:18:21.275,0.428614,-0.00717847,12.265,0.686058,0.730573,0.248768,0
2024-11-29 18:18:21.275,0.428614,-0.00717847,12.265,0.686058,0.730573,0.248768,0
2024-11-29 18:18:21.275,0.428614,-0.00717847,12.265,0.686058,0.730573,0.248768,0
2024-11-29 18:18:21.276,0.428614,-0.00717847,12.265,0.704383,0.76417,0.263428,0
2024-11-29 18:18:21.276,0.428614,-0.00717847,12.265,0.704383,0.76417,0.263428,0
2024-11-29 18:18:21.276,0.428614,-0.00717847,12.265,0.704383,0.76417,0.263428,0
2024-11-29 18:18:21.276,0.428614,-0.00717847,12.265,0.704383,0.76417,0.263428,0
2024-11-29 18:18:21.276,0.428614,-0.00717847,12.265,0.704383,0.76417,0.263428,0
2024-11-29 18:18:21.276,0.428614,-0.00717847,12.265,0.704383,0.76417,0.263428,0
2024-11-29 18:18:21.276,0.428614,-0.00717847,12.265,0.704383,0.76417,0.263428,0
2024-11-29 18:18:21.278,0.392722,0.0382852,12.1095,0.704383,0.76417,0.263428,0
2024-11-29 18:18:21.278,0.392722,0.0382852,12.1095,0.704383,0.76417,0.263428,0
2024-11-29 18:18:21.278,0.392722,0.0382852,12.1095,0.704383,0.76417,0.263428,0
2024-11-29 18:18:21.278,0.392722,0.0382852,12.1095,0.704383,0.76417,0.263428,0
2024-11-29 18:18:21.278,0.392722,0.0382852,12.1095,0.704383,0.76417,0.263428,0
2024-11-29 18:18:21.279,0.392722,0.0382852,12.1095,0.724541,0.798988,0.275645,0
2024-11-29 18:18:21.279,0.392722,0.0382852,12.1095,0.724541,0.798988,0.275645,0
2024-11-29 18:18:21.279,0.392722,0.0382852,12.1095,0.724541,0.798988,0.275645,0
2024-11-29 18:18:21.279,0.392722,0.0382852,12.1095,0.724541,0.798988,0.275645,0
2024-11-29 18:18:21.280,0.368794,0.112463,11.9489,0.724541,0.798988,0.275645,0
2024-11-29 18:18:21.280,0.368794,0.112463,11.9489,0.724541,0.798988,0.275645,0
2024-11-29 18:18:21.280,0.368794,0.112463,11.9489,0.724541,0.798988,0.275645,0
2024-11-29 18:18:21.280,0.368794,0.112463,11.9489,0.724541,0.798988,0.275645,0
2024-11-29 18:18:21.280,0.368794,0.112463,11.9489,0.724541,0.798988,0.275645,0
2024-11-29 18:18:21.281,0.368794,0.112463,11.9489,0.744088,0.837472,0.285418,0
2024-11-29 18:18:21.281,0.368794,0.112463,11.9489,0.744088,0.837472,0.285418,0
2024-11-29 18:18:21.281,0.368794,0.112463,11.9489,0.744088,0.837472,0.285418,0
2024-11-29 18:18:21.281,0.368794,0.112463,11.9489,0.744088,0.837472,0.285418,0
2024-11-29 18:18:21.281,0.368794,0.112463,11.9489,0.744088,0.837472,0.285418,0
2024-11-29 18:18:21.282,0.332901,0.18664,11.7909,0.744088,0.837472,0.285418,0
2024-11-29 18:18:21.282,0.332901,0.18664,11.7909,0.744088,0.837472,0.285418,0
2024-11-29 18:18:21.283,0.332901,0.18664,11.7909,0.744088,0.837472,0.285418,0
2024-11-29 18:18:21.283,0.332901,0.18664,11.7909,0.744088,0.837472,0.285418,0
2024-11-29 18:18:21.283,0.332901,0.18664,11.7909,0.744088,0.837472,0.285418,0
2024-11-29 18:18:21.283,0.332901,0.18664,11.7909,0.744088,0.837472,0.285418,0
2024-11-29 18:18:21.285,0.289831,0.244068,11.6354,0.769133,0.885118,0.297024,0
2024-11-29 18:18:21.285,0.289831,0.244068,11.6354,0.769133,0.885118,0.297024,0
2024-11-29 18:18:21.285,0.289831,0.244068,11.6354,0.769133,0.885118,0.297024,0
2024-11-29 18:18:21.286,0.289831,0.244068,11.6354,0.79601,0.937651,0.306187,0
2024-11-29 18:18:21.286,0.289831,0.244068,11.6354,0.79601,0.937651,0.306187,0
2024-11-29 18:18:21.286,0.289831,0.244068,11.6354,0.79601,0.937651,0.306187,0
2024-11-29 18:18:21.286,0.289831,0.244068,11.6354,0.79601,0.937651,0.306187,0
2024-11-29 18:18:21.287,0.267996,0.289831,11.4724,0.79601,0.937651,0.306187,0
2024-11-29 18:18:21.287,0.289831,0.244068,11.6354,0.79601,0.937651,0.306187,0
2024-11-29 18:18:21.287,0.267996,0.289831,11.4724,0.79601,0.937651,0.306187,0
2024-11-29 18:18:21.288,0.267996,0.289831,11.4724,0.82472,0.992016,0.312907,0
2024-11-29 18:18:21.288,0.267996,0.289831,11.4724,0.82472,0.992016,0.312907,0
2024-11-29 18:18:21.288,0.267996,0.289831,11.4724,0.82472,0.992016,0.312907,0
2024-11-29 18:18:21.288,0.267996,0.289831,11.4724,0.82472,0.992016,0.312907,0
2024-11-29 18:18:21.288,0.267996,0.289831,11.4724,0.82472,0.992016,0.312907,0
2024-11-29 18:18:21.289,0.234497,0.316152,11.2714,0.82472,0.992016,0.312907,0
2024-11-29 18:18:21.289,0.234497,0.316152,11.2714,0.82472,0.992016,0.312907,0
2024-11-29 18:18:21.289,0.234497,0.316152,11.2714,0.82472,0.992016,0.312907,0
2024-11-29 18:18:21.289,0.234497,0.316152,11.2714,0.82472,0.992016,0.312907,0
2024-11-29 18:18:21.290,0.234497,0.316152,11.2714,0.82472,0.992016,0.312907,0
2024-11-29 18:18:21.290,0.234497,0.316152,11.2714,0.82472,0.992016,0.312907,0
2024-11-29 18:18:21.290,0.234497,0.316152,11.2714,0.82472,0.992016,0.312907,0
2024-11-29 18:18:21.290,0.234497,0.316152,11.2714,0.82472,0.992016,0.312907,0
2024-11-29 18:18:21.290,0.234497,0.316152,11.2714,0.82472,0.992016,0.312907,0
2024-11-29 18:18:21.292,0.200997,0.34008,11.0393,0.856484,1.05005,0.320848,0
2024-11-29 18:18:21.292,0.200997,0.34008,11.0393,0.856484,1.05005,0.320848,0
2024-11-29 18:18:21.292,0.200997,0.34008,11.0393,0.856484,1.05005,0.320848,0
2024-11-29 18:18:21.293,0.200997,0.34008,11.0393,0.887027,1.10502,0.327567,0
2024-11-29 18:18:21.293,0.200997,0.34008,11.0393,0.887027,1.10502,0.327567,0
2024-11-29 18:18:21.293,0.200997,0.34008,11.0393,0.887027,1.10502,0.327567,0
2024-11-29 18:18:21.293,0.200997,0.34008,11.0393,0.887027,1.10502,0.327567,0
2024-11-29 18:18:21.294,0.167498,0.371187,10.7782,0.887027,1.10502,0.327567,0
2024-11-29 18:18:21.294,0.167498,0.371187,10.7782,0.887027,1.10502,0.327567,0
2024-11-29 18:18:21.294,0.167498,0.371187,10.7782,0.887027,1.10502,0.327567,0
2024-11-29 18:18:21.295,0.167498,0.371187,10.7782,0.916958,1.15878,0.331232,0
2024-11-29 18:18:21.295,0.167498,0.371187,10.7782,0.916958,1.15878,0.331232,0
2024-11-29 18:18:21.295,0.167498,0.371187,10.7782,0.916958,1.15878,0.331232,0
2024-11-29 18:18:21.295,0.167498,0.371187,10.7782,0.916958,1.15878,0.331232,0
2024-11-29 18:18:21.296,0.133998,0.385544,10.4767,0.916958,1.15878,0.331232,0
2024-11-29 18:18:21.296,0.133998,0.385544,10.4767,0.916958,1.15878,0.331232,0
2024-11-29 18:18:21.296,0.133998,0.385544,10.4767,0.916958,1.15878,0.331232,0
2024-11-29 18:18:21.296,0.133998,0.385544,10.4767,0.916958,1.15878,0.331232,0
2024-11-29 18:18:21.297,0.133998,0.385544,10.4767,0.916958,1.15878,0.331232,0
2024-11-29 18:18:21.297,0.133998,0.385544,10.4767,0.916958,1.15878,0.331232,0
2024-11-29 18:18:21.297,0.133998,0.385544,10.4767,0.916958,1.15878,0.331232,0
2024-11-29 18:18:21.297,0.133998,0.385544,10.4767,0.916958,1.15878,0.331232,0
2024-11-29 18:18:21.297,0.133998,0.385544,10.4767,0.916958,1.15878,0.331232,0
2024-11-29 18:18:21.299,0.105284,0.395115,10.1581,0.944446,1.20948,0.333675,0
2024-11-29 18:18:21.299,0.105284,0.395115,10.1581,0.944446,1.20948,0.333675,0
2024-11-29 18:18:21.299,0.105284,0.395115,10.1581,0.944446,1.20948,0.333675,0
2024-11-29 18:18:21.300,0.105284,0.395115,10.1581,0.966437,1.25529,0.334286,0
2024-11-29 18:18:21.300,0.105284,0.395115,10.1581,0.966437,1.25529,0.334286,0
2024-11-29 18:18:21.300,0.105284,0.395115,10.1581,0.966437,1.25529,0.334286,0
2024-11-29 18:18:21.300,0.105284,0.395115,10.1581,0.966437,1.25529,0.334286,0
2024-11-29 18:18:21.301,0.0717847,0.41665,9.82792,0.966437,1.25529,0.334286,0
2024-11-29 18:18:21.301,0.0717847,0.41665,9.82792,0.966437,1.25529,0.334286,0
2024-11-29 18:18:21.301,0.0717847,0.41665,9.82792,0.966437,1.25529,0.334286,0
2024-11-29 18:18:21.302,0.0717847,0.41665,9.82792,0.984762,1.29683,0.334286,0
2024-11-29 18:18:21.302,0.0717847,0.41665,9.82792,0.984762,1.29683,0.334286,0
2024-11-29 18:18:21.302,0.0717847,0.41665,9.82792,0.984762,1.29683,0.334286,0
2024-11-29 18:18:21.302,0.0717847,0.41665,9.82792,0.984762,1.29683,0.334286,0
2024-11-29 18:18:21.304,0.0287139,0.41665,9.46391,0.984762,1.29683,0.334286,0
2024-11-29 18:18:21.304,0.0287139,0.41665,9.46391,0.984762,1.29683,0.334286,0
2024-11-29 18:18:21.304,0.0287139,0.41665,9.46391,0.984762,1.29683,0.334286,0
2024-11-29 18:18:21.304,0.0287139,0.41665,9.46391,0.984762,1.29683,0.334286,0
2024-11-29 18:18:21.304,0.0287139,0.41665,9.46391,0.984762,1.29683,0.334286,0
2024-11-29 18:18:21.305,0.0287139,0.41665,9.46391,1.00003,1.33043,0.333064,0
2024-11-29 18:18:21.305,0.0717847,0.41665,9.46391,1.00003,1.33043,0.333064,0
2024-11-29 18:18:21.305,0.0287139,0.41665,9.46391,1.00003,1.33043,0.333064,0
2024-11-29 18:18:21.305,0.0287139,0.41665,9.46391,1.00003,1.33043,0.333064,0
2024-11-29 18:18:21.306,-0.0191426,0.423829,9.09512,1.00003,1.33043,0.333064,0
2024-11-29 18:18:21.306,-0.0191426,0.423829,9.09512,1.00003,1.33043,0.333064,0
2024-11-29 18:18:21.306,-0.0191426,0.423829,9.09512,1.00003,1.33043,0.333064,0
2024-11-29 18:18:21.306,-0.0191426,0.423829,9.09512,1.00003,1.33043,0.333064,0
2024-11-29 18:18:21.307,-0.0191426,0.423829,9.09512,1.00859,1.36288,0.331232,0
2024-11-29 18:18:21.307,-0.0191426,0.423829,9.09512,1.00859,1.36288,0.331232,0
2024-11-29 18:18:21.307,-0.0191426,0.423829,9.09512,1.00859,1.36288,0.331232,0
2024-11-29 18:18:21.307,-0.0191426,0.423829,9.09512,1.00859,1.36288,0.331232,0
2024-11-29 18:18:21.307,-0.0191426,0.423829,9.09512,1.00859,1.36288,0.331232,0
2024-11-29 18:18:21.307,-0.0191426,0.423829,9.09512,1.00859,1.36288,0.331232,0
2024-11-29 18:18:21.308,-0.0693919,0.438186,8.75294,1.00859,1.36288,0.331232,0
2024-11-29 18:18:21.309,-0.0693919,0.438186,8.75294,1.01408,1.38792,0.328178,0
2024-11-29 18:18:21.311,-0.122034,0.442971,8.41526,1.01408,1.38792,0.328178,0
2024-11-29 18:18:21.311,-0.122034,0.442971,8.41526,1.01408,1.38792,0.328178,0
2024-11-29 18:18:21.311,-0.122034,0.442971,8.41526,1.01408,1.38792,0.328178,0
2024-11-29 18:18:21.311,-0.122034,0.442971,8.41526,1.01408,1.38792,0.328178,0
2024-11-29 18:18:21.311,-0.122034,0.442971,8.41526,1.01408,1.38792,0.328178,0
2024-11-29 18:18:21.311,-0.122034,0.442971,8.41526,1.01408,1.38792,0.328178,0
2024-11-29 18:18:21.312,-0.122034,0.442971,8.41526,1.01408,1.38792,0.328178,0
2024-11-29 18:18:21.312,-0.122034,0.442971,8.41526,1.01408,1.38792,0.328178,0
2024-11-29 18:18:21.312,-0.122034,0.442971,8.41526,1.01408,1.38792,0.328178,0
2024-11-29 18:18:21.312,-0.122034,0.442971,8.41526,1.01408,1.38792,0.328178,0
2024-11-29 18:18:21.312,-0.122034,0.442971,8.41526,1.01408,1.38792,0.328178,0
2024-11-29 18:18:21.312,-0.122034,0.442971,8.41526,1.01408,1.38792,0.328178,0
2024-11-29 18:18:21.312,-0.122034,0.442971,8.41526,1.01408,1.38792,0.328178,0
2024-11-29 18:18:21.312,-0.122034,0.442971,8.41526,1.01408,1.38792,0.328178,0
2024-11-29 18:18:21.312,-0.122034,0.442971,8.41526,1.01408,1.38792,0.328178,0
2024-11-29 18:18:21.312,-0.122034,0.442971,8.41526,1.01408,1.38792,0.328178,0
2024-11-29 18:18:21.312,-0.122034,0.442971,8.41526,1.01408,1.38792,0.328178,0
2024-11-29 18:18:21.312,-0.122034,0.442971,8.41526,1.01408,1.38792,0.328178,0
2024-11-29 18:18:21.312,-0.122034,0.442971,8.41526,1.01408,1.38792,0.328178,0
2024-11-29 18:18:21.312,-0.122034,0.442971,8.41526,1.01408,1.38792,0.328178,0
2024-11-29 18:18:21.312,-0.122034,0.442971,8.41526,1.01408,1.38792,0.328178,0
2024-11-29 18:18:21.312,-0.122034,0.442971,8.41526,1.01408,1.38792,0.328178,0
2024-11-29 18:18:21.312,-0.122034,0.442971,8.41526,1.01408,1.38792,0.328178,0
2024-11-29 18:18:21.318,-0.260818,0.495613,7.40967,1.00492,1.42335,0.312907,0
2024-11-29 18:18:21.318,-0.260818,0.495613,7.40967,1.00492,1.42335,0.312907,0
2024-11-29 18:18:21.318,-0.260818,0.495613,7.40967,1.00492,1.42335,0.312907,0
2024-11-29 18:18:21.318,-0.260818,0.495613,7.40967,1.00492,1.42335,0.312907,0
2024-11-29 18:18:21.318,-0.260818,0.495613,7.40967,1.00492,1.42335,0.312907,0
2024-11-29 18:18:21.318,-0.260818,0.495613,7.40967,1.00492,1.42335,0.312907,0
2024-11-29 18:18:21.319,-0.260818,0.495613,7.40967,0.996979,1.41236,0.306187,0
2024-11-29 18:18:21.319,-0.260818,0.495613,7.40967,0.996979,1.41236,0.306187,0
2024-11-29 18:18:21.319,-0.260818,0.495613,7.40967,0.996979,1.41236,0.306187,0
2024-11-29 18:18:21.319,-0.260818,0.495613,7.40967,0.996979,1.41236,0.306187,0
2024-11-29 18:18:21.319,-0.260818,0.495613,7.40967,0.996979,1.41236,0.306187,0
2024-11-29 18:18:21.320,0.112463,0.282652,7.54367,0.996979,1.41236,0.306187,0
2024-11-29 18:18:21.320,0.112463,0.282652,7.54367,0.996979,1.41236,0.306187,0
2024-11-29 18:18:21.321,0.112463,0.282652,7.54367,1.00064,1.33592,0.269536,0
2024-11-29 18:18:21.321,0.112463,0.282652,7.54367,1.00064,1.33592,0.269536,0
2024-11-29 18:18:21.321,0.112463,0.282652,7.54367,1.00064,1.33592,0.269536,0
2024-11-29 18:18:21.323,1.07976,-0.27996,8.50858,1.00064,1.33592,0.269536,0
2024-11-29 18:18:21.325,1.01276,-0.428614,8.46072,1.03668,1.25712,0.210284,0
2024-11-29 18:18:21.328,0.0334995,-0.081356,7.26132,1.05012,1.28156,0.154697,0
2024-11-29 18:18:21.330,-0.380758,0.148355,6.75853,1.05012,1.28156,0.154697,0
2024-11-29 18:18:21.332,-0.63679,0.349651,6.58385,1.05257,1.29072,0.143702,0
2024-11-29 18:18:21.335,-0.996012,0.569791,6.29881,1.04524,1.27728,0.143702,0
2024-11-29 18:18:21.338,-1.24965,0.739681,6.04756,1.01836,1.2333,0.14981,0
2024-11-29 18:18:21.339,-1.44616,0.895514,5.77448,0.986595,1.16061,0.159584,0
2024-11-29 18:18:21.342,-1.62562,1.04148,5.45863,0.884583,0.978577,0.191959,0
2024-11-29 18:18:21.344,-1.74048,1.17787,5.11615,0.884583,0.978577,0.191959,0
2024-11-29 18:18:21.346,-1.81944,1.28794,4.82423,0.821666,0.887561,0.209062,0
2024-11-29 18:18:21.349,-1.85773,1.34536,4.61815,0.681782,0.716524,0.23594,0
2024-11-29 18:18:21.352,-1.79791,1.39561,4.51286,0.681782,0.716524,0.23594,0
2024-11-29 18:18:21.353,-1.73569,1.44377,4.50329,0.60848,0.623675,0.246935,0
2024-11-29 18:18:21.356,-1.70937,1.5012,4.54636,0.537011,0.530215,0.2506,0
2024-11-29 18:18:21.359,-1.67348,1.5993,4.63729,0.461877,0.426982,0.251211,0
2024-11-29 18:18:21.360,-1.56341,1.65912,4.86251,0.387964,0.315808,0.245713,0
2024-11-29 18:18:21.362,-1.35972,1.65912,5.24297,0.322604,0.189363,0.234107,0
2024-11-29 18:18:21.366,-1.14197,1.62802,5.6668,0.270682,0.0507003,0.213949,0
2024-11-29 18:18:21.368,-0.952942,1.58016,6.08824,0.191882,-0.225403,0.153475,0
2024-11-29 18:18:21.369,-0.76361,1.52752,6.52403,0.191882,-0.225403,0.153475,0
2024-11-29 18:18:21.373,-0.588933,1.45573,6.97388,0.158286,-0.469131,0.0655134,0
2024-11-29 18:18:21.375,-0.4334,1.36929,7.40967,0.158286,-0.469131,0.0655134,0
2024-11-29 18:18:21.377,-0.299402,1.29272,7.80958,0.158286,-0.572364,0.0178673,0
2024-11-29 18:18:21.379,-0.239282,1.23769,8.14248,0.163173,-0.667045,-0.0322222,0
2024-11-29 18:18:21.382,-0.227318,1.20419,8.39133,0.173557,-0.751953,-0.0786466,0
2024-11-29 18:18:21.388,-0.411865,1.14437,8.92762,0.210208,-0.960252,-0.194097,0
2024-11-29 18:18:21.388,-0.411865,1.14437,8.92762,0.210208,-0.960252,-0.194097,0
2024-11-29 18:18:21.389,-0.411865,1.14437,8.92762,0.210208,-0.960252,-0.194097,0
2024-11-29 18:18:21.391,-0.502792,1.11805,9.05923,0.222425,-1.01584,-0.224639,0
2024-11-29 18:18:21.393,-0.56022,1.07258,9.14058,0.235863,-1.06104,-0.249073,0
2024-11-29 18:18:21.395,-0.610469,1.01994,9.21715,0.247469,-1.10014,-0.269231,0
2024-11-29 18:18:21.399,-0.687039,0.981655,9.28445,0.252967,-1.13251,-0.284502,0
2024-11-29 18:18:21.401,-0.758824,0.940978,9.35863,0.263962,-1.17588,-0.303438,0
2024-11-29 18:18:21.403,-0.809073,0.893121,9.45434,0.263962,-1.17588,-0.303438,0
2024-11-29 18:18:21.405,-0.9003,0.881157,9.47827,0.271293,-1.18627,-0.309547,0
2024-11-29 18:18:21.408,-1.07498,0.914656,9.40888,0.271293,-1.17955,-0.308936,0
2024-11-29 18:18:21.410,-1.11565,0.888335,9.46152,0.270071,-1.16977,-0.304049,0
2024-11-29 18:18:21.413,-1.01755,0.794716,9.64816,0.265795,-1.16122,-0.299162,0
2024-11-29 18:18:21.414,-0.974477,0.73011,9.76302,0.260908,-1.15633,-0.296719,0
2024-11-29 18:18:21.417,-0.967299,0.658325,9.80369,0.260297,-1.14839,-0.295497,0
2024-11-29 18:18:21.420,-0.962513,0.586541,9.83031,0.259686,-1.12946,-0.293054,0
2024-11-29 18:18:21.422,-0.969691,0.545863,9.85185,0.2548,-1.0983,-0.289389,0
2024-11-29 18:18:21.426,-1.2664,0.648754,9.59552,0.243194,-1.0079,-0.280226,0
2024-11-29 18:18:21.427,-1.2664,0.648754,9.59552,0.243194,-1.0079,-0.280226,0
2024-11-29 18:18:21.429,-1.43898,0.76361,9.39452,0.227312,-0.941316,-0.260679,0
2024-11-29 18:18:21.431,-1.31904,0.749253,9.5333,0.210208,-0.884507,-0.242964,0
2024-11-29 18:18:21.433,-1.20658,0.703789,9.6673,0.191882,-0.842969,-0.227693,0
2024-11-29 18:18:21.435,-1.12762,0.634397,9.70559,0.171114,-0.808151,-0.213033,0
2024-11-29 18:18:21.438,-1.09412,0.579362,9.67209,0.151566,-0.773333,-0.201427,0
2024-11-29 18:18:21.440,-1.08933,0.555434,9.64337,0.130798,-0.729352,-0.189821,0
2024-11-29 18:18:21.444,-1.08694,0.538684,9.61227,0.0910926,-0.625508,-0.164776,0
2024-11-29 18:18:21.445,-1.07498,0.545863,9.60987,0.0910926,-0.625508,-0.164776,0
2024-11-29 18:18:21.448,-1.04148,0.572184,9.6673,0.0758214,-0.565034,-0.150727,0
2024-11-29 18:18:21.450,-1.0319,0.596112,9.73191,0.0587177,-0.507614,-0.135455,0
2024-11-29 18:18:21.453,-0.986441,0.610469,9.83271,0.0348946,-0.403159,-0.107967,0
2024-11-29 18:18:21.454,-0.9003,0.612862,9.95953,0.0348946,-0.403159,-0.107967,0
2024-11-29 18:18:21.457,-0.869193,0.629611,10.0193,0.029397,-0.356735,-0.0957503,0
2024-11-29 18:18:21.460,-0.907478,0.663111,10.0146,0.0263428,-0.30298,-0.0804791,0
2024-11-29 18:18:21.461,-0.936192,0.720539,9.98585,0.0263428,-0.240063,-0.0658188,0
2024-11-29 18:18:21.465,-0.94337,0.780359,9.95953,0.0263428,-0.176535,-0.0511585,0
2024-11-29 18:18:21.466,-0.96012,0.852443,9.92603,0.029397,-0.111174,-0.0322222,0
2024-11-29 18:18:21.469,-0.986441,0.929013,9.87817,0.0318404,-0.0488678,-0.0132859,0
2024-11-29 18:18:21.472,-1.02473,0.991227,9.79652,0.0330621,0.0122169,0.00809373,0
2024-11-29 18:18:21.473,-1.04865,1.04387,9.68645,0.033673,0.0665824,0.0294734,0
2024-11-29 18:18:21.475,-1.05823,1.08215,9.57398,0.0330621,0.117283,0.0532964,0
2024-11-29 18:18:21.479,-1.05823,1.13001,9.45434,0.0287862,0.202801,0.0966666,0
2024-11-29 18:18:21.481,-1.05344,1.17547,9.32992,0.0287862,0.202801,0.0966666,0
2024-11-29 18:18:21.483,-1.03669,1.22094,9.22194,0.0269536,0.23823,0.116825,0
2024-11-29 18:18:21.485,-1.01755,1.27597,9.10708,0.0238994,0.271216,0.136983,0
2024-11-29 18:18:21.488,-0.996012,1.30708,8.97069,0.0165692,0.323749,0.166914,0
2024-11-29 18:18:21.491,-0.967299,1.34058,8.85105,0.0165692,0.323749,0.166914,0
2024-11-29 18:18:21.494,-0.917049,1.48684,8.60908,0.00923906,0.365287,0.191348,0
2024-11-29 18:18:21.495,-0.945763,1.48684,8.60908,0.00923906,0.365287,0.191348,0
2024-11-29 18:18:21.497,-0.895514,1.54188,8.49422,0.00679568,0.378114,0.200511,0
2024-11-29 18:18:21.499,-0.88355,1.60409,8.39851,0.00435229,0.388499,0.204787,0
2024-11-29 18:18:21.502,-0.873978,1.67109,8.30758,0.0019089,0.390331,0.210284,0
2024-11-29 18:18:21.504,-0.862014,1.71416,8.21426,0.000687203,0.390942,0.21456,0
2024-11-29 18:18:21.506,-0.857229,1.77159,8.12543,-0.00175619,0.387888,0.216393,0
2024-11-29 18:18:21.509,-0.869193,1.82423,8.03211,-0.00297788,0.380558,0.217003,0
2024-11-29 18:18:21.511,-0.8668,1.87448,7.92682,-0.00664296,0.370784,0.217003,0
2024-11-29 18:18:21.514,-0.864407,1.93669,7.82393,-0.00908635,0.356735,0.219447,0
2024-11-29 18:18:21.519,-0.864407,2.01117,7.64926,-0.0176382,0.300537,0.217003,0
2024-11-29 18:18:21.519,-0.864407,2.01117,7.64926,-0.0176382,0.300537,0.217003,0
2024-11-29 18:18:21.521,-0.876371,2.06381,7.59422,-0.0176382,0.300537,0.217003,0
2024-11-29 18:18:21.524,-0.885943,2.12602,7.54128,-0.0298552,0.248004,0.215782,0
2024-11-29 18:18:21.526,-0.881157,2.16192,7.49582,-0.0298552,0.248004,0.215782,0
2024-11-29 18:18:21.528,-0.890728,2.18824,7.45275,-0.0365745,0.185698,0.213338,0
2024-11-29 18:18:21.531,-0.897907,2.21695,7.42642,-0.0396287,0.155155,0.210284,0
2024-11-29 18:18:21.533,-0.895514,2.25284,7.4001,-0.0396287,0.123391,0.206008,0
2024-11-29 18:18:21.535,-0.881157,2.27438,7.38335,-0.0396287,0.123391,0.206008,0
2024-11-29 18:18:21.537,-0.871586,2.28156,7.37617,-0.0432938,0.0910162,0.204176,0
2024-11-29 18:18:21.540,-0.873978,2.29352,7.36421,-0.0469589,0.0250447,0.198678,0
2024-11-29 18:18:21.542,-0.862014,2.30309,7.35464,-0.0469589,0.0250447,0.198678,0
2024-11-29 18:18:21.545,-0.845265,2.31745,7.37378,-0.0530674,-0.0421485,0.194402,0
2024-11-29 18:18:21.547,-0.862014,2.33898,7.38335,-0.0530674,-0.0421485,0.194402,0
2024-11-29 18:18:21.549,-0.876371,2.3677,7.39771,-0.0555107,-0.0726908,0.191959,0
2024-11-29 18:18:21.552,-0.905085,2.41795,7.41925,-0.0597867,-0.125835,0.191348,0
2024-11-29 18:18:21.554,-0.94337,2.44666,7.45992,-0.0597867,-0.125835,0.191348,0
2024-11-29 18:18:21.556,-0.967299,2.46102,7.50778,-0.0610084,-0.149047,0.191348,0
2024-11-29 18:18:21.558,-0.981655,2.50648,7.54607,-0.0610084,-0.167983,0.193791,0
2024-11-29 18:18:21.561,-0.99362,2.55703,7.59901,-0.0591758,-0.183865,0.195013,0
2024-11-29 18:18:21.565,-1.01515,2.60249,7.72104,-0.0530674,-0.211964,0.197456,0
2024-11-29 18:18:21.566,-1.01515,2.60249,7.72104,-0.0530674,-0.211964,0.197456,0
2024-11-29 18:18:21.568,-1.04626,2.64796,7.78804,-0.0481806,-0.22357,0.1999,0
2024-11-29 18:18:21.570,-1.06062,2.68146,7.8335,-0.0451263,-0.233955,0.203565,0
2024-11-29 18:18:21.572,-1.0654,2.71496,7.87657,-0.0371853,-0.241896,0.20723,0
2024-11-29 18:18:21.574,-1.07258,2.74367,7.91247,-0.030466,-0.249837,0.212117,0
2024-11-29 18:18:21.577,-1.07258,2.75803,7.94118,-0.0231358,-0.254112,0.216393,0
2024-11-29 18:18:21.580,-1.0654,2.7676,7.97707,-0.014584,-0.25961,0.221279,0
2024-11-29 18:18:21.582,-1.05344,2.8011,8.00818,-0.00786466,-0.262053,0.227388,0
2024-11-29 18:18:21.585,-1.05583,2.82981,8.01297,0.00740652,-0.257778,0.236551,0
2024-11-29 18:18:21.586,-1.07976,2.83699,8.00818,0.00740652,-0.257778,0.236551,0
2024-11-29 18:18:21.589,-1.08215,2.85135,7.98904,0.0122933,-0.255945,0.241437,0
2024-11-29 18:18:21.592,-1.07737,2.9016,7.9675,0.0165692,-0.247393,0.249989,0
2024-11-29 18:18:21.593,-1.0654,2.94945,7.94836,0.0226777,-0.23823,0.254876,0
2024-11-29 18:18:21.596,-1.07498,2.97817,7.91247,0.0263428,-0.228457,0.260984,0
2024-11-29 18:18:21.598,-1.09412,3.01406,7.87897,0.0269536,-0.216851,0.268315,0
2024-11-29 18:18:21.600,-1.08933,3.04995,7.85743,0.0287862,-0.20891,0.274423,0
2024-11-29 18:18:21.604,-1.05583,3.09811,7.83829,0.0306187,-0.199747,0.281142,0
2024-11-29 18:18:21.605,-1.01037,3.12921,7.80958,0.0275645,-0.196082,0.287251,0
2024-11-29 18:18:21.607,-0.984048,3.15075,7.77368,0.0238994,-0.191195,0.292138,0
2024-11-29 18:18:21.611,-0.94337,3.18664,7.75215,0.0116825,-0.185698,0.298246,0
2024-11-29 18:18:21.612,-0.895514,3.22014,7.72822,0.0116825,-0.185698,0.298246,0
2024-11-29 18:18:21.614,-0.854836,3.26321,7.71386,0.00496313,-0.183254,0.298246,0
2024-11-29 18:18:21.618,-0.813859,3.33021,7.71865,-0.00419957,-0.178367,0.297635,0
2024-11-29 18:18:21.619,-0.770788,3.3996,7.72822,-0.0139731,-0.174702,0.298246,0
2024-11-29 18:18:21.623,-0.727717,3.4666,7.74736,-0.0310769,-0.164929,0.290916,0
2024-11-29 18:18:21.624,-0.684646,3.53121,7.77129,-0.0310769,-0.164929,0.290916,0
2024-11-29 18:18:21.626,-0.646361,3.60299,7.81436,-0.0408504,-0.156988,0.285418,0
2024-11-29 18:18:21.630,-0.612862,3.68226,7.86222,-0.0518457,-0.152712,0.278699,0
2024-11-29 18:18:21.632,-0.593719,3.75165,7.91725,-0.058565,-0.144771,0.27198,0
2024-11-29 18:18:21.633,-0.586541,3.8354,7.98664,-0.0646735,-0.139273,0.262817,0
2024-11-29 18:18:21.636,-0.574577,3.92393,8.05125,-0.0713928,-0.134997,0.253043,0
2024-11-29 18:18:21.639,-0.56022,3.98375,8.09911,-0.0775012,-0.126445,0.243881,0
2024-11-29 18:18:21.641,-0.557827,4.02682,8.14726,-0.0817772,-0.118504,0.235329,0
2024-11-29 18:18:21.644,-0.555434,4.08903,8.18794,-0.0909399,-0.102011,0.212117,0
2024-11-29 18:18:21.645,-0.545863,4.15603,8.21187,-0.0909399,-0.102011,0.212117,0
2024-11-29 18:18:21.648,-0.550648,4.19671,8.23819,-0.0927724,-0.0940705,0.201121,0
2024-11-29 18:18:21.651,-0.56022,4.23051,8.27169,-0.0988809,-0.0855186,0.188294,0
2024-11-29 18:18:21.653,-0.56022,4.27119,8.27887,-0.106822,-0.0739125,0.16386,0
2024-11-29 18:18:21.655,-0.562612,4.30469,8.28844,-0.106822,-0.0739125,0.16386,0
2024-11-29 18:18:21.658,-0.569791,4.32383,8.32194,-0.125147,-0.0726908,0.139426,0
2024-11-29 18:18:21.660,-0.569791,4.32622,8.34587,-0.132477,-0.0769668,0.130874,0
2024-11-29 18:18:21.663,-0.569791,4.32144,8.38176,-0.140419,-0.0818535,0.12049,0
2024-11-29 18:18:21.665,-0.581755,4.32862,8.42483,-0.150803,-0.0916271,0.109494,0
2024-11-29 18:18:21.666,-0.567398,4.35254,8.47269,-0.150803,-0.0916271,0.109494,0
2024-11-29 18:18:21.670,-0.550648,4.36212,8.54208,-0.161798,-0.103844,0.100332,0
2024-11-29 18:18:21.672,-0.545863,4.35733,8.62343,-0.187454,-0.133776,0.0832279,0
2024-11-29 18:18:21.676,-0.507577,4.34537,8.81755,-0.197227,-0.150879,0.0746761,0
2024-11-29 18:18:21.677,-0.507577,4.34537,8.81755,-0.197227,-0.150879,0.0746761,0
2024-11-29 18:18:21.678,-0.476471,4.34058,8.92762,-0.208833,-0.167983,0.0661242,0
2024-11-29 18:18:21.681,-0.442971,4.33579,9.05205,-0.218607,-0.185087,0.0575724,0
2024-11-29 18:18:21.683,-0.402293,4.32383,9.18844,-0.229602,-0.206466,0.0520747,0
2024-11-29 18:18:21.686,-0.366401,4.32862,9.3347,-0.239376,-0.225403,0.0447446,0
2024-11-29 18:18:21.688,-0.337687,4.32862,9.49741,-0.246706,-0.245561,0.0386361,0
2024-11-29 18:18:21.690,-0.308973,4.32383,9.66252,-0.252204,-0.26694,0.0294734,0
2024-11-29 18:18:21.693,-0.275175,4.3334,9.83749,-0.254647,-0.306645,0.0154239,0
2024-11-29 18:18:21.695,-0.248854,4.34776,10.0337,-0.254647,-0.306645,0.0154239,0
2024-11-29 18:18:21.698,-0.236889,4.36212,10.2299,-0.253425,-0.327414,0.011148,0
2024-11-29 18:18:21.700,-0.222533,4.36451,10.4121,-0.245484,-0.345129,0.0038178,0
2024-11-29 18:18:21.702,-0.191426,4.35972,10.5772,-0.237543,-0.362232,-0.00290152,0
2024-11-29 18:18:21.705,-0.145962,4.36212,10.7375,-0.212498,-0.393386,-0.00962084,0
2024-11-29 18:18:21.706,-0.105284,4.33101,10.9098,-0.212498,-0.393386,-0.00962084,0
2024-11-29 18:18:21.709,-0.0765703,4.28315,11.0704,-0.197227,-0.406824,-0.0157293,0
2024-11-29 18:18:21.712,-0.0550349,4.26401,11.2211,-0.179513,-0.416598,-0.0187836,0
2024-11-29 18:18:21.713,-0.0334995,4.24247,11.3623,-0.16302,-0.425761,-0.0206161,0
2024-11-29 18:18:21.717,-0.00478565,4.21376,11.482,-0.140419,-0.427593,-0.0224486,0
2024-11-29 18:18:21.719,0.0167498,4.17278,11.6115,-0.100103,-0.419652,-0.0212269,0
2024-11-29 18:18:21.721,0.0287139,4.13928,11.7359,-0.100103,-0.419652,-0.0212269,0
2024-11-29 18:18:21.724,0.0382852,4.11775,11.8196,-0.0555107,-0.389721,-0.00962084,0
2024-11-29 18:18:21.726,0.0454636,4.09861,11.8819,-0.0555107,-0.389721,-0.00962084,0
2024-11-29 18:18:21.729,0.0478565,4.07468,11.913,-0.0121406,-0.34635,0.00626118,0
2024-11-29 18:18:21.731,0.0382852,4.05793,11.9297,-0.0121406,-0.34635,0.00626118,0
2024-11-29 18:18:21.732,0.026321,4.034,11.9393,0.00679568,-0.319473,0.019089,0
2024-11-29 18:18:21.735,0.0239282,4.00529,11.9249,0.0220669,-0.293818,0.0319168,0
2024-11-29 18:18:21.737,0.0287139,3.98136,11.8914,0.033673,-0.263275,0.0465771,0
2024-11-29 18:18:21.740,0.0239282,3.95504,11.822,0.0434465,-0.233955,0.0575724,0
2024-11-29 18:18:21.743,0.0,3.95025,11.7407,0.0501658,-0.20219,0.0728435,0
2024-11-29 18:18:21.745,-0.0167498,3.95025,11.6617,0.049555,-0.141717,0.102775,0
2024-11-29 18:18:21.747,-0.0191426,3.94307,11.5828,0.049555,-0.141717,0.102775,0
2024-11-29 18:18:21.750,-0.026321,3.95504,11.5182,0.0452791,-0.11545,0.114992,0
2024-11-29 18:18:21.751,-0.0382852,3.96222,11.4604,0.0379489,-0.0891837,0.129041,0
2024-11-29 18:18:21.753,-0.0430708,3.96222,11.415,0.0257319,-0.067804,0.139426,0
2024-11-29 18:18:21.757,-0.040678,3.967,11.3958,0.0141258,-0.0494786,0.151643,0
2024-11-29 18:18:21.758,-0.0502493,3.98614,11.4078,-0.00114534,-0.0335966,0.162638,0
2024-11-29 18:18:21.762,-0.0741775,4.0005,11.4269,-0.0255792,-0.00244339,0.182796,0
2024-11-29 18:18:21.764,-0.0765703,4.01725,11.4676,-0.0255792,-0.00244339,0.182796,0
2024-11-29 18:18:21.765,-0.0765703,4.02921,11.5373,-0.0359636,0.0164929,0.194402,0
2024-11-29 18:18:21.768,-0.081356,4.02443,11.6019,-0.0481806,0.0378725,0.206008,0
2024-11-29 18:18:21.770,-0.0741775,4.034,11.6833,-0.0555107,0.0610847,0.217614,0
2024-11-29 18:18:21.772,-0.0646062,4.03161,11.7646,-0.0610084,0.0842969,0.231053,0
2024-11-29 18:18:21.776,-0.0430708,4.01486,11.822,-0.0603975,0.105066,0.240827,0
2024-11-29 18:18:21.778,-0.00478565,3.99332,11.8819,-0.0579541,0.143549,0.257319,0
2024-11-29 18:18:21.780,0.026321,3.97179,11.9489,-0.0579541,0.143549,0.257319,0
2024-11-29 18:18:21.782,0.0502493,3.94786,12.0063,-0.0542891,0.156988,0.263428,0
2024-11-29 18:18:21.784,0.0789631,3.93111,12.0664,-0.0475697,0.167372,0.268926,0
2024-11-29 18:18:21.786,0.0933201,3.93111,12.1143,-0.038407,0.17287,0.268926,0
2024-11-29 18:18:21.789,0.0909273,3.91914,12.1382,-0.0286335,0.175924,0.270758,0
2024-11-29 18:18:21.792,0.0789631,3.92632,12.1454,-0.000534491,0.177757,0.273812,0
2024-11-29 18:18:21.794,0.0574277,3.93829,12.1549,-0.000534491,0.177757,0.273812,0
2024-11-29 18:18:21.797,0.0215354,3.94307,12.1478,0.013515,0.175924,0.275645,0
2024-11-29 18:18:21.798,-0.0119641,3.94307,12.1167,0.0300079,0.17287,0.279921,0
2024-11-29 18:18:21.801,-0.0574277,3.94307,12.076,0.0465007,0.168594,0.283586,0
2024-11-29 18:18:21.804,-0.102891,3.95264,12.0015,0.0611611,0.161875,0.288473,0
2024-11-29 18:18:21.805,-0.145962,3.94547,11.9082,0.0758214,0.152712,0.295192,0
2024-11-29 18:18:21.809,-0.191426,3.92393,11.8029,0.0990336,0.123391,0.307409,0
2024-11-29 18:18:21.811,-0.222533,3.90479,11.6785,0.105753,0.103844,0.31535,0
2024-11-29 18:18:21.812,-0.234497,3.88564,11.5397,0.105753,0.103844,0.31535,0
2024-11-29 18:18:21.816,-0.239282,3.85932,11.391,0.106975,0.0818535,0.32268,0
2024-11-29 18:18:21.817,-0.205783,3.8354,11.2451,0.106975,0.0580305,0.326345,0
2024-11-29 18:18:21.820,-0.165105,3.79472,11.0895,0.100255,0.0293207,0.333675,0
2024-11-29 18:18:21.822,-0.124427,3.75643,10.9313,0.0880384,-0.00244339,0.33673,0
2024-11-29 18:18:21.825,-0.0502493,3.71575,10.7782,0.0526092,-0.0836861,0.336119,0
2024-11-29 18:18:21.827,0.0478565,3.66072,10.6298,0.0526092,-0.0836861,0.336119,0
2024-11-29 18:18:21.829,0.162712,3.61974,10.503,0.0269536,-0.133165,0.327567,0
2024-11-29 18:18:21.831,0.292223,3.56231,10.3857,-0.00297788,-0.188752,0.317182,0
2024-11-29 18:18:21.834,0.445364,3.48096,10.2802,-0.0420721,-0.252891,0.303744,0
2024-11-29 18:18:21.837,0.615255,3.40439,10.2036,-0.082388,-0.324971,0.284808,0
2024-11-29 18:18:21.839,0.775574,3.335,10.1725,-0.180734,-0.488067,0.23594,0
2024-11-29 18:18:21.842,0.938585,3.27278,10.1677,-0.180734,-0.488067,0.23594,0
2024-11-29 18:18:21.844,1.11805,3.21775,10.2084,-0.293741,-0.678651,0.169968,0
2024-11-29 18:18:21.846,1.2999,3.17946,10.3424,-0.352383,-0.776998,0.130263,0
2024-11-29 18:18:21.849,1.46291,3.16271,10.5174,-0.352383,-0.776998,0.130263,0
2024-11-29 18:18:21.851,1.60887,3.14836,10.7351,-0.464778,-0.970025,0.0453554,0
2024-11-29 18:18:21.852,1.74287,3.13879,11.0417,-0.464778,-0.970025,0.0453554,0
2024-11-29 18:18:21.855,1.87448,3.13161,11.3934,-0.519755,-1.06104,-0.000458135,0
2024-11-29 18:18:21.857,1.99681,3.07867,11.7885,-0.568622,-1.14595,-0.0456608,0
2024-11-29 18:18:21.860,2.14277,2.98774,12.2172,-0.608938,-1.21864,-0.0933069,0
2024-11-29 18:18:21.862,2.31984,2.88006,12.6458,-0.646276,-1.28522,-0.141564,0
2024-11-29 18:18:21.865,2.49212,2.76281,13.0789,-0.701864,-1.38731,-0.247851,0
2024-11-29 18:18:21.867,2.66949,2.62403,13.5027,-0.701864,-1.38731,-0.247851,0
2024-11-29 18:18:21.870,2.82503,2.47777,13.9337,-0.717746,-1.42763,-0.305271,0
2024-11-29 18:18:21.872,2.93988,2.32463,14.3862,-0.72813,-1.4881,-0.423775,0
2024-11-29 18:18:21.875,3.00688,2.16909,14.8409,-0.72813,-1.4881,-0.423775,0
2024-11-29 18:18:21.876,3.03559,2.02313,15.2982,-0.720189,-1.50643,-0.483638,0
2024-11-29 18:18:21.878,3.03799,1.87448,15.7364,-0.704307,-1.51681,-0.539836,0
2024-11-29 18:18:21.881,3.01167,1.74048,16.1698,-0.683538,-1.51192,-0.594202,0
2024-11-29 18:18:21.884,2.95424,1.59212,16.6008,-0.604052,-1.46733,-0.690716,0
2024-11-29 18:18:21.885,2.87767,1.43898,17.0052,-0.604052,-1.46733,-0.690716,0
2024-11-29 18:18:21.889,2.76999,1.28554,17.386,-0.55274,-1.42274,-0.734086,0
2024-11-29 18:18:21.890,2.57139,1.14437,17.6324,-0.489212,-1.36593,-0.771347,0
2024-11-29 18:18:21.892,2.0016,1.25444,17.3213,-0.423241,-1.27362,-0.793949,1
2024-11-29 18:18:21.895,1.4342,1.41266,16.8066,-0.370097,-1.12579,-0.789673,0
2024-11-29 18:18:21.898,1.43898,1.28794,16.9023,-0.321229,-0.98041,-0.775012,0
2024-11-29 18:18:21.899,1.56341,1.02951,17.2041,-0.26381,-0.862516,-0.762185,0
2024-11-29 18:18:21.902,1.50598,0.722932,17.2304,-0.209444,-0.75684,-0.750579,0
2024-11-29 18:18:21.905,1.41984,0.407079,17.1033,-0.15569,-0.650552,-0.738362,0
2024-11-29 18:18:21.907,1.32383,0.0789631,16.9406,-0.0994917,-0.530215,-0.724312,0
2024-11-29 18:18:21.910,1.23769,-0.229711,16.7635,0.029397,-0.249226,-0.691937,0
2024-11-29 18:18:21.912,1.18505,-0.495613,16.5841,0.0990336,-0.0916271,-0.670558,0
2024-11-29 18:18:21.914,1.15394,-0.725324,16.4115,0.0990336,-0.0916271,-0.670558,0
2024-11-29 18:18:21.917,1.08455,-0.907478,16.2392,0.172335,0.0690257,-0.647956,0
2024-11-29 18:18:21.919,0.938585,-1.02473,16.0358,0.249302,0.233344,-0.621079,0
2024-11-29 18:18:21.922,0.715753,-1.08215,15.7747,0.328101,0.395218,-0.591758,0
2024-11-29 18:18:21.923,0.426222,-1.10608,15.5067,0.405679,0.550984,-0.55694,0
2024-11-29 18:18:21.925,0.114855,-1.08455,15.114,0.483257,0.696366,-0.512348,0
2024-11-29 18:18:21.928,-0.18664,-1.01515,14.5274,0.554115,0.840526,-0.464702,0
2024-11-29 18:18:21.930,-0.462114,-0.917049,13.893,0.618254,0.984686,-0.409115,0
2024-11-29 18:18:21.932,-0.691825,-0.801895,13.2969,0.672619,1.11663,-0.34803,0
2024-11-29 18:18:21.935,-0.876371,-0.694218,12.7534,0.712935,1.23452,-0.282059,0
2024-11-29 18:18:21.938,-0.998405,-0.622433,12.2195,0.745921,1.33043,-0.216087,0
2024-11-29 18:18:21.941,-1.11326,-0.531506,11.6402,0.770966,1.40503,-0.148894,0
2024-11-29 18:18:21.943,-1.21854,-0.428614,11.0441,0.778907,1.50215,-0.0120642,0
2024-11-29 18:18:21.945,-1.24726,-0.349651,10.491,0.778907,1.50215,-0.0120642,0
2024-11-29 18:18:21.947,-1.20658,-0.260818,10.0337,0.771576,1.52658,0.0477988,0
2024-11-29 18:18:21.950,-1.12044,-0.167498,9.64577,0.734315,1.52353,0.163249,0
2024-11-29 18:18:21.951,-0.991227,-0.0765703,9.28924,0.734315,1.52353,0.163249,0
2024-11-29 18:18:21.954,-0.837787,0.00717847,9.0018,0.707437,1.5052,0.212117,0
2024-11-29 18:18:21.957,-0.655932,0.114855,8.79123,0.678117,1.47466,0.255487,0
2024-11-29 18:18:21.959,-0.445364,0.234497,8.61625,0.647574,1.43129,0.293359,0
2024-11-29 18:18:21.961,-0.22014,0.342473,8.50379,0.618254,1.3812,0.324513,0
2024-11-29 18:18:21.963,0.442971,0.212961,8.88216,0.59382,1.31149,0.346503,0
2024-11-29 18:18:21.965,1.38844,-0.0933201,9.68884,0.589544,1.19604,0.337951,0
2024-11-29 18:18:21.969,1.47727,-0.0502493,9.71994,0.612145,1.02928,0.297635,0
2024-11-29 18:18:21.971,1.01994,0.258425,9.12144,0.612145,1.02928,0.297635,0
2024-11-29 18:18:21.973,0.909871,0.529113,8.92523,0.620697,1.00179,0.291527,0
2024-11-29 18:18:21.975,1.01276,0.749253,9.04965,0.632914,0.963306,0.291527,0
2024-11-29 18:18:21.978,1.12283,0.940978,9.20519,0.662846,0.82892,0.282975,0
2024-11-29 18:18:21.981,1.24247,1.10369,9.31077,0.679949,0.736071,0.275645,0
2024-11-29 18:18:21.983,1.38126,1.23529,9.33709,0.679949,0.736071,0.275645,0
2024-11-29 18:18:21.985,1.47488,1.3669,9.22194,0.693999,0.637114,0.270147,0
2024-11-29 18:18:21.988,1.5658,1.44616,9.0688,0.700107,0.543654,0.259763,0
2024-11-29 18:18:21.990,1.72134,1.5012,8.95155,0.714768,0.378725,0.232886,0
2024-11-29 18:18:21.992,1.89841,1.53948,8.85584,0.714768,0.378725,0.232886,0
2024-11-29 18:18:21.995,2.09492,1.52991,8.81037,0.731261,0.240674,0.187683,0
2024-11-29 18:18:21.997,2.26481,1.54666,8.77448,0.739812,0.182643,0.155919,0
2024-11-29 18:18:21.999,2.37488,1.59691,8.65933,0.739812,0.182643,0.155919,0
2024-11-29 18:18:22.002,2.47777,1.6352,8.54926,0.75264,0.0818535,0.0844496,0
2024-11-29 18:18:22.003,2.58574,1.64237,8.49901,0.75264,0.0818535,0.0844496,0
2024-11-29 18:18:22.007,2.64556,1.63759,8.45115,0.754473,0.0299315,0.0447446,0
2024-11-29 18:18:22.008,2.64078,1.64716,8.35544,0.755694,-0.020158,0.000152712,0
2024-11-29 18:18:22.010,2.60489,1.65673,8.23819,0.757527,-0.0665824,-0.0432174,0
2024-11-29 18:18:22.013,2.54028,1.66869,8.08236,0.757527,-0.109342,-0.0865876,0
2024-11-29 18:18:22.016,2.41795,1.69502,7.85982,0.741645,-0.167983,-0.171495,0
2024-11-29 18:18:22.018,2.28395,1.73091,7.63729,0.728817,-0.191195,-0.21059,0
2024-11-29 18:18:22.021,2.16909,1.74766,7.46471,0.710492,-0.215629,-0.247851,0
2024-11-29 18:18:22.022,2.04945,1.72852,7.29721,0.710492,-0.215629,-0.247851,0
2024-11-29 18:18:22.025,1.91755,1.69023,7.12971,0.68728,-0.23823,-0.283891,0
2024-11-29 18:18:22.027,1.76201,1.65912,6.98345,0.661624,-0.260221,-0.315655,0
2024-11-29 18:18:22.029,1.59452,1.65194,6.84467,0.632303,-0.281601,-0.344976,0
2024-11-29 18:18:22.032,1.42702,1.63998,6.7346,0.599928,-0.299315,-0.372464,0
2024-11-29 18:18:22.034,1.25204,1.6017,6.66521,0.568164,-0.313365,-0.393844,0
2024-11-29 18:18:22.037,1.09412,1.57059,6.64128,0.532735,-0.328025,-0.41278,0
2024-11-29 18:18:22.038,0.940978,1.56341,6.64367,0.50036,-0.337799,-0.429884,0
2024-11-29 18:18:22.041,0.804287,1.55862,6.64606,0.47104,-0.344518,-0.44149,0
2024-11-29 18:18:22.043,0.701396,1.55623,6.66521,0.439886,-0.345129,-0.453096,0
2024-11-29 18:18:22.047,0.615255,1.55384,6.7011,0.385521,-0.332912,-0.467756,0
2024-11-29 18:18:22.048,0.531506,1.54666,6.72742,0.385521,-0.332912,-0.467756,0
2024-11-29 18:18:22.051,0.438186,1.53948,6.7681,0.358644,-0.319473,-0.472643,0
2024-11-29 18:18:22.053,0.342473,1.56341,6.80638,0.336042,-0.302369,-0.473865,0
2024-11-29 18:18:22.055,0.253639,1.58495,6.83271,0.316495,-0.285266,-0.476308,0
2024-11-29 18:18:22.057,0.162712,1.58734,6.85424,0.296948,-0.266329,-0.475086,0
2024-11-29 18:18:22.060,0.0717847,1.60887,6.85903,0.278623,-0.246171,-0.472643,0
2024-11-29 18:18:22.063,0.0119641,1.63041,6.85185,0.260297,-0.227235,-0.471421,0
2024-11-29 18:18:22.064,-0.0191426,1.62562,6.85903,0.239528,-0.20891,-0.468367,0
2024-11-29 18:18:22.068,-0.0574277,1.61605,6.88056,0.205321,-0.17287,-0.456761,0
2024-11-29 18:18:22.070,-0.11007,1.64955,6.89492,0.205321,-0.17287,-0.456761,0
2024-11-29 18:18:22.075,-0.198604,1.68544,6.9332,0.17539,-0.133165,-0.440268,0
2024-11-29 18:18:22.075,-0.198604,1.68544,6.9332,0.17539,-0.133165,-0.440268,0
2024-11-29 18:18:22.080,-0.248854,1.72852,6.96431,0.13935,-0.0665824,-0.408504,0
2024-11-29 18:18:22.081,-0.265603,1.74287,6.97149,0.13935,-0.0665824,-0.408504,0
2024-11-29 18:18:22.081,-0.265603,1.74287,6.97149,0.13935,-0.0665824,-0.408504,0
2024-11-29 18:18:22.083,-0.263211,1.74287,7.00738,0.131409,-0.0445919,-0.396287,0
2024-11-29 18:18:22.087,-0.244068,1.74766,7.05314,0.124078,-0.0226013,-0.382849,0
2024-11-29 18:18:22.089,-0.217747,1.76441,7.07229,0.119802,-0.00305424,-0.370632,0
2024-11-29 18:18:22.091,-0.193819,1.76201,7.08904,0.113694,0.028099,-0.346809,0
2024-11-29 18:18:22.093,-0.167498,1.76441,7.11057,0.113694,0.028099,-0.346809,0
2024-11-29 18:18:22.096,-0.141177,1.77876,7.12254,0.111861,0.0397051,-0.334592,0
2024-11-29 18:18:22.098,-0.105284,1.78834,7.12254,0.112472,0.0537546,-0.32604,0
2024-11-29 18:18:22.100,-0.081356,1.81226,7.11775,0.108807,0.0629173,-0.316877,0
2024-11-29 18:18:22.103,-0.0622134,1.84098,7.11536,0.111251,0.0690257,-0.305882,0
2024-11-29 18:18:22.104,-0.0430708,1.86969,7.11057,0.113083,0.0726908,-0.296719,0
2024-11-29 18:18:22.108,-0.0191426,1.91516,7.11296,0.113694,0.0733017,-0.288167,0
2024-11-29 18:18:22.109,-0.00717847,1.95105,7.12254,0.114305,0.0745234,-0.280837,0
2024-11-29 18:18:22.113,-0.00478565,1.98485,7.11296,0.119192,0.0671932,-0.26862,0
2024-11-29 18:18:22.115,-0.00717847,2.02552,7.09382,0.123468,0.0610847,-0.262512,0
2024-11-29 18:18:22.116,-0.00717847,2.0686,7.10339,0.123468,0.0610847,-0.262512,0
2024-11-29 18:18:22.119,0.00478565,2.09492,7.11536,0.125911,0.0537546,-0.256403,0
2024-11-29 18:18:22.121,0.0167498,2.12124,7.101,0.13263,0.0452027,-0.252738,0
2024-11-29 18:18:22.124,0.0287139,2.14517,7.07946,0.135074,0.0384834,-0.247851,0
2024-11-29 18:18:22.127,0.0478565,2.15234,7.07229,0.144236,0.0244339,-0.240521,0
2024-11-29 18:18:22.129,0.0741775,2.17627,7.07229,0.148512,0.0177146,-0.240521,0
2024-11-29 18:18:22.131,0.0981057,2.19781,7.05075,0.148512,0.0177146,-0.240521,0
2024-11-29 18:18:22.134,0.112463,2.20259,7.02443,0.15401,0.00916271,-0.238689,0
2024-11-29 18:18:22.135,0.119641,2.20738,6.98106,0.160118,0.00122169,-0.236245,0
2024-11-29 18:18:22.138,0.150748,2.22652,6.9356,0.161951,-0.00671932,-0.238078,0
2024-11-29 18:18:22.141,0.16989,2.22891,6.89492,0.163783,-0.015882,-0.237467,0
2024-11-29 18:18:22.142,0.167498,2.24566,6.84706,0.163783,-0.0256556,-0.238078,0
2024-11-29 18:18:22.144,0.162712,2.25524,6.79681,0.163173,-0.0329858,-0.237467,0
2024-11-29 18:18:22.148,0.141177,2.26481,6.74417,0.157675,-0.0470352,-0.238078,0
2024-11-29 18:18:22.150,0.119641,2.28634,6.70349,0.157675,-0.0470352,-0.238078,0
2024-11-29 18:18:22.152,0.107677,2.3007,6.67239,0.152788,-0.051922,-0.237467,0
2024-11-29 18:18:22.154,0.0861416,2.31266,6.64367,0.14668,-0.0574196,-0.235634,0
2024-11-29 18:18:22.157,0.0550349,2.33659,6.62214,0.136906,-0.0616956,-0.230748,0
2024-11-29 18:18:22.160,0.0143569,2.37488,6.62692,0.131409,-0.0616956,-0.228304,0
2024-11-29 18:18:22.162,-0.0191426,2.39641,6.63649,0.123468,-0.0616956,-0.223417,0
2024-11-29 18:18:22.163,-0.040678,2.40598,6.62931,0.123468,-0.0616956,-0.223417,0
2024-11-29 18:18:22.167,-0.0598206,2.41077,6.62931,0.119192,-0.0586413,-0.21792,0
2024-11-29 18:18:22.169,-0.066999,2.41795,6.64367,0.108196,-0.051922,-0.208146,0
2024-11-29 18:18:22.171,-0.081356,2.42991,6.65564,0.108196,-0.051922,-0.208146,0
2024-11-29 18:18:22.176,-0.129212,2.45623,6.67239,0.0978119,-0.0415376,-0.195318,0
2024-11-29 18:18:22.176,-0.129212,2.45623,6.67239,0.0978119,-0.0415376,-0.195318,0
2024-11-29 18:18:22.178,-0.136391,2.47298,6.68914,0.0917034,-0.03604,-0.187377,0
2024-11-29 18:18:22.180,-0.155533,2.50648,6.68435,0.0849841,-0.0287098,-0.179436,0
2024-11-29 18:18:22.182,-0.18664,2.55464,6.67956,0.0819299,-0.0189363,-0.171495,0
2024-11-29 18:18:22.186,-0.205783,2.59053,6.69392,0.0758214,0.00671932,-0.155002,0
2024-11-29 18:18:22.188,-0.227318,2.62403,6.70828,0.0703238,0.015882,-0.147061,0
2024-11-29 18:18:22.190,-0.248854,2.63599,6.70349,0.0703238,0.015882,-0.147061,0
2024-11-29 18:18:22.192,-0.263211,2.64078,6.71546,0.0648262,0.0262664,-0.134845,0
2024-11-29 18:18:22.194,-0.265603,2.65514,6.72264,0.0587177,0.0329858,-0.125071,0
2024-11-29 18:18:22.197,-0.267996,2.68146,6.71546,0.0519984,0.0397051,-0.116519,0
2024-11-29 18:18:22.199,-0.277567,2.70778,6.72742,0.0471116,0.043981,-0.106135,0
2024-11-29 18:18:22.202,-0.285045,2.72213,6.72503,0.0367272,0.0476461,-0.0951395,0
2024-11-29 18:18:22.204,-0.289831,2.74606,6.73939,0.0275645,0.0507003,-0.0859767,0
2024-11-29 18:18:22.207,-0.316152,2.79631,6.75853,0.0196235,0.0531437,-0.0762032,0
2024-11-29 18:18:22.208,-0.34008,2.84178,6.77767,0.00984991,0.0555871,-0.0664296,0
2024-11-29 18:18:22.211,-0.335294,2.88245,6.81117,0.000687203,0.0574196,-0.0548235,0
2024-11-29 18:18:22.213,-0.330509,2.9327,6.8686,-0.00908635,0.0580305,-0.0432174,0
2024-11-29 18:18:22.216,-0.328116,2.98535,6.93081,-0.0249684,0.0549763,-0.0236703,0
2024-11-29 18:18:22.219,-0.328116,3.03559,6.98585,-0.0249684,0.0549763,-0.0236703,0
2024-11-29 18:18:22.221,-0.313759,3.08106,7.04836,-0.030466,0.0531437,-0.0114534,0
2024-11-29 18:18:22.222,-0.297009,3.12204,7.11536,-0.0371853,0.0500895,-0.00106898,0
2024-11-29 18:18:22.225,-0.272782,3.17228,7.18714,-0.0451263,0.0470352,0.00687203,0
2024-11-29 18:18:22.227,-0.236889,3.20339,7.24696,-0.0469589,0.0458135,0.0154239,0
2024-11-29 18:18:22.230,-0.200997,3.22253,7.30439,-0.0591758,0.0397051,0.0294734,0
2024-11-29 18:18:22.233,-0.174676,3.26082,7.34985,-0.0591758,0.0397051,0.0294734,0
2024-11-29 18:18:22.234,-0.165105,3.30389,7.40728,-0.0622301,0.0335966,0.0331385,0
2024-11-29 18:18:22.236,-0.165105,3.34935,7.48864,-0.0671168,0.0293207,0.0404686,0
2024-11-29 18:18:22.240,-0.165105,3.3996,7.57747,-0.0768904,0.0195471,0.0514639,0
2024-11-29 18:18:22.241,-0.167498,3.45464,7.6684,-0.0768904,0.0195471,0.0514639,0
2024-11-29 18:18:22.244,-0.174676,3.52164,7.78086,-0.0793338,0.015882,0.055129,0
2024-11-29 18:18:22.247,-0.181855,3.58385,7.88854,-0.0775012,0.0122169,0.0594049,0
2024-11-29 18:18:22.249,-0.193819,3.63171,7.9675,-0.0768904,0.00488678,0.0704001,0
2024-11-29 18:18:22.250,-0.205783,3.69183,8.05843,-0.0768904,0.00488678,0.0704001,0
2024-11-29 18:18:22.253,-0.212961,3.76122,8.1664,-0.0768904,0.00183254,0.0740652,0
2024-11-29 18:18:22.256,-0.227318,3.81147,8.2693,-0.0677277,-0.00244339,0.0832279,0
2024-11-29 18:18:22.258,-0.244068,3.83779,8.36979,-0.0677277,-0.00244339,0.0832279,0
2024-11-29 18:18:22.261,-0.265603,3.86172,8.47029,-0.0548999,-0.00366508,0.0923906,0
2024-11-29 18:18:22.263,-0.267996,3.90479,8.55404,-0.0518457,-0.00366508,0.0966666,0
2024-11-29 18:18:22.268,-0.246461,3.97179,8.69522,-0.0445155,-0.000610847,0.102164,0
2024-11-29 18:18:22.268,-0.246461,3.97179,8.69522,-0.0445155,-0.000610847,0.102164,0
2024-11-29 18:18:22.269,-0.239282,4.01007,8.75055,-0.0359636,0.00610847,0.105829,0
2024-11-29 18:18:22.273,-0.205783,4.03161,8.78644,-0.0292443,0.0116061,0.104608,0
2024-11-29 18:18:22.274,-0.174676,4.04596,8.81755,-0.0255792,0.0226013,0.108273,0
2024-11-29 18:18:22.276,-0.172283,4.0675,8.82234,-0.0219141,0.03604,0.110105,0
2024-11-29 18:18:22.279,-0.174676,4.07468,8.83909,-0.0200816,0.0476461,0.110105,0
2024-11-29 18:18:22.282,-0.177069,4.09621,8.87737,-0.0231358,0.0769668,0.111938,0
2024-11-29 18:18:22.284,-0.191426,4.11775,8.89173,-0.0231358,0.0769668,0.111938,0
2024-11-29 18:18:22.286,-0.215354,4.13928,8.91805,-0.0274118,0.0922379,0.11377,0
2024-11-29 18:18:22.288,-0.251246,4.16321,8.96112,-0.0341311,0.106898,0.115603,0
2024-11-29 18:18:22.292,-0.277567,4.17518,9.00658,-0.050624,0.133776,0.124766,0
2024-11-29 18:18:22.294,-0.308973,4.19193,9.06401,-0.058565,0.145992,0.131485,0
2024-11-29 18:18:22.296,-0.330509,4.21376,9.13101,-0.058565,0.145992,0.131485,0
2024-11-29 18:18:22.298,-0.352044,4.2353,9.22672,-0.0683385,0.15882,0.137593,0
2024-11-29 18:18:22.301,-0.371187,4.24247,9.33949,-0.0775012,0.168594,0.145534,0
2024-11-29 18:18:22.302,-0.368794,4.25205,9.43759,-0.0842206,0.178367,0.153475,0
2024-11-29 18:18:22.306,-0.380758,4.27837,9.55005,-0.0988809,0.193028,0.168136,0
2024-11-29 18:18:22.308,-0.387936,4.30708,9.68405,-0.104989,0.197304,0.176077,0
2024-11-29 18:18:22.309,-0.387936,4.31905,9.81326,-0.104989,0.197304,0.176077,0
2024-11-29 18:18:22.313,-0.397508,4.3334,9.94038,-0.108654,0.199747,0.186461,0
2024-11-29 18:18:22.315,-0.414257,4.35254,10.0863,-0.111098,0.206466,0.202954,0
2024-11-29 18:18:22.317,-0.440578,4.37647,10.2347,-0.111098,0.206466,0.202954,0
2024-11-29 18:18:22.319,-0.478864,4.40997,10.3834,-0.108654,0.207688,0.213338,0
2024-11-29 18:18:22.322,-0.521934,4.44586,10.5461,-0.103768,0.208299,0.22189,0
2024-11-29 18:18:22.325,-0.545863,4.47458,10.7016,-0.090329,0.205245,0.242659,0
2024-11-29 18:18:22.327,-0.562612,4.5009,10.8523,-0.090329,0.205245,0.242659,0
2024-11-29 18:18:22.329,-0.591326,4.5344,10.9986,-0.0799446,0.206466,0.256098,0
2024-11-29 18:18:22.331,-0.610469,4.56551,11.1302,-0.0646735,0.206466,0.266482,0
2024-11-29 18:18:22.334,-0.622433,4.58943,11.2618,-0.0359636,0.207688,0.289694,0
2024-11-29 18:18:22.336,-0.62004,4.60858,11.3934,-0.0359636,0.207688,0.289694,0
2024-11-29 18:18:22.338,-0.60329,4.59661,11.5158,-0.0176382,0.209521,0.30069,0
2024-11-29 18:18:22.340,-0.569791,4.6014,11.621,-0.000534491,0.209521,0.310463,0
2024-11-29 18:18:22.343,-0.50997,4.62054,11.7048,0.0184018,0.208299,0.319015,0
2024-11-29 18:18:22.345,-0.442971,4.61815,11.7646,0.0361163,0.209521,0.328789,0
2024-11-29 18:18:22.348,-0.35683,4.59901,11.8101,0.0709346,0.204023,0.334286,0
2024-11-29 18:18:22.350,-0.267996,4.57986,11.8412,0.0709346,0.204023,0.334286,0
2024-11-29 18:18:22.352,-0.18664,4.55115,11.8508,0.0874275,0.199747,0.336119,0
2024-11-29 18:18:22.355,-0.107677,4.51047,11.8555,0.111251,0.186919,0.329399,0
2024-11-29 18:18:22.357,-0.0239282,4.47697,11.8603,0.111251,0.186919,0.329399,0
2024-11-29 18:18:22.360,0.0622134,4.45065,11.8484,0.124689,0.171037,0.319626,0
2024-11-29 18:18:22.362,0.133998,4.42433,11.846,0.131409,0.163707,0.311685,0
2024-11-29 18:18:22.365,0.20339,4.39801,11.8603,0.132019,0.153323,0.304355,0
2024-11-29 18:18:22.367,0.265603,4.38365,11.8579,0.137517,0.145382,0.293359,0
2024-11-29 18:18:22.369,0.325723,4.37408,11.8579,0.137517,0.145382,0.293359,0
2024-11-29 18:18:22.372,0.385544,4.32144,11.8819,0.134463,0.128278,0.274423,0
2024-11-29 18:18:22.373,0.431007,4.2664,11.9082,0.134463,0.128278,0.274423,0
2024-11-29 18:18:22.376,0.474078,4.24008,11.9489,0.133241,0.120948,0.26526,0
2024-11-29 18:18:22.379,0.507577,4.20389,11.9776,0.127133,0.114228,0.248157,0
2024-11-29 18:18:22.381,0.550648,4.16082,11.9991,0.127133,0.114228,0.248157,0
2024-11-29 18:18:22.382,0.588933,4.12493,12.0302,0.124078,0.117894,0.240827,0
2024-11-29 18:18:22.385,0.610469,4.08186,12.0518,0.1253,0.127667,0.234107,0
2024-11-29 18:18:22.387,0.634397,4.04118,12.0589,0.11797,0.138662,0.226777,0
2024-11-29 18:18:22.389,0.651147,4.00529,12.0637,0.114916,0.155155,0.220669,0
2024-11-29 18:18:22.393,0.655932,3.96461,12.0637,0.111251,0.178367,0.218225,0
2024-11-29 18:18:22.394,0.634397,3.93589,12.0494,0.107585,0.205856,0.215171,0
2024-11-29 18:18:22.398,0.569791,3.92393,12.0159,0.100255,0.23823,0.210284,0
2024-11-29 18:18:22.399,0.505185,3.91197,11.9513,0.100255,0.23823,0.210284,0
2024-11-29 18:18:22.401,0.414257,3.91914,11.8603,0.0837624,0.32436,0.212728,0
2024-11-29 18:18:22.405,0.292223,3.95743,11.779,0.0642153,0.424539,0.220669,0
2024-11-29 18:18:22.407,0.160319,4.01007,11.6904,0.0642153,0.424539,0.220669,0
2024-11-29 18:18:22.408,0.00717847,4.08664,11.5517,0.0538309,0.47585,0.22861,0
2024-11-29 18:18:22.411,-0.145962,4.15843,11.3839,0.0391706,0.525939,0.237161,0
2024-11-29 18:18:22.413,-0.289831,4.22094,11.2331,0.0232886,0.572364,0.245102,0
2024-11-29 18:18:22.415,-0.431007,4.27837,11.0656,0.00435229,0.616956,0.256709,0
2024-11-29 18:18:22.418,-0.550648,4.31665,10.8715,-0.022525,0.656661,0.269536,0
2024-11-29 18:18:22.420,-0.660718,4.33819,10.6681,-0.0518457,0.690257,0.282975,0
2024-11-29 18:18:22.426,-0.818644,4.34058,10.2754,-0.17035,0.747677,0.309241,0
2024-11-29 18:18:22.426,-0.818644,4.34058,10.2754,-0.17035,0.747677,0.309241,0
2024-11-29 18:18:22.427,-0.854836,4.32144,10.1151,-0.17035,0.747677,0.309241,0
2024-11-29 18:18:22.431,-0.852443,4.28555,10.0313,-0.218607,0.745844,0.313517,0
2024-11-29 18:18:22.433,-0.804287,4.25205,9.99303,-0.269918,0.729962,0.310463,0
2024-11-29 18:18:22.435,-0.775574,4.2329,9.9667,-0.320618,0.701253,0.304355,0
2024-11-29 18:18:22.437,-0.76361,4.21137,9.97388,-0.373762,0.659715,0.296414,0
2024-11-29 18:18:22.439,-0.710967,4.17996,10.0624,-0.428128,0.604739,0.284808,0
2024-11-29 18:18:22.442,-0.627219,4.13689,10.2347,-0.528917,0.446529,0.251211,0
2024-11-29 18:18:22.445,-0.52672,4.11296,10.4719,-0.528917,0.446529,0.251211,0
2024-11-29 18:18:22.447,-0.407079,4.09861,10.7447,-0.575953,0.343907,0.22861,0
2024-11-29 18:18:22.448,-0.267996,4.05554,11.0513,-0.620544,0.232733,0.1999,0
2024-11-29 18:18:22.451,-0.129212,3.98854,11.3982,-0.657272,0.114839,0.172412,0
2024-11-29 18:18:22.453,0.0191426,3.90479,11.8077,-0.687203,-0.00916271,0.138815,0
2024-11-29 18:18:22.456,0.18664,3.7995,12.2937,-0.711026,-0.137441,0.107662,0
2024-11-29 18:18:22.458,0.361615,3.68465,12.7989,-0.726908,-0.25961,0.0685676,0
2024-11-29 18:18:22.461,0.524327,3.56949,13.3065,-0.733628,-0.373839,0.0337493,0
2024-11-29 18:18:22.462,0.684646,3.44028,13.7949,-0.731184,-0.480126,-0.00290152,0
2024-11-29 18:18:22.466,0.84018,3.33021,14.2663,-0.702474,-0.657883,-0.073149,0
2024-11-29 18:18:22.468,0.924228,3.32064,14.7452,-0.673765,-0.731184,-0.106746,0
2024-11-29 18:18:22.470,0.945763,3.32303,15.2288,-0.673765,-0.731184,-0.106746,0
2024-11-29 18:18:22.473,0.986441,3.2345,15.7101,-0.634059,-0.795934,-0.141564,0
2024-11-29 18:18:22.474,1.03908,3.11007,16.1985,-0.584504,-0.851521,-0.170885,0
2024-11-29 18:18:22.477,1.08694,2.9351,16.6702,-0.522809,-0.896724,-0.199594,0
2024-11-29 18:18:22.479,1.0989,2.74367,17.0842,-0.453783,-0.927877,-0.225861,0
2024-11-29 18:18:22.482,1.0678,2.58335,17.4362,-0.37193,-0.94437,-0.247851,0
2024-11-29 18:18:22.484,0.895514,2.48734,17.5798,-0.281524,-0.94437,-0.265566,0
2024-11-29 18:18:22.487,0.643968,2.41077,17.5726,-0.188675,-0.917493,-0.271063,1
2024-11-29 18:18:22.489,0.529113,2.30788,17.5893,-0.0915507,-0.880231,-0.267398,0
2024-11-29 18:18:22.491,0.263211,2.24806,17.2711,0.00557398,-0.820368,-0.254571,0
2024-11-29 18:18:22.494,0.177069,2.07099,17.0315,0.0910926,-0.744012,-0.228304,0
2024-11-29 18:18:22.496,0.445364,1.71655,17.0961,0.179665,-0.690257,-0.21059,0
2024-11-29 18:18:22.499,0.588933,1.35015,16.9334,0.266406,-0.647498,-0.194708,0
2024-11-29 18:18:22.501,0.643968,0.988834,16.6415,0.350092,-0.601074,-0.182491,0
2024-11-29 18:18:22.504,0.629611,0.670289,16.2535,0.429502,-0.543654,-0.172106,0
2024-11-29 18:18:22.505,0.565005,0.404686,15.8513,0.50769,-0.471574,-0.157446,0
2024-11-29 18:18:22.507,0.493221,0.181855,15.5091,0.585268,-0.391553,-0.141564,0
2024-11-29 18:18:22.510,0.354437,0.0526421,15.0757,0.662235,-0.301759,-0.12446,0
2024-11-29 18:18:22.513,0.11007,0.0119641,14.4891,0.790513,-0.0922379,-0.0652079,0
2024-11-29 18:18:22.515,-0.179462,0.0574277,13.826,0.790513,-0.0922379,-0.0652079,0
2024-11-29 18:18:22.517,-0.488435,0.167498,13.1507,0.839381,0.0134386,-0.0224486,0
2024-11-29 18:18:22.520,-0.811466,0.287438,12.4612,0.893746,0.189974,0.0832279,0
2024-11-29 18:18:22.522,-1.10608,0.409472,11.7503,0.893746,0.189974,0.0832279,0
2024-11-29 18:18:22.524,-1.32383,0.500399,11.08,0.897411,0.254112,0.146145,0
2024-11-29 18:18:22.526,-1.45334,0.555434,10.4743,0.886416,0.296261,0.208452,0
2024-11-29 18:18:22.529,-1.4653,0.600898,9.93799,0.865036,0.321306,0.26465,0
2024-11-29 18:18:22.532,-1.41984,0.641576,9.4352,0.831439,0.33169,0.319015,0
2024-11-29 18:18:22.534,-1.35733,0.715753,8.95634,0.787458,0.334744,0.36605,0
2024-11-29 18:18:22.536,-1.25444,0.811466,8.53729,0.736147,0.331079,0.406977,0
2024-11-29 18:18:22.539,-1.13001,0.888335,8.19751,0.682393,0.321306,0.440574,0
2024-11-29 18:18:22.540,-0.97687,0.998405,7.94836,0.623141,0.306034,0.465618,0
2024-11-29 18:18:22.544,-0.794716,1.1348,7.75454,0.495473,0.263886,0.494939,0
2024-11-29 18:18:22.546,-0.596112,1.27358,7.61336,0.495473,0.263886,0.494939,0
2024-11-29 18:18:22.548,-0.387936,1.42223,7.54607,0.42828,0.235176,0.497993,0
2024-11-29 18:18:22.551,-0.191426,1.57298,7.51974,0.297559,0.16615,0.485165,0
2024-11-29 18:18:22.553,0.0167498,1.71177,7.52453,0.235863,0.131943,0.467451,0
2024-11-29 18:18:22.554,0.263211,1.81944,7.58465,0.235863,0.131943,0.467451,0
2024-11-29 18:18:22.557,0.869193,1.71655,8.07996,0.178444,0.0861295,0.440574,0
2024-11-29 18:18:22.560,1.60648,1.50359,8.82952,0.141182,0.015882,0.389873,0
2024-11-29 18:18:22.561,1.6328,1.57298,8.8678,0.117359,-0.0415376,0.327567,0
2024-11-29 18:18:22.565,1.25683,1.82423,8.46072,0.0678804,-0.0311532,0.227999,0
2024-11-29 18:18:22.566,1.11087,2.04227,8.3363,0.0678804,-0.0311532,0.227999,0
2024-11-29 18:18:22.569,1.0989,2.2337,8.42244,0.0440574,-0.0146603,0.189515,0
2024-11-29 18:18:22.571,1.11326,2.38684,8.55643,0.0232886,-0.015882,0.154086,0
2024-11-29 18:18:22.574,1.1324,2.4993,8.65215,-0.0268009,-0.0769668,0.0905581,0
2024-11-29 18:18:22.577,1.15633,2.55464,8.6689,-0.0555107,-0.124002,0.0569615,0
2024-11-29 18:18:22.579,1.17787,2.52832,8.63301,-0.0842206,-0.17287,0.0251975,0
2024-11-29 18:18:22.581,1.21137,2.43948,8.61147,-0.0842206,-0.17287,0.0251975,0
2024-11-29 18:18:22.584,1.28315,2.31027,8.63061,-0.11232,-0.218072,-0.0077883,0
2024-11-29 18:18:22.586,1.36211,2.16909,8.7027,-0.135532,-0.260221,-0.0481042,0
2024-11-29 18:18:22.587,1.39561,2.0327,8.79362,-0.153857,-0.296872,-0.089031,0
2024-11-29 18:18:22.591,1.36211,1.9008,8.89412,-0.164242,-0.326192,-0.133012,0
2024-11-29 18:18:22.593,1.27597,1.80748,8.98983,-0.177069,-0.378725,-0.214866,0
2024-11-29 18:18:22.595,1.15394,1.73091,9.05923,-0.177069,-0.378725,-0.214866,0
2024-11-29 18:18:22.597,0.988834,1.68305,9.12623,-0.177069,-0.401937,-0.253349,0
2024-11-29 18:18:22.600,0.80668,1.66391,9.16451,-0.172793,-0.450805,-0.315655,0
2024-11-29 18:18:22.602,0.639183,1.64955,9.17887,-0.172793,-0.450805,-0.315655,0
2024-11-29 18:18:22.604,0.483649,1.65434,9.19562,-0.167296,-0.476461,-0.3407,0
2024-11-29 18:18:22.607,0.30658,1.65673,9.18365,-0.16302,-0.494786,-0.357193,0
2024-11-29 18:18:22.609,0.0957129,1.67587,9.12862,-0.159966,-0.511279,-0.370021,0
2024-11-29 18:18:22.611,-0.11007,1.69023,9.07119,-0.153857,-0.520442,-0.376129,0
2024-11-29 18:18:22.614,-0.285045,1.68305,9.01376,-0.150192,-0.532048,-0.376129,0
2024-11-29 18:18:22.617,-0.414257,1.66869,8.94198,-0.150192,-0.532048,-0.376129,0
2024-11-29 18:18:22.619,-0.524327,1.63041,8.88694,-0.144694,-0.547319,-0.361469,0
2024-11-29 18:18:22.620,-0.600898,1.58734,8.88216,-0.144694,-0.547319,-0.361469,0
2024-11-29 18:18:22.624,-0.651147,1.55623,8.90609,-0.143473,-0.56931,-0.340089,0
2024-11-29 18:18:22.626,-0.703789,1.52752,8.91326,-0.143473,-0.56931,-0.340089,0
2024-11-29 18:18:22.627,-0.734896,1.51077,8.90369,-0.142251,-0.579694,-0.329094,0
2024-11-29 18:18:22.631,-0.754038,1.48445,8.91326,-0.13431,-0.598019,-0.299162,0
2024-11-29 18:18:22.632,-0.76361,1.47009,8.92523,-0.13431,-0.598019,-0.299162,0
2024-11-29 18:18:22.634,-0.758824,1.45334,8.92284,-0.127591,-0.604128,-0.283891,0
2024-11-29 18:18:22.637,-0.737288,1.43181,8.95155,-0.124536,-0.606571,-0.268009,0
2024-11-29 18:18:22.640,-0.71336,1.43898,8.97069,-0.115374,-0.607182,-0.253349,0
2024-11-29 18:18:22.642,-0.694218,1.44855,8.9683,-0.106822,-0.603517,-0.236856,0
2024-11-29 18:18:22.644,-0.660718,1.46052,8.98266,-0.101324,-0.599241,-0.219141,0
2024-11-29 18:18:22.646,-0.624826,1.4653,8.99223,-0.0909399,-0.593133,-0.204481,0
2024-11-29 18:18:22.650,-0.584148,1.47248,8.99462,-0.082388,-0.587024,-0.187988,0
2024-11-29 18:18:22.651,-0.555434,1.48445,8.99701,-0.0701711,-0.578472,-0.169663,0
2024-11-29 18:18:22.654,-0.52672,1.4988,8.99941,-0.050624,-0.558314,-0.136677,0
2024-11-29 18:18:22.656,-0.452543,1.51077,9.00898,-0.050624,-0.558314,-0.136677,0
2024-11-29 18:18:22.659,-0.375972,1.52513,9.0018,-0.0390179,-0.543654,-0.120184,0
2024-11-29 18:18:22.661,-0.308973,1.53948,8.98744,-0.0261901,-0.529605,-0.104913,0
2024-11-29 18:18:22.664,-0.227318,1.54905,8.97787,-0.00114534,-0.499673,-0.0774249,0
2024-11-29 18:18:22.665,-0.160319,1.54666,8.95155,-0.00114534,-0.499673,-0.0774249,0
2024-11-29 18:18:22.668,-0.100499,1.54905,8.92044,0.0122933,-0.484402,-0.0670405,0
2024-11-29 18:18:22.671,-0.0358923,1.57298,8.89173,0.0257319,-0.46852,-0.0536018,0
2024-11-29 18:18:22.672,0.0119641,1.58973,8.85823,0.0367272,-0.449584,-0.0407741,0
2024-11-29 18:18:22.674,0.0526421,1.61127,8.80319,0.0477224,-0.428815,-0.0279463,0
2024-11-29 18:18:22.678,0.081356,1.63998,8.7338,0.0739889,-0.38239,-0.00290152,0
2024-11-29 18:18:22.680,0.100499,1.66869,8.68086,0.0739889,-0.38239,-0.00290152,0
2024-11-29 18:18:22.683,0.119641,1.69741,8.62583,0.0990336,-0.32436,0.0239758,0
2024-11-29 18:18:22.685,0.145962,1.72612,8.54926,0.0990336,-0.32436,0.0239758,0
2024-11-29 18:18:22.686,0.174676,1.74766,8.46551,0.111251,-0.291374,0.0392469,0
2024-11-29 18:18:22.689,0.20339,1.77876,8.37219,0.119802,-0.255945,0.0526856,0
2024-11-29 18:18:22.692,0.244068,1.80748,8.27408,0.13263,-0.217462,0.0661242,0
2024-11-29 18:18:22.694,0.277567,1.82423,8.1664,0.145458,-0.177757,0.0832279,0
2024-11-29 18:18:22.697,0.294616,1.82901,8.03929,0.16134,-0.0885729,0.110716,0
2024-11-29 18:18:22.699,0.316152,1.82901,7.88854,0.16134,-0.0885729,0.110716,0
2024-11-29 18:18:22.700,0.349651,1.85055,7.74497,0.168059,-0.0415376,0.122933,0
2024-11-29 18:18:22.704,0.390329,1.86969,7.59422,0.173557,0.00549763,0.134539,0
2024-11-29 18:18:22.705,0.3999,1.88644,7.42882,0.177222,0.0500895,0.144924,0
2024-11-29 18:18:22.708,0.385544,1.91755,7.27568,0.176611,0.0928488,0.152865,0
2024-11-29 18:18:22.711,0.392722,1.9657,7.12732,0.16867,0.171037,0.17119,0
2024-11-29 18:18:22.712,0.385544,2.02313,6.97388,0.16867,0.171037,0.17119,0
2024-11-29 18:18:22.715,0.364008,2.0686,6.81835,0.162562,0.207688,0.177909,0
2024-11-29 18:18:22.718,0.352044,2.10688,6.66521,0.15401,0.240674,0.184629,0
2024-11-29 18:18:22.720,0.34008,2.14756,6.52164,0.142404,0.272438,0.188905,0
2024-11-29 18:18:22.722,0.332901,2.18584,6.38973,0.132019,0.299926,0.190737,0
2024-11-29 18:18:22.724,0.325723,2.20738,6.28206,0.119802,0.323749,0.19318,0
2024-11-29 18:18:22.726,0.320937,2.22413,6.19113,0.106364,0.341464,0.195013,0
2024-11-29 18:18:22.729,0.337687,2.24327,6.07867,0.0904818,0.356735,0.194402,0
2024-11-29 18:18:22.732,0.361615,2.26959,5.9662,0.0764323,0.364676,0.19318,0
2024-11-29 18:18:22.734,0.375972,2.29591,5.87019,0.057496,0.364676,0.187683,0
2024-11-29 18:18:22.739,0.352044,2.36531,5.71705,0.0190126,0.348183,0.177909,0
2024-11-29 18:18:22.739,0.352044,2.36531,5.71705,0.0190126,0.348183,0.177909,0
2024-11-29 18:18:22.740,0.34008,2.38684,5.6668,-0.00481042,0.332912,0.173633,0
2024-11-29 18:18:22.743,0.330509,2.42273,5.64287,-0.0274118,0.315808,0.165692,0
2024-11-29 18:18:22.746,0.32333,2.47059,5.62134,-0.0658951,0.277325,0.154086,0
2024-11-29 18:18:22.749,0.308973,2.51845,5.61177,-0.0658951,0.277325,0.154086,0
2024-11-29 18:18:22.750,0.297009,2.57378,5.65245,-0.0658951,0.277325,0.154086,0
2024-11-29 18:18:22.753,0.285045,2.62164,5.68834,-0.104989,0.233955,0.136983,0
2024-11-29 18:18:22.756,0.263211,2.66949,5.74337,-0.121482,0.207688,0.129652,0
2024-11-29 18:18:22.758,0.251246,2.71256,5.81994,-0.150192,0.152101,0.114992,0
2024-11-29 18:18:22.760,0.246461,2.74367,5.90638,-0.158744,0.123391,0.105218,0
2024-11-29 18:18:22.762,0.244068,2.78196,5.99013,-0.158744,0.123391,0.105218,0
2024-11-29 18:18:22.764,0.229711,2.82024,6.08585,-0.168517,0.0904054,0.0972774,0
2024-11-29 18:18:22.766,0.217747,2.85853,6.19831,-0.173404,0.0616956,0.0862822,0
2024-11-29 18:18:22.770,0.212961,2.88963,6.29881,-0.17768,0.0299315,0.078952,0
2024-11-29 18:18:22.772,0.205783,2.92552,6.3993,-0.179513,0.000610847,0.0679568,0
2024-11-29 18:18:22.773,0.184247,2.96381,6.51207,-0.181345,-0.0299315,0.0569615,0
2024-11-29 18:18:22.776,0.162712,2.98295,6.61017,-0.179513,-0.0604739,0.0484096,0
2024-11-29 18:18:22.779,0.157926,3.01645,6.70828,-0.177069,-0.0904054,0.0398578,0
2024-11-29 18:18:22.781,0.141177,3.04277,6.81356,-0.175237,-0.116672,0.0325276,0
2024-11-29 18:18:22.783,0.124427,3.05952,6.92124,-0.169739,-0.142938,0.0233649,0
2024-11-29 18:18:22.786,0.12682,3.07388,7.02682,-0.158133,-0.194249,0.0129805,0
2024-11-29 18:18:22.788,0.143569,3.08345,7.12014,-0.158133,-0.194249,0.0129805,0
2024-11-29 18:18:22.791,0.148355,3.08854,7.22064,-0.154468,-0.216851,0.00809373,0
2024-11-29 18:18:22.793,0.148355,3.07867,7.31875,-0.14836,-0.239452,0.00198525,0
2024-11-29 18:18:22.795,0.177069,3.07867,7.41685,-0.14164,-0.260221,-0.000458135,0
2024-11-29 18:18:22.798,0.196211,3.09571,7.52453,-0.135532,-0.28099,-0.000458135,0
2024-11-29 18:18:22.800,0.210568,3.11964,7.64926,-0.12698,-0.298704,0.000152712,0
2024-11-29 18:18:22.803,0.234497,3.13879,7.77847,-0.117817,-0.313365,-0.00106898,0
2024-11-29 18:18:22.805,0.248854,3.15553,7.90289,-0.0958267,-0.338409,0.0025961,0
2024-11-29 18:18:22.807,0.272782,3.16989,8.0345,-0.0958267,-0.338409,0.0025961,0
2024-11-29 18:18:22.810,0.299402,3.18425,8.15923,-0.0854423,-0.349405,0.00320695,0
2024-11-29 18:18:22.811,0.316152,3.20578,8.27647,-0.0713928,-0.355513,0.00503949,0
2024-11-29 18:18:22.813,0.316152,3.22732,8.40329,-0.0579541,-0.357346,0.00992627,0
2024-11-29 18:18:22.817,0.313759,3.23689,8.52054,-0.0414613,-0.354902,0.0117588,0
2024-11-29 18:18:22.819,0.328116,3.25603,8.61625,-0.0243575,-0.348183,0.0142022,0
2024-11-29 18:18:22.821,0.349651,3.3015,8.69761,-0.00664296,-0.335966,0.0166456,0
2024-11-29 18:18:22.823,0.364008,3.34457,8.77687,0.0110716,-0.315808,0.0221432,0
2024-11-29 18:18:22.826,0.368794,3.35653,8.84148,0.0489441,-0.267551,0.0288625,0
2024-11-29 18:18:22.829,0.366401,3.37328,8.87019,0.0489441,-0.267551,0.0288625,0
2024-11-29 18:18:22.830,0.373579,3.42114,8.87976,0.065437,-0.23762,0.0300842,0
2024-11-29 18:18:22.836,0.368794,3.50249,8.8343,0.093536,-0.172259,0.0380252,0
2024-11-29 18:18:22.836,0.368794,3.50249,8.8343,0.093536,-0.172259,0.0380252,0
2024-11-29 18:18:22.838,0.361615,3.52642,8.77209,0.10331,-0.138051,0.0392469,0
2024-11-29 18:18:22.840,0.34008,3.55274,8.7027,0.110029,-0.104455,0.0398578,0
2024-11-29 18:18:22.842,0.318545,3.59581,8.62343,0.111861,-0.0684149,0.0398578,0
2024-11-29 18:18:22.845,0.311366,3.64367,8.5349,0.11064,-0.0342074,0.0404686,0
2024-11-29 18:18:22.846,0.297009,3.68704,8.43679,0.105753,0.000610847,0.0392469,0
2024-11-29 18:18:22.850,0.285045,3.72054,8.34826,0.0965902,0.0329858,0.0374144,0
2024-11-29 18:18:22.851,0.287438,3.75883,8.26451,0.0807082,0.067804,0.0361927,0
2024-11-29 18:18:22.855,0.294616,3.79232,8.19512,0.0642153,0.0989573,0.0294734,0
2024-11-29 18:18:22.857,0.320937,3.81386,8.14726,0.0428357,0.133165,0.0227541,0
2024-11-29 18:18:22.858,0.352044,3.85693,8.12543,0.0190126,0.161264,0.0142022,0
2024-11-29 18:18:22.863,0.387936,3.9335,8.15205,-0.0286335,0.224792,-0.0108425,0
2024-11-29 18:18:22.864,0.387936,3.9335,8.15205,-0.0579541,0.253502,-0.0261137,0
2024-11-29 18:18:22.868,0.34008,4.02921,8.20708,-0.0842206,0.283433,-0.0413849,0
2024-11-29 18:18:22.869,0.34008,4.02921,8.20708,-0.0842206,0.283433,-0.0413849,0
2024-11-29 18:18:22.870,0.304188,4.07946,8.25733,-0.108044,0.312143,-0.0560452,0
2024-11-29 18:18:22.873,0.272782,4.12014,8.33869,-0.134921,0.335966,-0.0707056,0
2024-11-29 18:18:22.876,0.232104,4.16321,8.44876,-0.164242,0.354902,-0.0859767,0
2024-11-29 18:18:22.878,0.179462,4.18953,8.5684,-0.189286,0.367119,-0.100026,0
2024-11-29 18:18:22.879,0.124427,4.21855,8.70509,-0.208833,0.381169,-0.114076,0
2024-11-29 18:18:22.883,0.081356,4.24487,8.8678,-0.228381,0.387888,-0.128125,0
2024-11-29 18:18:22.884,0.0478565,4.2688,9.04008,-0.247317,0.392775,-0.140342,0
2024-11-29 18:18:22.887,0.00239282,4.28555,9.2028,-0.261977,0.392164,-0.151948,0
2024-11-29 18:18:22.890,-0.0526421,4.28555,9.36102,-0.279692,0.387277,-0.172717,0
2024-11-29 18:18:22.892,-0.102891,4.30469,9.52852,-0.282746,0.378114,-0.180047,0
2024-11-29 18:18:22.895,-0.131605,4.31187,9.70559,-0.282746,0.366508,-0.187377,0
2024-11-29 18:18:22.896,-0.148355,4.2999,9.87338,-0.282746,0.366508,-0.187377,0
2024-11-29 18:18:22.899,-0.16989,4.28076,10.0385,-0.281524,0.352459,-0.194708,0
2024-11-29 18:18:22.901,-0.184247,4.25922,10.1988,-0.276027,0.336577,-0.199594,0
2024-11-29 18:18:22.904,-0.18664,4.23051,10.3376,-0.257701,0.291985,-0.205703,0
2024-11-29 18:18:22.905,-0.177069,4.20389,10.4695,-0.257701,0.291985,-0.205703,0
2024-11-29 18:18:22.909,-0.172283,4.18714,10.6059,-0.2351,0.235787,-0.208757,0
2024-11-29 18:18:22.911,-0.181855,4.14886,10.7495,-0.22105,0.206466,-0.209368,0
2024-11-29 18:18:22.913,-0.189033,4.11296,10.8882,-0.22105,0.206466,-0.209368,0
2024-11-29 18:18:22.915,-0.193819,4.09382,11.0369,-0.20639,0.174091,-0.206314,0
2024-11-29 18:18:22.918,-0.200997,4.0675,11.1972,-0.172183,0.102011,-0.195318,0
2024-11-29 18:18:22.919,-0.20339,4.03879,11.3647,-0.172183,0.102011,-0.195318,0
2024-11-29 18:18:22.923,-0.191426,4.00768,11.5349,-0.132477,0.0268773,-0.179436,0
2024-11-29 18:18:22.927,-0.145962,3.97657,11.889,-0.111098,-0.00794101,-0.168441,0
2024-11-29 18:18:22.927,-0.145962,3.97657,11.889,-0.111098,-0.00794101,-0.168441,0
2024-11-29 18:18:22.930,-0.117248,3.94547,12.0541,-0.0872748,-0.0415376,-0.158668,0
2024-11-29 18:18:22.931,-0.0741775,3.91914,12.2052,-0.0616192,-0.0684149,-0.147672,0
2024-11-29 18:18:22.934,-0.0358923,3.9,12.3392,-0.0322986,-0.0922379,-0.136066,0
2024-11-29 18:18:22.936,0.00239282,3.88804,12.4517,-0.00542127,-0.111174,-0.123238,0
2024-11-29 18:18:22.939,0.0430708,3.87607,12.5426,0.0501658,-0.134997,-0.100637,0
2024-11-29 18:18:22.942,0.0646062,3.87129,12.6266,0.0501658,-0.134997,-0.100637,0
2024-11-29 18:18:22.943,0.0885344,3.87129,12.6793,0.0800973,-0.139273,-0.0853659,0
2024-11-29 18:18:22.946,0.117248,3.85693,12.7176,0.107585,-0.136219,-0.0737598,0
2024-11-29 18:18:22.948,0.119641,3.84497,12.7319,0.13263,-0.128278,-0.0597103,0
2024-11-29 18:18:22.950,0.133998,3.84975,12.696,0.158897,-0.113007,-0.0462717,0
2024-11-29 18:18:22.952,0.157926,3.84257,12.6434,0.179055,-0.0952922,-0.0310005,0
2024-11-29 18:18:22.955,0.148355,3.85454,12.5809,0.19738,-0.0708583,-0.0187836,0
2024-11-29 18:18:22.958,0.153141,3.85693,12.4875,0.229144,-0.0109953,0.00931542,0
2024-11-29 18:18:22.960,0.162712,3.833,12.3966,0.229144,-0.0109953,0.00931542,0
2024-11-29 18:18:22.963,0.145962,3.8354,12.2961,0.246248,0.0580305,0.0410795,0
2024-11-29 18:18:22.964,0.124427,3.833,12.2148,0.246248,0.0580305,0.0410795,0
2024-11-29 18:18:22.968,0.112463,3.82343,12.1454,0.251745,0.0916271,0.0569615,0
2024-11-29 18:18:22.970,0.0861416,3.83779,12.0808,0.255411,0.125835,0.0746761,0
2024-11-29 18:18:22.972,0.0478565,3.85932,12.0374,0.257243,0.161875,0.0917798,0
2024-11-29 18:18:22.974,0.0215354,3.86411,11.956,0.259076,0.199747,0.108884,0
2024-11-29 18:18:22.977,0.00239282,3.86172,11.8436,0.258465,0.235176,0.12782,0
2024-11-29 18:18:22.979,-0.0215354,3.86172,11.7168,0.257854,0.274881,0.14248,0
2024-11-29 18:18:22.983,-0.0981057,3.90479,11.47,0.246248,0.349405,0.174244,0
2024-11-29 18:18:22.984,-0.0981057,3.90479,11.47,0.246248,0.349405,0.174244,0
2024-11-29 18:18:22.985,-0.167498,3.93829,11.3671,0.238918,0.38239,0.187072,0
2024-11-29 18:18:22.989,-0.251246,3.97657,11.257,0.214484,0.437977,0.218225,0
2024-11-29 18:18:22.990,-0.337687,4.03161,11.1494,0.214484,0.437977,0.218225,0
2024-11-29 18:18:22.993,-0.421436,4.09382,11.0536,0.201656,0.460579,0.231664,0
2024-11-29 18:18:22.995,-0.512363,4.17757,10.9675,0.188828,0.48318,0.249378,0
2024-11-29 18:18:22.998,-0.608076,4.27597,10.8882,0.176,0.50456,0.265871,0
2024-11-29 18:18:23.001,-0.701396,4.3669,10.7949,0.158286,0.51922,0.284197,0
2024-11-29 18:18:23.003,-0.770788,4.45544,10.6968,0.143625,0.532659,0.304355,0
2024-11-29 18:18:23.005,-0.828216,4.52961,10.6083,0.107585,0.546097,0.341005,0
2024-11-29 18:18:23.008,-0.864407,4.58943,10.5197,0.0874275,0.543654,0.355666,0
2024-11-29 18:18:23.009,-0.842872,4.64447,10.436,0.0874275,0.543654,0.355666,0
2024-11-29 18:18:23.012,-0.825823,4.68515,10.3352,0.0617719,0.533881,0.37277,0
2024-11-29 18:18:23.015,-0.816252,4.71147,10.194,0.033673,0.517998,0.386208,0
2024-11-29 18:18:23.016,-0.782752,4.74736,10.0457,0.00435229,0.499673,0.396593,0
2024-11-29 18:18:23.018,-0.708575,4.77637,9.93081,-0.0316877,0.471574,0.404534,0
2024-11-29 18:18:23.022,-0.519542,4.75693,9.87817,-0.0982701,0.351848,0.391706,0
2024-11-29 18:18:23.024,0.663111,4.14168,11.3432,-0.0982701,0.351848,0.391706,0
2024-11-29 18:18:23.025,1.47966,3.63889,12.5737,-0.0872748,0.163707,0.334897,0
2024-11-29 18:18:23.028,0.675075,3.94786,11.4604,-0.0817772,0.0653607,0.282975,0
2024-11-29 18:18:23.031,0.133998,4.27358,10.5174,-0.109876,0.0580305,0.237161,0
2024-11-29 18:18:23.034,0.270389,4.48176,10.6537,-0.109876,0.0580305,0.237161,0
2024-11-29 18:18:23.035,0.292223,4.67079,10.8835,-0.128812,0.0189363,0.220058,0
2024-11-29 18:18:23.038,0.200997,4.82662,10.8954,-0.158133,-0.0592522,0.20723,0
2024-11-29 18:18:23.041,0.236889,4.93191,10.8906,-0.257701,-0.320084,0.184629,0
2024-11-29 18:18:23.042,0.328116,4.97976,10.8811,-0.257701,-0.320084,0.184629,0
2024-11-29 18:18:23.044,0.454935,4.98455,10.8284,-0.323062,-0.469742,0.173022,0
2024-11-29 18:18:23.048,0.663111,4.95105,10.8069,-0.394531,-0.609015,0.15714,0
2024-11-29 18:18:23.049,0.945763,4.86251,10.9074,-0.469665,-0.733017,0.137593,0
2024-11-29 18:18:23.051,1.32383,4.68275,11.269,-0.54541,-0.847856,0.111938,0
2024-11-29 18:18:23.054,1.77876,4.43629,11.8986,-0.611993,-0.962695,0.0734544,0
2024-11-29 18:18:23.057,2.16909,4.17039,12.5187,-0.707361,-1.16305,-0.0212269,0
2024-11-29 18:18:23.058,2.48973,3.92154,13.0837,-0.707361,-1.16305,-0.0212269,0
2024-11-29 18:18:23.061,2.76521,3.699,13.6726,-0.736071,-1.24307,-0.0792574,0
2024-11-29 18:18:23.064,2.86331,3.52164,14.185,-0.751953,-1.34272,-0.197151,0
2024-11-29 18:18:23.067,2.90878,3.33978,14.7404,-0.751953,-1.34272,-0.197151,0
2024-11-29 18:18:23.068,3.01645,3.11486,15.4373,-0.740958,-1.37754,-0.256403,0
2024-11-29 18:18:23.070,3.09093,2.89681,16.1004,-0.71347,-1.40503,-0.315044,0
2024-11-29 18:18:23.073,3.12204,2.68864,16.6726,-0.671321,-1.42152,-0.371853,0
2024-11-29 18:18:23.075,2.88724,2.61446,16.9478,-0.618712,-1.41724,-0.424386,0
2024-11-29 18:18:23.078,2.40838,2.62403,16.8808,-0.500818,-1.30294,-0.486082,0
2024-11-29 18:18:23.080,2.2337,2.49691,17.0387,-0.500818,-1.30294,-0.486082,0
2024-11-29 18:18:23.083,2.30309,2.25284,17.4458,-0.355437,-1.17038,-0.527619,0
2024-11-29 18:18:23.084,2.26002,1.98245,17.683,-0.355437,-1.17038,-0.527619,0
2024-11-29 18:18:23.088,2.17149,1.70459,17.7763,-0.187454,-0.998124,-0.558773,1
2024-11-29 18:18:23.089,2.08056,1.4004,17.7547,-0.187454,-0.998124,-0.558773,0
2024-11-29 18:18:23.092,1.94148,1.1013,17.6444,-0.0994917,-0.888172,-0.567935,0
2024-11-29 18:18:23.094,1.76441,0.830609,17.4793,-0.00725381,-0.76417,-0.569768,0
2024-11-29 18:18:23.097,1.57537,0.569791,17.2807,0.0874275,-0.624897,-0.565492,0
2024-11-29 18:18:23.099,1.35254,0.335294,17.0698,0.183941,-0.477072,-0.552664,0
2024-11-29 18:18:23.102,1.1013,0.133998,16.8592,0.378191,-0.180811,-0.500742,0
2024-11-29 18:18:23.104,0.854836,-0.0550349,16.6271,0.378191,-0.180811,-0.500742,0
2024-11-29 18:18:23.106,0.596112,-0.200997,16.3014,0.472261,-0.0403159,-0.464091,0
2024-11-29 18:18:23.109,0.292223,-0.27996,15.7938,0.56511,0.101401,-0.417056,0
2024-11-29 18:18:23.110,-0.0550349,-0.292223,15.1331,0.648185,0.251058,-0.360858,0
2024-11-29 18:18:23.113,-0.404686,-0.234497,14.458,0.722098,0.404992,-0.295497,0
2024-11-29 18:18:23.116,-0.73011,-0.122034,13.8093,0.785626,0.553428,-0.221585,0
2024-11-29 18:18:23.118,-1.04865,0.00478565,13.1578,0.839991,0.685981,-0.140342,0
2024-11-29 18:18:23.121,-1.28794,0.100499,12.4852,0.877864,0.795934,-0.0548235,0
2024-11-29 18:18:23.122,-1.41027,0.165105,11.822,0.901076,0.880842,0.0306951,0
2024-11-29 18:18:23.125,-1.48205,0.222533,11.19,0.912682,0.941316,0.114992,0
2024-11-29 18:18:23.128,-1.49641,0.294616,10.5724,0.888859,0.996903,0.270758,0
2024-11-29 18:18:23.129,-1.44616,0.375972,9.99542,0.888859,0.996903,0.270758,0
2024-11-29 18:18:23.132,-1.32622,0.447757,9.47827,0.863204,1.00118,0.339784,0
2024-11-29 18:18:23.134,-1.14197,0.533899,9.02812,0.825331,0.988351,0.401479,0
2024-11-29 18:18:23.137,-0.907478,0.629611,8.64736,0.78135,0.962084,0.452791,0
2024-11-29 18:18:23.139,-0.641576,0.732503,8.35304,0.73065,0.92299,0.49555,0
2024-11-29 18:18:23.142,-0.342473,0.857229,8.11825,0.676895,0.873512,0.528536,0
2024-11-29 18:18:23.144,0.289831,0.835394,8.32194,0.576105,0.69209,0.541363,0
2024-11-29 18:18:23.146,1.12283,0.670289,8.90369,0.576105,0.69209,0.541363,0
2024-11-29 18:18:23.148,1.41266,0.744467,9.03051,0.547396,0.579083,0.514486,0
2024-11-29 18:18:23.151,1.18744,1.08694,8.67847,0.516853,0.502727,0.493106,0
2024-11-29 18:18:23.154,1.08455,1.41984,8.49901,0.482646,0.452638,0.476614,0
2024-11-29 18:18:23.155,1.1994,1.69023,8.65454,0.457601,0.400716,0.461342,0
2024-11-29 18:18:23.158,1.39561,1.93908,8.91566,0.435,0.335966,0.444239,0
2024-11-29 18:18:23.162,1.85773,2.29113,9.3682,0.39957,0.154544,0.405755,0
2024-11-29 18:18:23.163,1.85773,2.29113,9.3682,0.381856,0.059863,0.383154,0
2024-11-29 18:18:23.165,2.04945,2.41795,9.40409,0.381856,0.059863,0.383154,0
2024-11-29 18:18:23.167,2.25045,2.49691,9.39213,0.365974,-0.020158,0.353833,0
2024-11-29 18:18:23.169,2.49212,2.5331,9.37538,0.34887,-0.0891837,0.326956,0
2024-11-29 18:18:23.172,2.77478,2.53071,9.37299,0.334821,-0.139884,0.292138,0
2024-11-29 18:18:23.177,3.08106,2.40598,9.49023,0.306111,-0.245561,0.152254,0
2024-11-29 18:18:23.177,3.39721,2.40598,9.49023,0.306111,-0.245561,0.152254,0
2024-11-29 18:18:23.179,3.68943,2.31027,9.59073,0.306111,-0.245561,0.152254,0
2024-11-29 18:18:23.182,3.91675,2.21695,9.6338,0.297559,-0.295039,0.0251975,0
2024-11-29 18:18:23.183,4.08664,2.12842,9.6338,0.297559,-0.295039,0.0251975,0
2024-11-29 18:18:23.187,4.18714,2.04706,9.61705,0.294505,-0.31031,-0.0419957,0
2024-11-29 18:18:23.188,4.21855,1.97528,9.54766,0.292061,-0.318862,-0.111632,0
2024-11-29 18:18:23.190,4.19432,1.89841,9.46391,0.293283,-0.321916,-0.182491,0
2024-11-29 18:18:23.193,4.09861,1.83619,9.37538,0.294505,-0.318251,-0.251516,0
2024-11-29 18:18:23.196,3.95264,1.8003,9.22194,0.285342,-0.293818,-0.380405,0
2024-11-29 18:18:23.198,3.766,1.77159,9.00898,0.285342,-0.293818,-0.380405,0
2024-11-29 18:18:23.201,3.52403,1.73569,8.74816,0.260908,-0.254112,-0.484249,0
2024-11-29 18:18:23.205,2.94945,1.66869,8.1999,0.240139,-0.2309,-0.52823,0
2024-11-29 18:18:23.206,2.94945,1.66869,8.1999,0.215095,-0.211353,-0.565492,0
2024-11-29 18:18:23.207,2.64317,1.6328,7.934,0.215095,-0.211353,-0.565492,0
2024-11-29 18:18:23.210,2.34377,1.59691,7.6995,0.183331,-0.194249,-0.594202,0
2024-11-29 18:18:23.213,2.04945,1.57777,7.51017,0.113083,-0.163096,-0.631463,0
2024-11-29 18:18:23.214,1.76201,1.55862,7.369,0.113083,-0.163096,-0.631463,0
2024-11-29 18:18:23.217,1.50598,1.53709,7.26371,0.0410031,-0.139884,-0.644902,0
2024-11-29 18:18:23.219,1.29272,1.51316,7.20628,0.0410031,-0.139884,-0.644902,0
2024-11-29 18:18:23.222,1.12762,1.48923,7.19911,0.00618483,-0.13011,-0.647345,0
2024-11-29 18:18:23.224,0.996012,1.44855,7.21346,-0.0237467,-0.120337,-0.646735,0
2024-11-29 18:18:23.226,0.854836,1.41984,7.23261,-0.0518457,-0.105677,-0.643069,0
2024-11-29 18:18:23.228,0.720539,1.41266,7.26371,-0.074447,-0.0885729,-0.640015,0
2024-11-29 18:18:23.231,0.591326,1.39322,7.29003,-0.0939941,-0.0684149,-0.632685,0
2024-11-29 18:18:23.233,0.462114,1.38126,7.30439,-0.109876,-0.0470352,-0.624133,0
2024-11-29 18:18:23.236,0.359223,1.38126,7.31396,-0.130645,-0.00671932,-0.60031,0
2024-11-29 18:18:23.237,0.258425,1.37647,7.32353,-0.130645,-0.00671932,-0.60031,0
2024-11-29 18:18:23.240,0.155533,1.37647,7.3331,-0.136143,0.0122169,-0.587482,0
2024-11-29 18:18:23.243,0.066999,1.39322,7.3331,-0.141029,0.0274881,-0.572822,0
2024-11-29 18:18:23.246,-0.00957129,1.42223,7.32353,-0.142251,0.0500895,-0.537393,0
2024-11-29 18:18:23.248,-0.0717847,1.45573,7.31396,-0.143473,0.0610847,-0.519067,0
2024-11-29 18:18:23.249,-0.131605,1.47727,7.30918,-0.143473,0.0610847,-0.519067,0
2024-11-29 18:18:23.252,-0.174676,1.50359,7.28764,-0.139808,0.0702474,-0.500742,0
2024-11-29 18:18:23.254,-0.181855,1.5347,7.25653,-0.136143,0.0757451,-0.481806,0
2024-11-29 18:18:23.256,-0.184247,1.55623,7.22782,-0.132477,0.0824644,-0.461648,0
2024-11-29 18:18:23.260,-0.181855,1.58016,7.19911,-0.115985,0.0867403,-0.423775,0
2024-11-29 18:18:23.262,-0.174676,1.61366,7.16082,-0.104989,0.0849078,-0.406061,0
2024-11-29 18:18:23.264,-0.167498,1.64237,7.12971,-0.104989,0.0849078,-0.406061,0
2024-11-29 18:18:23.267,-0.143569,1.65434,7.10339,-0.0829989,0.0769668,-0.374907,0
2024-11-29 18:18:23.269,-0.112463,1.66391,7.06272,-0.0829989,0.0769668,-0.374907,0
2024-11-29 18:18:23.271,-0.081356,1.69023,7.01725,-0.0732253,0.0690257,-0.360858,0
2024-11-29 18:18:23.274,-0.0598206,1.72612,6.9691,-0.058565,0.0592522,-0.347419,0
2024-11-29 18:18:23.275,-0.0454636,1.75484,6.92363,-0.0469589,0.0488678,-0.335202,0
2024-11-29 18:18:23.279,-0.0287139,1.79551,6.8662,-0.0206925,0.0256556,-0.308936,0
2024-11-29 18:18:23.280,-0.0167498,1.85055,6.81596,-0.0206925,0.0256556,-0.308936,0
2024-11-29 18:18:23.283,0.0,1.89362,6.75374,0.00618483,0.00183254,-0.290611,0
2024-11-29 18:18:23.286,0.0287139,1.92951,6.68914,0.0171801,-0.0109953,-0.282059,0
2024-11-29 18:18:23.288,0.0574277,1.97528,6.64128,0.0171801,-0.0109953,-0.282059,0
2024-11-29 18:18:23.290,0.081356,2.02074,6.57667,0.0275645,-0.023823,-0.274118,0
2024-11-29 18:18:23.293,0.102891,2.06142,6.51207,0.0477224,-0.0525329,-0.260068,0
2024-11-29 18:18:23.295,0.12682,2.10449,6.45703,0.0477224,-0.0525329,-0.260068,0
2024-11-29 18:18:23.297,0.153141,2.14756,6.3993,0.0550526,-0.0665824,-0.25396,0
2024-11-29 18:18:23.299,0.18664,2.17627,6.34188,0.0629936,-0.0775776,-0.24724,0
2024-11-29 18:18:23.302,0.222533,2.20977,6.28445,0.0684913,-0.0867403,-0.244186,0
2024-11-29 18:18:23.304,0.241675,2.26481,6.22702,0.073378,-0.0965139,-0.242354,0
2024-11-29 18:18:23.306,0.248854,2.30309,6.18634,0.0782648,-0.101401,-0.23991,0
2024-11-29 18:18:23.309,0.256032,2.32223,6.14088,0.0837624,-0.105677,-0.234413,0
2024-11-29 18:18:23.312,0.248854,2.35813,6.09063,0.0837624,-0.105677,-0.234413,0
2024-11-29 18:18:23.313,0.232104,2.4012,6.04517,0.085595,-0.103844,-0.233802,0
2024-11-29 18:18:23.316,0.229711,2.4323,5.99253,0.0862058,-0.087962,-0.227693,0
2024-11-29 18:18:23.319,0.22014,2.44427,5.90638,0.0825407,-0.0812427,-0.225861,0
2024-11-29 18:18:23.320,0.208176,2.44666,5.83669,0.0825407,-0.0812427,-0.225861,0
2024-11-29 18:18:23.323,0.196211,2.45145,5.79362,0.0709346,-0.0574196,-0.220363,0
2024-11-29 18:18:23.326,0.184247,2.4682,5.73859,0.065437,-0.0464244,-0.21792,0
2024-11-29 18:18:23.328,0.165105,2.49452,5.67159,0.065437,-0.0464244,-0.21792,0
2024-11-29 18:18:23.330,0.141177,2.48495,5.6022,0.0562743,-0.0372617,-0.214866,0
2024-11-29 18:18:23.333,0.12682,2.47537,5.55195,0.0306187,-0.0140495,-0.2112,0
2024-11-29 18:18:23.334,0.119641,2.48973,5.51605,0.0306187,-0.0140495,-0.2112,0
2024-11-29 18:18:23.336,0.114855,2.50409,5.47538,0.0177909,-0.00549763,-0.207535,0
2024-11-29 18:18:23.340,0.102891,2.51845,5.43709,-0.0139731,0.0128278,-0.200816,0
2024-11-29 18:18:23.342,0.0717847,2.54028,5.41316,-0.0139731,0.0128278,-0.200816,0
2024-11-29 18:18:23.343,0.040678,2.56899,5.39881,-0.0310769,0.0232122,-0.197762,0
2024-11-29 18:18:23.346,0.00239282,2.60249,5.38924,-0.0475697,0.0311532,-0.192875,0
2024-11-29 18:18:23.349,-0.040678,2.62164,5.40359,-0.0652843,0.0390942,-0.188599,0
2024-11-29 18:18:23.352,-0.0741775,2.6336,5.42991,-0.0811663,0.0464244,-0.18188,0
2024-11-29 18:18:23.354,-0.105284,2.66471,5.45145,-0.101324,0.0488678,-0.177604,0
2024-11-29 18:18:23.355,-0.141177,2.69342,5.49691,-0.120261,0.0507003,-0.170274,0
2024-11-29 18:18:23.358,-0.200997,2.70778,5.55195,-0.136143,0.0531437,-0.161111,0
2024-11-29 18:18:23.361,-0.244068,2.7341,5.62612,-0.167296,0.0500895,-0.141564,0
2024-11-29 18:18:23.362,-0.272782,2.76521,5.72184,-0.167296,0.0500895,-0.141564,0
2024-11-29 18:18:23.365,-0.308973,2.79631,5.82473,-0.179513,0.0476461,-0.130569,0
2024-11-29 18:18:23.368,-0.337687,2.84417,5.93031,-0.201503,0.0421485,-0.108578,0
2024-11-29 18:18:23.370,-0.352044,2.89442,6.04038,-0.201503,0.0421485,-0.108578,0
2024-11-29 18:18:23.374,-0.34008,2.93749,6.25813,-0.212498,0.0378725,-0.0841442,0
2024-11-29 18:18:23.374,-0.34008,2.93749,6.25813,-0.212498,0.0378725,-0.0841442,0
2024-11-29 18:18:23.377,-0.330509,2.98056,6.35145,-0.216774,0.0335966,-0.0725381,0
2024-11-29 18:18:23.380,-0.342473,3.01167,6.44477,-0.219829,0.0250447,-0.0505476,0
2024-11-29 18:18:23.381,-0.344866,3.03799,6.52882,-0.219829,0.0250447,-0.0505476,0
2024-11-29 18:18:23.385,-0.342473,3.07388,6.61974,-0.216164,0.0109953,-0.0285571,0
2024-11-29 18:18:23.386,-0.335294,3.11007,6.71067,-0.216164,0.0109953,-0.0285571,0
2024-11-29 18:18:23.388,-0.308973,3.15314,6.78963,-0.215553,0.00183254,-0.0175619,0
2024-11-29 18:18:23.392,-0.285045,3.18186,6.8686,-0.214942,-0.00671932,-0.0077883,0
2024-11-29 18:18:23.394,-0.285045,3.22014,6.95235,-0.211277,-0.0256556,0.0117588,0
2024-11-29 18:18:23.396,-0.270389,3.25843,7.04357,-0.210666,-0.0329858,0.0203107,0
2024-11-29 18:18:23.398,-0.248854,3.29432,7.12971,-0.210666,-0.0329858,0.0203107,0
2024-11-29 18:18:23.400,-0.222533,3.33021,7.23261,-0.208833,-0.0390942,0.0288625,0
2024-11-29 18:18:23.403,-0.217747,3.35892,7.33071,-0.204557,-0.0458135,0.0380252,0
2024-11-29 18:18:23.406,-0.217747,3.3996,7.41685,-0.200892,-0.0513112,0.0459663,0
2024-11-29 18:18:23.408,-0.191426,3.44028,7.51257,-0.197227,-0.0549763,0.0557398,0
2024-11-29 18:18:23.409,-0.157926,3.47139,7.61576,-0.193562,-0.0604739,0.0661242,0
2024-11-29 18:18:23.412,-0.12682,3.49532,7.71625,-0.191119,-0.0659715,0.0758978,0
2024-11-29 18:18:23.414,-0.0861416,3.52403,7.82154,-0.186232,-0.07208,0.0826171,0
2024-11-29 18:18:23.418,-0.0526421,3.55514,7.90768,-0.175237,-0.0745234,0.100332,0
2024-11-29 18:18:23.419,-0.040678,3.57428,7.98425,-0.175237,-0.0745234,0.100332,0
2024-11-29 18:18:23.421,-0.0287139,3.59103,8.068,-0.172793,-0.0714691,0.10644,0
2024-11-29 18:18:23.426,-0.0215354,3.67268,8.2334,-0.158133,-0.0610847,0.125987,0
2024-11-29 18:18:23.427,-0.0215354,3.67268,8.2334,-0.158133,-0.0610847,0.125987,0
2024-11-29 18:18:23.429,-0.00478565,3.69422,8.32433,-0.155079,-0.0537546,0.134539,0
2024-11-29 18:18:23.431,-0.00717847,3.71575,8.41526,-0.153246,-0.0482569,0.143702,0
2024-11-29 18:18:23.434,-0.00478565,3.74925,8.50379,-0.147138,-0.0445919,0.154086,0
2024-11-29 18:18:23.435,0.0167498,3.78515,8.60668,-0.144084,-0.0397051,0.164471,0
2024-11-29 18:18:23.439,0.026321,3.81147,8.71227,-0.137975,-0.0366508,0.174855,0
2024-11-29 18:18:23.441,0.0454636,3.84975,8.80559,-0.131867,-0.0317641,0.18585,0
2024-11-29 18:18:23.445,0.0885344,3.91914,8.95394,-0.124536,-0.0183254,0.205397,0
2024-11-29 18:18:23.446,0.0885344,3.91914,8.95394,-0.119039,-0.00916271,0.211506,0
2024-11-29 18:18:23.447,0.100499,3.94068,9.03769,-0.119039,-0.00916271,0.211506,0
2024-11-29 18:18:23.449,0.133998,3.97897,9.11665,-0.115374,-0.00366508,0.216393,0
2024-11-29 18:18:23.453,0.16989,4.00768,9.17647,-0.107433,0.0189363,0.22861,0
2024-11-29 18:18:23.454,0.191426,4.02682,9.22912,-0.107433,0.0189363,0.22861,0
2024-11-29 18:18:23.457,0.20339,4.05554,9.29163,-0.103768,0.0305424,0.232886,0
2024-11-29 18:18:23.459,0.196211,4.08664,9.35384,-0.104989,0.0433702,0.23594,0
2024-11-29 18:18:23.461,0.172283,4.10818,9.39931,-0.103768,0.0561979,0.242048,0
2024-11-29 18:18:23.464,0.148355,4.14168,9.44956,-0.103768,0.0726908,0.246324,0
2024-11-29 18:18:23.466,0.112463,4.16561,9.50938,-0.106822,0.087962,0.2506,0
2024-11-29 18:18:23.468,0.0837488,4.17518,9.58116,-0.108654,0.104455,0.25793,0
2024-11-29 18:18:23.472,0.0598206,4.21137,9.69841,-0.11293,0.133165,0.27198,0
2024-11-29 18:18:23.474,0.0382852,4.24726,9.82074,-0.114152,0.146603,0.283586,0
2024-11-29 18:18:23.476,0.026321,4.27119,9.92603,-0.114152,0.146603,0.283586,0
2024-11-29 18:18:23.478,0.0239282,4.30469,10.0505,-0.114152,0.158209,0.290305,0
2024-11-29 18:18:23.481,0.0358923,4.34297,10.1605,-0.114763,0.174091,0.295192,0
2024-11-29 18:18:23.486,0.0981057,4.38604,10.3905,-0.1056,0.207077,0.309241,0
2024-11-29 18:18:23.486,0.0981057,4.38604,10.3905,-0.1056,0.207077,0.309241,0
2024-11-29 18:18:23.488,0.131605,4.4004,10.4886,-0.1056,0.207077,0.309241,0
2024-11-29 18:18:23.491,0.160319,4.41954,10.5676,-0.094605,0.232733,0.308631,0
2024-11-29 18:18:23.493,0.205783,4.42194,10.6561,-0.0872748,0.243117,0.305576,0
2024-11-29 18:18:23.495,0.246461,4.44347,10.7495,-0.0805555,0.25228,0.302522,0
2024-11-29 18:18:23.498,0.275175,4.47458,10.8284,-0.0805555,0.25228,0.302522,0
2024-11-29 18:18:23.500,0.313759,4.5009,10.893,-0.0658951,0.266329,0.292749,0
2024-11-29 18:18:23.502,0.354437,4.52243,10.9627,-0.0573433,0.273049,0.28664,0
2024-11-29 18:18:23.504,0.380758,4.52961,11.0417,-0.0573433,0.273049,0.28664,0
2024-11-29 18:18:23.507,0.395115,4.54636,11.1063,-0.0402396,0.274881,0.273812,0
2024-11-29 18:18:23.509,0.419043,4.53679,11.1805,-0.0402396,0.274881,0.273812,0
2024-11-29 18:18:23.511,0.459721,4.50568,11.2499,-0.0341311,0.27366,0.26526,0
2024-11-29 18:18:23.513,0.493221,4.47697,11.3145,-0.0213033,0.268773,0.256709,0
2024-11-29 18:18:23.515,0.514756,4.43151,11.4102,-0.0133623,0.260221,0.247546,0
2024-11-29 18:18:23.518,0.529113,4.39562,11.4867,-0.00542127,0.249226,0.239605,0
2024-11-29 18:18:23.521,0.553041,4.37169,11.5564,0.0116825,0.224792,0.22189,0
2024-11-29 18:18:23.524,0.567398,4.34537,11.6593,0.0208452,0.21624,0.216393,0
2024-11-29 18:18:23.526,0.596112,4.30947,11.7574,0.029397,0.206466,0.210284,0
2024-11-29 18:18:23.527,0.617647,4.27597,11.8364,0.029397,0.206466,0.210284,0
2024-11-29 18:18:23.530,0.634397,4.24247,11.9249,0.0403923,0.200969,0.201732,0
2024-11-29 18:18:23.532,0.665504,4.2015,12.0135,0.0519984,0.193028,0.195624,0
2024-11-29 18:18:23.535,0.689432,4.17757,12.1047,0.0629936,0.188752,0.190126,0
2024-11-29 18:18:23.538,0.701396,4.15364,12.1908,0.0752106,0.184476,0.184629,0
2024-11-29 18:18:23.539,0.710967,4.11775,12.2411,0.0874275,0.185087,0.180964,0
2024-11-29 18:18:23.542,0.73011,4.08664,12.2889,0.0996445,0.184476,0.177298,0
2024-11-29 18:18:23.544,0.734896,4.07468,12.344,0.11064,0.186919,0.176077,0
2024-11-29 18:18:23.547,0.744467,4.06989,12.3799,0.122246,0.191806,0.170579,0
2024-11-29 18:18:23.548,0.742074,4.04836,12.4014,0.133852,0.199747,0.165692,0
2024-11-29 18:18:23.552,0.734896,4.02204,12.4158,0.145458,0.211964,0.165692,0
2024-11-29 18:18:23.554,0.732503,4.00289,12.4182,0.152177,0.22357,0.164471,0
2024-11-29 18:18:23.556,0.722932,3.99093,12.3966,0.161951,0.239452,0.161416,0
2024-11-29 18:18:23.558,0.706182,3.98136,12.3583,0.161951,0.239452,0.161416,0
2024-11-29 18:18:23.560,0.687039,3.96222,12.3296,0.177222,0.277325,0.157751,0
2024-11-29 18:18:23.564,0.682254,3.9335,12.2842,0.180887,0.322527,0.15653,0
2024-11-29 18:18:23.565,0.660718,3.90957,12.2124,0.180887,0.322527,0.15653,0
2024-11-29 18:18:23.568,0.632004,3.87129,12.1406,0.179055,0.349405,0.154697,0
2024-11-29 18:18:23.570,0.60329,3.8354,12.0664,0.174779,0.378725,0.153475,0
2024-11-29 18:18:23.573,0.565005,3.81386,11.9871,0.16867,0.409268,0.154086,0
2024-11-29 18:18:23.574,0.529113,3.81386,11.9106,0.160118,0.443475,0.15714,0
2024-11-29 18:18:23.578,0.486042,3.81625,11.8292,0.138739,0.521664,0.162027,0
2024-11-29 18:18:23.580,0.431007,3.82582,11.7646,0.125911,0.564423,0.166914,0
2024-11-29 18:18:23.582,0.371187,3.84257,11.7096,0.125911,0.564423,0.166914,0
2024-11-29 18:18:23.585,0.297009,3.84975,11.645,0.0984228,0.656661,0.182796,0
2024-11-29 18:18:23.587,0.222533,3.87847,11.5684,0.0984228,0.656661,0.182796,0
2024-11-29 18:18:23.589,0.138784,3.91436,11.4844,0.085595,0.709194,0.19257,0
2024-11-29 18:18:23.592,0.0526421,3.94307,11.3958,0.0684913,0.761116,0.201732,0
2024-11-29 18:18:23.593,-0.0311067,3.97418,11.2834,0.0538309,0.816092,0.213338,0
2024-11-29 18:18:23.597,-0.12682,3.99571,11.1541,0.0141258,0.927877,0.232886,0
2024-11-29 18:18:23.599,-0.222533,4.02921,11.0201,0.0141258,0.927877,0.232886,0
2024-11-29 18:18:23.600,-0.330509,4.08664,10.8715,-0.00786466,0.984686,0.244492,0
2024-11-29 18:18:23.603,-0.45015,4.12493,10.704,-0.0322986,1.03783,0.253654,0
2024-11-29 18:18:23.606,-0.548256,4.14646,10.5365,-0.0622301,1.08609,0.262817,0
2024-11-29 18:18:23.607,-0.615255,4.16561,10.4049,-0.0915507,1.12762,0.270147,0
2024-11-29 18:18:23.611,-0.708575,4.2015,10.285,-0.123926,1.15817,0.276256,0
2024-11-29 18:18:23.613,-0.842872,4.2664,10.1318,-0.158744,1.17894,0.277477,0
2024-11-29 18:18:23.615,-0.957727,4.32622,9.98106,-0.200282,1.18932,0.282975,0
2024-11-29 18:18:23.617,-1.01515,4.36212,9.89013,-0.241819,1.18688,0.283586,0
2024-11-29 18:18:23.619,-1.02712,4.39801,9.82553,-0.288244,1.16855,0.281753,0
2024-11-29 18:18:23.622,-1.03908,4.4339,9.78455,-0.3365,1.13129,0.275645,0
2024-11-29 18:18:23.625,-1.05344,4.47697,9.77977,-0.436069,1.00729,0.260984,0
2024-11-29 18:18:23.626,-1.03669,4.49611,9.80848,-0.436069,1.00729,0.260984,0
2024-11-29 18:18:23.629,-0.99362,4.50568,9.9021,-0.487991,0.919325,0.244492,0
2024-11-29 18:18:23.631,-0.936192,4.50808,10.0624,-0.538691,0.813038,0.226777,0
2024-11-29 18:18:23.634,-0.837787,4.47936,10.2802,-0.636503,0.539989,0.175466,0
2024-11-29 18:18:23.637,-0.687039,4.42672,10.57,-0.681706,0.379947,0.140037,0
2024-11-29 18:18:23.638,-0.459721,4.33579,10.9409,-0.681706,0.379947,0.140037,0
2024-11-29 18:18:23.641,-0.162712,4.22812,11.415,-0.754396,0.0287098,0.0465771,0
2024-11-29 18:18:23.643,0.122034,4.08425,11.98,-0.754396,0.0287098,0.0465771,0
2024-11-29 18:18:23.645,0.366401,3.90239,12.6,-0.777609,-0.149658,-0.00595576,0
2024-11-29 18:18:23.648,0.596112,3.73011,13.2395,-0.791047,-0.321916,-0.0584886,0
2024-11-29 18:18:23.650,0.816252,3.55992,13.8404,-0.793491,-0.481348,-0.113465,0
2024-11-29 18:18:23.653,0.984048,3.40439,14.4078,-0.784328,-0.623064,-0.167219,0
2024-11-29 18:18:23.655,1.08215,3.28235,14.9608,-0.767835,-0.748899,-0.21792,0
2024-11-29 18:18:23.657,1.14197,3.1675,15.5569,-0.737903,-0.858851,-0.265566,0
2024-11-29 18:18:23.659,1.18026,3.01167,16.2224,-0.698809,-0.957808,-0.310158,0
2024-11-29 18:18:23.665,1.18744,2.7676,17.2711,-0.513646,-1.14351,-0.402396,0
2024-11-29 18:18:23.665,1.04626,2.7676,17.2711,-0.513646,-1.14351,-0.402396,0
2024-11-29 18:18:23.667,0.816252,2.69821,17.5534,-0.513646,-1.14351,-0.402396,0
2024-11-29 18:18:23.670,0.797109,2.57857,17.9916,-0.348107,-1.15145,-0.419499,0
2024-11-29 18:18:23.672,0.507577,2.60728,17.9773,-0.348107,-1.15145,-0.419499,0
2024-11-29 18:18:23.677,0.419043,2.32463,18.2599,-0.18501,-1.05799,-0.388957,0
2024-11-29 18:18:23.677,0.419043,2.32463,18.2599,-0.18501,-1.05799,-0.388957,0
2024-11-29 18:18:23.678,0.605683,2.01117,18.5686,-0.094605,-1.01828,-0.374907,0
2024-11-29 18:18:23.681,0.684646,1.6663,18.5901,-0.00297788,-0.969415,-0.362691,0
2024-11-29 18:18:23.684,0.742074,1.30229,18.504,0.0941468,-0.903443,-0.351084,1
2024-11-29 18:18:23.685,0.74686,0.931406,18.3078,0.190661,-0.816703,-0.341922,0
2024-11-29 18:18:23.688,0.706182,0.608076,18.0395,0.288396,-0.708583,-0.328483,0
2024-11-29 18:18:23.691,0.639183,0.316152,17.8074,0.493641,-0.442864,-0.296108,0
2024-11-29 18:18:23.693,0.541077,0.0693919,17.575,0.594431,-0.301759,-0.274118,0
2024-11-29 18:18:23.694,0.366401,-0.0622134,17.2783,0.594431,-0.301759,-0.274118,0
2024-11-29 18:18:23.698,0.124427,-0.155533,16.9573,0.791734,-0.0213797,-0.205092,0
2024-11-29 18:18:23.700,-0.148355,-0.239282,16.4593,0.791734,-0.0213797,-0.205092,0
2024-11-29 18:18:23.702,-0.500399,-0.232104,15.6694,0.880307,0.131332,-0.159889,0
2024-11-29 18:18:23.704,-0.9003,-0.138784,14.8002,0.949333,0.288931,-0.101248,0
2024-11-29 18:18:23.706,-1.27358,-0.00239282,13.9744,1.00797,0.444086,-0.0346656,0
2024-11-29 18:18:23.710,-1.5993,0.141177,13.177,1.04524,0.587024,0.0398578,0
2024-11-29 18:18:23.711,-1.84337,0.267996,12.4086,1.06723,0.704918,0.119268,0
2024-11-29 18:18:23.713,-1.95823,0.349651,11.688,1.07395,0.80021,0.196846,0
2024-11-29 18:18:23.716,-2.00877,0.407079,10.9651,1.06295,0.875955,0.272591,0
2024-11-29 18:18:23.718,-2.04227,0.481256,10.218,1.03791,0.934596,0.343449,0
2024-11-29 18:18:23.721,-2.00877,0.545863,9.51177,0.999422,0.981632,0.410031,0
2024-11-29 18:18:23.724,-1.92233,0.627219,8.92284,0.894968,1.04333,0.51693,0
2024-11-29 18:18:23.725,-1.78594,0.732503,8.42962,0.894968,1.04333,0.51693,0
2024-11-29 18:18:23.727,-1.61845,0.830609,7.98664,0.827774,1.05921,0.558467,0
2024-11-29 18:18:23.731,-1.44138,0.929013,7.6014,0.755694,1.0641,0.58962,0
2024-11-29 18:18:23.732,-1.25444,1.03669,7.27328,0.68056,1.06043,0.614665,0
2024-11-29 18:18:23.736,-1.05583,1.16112,7.02204,0.516242,1.02134,0.637266,0
2024-11-29 18:18:23.738,-0.871586,1.29033,6.82792,0.516242,1.02134,0.637266,0
2024-11-29 18:18:23.739,-0.691825,1.4342,6.68914,0.432556,0.989573,0.637266,0
2024-11-29 18:18:23.743,-0.517149,1.59691,6.6006,0.348259,0.951089,0.628715,0
2024-11-29 18:18:23.745,-0.349651,1.75484,6.56471,0.187606,0.852132,0.595729,0
2024-11-29 18:18:23.747,-0.184247,1.89601,6.57907,0.187606,0.852132,0.595729,0
2024-11-29 18:18:23.749,-0.0382852,2.02792,6.63171,0.114916,0.794101,0.571906,0
2024-11-29 18:18:23.752,0.0885344,2.14995,6.74417,0.0471116,0.732406,0.543807,0
2024-11-29 18:18:23.753,0.22014,2.25045,6.87578,-0.0158057,0.666434,0.509599,0
2024-11-29 18:18:23.757,0.337687,2.33181,7.03639,-0.125758,0.518609,0.432633,0
2024-11-29 18:18:23.758,0.445364,2.37488,7.23739,-0.125758,0.518609,0.432633,0
2024-11-29 18:18:23.761,0.576969,2.39641,7.46471,-0.165463,0.437977,0.388652,0
2024-11-29 18:18:23.763,0.684646,2.41555,7.70908,-0.198449,0.354902,0.343449,0
2024-11-29 18:18:23.766,0.782752,2.41316,7.95314,-0.225326,0.271827,0.295192,0
2024-11-29 18:18:23.768,0.878764,2.4012,8.20708,-0.24243,0.188752,0.245102,0
2024-11-29 18:18:23.771,0.948156,2.38445,8.45354,-0.252814,0.109953,0.19257,0
2024-11-29 18:18:23.772,0.984048,2.36531,8.67129,-0.25709,0.03604,0.139426,0
2024-11-29 18:18:23.776,0.984048,2.3342,8.84148,-0.254647,-0.0335966,0.0887256,0
2024-11-29 18:18:23.777,0.952942,2.28634,8.98026,-0.248538,-0.100179,0.0386361,0
2024-11-29 18:18:23.780,0.878764,2.24327,9.09273,-0.224715,-0.218072,-0.0493259,0
2024-11-29 18:18:23.783,0.739681,2.2002,9.17408,-0.212498,-0.273049,-0.0853659,0
2024-11-29 18:18:23.785,0.557827,2.13559,9.2363,-0.212498,-0.273049,-0.0853659,0
2024-11-29 18:18:23.786,0.359223,2.07338,9.27009,-0.199671,-0.325582,-0.115908,0
2024-11-29 18:18:23.789,0.148355,2.01595,9.27009,-0.189897,-0.37506,-0.142786,0
2024-11-29 18:18:23.791,-0.040678,1.94865,9.27727,-0.179513,-0.426982,-0.162944,0
2024-11-29 18:18:23.793,-0.205783,1.88405,9.29163,-0.171572,-0.478293,-0.177604,0
2024-11-29 18:18:23.796,-0.337687,1.83141,9.3012,-0.165463,-0.525939,-0.187377,0
2024-11-29 18:18:23.798,-0.419043,1.78834,9.3347,-0.15569,-0.574807,-0.19654,0
