timestamp,accel_x,accel_y,accel_z,gyro_x,gyro_y,gyro_z,step_timestamp
2024-11-29 18:14:12.466,1.03908,2.96381,8.05604,-0.339555,0.120337,0.181574,0
2024-11-29 18:14:12.466,1.03908,2.96381,8.05604,-0.339555,0.120337,0.181574,0
2024-11-29 18:14:12.466,1.03908,2.96381,8.05604,-0.339555,0.120337,0.181574,0
2024-11-29 18:14:12.466,1.03908,2.96381,8.05604,-0.339555,0.120337,0.181574,0
2024-11-29 18:14:12.466,1.03908,2.96381,8.05604,-0.339555,0.120337,0.181574,0
2024-11-29 18:14:12.466,1.03908,2.96381,8.05604,-0.339555,0.120337,0.181574,0
2024-11-29 18:14:12.467,1.05583,3.00927,8.09671,-0.339555,0.120337,0.181574,0
2024-11-29 18:14:12.467,1.05583,3.00927,8.09671,-0.339555,0.120337,0.181574,0
2024-11-29 18:14:12.467,1.05583,3.00927,8.09671,-0.339555,0.120337,0.181574,0
2024-11-29 18:14:12.467,1.05583,3.00927,8.09671,-0.339555,0.120337,0.181574,0
2024-11-29 18:14:12.467,1.05583,3.00927,8.09671,-0.339555,0.120337,0.181574,0
2024-11-29 18:14:12.468,1.05583,3.00927,8.09671,-0.348107,0.121559,0.167525,0
2024-11-29 18:14:12.468,1.05583,3.00927,8.09671,-0.348107,0.121559,0.167525,0
2024-11-29 18:14:12.468,1.05583,3.00927,8.09671,-0.348107,0.121559,0.167525,0
2024-11-29 18:14:12.468,1.03908,2.96381,8.05604,-0.348107,0.121559,0.167525,0
2024-11-29 18:14:12.468,1.05583,3.00927,8.09671,-0.348107,0.121559,0.167525,0
2024-11-29 18:14:12.468,1.05583,3.00927,8.09671,-0.348107,0.121559,0.167525,0
2024-11-29 18:14:12.470,1.05583,3.06192,8.14965,-0.348107,0.121559,0.167525,0
2024-11-29 18:14:12.470,1.07258,3.06192,8.14965,-0.348107,0.121559,0.167525,0
2024-11-29 18:14:12.470,1.07258,3.06192,8.14965,-0.348107,0.121559,0.167525,0
2024-11-29 18:14:12.470,1.07258,3.06192,8.14965,-0.348107,0.121559,0.167525,0
2024-11-29 18:14:12.470,1.07258,3.06192,8.14965,-0.348107,0.121559,0.167525,0
2024-11-29 18:14:12.470,1.07258,3.06192,8.14965,-0.348107,0.121559,0.167525,0
2024-11-29 18:14:12.470,1.07258,3.06192,8.14965,-0.348107,0.121559,0.167525,0
2024-11-29 18:14:12.471,1.07258,3.06192,8.14965,-0.356658,0.121559,0.153475,0
2024-11-29 18:14:12.471,1.07258,3.06192,8.14965,-0.356658,0.121559,0.153475,0
2024-11-29 18:14:12.471,1.07258,3.06192,8.14965,-0.356658,0.121559,0.153475,0
2024-11-29 18:14:12.471,1.07258,3.06192,8.14965,-0.356658,0.121559,0.153475,0
2024-11-29 18:14:12.471,1.07258,3.06192,8.14965,-0.356658,0.121559,0.153475,0
2024-11-29 18:14:12.471,1.07258,3.06192,8.14965,-0.356658,0.121559,0.153475,0
2024-11-29 18:14:12.471,1.07258,3.06192,8.14965,-0.356658,0.121559,0.153475,0
2024-11-29 18:14:12.471,1.07258,3.06192,8.14965,-0.356658,0.121559,0.153475,0
2024-11-29 18:14:12.472,1.07019,3.10768,8.21187,-0.356658,0.121559,0.153475,0
2024-11-29 18:14:12.472,1.07019,3.10768,8.21187,-0.356658,0.121559,0.153475,0
2024-11-29 18:14:12.472,1.07019,3.10768,8.21187,-0.356658,0.121559,0.153475,0
2024-11-29 18:14:12.472,1.07019,3.10768,8.21187,-0.356658,0.121559,0.153475,0
2024-11-29 18:14:12.472,1.07019,3.10768,8.21187,-0.356658,0.121559,0.153475,0
2024-11-29 18:14:12.472,1.07019,3.10768,8.21187,-0.356658,0.121559,0.153475,0
2024-11-29 18:14:12.473,1.07019,3.10768,8.21187,-0.362767,0.125835,0.141869,0
2024-11-29 18:14:12.473,1.07019,3.10768,8.21187,-0.362767,0.125835,0.141869,0
2024-11-29 18:14:12.473,1.07019,3.10768,8.21187,-0.362767,0.125835,0.141869,0
2024-11-29 18:14:12.473,1.07019,3.10768,8.21187,-0.362767,0.125835,0.141869,0
2024-11-29 18:14:12.473,1.07019,3.10768,8.21187,-0.362767,0.125835,0.141869,0
2024-11-29 18:14:12.473,1.07019,3.10768,8.21187,-0.362767,0.125835,0.141869,0
2024-11-29 18:14:12.474,1.05823,3.14836,8.28365,-0.362767,0.125835,0.141869,0
2024-11-29 18:14:12.474,1.05823,3.14836,8.28365,-0.362767,0.125835,0.141869,0
2024-11-29 18:14:12.474,1.05823,3.14836,8.28365,-0.362767,0.125835,0.141869,0
2024-11-29 18:14:12.474,1.05823,3.14836,8.28365,-0.362767,0.125835,0.141869,0
2024-11-29 18:14:12.474,1.05823,3.14836,8.28365,-0.362767,0.125835,0.141869,0
2024-11-29 18:14:12.474,1.05823,3.14836,8.28365,-0.362767,0.125835,0.141869,0
2024-11-29 18:14:12.475,1.05823,3.14836,8.28365,-0.36521,0.131332,0.129652,0
2024-11-29 18:14:12.475,1.05823,3.14836,8.28365,-0.36521,0.131332,0.129652,0
2024-11-29 18:14:12.475,1.05823,3.14836,8.28365,-0.36521,0.131332,0.129652,0
2024-11-29 18:14:12.475,1.05823,3.14836,8.28365,-0.36521,0.131332,0.129652,0
2024-11-29 18:14:12.475,1.05823,3.14836,8.28365,-0.36521,0.131332,0.129652,0
2024-11-29 18:14:12.475,1.05823,3.14836,8.28365,-0.36521,0.131332,0.129652,0
2024-11-29 18:14:12.477,1.02951,3.19861,8.36022,-0.36521,0.131332,0.129652,0
2024-11-29 18:14:12.477,1.02951,3.19861,8.36022,-0.36521,0.131332,0.129652,0
2024-11-29 18:14:12.478,1.02951,3.19861,8.36022,-0.366432,0.138051,0.118046,0
2024-11-29 18:14:12.478,1.02951,3.19861,8.36022,-0.366432,0.138051,0.118046,0
2024-11-29 18:14:12.478,1.02951,3.19861,8.36022,-0.366432,0.138051,0.118046,0
2024-11-29 18:14:12.478,1.02951,3.19861,8.36022,-0.366432,0.138051,0.118046,0
2024-11-29 18:14:12.478,1.02951,3.19861,8.36022,-0.366432,0.138051,0.118046,0
2024-11-29 18:14:12.478,1.02951,3.19861,8.36022,-0.366432,0.138051,0.118046,0
2024-11-29 18:14:12.478,1.02951,3.19861,8.36022,-0.366432,0.138051,0.118046,0
2024-11-29 18:14:12.478,1.02951,3.19861,8.36022,-0.366432,0.138051,0.118046,0
2024-11-29 18:14:12.479,0.998405,3.268,8.44397,-0.366432,0.138051,0.118046,0
2024-11-29 18:14:12.479,0.998405,3.268,8.44397,-0.366432,0.138051,0.118046,0
2024-11-29 18:14:12.479,0.998405,3.268,8.44397,-0.366432,0.138051,0.118046,0
2024-11-29 18:14:12.480,0.998405,3.268,8.44397,-0.366432,0.149047,0.108884,0
2024-11-29 18:14:12.480,0.998405,3.268,8.44397,-0.366432,0.149047,0.108884,0
2024-11-29 18:14:12.480,0.998405,3.268,8.44397,-0.366432,0.149047,0.108884,0
2024-11-29 18:14:12.480,0.998405,3.268,8.44397,-0.366432,0.149047,0.108884,0
2024-11-29 18:14:12.481,0.967299,3.33978,8.52772,-0.366432,0.149047,0.108884,0
2024-11-29 18:14:12.481,0.967299,3.33978,8.52772,-0.366432,0.149047,0.108884,0
2024-11-29 18:14:12.482,0.967299,3.33978,8.52772,-0.366432,0.149047,0.108884,0
2024-11-29 18:14:12.482,0.998405,3.33978,8.52772,-0.366432,0.149047,0.108884,0
2024-11-29 18:14:12.482,0.967299,3.33978,8.52772,-0.366432,0.149047,0.108884,0
2024-11-29 18:14:12.482,0.967299,3.33978,8.52772,-0.366432,0.149047,0.108884,0
2024-11-29 18:14:12.484,0.921835,3.37807,8.61147,-0.359713,0.159431,0.0984991,0
2024-11-29 18:14:12.484,0.921835,3.37807,8.61147,-0.359713,0.159431,0.0984991,0
2024-11-29 18:14:12.484,0.921835,3.37807,8.61147,-0.359713,0.159431,0.0984991,0
2024-11-29 18:14:12.485,0.921835,3.37807,8.61147,-0.359713,0.159431,0.0984991,0
2024-11-29 18:14:12.485,0.921835,3.37807,8.61147,-0.359713,0.159431,0.0984991,0
2024-11-29 18:14:12.485,0.921835,3.37807,8.61147,-0.359713,0.159431,0.0984991,0
2024-11-29 18:14:12.485,0.921835,3.37807,8.61147,-0.359713,0.159431,0.0984991,0
2024-11-29 18:14:12.485,0.921835,3.37807,8.61147,-0.359713,0.159431,0.0984991,0
2024-11-29 18:14:12.486,0.921835,3.402,8.68804,-0.354215,0.168594,0.0899473,0
2024-11-29 18:14:12.487,0.88355,3.402,8.68804,-0.345663,0.178367,0.0795629,0
2024-11-29 18:14:12.488,0.854836,3.43071,8.75534,-0.345663,0.178367,0.0795629,0
2024-11-29 18:14:12.488,0.854836,3.43071,8.75534,-0.345663,0.178367,0.0795629,0
2024-11-29 18:14:12.488,0.854836,3.43071,8.75534,-0.345663,0.178367,0.0795629,0
2024-11-29 18:14:12.488,0.854836,3.43071,8.75534,-0.345663,0.178367,0.0795629,0
2024-11-29 18:14:12.488,0.854836,3.43071,8.75534,-0.345663,0.178367,0.0795629,0
2024-11-29 18:14:12.489,0.854836,3.43071,8.75534,-0.345663,0.178367,0.0795629,0
2024-11-29 18:14:12.489,0.854836,3.43071,8.75534,-0.345663,0.178367,0.0795629,0
2024-11-29 18:14:12.489,0.854836,3.43071,8.75534,-0.345663,0.178367,0.0795629,0
2024-11-29 18:14:12.489,0.854836,3.43071,8.75534,-0.345663,0.178367,0.0795629,0
2024-11-29 18:14:12.489,0.854836,3.43071,8.75534,-0.345663,0.178367,0.0795629,0
2024-11-29 18:14:12.489,0.854836,3.43071,8.75534,-0.345663,0.178367,0.0795629,0
2024-11-29 18:14:12.491,0.825823,3.45224,8.80798,-0.332835,0.184476,0.0716218,0
2024-11-29 18:14:12.491,0.825823,3.45224,8.80798,-0.332835,0.184476,0.0716218,0
2024-11-29 18:14:12.492,0.825823,3.45224,8.80798,-0.32184,0.191806,0.0649025,0
2024-11-29 18:14:12.492,0.825823,3.45224,8.80798,-0.32184,0.191806,0.0649025,0
2024-11-29 18:14:12.492,0.825823,3.45224,8.80798,-0.32184,0.191806,0.0649025,0
2024-11-29 18:14:12.492,0.825823,3.45224,8.80798,-0.32184,0.191806,0.0649025,0
2024-11-29 18:14:12.492,0.825823,3.45224,8.80798,-0.32184,0.191806,0.0649025,0
2024-11-29 18:14:12.493,0.792323,3.49532,8.85105,-0.32184,0.191806,0.0649025,0
2024-11-29 18:14:12.493,0.792323,3.49532,8.85105,-0.32184,0.191806,0.0649025,0
2024-11-29 18:14:12.493,0.792323,3.49532,8.85105,-0.32184,0.191806,0.0649025,0
2024-11-29 18:14:12.493,0.792323,3.49532,8.85105,-0.32184,0.191806,0.0649025,0
2024-11-29 18:14:12.493,0.792323,3.49532,8.85105,-0.32184,0.191806,0.0649025,0
2024-11-29 18:14:12.493,0.792323,3.49532,8.85105,-0.32184,0.191806,0.0649025,0
2024-11-29 18:14:12.494,0.792323,3.49532,8.85105,-0.307791,0.194249,0.0569615,0
2024-11-29 18:14:12.494,0.792323,3.49532,8.85105,-0.307791,0.194249,0.0569615,0
2024-11-29 18:14:12.494,0.792323,3.49532,8.85105,-0.307791,0.194249,0.0569615,0
2024-11-29 18:14:12.494,0.792323,3.49532,8.85105,-0.307791,0.194249,0.0569615,0
2024-11-29 18:14:12.494,0.792323,3.49532,8.85105,-0.307791,0.194249,0.0569615,0
2024-11-29 18:14:12.494,0.792323,3.49532,8.85105,-0.307791,0.194249,0.0569615,0
2024-11-29 18:14:12.494,0.792323,3.49532,8.85105,-0.307791,0.194249,0.0569615,0
2024-11-29 18:14:12.494,0.792323,3.49532,8.85105,-0.307791,0.194249,0.0569615,0
2024-11-29 18:14:12.494,0.792323,3.49532,8.85105,-0.307791,0.194249,0.0569615,0
2024-11-29 18:14:12.494,0.792323,3.49532,8.85105,-0.307791,0.194249,0.0569615,0
2024-11-29 18:14:12.495,0.732503,3.52642,8.87259,-0.307791,0.194249,0.0569615,0
2024-11-29 18:14:12.496,0.732503,3.52642,8.87259,-0.307791,0.194249,0.0569615,0
2024-11-29 18:14:12.496,0.732503,3.52642,8.87259,-0.307791,0.194249,0.0569615,0
2024-11-29 18:14:12.496,0.732503,3.52642,8.87259,-0.307791,0.194249,0.0569615,0
2024-11-29 18:14:12.498,0.675075,3.52882,8.87259,-0.290687,0.196082,0.0496313,0
2024-11-29 18:14:12.498,0.732503,3.52882,8.87259,-0.290687,0.196082,0.0496313,0
2024-11-29 18:14:12.498,0.675075,3.52882,8.87259,-0.290687,0.196082,0.0496313,0
2024-11-29 18:14:12.498,0.675075,3.52882,8.87259,-0.290687,0.196082,0.0496313,0
2024-11-29 18:14:12.498,0.675075,3.52882,8.87259,-0.290687,0.196082,0.0496313,0
2024-11-29 18:14:12.499,0.675075,3.52882,8.87259,-0.276027,0.194249,0.0423012,0
2024-11-29 18:14:12.499,0.675075,3.52882,8.87259,-0.276027,0.194249,0.0423012,0
2024-11-29 18:14:12.499,0.675075,3.52882,8.87259,-0.276027,0.194249,0.0423012,0
2024-11-29 18:14:12.499,0.675075,3.52882,8.87259,-0.276027,0.194249,0.0423012,0
2024-11-29 18:14:12.500,0.617647,3.53599,8.85823,-0.276027,0.194249,0.0423012,0
2024-11-29 18:14:12.500,0.617647,3.53599,8.85823,-0.276027,0.194249,0.0423012,0
2024-11-29 18:14:12.500,0.617647,3.53599,8.85823,-0.276027,0.194249,0.0423012,0
2024-11-29 18:14:12.500,0.617647,3.53599,8.85823,-0.276027,0.194249,0.0423012,0
2024-11-29 18:14:12.500,0.617647,3.53599,8.85823,-0.276027,0.194249,0.0423012,0
2024-11-29 18:14:12.501,0.617647,3.53599,8.85823,-0.258923,0.193639,0.0386361,0
2024-11-29 18:14:12.501,0.617647,3.53599,8.85823,-0.258923,0.193639,0.0386361,0
2024-11-29 18:14:12.501,0.617647,3.53599,8.85823,-0.258923,0.193639,0.0386361,0
2024-11-29 18:14:12.501,0.617647,3.53599,8.85823,-0.258923,0.193639,0.0386361,0
2024-11-29 18:14:12.503,0.545863,3.55514,8.82952,-0.258923,0.193639,0.0386361,0
2024-11-29 18:14:12.503,0.545863,3.55514,8.82952,-0.258923,0.193639,0.0386361,0
2024-11-29 18:14:12.503,0.545863,3.55514,8.82952,-0.258923,0.193639,0.0386361,0
2024-11-29 18:14:12.503,0.545863,3.55514,8.82952,-0.258923,0.193639,0.0386361,0
2024-11-29 18:14:12.503,0.545863,3.55514,8.82952,-0.258923,0.193639,0.0386361,0
2024-11-29 18:14:12.504,0.545863,3.55514,8.82952,-0.246095,0.18753,0.0343602,0
2024-11-29 18:14:12.504,0.545863,3.55514,8.82952,-0.246095,0.18753,0.0343602,0
2024-11-29 18:14:12.504,0.545863,3.55514,8.82952,-0.246095,0.18753,0.0343602,0
2024-11-29 18:14:12.504,0.545863,3.55514,8.82952,-0.246095,0.18753,0.0343602,0
2024-11-29 18:14:12.504,0.545863,3.55514,8.82952,-0.246095,0.18753,0.0343602,0
2024-11-29 18:14:12.505,0.478864,3.57189,8.78405,-0.246095,0.18753,0.0343602,0
2024-11-29 18:14:12.505,0.478864,3.57189,8.78405,-0.246095,0.18753,0.0343602,0
2024-11-29 18:14:12.505,0.478864,3.57189,8.78405,-0.246095,0.18753,0.0343602,0
2024-11-29 18:14:12.505,0.478864,3.57189,8.78405,-0.246095,0.18753,0.0343602,0
2024-11-29 18:14:12.505,0.478864,3.57189,8.78405,-0.246095,0.18753,0.0343602,0
2024-11-29 18:14:12.506,0.478864,3.57189,8.78405,-0.232046,0.178978,0.0276408,0
2024-11-29 18:14:12.506,0.478864,3.57189,8.78405,-0.232046,0.178978,0.0276408,0
2024-11-29 18:14:12.506,0.478864,3.57189,8.78405,-0.232046,0.178978,0.0276408,0
2024-11-29 18:14:12.506,0.478864,3.57189,8.78405,-0.232046,0.178978,0.0276408,0
2024-11-29 18:14:12.507,0.419043,3.58864,8.74098,-0.232046,0.178978,0.0276408,0
2024-11-29 18:14:12.507,0.419043,3.58864,8.74098,-0.232046,0.178978,0.0276408,0
2024-11-29 18:14:12.507,0.419043,3.58864,8.74098,-0.232046,0.178978,0.0276408,0
2024-11-29 18:14:12.507,0.419043,3.58864,8.74098,-0.232046,0.178978,0.0276408,0
2024-11-29 18:14:12.508,0.419043,3.58864,8.74098,-0.219218,0.166761,0.0288625,0
2024-11-29 18:14:12.508,0.419043,3.58864,8.74098,-0.219218,0.166761,0.0288625,0
2024-11-29 18:14:12.508,0.419043,3.58864,8.74098,-0.219218,0.166761,0.0288625,0
2024-11-29 18:14:12.508,0.419043,3.58864,8.74098,-0.219218,0.166761,0.0288625,0
2024-11-29 18:14:12.508,0.419043,3.58864,8.74098,-0.219218,0.166761,0.0288625,0
2024-11-29 18:14:12.510,0.359223,3.6006,8.7027,-0.219218,0.166761,0.0288625,0
2024-11-29 18:14:12.510,0.359223,3.6006,8.7027,-0.219218,0.166761,0.0288625,0
2024-11-29 18:14:12.510,0.359223,3.6006,8.7027,-0.219218,0.166761,0.0288625,0
2024-11-29 18:14:12.511,0.359223,3.6006,8.7027,-0.209444,0.150268,0.0276408,0
2024-11-29 18:14:12.511,0.359223,3.6006,8.7027,-0.209444,0.150268,0.0276408,0
2024-11-29 18:14:12.511,0.359223,3.6006,8.7027,-0.209444,0.150268,0.0276408,0
2024-11-29 18:14:12.511,0.359223,3.6006,8.7027,-0.209444,0.150268,0.0276408,0
2024-11-29 18:14:12.511,0.359223,3.6006,8.7027,-0.209444,0.150268,0.0276408,0
2024-11-29 18:14:12.512,0.297009,3.60778,8.65454,-0.209444,0.150268,0.0276408,0
2024-11-29 18:14:12.512,0.297009,3.60778,8.65454,-0.209444,0.150268,0.0276408,0
2024-11-29 18:14:12.512,0.297009,3.60778,8.65454,-0.209444,0.150268,0.0276408,0
2024-11-29 18:14:12.512,0.297009,3.60778,8.65454,-0.209444,0.150268,0.0276408,0
2024-11-29 18:14:12.512,0.297009,3.60778,8.65454,-0.209444,0.150268,0.0276408,0
2024-11-29 18:14:12.513,0.297009,3.60778,8.65454,-0.197838,0.130721,0.02703,0
2024-11-29 18:14:12.513,0.359223,3.60778,8.65454,-0.197838,0.130721,0.02703,0
2024-11-29 18:14:12.513,0.297009,3.60778,8.65454,-0.197838,0.130721,0.02703,0
2024-11-29 18:14:12.513,0.297009,3.60778,8.65454,-0.197838,0.130721,0.02703,0
2024-11-29 18:14:12.513,0.297009,3.60778,8.65454,-0.197838,0.130721,0.02703,0
2024-11-29 18:14:12.513,0.297009,3.60778,8.65454,-0.197838,0.130721,0.02703,0
2024-11-29 18:14:12.513,0.297009,3.60778,8.65454,-0.197838,0.130721,0.02703,0
2024-11-29 18:14:12.514,0.244068,3.62692,8.61865,-0.197838,0.130721,0.02703,0
2024-11-29 18:14:12.514,0.244068,3.62692,8.61865,-0.197838,0.130721,0.02703,0
2024-11-29 18:14:12.514,0.244068,3.62692,8.61865,-0.197838,0.130721,0.02703,0
2024-11-29 18:14:12.514,0.244068,3.62692,8.61865,-0.197838,0.130721,0.02703,0
2024-11-29 18:14:12.515,0.244068,3.62692,8.61865,-0.191119,0.107509,0.0276408,0
2024-11-29 18:14:12.515,0.244068,3.62692,8.61865,-0.191119,0.107509,0.0276408,0
2024-11-29 18:14:12.515,0.244068,3.62692,8.61865,-0.191119,0.107509,0.0276408,0
2024-11-29 18:14:12.515,0.244068,3.62692,8.61865,-0.191119,0.107509,0.0276408,0
2024-11-29 18:14:12.517,0.212961,3.64606,8.59472,-0.191119,0.107509,0.0276408,0
2024-11-29 18:14:12.517,0.212961,3.64606,8.59472,-0.191119,0.107509,0.0276408,0
2024-11-29 18:14:12.517,0.212961,3.64606,8.59472,-0.191119,0.107509,0.0276408,0
2024-11-29 18:14:12.517,0.212961,3.64606,8.59472,-0.191119,0.107509,0.0276408,0
2024-11-29 18:14:12.517,0.212961,3.64606,8.59472,-0.191119,0.107509,0.0276408,0
2024-11-29 18:14:12.518,0.212961,3.64606,8.59472,-0.186843,0.0824644,0.0282517,0
2024-11-29 18:14:12.518,0.212961,3.64606,8.59472,-0.186843,0.0824644,0.0282517,0
2024-11-29 18:14:12.518,0.212961,3.64606,8.59472,-0.186843,0.0824644,0.0282517,0
2024-11-29 18:14:12.518,0.212961,3.64606,8.59472,-0.186843,0.0824644,0.0282517,0
2024-11-29 18:14:12.518,0.212961,3.64606,8.59472,-0.186843,0.0824644,0.0282517,0
2024-11-29 18:14:12.519,0.189033,3.67747,8.5684,-0.186843,0.0824644,0.0282517,0
2024-11-29 18:14:12.519,0.189033,3.67747,8.5684,-0.186843,0.0824644,0.0282517,0
2024-11-29 18:14:12.519,0.189033,3.67747,8.5684,-0.186843,0.0824644,0.0282517,0
2024-11-29 18:14:12.519,0.189033,3.67747,8.5684,-0.186843,0.0824644,0.0282517,0
2024-11-29 18:14:12.520,0.189033,3.67747,8.5684,-0.180124,0.0549763,0.0300842,0
2024-11-29 18:14:12.520,0.189033,3.67747,8.5684,-0.180124,0.0549763,0.0300842,0
2024-11-29 18:14:12.520,0.189033,3.67747,8.5684,-0.180124,0.0549763,0.0300842,0
2024-11-29 18:14:12.520,0.189033,3.67747,8.5684,-0.180124,0.0549763,0.0300842,0
2024-11-29 18:14:12.521,0.155533,3.70858,8.55404,-0.180124,0.0549763,0.0300842,0
2024-11-29 18:14:12.521,0.155533,3.70858,8.55404,-0.180124,0.0549763,0.0300842,0
2024-11-29 18:14:12.521,0.155533,3.70858,8.55404,-0.180124,0.0549763,0.0300842,0
2024-11-29 18:14:12.522,0.155533,3.70858,8.55404,-0.180124,0.0549763,0.0300842,0
2024-11-29 18:14:12.522,0.155533,3.70858,8.55404,-0.180124,0.0549763,0.0300842,0
2024-11-29 18:14:12.522,0.155533,3.70858,8.55404,-0.180124,0.0549763,0.0300842,0
2024-11-29 18:14:12.522,0.155533,3.70858,8.55404,-0.180124,0.0549763,0.0300842,0
2024-11-29 18:14:12.522,0.155533,3.70858,8.55404,-0.180124,0.0549763,0.0300842,0
2024-11-29 18:14:12.522,0.155533,3.70858,8.55404,-0.180124,0.0549763,0.0300842,0
2024-11-29 18:14:12.522,0.155533,3.70858,8.55404,-0.180124,0.0549763,0.0300842,0
2024-11-29 18:14:12.522,0.155533,3.70858,8.55404,-0.180124,0.0549763,0.0300842,0
2024-11-29 18:14:12.524,0.143569,3.73729,8.56361,-0.178291,0.0268773,0.0306951,0
2024-11-29 18:14:12.524,0.143569,3.73729,8.56361,-0.178291,0.0268773,0.0306951,0
2024-11-29 18:14:12.524,0.143569,3.73729,8.56361,-0.178291,0.0268773,0.0306951,0
2024-11-29 18:14:12.525,0.143569,3.73729,8.56361,-0.178291,-0.00244339,0.0300842,0
2024-11-29 18:14:12.525,0.155533,3.70858,8.55404,-0.178291,-0.00244339,0.0300842,0
2024-11-29 18:14:12.525,0.143569,3.73729,8.56361,-0.178291,-0.00244339,0.0300842,0
2024-11-29 18:14:12.525,0.143569,3.73729,8.56361,-0.178291,-0.00244339,0.0300842,0
2024-11-29 18:14:12.525,0.143569,3.73729,8.56361,-0.178291,-0.00244339,0.0300842,0
2024-11-29 18:14:12.526,0.148355,3.77318,8.59472,-0.178291,-0.00244339,0.0300842,0
2024-11-29 18:14:12.526,0.148355,3.77318,8.59472,-0.178291,-0.00244339,0.0300842,0
2024-11-29 18:14:12.526,0.148355,3.77318,8.59472,-0.178291,-0.00244339,0.0300842,0
2024-11-29 18:14:12.526,0.148355,3.77318,8.59472,-0.178291,-0.00244339,0.0300842,0
2024-11-29 18:14:12.527,0.148355,3.77318,8.59472,-0.174626,-0.0305424,0.0306951,0
2024-11-29 18:14:12.527,0.148355,3.77318,8.59472,-0.174626,-0.0305424,0.0306951,0
2024-11-29 18:14:12.527,0.148355,3.77318,8.59472,-0.174626,-0.0305424,0.0306951,0
2024-11-29 18:14:12.527,0.148355,3.77318,8.59472,-0.174626,-0.0305424,0.0306951,0
2024-11-29 18:14:12.527,0.148355,3.77318,8.59472,-0.174626,-0.0305424,0.0306951,0
2024-11-29 18:14:12.527,0.148355,3.77318,8.59472,-0.174626,-0.0305424,0.0306951,0
2024-11-29 18:14:12.528,0.16989,3.7995,8.62583,-0.174626,-0.0305424,0.0306951,0
2024-11-29 18:14:12.528,0.16989,3.7995,8.62583,-0.174626,-0.0305424,0.0306951,0
2024-11-29 18:14:12.528,0.16989,3.7995,8.62583,-0.174626,-0.0305424,0.0306951,0
2024-11-29 18:14:12.528,0.16989,3.7995,8.62583,-0.174626,-0.0305424,0.0306951,0
2024-11-29 18:14:12.529,0.16989,3.7995,8.62583,-0.174626,-0.0305424,0.0306951,0
2024-11-29 18:14:12.529,0.16989,3.7995,8.62583,-0.174626,-0.0305424,0.0306951,0
2024-11-29 18:14:12.529,0.16989,3.7995,8.62583,-0.174626,-0.0305424,0.0306951,0
2024-11-29 18:14:12.529,0.16989,3.7995,8.62583,-0.174626,-0.0305424,0.0306951,0
2024-11-29 18:14:12.531,0.212961,3.82104,8.68086,-0.172793,-0.0604739,0.02703,0
2024-11-29 18:14:12.531,0.212961,3.82104,8.68086,-0.172793,-0.0604739,0.02703,0
2024-11-29 18:14:12.531,0.212961,3.82104,8.68086,-0.172793,-0.0604739,0.02703,0
2024-11-29 18:14:12.532,0.212961,3.82104,8.68086,-0.175848,-0.0916271,0.0239758,0
2024-11-29 18:14:12.532,0.212961,3.82104,8.68086,-0.175848,-0.0916271,0.0239758,0
2024-11-29 18:14:12.532,0.212961,3.82104,8.68086,-0.175848,-0.0916271,0.0239758,0
2024-11-29 18:14:12.532,0.212961,3.82104,8.68086,-0.175848,-0.0916271,0.0239758,0
2024-11-29 18:14:12.532,0.212961,3.82104,8.68086,-0.175848,-0.0916271,0.0239758,0
2024-11-29 18:14:12.532,0.212961,3.82104,8.68086,-0.175848,-0.0916271,0.0239758,0
2024-11-29 18:14:12.532,0.212961,3.82104,8.68086,-0.175848,-0.0916271,0.0239758,0
2024-11-29 18:14:12.532,0.212961,3.82104,8.68086,-0.175848,-0.0916271,0.0239758,0
2024-11-29 18:14:12.533,0.212961,3.86411,8.75534,-0.175848,-0.0916271,0.0239758,0
2024-11-29 18:14:12.533,0.260818,3.86411,8.75534,-0.175848,-0.0916271,0.0239758,0
2024-11-29 18:14:12.533,0.260818,3.86411,8.75534,-0.175848,-0.0916271,0.0239758,0
2024-11-29 18:14:12.533,0.260818,3.86411,8.75534,-0.175848,-0.0916271,0.0239758,0
2024-11-29 18:14:12.533,0.260818,3.86411,8.75534,-0.175848,-0.0916271,0.0239758,0
2024-11-29 18:14:12.533,0.260818,3.86411,8.75534,-0.175848,-0.0916271,0.0239758,0
2024-11-29 18:14:12.534,0.260818,3.86411,8.75534,-0.175848,-0.120337,0.0178673,0
2024-11-29 18:14:12.534,0.260818,3.86411,8.75534,-0.175848,-0.120337,0.0178673,0
2024-11-29 18:14:12.534,0.260818,3.86411,8.75534,-0.175848,-0.120337,0.0178673,0
2024-11-29 18:14:12.536,0.32333,3.88804,8.8343,-0.175848,-0.120337,0.0178673,0
2024-11-29 18:14:12.536,0.32333,3.88804,8.8343,-0.175848,-0.120337,0.0178673,0
2024-11-29 18:14:12.536,0.32333,3.88804,8.8343,-0.175848,-0.120337,0.0178673,0
2024-11-29 18:14:12.536,0.32333,3.88804,8.8343,-0.175848,-0.120337,0.0178673,0
2024-11-29 18:14:12.536,0.32333,3.88804,8.8343,-0.175848,-0.120337,0.0178673,0
2024-11-29 18:14:12.537,0.32333,3.88804,8.8343,-0.177069,-0.148436,0.0117588,0
2024-11-29 18:14:12.537,0.32333,3.88804,8.8343,-0.177069,-0.148436,0.0117588,0
2024-11-29 18:14:12.537,0.32333,3.88804,8.8343,-0.177069,-0.148436,0.0117588,0
2024-11-29 18:14:12.537,0.32333,3.88804,8.8343,-0.177069,-0.148436,0.0117588,0
2024-11-29 18:14:12.537,0.32333,3.88804,8.8343,-0.177069,-0.148436,0.0117588,0
2024-11-29 18:14:12.537,0.32333,3.88804,8.8343,-0.177069,-0.148436,0.0117588,0
2024-11-29 18:14:12.538,0.383151,3.90239,8.9348,-0.177069,-0.148436,0.0117588,0
2024-11-29 18:14:12.538,0.383151,3.90239,8.9348,-0.177069,-0.148436,0.0117588,0
2024-11-29 18:14:12.539,0.383151,3.90239,8.9348,-0.17768,-0.174702,0.0038178,0
2024-11-29 18:14:12.539,0.383151,3.90239,8.9348,-0.17768,-0.174702,0.0038178,0
2024-11-29 18:14:12.539,0.383151,3.90239,8.9348,-0.17768,-0.174702,0.0038178,0
2024-11-29 18:14:12.539,0.383151,3.90239,8.9348,-0.17768,-0.174702,0.0038178,0
2024-11-29 18:14:12.540,0.426222,3.92632,9.05205,-0.17768,-0.174702,0.0038178,0
2024-11-29 18:14:12.540,0.426222,3.92632,9.05205,-0.17768,-0.174702,0.0038178,0
2024-11-29 18:14:12.540,0.426222,3.92632,9.05205,-0.17768,-0.174702,0.0038178,0
2024-11-29 18:14:12.540,0.426222,3.92632,9.05205,-0.17768,-0.174702,0.0038178,0
2024-11-29 18:14:12.540,0.426222,3.92632,9.05205,-0.17768,-0.174702,0.0038178,0
2024-11-29 18:14:12.541,0.426222,3.92632,9.05205,-0.178291,-0.200358,-0.00351237,0
2024-11-29 18:14:12.541,0.426222,3.92632,9.05205,-0.178291,-0.200358,-0.00351237,0
2024-11-29 18:14:12.541,0.426222,3.92632,9.05205,-0.178291,-0.200358,-0.00351237,0
2024-11-29 18:14:12.541,0.426222,3.92632,9.05205,-0.178291,-0.200358,-0.00351237,0
2024-11-29 18:14:12.541,0.426222,3.92632,9.05205,-0.178291,-0.200358,-0.00351237,0
2024-11-29 18:14:12.543,0.476471,3.96222,9.17647,-0.178291,-0.200358,-0.00351237,0
2024-11-29 18:14:12.543,0.476471,3.96222,9.17647,-0.178291,-0.200358,-0.00351237,0
2024-11-29 18:14:12.543,0.476471,3.96222,9.17647,-0.178291,-0.200358,-0.00351237,0
2024-11-29 18:14:12.544,0.476471,3.96222,9.17647,-0.174626,-0.222959,-0.0132859,0
2024-11-29 18:14:12.544,0.476471,3.96222,9.17647,-0.174626,-0.222959,-0.0132859,0
2024-11-29 18:14:12.544,0.476471,3.96222,9.17647,-0.174626,-0.222959,-0.0132859,0
2024-11-29 18:14:12.545,0.521934,3.99571,9.3012,-0.174626,-0.222959,-0.0132859,0
2024-11-29 18:14:12.545,0.521934,3.99571,9.3012,-0.174626,-0.222959,-0.0132859,0
2024-11-29 18:14:12.545,0.521934,3.99571,9.3012,-0.174626,-0.222959,-0.0132859,0
2024-11-29 18:14:12.545,0.521934,3.99571,9.3012,-0.174626,-0.222959,-0.0132859,0
2024-11-29 18:14:12.545,0.521934,3.99571,9.3012,-0.174626,-0.222959,-0.0132859,0
2024-11-29 18:14:12.546,0.521934,3.99571,9.3012,-0.173404,-0.24495,-0.0212269,0
2024-11-29 18:14:12.546,0.521934,3.99571,9.3012,-0.173404,-0.24495,-0.0212269,0
2024-11-29 18:14:12.546,0.521934,3.99571,9.3012,-0.173404,-0.24495,-0.0212269,0
2024-11-29 18:14:12.546,0.521934,3.99571,9.3012,-0.173404,-0.24495,-0.0212269,0
2024-11-29 18:14:12.546,0.521934,3.99571,9.3012,-0.173404,-0.24495,-0.0212269,0
2024-11-29 18:14:12.547,0.538684,4.00529,9.44477,-0.173404,-0.24495,-0.0212269,0
2024-11-29 18:14:12.547,0.538684,4.00529,9.44477,-0.173404,-0.24495,-0.0212269,0
2024-11-29 18:14:12.547,0.538684,4.00529,9.44477,-0.173404,-0.24495,-0.0212269,0
2024-11-29 18:14:12.547,0.538684,4.00529,9.44477,-0.173404,-0.24495,-0.0212269,0
2024-11-29 18:14:12.548,0.538684,4.00529,9.44477,-0.172183,-0.266329,-0.0279463,0
2024-11-29 18:14:12.548,0.538684,4.00529,9.44477,-0.172183,-0.266329,-0.0279463,0
2024-11-29 18:14:12.548,0.538684,4.00529,9.44477,-0.172183,-0.266329,-0.0279463,0
2024-11-29 18:14:12.548,0.538684,4.00529,9.44477,-0.172183,-0.266329,-0.0279463,0
2024-11-29 18:14:12.550,0.550648,4.02443,9.60509,-0.172183,-0.266329,-0.0279463,0
2024-11-29 18:14:12.550,0.550648,4.02443,9.60509,-0.172183,-0.266329,-0.0279463,0
2024-11-29 18:14:12.551,0.550648,4.02443,9.60509,-0.170961,-0.285877,-0.0358873,0
2024-11-29 18:14:12.551,0.550648,4.02443,9.60509,-0.170961,-0.285877,-0.0358873,0
2024-11-29 18:14:12.551,0.550648,4.02443,9.60509,-0.170961,-0.285877,-0.0358873,0
2024-11-29 18:14:12.551,0.550648,4.02443,9.60509,-0.170961,-0.285877,-0.0358873,0
2024-11-29 18:14:12.551,0.550648,4.02443,9.60509,-0.170961,-0.285877,-0.0358873,0
2024-11-29 18:14:12.551,0.550648,4.02443,9.60509,-0.170961,-0.285877,-0.0358873,0
2024-11-29 18:14:12.551,0.550648,4.02443,9.60509,-0.170961,-0.285877,-0.0358873,0
2024-11-29 18:14:12.551,0.550648,4.02443,9.60509,-0.170961,-0.285877,-0.0358873,0
2024-11-29 18:14:12.552,0.56022,4.05793,9.75105,-0.170961,-0.285877,-0.0358873,0
2024-11-29 18:14:12.552,0.56022,4.05793,9.75105,-0.170961,-0.285877,-0.0358873,0
2024-11-29 18:14:12.552,0.56022,4.05793,9.75105,-0.170961,-0.285877,-0.0358873,0
2024-11-29 18:14:12.553,0.56022,4.05793,9.75105,-0.164852,-0.309089,-0.0426066,0
2024-11-29 18:14:12.553,0.56022,4.05793,9.75105,-0.164852,-0.309089,-0.0426066,0
2024-11-29 18:14:12.553,0.56022,4.05793,9.75105,-0.164852,-0.309089,-0.0426066,0
2024-11-29 18:14:12.553,0.56022,4.05793,9.75105,-0.164852,-0.309089,-0.0426066,0
2024-11-29 18:14:12.554,0.576969,4.06032,9.89253,-0.164852,-0.309089,-0.0426066,0
2024-11-29 18:14:12.554,0.576969,4.06032,9.89253,-0.164852,-0.309089,-0.0426066,0
2024-11-29 18:14:12.554,0.56022,4.06032,9.89253,-0.164852,-0.309089,-0.0426066,0
2024-11-29 18:14:12.554,0.576969,4.06032,9.89253,-0.164852,-0.309089,-0.0426066,0
2024-11-29 18:14:12.554,0.576969,4.06032,9.89253,-0.164852,-0.309089,-0.0426066,0
2024-11-29 18:14:12.555,0.576969,4.06032,9.89253,-0.164852,-0.309089,-0.0426066,0
2024-11-29 18:14:12.555,0.576969,4.06032,9.89253,-0.164852,-0.309089,-0.0426066,0
2024-11-29 18:14:12.555,0.576969,4.06032,9.89253,-0.164852,-0.309089,-0.0426066,0
2024-11-29 18:14:12.555,0.576969,4.06032,9.89253,-0.164852,-0.309089,-0.0426066,0
2024-11-29 18:14:12.557,0.588933,4.07229,10.0289,-0.161798,-0.328636,-0.0493259,0
2024-11-29 18:14:12.557,0.588933,4.07229,10.0289,-0.161798,-0.328636,-0.0493259,0
2024-11-29 18:14:12.557,0.588933,4.07229,10.0289,-0.161798,-0.328636,-0.0493259,0
2024-11-29 18:14:12.558,0.588933,4.07229,10.0289,-0.158133,-0.344518,-0.0560452,0
2024-11-29 18:14:12.558,0.588933,4.07229,10.0289,-0.158133,-0.344518,-0.0560452,0
2024-11-29 18:14:12.558,0.588933,4.07229,10.0289,-0.158133,-0.344518,-0.0560452,0
2024-11-29 18:14:12.559,0.596112,4.09621,10.1462,-0.158133,-0.344518,-0.0560452,0
2024-11-29 18:14:12.559,0.596112,4.09621,10.1462,-0.158133,-0.344518,-0.0560452,0
2024-11-29 18:14:12.559,0.596112,4.09621,10.1462,-0.158133,-0.344518,-0.0560452,0
2024-11-29 18:14:12.559,0.596112,4.09621,10.1462,-0.158133,-0.344518,-0.0560452,0
2024-11-29 18:14:12.559,0.596112,4.09621,10.1462,-0.158133,-0.344518,-0.0560452,0
2024-11-29 18:14:12.560,0.596112,4.09621,10.1462,-0.153246,-0.359789,-0.0603212,0
2024-11-29 18:14:12.560,0.596112,4.09621,10.1462,-0.153246,-0.359789,-0.0603212,0
2024-11-29 18:14:12.560,0.588933,4.09621,10.1462,-0.153246,-0.359789,-0.0603212,0
2024-11-29 18:14:12.560,0.596112,4.09621,10.1462,-0.153246,-0.359789,-0.0603212,0
2024-11-29 18:14:12.560,0.596112,4.09621,10.1462,-0.153246,-0.359789,-0.0603212,0
2024-11-29 18:14:12.561,0.600898,4.101,10.2371,-0.153246,-0.359789,-0.0603212,0
2024-11-29 18:14:12.561,0.600898,4.101,10.2371,-0.153246,-0.359789,-0.0603212,0
2024-11-29 18:14:12.562,0.600898,4.101,10.2371,-0.153246,-0.359789,-0.0603212,0
2024-11-29 18:14:12.562,0.600898,4.101,10.2371,-0.153246,-0.359789,-0.0603212,0
2024-11-29 18:14:12.562,0.600898,4.101,10.2371,-0.153246,-0.359789,-0.0603212,0
2024-11-29 18:14:12.562,0.600898,4.101,10.2371,-0.153246,-0.359789,-0.0603212,0
2024-11-29 18:14:12.562,0.600898,4.101,10.2371,-0.153246,-0.359789,-0.0603212,0
2024-11-29 18:14:12.564,0.608076,4.10818,10.3232,-0.147749,-0.370173,-0.0658188,0
2024-11-29 18:14:12.564,0.608076,4.10818,10.3232,-0.147749,-0.370173,-0.0658188,0
2024-11-29 18:14:12.564,0.608076,4.10818,10.3232,-0.147749,-0.370173,-0.0658188,0
2024-11-29 18:14:12.564,0.608076,4.10818,10.3232,-0.147749,-0.370173,-0.0658188,0
2024-11-29 18:14:12.565,0.608076,4.10818,10.3232,-0.145916,-0.37506,-0.068873,0
2024-11-29 18:14:12.565,0.608076,4.10818,10.3232,-0.145916,-0.37506,-0.068873,0
2024-11-29 18:14:12.565,0.608076,4.10818,10.3232,-0.145916,-0.37506,-0.068873,0
2024-11-29 18:14:12.565,0.608076,4.10818,10.3232,-0.145916,-0.37506,-0.068873,0
2024-11-29 18:14:12.565,0.608076,4.10818,10.3232,-0.145916,-0.37506,-0.068873,0
2024-11-29 18:14:12.565,0.608076,4.10818,10.3232,-0.145916,-0.37506,-0.068873,0
2024-11-29 18:14:12.566,0.605683,4.12014,10.4408,-0.145916,-0.37506,-0.068873,0
2024-11-29 18:14:12.566,0.605683,4.12014,10.4408,-0.145916,-0.37506,-0.068873,0
2024-11-29 18:14:12.566,0.605683,4.12014,10.4408,-0.145916,-0.37506,-0.068873,0
2024-11-29 18:14:12.566,0.605683,4.12014,10.4408,-0.145916,-0.37506,-0.068873,0
2024-11-29 18:14:12.566,0.605683,4.12014,10.4408,-0.145916,-0.37506,-0.068873,0
2024-11-29 18:14:12.567,0.605683,4.12014,10.4408,-0.143473,-0.380558,-0.0719273,0
2024-11-29 18:14:12.567,0.605683,4.12014,10.4408,-0.143473,-0.380558,-0.0719273,0
2024-11-29 18:14:12.567,0.605683,4.12014,10.4408,-0.143473,-0.380558,-0.0719273,0
2024-11-29 18:14:12.567,0.605683,4.12014,10.4408,-0.143473,-0.380558,-0.0719273,0
2024-11-29 18:14:12.568,0.584148,4.15364,10.57,-0.143473,-0.380558,-0.0719273,0
2024-11-29 18:14:12.568,0.584148,4.15364,10.57,-0.143473,-0.380558,-0.0719273,0
2024-11-29 18:14:12.568,0.584148,4.15364,10.57,-0.143473,-0.380558,-0.0719273,0
2024-11-29 18:14:12.568,0.584148,4.15364,10.57,-0.143473,-0.380558,-0.0719273,0
2024-11-29 18:14:12.568,0.584148,4.15364,10.57,-0.143473,-0.380558,-0.0719273,0
2024-11-29 18:14:12.569,0.584148,4.15364,10.57,-0.143473,-0.380558,-0.0719273,0
2024-11-29 18:14:12.569,0.584148,4.15364,10.57,-0.143473,-0.380558,-0.0719273,0
2024-11-29 18:14:12.569,0.584148,4.15364,10.57,-0.143473,-0.380558,-0.0719273,0
2024-11-29 18:14:12.569,0.584148,4.15364,10.57,-0.143473,-0.380558,-0.0719273,0
2024-11-29 18:14:12.569,0.584148,4.15364,10.57,-0.143473,-0.380558,-0.0719273,0
2024-11-29 18:14:12.571,0.538684,4.19432,10.7088,-0.139808,-0.381169,-0.073149,0
2024-11-29 18:14:12.571,0.538684,4.19432,10.7088,-0.139808,-0.381169,-0.073149,0
2024-11-29 18:14:12.571,0.538684,4.19432,10.7088,-0.139808,-0.381169,-0.073149,0
2024-11-29 18:14:12.572,0.538684,4.19432,10.7088,-0.131867,-0.379336,-0.073149,0
2024-11-29 18:14:12.572,0.538684,4.19432,10.7088,-0.131867,-0.379336,-0.073149,0
2024-11-29 18:14:12.572,0.538684,4.19432,10.7088,-0.131867,-0.379336,-0.073149,0
2024-11-29 18:14:12.573,0.490828,4.23051,10.8595,-0.139808,-0.381169,-0.073149,0
2024-11-29 18:14:12.573,0.490828,4.23051,10.8595,-0.139808,-0.381169,-0.073149,0
2024-11-29 18:14:12.573,0.490828,4.23051,10.8595,-0.139808,-0.381169,-0.073149,0
2024-11-29 18:14:12.573,0.490828,4.23051,10.8595,-0.139808,-0.381169,-0.073149,0
2024-11-29 18:14:12.574,0.490828,4.23051,10.8595,-0.126369,-0.373228,-0.0713164,0
2024-11-29 18:14:12.574,0.490828,4.23051,10.8595,-0.126369,-0.373228,-0.0713164,0
2024-11-29 18:14:12.574,0.490828,4.23051,10.8595,-0.126369,-0.373228,-0.0713164,0
2024-11-29 18:14:12.574,0.490828,4.23051,10.8595,-0.126369,-0.373228,-0.0713164,0
2024-11-29 18:14:12.576,0.452543,4.2688,10.989,-0.126369,-0.373228,-0.0713164,0
2024-11-29 18:14:12.576,0.452543,4.2688,10.989,-0.126369,-0.373228,-0.0713164,0
2024-11-29 18:14:12.576,0.452543,4.2688,10.989,-0.126369,-0.373228,-0.0713164,0
2024-11-29 18:14:12.577,0.452543,4.2688,10.989,-0.117206,-0.368341,-0.068873,0
2024-11-29 18:14:12.577,0.452543,4.2688,10.989,-0.117206,-0.368341,-0.068873,0
2024-11-29 18:14:12.577,0.452543,4.2688,10.989,-0.117206,-0.368341,-0.068873,0
2024-11-29 18:14:12.577,0.452543,4.2688,10.989,-0.117206,-0.368341,-0.068873,0
2024-11-29 18:14:12.577,0.452543,4.2688,10.989,-0.117206,-0.368341,-0.068873,0
2024-11-29 18:14:12.578,0.4334,4.2999,11.1326,-0.117206,-0.368341,-0.068873,0
2024-11-29 18:14:12.578,0.4334,4.2999,11.1326,-0.117206,-0.368341,-0.068873,0
2024-11-29 18:14:12.578,0.4334,4.2999,11.1326,-0.117206,-0.368341,-0.068873,0
2024-11-29 18:14:12.578,0.4334,4.2999,11.1326,-0.117206,-0.368341,-0.068873,0
2024-11-29 18:14:12.579,0.4334,4.2999,11.1326,-0.111098,-0.356124,-0.0652079,0
2024-11-29 18:14:12.579,0.4334,4.2999,11.1326,-0.111098,-0.356124,-0.0652079,0
2024-11-29 18:14:12.579,0.4334,4.2999,11.1326,-0.111098,-0.356124,-0.0652079,0
2024-11-29 18:14:12.579,0.4334,4.2999,11.1326,-0.111098,-0.356124,-0.0652079,0
2024-11-29 18:14:12.580,0.423829,4.32862,11.2762,-0.111098,-0.356124,-0.0652079,0
2024-11-29 18:14:12.580,0.423829,4.32862,11.2762,-0.111098,-0.356124,-0.0652079,0
2024-11-29 18:14:12.581,0.423829,4.32862,11.2762,-0.0970484,-0.345129,-0.0603212,0
2024-11-29 18:14:12.581,0.423829,4.32862,11.2762,-0.0970484,-0.345129,-0.0603212,0
2024-11-29 18:14:12.581,0.423829,4.32862,11.2762,-0.0970484,-0.345129,-0.0603212,0
2024-11-29 18:14:12.581,0.423829,4.32862,11.2762,-0.0970484,-0.345129,-0.0603212,0
2024-11-29 18:14:12.583,0.395115,4.34058,11.3982,-0.0970484,-0.345129,-0.0603212,0
2024-11-29 18:14:12.583,0.395115,4.34058,11.3982,-0.0970484,-0.345129,-0.0603212,0
2024-11-29 18:14:12.583,0.395115,4.34058,11.3982,-0.0970484,-0.345129,-0.0603212,0
2024-11-29 18:14:12.584,0.395115,4.34058,11.3982,-0.0860531,-0.331079,-0.0560452,0
2024-11-29 18:14:12.584,0.395115,4.34058,11.3982,-0.0860531,-0.331079,-0.0560452,0
2024-11-29 18:14:12.584,0.395115,4.34058,11.3982,-0.0860531,-0.331079,-0.0560452,0
2024-11-29 18:14:12.584,0.395115,4.34058,11.3982,-0.0860531,-0.331079,-0.0560452,0
2024-11-29 18:14:12.584,0.395115,4.34058,11.3982,-0.0860531,-0.331079,-0.0560452,0
2024-11-29 18:14:12.585,0.395115,4.3669,11.5205,-0.0860531,-0.331079,-0.0560452,0
2024-11-29 18:14:12.585,0.395115,4.3669,11.5205,-0.0860531,-0.331079,-0.0560452,0
2024-11-29 18:14:12.585,0.395115,4.3669,11.5205,-0.0860531,-0.331079,-0.0560452,0
2024-11-29 18:14:12.585,0.395115,4.3669,11.5205,-0.0860531,-0.331079,-0.0560452,0
2024-11-29 18:14:12.585,0.395115,4.3669,11.5205,-0.0860531,-0.331079,-0.0560452,0
2024-11-29 18:14:12.585,0.395115,4.3669,11.5205,-0.0860531,-0.331079,-0.0560452,0
2024-11-29 18:14:12.586,0.395115,4.3669,11.5205,-0.0713928,-0.318862,-0.0517693,0
2024-11-29 18:14:12.586,0.395115,4.3669,11.5205,-0.0713928,-0.318862,-0.0517693,0
2024-11-29 18:14:12.587,0.407079,4.4004,11.6378,-0.0713928,-0.318862,-0.0517693,0
2024-11-29 18:14:12.587,0.407079,4.4004,11.6378,-0.0713928,-0.318862,-0.0517693,0
2024-11-29 18:14:12.587,0.407079,4.4004,11.6378,-0.0713928,-0.318862,-0.0517693,0
2024-11-29 18:14:12.587,0.407079,4.4004,11.6378,-0.0713928,-0.318862,-0.0517693,0
2024-11-29 18:14:12.588,0.407079,4.4004,11.6378,-0.0713928,-0.318862,-0.0517693,0
2024-11-29 18:14:12.588,0.407079,4.4004,11.6378,-0.0713928,-0.318862,-0.0517693,0
2024-11-29 18:14:12.588,0.407079,4.4004,11.6378,-0.0713928,-0.318862,-0.0517693,0
2024-11-29 18:14:12.588,0.407079,4.4004,11.6378,-0.0713928,-0.318862,-0.0517693,0
2024-11-29 18:14:12.590,0.407079,4.41236,11.755,-0.0713928,-0.318862,-0.0462717,0
2024-11-29 18:14:12.590,0.407079,4.41236,11.755,-0.0713928,-0.318862,-0.0462717,0
2024-11-29 18:14:12.590,0.407079,4.41236,11.755,-0.0713928,-0.318862,-0.0462717,0
2024-11-29 18:14:12.590,0.407079,4.41236,11.755,-0.0713928,-0.318862,-0.0462717,0
2024-11-29 18:14:12.591,0.407079,4.41236,11.755,-0.0445155,-0.290763,-0.0419957,0
2024-11-29 18:14:12.591,0.407079,4.41236,11.755,-0.0445155,-0.290763,-0.0419957,0
2024-11-29 18:14:12.591,0.407079,4.41236,11.755,-0.0445155,-0.290763,-0.0419957,0
2024-11-29 18:14:12.591,0.407079,4.41236,11.755,-0.0445155,-0.290763,-0.0419957,0
2024-11-29 18:14:12.592,0.411865,4.42433,11.8412,-0.0445155,-0.290763,-0.0419957,0
2024-11-29 18:14:12.592,0.411865,4.42433,11.8412,-0.0445155,-0.290763,-0.0419957,0
2024-11-29 18:14:12.592,0.411865,4.42433,11.8412,-0.0445155,-0.290763,-0.0419957,0
2024-11-29 18:14:12.592,0.411865,4.42433,11.8412,-0.0445155,-0.290763,-0.0419957,0
2024-11-29 18:14:12.593,0.411865,4.42433,11.8412,-0.0280226,-0.275492,-0.0389415,0
2024-11-29 18:14:12.593,0.411865,4.42433,11.8412,-0.0280226,-0.275492,-0.0389415,0
2024-11-29 18:14:12.593,0.411865,4.42433,11.8412,-0.0280226,-0.275492,-0.0389415,0
2024-11-29 18:14:12.593,0.411865,4.42433,11.8412,-0.0280226,-0.275492,-0.0389415,0
2024-11-29 18:14:12.594,0.423829,4.4339,11.901,-0.0280226,-0.275492,-0.0389415,0
2024-11-29 18:14:12.594,0.423829,4.4339,11.901,-0.0280226,-0.275492,-0.0389415,0
2024-11-29 18:14:12.594,0.423829,4.4339,11.901,-0.0280226,-0.275492,-0.0389415,0
2024-11-29 18:14:12.595,0.423829,4.4339,11.901,-0.0280226,-0.275492,-0.0389415,0
2024-11-29 18:14:12.595,0.423829,4.4339,11.901,-0.0280226,-0.275492,-0.0389415,0
2024-11-29 18:14:12.595,0.423829,4.4339,11.901,-0.0280226,-0.275492,-0.0389415,0
2024-11-29 18:14:12.595,0.423829,4.4339,11.901,-0.0280226,-0.275492,-0.0389415,0
2024-11-29 18:14:12.597,0.45015,4.43151,11.9465,-0.0158057,-0.262053,-0.0358873,0
2024-11-29 18:14:12.597,0.45015,4.43151,11.9465,-0.0158057,-0.262053,-0.0358873,0
2024-11-29 18:14:12.597,0.45015,4.43151,11.9465,-0.0158057,-0.262053,-0.0358873,0
2024-11-29 18:14:12.598,0.45015,4.43151,11.9465,-0.00175619,-0.246171,-0.0316113,0
2024-11-29 18:14:12.598,0.45015,4.43151,11.9465,-0.00175619,-0.246171,-0.0316113,0
2024-11-29 18:14:12.598,0.45015,4.43151,11.9465,-0.00175619,-0.246171,-0.0316113,0
2024-11-29 18:14:12.598,0.45015,4.43151,11.9465,-0.00175619,-0.246171,-0.0316113,0
2024-11-29 18:14:12.598,0.45015,4.43151,11.9465,-0.00175619,-0.246171,-0.0316113,0
2024-11-29 18:14:12.599,0.462114,4.44347,11.98,-0.00175619,-0.246171,-0.0316113,0
2024-11-29 18:14:12.599,0.462114,4.44347,11.98,-0.00175619,-0.246171,-0.0316113,0
2024-11-29 18:14:12.599,0.462114,4.44347,11.98,-0.00175619,-0.246171,-0.0316113,0
2024-11-29 18:14:12.600,0.462114,4.44347,11.98,0.0110716,-0.232122,-0.0297788,0
2024-11-29 18:14:12.600,0.462114,4.44347,11.98,0.0110716,-0.232122,-0.0297788,0
2024-11-29 18:14:12.600,0.462114,4.44347,11.98,0.0110716,-0.232122,-0.0297788,0
2024-11-29 18:14:12.601,0.471685,4.45783,12.0183,0.0110716,-0.232122,-0.0297788,0
2024-11-29 18:14:12.602,0.471685,4.45783,12.0183,0.0110716,-0.232122,-0.0297788,0
2024-11-29 18:14:12.602,0.471685,4.45783,12.0183,0.0110716,-0.232122,-0.0297788,0
2024-11-29 18:14:12.604,0.495613,4.46261,12.035,0.0220669,-0.215629,-0.0267246,0
2024-11-29 18:14:12.604,0.495613,4.46261,12.035,0.0220669,-0.215629,-0.0267246,0
2024-11-29 18:14:12.604,0.495613,4.46261,12.035,0.0220669,-0.215629,-0.0267246,0
2024-11-29 18:14:12.605,0.495613,4.46261,12.035,0.0324513,-0.207077,-0.0261137,0
2024-11-29 18:14:12.605,0.495613,4.46261,12.035,0.0324513,-0.207077,-0.0261137,0
2024-11-29 18:14:12.605,0.495613,4.46261,12.035,0.0324513,-0.207077,-0.0261137,0
2024-11-29 18:14:12.605,0.495613,4.46261,12.035,0.0324513,-0.207077,-0.0261137,0
2024-11-29 18:14:12.606,0.514756,4.46501,12.0254,0.0324513,-0.207077,-0.0261137,0
2024-11-29 18:14:12.606,0.514756,4.46501,12.0254,0.0324513,-0.207077,-0.0261137,0
2024-11-29 18:14:12.606,0.514756,4.46501,12.0254,0.0324513,-0.207077,-0.0261137,0
2024-11-29 18:14:12.606,0.514756,4.46501,12.0254,0.0324513,-0.207077,-0.0261137,0
2024-11-29 18:14:12.606,0.514756,4.46501,12.0254,0.0324513,-0.207077,-0.0261137,0
2024-11-29 18:14:12.607,0.514756,4.46501,12.0254,0.0410031,-0.197304,-0.0224486,0
2024-11-29 18:14:12.607,0.514756,4.46501,12.0254,0.0410031,-0.197304,-0.0224486,0
2024-11-29 18:14:12.607,0.514756,4.46501,12.0254,0.0410031,-0.197304,-0.0224486,0
2024-11-29 18:14:12.607,0.514756,4.46501,12.0254,0.0410031,-0.197304,-0.0224486,0
2024-11-29 18:14:12.609,0.52672,4.45544,12.0302,0.0410031,-0.197304,-0.0224486,0
2024-11-29 18:14:12.609,0.52672,4.45544,12.0302,0.0410031,-0.197304,-0.0224486,0
2024-11-29 18:14:12.609,0.52672,4.45544,12.0302,0.0410031,-0.197304,-0.0224486,0
2024-11-29 18:14:12.609,0.52672,4.45544,12.0302,0.0410031,-0.197304,-0.0224486,0
2024-11-29 18:14:12.610,0.52672,4.45544,12.0302,0.0489441,-0.18753,-0.0218378,0
2024-11-29 18:14:12.610,0.52672,4.45544,12.0302,0.0489441,-0.18753,-0.0218378,0
2024-11-29 18:14:12.610,0.52672,4.45544,12.0302,0.0489441,-0.18753,-0.0218378,0
2024-11-29 18:14:12.610,0.52672,4.45544,12.0302,0.0489441,-0.18753,-0.0218378,0
2024-11-29 18:14:12.611,0.533899,4.46979,12.0518,0.0489441,-0.18753,-0.0218378,0
2024-11-29 18:14:12.611,0.533899,4.46979,12.0518,0.0489441,-0.18753,-0.0218378,0
2024-11-29 18:14:12.611,0.533899,4.46979,12.0518,0.0489441,-0.18753,-0.0218378,0
2024-11-29 18:14:12.611,0.533899,4.46979,12.0518,0.0489441,-0.18753,-0.0218378,0
2024-11-29 18:14:12.611,0.533899,4.46979,12.0518,0.0489441,-0.18753,-0.0218378,0
2024-11-29 18:14:12.611,0.533899,4.46979,12.0518,0.0489441,-0.18753,-0.0218378,0
2024-11-29 18:14:12.611,0.533899,4.46979,12.0518,0.0489441,-0.18753,-0.0218378,0
2024-11-29 18:14:12.612,0.533899,4.46979,12.0518,0.0538309,-0.181422,-0.0206161,0
2024-11-29 18:14:12.612,0.533899,4.46979,12.0518,0.0538309,-0.181422,-0.0206161,0
2024-11-29 18:14:12.612,0.533899,4.46979,12.0518,0.0538309,-0.181422,-0.0206161,0
2024-11-29 18:14:12.612,0.533899,4.46979,12.0518,0.0538309,-0.181422,-0.0206161,0
2024-11-29 18:14:12.613,0.54347,4.47936,12.0613,0.0538309,-0.181422,-0.0206161,0
2024-11-29 18:14:12.613,0.54347,4.47936,12.0613,0.0538309,-0.181422,-0.0206161,0
2024-11-29 18:14:12.613,0.54347,4.47936,12.0613,0.0538309,-0.181422,-0.0206161,0
2024-11-29 18:14:12.614,0.54347,4.47936,12.0613,0.0556635,-0.176535,-0.0187836,0
2024-11-29 18:14:12.614,0.54347,4.47936,12.0613,0.0556635,-0.176535,-0.0187836,0
2024-11-29 18:14:12.614,0.54347,4.47936,12.0613,0.0556635,-0.176535,-0.0187836,0
2024-11-29 18:14:12.614,0.54347,4.47936,12.0613,0.0556635,-0.176535,-0.0187836,0
2024-11-29 18:14:12.614,0.54347,4.47936,12.0613,0.0556635,-0.176535,-0.0187836,0
2024-11-29 18:14:12.616,0.555434,4.47697,12.0808,0.0556635,-0.176535,-0.0187836,0
2024-11-29 18:14:12.616,0.555434,4.47697,12.0808,0.0556635,-0.176535,-0.0187836,0
2024-11-29 18:14:12.616,0.555434,4.47697,12.0808,0.0556635,-0.176535,-0.0187836,0
2024-11-29 18:14:12.616,0.555434,4.47697,12.0808,0.0556635,-0.176535,-0.0187836,0
2024-11-29 18:14:12.616,0.555434,4.47697,12.0808,0.0556635,-0.176535,-0.0187836,0
2024-11-29 18:14:12.616,0.555434,4.47697,12.0808,0.0556635,-0.176535,-0.0187836,0
2024-11-29 18:14:12.617,0.555434,4.47697,12.0808,0.0581068,-0.169205,-0.0193944,0
2024-11-29 18:14:12.617,0.555434,4.47697,12.0808,0.0581068,-0.169205,-0.0193944,0
2024-11-29 18:14:12.617,0.555434,4.47697,12.0808,0.0581068,-0.169205,-0.0193944,0
2024-11-29 18:14:12.617,0.555434,4.47697,12.0808,0.0581068,-0.169205,-0.0193944,0
2024-11-29 18:14:12.617,0.555434,4.47697,12.0808,0.0581068,-0.169205,-0.0193944,0
2024-11-29 18:14:12.618,0.572184,4.49133,12.0903,0.0581068,-0.169205,-0.0193944,0
2024-11-29 18:14:12.618,0.555434,4.47697,12.0808,0.0581068,-0.169205,-0.0193944,0
2024-11-29 18:14:12.619,0.572184,4.49133,12.0903,0.0629936,-0.16554,-0.0200052,0
2024-11-29 18:14:12.619,0.572184,4.49133,12.0903,0.0629936,-0.16554,-0.0200052,0
2024-11-29 18:14:12.620,0.584148,4.52243,12.0951,0.0629936,-0.16554,-0.0200052,0
2024-11-29 18:14:12.624,0.600898,4.55593,12.1214,0.0623828,-0.163096,-0.0187836,0
2024-11-29 18:14:12.625,0.627219,4.58226,12.1573,0.0642153,-0.155766,-0.0193944,0
2024-11-29 18:14:12.628,0.63679,4.61576,12.1908,0.0697129,-0.149658,-0.0218378,0
2024-11-29 18:14:12.631,0.63679,4.63968,12.2483,0.0800973,-0.133165,-0.0255029,0
2024-11-29 18:14:12.633,0.646361,4.66122,12.2913,0.0800973,-0.133165,-0.0255029,0
2024-11-29 18:14:12.634,0.658325,4.68993,12.3129,0.0862058,-0.12278,-0.0267246,0
2024-11-29 18:14:12.637,0.667897,4.7019,12.344,0.0953685,-0.109342,-0.0358873,0
2024-11-29 18:14:12.639,0.667897,4.71147,12.3488,0.10331,-0.0922379,-0.0389415,0
2024-11-29 18:14:12.643,0.663111,4.72822,12.3512,0.114916,-0.0745234,-0.0444391,0
2024-11-29 18:14:12.644,0.63679,4.72343,12.3535,0.1253,-0.0555871,-0.0517693,0
2024-11-29 18:14:12.646,0.60329,4.72822,12.3344,0.13263,-0.0390942,-0.0584886,0
2024-11-29 18:14:12.650,0.557827,4.74497,12.2985,0.144236,-0.020158,-0.0652079,0
2024-11-29 18:14:12.651,0.490828,4.75215,12.2459,0.157064,-0.00305424,-0.0737598,0
2024-11-29 18:14:12.654,0.423829,4.74018,12.1789,0.167449,0.0128278,-0.0780357,0
2024-11-29 18:14:12.656,0.371187,4.73061,12.1023,0.174779,0.0262664,-0.0829225,0
2024-11-29 18:14:12.658,0.328116,4.72343,12.0374,0.18272,0.0372617,-0.0884201,0
2024-11-29 18:14:12.661,0.275175,4.70668,11.9871,0.188217,0.0470352,-0.0920852,0
2024-11-29 18:14:12.664,0.217747,4.68036,11.9345,0.195547,0.0543654,-0.0957503,0
2024-11-29 18:14:12.666,0.167498,4.64208,11.8531,0.202878,0.0635281,-0.096972,0
2024-11-29 18:14:12.668,0.129212,4.61576,11.7526,0.205932,0.067804,-0.0981937,0
2024-11-29 18:14:12.670,0.102891,4.59901,11.6474,0.209597,0.0696366,-0.0988045,0
2024-11-29 18:14:12.672,0.066999,4.5679,11.5804,0.210819,0.07208,-0.0994154,0
2024-11-29 18:14:12.674,0.0358923,4.53201,11.5636,0.212651,0.0696366,-0.0981937,0
2024-11-29 18:14:12.678,0.0287139,4.50568,11.5421,0.21876,0.0604739,-0.0981937,0
2024-11-29 18:14:12.680,0.0358923,4.48176,11.5158,0.21876,0.0604739,-0.0981937,0
2024-11-29 18:14:12.683,0.0430708,4.45304,11.511,0.219981,0.0555871,-0.0957503,0
2024-11-29 18:14:12.684,0.0598206,4.42433,11.5062,0.223036,0.0500895,-0.0963612,0
2024-11-29 18:14:12.686,0.0717847,4.4004,11.4963,0.225479,0.0458135,-0.0963612,0
2024-11-29 18:14:12.689,0.0909273,4.36451,11.4939,0.23342,0.0390942,-0.0926961,0
2024-11-29 18:14:12.691,0.119641,4.31426,11.4915,0.237085,0.0329858,-0.0939178,0
2024-11-29 18:14:12.694,0.165105,4.27597,11.4915,0.243194,0.0226013,-0.0933069,0
2024-11-29 18:14:12.697,0.205783,4.24726,11.4987,0.24808,0.0109953,-0.0945286,0
2024-11-29 18:14:12.698,0.234497,4.21855,11.5158,0.253578,-0.00366508,-0.0963612,0
2024-11-29 18:14:12.701,0.260818,4.20628,11.5134,0.259076,-0.0177146,-0.100637,0
2024-11-29 18:14:12.703,0.277567,4.19193,11.5086,0.264573,-0.0305424,-0.101859,0
2024-11-29 18:14:12.705,0.297009,4.17278,11.4987,0.271293,-0.0433702,-0.106135,0
2024-11-29 18:14:12.708,0.313759,4.15843,11.4867,0.278623,-0.0586413,-0.109189,0
2024-11-29 18:14:12.710,0.337687,4.13928,11.4724,0.282288,-0.0733017,-0.112854,0
2024-11-29 18:14:12.713,0.359223,4.12253,11.4437,0.286564,-0.0910162,-0.115908,0
2024-11-29 18:14:12.716,0.3999,4.09861,11.4102,0.286564,-0.136219,-0.128736,0
2024-11-29 18:14:12.718,0.457328,4.05793,11.3647,0.28412,-0.163096,-0.13851,0
2024-11-29 18:14:12.719,0.533899,3.98375,11.2905,0.28412,-0.163096,-0.13851,0
2024-11-29 18:14:12.723,0.624826,3.91436,11.1996,0.27679,-0.193639,-0.148283,0
2024-11-29 18:14:12.724,0.722932,3.84975,11.0991,0.267627,-0.225403,-0.164165,0
2024-11-29 18:14:12.727,0.821037,3.75643,10.9795,0.250524,-0.258999,-0.18188,0
2024-11-29 18:14:12.730,0.905085,3.65833,10.8595,0.232198,-0.294428,-0.200816,0
2024-11-29 18:14:12.731,0.991227,3.56231,10.7614,0.208986,-0.332912,-0.223417,0
2024-11-29 18:14:12.733,1.06301,3.46182,10.6753,0.181498,-0.37506,-0.246019,0
2024-11-29 18:14:12.736,1.12283,3.35653,10.5963,0.149123,-0.422095,-0.270453,0
2024-11-29 18:14:12.739,1.19701,3.24885,10.5245,0.111861,-0.472185,-0.296719,0
2024-11-29 18:14:12.740,1.2664,3.15314,10.4551,0.0715455,-0.522274,-0.322986,0
2024-11-29 18:14:12.743,1.30947,3.05713,10.4264,0.0263428,-0.574196,-0.345587,0
2024-11-29 18:14:12.745,1.34536,2.9662,10.4216,-0.0231358,-0.626118,-0.371242,0
2024-11-29 18:14:12.749,1.39801,2.86331,10.4575,-0.130034,-0.726908,-0.414002,0
2024-11-29 18:14:12.751,1.4677,2.74367,10.5269,-0.1844,-0.772722,-0.434771,0
2024-11-29 18:14:12.753,1.55145,2.63121,10.6274,-0.1844,-0.772722,-0.434771,0
2024-11-29 18:14:12.755,1.66391,2.51127,10.7877,-0.238154,-0.811816,-0.454928,0
2024-11-29 18:14:12.757,1.78116,2.38923,10.9771,-0.291909,-0.847245,-0.473865,0
2024-11-29 18:14:12.760,1.88883,2.28873,11.1924,-0.384147,-0.890615,-0.512959,0
2024-11-29 18:14:12.763,1.99442,2.17866,11.4389,-0.384147,-0.890615,-0.512959,0
2024-11-29 18:14:12.765,2.09492,2.05663,11.6785,-0.426906,-0.896724,-0.534949,0
2024-11-29 18:14:12.766,2.19063,1.94626,11.9178,-0.464778,-0.897335,-0.557551,0
2024-11-29 18:14:12.769,2.27916,1.8338,12.1502,-0.495321,-0.889394,-0.582596,0
2024-11-29 18:14:12.771,2.35095,1.72134,12.3703,-0.522198,-0.87962,-0.606419,0
2024-11-29 18:14:12.774,2.4012,1.60887,12.612,-0.547854,-0.861295,-0.630853,0
2024-11-29 18:14:12.777,2.41316,1.48684,12.8563,-0.564346,-0.840526,-0.65773,0
2024-11-29 18:14:12.778,2.40359,1.37886,13.0908,-0.575342,-0.810594,-0.682775,0
2024-11-29 18:14:12.781,2.38923,1.28794,13.2945,-0.580839,-0.775165,-0.706598,0
2024-11-29 18:14:12.783,2.35573,1.15633,13.4524,-0.579618,-0.731184,-0.729199,0
2024-11-29 18:14:12.785,2.28873,1.03908,13.5984,-0.572898,-0.682927,-0.747524,0
2024-11-29 18:14:12.788,2.19541,0.938585,13.7228,-0.558849,-0.621232,-0.763406,0
2024-11-29 18:14:12.790,2.08056,0.821037,13.8093,-0.541134,-0.553428,-0.775623,0
2024-11-29 18:14:12.792,1.95105,0.694218,13.8619,-0.520976,-0.480126,-0.784786,0
2024-11-29 18:14:12.796,1.80987,0.574577,13.8835,-0.495932,-0.401937,-0.789062,0
2024-11-29 18:14:12.797,1.65434,0.457328,13.8858,-0.465389,-0.321916,-0.790284,1
2024-11-29 18:14:12.799,1.4988,0.337687,13.85,-0.42996,-0.23762,-0.787229,0
2024-11-29 18:14:12.803,1.33101,0.227318,13.7734,-0.358491,-0.0610847,-0.768293,0
2024-11-29 18:14:12.804,1.15155,0.124427,13.6678,-0.358491,-0.0610847,-0.768293,0
2024-11-29 18:14:12.807,0.969691,0.0358923,13.5362,-0.316343,0.028099,-0.753022,0
2024-11-29 18:14:12.810,0.785145,-0.0358923,13.3854,-0.276027,0.116061,-0.734697,0
2024-11-29 18:14:12.812,0.593719,-0.0981057,13.2156,-0.188675,0.277936,-0.688272,0
2024-11-29 18:14:12.814,0.409472,-0.160319,13.0358,-0.188675,0.277936,-0.688272,0
2024-11-29 18:14:12.816,0.224925,-0.20339,12.8516,-0.145916,0.350015,-0.661395,0
2024-11-29 18:14:12.818,0.0358923,-0.222533,12.6529,-0.100103,0.419652,-0.632685,0
2024-11-29 18:14:12.821,-0.136391,-0.241675,12.4397,-0.0579541,0.481958,-0.601532,0
2024-11-29 18:14:12.824,-0.287438,-0.258425,12.198,0.0318404,0.592522,-0.532506,0
2024-11-29 18:14:12.826,-0.428614,-0.272782,11.968,0.0318404,0.592522,-0.532506,0
2024-11-29 18:14:12.829,-0.572184,-0.287438,11.7479,0.11797,0.680484,-0.457372,0
2024-11-29 18:14:12.830,-0.684646,-0.308973,11.5086,0.11797,0.680484,-0.457372,0
2024-11-29 18:14:12.833,-0.782752,-0.342473,11.2594,0.159507,0.711026,-0.42011,0
2024-11-29 18:14:12.836,-0.869193,-0.378365,10.9986,0.237085,0.750731,-0.342533,0
2024-11-29 18:14:12.837,-0.94337,-0.402293,10.7207,0.237085,0.750731,-0.342533,0
2024-11-29 18:14:12.840,-1.01276,-0.426222,10.448,0.273125,0.758672,-0.305271,0
2024-11-29 18:14:12.843,-1.06062,-0.454935,10.1892,0.332988,0.745844,-0.228304,0
2024-11-29 18:14:12.845,-1.08933,-0.483649,9.92603,0.332988,0.745844,-0.228304,0
2024-11-29 18:14:12.847,-1.1013,-0.493221,9.66491,0.358033,0.726297,-0.189821,0
2024-11-29 18:14:12.849,-1.0989,-0.490828,9.41845,0.376358,0.698198,-0.152559,0
2024-11-29 18:14:12.852,-1.08694,-0.495613,9.20519,0.397127,0.666434,-0.118963,0
2024-11-29 18:14:12.854,-1.06301,-0.498006,8.98744,0.411787,0.62734,-0.0841442,0
2024-11-29 18:14:12.857,-1.0343,-0.488435,8.78166,0.420339,0.582137,-0.0517693,0
2024-11-29 18:14:12.859,-1.02233,-0.462114,8.61147,0.425837,0.529605,-0.0200052,0
2024-11-29 18:14:12.862,-0.991227,-0.4334,8.44636,0.429502,0.477072,0.0105371,0
2024-11-29 18:14:12.863,-0.933799,-0.407079,8.31237,0.430113,0.419041,0.0386361,0
2024-11-29 18:14:12.865,-0.873978,-0.378365,8.20948,0.427669,0.3604,0.0667351,0
2024-11-29 18:14:12.868,-0.792323,-0.342473,8.10868,0.425226,0.298093,0.094834,0
2024-11-29 18:14:12.870,-0.694218,-0.30658,8.04407,0.417896,0.235176,0.119879,0
2024-11-29 18:14:12.873,-0.567398,-0.275175,8.02254,0.412398,0.17287,0.141258,0
2024-11-29 18:14:12.875,-0.421436,-0.239282,8.00339,0.404457,0.114228,0.163249,0
2024-11-29 18:14:12.877,-0.27996,-0.208176,8.01297,0.397127,0.0592522,0.180964,0
2024-11-29 18:14:12.879,-0.119641,-0.177069,8.04407,0.388575,0.00794101,0.197456,0
2024-11-29 18:14:12.883,0.0502493,-0.165105,8.08475,0.383078,-0.0366508,0.211506,0
2024-11-29 18:14:12.885,0.229711,-0.148355,8.16162,0.373304,-0.106287,0.229831,0
2024-11-29 18:14:12.887,0.414257,-0.119641,8.24058,0.373304,-0.106287,0.229831,0
2024-11-29 18:14:12.889,0.593719,-0.0981057,8.30997,0.372693,-0.134997,0.237161,0
2024-11-29 18:14:12.891,0.770788,-0.0909273,8.36501,0.374526,-0.153323,0.240827,0
2024-11-29 18:14:12.895,0.924228,-0.0789631,8.4009,0.373304,-0.16615,0.242659,0
2024-11-29 18:14:12.896,1.0678,-0.0526421,8.43679,0.373915,-0.174091,0.24327,0
2024-11-29 18:14:12.899,1.19222,-0.0334995,8.44876,0.372693,-0.171648,0.240216,0
2024-11-29 18:14:12.902,1.27358,-0.00717847,8.43679,0.375747,-0.161875,0.23594,0
2024-11-29 18:14:12.903,1.33819,0.0311067,8.42483,0.375747,-0.161875,0.23594,0
2024-11-29 18:14:12.905,1.41984,0.0789631,8.39612,0.375747,-0.161875,0.23594,0
2024-11-29 18:14:12.909,1.5012,0.119641,8.3674,0.369639,-0.138051,0.227999,0
2024-11-29 18:14:12.910,1.58734,0.160319,8.35783,0.369639,-0.138051,0.227999,0
2024-11-29 18:14:12.913,1.67587,0.232104,8.32194,0.360476,-0.108731,0.212117,0
2024-11-29 18:14:12.915,1.75244,0.289831,8.26451,0.351314,-0.0952922,0.201732,0
2024-11-29 18:14:12.918,1.81705,0.332901,8.21665,0.343983,-0.0806318,0.191959,0
2024-11-29 18:14:12.920,1.87687,0.397508,8.17837,0.333599,-0.0708583,0.179131,0
2024-11-29 18:14:12.922,1.93191,0.462114,8.11825,0.321382,-0.0610847,0.162638,0
2024-11-29 18:14:12.924,1.98485,0.50997,8.04407,0.304889,-0.051922,0.146145,0
2024-11-29 18:14:12.928,2.02552,0.56022,7.97947,0.26946,-0.0372617,0.105829,0
2024-11-29 18:14:12.929,2.06142,0.612862,7.91486,0.26946,-0.0372617,0.105829,0
2024-11-29 18:14:12.932,2.09492,0.646361,7.85265,0.249913,-0.0299315,0.0844496,0
2024-11-29 18:14:12.934,2.12124,0.677468,7.80479,0.224257,-0.0287098,0.0594049,0
2024-11-29 18:14:12.936,2.14756,0.718146,7.78086,0.197991,-0.0244339,0.0331385,0
2024-11-29 18:14:12.939,2.15952,0.76361,7.75693,0.140571,-0.0171037,-0.0218378,0
2024-11-29 18:14:12.942,2.1667,0.809073,7.73779,0.140571,-0.0171037,-0.0218378,0
2024-11-29 18:14:12.943,2.17627,0.859622,7.74258,0.113694,-0.0128278,-0.0511585,0
2024-11-29 18:14:12.945,2.16909,0.909871,7.77847,0.0819299,-0.00549763,-0.0780357,0
2024-11-29 18:14:12.948,2.14517,0.950549,7.82872,0.0513875,0.00183254,-0.109189,0
2024-11-29 18:14:12.950,2.10927,0.996012,7.87418,0.0220669,0.0140495,-0.137899,0
2024-11-29 18:14:12.952,2.04945,1.05105,7.93161,-0.00542127,0.028099,-0.164776,0
2024-11-29 18:14:12.955,1.99202,1.07737,8.02732,-0.0298552,0.0427593,-0.192264,0
2024-11-29 18:14:12.957,1.9343,1.09173,8.13021,-0.0573433,0.0586413,-0.217309,0
2024-11-29 18:14:12.961,1.85533,1.11087,8.21905,-0.0952158,0.095903,-0.265566,0
2024-11-29 18:14:12.963,1.78116,1.11326,8.30997,-0.11232,0.11545,-0.285113,0
2024-11-29 18:14:12.965,1.6998,1.12044,8.40569,-0.123926,0.136219,-0.305882,0
2024-11-29 18:14:12.968,1.6017,1.12762,8.50858,-0.123926,0.136219,-0.305882,0
2024-11-29 18:14:12.970,1.48684,1.12044,8.59472,-0.143473,0.183865,-0.33337,0
2024-11-29 18:14:12.971,1.35015,1.12283,8.65933,-0.143473,0.183865,-0.33337,0
2024-11-29 18:14:12.974,1.21137,1.13958,8.72423,-0.14836,0.207077,-0.344976,0
2024-11-29 18:14:12.976,1.08215,1.12762,8.78644,-0.150192,0.229679,-0.350474,0
2024-11-29 18:14:12.979,0.952942,1.10848,8.84148,-0.149581,0.250447,-0.352306,0
2024-11-29 18:14:12.983,0.701396,1.11326,8.91087,-0.145305,0.284044,-0.345587,0
2024-11-29 18:14:12.984,0.701396,1.11326,8.91087,-0.145305,0.284044,-0.345587,0
2024-11-29 18:14:12.986,0.591326,1.10369,8.93241,-0.138586,0.298704,-0.335813,0
2024-11-29 18:14:12.988,0.493221,1.08215,8.94916,-0.128812,0.312754,-0.32604,0
2024-11-29 18:14:12.992,0.35683,1.07976,8.94198,-0.110487,0.333523,-0.296719,0
2024-11-29 18:14:12.993,0.421436,1.07737,8.94676,-0.110487,0.333523,-0.296719,0
2024-11-29 18:14:12.996,0.299402,1.08933,8.93719,-0.0982701,0.341464,-0.280837,0
2024-11-29 18:14:12.997,0.263211,1.11805,8.91566,-0.0842206,0.349405,-0.262512,0
2024-11-29 18:14:13.001,0.246461,1.14915,8.88934,-0.0707819,0.355513,-0.242354,0
2024-11-29 18:14:13.002,0.229711,1.17308,8.85584,-0.058565,0.359178,-0.224639,0
2024-11-29 18:14:13.005,0.229711,1.20658,8.81277,-0.0457372,0.361011,-0.206314,0
2024-11-29 18:14:13.007,0.234497,1.24008,8.76491,-0.0316877,0.359789,-0.186767,0
2024-11-29 18:14:13.010,0.241675,1.26162,8.69761,-0.00786466,0.354291,-0.156835,0
2024-11-29 18:14:13.011,0.277567,1.30469,8.63779,-0.00786466,0.354291,-0.156835,0
2024-11-29 18:14:13.015,0.325723,1.35733,8.59233,0.0159584,0.33902,-0.125682,0
2024-11-29 18:14:13.017,0.352044,1.39561,8.53969,0.0159584,0.33902,-0.125682,0
2024-11-29 18:14:13.018,0.371187,1.44616,8.4679,0.0245102,0.332301,-0.113465,0
2024-11-29 18:14:13.021,0.411865,1.49402,8.39851,0.0348946,0.32436,-0.10308,0
2024-11-29 18:14:13.024,0.464507,1.54188,8.32194,0.0434465,0.315197,-0.0957503,0
2024-11-29 18:14:13.026,0.514756,1.58255,8.25255,0.0513875,0.303591,-0.0884201,0
2024-11-29 18:14:13.029,0.562612,1.60887,8.18794,0.0581068,0.294428,-0.0835334,0
2024-11-29 18:14:13.031,0.598505,1.6328,8.09432,0.0660479,0.27366,-0.08109,0
2024-11-29 18:14:13.034,0.634397,1.64716,8.01057,0.0678804,0.263275,-0.0817008,0
2024-11-29 18:14:13.036,0.679861,1.68066,7.934,0.0678804,0.252891,-0.08109,0
2024-11-29 18:14:13.038,0.710967,1.71655,7.86222,0.0678804,0.252891,-0.08109,0
2024-11-29 18:14:13.041,0.722932,1.73809,7.79522,0.0636045,0.230289,-0.0902527,0
2024-11-29 18:14:13.043,0.727717,1.75484,7.71625,0.0636045,0.230289,-0.0902527,0
2024-11-29 18:14:13.045,0.722932,1.75723,7.64926,0.0501658,0.205856,-0.0988045,0
2024-11-29 18:14:13.047,0.725324,1.75244,7.61097,0.0501658,0.205856,-0.0988045,0
2024-11-29 18:14:13.049,0.722932,1.74527,7.57239,0.0422248,0.192417,-0.104302,0
2024-11-29 18:14:13.052,0.706182,1.75484,7.53889,0.029397,0.178367,-0.106135,0
2024-11-29 18:14:13.054,0.689432,1.75005,7.52214,0.0190126,0.163707,-0.111021,0
2024-11-29 18:14:13.056,0.667897,1.74527,7.51496,0.00923906,0.149658,-0.115297,0
2024-11-29 18:14:13.059,0.639183,1.77159,7.51496,-0.00603212,0.135608,-0.118963,0
2024-11-29 18:14:13.061,0.598505,1.78594,7.53889,-0.0151948,0.119115,-0.120795,0
2024-11-29 18:14:13.063,0.569791,1.79073,7.58226,-0.0243575,0.104455,-0.123238,0
2024-11-29 18:14:13.067,0.553041,1.8003,7.63011,-0.0390179,0.0940705,-0.122017,0
2024-11-29 18:14:13.069,0.521934,1.81226,7.68036,-0.0481806,0.0855186,-0.121406,0
2024-11-29 18:14:13.071,0.478864,1.80509,7.733,-0.0555107,0.0787993,-0.122017,0
2024-11-29 18:14:13.074,0.438186,1.81466,7.79043,-0.0677277,0.0708583,-0.116519,0
2024-11-29 18:14:13.076,0.397508,1.81466,7.84547,-0.0738362,0.067804,-0.112243,0
2024-11-29 18:14:13.078,0.364008,1.79551,7.89093,-0.0738362,0.067804,-0.112243,0
2024-11-29 18:14:13.080,0.328116,1.79551,7.93879,-0.0781121,0.0684149,-0.1098,0
2024-11-29 18:14:13.082,0.277567,1.81226,7.99382,-0.0805555,0.0708583,-0.106746,0
2024-11-29 18:14:13.084,0.227318,1.81944,8.02732,-0.0829989,0.0739125,-0.0994154,0
2024-11-29 18:14:13.087,0.181855,1.82901,8.05843,-0.0811663,0.0794101,-0.0920852,0
2024-11-29 18:14:13.089,0.119641,1.84337,8.08953,-0.0842206,0.0842969,-0.0829225,0
2024-11-29 18:14:13.092,0.0526421,1.84816,8.10868,-0.082388,0.087962,-0.0719273,0
2024-11-29 18:14:13.095,0.00239282,1.87448,8.14487,-0.0811663,0.0928488,-0.0615429,0
2024-11-29 18:14:13.097,-0.0454636,1.90558,8.17358,-0.0775012,0.095903,-0.0487151,0
2024-11-29 18:14:13.098,-0.100499,1.91037,8.17598,-0.0750579,0.0995681,-0.0334439,0
2024-11-29 18:14:13.101,-0.150748,1.91516,8.18555,-0.0713928,0.0995681,-0.0175619,0
2024-11-29 18:14:13.106,-0.212961,1.92951,8.18794,-0.0689494,0.0952922,0.014813,0
2024-11-29 18:14:13.107,-0.212961,1.92951,8.18794,-0.0689494,0.0952922,0.014813,0
2024-11-29 18:14:13.110,-0.222533,1.99202,8.19033,-0.0622301,0.0885729,0.0496313,0
2024-11-29 18:14:13.110,-0.224925,1.99202,8.19033,-0.0622301,0.0885729,0.0496313,0
2024-11-29 18:14:13.115,-0.229711,2.0327,8.18555,-0.0561216,0.0806318,0.0838388,0
2024-11-29 18:14:13.116,-0.229711,2.0327,8.18555,-0.0542891,0.0769668,0.102164,0
2024-11-29 18:14:13.117,-0.22014,2.08535,8.18076,-0.0542891,0.0769668,0.102164,0
2024-11-29 18:14:13.121,-0.212961,2.13081,8.1664,-0.0524565,0.0739125,0.134539,0
2024-11-29 18:14:13.122,-0.196211,2.17627,8.14248,-0.0524565,0.0739125,0.134539,0
2024-11-29 18:14:13.125,-0.160319,2.23609,8.13769,-0.0512348,0.0702474,0.151643,0
2024-11-29 18:14:13.128,-0.112463,2.28873,8.12303,-0.0518457,0.0665824,0.164471,0
2024-11-29 18:14:13.130,-0.0526421,2.32223,8.09193,-0.0573433,0.0531437,0.188294,0
2024-11-29 18:14:13.131,0.00717847,2.37009,8.08475,-0.0573433,0.0531437,0.188294,0
2024-11-29 18:14:13.135,0.0717847,2.42273,8.08714,-0.0628409,0.0458135,0.197456,0
2024-11-29 18:14:13.136,0.143569,2.48016,8.08714,-0.066506,0.0384834,0.206008,0
2024-11-29 18:14:13.140,0.224925,2.53071,8.09193,-0.082388,0.0274881,0.21456,0
2024-11-29 18:14:13.142,0.308973,2.57617,8.08714,-0.0909399,0.0226013,0.215782,0
2024-11-29 18:14:13.143,0.390329,2.62881,8.09911,-0.0909399,0.0226013,0.215782,0
2024-11-29 18:14:13.146,0.478864,2.6671,8.11825,-0.0994917,0.023823,0.216393,0
2024-11-29 18:14:13.148,0.565005,2.69821,8.14965,-0.106822,0.023823,0.215171,0
2024-11-29 18:14:13.151,0.63679,2.7341,8.18555,-0.12698,0.0256556,0.206619,0
2024-11-29 18:14:13.154,0.682254,2.78196,8.25015,-0.12698,0.0256556,0.206619,0
2024-11-29 18:14:13.156,0.708575,2.82263,8.32672,-0.141029,0.0262664,0.19318,0
2024-11-29 18:14:13.158,0.722932,2.85135,8.38176,-0.141029,0.0262664,0.19318,0
2024-11-29 18:14:13.161,0.732503,2.87288,8.44397,-0.14897,0.0219905,0.187683,0
2024-11-29 18:14:13.163,0.732503,2.88485,8.52293,-0.154468,0.0207688,0.179131,0
2024-11-29 18:14:13.165,0.734896,2.90878,8.6019,-0.159355,0.0177146,0.171801,0
2024-11-29 18:14:13.167,0.739681,2.94227,8.6665,-0.165463,0.0177146,0.164471,0
2024-11-29 18:14:13.169,0.749253,2.97099,8.75055,-0.167296,0.0219905,0.15653,0
2024-11-29 18:14:13.173,0.751645,3.01406,8.85344,-0.162409,0.0317641,0.141258,0
2024-11-29 18:14:13.175,0.734896,3.07149,8.92523,-0.162409,0.0317641,0.141258,0
2024-11-29 18:14:13.176,0.71336,3.10768,9.01137,-0.158744,0.0384834,0.133317,0
2024-11-29 18:14:13.180,0.689432,3.13161,9.1023,-0.142862,0.0494786,0.121711,0
2024-11-29 18:14:13.181,0.651147,3.16989,9.1693,-0.142862,0.0494786,0.121711,0
2024-11-29 18:14:13.186,0.567398,3.201,9.27966,-0.120871,0.0549763,0.111938,0
2024-11-29 18:14:13.187,0.567398,3.201,9.27966,-0.120871,0.0549763,0.111938,0
2024-11-29 18:14:13.190,0.490828,3.2345,9.32992,-0.0994917,0.0507003,0.103386,0
2024-11-29 18:14:13.190,0.490828,3.2345,9.32992,-0.0994917,0.0507003,0.103386,0
2024-11-29 18:14:13.194,0.428614,3.22971,9.34188,-0.0756687,0.0458135,0.0997208,0
2024-11-29 18:14:13.196,0.364008,3.22493,9.33949,-0.0756687,0.0458135,0.0997208,0
2024-11-29 18:14:13.198,0.301795,3.23928,9.32752,-0.0640626,0.0409268,0.0997208,0
2024-11-29 18:14:13.200,0.251246,3.25364,9.32752,-0.0555107,0.0335966,0.100943,0
2024-11-29 18:14:13.202,0.20339,3.25843,9.34188,-0.0469589,0.0244339,0.105829,0
2024-11-29 18:14:13.205,0.157926,3.26082,9.36102,-0.0371853,0.0171037,0.111327,0
2024-11-29 18:14:13.207,0.112463,3.28235,9.38495,-0.0298552,0.00855186,0.116825,0
2024-11-29 18:14:13.210,0.0789631,3.29671,9.40409,-0.014584,-0.00977356,0.135761,0
2024-11-29 18:14:13.212,0.0693919,3.29432,9.41366,-0.014584,-0.00977356,0.135761,0
2024-11-29 18:14:13.214,0.0693919,3.32064,9.44238,-0.00725381,-0.0177146,0.143702,0
2024-11-29 18:14:13.217,0.0933201,3.33739,9.48545,-0.00236703,-0.0256556,0.154086,0
2024-11-29 18:14:13.220,0.114855,3.35653,9.51655,0.00679568,-0.0329858,0.166303,0
2024-11-29 18:14:13.222,0.133998,3.38285,9.55723,0.0116825,-0.03604,0.174855,0
2024-11-29 18:14:13.224,0.16989,3.41635,9.59313,0.0196235,-0.0415376,0.185239,0
2024-11-29 18:14:13.226,0.205783,3.45224,9.61227,0.0263428,-0.0415376,0.195013,0
2024-11-29 18:14:13.228,0.248854,3.47139,9.6338,0.0318404,-0.0421485,0.204176,0
2024-11-29 18:14:13.230,0.304188,3.51207,9.66491,0.0379489,-0.0397051,0.212728,0
2024-11-29 18:14:13.234,0.337687,3.56231,9.68166,0.0410031,-0.0348183,0.220669,0
2024-11-29 18:14:13.236,0.368794,3.59821,9.68645,0.0434465,-0.0299315,0.231053,0
2024-11-29 18:14:13.238,0.419043,3.63889,9.69362,0.0452791,-0.0244339,0.23594,0
2024-11-29 18:14:13.241,0.464507,3.68226,9.69602,0.049555,-0.0109953,0.248768,0
2024-11-29 18:14:13.242,0.507577,3.74208,9.69123,0.049555,-0.0109953,0.248768,0
2024-11-29 18:14:13.246,0.553041,3.78993,9.70559,0.0489441,-0.00488678,0.253043,0
2024-11-29 18:14:13.248,0.605683,3.82582,9.72234,0.0452791,0.00671932,0.257319,0
2024-11-29 18:14:13.249,0.648754,3.88564,9.71516,0.0434465,0.0164929,0.257319,0
2024-11-29 18:14:13.253,0.684646,3.94068,9.70319,0.0379489,0.0287098,0.25793,0
2024-11-29 18:14:13.254,0.720539,4.00768,9.69123,0.0379489,0.0287098,0.25793,0
2024-11-29 18:14:13.257,0.74686,4.07468,9.69841,0.0275645,0.0610847,0.261595,0
2024-11-29 18:14:13.260,0.74686,4.14168,9.70559,0.0122933,0.0989573,0.259763,0
2024-11-29 18:14:13.261,0.754038,4.21855,9.70559,0.0122933,0.0989573,0.259763,0
2024-11-29 18:14:13.263,0.782752,4.28794,9.72234,0.00374144,0.116672,0.259763,0
2024-11-29 18:14:13.266,0.828216,4.34297,9.73909,-0.00786466,0.133165,0.25793,0
2024-11-29 18:14:13.270,0.909871,4.44826,9.76302,-0.0268009,0.164318,0.247546,0
2024-11-29 18:14:13.270,0.909871,4.44826,9.76302,-0.0268009,0.164318,0.247546,0
2024-11-29 18:14:13.273,0.950549,4.48415,9.77019,-0.0377962,0.176535,0.242659,0
2024-11-29 18:14:13.276,0.967299,4.53918,9.78934,-0.050624,0.189363,0.234718,0
2024-11-29 18:14:13.278,0.984048,4.58226,9.81805,-0.0646735,0.197915,0.226166,0
2024-11-29 18:14:13.280,0.991227,4.61097,9.86142,-0.0768904,0.204634,0.215782,0
2024-11-29 18:14:13.285,0.998405,4.71386,9.97388,-0.104379,0.212575,0.196235,0
2024-11-29 18:14:13.286,1.0008,4.65643,9.97388,-0.114763,0.215629,0.18585,0
2024-11-29 18:14:13.288,1.0008,4.75693,10.0505,-0.126369,0.214407,0.173633,0
2024-11-29 18:14:13.290,1.00558,4.80269,10.1366,-0.126369,0.214407,0.173633,0
2024-11-29 18:14:13.294,1.00558,4.88884,10.3352,-0.145305,0.215629,0.149199,0
2024-11-29 18:14:13.295,1.00558,4.88884,10.3352,-0.150192,0.215018,0.136983,0
2024-11-29 18:14:13.296,1.01276,4.91994,10.4288,-0.150192,0.215018,0.136983,0
2024-11-29 18:14:13.300,1.00319,4.94387,10.5245,-0.15569,0.210742,0.124766,0
2024-11-29 18:14:13.301,0.998405,4.94626,10.6514,-0.160576,0.204634,0.112549,0
2024-11-29 18:14:13.303,0.998405,4.94866,10.7853,-0.159966,0.195471,0.0984991,0
2024-11-29 18:14:13.307,0.996012,4.95583,10.9122,-0.161187,0.184476,0.0826171,0
2024-11-29 18:14:13.308,0.99362,4.94866,11.0536,-0.161187,0.169816,0.0691785,0
2024-11-29 18:14:13.310,0.969691,4.93909,11.1948,-0.157522,0.153934,0.0557398,0
2024-11-29 18:14:13.313,0.929013,4.91994,11.3145,-0.152635,0.13683,0.0416903,0
2024-11-29 18:14:13.316,0.890728,4.91516,11.4437,-0.146527,0.120337,0.0294734,0
2024-11-29 18:14:13.319,0.84018,4.90559,11.5923,-0.134921,0.103233,0.0184781,0
2024-11-29 18:14:13.320,0.770788,4.89362,11.7526,-0.123315,0.0842969,0.00931542,0
2024-11-29 18:14:13.322,0.708575,4.88166,11.9178,-0.110487,0.067804,-0.00229068,0
2024-11-29 18:14:13.326,0.651147,4.85294,12.076,-0.074447,0.028099,-0.0126751,0
2024-11-29 18:14:13.328,0.593719,4.82423,12.2291,-0.074447,0.028099,-0.0126751,0
2024-11-29 18:14:13.329,0.529113,4.77637,12.3655,-0.0561216,0.00916271,-0.016951,0
2024-11-29 18:14:13.333,0.452543,4.733,12.5115,-0.0335202,-0.0109953,-0.0193944,0
2024-11-29 18:14:13.336,0.352044,4.65643,12.8085,0.0147367,-0.0494786,-0.0187836,0
2024-11-29 18:14:13.337,0.397508,4.65643,12.8085,0.0147367,-0.0494786,-0.0187836,0
2024-11-29 18:14:13.340,0.301795,4.61097,12.9305,0.0434465,-0.067804,-0.0157293,0
2024-11-29 18:14:13.342,0.263211,4.57029,13.0502,0.0715455,-0.0855186,-0.0132859,0
2024-11-29 18:14:13.343,0.239282,4.5344,13.1554,0.100866,-0.0989573,-0.00656661,0
2024-11-29 18:14:13.346,0.217747,4.49611,13.2443,0.13263,-0.107509,-0.00106898,0
2024-11-29 18:14:13.349,0.179462,4.45783,13.3304,0.195547,-0.120948,0.0135914,0
2024-11-29 18:14:13.351,0.162712,4.40519,13.3878,0.164394,-0.11545,0.00626118,0
2024-11-29 18:14:13.354,0.145962,4.34776,13.4189,0.256632,-0.12278,0.0294734,0
2024-11-29 18:14:13.355,0.122034,4.29751,13.4453,0.256632,-0.12278,0.0294734,0
2024-11-29 18:14:13.358,0.105284,4.24487,13.4716,0.288396,-0.118504,0.0416903,0
2024-11-29 18:14:13.361,0.0789631,4.19193,13.4668,0.315274,-0.111785,0.0526856,0
2024-11-29 18:14:13.363,0.0693919,4.15125,13.4237,0.34154,-0.101401,0.0667351,0
2024-11-29 18:14:13.365,0.0693919,4.11775,13.3783,0.365363,-0.087962,0.0801737,0
2024-11-29 18:14:13.367,0.0622134,4.09143,13.3208,0.389797,-0.07208,0.0954449,0
2024-11-29 18:14:13.369,0.0717847,4.04118,13.2538,0.407511,-0.0531437,0.110105,0
2024-11-29 18:14:13.372,0.0837488,4.01007,13.1794,0.424004,-0.0311532,0.125987,0
2024-11-29 18:14:13.374,0.100499,4.0005,13.0765,0.437443,-0.00671932,0.144924,0
2024-11-29 18:14:13.377,0.117248,3.97657,12.9808,0.448438,0.0183254,0.162638,0
2024-11-29 18:14:13.380,0.155533,3.95743,12.8898,0.45699,0.07208,0.195013,0
2024-11-29 18:14:13.381,0.210568,3.9335,12.8037,0.45699,0.07208,0.195013,0
2024-11-29 18:14:13.385,0.267996,3.92393,12.7367,0.460044,0.128889,0.223112,0
2024-11-29 18:14:13.387,0.330509,3.93111,12.6506,0.460044,0.128889,0.223112,0
2024-11-29 18:14:13.388,0.390329,3.94068,12.5665,0.45699,0.157599,0.234107,0
2024-11-29 18:14:13.391,0.442971,3.94786,12.5019,0.455768,0.189974,0.245102,0
2024-11-29 18:14:13.393,0.495613,3.967,12.4469,0.451492,0.219905,0.252433,0
2024-11-29 18:14:13.396,0.548256,3.98136,12.3918,0.444773,0.251669,0.259763,0
2024-11-29 18:14:13.398,0.598505,3.98375,12.3153,0.441719,0.286487,0.263428,0
2024-11-29 18:14:13.401,0.651147,3.99571,12.2411,0.431335,0.358567,0.266482,0
2024-11-29 18:14:13.403,0.694218,4.0005,12.1813,0.431335,0.358567,0.266482,0
2024-11-29 18:14:13.405,0.722932,4.01246,12.1047,0.426448,0.39644,0.26526,0
2024-11-29 18:14:13.407,0.725324,4.02443,12.0206,0.423394,0.436145,0.263428,0
2024-11-29 18:14:13.410,0.71336,4.01725,11.9393,0.42095,0.47585,0.259152,0
2024-11-29 18:14:13.413,0.694218,3.99571,11.8508,0.41362,0.552817,0.248768,0
2024-11-29 18:14:13.417,0.60329,3.95025,11.6545,0.415452,0.592522,0.244492,0
2024-11-29 18:14:13.417,0.60329,3.95025,11.6545,0.415452,0.592522,0.244492,0
2024-11-29 18:14:13.419,0.574577,3.92154,11.5421,0.411787,0.632227,0.238994,0
2024-11-29 18:14:13.421,0.517149,3.91436,11.4341,0.411787,0.673765,0.23594,0
2024-11-29 18:14:13.425,0.426222,3.88564,11.3073,0.416674,0.715302,0.233496,0
2024-11-29 18:14:13.426,0.328116,3.8689,11.147,0.417285,0.759894,0.231053,0
2024-11-29 18:14:13.428,0.232104,3.85693,10.9313,0.417896,0.802653,0.231664,0
2024-11-29 18:14:13.432,0.129212,3.84736,10.6968,0.417896,0.841748,0.232275,0
2024-11-29 18:14:13.433,0.00717847,3.94307,10.4192,0.409955,0.873512,0.234107,0
2024-11-29 18:14:13.436,-0.066999,4.02443,10.1701,0.396516,0.89367,0.235329,0
2024-11-29 18:14:13.439,-0.0933201,3.98136,9.99781,0.381856,0.900389,0.23594,0
2024-11-29 18:14:13.440,-0.131605,3.92872,9.8351,0.361087,0.891837,0.235329,0
2024-11-29 18:14:13.443,-0.145962,3.86411,9.67927,0.334821,0.874733,0.234107,0
2024-11-29 18:14:13.445,-0.148355,3.78275,9.51655,0.306111,0.841748,0.226777,0
2024-11-29 18:14:13.448,-0.167498,3.7014,9.38016,0.271293,0.795323,0.218836,0
2024-11-29 18:14:13.449,-0.181855,3.6341,9.30599,0.238918,0.739736,0.210284,0
2024-11-29 18:14:13.455,-0.181855,3.52882,9.30359,0.127133,0.513723,0.173633,0
2024-11-29 18:14:13.455,-0.181855,3.52882,9.30359,0.127133,0.513723,0.173633,0
2024-11-29 18:14:13.458,-0.189033,3.47139,9.38734,0.0941468,0.423317,0.161416,0
2024-11-29 18:14:13.460,-0.196211,3.44507,9.51895,0.0941468,0.423317,0.161416,0
2024-11-29 18:14:13.465,-0.181855,3.35414,10.0672,0.0324513,0.227235,0.134539,0
2024-11-29 18:14:13.465,-0.153141,3.35414,10.0672,0.0324513,0.227235,0.134539,0
2024-11-29 18:14:13.466,-0.107677,3.33021,10.3977,0.0147367,0.123391,0.117435,0
2024-11-29 18:14:13.469,-0.0478565,3.2991,10.783,0.000687203,0.0128278,0.103997,0
2024-11-29 18:14:13.471,0.026321,3.2345,11.1948,-0.00786466,-0.0946813,0.0826171,0
2024-11-29 18:14:13.474,0.131605,3.13879,11.6091,-0.00358873,-0.306645,0.0386361,0
2024-11-29 18:14:13.476,0.275175,3.01167,12.0111,-0.00358873,-0.306645,0.0386361,0
2024-11-29 18:14:13.479,0.426222,2.86331,12.3918,0.0269536,-0.499673,-0.0120642,0
2024-11-29 18:14:13.481,0.567398,2.69821,12.7606,0.0269536,-0.499673,-0.0120642,0
2024-11-29 18:14:13.482,0.691825,2.51127,13.0884,0.049555,-0.580916,-0.0377198,0
2024-11-29 18:14:13.485,0.782752,2.37009,13.3615,0.0764323,-0.660326,-0.0633754,0
2024-11-29 18:14:13.487,0.8668,2.25284,13.6558,0.106364,-0.731184,-0.0896418,0
2024-11-29 18:14:13.491,0.921835,2.11884,14.0294,0.13935,-0.797767,-0.118352,0
2024-11-29 18:14:13.493,0.938585,2.0016,14.4293,0.180887,-0.85763,-0.141564,0
2024-11-29 18:14:13.495,0.952942,1.89601,14.7978,0.230977,-0.907719,-0.162333,0
2024-11-29 18:14:13.500,0.981655,1.63041,15.2647,0.414231,-0.993849,-0.216698,0
2024-11-29 18:14:13.500,0.981655,1.63041,15.2647,0.414231,-0.993849,-0.216698,0
2024-11-29 18:14:13.502,1.02233,1.50598,15.4564,0.414231,-0.993849,-0.216698,1
2024-11-29 18:14:13.505,1.0319,1.37408,15.6024,0.560223,-0.974301,-0.239299,0
2024-11-29 18:14:13.507,1.02712,1.24487,15.6742,0.632914,-0.938872,-0.245408,0
2024-11-29 18:14:13.512,0.919442,1.0343,15.4397,0.703772,-0.88695,-0.242964,0
2024-11-29 18:14:13.512,0.919442,1.0343,15.4397,0.703772,-0.88695,-0.242964,0
2024-11-29 18:14:13.514,1.0654,0.84018,15.4325,0.772798,-0.838082,-0.241743,0
2024-11-29 18:14:13.516,1.10848,0.670289,15.303,0.841213,-0.78555,-0.239299,0
2024-11-29 18:14:13.519,1.05344,0.538684,15.0494,0.962772,-0.649331,-0.222807,0
2024-11-29 18:14:13.521,0.96012,0.411865,14.6806,0.962772,-0.649331,-0.222807,0
2024-11-29 18:14:13.522,0.88355,0.30658,14.2567,1.01897,-0.568699,-0.205703,0
2024-11-29 18:14:13.526,0.837787,0.196211,13.8308,1.09594,-0.401937,-0.167219,0
2024-11-29 18:14:13.528,0.794716,0.0861416,13.3759,1.11915,-0.321306,-0.145229,0
2024-11-29 18:14:13.531,0.744467,0.0119641,12.9233,1.11915,-0.321306,-0.145229,0
2024-11-29 18:14:13.532,0.670289,-0.0167498,12.4564,1.13686,-0.245561,-0.119573,0
2024-11-29 18:14:13.534,0.598505,0.00239282,11.9489,1.1448,-0.171648,-0.0926961,0
2024-11-29 18:14:13.538,0.541077,0.0478565,11.4987,1.12953,-0.0488678,-0.0426066,0
2024-11-29 18:14:13.540,0.488435,0.0981057,11.0967,1.12953,-0.0488678,-0.0426066,0
2024-11-29 18:14:13.541,0.462114,0.145962,10.704,1.11365,-0.00122169,-0.0212269,0
2024-11-29 18:14:13.545,0.490828,0.200997,10.3352,1.05929,0.0690257,0.00809373,0
2024-11-29 18:14:13.547,0.545863,0.258425,10.0002,1.05929,0.0690257,0.00809373,0
2024-11-29 18:14:13.549,0.60329,0.311366,9.68405,1.0263,0.095903,0.0172564,0
2024-11-29 18:14:13.551,0.663111,0.385544,9.35863,0.985373,0.116672,0.0178673,0
2024-11-29 18:14:13.554,0.725324,0.459721,9.04726,0.943225,0.13683,0.014813,0
2024-11-29 18:14:13.556,0.768395,0.517149,8.75294,0.892524,0.156377,0.00748288,0
2024-11-29 18:14:13.558,0.80668,0.598505,8.49422,0.841213,0.174702,-0.00290152,0
2024-11-29 18:14:13.560,0.85005,0.691825,8.27408,0.785015,0.193028,-0.0163402,0
2024-11-29 18:14:13.564,0.885943,0.76361,8.068,0.664678,0.235176,-0.0499368,0
2024-11-29 18:14:13.565,0.938585,0.821037,7.90529,0.664678,0.235176,-0.0499368,0
2024-11-29 18:14:13.567,0.988834,0.9003,7.77129,0.604815,0.258999,-0.0719273,0
2024-11-29 18:14:13.570,1.01037,0.986441,7.65883,0.54312,0.282822,-0.0933069,0
2024-11-29 18:14:13.573,1.01037,1.05823,7.57478,0.430724,0.33169,-0.140953,0
2024-11-29 18:14:13.575,1.01037,1.11565,7.5006,0.376969,0.357956,-0.165387,0
2024-11-29 18:14:13.578,1.0008,1.14676,7.43839,0.376969,0.357956,-0.165387,0
2024-11-29 18:14:13.580,0.991227,1.16112,7.39292,0.323825,0.38239,-0.192875,0
2024-11-29 18:14:13.582,0.988834,1.18983,7.33789,0.273125,0.403159,-0.218531,0
2024-11-29 18:14:13.584,0.950549,1.18744,7.27807,0.223646,0.422706,-0.244797,0
2024-11-29 18:14:13.587,0.905085,1.17069,7.22543,0.17539,0.441032,-0.271063,0
2024-11-29 18:14:13.588,0.876371,1.15633,7.17518,0.130187,0.456303,-0.298552,0
2024-11-29 18:14:13.592,0.825823,1.13001,7.101,0.041614,0.473407,-0.351084,0
2024-11-29 18:14:13.594,0.751645,1.12044,7.03639,-0.00236703,0.476461,-0.375518,0
2024-11-29 18:14:13.597,0.675075,1.10848,6.99302,-0.00236703,0.476461,-0.375518,0
2024-11-29 18:14:13.598,0.581755,1.08933,6.93799,-0.0457372,0.47585,-0.401174,0
2024-11-29 18:14:13.600,0.478864,1.07258,6.88535,-0.0878856,0.470963,-0.425608,0
2024-11-29 18:14:13.603,0.361615,1.05583,6.84467,-0.128812,0.463633,-0.445766,0
2024-11-29 18:14:13.605,0.232104,1.05344,6.83988,-0.167296,0.449584,-0.465924,0
2024-11-29 18:14:13.607,0.0765703,1.05105,6.85663,-0.207001,0.433091,-0.483027,0
2024-11-29 18:14:13.611,-0.0957129,1.05583,6.89492,-0.244873,0.413544,-0.498299,0
2024-11-29 18:14:13.612,-0.258425,1.05583,6.9667,-0.276027,0.394607,-0.509294,0
2024-11-29 18:14:13.615,-0.407079,1.0319,7.05793,-0.305347,0.374449,-0.518457,0
2024-11-29 18:14:13.617,-0.533899,1.00798,7.13689,-0.330392,0.351237,-0.524565,0
2024-11-29 18:14:13.620,-0.660718,0.967299,7.2015,-0.351161,0.325582,-0.529452,0
2024-11-29 18:14:13.622,-0.794716,0.933799,7.26611,-0.373151,0.296261,-0.531284,0
2024-11-29 18:14:13.625,-0.914656,0.905085,7.34985,-0.40125,0.235176,-0.528841,0
2024-11-29 18:14:13.626,-1.0319,0.854836,7.45275,-0.40125,0.235176,-0.528841,0
2024-11-29 18:14:13.629,-1.17787,0.828216,7.55564,-0.409802,0.20158,-0.525176,0
2024-11-29 18:14:13.633,-1.41506,0.799502,7.78565,-0.422019,0.138662,-0.509905,0
2024-11-29 18:14:13.634,-1.41506,0.799502,7.78565,-0.417132,0.106287,-0.498299,0
2024-11-29 18:14:13.637,-1.50598,0.780359,7.92922,-0.417132,0.106287,-0.498299,0
2024-11-29 18:14:13.638,-1.58973,0.780359,8.04646,-0.411024,0.0739125,-0.482417,0
2024-11-29 18:14:13.640,-1.68544,0.777966,8.15923,-0.402472,0.0421485,-0.467756,0
2024-11-29 18:14:13.644,-1.78355,0.756431,8.27647,-0.392088,0.0134386,-0.448209,0
2024-11-29 18:14:13.645,-1.86969,0.751645,8.35304,-0.376816,-0.015882,-0.428662,0
2024-11-29 18:14:13.647,-1.95823,0.74686,8.42004,-0.359713,-0.0445919,-0.404839,0
2024-11-29 18:14:13.650,-2.0351,0.720539,8.48226,-0.34322,-0.0708583,-0.378573,0
2024-11-29 18:14:13.653,-2.08535,0.684646,8.51815,-0.322451,-0.0940705,-0.352306,0
2024-11-29 18:14:13.654,-2.12602,0.655932,8.54447,-0.299239,-0.114228,-0.321764,0
2024-11-29 18:14:13.657,-2.14995,0.632004,8.55883,-0.282746,-0.133165,-0.290611,0
2024-11-29 18:14:13.660,-2.16909,0.596112,8.55643,-0.261366,-0.149047,-0.260068,0
2024-11-29 18:14:13.661,-2.18584,0.586541,8.55404,-0.240597,-0.160042,-0.224639,0
2024-11-29 18:14:13.665,-2.19063,0.584148,8.52533,-0.203947,-0.178367,-0.158668,0
2024-11-29 18:14:13.666,-2.18824,0.581755,8.4679,-0.203947,-0.178367,-0.158668,0
2024-11-29 18:14:13.670,-2.17388,0.576969,8.42004,-0.190508,-0.183254,-0.125071,0
2024-11-29 18:14:13.672,-2.16192,0.576969,8.35065,-0.163631,-0.184476,-0.0572669,0
2024-11-29 18:14:13.674,-2.14277,0.581755,8.2693,-0.163631,-0.184476,-0.0572669,0
2024-11-29 18:14:13.676,-2.11167,0.576969,8.2023,-0.153246,-0.183865,-0.024892,0
2024-11-29 18:14:13.679,-2.0686,0.591326,8.135,-0.146527,-0.184476,0.011148,0
2024-11-29 18:14:13.680,-2.01356,0.608076,8.06321,-0.142862,-0.185087,0.0416903,0
2024-11-29 18:14:13.683,-1.96301,0.612862,7.99143,-0.137975,-0.182643,0.0722327,0
2024-11-29 18:14:13.686,-1.90798,0.617647,7.91725,-0.137975,-0.185087,0.100332,0
2024-11-29 18:14:13.688,-1.84576,0.634397,7.85025,-0.137975,-0.185087,0.100332,0
2024-11-29 18:14:13.691,-1.77876,0.65354,7.79283,-0.143473,-0.186919,0.155919,0
2024-11-29 18:14:13.692,-1.71655,0.663111,7.74975,-0.153246,-0.186919,0.17852,0
2024-11-29 18:14:13.694,-1.63759,0.684646,7.71147,-0.161187,-0.188752,0.202343,0
2024-11-29 18:14:13.697,-1.54905,0.715753,7.68036,-0.17035,-0.192417,0.224334,0
2024-11-29 18:14:13.700,-1.46291,0.732503,7.67797,-0.181956,-0.194249,0.242659,0
2024-11-29 18:14:13.702,-1.37169,0.74686,7.68515,-0.181956,-0.194249,0.242659,0
2024-11-29 18:14:13.704,-1.25922,0.789931,7.71147,-0.20639,-0.197915,0.277477,0
2024-11-29 18:14:13.707,-1.15155,0.828216,7.74975,-0.22044,-0.200358,0.292138,0
2024-11-29 18:14:13.709,-1.06062,0.857229,7.78804,-0.233267,-0.200358,0.302522,0
2024-11-29 18:14:13.711,-0.96012,0.895514,7.84786,-0.247317,-0.197915,0.314128,0
2024-11-29 18:14:13.714,-0.878764,0.948156,7.91964,-0.260145,-0.193028,0.324513,0
2024-11-29 18:14:13.716,-0.799502,0.988834,7.98425,-0.271751,-0.186308,0.332454,0
2024-11-29 18:14:13.718,-0.725324,1.02473,8.04407,-0.280913,-0.177757,0.339173,0
2024-11-29 18:14:13.721,-0.663111,1.08933,8.10629,-0.289465,-0.164929,0.344671,0
2024-11-29 18:14:13.723,-0.598505,1.14437,8.1664,-0.298017,-0.150268,0.349557,0
2024-11-29 18:14:13.725,-0.517149,1.18505,8.20948,-0.305347,-0.133165,0.352612,0
2024-11-29 18:14:13.728,-0.447757,1.20897,8.23101,-0.310234,-0.116672,0.353222,0
2024-11-29 18:14:13.730,-0.397508,1.22572,8.25972,-0.315732,-0.10079,0.354444,0
2024-11-29 18:14:13.733,-0.361615,1.25683,8.31237,-0.32184,-0.0836861,0.352612,0
2024-11-29 18:14:13.735,-0.330509,1.28315,8.37219,-0.326116,-0.067804,0.350779,0
2024-11-29 18:14:13.737,-0.277567,1.29751,8.41765,-0.329781,-0.051922,0.352001,0
2024-11-29 18:14:13.740,-0.241675,1.30469,8.45354,-0.329781,-0.0366508,0.35139,0
2024-11-29 18:14:13.743,-0.212961,1.30469,8.49422,-0.333446,-0.020158,0.348946,0
2024-11-29 18:14:13.744,-0.179462,1.29751,8.5014,-0.3365,-0.00549763,0.348336,0
2024-11-29 18:14:13.746,-0.155533,1.30469,8.49422,-0.337111,0.00855186,0.347725,0
2024-11-29 18:14:13.749,-0.138784,1.3334,8.48944,-0.337111,0.0268773,0.347114,0
2024-11-29 18:14:13.752,-0.124427,1.35254,8.47508,-0.337722,0.0409268,0.345892,0
2024-11-29 18:14:13.753,-0.107677,1.35494,8.44397,-0.338944,0.0592522,0.345892,0
2024-11-29 18:14:13.757,-0.112463,1.35972,8.41287,-0.343831,0.0867403,0.345281,0
2024-11-29 18:14:13.759,-0.122034,1.36211,8.39612,-0.343831,0.0867403,0.345281,0
2024-11-29 18:14:13.760,-0.119641,1.3669,8.36022,-0.348107,0.0946813,0.347114,0
2024-11-29 18:14:13.763,-0.122034,1.37647,8.31715,-0.352993,0.103233,0.347725,0
2024-11-29 18:14:13.766,-0.138784,1.38604,8.28844,-0.35788,0.106898,0.347114,0
2024-11-29 18:14:13.768,-0.150748,1.40279,8.27647,-0.363989,0.105677,0.350168,0
2024-11-29 18:14:13.770,-0.143569,1.43181,8.2693,-0.370097,0.103844,0.352001,0
2024-11-29 18:14:13.773,-0.133998,1.44855,8.27647,-0.376206,0.0977356,0.353222,0
2024-11-29 18:14:13.776,-0.12682,1.4677,8.29562,-0.380481,0.0891837,0.352612,0
2024-11-29 18:14:13.779,-0.117248,1.49641,8.32912,-0.391477,0.0647498,0.354444,0
2024-11-29 18:14:13.780,-0.100499,1.53948,8.37458,-0.389644,0.0488678,0.354444,0
2024-11-29 18:14:13.783,-0.0885344,1.58734,8.43679,-0.389644,0.0488678,0.354444,0
2024-11-29 18:14:13.784,-0.0861416,1.62562,8.51576,-0.390866,0.0335966,0.353833,0
2024-11-29 18:14:13.787,-0.0717847,1.65673,8.58754,-0.387201,0.0183254,0.353222,0
2024-11-29 18:14:13.790,-0.0598206,1.69502,8.66172,-0.376206,-0.0152712,0.352001,0
2024-11-29 18:14:13.791,-0.0454636,1.73809,8.74577,-0.376206,-0.0152712,0.352001,0
2024-11-29 18:14:13.794,-0.0119641,1.77398,8.80798,-0.367654,-0.0299315,0.348336,0
2024-11-29 18:14:13.799,0.0550349,1.83141,8.9013,-0.331614,-0.0696366,0.340395,0
2024-11-29 18:14:13.799,0.0550349,1.83141,8.9013,-0.331614,-0.0696366,0.340395,0
2024-11-29 18:14:13.800,0.0693919,1.87687,8.94437,-0.331614,-0.0696366,0.340395,0
2024-11-29 18:14:13.804,0.105284,1.91276,8.96112,-0.305347,-0.0952922,0.331232,0
2024-11-29 18:14:13.806,0.131605,1.9343,8.96351,-0.305347,-0.0952922,0.331232,0
2024-11-29 18:14:13.808,0.153141,1.97049,8.96591,-0.293741,-0.105066,0.329399,0
2024-11-29 18:14:13.810,0.16989,1.99442,8.95155,-0.280303,-0.113007,0.32268,0
2024-11-29 18:14:13.812,0.177069,2.01117,8.93959,-0.269307,-0.124613,0.317793,0
2024-11-29 18:14:13.815,0.200997,2.0351,8.92762,-0.258312,-0.133165,0.314739,0
2024-11-29 18:14:13.817,0.232104,2.04706,8.90609,-0.244873,-0.142327,0.309241,0
2024-11-29 18:14:13.820,0.275175,2.07577,8.88216,-0.229602,-0.15882,0.298857,0
2024-11-29 18:14:13.823,0.311366,2.11167,8.87019,-0.229602,-0.15882,0.298857,0
2024-11-29 18:14:13.825,0.320937,2.13799,8.85823,-0.221661,-0.16554,0.293359,0
2024-11-29 18:14:13.826,0.342473,2.15952,8.83909,-0.217385,-0.17287,0.287862,0
2024-11-29 18:14:13.829,0.385544,2.17149,8.81516,-0.21372,-0.179589,0.281142,0
2024-11-29 18:14:13.831,0.423829,2.19541,8.79841,-0.208223,-0.181422,0.275034,0
2024-11-29 18:14:13.834,0.445364,2.23609,8.79602,-0.203336,-0.184476,0.268926,0
2024-11-29 18:14:13.836,0.474078,2.25763,8.79362,-0.198449,-0.18753,0.260984,0
2024-11-29 18:14:13.838,0.50997,2.28395,8.77927,-0.196006,-0.186919,0.254265,0
2024-11-29 18:14:13.841,0.52672,2.32223,8.7697,-0.19173,-0.182643,0.247546,0
2024-11-29 18:14:13.843,0.550648,2.35334,8.75773,-0.189286,-0.177757,0.241437,0
2024-11-29 18:14:13.846,0.593719,2.37966,8.74577,-0.186232,-0.17287,0.234718,0
2024-11-29 18:14:13.848,0.632004,2.41077,8.7362,-0.183789,-0.168594,0.227999,0
2024-11-29 18:14:13.850,0.648754,2.44188,8.72662,-0.183178,-0.159431,0.220669,0
2024-11-29 18:14:13.852,0.677468,2.48255,8.72184,-0.180124,-0.147214,0.213338,0
2024-11-29 18:14:13.856,0.727717,2.52084,8.70987,-0.175848,-0.130721,0.198678,0
2024-11-29 18:14:13.858,0.76361,2.54267,8.69761,-0.174015,-0.12278,0.190126,0
2024-11-29 18:14:13.859,0.804287,2.58096,8.68804,-0.174015,-0.12278,0.190126,0
2024-11-29 18:14:13.862,0.862014,2.62403,8.67129,-0.175848,-0.111174,0.180964,0
2024-11-29 18:14:13.864,0.905085,2.65992,8.67368,-0.172183,-0.0983464,0.171801,0
2024-11-29 18:14:13.869,0.967299,2.76281,8.69522,-0.168517,-0.0757451,0.151643,0
2024-11-29 18:14:13.870,0.924228,2.76281,8.69522,-0.166685,-0.0586413,0.139426,0
2024-11-29 18:14:13.871,1.01276,2.80349,8.69522,-0.166685,-0.0586413,0.139426,0
2024-11-29 18:14:13.874,1.0343,2.85135,8.68804,-0.163631,-0.0415376,0.126598,0
2024-11-29 18:14:13.877,1.0678,2.91356,8.67368,-0.156911,-0.00366508,0.0984991,0
2024-11-29 18:14:13.878,1.10369,2.95902,8.66411,-0.156911,-0.00366508,0.0984991,0
2024-11-29 18:14:13.882,1.13001,2.99252,8.62343,-0.152635,0.015882,0.0850605,0
2024-11-29 18:14:13.883,1.13958,3.04277,8.57079,-0.149581,0.0348183,0.071011,0
2024-11-29 18:14:13.886,1.1348,3.10768,8.52772,-0.146527,0.0733017,0.0374144,0
2024-11-29 18:14:13.889,1.12044,3.16271,8.47986,-0.147138,0.0891837,0.0203107,0
2024-11-29 18:14:13.890,1.1013,3.20578,8.42244,-0.147138,0.0891837,0.0203107,0
2024-11-29 18:14:13.893,1.07258,3.24168,8.36501,-0.145916,0.120948,-0.0114534,0
2024-11-29 18:14:13.896,1.03669,3.28235,8.29322,-0.145916,0.132554,-0.0279463,0
2024-11-29 18:14:13.898,1.0008,3.33978,8.22383,-0.150192,0.145382,-0.0462717,0
2024-11-29 18:14:13.900,0.969691,3.39242,8.18076,-0.150192,0.145382,-0.0462717,0
2024-11-29 18:14:13.902,0.936192,3.40439,8.135,-0.15569,0.152712,-0.0645971,0
2024-11-29 18:14:13.904,0.890728,3.42592,8.08236,-0.156301,0.160042,-0.0798683,0
2024-11-29 18:14:13.906,0.852443,3.4666,8.02732,-0.164852,0.164318,-0.0963612,0
2024-11-29 18:14:13.910,0.801895,3.50967,7.98904,-0.174626,0.175924,-0.13179,0
2024-11-29 18:14:13.912,0.74686,3.56949,7.95793,-0.174626,0.175924,-0.13179,0
2024-11-29 18:14:13.917,0.639183,3.63649,7.9005,-0.186843,0.180811,-0.158668,0
2024-11-29 18:14:13.917,0.639183,3.63649,7.9005,-0.186843,0.180811,-0.158668,0
2024-11-29 18:14:13.921,0.529113,3.74208,7.88854,-0.19906,0.178978,-0.186156,0
2024-11-29 18:14:13.922,0.529113,3.74208,7.88854,-0.205779,0.174091,-0.19654,0
2024-11-29 18:14:13.924,0.483649,3.79232,7.88615,-0.205779,0.174091,-0.19654,0
2024-11-29 18:14:13.926,0.445364,3.82582,7.90289,-0.212498,0.169205,-0.208146,0
2024-11-29 18:14:13.929,0.3999,3.87368,7.934,-0.224715,0.141717,-0.225861,0
2024-11-29 18:14:13.931,0.335294,3.90718,7.9675,-0.224715,0.141717,-0.225861,0
2024-11-29 18:14:13.933,0.289831,3.92154,8.03211,-0.233878,0.127056,-0.233802,0
2024-11-29 18:14:13.935,0.260818,3.95743,8.12543,-0.239376,0.109342,-0.241132,0
2024-11-29 18:14:13.938,0.22014,3.98614,8.23101,-0.243041,0.0904054,-0.249684,0
2024-11-29 18:14:13.939,0.179462,4.02682,8.3339,-0.247317,0.0726908,-0.255181,0
2024-11-29 18:14:13.944,0.136391,4.07229,8.60908,-0.248538,0.0274881,-0.265566,0
2024-11-29 18:14:13.944,0.102891,4.07229,8.60908,-0.248538,0.0274881,-0.265566,0
2024-11-29 18:14:13.946,0.081356,4.09861,8.75534,-0.245484,0.00244339,-0.268009,0
2024-11-29 18:14:13.950,0.0526421,4.11775,8.91087,-0.244263,-0.0219905,-0.272896,0
2024-11-29 18:14:13.951,0.0191426,4.12014,9.08794,-0.240597,-0.0494786,-0.274729,0
2024-11-29 18:14:13.955,0.00957129,4.12971,9.25544,-0.224715,-0.0965139,-0.275339,0
2024-11-29 18:14:13.956,0.00239282,4.14646,9.41845,-0.224715,-0.0965139,-0.275339,0
2024-11-29 18:14:13.959,-0.0143569,4.17278,9.57398,-0.215553,-0.117283,-0.274729,0
2024-11-29 18:14:13.962,-0.040678,4.1991,9.71516,-0.189286,-0.150879,-0.266788,0
2024-11-29 18:14:13.964,-0.0837488,4.22572,9.84706,-0.175237,-0.162485,-0.260679,0
2024-11-29 18:14:13.965,-0.114855,4.24726,9.96192,-0.175237,-0.162485,-0.260679,0
2024-11-29 18:14:13.969,-0.12682,4.2688,10.0576,-0.159966,-0.170426,-0.253349,0
2024-11-29 18:14:13.970,-0.155533,4.28794,10.1605,-0.143473,-0.175313,-0.24724,0
2024-11-29 18:14:13.972,-0.181855,4.31187,10.2515,-0.130034,-0.1802,-0.239299,0
2024-11-29 18:14:13.975,-0.198604,4.33819,10.328,-0.116595,-0.186308,-0.228304,0
2024-11-29 18:14:13.977,-0.210568,4.36929,10.4145,-0.0982701,-0.190584,-0.217309,0
2024-11-29 18:14:13.979,-0.229711,4.40997,10.4982,-0.0836097,-0.194249,-0.206314,0
2024-11-29 18:14:13.983,-0.256032,4.43151,10.5844,-0.0530674,-0.199136,-0.183101,0
2024-11-29 18:14:13.988,-0.263211,4.54636,10.759,-0.0200816,-0.189974,-0.162944,0
2024-11-29 18:14:13.988,-0.263211,4.54636,10.759,-0.0200816,-0.189974,-0.162944,0
2024-11-29 18:14:13.990,-0.277567,4.59901,10.8284,-0.00419957,-0.18753,-0.151337,0
2024-11-29 18:14:13.992,-0.272782,4.63968,10.8691,0.0141258,-0.180811,-0.142786,0
2024-11-29 18:14:13.995,-0.289831,4.69472,10.905,0.0312296,-0.173481,-0.133623,0
2024-11-29 18:14:13.997,-0.287438,4.73061,10.9265,0.0452791,-0.168594,-0.126293,0
2024-11-29 18:14:13.999,-0.272782,4.75932,10.917,0.0452791,-0.168594,-0.126293,0
2024-11-29 18:14:14.001,-0.260818,4.80509,10.9026,0.0581068,-0.164318,-0.122017,0
2024-11-29 18:14:14.003,-0.246461,4.83619,10.8811,0.0666587,-0.160042,-0.11713,0
2024-11-29 18:14:14.006,-0.236889,4.85055,10.8404,0.0752106,-0.156988,-0.112243,0
2024-11-29 18:14:14.011,-0.248854,4.90559,10.7901,0.0831516,-0.153934,-0.106135,0
2024-11-29 18:14:14.011,-0.248854,4.90559,10.7901,0.0831516,-0.153934,-0.106135,0
2024-11-29 18:14:14.013,-0.241675,4.92473,10.7638,0.085595,-0.152101,-0.104302,0
2024-11-29 18:14:14.015,-0.239282,4.93669,10.7495,0.0831516,-0.150268,-0.101859,0
2024-11-29 18:14:14.018,-0.234497,4.96301,10.7423,0.0739889,-0.152101,-0.0963612,0
2024-11-29 18:14:14.020,-0.244068,5.00608,10.7351,0.0739889,-0.152101,-0.0963612,0
2024-11-29 18:14:14.025,-0.232104,5.05394,10.7566,0.0544418,-0.156377,-0.0951395,0
2024-11-29 18:14:14.025,-0.232104,5.05394,10.7566,0.0544418,-0.156377,-0.0951395,0
2024-11-29 18:14:14.028,-0.215354,5.07069,10.8141,0.037338,-0.161875,-0.0951395,0
2024-11-29 18:14:14.029,-0.200997,5.07308,10.8787,0.037338,-0.161875,-0.0951395,0
2024-11-29 18:14:14.031,-0.193819,5.08983,10.9385,0.0263428,-0.166761,-0.0945286,0
2024-11-29 18:14:14.034,-0.212961,5.11137,11.0273,0.0159584,-0.171037,-0.096972,0
2024-11-29 18:14:14.036,-0.227318,5.1353,11.1302,0.00984991,-0.174702,-0.0975828,0
2024-11-29 18:14:14.039,-0.232104,5.13769,11.2451,0.00251974,-0.175313,-0.0988045,0
2024-11-29 18:14:14.041,-0.241675,5.14965,11.3815,-0.000534491,-0.177757,-0.0994154,0
2024-11-29 18:14:14.043,-0.256032,5.1688,11.5229,-0.00175619,-0.181422,-0.0988045,0
2024-11-29 18:14:14.046,-0.304188,5.1664,11.6617,-0.00114534,-0.183865,-0.100637,0
2024-11-29 18:14:14.048,-0.366401,5.17119,11.8173,0.0019089,-0.183865,-0.101859,0
2024-11-29 18:14:14.051,-0.409472,5.17358,11.956,0.0159584,-0.184476,-0.101248,0
2024-11-29 18:14:14.053,-0.447757,5.15444,12.0736,0.0159584,-0.184476,-0.101248,0
2024-11-29 18:14:14.056,-0.486042,5.13051,12.1765,0.0403923,-0.185698,-0.0975828,0
2024-11-29 18:14:14.058,-0.512363,5.11615,12.2722,0.0403923,-0.185698,-0.0975828,0
2024-11-29 18:14:14.061,-0.548256,5.10658,12.3751,0.0684913,-0.182032,-0.0945286,0
2024-11-29 18:14:14.063,-0.584148,5.08265,12.4517,0.0684913,-0.182032,-0.0945286,0
2024-11-29 18:14:14.064,-0.622433,5.03958,12.5019,0.0819299,-0.181422,-0.0896418,0
2024-11-29 18:14:14.068,-0.651147,4.98933,12.5474,0.0953685,-0.182643,-0.0835334,0
2024-11-29 18:14:14.069,-0.670289,4.95105,12.5809,0.113694,-0.184476,-0.08109,0
2024-11-29 18:14:14.072,-0.679861,4.90559,12.6024,0.130798,-0.185087,-0.0749815,0
2024-11-29 18:14:14.076,-0.699003,4.8003,12.6625,0.14668,-0.186919,-0.0578778,0
2024-11-29 18:14:14.077,-0.699003,4.8003,12.6625,0.178444,-0.194249,-0.0505476,0
2024-11-29 18:14:14.079,-0.679861,4.733,12.6793,0.178444,-0.194249,-0.0505476,0
2024-11-29 18:14:14.082,-0.655932,4.6684,12.6841,0.194937,-0.196082,-0.0407741,0
2024-11-29 18:14:14.083,-0.610469,4.61336,12.6793,0.210208,-0.199747,-0.029168,0
2024-11-29 18:14:14.086,-0.565005,4.53918,12.6721,0.224868,-0.203412,-0.0200052,0
2024-11-29 18:14:14.089,-0.531506,4.46501,12.6769,0.251745,-0.207688,0.000152712,0
2024-11-29 18:14:14.090,-0.481256,4.39562,12.6721,0.251745,-0.207688,0.000152712,0
2024-11-29 18:14:14.094,-0.419043,4.33579,12.6673,0.266406,-0.210742,0.011148,0
2024-11-29 18:14:14.096,-0.359223,4.29272,12.6577,0.29084,-0.214407,0.0300842,0
2024-11-29 18:14:14.098,-0.289831,4.24487,12.6506,0.302446,-0.216851,0.0392469,0
2024-11-29 18:14:14.101,-0.222533,4.19671,12.6529,0.312219,-0.216851,0.0477988,0
2024-11-29 18:14:14.103,-0.162712,4.15843,12.6482,0.312219,-0.216851,0.0477988,0
2024-11-29 18:14:14.104,-0.0909273,4.11536,12.6338,0.322604,-0.216851,0.0539073,0
2024-11-29 18:14:14.108,-0.0119641,4.08186,12.6239,0.331766,-0.215018,0.0606266,0
2024-11-29 18:14:14.109,0.0622134,4.05793,12.6072,0.34154,-0.211353,0.0661242,0
2024-11-29 18:14:14.112,0.119641,4.034,12.5593,0.34887,-0.205856,0.0697893,0
2024-11-29 18:14:14.114,0.160319,4.03639,12.5019,0.357422,-0.20158,0.0746761,0
2024-11-29 18:14:14.117,0.18664,4.05075,12.4277,0.364141,-0.194249,0.0783412,0
2024-11-29 18:14:14.118,0.205783,4.06032,12.3272,0.367806,-0.188752,0.0813954,0
2024-11-29 18:14:14.122,0.222533,4.06989,12.2291,0.368417,-0.183865,0.0850605,0
2024-11-29 18:14:14.124,0.239282,4.08425,12.1167,0.358033,-0.183254,0.0905581,0
2024-11-29 18:14:14.127,0.251246,4.11057,11.9991,0.345205,-0.189363,0.0923906,0
2024-11-29 18:14:14.129,0.292223,4.12971,11.8819,0.331766,-0.20158,0.0923906,0
2024-11-29 18:14:14.130,0.352044,4.12014,11.7574,0.331766,-0.20158,0.0923906,0
2024-11-29 18:14:14.133,0.431007,4.11775,11.6474,0.311608,-0.221127,0.0930015,0
2024-11-29 18:14:14.135,0.567398,4.10339,11.5636,0.288396,-0.247393,0.0905581,0
2024-11-29 18:14:14.138,0.732503,4.04836,11.4915,0.259686,-0.281601,0.0807846,0
2024-11-29 18:14:14.141,0.921835,3.97657,11.4269,0.229755,-0.326192,0.0728435,0
2024-11-29 18:14:14.142,1.14197,3.88086,11.4006,0.192493,-0.37506,0.0575724,0
2024-11-29 18:14:14.145,1.38126,3.76361,11.403,0.150956,-0.428204,0.0398578,0
2024-11-29 18:14:14.147,1.62084,3.66311,11.4317,0.110029,-0.484402,0.019089,0
2024-11-29 18:14:14.149,1.82901,3.57667,11.4844,0.0642153,-0.538767,-0.00595576,0
2024-11-29 18:14:14.152,2.00638,3.5001,11.5756,0.0153475,-0.589468,-0.0346656,0
2024-11-29 18:14:14.154,2.16192,3.42592,11.6904,-0.0322986,-0.640168,-0.0633754,0
2024-11-29 18:14:14.156,2.28395,3.35892,11.8388,-0.0787229,-0.684149,-0.0908635,0
2024-11-29 18:14:14.158,2.38206,3.31346,12.023,-0.123315,-0.725076,-0.121406,0
2024-11-29 18:14:14.162,2.48016,3.268,12.2243,-0.166685,-0.762337,-0.148894,0
2024-11-29 18:14:14.163,2.60249,3.21775,12.4277,-0.208223,-0.794101,-0.176382,0
2024-11-29 18:14:14.166,2.71974,3.15793,12.6266,-0.247928,-0.820979,-0.206314,0
2024-11-29 18:14:14.170,2.9662,3.03559,12.9832,-0.32184,-0.856408,-0.271063,0
2024-11-29 18:14:14.171,2.9662,3.03559,12.9832,-0.32184,-0.856408,-0.271063,0
2024-11-29 18:14:14.174,3.09332,2.99013,13.1746,-0.389033,-0.866792,-0.346198,0
2024-11-29 18:14:14.176,3.17228,2.92074,13.4118,-0.411024,-0.864349,-0.384681,0
2024-11-29 18:14:14.178,3.22732,2.83699,13.6606,-0.411024,-0.864349,-0.384681,0
2024-11-29 18:14:14.181,3.25364,2.71974,13.8547,-0.445842,-0.833807,-0.45615,0
2024-11-29 18:14:14.183,3.26082,2.6001,13.9983,-0.445842,-0.833807,-0.45615,0
2024-11-29 18:14:14.185,3.26082,2.5017,14.1443,-0.456227,-0.804486,-0.493412,0
2024-11-29 18:14:14.187,3.25843,2.38684,14.3145,-0.457448,-0.766613,-0.528841,0
2024-11-29 18:14:14.190,3.22493,2.26241,14.4915,-0.450118,-0.674375,-0.596034,0
2024-11-29 18:14:14.192,3.14357,2.13799,14.6471,-0.450118,-0.674375,-0.596034,0
2024-11-29 18:14:14.195,3.01167,1.98245,14.7619,-0.412246,-0.552206,-0.649789,0
2024-11-29 18:14:14.197,2.84656,1.82184,14.8265,-0.38659,-0.480737,-0.67239,1
2024-11-29 18:14:14.199,2.68146,1.6663,14.8505,-0.38659,-0.480737,-0.67239,0
2024-11-29 18:14:14.202,2.54028,1.4988,14.8505,-0.354826,-0.402548,-0.690105,0
2024-11-29 18:14:14.203,2.3988,1.31904,14.8146,-0.318786,-0.319473,-0.703543,0
2024-11-29 18:14:14.206,2.21456,1.13719,14.738,-0.277859,-0.231511,-0.712706,0
2024-11-29 18:14:14.209,2.00399,0.972084,14.6231,-0.232046,-0.139273,-0.719425,0
2024-11-29 18:14:14.211,1.78834,0.837787,14.47,-0.139197,0.051922,-0.716982,0
2024-11-29 18:14:14.214,1.55623,0.722932,14.2711,-0.139197,0.051922,-0.716982,0
2024-11-29 18:14:14.215,1.30229,0.610469,14.0414,-0.0878856,0.149047,-0.706598,0
2024-11-29 18:14:14.218,1.02233,0.533899,13.7877,-0.0365745,0.24495,-0.693159,0
2024-11-29 18:14:14.221,0.751645,0.4669,13.5027,0.013515,0.340853,-0.673612,0
2024-11-29 18:14:14.223,0.486042,0.41665,13.2084,0.0666587,0.429426,-0.648567,0
2024-11-29 18:14:14.224,0.210568,0.387936,12.9114,0.115526,0.512501,-0.619857,0
2024-11-29 18:14:14.228,-0.0622134,0.359223,12.612,0.163783,0.589468,-0.588704,0
2024-11-29 18:14:14.229,-0.294616,0.342473,12.2937,0.208986,0.659715,-0.555107,0
2024-11-29 18:14:14.233,-0.495613,0.320937,11.9632,0.253578,0.717746,-0.517235,0
2024-11-29 18:14:14.234,-0.682254,0.27996,11.6306,0.296337,0.770278,-0.476919,0
2024-11-29 18:14:14.237,-0.833001,0.236889,11.2929,0.335431,0.813038,-0.435992,0
2024-11-29 18:14:14.239,-0.979263,0.208176,10.9436,0.372693,0.846634,-0.393233,0
2024-11-29 18:14:14.241,-1.10369,0.184247,10.5963,0.401403,0.869847,-0.351084,0
2024-11-29 18:14:14.243,-1.18744,0.155533,10.285,0.431945,0.880842,-0.308936,0
2024-11-29 18:14:14.247,-1.24008,0.119641,9.99303,0.456379,0.882674,-0.266788,0
2024-11-29 18:14:14.249,-1.24008,0.0885344,9.70798,0.494863,0.853354,-0.187988,0
2024-11-29 18:14:14.250,-1.23529,0.0693919,9.4352,0.494863,0.853354,-0.187988,0
2024-11-29 18:14:14.254,-1.25683,0.066999,9.17169,0.510134,0.825866,-0.150727,0
2024-11-29 18:14:14.255,-1.2664,0.0861416,8.92044,0.522962,0.79288,-0.114687,0
2024-11-29 18:14:14.258,-1.26401,0.119641,8.68325,0.527238,0.753175,-0.0817008,0
2024-11-29 18:14:14.261,-1.23529,0.172283,8.48226,0.532735,0.707972,-0.0493259,0
2024-11-29 18:14:14.262,-1.18983,0.222533,8.3028,0.532735,0.657272,-0.0193944,0
2024-11-29 18:14:14.265,-1.13958,0.263211,8.14726,0.530903,0.601074,0.00870457,0
2024-11-29 18:14:14.267,-1.06301,0.32333,8.01775,0.525405,0.543043,0.0343602,0
2024-11-29 18:14:14.269,-0.972084,0.385544,7.90289,0.518686,0.481958,0.0600157,0
2024-11-29 18:14:14.272,-0.869193,0.426222,7.81915,0.510134,0.416598,0.0813954,0
2024-11-29 18:14:14.275,-0.74686,0.464507,7.76411,0.502193,0.353681,0.0997208,0
2024-11-29 18:14:14.277,-0.588933,0.507577,7.7354,0.489365,0.287098,0.11377,0
2024-11-29 18:14:14.279,-0.402293,0.548256,7.76172,0.480202,0.224181,0.126598,0
2024-11-29 18:14:14.282,-0.208176,0.579362,7.82154,0.466153,0.103233,0.138815,0
2024-11-29 18:14:14.284,-0.0167498,0.593719,7.88375,0.466153,0.103233,0.138815,0
2024-11-29 18:14:14.286,0.167498,0.60329,7.95314,0.460655,0.0507003,0.136372,0
2024-11-29 18:14:14.288,0.347258,0.610469,8.02971,0.458823,0.00305424,0.13515,0
2024-11-29 18:14:14.290,0.514756,0.634397,8.10868,0.461266,-0.0378725,0.129041,0
2024-11-29 18:14:14.293,0.670289,0.658325,8.18794,0.466764,-0.07208,0.119268,0
2024-11-29 18:14:14.296,0.809073,0.675075,8.25733,0.484478,-0.119115,0.0997208,0
2024-11-29 18:14:14.298,0.933799,0.687039,8.3028,0.484478,-0.119115,0.0997208,0
2024-11-29 18:14:14.300,1.0319,0.684646,8.30519,0.491808,-0.130721,0.0881147,0
2024-11-29 18:14:14.303,1.0989,0.706182,8.27408,0.502193,-0.139273,0.0758978,0
2024-11-29 18:14:14.305,1.15633,0.71336,8.21665,0.509523,-0.142938,0.0649025,0
2024-11-29 18:14:14.307,1.23529,0.687039,8.12543,0.517464,-0.14416,0.0526856,0
2024-11-29 18:14:14.309,1.32861,0.665504,8.00339,0.522351,-0.142327,0.0404686,0
2024-11-29 18:14:14.313,1.41984,0.658325,7.87179,0.519907,-0.14416,0.0258083,0
2024-11-29 18:14:14.314,1.5012,0.660718,7.74975,0.513799,-0.14416,0.0117588,0
2024-11-29 18:14:14.317,1.55862,0.677468,7.61815,0.503415,-0.142938,-0.00595576,0
2024-11-29 18:14:14.319,1.58973,0.708575,7.46949,0.491198,-0.141717,-0.0242812,0
2024-11-29 18:14:14.321,1.61366,0.773181,7.3331,0.474094,-0.142938,-0.0438283,0
2024-11-29 18:14:14.324,1.64477,0.847657,7.20868,0.453325,-0.142938,-0.0645971,0
2024-11-29 18:14:14.327,1.67348,0.888335,7.07468,0.39896,-0.149047,-0.110411,0
2024-11-29 18:14:14.329,1.70219,0.921835,6.95235,0.39896,-0.149047,-0.110411,0
2024-11-29 18:14:14.330,1.7333,0.962513,6.86142,0.365363,-0.15149,-0.134845,0
2024-11-29 18:14:14.334,1.77159,1.0008,6.79203,0.295116,-0.159431,-0.191042,0
2024-11-29 18:14:14.336,1.78594,1.03908,6.74417,0.295116,-0.159431,-0.191042,0
2024-11-29 18:14:14.339,1.79073,1.07019,6.69871,0.217538,-0.172259,-0.250906,0
2024-11-29 18:14:14.340,1.78594,1.09651,6.66999,0.217538,-0.172259,-0.250906,0
2024-11-29 18:14:14.343,1.76441,1.10848,6.65803,0.138128,-0.183254,-0.312601,0
2024-11-29 18:14:14.345,1.75005,1.11805,6.65564,0.138128,-0.183254,-0.312601,0
2024-11-29 18:14:14.348,1.73569,1.12283,6.67717,0.0544418,-0.195471,-0.378573,0
2024-11-29 18:14:14.350,1.69262,1.13001,6.72264,0.0116825,-0.202801,-0.409115,0
2024-11-29 18:14:14.352,1.62802,1.1348,6.78246,0.0116825,-0.202801,-0.409115,0
2024-11-29 18:14:14.354,1.54905,1.13001,6.84706,-0.0286335,-0.206466,-0.442101,0
2024-11-29 18:14:14.357,1.46291,1.12044,6.9332,-0.0683385,-0.210131,-0.469589,0
2024-11-29 18:14:14.360,1.38126,1.12044,7.03639,-0.144084,-0.213797,-0.523343,0
2024-11-29 18:14:14.362,1.28794,1.10369,7.15843,-0.176459,-0.213797,-0.544723,0
2024-11-29 18:14:14.364,1.18505,1.08455,7.29482,-0.176459,-0.213797,-0.544723,0
2024-11-29 18:14:14.366,1.08694,1.07737,7.436,-0.205168,-0.208299,-0.56427,0
2024-11-29 18:14:14.369,0.97687,1.07258,7.59422,-0.230213,-0.204634,-0.581985,0
2024-11-29 18:14:14.373,0.751645,1.05823,7.93161,-0.271751,-0.193639,-0.609473,0
2024-11-29 18:14:14.373,0.751645,1.05823,7.93161,-0.271751,-0.193639,-0.609473,0
2024-11-29 18:14:14.378,0.54347,1.0319,8.24058,-0.295574,-0.181422,-0.627187,0
2024-11-29 18:14:14.379,0.54347,1.0319,8.24058,-0.303515,-0.178367,-0.632685,0
2024-11-29 18:14:14.381,0.438186,1.02233,8.36501,-0.303515,-0.178367,-0.632685,0
2024-11-29 18:14:14.383,0.342473,1.01515,8.46551,-0.307791,-0.16615,-0.635739,0
2024-11-29 18:14:14.386,0.251246,1.01276,8.57079,-0.307791,-0.16615,-0.635739,0
2024-11-29 18:14:14.387,0.153141,1.00319,8.7027,-0.308401,-0.160653,-0.633907,0
2024-11-29 18:14:14.389,0.0358923,1.01755,8.86062,-0.303515,-0.153934,-0.628409,0
2024-11-29 18:14:14.392,-0.0885344,1.02951,9.00898,-0.295574,-0.145992,-0.619246,0
2024-11-29 18:14:14.394,-0.200997,1.01037,9.10469,-0.283968,-0.134997,-0.605808,0
2024-11-29 18:14:14.397,-0.308973,1.01994,9.1693,-0.268696,-0.116672,-0.588704,0
2024-11-29 18:14:14.399,-0.41665,1.01994,9.2028,-0.250982,-0.0965139,-0.569157,0
2024-11-29 18:14:14.401,-0.488435,1.00558,9.2363,-0.230824,-0.0733017,-0.547166,0
2024-11-29 18:14:14.404,-0.538684,1.01515,9.28445,-0.210055,-0.0507003,-0.522733,0
2024-11-29 18:14:14.407,-0.593719,1.01037,9.29642,-0.17035,-0.00488678,-0.469589,0
2024-11-29 18:14:14.409,-0.648754,0.996012,9.29402,-0.14836,0.0177146,-0.440879,0
2024-11-29 18:14:14.412,-0.689432,1.0008,9.26292,-0.129423,0.0409268,-0.410948,0
2024-11-29 18:14:14.414,-0.725324,1.00798,9.19562,-0.111098,0.0665824,-0.378573,0
2024-11-29 18:14:14.415,-0.754038,1.01276,9.11426,-0.111098,0.0665824,-0.378573,0
2024-11-29 18:14:14.421,-0.777966,1.08694,8.93001,-0.0652843,0.139884,-0.271063,0
2024-11-29 18:14:14.421,-0.777966,1.08694,8.93001,-0.0652843,0.139884,-0.271063,0
2024-11-29 18:14:14.422,-0.768395,1.11805,8.84148,-0.0652843,0.139884,-0.271063,0
2024-11-29 18:14:14.426,-0.756431,1.1683,8.74816,-0.0536782,0.16615,-0.235023,0
2024-11-29 18:14:14.427,-0.725324,1.22333,8.63061,-0.0457372,0.19486,-0.198983,0
2024-11-29 18:14:14.429,-0.687039,1.27358,8.51336,-0.0365745,0.218683,-0.165387,0
2024-11-29 18:14:14.433,-0.646361,1.35015,8.40569,-0.0286335,0.26694,-0.104302,0
2024-11-29 18:14:14.435,-0.584148,1.42702,8.29322,-0.0243575,0.290763,-0.0792574,0
2024-11-29 18:14:14.437,-0.502792,1.49641,8.17598,-0.0243575,0.290763,-0.0792574,0
2024-11-29 18:14:14.439,-0.428614,1.57059,8.07757,-0.0237467,0.310921,-0.0566561,0
2024-11-29 18:14:14.441,-0.354437,1.64716,7.99143,-0.0249684,0.324971,-0.0358873,0
2024-11-29 18:14:14.445,-0.27996,1.7333,7.89811,-0.0359636,0.348183,-0.0077883,0
2024-11-29 18:14:14.447,-0.20339,1.82423,7.81436,-0.0359636,0.348183,-0.0077883,0
2024-11-29 18:14:14.448,-0.117248,1.89362,7.71865,-0.0377962,0.352459,0.00137441,0
2024-11-29 18:14:14.452,-0.0526421,1.94626,7.62533,-0.046348,0.354902,0.00687203,0
2024-11-29 18:14:14.453,0.00239282,2.01356,7.54607,-0.0548999,0.353681,0.00931542,0
2024-11-29 18:14:14.456,0.0646062,2.07817,7.47667,-0.0768904,0.346961,0.00870457,0
2024-11-29 18:14:14.458,0.0981057,2.14038,7.436,-0.0768904,0.346961,0.00870457,0
2024-11-29 18:14:14.461,0.114855,2.19781,7.4001,-0.0891073,0.342685,0.00748288,0
2024-11-29 18:14:14.463,0.138784,2.23849,7.35703,-0.103157,0.337799,0.00137441,0
2024-11-29 18:14:14.466,0.157926,2.26481,7.31635,-0.117817,0.328025,-0.00229068,0
2024-11-29 18:14:14.467,0.165105,2.28873,7.29003,-0.128812,0.320084,-0.00839915,0
2024-11-29 18:14:14.469,0.177069,2.35095,7.28286,-0.147749,0.310921,-0.0132859,0
2024-11-29 18:14:14.473,0.165105,2.40838,7.302,-0.175848,0.284655,-0.0255029,0
2024-11-29 18:14:14.475,0.131605,2.45384,7.33789,-0.175848,0.284655,-0.0255029,0
2024-11-29 18:14:14.477,0.100499,2.49212,7.38096,-0.19173,0.265108,-0.0310005,0
2024-11-29 18:14:14.480,0.0693919,2.52084,7.43121,-0.202725,0.248615,-0.0395524,0
2024-11-29 18:14:14.481,0.0334995,2.56182,7.49342,-0.212498,0.229068,-0.0462717,0
2024-11-29 18:14:14.485,-0.00717847,2.59532,7.57478,-0.221661,0.210131,-0.0511585,0
2024-11-29 18:14:14.487,-0.0358923,2.61924,7.66601,-0.227159,0.188752,-0.0560452,0
2024-11-29 18:14:14.489,-0.0717847,2.6336,7.75693,-0.232046,0.166761,-0.0590995,0
2024-11-29 18:14:14.491,-0.112463,2.64317,7.85265,-0.233267,0.142938,-0.0639862,0
2024-11-29 18:14:14.494,-0.138784,2.65514,7.94118,-0.231435,0.0940705,-0.0652079,0
2024-11-29 18:14:14.495,-0.160319,2.66231,8.02493,-0.231435,0.0940705,-0.0652079,0
2024-11-29 18:14:14.501,-0.210568,2.66231,8.20948,-0.224715,0.0482569,-0.068873,0
2024-11-29 18:14:14.501,-0.210568,2.66231,8.20948,-0.224715,0.0482569,-0.068873,0
2024-11-29 18:14:14.503,-0.234497,2.65514,8.29562,-0.224715,0.0482569,-0.068873,0
2024-11-29 18:14:14.505,-0.285045,2.64317,8.36501,-0.214331,0.00427593,-0.0652079,0
2024-11-29 18:14:14.510,-0.361615,2.61446,8.52293,-0.197227,-0.03604,-0.0572669,0
2024-11-29 18:14:14.510,-0.361615,2.61446,8.52293,-0.197227,-0.03604,-0.0572669,0
2024-11-29 18:14:14.512,-0.373579,2.60249,8.6019,-0.187454,-0.0543654,-0.0505476,0
2024-11-29 18:14:14.515,-0.387936,2.58814,8.69043,-0.166074,-0.0897945,-0.0346656,0
2024-11-29 18:14:14.517,-0.414257,2.5666,8.78405,-0.166074,-0.0897945,-0.0346656,0
2024-11-29 18:14:14.519,-0.428614,2.54507,8.85344,-0.156301,-0.106287,-0.0236703,0
2024-11-29 18:14:14.522,-0.45015,2.52592,8.92523,-0.128812,-0.133165,-0.00106898,0
2024-11-29 18:14:14.525,-0.464507,2.52592,8.99941,-0.128812,-0.133165,-0.00106898,0
2024-11-29 18:14:14.526,-0.476471,2.52592,9.07358,-0.128812,-0.133165,-0.00106898,0
2024-11-29 18:14:14.528,-0.488435,2.50648,9.14776,-0.0994917,-0.149658,0.0288625,0
2024-11-29 18:14:14.532,-0.495613,2.5017,9.21237,-0.0836097,-0.155155,0.0459663,0
2024-11-29 18:14:14.533,-0.517149,2.52832,9.25783,-0.0646735,-0.158209,0.0600157,0
2024-11-29 18:14:14.536,-0.519542,2.56182,9.32513,-0.0457372,-0.157599,0.0783412,0
2024-11-29 18:14:14.538,-0.507577,2.58335,9.39452,-0.0274118,-0.152712,0.0960557,0
2024-11-29 18:14:14.540,-0.505185,2.60489,9.44238,-0.00664296,-0.144771,0.11377,0
2024-11-29 18:14:14.542,-0.505185,2.62881,9.47588,0.0141258,-0.133776,0.132096,0
2024-11-29 18:14:14.546,-0.490828,2.66231,9.49023,0.0562743,-0.105066,0.168136,0
2024-11-29 18:14:14.547,-0.459721,2.70539,9.47588,0.0562743,-0.105066,0.168136,0
2024-11-29 18:14:14.551,-0.440578,2.74846,9.44238,0.0764323,-0.0830752,0.187683,0
2024-11-29 18:14:14.553,-0.4334,2.78674,9.40648,0.113083,-0.0366508,0.219447,0
2024-11-29 18:14:14.554,-0.414257,2.8346,9.35384,0.113083,-0.0366508,0.219447,0
2024-11-29 18:14:14.558,-0.390329,2.88485,9.27727,0.128354,-0.0109953,0.235329,0
2024-11-29 18:14:14.559,-0.359223,2.91835,9.18605,0.141182,0.0134386,0.249989,0
2024-11-29 18:14:14.561,-0.337687,2.95663,9.08315,0.150956,0.0378725,0.266482,0
2024-11-29 18:14:14.564,-0.304188,3.01645,8.97308,0.159507,0.0653607,0.279921,0
2024-11-29 18:14:14.566,-0.263211,3.05952,8.87976,0.161951,0.0861295,0.290916,0
2024-11-29 18:14:14.569,-0.236889,3.09811,8.78884,0.164394,0.110563,0.303744,0
2024-11-29 18:14:14.572,-0.205783,3.16271,8.69043,0.166227,0.133776,0.312296,0
2024-11-29 18:14:14.574,-0.174676,3.2345,8.59472,0.157675,0.171037,0.328178,0
2024-11-29 18:14:14.576,-0.133998,3.28235,8.50858,0.157675,0.171037,0.328178,0
2024-11-29 18:14:14.580,-0.026321,3.37567,8.37697,0.143625,0.197915,0.338562,0
2024-11-29 18:14:14.581,-0.026321,3.37567,8.37697,0.136295,0.203412,0.341616,0
2024-11-29 18:14:14.583,0.0191426,3.40678,8.3339,0.136295,0.203412,0.341616,0
2024-11-29 18:14:14.586,0.0574277,3.45942,8.29801,0.118581,0.211964,0.346503,0
2024-11-29 18:14:14.588,0.0885344,3.50489,8.26212,0.118581,0.211964,0.346503,0
2024-11-29 18:14:14.591,0.119641,3.54556,8.24298,0.0972011,0.20891,0.345281,0
2024-11-29 18:14:14.592,0.133998,3.59342,8.22622,0.0972011,0.20891,0.345281,0
2024-11-29 18:14:14.595,0.148355,3.63889,8.23101,0.0849841,0.204023,0.34406,0
2024-11-29 18:14:14.597,0.165105,3.66551,8.25494,0.0752106,0.196082,0.340395,0
2024-11-29 18:14:14.599,0.165105,3.67986,8.28365,0.0642153,0.189363,0.336119,0
2024-11-29 18:14:14.601,0.179462,3.70858,8.32912,0.0526092,0.178978,0.335508,0
2024-11-29 18:14:14.605,0.205783,3.7349,8.38415,0.0428357,0.167983,0.33673,0
2024-11-29 18:14:14.606,0.22014,3.75883,8.44636,0.0361163,0.158209,0.334897,0
2024-11-29 18:14:14.608,0.244068,3.78036,8.52054,0.0275645,0.144771,0.331843,0
2024-11-29 18:14:14.612,0.277567,3.80668,8.60429,0.0190126,0.127056,0.328789,0
2024-11-29 18:14:14.613,0.313759,3.83779,8.69761,0.0190126,0.127056,0.328789,0
2024-11-29 18:14:14.616,0.352044,3.87368,8.79841,0.0184018,0.117894,0.326345,0
2024-11-29 18:14:14.618,0.373579,3.9,8.9013,0.0190126,0.112396,0.325123,0
2024-11-29 18:14:14.624,0.397508,3.94547,9.0999,0.0257319,0.0806318,0.318404,0
2024-11-29 18:14:14.624,0.419043,3.94547,9.0999,0.0257319,0.0806318,0.318404,0
2024-11-29 18:14:14.626,0.454935,3.97418,9.18605,0.0330621,0.0702474,0.314128,0
2024-11-29 18:14:14.628,0.486042,3.99332,9.25305,0.0330621,0.0702474,0.314128,0
2024-11-29 18:14:14.633,0.562612,4.02921,9.38016,0.0489441,0.0513112,0.308631,0
2024-11-29 18:14:14.633,0.562612,4.02921,9.38016,0.0489441,0.0513112,0.308631,0
2024-11-29 18:14:14.634,0.596112,4.05075,9.43281,0.0519984,0.0384834,0.301911,0
2024-11-29 18:14:14.638,0.600898,4.06511,9.46391,0.0666587,0.0140495,0.293359,0
2024-11-29 18:14:14.640,0.598505,4.06989,9.49502,0.0666587,0.0140495,0.293359,0
2024-11-29 18:14:14.642,0.615255,4.05793,9.52613,0.0709346,0.00122169,0.287251,0
2024-11-29 18:14:14.645,0.632004,4.0675,9.5692,0.0837624,-0.0213797,0.277477,0
2024-11-29 18:14:14.647,0.627219,4.08425,9.63141,0.0837624,-0.0213797,0.277477,0
2024-11-29 18:14:14.648,0.612862,4.09621,9.69602,0.0874275,-0.0299315,0.274423,0
2024-11-29 18:14:14.652,0.60329,4.12971,9.75344,0.0990336,-0.0415376,0.267093,0
2024-11-29 18:14:14.654,0.593719,4.16561,9.81087,0.107585,-0.0433702,0.265871,0
2024-11-29 18:14:14.656,0.579362,4.19671,9.8686,0.107585,-0.0433702,0.265871,0
2024-11-29 18:14:14.658,0.557827,4.22572,9.92603,0.114916,-0.0421485,0.26465,0
2024-11-29 18:14:14.660,0.529113,4.25205,9.99063,0.123468,-0.0384834,0.264039,0
2024-11-29 18:14:14.664,0.512363,4.27837,10.0481,0.133241,-0.0323749,0.26465,0
2024-11-29 18:14:14.666,0.505185,4.29751,10.0983,0.151566,-0.00916271,0.26465,0
2024-11-29 18:14:14.668,0.512363,4.2999,10.1414,0.162562,0.00122169,0.264039,0
2024-11-29 18:14:14.671,0.519542,4.31905,10.1605,0.162562,0.00122169,0.264039,0
2024-11-29 18:14:14.672,0.512363,4.33579,10.1701,0.174779,0.015882,0.264039,0
2024-11-29 18:14:14.674,0.50997,4.33101,10.1701,0.183331,0.0299315,0.268315,0
2024-11-29 18:14:14.677,0.521934,4.34297,10.1557,0.19005,0.043981,0.267704,0
2024-11-29 18:14:14.679,0.517149,4.35494,10.1246,0.197991,0.0592522,0.270147,0
2024-11-29 18:14:14.681,0.512363,4.35733,10.0768,0.202267,0.07208,0.273201,0
2024-11-29 18:14:14.684,0.531506,4.3669,10.0217,0.206543,0.0818535,0.275645,0
2024-11-29 18:14:14.687,0.533899,4.37169,9.9667,0.207764,0.100179,0.279921,0
2024-11-29 18:14:14.689,0.536291,4.38365,9.93081,0.207764,0.100179,0.279921,0
2024-11-29 18:14:14.691,0.545863,4.39322,9.89013,0.204099,0.106898,0.281142,0
2024-11-29 18:14:14.693,0.548256,4.40758,9.85185,0.199823,0.110563,0.282975,0
2024-11-29 18:14:14.698,0.593719,4.43151,9.79173,0.185774,0.117283,0.290305,0
2024-11-29 18:14:14.699,0.593719,4.43151,9.79173,0.177833,0.120948,0.291527,0
2024-11-29 18:14:14.701,0.622433,4.44347,9.77498,0.177833,0.120948,0.291527,0
2024-11-29 18:14:14.704,0.660718,4.45065,9.77259,0.165616,0.12278,0.292138,0
2024-11-29 18:14:14.706,0.701396,4.46022,9.77259,0.154621,0.126445,0.293359,0
2024-11-29 18:14:14.708,0.756431,4.4674,9.80369,0.141793,0.127056,0.291527,0
2024-11-29 18:14:14.711,0.811466,4.45065,9.84467,0.132019,0.126445,0.287862,0
2024-11-29 18:14:14.712,0.852443,4.45065,9.88056,0.122246,0.128278,0.284808,0
2024-11-29 18:14:14.715,0.88355,4.46501,9.93799,0.112472,0.128889,0.281142,0
2024-11-29 18:14:14.717,0.909871,4.47219,10.0146,0.101477,0.127056,0.276256,0
2024-11-29 18:14:14.720,0.952942,4.48654,10.0983,0.0959794,0.127056,0.272591,0
2024-11-29 18:14:14.722,0.97687,4.51047,10.1653,0.0904818,0.124613,0.265871,0
2024-11-29 18:14:14.725,0.99362,4.51765,10.2227,0.0825407,0.125224,0.259152,0
2024-11-29 18:14:14.726,1.0319,4.52243,10.3017,0.0800973,0.126445,0.253654,0
2024-11-29 18:14:14.729,1.06062,4.54876,10.3783,0.0752106,0.125224,0.246935,0
2024-11-29 18:14:14.731,1.07019,4.55354,10.424,0.0758214,0.124613,0.239605,0
2024-11-29 18:14:14.734,1.08215,4.54636,10.4815,0.073378,0.124613,0.230442,0
2024-11-29 18:14:14.737,1.10848,4.55593,10.5509,0.0721563,0.122169,0.215171,0
2024-11-29 18:14:14.739,1.12044,4.55833,10.6083,0.0721563,0.122169,0.215171,0
2024-11-29 18:14:14.741,1.12762,4.55115,10.6561,0.0764323,0.119726,0.205397,0
2024-11-29 18:14:14.744,1.1324,4.54636,10.7016,0.0800973,0.116061,0.188905,0
2024-11-29 18:14:14.745,1.12762,4.53201,10.7471,0.0800973,0.116061,0.188905,0
2024-11-29 18:14:14.748,1.12283,4.52722,10.783,0.0819299,0.111785,0.179131,0
2024-11-29 18:14:14.751,1.10848,4.52483,10.8141,0.0843733,0.113007,0.17119,0
2024-11-29 18:14:14.752,1.07498,4.50329,10.8547,0.0862058,0.111174,0.16386,0
2024-11-29 18:14:14.755,1.03669,4.48415,10.8763,0.0880384,0.108731,0.155308,0
2024-11-29 18:14:14.759,0.945763,4.48415,10.9217,0.0929251,0.106287,0.14248,0
2024-11-29 18:14:14.759,0.945763,4.48415,10.9217,0.0929251,0.106287,0.14248,0
2024-11-29 18:14:14.762,0.902692,4.49133,10.9531,0.0978119,0.105677,0.139426,0
2024-11-29 18:14:14.764,0.842872,4.49372,10.9819,0.0972011,0.102622,0.13515,0
2024-11-29 18:14:14.766,0.780359,4.49372,10.9914,0.100255,0.103844,0.133317,0
2024-11-29 18:14:14.770,0.742074,4.50568,11.0034,0.100866,0.104455,0.131485,0
2024-11-29 18:14:14.772,0.708575,4.50808,11.0249,0.10392,0.10812,0.132096,0
2024-11-29 18:14:14.773,0.651147,4.5009,11.0369,0.10392,0.10812,0.132096,0
2024-11-29 18:14:14.776,0.608076,4.50329,11.0489,0.10392,0.111785,0.133928,0
2024-11-29 18:14:14.779,0.591326,4.50329,11.056,0.106364,0.124613,0.136372,0
2024-11-29 18:14:14.780,0.567398,4.50329,11.0369,0.106364,0.124613,0.136372,0
2024-11-29 18:14:14.784,0.541077,4.50808,11.0201,0.106364,0.133776,0.136372,0
2024-11-29 18:14:14.785,0.517149,4.51286,11.0297,0.105753,0.14416,0.136983,0
2024-11-29 18:14:14.787,0.483649,4.52483,11.0178,0.105142,0.155766,0.136983,0
2024-11-29 18:14:14.791,0.440578,4.5344,11.0058,0.10392,0.169816,0.136983,0
2024-11-29 18:14:14.792,0.41665,4.54397,10.989,0.105142,0.186919,0.138204,0
2024-11-29 18:14:14.795,0.395115,4.55354,10.9603,0.100255,0.204634,0.138815,0
2024-11-29 18:14:14.798,0.361615,4.55833,10.9265,0.0984228,0.224181,0.136983,0
2024-11-29 18:14:14.799,0.32333,4.54158,10.8835,0.0965902,0.244339,0.137593,0
2024-11-29 18:14:14.802,0.277567,4.52243,10.8452,0.0923143,0.26694,0.138815,0
2024-11-29 18:14:14.804,0.234497,4.51526,10.7949,0.0886492,0.291374,0.137593,0
2024-11-29 18:14:14.806,0.179462,4.52004,10.7327,0.0849841,0.319473,0.136983,0
2024-11-29 18:14:14.809,0.11007,4.51526,10.6705,0.0819299,0.346961,0.138204,0
