timestamp,accel_x,accel_y,accel_z,gyro_x,gyro_y,gyro_z,step_timestamp
2024-11-29 18:17:33.960,0.41665,3.54556,9.12144,-0.0976592,0.182032,0.0239758,0
2024-11-29 18:17:33.960,0.41665,3.54556,9.12144,-0.0976592,0.182032,0.0239758,0
2024-11-29 18:17:33.960,0.41665,3.54556,9.12144,-0.0976592,0.182032,0.0239758,0
2024-11-29 18:17:33.960,0.41665,3.54556,9.12144,-0.0976592,0.182032,0.0239758,0
2024-11-29 18:17:33.960,0.41665,3.54556,9.12144,-0.0976592,0.182032,0.0239758,0
2024-11-29 18:17:33.960,0.41665,3.54556,9.12144,-0.0976592,0.182032,0.0239758,0
2024-11-29 18:17:33.960,0.41665,3.54556,9.12144,-0.0976592,0.182032,0.0239758,0
2024-11-29 18:17:33.960,0.41665,3.54556,9.12144,-0.0976592,0.182032,0.0239758,0
2024-11-29 18:17:33.961,0.409472,3.55514,9.07119,-0.0976592,0.182032,0.0239758,0
2024-11-29 18:17:33.961,0.409472,3.55514,9.07119,-0.0976592,0.182032,0.0239758,0
2024-11-29 18:17:33.962,0.409472,3.55514,9.07119,-0.0884965,0.175313,0.014813,0
2024-11-29 18:17:33.962,0.409472,3.55514,9.07119,-0.0884965,0.175313,0.014813,0
2024-11-29 18:17:33.962,0.409472,3.55514,9.07119,-0.0884965,0.175313,0.014813,0
2024-11-29 18:17:33.962,0.409472,3.55514,9.07119,-0.0884965,0.175313,0.014813,0
2024-11-29 18:17:33.962,0.409472,3.55514,9.07119,-0.0884965,0.175313,0.014813,0
2024-11-29 18:17:33.964,0.402293,3.55035,9.01616,-0.0884965,0.175313,0.014813,0
2024-11-29 18:17:33.964,0.402293,3.55035,9.01616,-0.0884965,0.175313,0.014813,0
2024-11-29 18:17:33.964,0.402293,3.55035,9.01616,-0.0884965,0.175313,0.014813,0
2024-11-29 18:17:33.964,0.402293,3.55035,9.01616,-0.0884965,0.175313,0.014813,0
2024-11-29 18:17:33.964,0.402293,3.55035,9.01616,-0.0884965,0.175313,0.014813,0
2024-11-29 18:17:33.965,0.402293,3.55035,9.01616,-0.0811663,0.164929,0.00870457,0
2024-11-29 18:17:33.965,0.402293,3.55035,9.01616,-0.0811663,0.164929,0.00870457,0
2024-11-29 18:17:33.965,0.402293,3.55035,9.01616,-0.0811663,0.164929,0.00870457,0
2024-11-29 18:17:33.966,0.385544,3.54796,8.9683,-0.0811663,0.164929,0.00870457,0
2024-11-29 18:17:33.966,0.385544,3.54796,8.9683,-0.0811663,0.164929,0.00870457,0
2024-11-29 18:17:33.966,0.385544,3.54796,8.9683,-0.0811663,0.164929,0.00870457,0
2024-11-29 18:17:33.967,0.402293,3.54796,8.9683,-0.0726145,0.155766,0.0038178,0
2024-11-29 18:17:33.967,0.385544,3.54796,8.9683,-0.0726145,0.155766,0.0038178,0
2024-11-29 18:17:33.967,0.385544,3.54796,8.9683,-0.0726145,0.155766,0.0038178,0
2024-11-29 18:17:33.968,0.35683,3.55035,8.9013,-0.0726145,0.155766,0.0038178,0
2024-11-29 18:17:33.968,0.35683,3.55035,8.9013,-0.0726145,0.155766,0.0038178,0
2024-11-29 18:17:33.968,0.35683,3.55035,8.9013,-0.0726145,0.155766,0.0038178,0
2024-11-29 18:17:33.969,0.35683,3.55035,8.9013,-0.0628409,0.149658,-0.00534491,0
2024-11-29 18:17:33.969,0.35683,3.55035,8.9013,-0.0628409,0.149658,-0.00534491,0
2024-11-29 18:17:33.969,0.35683,3.55035,8.9013,-0.0628409,0.149658,-0.00534491,0
2024-11-29 18:17:33.969,0.35683,3.55035,8.9013,-0.0628409,0.149658,-0.00534491,0
2024-11-29 18:17:33.971,0.35683,3.5671,8.82712,-0.0628409,0.149658,-0.00534491,0
2024-11-29 18:17:33.971,0.330509,3.5671,8.82712,-0.0628409,0.149658,-0.00534491,0
2024-11-29 18:17:33.972,0.330509,3.5671,8.82712,-0.0561216,0.140495,-0.0108425,0
2024-11-29 18:17:33.972,0.330509,3.5671,8.82712,-0.0561216,0.140495,-0.0108425,0
2024-11-29 18:17:33.972,0.330509,3.5671,8.82712,-0.0561216,0.140495,-0.0108425,0
2024-11-29 18:17:33.972,0.330509,3.5671,8.82712,-0.0561216,0.140495,-0.0108425,0
2024-11-29 18:17:33.973,0.311366,3.5671,8.77209,-0.0561216,0.140495,-0.0108425,0
2024-11-29 18:17:33.973,0.311366,3.5671,8.77209,-0.0561216,0.140495,-0.0108425,0
2024-11-29 18:17:33.974,0.311366,3.5671,8.77209,-0.0494023,0.134386,-0.0151185,0
2024-11-29 18:17:33.974,0.311366,3.5671,8.77209,-0.0494023,0.134386,-0.0151185,0
2024-11-29 18:17:33.975,0.299402,3.55753,8.70987,-0.0494023,0.134386,-0.0151185,0
2024-11-29 18:17:33.975,0.299402,3.55753,8.70987,-0.0494023,0.134386,-0.0151185,0
2024-11-29 18:17:33.976,0.299402,3.55753,8.70987,-0.0494023,0.134386,-0.0151185,0
2024-11-29 18:17:33.976,0.299402,3.55753,8.70987,-0.0494023,0.134386,-0.0151185,0
2024-11-29 18:17:33.976,0.299402,3.55753,8.70987,-0.0494023,0.134386,-0.0151185,0
2024-11-29 18:17:33.978,0.27996,3.5671,8.65215,-0.0439046,0.127667,-0.0206161,0
2024-11-29 18:17:33.979,0.27996,3.5671,8.65215,-0.0420721,0.123391,-0.0267246,0
2024-11-29 18:17:33.979,0.27996,3.5671,8.65215,-0.0420721,0.123391,-0.0267246,0
2024-11-29 18:17:33.979,0.27996,3.5671,8.65215,-0.0420721,0.123391,-0.0267246,0
2024-11-29 18:17:33.982,0.239282,3.58146,8.51815,-0.0396287,0.120337,-0.029168,0
2024-11-29 18:17:33.985,0.210568,3.58146,8.46311,-0.0371853,0.116061,-0.032833,0
2024-11-29 18:17:33.985,0.210568,3.58146,8.46311,-0.0371853,0.116061,-0.032833,0
2024-11-29 18:17:33.985,0.210568,3.58146,8.46311,-0.0371853,0.116061,-0.032833,0
2024-11-29 18:17:33.986,0.210568,3.58146,8.46311,-0.0377962,0.113007,-0.037109,0
2024-11-29 18:17:33.986,0.210568,3.58146,8.46311,-0.0377962,0.113007,-0.037109,0
2024-11-29 18:17:33.986,0.210568,3.58146,8.46311,-0.0377962,0.113007,-0.037109,0
2024-11-29 18:17:33.986,0.210568,3.58146,8.46311,-0.0377962,0.113007,-0.037109,0
2024-11-29 18:17:33.986,0.210568,3.58146,8.46311,-0.0377962,0.113007,-0.037109,0
2024-11-29 18:17:33.986,0.210568,3.58146,8.46311,-0.0377962,0.113007,-0.037109,0
2024-11-29 18:17:33.987,0.184247,3.58624,8.40808,-0.0377962,0.113007,-0.037109,0
2024-11-29 18:17:33.987,0.184247,3.58624,8.40808,-0.0377962,0.113007,-0.037109,0
2024-11-29 18:17:33.987,0.184247,3.58624,8.40808,-0.0377962,0.113007,-0.037109,0
2024-11-29 18:17:33.987,0.184247,3.58624,8.40808,-0.0377962,0.113007,-0.037109,0
2024-11-29 18:17:33.988,0.184247,3.58624,8.40808,-0.0377962,0.111174,-0.0407741,0
2024-11-29 18:17:33.988,0.184247,3.58624,8.40808,-0.0377962,0.111174,-0.0407741,0
2024-11-29 18:17:33.988,0.184247,3.58624,8.40808,-0.0377962,0.111174,-0.0407741,0
2024-11-29 18:17:33.988,0.184247,3.58624,8.40808,-0.0377962,0.111174,-0.0407741,0
2024-11-29 18:17:33.988,0.184247,3.58624,8.40808,-0.0377962,0.111174,-0.0407741,0
2024-11-29 18:17:33.988,0.184247,3.58624,8.40808,-0.0377962,0.111174,-0.0407741,0
2024-11-29 18:17:33.989,0.157926,3.59821,8.35304,-0.0377962,0.111174,-0.0407741,0
2024-11-29 18:17:33.989,0.157926,3.59821,8.35304,-0.0377962,0.111174,-0.0407741,0
2024-11-29 18:17:33.989,0.157926,3.59821,8.35304,-0.0377962,0.111174,-0.0407741,0
2024-11-29 18:17:33.989,0.157926,3.59821,8.35304,-0.0377962,0.111174,-0.0407741,0
2024-11-29 18:17:33.989,0.157926,3.59821,8.35304,-0.0377962,0.111174,-0.0407741,0
2024-11-29 18:17:33.990,0.157926,3.59821,8.35304,-0.0377962,0.111174,-0.0407741,0
2024-11-29 18:17:33.990,0.157926,3.59821,8.35304,-0.0377962,0.111174,-0.0407741,0
2024-11-29 18:17:33.990,0.157926,3.59821,8.35304,-0.0377962,0.111174,-0.0407741,0
2024-11-29 18:17:33.990,0.157926,3.59821,8.35304,-0.0377962,0.111174,-0.0407741,0
2024-11-29 18:17:33.990,0.157926,3.59821,8.35304,-0.0377962,0.111174,-0.0407741,0
2024-11-29 18:17:33.992,0.122034,3.61256,8.31237,-0.0359636,0.110563,-0.0432174,0
2024-11-29 18:17:33.992,0.122034,3.61256,8.31237,-0.0359636,0.110563,-0.0432174,0
2024-11-29 18:17:33.992,0.122034,3.61256,8.31237,-0.0359636,0.110563,-0.0432174,0
2024-11-29 18:17:33.992,0.122034,3.61256,8.31237,-0.0359636,0.110563,-0.0432174,0
2024-11-29 18:17:33.993,0.122034,3.61256,8.31237,-0.0420721,0.10812,-0.0468825,0
2024-11-29 18:17:33.993,0.122034,3.61256,8.31237,-0.0420721,0.10812,-0.0468825,0
2024-11-29 18:17:33.993,0.122034,3.61256,8.31237,-0.0420721,0.10812,-0.0468825,0
2024-11-29 18:17:33.993,0.122034,3.61256,8.31237,-0.0420721,0.10812,-0.0468825,0
2024-11-29 18:17:33.993,0.122034,3.61256,8.31237,-0.0420721,0.10812,-0.0468825,0
2024-11-29 18:17:33.993,0.122034,3.61256,8.31237,-0.0420721,0.10812,-0.0468825,0
2024-11-29 18:17:33.994,0.107677,3.63649,8.2693,-0.0420721,0.10812,-0.0468825,0
2024-11-29 18:17:33.994,0.107677,3.63649,8.2693,-0.0420721,0.10812,-0.0468825,0
2024-11-29 18:17:33.994,0.107677,3.63649,8.2693,-0.0420721,0.10812,-0.0468825,0
2024-11-29 18:17:33.994,0.107677,3.63649,8.2693,-0.0420721,0.10812,-0.0468825,0
2024-11-29 18:17:33.995,0.107677,3.63649,8.2693,-0.0457372,0.105066,-0.0487151,0
2024-11-29 18:17:33.995,0.107677,3.63649,8.2693,-0.0457372,0.105066,-0.0487151,0
2024-11-29 18:17:33.995,0.107677,3.63649,8.2693,-0.0457372,0.105066,-0.0487151,0
2024-11-29 18:17:33.995,0.107677,3.63649,8.2693,-0.0457372,0.105066,-0.0487151,0
2024-11-29 18:17:33.997,0.0933201,3.65593,8.21905,-0.0457372,0.105066,-0.0487151,0
2024-11-29 18:17:33.997,0.0933201,3.65593,8.21905,-0.0457372,0.105066,-0.0487151,0
2024-11-29 18:17:33.997,0.0933201,3.65593,8.21905,-0.0457372,0.105066,-0.0487151,0
2024-11-29 18:17:33.997,0.0933201,3.65593,8.21905,-0.0457372,0.105066,-0.0487151,0
2024-11-29 18:17:33.998,0.0933201,3.65593,8.21905,-0.0524565,0.10079,-0.0511585,0
2024-11-29 18:17:33.998,0.0933201,3.65593,8.21905,-0.0524565,0.10079,-0.0511585,0
2024-11-29 18:17:33.998,0.0933201,3.65593,8.21905,-0.0524565,0.10079,-0.0511585,0
2024-11-29 18:17:33.998,0.0933201,3.65593,8.21905,-0.0524565,0.10079,-0.0511585,0
2024-11-29 18:17:33.998,0.0933201,3.65593,8.21905,-0.0524565,0.10079,-0.0511585,0
2024-11-29 18:17:33.998,0.0933201,3.65593,8.21905,-0.0524565,0.10079,-0.0511585,0
2024-11-29 18:17:33.999,0.0741775,3.65833,8.17598,-0.0524565,0.10079,-0.0511585,0
2024-11-29 18:17:33.999,0.0741775,3.65833,8.17598,-0.0524565,0.10079,-0.0511585,0
2024-11-29 18:17:33.999,0.0741775,3.65833,8.17598,-0.0524565,0.10079,-0.0511585,0
2024-11-29 18:17:33.999,0.0741775,3.65833,8.17598,-0.0524565,0.10079,-0.0511585,0
2024-11-29 18:17:34.000,0.0741775,3.65833,8.17598,-0.0591758,0.10079,-0.0554344,0
2024-11-29 18:17:34.000,0.0741775,3.65833,8.17598,-0.0591758,0.10079,-0.0554344,0
2024-11-29 18:17:34.000,0.0741775,3.65833,8.17598,-0.0591758,0.10079,-0.0554344,0
2024-11-29 18:17:34.000,0.0741775,3.65833,8.17598,-0.0591758,0.10079,-0.0554344,0
2024-11-29 18:17:34.000,0.0741775,3.65833,8.17598,-0.0591758,0.10079,-0.0554344,0
2024-11-29 18:17:34.001,0.0717847,3.66551,8.14008,-0.0591758,0.10079,-0.0554344,0
2024-11-29 18:17:34.001,0.0717847,3.66551,8.14008,-0.0591758,0.10079,-0.0554344,0
2024-11-29 18:17:34.001,0.0717847,3.66551,8.14008,-0.0591758,0.10079,-0.0554344,0
2024-11-29 18:17:34.002,0.0717847,3.66551,8.14008,-0.066506,0.0983464,-0.0615429,0
2024-11-29 18:17:34.002,0.0717847,3.66551,8.14008,-0.066506,0.0983464,-0.0615429,0
2024-11-29 18:17:34.002,0.0717847,3.66551,8.14008,-0.066506,0.0983464,-0.0615429,0
2024-11-29 18:17:34.002,0.0717847,3.66551,8.14008,-0.066506,0.0983464,-0.0615429,0
2024-11-29 18:17:34.002,0.0717847,3.66551,8.14008,-0.066506,0.0983464,-0.0615429,0
2024-11-29 18:17:34.002,0.0717847,3.66551,8.14008,-0.066506,0.0983464,-0.0615429,0
2024-11-29 18:17:34.002,0.0717847,3.66551,8.14008,-0.066506,0.0983464,-0.0615429,0
2024-11-29 18:17:34.002,0.0717847,3.66551,8.14008,-0.066506,0.0983464,-0.0615429,0
2024-11-29 18:17:34.004,0.0693919,3.67029,8.11586,-0.066506,0.0983464,-0.0615429,0
2024-11-29 18:17:34.004,0.0693919,3.67029,8.11586,-0.066506,0.0983464,-0.0615429,0
2024-11-29 18:17:34.004,0.0693919,3.67029,8.11586,-0.066506,0.0983464,-0.0615429,0
2024-11-29 18:17:34.004,0.0693919,3.67029,8.11586,-0.066506,0.0983464,-0.0615429,0
2024-11-29 18:17:34.005,0.0693919,3.67029,8.11586,-0.0762796,0.0940705,-0.0670405,0
2024-11-29 18:17:34.005,0.0693919,3.67029,8.11586,-0.0762796,0.0940705,-0.0670405,0
2024-11-29 18:17:34.006,0.0550349,3.67268,8.09671,-0.0762796,0.0940705,-0.0670405,0
2024-11-29 18:17:34.006,0.0550349,3.67268,8.09671,-0.0762796,0.0940705,-0.0670405,0
2024-11-29 18:17:34.006,0.0550349,3.67268,8.09671,-0.0762796,0.0940705,-0.0670405,0
2024-11-29 18:17:34.006,0.0550349,3.67268,8.09671,-0.0762796,0.0940705,-0.0670405,0
2024-11-29 18:17:34.006,0.0550349,3.67268,8.09671,-0.0762796,0.0940705,-0.0670405,0
2024-11-29 18:17:34.007,0.0550349,3.67268,8.09671,-0.082388,0.0922379,-0.0694839,0
2024-11-29 18:17:34.007,0.0550349,3.67268,8.09671,-0.082388,0.0922379,-0.0694839,0
2024-11-29 18:17:34.007,0.0550349,3.67268,8.09671,-0.082388,0.0922379,-0.0694839,0
2024-11-29 18:17:34.007,0.0550349,3.67268,8.09671,-0.082388,0.0922379,-0.0694839,0
2024-11-29 18:17:34.007,0.0550349,3.67268,8.09671,-0.082388,0.0922379,-0.0694839,0
2024-11-29 18:17:34.007,0.0550349,3.67268,8.09671,-0.082388,0.0922379,-0.0694839,0
2024-11-29 18:17:34.008,0.0550349,3.67268,8.09671,-0.082388,0.0922379,-0.0694839,0
2024-11-29 18:17:34.008,0.0382852,3.68943,8.07757,-0.082388,0.0922379,-0.0694839,0
2024-11-29 18:17:34.008,0.0382852,3.68943,8.07757,-0.082388,0.0922379,-0.0694839,0
2024-11-29 18:17:34.008,0.0382852,3.68943,8.07757,-0.082388,0.0922379,-0.0694839,0
2024-11-29 18:17:34.008,0.0382852,3.68943,8.07757,-0.082388,0.0922379,-0.0694839,0
2024-11-29 18:17:34.008,0.0382852,3.68943,8.07757,-0.082388,0.0922379,-0.0694839,0
2024-11-29 18:17:34.009,0.0382852,3.68943,8.07757,-0.082388,0.0922379,-0.0694839,0
2024-11-29 18:17:34.009,0.0382852,3.68943,8.07757,-0.082388,0.0922379,-0.0694839,0
2024-11-29 18:17:34.009,0.0382852,3.68943,8.07757,-0.082388,0.0922379,-0.0694839,0
2024-11-29 18:17:34.009,0.0382852,3.68943,8.07757,-0.082388,0.0922379,-0.0694839,0
2024-11-29 18:17:34.011,0.0167498,3.71097,8.06321,-0.0939941,0.0897945,-0.0725381,0
2024-11-29 18:17:34.011,0.0167498,3.71097,8.06321,-0.0939941,0.0897945,-0.0725381,0
2024-11-29 18:17:34.011,0.0167498,3.71097,8.06321,-0.0939941,0.0897945,-0.0725381,0
2024-11-29 18:17:34.012,0.0167498,3.71097,8.06321,-0.102546,0.0873512,-0.0762032,0
2024-11-29 18:17:34.012,0.0167498,3.71097,8.06321,-0.102546,0.0873512,-0.0762032,0
2024-11-29 18:17:34.012,0.0167498,3.71097,8.06321,-0.102546,0.0873512,-0.0762032,0
2024-11-29 18:17:34.012,0.0167498,3.71097,8.06321,-0.102546,0.0873512,-0.0762032,0
2024-11-29 18:17:34.013,-0.00478565,3.7349,8.05843,-0.102546,0.0873512,-0.0762032,0
2024-11-29 18:17:34.013,-0.00478565,3.7349,8.05843,-0.102546,0.0873512,-0.0762032,0
2024-11-29 18:17:34.013,-0.00478565,3.7349,8.05843,-0.102546,0.0873512,-0.0762032,0
2024-11-29 18:17:34.013,-0.00478565,3.7349,8.05843,-0.102546,0.0873512,-0.0762032,0
2024-11-29 18:17:34.013,-0.00478565,3.7349,8.05843,-0.102546,0.0873512,-0.0762032,0
2024-11-29 18:17:34.014,-0.00478565,3.7349,8.05843,-0.116595,0.0849078,-0.0798683,0
2024-11-29 18:17:34.014,-0.00478565,3.7349,8.05843,-0.116595,0.0849078,-0.0798683,0
2024-11-29 18:17:34.014,-0.00478565,3.7349,8.05843,-0.116595,0.0849078,-0.0798683,0
2024-11-29 18:17:34.014,-0.00478565,3.7349,8.05843,-0.116595,0.0849078,-0.0798683,0
2024-11-29 18:17:34.014,-0.00478565,3.7349,8.05843,-0.116595,0.0849078,-0.0798683,0
2024-11-29 18:17:34.014,-0.00478565,3.7349,8.05843,-0.116595,0.0849078,-0.0798683,0
2024-11-29 18:17:34.015,-0.0358923,3.76361,8.06321,-0.116595,0.0849078,-0.0798683,0
2024-11-29 18:17:34.015,-0.0358923,3.76361,8.06321,-0.116595,0.0849078,-0.0798683,0
2024-11-29 18:17:34.016,-0.0358923,3.76361,8.06321,-0.116595,0.0849078,-0.0798683,0
2024-11-29 18:17:34.016,-0.0358923,3.76361,8.06321,-0.116595,0.0849078,-0.0798683,0
2024-11-29 18:17:34.016,-0.0358923,3.76361,8.06321,-0.116595,0.0849078,-0.0798683,0
2024-11-29 18:17:34.016,-0.0358923,3.76361,8.06321,-0.116595,0.0849078,-0.0798683,0
2024-11-29 18:17:34.016,-0.0358923,3.76361,8.06321,-0.116595,0.0849078,-0.0798683,0
2024-11-29 18:17:34.018,-0.081356,3.8019,8.08953,-0.12698,0.0806318,-0.0841442,0
2024-11-29 18:17:34.018,-0.081356,3.8019,8.08953,-0.12698,0.0806318,-0.0841442,0
2024-11-29 18:17:34.018,-0.081356,3.8019,8.08953,-0.12698,0.0806318,-0.0841442,0
2024-11-29 18:17:34.018,-0.081356,3.8019,8.08953,-0.12698,0.0806318,-0.0841442,0
2024-11-29 18:17:34.019,-0.081356,3.8019,8.08953,-0.137364,0.0775776,-0.0853659,0
2024-11-29 18:17:34.019,-0.081356,3.8019,8.08953,-0.137364,0.0775776,-0.0853659,0
2024-11-29 18:17:34.019,-0.081356,3.8019,8.08953,-0.137364,0.0775776,-0.0853659,0
2024-11-29 18:17:34.019,-0.081356,3.8019,8.08953,-0.137364,0.0775776,-0.0853659,0
2024-11-29 18:17:34.019,-0.081356,3.8019,8.08953,-0.137364,0.0775776,-0.0853659,0
2024-11-29 18:17:34.020,-0.112463,3.83061,8.12064,-0.137364,0.0775776,-0.0853659,0
2024-11-29 18:17:34.020,-0.112463,3.83061,8.12064,-0.137364,0.0775776,-0.0853659,0
2024-11-29 18:17:34.020,-0.112463,3.83061,8.12064,-0.137364,0.0775776,-0.0853659,0
2024-11-29 18:17:34.020,-0.112463,3.83061,8.12064,-0.137364,0.0775776,-0.0853659,0
2024-11-29 18:17:34.021,-0.112463,3.83061,8.12064,-0.146527,0.0775776,-0.089031,0
2024-11-29 18:17:34.021,-0.112463,3.83061,8.12064,-0.146527,0.0775776,-0.089031,0
2024-11-29 18:17:34.021,-0.112463,3.83061,8.12064,-0.146527,0.0775776,-0.089031,0
2024-11-29 18:17:34.021,-0.112463,3.83061,8.12064,-0.146527,0.0775776,-0.089031,0
2024-11-29 18:17:34.021,-0.112463,3.83061,8.12064,-0.146527,0.0775776,-0.089031,0
2024-11-29 18:17:34.021,-0.112463,3.83061,8.12064,-0.146527,0.0775776,-0.089031,0
2024-11-29 18:17:34.022,-0.12682,3.84257,8.14008,-0.146527,0.0775776,-0.089031,0
2024-11-29 18:17:34.022,-0.12682,3.84257,8.14008,-0.146527,0.0775776,-0.089031,0
2024-11-29 18:17:34.022,-0.12682,3.84257,8.14008,-0.146527,0.0775776,-0.089031,0
2024-11-29 18:17:34.022,-0.12682,3.84257,8.14008,-0.146527,0.0775776,-0.089031,0
2024-11-29 18:17:34.022,-0.12682,3.84257,8.14008,-0.146527,0.0775776,-0.089031,0
2024-11-29 18:17:34.023,-0.12682,3.84257,8.14008,-0.146527,0.0775776,-0.089031,0
2024-11-29 18:17:34.023,-0.12682,3.84257,8.14008,-0.146527,0.0775776,-0.089031,0
2024-11-29 18:17:34.023,-0.12682,3.84257,8.14008,-0.146527,0.0775776,-0.089031,0
2024-11-29 18:17:34.023,-0.12682,3.84257,8.14008,-0.146527,0.0775776,-0.089031,0
2024-11-29 18:17:34.023,-0.12682,3.84257,8.14008,-0.146527,0.0775776,-0.089031,0
2024-11-29 18:17:34.023,-0.12682,3.84257,8.14008,-0.146527,0.0775776,-0.089031,0
2024-11-29 18:17:34.025,-0.148355,3.86172,8.16401,-0.156301,0.0726908,-0.0908635,0
2024-11-29 18:17:34.025,-0.148355,3.86172,8.16401,-0.156301,0.0726908,-0.0908635,0
2024-11-29 18:17:34.025,-0.148355,3.86172,8.16401,-0.156301,0.0726908,-0.0908635,0
2024-11-29 18:17:34.025,-0.148355,3.86172,8.16401,-0.156301,0.0726908,-0.0908635,0
2024-11-29 18:17:34.026,-0.148355,3.86172,8.16401,-0.165463,0.0708583,-0.0914744,0
2024-11-29 18:17:34.026,-0.148355,3.86172,8.16401,-0.165463,0.0708583,-0.0914744,0
2024-11-29 18:17:34.026,-0.148355,3.86172,8.16401,-0.165463,0.0708583,-0.0914744,0
2024-11-29 18:17:34.026,-0.148355,3.86172,8.16401,-0.165463,0.0708583,-0.0914744,0
2024-11-29 18:17:34.027,-0.16989,3.88804,8.21187,-0.165463,0.0708583,-0.0914744,0
2024-11-29 18:17:34.027,-0.16989,3.88804,8.21187,-0.165463,0.0708583,-0.0914744,0
2024-11-29 18:17:34.027,-0.16989,3.88804,8.21187,-0.165463,0.0708583,-0.0914744,0
2024-11-29 18:17:34.027,-0.16989,3.88804,8.21187,-0.165463,0.0708583,-0.0914744,0
2024-11-29 18:17:34.027,-0.16989,3.88804,8.21187,-0.165463,0.0708583,-0.0914744,0
2024-11-29 18:17:34.028,-0.16989,3.88804,8.21187,-0.176459,0.0690257,-0.0926961,0
2024-11-29 18:17:34.028,-0.16989,3.88804,8.21187,-0.176459,0.0690257,-0.0926961,0
2024-11-29 18:17:34.028,-0.16989,3.88804,8.21187,-0.176459,0.0690257,-0.0926961,0
2024-11-29 18:17:34.028,-0.16989,3.88804,8.21187,-0.176459,0.0690257,-0.0926961,0
2024-11-29 18:17:34.028,-0.16989,3.88804,8.21187,-0.176459,0.0690257,-0.0926961,0
2024-11-29 18:17:34.030,-0.18664,3.90718,8.26212,-0.176459,0.0690257,-0.0926961,0
2024-11-29 18:17:34.030,-0.18664,3.90718,8.26212,-0.176459,0.0690257,-0.0926961,0
2024-11-29 18:17:34.031,-0.18664,3.90718,8.26212,-0.182567,0.0702474,-0.0939178,0
2024-11-29 18:17:34.031,-0.18664,3.90718,8.26212,-0.182567,0.0702474,-0.0939178,0
2024-11-29 18:17:34.031,-0.18664,3.90718,8.26212,-0.182567,0.0702474,-0.0939178,0
2024-11-29 18:17:34.031,-0.18664,3.90718,8.26212,-0.182567,0.0702474,-0.0939178,0
2024-11-29 18:17:34.031,-0.18664,3.90718,8.26212,-0.182567,0.0702474,-0.0939178,0
2024-11-29 18:17:34.031,-0.18664,3.90718,8.26212,-0.182567,0.0702474,-0.0939178,0
2024-11-29 18:17:34.032,-0.205783,3.92393,8.31237,-0.182567,0.0702474,-0.0939178,0
2024-11-29 18:17:34.032,-0.205783,3.92393,8.31237,-0.182567,0.0702474,-0.0939178,0
2024-11-29 18:17:34.032,-0.205783,3.92393,8.31237,-0.182567,0.0702474,-0.0939178,0
2024-11-29 18:17:34.032,-0.205783,3.92393,8.31237,-0.182567,0.0702474,-0.0939178,0
2024-11-29 18:17:34.032,-0.205783,3.92393,8.31237,-0.182567,0.0702474,-0.0939178,0
2024-11-29 18:17:34.033,-0.205783,3.92393,8.31237,-0.189897,0.0690257,-0.0933069,0
2024-11-29 18:17:34.033,-0.205783,3.92393,8.31237,-0.189897,0.0690257,-0.0933069,0
2024-11-29 18:17:34.033,-0.205783,3.92393,8.31237,-0.189897,0.0690257,-0.0933069,0
2024-11-29 18:17:34.033,-0.205783,3.92393,8.31237,-0.189897,0.0690257,-0.0933069,0
2024-11-29 18:17:34.033,-0.205783,3.92393,8.31237,-0.189897,0.0690257,-0.0933069,0
2024-11-29 18:17:34.033,-0.205783,3.92393,8.31237,-0.189897,0.0690257,-0.0933069,0
2024-11-29 18:17:34.033,-0.205783,3.92393,8.31237,-0.189897,0.0690257,-0.0933069,0
2024-11-29 18:17:34.034,-0.227318,3.93111,8.35065,-0.189897,0.0690257,-0.0933069,0
2024-11-29 18:17:34.037,-0.248854,3.94307,8.39851,-0.19906,0.0702474,-0.0939178,0
2024-11-29 18:17:34.039,-0.263211,3.96939,8.44876,-0.205168,0.067804,-0.0945286,0
2024-11-29 18:17:34.042,-0.272782,3.99093,8.49422,-0.217385,0.0659715,-0.0896418,0
2024-11-29 18:17:34.045,-0.285045,4.01007,8.5349,-0.222272,0.064139,-0.089031,0
2024-11-29 18:17:34.046,-0.299402,4.02921,8.59233,-0.222272,0.064139,-0.089031,0
2024-11-29 18:17:34.049,-0.308973,4.05554,8.64736,-0.228991,0.0629173,-0.0859767,0
2024-11-29 18:17:34.052,-0.313759,4.06989,8.68804,-0.230824,0.0610847,-0.0829225,0
2024-11-29 18:17:34.053,-0.308973,4.08425,8.7362,-0.237543,0.0592522,-0.0792574,0
2024-11-29 18:17:34.056,-0.289831,4.08425,8.78405,-0.240597,0.0549763,-0.0749815,0
2024-11-29 18:17:34.058,-0.270389,4.08425,8.84148,-0.244873,0.0476461,-0.0725381,0
2024-11-29 18:17:34.060,-0.258425,4.09621,8.90609,-0.247928,0.0415376,-0.068873,0
2024-11-29 18:17:34.063,-0.244068,4.101,8.97069,-0.250982,0.0335966,-0.0645971,0
2024-11-29 18:17:34.066,-0.236889,4.10818,9.02333,-0.252814,0.0268773,-0.0597103,0
2024-11-29 18:17:34.067,-0.244068,4.12014,9.07119,-0.255869,0.0171037,-0.0578778,0
2024-11-29 18:17:34.071,-0.239282,4.12732,9.1358,-0.26381,-0.000610847,-0.0511585,0
2024-11-29 18:17:34.073,-0.222533,4.12732,9.21715,-0.268086,-0.0109953,-0.0493259,0
2024-11-29 18:17:34.077,-0.150748,4.13928,9.39452,-0.274194,-0.0213797,-0.0493259,0
2024-11-29 18:17:34.078,-0.150748,4.13928,9.39452,-0.274194,-0.0213797,-0.0493259,0
2024-11-29 18:17:34.079,-0.114855,4.14886,9.49981,-0.275416,-0.0354291,-0.0468825,0
2024-11-29 18:17:34.082,-0.0789631,4.15843,9.61466,-0.276637,-0.0452027,-0.0438283,0
2024-11-29 18:17:34.085,-0.0574277,4.168,9.72234,-0.275416,-0.0549763,-0.0432174,0
2024-11-29 18:17:34.086,-0.0454636,4.168,9.84467,-0.276637,-0.0671932,-0.0419957,0
2024-11-29 18:17:34.089,-0.0311067,4.16561,9.97867,-0.276637,-0.0775776,-0.0395524,0
2024-11-29 18:17:34.091,-0.00717847,4.15603,10.1055,-0.274194,-0.0873512,-0.0377198,0
2024-11-29 18:17:34.094,0.00239282,4.13689,10.2491,-0.268696,-0.0983464,-0.0364981,0
2024-11-29 18:17:34.096,0.0143569,4.14646,10.3929,-0.26381,-0.108731,-0.0346656,0
2024-11-29 18:17:34.098,0.0382852,4.15125,10.5269,-0.255869,-0.120337,-0.0310005,0
2024-11-29 18:17:34.100,0.0526421,4.12732,10.6585,-0.245484,-0.131943,-0.029168,0
2024-11-29 18:17:34.103,0.0454636,4.11296,10.7806,-0.236322,-0.142938,-0.0273354,0
2024-11-29 18:17:34.105,0.026321,4.09143,10.9122,-0.225326,-0.152712,-0.0206161,0
2024-11-29 18:17:34.108,0.00239282,4.07468,11.0536,-0.195395,-0.178978,-0.0114534,0
2024-11-29 18:17:34.111,-0.0119641,4.06511,11.1996,-0.195395,-0.178978,-0.0114534,0
2024-11-29 18:17:34.113,-0.026321,4.05314,11.3575,-0.180124,-0.190584,-0.00473407,0
2024-11-29 18:17:34.114,-0.0382852,4.05314,11.5011,-0.161187,-0.199747,0.0025961,0
2024-11-29 18:17:34.118,-0.066999,4.05554,11.6258,-0.14164,-0.205856,0.00992627,0
2024-11-29 18:17:34.119,-0.11007,4.06271,11.755,-0.117206,-0.211964,0.0178673,0
2024-11-29 18:17:34.122,-0.145962,4.06989,11.8914,-0.0939941,-0.213797,0.0264191,0
2024-11-29 18:17:34.125,-0.177069,4.06989,12.0254,-0.038407,-0.210742,0.0502422,0
2024-11-29 18:17:34.127,-0.205783,4.05793,12.1334,-0.038407,-0.210742,0.0502422,0
2024-11-29 18:17:34.129,-0.212961,4.03161,12.2243,-0.010308,-0.20891,0.06307,0
2024-11-29 18:17:34.132,-0.198604,4.01007,12.2985,0.0519984,-0.20158,0.0881147,0
2024-11-29 18:17:34.134,-0.20339,3.97657,12.3631,0.0868167,-0.195471,0.102164,0
2024-11-29 18:17:34.137,-0.20339,3.91914,12.4205,0.0868167,-0.195471,0.102164,0
2024-11-29 18:17:34.139,-0.193819,3.86411,12.4564,0.149734,-0.182032,0.125376,0
2024-11-29 18:17:34.141,-0.184247,3.81386,12.4564,0.149734,-0.182032,0.125376,0
2024-11-29 18:17:34.144,-0.184247,3.75643,12.4229,0.178444,-0.171648,0.138204,0
2024-11-29 18:17:34.145,-0.179462,3.70379,12.3775,0.205321,-0.15882,0.151643,0
2024-11-29 18:17:34.147,-0.160319,3.65354,12.3153,0.232198,-0.147214,0.165081,0
2024-11-29 18:17:34.151,-0.141177,3.58864,12.2483,0.253578,-0.134997,0.179131,0
2024-11-29 18:17:34.153,-0.11007,3.51924,12.1669,0.285342,-0.11545,0.206619,0
2024-11-29 18:17:34.155,-0.0861416,3.45942,12.076,0.285342,-0.11545,0.206619,0
2024-11-29 18:17:34.157,-0.0861416,3.40917,11.9776,0.296337,-0.106898,0.220669,0
2024-11-29 18:17:34.159,-0.0741775,3.37089,11.8962,0.303057,-0.0977356,0.232886,0
2024-11-29 18:17:34.162,-0.0454636,3.33739,11.8196,0.3055,-0.0922379,0.249989,0
2024-11-29 18:17:34.164,-0.0215354,3.33739,11.7598,0.304278,-0.0836861,0.26465,0
2024-11-29 18:17:34.167,0.0119641,3.34696,11.7239,0.299392,-0.0733017,0.282364,0
2024-11-29 18:17:34.169,0.0502493,3.34696,11.6976,0.293283,-0.0653607,0.298246,0
2024-11-29 18:17:34.172,0.107677,3.35892,11.6976,0.281677,-0.0397051,0.328789,0
2024-11-29 18:17:34.174,0.200997,3.3685,11.7168,0.281677,-0.0397051,0.328789,0
2024-11-29 18:17:34.176,0.282652,3.39482,11.7503,0.273736,-0.023823,0.342227,0
2024-11-29 18:17:34.179,0.34008,3.43789,11.7885,0.260297,0.0152712,0.369715,0
2024-11-29 18:17:34.181,0.407079,3.47139,11.8316,0.256632,0.0366508,0.378267,0
2024-11-29 18:17:34.183,0.478864,3.5001,11.8675,0.256632,0.0366508,0.378267,0
2024-11-29 18:17:34.185,0.548256,3.53599,11.9154,0.249302,0.0610847,0.388041,0
2024-11-29 18:17:34.187,0.632004,3.58385,11.9752,0.243804,0.0830752,0.394149,0
2024-11-29 18:17:34.190,0.710967,3.63649,12.0063,0.239528,0.106898,0.397203,0
2024-11-29 18:17:34.193,0.758824,3.67747,12.0063,0.235863,0.13011,0.399647,0
2024-11-29 18:17:34.194,0.773181,3.71097,12.0159,0.232809,0.152101,0.398425,0
2024-11-29 18:17:34.198,0.792323,3.75404,12.0206,0.221203,0.198525,0.395982,0
2024-11-29 18:17:34.200,0.804287,3.81625,11.9991,0.213873,0.22357,0.393538,0
2024-11-29 18:17:34.202,0.787538,3.87129,11.9752,0.213873,0.22357,0.393538,0
2024-11-29 18:17:34.204,0.768395,3.91914,11.9536,0.206543,0.24495,0.389873,0
2024-11-29 18:17:34.207,0.770788,3.98614,11.9201,0.201656,0.266329,0.389262,0
2024-11-29 18:17:34.209,0.777966,4.04118,11.8843,0.192493,0.287709,0.384986,0
2024-11-29 18:17:34.211,0.754038,4.07229,11.8555,0.183941,0.304813,0.381932,0
2024-11-29 18:17:34.214,0.720539,4.10818,11.8077,0.17539,0.319473,0.379489,0
2024-11-29 18:17:34.216,0.701396,4.13211,11.7646,0.164394,0.327414,0.376435,0
2024-11-29 18:17:34.219,0.696611,4.12493,11.7431,0.138128,0.326192,0.370326,0
2024-11-29 18:17:34.220,0.708575,4.12732,11.7335,0.138128,0.326192,0.370326,0
2024-11-29 18:17:34.223,0.73011,4.14168,11.7287,0.123468,0.316419,0.361774,0
2024-11-29 18:17:34.226,0.76361,4.1345,11.7287,0.0910926,0.277936,0.343449,0
2024-11-29 18:17:34.228,0.799502,4.1345,11.7191,0.0910926,0.277936,0.343449,0
2024-11-29 18:17:34.231,0.830609,4.13928,11.7431,0.0593285,0.21624,0.31535,0
2024-11-29 18:17:34.233,0.876371,4.12014,11.8125,0.0593285,0.21624,0.31535,0
2024-11-29 18:17:34.235,0.936192,4.07468,11.8795,0.0593285,0.21624,0.31535,0
2024-11-29 18:17:34.237,1.01515,4.03161,11.98,0.0275645,0.130721,0.278699,0
2024-11-29 18:17:34.240,1.10369,3.97897,12.1023,0.0110716,0.07208,0.254265,0
2024-11-29 18:17:34.242,1.18026,3.89043,12.2291,-0.00175619,0.00427593,0.227388,0
2024-11-29 18:17:34.247,1.25444,3.68943,12.5306,-0.0396287,-0.240063,0.132096,0
2024-11-29 18:17:34.247,1.35015,3.68943,12.5306,-0.0396287,-0.240063,0.132096,0
2024-11-29 18:17:34.250,1.43659,3.55514,12.6936,-0.0396287,-0.240063,0.132096,0
2024-11-29 18:17:34.251,1.51316,3.4355,12.8898,-0.0500131,-0.327414,0.100332,0
2024-11-29 18:17:34.254,1.58255,3.33739,13.1243,-0.0579541,-0.412933,0.0649025,0
2024-11-29 18:17:34.260,1.72852,3.0332,13.9337,-0.0652843,-0.633449,-0.0310005,0
2024-11-29 18:17:34.261,1.72852,3.0332,13.9337,-0.0652843,-0.633449,-0.0310005,0
2024-11-29 18:17:34.261,1.72852,3.0332,13.9337,-0.0652843,-0.633449,-0.0310005,0
2024-11-29 18:17:34.264,1.74287,2.94706,14.185,-0.0622301,-0.686592,-0.0560452,0
2024-11-29 18:17:34.266,1.7668,2.85374,14.4293,-0.0377962,-0.764781,-0.106135,0
2024-11-29 18:17:34.267,1.8003,2.7676,14.6806,-0.0377962,-0.764781,-0.106135,0
2024-11-29 18:17:34.270,1.83619,2.67906,14.9465,-0.0200816,-0.789215,-0.127514,0
2024-11-29 18:17:34.273,1.85533,2.56421,15.2049,0.0251211,-0.818535,-0.170274,0
2024-11-29 18:17:34.277,1.93669,2.30309,15.612,0.0562743,-0.819757,-0.187377,0
2024-11-29 18:17:34.278,1.93669,2.30309,15.612,0.0562743,-0.819757,-0.187377,0
2024-11-29 18:17:34.279,1.95344,2.17866,15.746,0.0923143,-0.809983,-0.20387,0
2024-11-29 18:17:34.283,1.94148,2.06142,15.8369,0.128965,-0.795323,-0.219141,0
2024-11-29 18:17:34.285,1.89841,1.94865,15.8848,0.165005,-0.770278,-0.230748,0
2024-11-29 18:17:34.286,1.83859,1.84816,15.9015,0.204099,-0.734849,-0.236245,0
2024-11-29 18:17:34.289,1.78355,1.73809,15.8704,0.241361,-0.692701,-0.242354,0
2024-11-29 18:17:34.291,1.73091,1.63041,15.7962,0.279234,-0.643833,-0.242964,1
2024-11-29 18:17:34.293,1.69023,1.52752,15.6933,0.316495,-0.587024,-0.238689,0
2024-11-29 18:17:34.297,1.65434,1.41266,15.545,0.350092,-0.52655,-0.234413,0
2024-11-29 18:17:34.299,1.59691,1.30469,15.3532,0.380023,-0.456914,-0.224639,0
2024-11-29 18:17:34.303,1.37886,1.13719,14.8696,0.436832,-0.31031,-0.193486,0
2024-11-29 18:17:34.304,1.37886,1.13719,14.8696,0.458212,-0.230289,-0.170885,0
2024-11-29 18:17:34.305,1.26879,1.07976,14.6016,0.458212,-0.230289,-0.170885,0
2024-11-29 18:17:34.308,1.18265,1.04387,14.3097,0.477759,-0.147825,-0.144618,0
2024-11-29 18:17:34.310,1.10848,1.00319,14.0151,0.49303,-0.0659715,-0.116519,0
2024-11-29 18:17:34.312,1.03908,0.957727,13.7276,0.500971,0.0146603,-0.0865876,0
2024-11-29 18:17:34.316,0.991227,0.938585,13.4333,0.510134,0.0928488,-0.0542127,0
2024-11-29 18:17:34.322,0.926621,0.940978,12.5976,0.522962,0.312754,0.0361927,0
2024-11-29 18:17:34.323,0.926621,0.940978,12.5976,0.522962,0.312754,0.0361927,0
2024-11-29 18:17:34.323,0.926621,0.940978,12.5976,0.522962,0.312754,0.0361927,0
2024-11-29 18:17:34.326,0.979263,0.952942,12.1238,0.527238,0.433091,0.0850605,0
2024-11-29 18:17:34.326,0.979263,0.952942,12.1238,0.527238,0.433091,0.0850605,0
2024-11-29 18:17:34.329,1.01276,0.969691,11.9225,0.527848,0.48318,0.105829,0
2024-11-29 18:17:34.332,1.04865,0.996012,11.7168,0.529681,0.527161,0.122933,0
2024-11-29 18:17:34.333,1.08455,1.02951,11.5035,0.529681,0.568699,0.132707,0
2024-11-29 18:17:34.337,1.08694,1.1013,11.3121,0.52907,0.606571,0.140648,0
2024-11-29 18:17:34.338,1.11326,1.16112,11.1637,0.5364,0.645666,0.150421,0
2024-11-29 18:17:34.341,1.15872,1.16112,10.989,0.542509,0.687814,0.152254,0
2024-11-29 18:17:34.343,1.18505,1.1659,10.7542,0.546174,0.724465,0.152254,0
2024-11-29 18:17:34.346,1.18983,1.1659,10.5078,0.554726,0.776387,0.147367,0
2024-11-29 18:17:34.349,1.17308,1.14197,10.2562,0.554115,0.798377,0.141258,0
2024-11-29 18:17:34.350,1.13719,1.11326,10.0193,0.554115,0.798377,0.141258,0
2024-11-29 18:17:34.353,1.08933,1.0989,9.81326,0.559002,0.837472,0.127209,0
2024-11-29 18:17:34.356,1.03669,1.08933,9.6003,0.556558,0.857019,0.119268,0
2024-11-29 18:17:34.358,0.979263,1.06062,9.38016,0.556558,0.857019,0.119268,0
2024-11-29 18:17:34.362,0.828216,1.02233,8.9683,0.559612,0.883896,0.103997,0
2024-11-29 18:17:34.363,0.828216,1.02233,8.9683,0.559612,0.883896,0.103997,0
2024-11-29 18:17:34.365,0.74686,1.00798,8.7673,0.560223,0.896113,0.0966666,0
2024-11-29 18:17:34.367,0.663111,0.988834,8.5684,0.562056,0.902221,0.0899473,0
2024-11-29 18:17:34.370,0.572184,0.964906,8.3674,0.556558,0.903443,0.0783412,0
2024-11-29 18:17:34.372,0.471685,0.938585,8.16401,0.556558,0.903443,0.0783412,0
2024-11-29 18:17:34.374,0.364008,0.917049,7.98904,0.556558,0.896113,0.0704001,0
2024-11-29 18:17:34.376,0.244068,0.9003,7.80958,0.551061,0.885729,0.06307,0
2024-11-29 18:17:34.379,0.131605,0.885943,7.63729,0.549839,0.871068,0.0569615,0
2024-11-29 18:17:34.382,0.0167498,0.871586,7.48864,0.546174,0.853964,0.0514639,0
2024-11-29 18:17:34.384,-0.100499,0.857229,7.34028,0.541287,0.831363,0.0459663,0
2024-11-29 18:17:34.385,-0.212961,0.82343,7.20389,0.537011,0.802042,0.0416903,0
2024-11-29 18:17:34.389,-0.325723,0.797109,7.06032,0.529681,0.767835,0.0392469,0
2024-11-29 18:17:34.390,-0.426222,0.777966,6.91885,0.519907,0.727519,0.0361927,0
2024-11-29 18:17:34.393,-0.512363,0.73011,6.79921,0.503415,0.632838,0.0319168,0
2024-11-29 18:17:34.395,-0.596112,0.696611,6.69153,0.503415,0.632838,0.0319168,0
2024-11-29 18:17:34.397,-0.684646,0.651147,6.59103,0.493641,0.577861,0.0282517,0
2024-11-29 18:17:34.400,-0.758824,0.598505,6.5001,0.478981,0.51922,0.0239758,0
2024-11-29 18:17:34.403,-0.809073,0.572184,6.41127,0.447827,0.387888,0.0142022,0
2024-11-29 18:17:34.405,-0.852443,0.531506,6.33709,0.447827,0.387888,0.0142022,0
2024-11-29 18:17:34.407,-0.893121,0.483649,6.28684,0.429502,0.317641,0.0105371,0
2024-11-29 18:17:34.412,-0.969691,0.385544,6.22463,0.386132,0.174702,-0.00167983,0
2024-11-29 18:17:34.412,-0.969691,0.385544,6.22463,0.386132,0.174702,-0.00167983,0
2024-11-29 18:17:34.413,-1.02473,0.364008,6.22702,0.36353,0.104455,-0.0077883,0
2024-11-29 18:17:34.417,-1.07258,0.35683,6.25334,0.317106,-0.0354291,-0.0218378,0
2024-11-29 18:17:34.419,-1.10608,0.347258,6.29641,0.317106,-0.0354291,-0.0218378,0
2024-11-29 18:17:34.422,-1.1324,0.332901,6.37298,0.274347,-0.16615,-0.0310005,0
2024-11-29 18:17:34.423,-1.17308,0.328116,6.45703,0.274347,-0.16615,-0.0310005,0
2024-11-29 18:17:34.425,-1.2018,0.320937,6.54078,0.254189,-0.226624,-0.0340547,0
2024-11-29 18:17:34.428,-1.23051,0.318545,6.6676,0.236474,-0.284044,-0.037109,0
2024-11-29 18:17:34.430,-1.25444,0.320937,6.79681,0.221203,-0.337799,-0.0389415,0
2024-11-29 18:17:34.433,-1.26879,0.277567,6.9332,0.205932,-0.390331,-0.0389415,0
2024-11-29 18:17:34.436,-1.28076,0.251246,7.09382,0.191882,-0.436145,-0.0389415,0
2024-11-29 18:17:34.438,-1.27119,0.246461,7.24457,0.179665,-0.477072,-0.0377198,0
2024-11-29 18:17:34.440,-1.24726,0.20339,7.38575,0.173557,-0.514333,-0.0364981,0
2024-11-29 18:17:34.442,-1.23529,0.160319,7.51735,0.164394,-0.544876,-0.0346656,0
2024-11-29 18:17:34.445,-1.22572,0.124427,7.66601,0.153399,-0.590689,-0.0261137,0
2024-11-29 18:17:34.447,-1.18744,0.081356,7.79761,0.153399,-0.590689,-0.0261137,0
2024-11-29 18:17:34.450,-1.14197,0.0454636,7.89093,0.147901,-0.619399,-0.016951,0
2024-11-29 18:17:34.451,-1.09412,0.00239282,7.9675,0.147901,-0.619399,-0.016951,0
2024-11-29 18:17:34.454,-1.04865,-0.0478565,8.05364,0.14668,-0.629173,-0.0138968,0
2024-11-29 18:17:34.456,-1.0343,-0.0909273,8.1688,0.141793,-0.637725,-0.0108425,0
2024-11-29 18:17:34.458,-1.04626,-0.138784,8.28126,0.13935,-0.645055,-0.00717746,0
2024-11-29 18:17:34.461,-1.05344,-0.16989,8.36979,0.138739,-0.650552,-0.000458135,0
2024-11-29 18:17:34.463,-1.04865,-0.172283,8.44636,0.136295,-0.655439,0.00565034,0
2024-11-29 18:17:34.465,-1.0654,-0.177069,8.51576,0.13263,-0.656661,0.014813,0
2024-11-29 18:17:34.469,-1.08933,-0.177069,8.58036,0.128354,-0.652996,0.0331385,0
2024-11-29 18:17:34.470,-1.10369,-0.174676,8.64018,0.128354,-0.652996,0.0331385,0
2024-11-29 18:17:34.473,-1.11087,-0.16989,8.70748,0.124078,-0.649942,0.0423012,0
2024-11-29 18:17:34.476,-1.11087,-0.165105,8.77209,0.11797,-0.637114,0.0649025,0
2024-11-29 18:17:34.478,-1.10608,-0.162712,8.80798,0.11797,-0.637114,0.0649025,0
2024-11-29 18:17:34.480,-1.08215,-0.157926,8.85105,0.113083,-0.629173,0.0752869,0
2024-11-29 18:17:34.482,-1.05344,-0.167498,8.9013,0.106975,-0.621232,0.0887256,0
2024-11-29 18:17:34.484,-1.02712,-0.157926,8.9348,0.102088,-0.609626,0.09911,0
2024-11-29 18:17:34.487,-0.991227,-0.136391,8.97548,0.0929251,-0.596798,0.108884,0
2024-11-29 18:17:34.489,-0.969691,-0.129212,9.01376,0.0868167,-0.584581,0.118657,0
2024-11-29 18:17:34.491,-0.94337,-0.124427,9.05683,0.0782648,-0.566255,0.129041,0
2024-11-29 18:17:34.494,-0.917049,-0.0933201,9.1023,0.0691021,-0.548541,0.138815,0
2024-11-29 18:17:34.496,-0.895514,-0.0598206,9.13101,0.057496,-0.528994,0.150421,0
2024-11-29 18:17:34.498,-0.881157,-0.0478565,9.16451,0.0489441,-0.508836,0.15714,0
2024-11-29 18:17:34.501,-0.854836,-0.0311067,9.20519,0.041614,-0.486234,0.168747,0
2024-11-29 18:17:34.503,-0.818644,0.00478565,9.25065,0.0330621,-0.462411,0.180964,0
2024-11-29 18:17:34.506,-0.787538,0.0358923,9.29881,0.0238994,-0.437367,0.190737,0
2024-11-29 18:17:34.508,-0.73011,0.0526421,9.29881,0.0147367,-0.408046,0.200511,0
2024-11-29 18:17:34.510,-0.663111,0.066999,9.30599,0.00496313,-0.379336,0.209062,0
2024-11-29 18:17:34.513,-0.612862,0.0717847,9.34427,-0.00419957,-0.351237,0.220058,0
2024-11-29 18:17:34.515,-0.567398,0.0861416,9.36341,-0.0158057,-0.318862,0.22861,0
2024-11-29 18:17:34.518,-0.502792,0.114855,9.35145,-0.0249684,-0.288931,0.234718,0
2024-11-29 18:17:34.521,-0.442971,0.136391,9.33231,-0.0481806,-0.218683,0.248768,0
2024-11-29 18:17:34.523,-0.387936,0.167498,9.32034,-0.0481806,-0.218683,0.248768,0
2024-11-29 18:17:34.525,-0.35683,0.212961,9.30599,-0.0707819,-0.14416,0.259152,0
2024-11-29 18:17:34.527,-0.342473,0.251246,9.28924,-0.0707819,-0.14416,0.259152,0
2024-11-29 18:17:34.529,-0.337687,0.301795,9.25783,-0.0860531,-0.105066,0.266482,0
2024-11-29 18:17:34.532,-0.34008,0.359223,9.22433,-0.0988809,-0.0629173,0.27198,0
2024-11-29 18:17:34.535,-0.344866,0.397508,9.19562,-0.121482,0.0177146,0.282975,0
2024-11-29 18:17:34.537,-0.359223,0.440578,9.1693,-0.121482,0.0177146,0.282975,0
2024-11-29 18:17:34.539,-0.361615,0.486042,9.12144,-0.136753,0.0586413,0.291527,0
2024-11-29 18:17:34.541,-0.371187,0.541077,9.05205,-0.14836,0.0989573,0.297024,0
2024-11-29 18:17:34.545,-0.431007,0.65354,8.89173,-0.17768,0.174091,0.309852,0
2024-11-29 18:17:34.546,-0.431007,0.65354,8.89173,-0.17768,0.174091,0.309852,0
2024-11-29 18:17:34.549,-0.464507,0.701396,8.81994,-0.208223,0.241285,0.320848,0
2024-11-29 18:17:34.550,-0.505185,0.754038,8.75055,-0.208223,0.241285,0.320848,0
2024-11-29 18:17:34.552,-0.56022,0.825823,8.68565,-0.225937,0.27366,0.325734,0
2024-11-29 18:17:34.556,-0.610469,0.914656,8.60429,-0.258923,0.321916,0.335508,0
2024-11-29 18:17:34.557,-0.648754,0.996012,8.53011,-0.258923,0.321916,0.335508,0
2024-11-29 18:17:34.561,-0.696611,1.05823,8.47269,-0.274194,0.343907,0.341616,0
2024-11-29 18:17:34.562,-0.749253,1.12283,8.42004,-0.291298,0.358567,0.345892,0
2024-11-29 18:17:34.565,-0.785145,1.17547,8.37697,-0.309012,0.372617,0.354444,0
2024-11-29 18:17:34.568,-0.799502,1.2329,8.34347,-0.337111,0.384834,0.364218,0
2024-11-29 18:17:34.570,-0.799502,1.28076,8.34108,-0.337111,0.384834,0.364218,0
2024-11-29 18:17:34.571,-0.804287,1.3334,8.35065,-0.352383,0.388499,0.369104,0
2024-11-29 18:17:34.575,-0.80668,1.38126,8.33869,-0.374373,0.386666,0.377656,0
2024-11-29 18:17:34.576,-0.801895,1.41984,8.32194,-0.374373,0.386666,0.377656,0
2024-11-29 18:17:34.579,-0.799502,1.44377,8.31237,-0.387201,0.384223,0.381321,0
2024-11-29 18:17:34.582,-0.794716,1.46052,8.30758,-0.404915,0.374449,0.388041,0
2024-11-29 18:17:34.583,-0.789931,1.5012,8.31476,-0.404915,0.374449,0.388041,0
2024-11-29 18:17:34.586,-0.770788,1.53709,8.32912,-0.412856,0.365287,0.389873,0
2024-11-29 18:17:34.588,-0.766002,1.57059,8.34347,-0.420797,0.354902,0.393538,0
2024-11-29 18:17:34.590,-0.773181,1.61127,8.36501,-0.427517,0.340853,0.397814,0
2024-11-29 18:17:34.593,-0.770788,1.63998,8.39851,-0.431182,0.32436,0.400258,0
2024-11-29 18:17:34.595,-0.766002,1.6663,8.42962,-0.435458,0.304813,0.403312,0
2024-11-29 18:17:34.597,-0.76361,1.69741,8.47269,-0.438512,0.283433,0.410031,0
2024-11-29 18:17:34.601,-0.739681,1.70937,8.5349,-0.442177,0.237009,0.420416,0
2024-11-29 18:17:34.602,-0.706182,1.71894,8.59711,-0.442177,0.237009,0.420416,0
2024-11-29 18:17:34.604,-0.670289,1.75005,8.6665,-0.442177,0.213186,0.426524,0
2024-11-29 18:17:34.607,-0.622433,1.7668,8.74098,-0.439734,0.189974,0.432633,0
2024-11-29 18:17:34.609,-0.586541,1.76919,8.82234,-0.436679,0.164929,0.436909,0
2024-11-29 18:17:34.611,-0.550648,1.79073,8.90848,-0.430571,0.143549,0.441184,0
2024-11-29 18:17:34.614,-0.52672,1.81705,8.99462,-0.424462,0.120948,0.447904,0
2024-11-29 18:17:34.616,-0.495613,1.83619,9.06401,-0.412856,0.103844,0.454623,0
2024-11-29 18:17:34.619,-0.445364,1.84576,9.11905,-0.406137,0.0867403,0.460732,0
2024-11-29 18:17:34.622,-0.3999,1.87687,9.18844,-0.382925,0.0555871,0.471116,0
2024-11-29 18:17:34.624,-0.347258,1.90558,9.25305,-0.368875,0.0415376,0.476003,0
2024-11-29 18:17:34.627,-0.287438,1.92233,9.30359,-0.356658,0.0299315,0.482722,0
2024-11-29 18:17:34.629,-0.229711,1.93669,9.35384,-0.356658,0.0299315,0.482722,0
2024-11-29 18:17:34.630,-0.160319,1.95583,9.39931,-0.34322,0.0213797,0.486387,0
2024-11-29 18:17:34.634,-0.11007,1.99681,9.4352,-0.327949,0.0116061,0.493106,0
2024-11-29 18:17:34.635,-0.0693919,2.02552,9.4687,-0.312677,0.00549763,0.496772,0
2024-11-29 18:17:34.640,0.0382852,2.10927,9.51177,-0.284578,-0.000610847,0.503491,0
2024-11-29 18:17:34.641,0.0382852,2.10927,9.51177,-0.269918,-0.00305424,0.503491,0
2024-11-29 18:17:34.642,0.0861416,2.13559,9.52373,-0.269918,-0.00305424,0.503491,0
2024-11-29 18:17:34.645,0.141177,2.17627,9.52613,-0.25709,-0.00305424,0.507156,0
2024-11-29 18:17:34.648,0.18664,2.22652,9.52373,-0.22777,0.00549763,0.513264,0
2024-11-29 18:17:34.649,0.232104,2.25763,9.52134,-0.22777,0.00549763,0.513264,0
2024-11-29 18:17:34.652,0.289831,2.29113,9.5022,-0.215553,0.0103844,0.515708,0
2024-11-29 18:17:34.654,0.344866,2.32702,9.48066,-0.203947,0.0189363,0.518762,0
2024-11-29 18:17:34.656,0.407079,2.34616,9.46391,-0.192341,0.028099,0.521205,0
2024-11-29 18:17:34.658,0.462114,2.37727,9.43041,-0.1844,0.0348183,0.521816,0
2024-11-29 18:17:34.661,0.52672,2.41316,9.38734,-0.174015,0.0433702,0.520595,0
2024-11-29 18:17:34.664,0.596112,2.44427,9.32992,-0.166685,0.051922,0.521205,0
2024-11-29 18:17:34.667,0.643968,2.48255,9.27488,-0.150192,0.07208,0.518151,0
2024-11-29 18:17:34.668,0.682254,2.50887,9.2363,-0.150192,0.07208,0.518151,0
2024-11-29 18:17:34.670,0.720539,2.54746,9.18605,-0.142862,0.0824644,0.51693,0
2024-11-29 18:17:34.674,0.751645,2.59053,9.13101,-0.140419,0.0940705,0.511432,0
2024-11-29 18:17:34.676,0.768395,2.63121,9.07837,-0.137975,0.105066,0.508378,0
2024-11-29 18:17:34.678,0.797109,2.67189,9.01137,-0.134921,0.11545,0.503491,0
2024-11-29 18:17:34.681,0.833001,2.71256,8.95634,-0.133699,0.139884,0.493106,0
2024-11-29 18:17:34.683,0.854836,2.76521,8.90609,-0.133699,0.139884,0.493106,0
2024-11-29 18:17:34.684,0.878764,2.8011,8.84148,-0.135532,0.150268,0.483944,0
2024-11-29 18:17:34.687,0.88355,2.83699,8.79841,-0.137975,0.15882,0.477224,0
2024-11-29 18:17:34.689,0.893121,2.87288,8.7673,-0.141029,0.166761,0.470505,0
2024-11-29 18:17:34.692,0.912264,2.90399,8.73141,-0.145305,0.173481,0.460121,0
2024-11-29 18:17:34.695,0.931406,2.94227,8.68325,-0.153857,0.185698,0.443017,0
2024-11-29 18:17:34.696,0.924228,2.98295,8.64018,-0.153857,0.185698,0.443017,0
2024-11-29 18:17:34.700,0.905085,3.04277,8.62583,-0.160576,0.191806,0.431411,0
2024-11-29 18:17:34.701,0.895514,3.09332,8.62343,-0.164852,0.197304,0.424692,0
2024-11-29 18:17:34.703,0.895514,3.12443,8.62343,-0.169128,0.206466,0.416751,0
2024-11-29 18:17:34.706,0.878764,3.15553,8.61386,-0.172793,0.213797,0.40942,0
2024-11-29 18:17:34.708,0.852443,3.18903,8.61625,-0.175237,0.220516,0.40209,0
2024-11-29 18:17:34.710,0.837787,3.22732,8.61625,-0.176459,0.227235,0.397203,0
2024-11-29 18:17:34.714,0.833001,3.27278,8.63301,-0.180124,0.2309,0.389873,0
2024-11-29 18:17:34.716,0.830609,3.30868,8.65933,-0.183178,0.232122,0.376435,0
2024-11-29 18:17:34.718,0.816252,3.34218,8.67368,-0.183178,0.232122,0.376435,0
2024-11-29 18:17:34.720,0.80668,3.37567,8.7027,-0.183178,0.229679,0.37277,0
2024-11-29 18:17:34.722,0.801895,3.40439,8.72423,-0.182567,0.226013,0.36605,0
2024-11-29 18:17:34.725,0.794716,3.43071,8.74337,-0.179513,0.221738,0.361163,0
2024-11-29 18:17:34.727,0.787538,3.45942,8.77209,-0.175237,0.213797,0.356277,0
2024-11-29 18:17:34.730,0.780359,3.48814,8.79841,-0.166074,0.194249,0.352001,0
2024-11-29 18:17:34.733,0.777966,3.52403,8.8343,-0.166074,0.194249,0.352001,0
2024-11-29 18:17:34.734,0.775574,3.57428,8.88934,-0.160576,0.182032,0.348946,0
2024-11-29 18:17:34.737,0.775574,3.59821,8.94198,-0.155079,0.167372,0.346503,0
2024-11-29 18:17:34.740,0.76361,3.62931,8.97548,-0.145305,0.153934,0.345892,0
2024-11-29 18:17:34.741,0.775574,3.66072,9.00658,-0.137364,0.139273,0.343449,0
2024-11-29 18:17:34.744,0.813859,3.68226,9.04965,-0.120871,0.105066,0.339173,0
2024-11-29 18:17:34.747,0.842872,3.71336,9.10708,-0.120871,0.105066,0.339173,0
2024-11-29 18:17:34.748,0.885943,3.75404,9.16212,-0.11232,0.0904054,0.336119,0
2024-11-29 18:17:34.751,0.912264,3.77079,9.2004,-0.101935,0.0714691,0.334897,0
2024-11-29 18:17:34.754,0.936192,3.79711,9.23869,-0.0848314,0.0384834,0.325123,0
2024-11-29 18:17:34.755,0.967299,3.8354,9.28445,-0.0848314,0.0384834,0.325123,0
2024-11-29 18:17:34.758,1.02233,3.86172,9.35145,-0.0750579,0.0207688,0.319626,0
2024-11-29 18:17:34.761,1.06062,3.88804,9.41127,-0.0567324,-0.0128278,0.308631,0
2024-11-29 18:17:34.763,1.07498,3.91436,9.47109,-0.0420721,-0.0323749,0.302522,0
2024-11-29 18:17:34.765,1.10848,3.94547,9.55484,-0.0420721,-0.0323749,0.302522,0
2024-11-29 18:17:34.767,1.13958,3.98136,9.64577,-0.0341311,-0.0525329,0.29397,0
2024-11-29 18:17:34.770,1.18026,4.01964,9.73669,-0.0206925,-0.0739125,0.28664,0
2024-11-29 18:17:34.773,1.22572,4.04357,9.83271,0.00557398,-0.116672,0.268926,0
2024-11-29 18:17:34.774,1.25922,4.0675,9.92363,0.00557398,-0.116672,0.268926,0
2024-11-29 18:17:34.776,1.28554,4.10339,10.0026,0.0208452,-0.138662,0.258541,0
2024-11-29 18:17:34.780,1.30469,4.12971,10.0768,0.0513875,-0.177757,0.235329,0
2024-11-29 18:17:34.781,1.33101,4.15364,10.1414,0.0513875,-0.177757,0.235329,0
2024-11-29 18:17:34.783,1.34536,4.17996,10.2012,0.0684913,-0.196693,0.224945,0
2024-11-29 18:17:34.787,1.34776,4.19432,10.2658,0.101477,-0.229068,0.1999,0
2024-11-29 18:17:34.788,1.35733,4.21137,10.3208,0.101477,-0.229068,0.1999,0
2024-11-29 18:17:34.791,1.3669,4.2329,10.3567,0.11797,-0.246782,0.18585,0
2024-11-29 18:17:34.793,1.37647,4.24726,10.3834,0.133852,-0.258388,0.175466,0
2024-11-29 18:17:34.795,1.36929,4.25922,10.4336,0.147291,-0.273049,0.165081,0
2024-11-29 18:17:34.798,1.36451,4.2688,10.4671,0.163173,-0.286487,0.151032,0
2024-11-29 18:17:34.800,1.35733,4.28076,10.4767,0.176,-0.299926,0.136983,0
2024-11-29 18:17:34.802,1.35733,4.29033,10.4982,0.187606,-0.315808,0.124766,0
2024-11-29 18:17:34.806,1.37408,4.29033,10.5269,0.207154,-0.34635,0.0984991,0
2024-11-29 18:17:34.807,1.38844,4.27837,10.5532,0.207154,-0.34635,0.0984991,0
2024-11-29 18:17:34.810,1.38604,4.27597,10.5796,0.215095,-0.359789,0.0826171,0
2024-11-29 18:17:34.813,1.38844,4.27597,10.6011,0.223036,-0.374449,0.0691785,0
2024-11-29 18:17:34.814,1.4004,4.27597,10.6322,0.227922,-0.389721,0.0545181,0
2024-11-29 18:17:34.817,1.3669,4.27597,10.6609,0.236474,-0.410489,0.0233649,0
2024-11-29 18:17:34.819,1.34058,4.28555,10.6968,0.236474,-0.410489,0.0233649,0
2024-11-29 18:17:34.822,1.32144,4.2999,10.7399,0.24075,-0.421485,-0.00717746,0
2024-11-29 18:17:34.824,1.28076,4.29751,10.7782,0.24075,-0.421485,-0.00717746,0
2024-11-29 18:17:34.827,1.23529,4.29751,10.826,0.244415,-0.421485,-0.037109,0
2024-11-29 18:17:34.828,1.19462,4.3023,10.8739,0.244415,-0.421485,-0.037109,0
2024-11-29 18:17:34.831,1.1683,4.30469,10.9146,0.245637,-0.421485,-0.0493259,0
2024-11-29 18:17:34.834,1.13958,4.29033,10.9484,0.244415,-0.413544,-0.0737598,0
2024-11-29 18:17:34.835,1.09412,4.26401,10.9795,0.244415,-0.413544,-0.0737598,0
2024-11-29 18:17:34.839,1.05583,4.2329,11.0082,0.242583,-0.397051,-0.0957503,0
2024-11-29 18:17:34.840,1.02712,4.20897,11.0201,0.242583,-0.397051,-0.0957503,0
2024-11-29 18:17:34.842,0.984048,4.18235,11.0393,0.241972,-0.386666,-0.109189,0
2024-11-29 18:17:34.845,0.955334,4.14646,11.0871,0.238307,-0.374449,-0.123238,0
2024-11-29 18:17:34.847,0.909871,4.12014,11.1183,0.237085,-0.363454,-0.134234,0
2024-11-29 18:17:34.850,0.821037,4.09143,11.1326,0.231587,-0.348183,-0.145229,0
2024-11-29 18:17:34.852,0.732503,4.0675,11.1805,0.228533,-0.332912,-0.154392,0
2024-11-29 18:17:34.854,0.648754,4.05554,11.2283,0.225479,-0.317641,-0.162944,0
2024-11-29 18:17:34.857,0.56022,4.03879,11.2618,0.220592,-0.303591,-0.170274,0
2024-11-29 18:17:34.860,0.469292,4.02921,11.3049,0.219371,-0.289542,-0.17516,0
2024-11-29 18:17:34.861,0.383151,4.01486,11.348,0.215095,-0.274881,-0.176382,0
2024-11-29 18:17:34.864,0.313759,3.98136,11.3934,0.213873,-0.265108,-0.176382,0
2024-11-29 18:17:34.866,0.263211,3.95025,11.4293,0.210819,-0.255334,-0.175771,0
2024-11-29 18:17:34.868,0.229711,3.91436,11.4628,0.208375,-0.250447,-0.17455,0
2024-11-29 18:17:34.871,0.191426,3.84736,11.4963,0.206543,-0.246782,-0.172106,0
2024-11-29 18:17:34.873,0.174676,3.78993,11.5397,0.20471,-0.246171,-0.168441,0
2024-11-29 18:17:34.876,0.167498,3.73968,11.5923,0.205321,-0.242506,-0.165998,0
2024-11-29 18:17:34.879,0.153141,3.67986,11.645,0.203488,-0.244339,-0.163554,0
2024-11-29 18:17:34.880,0.150748,3.62453,11.6976,0.20471,-0.242506,-0.158057,0
2024-11-29 18:17:34.882,0.157926,3.57906,11.7574,0.207764,-0.241285,-0.15317,0
2024-11-29 18:17:34.886,0.167498,3.53599,11.8196,0.216316,-0.235176,-0.143396,0
2024-11-29 18:17:34.887,0.184247,3.48096,11.8866,0.216316,-0.235176,-0.143396,0
2024-11-29 18:17:34.889,0.18664,3.4355,11.9393,0.224257,-0.229068,-0.140342,0
2024-11-29 18:17:34.893,0.189033,3.40917,11.9752,0.232809,-0.222348,-0.133623,0
2024-11-29 18:17:34.895,0.198604,3.38525,12.023,0.242583,-0.215629,-0.128736,0
2024-11-29 18:17:34.897,0.210568,3.36371,12.0446,0.257243,-0.208299,-0.123238,0
2024-11-29 18:17:34.899,0.217747,3.34218,12.0541,0.268849,-0.204023,-0.119573,0
2024-11-29 18:17:34.902,0.198604,3.31825,12.047,0.279844,-0.191806,-0.115297,0
2024-11-29 18:17:34.904,0.179462,3.30389,12.0039,0.291451,-0.182643,-0.107356,0
2024-11-29 18:17:34.906,0.167498,3.29432,11.9584,0.301835,-0.172259,-0.101859,0
2024-11-29 18:17:34.909,0.141177,3.29193,11.8962,0.310387,-0.161875,-0.0963612,0
2024-11-29 18:17:34.912,0.0981057,3.27996,11.8005,0.317717,-0.149047,-0.0914744,0
2024-11-29 18:17:34.913,0.066999,3.27039,11.7024,0.318939,-0.141106,-0.0853659,0
2024-11-29 18:17:34.916,0.0454636,3.24646,11.621,0.32016,-0.134997,-0.0786466,0
2024-11-29 18:17:34.919,0.0454636,3.20818,11.5253,0.315274,-0.135608,-0.0707056,0
2024-11-29 18:17:34.921,0.081356,3.19143,11.415,0.296337,-0.145382,-0.0652079,0
2024-11-29 18:17:34.923,0.11007,3.17228,11.2953,0.279234,-0.157599,-0.0633754,0
2024-11-29 18:17:34.926,0.157926,3.14596,11.1685,0.257243,-0.176535,-0.0664296,0
2024-11-29 18:17:34.927,0.239282,3.11246,11.0608,0.257243,-0.176535,-0.0664296,0
2024-11-29 18:17:34.930,0.342473,3.07149,10.9747,0.230977,-0.199136,-0.0694839,0
2024-11-29 18:17:34.932,0.469292,3.03559,10.917,0.201656,-0.232122,-0.0786466,0
2024-11-29 18:17:34.935,0.615255,2.99013,10.8882,0.166838,-0.269994,-0.0914744,0
2024-11-29 18:17:34.937,0.775574,2.94227,10.8643,0.126522,-0.318862,-0.111021,0
2024-11-29 18:17:34.939,0.931406,2.89442,10.8571,0.0825407,-0.374449,-0.134234,0
2024-11-29 18:17:34.941,1.0989,2.84656,10.8882,0.0342838,-0.433702,-0.1605,0
2024-11-29 18:17:34.945,1.26879,2.81067,10.9699,-0.0139731,-0.496619,-0.189821,0
2024-11-29 18:17:34.946,1.45334,2.76281,11.1135,-0.0683385,-0.564423,-0.222807,0
2024-11-29 18:17:34.948,1.61845,2.70299,11.3169,-0.122704,-0.633449,-0.259457,0
2024-11-29 18:17:34.952,1.78594,2.62403,11.5684,-0.222883,-0.763559,-0.337646,0
2024-11-29 18:17:34.953,1.97288,2.52323,11.8388,-0.222883,-0.763559,-0.337646,0
2024-11-29 18:17:34.956,2.15474,2.42991,12.1095,-0.318175,-0.86496,-0.423775,0
2024-11-29 18:17:34.959,2.33181,2.33659,12.3918,-0.318175,-0.86496,-0.423775,0
2024-11-29 18:17:34.960,2.51366,2.22891,12.6817,-0.360324,-0.900389,-0.4702,0
2024-11-29 18:17:34.963,2.66949,2.12363,12.964,-0.396974,-0.926655,-0.517235,0
2024-11-29 18:17:34.965,2.81306,2.00399,13.2826,-0.432404,-0.945592,-0.567935,0
2024-11-29 18:17:34.967,2.94467,1.87208,13.6463,-0.460502,-0.956587,-0.618636,0
2024-11-29 18:17:34.970,3.01645,1.77159,14.0127,-0.479439,-0.960252,-0.671779,0
2024-11-29 18:17:34.972,3.05474,1.67109,14.3504,-0.491656,-0.954754,-0.720647,0
2024-11-29 18:17:34.975,3.06192,1.57298,14.6662,-0.498375,-0.937651,-0.768293,0
2024-11-29 18:17:34.977,3.04277,1.46291,14.9919,-0.500208,-0.914438,-0.815328,0
2024-11-29 18:17:34.979,3.01167,1.33101,15.3174,-0.493488,-0.880231,-0.857477,0
2024-11-29 18:17:34.982,2.97338,1.19462,15.6383,-0.476995,-0.834417,-0.897182,0
2024-11-29 18:17:34.985,2.91356,1.04148,15.9135,-0.415911,-0.714691,-0.961932,0
2024-11-29 18:17:34.986,2.82981,0.873978,16.1339,-0.415911,-0.714691,-0.961932,0
2024-11-29 18:17:34.989,2.74367,0.689432,16.3014,-0.378038,-0.639557,-0.990031,0
2024-11-29 18:17:34.992,2.64317,0.517149,16.3923,-0.331003,-0.549763,-1.01324,1
2024-11-29 18:17:34.993,2.50648,0.349651,16.4163,-0.277248,-0.450805,-1.02912,0
2024-11-29 18:17:34.996,2.33898,0.174676,16.3852,-0.219218,-0.337799,-1.04012,0
2024-11-29 18:17:34.999,2.14756,0.0287139,16.2847,-0.154468,-0.210131,-1.04562,0
2024-11-29 18:17:35.001,1.92473,-0.119641,16.1339,-0.0219141,0.0659715,-1.03218,0
2024-11-29 18:17:35.003,1.69502,-0.277567,15.9326,-0.0219141,0.0659715,-1.03218,0
2024-11-29 18:17:35.005,1.47009,-0.419043,15.6455,0.0477224,0.212575,-1.0163,0
2024-11-29 18:17:35.008,1.24487,-0.565005,15.303,0.113694,0.362843,-0.995528,0
2024-11-29 18:17:35.010,1.01755,-0.679861,14.9225,0.177222,0.511279,-0.963153,0
2024-11-29 18:17:35.012,0.766002,-0.761217,14.5131,0.238307,0.654828,-0.925892,0
2024-11-29 18:17:35.015,0.474078,-0.799502,14.0749,0.344594,0.932764,-0.833043,0
2024-11-29 18:17:35.017,0.16989,-0.792323,13.6104,0.344594,0.932764,-0.833043,0
2024-11-29 18:17:35.019,-0.100499,-0.785145,13.1243,0.385521,1.05921,-0.78051,0
2024-11-29 18:17:35.022,-0.311366,-0.766002,12.612,0.427059,1.17771,-0.723701,0
2024-11-29 18:17:35.025,-0.483649,-0.749253,12.0903,0.484478,1.3757,-0.602754,0
2024-11-29 18:17:35.026,-0.639183,-0.739681,11.6043,0.484478,1.3757,-0.602754,0
2024-11-29 18:17:35.029,-0.782752,-0.73011,11.1111,0.504636,1.45817,-0.54228,0
2024-11-29 18:17:35.032,-0.893121,-0.708575,10.6107,0.527238,1.58339,-0.418278,0
2024-11-29 18:17:35.033,-0.964906,-0.682254,10.1486,0.527238,1.58339,-0.418278,0
2024-11-29 18:17:35.036,-1.01037,-0.655932,9.72712,0.530903,1.62432,-0.358415,0
2024-11-29 18:17:35.038,-1.01037,-0.624826,9.32992,0.526627,1.65181,-0.299773,0
2024-11-29 18:17:35.040,-0.981655,-0.598505,8.95394,0.518075,1.66647,-0.247851,0
2024-11-29 18:17:35.043,-0.938585,-0.569791,8.62104,0.506469,1.66891,-0.200205,0
2024-11-29 18:17:35.045,-0.878764,-0.519542,8.30758,0.489976,1.65669,-0.152559,0
2024-11-29 18:17:35.048,-0.797109,-0.469292,8.02732,0.467375,1.63104,-0.110411,0
2024-11-29 18:17:35.051,-0.696611,-0.41665,7.78804,0.445995,1.59744,-0.0749815,0
2024-11-29 18:17:35.052,-0.555434,-0.344866,7.57747,0.417896,1.5498,-0.0407741,0
2024-11-29 18:17:35.054,-0.385544,-0.275175,7.41207,0.386132,1.48749,-0.0138968,0
2024-11-29 18:17:35.058,-0.224925,-0.212961,7.28525,0.354368,1.41846,0.00931542,0
2024-11-29 18:17:35.059,-0.0478565,-0.150748,7.18953,0.32016,1.34089,0.0245866,0
2024-11-29 18:17:35.062,0.129212,-0.066999,7.1345,0.286564,1.25407,0.034971,0
2024-11-29 18:17:35.064,0.308973,0.0215354,7.14646,0.2548,1.16183,0.042912,0
2024-11-29 18:17:35.066,0.514756,0.100499,7.19193,0.224257,1.06532,0.0423012,0
2024-11-29 18:17:35.071,0.862014,0.289831,7.42882,0.176,0.866181,0.0331385,0
2024-11-29 18:17:35.072,0.862014,0.289831,7.42882,0.155842,0.768446,0.0221432,0
2024-11-29 18:17:35.074,1.04865,0.380758,7.56999,0.155842,0.768446,0.0221432,0
2024-11-29 18:17:35.075,1.22094,0.464507,7.71625,0.143625,0.671321,0.00687203,0
2024-11-29 18:17:35.079,1.3669,0.52672,7.88136,0.133241,0.485624,-0.0316113,0
2024-11-29 18:17:35.080,1.51555,0.579362,8.06561,0.133241,0.485624,-0.0316113,0
2024-11-29 18:17:35.083,1.65912,0.627219,8.24776,0.136295,0.400105,-0.0578778,0
2024-11-29 18:17:35.085,1.78355,0.651147,8.4009,0.142404,0.318862,-0.0835334,0
2024-11-29 18:17:35.087,1.90319,0.677468,8.54208,0.153399,0.240674,-0.112243,0
2024-11-29 18:17:35.091,2.00399,0.703789,8.68086,0.172335,0.170426,-0.141564,0
2024-11-29 18:17:35.092,2.07338,0.715753,8.77687,0.188828,0.105066,-0.172106,0
2024-11-29 18:17:35.095,2.10209,0.73011,8.84148,0.210819,0.0488678,-0.201427,0
2024-11-29 18:17:35.098,2.11167,0.732503,8.87498,0.252356,-0.0452027,-0.256403,0
2024-11-29 18:17:35.099,2.09731,0.73011,8.87737,0.252356,-0.0452027,-0.256403,0
2024-11-29 18:17:35.102,2.05902,0.749253,8.87259,0.277401,-0.087962,-0.282059,0
2024-11-29 18:17:35.105,2.01595,0.751645,8.8343,0.317106,-0.153934,-0.324207,0
2024-11-29 18:17:35.106,1.95823,0.725324,8.75534,0.317106,-0.153934,-0.324207,0
2024-11-29 18:17:35.109,1.87687,0.720539,8.66411,0.335431,-0.182032,-0.344365,0
2024-11-29 18:17:35.112,1.77398,0.725324,8.55404,0.358644,-0.232733,-0.374907,0
2024-11-29 18:17:35.113,1.65434,0.720539,8.42004,0.358644,-0.232733,-0.374907,0
2024-11-29 18:17:35.116,1.5347,0.708575,8.27887,0.36353,-0.255945,-0.387735,0
2024-11-29 18:17:35.118,1.43181,0.689432,8.13769,0.364141,-0.277936,-0.39812,0
2024-11-29 18:17:35.121,1.34536,0.667897,7.99861,0.3562,-0.321306,-0.413391,0
2024-11-29 18:17:35.124,1.26162,0.646361,7.86461,0.3562,-0.321306,-0.413391,0
2024-11-29 18:17:35.125,1.17308,0.651147,7.75693,0.347038,-0.345129,-0.417667,0
2024-11-29 18:17:35.128,1.08455,0.667897,7.6995,0.318939,-0.387277,-0.426219,0
2024-11-29 18:17:35.130,0.988834,0.689432,7.64447,0.318939,-0.387277,-0.426219,0
2024-11-29 18:17:35.132,0.914656,0.725324,7.6014,0.3055,-0.408046,-0.42683,0
2024-11-29 18:17:35.135,0.8668,0.754038,7.58465,0.288396,-0.428204,-0.42744,0
2024-11-29 18:17:35.137,0.842872,0.777966,7.58944,0.271903,-0.444697,-0.42683,0
2024-11-29 18:17:35.140,0.821037,0.804287,7.60618,0.253578,-0.458746,-0.42744,0
2024-11-29 18:17:35.142,0.780359,0.830609,7.62054,0.235863,-0.467298,-0.42744,0
2024-11-29 18:17:35.145,0.737288,0.859622,7.63251,0.20471,-0.472796,-0.424386,0
2024-11-29 18:17:35.147,0.696611,0.909871,7.63968,0.188828,-0.470352,-0.424997,0
2024-11-29 18:17:35.149,0.643968,0.94337,7.65643,0.188828,-0.470352,-0.424997,0
2024-11-29 18:17:35.151,0.600898,0.936192,7.67318,0.172335,-0.467298,-0.424386,0
2024-11-29 18:17:35.154,0.562612,0.938585,7.68993,0.140571,-0.455081,-0.421943,0
2024-11-29 18:17:35.157,0.531506,0.967299,7.69711,0.121635,-0.445919,-0.418278,0
2024-11-29 18:17:35.158,0.502792,0.99362,7.71625,0.121635,-0.445919,-0.418278,0
2024-11-29 18:17:35.160,0.464507,1.02712,7.75215,0.106364,-0.435534,-0.415223,0
2024-11-29 18:17:35.164,0.4334,1.06301,7.78086,0.0898709,-0.423317,-0.409726,0
2024-11-29 18:17:35.165,0.407079,1.09412,7.8,0.0709346,-0.408046,-0.406672,0
2024-11-29 18:17:35.167,0.380758,1.12044,7.80718,0.0568851,-0.388499,-0.403617,0
2024-11-29 18:17:35.170,0.354437,1.15155,7.81915,0.0410031,-0.368952,-0.396898,0
2024-11-29 18:17:35.172,0.330509,1.18983,7.84547,0.0263428,-0.344518,-0.388346,0
2024-11-29 18:17:35.175,0.318545,1.22572,7.87897,0.0116825,-0.319473,-0.381016,0
2024-11-29 18:17:35.177,0.294616,1.24726,7.91725,0.00129805,-0.295039,-0.372464,0
2024-11-29 18:17:35.179,0.260818,1.28554,7.96032,-0.00908635,-0.268773,-0.360858,0
2024-11-29 18:17:35.182,0.232104,1.31665,7.98664,-0.0182491,-0.241896,-0.347419,0
2024-11-29 18:17:35.185,0.227318,1.33101,8.01775,-0.0255792,-0.215629,-0.337035,0
2024-11-29 18:17:35.187,0.229711,1.35972,8.05843,-0.0280226,-0.186919,-0.32604,0
2024-11-29 18:17:35.192,0.260818,1.39801,8.09432,-0.038407,-0.131332,-0.298552,0
2024-11-29 18:17:35.192,0.260818,1.39801,8.09432,-0.038407,-0.131332,-0.298552,0
2024-11-29 18:17:35.194,0.289831,1.42223,8.1015,-0.0359636,-0.080021,-0.273507,0
2024-11-29 18:17:35.197,0.32333,1.4342,8.1015,-0.0359636,-0.080021,-0.273507,0
2024-11-29 18:17:35.199,0.344866,1.44616,8.09193,-0.0353528,-0.0580305,-0.260068,0
2024-11-29 18:17:35.200,0.366401,1.48205,8.07757,-0.0335202,-0.0372617,-0.248462,0
2024-11-29 18:17:35.204,0.385544,1.50359,8.05364,-0.0316877,-0.020158,-0.238078,0
2024-11-29 18:17:35.206,0.3999,1.52752,8.03211,-0.0292443,-0.00305424,-0.227693,0
2024-11-29 18:17:35.208,0.423829,1.57298,8.02014,-0.0274118,0.0103844,-0.214255,0
2024-11-29 18:17:35.210,0.435793,1.62802,7.99621,-0.0231358,0.023823,-0.205703,0
2024-11-29 18:17:35.212,0.431007,1.68784,7.96511,-0.0213033,0.0366508,-0.195929,0
2024-11-29 18:17:35.215,0.447757,1.72373,7.93639,-0.014584,0.0470352,-0.184934,0
2024-11-29 18:17:35.218,0.474078,1.75244,7.91964,-0.00419957,0.0592522,-0.165998,0
2024-11-29 18:17:35.220,0.507577,1.80509,7.90529,0.00313059,0.064139,-0.158668,0
2024-11-29 18:17:35.222,0.541077,1.84337,7.87897,0.00313059,0.064139,-0.158668,0
2024-11-29 18:17:35.224,0.569791,1.88166,7.87179,0.00923906,0.0659715,-0.152559,0
2024-11-29 18:17:35.226,0.60329,1.92951,7.88854,0.0165692,0.0659715,-0.146451,0
2024-11-29 18:17:35.230,0.641576,1.95105,7.87657,0.0251211,0.0647498,-0.142175,0
2024-11-29 18:17:35.231,0.677468,1.97528,7.85504,0.0342838,0.0610847,-0.13912,0
2024-11-29 18:17:35.234,0.703789,2.00638,7.85025,0.0440574,0.0592522,-0.137288,0
2024-11-29 18:17:35.237,0.739681,2.02792,7.8335,0.0538309,0.0561979,-0.137899,0
2024-11-29 18:17:35.238,0.758824,2.04467,7.8,0.0660479,0.0543654,-0.13851,0
2024-11-29 18:17:35.240,0.777966,2.06381,7.75933,0.0752106,0.0507003,-0.140953,0
2024-11-29 18:17:35.244,0.82343,2.09252,7.73061,0.0843733,0.0464244,-0.144618,0
2024-11-29 18:17:35.245,0.847657,2.11645,7.69233,0.0947577,0.0403159,-0.147061,0
2024-11-29 18:17:35.248,0.854836,2.1332,7.6349,0.102088,0.0335966,-0.151948,0
2024-11-29 18:17:35.250,0.876371,2.13799,7.57239,0.108807,0.023823,-0.156835,0
2024-11-29 18:17:35.252,0.88355,2.15474,7.51735,0.113694,0.0152712,-0.162333,0
2024-11-29 18:17:35.254,0.862014,2.19302,7.46232,0.116137,0.00244339,-0.169052,0
2024-11-29 18:17:35.257,0.835394,2.22174,7.40728,0.119802,-0.00671932,-0.172717,0
2024-11-29 18:17:35.260,0.809073,2.24566,7.37139,0.122246,-0.015882,-0.179436,0
2024-11-29 18:17:35.264,0.773181,2.30548,7.27568,0.121635,-0.0299315,-0.187377,0
2024-11-29 18:17:35.264,0.773181,2.30548,7.27568,0.121635,-0.0299315,-0.187377,0
2024-11-29 18:17:35.266,0.751645,2.32463,7.25653,0.120413,-0.0372617,-0.189821,0
2024-11-29 18:17:35.270,0.734896,2.34138,7.24696,0.117359,-0.0427593,-0.195318,0
2024-11-29 18:17:35.272,0.718146,2.36291,7.23739,0.114916,-0.0482569,-0.197762,0
2024-11-29 18:17:35.274,0.689432,2.39402,7.22782,0.107585,-0.0525329,-0.200816,0
2024-11-29 18:17:35.276,0.658325,2.41555,7.21107,0.107585,-0.0525329,-0.200816,0
2024-11-29 18:17:35.278,0.627219,2.43709,7.19432,0.10331,-0.0488678,-0.206314,0
2024-11-29 18:17:35.280,0.608076,2.4682,7.18475,0.10331,-0.043981,-0.209368,0
2024-11-29 18:17:35.284,0.588933,2.4993,7.15843,0.093536,-0.0274881,-0.209979,0
2024-11-29 18:17:35.286,0.576969,2.51366,7.1345,0.0898709,-0.0164929,-0.209979,0
2024-11-29 18:17:35.287,0.562612,2.53549,7.11536,0.0898709,-0.0164929,-0.209979,0
2024-11-29 18:17:35.290,0.524327,2.54985,7.07707,0.0849841,-0.00427593,-0.208146,0
2024-11-29 18:17:35.293,0.502792,2.56899,7.03879,0.0752106,0.020158,-0.206925,0
2024-11-29 18:17:35.294,0.481256,2.59771,7.02443,0.0752106,0.020158,-0.206925,0
2024-11-29 18:17:35.298,0.454935,2.62403,7.01486,0.0678804,0.0287098,-0.20387,0
2024-11-29 18:17:35.299,0.431007,2.64078,6.98345,0.0599394,0.0409268,-0.200205,0
2024-11-29 18:17:35.303,0.385544,2.65035,6.94756,0.049555,0.0549763,-0.19654,0
2024-11-29 18:17:35.305,0.35683,2.68624,6.92842,0.0348946,0.0769668,-0.187988,0
2024-11-29 18:17:35.306,0.344866,2.71256,6.91645,0.0348946,0.0769668,-0.187988,0
2024-11-29 18:17:35.310,0.332901,2.72931,6.88295,0.013515,0.0983464,-0.178215,0
2024-11-29 18:17:35.312,0.325723,2.75803,6.84945,0.00251974,0.106287,-0.17455,0
2024-11-29 18:17:35.314,0.313759,2.78674,6.83749,0.00251974,0.106287,-0.17455,0
2024-11-29 18:17:35.317,0.299402,2.80828,6.81596,-0.00908635,0.114228,-0.170274,0
2024-11-29 18:17:35.319,0.292223,2.84656,6.80638,-0.0329094,0.13011,-0.162333,0
2024-11-29 18:17:35.321,0.285045,2.88963,6.81356,-0.0329094,0.13011,-0.162333,0
2024-11-29 18:17:35.324,0.265603,2.92552,6.8016,-0.0451263,0.138051,-0.161722,0
2024-11-29 18:17:35.325,0.246461,2.96381,6.79442,-0.0567324,0.14416,-0.156835,0
2024-11-29 18:17:35.328,0.227318,3.00449,6.79681,-0.0567324,0.14416,-0.156835,0
2024-11-29 18:17:35.330,0.212961,3.02602,6.79442,-0.0842206,0.156988,-0.153781,0
2024-11-29 18:17:35.333,0.20339,3.04995,6.80878,-0.0964375,0.162485,-0.15317,0
2024-11-29 18:17:35.335,0.198604,3.09332,6.84706,-0.109876,0.161875,-0.155002,0
2024-11-29 18:17:35.338,0.200997,3.12204,6.8686,-0.137364,0.160042,-0.156224,0
2024-11-29 18:17:35.339,0.20339,3.15075,6.89013,-0.137364,0.160042,-0.156224,0
2024-11-29 18:17:35.344,0.184247,3.21536,6.94038,-0.164852,0.150268,-0.162333,0
2024-11-29 18:17:35.345,0.184247,3.21536,6.94038,-0.180124,0.145992,-0.164776,0
2024-11-29 18:17:35.346,0.155533,3.23928,6.97867,-0.180124,0.145992,-0.164776,0
2024-11-29 18:17:35.349,0.138784,3.28235,7.04118,-0.196006,0.139884,-0.166609,0
2024-11-29 18:17:35.351,0.119641,3.31825,7.09861,-0.208833,0.134997,-0.170885,0
2024-11-29 18:17:35.354,0.0981057,3.34218,7.15843,-0.221661,0.13011,-0.17455,0
2024-11-29 18:17:35.356,0.0717847,3.38525,7.24936,-0.234489,0.123391,-0.176993,0
2024-11-29 18:17:35.358,0.0454636,3.42592,7.34028,-0.246095,0.117283,-0.180658,0
2024-11-29 18:17:35.361,0.0287139,3.44028,7.42642,-0.259534,0.110563,-0.182491,0
2024-11-29 18:17:35.364,0.0119641,3.45703,7.52932,-0.269918,0.105066,-0.183712,0
2024-11-29 18:17:35.366,0.00957129,3.47139,7.62533,-0.27847,0.095903,-0.186767,0
2024-11-29 18:17:35.368,-0.00239282,3.47617,7.71386,-0.288854,0.0855186,-0.18921,0
2024-11-29 18:17:35.371,-0.0287139,3.48335,7.81197,-0.29985,0.0739125,-0.190432,0
2024-11-29 18:17:35.372,-0.0550349,3.48335,7.92682,-0.309012,0.0610847,-0.194097,0
2024-11-29 18:17:35.377,-0.150748,3.50728,8.15923,-0.326116,0.0335966,-0.19654,0
2024-11-29 18:17:35.378,-0.150748,3.50728,8.15923,-0.326116,0.0335966,-0.19654,0
2024-11-29 18:17:35.380,-0.18664,3.50728,8.27169,-0.332225,0.0207688,-0.194097,0
2024-11-29 18:17:35.382,-0.217747,3.51207,8.37219,-0.339555,0.00488678,-0.191653,0
2024-11-29 18:17:35.386,-0.277567,3.51924,8.60429,-0.352383,-0.0299315,-0.18188,0
2024-11-29 18:17:35.386,-0.277567,3.51924,8.60429,-0.352383,-0.0299315,-0.18188,0
2024-11-29 18:17:35.390,-0.316152,3.5336,8.78644,-0.359713,-0.067804,-0.169052,0
2024-11-29 18:17:35.391,-0.35683,3.56471,8.96591,-0.359713,-0.067804,-0.169052,0
2024-11-29 18:17:35.393,-0.3999,3.59581,9.14297,-0.359102,-0.087962,-0.164165,0
2024-11-29 18:17:35.397,-0.438186,3.61017,9.32513,-0.357269,-0.104455,-0.158057,0
2024-11-29 18:17:35.399,-0.464507,3.61974,9.51655,-0.354826,-0.123391,-0.151337,0
2024-11-29 18:17:35.401,-0.490828,3.62453,9.69123,-0.348717,-0.139884,-0.142175,0
2024-11-29 18:17:35.403,-0.521934,3.62453,9.87817,-0.339555,-0.155155,-0.133623,0
2024-11-29 18:17:35.405,-0.538684,3.61256,10.0792,-0.329781,-0.173481,-0.123849,0
2024-11-29 18:17:35.409,-0.550648,3.60299,10.2682,-0.305958,-0.205856,-0.10308,0
2024-11-29 18:17:35.411,-0.557827,3.59342,10.4504,-0.290687,-0.222348,-0.0933069,0
2024-11-29 18:17:35.413,-0.56022,3.56231,10.6633,-0.290687,-0.222348,-0.0933069,0
2024-11-29 18:17:35.416,-0.569791,3.53839,10.8691,-0.254647,-0.254112,-0.0707056,0
2024-11-29 18:17:35.417,-0.562612,3.5336,11.056,-0.254647,-0.254112,-0.0707056,0
2024-11-29 18:17:35.420,-0.565005,3.53599,11.2546,-0.235711,-0.267551,-0.0590995,0
2024-11-29 18:17:35.423,-0.569791,3.51924,11.4437,-0.212498,-0.281601,-0.0499368,0
2024-11-29 18:17:35.424,-0.565005,3.50728,11.6163,-0.188675,-0.290152,-0.0383307,0
2024-11-29 18:17:35.427,-0.562612,3.49771,11.7742,-0.164242,-0.297483,-0.0230595,0
2024-11-29 18:17:35.430,-0.56022,3.48096,11.9321,-0.140419,-0.303591,-0.0114534,0
2024-11-29 18:17:35.432,-0.541077,3.46899,12.0927,-0.086664,-0.304202,0.0123697,0
2024-11-29 18:17:35.433,-0.519542,3.44985,12.2243,-0.086664,-0.304202,0.0123697,0
2024-11-29 18:17:35.437,-0.490828,3.42114,12.3464,-0.0628409,-0.301759,0.0245866,0
2024-11-29 18:17:35.438,-0.457328,3.39003,12.4469,-0.038407,-0.296261,0.0368035,0
2024-11-29 18:17:35.442,-0.428614,3.36132,12.533,0.00557398,-0.277936,0.058794,0
2024-11-29 18:17:35.443,-0.423829,3.32303,12.6362,0.00557398,-0.277936,0.058794,0
2024-11-29 18:17:35.446,-0.435793,3.29193,12.7415,0.0300079,-0.265719,0.0697893,0
2024-11-29 18:17:35.448,-0.421436,3.268,12.8252,0.0519984,-0.250447,0.0813954,0
2024-11-29 18:17:35.450,-0.414257,3.24885,12.8994,0.0678804,-0.231511,0.0930015,0
2024-11-29 18:17:35.452,-0.421436,3.21296,13.0023,0.0843733,-0.211964,0.10644,0
2024-11-29 18:17:35.455,-0.41665,3.17228,13.0956,0.102699,-0.19486,0.122322,0
2024-11-29 18:17:35.458,-0.402293,3.16032,13.1411,0.117359,-0.173481,0.135761,0
2024-11-29 18:17:35.459,-0.385544,3.13161,13.1916,0.13263,-0.153323,0.149199,0
2024-11-29 18:17:35.462,-0.366401,3.09093,13.2586,0.143015,-0.134386,0.164471,0
2024-11-29 18:17:35.464,-0.337687,3.04995,13.3137,0.153399,-0.111174,0.182185,0
2024-11-29 18:17:35.467,-0.292223,2.99731,13.352,0.164394,-0.0910162,0.196846,0
2024-11-29 18:17:35.470,-0.232104,2.94227,13.3902,0.177222,-0.0555871,0.226777,0
2024-11-29 18:17:35.472,-0.16989,2.89442,13.4405,0.177222,-0.0555871,0.226777,0
2024-11-29 18:17:35.475,-0.081356,2.8681,13.4907,0.184552,-0.0274881,0.2506,0
2024-11-29 18:17:35.477,-0.00717847,2.83699,13.5147,0.184552,-0.015882,0.265871,0
2024-11-29 18:17:35.479,0.0574277,2.78435,13.5338,0.184552,-0.000610847,0.275645,0
2024-11-29 18:17:35.481,0.138784,2.75563,13.5769,0.184552,-0.000610847,0.275645,0
2024-11-29 18:17:35.483,0.215354,2.74846,13.6415,0.184552,-0.000610847,0.275645,0
2024-11-29 18:17:35.485,0.292223,2.73171,13.6917,0.182109,0.0274881,0.299468,0
2024-11-29 18:17:35.488,0.364008,2.71496,13.7542,0.179055,0.043981,0.311685,0
2024-11-29 18:17:35.491,0.4334,2.71496,13.8523,0.176611,0.0616956,0.320237,0
2024-11-29 18:17:35.493,0.486042,2.73171,13.9289,0.17539,0.0818535,0.329399,0
2024-11-29 18:17:35.495,0.52672,2.75563,13.9983,0.173557,0.106287,0.339173,0
2024-11-29 18:17:35.498,0.557827,2.79392,14.0868,0.173557,0.133165,0.346503,0
2024-11-29 18:17:35.500,0.576969,2.82503,14.1491,0.174168,0.164929,0.355666,0
2024-11-29 18:17:35.503,0.596112,2.86331,14.228,0.176611,0.200358,0.365439,0
2024-11-29 18:17:35.505,0.598505,2.9351,14.3145,0.183331,0.242506,0.37338,0
2024-11-29 18:17:35.507,0.591326,3.0021,14.3647,0.19005,0.289542,0.381321,0
2024-11-29 18:17:35.509,0.579362,3.05474,14.3982,0.196158,0.343907,0.389873,0
2024-11-29 18:17:35.512,0.550648,3.13161,14.3958,0.206543,0.405603,0.399036,0
2024-11-29 18:17:35.514,0.488435,3.22014,14.3767,0.219371,0.470963,0.407588,0
2024-11-29 18:17:35.517,0.428614,3.29671,14.3145,0.246248,0.620621,0.426524,0
2024-11-29 18:17:35.519,0.375972,3.37567,14.2017,0.246248,0.620621,0.426524,0
2024-11-29 18:17:35.522,0.304188,3.44028,14.0725,0.259076,0.69942,0.437519,0
2024-11-29 18:17:35.524,0.232104,3.47857,13.9002,0.270071,0.776387,0.447904,0
2024-11-29 18:17:35.525,0.150748,3.50728,13.6774,0.278623,0.851521,0.45951,0
2024-11-29 18:17:35.529,0.0765703,3.51924,13.4381,0.279234,0.922379,0.472948,0
2024-11-29 18:17:35.530,0.00478565,3.52164,13.1964,0.279844,0.98774,0.487609,0
2024-11-29 18:17:35.532,-0.0717847,3.5336,12.9209,0.277401,1.04699,0.501047,0
2024-11-29 18:17:35.536,-0.150748,3.53839,12.6168,0.265184,1.0983,0.515708,0
2024-11-29 18:17:35.539,-0.253639,3.54078,12.0039,0.227922,1.1655,0.544418,0
2024-11-29 18:17:35.539,-0.253639,3.54078,12.0039,0.227922,1.1655,0.544418,0
2024-11-29 18:17:35.542,-0.292223,3.54078,11.7407,0.199213,1.18016,0.555413,0
2024-11-29 18:17:35.544,-0.311366,3.53599,11.5035,0.161951,1.17955,0.562743,0
2024-11-29 18:17:35.547,-0.342473,3.61496,11.257,0.120413,1.16489,0.570073,0
2024-11-29 18:17:35.550,-0.299402,3.74447,11.0273,0.013515,1.07815,0.568852,0
2024-11-29 18:17:35.552,-0.136391,3.77557,10.8595,0.013515,1.07815,0.568852,0
2024-11-29 18:17:35.554,0.0143569,3.73968,10.8021,-0.0445155,1.02011,0.556024,0
2024-11-29 18:17:35.557,0.143569,3.68943,10.8882,-0.154468,0.874122,0.51021,0
2024-11-29 18:17:35.559,0.275175,3.66311,10.9962,-0.203947,0.787382,0.479057,0
2024-11-29 18:17:35.561,0.385544,3.65593,11.1446,-0.203947,0.787382,0.479057,0
2024-11-29 18:17:35.564,0.493221,3.64606,11.415,-0.250371,0.684149,0.441795,0
2024-11-29 18:17:35.566,0.612862,3.6341,11.7383,-0.291298,0.563812,0.40209,0
2024-11-29 18:17:35.568,0.722932,3.62931,12.0422,-0.329781,0.431869,0.356277,0
2024-11-29 18:17:35.571,0.845265,3.58864,12.3942,-0.385368,0.143549,0.251822,0
2024-11-29 18:17:35.572,1.01037,3.50728,12.8372,-0.385368,0.143549,0.251822,0
2024-11-29 18:17:35.576,1.17308,3.38285,13.3472,-0.400029,-0.134997,0.139426,0
2024-11-29 18:17:35.578,1.32383,3.22732,13.8882,-0.400029,-0.134997,0.139426,0
2024-11-29 18:17:35.581,1.45573,3.08106,14.3551,-0.393309,-0.262664,0.0820062,0
2024-11-29 18:17:35.583,1.55384,2.94227,14.7691,-0.375595,-0.378725,0.0264191,0
2024-11-29 18:17:35.585,1.59452,2.79871,15.1762,-0.35055,-0.480737,-0.0255029,0
2024-11-29 18:17:35.588,1.58734,2.65274,15.5713,-0.316343,-0.576029,-0.073149,0
2024-11-29 18:17:35.590,1.57298,2.48734,16.0191,-0.269307,-0.660937,-0.11713,0
2024-11-29 18:17:35.592,1.55623,2.28873,16.5745,-0.211277,-0.737293,-0.158668,0
2024-11-29 18:17:35.595,1.54188,2.08295,17.1057,-0.0481806,-0.852743,-0.222807,0
2024-11-29 18:17:35.596,1.52034,1.89362,17.4601,-0.0481806,-0.852743,-0.222807,0
2024-11-29 18:17:35.598,1.45095,1.70937,17.7021,0.0440574,-0.899167,-0.248462,1
2024-11-29 18:17:35.602,1.34058,1.54905,17.872,0.147901,-0.924823,-0.266788,0
2024-11-29 18:17:35.604,1.21376,1.39322,17.9414,0.366585,-0.922379,-0.288167,0
2024-11-29 18:17:35.605,1.08933,1.23769,17.9557,0.366585,-0.922379,-0.288167,0
2024-11-29 18:17:35.609,0.972084,1.0654,17.8983,0.483867,-0.895502,-0.29,0
2024-11-29 18:17:35.610,0.833001,0.876371,17.7021,0.599928,-0.855797,-0.28267,0
2024-11-29 18:17:35.613,0.646361,0.701396,17.4147,0.713546,-0.800821,-0.264955,0
2024-11-29 18:17:35.616,0.490828,0.557827,17.0554,0.931008,-0.643222,-0.208757,0
2024-11-29 18:17:35.618,0.200997,0.531506,16.2559,0.931008,-0.643222,-0.208757,0
2024-11-29 18:17:35.621,-0.026321,0.447757,15.5378,1.0941,-0.425761,-0.1098,0
2024-11-29 18:17:35.622,0.0861416,0.22014,15.3437,1.0941,-0.425761,-0.1098,0
2024-11-29 18:17:35.627,0.00239282,-0.222533,14.6901,1.23704,-0.28832,-0.0175619,0
2024-11-29 18:17:35.628,0.00239282,-0.222533,14.6901,1.30057,-0.228457,0.0294734,0
2024-11-29 18:17:35.630,-0.138784,-0.371187,14.2376,1.30057,-0.228457,0.0294734,0
2024-11-29 18:17:35.631,-0.210568,-0.447757,13.6798,1.35738,-0.15882,0.0765086,0
2024-11-29 18:17:35.635,-0.200997,-0.481256,13.0334,1.40686,-0.0726908,0.122933,0
2024-11-29 18:17:35.636,-0.172283,-0.4669,12.4182,1.44717,0.0256556,0.164471,0
2024-11-29 18:17:35.639,-0.189033,-0.409472,11.822,1.47955,0.125224,0.205397,0
2024-11-29 18:17:35.641,-0.260818,-0.330509,11.214,1.50215,0.218683,0.243881,0
2024-11-29 18:17:35.644,-0.390329,-0.244068,10.5915,1.50581,0.357346,0.322069,0
2024-11-29 18:17:35.646,-0.521934,-0.157926,9.94995,1.50581,0.357346,0.322069,0
2024-11-29 18:17:35.649,-0.615255,-0.066999,9.30599,1.44901,0.433091,0.39476,0
2024-11-29 18:17:35.650,-0.651147,0.0239282,8.70509,1.44901,0.433091,0.39476,0
2024-11-29 18:17:35.654,-0.615255,0.102891,8.17358,1.34272,0.441032,0.451569,0
2024-11-29 18:17:35.656,-0.545863,0.167498,7.71147,1.27186,0.430036,0.471116,0
2024-11-29 18:17:35.658,-0.454935,0.263211,7.27568,1.19489,0.415376,0.485165,0
2024-11-29 18:17:35.660,-0.347258,0.371187,6.88295,1.19489,0.415376,0.485165,0
2024-11-29 18:17:35.663,-0.232104,0.469292,6.55753,1.02325,0.373228,0.494328,0
2024-11-29 18:17:35.665,0.22014,0.409472,6.62453,0.950555,0.30298,0.467451,0
2024-11-29 18:17:35.668,1.34058,0.00717847,7.58465,0.950555,0.30298,0.467451,0
2024-11-29 18:17:35.670,1.67348,-0.11007,7.94597,0.907185,0.215018,0.40881,0
2024-11-29 18:17:35.671,0.857229,0.301795,7.04357,0.861371,0.203412,0.364218,0
2024-11-29 18:17:35.674,0.493221,0.658325,6.5336,0.801508,0.250447,0.334897,0
2024-11-29 18:17:35.676,0.584148,0.926621,6.63171,0.746532,0.300537,0.308631,0
2024-11-29 18:17:35.679,0.521934,1.20658,6.71067,0.698275,0.340853,0.28664,0
2024-11-29 18:17:35.681,0.407079,1.45813,6.72503,0.646964,0.364676,0.267093,0
2024-11-29 18:17:35.683,0.421436,1.64237,6.81117,0.591376,0.364065,0.249989,0
2024-11-29 18:17:35.686,0.428614,1.77637,6.83031,0.537011,0.33902,0.23594,0
2024-11-29 18:17:35.688,0.347258,1.89362,6.67717,0.477759,0.304202,0.223112,0
2024-11-29 18:17:35.691,0.304188,1.97767,6.49292,0.409344,0.270605,0.209673,0
2024-11-29 18:17:35.696,0.404686,2.05424,6.29881,0.21143,0.200358,0.158973,0
2024-11-29 18:17:35.696,0.404686,2.05424,6.29881,0.21143,0.200358,0.158973,0
2024-11-29 18:17:35.698,0.531506,2.07099,6.28445,0.146069,0.182032,0.136372,0
2024-11-29 18:17:35.700,0.694218,2.06142,6.34906,0.146069,0.182032,0.136372,0
2024-11-29 18:17:35.703,0.890728,1.99681,6.51207,0.0898709,0.15882,0.105218,0
2024-11-29 18:17:35.705,1.08215,1.89601,6.72024,0.0379489,0.127056,0.0685676,0
2024-11-29 18:17:35.708,1.21137,1.79312,6.89253,-0.0481806,0.0574196,-0.0230595,0
2024-11-29 18:17:35.710,1.27358,1.71894,7.034,-0.0481806,0.0574196,-0.0230595,0
2024-11-29 18:17:35.711,1.31186,1.64477,7.18714,-0.0848314,0.023823,-0.0743707,0
2024-11-29 18:17:35.715,1.33101,1.55862,7.35703,-0.136753,-0.0403159,-0.183712,0
2024-11-29 18:17:35.717,1.28794,1.49402,7.50539,-0.136753,-0.0403159,-0.183712,0
2024-11-29 18:17:35.718,1.19701,1.43181,7.64208,-0.154468,-0.0708583,-0.236856,0
2024-11-29 18:17:35.721,1.0654,1.37647,7.75933,-0.164242,-0.0971247,-0.286335,0
2024-11-29 18:17:35.723,0.876371,1.35015,7.84068,-0.174015,-0.119115,-0.332148,0
2024-11-29 18:17:35.726,0.646361,1.32383,7.88854,-0.180124,-0.141717,-0.372464,0
2024-11-29 18:17:35.728,0.407079,1.29512,7.92443,-0.186843,-0.159431,-0.404839,0
2024-11-29 18:17:35.730,0.174676,1.27358,7.95314,-0.192341,-0.177146,-0.430495,0
2024-11-29 18:17:35.734,-0.0550349,1.26401,7.96511,-0.196616,-0.19486,-0.450042,0
2024-11-29 18:17:35.736,-0.267996,1.25204,7.97947,-0.203336,-0.211964,-0.462259,0
2024-11-29 18:17:35.737,-0.419043,1.23051,8.02254,-0.208833,-0.232733,-0.469589,0
2024-11-29 18:17:35.740,-0.536291,1.19462,8.08236,-0.213109,-0.251058,-0.472643,0
2024-11-29 18:17:35.742,-0.612862,1.14437,8.13261,-0.218607,-0.269994,-0.470811,0
2024-11-29 18:17:35.745,-0.694218,1.12762,8.18794,-0.22044,-0.285266,-0.467145,0
2024-11-29 18:17:35.748,-0.797109,1.1013,8.24537,-0.219218,-0.298704,-0.461648,0
2024-11-29 18:17:35.749,-0.881157,1.07019,8.3028,-0.218607,-0.310921,-0.452485,0
2024-11-29 18:17:35.752,-0.955334,1.03669,8.35783,-0.215553,-0.317641,-0.442712,0
2024-11-29 18:17:35.754,-1.01755,1.00798,8.40569,-0.211277,-0.322527,-0.429273,0
2024-11-29 18:17:35.757,-1.07737,0.988834,8.4679,-0.203336,-0.33169,-0.414002,0
2024-11-29 18:17:35.759,-1.12522,0.957727,8.50858,-0.194784,-0.336577,-0.399341,0
2024-11-29 18:17:35.761,-1.17547,0.929013,8.53969,-0.18501,-0.338409,-0.382849,0
2024-11-29 18:17:35.763,-1.24487,0.917049,8.55404,-0.172793,-0.339631,-0.360247,0
2024-11-29 18:17:35.767,-1.35015,0.948156,8.43919,-0.157522,-0.317641,-0.309547,0
2024-11-29 18:17:35.769,-1.40788,0.97687,8.37219,-0.149581,-0.305424,-0.28267,0
2024-11-29 18:17:35.770,-1.38126,0.972084,8.44397,-0.149581,-0.305424,-0.28267,0
2024-11-29 18:17:35.774,-1.37647,0.952942,8.48704,-0.130645,-0.293207,-0.225861,0
2024-11-29 18:17:35.776,-1.38126,0.931406,8.5014,-0.130645,-0.293207,-0.225861,0
2024-11-29 18:17:35.778,-1.35972,0.897907,8.49422,-0.121482,-0.282822,-0.19654,0
2024-11-29 18:17:35.781,-1.34776,0.857229,8.45594,-0.0970484,-0.254112,-0.13912,0
2024-11-29 18:17:35.782,-1.31665,0.847657,8.41526,-0.0970484,-0.254112,-0.13912,0
2024-11-29 18:17:35.785,-1.27358,0.845265,8.37937,-0.0842206,-0.229679,-0.110411,0
2024-11-29 18:17:35.787,-1.25204,0.845265,8.34587,-0.0726145,-0.20219,-0.0835334,0
2024-11-29 18:17:35.790,-1.24008,0.859622,8.3028,-0.0573433,-0.17287,-0.0523802,0
2024-11-29 18:17:35.793,-1.23529,0.888335,8.21665,-0.0439046,-0.142938,-0.0224486,0
2024-11-29 18:17:35.794,-1.22572,0.917049,8.11107,-0.0341311,-0.109953,0.00931542,0
2024-11-29 18:17:35.797,-1.1994,0.94337,8.02254,-0.0170274,-0.043981,0.071011,0
2024-11-29 18:17:35.800,-1.17308,0.972084,7.89572,-0.014584,-0.00977356,0.102775,0
2024-11-29 18:17:35.802,-1.15155,1.00798,7.77608,-0.014584,-0.00977356,0.102775,0
2024-11-29 18:17:35.803,-1.11805,1.04387,7.68754,-0.0121406,0.0207688,0.133928,0
2024-11-29 18:17:35.807,-1.07258,1.06301,7.58226,-0.00908635,0.080021,0.191348,0
2024-11-29 18:17:35.808,-1.01755,1.08933,7.47428,-0.00908635,0.080021,0.191348,0
2024-11-29 18:17:35.811,-0.967299,1.12762,7.36182,-0.0139731,0.109342,0.218836,0
2024-11-29 18:17:35.814,-0.905085,1.1659,7.24457,-0.0182491,0.137441,0.241437,0
2024-11-29 18:17:35.816,-0.830609,1.2018,7.14646,-0.0231358,0.163707,0.262817,0
2024-11-29 18:17:35.818,-0.773181,1.25204,7.05554,-0.0274118,0.191195,0.282364,0
2024-11-29 18:17:35.820,-0.73011,1.31665,6.95952,-0.0341311,0.21624,0.298246,0
2024-11-29 18:17:35.822,-0.691825,1.38604,6.87578,-0.0420721,0.238841,0.312296,0
2024-11-29 18:17:35.825,-0.655932,1.44377,6.79681,-0.0500131,0.258999,0.322069,0
2024-11-29 18:17:35.828,-0.610469,1.48684,6.72024,-0.0616192,0.277325,0.333064,0
2024-11-29 18:17:35.829,-0.550648,1.5347,6.63649,-0.0707819,0.293818,0.339784,0
2024-11-29 18:17:35.832,-0.495613,1.57298,6.55514,-0.0817772,0.303591,0.342838,0
2024-11-29 18:17:35.834,-0.454935,1.59452,6.48096,-0.0933833,0.313975,0.342838,0
2024-11-29 18:17:35.840,-0.344866,1.6328,6.29881,-0.140419,0.329858,0.340395,0
2024-11-29 18:17:35.840,-0.344866,1.6328,6.29881,-0.140419,0.329858,0.340395,0
2024-11-29 18:17:35.842,-0.311366,1.67109,6.2007,-0.140419,0.329858,0.340395,0
2024-11-29 18:17:35.844,-0.299402,1.70698,6.10977,-0.160576,0.330468,0.333675,0
2024-11-29 18:17:35.846,-0.27996,1.72373,6.04756,-0.183178,0.329247,0.329399,0
2024-11-29 18:17:35.849,-0.258425,1.74766,5.99731,-0.227159,0.317641,0.318404,0
2024-11-29 18:17:35.850,-0.246461,1.78355,5.96381,-0.227159,0.317641,0.318404,0
2024-11-29 18:17:35.854,-0.246461,1.81944,5.92553,-0.274805,0.293818,0.303744,0
2024-11-29 18:17:35.856,-0.248854,1.86491,5.91596,-0.274805,0.293818,0.303744,0
2024-11-29 18:17:35.857,-0.244068,1.89362,5.9327,-0.29985,0.277936,0.297635,0
2024-11-29 18:17:35.861,-0.236889,1.91037,5.95903,-0.345663,0.240674,0.282975,0
2024-11-29 18:17:35.863,-0.239282,1.95105,5.99492,-0.345663,0.240674,0.282975,0
2024-11-29 18:17:35.865,-0.248854,1.99202,6.04277,-0.365821,0.220516,0.275034,0
2024-11-29 18:17:35.868,-0.248854,2.01835,6.12892,-0.406748,0.175313,0.264039,0
2024-11-29 18:17:35.870,-0.248854,2.05185,6.22702,-0.417743,0.155766,0.257319,0
2024-11-29 18:17:35.873,-0.251246,2.09731,6.31316,-0.430571,0.133776,0.251822,0
2024-11-29 18:17:35.875,-0.248854,2.14277,6.41605,-0.430571,0.133776,0.251822,0
2024-11-29 18:17:35.877,-0.236889,2.1667,6.52642,-0.441566,0.111174,0.246935,0
2024-11-29 18:17:35.879,-0.215354,2.18106,6.64367,-0.450118,0.0904054,0.238994,0
2024-11-29 18:17:35.882,-0.196211,2.2002,6.77288,-0.457448,0.0690257,0.233496,0
2024-11-29 18:17:35.883,-0.196211,2.23609,6.89013,-0.460502,0.0433702,0.227999,0
2024-11-29 18:17:35.887,-0.196211,2.26002,7.01964,-0.459892,-0.00610847,0.218836,0
2024-11-29 18:17:35.889,-0.179462,2.28634,7.16082,-0.459892,-0.00610847,0.218836,0
2024-11-29 18:17:35.890,-0.160319,2.31266,7.30678,-0.45867,-0.0329858,0.217003,0
2024-11-29 18:17:35.894,-0.148355,2.34138,7.42403,-0.453783,-0.0610847,0.215782,0
2024-11-29 18:17:35.896,-0.129212,2.36291,7.53889,-0.448896,-0.087962,0.215171,0
2024-11-29 18:17:35.899,-0.107677,2.37488,7.67797,-0.432404,-0.144771,0.21456,0
2024-11-29 18:17:35.901,-0.0765703,2.42034,7.8024,-0.424462,-0.171648,0.215171,0
2024-11-29 18:17:35.902,-0.0550349,2.46341,7.92922,-0.424462,-0.171648,0.215171,0
2024-11-29 18:17:35.905,-0.0311067,2.4993,8.05125,-0.411024,-0.199747,0.215171,0
2024-11-29 18:17:35.907,0.0143569,2.54507,8.18555,-0.398196,-0.225403,0.218225,0
2024-11-29 18:17:35.909,0.0454636,2.59053,8.32433,-0.379871,-0.249837,0.219447,0
2024-11-29 18:17:35.913,0.0837488,2.63121,8.45354,-0.341998,-0.295039,0.221279,0
2024-11-29 18:17:35.915,0.129212,2.66949,8.6019,-0.319397,-0.315197,0.22189,0
2024-11-29 18:17:35.916,0.172283,2.70778,8.74337,-0.319397,-0.315197,0.22189,0
2024-11-29 18:17:35.919,0.212961,2.76042,8.85105,-0.296185,-0.335355,0.222501,0
2024-11-29 18:17:35.921,0.258425,2.81306,8.94198,-0.269918,-0.35307,0.223723,0
2024-11-29 18:17:35.923,0.311366,2.86331,9.03051,-0.24243,-0.367119,0.224334,0
2024-11-29 18:17:35.927,0.359223,2.92074,9.13101,-0.216774,-0.38239,0.22189,0
2024-11-29 18:17:35.928,0.409472,2.97577,9.21715,-0.18501,-0.387888,0.219447,0
2024-11-29 18:17:35.931,0.464507,3.02842,9.27727,-0.15569,-0.395829,0.217614,0
2024-11-29 18:17:35.933,0.519542,3.07149,9.3012,-0.128202,-0.398883,0.21456,0
2024-11-29 18:17:35.936,0.572184,3.11246,9.29881,-0.0671168,-0.393996,0.209673,0
2024-11-29 18:17:35.939,0.612862,3.16989,9.28445,-0.0414613,-0.389721,0.202954,0
2024-11-29 18:17:35.941,0.648754,3.21057,9.26292,-0.0200816,-0.383612,0.195013,0
2024-11-29 18:17:35.942,0.691825,3.24646,9.22912,-0.0200816,-0.383612,0.195013,0
2024-11-29 18:17:35.945,0.725324,3.27757,9.17647,0.00374144,-0.381169,0.189515,0
2024-11-29 18:17:35.947,0.770788,3.3015,9.11187,0.0226777,-0.376893,0.17852,0
2024-11-29 18:17:35.950,0.797109,3.33739,9.04248,0.0367272,-0.373228,0.168136,0
2024-11-29 18:17:35.952,0.816252,3.38285,8.97308,0.0513875,-0.370784,0.158362,0
2024-11-29 18:17:35.955,0.837787,3.42592,8.87737,0.0593285,-0.366508,0.146756,0
2024-11-29 18:17:35.957,0.859622,3.46899,8.79362,0.0648262,-0.363454,0.134539,0
2024-11-29 18:17:35.960,0.888335,3.51207,8.71466,0.0678804,-0.357346,0.1211,0
2024-11-29 18:17:35.961,0.902692,3.54556,8.62583,0.0660479,-0.352459,0.109494,0
2024-11-29 18:17:35.964,0.914656,3.57906,8.56122,0.0611611,-0.343296,0.0954449,0
2024-11-29 18:17:35.966,0.938585,3.62453,8.51097,0.057496,-0.335966,0.0813954,0
2024-11-29 18:17:35.969,0.962513,3.67986,8.46551,0.0483333,-0.326192,0.0673459,0
2024-11-29 18:17:35.971,0.988834,3.73011,8.4344,0.0348946,-0.31703,0.0526856,0
2024-11-29 18:17:35.974,1.00798,3.7684,8.41526,0.0220669,-0.303591,0.0355819,0
2024-11-29 18:17:35.976,1.01276,3.82104,8.40329,0.00862822,-0.291374,0.0215324,0
2024-11-29 18:17:35.978,1.00558,3.88086,8.41047,-0.00542127,-0.27427,0.0038178,0
2024-11-29 18:17:35.981,1.01037,3.93829,8.44876,-0.0359636,-0.232122,-0.0297788,0
2024-11-29 18:17:35.983,1.01994,4.00289,8.48226,-0.0359636,-0.232122,-0.0297788,0
2024-11-29 18:17:35.985,1.00798,4.06032,8.5014,-0.0512348,-0.209521,-0.0444391,0
2024-11-29 18:17:35.988,0.99362,4.11296,8.53969,-0.0762796,-0.162485,-0.0780357,0
2024-11-29 18:17:35.990,0.984048,4.17518,8.58276,-0.0762796,-0.162485,-0.0780357,0
2024-11-29 18:17:35.993,0.967299,4.21137,8.62104,-0.102546,-0.113618,-0.110411,0
2024-11-29 18:17:35.995,0.945763,4.23769,8.65933,-0.114152,-0.0928488,-0.126904,0
2024-11-29 18:17:35.997,0.933799,4.28076,8.68565,-0.114152,-0.0928488,-0.126904,0
2024-11-29 18:17:35.999,0.902692,4.31187,8.71945,-0.124536,-0.0745234,-0.139731,0
2024-11-29 18:17:36.001,0.88355,4.33101,8.76252,-0.136143,-0.0580305,-0.157446,0
2024-11-29 18:17:36.004,0.878764,4.34297,8.79841,-0.147749,-0.0464244,-0.175771,0
2024-11-29 18:17:36.006,0.859622,4.35015,8.8343,-0.158133,-0.03604,-0.18921,0
2024-11-29 18:17:36.009,0.833001,4.35733,8.87976,-0.172183,-0.0323749,-0.20387,0
2024-11-29 18:17:36.011,0.811466,4.3669,8.91087,-0.180124,-0.0335966,-0.219141,0
2024-11-29 18:17:36.013,0.804287,4.36929,8.97069,-0.192341,-0.0378725,-0.233802,0
2024-11-29 18:17:36.015,0.818644,4.37647,9.04726,-0.203336,-0.043981,-0.249684,0
2024-11-29 18:17:36.018,0.825823,4.39322,9.11426,-0.213109,-0.0568088,-0.263733,0
2024-11-29 18:17:36.020,0.809073,4.38365,9.19083,-0.223494,-0.0708583,-0.279615,0
2024-11-29 18:17:36.022,0.799502,4.36929,9.28924,-0.232656,-0.0855186,-0.291221,0
2024-11-29 18:17:36.026,0.787538,4.3669,9.4017,-0.232656,-0.0855186,-0.291221,0
2024-11-29 18:17:36.027,0.785145,4.36929,9.50698,-0.247928,-0.119726,-0.316877,0
2024-11-29 18:17:36.030,0.768395,4.36451,9.6362,-0.251593,-0.139884,-0.33337,0
2024-11-29 18:17:36.032,0.756431,4.36212,9.78455,-0.25648,-0.163707,-0.343754,0
2024-11-29 18:17:36.034,0.754038,4.36212,9.94517,-0.255869,-0.18753,-0.355971,0
2024-11-29 18:17:36.037,0.739681,4.35733,10.1414,-0.255869,-0.215018,-0.366966,0
2024-11-29 18:17:36.039,0.751645,4.34297,10.3328,-0.251593,-0.239452,-0.375518,0
2024-11-29 18:17:36.042,0.780359,4.31665,10.5126,-0.233878,-0.297483,-0.395676,0
2024-11-29 18:17:36.044,0.804287,4.29033,10.6872,-0.233878,-0.297483,-0.395676,0
2024-11-29 18:17:36.046,0.835394,4.24487,10.8404,-0.222883,-0.321306,-0.404839,0
2024-11-29 18:17:36.049,0.842872,4.2015,10.9795,-0.194173,-0.36773,-0.423775,0
2024-11-29 18:17:36.052,0.847657,4.17278,11.1087,-0.194173,-0.36773,-0.423775,0
2024-11-29 18:17:36.053,0.864407,4.15125,11.2307,-0.178291,-0.387277,-0.43416,0
2024-11-29 18:17:36.056,0.859622,4.11296,11.3456,-0.161187,-0.401937,-0.44149,0
2024-11-29 18:17:36.061,0.84018,4.07468,11.566,-0.130034,-0.426982,-0.454318,0
2024-11-29 18:17:36.061,0.813859,4.07229,11.566,-0.130034,-0.426982,-0.454318,0
2024-11-29 18:17:36.063,0.780359,4.0675,11.6833,-0.130034,-0.426982,-0.454318,0
2024-11-29 18:17:36.066,0.722932,4.05314,11.7885,-0.0958267,-0.434923,-0.46287,0
2024-11-29 18:17:36.067,0.660718,4.04118,11.8579,-0.0781121,-0.437367,-0.461037,0
2024-11-29 18:17:36.070,0.600898,4.03879,11.913,-0.0603975,-0.433702,-0.460426,0
2024-11-29 18:17:36.072,0.529113,4.04357,11.9824,-0.0457372,-0.426982,-0.456761,0
2024-11-29 18:17:36.075,0.474078,4.02443,12.0589,-0.0158057,-0.408046,-0.446987,0
2024-11-29 18:17:36.078,0.428614,3.99811,12.119,-0.0158057,-0.408046,-0.446987,0
2024-11-29 18:17:36.080,0.383151,3.97897,12.1334,-0.000534491,-0.393996,-0.439046,0
2024-11-29 18:17:36.082,0.347258,3.95504,12.1478,0.0147367,-0.376893,-0.431105,0
2024-11-29 18:17:36.085,0.313759,3.94068,12.1549,0.0275645,-0.359178,-0.419499,0
2024-11-29 18:17:36.087,0.27996,3.94068,12.1549,0.0391706,-0.338409,-0.409115,0
2024-11-29 18:17:36.088,0.227318,3.92632,12.1621,0.0519984,-0.319473,-0.396898,0
2024-11-29 18:17:36.092,0.174676,3.9,12.1549,0.0611611,-0.298704,-0.385292,0
2024-11-29 18:17:36.094,0.136391,3.89761,12.1358,0.0703238,-0.280379,-0.36941,0
2024-11-29 18:17:36.095,0.105284,3.89761,12.1071,0.0752106,-0.262664,-0.35475,0
2024-11-29 18:17:36.098,0.0717847,3.90239,12.0903,0.0825407,-0.249226,-0.340089,0
2024-11-29 18:17:36.100,0.0550349,3.90718,12.0903,0.0862058,-0.234565,-0.325429,0
2024-11-29 18:17:36.103,0.0622134,3.90479,12.0832,0.0904818,-0.220516,-0.307103,0
2024-11-29 18:17:36.106,0.0622134,3.88564,12.0808,0.0904818,-0.211964,-0.291832,0
2024-11-29 18:17:36.107,0.066999,3.89761,12.0808,0.0917034,-0.198525,-0.27595,0
2024-11-29 18:17:36.110,0.0717847,3.91675,12.0855,0.0917034,-0.188752,-0.262512,0
2024-11-29 18:17:36.112,0.0693919,3.90479,12.0688,0.0917034,-0.175924,-0.250906,0
2024-11-29 18:17:36.114,0.066999,3.89761,12.0736,0.0904818,-0.163707,-0.238078,0
2024-11-29 18:17:36.117,0.040678,3.91197,12.1047,0.0874275,-0.149047,-0.228304,0
2024-11-29 18:17:36.120,0.0119641,3.93589,12.1023,0.0831516,-0.116672,-0.203259,0
2024-11-29 18:17:36.121,-0.0167498,3.98375,12.1143,0.0831516,-0.116672,-0.203259,0
2024-11-29 18:17:36.124,-0.0598206,4.04596,12.1382,0.0831516,-0.0971247,-0.191653,0
2024-11-29 18:17:36.126,-0.0981057,4.09861,12.1597,0.0788757,-0.0787993,-0.179436,0
2024-11-29 18:17:36.129,-0.129212,4.16321,12.1956,0.077654,-0.0616956,-0.166609,0
2024-11-29 18:17:36.132,-0.165105,4.21376,12.2195,0.0727672,-0.0250447,-0.139731,0
2024-11-29 18:17:36.133,-0.217747,4.26162,12.2387,0.0727672,-0.0250447,-0.139731,0
2024-11-29 18:17:36.135,-0.258425,4.32622,12.2363,0.0739889,-0.00488678,-0.126904,0
2024-11-29 18:17:36.139,-0.282652,4.37887,12.2124,0.0709346,0.015882,-0.114076,0
2024-11-29 18:17:36.141,-0.325723,4.41236,12.1789,0.0660479,0.0366508,-0.100026,0
2024-11-29 18:17:36.143,-0.349651,4.45783,12.1095,0.0629936,0.0568088,-0.0884201,0
2024-11-29 18:17:36.146,-0.354437,4.49851,12.0422,0.0562743,0.0763559,-0.076814,0
2024-11-29 18:17:36.147,-0.368794,4.5009,11.98,0.0458899,0.0910162,-0.0645971,0
2024-11-29 18:17:36.151,-0.366401,4.52004,11.8866,0.0196235,0.106287,-0.0468825,0
2024-11-29 18:17:36.153,-0.344866,4.55593,11.779,0.0196235,0.106287,-0.0468825,0
2024-11-29 18:17:36.155,-0.308973,4.57747,11.6833,-0.00358873,0.105066,-0.0407741,0
2024-11-29 18:17:36.157,-0.251246,4.58943,11.5971,-0.0261901,0.0946813,-0.0352764,0
2024-11-29 18:17:36.159,-0.184247,4.57986,11.5205,-0.0530674,0.0824644,-0.0322222,0
2024-11-29 18:17:36.161,-0.102891,4.5679,11.4413,-0.0842206,0.0616956,-0.0334439,0
2024-11-29 18:17:36.165,0.00239282,4.54876,11.3623,-0.159355,0.00855186,-0.0438283,0
2024-11-29 18:17:36.167,0.136391,4.50808,11.3121,-0.159355,0.00855186,-0.0438283,0
2024-11-29 18:17:36.168,0.297009,4.45544,11.2714,-0.202114,-0.028099,-0.0542127,0
2024-11-29 18:17:36.171,0.481256,4.36929,11.2475,-0.247928,-0.0745234,-0.068873,0
2024-11-29 18:17:36.173,0.667897,4.2664,11.2475,-0.298628,-0.13011,-0.0920852,0
2024-11-29 18:17:36.176,0.862014,4.15843,11.2857,-0.348717,-0.195471,-0.120795,0
2024-11-29 18:17:36.178,1.0678,4.04836,11.3719,-0.406748,-0.271216,-0.15317,0
2024-11-29 18:17:36.181,1.26162,3.95025,11.4844,-0.519755,-0.441643,-0.231358,0
2024-11-29 18:17:36.183,1.43898,3.85932,11.6521,-0.519755,-0.441643,-0.231358,0
2024-11-29 18:17:36.186,1.61366,3.77318,11.8914,-0.577785,-0.532048,-0.277783,0
2024-11-29 18:17:36.188,1.7668,3.68226,12.1741,-0.681706,-0.696366,-0.374907,0
2024-11-29 18:17:36.190,1.87687,3.57906,12.4923,-0.681706,-0.696366,-0.374907,0
2024-11-29 18:17:36.193,1.95344,3.47857,12.8659,-0.723854,-0.769057,-0.423164,0
2024-11-29 18:17:36.194,2.01595,3.35414,13.2682,-0.759894,-0.830752,-0.472032,0
2024-11-29 18:17:36.197,2.08774,3.21775,13.6271,-0.787382,-0.879009,-0.516624,0
2024-11-29 18:17:36.199,2.14756,3.07867,13.9744,-0.805708,-0.917493,-0.559994,0
2024-11-29 18:17:36.202,2.17866,2.9327,14.3575,-0.820368,-0.946813,-0.604586,0
2024-11-29 18:17:36.205,2.17149,2.78435,14.7619,-0.825255,-0.968193,-0.646735,0
2024-11-29 18:17:36.206,2.09731,2.62403,15.1403,-0.822811,-0.982853,-0.68644,0
2024-11-29 18:17:36.209,1.97767,2.4682,15.4971,-0.806929,-0.992627,-0.719425,0
2024-11-29 18:17:36.211,1.84576,2.30548,15.8513,-0.784939,-0.99507,-0.749357,0
2024-11-29 18:17:36.213,1.71177,2.11167,16.1889,-0.74951,-0.989573,-0.772569,0
2024-11-29 18:17:36.217,1.55862,1.92233,16.5,-0.70675,-0.982242,-0.790895,0
2024-11-29 18:17:36.218,1.40279,1.74287,16.7659,-0.65605,-0.961474,-0.806777,0
2024-11-29 18:17:36.220,1.27597,1.54905,16.9813,-0.593056,-0.930931,-0.812274,0
2024-11-29 18:17:36.225,0.969691,1.15872,17.2424,-0.448896,-0.833196,-0.812274,0
2024-11-29 18:17:36.225,0.969691,1.15872,17.2424,-0.448896,-0.833196,-0.812274,0
2024-11-29 18:17:36.228,0.785145,0.97687,17.2687,-0.276027,-0.681095,-0.785397,0
2024-11-29 18:17:36.231,0.579362,0.773181,17.24,-0.183789,-0.591911,-0.761574,1
2024-11-29 18:17:36.233,0.380758,0.567398,17.1538,-0.183789,-0.591911,-0.761574,0
2024-11-29 18:17:36.235,0.124427,0.421436,16.9191,-0.183789,-0.591911,-0.761574,0
2024-11-29 18:17:36.237,-0.267996,0.380758,16.4091,0.00435229,-0.375671,-0.68644,0
2024-11-29 18:17:36.240,-0.675075,0.431007,15.5976,0.0874275,-0.227846,-0.625355,0
2024-11-29 18:17:36.242,-0.80668,0.380758,15.1068,0.154621,-0.07208,-0.554497,0
2024-11-29 18:17:36.245,-0.756431,0.18664,15.047,0.21876,0.0513112,-0.484249,0
2024-11-29 18:17:36.247,-0.837787,0.0119641,14.8648,0.279844,0.146603,-0.409726,0
2024-11-29 18:17:36.249,-1.01994,-0.150748,14.5801,0.339097,0.226624,-0.338257,0
2024-11-29 18:17:36.251,-1.17308,-0.320937,14.2854,0.395295,0.296872,-0.264955,0
2024-11-29 18:17:36.253,-1.27597,-0.476471,14.0222,0.451492,0.365287,-0.192875,0
2024-11-29 18:17:36.257,-1.26401,-0.610469,13.7542,0.57916,0.51922,-0.0603212,0
2024-11-29 18:17:36.259,-1.17308,-0.670289,13.3974,0.57916,0.51922,-0.0603212,0
2024-11-29 18:17:36.263,-1.12283,-0.555434,12.5809,0.707437,0.719578,0.0594049,0
2024-11-29 18:17:36.264,-1.12283,-0.555434,12.5809,0.707437,0.719578,0.0594049,0
2024-11-29 18:17:36.267,-1.36211,-0.342473,11.6928,0.822888,0.913827,0.175466,0
2024-11-29 18:17:36.268,-1.36211,-0.342473,11.6928,0.822888,0.913827,0.175466,0
2024-11-29 18:17:36.271,-1.52034,-0.239282,11.1422,0.899854,1.06104,0.303744,0
2024-11-29 18:17:36.273,-1.63759,-0.148355,10.5748,0.920623,1.1093,0.36605,0
2024-11-29 18:17:36.274,-1.69262,-0.0741775,10.0672,0.920623,1.1093,0.36605,0
2024-11-29 18:17:36.277,-1.64477,-0.0358923,9.59552,0.931618,1.13801,0.426524,0
2024-11-29 18:17:36.280,-1.54666,-0.00239282,9.14776,0.931008,1.14778,0.482722,0
2024-11-29 18:17:36.282,-1.45573,0.0502493,8.71705,0.921234,1.14656,0.532812,0
2024-11-29 18:17:36.285,-1.33819,0.124427,8.29801,0.902298,1.13312,0.581679,0
2024-11-29 18:17:36.287,-1.19701,0.20339,7.94118,0.844267,1.08364,0.656814,0
2024-11-29 18:17:36.290,-1.02712,0.272782,7.66122,0.807616,1.04638,0.687356,0
2024-11-29 18:17:36.291,-0.854836,0.359223,7.42882,0.807616,1.04638,0.687356,0
2024-11-29 18:17:36.294,-0.677468,0.459721,7.24936,0.768522,1.00057,0.714844,0
2024-11-29 18:17:36.297,-0.486042,0.574577,7.12493,0.727595,0.949867,0.73378,0
2024-11-29 18:17:36.299,-0.263211,0.687039,7.06989,0.683004,0.887561,0.747219,0
2024-11-29 18:17:36.300,-0.0430708,0.797109,7.04836,0.636579,0.818535,0.756992,0
2024-11-29 18:17:36.306,0.368794,1.04148,7.14407,0.552893,0.666434,0.760047,0
2024-11-29 18:17:36.306,0.368794,1.04148,7.14407,0.552893,0.666434,0.760047,0
2024-11-29 18:17:36.308,0.576969,1.1348,7.23021,0.512577,0.585802,0.754549,0
2024-11-29 18:17:36.311,0.775574,1.1994,7.3666,0.47837,0.50456,0.744776,0
2024-11-29 18:17:36.312,0.986441,1.25683,7.52692,0.449049,0.424539,0.730726,0
2024-11-29 18:17:36.315,1.21376,1.31665,7.69472,0.42828,0.348794,0.714233,0
2024-11-29 18:17:36.318,1.45095,1.35254,7.89572,0.409344,0.270605,0.69041,0
2024-11-29 18:17:36.322,1.91755,1.42223,8.31954,0.396516,0.130721,0.636045,0
2024-11-29 18:17:36.323,1.91755,1.42223,8.31954,0.39224,0.0684149,0.603059,0
2024-11-29 18:17:36.324,2.13559,1.4653,8.52533,0.39224,0.0684149,0.603059,0
2024-11-29 18:17:36.327,2.32941,1.52273,8.67608,0.403846,-0.0372617,0.530979,0
2024-11-29 18:17:36.329,2.49452,1.55384,8.78166,0.403846,-0.0372617,0.530979,0
2024-11-29 18:17:36.332,2.63599,1.57537,8.85105,0.414842,-0.0781884,0.493106,0
2024-11-29 18:17:36.333,2.75085,1.60409,8.89891,0.425226,-0.114839,0.454623,0
2024-11-29 18:17:36.337,2.84656,1.62562,8.95394,0.450271,-0.177757,0.370937,0
2024-11-29 18:17:36.339,2.94706,1.64716,8.99941,0.462488,-0.204634,0.328789,0
2024-11-29 18:17:36.344,3.1005,1.65194,8.9683,0.474705,-0.228457,0.282975,0
2024-11-29 18:17:36.344,3.1005,1.65194,8.9683,0.474705,-0.228457,0.282975,0
2024-11-29 18:17:36.346,3.14596,1.65434,8.9348,0.484478,-0.249837,0.239605,0
2024-11-29 18:17:36.348,3.16032,1.65194,8.87737,0.491808,-0.268162,0.193791,0
2024-11-29 18:17:36.350,3.17228,1.64716,8.78166,0.497917,-0.285877,0.149199,0
2024-11-29 18:17:36.353,3.14596,1.62562,8.7003,0.502804,-0.298704,0.102775,0
2024-11-29 18:17:36.355,3.09093,1.61605,8.59711,0.501582,-0.306645,0.0600157,0
2024-11-29 18:17:36.358,3.01406,1.62323,8.4679,0.495473,-0.313365,-0.0230595,0
2024-11-29 18:17:36.360,2.91117,1.62802,8.34347,0.4857,-0.313365,-0.0639862,0
2024-11-29 18:17:36.362,2.78196,1.64955,8.1999,0.4857,-0.313365,-0.0639862,0
2024-11-29 18:17:36.365,2.62642,1.65434,8.05364,0.457601,-0.304813,-0.13179,0
2024-11-29 18:17:36.367,2.47777,1.66152,7.92204,0.437443,-0.298704,-0.162333,0
2024-11-29 18:17:36.370,2.33659,1.65673,7.79043,0.437443,-0.298704,-0.162333,0
2024-11-29 18:17:36.371,2.2002,1.62562,7.65883,0.416674,-0.293818,-0.190432,0
2024-11-29 18:17:36.374,2.05663,1.61845,7.56282,0.393462,-0.285266,-0.216698,0
2024-11-29 18:17:36.376,1.92712,1.61605,7.50299,0.366585,-0.277325,-0.239299,0
2024-11-29 18:17:36.379,1.81944,1.61366,7.44078,0.338486,-0.26694,-0.258847,0
2024-11-29 18:17:36.381,1.69023,1.61127,7.41685,0.338486,-0.26694,-0.258847,0
2024-11-29 18:17:36.384,1.5658,1.61366,7.40967,0.267017,-0.218683,-0.30466,0
2024-11-29 18:17:36.385,1.47248,1.62562,7.38575,0.267017,-0.218683,-0.30466,0
2024-11-29 18:17:36.388,1.41266,1.62084,7.37617,0.243804,-0.196082,-0.315655,0
2024-11-29 18:17:36.391,1.36211,1.6017,7.39053,0.205932,-0.147214,-0.334592,0
2024-11-29 18:17:36.393,1.31665,1.6017,7.4025,0.205932,-0.147214,-0.334592,0
2024-11-29 18:17:36.395,1.25683,1.59691,7.4025,0.189439,-0.119726,-0.343143,0
2024-11-29 18:17:36.397,1.17787,1.5993,7.39532,0.174168,-0.0897945,-0.34803,0
2024-11-29 18:17:36.400,1.09651,1.62323,7.39053,0.157675,-0.0574196,-0.351084,0
2024-11-29 18:17:36.402,1.01037,1.63759,7.38096,0.148512,-0.0250447,-0.35536,0
2024-11-29 18:17:36.405,0.926621,1.64716,7.35464,0.125911,0.0433702,-0.35536,0
2024-11-29 18:17:36.406,0.842872,1.66152,7.32832,0.125911,0.0433702,-0.35536,0
2024-11-29 18:17:36.409,0.773181,1.68305,7.31396,0.118581,0.0769668,-0.352917,0
2024-11-29 18:17:36.411,0.725324,1.69741,7.2996,0.108807,0.111174,-0.346198,0
2024-11-29 18:17:36.414,0.677468,1.70459,7.27328,0.0990336,0.146603,-0.340089,0
2024-11-29 18:17:36.416,0.624826,1.71894,7.23978,0.0947577,0.1802,-0.332759,0
2024-11-29 18:17:36.419,0.584148,1.74048,7.18236,0.0910926,0.215018,-0.325429,0
2024-11-29 18:17:36.421,0.562612,1.7668,7.12493,0.085595,0.249226,-0.314434,0
2024-11-29 18:17:36.426,0.54347,1.80269,7.00738,0.073378,0.344518,-0.285724,0
2024-11-29 18:17:36.426,0.54347,1.80269,7.00738,0.073378,0.344518,-0.285724,0
2024-11-29 18:17:36.429,0.553041,1.80987,6.94756,0.0684913,0.372617,-0.274729,0
2024-11-29 18:17:36.431,0.555434,1.83619,6.87099,0.0672696,0.399494,-0.266177,0
2024-11-29 18:17:36.432,0.576969,1.86012,6.78246,0.0672696,0.399494,-0.266177,0
2024-11-29 18:17:36.436,0.615255,1.87448,6.70828,0.0611611,0.424539,-0.258847,0
2024-11-29 18:17:36.438,0.641576,1.89362,6.62214,0.0562743,0.445919,-0.253349,0
2024-11-29 18:17:36.439,0.670289,1.91755,6.5336,0.0507767,0.465466,-0.249073,0
2024-11-29 18:17:36.442,0.682254,1.95344,6.45942,0.0446682,0.480126,-0.244186,0
2024-11-29 18:17:36.445,0.687039,1.99202,6.40409,0.0367272,0.49051,-0.241743,0
2024-11-29 18:17:36.447,0.696611,2.0327,6.35623,0.0238994,0.496619,-0.241132,0
2024-11-29 18:17:36.449,0.706182,2.07817,6.31795,0.0153475,0.500895,-0.240521,0
2024-11-29 18:17:36.452,0.699003,2.1332,6.28684,-0.00175619,0.495397,-0.242964,0
2024-11-29 18:17:36.454,0.684646,2.19063,6.26531,-0.00175619,0.495397,-0.242964,0
2024-11-29 18:17:36.457,0.687039,2.24566,6.24138,-0.010308,0.487456,-0.244186,0
2024-11-29 18:17:36.459,0.675075,2.30309,6.21745,-0.0170274,0.476461,-0.249684,0
2024-11-29 18:17:36.464,0.675075,2.37727,6.20788,-0.0335202,0.45386,-0.257014,0
2024-11-29 18:17:36.464,0.675075,2.37727,6.20788,-0.0335202,0.45386,-0.257014,0
2024-11-29 18:17:36.466,0.684646,2.40598,6.18156,-0.0475697,0.416598,-0.269842,0
2024-11-29 18:17:36.469,0.684646,2.4347,6.15045,-0.0542891,0.395829,-0.27595,0
2024-11-29 18:17:36.471,0.703789,2.45145,6.13609,-0.0542891,0.395829,-0.27595,0
2024-11-29 18:17:36.472,0.725324,2.4682,6.13131,-0.0603975,0.373839,-0.283891,0
2024-11-29 18:17:36.475,0.734896,2.49212,6.12413,-0.0683385,0.349405,-0.294886,0
2024-11-29 18:17:36.477,0.725324,2.51845,6.11695,-0.074447,0.321306,-0.30466,0
2024-11-29 18:17:36.479,0.701396,2.54507,6.10977,-0.0842206,0.293207,-0.312601,0
2024-11-29 18:17:36.482,0.658325,2.56421,6.10977,-0.0933833,0.262664,-0.324818,0
2024-11-29 18:17:36.485,0.608076,2.59053,6.12174,-0.103157,0.231511,-0.333981,0
2024-11-29 18:17:36.487,0.572184,2.63839,6.15763,-0.11232,0.193639,-0.343754,0
2024-11-29 18:17:36.489,0.514756,2.68146,6.21027,-0.122093,0.15882,-0.349252,0
2024-11-29 18:17:36.492,0.440578,2.69821,6.25095,-0.129423,0.120948,-0.355971,0
2024-11-29 18:17:36.494,0.397508,2.70539,6.29881,-0.136143,0.0830752,-0.363301,0
2024-11-29 18:17:36.497,0.366401,2.7341,6.36581,-0.144084,0.043981,-0.367577,0
2024-11-29 18:17:36.499,0.32333,2.74846,6.41845,-0.157522,-0.0409268,-0.375518,0
2024-11-29 18:17:36.502,0.282652,2.74367,6.48335,-0.157522,-0.0409268,-0.375518,0
2024-11-29 18:17:36.503,0.232104,2.76042,6.56949,-0.161798,-0.0849078,-0.378573,0
2024-11-29 18:17:36.505,0.179462,2.77717,6.66281,-0.168517,-0.126445,-0.379794,0
2024-11-29 18:17:36.509,0.133998,2.79153,6.75613,-0.175237,-0.169816,-0.382238,0
2024-11-29 18:17:36.510,0.0957129,2.80349,6.84467,-0.178291,-0.210742,-0.382238,0
2024-11-29 18:17:36.513,0.0646062,2.82024,6.94995,-0.181345,-0.252891,-0.378573,0
2024-11-29 18:17:36.516,0.0287139,2.8322,7.06272,-0.179513,-0.329858,-0.374297,0
2024-11-29 18:17:36.518,0.00478565,2.84417,7.16321,-0.179513,-0.329858,-0.374297,0
2024-11-29 18:17:36.520,-0.00239282,2.84178,7.23978,-0.180734,-0.367119,-0.371242,0
2024-11-29 18:17:36.523,-0.00717847,2.83699,7.32114,-0.180124,-0.400105,-0.367577,0
2024-11-29 18:17:36.524,-0.00717847,2.83938,7.41925,-0.177069,-0.433702,-0.363912,0
2024-11-29 18:17:36.526,-0.0119641,2.84417,7.51735,-0.175237,-0.463633,-0.359025,0
2024-11-29 18:17:36.529,-0.0287139,2.88006,7.6349,-0.169739,-0.494786,-0.354139,0
2024-11-29 18:17:36.531,-0.0646062,2.92313,7.7665,-0.167907,-0.523496,-0.345587,0
2024-11-29 18:17:36.534,-0.100499,2.95424,7.87657,-0.162409,-0.549763,-0.336424,0
2024-11-29 18:17:36.536,-0.122034,2.9686,7.98186,-0.156911,-0.574196,-0.324207,0
2024-11-29 18:17:36.541,-0.117248,3.01884,8.21665,-0.150803,-0.613901,-0.300384,0
2024-11-29 18:17:36.541,-0.117248,3.01884,8.21665,-0.150803,-0.613901,-0.300384,0
2024-11-29 18:17:36.545,-0.0741775,3.07149,8.4679,-0.119039,-0.638335,-0.274118,0
2024-11-29 18:17:36.546,-0.0741775,3.07149,8.4679,-0.108654,-0.643222,-0.260068,0
2024-11-29 18:17:36.549,-0.117248,3.12204,8.50619,-0.100103,-0.637114,-0.241743,0
2024-11-29 18:17:36.551,-0.160319,3.17707,8.51815,-0.100103,-0.637114,-0.241743,0
2024-11-29 18:17:36.553,-0.0885344,3.18903,8.62343,-0.090329,-0.635281,-0.224639,0
2024-11-29 18:17:36.556,0.0311067,3.17468,8.74577,-0.0701711,-0.629784,-0.192264,0
2024-11-29 18:17:36.557,0.107677,3.14596,8.84626,-0.0701711,-0.629784,-0.192264,0
2024-11-29 18:17:36.559,0.148355,3.14118,8.90609,-0.0610084,-0.625508,-0.179436,0
2024-11-29 18:17:36.563,0.198604,3.14836,8.95394,-0.0548999,-0.615123,-0.164165,0
2024-11-29 18:17:36.565,0.251246,3.14357,9.01137,-0.0457372,-0.596798,-0.147672,0
2024-11-29 18:17:36.568,0.292223,3.15793,9.04487,-0.0377962,-0.571142,-0.133623,0
2024-11-29 18:17:36.570,0.267996,3.3015,8.96591,-0.0292443,-0.481958,-0.0957503,0
2024-11-29 18:17:36.572,0.0861416,3.45942,8.7362,-0.0322986,-0.421485,-0.0670405,0
2024-11-29 18:17:36.575,0.066999,3.46421,8.75534,-0.0353528,-0.378114,-0.0432174,0
2024-11-29 18:17:36.576,0.294616,3.42832,8.99462,-0.0353528,-0.378114,-0.0432174,0
2024-11-29 18:17:36.579,0.385544,3.40917,9.06401,-0.0414613,-0.304202,-0.00534491,0
2024-11-29 18:17:36.582,0.426222,3.38285,9.11665,-0.0414613,-0.304202,-0.00534491,0
2024-11-29 18:17:36.583,0.52672,3.34935,9.20997,-0.0414613,-0.268162,0.011148,0
2024-11-29 18:17:36.585,0.572184,3.32782,9.26052,-0.042683,-0.228457,0.0239758,0
2024-11-29 18:17:36.589,0.600898,3.31107,9.30838,-0.0414613,-0.180811,0.0380252,0
2024-11-29 18:17:36.590,0.658325,3.30389,9.37059,-0.0377962,-0.1295,0.0502422,0
2024-11-29 18:17:36.593,0.727717,3.31107,9.43998,-0.0316877,-0.0763559,0.0575724,0
2024-11-29 18:17:36.596,0.780359,3.33021,9.50938,-0.0164165,0.0305424,0.0746761,0
2024-11-29 18:17:36.597,0.782752,3.37089,9.55723,-0.0164165,0.0305424,0.0746761,0
2024-11-29 18:17:36.600,0.754038,3.42832,9.59552,-0.00725381,0.0806318,0.0813954,0
2024-11-29 18:17:36.603,0.71336,3.5001,9.62663,0.00801737,0.17287,0.100943,0
2024-11-29 18:17:36.605,0.643968,3.56949,9.63859,0.0141258,0.211353,0.111938,0
2024-11-29 18:17:36.608,0.548256,3.63649,9.62423,0.0141258,0.211353,0.111938,0
2024-11-29 18:17:36.609,0.464507,3.71815,9.59791,0.0184018,0.243117,0.122933,0
2024-11-29 18:17:36.612,0.368794,3.79711,9.56441,0.0226777,0.290763,0.150421,0
2024-11-29 18:17:36.615,0.270389,3.85693,9.52852,0.0226777,0.290763,0.150421,0
2024-11-29 18:17:36.616,0.210568,3.91914,9.52373,0.0226777,0.306645,0.164471,0
2024-11-29 18:17:36.618,0.177069,3.98136,9.5357,0.0251211,0.315197,0.177909,0
2024-11-29 18:17:36.622,0.155533,4.02682,9.55005,0.0220669,0.317641,0.191959,0
2024-11-29 18:17:36.623,0.131605,4.06271,9.57638,0.0202343,0.315808,0.202954,0
2024-11-29 18:17:36.626,0.117248,4.09143,9.60509,0.0190126,0.311532,0.212728,0
2024-11-29 18:17:36.628,0.124427,4.10578,9.64577,0.0202343,0.307256,0.223723,0
2024-11-29 18:17:36.630,0.136391,4.11536,9.7008,0.0208452,0.298704,0.231053,0
2024-11-29 18:17:36.632,0.145962,4.1345,9.76062,0.0238994,0.290152,0.238383,0
2024-11-29 18:17:36.636,0.145962,4.14886,9.82792,0.0287862,0.282822,0.24327,0
2024-11-29 18:17:36.637,0.165105,4.15364,9.89013,0.0342838,0.278546,0.2506,0
2024-11-29 18:17:36.640,0.198604,4.15843,9.94756,0.0403923,0.269384,0.255487,0
2024-11-29 18:17:36.644,0.210568,4.16082,10.0528,0.0617719,0.258388,0.259763,0
2024-11-29 18:17:36.645,0.224925,4.16082,10.0528,0.0617719,0.258388,0.259763,0
2024-11-29 18:17:36.647,0.234497,4.17039,10.1007,0.0697129,0.251058,0.263428,0
2024-11-29 18:17:36.649,0.239282,4.18714,10.139,0.0788757,0.241285,0.265871,0
2024-11-29 18:17:36.652,0.253639,4.20389,10.1701,0.0862058,0.230289,0.26526,0
2024-11-29 18:17:36.655,0.251246,4.21137,10.194,0.0965902,0.213797,0.26526,0
2024-11-29 18:17:36.656,0.241675,4.21376,10.2275,0.105142,0.196693,0.267093,0
2024-11-29 18:17:36.659,0.241675,4.22333,10.2562,0.114916,0.178978,0.267704,0
2024-11-29 18:17:36.662,0.229711,4.23769,10.2706,0.13263,0.134997,0.266482,0
2024-11-29 18:17:36.664,0.217747,4.22333,10.3017,0.13935,0.109953,0.268926,0
2024-11-29 18:17:36.666,0.22014,4.20389,10.3376,0.13935,0.109953,0.268926,0
2024-11-29 18:17:36.668,0.224925,4.20897,10.3735,0.147291,0.0891837,0.268315,0
2024-11-29 18:17:36.671,0.236889,4.2015,10.4121,0.16134,0.0452027,0.268315,0
2024-11-29 18:17:36.674,0.251246,4.17518,10.4504,0.16134,0.0452027,0.268315,0
2024-11-29 18:17:36.676,0.263211,4.13928,10.491,0.171114,0.00610847,0.268926,0
2024-11-29 18:17:36.677,0.277567,4.11536,10.5532,0.171114,0.00610847,0.268926,0
2024-11-29 18:17:36.680,0.297009,4.08903,10.6179,0.178444,-0.0109953,0.270147,0
2024-11-29 18:17:36.682,0.318545,4.05554,10.6633,0.182109,-0.0268773,0.270147,0
2024-11-29 18:17:36.685,0.325723,4.01486,10.7136,0.185163,-0.0397051,0.270758,0
2024-11-29 18:17:36.688,0.332901,3.98136,10.7638,0.188828,-0.0513112,0.270147,0
2024-11-29 18:17:36.689,0.332901,3.95504,10.8165,0.191272,-0.0580305,0.272591,0
2024-11-29 18:17:36.691,0.335294,3.91197,10.8667,0.192493,-0.0610847,0.272591,0
2024-11-29 18:17:36.695,0.349651,3.87607,10.9146,0.190661,-0.0629173,0.276256,0
2024-11-29 18:17:36.696,0.364008,3.86411,10.9843,0.191272,-0.0592522,0.278088,0
2024-11-29 18:17:36.699,0.371187,3.84497,11.0608,0.192493,-0.0531437,0.281142,0
2024-11-29 18:17:36.701,0.380758,3.83061,11.1206,0.187606,-0.0433702,0.286029,0
2024-11-29 18:17:36.704,0.402293,3.81386,11.19,0.187606,-0.0299315,0.290916,0
2024-11-29 18:17:36.705,0.421436,3.78515,11.257,0.186996,-0.0134386,0.295192,0
2024-11-29 18:17:36.708,0.431007,3.77557,11.3121,0.184552,0.00549763,0.3013,0
2024-11-29 18:17:36.710,0.438186,3.78036,11.3647,0.18272,0.0287098,0.306187,0
2024-11-29 18:17:36.714,0.442971,3.77557,11.4221,0.17539,0.080021,0.315961,0
2024-11-29 18:17:36.715,0.457328,3.77557,11.47,0.17539,0.080021,0.315961,0
2024-11-29 18:17:36.718,0.476471,3.77557,11.5062,0.173557,0.10812,0.319015,0
2024-11-29 18:17:36.721,0.507577,3.78275,11.5373,0.171114,0.138051,0.323902,0
2024-11-29 18:17:36.722,0.533899,3.81147,11.5612,0.16867,0.167983,0.324513,0
2024-11-29 18:17:36.724,0.536291,3.82104,11.5851,0.162562,0.199747,0.326956,0
2024-11-29 18:17:36.728,0.545863,3.81865,11.5995,0.158897,0.233344,0.328789,0
2024-11-29 18:17:36.729,0.531506,3.83061,11.6091,0.154621,0.268162,0.329399,0
2024-11-29 18:17:36.732,0.514756,3.84975,11.6258,0.148512,0.303591,0.331232,0
2024-11-29 18:17:36.735,0.502792,3.87607,11.633,0.141182,0.337188,0.333675,0
2024-11-29 18:17:36.736,0.469292,3.89282,11.6186,0.136906,0.372617,0.333675,0
2024-11-29 18:17:36.738,0.442971,3.91436,11.6019,0.130798,0.411711,0.334897,0
2024-11-29 18:17:36.741,0.414257,3.93829,11.5899,0.122857,0.450805,0.336119,0
2024-11-29 18:17:36.743,0.366401,3.96222,11.5732,0.114916,0.49051,0.33673,0
2024-11-29 18:17:36.746,0.301795,3.98854,11.5469,0.108807,0.535713,0.33734,0
2024-11-29 18:17:36.748,0.244068,4.01246,11.4987,0.102699,0.580916,0.337951,0
2024-11-29 18:17:36.750,0.148355,4.05314,11.4006,0.0923143,0.632838,0.341005,0
2024-11-29 18:17:36.753,-0.0215354,4.11296,11.257,0.0831516,0.690257,0.348336,0
2024-11-29 18:17:36.755,-0.143569,4.15843,11.1517,0.0715455,0.74951,0.356888,0
2024-11-29 18:17:36.758,-0.22014,4.18714,11.0895,0.0581068,0.806318,0.364829,0
2024-11-29 18:17:36.761,-0.160319,4.12253,11.1206,0.0324513,0.899778,0.374602,0
2024-11-29 18:17:36.763,-0.0957129,4.05314,11.1876,0.0324513,0.899778,0.374602,0
2024-11-29 18:17:36.764,-0.311366,4.11775,11.0249,0.021456,0.943759,0.376435,0
2024-11-29 18:17:36.767,-0.576969,4.19432,10.7734,0.00801737,0.998124,0.385597,0
2024-11-29 18:17:36.770,-0.703789,4.2329,10.6896,-0.0255792,1.08975,0.40209,0
2024-11-29 18:17:36.772,-0.837787,4.27597,10.6394,-0.0255792,1.08975,0.40209,0
2024-11-29 18:17:36.775,-1.0319,4.35015,10.5054,-0.0457372,1.12274,0.414307,0
2024-11-29 18:17:36.776,-1.1683,4.41476,10.4001,-0.0695602,1.14167,0.428967,0
2024-11-29 18:17:36.780,-1.24487,4.45065,10.3376,-0.12698,1.12885,0.453401,0
2024-11-29 18:17:36.782,-1.33819,4.48415,10.2491,-0.12698,1.12885,0.453401,0
2024-11-29 18:17:36.783,-1.41506,4.51286,10.139,-0.160576,1.10197,0.465618,0
2024-11-29 18:17:36.786,-1.43659,4.51526,10.0648,-0.197227,1.06165,0.480279,0
2024-11-29 18:17:36.789,-1.39083,4.50808,10.06,-0.235711,0.999346,0.487609,0
2024-11-29 18:17:36.791,-1.31904,4.50808,10.0648,-0.279081,0.920547,0.492496,0
2024-11-29 18:17:36.793,-1.22094,4.51047,10.0768,-0.323673,0.818535,0.494939,0
2024-11-29 18:17:36.795,-1.05344,4.49133,10.1366,-0.374984,0.700031,0.489441,0
2024-11-29 18:17:36.798,-0.773181,4.43151,10.285,-0.431793,0.561979,0.477224,0
2024-11-29 18:17:36.800,-0.368794,4.30708,10.5413,-0.486769,0.401327,0.455234,0
2024-11-29 18:17:36.803,0.0693919,4.13211,10.8595,-0.544799,0.219294,0.42347,0
2024-11-29 18:17:36.805,0.488435,3.94547,11.2331,-0.600997,0.0299315,0.381932,0
2024-11-29 18:17:36.808,0.833001,3.79232,11.645,-0.651163,-0.163096,0.330621,0
2024-11-29 18:17:36.809,1.08933,3.66311,12.0808,-0.698809,-0.347572,0.278088,0
2024-11-29 18:17:36.812,1.34536,3.54317,12.6,-0.737293,-0.519831,0.223723,0
2024-11-29 18:17:36.815,1.60409,3.45942,13.153,-0.766613,-0.675597,0.166914,0
2024-11-29 18:17:36.816,1.64955,3.51207,13.6343,-0.789215,-0.817314,0.111327,0
2024-11-29 18:17:36.821,1.6328,3.58624,14.4772,-0.81487,-1.04638,0.0227541,0
2024-11-29 18:17:36.821,1.6328,3.58624,14.4772,-0.81487,-1.04638,0.0227541,0
2024-11-29 18:17:36.824,1.86491,3.52403,15.1379,-0.810594,-1.14412,-0.0187836,0
2024-11-29 18:17:36.826,2.09731,3.43789,15.7914,-0.795323,-1.23452,-0.060932,0
2024-11-29 18:17:36.829,2.29352,3.31107,16.3684,-0.770889,-1.30538,-0.101859,0
2024-11-29 18:17:36.830,2.48495,3.1675,16.864,-0.734238,-1.36043,-0.144618,0
2024-11-29 18:17:36.834,2.66949,2.98535,17.319,-0.625431,-1.40014,-0.230748,0
2024-11-29 18:17:36.836,2.81785,2.75085,17.7428,-0.625431,-1.40014,-0.230748,0
2024-11-29 18:17:36.838,2.92792,2.5017,18.1161,-0.555184,-1.38242,-0.271674,0
2024-11-29 18:17:36.840,2.99492,2.23849,18.4226,-0.469054,-1.33966,-0.312601,0
2024-11-29 18:17:36.842,3.02602,1.9681,18.65,-0.378038,-1.27911,-0.351084,1
2024-11-29 18:17:36.845,3.02363,1.70459,18.7911,-0.279692,-1.20031,-0.386514,0
2024-11-29 18:17:36.847,2.98535,1.42463,18.8369,-0.17768,-1.10563,-0.417056,0
2024-11-29 18:17:36.850,2.90878,1.15872,18.8106,0.0446682,-0.883285,-0.465313,0
2024-11-29 18:17:36.853,2.76999,0.909871,18.7122,0.158286,-0.754396,-0.476308,0
2024-11-29 18:17:36.854,2.57139,0.679861,18.5088,0.158286,-0.754396,-0.476308,0
2024-11-29 18:17:36.856,2.3342,0.464507,18.2261,0.273125,-0.621232,-0.478752,0
2024-11-29 18:17:36.859,2.08056,0.248854,17.8911,0.38491,-0.478904,-0.4702,0
2024-11-29 18:17:36.862,1.79312,0.0717847,17.5056,0.499139,-0.330468,-0.455539,0
2024-11-29 18:17:36.864,1.4653,-0.0741775,17.065,0.713546,-0.0244339,-0.395676,0
2024-11-29 18:17:36.867,1.11326,-0.20339,16.596,0.813725,0.124613,-0.351084,0
2024-11-29 18:17:36.868,0.775574,-0.294616,16.1124,0.813725,0.124613,-0.351084,0
2024-11-29 18:17:36.871,0.469292,-0.311366,15.5498,0.91085,0.270605,-0.300995,0
2024-11-29 18:17:36.874,0.181855,-0.289831,14.9273,1.07395,0.552206,-0.176993,0
2024-11-29 18:17:36.876,-0.0861416,-0.260818,14.2926,1.14053,0.676819,-0.104302,0
2024-11-29 18:17:36.877,-0.35683,-0.198604,13.6176,1.14053,0.676819,-0.104302,0
2024-11-29 18:17:36.880,-0.65354,-0.11007,12.9042,1.19673,0.783106,-0.0273354,0
2024-11-29 18:17:36.883,-0.919442,-0.0167498,12.2124,1.26209,0.937651,0.133928,0
2024-11-29 18:17:36.886,-1.12762,0.0622134,11.5397,1.2743,0.983464,0.215782,0
2024-11-29 18:17:36.887,-1.28076,0.157926,10.8858,1.2743,0.983464,0.215782,0
2024-11-29 18:17:36.889,-1.57537,0.347258,10.005,1.27491,1.01523,0.297635,0
2024-11-29 18:17:36.892,-1.86251,0.567398,9.04008,1.25292,1.05127,0.385597,0
2024-11-29 18:17:36.894,-1.45095,0.521934,8.87259,1.21566,1.05371,0.466229,0
2024-11-29 18:17:36.897,-0.811466,0.390329,9.0688,1.14786,0.916882,0.570073,0
2024-11-29 18:17:36.900,-0.641576,0.452543,8.7673,1.10693,0.846023,0.606113,0
2024-11-29 18:17:36.901,-0.584148,0.591326,8.26451,1.10693,0.846023,0.606113,0
2024-11-29 18:17:36.904,-0.435793,0.737288,7.91247,1.06051,0.78616,0.636045,0
2024-11-29 18:17:36.907,-0.275175,0.890728,7.68993,1.0153,0.734238,0.659868,0
2024-11-29 18:17:36.908,-0.105284,1.08455,7.52932,0.973156,0.685981,0.678193,0
2024-11-29 18:17:36.910,0.0885344,1.30469,7.41925,0.928564,0.638335,0.687356,0
2024-11-29 18:17:36.913,0.294616,1.49163,7.36182,0.883362,0.582748,0.691632,0
2024-11-29 18:17:36.916,0.52672,1.64477,7.369,0.800897,0.446529,0.680026,0
2024-11-29 18:17:36.917,0.754038,1.80987,7.34985,0.800897,0.446529,0.680026,0
2024-11-29 18:17:36.921,0.957727,1.9681,7.31635,0.756916,0.373228,0.659868,0
2024-11-29 18:17:36.923,1.14915,2.09013,7.302,0.670787,0.219294,0.605502,0
2024-11-29 18:17:36.925,1.32622,2.21695,7.24696,0.670787,0.219294,0.605502,0
2024-11-29 18:17:36.928,1.47488,2.33898,7.19911,0.629249,0.147214,0.571906,0
2024-11-29 18:17:36.930,1.64955,2.42752,7.20868,0.585879,0.0787993,0.527925,0
2024-11-29 18:17:36.932,1.85773,2.51366,7.23978,0.545563,0.00977356,0.477835,0
2024-11-29 18:17:36.935,2.01356,2.6001,7.22064,0.506469,-0.0561979,0.425302,0
2024-11-29 18:17:36.937,2.13081,2.67189,7.19432,0.469207,-0.109342,0.367883,0
2024-11-29 18:17:36.939,2.25045,2.74367,7.19671,0.431335,-0.15882,0.305576,0
2024-11-29 18:17:36.941,2.33181,2.80349,7.15843,0.394684,-0.200969,0.240827,0
2024-11-29 18:17:36.943,2.36291,2.8322,7.06989,0.358033,-0.234565,0.175466,0
2024-11-29 18:17:36.946,2.34616,2.84895,7.02682,0.316495,-0.265719,0.110105,0
2024-11-29 18:17:36.949,2.32941,2.83938,7.06989,0.241972,-0.332912,-0.0175619,0
2024-11-29 18:17:36.951,2.33898,2.79871,7.12254,0.241972,-0.332912,-0.0175619,0
2024-11-29 18:17:36.953,2.31984,2.71017,7.15125,0.203488,-0.370173,-0.0792574,0
