timestamp,accel_x,accel_y,accel_z,gyro_x,gyro_y,gyro_z,step_timestamp
2024-11-29 18:13:46.654,0.0382852,2.55464,9.56441,-0.11232,-0.0836861,-0.0481042,0
2024-11-29 18:13:46.654,0.0382852,2.55464,9.56441,-0.11232,-0.0836861,-0.0481042,0
2024-11-29 18:13:46.654,0.0382852,2.55464,9.56441,-0.11232,-0.0836861,-0.0481042,0
2024-11-29 18:13:46.654,0.0382852,2.55464,9.56441,-0.11232,-0.0836861,-0.0481042,0
2024-11-29 18:13:46.654,0.0382852,2.55464,9.56441,-0.11232,-0.0836861,-0.0481042,0
2024-11-29 18:13:46.655,0.0598206,2.55703,9.55963,-0.11232,-0.0836861,-0.0481042,0
2024-11-29 18:13:46.655,0.0598206,2.55703,9.55963,-0.11232,-0.0836861,-0.0481042,0
2024-11-29 18:13:46.655,0.0598206,2.55703,9.55963,-0.11232,-0.0836861,-0.0481042,0
2024-11-29 18:13:46.655,0.0598206,2.55703,9.55963,-0.11232,-0.0836861,-0.0481042,0
2024-11-29 18:13:46.655,0.0598206,2.55703,9.55963,-0.11232,-0.0836861,-0.0481042,0
2024-11-29 18:13:46.655,0.0598206,2.55703,9.55963,-0.11232,-0.0836861,-0.0481042,0
2024-11-29 18:13:46.656,0.0598206,2.55703,9.55963,-0.115374,-0.0812427,-0.0456608,0
2024-11-29 18:13:46.656,0.0598206,2.55703,9.55963,-0.115374,-0.0812427,-0.0456608,0
2024-11-29 18:13:46.656,0.0598206,2.55703,9.55963,-0.115374,-0.0812427,-0.0456608,0
2024-11-29 18:13:46.656,0.0382852,2.55464,9.55963,-0.115374,-0.0812427,-0.0456608,0
2024-11-29 18:13:46.656,0.0598206,2.55703,9.55963,-0.115374,-0.0812427,-0.0456608,0
2024-11-29 18:13:46.656,0.0598206,2.55703,9.55963,-0.115374,-0.0812427,-0.0456608,0
2024-11-29 18:13:46.656,0.0598206,2.55703,9.55963,-0.115374,-0.0812427,-0.0456608,0
2024-11-29 18:13:46.657,0.066999,2.56421,9.55005,-0.115374,-0.0812427,-0.0456608,0
2024-11-29 18:13:46.657,0.066999,2.56421,9.55005,-0.115374,-0.0812427,-0.0456608,0
2024-11-29 18:13:46.657,0.066999,2.56421,9.55005,-0.115374,-0.0812427,-0.0456608,0
2024-11-29 18:13:46.657,0.066999,2.56421,9.55005,-0.115374,-0.0812427,-0.0456608,0
2024-11-29 18:13:46.658,0.066999,2.56421,9.55005,-0.115374,-0.0812427,-0.0456608,0
2024-11-29 18:13:46.658,0.066999,2.56421,9.55005,-0.115374,-0.0812427,-0.0456608,0
2024-11-29 18:13:46.658,0.066999,2.56421,9.55005,-0.115374,-0.0812427,-0.0456608,0
2024-11-29 18:13:46.658,0.066999,2.56421,9.55005,-0.115374,-0.0812427,-0.0456608,0
2024-11-29 18:13:46.660,0.0717847,2.5666,9.54288,-0.115374,-0.0794101,-0.0426066,0
2024-11-29 18:13:46.660,0.066999,2.56421,9.55005,-0.115374,-0.0794101,-0.0426066,0
2024-11-29 18:13:46.660,0.0717847,2.5666,9.54288,-0.115374,-0.0794101,-0.0426066,0
2024-11-29 18:13:46.660,0.0717847,2.5666,9.54288,-0.115374,-0.0794101,-0.0426066,0
2024-11-29 18:13:46.661,0.0717847,2.5666,9.54288,-0.117206,-0.0775776,-0.0413849,0
2024-11-29 18:13:46.661,0.0717847,2.5666,9.54288,-0.117206,-0.0775776,-0.0413849,0
2024-11-29 18:13:46.661,0.0717847,2.5666,9.54288,-0.117206,-0.0775776,-0.0413849,0
2024-11-29 18:13:46.661,0.0717847,2.5666,9.54288,-0.117206,-0.0775776,-0.0413849,0
2024-11-29 18:13:46.661,0.0717847,2.5666,9.54288,-0.117206,-0.0775776,-0.0413849,0
2024-11-29 18:13:46.661,0.0717847,2.5666,9.54288,-0.117206,-0.0775776,-0.0413849,0
2024-11-29 18:13:46.662,0.0933201,2.57857,9.54766,-0.117206,-0.0775776,-0.0413849,0
2024-11-29 18:13:46.662,0.0933201,2.57857,9.54766,-0.117206,-0.0775776,-0.0413849,0
2024-11-29 18:13:46.662,0.0933201,2.57857,9.54766,-0.117206,-0.0775776,-0.0413849,0
2024-11-29 18:13:46.663,0.0933201,2.57857,9.54766,-0.11965,-0.0739125,-0.0395524,0
2024-11-29 18:13:46.663,0.0933201,2.57857,9.54766,-0.11965,-0.0739125,-0.0395524,0
2024-11-29 18:13:46.663,0.0933201,2.57857,9.54766,-0.11965,-0.0739125,-0.0395524,0
2024-11-29 18:13:46.665,0.112463,2.59292,9.54527,-0.11965,-0.0739125,-0.0395524,0
2024-11-29 18:13:46.665,0.112463,2.59292,9.54527,-0.11965,-0.0739125,-0.0395524,0
2024-11-29 18:13:46.665,0.112463,2.59292,9.54527,-0.11965,-0.0739125,-0.0395524,0
2024-11-29 18:13:46.666,0.112463,2.59292,9.54527,-0.11965,-0.07208,-0.0364981,0
2024-11-29 18:13:46.666,0.112463,2.59292,9.54527,-0.11965,-0.07208,-0.0364981,0
2024-11-29 18:13:46.666,0.112463,2.59292,9.54527,-0.11965,-0.07208,-0.0364981,0
2024-11-29 18:13:46.666,0.112463,2.59292,9.54527,-0.11965,-0.07208,-0.0364981,0
2024-11-29 18:13:46.666,0.112463,2.59292,9.54527,-0.11965,-0.07208,-0.0364981,0
2024-11-29 18:13:46.667,0.138784,2.59292,9.55484,-0.11965,-0.07208,-0.0364981,0
2024-11-29 18:13:46.667,0.138784,2.59292,9.55484,-0.11965,-0.07208,-0.0364981,0
2024-11-29 18:13:46.667,0.138784,2.59292,9.55484,-0.11965,-0.07208,-0.0364981,0
2024-11-29 18:13:46.668,0.138784,2.59292,9.55484,-0.121482,-0.0696366,-0.0352764,0
2024-11-29 18:13:46.668,0.138784,2.59292,9.55484,-0.121482,-0.0696366,-0.0352764,0
2024-11-29 18:13:46.669,0.150748,2.59771,9.56441,-0.121482,-0.0696366,-0.0352764,0
2024-11-29 18:13:46.669,0.150748,2.59771,9.56441,-0.121482,-0.0696366,-0.0352764,0
2024-11-29 18:13:46.669,0.150748,2.59771,9.56441,-0.121482,-0.0696366,-0.0352764,0
2024-11-29 18:13:46.670,0.150748,2.59771,9.56441,-0.120871,-0.064139,-0.0358873,0
2024-11-29 18:13:46.670,0.150748,2.59771,9.56441,-0.120871,-0.064139,-0.0358873,0
2024-11-29 18:13:46.670,0.150748,2.59771,9.56441,-0.120871,-0.064139,-0.0358873,0
2024-11-29 18:13:46.670,0.150748,2.59771,9.56441,-0.120871,-0.064139,-0.0358873,0
2024-11-29 18:13:46.672,0.157926,2.60967,9.55723,-0.120871,-0.064139,-0.0358873,0
2024-11-29 18:13:46.672,0.157926,2.60967,9.55723,-0.120871,-0.064139,-0.0358873,0
2024-11-29 18:13:46.672,0.157926,2.60967,9.55723,-0.120871,-0.064139,-0.0358873,0
2024-11-29 18:13:46.672,0.157926,2.60967,9.55723,-0.120871,-0.064139,-0.0358873,0
2024-11-29 18:13:46.672,0.157926,2.60967,9.55723,-0.120871,-0.064139,-0.0358873,0
2024-11-29 18:13:46.673,0.157926,2.60967,9.55723,-0.122704,-0.0604739,-0.0364981,0
2024-11-29 18:13:46.673,0.157926,2.60967,9.55723,-0.122704,-0.0604739,-0.0364981,0
2024-11-29 18:13:46.674,0.177069,2.61685,9.55723,-0.122704,-0.0604739,-0.0364981,0
2024-11-29 18:13:46.674,0.177069,2.61685,9.55723,-0.122704,-0.0604739,-0.0364981,0
2024-11-29 18:13:46.674,0.177069,2.61685,9.55723,-0.122704,-0.0604739,-0.0364981,0
2024-11-29 18:13:46.675,0.177069,2.61685,9.55723,-0.122704,-0.059863,-0.0352764,0
2024-11-29 18:13:46.675,0.177069,2.61685,9.55723,-0.122704,-0.059863,-0.0352764,0
2024-11-29 18:13:46.675,0.177069,2.61685,9.55723,-0.122704,-0.059863,-0.0352764,0
2024-11-29 18:13:46.675,0.157926,2.60967,9.55723,-0.122704,-0.059863,-0.0352764,0
2024-11-29 18:13:46.676,0.208176,2.61924,9.55245,-0.122704,-0.059863,-0.0352764,0
2024-11-29 18:13:46.676,0.208176,2.61924,9.55245,-0.122704,-0.059863,-0.0352764,0
2024-11-29 18:13:46.676,0.208176,2.61924,9.55245,-0.122704,-0.059863,-0.0352764,0
2024-11-29 18:13:46.677,0.208176,2.61924,9.55245,-0.122704,-0.059863,-0.0352764,0
2024-11-29 18:13:46.677,0.208176,2.61924,9.55245,-0.122704,-0.059863,-0.0352764,0
2024-11-29 18:13:46.677,0.208176,2.61924,9.55245,-0.122704,-0.059863,-0.0352764,0
2024-11-29 18:13:46.679,0.239282,2.59771,9.54288,-0.122704,-0.0555871,-0.0377198,0
2024-11-29 18:13:46.679,0.239282,2.59771,9.54288,-0.122704,-0.0555871,-0.0377198,0
2024-11-29 18:13:46.680,0.239282,2.59771,9.54288,-0.125147,-0.0531437,-0.0389415,0
2024-11-29 18:13:46.680,0.239282,2.59771,9.54288,-0.125147,-0.0531437,-0.0389415,0
2024-11-29 18:13:46.680,0.239282,2.59771,9.54288,-0.125147,-0.0531437,-0.0389415,0
2024-11-29 18:13:46.680,0.239282,2.59771,9.54288,-0.125147,-0.0531437,-0.0389415,0
2024-11-29 18:13:46.680,0.239282,2.59771,9.54288,-0.125147,-0.0531437,-0.0389415,0
2024-11-29 18:13:46.681,0.260818,2.57378,9.5357,-0.125147,-0.0531437,-0.0389415,0
2024-11-29 18:13:46.681,0.260818,2.57378,9.5357,-0.125147,-0.0531437,-0.0389415,0
2024-11-29 18:13:46.681,0.260818,2.57378,9.5357,-0.125147,-0.0531437,-0.0389415,0
2024-11-29 18:13:46.682,0.260818,2.57378,9.5357,-0.125147,-0.0525329,-0.0413849,0
2024-11-29 18:13:46.682,0.260818,2.57378,9.5357,-0.125147,-0.0525329,-0.0413849,0
2024-11-29 18:13:46.682,0.260818,2.57378,9.5357,-0.125147,-0.0525329,-0.0413849,0
2024-11-29 18:13:46.682,0.260818,2.57378,9.5357,-0.125147,-0.0525329,-0.0413849,0
2024-11-29 18:13:46.682,0.260818,2.57378,9.5357,-0.125147,-0.0525329,-0.0413849,0
2024-11-29 18:13:46.682,0.260818,2.57378,9.5357,-0.125147,-0.0525329,-0.0413849,0
2024-11-29 18:13:46.682,0.260818,2.57378,9.5357,-0.125147,-0.0525329,-0.0413849,0
2024-11-29 18:13:46.683,0.272782,2.57617,9.51895,-0.125147,-0.0525329,-0.0413849,0
2024-11-29 18:13:46.683,0.272782,2.57617,9.51895,-0.125147,-0.0525329,-0.0413849,0
2024-11-29 18:13:46.683,0.272782,2.57617,9.51895,-0.125147,-0.0525329,-0.0413849,0
2024-11-29 18:13:46.684,0.272782,2.57617,9.51895,-0.125147,-0.0525329,-0.0413849,0
2024-11-29 18:13:46.684,0.272782,2.57617,9.51895,-0.125147,-0.0525329,-0.0413849,0
2024-11-29 18:13:46.686,0.267996,2.58814,9.50698,-0.125758,-0.0513112,-0.0432174,0
2024-11-29 18:13:46.686,0.267996,2.58814,9.50698,-0.125758,-0.0513112,-0.0432174,0
2024-11-29 18:13:46.686,0.267996,2.58814,9.50698,-0.125758,-0.0513112,-0.0432174,0
2024-11-29 18:13:46.686,0.267996,2.58814,9.50698,-0.125758,-0.0513112,-0.0432174,0
2024-11-29 18:13:46.687,0.267996,2.58814,9.50698,-0.126369,-0.0500895,-0.0462717,0
2024-11-29 18:13:46.687,0.267996,2.58814,9.50698,-0.126369,-0.0500895,-0.0462717,0
2024-11-29 18:13:46.687,0.267996,2.58814,9.50698,-0.126369,-0.0500895,-0.0462717,0
2024-11-29 18:13:46.687,0.267996,2.58814,9.50698,-0.126369,-0.0500895,-0.0462717,0
2024-11-29 18:13:46.688,0.265603,2.58096,9.49263,-0.126369,-0.0500895,-0.0462717,0
2024-11-29 18:13:46.688,0.265603,2.58096,9.49263,-0.126369,-0.0500895,-0.0462717,0
2024-11-29 18:13:46.688,0.265603,2.58096,9.49263,-0.126369,-0.0500895,-0.0462717,0
2024-11-29 18:13:46.689,0.265603,2.58096,9.49263,-0.12698,-0.0476461,-0.0462717,0
2024-11-29 18:13:46.689,0.267996,2.58814,9.49263,-0.12698,-0.0476461,-0.0462717,0
2024-11-29 18:13:46.689,0.265603,2.58096,9.49263,-0.12698,-0.0476461,-0.0462717,0
2024-11-29 18:13:46.690,0.260818,2.5666,9.48066,-0.12698,-0.0476461,-0.0462717,0
2024-11-29 18:13:46.690,0.260818,2.5666,9.48066,-0.12698,-0.0476461,-0.0462717,0
2024-11-29 18:13:46.690,0.260818,2.5666,9.48066,-0.12698,-0.0476461,-0.0462717,0
2024-11-29 18:13:46.690,0.260818,2.5666,9.48066,-0.12698,-0.0476461,-0.0462717,0
2024-11-29 18:13:46.690,0.260818,2.5666,9.48066,-0.12698,-0.0476461,-0.0462717,0
2024-11-29 18:13:46.690,0.260818,2.5666,9.48066,-0.12698,-0.0476461,-0.0462717,0
2024-11-29 18:13:46.691,0.260818,2.5666,9.48066,-0.12698,-0.0476461,-0.0462717,0
2024-11-29 18:13:46.691,0.265603,2.58096,9.48066,-0.12698,-0.0476461,-0.0462717,0
2024-11-29 18:13:46.691,0.260818,2.5666,9.48066,-0.12698,-0.0476461,-0.0462717,0
2024-11-29 18:13:46.691,0.260818,2.5666,9.48066,-0.12698,-0.0476461,-0.0462717,0
2024-11-29 18:13:46.691,0.260818,2.5666,9.48066,-0.12698,-0.0476461,-0.0462717,0
2024-11-29 18:13:46.691,0.260818,2.5666,9.48066,-0.12698,-0.0476461,-0.0462717,0
2024-11-29 18:13:46.691,0.260818,2.5666,9.48066,-0.12698,-0.0476461,-0.0462717,0
2024-11-29 18:13:46.698,0.260818,2.52084,9.43281,-0.128202,-0.0452027,-0.0505476,0
2024-11-29 18:13:46.698,0.260818,2.52084,9.43281,-0.128202,-0.0452027,-0.0505476,0
2024-11-29 18:13:46.698,0.260818,2.52084,9.43281,-0.128202,-0.0452027,-0.0505476,0
2024-11-29 18:13:46.699,0.260818,2.52084,9.43281,-0.12698,-0.0445919,-0.0481042,0
2024-11-29 18:13:46.699,0.248854,2.5331,9.44716,-0.12698,-0.0445919,-0.0481042,0
2024-11-29 18:13:46.699,0.260818,2.52084,9.43281,-0.12698,-0.0445919,-0.0481042,0
2024-11-29 18:13:46.699,0.260818,2.52084,9.43281,-0.12698,-0.0445919,-0.0481042,0
2024-11-29 18:13:46.699,0.260818,2.52084,9.43281,-0.12698,-0.0445919,-0.0481042,0
2024-11-29 18:13:46.699,0.260818,2.52084,9.43281,-0.12698,-0.0445919,-0.0481042,0
2024-11-29 18:13:46.700,0.267996,2.5017,9.40409,-0.12698,-0.0445919,-0.0481042,0
2024-11-29 18:13:46.700,0.267996,2.5017,9.40409,-0.12698,-0.0445919,-0.0481042,0
2024-11-29 18:13:46.700,0.267996,2.5017,9.40409,-0.12698,-0.0445919,-0.0481042,0
2024-11-29 18:13:46.701,0.267996,2.5017,9.40409,-0.131256,-0.0458135,-0.0474934,0
2024-11-29 18:13:46.701,0.267996,2.5017,9.40409,-0.131256,-0.0458135,-0.0474934,0
2024-11-29 18:13:46.702,0.265603,2.4993,9.37777,-0.131256,-0.0458135,-0.0474934,0
2024-11-29 18:13:46.702,0.265603,2.4993,9.37777,-0.131256,-0.0458135,-0.0474934,0
2024-11-29 18:13:46.702,0.265603,2.4993,9.37777,-0.131256,-0.0458135,-0.0474934,0
2024-11-29 18:13:46.703,0.265603,2.4993,9.37777,-0.130034,-0.0482569,-0.0474934,0
2024-11-29 18:13:46.703,0.265603,2.4993,9.37777,-0.130034,-0.0482569,-0.0474934,0
2024-11-29 18:13:46.703,0.265603,2.4993,9.37777,-0.130034,-0.0482569,-0.0474934,0
2024-11-29 18:13:46.703,0.265603,2.4993,9.37777,-0.130034,-0.0482569,-0.0474934,0
2024-11-29 18:13:46.705,0.277567,2.48255,9.35624,-0.130034,-0.0482569,-0.0474934,0
2024-11-29 18:13:46.705,0.277567,2.48255,9.35624,-0.130034,-0.0482569,-0.0474934,0
2024-11-29 18:13:46.705,0.277567,2.48255,9.35624,-0.130034,-0.0482569,-0.0474934,0
2024-11-29 18:13:46.706,0.277567,2.48255,9.35624,-0.129423,-0.0494786,-0.0481042,0
2024-11-29 18:13:46.706,0.277567,2.48255,9.35624,-0.129423,-0.0494786,-0.0481042,0
2024-11-29 18:13:46.706,0.277567,2.48255,9.35624,-0.129423,-0.0494786,-0.0481042,0
2024-11-29 18:13:46.706,0.277567,2.48255,9.35624,-0.129423,-0.0494786,-0.0481042,0
2024-11-29 18:13:46.707,0.287438,2.4658,9.32513,-0.129423,-0.0494786,-0.0481042,0
2024-11-29 18:13:46.707,0.287438,2.4658,9.32513,-0.129423,-0.0494786,-0.0481042,0
2024-11-29 18:13:46.708,0.287438,2.4658,9.32513,-0.133699,-0.051922,-0.0487151,0
2024-11-29 18:13:46.708,0.287438,2.4658,9.32513,-0.133699,-0.051922,-0.0487151,0
2024-11-29 18:13:46.708,0.287438,2.4658,9.32513,-0.133699,-0.051922,-0.0487151,0
2024-11-29 18:13:46.709,0.301795,2.43709,9.29881,-0.133699,-0.051922,-0.0487151,0
2024-11-29 18:13:46.709,0.301795,2.43709,9.29881,-0.133699,-0.051922,-0.0487151,0
2024-11-29 18:13:46.709,0.301795,2.43709,9.29881,-0.133699,-0.051922,-0.0487151,0
2024-11-29 18:13:46.709,0.301795,2.43709,9.29881,-0.133699,-0.051922,-0.0487151,0
2024-11-29 18:13:46.710,0.301795,2.43709,9.29881,-0.13431,-0.0555871,-0.0505476,0
2024-11-29 18:13:46.710,0.301795,2.43709,9.29881,-0.13431,-0.0555871,-0.0505476,0
2024-11-29 18:13:46.712,0.32333,2.41077,9.27488,-0.13431,-0.0555871,-0.0505476,0
2024-11-29 18:13:46.712,0.32333,2.41077,9.27488,-0.13431,-0.0555871,-0.0505476,0
2024-11-29 18:13:46.712,0.32333,2.41077,9.27488,-0.13431,-0.0555871,-0.0505476,0
2024-11-29 18:13:46.712,0.32333,2.41077,9.27488,-0.13431,-0.0555871,-0.0505476,0
2024-11-29 18:13:46.713,0.32333,2.41077,9.27488,-0.135532,-0.059863,-0.0487151,0
2024-11-29 18:13:46.713,0.32333,2.41077,9.27488,-0.135532,-0.059863,-0.0487151,0
2024-11-29 18:13:46.713,0.32333,2.41077,9.27488,-0.135532,-0.059863,-0.0487151,0
2024-11-29 18:13:46.714,0.337687,2.40838,9.25305,-0.135532,-0.059863,-0.0487151,0
2024-11-29 18:13:46.714,0.337687,2.40838,9.25305,-0.135532,-0.059863,-0.0487151,0
2024-11-29 18:13:46.714,0.337687,2.40838,9.25305,-0.135532,-0.059863,-0.0487151,0
2024-11-29 18:13:46.715,0.337687,2.40838,9.25305,-0.139197,-0.0665824,-0.0499368,0
2024-11-29 18:13:46.715,0.337687,2.40838,9.25305,-0.139197,-0.0665824,-0.0499368,0
2024-11-29 18:13:46.715,0.337687,2.40838,9.25305,-0.139197,-0.0665824,-0.0499368,0
2024-11-29 18:13:46.715,0.337687,2.40838,9.25305,-0.139197,-0.0665824,-0.0499368,0
2024-11-29 18:13:46.715,0.337687,2.40838,9.25305,-0.139197,-0.0665824,-0.0499368,0
2024-11-29 18:13:46.715,0.337687,2.40838,9.25305,-0.139197,-0.0665824,-0.0499368,0
2024-11-29 18:13:46.716,0.335294,2.39163,9.22672,-0.139197,-0.0665824,-0.0499368,0
2024-11-29 18:13:46.716,0.335294,2.39163,9.22672,-0.139197,-0.0665824,-0.0499368,0
2024-11-29 18:13:46.716,0.335294,2.39163,9.22672,-0.139197,-0.0665824,-0.0499368,0
2024-11-29 18:13:46.716,0.335294,2.39163,9.22672,-0.139197,-0.0665824,-0.0499368,0
2024-11-29 18:13:46.716,0.335294,2.39163,9.22672,-0.139197,-0.0665824,-0.0499368,0
2024-11-29 18:13:46.717,0.335294,2.39163,9.22672,-0.139197,-0.0665824,-0.0499368,0
2024-11-29 18:13:46.717,0.335294,2.39163,9.22672,-0.139197,-0.0665824,-0.0499368,0
2024-11-29 18:13:46.717,0.335294,2.39163,9.22672,-0.139197,-0.0665824,-0.0499368,0
2024-11-29 18:13:46.717,0.335294,2.39163,9.22672,-0.139197,-0.0665824,-0.0499368,0
2024-11-29 18:13:46.717,0.335294,2.39163,9.22672,-0.139197,-0.0665824,-0.0499368,0
2024-11-29 18:13:46.719,0.342473,2.38206,9.21476,-0.143473,-0.0714691,-0.0517693,0
2024-11-29 18:13:46.719,0.342473,2.38206,9.21476,-0.143473,-0.0714691,-0.0517693,0
2024-11-29 18:13:46.719,0.342473,2.38206,9.21476,-0.143473,-0.0714691,-0.0517693,0
2024-11-29 18:13:46.719,0.342473,2.38206,9.21476,-0.143473,-0.0714691,-0.0517693,0
2024-11-29 18:13:46.720,0.342473,2.38206,9.21476,-0.147749,-0.0769668,-0.0517693,0
2024-11-29 18:13:46.720,0.342473,2.38206,9.21476,-0.147749,-0.0769668,-0.0517693,0
2024-11-29 18:13:46.720,0.342473,2.38206,9.21476,-0.147749,-0.0769668,-0.0517693,0
2024-11-29 18:13:46.720,0.342473,2.38206,9.21476,-0.147749,-0.0769668,-0.0517693,0
2024-11-29 18:13:46.720,0.342473,2.38206,9.21476,-0.147749,-0.0769668,-0.0517693,0
2024-11-29 18:13:46.720,0.342473,2.38206,9.21476,-0.147749,-0.0769668,-0.0517693,0
2024-11-29 18:13:46.721,0.352044,2.37488,9.20519,-0.147749,-0.0769668,-0.0517693,0
2024-11-29 18:13:46.721,0.352044,2.37488,9.20519,-0.147749,-0.0769668,-0.0517693,0
2024-11-29 18:13:46.721,0.352044,2.37488,9.20519,-0.147749,-0.0769668,-0.0517693,0
2024-11-29 18:13:46.721,0.352044,2.37488,9.20519,-0.147749,-0.0769668,-0.0517693,0
2024-11-29 18:13:46.721,0.352044,2.37488,9.20519,-0.147749,-0.0769668,-0.0517693,0
2024-11-29 18:13:46.722,0.352044,2.37488,9.20519,-0.152635,-0.0830752,-0.052991,0
2024-11-29 18:13:46.722,0.352044,2.37488,9.20519,-0.152635,-0.0830752,-0.052991,0
2024-11-29 18:13:46.722,0.352044,2.37488,9.20519,-0.152635,-0.0830752,-0.052991,0
2024-11-29 18:13:46.722,0.352044,2.37488,9.20519,-0.152635,-0.0830752,-0.052991,0
2024-11-29 18:13:46.723,0.344866,2.36531,9.19562,-0.152635,-0.0830752,-0.052991,0
2024-11-29 18:13:46.723,0.352044,2.37488,9.20519,-0.152635,-0.0830752,-0.052991,0
2024-11-29 18:13:46.723,0.344866,2.36531,9.19562,-0.152635,-0.0830752,-0.052991,0
2024-11-29 18:13:46.723,0.344866,2.36531,9.19562,-0.152635,-0.0830752,-0.052991,0
2024-11-29 18:13:46.724,0.344866,2.36531,9.19562,-0.152635,-0.0830752,-0.052991,0
2024-11-29 18:13:46.724,0.344866,2.36531,9.19562,-0.152635,-0.0830752,-0.052991,0
2024-11-29 18:13:46.724,0.344866,2.36531,9.19562,-0.152635,-0.0830752,-0.052991,0
2024-11-29 18:13:46.724,0.344866,2.36531,9.19562,-0.152635,-0.0830752,-0.052991,0
2024-11-29 18:13:46.726,0.35683,2.36531,9.19801,-0.158744,-0.0910162,-0.052991,0
2024-11-29 18:13:46.726,0.35683,2.36531,9.19801,-0.158744,-0.0910162,-0.052991,0
2024-11-29 18:13:46.726,0.35683,2.36531,9.19801,-0.158744,-0.0910162,-0.052991,0
2024-11-29 18:13:46.726,0.35683,2.36531,9.19801,-0.158744,-0.0910162,-0.052991,0
2024-11-29 18:13:46.727,0.35683,2.36531,9.19801,-0.161187,-0.095903,-0.0523802,0
2024-11-29 18:13:46.727,0.35683,2.36531,9.19801,-0.161187,-0.095903,-0.0523802,0
2024-11-29 18:13:46.727,0.35683,2.36531,9.19801,-0.161187,-0.095903,-0.0523802,0
2024-11-29 18:13:46.727,0.35683,2.36531,9.19801,-0.161187,-0.095903,-0.0523802,0
2024-11-29 18:13:46.727,0.35683,2.36531,9.19801,-0.161187,-0.095903,-0.0523802,0
2024-11-29 18:13:46.728,0.366401,2.37727,9.20519,-0.161187,-0.095903,-0.0523802,0
2024-11-29 18:13:46.728,0.366401,2.37727,9.20519,-0.161187,-0.095903,-0.0523802,0
2024-11-29 18:13:46.728,0.366401,2.37727,9.20519,-0.161187,-0.095903,-0.0523802,0
2024-11-29 18:13:46.728,0.366401,2.37727,9.20519,-0.161187,-0.095903,-0.0523802,0
2024-11-29 18:13:46.729,0.366401,2.37727,9.20519,-0.166685,-0.103233,-0.0523802,0
2024-11-29 18:13:46.729,0.366401,2.37727,9.20519,-0.166685,-0.103233,-0.0523802,0
2024-11-29 18:13:46.729,0.366401,2.37727,9.20519,-0.166685,-0.103233,-0.0523802,0
2024-11-29 18:13:46.729,0.366401,2.37727,9.20519,-0.166685,-0.103233,-0.0523802,0
2024-11-29 18:13:46.729,0.366401,2.37727,9.20519,-0.166685,-0.103233,-0.0523802,0
2024-11-29 18:13:46.731,0.35683,2.37966,9.21237,-0.166685,-0.103233,-0.0523802,0
2024-11-29 18:13:46.731,0.35683,2.37966,9.21237,-0.166685,-0.103233,-0.0523802,0
2024-11-29 18:13:46.731,0.35683,2.37966,9.21237,-0.166685,-0.103233,-0.0523802,0
2024-11-29 18:13:46.731,0.35683,2.37966,9.21237,-0.166685,-0.103233,-0.0523802,0
2024-11-29 18:13:46.731,0.35683,2.37966,9.21237,-0.166685,-0.103233,-0.0523802,0
2024-11-29 18:13:46.731,0.35683,2.37966,9.21237,-0.166685,-0.103233,-0.0523802,0
2024-11-29 18:13:46.732,0.35683,2.37966,9.21237,-0.170961,-0.109342,-0.052991,0
2024-11-29 18:13:46.732,0.366401,2.37727,9.21237,-0.170961,-0.109342,-0.052991,0
2024-11-29 18:13:46.732,0.35683,2.37966,9.21237,-0.170961,-0.109342,-0.052991,0
2024-11-29 18:13:46.732,0.35683,2.37966,9.21237,-0.170961,-0.109342,-0.052991,0
2024-11-29 18:13:46.732,0.35683,2.37966,9.21237,-0.170961,-0.109342,-0.052991,0
2024-11-29 18:13:46.732,0.35683,2.37966,9.21237,-0.170961,-0.109342,-0.052991,0
2024-11-29 18:13:46.732,0.35683,2.37966,9.21237,-0.170961,-0.109342,-0.052991,0
2024-11-29 18:13:46.733,0.354437,2.39402,9.21955,-0.170961,-0.109342,-0.052991,0
2024-11-29 18:13:46.733,0.354437,2.39402,9.21955,-0.170961,-0.109342,-0.052991,0
2024-11-29 18:13:46.733,0.354437,2.39402,9.21955,-0.170961,-0.109342,-0.052991,0
2024-11-29 18:13:46.733,0.354437,2.39402,9.21955,-0.170961,-0.109342,-0.052991,0
2024-11-29 18:13:46.734,0.354437,2.39402,9.21955,-0.174626,-0.114228,-0.0542127,0
2024-11-29 18:13:46.734,0.354437,2.39402,9.21955,-0.174626,-0.114228,-0.0542127,0
2024-11-29 18:13:46.734,0.354437,2.39402,9.21955,-0.174626,-0.114228,-0.0542127,0
2024-11-29 18:13:46.735,0.352044,2.41555,9.24587,-0.174626,-0.114228,-0.0542127,0
2024-11-29 18:13:46.735,0.352044,2.41555,9.24587,-0.174626,-0.114228,-0.0542127,0
2024-11-29 18:13:46.735,0.352044,2.41555,9.24587,-0.174626,-0.114228,-0.0542127,0
2024-11-29 18:13:46.735,0.352044,2.41555,9.24587,-0.174626,-0.114228,-0.0542127,0
2024-11-29 18:13:46.735,0.352044,2.41555,9.24587,-0.174626,-0.114228,-0.0542127,0
2024-11-29 18:13:46.736,0.352044,2.41555,9.24587,-0.176459,-0.120948,-0.0548235,0
2024-11-29 18:13:46.736,0.352044,2.41555,9.24587,-0.176459,-0.120948,-0.0548235,0
2024-11-29 18:13:46.736,0.352044,2.41555,9.24587,-0.176459,-0.120948,-0.0548235,0
2024-11-29 18:13:46.736,0.352044,2.41555,9.24587,-0.176459,-0.120948,-0.0548235,0
2024-11-29 18:13:46.738,0.347258,2.41077,9.27966,-0.176459,-0.120948,-0.0548235,0
2024-11-29 18:13:46.738,0.347258,2.41077,9.27966,-0.176459,-0.120948,-0.0548235,0
2024-11-29 18:13:46.738,0.347258,2.41077,9.27966,-0.176459,-0.120948,-0.0548235,0
2024-11-29 18:13:46.739,0.347258,2.41077,9.27966,-0.176459,-0.120948,-0.0548235,0
2024-11-29 18:13:46.739,0.347258,2.41077,9.27966,-0.176459,-0.120948,-0.0548235,0
2024-11-29 18:13:46.739,0.347258,2.41077,9.27966,-0.176459,-0.120948,-0.0548235,0
2024-11-29 18:13:46.739,0.347258,2.41077,9.27966,-0.176459,-0.120948,-0.0548235,0
2024-11-29 18:13:46.739,0.347258,2.41077,9.27966,-0.176459,-0.120948,-0.0548235,0
2024-11-29 18:13:46.740,0.364008,2.41077,9.31316,-0.179513,-0.1295,-0.0542127,0
2024-11-29 18:13:46.745,0.41665,2.42034,9.35384,-0.186843,-0.141106,-0.0548235,0
2024-11-29 18:13:46.746,0.41665,2.42034,9.35384,-0.186843,-0.141106,-0.0548235,0
2024-11-29 18:13:46.748,0.447757,2.41077,9.39452,-0.186843,-0.144771,-0.0536018,0
2024-11-29 18:13:46.749,0.469292,2.41555,9.42323,-0.191119,-0.15149,-0.0554344,0
2024-11-29 18:13:46.752,0.512363,2.41316,9.45195,-0.192341,-0.160042,-0.0572669,0
2024-11-29 18:13:46.754,0.565005,2.40598,9.47109,-0.194784,-0.163707,-0.0590995,0
2024-11-29 18:13:46.757,0.608076,2.39163,9.50938,-0.197227,-0.169205,-0.0590995,0
2024-11-29 18:13:46.760,0.639183,2.37488,9.54766,-0.203947,-0.17287,-0.0645971,0
2024-11-29 18:13:46.764,0.722932,2.38445,9.60509,-0.205168,-0.171037,-0.0676513,0
2024-11-29 18:13:46.764,0.722932,2.38445,9.60509,-0.205168,-0.171037,-0.0676513,0
2024-11-29 18:13:46.766,0.768395,2.37966,9.65055,-0.208223,-0.168594,-0.0719273,0
2024-11-29 18:13:46.769,0.804287,2.38684,9.68166,-0.211277,-0.16615,-0.0749815,0
2024-11-29 18:13:46.772,0.833001,2.38923,9.70319,-0.213109,-0.15882,-0.0792574,0
2024-11-29 18:13:46.773,0.85005,2.41077,9.72473,-0.214942,-0.149047,-0.0841442,0
2024-11-29 18:13:46.775,0.864407,2.42752,9.74627,-0.217385,-0.13683,-0.0871984,0
2024-11-29 18:13:46.779,0.88355,2.44905,9.77019,-0.219218,-0.122169,-0.0908635,0
2024-11-29 18:13:46.781,0.895514,2.46102,9.77498,-0.219829,-0.105677,-0.0951395,0
2024-11-29 18:13:46.782,0.876371,2.46102,9.76062,-0.221661,-0.0873512,-0.100026,0
2024-11-29 18:13:46.786,0.8668,2.47298,9.75105,-0.22105,-0.0702474,-0.10308,0
2024-11-29 18:13:46.787,0.8668,2.48016,9.71994,-0.223494,-0.0525329,-0.107967,0
2024-11-29 18:13:46.790,0.852443,2.48734,9.68405,-0.228991,-0.0329858,-0.112854,0
2024-11-29 18:13:46.792,0.828216,2.50887,9.63859,-0.228991,-0.0146603,-0.116519,0
2024-11-29 18:13:46.795,0.801895,2.52592,9.58116,-0.233267,0.00122169,-0.118963,0
2024-11-29 18:13:46.797,0.770788,2.54267,9.5333,-0.239376,0.0183254,-0.120795,0
2024-11-29 18:13:46.799,0.727717,2.56421,9.45913,-0.246095,0.0342074,-0.125071,0
2024-11-29 18:13:46.802,0.684646,2.58335,9.4017,-0.261366,0.0647498,-0.126293,0
2024-11-29 18:13:46.805,0.655932,2.6001,9.34906,-0.261366,0.0647498,-0.126293,0
2024-11-29 18:13:46.806,0.624826,2.62642,9.28445,-0.270529,0.0769668,-0.129347,0
2024-11-29 18:13:46.809,0.586541,2.6671,9.24587,-0.291909,0.0971247,-0.126293,0
2024-11-29 18:13:46.812,0.557827,2.69342,9.19801,-0.291909,0.0971247,-0.126293,0
2024-11-29 18:13:46.813,0.54347,2.72213,9.15015,-0.303515,0.102011,-0.125682,0
2024-11-29 18:13:46.816,0.521934,2.76042,9.11426,-0.313899,0.107509,-0.123849,0
2024-11-29 18:13:46.818,0.507577,2.78196,9.07358,-0.325505,0.112396,-0.125071,0
2024-11-29 18:13:46.821,0.505185,2.82742,9.05205,-0.35055,0.108731,-0.118963,0
2024-11-29 18:13:46.823,0.490828,2.89203,9.05444,-0.35055,0.108731,-0.118963,0
2024-11-29 18:13:46.825,0.462114,2.95185,9.06162,-0.361545,0.106898,-0.119573,0
2024-11-29 18:13:46.827,0.457328,3.02124,9.07358,-0.373762,0.10079,-0.116519,0
2024-11-29 18:13:46.829,0.457328,3.06909,9.10948,-0.385979,0.0928488,-0.115297,0
2024-11-29 18:13:46.832,0.454935,3.11246,9.15494,-0.395753,0.0830752,-0.115297,0
2024-11-29 18:13:46.835,0.445364,3.17707,9.20519,-0.411024,0.0543654,-0.116519,0
2024-11-29 18:13:46.838,0.672682,3.12443,9.48066,-0.409191,0.0256556,-0.127514,0
2024-11-29 18:13:46.840,0.799502,3.11007,9.69841,-0.409191,0.0256556,-0.127514,0
2024-11-29 18:13:46.842,0.545863,3.27757,9.55723,-0.411024,0.0134386,-0.140342,0
2024-11-29 18:13:46.844,0.407079,3.3996,9.45434,-0.411024,0.0134386,-0.140342,0
2024-11-29 18:13:46.848,0.442971,3.52403,9.6338,-0.411024,0.0134386,-0.140342,0
2024-11-29 18:13:46.852,0.555434,3.51685,9.74148,-0.413467,-0.0262664,-0.162333,0
2024-11-29 18:13:46.852,0.555434,3.51685,9.74148,-0.413467,-0.0262664,-0.162333,0
2024-11-29 18:13:46.854,0.634397,3.49292,9.8351,-0.413467,-0.0262664,-0.162333,0
2024-11-29 18:13:46.855,0.52672,3.54556,9.75105,-0.417132,-0.0445919,-0.170274,0
2024-11-29 18:13:46.858,0.395115,3.62453,9.62423,-0.425073,-0.0561979,-0.172717,0
2024-11-29 18:13:46.861,0.383151,3.6679,9.66012,-0.44462,-0.0861295,-0.170885,0
2024-11-29 18:13:46.863,0.41665,3.66551,9.80369,-0.44462,-0.0861295,-0.170885,0
2024-11-29 18:13:46.865,0.445364,3.63649,9.97388,-0.452561,-0.107509,-0.172717,0
2024-11-29 18:13:46.868,0.476471,3.61256,10.127,-0.456227,-0.133776,-0.17455,0
2024-11-29 18:13:46.870,0.519542,3.59103,10.261,-0.458059,-0.155155,-0.177604,0
2024-11-29 18:13:46.872,0.588933,3.55514,10.3857,-0.457448,-0.176535,-0.18188,0
2024-11-29 18:13:46.874,0.641576,3.49771,10.5485,-0.453783,-0.190584,-0.186767,0
2024-11-29 18:13:46.878,0.660718,3.44267,10.7375,-0.434236,-0.210131,-0.199594,0
2024-11-29 18:13:46.880,0.648754,3.402,10.9122,-0.417132,-0.211353,-0.20387,0
2024-11-29 18:13:46.882,0.608076,3.3685,11.0536,-0.417132,-0.211353,-0.20387,0
2024-11-29 18:13:46.884,0.557827,3.33978,11.1541,-0.40125,-0.210742,-0.208146,0
2024-11-29 18:13:46.886,0.514756,3.34696,11.2546,-0.378649,-0.210742,-0.2112,0
2024-11-29 18:13:46.888,0.469292,3.35653,11.3647,-0.356048,-0.207077,-0.21059,0
2024-11-29 18:13:46.892,0.414257,3.33978,11.4389,-0.334668,-0.200358,-0.21059,0
2024-11-29 18:13:46.896,0.258425,3.36371,11.4867,-0.283357,-0.184476,-0.201427,0
2024-11-29 18:13:46.896,0.258425,3.36371,11.4867,-0.283357,-0.184476,-0.201427,0
2024-11-29 18:13:46.898,0.172283,3.36371,11.4844,-0.259534,-0.171648,-0.194708,0
2024-11-29 18:13:46.900,0.11007,3.34935,11.4509,-0.237543,-0.159431,-0.186767,0
2024-11-29 18:13:46.903,0.0574277,3.33021,11.4126,-0.210666,-0.14416,-0.176993,0
2024-11-29 18:13:46.905,0.0239282,3.31585,11.3886,-0.187454,-0.13011,-0.165998,0
2024-11-29 18:13:46.907,0.00478565,3.2991,11.3408,-0.168517,-0.113007,-0.157446,0
2024-11-29 18:13:46.910,-0.0358923,3.2991,11.2642,-0.147138,-0.095903,-0.148283,0
2024-11-29 18:13:46.912,-0.066999,3.2991,11.1948,-0.128202,-0.0787993,-0.137899,0
2024-11-29 18:13:46.915,-0.0837488,3.30389,11.1159,-0.110487,-0.0610847,-0.128125,0
2024-11-29 18:13:46.917,-0.105284,3.2991,11.0154,-0.0933833,-0.0415376,-0.118352,0
2024-11-29 18:13:46.919,-0.133998,3.28953,10.9122,-0.0775012,-0.020158,-0.108578,0
2024-11-29 18:13:46.921,-0.157926,3.29432,10.8165,-0.0652843,-0.00366508,-0.0988045,0
2024-11-29 18:13:46.925,-0.162712,3.2991,10.7566,-0.050624,0.0183254,-0.0896418,0
2024-11-29 18:13:46.927,-0.167498,3.28714,10.6968,-0.0200816,0.0555871,-0.0719273,0
2024-11-29 18:13:46.929,-0.16989,3.27757,10.5772,-0.0200816,0.0555871,-0.0719273,0
2024-11-29 18:13:46.932,-0.167498,3.27278,10.4288,-0.00175619,0.0757451,-0.0566561,0
2024-11-29 18:13:46.934,-0.155533,3.26321,10.285,0.00251974,0.0824644,-0.0505476,0
2024-11-29 18:13:46.936,-0.12682,3.25603,10.1581,0.00251974,0.0824644,-0.0505476,0
2024-11-29 18:13:46.938,-0.0909273,3.25603,10.0528,0.00862822,0.0922379,-0.0438283,0
2024-11-29 18:13:46.940,-0.0646062,3.25603,9.95474,0.0104608,0.0983464,-0.0377198,0
2024-11-29 18:13:46.944,-0.0454636,3.268,9.87578,0.0153475,0.114839,-0.0279463,0
2024-11-29 18:13:46.945,-0.0167498,3.27757,9.81805,0.0153475,0.114839,-0.0279463,0
2024-11-29 18:13:46.948,0.0119641,3.28235,9.7678,0.0196235,0.122169,-0.0267246,0
2024-11-29 18:13:46.950,0.0311067,3.29432,9.71037,0.0232886,0.125224,-0.0255029,0
2024-11-29 18:13:46.953,0.0646062,3.27996,9.64816,0.0275645,0.128889,-0.024892,0
2024-11-29 18:13:46.955,0.102891,3.27996,9.59073,0.0306187,0.1295,-0.0236703,0
2024-11-29 18:13:46.957,0.129212,3.268,9.53809,0.0348946,0.1295,-0.024892,0
2024-11-29 18:13:46.959,0.155533,3.25603,9.48066,0.0391706,0.127056,-0.0279463,0
2024-11-29 18:13:46.962,0.165105,3.26082,9.40648,0.0428357,0.127056,-0.0297788,0
2024-11-29 18:13:46.965,0.179462,3.25843,9.33949,0.0440574,0.12278,-0.0340547,0
2024-11-29 18:13:46.967,0.208176,3.24885,9.29881,0.049555,0.114228,-0.0426066,0
2024-11-29 18:13:46.969,0.212961,3.23928,9.23151,0.049555,0.114228,-0.0426066,0
2024-11-29 18:13:46.972,0.205783,3.21536,9.1669,0.0519984,0.100179,-0.0517693,0
2024-11-29 18:13:46.976,0.200997,3.20578,9.0688,0.0519984,0.0922379,-0.0572669,0
2024-11-29 18:13:46.976,0.200997,3.20578,9.0688,0.0519984,0.0922379,-0.0572669,0
2024-11-29 18:13:46.979,0.198604,3.20339,9.02573,0.0513875,0.0775776,-0.0621537,0
2024-11-29 18:13:46.981,0.196211,3.19143,8.97308,0.0513875,0.0775776,-0.0621537,0
2024-11-29 18:13:46.983,0.181855,3.1675,8.93959,0.0526092,0.0726908,-0.0658188,0
2024-11-29 18:13:46.986,0.162712,3.14357,8.91805,0.0507767,0.0574196,-0.073149,0
2024-11-29 18:13:46.988,0.148355,3.11486,8.87976,0.0507767,0.0574196,-0.073149,0
2024-11-29 18:13:46.990,0.148355,3.08106,8.84866,0.049555,0.0525329,-0.0762032,0
2024-11-29 18:13:46.992,0.150748,3.06192,8.81516,0.049555,0.0525329,-0.0762032,0
2024-11-29 18:13:46.995,0.153141,3.03559,8.79123,0.0489441,0.0494786,-0.0786466,0
2024-11-29 18:13:46.997,0.160319,2.98535,8.7697,0.0477224,0.0421485,-0.0823117,0
2024-11-29 18:13:46.999,0.141177,2.95185,8.73859,0.0483333,0.0390942,-0.0829225,0
2024-11-29 18:13:47.002,0.11007,2.92074,8.70748,0.0434465,0.0372617,-0.0835334,0
2024-11-29 18:13:47.004,0.0837488,2.90399,8.68325,0.0403923,0.0335966,-0.0835334,0
2024-11-29 18:13:47.006,0.066999,2.9016,8.65454,0.0391706,0.0299315,-0.0829225,0
2024-11-29 18:13:47.009,0.0454636,2.89442,8.63301,0.0361163,0.0299315,-0.0798683,0
2024-11-29 18:13:47.012,0.0143569,2.87288,8.61865,0.0324513,0.0299315,-0.0725381,0
2024-11-29 18:13:47.013,-0.00478565,2.85374,8.58754,0.0324513,0.0299315,-0.0725381,0
2024-11-29 18:13:47.016,-0.0287139,2.84895,8.56122,0.0281753,0.0335966,-0.0670405,0
2024-11-29 18:13:47.018,-0.040678,2.84895,8.54208,0.0238994,0.0384834,-0.060932,0
2024-11-29 18:13:47.021,-0.0478565,2.83938,8.51336,0.013515,0.0525329,-0.0499368,0
2024-11-29 18:13:47.023,-0.0622134,2.80588,8.49422,0.013515,0.0525329,-0.0499368,0
2024-11-29 18:13:47.025,-0.0717847,2.78913,8.47029,0.00923906,0.0592522,-0.0413849,0
2024-11-29 18:13:47.027,-0.0789631,2.77717,8.43201,0.00557398,0.0671932,-0.0334439,0
2024-11-29 18:13:47.031,-0.102891,2.7676,8.40329,-0.00419957,0.0855186,-0.0187836,0
2024-11-29 18:13:47.032,-0.122034,2.78674,8.38415,-0.00419957,0.0855186,-0.0187836,0
2024-11-29 18:13:47.035,-0.114855,2.79153,8.35544,-0.0109189,0.0965139,-0.0102317,0
2024-11-29 18:13:47.038,-0.117248,2.78196,8.3339,-0.0133623,0.103844,-0.00229068,0
2024-11-29 18:13:47.040,-0.138784,2.80349,8.31237,-0.0170274,0.113618,0.00565034,0
2024-11-29 18:13:47.041,-0.160319,2.81785,8.2693,-0.0243575,0.12278,0.0154239,0
2024-11-29 18:13:47.044,-0.157926,2.81067,8.23101,-0.0268009,0.130721,0.0251975,0
2024-11-29 18:13:47.046,-0.141177,2.81306,8.19751,-0.0341311,0.137441,0.0337493,0
2024-11-29 18:13:47.049,-0.136391,2.81785,8.17358,-0.0396287,0.14416,0.0410795,0
2024-11-29 18:13:47.052,-0.131605,2.81306,8.14726,-0.0512348,0.152101,0.0545181,0
2024-11-29 18:13:47.053,-0.122034,2.82263,8.11586,-0.0512348,0.152101,0.0545181,0
2024-11-29 18:13:47.057,-0.105284,2.85613,8.08714,-0.0671168,0.154544,0.0661242,0
2024-11-29 18:13:47.059,-0.0885344,2.8681,8.05364,-0.0726145,0.154544,0.071011,0
2024-11-29 18:13:47.061,-0.0885344,2.88485,8.0345,-0.0781121,0.153323,0.0758978,0
2024-11-29 18:13:47.063,-0.100499,2.92074,8.02732,-0.0781121,0.153323,0.0758978,0
2024-11-29 18:13:47.066,-0.0981057,2.93988,8.01297,-0.0842206,0.147825,0.0813954,0
2024-11-29 18:13:47.067,-0.0861416,2.95185,8.00579,-0.0921616,0.144771,0.0844496,0
2024-11-29 18:13:47.070,-0.0765703,2.95663,8.00579,-0.0988809,0.138662,0.0887256,0
2024-11-29 18:13:47.073,-0.0622134,2.98295,8.03211,-0.104989,0.131943,0.0923906,0
2024-11-29 18:13:47.075,-0.0502493,3.00927,8.05364,-0.111709,0.124002,0.0960557,0
2024-11-29 18:13:47.077,-0.0382852,3.01884,8.07039,-0.116595,0.116672,0.0997208,0
2024-11-29 18:13:47.079,-0.0334995,3.02842,8.09911,-0.122704,0.107509,0.101553,0
2024-11-29 18:13:47.081,-0.0358923,3.04517,8.13021,-0.127591,0.0989573,0.105218,0
2024-11-29 18:13:47.084,-0.040678,3.0667,8.1664,-0.130645,0.0916271,0.105218,0
2024-11-29 18:13:47.087,-0.0430708,3.08584,8.20708,-0.131867,0.0867403,0.107662,0
2024-11-29 18:13:47.090,-0.0550349,3.10289,8.24776,-0.134921,0.080021,0.111938,0
2024-11-29 18:13:47.091,-0.0741775,3.11486,8.28365,-0.13431,0.0751342,0.11377,0
2024-11-29 18:13:47.093,-0.0909273,3.11246,8.31476,-0.136143,0.0671932,0.114992,0
2024-11-29 18:13:47.096,-0.102891,3.11725,8.34826,-0.137975,0.0604739,0.117435,0
2024-11-29 18:13:47.099,-0.11007,3.134,8.38415,-0.136753,0.0482569,0.122933,0
2024-11-29 18:13:47.101,-0.129212,3.14596,8.42244,-0.136753,0.0482569,0.122933,0
2024-11-29 18:13:47.104,-0.138784,3.16271,8.44876,-0.136753,0.0384834,0.132096,0
2024-11-29 18:13:47.105,-0.145962,3.16989,8.46311,-0.136753,0.0384834,0.132096,0
2024-11-29 18:13:47.107,-0.162712,3.17946,8.48465,-0.136143,0.03604,0.136983,0
2024-11-29 18:13:47.110,-0.172283,3.21775,8.5014,-0.137364,0.0335966,0.139426,0
2024-11-29 18:13:47.113,-0.179462,3.2345,8.51576,-0.140419,0.028099,0.151032,0
2024-11-29 18:13:47.114,-0.181855,3.23928,8.52772,-0.140419,0.028099,0.151032,0
2024-11-29 18:13:47.117,-0.196211,3.2656,8.54208,-0.141029,0.0262664,0.155919,0
2024-11-29 18:13:47.120,-0.212961,3.28475,8.57318,-0.14836,0.0213797,0.168136,0
2024-11-29 18:13:47.123,-0.217747,3.3015,8.60908,-0.14836,0.0213797,0.168136,0
2024-11-29 18:13:47.124,-0.217747,3.32303,8.62343,-0.150192,0.0189363,0.174244,0
2024-11-29 18:13:47.127,-0.208176,3.34218,8.64258,-0.155079,0.0195471,0.179131,0
2024-11-29 18:13:47.130,-0.200997,3.36371,8.68086,-0.164852,0.0195471,0.19257,0
2024-11-29 18:13:47.131,-0.189033,3.38285,8.71466,-0.164852,0.0195471,0.19257,0
2024-11-29 18:13:47.134,-0.16989,3.38764,8.7673,-0.172793,0.0219905,0.205397,0
2024-11-29 18:13:47.137,-0.150748,3.41157,8.81277,-0.172793,0.0219905,0.205397,0
2024-11-29 18:13:47.138,-0.124427,3.45224,8.85584,-0.175237,0.0232122,0.211506,0
2024-11-29 18:13:47.141,-0.100499,3.47857,8.90609,-0.178291,0.0250447,0.217003,0
2024-11-29 18:13:47.144,-0.066999,3.50967,8.95394,-0.185621,0.0311532,0.227999,0
2024-11-29 18:13:47.145,-0.040678,3.54317,9.00419,-0.185621,0.0311532,0.227999,0
2024-11-29 18:13:47.147,-0.0143569,3.57428,9.04248,-0.186843,0.0305424,0.232886,0
2024-11-29 18:13:47.150,0.00717847,3.60299,9.08555,-0.19173,0.0317641,0.237161,0
2024-11-29 18:13:47.153,0.0287139,3.63889,9.1358,-0.196616,0.0384834,0.240216,0
2024-11-29 18:13:47.156,0.0646062,3.67268,9.18605,-0.198449,0.0378725,0.242048,0
2024-11-29 18:13:47.158,0.102891,3.70858,9.2339,-0.198449,0.0378725,0.242048,0
2024-11-29 18:13:47.160,0.124427,3.74686,9.27966,-0.202725,0.0403159,0.242048,0
2024-11-29 18:13:47.163,0.148355,3.77318,9.32034,-0.204557,0.0384834,0.240827,0
2024-11-29 18:13:47.165,0.184247,3.7995,9.35384,-0.204557,0.0384834,0.240827,0
2024-11-29 18:13:47.166,0.232104,3.84736,9.39691,-0.207612,0.0348183,0.237772,0
2024-11-29 18:13:47.169,0.265603,3.89522,9.44716,-0.210666,0.0348183,0.234718,0
2024-11-29 18:13:47.171,0.289831,3.92872,9.48306,-0.215553,0.0335966,0.230442,0
2024-11-29 18:13:47.174,0.34008,3.96222,9.51655,-0.219218,0.0323749,0.224334,0
2024-11-29 18:13:47.177,0.392722,3.97657,9.55484,-0.223494,0.0323749,0.216393,0
2024-11-29 18:13:47.179,0.428614,3.98854,9.61227,-0.2351,0.0305424,0.202954,0
2024-11-29 18:13:47.181,0.464507,4.01486,9.67448,-0.2351,0.0305424,0.202954,0
2024-11-29 18:13:47.183,0.493221,4.034,9.7343,-0.240597,0.0323749,0.193791,0
2024-11-29 18:13:47.185,0.50997,4.04836,9.80848,-0.247317,0.0299315,0.185239,0
2024-11-29 18:13:47.188,0.529113,4.07468,9.88774,-0.250982,0.0299315,0.177909,0
2024-11-29 18:13:47.191,0.54347,4.10818,9.97628,-0.258923,0.0299315,0.161416,0
2024-11-29 18:13:47.193,0.538684,4.12493,10.0648,-0.258312,0.0305424,0.153475,0
2024-11-29 18:13:47.195,0.52672,4.12493,10.1629,-0.258312,0.0305424,0.153475,0
2024-11-29 18:13:47.198,0.514756,4.13928,10.2634,-0.258923,0.0323749,0.141258,0
2024-11-29 18:13:47.200,0.486042,4.15603,10.3519,-0.258923,0.0323749,0.141258,0
2024-11-29 18:13:47.202,0.447757,4.15125,10.4456,-0.255258,0.0311532,0.135761,0
2024-11-29 18:13:47.205,0.402293,4.17039,10.5556,-0.252204,0.0305424,0.130874,0
2024-11-29 18:13:47.206,0.366401,4.19432,10.6442,-0.245484,0.0287098,0.129652,0
2024-11-29 18:13:47.209,0.330509,4.18714,10.7112,-0.238765,0.0268773,0.125987,0
2024-11-29 18:13:47.211,0.292223,4.17039,10.771,-0.232656,0.0268773,0.125376,0
2024-11-29 18:13:47.213,0.267996,4.18475,10.8308,-0.224105,0.0262664,0.123544,0
2024-11-29 18:13:47.216,0.236889,4.20897,10.8978,-0.216164,0.0262664,0.1211,0
2024-11-29 18:13:47.218,0.20339,4.21615,10.9675,-0.205779,0.0268773,0.119879,0
2024-11-29 18:13:47.221,0.162712,4.22812,11.0321,-0.196616,0.0268773,0.12049,0
2024-11-29 18:13:47.223,0.107677,4.25683,11.0848,-0.196616,0.0268773,0.12049,0
2024-11-29 18:13:47.226,0.0598206,4.28076,11.1206,-0.172793,0.0293207,0.1211,0
2024-11-29 18:13:47.229,0.0239282,4.29033,11.1446,-0.14897,0.0354291,0.12782,0
2024-11-29 18:13:47.231,0.00478565,4.3023,11.1685,-0.14897,0.0354291,0.12782,0
2024-11-29 18:13:47.233,-0.00717847,4.29751,11.1829,-0.139197,0.0403159,0.130874,0
2024-11-29 18:13:47.235,-0.026321,4.28555,11.1757,-0.128202,0.0470352,0.135761,0
2024-11-29 18:13:47.237,-0.040678,4.29272,11.1517,-0.11965,0.0525329,0.139426,0
2024-11-29 18:13:47.239,-0.040678,4.29033,11.135,-0.110487,0.0580305,0.141869,0
2024-11-29 18:13:47.242,-0.0430708,4.28315,11.1254,-0.103768,0.064139,0.145534,0
2024-11-29 18:13:47.245,-0.0358923,4.27837,11.1111,-0.0988809,0.0726908,0.151643,0
2024-11-29 18:13:47.246,-0.0287139,4.27358,11.0991,-0.0958267,0.0769668,0.154697,0
2024-11-29 18:13:47.250,-0.0454636,4.28555,11.0776,-0.0915507,0.0836861,0.15714,0
2024-11-29 18:13:47.252,-0.0478565,4.29512,11.0656,-0.0884965,0.095903,0.168136,0
2024-11-29 18:13:47.254,-0.0311067,4.2999,11.0728,-0.0884965,0.095903,0.168136,0
2024-11-29 18:13:47.257,-0.0287139,4.31426,11.0967,-0.0884965,0.106898,0.176688,0
2024-11-29 18:13:47.259,-0.0287139,4.32622,11.1278,-0.0872748,0.110563,0.180353,0
2024-11-29 18:13:47.262,-0.026321,4.32862,11.147,-0.0872748,0.110563,0.180353,0
2024-11-29 18:13:47.264,-0.0119641,4.3334,11.1589,-0.086664,0.116672,0.183407,0
2024-11-29 18:13:47.265,0.00717847,4.36451,11.19,-0.0878856,0.12278,0.187683,0
2024-11-29 18:13:47.268,0.0191426,4.38126,11.2116,-0.086664,0.131943,0.188905,0
2024-11-29 18:13:47.270,0.0311067,4.39083,11.2331,-0.0872748,0.138051,0.191348,0
2024-11-29 18:13:47.272,0.0478565,4.40279,11.2786,-0.086664,0.145992,0.19257,0
2024-11-29 18:13:47.276,0.0741775,4.41236,11.3264,-0.086664,0.164318,0.19318,0
2024-11-29 18:13:47.277,0.0957129,4.42194,11.3647,-0.086664,0.164318,0.19318,0
2024-11-29 18:13:47.280,0.105284,4.4339,11.3982,-0.0872748,0.17287,0.194402,0
2024-11-29 18:13:47.282,0.129212,4.44826,11.4485,-0.0836097,0.182643,0.195624,0
2024-11-29 18:13:47.285,0.136391,4.46501,11.5011,-0.0805555,0.188141,0.197456,0
2024-11-29 18:13:47.286,0.133998,4.49133,11.5493,-0.0787229,0.196693,0.196846,0
2024-11-29 18:13:47.290,0.155533,4.50568,11.5995,-0.0732253,0.20219,0.196846,0
2024-11-29 18:13:47.291,0.177069,4.50568,11.6402,-0.0683385,0.209521,0.199289,0
2024-11-29 18:13:47.294,0.184247,4.49611,11.6761,-0.0640626,0.219294,0.198067,0
2024-11-29 18:13:47.297,0.174676,4.48894,11.7191,-0.0561216,0.226624,0.198678,0
2024-11-29 18:13:47.299,0.177069,4.49611,11.7455,-0.038407,0.24495,0.198067,0
2024-11-29 18:13:47.302,0.189033,4.51286,11.7574,-0.038407,0.24495,0.198067,0
2024-11-29 18:13:47.303,0.191426,4.52483,11.7814,-0.030466,0.252891,0.199289,0
2024-11-29 18:13:47.305,0.181855,4.5344,11.7981,-0.0206925,0.260832,0.199289,0
2024-11-29 18:13:47.309,0.174676,4.5344,11.8077,-0.0109189,0.271216,0.201732,0
2024-11-29 18:13:47.310,0.153141,4.5344,11.8173,0.000687203,0.277325,0.201121,0
2024-11-29 18:13:47.312,0.136391,4.53918,11.8125,0.0122933,0.28099,0.202343,0
2024-11-29 18:13:47.316,0.12682,4.54397,11.7981,0.0342838,0.285266,0.204787,0
2024-11-29 18:13:47.317,0.112463,4.54158,11.779,0.0342838,0.285266,0.204787,0
2024-11-29 18:13:47.319,0.0981057,4.52722,11.755,0.0465007,0.287098,0.206008,0
2024-11-29 18:13:47.324,0.0885344,4.52004,11.7072,0.0636045,0.287709,0.211506,0
2024-11-29 18:13:47.325,0.0885344,4.52004,11.7072,0.0636045,0.287709,0.211506,0
2024-11-29 18:13:47.327,0.0957129,4.51286,11.6713,0.0752106,0.28832,0.212117,0
2024-11-29 18:13:47.330,0.0957129,4.50329,11.6282,0.085595,0.291374,0.213338,0
2024-11-29 18:13:47.332,0.0933201,4.49133,11.6019,0.0947577,0.291985,0.216393,0
2024-11-29 18:13:47.334,0.0933201,4.47458,11.566,0.102699,0.291374,0.217614,0
2024-11-29 18:13:47.337,0.105284,4.46261,11.5229,0.117359,0.298093,0.220058,0
2024-11-29 18:13:47.339,0.124427,4.46022,11.4891,0.117359,0.298093,0.220058,0
2024-11-29 18:13:47.341,0.129212,4.45065,11.4532,0.124078,0.301759,0.22189,0
2024-11-29 18:13:47.343,0.133998,4.43629,11.4078,0.129576,0.31031,0.224945,0
2024-11-29 18:13:47.346,0.131605,4.43151,11.348,0.137517,0.326192,0.226166,0
2024-11-29 18:13:47.349,0.12682,4.43151,11.2762,0.137517,0.326192,0.226166,0
2024-11-29 18:13:47.350,0.12682,4.4339,11.2235,0.141182,0.334133,0.227388,0
2024-11-29 18:13:47.353,0.122034,4.43151,11.1709,0.140571,0.34635,0.22922,0
2024-11-29 18:13:47.356,0.100499,4.4339,11.1039,0.141182,0.375671,0.231664,0
2024-11-29 18:13:47.357,0.0693919,4.44586,11.0273,0.141182,0.375671,0.231664,0
2024-11-29 18:13:47.360,0.040678,4.46261,10.9193,0.136295,0.390942,0.232886,0
2024-11-29 18:13:47.363,0.0239282,4.46501,10.8141,0.129576,0.40377,0.233496,0
2024-11-29 18:13:47.364,0.0119641,4.47219,10.7255,0.121635,0.415376,0.234107,0
2024-11-29 18:13:47.368,-0.00478565,4.47219,10.6035,0.0953685,0.431258,0.23594,0
2024-11-29 18:13:47.370,-0.0119641,4.45304,10.4958,0.0758214,0.434923,0.232886,0
2024-11-29 18:13:47.374,0.0191426,4.44347,10.4145,0.0556635,0.431869,0.22861,0
2024-11-29 18:13:47.374,0.0526421,4.40519,10.3591,0.0556635,0.431869,0.22861,0
2024-11-29 18:13:47.376,0.081356,4.34776,10.3711,0.0324513,0.42515,0.224334,0
2024-11-29 18:13:47.379,0.122034,4.2688,10.4025,-0.00847551,0.386666,0.204787,0
2024-11-29 18:13:47.382,0.181855,4.17518,10.4456,-0.0322986,0.357346,0.19257,0
2024-11-29 18:13:47.384,0.246461,4.08186,10.5221,-0.0322986,0.357346,0.19257,0
2024-11-29 18:13:47.385,0.311366,3.96939,10.6274,-0.0518457,0.315808,0.17852,0
2024-11-29 18:13:47.388,0.385544,3.8665,10.7399,-0.0518457,0.315808,0.17852,0
2024-11-29 18:13:47.390,0.471685,3.77079,10.8835,-0.0939941,0.200969,0.136983,0
2024-11-29 18:13:47.392,0.574577,3.6679,11.0848,-0.115374,0.127667,0.11377,0
2024-11-29 18:13:47.395,0.691825,3.55514,11.3312,-0.132477,0.0445919,0.0850605,0
2024-11-29 18:13:47.397,0.811466,3.4331,11.6043,-0.145916,-0.0488678,0.0514639,0
2024-11-29 18:13:47.400,0.929013,3.28953,11.9225,-0.16302,-0.152712,0.0154239,0
2024-11-29 18:13:47.403,1.04626,3.11964,12.2842,-0.174015,-0.25961,-0.0200052,0
2024-11-29 18:13:47.405,1.15155,2.94467,12.6888,-0.182567,-0.45386,-0.0908635,0
2024-11-29 18:13:47.408,1.26401,2.73649,13.1124,-0.180124,-0.539378,-0.127514,0
2024-11-29 18:13:47.409,1.38604,2.50648,13.5434,-0.180124,-0.539378,-0.127514,0
2024-11-29 18:13:47.412,1.50598,2.3007,13.9648,-0.170961,-0.613291,-0.1605,0
2024-11-29 18:13:47.415,1.62802,2.08774,14.3432,-0.156911,-0.67804,-0.195318,0
2024-11-29 18:13:47.416,1.70219,1.91994,14.6854,-0.140419,-0.733017,-0.227693,0
2024-11-29 18:13:47.419,1.60409,1.86251,14.913,-0.119039,-0.773333,-0.258236,0
2024-11-29 18:13:47.421,1.52513,1.78116,15.2575,-0.0952158,-0.802653,-0.279004,0
2024-11-29 18:13:47.423,1.61605,1.59452,15.801,-0.0646735,-0.830141,-0.296719,0
2024-11-29 18:13:47.425,1.70937,1.39801,16.2631,-0.0255792,-0.852132,-0.310769,0
2024-11-29 18:13:47.429,1.66391,1.32383,16.4833,0.0184018,-0.862516,-0.319931,0
2024-11-29 18:13:47.430,1.33101,1.40279,16.299,0.0648262,-0.831363,-0.319931,0
2024-11-29 18:13:47.433,1.18026,1.37169,16.2775,0.105142,-0.770889,-0.306493,0
2024-11-29 18:13:47.436,1.39083,1.15633,16.675,0.149734,-0.719578,-0.294886,0
2024-11-29 18:13:47.438,1.55145,0.907478,16.9741,0.2548,-0.62734,-0.279615,1
2024-11-29 18:13:47.440,1.6352,0.655932,17.1156,0.2548,-0.62734,-0.279615,0
2024-11-29 18:13:47.443,1.70459,0.3999,17.173,0.376969,-0.502116,-0.265566,0
2024-11-29 18:13:47.444,1.75962,0.145962,17.1515,0.376969,-0.502116,-0.265566,0
2024-11-29 18:13:47.448,1.82662,-0.0717847,17.0865,0.510134,-0.323138,-0.26129,0
2024-11-29 18:13:47.450,1.88166,-0.267996,17.0172,0.510134,-0.323138,-0.26129,0
2024-11-29 18:13:47.451,1.89841,-0.438186,16.8999,0.583435,-0.221127,-0.259457,0
2024-11-29 18:13:47.455,1.88405,-0.569791,16.7372,0.656737,-0.118504,-0.257014,0
2024-11-29 18:13:47.457,1.78834,-0.65354,16.4952,0.730039,-0.0122169,-0.252738,0
2024-11-29 18:13:47.458,1.58495,-0.665504,16.1124,0.80334,0.102011,-0.244797,0
2024-11-29 18:13:47.462,1.31904,-0.617647,15.6192,0.931008,0.339631,-0.203259,0
2024-11-29 18:13:47.464,1.05105,-0.52672,15.1116,0.98354,0.45386,-0.173328,0
2024-11-29 18:13:47.466,0.82343,-0.431007,14.6447,0.98354,0.45386,-0.173328,0
2024-11-29 18:13:47.468,0.658325,-0.328116,14.1826,1.02874,0.557093,-0.140342,0
2024-11-29 18:13:47.470,0.529113,-0.222533,13.6678,1.06845,0.650552,-0.103691,0
2024-11-29 18:13:47.473,0.438186,-0.153141,13.1291,1.10082,0.736071,-0.0694839,0
2024-11-29 18:13:47.476,0.407079,-0.0981057,12.6434,1.12831,0.813649,-0.0364981,0
2024-11-29 18:13:47.478,0.538684,-0.129212,12.32,1.14908,0.88695,-0.00473407,0
2024-11-29 18:13:47.481,0.708575,-0.217747,11.9513,1.17107,0.946813,0.0172564,0
2024-11-29 18:13:47.482,0.703789,-0.212961,11.3695,1.18817,1.00484,0.0325276,0
2024-11-29 18:13:47.484,0.665504,-0.174676,10.783,1.19734,1.06593,0.0484096,0
2024-11-29 18:13:47.487,0.794716,-0.234497,10.4169,1.20345,1.12029,0.0581832,0
2024-11-29 18:13:47.489,1.11805,-0.383151,10.3496,1.20833,1.15145,0.058794,0
2024-11-29 18:13:47.492,1.21137,-0.419043,10.0935,1.21811,1.16916,0.047188,0
2024-11-29 18:13:47.496,1.01515,-0.241675,9.20758,1.22849,1.22047,0.0233649,0
2024-11-29 18:13:47.496,1.01515,-0.241675,9.20758,1.22849,1.22047,0.0233649,0
2024-11-29 18:13:47.498,0.94337,-0.160319,8.83669,1.22971,1.24246,0.0135914,0
2024-11-29 18:13:47.501,0.825823,-0.0502493,8.4679,1.22849,1.25651,-0.000458135,0
2024-11-29 18:13:47.505,0.550648,0.18664,7.62054,1.20406,1.26018,-0.016951,0
2024-11-29 18:13:47.509,0.533899,0.272782,7.3331,1.18084,1.23574,-0.0236703,0
2024-11-29 18:13:47.509,0.533899,0.272782,7.3331,1.18084,1.23574,-0.0236703,0
2024-11-29 18:13:47.510,0.469292,0.354437,6.97867,1.14969,1.19543,-0.0340547,0
2024-11-29 18:13:47.513,0.387936,0.435793,6.60778,1.14969,1.19543,-0.0340547,0
2024-11-29 18:13:47.515,0.320937,0.524327,6.26531,1.07028,1.09525,-0.0536018,0
2024-11-29 18:13:47.518,0.217747,0.60329,5.95424,0.962161,0.976134,-0.0707056,0
2024-11-29 18:13:47.521,0.145962,0.694218,5.68355,0.962161,0.976134,-0.0707056,0
2024-11-29 18:13:47.522,0.131605,0.773181,5.4993,0.905352,0.915049,-0.0823117,0
2024-11-29 18:13:47.525,0.150748,0.809073,5.39881,0.843046,0.842358,-0.0957503,0
2024-11-29 18:13:47.528,0.196211,0.835394,5.31476,0.780128,0.762948,-0.115297,0
2024-11-29 18:13:47.529,0.20339,0.871586,5.2334,0.7166,0.676208,-0.133623,0
2024-11-29 18:13:47.532,0.212961,0.895514,5.17597,0.653072,0.588857,-0.157446,0
2024-11-29 18:13:47.534,0.256032,0.921835,5.14487,0.588933,0.500284,-0.181269,0
2024-11-29 18:13:47.537,0.272782,0.952942,5.11615,0.461266,0.316419,-0.241132,0
2024-11-29 18:13:47.539,0.308973,0.974477,5.1688,0.461266,0.316419,-0.241132,0
2024-11-29 18:13:47.542,0.395115,0.952942,5.3342,0.344594,0.109953,-0.310769,0
2024-11-29 18:13:47.543,0.495613,0.873978,5.54955,0.344594,0.109953,-0.310769,0
2024-11-29 18:13:47.547,0.610469,0.780359,5.79123,0.246248,-0.106287,-0.403006,0
2024-11-29 18:13:47.548,0.691825,0.691825,6.02363,0.246248,-0.106287,-0.403006,0
2024-11-29 18:13:47.550,0.727717,0.60329,6.25574,0.207154,-0.209521,-0.453096,0
2024-11-29 18:13:47.554,0.744467,0.517149,6.536,0.149123,-0.390331,-0.555718,0
2024-11-29 18:13:47.556,0.727717,0.447757,6.83031,0.149123,-0.390331,-0.555718,0
2024-11-29 18:13:47.557,0.665504,0.397508,7.12493,0.133241,-0.467909,-0.604586,0
2024-11-29 18:13:47.560,0.567398,0.359223,7.38335,0.121635,-0.536935,-0.647956,0
2024-11-29 18:13:47.562,0.447757,0.316152,7.60379,0.117359,-0.598019,-0.688272,0
2024-11-29 18:13:47.565,0.297009,0.258425,7.8024,0.114305,-0.64872,-0.72248,0
2024-11-29 18:13:47.567,0.141177,0.184247,7.97468,0.111251,-0.694533,-0.749357,0
2024-11-29 18:13:47.570,-0.00717847,0.12682,8.08475,0.115526,-0.76417,-0.778067,0
2024-11-29 18:13:47.571,-0.239282,0.100499,8.04646,0.115526,-0.76417,-0.778067,0
2024-11-29 18:13:47.575,-0.414257,0.0502493,8.01057,0.111861,-0.781884,-0.782954,0
2024-11-29 18:13:47.577,-0.435793,-0.0526421,8.12303,0.105753,-0.802653,-0.784786,0
2024-11-29 18:13:47.579,-0.471685,-0.165105,8.2693,0.100255,-0.827087,-0.784175,0
2024-11-29 18:13:47.581,-0.553041,-0.251246,8.39133,0.0941468,-0.853354,-0.783564,0
2024-11-29 18:13:47.583,-0.634397,-0.330509,8.47029,0.0917034,-0.87229,-0.78051,0
2024-11-29 18:13:47.587,-0.684646,-0.404686,8.51097,0.0831516,-0.885118,-0.772569,0
2024-11-29 18:13:47.588,-0.73011,-0.447757,8.5349,0.0807082,-0.891226,-0.76585,0
2024-11-29 18:13:47.590,-0.770788,-0.481256,8.56601,0.0739889,-0.892448,-0.755465,0
2024-11-29 18:13:47.593,-0.804287,-0.500399,8.63061,0.0697129,-0.890004,-0.745081,0
2024-11-29 18:13:47.595,-0.845265,-0.505185,8.70748,0.0672696,-0.881453,-0.734697,0
2024-11-29 18:13:47.598,-0.909871,-0.495613,8.76252,0.0617719,-0.870457,-0.721258,0
2024-11-29 18:13:47.600,-0.981655,-0.476471,8.79123,0.0550526,-0.855186,-0.703543,0
2024-11-29 18:13:47.602,-1.0654,-0.474078,8.79123,0.0465007,-0.834417,-0.685829,0
2024-11-29 18:13:47.605,-1.15155,-0.478864,8.78884,0.0385597,-0.811816,-0.668725,0
2024-11-29 18:13:47.608,-1.20897,-0.471685,8.8008,0.0300079,-0.787382,-0.647956,0
2024-11-29 18:13:47.609,-1.25683,-0.459721,8.81516,0.0184018,-0.760505,-0.627798,0
2024-11-29 18:13:47.611,-1.28076,-0.459721,8.81994,0.00557398,-0.734238,-0.605808,0
2024-11-29 18:13:47.615,-1.30947,-0.454935,8.79602,-0.00603212,-0.704918,-0.584428,0
2024-11-29 18:13:47.617,-1.35733,-0.435793,8.77209,-0.0213033,-0.674986,-0.561216,0
2024-11-29 18:13:47.620,-1.37886,-0.426222,8.76491,-0.0542891,-0.607793,-0.518457,0
2024-11-29 18:13:47.621,-1.39322,-0.431007,8.76252,-0.0542891,-0.607793,-0.518457,0
2024-11-29 18:13:47.626,-1.45095,-0.385544,8.76012,-0.0933833,-0.543654,-0.472643,0
2024-11-29 18:13:47.627,-1.45095,-0.385544,8.76012,-0.111709,-0.51189,-0.450042,0
2024-11-29 18:13:47.629,-1.4677,-0.375972,8.7673,-0.131867,-0.477072,-0.42744,0
2024-11-29 18:13:47.631,-1.48205,-0.359223,8.78166,-0.131867,-0.477072,-0.42744,0
2024-11-29 18:13:47.633,-1.49641,-0.330509,8.81755,-0.152635,-0.444086,-0.404228,0
2024-11-29 18:13:47.636,-1.48684,-0.311366,8.8343,-0.170961,-0.411711,-0.381627,0
2024-11-29 18:13:47.637,-1.48205,-0.285045,8.85344,-0.191119,-0.379336,-0.36208,0
2024-11-29 18:13:47.641,-1.49641,-0.270389,8.87976,-0.224715,-0.311532,-0.320542,0
2024-11-29 18:13:47.643,-1.51555,-0.253639,8.90369,-0.224715,-0.311532,-0.320542,0
2024-11-29 18:13:47.644,-1.52513,-0.217747,8.94916,-0.236932,-0.279768,-0.297941,0
2024-11-29 18:13:47.649,-1.5347,-0.148355,9.0018,-0.263199,-0.219905,-0.256403,0
2024-11-29 18:13:47.650,-1.5347,-0.148355,9.0018,-0.263199,-0.219905,-0.256403,0
2024-11-29 18:13:47.653,-1.55145,-0.131605,9.04248,-0.282746,-0.167372,-0.217309,0
2024-11-29 18:13:47.654,-1.56341,-0.107677,9.07119,-0.282746,-0.167372,-0.217309,0
2024-11-29 18:13:47.657,-1.58495,-0.0765703,9.07358,-0.291298,-0.144771,-0.19654,0
2024-11-29 18:13:47.659,-1.61127,-0.0430708,9.09273,-0.295574,-0.124002,-0.177604,0
2024-11-29 18:13:47.661,-1.63041,0.00239282,9.11665,-0.301071,-0.107509,-0.156835,0
2024-11-29 18:13:47.663,-1.66152,0.0502493,9.12144,-0.304126,-0.0897945,-0.137288,0
2024-11-29 18:13:47.666,-1.69741,0.0933201,9.11905,-0.304736,-0.0763559,-0.120184,0
2024-11-29 18:13:47.669,-1.73091,0.138784,9.11187,-0.304126,-0.0580305,-0.0780357,0
2024-11-29 18:13:47.671,-1.75962,0.18664,9.12144,-0.304126,-0.0580305,-0.0780357,0
2024-11-29 18:13:47.673,-1.79073,0.239282,9.13101,-0.299239,-0.051922,-0.0572669,0
2024-11-29 18:13:47.676,-1.82662,0.282652,9.11187,-0.295574,-0.0531437,-0.0175619,0
2024-11-29 18:13:47.677,-1.85773,0.311366,9.1023,-0.295574,-0.0531437,-0.0175619,0
2024-11-29 18:13:47.680,-1.87687,0.344866,9.0999,-0.288244,-0.0586413,0.00198525,0
2024-11-29 18:13:47.682,-1.89841,0.392722,9.07837,-0.282135,-0.0653607,0.0209215,0
2024-11-29 18:13:47.685,-1.93191,0.428614,9.04487,-0.275416,-0.0751342,0.0374144,0
2024-11-29 18:13:47.687,-1.95344,0.464507,9.01616,-0.266864,-0.0830752,0.0581832,0
2024-11-29 18:13:47.690,-1.97049,0.512363,9.01616,-0.254036,-0.111174,0.0972774,0
2024-11-29 18:13:47.693,-2.0016,0.565005,9.00419,-0.254036,-0.111174,0.0972774,0
2024-11-29 18:13:47.694,-2.03031,0.608076,8.97787,-0.243652,-0.125224,0.114381,0
2024-11-29 18:13:47.697,-2.0351,0.641576,8.95873,-0.237543,-0.142327,0.133317,0
2024-11-29 18:13:47.700,-2.03988,0.687039,8.93719,-0.230213,-0.160653,0.153475,0
2024-11-29 18:13:47.702,-2.0327,0.725324,8.90848,-0.224105,-0.178978,0.172412,0
2024-11-29 18:13:47.703,-2.01356,0.744467,8.87976,-0.215553,-0.200358,0.191348,0
2024-11-29 18:13:47.706,-1.9992,0.76361,8.86302,-0.212498,-0.221127,0.206008,0
2024-11-29 18:13:47.709,-1.96301,0.787538,8.84387,-0.208223,-0.264497,0.239605,0
2024-11-29 18:13:47.711,-1.90798,0.801895,8.81994,-0.208223,-0.264497,0.239605,0
2024-11-29 18:13:47.714,-1.87208,0.835394,8.81037,-0.207001,-0.284044,0.254876,0
2024-11-29 18:13:47.716,-1.83141,0.869193,8.79602,-0.203947,-0.322527,0.282364,0
2024-11-29 18:13:47.718,-1.79073,0.890728,8.8008,-0.203947,-0.322527,0.282364,0
2024-11-29 18:13:47.721,-1.7668,0.931406,8.84148,-0.204557,-0.340853,0.296414,0
2024-11-29 18:13:47.723,-1.71894,0.974477,8.88694,-0.205168,-0.357346,0.309241,0
2024-11-29 18:13:47.726,-1.66152,1.01276,8.93719,-0.205779,-0.386055,0.333064,0
2024-11-29 18:13:47.728,-1.62084,1.04865,8.98744,-0.205779,-0.386055,0.333064,0
2024-11-29 18:13:47.730,-1.57537,1.08215,9.04965,-0.20639,-0.398883,0.345281,0
2024-11-29 18:13:47.732,-1.52752,1.12044,9.11905,-0.203947,-0.409268,0.356277,0
2024-11-29 18:13:47.734,-1.49163,1.15155,9.17887,-0.205779,-0.41782,0.367272,0
2024-11-29 18:13:47.736,-1.45095,1.18744,9.20997,-0.205168,-0.423317,0.381321,0
2024-11-29 18:13:47.739,-1.40279,1.22572,9.22672,-0.205168,-0.426371,0.391095,0
2024-11-29 18:13:47.742,-1.36451,1.25444,9.25783,-0.203336,-0.426371,0.40209,0
2024-11-29 18:13:47.744,-1.32861,1.27597,9.30359,-0.202725,-0.426982,0.410642,0
2024-11-29 18:13:47.746,-1.28794,1.30229,9.32752,-0.203336,-0.426371,0.422248,0
2024-11-29 18:13:47.749,-1.24008,1.33819,9.32992,-0.207612,-0.423928,0.439963,0
2024-11-29 18:13:47.750,-1.18744,1.35972,9.34427,-0.207612,-0.423928,0.439963,0
2024-11-29 18:13:47.756,-1.0654,1.40279,9.35863,-0.217996,-0.405603,0.458899,0
2024-11-29 18:13:47.756,-1.0654,1.40279,9.35863,-0.217996,-0.405603,0.458899,0
2024-11-29 18:13:47.759,-1.00798,1.45813,9.39452,-0.217996,-0.405603,0.458899,0
2024-11-29 18:13:47.761,-0.957727,1.50838,9.43281,-0.229602,-0.391553,0.467451,0
2024-11-29 18:13:47.762,-0.905085,1.54666,9.49263,-0.229602,-0.391553,0.467451,0
2024-11-29 18:13:47.766,-0.854836,1.59212,9.53809,-0.233267,-0.372617,0.473559,0
2024-11-29 18:13:47.767,-0.789931,1.6352,9.57877,-0.233267,-0.372617,0.473559,0
2024-11-29 18:13:47.769,-0.708575,1.66391,9.61705,-0.237543,-0.362232,0.473559,0
2024-11-29 18:13:47.773,-0.632004,1.69741,9.65295,-0.245484,-0.33902,0.474781,0
2024-11-29 18:13:47.775,-0.557827,1.71894,9.68405,-0.245484,-0.33902,0.474781,0
2024-11-29 18:13:47.777,-0.488435,1.72852,9.70798,-0.248538,-0.323749,0.47417,0
2024-11-29 18:13:47.780,-0.421436,1.74527,9.71516,-0.253425,-0.311532,0.469894,0
2024-11-29 18:13:47.781,-0.366401,1.76919,9.72712,-0.258312,-0.296261,0.465007,0
2024-11-29 18:13:47.783,-0.318545,1.78594,9.74148,-0.264421,-0.279768,0.460121,0
2024-11-29 18:13:47.786,-0.267996,1.81705,9.74627,-0.268696,-0.264497,0.453401,0
2024-11-29 18:13:47.788,-0.222533,1.86012,9.75823,-0.272972,-0.247393,0.44546,0
2024-11-29 18:13:47.791,-0.174676,1.88644,9.7678,-0.27847,-0.229068,0.439963,0
2024-11-29 18:13:47.793,-0.136391,1.92473,9.78934,-0.286411,-0.212575,0.431411,0
2024-11-29 18:13:47.796,-0.11007,1.9681,9.82314,-0.295574,-0.175924,0.413696,0
2024-11-29 18:13:47.799,-0.0717847,1.98724,9.84467,-0.29985,-0.158209,0.405144,0
2024-11-29 18:13:47.801,-0.0454636,1.98963,9.86621,-0.304126,-0.139884,0.396593,0
2024-11-29 18:13:47.803,-0.0167498,2.01117,9.88774,-0.309623,-0.124613,0.38743,0
2024-11-29 18:13:47.806,0.026321,2.03031,9.92124,-0.309623,-0.124613,0.38743,0
2024-11-29 18:13:47.808,0.0574277,2.04227,9.94756,-0.310845,-0.0977356,0.367883,0
2024-11-29 18:13:47.810,0.0789631,2.07338,9.95713,-0.310845,-0.0977356,0.367883,0
2024-11-29 18:13:47.812,0.0789631,2.09252,9.98824,-0.310845,-0.0812427,0.35872,0
2024-11-29 18:13:47.815,0.0622134,2.10449,10.0122,-0.30718,-0.0531437,0.339784,0
2024-11-29 18:13:47.816,0.0502493,2.12363,10.0313,-0.30718,-0.0531437,0.339784,0
2024-11-29 18:13:47.819,0.026321,2.14038,10.0576,-0.302293,-0.0397051,0.333064,0
2024-11-29 18:13:47.822,-0.00717847,2.17149,10.0863,-0.290076,-0.0140495,0.321458,0
2024-11-29 18:13:47.824,-0.0382852,2.18824,10.1103,-0.290076,-0.0140495,0.321458,0
2024-11-29 18:13:47.827,-0.0741775,2.20499,10.1294,-0.272362,0.0116061,0.314739,0
2024-11-29 18:13:47.828,-0.112463,2.23609,10.151,-0.272362,0.0116061,0.314739,0
2024-11-29 18:13:47.832,-0.143569,2.24806,10.1557,-0.244873,0.0335966,0.317182,0
2024-11-29 18:13:47.834,-0.16989,2.26002,10.1533,-0.244873,0.0335966,0.317182,0
2024-11-29 18:13:47.836,-0.193819,2.2672,10.1462,-0.230824,0.0421485,0.317182,0
2024-11-29 18:13:47.838,-0.208176,2.25763,10.1175,-0.215553,0.0500895,0.319626,0
2024-11-29 18:13:47.841,-0.210568,2.26241,10.0624,-0.181345,0.0653607,0.323902,0
2024-11-29 18:13:47.843,-0.222533,2.27677,10.0122,-0.181345,0.0653607,0.323902,0
2024-11-29 18:13:47.845,-0.229711,2.28156,9.94995,-0.162409,0.0702474,0.328789,0
2024-11-29 18:13:47.848,-0.22014,2.28873,9.87338,-0.144694,0.0739125,0.332454,0
2024-11-29 18:13:47.849,-0.208176,2.29352,9.79652,-0.129423,0.0787993,0.337951,0
2024-11-29 18:13:47.852,-0.198604,2.31266,9.71994,-0.113541,0.0812427,0.340395,0
2024-11-29 18:13:47.855,-0.198604,2.32941,9.64337,-0.0970484,0.0836861,0.342838,0
2024-11-29 18:13:47.856,-0.181855,2.33181,9.56441,-0.082388,0.0855186,0.348946,0
2024-11-29 18:13:47.859,-0.162712,2.34616,9.47348,-0.0707819,0.0867403,0.352612,0
2024-11-29 18:13:47.862,-0.157926,2.37248,9.38256,-0.0597867,0.0885729,0.358109,0
2024-11-29 18:13:47.865,-0.136391,2.39402,9.3012,-0.0408504,0.0897945,0.364829,0
2024-11-29 18:13:47.867,-0.0957129,2.42513,9.21237,-0.0298552,0.0934596,0.369104,0
2024-11-29 18:13:47.868,-0.0526421,2.44427,9.13101,-0.0298552,0.0934596,0.369104,0
2024-11-29 18:13:47.871,-0.0191426,2.4682,9.06401,-0.022525,0.0952922,0.372159,0
2024-11-29 18:13:47.875,0.0574277,2.50648,8.91566,-0.010308,0.103844,0.376435,0
2024-11-29 18:13:47.876,0.0574277,2.50648,8.91566,-0.010308,0.103844,0.376435,0
2024-11-29 18:13:47.879,0.117248,2.53549,8.86062,-0.00481042,0.107509,0.376435,0
2024-11-29 18:13:47.881,0.174676,2.55464,8.80559,0.00313059,0.117283,0.374602,0
2024-11-29 18:13:47.883,0.241675,2.56421,8.76252,0.00313059,0.117283,0.374602,0
2024-11-29 18:13:47.886,0.294616,2.56899,8.70748,0.00923906,0.130721,0.370937,0
2024-11-29 18:13:47.888,0.344866,2.59292,8.64018,0.0122933,0.141106,0.36605,0
2024-11-29 18:13:47.889,0.395115,2.61924,8.57079,0.0122933,0.141106,0.36605,0
2024-11-29 18:13:47.893,0.419043,2.62403,8.50379,0.0147367,0.149658,0.362385,0
2024-11-29 18:13:47.895,0.440578,2.62642,8.45354,0.013515,0.157599,0.359942,0
2024-11-29 18:13:47.898,0.457328,2.65035,8.39851,0.0104608,0.169205,0.355666,0
2024-11-29 18:13:47.899,0.483649,2.68385,8.3339,0.00862822,0.177757,0.35139,0
2024-11-29 18:13:47.901,0.52672,2.71017,8.27887,0.00618483,0.186919,0.344671,0
2024-11-29 18:13:47.905,0.56022,2.75085,8.24537,0.00251974,0.195471,0.342227,0
2024-11-29 18:13:47.906,0.586541,2.79392,8.22862,0.000687203,0.208299,0.334286,0
2024-11-29 18:13:47.908,0.610469,2.81306,8.20948,-0.00419957,0.217462,0.329399,0
2024-11-29 18:13:47.911,0.648754,2.8322,8.18555,-0.00786466,0.229679,0.322069,0
2024-11-29 18:13:47.913,0.696611,2.86092,8.17119,-0.010308,0.240674,0.315961,0
2024-11-29 18:13:47.916,0.742074,2.88963,8.15923,-0.010308,0.251669,0.308631,0
2024-11-29 18:13:47.918,0.782752,2.91835,8.14487,-0.0115297,0.261443,0.300079,0
2024-11-29 18:13:47.921,0.818644,2.95663,8.13769,-0.010308,0.280379,0.282364,0
2024-11-29 18:13:47.922,0.84018,2.97577,8.13021,-0.010308,0.280379,0.282364,0
2024-11-29 18:13:47.925,0.864407,2.99731,8.11586,-0.0096972,0.285877,0.27198,0
2024-11-29 18:13:47.928,0.895514,3.02842,8.10629,-0.0109189,0.291374,0.248157,0
2024-11-29 18:13:47.930,0.926621,3.04756,8.07039,-0.0109189,0.291374,0.248157,0
2024-11-29 18:13:47.932,0.948156,3.0667,8.05364,-0.0115297,0.290152,0.236551,0
2024-11-29 18:13:47.935,1.11805,3.0021,8.22144,-0.0115297,0.284655,0.221279,0
2024-11-29 18:13:47.937,1.18983,2.9686,8.30758,-0.00481042,0.271216,0.202954,0
2024-11-29 18:13:47.939,1.00798,3.07867,8.12782,-0.000534491,0.265719,0.184629,0
2024-11-29 18:13:47.941,0.938585,3.17228,8.02971,0.0019089,0.269384,0.172412,0
2024-11-29 18:13:47.945,0.948156,3.23928,8.05604,0.0019089,0.270605,0.159584,0
2024-11-29 18:13:47.947,0.914656,3.30868,8.07757,0.00557398,0.267551,0.146756,0
2024-11-29 18:13:47.949,0.895514,3.3685,8.08475,0.00923906,0.254112,0.136983,0
2024-11-29 18:13:47.952,0.881157,3.41635,8.08714,0.00801737,0.235787,0.124766,0
2024-11-29 18:13:47.955,0.842872,3.49771,8.06321,0.00862822,0.196082,0.103997,0
2024-11-29 18:13:47.956,0.842872,3.49771,8.06321,0.00862822,0.196082,0.103997,0
2024-11-29 18:13:47.959,0.847657,3.54317,8.04168,0.00618483,0.171648,0.0923906,0
2024-11-29 18:13:47.965,0.940978,3.58385,8.15923,0.000687203,0.119726,0.0685676,0
2024-11-29 18:13:47.966,0.940978,3.58385,8.15923,-0.00175619,0.0592522,0.0355819,0
2024-11-29 18:13:47.966,0.9003,3.58385,8.15923,-0.00175619,0.0592522,0.0355819,0
2024-11-29 18:13:47.967,0.957727,3.59342,8.20469,-0.00175619,0.0592522,0.0355819,0
2024-11-29 18:13:47.970,0.972084,3.60299,8.27647,7.63559e-05,0.0311532,0.0172564,0
2024-11-29 18:13:47.973,0.96012,3.61974,8.35783,0.0019089,0.00488678,-0.00167983,0
2024-11-29 18:13:47.974,0.948156,3.67029,8.43201,0.00129805,-0.0232122,-0.0212269,0
2024-11-29 18:13:47.978,0.931406,3.71815,8.50379,0.00435229,-0.0513112,-0.0426066,0
2024-11-29 18:13:47.980,0.888335,3.74925,8.56361,0.00557398,-0.0787993,-0.0658188,0
2024-11-29 18:13:47.982,0.833001,3.78275,8.62343,0.00984991,-0.106898,-0.0841442,0
2024-11-29 18:13:47.985,0.780359,3.81147,8.68086,0.00862822,-0.15882,-0.123238,0
2024-11-29 18:13:47.987,0.749253,3.84018,8.72184,0.00984991,-0.183254,-0.140953,0
2024-11-29 18:13:47.989,0.725324,3.8665,8.77687,0.00984991,-0.183254,-0.140953,0
2024-11-29 18:13:47.992,0.684646,3.88325,8.83191,0.0019089,-0.226624,-0.173328,0
2024-11-29 18:13:47.994,0.629611,3.88804,8.88216,-0.00297788,-0.243728,-0.18921,0
2024-11-29 18:13:47.995,0.593719,3.89522,8.9348,-0.00297788,-0.243728,-0.18921,0
2024-11-29 18:13:47.999,0.569791,3.89761,8.99223,-0.010308,-0.260832,-0.201427,0
2024-11-29 18:13:48.001,0.52672,3.88325,9.07119,-0.0151948,-0.275492,-0.213644,0
2024-11-29 18:13:48.005,0.414257,3.86411,9.24347,-0.0310769,-0.297483,-0.233191,0
2024-11-29 18:13:48.006,0.4669,3.86411,9.24347,-0.0310769,-0.297483,-0.233191,0
2024-11-29 18:13:48.010,0.337687,3.84736,9.43281,-0.0469589,-0.307256,-0.246019,0
2024-11-29 18:13:48.011,0.337687,3.84736,9.43281,-0.0573433,-0.309089,-0.250906,0
2024-11-29 18:13:48.013,0.30658,3.85693,9.52613,-0.0658951,-0.307867,-0.25396,0
2024-11-29 18:13:48.014,0.27996,3.85693,9.63859,-0.0658951,-0.307867,-0.25396,0
2024-11-29 18:13:48.017,0.234497,3.85932,9.76302,-0.074447,-0.307867,-0.256403,0
2024-11-29 18:13:48.019,0.198604,3.87368,9.88774,-0.0793338,-0.307256,-0.256403,0
2024-11-29 18:13:48.034,0.198604,3.93111,10.7853,-0.0897182,-0.305424,-0.258847,0
2024-11-29 18:13:48.040,0.234497,3.92393,11.2283,-0.109265,-0.275492,-0.269231,0
2024-11-29 18:13:48.040,0.234497,3.92393,11.2283,-0.109265,-0.275492,-0.269231,0
2024-11-29 18:13:48.040,0.239282,3.92393,11.2283,-0.109265,-0.275492,-0.269231,0
2024-11-29 18:13:48.040,0.234497,3.92393,11.2283,-0.109265,-0.275492,-0.269231,0
2024-11-29 18:13:48.041,0.234497,3.92393,11.2283,-0.102546,-0.265108,-0.271674,0
2024-11-29 18:13:48.041,0.234497,3.92393,11.2283,-0.102546,-0.265108,-0.271674,0
2024-11-29 18:13:48.041,0.234497,3.92393,11.2283,-0.102546,-0.265108,-0.271674,0
2024-11-29 18:13:48.045,0.191426,3.94547,11.5134,-0.0982701,-0.254112,-0.272285,0
2024-11-29 18:13:48.045,0.191426,3.94547,11.5134,-0.0982701,-0.254112,-0.272285,0
2024-11-29 18:13:48.046,0.191426,3.94547,11.5134,-0.0982701,-0.254112,-0.272285,0
2024-11-29 18:13:48.048,0.16989,3.95264,11.6521,-0.0811663,-0.233344,-0.274118,0
2024-11-29 18:13:48.051,0.16989,3.97657,11.7933,-0.0726145,-0.221738,-0.271063,0
2024-11-29 18:13:48.053,0.167498,3.98136,11.9082,-0.0616192,-0.211964,-0.26862,0
2024-11-29 18:13:48.054,0.143569,3.98614,11.9919,-0.0616192,-0.211964,-0.26862,0
2024-11-29 18:13:48.057,0.148355,3.99093,12.0975,-0.0500131,-0.202801,-0.266788,0
2024-11-29 18:13:48.060,0.167498,3.97418,12.2076,-0.038407,-0.195471,-0.263122,0
2024-11-29 18:13:48.061,0.196211,3.95264,12.3009,-0.0249684,-0.188141,-0.258847,0
2024-11-29 18:13:48.065,0.234497,3.94068,12.3847,-0.0121406,-0.182032,-0.257014,0
2024-11-29 18:13:48.066,0.260818,3.92872,12.454,-0.000534491,-0.176535,-0.255181,0
2024-11-29 18:13:48.068,0.289831,3.90957,12.5282,0.0129041,-0.169816,-0.253349,0
2024-11-29 18:13:48.072,0.308973,3.9,12.588,0.0446682,-0.156377,-0.249073,0
2024-11-29 18:13:48.074,0.34008,3.9,12.6266,0.0446682,-0.156377,-0.249073,0
2024-11-29 18:13:48.076,0.373579,3.90718,12.6841,0.0581068,-0.150268,-0.249684,0
2024-11-29 18:13:48.079,0.375972,3.91197,12.7343,0.0715455,-0.144771,-0.24724,0
2024-11-29 18:13:48.080,0.387936,3.9335,12.7678,0.0880384,-0.140495,-0.248462,0
2024-11-29 18:13:48.084,0.387936,3.94547,12.8085,0.102699,-0.13683,-0.24724,0
2024-11-29 18:13:48.085,0.387936,3.94786,12.8372,0.115526,-0.134386,-0.247851,0
2024-11-29 18:13:48.088,0.395115,3.96461,12.8396,0.129576,-0.133776,-0.247851,0
2024-11-29 18:13:48.091,0.392722,3.96939,12.8228,0.144236,-0.132554,-0.24724,0
2024-11-29 18:13:48.093,0.387936,3.97897,12.8085,0.16867,-0.131943,-0.248462,0
2024-11-29 18:13:48.095,0.375972,3.99332,12.8133,0.16867,-0.131943,-0.248462,0
2024-11-29 18:13:48.098,0.359223,4.00289,12.8013,0.188828,-0.132554,-0.252127,0
2024-11-29 18:13:48.099,0.347258,4.00529,12.7702,0.188828,-0.132554,-0.252127,0
2024-11-29 18:13:48.101,0.32333,4.01246,12.7439,0.199823,-0.128889,-0.250906,0
2024-11-29 18:13:48.104,0.292223,4.02204,12.7104,0.207154,-0.124613,-0.250295,0
2024-11-29 18:13:48.107,0.272782,4.04357,12.6745,0.214484,-0.117283,-0.251516,0
2024-11-29 18:13:48.109,0.251246,4.06032,12.6386,0.221814,-0.109953,-0.252127,0
2024-11-29 18:13:48.112,0.229711,4.06032,12.588,0.229144,-0.102622,-0.249073,0
2024-11-29 18:13:48.113,0.200997,4.06032,12.5187,0.234642,-0.0916271,-0.248462,0
2024-11-29 18:13:48.117,0.172283,4.05554,12.4421,0.240139,-0.080021,-0.24663,0
2024-11-29 18:13:48.118,0.141177,4.06511,12.3823,0.245026,-0.0659715,-0.244797,0
2024-11-29 18:13:48.121,0.105284,4.08903,12.3248,0.249302,-0.03604,-0.238078,0
2024-11-29 18:13:48.124,0.0861416,4.101,12.2554,0.250524,-0.0213797,-0.233802,0
2024-11-29 18:13:48.126,0.0550349,4.09861,12.198,0.250524,-0.0213797,-0.233802,0
2024-11-29 18:13:48.128,0.0143569,4.09861,12.1358,0.248691,-0.00610847,-0.231358,0
2024-11-29 18:13:48.131,-0.0119641,4.11296,12.0688,0.249913,0.0103844,-0.224639,0
2024-11-29 18:13:48.132,-0.0287139,4.13211,12.0302,0.250524,0.0256556,-0.220363,0
2024-11-29 18:13:48.135,-0.0430708,4.14168,11.9943,0.249913,0.0378725,-0.21792,0
2024-11-29 18:13:48.137,-0.0646062,4.14886,11.9608,0.2548,0.0531437,-0.2112,0
2024-11-29 18:13:48.140,-0.0693919,4.16561,11.9417,0.2548,0.0751342,-0.203259,0
2024-11-29 18:13:48.142,-0.081356,4.16321,11.9297,0.2548,0.0751342,-0.203259,0
2024-11-29 18:13:48.145,-0.0909273,4.15843,11.9201,0.264573,0.0971247,-0.192875,0
2024-11-29 18:13:48.147,-0.0933201,4.17518,11.8938,0.268849,0.104455,-0.189821,0
2024-11-29 18:13:48.150,-0.0957129,4.17039,11.8651,0.268849,0.104455,-0.189821,0
2024-11-29 18:13:48.151,-0.0957129,4.15364,11.8484,0.276179,0.10812,-0.187988,0
2024-11-29 18:13:48.154,-0.112463,4.15125,11.8364,0.282899,0.113618,-0.186156,0
2024-11-29 18:13:48.156,-0.124427,4.14407,11.8268,0.289007,0.114839,-0.183712,0
2024-11-29 18:13:48.159,-0.138784,4.14407,11.822,0.308554,0.114839,-0.178215,0
2024-11-29 18:13:48.161,-0.160319,4.15125,11.8316,0.308554,0.114839,-0.178215,0
2024-11-29 18:13:48.163,-0.179462,4.13211,11.8292,0.322604,0.113618,-0.176993,0
2024-11-29 18:13:48.166,-0.196211,4.12014,11.8029,0.347038,0.114228,-0.167219,0
2024-11-29 18:13:48.168,-0.208176,4.13211,11.7455,0.347038,0.114228,-0.167219,0
2024-11-29 18:13:48.171,-0.236889,4.11775,11.6928,0.372082,0.113007,-0.158057,0
2024-11-29 18:13:48.173,-0.267996,4.09861,11.6474,0.372082,0.113007,-0.158057,0
2024-11-29 18:13:48.175,-0.292223,4.08903,11.5875,0.383688,0.112396,-0.151337,0
2024-11-29 18:13:48.178,-0.316152,4.08664,11.5397,0.395905,0.108731,-0.144618,0
2024-11-29 18:13:48.180,-0.349651,4.09143,11.4939,0.409344,0.103233,-0.13851,0
2024-11-29 18:13:48.183,-0.402293,4.11296,11.4197,0.422783,0.100179,-0.130569,0
2024-11-29 18:13:48.185,-0.454935,4.14168,11.3312,0.441108,0.0842969,-0.114076,0
2024-11-29 18:13:48.187,-0.495613,4.168,11.2307,0.447217,0.0714691,-0.10308,0
2024-11-29 18:13:48.189,-0.521934,4.18475,11.1111,0.447217,0.0714691,-0.10308,0
2024-11-29 18:13:48.191,-0.514756,4.18475,10.9843,0.450882,0.0543654,-0.0945286,0
2024-11-29 18:13:48.194,-0.486042,4.17039,10.8643,0.450882,0.028099,-0.0859767,0
2024-11-29 18:13:48.196,-0.435793,4.14886,10.7518,0.444162,-0.00366508,-0.0786466,0
2024-11-29 18:13:48.198,-0.375972,4.12732,10.6346,0.436832,-0.0390942,-0.073149,0
2024-11-29 18:13:48.200,-0.294616,4.09861,10.5269,0.422172,-0.0830752,-0.0713164,0
2024-11-29 18:13:48.203,-0.172283,4.04357,10.4504,0.422172,-0.0830752,-0.0713164,0
2024-11-29 18:13:48.206,-0.0334995,3.98136,10.3881,0.359865,-0.243117,-0.076814,0
2024-11-29 18:13:48.207,0.119641,3.92154,10.3543,0.359865,-0.243117,-0.076814,0
2024-11-29 18:13:48.211,0.294616,3.84257,10.3472,0.301835,-0.375671,-0.0975828,0
2024-11-29 18:13:48.213,0.483649,3.74925,10.3881,0.301835,-0.375671,-0.0975828,0
2024-11-29 18:13:48.217,0.902692,3.59342,10.5532,0.241361,-0.520442,-0.130569,0
2024-11-29 18:13:48.218,0.902692,3.59342,10.5532,0.210208,-0.591911,-0.150727,0
2024-11-29 18:13:48.219,1.08933,3.48335,10.6944,0.210208,-0.591911,-0.150727,0
2024-11-29 18:13:48.225,1.43659,3.34935,11.0393,0.147291,-0.714691,-0.194708,0
2024-11-29 18:13:48.225,1.43659,3.34935,11.0393,0.147291,-0.714691,-0.194708,0
2024-11-29 18:13:48.226,1.59212,3.30628,11.2642,0.116137,-0.765392,-0.213644,0
2024-11-29 18:13:48.229,1.73569,3.29671,11.4724,0.0910926,-0.805708,-0.236856,0
2024-11-29 18:13:48.232,1.87926,3.268,11.6856,0.0452791,-0.855186,-0.285724,0
2024-11-29 18:13:48.234,2.03749,3.21296,11.9297,0.0452791,-0.855186,-0.285724,0
2024-11-29 18:13:48.237,2.20738,3.15314,12.1765,0.0281753,-0.866181,-0.313823,0
2024-11-29 18:13:48.239,2.3677,3.09811,12.4182,0.013515,-0.870457,-0.346198,0
2024-11-29 18:13:48.241,2.49691,3.04517,12.629,0.00679568,-0.869236,-0.375518,0
2024-11-29 18:13:48.243,2.58814,2.98056,12.7941,-0.00114534,-0.861905,-0.41278,0
2024-11-29 18:13:48.246,2.63839,2.91595,12.9449,-0.00481042,-0.829531,-0.483027,0
2024-11-29 18:13:48.247,2.67428,2.8346,13.098,-0.00481042,-0.829531,-0.483027,0
2024-11-29 18:13:48.251,2.74606,2.70299,13.2586,0.00496313,-0.759894,-0.55694,0
2024-11-29 18:13:48.255,2.84417,2.39402,13.4883,0.0171801,-0.709194,-0.591147,0
2024-11-29 18:13:48.255,2.84417,2.39402,13.4883,0.0171801,-0.709194,-0.591147,0
2024-11-29 18:13:48.258,2.82742,2.24327,13.5338,0.0526092,-0.571142,-0.658951,0
2024-11-29 18:13:48.260,2.74367,2.10449,13.5458,0.0526092,-0.571142,-0.658951,0
2024-11-29 18:13:48.263,2.61446,1.9343,13.5338,0.0752106,-0.487456,-0.689494,1
2024-11-29 18:13:48.265,2.45623,1.7668,13.4859,0.130798,-0.304813,-0.732864,0
2024-11-29 18:13:48.266,2.2672,1.60887,13.3831,0.130798,-0.304813,-0.732864,0
2024-11-29 18:13:48.269,2.07338,1.41984,13.2491,0.130798,-0.304813,-0.732864,0
2024-11-29 18:13:48.272,1.88644,1.22333,13.098,0.190661,-0.117283,-0.76585,0
2024-11-29 18:13:48.274,1.68784,1.05583,12.9162,0.221814,-0.0207688,-0.771347,0
2024-11-29 18:13:48.277,1.47009,0.919442,12.6817,0.251135,0.0733017,-0.775623,0
2024-11-29 18:13:48.281,1.00319,0.706182,12.1214,0.306722,0.260832,-0.76585,0
2024-11-29 18:13:48.281,1.00319,0.706182,12.1214,0.306722,0.260832,-0.76585,0
2024-11-29 18:13:48.284,0.768395,0.632004,11.8412,0.332988,0.353681,-0.754855,0
2024-11-29 18:13:48.285,0.521934,0.565005,11.5684,0.3562,0.441032,-0.740805,0
2024-11-29 18:13:48.288,0.265603,0.536291,11.3025,0.378802,0.521664,-0.72309,0
2024-11-29 18:13:48.291,0.0311067,0.512363,11.0273,0.400792,0.594354,-0.698657,0
2024-11-29 18:13:48.293,-0.189033,0.462114,10.7542,0.432556,0.717746,-0.641237,0
2024-11-29 18:13:48.296,-0.397508,0.404686,10.4719,0.432556,0.717746,-0.641237,0
2024-11-29 18:13:48.298,-0.579362,0.347258,10.1868,0.445384,0.766002,-0.610695,0
2024-11-29 18:13:48.300,-0.73011,0.287438,9.91885,0.45699,0.808151,-0.575265,0
2024-11-29 18:13:48.303,-0.869193,0.232104,9.6697,0.466153,0.838693,-0.539836,0
2024-11-29 18:13:48.305,-1.0008,0.172283,9.4352,0.479591,0.875344,-0.467756,0
2024-11-29 18:13:48.307,-1.09412,0.136391,9.21237,0.479591,0.875344,-0.467756,0
2024-11-29 18:13:48.309,-1.17308,0.0981057,9.01137,0.482646,0.885118,-0.429273,0
2024-11-29 18:13:48.312,-1.21854,0.0454636,8.82473,0.484478,0.883896,-0.392622,0
2024-11-29 18:13:48.316,-1.28076,0.00239282,8.47029,0.483867,0.874122,-0.358415,0
2024-11-29 18:13:48.317,-1.28076,0.00239282,8.47029,0.483867,0.874122,-0.358415,0
2024-11-29 18:13:48.322,-1.34058,-0.00478565,8.11107,0.477148,0.811816,-0.260068,0
2024-11-29 18:13:48.322,-1.34058,-0.00478565,8.11107,0.477148,0.811816,-0.260068,0
2024-11-29 18:13:48.324,-1.35972,0.0167498,7.9675,0.466764,0.780052,-0.229526,0
2024-11-29 18:13:48.325,-1.35494,0.0550349,7.84786,0.455768,0.742179,-0.198983,0
2024-11-29 18:13:48.329,-1.33101,0.0693919,7.74497,0.429502,0.650552,-0.141564,0
2024-11-29 18:13:48.330,-1.29751,0.0885344,7.6684,0.429502,0.650552,-0.141564,0
2024-11-29 18:13:48.333,-1.24487,0.119641,7.61336,0.417285,0.59863,-0.114076,0
2024-11-29 18:13:48.336,-1.17547,0.138784,7.59661,0.389186,0.485624,-0.0621537,0
2024-11-29 18:13:48.337,-1.0654,0.157926,7.62533,0.389186,0.485624,-0.0621537,0
2024-11-29 18:13:48.339,-0.929013,0.162712,7.67797,0.375137,0.425761,-0.0407741,0
2024-11-29 18:13:48.342,-0.792323,0.155533,7.75454,0.365363,0.364065,-0.0212269,0
2024-11-29 18:13:48.345,-0.651147,0.145962,7.86222,0.359255,0.30298,-0.00351237,0
2024-11-29 18:13:48.347,-0.490828,0.12682,7.97947,0.351924,0.241896,0.00992627,0
2024-11-29 18:13:48.349,-0.308973,0.124427,8.09671,0.351924,0.182643,0.0196998,0
2024-11-29 18:13:48.352,-0.12682,0.122034,8.21905,0.353757,0.128889,0.0258083,0
2024-11-29 18:13:48.353,0.0311067,0.107677,8.3363,0.360476,0.0812427,0.0306951,0
2024-11-29 18:13:48.356,0.172283,0.112463,8.43919,0.368417,0.0390942,0.0325276,0
2024-11-29 18:13:48.359,0.294616,0.122034,8.50379,0.391019,-0.0287098,0.0331385,0
2024-11-29 18:13:48.361,0.397508,0.141177,8.55643,0.391019,-0.0287098,0.0331385,0
2024-11-29 18:13:48.363,0.490828,0.165105,8.58515,0.403236,-0.051922,0.0325276,0
2024-11-29 18:13:48.366,0.565005,0.193819,8.58036,0.41362,-0.0757451,0.0300842,0
2024-11-29 18:13:48.368,0.617647,0.215354,8.55643,0.425226,-0.0916271,0.0276408,0
2024-11-29 18:13:48.371,0.670289,0.227318,8.52293,0.434389,-0.107509,0.0251975,0
2024-11-29 18:13:48.372,0.71336,0.253639,8.46311,0.437443,-0.120337,0.0233649,0
2024-11-29 18:13:48.376,0.737288,0.287438,8.40569,0.44233,-0.132554,0.0209215,0
2024-11-29 18:13:48.377,0.782752,0.316152,8.31954,0.440497,-0.145382,0.0178673,0
2024-11-29 18:13:48.383,0.88355,0.354437,8.13021,0.419728,-0.175313,-0.00290152,0
2024-11-29 18:13:48.383,0.88355,0.354437,8.13021,0.419728,-0.175313,-0.00290152,0
2024-11-29 18:13:48.384,0.938585,0.387936,8.04886,0.419728,-0.175313,-0.00290152,0
2024-11-29 18:13:48.387,0.988834,0.421436,7.95793,0.406901,-0.183865,-0.0102317,0
2024-11-29 18:13:48.389,1.02712,0.452543,7.8694,0.388575,-0.192417,-0.0206161,0
2024-11-29 18:13:48.392,1.04387,0.478864,7.79761,0.34887,-0.20219,-0.0462717,0
2024-11-29 18:13:48.394,1.07019,0.507577,7.74018,0.34887,-0.20219,-0.0462717,0
2024-11-29 18:13:48.396,1.06062,0.533899,7.7019,0.322604,-0.205856,-0.0603212,0
2024-11-29 18:13:48.399,1.05583,0.572184,7.68036,0.297559,-0.211353,-0.0743707,0
2024-11-29 18:13:48.401,1.08455,0.612862,7.66122,0.268238,-0.215018,-0.0902527,0
2024-11-29 18:13:48.405,1.08694,0.689432,7.65883,0.213262,-0.219294,-0.122628,0
2024-11-29 18:13:48.405,1.08694,0.689432,7.65883,0.213262,-0.219294,-0.122628,0
2024-11-29 18:13:48.408,1.09173,0.708575,7.6684,0.181498,-0.220516,-0.13851,0
2024-11-29 18:13:48.411,1.08694,0.73011,7.69233,0.150345,-0.219905,-0.156224,0
2024-11-29 18:13:48.413,1.08215,0.761217,7.71386,0.119802,-0.220516,-0.172106,0
2024-11-29 18:13:48.415,1.07019,0.780359,7.74258,0.0874275,-0.217462,-0.190432,0
2024-11-29 18:13:48.418,1.03669,0.799502,7.80479,0.0269536,-0.205856,-0.224639,0
2024-11-29 18:13:48.420,0.988834,0.818644,7.87657,0.0269536,-0.205856,-0.224639,0
2024-11-29 18:13:48.422,0.940978,0.845265,7.95314,-0.00358873,-0.198525,-0.236245,0
2024-11-29 18:13:48.425,0.888335,0.876371,8.04168,-0.0322986,-0.186919,-0.250295,0
2024-11-29 18:13:48.428,0.825823,0.9003,8.14487,-0.0561216,-0.174091,-0.261901,0
2024-11-29 18:13:48.430,0.751645,0.933799,8.24298,-0.0781121,-0.159431,-0.274118,0
2024-11-29 18:13:48.432,0.677468,0.952942,8.33151,-0.100103,-0.139273,-0.28328,0
2024-11-29 18:13:48.434,0.605683,0.957727,8.42483,-0.116595,-0.119115,-0.29,0
2024-11-29 18:13:48.436,0.531506,0.962513,8.50858,-0.129423,-0.0971247,-0.296719,0
2024-11-29 18:13:48.439,0.445364,0.962513,8.59233,-0.150803,-0.0488678,-0.297941,0
2024-11-29 18:13:48.441,0.354437,0.981655,8.66411,-0.150803,-0.0488678,-0.297941,0
2024-11-29 18:13:48.443,0.277567,1.0008,8.74337,-0.157522,-0.0219905,-0.299773,0
2024-11-29 18:13:48.445,0.196211,1.01515,8.82234,-0.161187,0.00305424,-0.294276,0
2024-11-29 18:13:48.448,0.11007,1.0343,8.88216,-0.160576,0.0323749,-0.291221,0
2024-11-29 18:13:48.451,0.040678,1.05823,8.9348,-0.15569,0.0885729,-0.27595,0
2024-11-29 18:13:48.452,-0.0382852,1.08455,8.96351,-0.15569,0.0885729,-0.27595,0
2024-11-29 18:13:48.455,-0.122034,1.11326,8.98266,-0.152025,0.11545,-0.263733,0
2024-11-29 18:13:48.458,-0.174676,1.15155,8.98744,-0.137364,0.172259,-0.240521,0
2024-11-29 18:13:48.459,-0.239282,1.17787,8.96351,-0.137364,0.172259,-0.240521,0
2024-11-29 18:13:48.462,-0.297009,1.19222,8.90848,-0.129423,0.199136,-0.22525,0
2024-11-29 18:13:48.465,-0.344866,1.22572,8.82952,-0.114152,0.24495,-0.189821,0
2024-11-29 18:13:48.467,-0.3999,1.25922,8.76491,-0.114152,0.24495,-0.189821,0
2024-11-29 18:13:48.470,-0.45015,1.29033,8.69043,-0.100713,0.280379,-0.154392,0
2024-11-29 18:13:48.472,-0.486042,1.32622,8.58754,-0.0964375,0.293818,-0.134845,0
2024-11-29 18:13:48.474,-0.514756,1.34776,8.5014,-0.0964375,0.293818,-0.134845,0
2024-11-29 18:13:48.477,-0.529113,1.37886,8.42004,-0.0909399,0.308478,-0.0957503,0
2024-11-29 18:13:48.479,-0.529113,1.41506,8.32433,-0.0909399,0.308478,-0.0957503,0
2024-11-29 18:13:48.481,-0.50997,1.44616,8.23101,-0.0884965,0.311532,-0.0792574,0
2024-11-29 18:13:48.483,-0.474078,1.4653,8.15444,-0.0878856,0.31031,-0.0627646,0
2024-11-29 18:13:48.485,-0.445364,1.49641,8.07757,-0.0872748,0.304813,-0.0468825,0
2024-11-29 18:13:48.488,-0.411865,1.53948,8.01775,-0.0872748,0.299315,-0.0316113,0
2024-11-29 18:13:48.491,-0.359223,1.58255,7.9675,-0.086664,0.291985,-0.0187836,0
2024-11-29 18:13:48.493,-0.301795,1.62084,7.90289,-0.0891073,0.28099,-0.0077883,0
2024-11-29 18:13:48.495,-0.239282,1.66869,7.85982,-0.086664,0.268773,0.00198525,0
2024-11-29 18:13:48.498,-0.174676,1.72373,7.82154,-0.0878856,0.256556,0.00992627,0
2024-11-29 18:13:48.501,-0.122034,1.76441,7.77608,-0.0897182,0.244339,0.0160347,0
2024-11-29 18:13:48.504,-0.0215354,1.85533,7.6995,-0.0909399,0.219905,0.0239758,0
2024-11-29 18:13:48.505,-0.0215354,1.85533,7.6995,-0.0909399,0.219905,0.0239758,0
2024-11-29 18:13:48.507,0.0311067,1.89841,7.68515,-0.0921616,0.20891,0.0264191,0
2024-11-29 18:13:48.510,0.0765703,1.92951,7.65165,-0.0933833,0.197915,0.0264191,0
2024-11-29 18:13:48.512,0.114855,1.96062,7.61336,-0.0933833,0.185087,0.02703,0
2024-11-29 18:13:48.514,0.150748,1.99442,7.57239,-0.0933833,0.174702,0.0239758,0
2024-11-29 18:13:48.516,0.181855,2.01835,7.52692,-0.0982701,0.163707,0.0209215,0
2024-11-29 18:13:48.519,0.208176,2.05185,7.47907,-0.101324,0.150879,0.0160347,0
2024-11-29 18:13:48.521,0.229711,2.07817,7.43121,-0.107433,0.138662,0.0129805,0
2024-11-29 18:13:48.524,0.253639,2.09013,7.38575,-0.11965,0.114228,-0.00290152,0
2024-11-29 18:13:48.525,0.263211,2.10209,7.35225,-0.11965,0.114228,-0.00290152,0
2024-11-29 18:13:48.528,0.258425,2.11406,7.32114,-0.126369,0.0983464,-0.00962084,0
2024-11-29 18:13:48.531,0.253639,2.12602,7.27807,-0.146527,0.0696366,-0.0267246,0
2024-11-29 18:13:48.534,0.224925,2.12602,7.235,-0.146527,0.0696366,-0.0267246,0
2024-11-29 18:13:48.535,0.193819,2.12363,7.20868,-0.156911,0.0555871,-0.0352764,0
2024-11-29 18:13:48.538,0.177069,2.12363,7.18475,-0.169739,0.0409268,-0.0413849,0
2024-11-29 18:13:48.540,0.143569,2.13081,7.14646,-0.179513,0.028099,-0.0474934,0
2024-11-29 18:13:48.543,0.107677,2.13081,7.12732,-0.207001,-0.00244339,-0.0536018,0
2024-11-29 18:13:48.545,0.0646062,2.13559,7.12971,-0.207001,-0.00244339,-0.0536018,0
2024-11-29 18:13:48.547,0.0119641,2.14277,7.14168,-0.226548,-0.0146603,-0.0560452,0
2024-11-29 18:13:48.550,-0.0334995,2.15234,7.168,-0.254036,-0.0354291,-0.0542127,0
2024-11-29 18:13:48.552,-0.066999,2.17388,7.19911,-0.254036,-0.0354291,-0.0542127,0
2024-11-29 18:13:48.554,-0.100499,2.17627,7.24936,-0.270529,-0.0464244,-0.0511585,0
2024-11-29 18:13:48.556,-0.141177,2.19781,7.30678,-0.285189,-0.051922,-0.0456608,0
2024-11-29 18:13:48.558,-0.179462,2.22413,7.36182,-0.295574,-0.0549763,-0.0389415,0
2024-11-29 18:13:48.561,-0.212961,2.23849,7.43839,-0.310234,-0.0580305,-0.0310005,0
2024-11-29 18:13:48.563,-0.229711,2.26959,7.51496,-0.320008,-0.0610847,-0.0218378,0
2024-11-29 18:13:48.565,-0.239282,2.28873,7.57986,-0.332225,-0.0659715,-0.0138968,0
2024-11-29 18:13:48.569,-0.258425,2.30548,7.64208,-0.341998,-0.0696366,-0.00473407,0
2024-11-29 18:13:48.571,-0.272782,2.32702,7.72343,-0.349328,-0.0708583,0.00503949,0
2024-11-29 18:13:48.573,-0.267996,2.3342,7.80958,-0.360324,-0.0745234,0.0142022,0
2024-11-29 18:13:48.576,-0.253639,2.35095,7.86461,-0.370097,-0.0775776,0.0239758,0
2024-11-29 18:13:48.578,-0.236889,2.38206,7.91964,-0.375595,-0.0806318,0.0313059,0
2024-11-29 18:13:48.580,-0.20339,2.4012,7.99143,-0.382925,-0.0824644,0.0374144,0
2024-11-29 18:13:48.582,-0.165105,2.40838,8.07279,-0.390255,-0.0830752,0.042912,0
2024-11-29 18:13:48.585,-0.124427,2.40838,8.14487,-0.400029,-0.0842969,0.0496313,0
2024-11-29 18:13:48.587,-0.0957129,2.40838,8.22383,-0.403694,-0.0836861,0.0557398,0
2024-11-29 18:13:48.590,-0.0717847,2.41316,8.31954,-0.412246,-0.0830752,0.0642917,0
2024-11-29 18:13:48.592,-0.0478565,2.4347,8.40569,-0.412246,-0.0830752,0.0642917,0
2024-11-29 18:13:48.594,-0.0358923,2.44905,8.48226,-0.414689,-0.0812427,0.0679568,0
2024-11-29 18:13:48.597,-0.0215354,2.45623,8.57318,-0.418354,-0.0836861,0.0740652,0
2024-11-29 18:13:48.598,0.00717847,2.45863,8.65933,-0.417132,-0.0830752,0.0813954,0
2024-11-29 18:13:48.601,0.0382852,2.46102,8.74577,-0.415911,-0.0830752,0.0844496,0
2024-11-29 18:13:48.604,0.066999,2.47537,8.84626,-0.407359,-0.0787993,0.0942232,0
2024-11-29 18:13:48.606,0.0933201,2.48495,8.95634,-0.407359,-0.0787993,0.0942232,0
2024-11-29 18:13:48.609,0.105284,2.50648,9.06401,-0.400639,-0.0763559,0.0997208,0
2024-11-29 18:13:48.611,0.0933201,2.54267,9.14058,-0.390866,-0.0733017,0.100943,0
2024-11-29 18:13:48.613,0.0693919,2.5666,9.20758,-0.378649,-0.067804,0.107662,0
2024-11-29 18:13:48.615,0.040678,2.58814,9.29402,-0.367043,-0.059863,0.111327,0
2024-11-29 18:13:48.618,0.0358923,2.61685,9.38016,-0.333446,-0.0378725,0.123544,0
2024-11-29 18:13:48.620,0.0334995,2.65274,9.43998,-0.333446,-0.0378725,0.123544,0
2024-11-29 18:13:48.623,0.00957129,2.68385,9.47827,-0.316343,-0.0250447,0.130263,0
2024-11-29 18:13:48.624,0.00957129,2.69821,9.51655,-0.29313,-0.00977356,0.136372,0
2024-11-29 18:13:48.627,0.0311067,2.72213,9.51416,-0.275416,0.00488678,0.143091,0
2024-11-29 18:13:48.630,0.040678,2.75563,9.49981,-0.237543,0.0354291,0.15653,0
2024-11-29 18:13:48.632,0.0502493,2.76042,9.48306,-0.237543,0.0354291,0.15653,0
2024-11-29 18:13:48.635,0.0622134,2.76042,9.4352,-0.200892,0.0665824,0.168136,0
2024-11-29 18:13:48.637,0.0526421,2.78674,9.38256,-0.200892,0.0665824,0.168136,0
2024-11-29 18:13:48.639,0.040678,2.81067,9.31795,-0.188065,0.0812427,0.173022,0
2024-11-29 18:13:48.642,0.0311067,2.83699,9.26052,-0.17768,0.0940705,0.17852,0
2024-11-29 18:13:48.643,0.0143569,2.87528,9.19083,-0.166074,0.10812,0.183407,0
2024-11-29 18:13:48.646,-0.00717847,2.90878,9.12383,-0.156911,0.121559,0.189515,0
2024-11-29 18:13:48.648,-0.0358923,2.93749,9.07358,-0.150803,0.134386,0.195624,0
2024-11-29 18:13:48.651,-0.0717847,2.97577,9.02333,-0.13431,0.163707,0.209673,0
2024-11-29 18:13:48.654,-0.112463,3.02842,8.98505,-0.131867,0.175924,0.217003,0
2024-11-29 18:13:48.656,-0.162712,3.07149,8.95155,-0.131867,0.175924,0.217003,0
2024-11-29 18:13:48.657,-0.205783,3.12443,8.91566,-0.12698,0.186308,0.225555,0
2024-11-29 18:13:48.660,-0.222533,3.16032,8.88694,-0.121482,0.19486,0.233496,0
2024-11-29 18:13:48.663,-0.224925,3.18903,8.87259,-0.111709,0.207077,0.248157,0
2024-11-29 18:13:48.664,-0.234497,3.24168,8.84866,-0.111709,0.207077,0.248157,0
2024-11-29 18:13:48.667,-0.253639,3.27518,8.81755,-0.104379,0.210742,0.254265,0
2024-11-29 18:13:48.670,-0.253639,3.29671,8.8008,-0.0982701,0.222348,0.267704,0
2024-11-29 18:13:48.672,-0.253639,3.32782,8.78405,-0.0982701,0.222348,0.267704,0
2024-11-29 18:13:48.675,-0.256032,3.3661,8.7673,-0.0970484,0.227846,0.27198,0
2024-11-29 18:13:48.677,-0.260818,3.41157,8.75055,-0.0927724,0.232733,0.277477,0
2024-11-29 18:13:48.680,-0.258425,3.43071,8.71945,-0.0915507,0.235787,0.282975,0
2024-11-29 18:13:48.681,-0.234497,3.44746,8.68804,-0.0933833,0.239452,0.287251,0
2024-11-29 18:13:48.684,-0.217747,3.49292,8.68086,-0.0939941,0.238841,0.294581,0
2024-11-29 18:13:48.686,-0.205783,3.5336,8.69283,-0.0939941,0.238841,0.294581,0
2024-11-29 18:13:48.689,-0.20339,3.57189,8.70987,-0.0994917,0.237009,0.303744,0
2024-11-29 18:13:48.691,-0.193819,3.63171,8.74337,-0.0994917,0.237009,0.303744,0
2024-11-29 18:13:48.693,-0.189033,3.68465,8.78405,-0.100713,0.236398,0.306187,0
2024-11-29 18:13:48.696,-0.18664,3.72533,8.82952,-0.102546,0.233344,0.314128,0
2024-11-29 18:13:48.697,-0.172283,3.77797,8.89412,-0.102546,0.233344,0.314128,0
2024-11-29 18:13:48.700,-0.18664,3.833,8.9683,-0.101935,0.232733,0.317182,0
2024-11-29 18:13:48.703,-0.205783,3.88325,9.04487,-0.0964375,0.229068,0.319015,0
2024-11-29 18:13:48.705,-0.205783,3.9335,9.11187,-0.0927724,0.227235,0.322069,0
2024-11-29 18:13:48.708,-0.208176,3.98854,9.17647,-0.0891073,0.225403,0.326345,0
2024-11-29 18:13:48.710,-0.210568,4.03161,9.23151,-0.0836097,0.22357,0.329399,0
2024-11-29 18:13:48.713,-0.200997,4.06989,9.27009,-0.0738362,0.216851,0.33673,0
2024-11-29 18:13:48.714,-0.179462,4.101,9.31556,-0.0738362,0.216851,0.33673,0
2024-11-29 18:13:48.716,-0.155533,4.14168,9.36102,-0.0677277,0.210742,0.337951,0
2024-11-29 18:13:48.719,-0.141177,4.18953,9.38495,-0.0591758,0.204634,0.339784,0
2024-11-29 18:13:48.722,-0.117248,4.22812,9.40409,-0.0567324,0.195471,0.340395,0
2024-11-29 18:13:48.724,-0.0909273,4.25922,9.4352,-0.0518457,0.169816,0.342227,0
2024-11-29 18:13:48.727,-0.0765703,4.28555,9.46152,-0.0518457,0.155155,0.340395,0
2024-11-29 18:13:48.729,-0.0382852,4.33101,9.49263,-0.0518457,0.155155,0.340395,0
2024-11-29 18:13:48.730,-0.00717847,4.36212,9.54288,-0.0524565,0.134997,0.338562,0
2024-11-29 18:13:48.733,0.00717847,4.37408,9.6003,-0.0518457,0.114839,0.33734,0
2024-11-29 18:13:48.735,0.0334995,4.40519,9.67927,-0.0542891,0.0910162,0.33734,0
2024-11-29 18:13:48.738,0.0717847,4.43629,9.77259,-0.0561216,0.0647498,0.336119,0
2024-11-29 18:13:48.741,0.117248,4.46501,9.88056,-0.0591758,0.0354291,0.333064,0
2024-11-29 18:13:48.743,0.162712,4.48654,9.98824,-0.0628409,0.00427593,0.328789,0
2024-11-29 18:13:48.745,0.224925,4.49372,10.1198,-0.0628409,-0.0287098,0.32268,0
2024-11-29 18:13:48.747,0.282652,4.49372,10.2802,-0.0628409,-0.0604739,0.319015,0
2024-11-29 18:13:48.749,0.328116,4.51047,10.4312,-0.066506,-0.0946813,0.313517,0
2024-11-29 18:13:48.752,0.390329,4.53201,10.5844,-0.0671168,-0.125224,0.305576,0
2024-11-29 18:13:48.755,0.454935,4.53918,10.7447,-0.0634518,-0.153934,0.297635,0
2024-11-29 18:13:48.756,0.538684,4.57268,10.8978,-0.0616192,-0.181422,0.290916,0
2024-11-29 18:13:48.759,0.62004,4.60618,11.0584,-0.0573433,-0.203412,0.27931,0
2024-11-29 18:13:48.762,0.679861,4.62533,11.2211,-0.0530674,-0.224792,0.267704,0
2024-11-29 18:13:48.763,0.725324,4.65883,11.3791,-0.0457372,-0.240674,0.256709,0
2024-11-29 18:13:48.766,0.761217,4.67797,11.5373,-0.0402396,-0.257778,0.245713,0
2024-11-29 18:13:48.769,0.787538,4.68036,11.712,-0.0335202,-0.27366,0.231053,0
2024-11-29 18:13:48.771,0.85005,4.68515,11.8866,-0.0231358,-0.287709,0.218225,0
2024-11-29 18:13:48.774,0.926621,4.69711,12.0374,-0.00908635,-0.298093,0.204787,0
2024-11-29 18:13:48.776,0.979263,4.7019,12.1741,0.00313059,-0.30298,0.190126,0
2024-11-29 18:13:48.777,1.02233,4.7019,12.3009,0.0171801,-0.306645,0.173022,0
2024-11-29 18:13:48.780,1.05583,4.7019,12.4229,0.0300079,-0.308478,0.158362,0
2024-11-29 18:13:48.783,1.08215,4.68993,12.5378,0.0440574,-0.30298,0.141869,0
2024-11-29 18:13:48.785,1.10608,4.66361,12.641,0.0581068,-0.300537,0.125987,0
2024-11-29 18:13:48.788,1.12522,4.64208,12.7247,0.0764323,-0.296872,0.10644,0
2024-11-29 18:13:48.789,1.12522,4.62533,12.8037,0.0898709,-0.291374,0.0905581,0
2024-11-29 18:13:48.792,1.11805,4.59661,12.8587,0.102088,-0.287709,0.0746761,0
2024-11-29 18:13:48.795,1.0989,4.58465,12.8994,0.1253,-0.267551,0.0441337,0
2024-11-29 18:13:48.797,1.0654,4.56551,12.9425,0.1253,-0.267551,0.0441337,0
2024-11-29 18:13:48.799,1.04865,4.52961,12.9808,0.132019,-0.257778,0.0331385,0
2024-11-29 18:13:48.802,1.02473,4.51047,13.0071,0.142404,-0.240674,0.0215324,0
2024-11-29 18:13:48.803,0.964906,4.47219,13.0286,0.150345,-0.220516,0.0117588,0
2024-11-29 18:13:48.807,0.919442,4.42911,13.043,0.157064,-0.197915,0.00565034,0
2024-11-29 18:13:48.809,0.888335,4.4004,13.0621,0.163783,-0.171648,0.00137441,0
2024-11-29 18:13:48.810,0.854836,4.37887,13.0765,0.170503,-0.144771,-0.00290152,0
2024-11-29 18:13:48.813,0.818644,4.35254,13.0837,0.174168,-0.114228,-0.00290152,0
2024-11-29 18:13:48.816,0.770788,4.31426,13.0789,0.176,-0.0482569,-0.00167983,0
2024-11-29 18:13:48.818,0.751645,4.29033,13.0597,0.176,-0.0482569,-0.00167983,0
2024-11-29 18:13:48.820,0.71336,4.27119,13.0334,0.174779,-0.0103844,0.000152712,0
2024-11-29 18:13:48.823,0.667897,4.25205,13.0119,0.173557,0.0293207,0.0038178,0
2024-11-29 18:13:48.825,0.651147,4.24487,12.9903,0.170503,0.0733017,0.00870457,0
2024-11-29 18:13:48.828,0.617647,4.24965,12.9544,0.169281,0.117894,0.0154239,0
2024-11-29 18:13:48.829,0.572184,4.2688,12.9281,0.164394,0.167372,0.0233649,0
2024-11-29 18:13:48.832,0.517149,4.28315,12.8922,0.163783,0.218683,0.0331385,0
2024-11-29 18:13:48.835,0.474078,4.28555,12.8396,0.162562,0.269384,0.0404686,0
2024-11-29 18:13:48.837,0.445364,4.29751,12.7917,0.156453,0.321916,0.0490205,0
2024-11-29 18:13:48.839,0.423829,4.31426,12.7415,0.155232,0.372617,0.0575724,0
2024-11-29 18:13:48.842,0.407079,4.34058,12.6769,0.15401,0.421485,0.0624591,0
2024-11-29 18:13:48.843,0.392722,4.3669,12.6024,0.152177,0.46852,0.0691785,0
2024-11-29 18:13:48.846,0.375972,4.37647,12.5378,0.150956,0.511279,0.0746761,0
2024-11-29 18:13:48.849,0.347258,4.37887,12.4684,0.154621,0.582748,0.0826171,0
2024-11-29 18:13:48.852,0.316152,4.39083,12.3823,0.157064,0.61268,0.0832279,0
2024-11-29 18:13:48.853,0.27996,4.40758,12.2889,0.157064,0.61268,0.0832279,0
2024-11-29 18:13:48.856,0.234497,4.40997,12.2052,0.158897,0.640168,0.086893,0
2024-11-29 18:13:48.859,0.18664,4.41476,12.1238,0.165005,0.687203,0.0862822,0
2024-11-29 18:13:48.861,0.143569,4.41954,12.035,0.165005,0.687203,0.0862822,0
2024-11-29 18:13:48.863,0.0885344,4.41954,11.9536,0.174779,0.728741,0.0930015,0
2024-11-29 18:13:48.865,0.0239282,4.43869,11.8723,0.174779,0.728741,0.0930015,0
2024-11-29 18:13:48.867,-0.0478565,4.46261,11.755,0.180276,0.745844,0.0984991,0
2024-11-29 18:13:48.869,-0.112463,4.47458,11.6258,0.188217,0.76417,0.101553,0
2024-11-29 18:13:48.872,-0.172283,4.46501,11.5011,0.193715,0.777609,0.108273,0
2024-11-29 18:13:48.874,-0.253639,4.45065,11.3862,0.19738,0.788604,0.114381,0
2024-11-29 18:13:48.877,-0.316152,4.50808,11.3527,0.202878,0.798377,0.119879,0
2024-11-29 18:13:48.879,-0.330509,4.56311,11.3336,0.21143,0.810594,0.12782,0
2024-11-29 18:13:48.881,-0.325723,4.55354,11.2427,0.217538,0.815481,0.130874,0
2024-11-29 18:13:48.883,-0.35683,4.54158,11.1135,0.225479,0.81487,0.136983,0
2024-11-29 18:13:48.886,-0.423829,4.56072,10.9651,0.23342,0.816703,0.140037,0
2024-11-29 18:13:48.888,-0.490828,4.60379,10.7782,0.238307,0.819146,0.140648,0
2024-11-29 18:13:48.891,-0.574577,4.64925,10.5987,0.237696,0.820979,0.143702,0
2024-11-29 18:13:48.894,-0.682254,4.67558,10.4934,0.238307,0.824644,0.14981,0
2024-11-29 18:13:48.896,-0.777966,4.67558,10.3711,0.238307,0.824644,0.14981,0
2024-11-29 18:13:48.898,-0.828216,4.67079,10.1964,0.234642,0.816703,0.154697,0
2024-11-29 18:13:48.901,-0.869193,4.64925,10.0337,0.228533,0.798988,0.157751,0
2024-11-29 18:13:48.903,-0.902692,4.61815,9.89731,0.212651,0.767224,0.163249,0
2024-11-29 18:13:48.905,-0.890728,4.5679,9.79173,0.191882,0.726297,0.164471,0
2024-11-29 18:13:48.908,-0.8668,4.5009,9.69602,0.171724,0.675597,0.161416,0
2024-11-29 18:13:48.909,-0.828216,4.42911,9.62423,0.146069,0.613901,0.155919,0
2024-11-29 18:13:48.912,-0.770788,4.35494,9.60748,0.116748,0.546097,0.14981,0
2024-11-29 18:13:48.915,-0.73011,4.28794,9.67209,0.0648262,0.397051,0.124766,0
2024-11-29 18:13:48.917,-0.691825,4.2353,9.77977,0.0648262,0.397051,0.124766,0
2024-11-29 18:13:48.919,-0.641576,4.17757,9.88774,0.0403923,0.315808,0.107051,0
2024-11-29 18:13:48.921,-0.572184,4.13928,10.005,0.0177909,0.225403,0.0887256,0
2024-11-29 18:13:48.925,-0.490828,4.10339,10.127,-0.0359636,0.0171037,0.0404686,0
2024-11-29 18:13:48.927,-0.426222,4.01725,10.4336,-0.0359636,0.0171037,0.0404686,0
2024-11-29 18:13:48.929,-0.359223,3.90718,10.8428,-0.0597867,-0.191195,-0.0114534,0
2024-11-29 18:13:48.931,-0.239282,3.77557,11.2235,-0.0597867,-0.191195,-0.0114534,0
2024-11-29 18:13:48.933,-0.11007,3.61735,11.6378,-0.0671168,-0.299926,-0.0413849,0
2024-11-29 18:13:48.936,0.0119641,3.42114,12.0326,-0.0658951,-0.408657,-0.0719273,0
2024-11-29 18:13:48.939,0.155533,3.201,12.3918,-0.0518457,-0.625508,-0.133012,0
2024-11-29 18:13:48.941,0.294616,2.98295,12.7558,-0.0353528,-0.725076,-0.162333,0
2024-11-29 18:13:48.942,0.419043,2.7676,13.1315,-0.0353528,-0.725076,-0.162333,0
2024-11-29 18:13:48.945,0.545863,2.57857,13.462,-0.0151948,-0.819757,-0.191042,0
2024-11-29 18:13:48.948,0.679861,2.40838,13.7925,0.00557398,-0.909552,-0.220974,0
2024-11-29 18:13:48.949,0.789931,2.24806,14.1562,0.0306187,-0.995681,-0.252738,0
2024-11-29 18:13:48.952,0.813859,2.11406,14.5274,0.0587177,-1.07876,-0.283891,0
2024-11-29 18:13:48.955,0.785145,2.00877,14.8385,0.0929251,-1.15145,-0.310158,0
2024-11-29 18:13:48.958,0.780359,1.87687,15.1546,0.13263,-1.20398,-0.334592,0
2024-11-29 18:13:48.959,0.687039,1.77159,15.358,0.183331,-1.23086,-0.35536,0
2024-11-29 18:13:48.961,0.581755,1.69023,15.5282,0.230977,-1.23086,-0.36208,0
2024-11-29 18:13:48.965,0.65354,1.52034,15.8895,0.358644,-1.19848,-0.373075,0
2024-11-29 18:13:48.967,0.751645,1.2999,16.2727,0.358644,-1.19848,-0.373075,1
2024-11-29 18:13:48.969,0.737288,1.11565,16.4809,0.433167,-1.17038,-0.377351,0
2024-11-29 18:13:48.971,0.478864,1.09173,16.2272,0.510745,-1.1148,-0.374907,0
2024-11-29 18:13:48.974,0.16989,1.04865,15.7866,0.643299,-0.928488,-0.330316,0
2024-11-29 18:13:48.975,0.208176,0.830609,15.722,0.643299,-0.928488,-0.330316,0
2024-11-29 18:13:48.978,0.35683,0.574577,15.8034,0.708659,-0.855797,-0.31199,0
2024-11-29 18:13:48.981,0.380758,0.313759,15.7101,0.833272,-0.725076,-0.271674,0
2024-11-29 18:13:48.982,0.392722,0.040678,15.5115,0.833272,-0.725076,-0.271674,0
2024-11-29 18:13:48.985,0.428614,-0.248854,15.2791,0.892524,-0.657272,-0.253349,0
2024-11-29 18:13:48.988,0.454935,-0.476471,14.9704,0.952387,-0.580305,-0.235634,0
2024-11-29 18:13:48.989,0.402293,-0.591326,14.5298,1.00981,-0.489289,-0.21792,0
2024-11-29 18:13:48.992,0.263211,-0.610469,14.039,1.05867,-0.384223,-0.19654,0
2024-11-29 18:13:48.995,0.081356,-0.562612,13.5506,1.1387,-0.171648,-0.136677,0
2024-11-29 18:13:48.997,-0.129212,-0.478864,13.0262,1.1387,-0.171648,-0.136677,0
2024-11-29 18:13:48.999,-0.335294,-0.364008,12.4732,1.16008,-0.0855186,-0.101248,0
2024-11-29 18:13:49.002,-0.524327,-0.253639,11.9106,1.17168,-0.0122169,-0.060932,0
2024-11-29 18:13:49.007,-0.74686,-0.102891,10.8667,1.12159,0.0910162,0.0618483,0
2024-11-29 18:13:49.007,-0.74686,-0.102891,10.8667,1.12159,0.0910162,0.0618483,0
2024-11-29 18:13:49.009,-0.761217,-0.0622134,10.3977,1.12159,0.0910162,0.0618483,0
2024-11-29 18:13:49.011,-0.677468,-0.0191426,9.95713,1.08555,0.100179,0.0978883,0
2024-11-29 18:13:49.013,-0.435793,-0.0598206,9.68645,1.04401,0.100179,0.124766,0
2024-11-29 18:13:49.016,-0.153141,-0.133998,9.49741,1.00614,0.0867403,0.138204,0
2024-11-29 18:13:49.018,-0.112463,-0.0789631,9.1358,0.960328,0.0794101,0.145534,0
2024-11-29 18:13:49.021,-0.107677,0.026321,8.78884,0.910239,0.0861295,0.150421,0
2024-11-29 18:13:49.022,0.0143569,0.0933201,8.59951,0.858928,0.0995681,0.151643,0
2024-11-29 18:13:49.025,0.155533,0.165105,8.50379,0.81006,0.11545,0.149199,0
2024-11-29 18:13:49.030,0.565005,0.222533,8.70748,0.726374,0.118504,0.122322,0
2024-11-29 18:13:49.031,0.565005,0.222533,8.70748,0.726374,0.118504,0.122322,0
2024-11-29 18:13:49.032,0.498006,0.373579,8.49661,0.68789,0.1295,0.107051,0
2024-11-29 18:13:49.035,0.490828,0.505185,8.34347,0.614589,0.179589,0.0765086,0
2024-11-29 18:13:49.037,0.50997,0.610469,8.26212,0.614589,0.179589,0.0765086,0
2024-11-29 18:13:49.040,0.548256,0.675075,8.25733,0.551671,0.219294,0.0441337,0
2024-11-29 18:13:49.042,0.536291,0.749253,8.17358,0.515631,0.242506,0.0282517,0
2024-11-29 18:13:49.044,0.442971,0.857229,7.95075,0.515631,0.242506,0.0282517,0
2024-11-29 18:13:49.047,0.368794,0.938585,7.73061,0.480202,0.271827,0.0172564,0
2024-11-29 18:13:49.048,0.328116,0.99362,7.54367,0.441108,0.301148,0.00748288,0
2024-11-29 18:13:49.051,0.316152,1.01994,7.42164,0.402014,0.328025,-0.00290152,0
2024-11-29 18:13:49.053,0.361615,1.02233,7.37139,0.365363,0.346961,-0.0151185,0
2024-11-29 18:13:49.055,0.423829,1.00798,7.31875,0.32749,0.355513,-0.0285571,0
2024-11-29 18:13:49.058,0.4669,0.957727,7.24457,0.289618,0.3604,-0.0462717,0
2024-11-29 18:13:49.061,0.502792,0.905085,7.15604,0.219981,0.364676,-0.0859767,0
2024-11-29 18:13:49.063,0.531506,0.862014,7.07946,0.219981,0.364676,-0.0859767,0
2024-11-29 18:13:49.065,0.545863,0.825823,7.01486,0.19005,0.367119,-0.108578,0
2024-11-29 18:13:49.068,0.536291,0.799502,6.94995,0.132019,0.366508,-0.158668,0
2024-11-29 18:13:49.070,0.488435,0.792323,6.87578,0.132019,0.366508,-0.158668,0
2024-11-29 18:13:49.072,0.409472,0.801895,6.80399,0.105142,0.365287,-0.179436,0
2024-11-29 18:13:49.075,0.301795,0.830609,6.74417,0.0513875,0.364065,-0.220974,0
2024-11-29 18:13:49.077,0.177069,0.869193,6.66281,0.0513875,0.364065,-0.220974,0
2024-11-29 18:13:49.079,0.0287139,0.9003,6.5671,0.0257319,0.361011,-0.235023,0
2024-11-29 18:13:49.081,-0.129212,0.933799,6.49053,7.63559e-05,0.355513,-0.24724,0
2024-11-29 18:13:49.084,-0.287438,0.984048,6.43759,-0.0255792,0.348794,-0.25396,0
2024-11-29 18:13:49.087,-0.45015,1.01276,6.39691,-0.0750579,0.325582,-0.260068,0
2024-11-29 18:13:49.089,-0.576969,1.02712,6.3682,-0.0750579,0.325582,-0.260068,0
2024-11-29 18:13:49.091,-0.687039,1.0654,6.35863,-0.100713,0.310921,-0.258236,0
2024-11-29 18:13:49.093,-0.804287,1.09651,6.38016,-0.123926,0.295039,-0.256403,0
2024-11-29 18:13:49.096,-0.897907,1.12044,6.3993,-0.143473,0.273049,-0.253349,0
2024-11-29 18:13:49.098,-0.97687,1.14915,6.40409,-0.164242,0.25228,-0.24663,0
2024-11-29 18:13:49.101,-1.06062,1.18026,6.4328,-0.194173,0.199136,-0.235023,0
2024-11-29 18:13:49.104,-1.12044,1.19701,6.49053,-0.210055,0.170426,-0.229526,0
2024-11-29 18:13:49.106,-1.16351,1.20419,6.5336,-0.210055,0.170426,-0.229526,0
2024-11-29 18:13:49.107,-1.21137,1.21137,6.57907,-0.22105,0.141717,-0.222196,0
2024-11-29 18:13:49.110,-1.25922,1.23529,6.62214,-0.230213,0.111174,-0.216087,0
2024-11-29 18:13:49.113,-1.29272,1.26879,6.67239,-0.238765,0.0818535,-0.209979,0
2024-11-29 18:13:49.115,-1.31904,1.30708,6.72981,-0.246706,0.0531437,-0.200816,0
2024-11-29 18:13:49.117,-1.33579,1.32383,6.77767,-0.250982,0.023823,-0.192264,0
2024-11-29 18:13:49.120,-1.35015,1.32383,6.83031,-0.25709,-0.00366508,-0.185545,0
2024-11-29 18:13:49.121,-1.37408,1.34297,6.88056,-0.261977,-0.0287098,-0.176382,0
2024-11-29 18:13:49.125,-1.39322,1.35972,6.94277,-0.270529,-0.0830752,-0.156835,0
2024-11-29 18:13:49.127,-1.4004,1.36929,7.0026,-0.270529,-0.0830752,-0.156835,0
2024-11-29 18:13:49.129,-1.39083,1.38844,7.06511,-0.272972,-0.105677,-0.146451,0
2024-11-29 18:13:49.132,-1.36211,1.38844,7.14646,-0.272972,-0.127667,-0.135455,0
2024-11-29 18:13:49.133,-1.32861,1.39561,7.22303,-0.275416,-0.14416,-0.123849,0
2024-11-29 18:13:49.137,-1.31186,1.41266,7.29721,-0.271751,-0.172259,-0.101859,0
2024-11-29 18:13:49.138,-1.28794,1.40788,7.37617,-0.271751,-0.172259,-0.101859,0
2024-11-29 18:13:49.140,-1.25922,1.41745,7.4671,-0.269918,-0.183254,-0.0896418,0
2024-11-29 18:13:49.144,-1.24008,1.44138,7.53889,-0.260145,-0.197915,-0.0682622,0
2024-11-29 18:13:49.146,-1.20897,1.44377,7.57986,-0.260145,-0.197915,-0.0682622,0
2024-11-29 18:13:49.148,-1.19701,1.44377,7.62293,-0.255258,-0.202801,-0.0554344,0
2024-11-29 18:13:49.150,-1.18983,1.46291,7.66361,-0.248538,-0.208299,-0.04505,0
2024-11-29 18:13:49.153,-1.18265,1.48445,7.68515,-0.24243,-0.213797,-0.0322222,0
2024-11-29 18:13:49.154,-1.18265,1.48445,7.70668,-0.234489,-0.215629,-0.0206161,0
2024-11-29 18:13:49.157,-1.1683,1.48445,7.71865,-0.228991,-0.218072,-0.0077883,0
2024-11-29 18:13:49.160,-1.1659,1.49402,7.73061,-0.224105,-0.221738,0.00503949,0
2024-11-29 18:13:49.161,-1.1683,1.50359,7.7354,-0.221661,-0.228457,0.0160347,0
2024-11-29 18:13:49.165,-1.15633,1.51795,7.71625,-0.219218,-0.234565,0.0282517,0
2024-11-29 18:13:49.167,-1.14676,1.53709,7.70429,-0.216774,-0.243728,0.0386361,0
2024-11-29 18:13:49.169,-1.12283,1.5658,7.71147,-0.218607,-0.253502,0.0514639,0
2024-11-29 18:13:49.171,-1.08933,1.58495,7.71386,-0.22044,-0.262053,0.0612374,0
2024-11-29 18:13:49.173,-1.06062,1.59691,7.71147,-0.223494,-0.27366,0.0716218,0
2024-11-29 18:13:49.176,-1.01515,1.62323,7.71147,-0.224715,-0.285877,0.0813954,0
2024-11-29 18:13:49.178,-0.945763,1.65194,7.72104,-0.230213,-0.296872,0.0905581,0
2024-11-29 18:13:49.181,-0.9003,1.68305,7.72583,-0.236932,-0.304202,0.0978883,0
2024-11-29 18:13:49.183,-0.876371,1.71177,7.72343,-0.244873,-0.308478,0.104608,0
2024-11-29 18:13:49.186,-0.845265,1.73809,7.75215,-0.252204,-0.313365,0.110105,0
2024-11-29 18:13:49.188,-0.797109,1.77876,7.78804,-0.260755,-0.318251,0.116825,0
2024-11-29 18:13:49.190,-0.734896,1.80269,7.81436,-0.269918,-0.320084,0.122322,0
2024-11-29 18:13:49.193,-0.682254,1.81705,7.85025,-0.277859,-0.322527,0.125376,0
2024-11-29 18:13:49.195,-0.624826,1.8338,7.91007,-0.284578,-0.32436,0.128431,0
2024-11-29 18:13:49.197,-0.567398,1.86491,7.9675,-0.297406,-0.32436,0.129041,0
2024-11-29 18:13:49.200,-0.521934,1.88644,8.01297,-0.31451,-0.32436,0.12782,0
2024-11-29 18:13:49.201,-0.488435,1.91516,8.07757,-0.31451,-0.32436,0.12782,0
2024-11-29 18:13:49.204,-0.478864,1.94865,8.14248,-0.322451,-0.323138,0.126598,0
2024-11-29 18:13:49.206,-0.464507,1.9681,8.18315,-0.328559,-0.321916,0.128431,0
2024-11-29 18:13:49.209,-0.438186,1.98245,8.24058,-0.334668,-0.319473,0.126598,0
2024-11-29 18:13:49.212,-0.414257,2.00877,8.30997,-0.351772,-0.31031,0.122933,0
2024-11-29 18:13:49.213,-0.397508,2.0351,8.35065,-0.351772,-0.31031,0.122933,0
2024-11-29 18:13:49.216,-0.392722,2.05663,8.39851,-0.356048,-0.309089,0.119879,0
2024-11-29 18:13:49.219,-0.387936,2.06381,8.45833,-0.367043,-0.307867,0.116214,0
2024-11-29 18:13:49.221,-0.371187,2.05663,8.49661,-0.367043,-0.307867,0.116214,0
2024-11-29 18:13:49.224,-0.349651,2.06381,8.53251,-0.379871,-0.312143,0.110105,0
2024-11-29 18:13:49.226,-0.332901,2.05902,8.57318,-0.388422,-0.314586,0.107051,0
2024-11-29 18:13:49.227,-0.330509,2.04467,8.60668,-0.388422,-0.314586,0.107051,0
2024-11-29 18:13:49.231,-0.316152,2.0327,8.65454,-0.402472,-0.320695,0.100943,0
2024-11-29 18:13:49.233,-0.30658,2.04227,8.72184,-0.402472,-0.320695,0.100943,0
2024-11-29 18:13:49.235,-0.313759,2.0686,8.79123,-0.409191,-0.326192,0.09911,0
2024-11-29 18:13:49.238,-0.304188,2.07338,8.87019,-0.420187,-0.335966,0.0966666,0
2024-11-29 18:13:49.240,-0.285045,2.06142,8.95394,-0.424462,-0.342685,0.094834,0
2024-11-29 18:13:49.243,-0.275175,2.0662,9.04248,-0.425073,-0.350015,0.0942232,0
2024-11-29 18:13:49.244,-0.253639,2.07577,9.14776,-0.425073,-0.350015,0.0942232,0
2024-11-29 18:13:49.247,-0.227318,2.07817,9.24826,-0.428128,-0.355513,0.0936123,0
2024-11-29 18:13:49.249,-0.208176,2.07817,9.34427,-0.424462,-0.361622,0.0917798,0
2024-11-29 18:13:49.252,-0.184247,2.07577,9.44477,-0.423241,-0.367119,0.0923906,0
2024-11-29 18:13:49.256,-0.157926,2.08774,9.6338,-0.411024,-0.370173,0.0936123,0
2024-11-29 18:13:49.257,-0.157926,2.08774,9.6338,-0.405526,-0.372006,0.091169,0
2024-11-29 18:13:49.259,-0.145962,2.09492,9.72234,-0.405526,-0.372006,0.091169,0
2024-11-29 18:13:49.260,-0.12682,2.10209,9.80609,-0.395142,-0.372006,0.0936123,0
2024-11-29 18:13:49.263,-0.107677,2.10449,9.88056,-0.382925,-0.367119,0.0942232,0
2024-11-29 18:13:49.265,-0.114855,2.11167,9.9356,-0.373151,-0.364065,0.0954449,0
2024-11-29 18:13:49.268,-0.129212,2.12363,9.98585,-0.360324,-0.359178,0.0972774,0
2024-11-29 18:13:49.270,-0.141177,2.12602,10.0433,-0.348717,-0.351237,0.100943,0
2024-11-29 18:13:49.273,-0.153141,2.13559,10.1031,-0.3365,-0.344518,0.102775,0
2024-11-29 18:13:49.276,-0.172283,2.14995,10.1557,-0.304126,-0.321306,0.113159,0
2024-11-29 18:13:49.278,-0.191426,2.17627,10.1892,-0.304126,-0.321306,0.113159,0
2024-11-29 18:13:49.280,-0.210568,2.19541,10.2227,-0.287633,-0.309089,0.117435,0
2024-11-29 18:13:49.283,-0.232104,2.20499,10.2562,-0.269918,-0.29565,0.124766,0
2024-11-29 18:13:49.285,-0.253639,2.21934,10.2873,-0.233267,-0.262664,0.138815,0
2024-11-29 18:13:49.286,-0.27996,2.2337,10.2993,-0.233267,-0.262664,0.138815,0
2024-11-29 18:13:49.289,-0.308973,2.25524,10.2969,-0.215553,-0.244339,0.146145,0
2024-11-29 18:13:49.291,-0.337687,2.27677,10.285,-0.194173,-0.226624,0.155919,0
2024-11-29 18:13:49.294,-0.35683,2.29591,10.2467,-0.170961,-0.20891,0.162638,0
2024-11-29 18:13:49.296,-0.371187,2.31027,10.1773,-0.152025,-0.190584,0.172412,0
2024-11-29 18:13:49.298,-0.387936,2.29352,10.1031,-0.131256,-0.174702,0.179742,0
2024-11-29 18:13:49.300,-0.3999,2.29352,10.0289,-0.11293,-0.158209,0.189515,0
2024-11-29 18:13:49.303,-0.404686,2.31984,9.91885,-0.0958267,-0.141106,0.197456,0
2024-11-29 18:13:49.305,-0.411865,2.3342,9.78934,-0.0799446,-0.125224,0.205397,0
2024-11-29 18:13:49.308,-0.435793,2.34856,9.66491,-0.0677277,-0.112396,0.215171,0
2024-11-29 18:13:49.311,-0.445364,2.36291,9.53809,-0.0500131,-0.087962,0.230442,0
2024-11-29 18:13:49.313,-0.440578,2.38206,9.41366,-0.0500131,-0.087962,0.230442,0
2024-11-29 18:13:49.315,-0.4334,2.3988,9.29881,-0.0439046,-0.080021,0.238383,0
2024-11-29 18:13:49.317,-0.411865,2.40838,9.17169,-0.038407,-0.0739125,0.245713,0
2024-11-29 18:13:49.320,-0.383151,2.42513,9.02812,-0.0377962,-0.0647498,0.254876,0
2024-11-29 18:13:49.323,-0.352044,2.46102,8.92044,-0.0377962,-0.0647498,0.254876,0
2024-11-29 18:13:49.325,-0.332901,2.48016,8.83191,-0.0396287,-0.0616956,0.258541,0
2024-11-29 18:13:49.327,-0.311366,2.48734,8.7362,-0.0475697,-0.059863,0.263428,0
2024-11-29 18:13:49.329,-0.258425,2.52323,8.65693,-0.0524565,-0.0568088,0.266482,0
2024-11-29 18:13:49.332,-0.198604,2.55464,8.59233,-0.0561216,-0.0586413,0.268315,0
2024-11-29 18:13:49.337,-0.167498,2.63121,8.51097,-0.074447,-0.0549763,0.267704,0
2024-11-29 18:13:49.337,-0.122034,2.63121,8.51097,-0.074447,-0.0549763,0.267704,0
2024-11-29 18:13:49.338,-0.0693919,2.65992,8.47508,-0.082388,-0.0525329,0.26526,0
2024-11-29 18:13:49.341,-0.0430708,2.71496,8.45594,-0.0891073,-0.0464244,0.264039,0
2024-11-29 18:13:49.344,-0.00239282,2.77717,8.4344,-0.1056,-0.0342074,0.253654,0
2024-11-29 18:13:49.346,0.0502493,2.81545,8.42722,-0.1056,-0.0342074,0.253654,0
2024-11-29 18:13:49.348,0.0981057,2.8681,8.42483,-0.113541,-0.0262664,0.248768,0
2024-11-29 18:13:49.350,0.145962,2.91595,8.41287,-0.11965,-0.0177146,0.24327,0
2024-11-29 18:13:49.356,0.227318,2.98774,8.39612,-0.130034,-0.00366508,0.223723,0
2024-11-29 18:13:49.356,0.227318,2.98774,8.39612,-0.130034,-0.00366508,0.223723,0
2024-11-29 18:13:49.358,0.27996,3.03081,8.39133,-0.136143,0.00305424,0.213338,0
2024-11-29 18:13:49.360,0.316152,3.06431,8.39133,-0.14164,0.00794101,0.201121,0
2024-11-29 18:13:49.363,0.328116,3.08584,8.39612,-0.145305,0.0128278,0.189515,0
2024-11-29 18:13:49.365,0.342473,3.09571,8.39133,-0.158133,0.0189363,0.165692,0
2024-11-29 18:13:49.367,0.342473,3.12204,8.4009,-0.158133,0.0189363,0.165692,0
2024-11-29 18:13:49.369,0.318545,3.14836,8.42244,-0.161187,0.0207688,0.152865,0
2024-11-29 18:13:49.371,0.277567,3.16032,8.42244,-0.16302,0.0256556,0.139426,0
2024-11-29 18:13:49.373,0.232104,3.18425,8.43201,-0.167907,0.0305424,0.130263,0
2024-11-29 18:13:49.376,0.196211,3.21775,8.4344,-0.17035,0.03604,0.12049,0
2024-11-29 18:13:49.379,0.143569,3.23211,8.42962,-0.171572,0.0397051,0.111327,0
2024-11-29 18:13:49.382,0.0885344,3.24407,8.44158,-0.171572,0.043981,0.103386,0
2024-11-29 18:13:49.384,0.0382852,3.2656,8.45115,-0.175237,0.0470352,0.0893364,0
2024-11-29 18:13:49.386,-0.00239282,3.268,8.44636,-0.175237,0.0470352,0.0893364,0
2024-11-29 18:13:49.389,-0.0382852,3.27757,8.43679,-0.175848,0.0488678,0.0838388,0
2024-11-29 18:13:49.390,-0.0646062,3.28235,8.42962,-0.175848,0.0445919,0.0801737,0
2024-11-29 18:13:49.393,-0.100499,3.28235,8.44158,-0.178291,0.0421485,0.0765086,0
2024-11-29 18:13:49.395,-0.153141,3.2991,8.46311,-0.17768,0.0390942,0.0752869,0
2024-11-29 18:13:49.398,-0.191426,3.31585,8.47986,-0.178902,0.0366508,0.0716218,0
2024-11-29 18:13:49.400,-0.244068,3.32064,8.50379,-0.178902,0.0366508,0.0716218,0
2024-11-29 18:13:49.402,-0.30658,3.34935,8.52533,-0.180124,0.028099,0.0722327,0
2024-11-29 18:13:49.404,-0.359223,3.39242,8.55404,-0.178291,0.0250447,0.0740652,0
2024-11-29 18:13:49.406,-0.411865,3.41875,8.6019,-0.175848,0.0219905,0.0783412,0
2024-11-29 18:13:49.409,-0.452543,3.46421,8.65693,-0.172183,0.0177146,0.0844496,0
2024-11-29 18:13:49.411,-0.488435,3.51446,8.7003,-0.170961,0.0140495,0.091169,0
2024-11-29 18:13:49.413,-0.502792,3.52882,8.74816,-0.167296,0.00610847,0.0966666,0
2024-11-29 18:13:49.417,-0.505185,3.56231,8.79602,-0.159966,-0.00244339,0.103386,0
2024-11-29 18:13:49.419,-0.498006,3.59342,8.82712,-0.157522,-0.0122169,0.108273,0
2024-11-29 18:13:49.421,-0.464507,3.60778,8.87019,-0.154468,-0.020158,0.114992,0
2024-11-29 18:13:49.423,-0.438186,3.63171,8.90848,-0.149581,-0.0293207,0.118657,0
2024-11-29 18:13:49.426,-0.421436,3.66551,8.94437,-0.14836,-0.0525329,0.126598,0
2024-11-29 18:13:49.429,-0.390329,3.70618,9.0018,-0.144694,-0.064139,0.128431,0
2024-11-29 18:13:49.430,-0.352044,3.7325,9.06641,-0.144694,-0.064139,0.128431,0
2024-11-29 18:13:49.432,-0.304188,3.766,9.13101,-0.145305,-0.0745234,0.131485,0
2024-11-29 18:13:49.435,-0.282652,3.81147,9.20997,-0.145916,-0.0867403,0.133928,0
2024-11-29 18:13:49.437,-0.260818,3.84497,9.30838,-0.143473,-0.0989573,0.132096,0
2024-11-29 18:13:49.440,-0.215354,3.8665,9.41366,-0.14164,-0.112396,0.134539,0
2024-11-29 18:13:49.442,-0.189033,3.89522,9.52134,-0.138586,-0.123391,0.13515,0
2024-11-29 18:13:49.445,-0.160319,3.91675,9.62663,-0.136753,-0.133776,0.137593,0
2024-11-29 18:13:49.447,-0.0981057,3.92154,9.74148,-0.131867,-0.142938,0.138204,0
2024-11-29 18:13:49.450,-0.0382852,3.92632,9.86621,-0.122704,-0.150268,0.140037,0
2024-11-29 18:13:49.451,0.0143569,3.95025,9.97149,-0.122704,-0.150268,0.140037,0
2024-11-29 18:13:49.454,0.0957129,3.97179,10.0672,-0.117817,-0.150268,0.138204,0
2024-11-29 18:13:49.456,0.172283,3.98614,10.1486,-0.111098,-0.147214,0.134539,0
2024-11-29 18:13:49.459,0.227318,4.00529,10.2156,-0.103157,-0.126445,0.127209,0
2024-11-29 18:13:49.462,0.263211,4.01246,10.2778,-0.103157,-0.126445,0.127209,0
2024-11-29 18:13:49.464,0.289831,4.01725,10.3328,-0.0988809,-0.112396,0.122933,0
2024-11-29 18:13:49.465,0.304188,4.03639,10.3807,-0.094605,-0.095903,0.119268,0
2024-11-29 18:13:49.468,0.308973,4.05554,10.4192,-0.0939941,-0.080021,0.118046,0
2024-11-29 18:13:49.471,0.301795,4.07468,10.4862,-0.0897182,-0.0653607,0.117435,0
2024-11-29 18:13:49.472,0.299402,4.101,10.5556,-0.086664,-0.0507003,0.11377,0
2024-11-29 18:13:49.475,0.311366,4.12493,10.6466,-0.0842206,-0.0384834,0.111327,0
2024-11-29 18:13:49.478,0.318545,4.17518,10.759,-0.0793338,-0.0274881,0.110105,0
2024-11-29 18:13:49.479,0.311366,4.22812,10.8356,-0.074447,-0.015882,0.107051,0
2024-11-29 18:13:49.483,0.292223,4.25444,10.9337,-0.058565,0.0116061,0.103386,0
2024-11-29 18:13:49.485,0.270389,4.2688,11.0249,-0.058565,0.0116061,0.103386,0
2024-11-29 18:13:49.488,0.251246,4.28794,11.0943,-0.0494023,0.0232122,0.101553,0
2024-11-29 18:13:49.490,0.224925,4.29751,11.1852,-0.022525,0.0421485,0.0978883,0
2024-11-29 18:13:49.491,0.184247,4.31187,11.2618,-0.022525,0.0421485,0.0978883,0
2024-11-29 18:13:49.495,0.18664,4.32144,11.3216,0.00251974,0.0482569,0.094834,0
2024-11-29 18:13:49.497,0.177069,4.31665,11.3839,0.00251974,0.0482569,0.094834,0
2024-11-29 18:13:49.498,0.153141,4.31187,11.4341,0.0147367,0.0464244,0.0942232,0
2024-11-29 18:13:49.501,0.136391,4.31187,11.4796,0.0306187,0.0409268,0.0942232,0
2024-11-29 18:13:49.504,0.0981057,4.30947,11.5134,0.0581068,0.0232122,0.0942232,0
2024-11-29 18:13:49.505,0.0741775,4.29272,11.5277,0.0581068,0.0232122,0.0942232,0
2024-11-29 18:13:49.509,0.0478565,4.29751,11.5397,0.0721563,0.0134386,0.09911,0
2024-11-29 18:13:49.510,0.0167498,4.32383,11.5732,0.0837624,0.000610847,0.103386,0
2024-11-29 18:13:49.513,-0.0119641,4.3334,11.6139,0.0996445,-0.0116061,0.107051,0
2024-11-29 18:13:49.515,-0.0311067,4.34058,11.6521,0.110029,-0.0250447,0.112549,0
2024-11-29 18:13:49.518,-0.0478565,4.3669,11.6952,0.121635,-0.0384834,0.119879,0
2024-11-29 18:13:49.519,-0.0717847,4.4004,11.7455,0.135074,-0.0513112,0.127209,0
2024-11-29 18:13:49.523,-0.0789631,4.42911,11.7933,0.16134,-0.067804,0.141869,0
2024-11-29 18:13:49.524,-0.0789631,4.45065,11.8268,0.16134,-0.067804,0.141869,0
2024-11-29 18:13:49.527,-0.0789631,4.47458,11.8866,0.177222,-0.0745234,0.151032,0
2024-11-29 18:13:49.530,-0.0598206,4.49851,11.9489,0.207764,-0.080021,0.165081,0
2024-11-29 18:13:49.532,-0.0550349,4.52483,11.98,0.207764,-0.080021,0.165081,0
2024-11-29 18:13:49.534,-0.0502493,4.54158,12.0015,0.221203,-0.0781884,0.17119,0
2024-11-29 18:13:49.537,-0.0119641,4.54876,12.0278,0.240139,-0.0739125,0.176077,0
2024-11-29 18:13:49.539,0.0119641,4.55833,12.0398,0.256632,-0.0696366,0.17852,0
2024-11-29 18:13:49.542,0.0287139,4.57986,12.0326,0.287785,-0.0574196,0.180353,0
2024-11-29 18:13:49.543,0.0574277,4.60379,12.0374,0.287785,-0.0574196,0.180353,0
2024-11-29 18:13:49.545,0.0909273,4.61097,12.0446,0.301224,-0.0494786,0.181574,0
2024-11-29 18:13:49.548,0.122034,4.61336,12.0422,0.315274,-0.0415376,0.177298,0
2024-11-29 18:13:49.551,0.138784,4.60379,12.0206,0.330545,-0.0342074,0.173633,0
2024-11-29 18:13:49.552,0.153141,4.57986,11.9848,0.340929,-0.0287098,0.169357,0
2024-11-29 18:13:49.556,0.179462,4.56551,11.9489,0.36353,-0.0128278,0.157751,0
2024-11-29 18:13:49.558,0.196211,4.57986,11.9154,0.36353,-0.0128278,0.157751,0
2024-11-29 18:13:49.560,0.18664,4.58704,11.8723,0.372693,-0.00427593,0.150421,0
2024-11-29 18:13:49.562,0.172283,4.57268,11.8125,0.381245,0.00183254,0.144924,0
2024-11-29 18:13:49.564,0.145962,4.54397,11.7574,0.387964,0.00916271,0.138815,0
2024-11-29 18:13:49.568,0.11007,4.54158,11.7,0.395905,0.0232122,0.130263,0
2024-11-29 18:13:49.570,0.0550349,4.54636,11.6258,0.395905,0.0232122,0.130263,0
2024-11-29 18:13:49.571,-0.00239282,4.53201,11.554,0.398349,0.0293207,0.12782,0
2024-11-29 18:13:49.574,-0.0526421,4.5344,11.4939,0.39896,0.0342074,0.12782,0
