timestamp,accel_x,accel_y,accel_z,gyro_x,gyro_y,gyro_z,step_timestamp
2024-11-29 18:18:10.024,-0.438186,0.414257,6.69392,-0.114152,0.0372617,-0.308325,0
2024-11-29 18:18:10.024,-0.438186,0.414257,6.69392,-0.114152,0.0372617,-0.308325,0
2024-11-29 18:18:10.024,-0.438186,0.414257,6.69392,-0.114152,0.0372617,-0.308325,0
2024-11-29 18:18:10.024,-0.438186,0.414257,6.69392,-0.114152,0.0372617,-0.308325,0
2024-11-29 18:18:10.024,-0.438186,0.414257,6.69392,-0.114152,0.0372617,-0.308325,0
2024-11-29 18:18:10.024,-0.438186,0.414257,6.69392,-0.114152,0.0372617,-0.308325,0
2024-11-29 18:18:10.024,-0.438186,0.414257,6.69392,-0.114152,0.0372617,-0.308325,0
2024-11-29 18:18:10.024,-0.438186,0.414257,6.69392,-0.114152,0.0372617,-0.308325,0
2024-11-29 18:18:10.024,-0.438186,0.414257,6.69392,-0.114152,0.0372617,-0.308325,0
2024-11-29 18:18:10.024,-0.438186,0.414257,6.69392,-0.114152,0.0372617,-0.308325,0
2024-11-29 18:18:10.024,-0.438186,0.414257,6.69392,-0.114152,0.0372617,-0.308325,0
2024-11-29 18:18:10.024,-0.438186,0.414257,6.69392,-0.114152,0.0372617,-0.308325,0
2024-11-29 18:18:10.024,-0.438186,0.414257,6.69392,-0.114152,0.0372617,-0.308325,0
2024-11-29 18:18:10.026,-0.459721,0.390329,6.84945,-0.14164,-0.0213797,-0.324207,0
2024-11-29 18:18:10.026,-0.459721,0.390329,6.84945,-0.14164,-0.0213797,-0.324207,0
2024-11-29 18:18:10.026,-0.459721,0.390329,6.84945,-0.14164,-0.0213797,-0.324207,0
2024-11-29 18:18:10.026,-0.459721,0.390329,6.84945,-0.14164,-0.0213797,-0.324207,0
2024-11-29 18:18:10.027,-0.474078,0.373579,7.03879,-0.14164,-0.0213797,-0.324207,0
2024-11-29 18:18:10.028,-0.474078,0.373579,7.03879,-0.14164,-0.0213797,-0.324207,0
2024-11-29 18:18:10.028,-0.474078,0.373579,7.03879,-0.14164,-0.0213797,-0.324207,0
2024-11-29 18:18:10.028,-0.474078,0.373579,7.03879,-0.14164,-0.0213797,-0.324207,0
2024-11-29 18:18:10.030,-0.483649,0.373579,7.23739,-0.159355,-0.080021,-0.341922,0
2024-11-29 18:18:10.030,-0.483649,0.373579,7.23739,-0.159355,-0.080021,-0.341922,0
2024-11-29 18:18:10.030,-0.483649,0.373579,7.23739,-0.159355,-0.080021,-0.341922,0
2024-11-29 18:18:10.030,-0.483649,0.373579,7.23739,-0.159355,-0.080021,-0.341922,0
2024-11-29 18:18:10.031,-0.483649,0.373579,7.23739,-0.175848,-0.134386,-0.359025,0
2024-11-29 18:18:10.031,-0.483649,0.373579,7.23739,-0.175848,-0.134386,-0.359025,0
2024-11-29 18:18:10.033,-0.483649,0.35683,7.42403,-0.185621,-0.189363,-0.378573,0
2024-11-29 18:18:10.033,-0.483649,0.35683,7.42403,-0.185621,-0.189363,-0.378573,0
2024-11-29 18:18:10.033,-0.483649,0.35683,7.42403,-0.185621,-0.189363,-0.378573,0
2024-11-29 18:18:10.033,-0.483649,0.35683,7.42403,-0.185621,-0.189363,-0.378573,0
2024-11-29 18:18:10.034,-0.478864,0.32333,7.61336,-0.185621,-0.189363,-0.378573,0
2024-11-29 18:18:10.034,-0.478864,0.32333,7.61336,-0.185621,-0.189363,-0.378573,0
2024-11-29 18:18:10.034,-0.478864,0.32333,7.61336,-0.185621,-0.189363,-0.378573,0
2024-11-29 18:18:10.035,-0.478864,0.32333,7.61336,-0.185621,-0.189363,-0.378573,0
2024-11-29 18:18:10.035,-0.483649,0.35683,7.42403,-0.185621,-0.189363,-0.378573,0
2024-11-29 18:18:10.035,-0.478864,0.32333,7.61336,-0.185621,-0.189363,-0.378573,0
2024-11-29 18:18:10.035,-0.478864,0.32333,7.61336,-0.185621,-0.189363,-0.378573,0
2024-11-29 18:18:10.035,-0.478864,0.32333,7.61336,-0.185621,-0.189363,-0.378573,0
2024-11-29 18:18:10.037,-0.493221,0.301795,7.80479,-0.19173,-0.241896,-0.399341,0
2024-11-29 18:18:10.037,-0.493221,0.301795,7.80479,-0.19173,-0.241896,-0.399341,0
2024-11-29 18:18:10.038,-0.493221,0.301795,7.80479,-0.19173,-0.241896,-0.399341,0
2024-11-29 18:18:10.038,-0.493221,0.301795,7.80479,-0.19173,-0.241896,-0.399341,0
2024-11-29 18:18:10.038,-0.493221,0.301795,7.80479,-0.19173,-0.241896,-0.399341,0
2024-11-29 18:18:10.039,-0.521934,0.260818,7.97468,-0.196006,-0.290152,-0.417056,0
2024-11-29 18:18:10.040,-0.521934,0.260818,7.97468,-0.196006,-0.334133,-0.437825,0
2024-11-29 18:18:10.040,-0.521934,0.260818,7.97468,-0.196006,-0.334133,-0.437825,0
2024-11-29 18:18:10.042,-0.562612,0.239282,8.13021,-0.196006,-0.334133,-0.437825,0
2024-11-29 18:18:10.042,-0.562612,0.239282,8.13021,-0.196006,-0.334133,-0.437825,0
2024-11-29 18:18:10.042,-0.562612,0.239282,8.13021,-0.196006,-0.334133,-0.437825,0
2024-11-29 18:18:10.043,-0.562612,0.239282,8.13021,-0.190508,-0.373228,-0.455539,0
2024-11-29 18:18:10.043,-0.562612,0.239282,8.13021,-0.190508,-0.373228,-0.455539,0
2024-11-29 18:18:10.043,-0.562612,0.239282,8.13021,-0.190508,-0.373228,-0.455539,0
2024-11-29 18:18:10.043,-0.562612,0.239282,8.13021,-0.190508,-0.373228,-0.455539,0
2024-11-29 18:18:10.043,-0.562612,0.239282,8.13021,-0.190508,-0.373228,-0.455539,0
2024-11-29 18:18:10.043,-0.562612,0.239282,8.13021,-0.190508,-0.373228,-0.455539,0
2024-11-29 18:18:10.044,-0.617647,0.229711,8.29322,-0.190508,-0.373228,-0.455539,0
2024-11-29 18:18:10.044,-0.617647,0.229711,8.29322,-0.190508,-0.373228,-0.455539,0
2024-11-29 18:18:10.044,-0.617647,0.229711,8.29322,-0.190508,-0.373228,-0.455539,0
2024-11-29 18:18:10.045,-0.617647,0.229711,8.29322,-0.183178,-0.409268,-0.472643,0
2024-11-29 18:18:10.045,-0.617647,0.229711,8.29322,-0.183178,-0.409268,-0.472643,0
2024-11-29 18:18:10.045,-0.617647,0.229711,8.29322,-0.183178,-0.409268,-0.472643,0
2024-11-29 18:18:10.045,-0.617647,0.229711,8.29322,-0.183178,-0.409268,-0.472643,0
2024-11-29 18:18:10.046,-0.617647,0.229711,8.47029,-0.183178,-0.409268,-0.472643,0
2024-11-29 18:18:10.046,-0.699003,0.217747,8.47029,-0.183178,-0.409268,-0.472643,0
2024-11-29 18:18:10.047,-0.699003,0.217747,8.47029,-0.174626,-0.441643,-0.485471,0
2024-11-29 18:18:10.047,-0.699003,0.217747,8.47029,-0.174626,-0.441643,-0.485471,0
2024-11-29 18:18:10.047,-0.699003,0.217747,8.47029,-0.174626,-0.441643,-0.485471,0
2024-11-29 18:18:10.047,-0.699003,0.217747,8.47029,-0.174626,-0.441643,-0.485471,0
2024-11-29 18:18:10.049,-0.789931,0.215354,8.62822,-0.174626,-0.441643,-0.485471,0
2024-11-29 18:18:10.049,-0.789931,0.215354,8.62822,-0.174626,-0.441643,-0.485471,0
2024-11-29 18:18:10.049,-0.789931,0.215354,8.62822,-0.174626,-0.441643,-0.485471,0
2024-11-29 18:18:10.049,-0.789931,0.215354,8.62822,-0.174626,-0.441643,-0.485471,0
2024-11-29 18:18:10.049,-0.789931,0.215354,8.62822,-0.174626,-0.441643,-0.485471,0
2024-11-29 18:18:10.049,-0.789931,0.215354,8.62822,-0.174626,-0.441643,-0.485471,0
2024-11-29 18:18:10.050,-0.789931,0.215354,8.62822,-0.164242,-0.472185,-0.497077,0
2024-11-29 18:18:10.050,-0.789931,0.215354,8.62822,-0.164242,-0.472185,-0.497077,0
2024-11-29 18:18:10.050,-0.789931,0.215354,8.62822,-0.164242,-0.472185,-0.497077,0
2024-11-29 18:18:10.050,-0.789931,0.215354,8.62822,-0.164242,-0.472185,-0.497077,0
2024-11-29 18:18:10.051,-0.888335,0.20339,8.76491,-0.164242,-0.472185,-0.497077,0
2024-11-29 18:18:10.051,-0.888335,0.20339,8.76491,-0.164242,-0.472185,-0.497077,0
2024-11-29 18:18:10.053,-0.99362,0.181855,8.88694,-0.152025,-0.497841,-0.50624,0
2024-11-29 18:18:10.053,-0.99362,0.181855,8.88694,-0.152025,-0.497841,-0.50624,0
2024-11-29 18:18:10.053,-0.99362,0.181855,8.88694,-0.152025,-0.497841,-0.50624,0
2024-11-29 18:18:10.053,-0.99362,0.181855,8.88694,-0.152025,-0.497841,-0.50624,0
2024-11-29 18:18:10.054,-0.99362,0.181855,8.88694,-0.139197,-0.519831,-0.509905,0
2024-11-29 18:18:10.054,-0.99362,0.181855,8.88694,-0.139197,-0.519831,-0.509905,0
2024-11-29 18:18:10.054,-0.99362,0.181855,8.88694,-0.139197,-0.519831,-0.509905,0
2024-11-29 18:18:10.054,-0.99362,0.181855,8.88694,-0.139197,-0.519831,-0.509905,0
2024-11-29 18:18:10.056,-1.08694,0.150748,8.98026,-0.139197,-0.519831,-0.509905,0
2024-11-29 18:18:10.056,-1.08694,0.150748,8.98026,-0.139197,-0.519831,-0.509905,0
2024-11-29 18:18:10.056,-1.08694,0.150748,8.98026,-0.139197,-0.519831,-0.509905,0
2024-11-29 18:18:10.057,-1.08694,0.150748,8.98026,-0.124536,-0.538156,-0.512959,0
2024-11-29 18:18:10.057,-1.08694,0.150748,8.98026,-0.124536,-0.538156,-0.512959,0
2024-11-29 18:18:10.057,-1.08694,0.150748,8.98026,-0.124536,-0.538156,-0.512959,0
2024-11-29 18:18:10.058,-1.18983,0.119641,9.06162,-0.124536,-0.538156,-0.512959,0
2024-11-29 18:18:10.058,-1.18983,0.119641,9.06162,-0.124536,-0.538156,-0.512959,0
2024-11-29 18:18:10.059,-1.18983,0.119641,9.06162,-0.110487,-0.553428,-0.511126,0
2024-11-29 18:18:10.059,-1.18983,0.119641,9.06162,-0.110487,-0.553428,-0.511126,0
2024-11-29 18:18:10.059,-1.18983,0.119641,9.06162,-0.110487,-0.553428,-0.511126,0
2024-11-29 18:18:10.059,-1.18983,0.119641,9.06162,-0.110487,-0.553428,-0.511126,0
2024-11-29 18:18:10.060,-1.29272,0.0933201,9.13819,-0.110487,-0.553428,-0.511126,0
2024-11-29 18:18:10.060,-1.29272,0.0933201,9.13819,-0.110487,-0.553428,-0.511126,0
2024-11-29 18:18:10.060,-1.29272,0.0933201,9.13819,-0.110487,-0.553428,-0.511126,0
2024-11-29 18:18:10.060,-1.29272,0.0933201,9.13819,-0.110487,-0.553428,-0.511126,0
2024-11-29 18:18:10.060,-1.29272,0.0933201,9.13819,-0.110487,-0.553428,-0.511126,0
2024-11-29 18:18:10.061,-1.29272,0.0933201,9.13819,-0.110487,-0.553428,-0.511126,0
2024-11-29 18:18:10.061,-1.29272,0.0933201,9.13819,-0.110487,-0.553428,-0.511126,0
2024-11-29 18:18:10.061,-1.29272,0.0933201,9.13819,-0.110487,-0.553428,-0.511126,0
2024-11-29 18:18:10.063,-1.37886,0.066999,9.2028,-0.0958267,-0.565645,-0.506851,0
2024-11-29 18:18:10.063,-1.37886,0.066999,9.2028,-0.0958267,-0.565645,-0.506851,0
2024-11-29 18:18:10.064,-1.37886,0.066999,9.2028,-0.0958267,-0.565645,-0.506851,0
2024-11-29 18:18:10.064,-1.37886,0.066999,9.2028,-0.0958267,-0.565645,-0.506851,0
2024-11-29 18:18:10.064,-1.37886,0.066999,9.2028,-0.0958267,-0.565645,-0.506851,0
2024-11-29 18:18:10.065,-1.48205,0.0382852,9.26531,-0.0842206,-0.575418,-0.497077,0
2024-11-29 18:18:10.065,-1.48205,0.0382852,9.26531,-0.0842206,-0.575418,-0.497077,0
2024-11-29 18:18:10.066,-1.48205,0.0382852,9.26531,-0.0713928,-0.584581,-0.489136,0
2024-11-29 18:18:10.066,-1.48205,0.0382852,9.26531,-0.0713928,-0.584581,-0.489136,0
2024-11-29 18:18:10.066,-1.48205,0.0382852,9.26531,-0.0713928,-0.584581,-0.489136,0
2024-11-29 18:18:10.067,-1.5682,0.0,9.32034,-0.0713928,-0.584581,-0.489136,0
2024-11-29 18:18:10.067,-1.5682,0.0,9.32034,-0.0713928,-0.584581,-0.489136,0
2024-11-29 18:18:10.067,-1.5682,0.0,9.32034,-0.0713928,-0.584581,-0.489136,0
2024-11-29 18:18:10.068,-1.5682,0.0,9.32034,-0.0713928,-0.584581,-0.489136,0
2024-11-29 18:18:10.068,-1.5682,0.0,9.32034,-0.0713928,-0.584581,-0.489136,0
2024-11-29 18:18:10.068,-1.5682,0.0,9.32034,-0.0713928,-0.584581,-0.489136,0
2024-11-29 18:18:10.070,-1.64716,-0.0311067,9.34906,-0.0603975,-0.589468,-0.473254,0
2024-11-29 18:18:10.070,-1.64716,-0.0311067,9.34906,-0.0603975,-0.589468,-0.473254,0
2024-11-29 18:18:10.070,-1.64716,-0.0311067,9.34906,-0.0603975,-0.589468,-0.473254,0
2024-11-29 18:18:10.070,-1.64716,-0.0311067,9.34906,-0.0603975,-0.589468,-0.473254,0
2024-11-29 18:18:10.070,-1.64716,-0.0311067,9.34906,-0.0603975,-0.589468,-0.473254,0
2024-11-29 18:18:10.071,-1.64716,-0.0311067,9.34906,-0.0481806,-0.593744,-0.457983,0
2024-11-29 18:18:10.071,-1.64716,-0.0311067,9.34906,-0.0481806,-0.593744,-0.457983,0
2024-11-29 18:18:10.072,-1.72852,-0.0478565,9.38734,-0.0481806,-0.593744,-0.457983,0
2024-11-29 18:18:10.072,-1.72852,-0.0478565,9.38734,-0.0481806,-0.593744,-0.457983,0
2024-11-29 18:18:10.072,-1.72852,-0.0478565,9.38734,-0.0481806,-0.593744,-0.457983,0
2024-11-29 18:18:10.073,-1.72852,-0.0478565,9.38734,-0.0353528,-0.596187,-0.440268,0
2024-11-29 18:18:10.073,-1.72852,-0.0478565,9.38734,-0.0353528,-0.596187,-0.440268,0
2024-11-29 18:18:10.073,-1.72852,-0.0478565,9.38734,-0.0353528,-0.596187,-0.440268,0
2024-11-29 18:18:10.073,-1.72852,-0.0478565,9.38734,-0.0353528,-0.596187,-0.440268,0
2024-11-29 18:18:10.074,-1.82901,-0.0598206,9.43281,-0.0353528,-0.596187,-0.440268,0
2024-11-29 18:18:10.074,-1.82901,-0.0598206,9.43281,-0.0353528,-0.596187,-0.440268,0
2024-11-29 18:18:10.074,-1.82901,-0.0598206,9.43281,-0.0353528,-0.596187,-0.440268,0
2024-11-29 18:18:10.075,-1.82901,-0.0598206,9.43281,-0.0353528,-0.596187,-0.440268,0
2024-11-29 18:18:10.075,-1.82901,-0.0598206,9.43281,-0.0353528,-0.596187,-0.440268,0
2024-11-29 18:18:10.075,-1.82901,-0.0598206,9.43281,-0.0353528,-0.596187,-0.440268,0
2024-11-29 18:18:10.077,-1.93669,-0.0550349,9.47588,-0.0268009,-0.594354,-0.418889,0
2024-11-29 18:18:10.077,-1.93669,-0.0550349,9.47588,-0.0268009,-0.594354,-0.418889,0
2024-11-29 18:18:10.078,-1.93669,-0.0550349,9.47588,-0.0158057,-0.593133,-0.394455,0
2024-11-29 18:18:10.078,-1.93669,-0.0550349,9.47588,-0.0158057,-0.593133,-0.394455,0
2024-11-29 18:18:10.078,-1.93669,-0.0550349,9.47588,-0.0158057,-0.593133,-0.394455,0
2024-11-29 18:18:10.079,-2.00638,-0.0574277,9.51655,-0.0158057,-0.593133,-0.394455,0
2024-11-29 18:18:10.079,-2.00638,-0.0574277,9.51655,-0.0158057,-0.593133,-0.394455,0
2024-11-29 18:18:10.080,-2.00638,-0.0574277,9.51655,-0.00603212,-0.587024,-0.367577,0
2024-11-29 18:18:10.080,-2.00638,-0.0574277,9.51655,-0.00603212,-0.587024,-0.367577,0
2024-11-29 18:18:10.080,-2.00638,-0.0574277,9.51655,-0.00603212,-0.587024,-0.367577,0
2024-11-29 18:18:10.082,-2.08535,-0.0622134,9.55005,-0.00603212,-0.587024,-0.367577,0
2024-11-29 18:18:10.082,-2.08535,-0.0622134,9.55005,-0.00603212,-0.587024,-0.367577,0
2024-11-29 18:18:10.082,-2.08535,-0.0622134,9.55005,-0.00603212,-0.587024,-0.367577,0
2024-11-29 18:18:10.082,-2.08535,-0.0622134,9.55005,-0.00603212,-0.587024,-0.367577,0
2024-11-29 18:18:10.082,-2.08535,-0.0622134,9.55005,-0.00603212,-0.587024,-0.367577,0
2024-11-29 18:18:10.082,-2.08535,-0.0622134,9.55005,-0.00603212,-0.587024,-0.367577,0
2024-11-29 18:18:10.083,-2.08535,-0.0622134,9.55005,0.00557398,-0.580916,-0.337646,0
2024-11-29 18:18:10.083,-2.08535,-0.0622134,9.55005,0.00557398,-0.580916,-0.337646,0
2024-11-29 18:18:10.083,-2.08535,-0.0622134,9.55005,0.00557398,-0.580916,-0.337646,0
2024-11-29 18:18:10.083,-2.08535,-0.0622134,9.55005,0.00557398,-0.580916,-0.337646,0
2024-11-29 18:18:10.084,-2.17149,-0.0478565,9.57398,0.00557398,-0.580916,-0.337646,0
2024-11-29 18:18:10.084,-2.17149,-0.0478565,9.57398,0.00557398,-0.580916,-0.337646,0
2024-11-29 18:18:10.084,-2.17149,-0.0478565,9.57398,0.00557398,-0.580916,-0.337646,0
2024-11-29 18:18:10.084,-2.17149,-0.0478565,9.57398,0.00557398,-0.580916,-0.337646,0
2024-11-29 18:18:10.085,-2.17149,-0.0478565,9.57398,0.0141258,-0.572975,-0.307103,0
2024-11-29 18:18:10.085,-2.17149,-0.0478565,9.57398,0.0141258,-0.572975,-0.307103,0
2024-11-29 18:18:10.085,-2.17149,-0.0478565,9.57398,0.0141258,-0.572975,-0.307103,0
2024-11-29 18:18:10.085,-2.17149,-0.0478565,9.57398,0.0141258,-0.572975,-0.307103,0
2024-11-29 18:18:10.086,-2.22652,-0.0358923,9.59073,0.0141258,-0.572975,-0.307103,0
2024-11-29 18:18:10.086,-2.22652,-0.0358923,9.59073,0.0141258,-0.572975,-0.307103,0
2024-11-29 18:18:10.086,-2.22652,-0.0358923,9.59073,0.0141258,-0.572975,-0.307103,0
2024-11-29 18:18:10.087,-2.22652,-0.0358923,9.59073,0.0220669,-0.56259,-0.273507,0
2024-11-29 18:18:10.087,-2.22652,-0.0358923,9.59073,0.0220669,-0.56259,-0.273507,0
2024-11-29 18:18:10.087,-2.22652,-0.0358923,9.59073,0.0220669,-0.56259,-0.273507,0
2024-11-29 18:18:10.087,-2.22652,-0.0358923,9.59073,0.0220669,-0.56259,-0.273507,0
2024-11-29 18:18:10.087,-2.22652,-0.0358923,9.59073,0.0220669,-0.56259,-0.273507,0
2024-11-29 18:18:10.087,-2.22652,-0.0358923,9.59073,0.0220669,-0.56259,-0.273507,0
2024-11-29 18:18:10.087,-2.22652,-0.0358923,9.59073,0.0220669,-0.56259,-0.273507,0
2024-11-29 18:18:10.089,-2.25763,-0.0287139,9.60748,0.0220669,-0.56259,-0.273507,0
2024-11-29 18:18:10.089,-2.25763,-0.0287139,9.60748,0.0220669,-0.56259,-0.273507,0
2024-11-29 18:18:10.090,-2.25763,-0.0287139,9.60748,0.033673,-0.549152,-0.236245,0
2024-11-29 18:18:10.090,-2.25763,-0.0287139,9.60748,0.033673,-0.549152,-0.236245,0
2024-11-29 18:18:10.090,-2.25763,-0.0287139,9.60748,0.033673,-0.549152,-0.236245,0
2024-11-29 18:18:10.090,-2.25763,-0.0287139,9.60748,0.033673,-0.549152,-0.236245,0
2024-11-29 18:18:10.090,-2.25763,-0.0287139,9.60748,0.033673,-0.549152,-0.236245,0
2024-11-29 18:18:10.090,-2.25763,-0.0287139,9.60748,0.033673,-0.549152,-0.236245,0
2024-11-29 18:18:10.091,-2.27199,-0.0430708,9.61945,0.033673,-0.549152,-0.236245,0
2024-11-29 18:18:10.091,-2.27199,-0.0430708,9.61945,0.033673,-0.549152,-0.236245,0
2024-11-29 18:18:10.091,-2.27199,-0.0430708,9.61945,0.033673,-0.549152,-0.236245,0
2024-11-29 18:18:10.092,-2.27199,-0.0430708,9.61945,0.0428357,-0.532659,-0.198983,0
2024-11-29 18:18:10.092,-2.27199,-0.0430708,9.61945,0.0428357,-0.532659,-0.198983,0
2024-11-29 18:18:10.092,-2.27199,-0.0430708,9.61945,0.0428357,-0.532659,-0.198983,0
2024-11-29 18:18:10.092,-2.27199,-0.0430708,9.61945,0.0428357,-0.532659,-0.198983,0
2024-11-29 18:18:10.092,-2.27199,-0.0430708,9.61945,0.0428357,-0.532659,-0.198983,0
2024-11-29 18:18:10.092,-2.27199,-0.0430708,9.61945,0.0428357,-0.532659,-0.198983,0
2024-11-29 18:18:10.092,-2.27199,-0.0430708,9.61945,0.0428357,-0.532659,-0.198983,0
2024-11-29 18:18:10.093,-2.3007,-0.0454636,9.62184,0.0428357,-0.532659,-0.198983,0
2024-11-29 18:18:10.093,-2.3007,-0.0454636,9.62184,0.0428357,-0.532659,-0.198983,0
2024-11-29 18:18:10.093,-2.3007,-0.0454636,9.62184,0.0428357,-0.532659,-0.198983,0
2024-11-29 18:18:10.093,-2.3007,-0.0454636,9.62184,0.0428357,-0.532659,-0.198983,0
2024-11-29 18:18:10.093,-2.3007,-0.0454636,9.62184,0.0428357,-0.532659,-0.198983,0
2024-11-29 18:18:10.093,-2.3007,-0.0454636,9.62184,0.0428357,-0.532659,-0.198983,0
2024-11-29 18:18:10.094,-2.3007,-0.0454636,9.62184,0.0428357,-0.532659,-0.198983,0
2024-11-29 18:18:10.094,-2.3007,-0.0454636,9.62184,0.0428357,-0.532659,-0.198983,0
2024-11-29 18:18:10.094,-2.3007,-0.0454636,9.62184,0.0428357,-0.532659,-0.198983,0
2024-11-29 18:18:10.094,-2.3007,-0.0454636,9.62184,0.0428357,-0.532659,-0.198983,0
2024-11-29 18:18:10.094,-2.3007,-0.0454636,9.62184,0.0428357,-0.532659,-0.198983,0
2024-11-29 18:18:10.094,-2.3007,-0.0454636,9.62184,0.0428357,-0.532659,-0.198983,0
2024-11-29 18:18:10.096,-2.32223,-0.0311067,9.64098,0.0452791,-0.514333,-0.157446,0
2024-11-29 18:18:10.096,-2.32223,-0.0311067,9.64098,0.0452791,-0.514333,-0.157446,0
2024-11-29 18:18:10.096,-2.32223,-0.0311067,9.64098,0.0452791,-0.514333,-0.157446,0
2024-11-29 18:18:10.097,-2.32223,-0.0311067,9.64098,0.0513875,-0.488067,-0.115908,0
2024-11-29 18:18:10.097,-2.32223,-0.0311067,9.64098,0.0513875,-0.488067,-0.115908,0
2024-11-29 18:18:10.097,-2.32223,-0.0311067,9.64098,0.0513875,-0.488067,-0.115908,0
2024-11-29 18:18:10.097,-2.32223,-0.0311067,9.64098,0.0513875,-0.488067,-0.115908,0
2024-11-29 18:18:10.098,-2.31506,-0.0191426,9.65773,0.0513875,-0.488067,-0.115908,0
2024-11-29 18:18:10.098,-2.31506,-0.0191426,9.65773,0.0513875,-0.488067,-0.115908,0
2024-11-29 18:18:10.098,-2.31506,-0.0191426,9.65773,0.0513875,-0.488067,-0.115908,0
2024-11-29 18:18:10.098,-2.31506,-0.0191426,9.65773,0.0513875,-0.488067,-0.115908,0
2024-11-29 18:18:10.099,-2.31506,-0.0191426,9.65773,0.0581068,-0.46119,-0.0719273,0
2024-11-29 18:18:10.099,-2.31506,-0.0191426,9.65773,0.0581068,-0.46119,-0.0719273,0
2024-11-29 18:18:10.099,-2.31506,-0.0191426,9.65773,0.0581068,-0.46119,-0.0719273,0
2024-11-29 18:18:10.099,-2.31506,-0.0191426,9.65773,0.0581068,-0.46119,-0.0719273,0
2024-11-29 18:18:10.100,-2.30548,0.00478565,9.66491,0.0581068,-0.46119,-0.0719273,0
2024-11-29 18:18:10.100,-2.30548,0.00478565,9.66491,0.0581068,-0.46119,-0.0719273,0
2024-11-29 18:18:10.100,-2.30548,0.00478565,9.66491,0.0581068,-0.46119,-0.0719273,0
2024-11-29 18:18:10.100,-2.30548,0.00478565,9.66491,0.0581068,-0.46119,-0.0719273,0
2024-11-29 18:18:10.101,-2.30548,0.00478565,9.66491,0.0581068,-0.46119,-0.0719273,0
2024-11-29 18:18:10.101,-2.30548,0.00478565,9.66491,0.0581068,-0.46119,-0.0719273,0
2024-11-29 18:18:10.101,-2.30548,0.00478565,9.66491,0.0581068,-0.46119,-0.0719273,0
2024-11-29 18:18:10.101,-2.30548,0.00478565,9.66491,0.0581068,-0.46119,-0.0719273,0
2024-11-29 18:18:10.101,-2.30548,0.00478565,9.66491,0.0581068,-0.46119,-0.0719273,0
2024-11-29 18:18:10.103,-2.30548,0.0239282,9.67209,0.0629936,-0.431869,-0.0279463,0
2024-11-29 18:18:10.103,-2.28395,0.0239282,9.67209,0.0629936,-0.431869,-0.0279463,0
2024-11-29 18:18:10.103,-2.28395,0.0239282,9.67209,0.0629936,-0.431869,-0.0279463,0
2024-11-29 18:18:10.103,-2.28395,0.0239282,9.67209,0.0629936,-0.431869,-0.0279463,0
2024-11-29 18:18:10.103,-2.28395,0.0239282,9.67209,0.0629936,-0.431869,-0.0279463,0
2024-11-29 18:18:10.103,-2.28395,0.0239282,9.67209,0.0629936,-0.431869,-0.0279463,0
2024-11-29 18:18:10.103,-2.28395,0.0239282,9.67209,0.0629936,-0.431869,-0.0279463,0
2024-11-29 18:18:10.104,-2.28395,0.0239282,9.67209,0.0709346,-0.397662,0.0142022,0
2024-11-29 18:18:10.104,-2.28395,0.0239282,9.67209,0.0709346,-0.397662,0.0142022,0
2024-11-29 18:18:10.104,-2.28395,0.0239282,9.67209,0.0709346,-0.397662,0.0142022,0
2024-11-29 18:18:10.104,-2.28395,0.0239282,9.67209,0.0709346,-0.397662,0.0142022,0
2024-11-29 18:18:10.104,-2.28395,0.0239282,9.67209,0.0709346,-0.397662,0.0142022,0
2024-11-29 18:18:10.104,-2.28395,0.0239282,9.67209,0.0709346,-0.397662,0.0142022,0
2024-11-29 18:18:10.105,-2.25045,0.0574277,9.66491,0.0709346,-0.397662,0.0142022,0
2024-11-29 18:18:10.105,-2.25045,0.0574277,9.66491,0.0709346,-0.397662,0.0142022,0
2024-11-29 18:18:10.105,-2.25045,0.0574277,9.66491,0.0709346,-0.397662,0.0142022,0
2024-11-29 18:18:10.106,-2.25045,0.0574277,9.66491,0.0739889,-0.362843,0.058794,0
2024-11-29 18:18:10.106,-2.25045,0.0574277,9.66491,0.0739889,-0.362843,0.058794,0
2024-11-29 18:18:10.106,-2.25045,0.0574277,9.66491,0.0739889,-0.362843,0.058794,0
2024-11-29 18:18:10.106,-2.25045,0.0574277,9.66491,0.0739889,-0.362843,0.058794,0
2024-11-29 18:18:10.107,-2.2002,0.102891,9.65295,0.0739889,-0.362843,0.058794,0
2024-11-29 18:18:10.107,-2.2002,0.102891,9.65295,0.0739889,-0.362843,0.058794,0
2024-11-29 18:18:10.107,-2.2002,0.102891,9.65295,0.0739889,-0.362843,0.058794,0
2024-11-29 18:18:10.108,-2.2002,0.102891,9.65295,0.0739889,-0.362843,0.058794,0
2024-11-29 18:18:10.108,-2.2002,0.102891,9.65295,0.0739889,-0.362843,0.058794,0
2024-11-29 18:18:10.108,-2.2002,0.102891,9.65295,0.0739889,-0.362843,0.058794,0
2024-11-29 18:18:10.108,-2.2002,0.102891,9.65295,0.0739889,-0.362843,0.058794,0
2024-11-29 18:18:10.108,-2.2002,0.102891,9.65295,0.0739889,-0.362843,0.058794,0
2024-11-29 18:18:10.108,-2.2002,0.102891,9.65295,0.0739889,-0.362843,0.058794,0
2024-11-29 18:18:10.110,-2.1332,0.12682,9.64337,0.0794865,-0.324971,0.100943,0
2024-11-29 18:18:10.110,-2.1332,0.12682,9.64337,0.0794865,-0.324971,0.100943,0
2024-11-29 18:18:10.110,-2.1332,0.12682,9.64337,0.0794865,-0.324971,0.100943,0
2024-11-29 18:18:10.110,-2.1332,0.12682,9.64337,0.0794865,-0.324971,0.100943,0
2024-11-29 18:18:10.110,-2.1332,0.12682,9.64337,0.0794865,-0.324971,0.100943,0
2024-11-29 18:18:10.110,-2.1332,0.12682,9.64337,0.0794865,-0.324971,0.100943,0
2024-11-29 18:18:10.111,-2.1332,0.12682,9.64337,0.0831516,-0.284044,0.144313,0
2024-11-29 18:18:10.111,-2.1332,0.12682,9.64337,0.0831516,-0.284044,0.144313,0
2024-11-29 18:18:10.111,-2.1332,0.12682,9.64337,0.0831516,-0.284044,0.144313,0
2024-11-29 18:18:10.111,-2.1332,0.12682,9.64337,0.0831516,-0.284044,0.144313,0
2024-11-29 18:18:10.111,-2.1332,0.12682,9.64337,0.0831516,-0.284044,0.144313,0
2024-11-29 18:18:10.111,-2.1332,0.12682,9.64337,0.0831516,-0.284044,0.144313,0
2024-11-29 18:18:10.112,-2.05424,0.150748,9.63141,0.0831516,-0.284044,0.144313,0
2024-11-29 18:18:10.112,-2.05424,0.150748,9.63141,0.0831516,-0.284044,0.144313,0
2024-11-29 18:18:10.112,-2.05424,0.150748,9.63141,0.0831516,-0.284044,0.144313,0
2024-11-29 18:18:10.112,-2.05424,0.150748,9.63141,0.0831516,-0.284044,0.144313,0
2024-11-29 18:18:10.113,-2.05424,0.150748,9.63141,0.0874275,-0.243117,0.186461,0
2024-11-29 18:18:10.113,-2.05424,0.150748,9.63141,0.0874275,-0.243117,0.186461,0
2024-11-29 18:18:10.113,-2.05424,0.150748,9.63141,0.0874275,-0.243117,0.186461,0
2024-11-29 18:18:10.113,-2.05424,0.150748,9.63141,0.0874275,-0.243117,0.186461,0
2024-11-29 18:18:10.115,-1.97528,0.191426,9.6027,0.0874275,-0.243117,0.186461,0
2024-11-29 18:18:10.115,-1.97528,0.191426,9.6027,0.0874275,-0.243117,0.186461,0
2024-11-29 18:18:10.115,-1.97528,0.191426,9.6027,0.0874275,-0.243117,0.186461,0
2024-11-29 18:18:10.115,-1.97528,0.191426,9.6027,0.0874275,-0.243117,0.186461,0
2024-11-29 18:18:10.116,-1.97528,0.191426,9.6027,0.0904818,-0.199136,0.226166,0
2024-11-29 18:18:10.116,-1.97528,0.191426,9.6027,0.0904818,-0.199136,0.226166,0
2024-11-29 18:18:10.116,-1.97528,0.191426,9.6027,0.0904818,-0.199136,0.226166,0
2024-11-29 18:18:10.116,-1.97528,0.191426,9.6027,0.0904818,-0.199136,0.226166,0
2024-11-29 18:18:10.117,-1.89841,0.236889,9.56441,0.0904818,-0.199136,0.226166,0
2024-11-29 18:18:10.117,-1.89841,0.236889,9.56441,0.0904818,-0.199136,0.226166,0
2024-11-29 18:18:10.117,-1.89841,0.236889,9.56441,0.0904818,-0.199136,0.226166,0
2024-11-29 18:18:10.117,-1.89841,0.236889,9.56441,0.0904818,-0.199136,0.226166,0
2024-11-29 18:18:10.117,-1.89841,0.236889,9.56441,0.0904818,-0.199136,0.226166,0
2024-11-29 18:18:10.118,-1.89841,0.236889,9.56441,0.0929251,-0.154544,0.263428,0
2024-11-29 18:18:10.118,-1.89841,0.236889,9.56441,0.0929251,-0.154544,0.263428,0
2024-11-29 18:18:10.118,-1.89841,0.236889,9.56441,0.0929251,-0.154544,0.263428,0
2024-11-29 18:18:10.118,-1.89841,0.236889,9.56441,0.0929251,-0.154544,0.263428,0
2024-11-29 18:18:10.118,-1.89841,0.236889,9.56441,0.0929251,-0.154544,0.263428,0
2024-11-29 18:18:10.118,-1.89841,0.236889,9.56441,0.0929251,-0.154544,0.263428,0
2024-11-29 18:18:10.118,-1.89841,0.236889,9.56441,0.0929251,-0.154544,0.263428,0
2024-11-29 18:18:10.119,-1.80269,0.289831,9.53091,0.0929251,-0.154544,0.263428,0
2024-11-29 18:18:10.119,-1.80269,0.289831,9.53091,0.0929251,-0.154544,0.263428,0
2024-11-29 18:18:10.119,-1.80269,0.289831,9.53091,0.0929251,-0.154544,0.263428,0
2024-11-29 18:18:10.119,-1.80269,0.289831,9.53091,0.0929251,-0.154544,0.263428,0
2024-11-29 18:18:10.120,-1.80269,0.289831,9.53091,0.0959794,-0.10812,0.298246,0
2024-11-29 18:18:10.120,-1.80269,0.289831,9.53091,0.0959794,-0.10812,0.298246,0
2024-11-29 18:18:10.120,-1.80269,0.289831,9.53091,0.0959794,-0.10812,0.298246,0
2024-11-29 18:18:10.120,-1.80269,0.289831,9.53091,0.0959794,-0.10812,0.298246,0
2024-11-29 18:18:10.120,-1.80269,0.289831,9.53091,0.0959794,-0.10812,0.298246,0
2024-11-29 18:18:10.120,-1.80269,0.289831,9.53091,0.0959794,-0.10812,0.298246,0
2024-11-29 18:18:10.120,-1.80269,0.289831,9.53091,0.0959794,-0.10812,0.298246,0
2024-11-29 18:18:10.122,-1.70219,0.354437,9.49023,0.0959794,-0.10812,0.298246,0
2024-11-29 18:18:10.123,-1.70219,0.354437,9.49023,0.0978119,-0.0604739,0.331232,0
2024-11-29 18:18:10.123,-1.70219,0.354437,9.49023,0.0978119,-0.0604739,0.331232,0
2024-11-29 18:18:10.123,-1.70219,0.354437,9.49023,0.0978119,-0.0604739,0.331232,0
2024-11-29 18:18:10.123,-1.70219,0.354437,9.49023,0.0978119,-0.0604739,0.331232,0
2024-11-29 18:18:10.123,-1.70219,0.354437,9.49023,0.0978119,-0.0604739,0.331232,0
2024-11-29 18:18:10.124,-1.6017,0.428614,9.42802,0.0978119,-0.0604739,0.331232,0
2024-11-29 18:18:10.124,-1.6017,0.428614,9.42802,0.0978119,-0.0604739,0.331232,0
2024-11-29 18:18:10.124,-1.6017,0.428614,9.42802,0.0978119,-0.0604739,0.331232,0
2024-11-29 18:18:10.124,-1.6017,0.428614,9.42802,0.0978119,-0.0604739,0.331232,0
2024-11-29 18:18:10.124,-1.6017,0.428614,9.42802,0.0978119,-0.0604739,0.331232,0
2024-11-29 18:18:10.125,-1.6017,0.428614,9.42802,0.0990336,-0.015882,0.360553,0
2024-11-29 18:18:10.125,-1.6017,0.428614,9.42802,0.0990336,-0.015882,0.360553,0
2024-11-29 18:18:10.125,-1.6017,0.428614,9.42802,0.0990336,-0.015882,0.360553,0
2024-11-29 18:18:10.125,-1.6017,0.428614,9.42802,0.0990336,-0.015882,0.360553,0
2024-11-29 18:18:10.125,-1.6017,0.428614,9.42802,0.0990336,-0.015882,0.360553,0
2024-11-29 18:18:10.125,-1.6017,0.428614,9.42802,0.0990336,-0.015882,0.360553,0
2024-11-29 18:18:10.126,-1.49163,0.507577,9.33949,0.0990336,-0.015882,0.360553,0
2024-11-29 18:18:10.126,-1.49163,0.507577,9.33949,0.0990336,-0.015882,0.360553,0
2024-11-29 18:18:10.126,-1.49163,0.507577,9.33949,0.0990336,-0.015882,0.360553,0
2024-11-29 18:18:10.126,-1.49163,0.507577,9.33949,0.0990336,-0.015882,0.360553,0
2024-11-29 18:18:10.127,-1.49163,0.507577,9.33949,0.0990336,0.0293207,0.386208,0
2024-11-29 18:18:10.127,-1.49163,0.507577,9.33949,0.0990336,0.0293207,0.386208,0
2024-11-29 18:18:10.127,-1.49163,0.507577,9.33949,0.0990336,0.0293207,0.386208,0
2024-11-29 18:18:10.127,-1.49163,0.507577,9.33949,0.0990336,0.0293207,0.386208,0
2024-11-29 18:18:10.127,-1.49163,0.507577,9.33949,0.0990336,0.0293207,0.386208,0
2024-11-29 18:18:10.127,-1.49163,0.507577,9.33949,0.0990336,0.0293207,0.386208,0
2024-11-29 18:18:10.129,-1.38604,0.584148,9.24108,0.0990336,0.0293207,0.386208,0
2024-11-29 18:18:10.129,-1.38604,0.584148,9.24108,0.0990336,0.0293207,0.386208,0
2024-11-29 18:18:10.129,-1.38604,0.584148,9.24108,0.0990336,0.0293207,0.386208,0
2024-11-29 18:18:10.129,-1.38604,0.584148,9.24108,0.0990336,0.0293207,0.386208,0
2024-11-29 18:18:10.130,-1.38604,0.584148,9.24108,0.0984228,0.0702474,0.410642,0
2024-11-29 18:18:10.130,-1.38604,0.584148,9.24108,0.0984228,0.0702474,0.410642,0
2024-11-29 18:18:10.130,-1.38604,0.584148,9.24108,0.0984228,0.0702474,0.410642,0
2024-11-29 18:18:10.130,-1.38604,0.584148,9.24108,0.0984228,0.0702474,0.410642,0
2024-11-29 18:18:10.130,-1.38604,0.584148,9.24108,0.0984228,0.0702474,0.410642,0
2024-11-29 18:18:10.131,-1.29033,0.667897,9.14776,0.0984228,0.0702474,0.410642,0
2024-11-29 18:18:10.131,-1.29033,0.667897,9.14776,0.0984228,0.0702474,0.410642,0
2024-11-29 18:18:10.131,-1.29033,0.667897,9.14776,0.0984228,0.0702474,0.410642,0
2024-11-29 18:18:10.131,-1.29033,0.667897,9.14776,0.0984228,0.0702474,0.410642,0
2024-11-29 18:18:10.131,-1.29033,0.667897,9.14776,0.0984228,0.0702474,0.410642,0
2024-11-29 18:18:10.132,-1.29033,0.667897,9.14776,0.0978119,0.10812,0.430189,0
2024-11-29 18:18:10.132,-1.29033,0.667897,9.14776,0.0978119,0.10812,0.430189,0
2024-11-29 18:18:10.132,-1.29033,0.667897,9.14776,0.0978119,0.10812,0.430189,0
2024-11-29 18:18:10.132,-1.29033,0.667897,9.14776,0.0978119,0.10812,0.430189,0
2024-11-29 18:18:10.132,-1.29033,0.667897,9.14776,0.0978119,0.10812,0.430189,0
2024-11-29 18:18:10.133,-1.20897,0.749253,9.03769,0.0978119,0.10812,0.430189,0
2024-11-29 18:18:10.133,-1.20897,0.749253,9.03769,0.0978119,0.10812,0.430189,0
2024-11-29 18:18:10.133,-1.20897,0.749253,9.03769,0.0978119,0.10812,0.430189,0
2024-11-29 18:18:10.133,-1.20897,0.749253,9.03769,0.0978119,0.10812,0.430189,0
2024-11-29 18:18:10.134,-1.20897,0.749253,9.03769,0.0978119,0.10812,0.430189,0
2024-11-29 18:18:10.134,-1.20897,0.749253,9.03769,0.0978119,0.10812,0.430189,0
2024-11-29 18:18:10.134,-1.20897,0.749253,9.03769,0.0978119,0.10812,0.430189,0
2024-11-29 18:18:10.134,-1.20897,0.749253,9.03769,0.0978119,0.10812,0.430189,0
2024-11-29 18:18:10.136,-1.14915,0.828216,8.93001,0.0923143,0.142938,0.446071,0
2024-11-29 18:18:10.136,-1.14915,0.828216,8.93001,0.0923143,0.142938,0.446071,0
2024-11-29 18:18:10.136,-1.14915,0.828216,8.93001,0.0923143,0.142938,0.446071,0
2024-11-29 18:18:10.136,-1.14915,0.828216,8.93001,0.0923143,0.142938,0.446071,0
2024-11-29 18:18:10.136,-1.14915,0.828216,8.93001,0.0923143,0.142938,0.446071,0
2024-11-29 18:18:10.136,-1.14915,0.828216,8.93001,0.0923143,0.142938,0.446071,0
2024-11-29 18:18:10.137,-1.14915,0.828216,8.93001,0.0868167,0.172259,0.458899,0
2024-11-29 18:18:10.137,-1.14915,0.828216,8.93001,0.0868167,0.172259,0.458899,0
2024-11-29 18:18:10.137,-1.14915,0.828216,8.93001,0.0868167,0.172259,0.458899,0
2024-11-29 18:18:10.137,-1.14915,0.828216,8.93001,0.0868167,0.172259,0.458899,0
2024-11-29 18:18:10.137,-1.14915,0.828216,8.93001,0.0868167,0.172259,0.458899,0
2024-11-29 18:18:10.138,-1.09651,0.926621,8.81516,0.0868167,0.172259,0.458899,0
2024-11-29 18:18:10.138,-1.09651,0.926621,8.81516,0.0868167,0.172259,0.458899,0
2024-11-29 18:18:10.138,-1.09651,0.926621,8.81516,0.0868167,0.172259,0.458899,0
2024-11-29 18:18:10.139,-1.09651,0.926621,8.81516,0.0807082,0.200358,0.471116,0
2024-11-29 18:18:10.139,-1.09651,0.926621,8.81516,0.0807082,0.200358,0.471116,0
2024-11-29 18:18:10.139,-1.09651,0.926621,8.81516,0.0807082,0.200358,0.471116,0
2024-11-29 18:18:10.140,-1.04387,1.01276,8.69283,0.0807082,0.200358,0.471116,0
2024-11-29 18:18:10.144,-0.996012,1.07737,8.59472,0.0727672,0.224792,0.477835,0
2024-11-29 18:18:10.149,-0.948156,1.2329,8.42722,0.0489441,0.27366,0.491885,0
2024-11-29 18:18:10.149,-0.948156,1.2329,8.42722,0.0489441,0.27366,0.491885,0
2024-11-29 18:18:10.151,-0.921835,1.29272,8.35065,0.0489441,0.27366,0.491885,0
2024-11-29 18:18:10.153,-0.917049,1.33579,8.25733,0.0385597,0.285266,0.496772,0
2024-11-29 18:18:10.155,-0.931406,1.39801,8.15683,0.029397,0.291985,0.498604,0
2024-11-29 18:18:10.158,-0.933799,1.4653,8.06561,0.0190126,0.296872,0.499215,0
2024-11-29 18:18:10.160,-0.917049,1.50359,7.98904,0.00801737,0.295039,0.501047,0
2024-11-29 18:18:10.162,-0.9003,1.53948,7.92443,-0.00358873,0.287709,0.500437,0
2024-11-29 18:18:10.164,-0.859622,1.57298,7.88854,-0.014584,0.276103,0.499215,0
2024-11-29 18:18:10.166,-0.799502,1.59691,7.86222,-0.0255792,0.25961,0.494939,0
2024-11-29 18:18:10.169,-0.775574,1.64477,7.84786,-0.038407,0.242506,0.493106,0
2024-11-29 18:18:10.172,-0.76361,1.69741,7.83111,-0.046348,0.224792,0.48822,0
2024-11-29 18:18:10.173,-0.751645,1.73091,7.80958,-0.0530674,0.208299,0.485776,0
2024-11-29 18:18:10.177,-0.73011,1.79073,7.81915,-0.0610084,0.193639,0.480279,0
2024-11-29 18:18:10.179,-0.701396,1.84337,7.8359,-0.0677277,0.163707,0.472948,0
2024-11-29 18:18:10.180,-0.689432,1.86969,7.84786,-0.0677277,0.163707,0.472948,0
2024-11-29 18:18:10.184,-0.682254,1.89601,7.867,-0.0707819,0.147825,0.470505,0
2024-11-29 18:18:10.188,-0.658325,1.97049,7.91007,-0.0750579,0.111785,0.464397,0
2024-11-29 18:18:10.189,-0.658325,1.97049,7.91007,-0.0726145,0.0928488,0.460121,0
2024-11-29 18:18:10.191,-0.63679,1.99202,7.94597,-0.0726145,0.0928488,0.460121,0
2024-11-29 18:18:10.192,-0.60329,2.02313,7.98186,-0.0713928,0.0702474,0.454623,0
2024-11-29 18:18:10.195,-0.584148,2.03749,8.00579,-0.066506,0.0537546,0.45218,0
2024-11-29 18:18:10.198,-0.572184,2.08056,8.01775,-0.058565,0.0152712,0.443628,0
2024-11-29 18:18:10.199,-0.567398,2.11167,8.02971,-0.058565,0.0152712,0.443628,0
2024-11-29 18:18:10.203,-0.565005,2.13559,8.05125,-0.0494023,-0.0183254,0.435687,0
2024-11-29 18:18:10.204,-0.569791,2.1667,8.07757,-0.0494023,-0.0183254,0.435687,0
2024-11-29 18:18:10.206,-0.574577,2.19541,8.10389,-0.0402396,-0.0354291,0.433243,0
2024-11-29 18:18:10.210,-0.576969,2.22652,8.11825,-0.0249684,-0.0690257,0.429578,0
2024-11-29 18:18:10.211,-0.581755,2.2672,8.135,-0.0249684,-0.0690257,0.429578,0
2024-11-29 18:18:10.214,-0.588933,2.31506,8.17358,-0.0249684,-0.0690257,0.429578,0
2024-11-29 18:18:10.216,-0.584148,2.35095,8.21187,-0.0096972,-0.0965139,0.430189,0
2024-11-29 18:18:10.219,-0.576969,2.38923,8.22144,0.000687203,-0.111174,0.431411,0
2024-11-29 18:18:10.221,-0.574577,2.41316,8.24776,0.0110716,-0.125835,0.434465,0
2024-11-29 18:18:10.223,-0.572184,2.42513,8.28605,0.021456,-0.141106,0.436298,0
2024-11-29 18:18:10.226,-0.557827,2.43709,8.31237,0.0342838,-0.155155,0.436298,0
2024-11-29 18:18:10.229,-0.521934,2.44427,8.32912,0.0550526,-0.182643,0.441184,0
2024-11-29 18:18:10.231,-0.495613,2.45623,8.33151,0.065437,-0.19486,0.441184,0
2024-11-29 18:18:10.233,-0.476471,2.4682,8.3339,0.065437,-0.19486,0.441184,0
2024-11-29 18:18:10.237,-0.445364,2.52323,8.32912,0.0849841,-0.212575,0.446071,0
2024-11-29 18:18:10.238,-0.445364,2.52323,8.32912,0.0849841,-0.212575,0.446071,0
2024-11-29 18:18:10.240,-0.438186,2.54746,8.34347,0.0941468,-0.218072,0.446682,0
2024-11-29 18:18:10.243,-0.4334,2.57617,8.36022,0.111861,-0.229068,0.452791,0
2024-11-29 18:18:10.245,-0.397508,2.62164,8.38415,0.118581,-0.23762,0.454012,0
2024-11-29 18:18:10.247,-0.344866,2.67189,8.40808,0.118581,-0.23762,0.454012,0
2024-11-29 18:18:10.249,-0.277567,2.72213,8.44876,0.127743,-0.241896,0.455845,0
2024-11-29 18:18:10.252,-0.196211,2.76999,8.49901,0.135684,-0.248615,0.455845,0
2024-11-29 18:18:10.255,-0.119641,2.82263,8.53729,0.143625,-0.255334,0.453401,0
2024-11-29 18:18:10.257,-0.040678,2.87288,8.57558,0.156453,-0.254723,0.44546,0
2024-11-29 18:18:10.259,0.040678,2.92792,8.60429,0.156453,-0.254723,0.44546,0
2024-11-29 18:18:10.262,0.124427,3.0021,8.61865,0.169281,-0.240063,0.430189,0
2024-11-29 18:18:10.264,0.198604,3.07388,8.65693,0.169281,-0.240063,0.430189,0
2024-11-29 18:18:10.266,0.246461,3.14596,8.71227,0.181498,-0.214407,0.412475,0
2024-11-29 18:18:10.269,0.292223,3.22014,8.74816,0.19005,-0.198525,0.402701,0
2024-11-29 18:18:10.271,0.335294,3.28235,8.76252,0.196769,-0.183254,0.391095,0
2024-11-29 18:18:10.273,0.352044,3.34696,8.76491,0.196769,-0.183254,0.391095,0
2024-11-29 18:18:10.275,0.383151,3.41396,8.76491,0.202267,-0.167983,0.378878,0
2024-11-29 18:18:10.278,0.419043,3.47378,8.7697,0.208986,-0.152712,0.367272,0
2024-11-29 18:18:10.279,0.454935,3.52882,8.75055,0.21143,-0.138662,0.353833,0
2024-11-29 18:18:10.283,0.478864,3.57189,8.72902,0.214484,-0.126445,0.341005,0
2024-11-29 18:18:10.285,0.507577,3.60299,8.71466,0.215095,-0.105677,0.306798,0
2024-11-29 18:18:10.289,0.581755,3.68943,8.64258,0.213262,-0.0977356,0.28664,0
2024-11-29 18:18:10.290,0.581755,3.68943,8.64258,0.207154,-0.0916271,0.268926,0
2024-11-29 18:18:10.292,0.62004,3.71097,8.60429,0.199823,-0.0897945,0.251211,0
2024-11-29 18:18:10.295,0.65354,3.74208,8.59951,0.199823,-0.0897945,0.251211,0
2024-11-29 18:18:10.298,0.660718,3.83061,8.60429,0.183941,-0.0794101,0.210284,0
2024-11-29 18:18:10.299,0.663111,3.83061,8.60429,0.183941,-0.0794101,0.210284,0
2024-11-29 18:18:10.302,0.663111,3.87607,8.61865,0.158897,-0.0745234,0.176077,0
2024-11-29 18:18:10.303,0.65354,3.91436,8.64497,0.158897,-0.0745234,0.176077,0
2024-11-29 18:18:10.306,0.639183,3.95982,8.67368,0.147291,-0.0708583,0.158973,0
2024-11-29 18:18:10.309,0.624826,4.01246,8.72184,0.121635,-0.0623064,0.126598,0
2024-11-29 18:18:10.311,0.605683,4.06989,8.77448,0.109418,-0.0592522,0.113159,0
2024-11-29 18:18:10.312,0.576969,4.11296,8.82952,0.109418,-0.0592522,0.113159,0
2024-11-29 18:18:10.316,0.550648,4.15364,8.90369,0.0965902,-0.0531437,0.101553,0
2024-11-29 18:18:10.317,0.54347,4.18953,8.99223,0.0868167,-0.0488678,0.091169,0
2024-11-29 18:18:10.320,0.533899,4.2353,9.08315,0.0764323,-0.0458135,0.0813954,0
2024-11-29 18:18:10.323,0.524327,4.28315,9.1669,0.0568851,-0.0415376,0.0606266,0
2024-11-29 18:18:10.324,0.512363,4.32144,9.25065,0.0568851,-0.0415376,0.0606266,0
2024-11-29 18:18:10.328,0.493221,4.35494,9.31556,0.041614,-0.0458135,0.0404686,0
2024-11-29 18:18:10.329,0.462114,4.39083,9.36341,0.041614,-0.0458135,0.0404686,0
2024-11-29 18:18:10.331,0.442971,4.41476,9.42084,0.0342838,-0.0531437,0.0331385,0
2024-11-29 18:18:10.334,0.45015,4.42911,9.48306,0.0245102,-0.0610847,0.0239758,0
2024-11-29 18:18:10.337,0.442971,4.44826,9.54288,0.013515,-0.0739125,0.0154239,0
2024-11-29 18:18:10.339,0.41665,4.46022,9.61466,0.00374144,-0.087962,0.00687203,0
2024-11-29 18:18:10.341,0.392722,4.47697,9.7008,-0.00908635,-0.106898,0.00198525,0
2024-11-29 18:18:10.344,0.380758,4.47936,9.79891,-0.0176382,-0.128889,-0.00412322,0
2024-11-29 18:18:10.346,0.375972,4.48894,9.89971,-0.0292443,-0.153323,-0.00901,0
2024-11-29 18:18:10.348,0.385544,4.52483,10.0289,-0.0414613,-0.181422,-0.0157293,0
2024-11-29 18:18:10.350,0.411865,4.54397,10.1749,-0.050624,-0.207688,-0.0224486,0
2024-11-29 18:18:10.353,0.442971,4.54158,10.3089,-0.0597867,-0.236398,-0.0273354,0
2024-11-29 18:18:10.356,0.483649,4.55833,10.4647,-0.0738362,-0.289542,-0.0389415,0
2024-11-29 18:18:10.358,0.519542,4.57029,10.6083,-0.0787229,-0.313365,-0.0481042,0
2024-11-29 18:18:10.361,0.555434,4.57268,10.7614,-0.0787229,-0.313365,-0.0481042,0
2024-11-29 18:18:10.362,0.598505,4.58226,10.9146,-0.0805555,-0.334744,-0.0554344,0
2024-11-29 18:18:10.364,0.629611,4.59661,11.0369,-0.0829989,-0.353681,-0.0652079,0
2024-11-29 18:18:10.367,0.634397,4.59422,11.1494,-0.0805555,-0.373228,-0.0737598,0
2024-11-29 18:18:10.370,0.634397,4.58943,11.2666,-0.0811663,-0.40377,-0.0859767,0
2024-11-29 18:18:10.371,0.63679,4.59183,11.3695,-0.0811663,-0.40377,-0.0859767,0
2024-11-29 18:18:10.375,0.608076,4.59901,11.47,-0.0762796,-0.429426,-0.0963612,0
2024-11-29 18:18:10.377,0.567398,4.61815,11.578,-0.0762796,-0.429426,-0.0963612,0
2024-11-29 18:18:10.378,0.524327,4.62293,11.6402,-0.0762796,-0.441032,-0.0981937,0
2024-11-29 18:18:10.381,0.481256,4.6325,11.7096,-0.0732253,-0.451416,-0.100026,0
2024-11-29 18:18:10.384,0.431007,4.66361,11.8053,-0.0720036,-0.462411,-0.0988045,0
2024-11-29 18:18:10.386,0.375972,4.68993,11.8795,-0.0720036,-0.462411,-0.0988045,0
2024-11-29 18:18:10.388,0.325723,4.70429,11.9489,-0.0701711,-0.463022,-0.0951395,0
2024-11-29 18:18:10.390,0.275175,4.73061,12.0302,-0.0646735,-0.459357,-0.0908635,0
2024-11-29 18:18:10.393,0.236889,4.73779,12.1143,-0.0622301,-0.455081,-0.0859767,0
2024-11-29 18:18:10.396,0.217747,4.71865,12.1908,-0.0579541,-0.44714,-0.0804791,0
2024-11-29 18:18:10.397,0.191426,4.70907,12.253,-0.0512348,-0.435534,-0.0743707,0
2024-11-29 18:18:10.401,0.160319,4.7019,12.3177,-0.0432938,-0.424539,-0.0694839,0
2024-11-29 18:18:10.402,0.136391,4.69233,12.3894,-0.0353528,-0.412933,-0.0658188,0
2024-11-29 18:18:10.405,0.112463,4.6684,12.4301,-0.0249684,-0.398272,-0.0584886,0
2024-11-29 18:18:10.408,0.105284,4.63011,12.4636,-0.0151948,-0.38239,-0.0542127,0
2024-11-29 18:18:10.409,0.0885344,4.60618,12.4923,-0.00542127,-0.365898,-0.0505476,0
2024-11-29 18:18:10.412,0.081356,4.58465,12.5139,0.00557398,-0.351237,-0.0481042,0
2024-11-29 18:18:10.414,0.0933201,4.52961,12.5354,0.0184018,-0.332912,-0.0413849,0
2024-11-29 18:18:10.416,0.100499,4.45783,12.5378,0.0287862,-0.317641,-0.0407741,0
2024-11-29 18:18:10.418,0.11007,4.39322,12.5187,0.041614,-0.301148,-0.0377198,0
2024-11-29 18:18:10.421,0.122034,4.33819,12.4947,0.0538309,-0.287098,-0.0340547,0
2024-11-29 18:18:10.423,0.124427,4.2688,12.4684,0.0623828,-0.27427,-0.0303897,0
2024-11-29 18:18:10.425,0.129212,4.19432,12.4469,0.073378,-0.260221,-0.0273354,0
2024-11-29 18:18:10.428,0.131605,4.12732,12.411,0.081319,-0.249226,-0.0255029,0
2024-11-29 18:18:10.431,0.112463,4.06989,12.3607,0.0874275,-0.23762,-0.0212269,0
2024-11-29 18:18:10.434,0.0909273,4.02443,12.2913,0.0959794,-0.226013,-0.0157293,0
2024-11-29 18:18:10.435,0.066999,3.98375,12.2076,0.0959794,-0.226013,-0.0157293,0
2024-11-29 18:18:10.438,0.0430708,3.95982,12.1262,0.104531,-0.200358,-0.00106898,0
2024-11-29 18:18:10.440,0.0215354,3.91914,12.0494,0.105753,-0.193639,0.00626118,0
2024-11-29 18:18:10.442,0.0191426,3.85932,11.9776,0.105753,-0.191195,0.0135914,0
2024-11-29 18:18:10.445,0.0430708,3.81386,11.901,0.102699,-0.193639,0.0227541,0
2024-11-29 18:18:10.447,0.0765703,3.76122,11.8149,0.0996445,-0.204634,0.0300842,0
2024-11-29 18:18:10.450,0.12682,3.68943,11.712,0.0800973,-0.248615,0.0374144,0
2024-11-29 18:18:10.452,0.208176,3.61496,11.6139,0.0800973,-0.248615,0.0374144,0
2024-11-29 18:18:10.455,0.347258,3.5336,11.5301,0.0629936,-0.283433,0.0368035,0
2024-11-29 18:18:10.457,0.500399,3.44028,11.4485,0.0116825,-0.376893,0.0258083,0
2024-11-29 18:18:10.459,0.658325,3.335,11.403,0.0116825,-0.376893,0.0258083,0
2024-11-29 18:18:10.461,0.847657,3.22732,11.3934,-0.0176382,-0.436756,0.0123697,0
2024-11-29 18:18:10.464,1.05344,3.13879,11.415,-0.0518457,-0.507614,-0.00412322,0
2024-11-29 18:18:10.468,1.51795,2.97817,11.6163,-0.134921,-0.673765,-0.0536018,0
2024-11-29 18:18:10.468,1.51795,2.97817,11.6163,-0.134921,-0.673765,-0.0536018,0
2024-11-29 18:18:10.471,1.76441,2.89681,11.8077,-0.218607,-0.865571,-0.120795,0
2024-11-29 18:18:10.474,2.0016,2.82263,12.0637,-0.26381,-0.964528,-0.162333,0
2024-11-29 18:18:10.476,2.20977,2.73888,12.3344,-0.26381,-0.964528,-0.162333,0
2024-11-29 18:18:10.478,2.3988,2.65514,12.6625,-0.302293,-1.05615,-0.20387,0
2024-11-29 18:18:10.480,2.59532,2.54985,13.0358,-0.3365,-1.14167,-0.244186,0
2024-11-29 18:18:10.482,2.82024,2.42752,13.4189,-0.370097,-1.21925,-0.289389,0
2024-11-29 18:18:10.485,3.05952,2.30548,13.8188,-0.396364,-1.2895,-0.336424,0
2024-11-29 18:18:10.488,3.30389,2.14517,14.2496,-0.426295,-1.4038,-0.443933,0
2024-11-29 18:18:10.489,3.51207,1.98245,14.683,-0.426295,-1.4038,-0.443933,0
2024-11-29 18:18:10.491,3.69661,1.80269,15.09,-0.42996,-1.44656,-0.505018,0
2024-11-29 18:18:10.495,3.8689,1.5993,15.5091,-0.409802,-1.49177,-0.626577,0
2024-11-29 18:18:10.496,3.99811,1.40279,15.9254,-0.409802,-1.49177,-0.626577,0
2024-11-29 18:18:10.499,4.0675,1.21376,16.3301,-0.385368,-1.48932,-0.68705,0
2024-11-29 18:18:10.501,4.06511,1.04148,16.6965,-0.352383,-1.46916,-0.746913,0
2024-11-29 18:18:10.504,3.99811,0.8668,17.0004,-0.310845,-1.43007,-0.803722,0
2024-11-29 18:18:10.507,3.89043,0.689432,17.2448,-0.258923,-1.36715,-0.854423,0
2024-11-29 18:18:10.508,3.766,0.505185,17.4386,-0.197838,-1.28767,-0.899625,0
2024-11-29 18:18:10.510,3.64128,0.292223,17.563,-0.131867,-1.1936,-0.93872,0
2024-11-29 18:18:10.514,3.48335,0.0957129,17.6252,-0.0591758,-1.08364,-0.971094,0
2024-11-29 18:18:10.515,3.3015,-0.0717847,17.6181,0.0153475,-0.960252,-0.997361,1
2024-11-29 18:18:10.517,3.11725,-0.241675,17.508,0.0904818,-0.824033,-1.01385,0
2024-11-29 18:18:10.520,2.91356,-0.41665,17.3213,0.171114,-0.676208,-1.02363,0
2024-11-29 18:18:10.523,2.67906,-0.581755,17.0578,0.250524,-0.517998,-1.02424,0
2024-11-29 18:18:10.525,2.4012,-0.725324,16.7181,0.328712,-0.351237,-1.01569,0
2024-11-29 18:18:10.527,2.09731,-0.847657,16.299,0.403236,-0.1802,-0.998583,0
2024-11-29 18:18:10.530,1.76441,-0.936192,15.801,0.531513,0.17287,-0.935054,0
2024-11-29 18:18:10.531,1.41984,-0.998405,15.2504,0.531513,0.17287,-0.935054,0
2024-11-29 18:18:10.535,1.08455,-1.04626,14.683,0.632914,0.503949,-0.838541,0
2024-11-29 18:18:10.536,0.76361,-1.07258,14.1251,0.632914,0.503949,-0.838541,0
2024-11-29 18:18:10.540,0.481256,-1.08455,13.5817,0.667732,0.650552,-0.781732,0
2024-11-29 18:18:10.541,0.265603,-1.1013,13.0358,0.695831,0.781884,-0.719425,0
2024-11-29 18:18:10.544,0.0933201,-1.09651,12.466,0.719044,0.985297,-0.593591,0
2024-11-29 18:18:10.547,-0.066999,-1.0678,11.8962,0.719044,0.985297,-0.593591,0
2024-11-29 18:18:10.548,-0.215354,-1.03669,11.3408,0.719044,1.0641,-0.530674,0
2024-11-29 18:18:10.550,-0.342473,-0.998405,10.8141,0.719044,1.0641,-0.530674,0
2024-11-29 18:18:10.554,-0.423829,-0.94337,10.3041,0.692777,1.17038,-0.410337,0
2024-11-29 18:18:10.556,-0.478864,-0.881157,9.83031,0.6659,1.20154,-0.352917,0
2024-11-29 18:18:10.557,-0.517149,-0.82343,9.42084,0.633525,1.21925,-0.296719,0
2024-11-29 18:18:10.561,-0.512363,-0.725324,9.04726,0.591987,1.22414,-0.245408,0
2024-11-29 18:18:10.563,-0.488435,-0.605683,8.7338,0.548006,1.21681,-0.195929,0
2024-11-29 18:18:10.564,-0.438186,-0.517149,8.46311,0.499749,1.19909,-0.152559,0
2024-11-29 18:18:10.567,-0.359223,-0.419043,8.23819,0.450882,1.17405,-0.112854,0
2024-11-29 18:18:10.569,-0.267996,-0.294616,8.07279,0.394684,1.13557,-0.0749815,0
2024-11-29 18:18:10.572,-0.174676,-0.184247,7.95314,0.340318,1.09158,-0.0419957,0
2024-11-29 18:18:10.575,-0.0502493,-0.0909273,7.9005,0.286564,1.03905,-0.0145076,0
2024-11-29 18:18:10.577,0.0981057,0.0191426,7.91725,0.232809,0.981021,0.00870457,0
2024-11-29 18:18:10.579,0.256032,0.143569,7.99861,0.185774,0.916882,0.0294734,0
2024-11-29 18:18:10.582,0.426222,0.248854,8.12543,0.144847,0.850299,0.0459663,0
2024-11-29 18:18:10.583,0.612862,0.337687,8.29322,0.108196,0.780663,0.0563507,0
2024-11-29 18:18:10.587,0.811466,0.41665,8.50858,0.0831516,0.712859,0.0624591,0
2024-11-29 18:18:10.588,0.99362,0.493221,8.73859,0.0636045,0.648109,0.0649025,0
2024-11-29 18:18:10.590,1.14676,0.586541,8.95155,0.0556635,0.587635,0.0612374,0
2024-11-29 18:18:10.593,1.26401,0.65354,9.14297,0.0538309,0.534491,0.0569615,0
2024-11-29 18:18:10.596,1.3669,0.684646,9.30359,0.0752106,0.436145,0.0392469,0
2024-11-29 18:18:10.597,1.47966,0.706182,9.42563,0.0752106,0.436145,0.0392469,0
2024-11-29 18:18:10.600,1.59691,0.694218,9.52373,0.0965902,0.393386,0.0264191,0
2024-11-29 18:18:10.602,1.70937,0.679861,9.59552,0.119192,0.354291,0.0135914,0
2024-11-29 18:18:10.605,1.82184,0.675075,9.63141,0.144847,0.31703,-0.00229068,0
2024-11-29 18:18:10.607,1.92473,0.663111,9.65295,0.174779,0.282211,-0.0181727,0
2024-11-29 18:18:10.609,1.99202,0.655932,9.6362,0.207154,0.246171,-0.0383307,0
2024-11-29 18:18:10.613,2.02792,0.679861,9.5692,0.207154,0.246171,-0.0383307,0
2024-11-29 18:18:10.614,2.04945,0.691825,9.51177,0.266406,0.182643,-0.0749815,0
2024-11-29 18:18:10.617,2.0662,0.708575,9.43281,0.295726,0.153323,-0.0908635,0
2024-11-29 18:18:10.619,2.07099,0.742074,9.31077,0.321993,0.124613,-0.108578,0
2024-11-29 18:18:10.621,2.07099,0.766002,9.17408,0.347038,0.0952922,-0.125071,0
2024-11-29 18:18:10.623,2.08774,0.789931,9.02094,0.369639,0.0671932,-0.143396,0
2024-11-29 18:18:10.626,2.08295,0.813859,8.8678,0.390408,0.0403159,-0.157446,0
2024-11-29 18:18:10.629,2.0662,0.847657,8.7027,0.405068,0.0122169,-0.172106,0
2024-11-29 18:18:10.631,2.05663,0.888335,8.53011,0.417896,-0.0140495,-0.18921,0
2024-11-29 18:18:10.633,2.03988,0.921835,8.35783,0.425226,-0.0421485,-0.206314,0
2024-11-29 18:18:10.638,1.95344,0.96012,8.06321,0.432556,-0.0940705,-0.239299,0
2024-11-29 18:18:10.638,1.95344,0.96012,8.06321,0.432556,-0.0940705,-0.239299,0
2024-11-29 18:18:10.640,1.89123,0.991227,7.91964,0.431335,-0.120337,-0.254571,0
2024-11-29 18:18:10.642,1.81705,1.0319,7.77129,0.427669,-0.141106,-0.274118,0
2024-11-29 18:18:10.646,1.75244,1.07498,7.63968,0.421561,-0.160653,-0.291221,0
2024-11-29 18:18:10.648,1.66869,1.11326,7.54846,0.413009,-0.178367,-0.306493,0
2024-11-29 18:18:10.649,1.58255,1.15633,7.45753,0.404457,-0.192417,-0.322986,0
2024-11-29 18:18:10.653,1.51077,1.18983,7.3666,0.381856,-0.207688,-0.35475,0
2024-11-29 18:18:10.655,1.43898,1.21376,7.302,0.381856,-0.207688,-0.35475,0
2024-11-29 18:18:10.657,1.35494,1.25444,7.24457,0.366585,-0.213797,-0.368799,0
2024-11-29 18:18:10.659,1.28315,1.27597,7.18714,0.356811,-0.213186,-0.382849,0
2024-11-29 18:18:10.662,1.23769,1.30229,7.15364,0.332988,-0.207077,-0.404839,0
2024-11-29 18:18:10.663,1.17308,1.32383,7.14646,0.332988,-0.207077,-0.404839,0
2024-11-29 18:18:10.667,1.09651,1.34297,7.12971,0.323215,-0.198525,-0.416445,0
2024-11-29 18:18:10.668,1.03669,1.37169,7.11775,0.315274,-0.191195,-0.425608,0
2024-11-29 18:18:10.671,0.972084,1.37408,7.10818,0.306722,-0.180811,-0.431105,0
2024-11-29 18:18:10.673,0.921835,1.37169,7.07468,0.29817,-0.16554,-0.437214,0
2024-11-29 18:18:10.675,0.902692,1.39322,7.04357,0.29084,-0.147825,-0.442101,0
2024-11-29 18:18:10.679,0.88355,1.40788,7.00977,0.286564,-0.132554,-0.447598,0
2024-11-29 18:18:10.681,0.857229,1.38844,6.9691,0.277401,-0.087962,-0.453707,0
2024-11-29 18:18:10.682,0.842872,1.37886,6.93081,0.277401,-0.087962,-0.453707,0
2024-11-29 18:18:10.686,0.835394,1.37886,6.8686,0.268238,-0.0378725,-0.457372,0
2024-11-29 18:18:10.687,0.811466,1.37886,6.77767,0.268238,-0.0378725,-0.457372,0
2024-11-29 18:18:10.690,0.787538,1.39083,6.68914,0.254189,0.015882,-0.457983,0
2024-11-29 18:18:10.693,0.766002,1.41266,6.6341,0.254189,0.015882,-0.457983,0
2024-11-29 18:18:10.695,0.754038,1.43659,6.56949,0.239528,0.0665824,-0.454928,0
2024-11-29 18:18:10.697,0.749253,1.46052,6.49771,0.239528,0.0665824,-0.454928,0
2024-11-29 18:18:10.700,0.744467,1.49163,6.4352,0.224868,0.118504,-0.451263,0
2024-11-29 18:18:10.702,0.734896,1.51555,6.38016,0.224868,0.118504,-0.451263,0
2024-11-29 18:18:10.704,0.718146,1.53709,6.30598,0.217538,0.142938,-0.447598,0
2024-11-29 18:18:10.706,0.715753,1.5658,6.22941,0.217538,0.142938,-0.447598,0
2024-11-29 18:18:10.709,0.732503,1.59452,6.15524,0.191272,0.211964,-0.438436,0
2024-11-29 18:18:10.712,0.749253,1.59452,6.06431,0.179055,0.230289,-0.436603,0
2024-11-29 18:18:10.714,0.76361,1.59452,6.0021,0.179055,0.230289,-0.436603,0
2024-11-29 18:18:10.718,0.813859,1.63041,5.85105,0.157064,0.257778,-0.435381,0
2024-11-29 18:18:10.718,0.813859,1.63041,5.85105,0.157064,0.257778,-0.435381,0
2024-11-29 18:18:10.720,0.852443,1.6352,5.79362,0.145458,0.266329,-0.434771,0
2024-11-29 18:18:10.723,0.871586,1.6328,5.73859,0.130187,0.270605,-0.437214,0
2024-11-29 18:18:10.726,0.888335,1.65194,5.67877,0.100866,0.269994,-0.442101,0
2024-11-29 18:18:10.727,0.9003,1.69502,5.62134,0.100866,0.269994,-0.442101,0
2024-11-29 18:18:10.730,0.9003,1.74048,5.57348,0.085595,0.269994,-0.446987,0
2024-11-29 18:18:10.732,0.890728,1.78116,5.53759,0.0672696,0.266329,-0.450042,0
2024-11-29 18:18:10.734,0.881157,1.84576,5.52084,0.0538309,0.268773,-0.457372,0
2024-11-29 18:18:10.737,0.864407,1.91276,5.51845,0.0391706,0.269994,-0.461648,0
2024-11-29 18:18:10.740,0.835394,1.9657,5.50409,0.0159584,0.276103,-0.467145,0
2024-11-29 18:18:10.741,0.813859,2.02313,5.50648,0.0159584,0.276103,-0.467145,0
2024-11-29 18:18:10.744,0.785145,2.08774,5.51845,0.00496313,0.278546,-0.4702,0
2024-11-29 18:18:10.747,0.74686,2.13799,5.53759,-0.0151948,0.277936,-0.478752,0
2024-11-29 18:18:10.749,0.73011,2.17149,5.5687,-0.0151948,0.277936,-0.478752,0
2024-11-29 18:18:10.752,0.718146,2.19063,5.59262,-0.022525,0.27366,-0.483638,0
2024-11-29 18:18:10.754,0.706182,2.19063,5.60698,-0.0316877,0.271216,-0.489747,0
2024-11-29 18:18:10.755,0.701396,2.19781,5.61416,-0.0390179,0.264497,-0.493412,0
2024-11-29 18:18:10.759,0.699003,2.21216,5.62373,-0.042683,0.257167,-0.500742,0
2024-11-29 18:18:10.760,0.699003,2.22891,5.62373,-0.0494023,0.248004,-0.508072,0
2024-11-29 18:18:10.762,0.684646,2.24566,5.62612,-0.0542891,0.239452,-0.516624,0
2024-11-29 18:18:10.765,0.65354,2.24566,5.6357,-0.0603975,0.230289,-0.523954,0
2024-11-29 18:18:10.767,0.632004,2.23131,5.64527,-0.066506,0.216851,-0.531895,0
2024-11-29 18:18:10.770,0.600898,2.22891,5.64766,-0.0713928,0.205245,-0.540447,0
2024-11-29 18:18:10.773,0.567398,2.23609,5.65962,-0.0799446,0.189974,-0.545945,0
2024-11-29 18:18:10.774,0.533899,2.24327,5.68834,-0.0860531,0.174091,-0.551442,0
2024-11-29 18:18:10.780,0.445364,2.24327,5.74816,-0.0988809,0.145382,-0.558162,0
2024-11-29 18:18:10.780,0.445364,2.24327,5.74816,-0.0988809,0.145382,-0.558162,0
2024-11-29 18:18:10.781,0.380758,2.25763,5.79841,-0.103768,0.131332,-0.558773,0
2024-11-29 18:18:10.784,0.311366,2.26959,5.83669,-0.111098,0.119726,-0.560605,0
2024-11-29 18:18:10.787,0.265603,2.27438,5.88455,-0.117817,0.106287,-0.55694,0
2024-11-29 18:18:10.789,0.222533,2.28156,5.9327,-0.123315,0.0971247,-0.551442,0
2024-11-29 18:18:10.792,0.177069,2.26959,5.98056,-0.125758,0.087962,-0.545945,0
2024-11-29 18:18:10.794,0.138784,2.26241,6.05474,-0.129423,0.0781884,-0.540447,0
2024-11-29 18:18:10.795,0.0957129,2.24566,6.13131,-0.133699,0.0665824,-0.532506,0
2024-11-29 18:18:10.799,0.040678,2.23131,6.19352,-0.13431,0.0580305,-0.525176,0
2024-11-29 18:18:10.802,-0.0574277,2.26959,6.3347,-0.137364,0.0390942,-0.508072,0
2024-11-29 18:18:10.802,-0.0574277,2.26959,6.3347,-0.137364,0.0390942,-0.508072,0
2024-11-29 18:18:10.805,-0.12682,2.27199,6.42084,-0.137975,0.0317641,-0.494634,0
2024-11-29 18:18:10.808,-0.205783,2.29352,6.47378,-0.136753,0.0207688,-0.465924,0
2024-11-29 18:18:10.810,-0.263211,2.32463,6.52882,-0.136753,0.0207688,-0.465924,0
2024-11-29 18:18:10.813,-0.337687,2.34856,6.61496,-0.134921,0.015882,-0.44882,0
2024-11-29 18:18:10.814,-0.414257,2.37727,6.72024,-0.134921,0.0116061,-0.431716,0
2024-11-29 18:18:10.818,-0.478864,2.41795,6.82792,-0.128202,-0.000610847,-0.393233,0
2024-11-29 18:18:10.820,-0.548256,2.44666,6.90928,-0.124536,-0.00794101,-0.372464,0
2024-11-29 18:18:10.821,-0.586541,2.46341,6.99302,-0.124536,-0.00794101,-0.372464,0
2024-11-29 18:18:10.824,-0.617647,2.49452,7.09143,-0.120871,-0.0134386,-0.350474,0
2024-11-29 18:18:10.827,-0.648754,2.52592,7.18236,-0.120261,-0.0183254,-0.327261,0
2024-11-29 18:18:10.831,-0.699003,2.55464,7.3355,-0.110487,-0.0213797,-0.281448,0
2024-11-29 18:18:10.832,-0.699003,2.55464,7.3355,-0.110487,-0.0213797,-0.281448,0
2024-11-29 18:18:10.834,-0.739681,2.59053,7.44317,-0.104989,-0.015882,-0.233191,0
2024-11-29 18:18:10.836,-0.782752,2.61924,7.53171,-0.104989,-0.015882,-0.233191,0
2024-11-29 18:18:10.839,-0.799502,2.65274,7.59422,-0.0958267,-0.00733017,-0.180047,0
2024-11-29 18:18:10.841,-0.80668,2.69342,7.67079,-0.0958267,-0.00733017,-0.180047,0
2024-11-29 18:18:10.843,-0.825823,2.72692,7.73779,-0.0921616,-0.00122169,-0.155002,0
2024-11-29 18:18:10.846,-0.818644,2.76999,7.8,-0.0897182,0.00366508,-0.125682,0
2024-11-29 18:18:10.848,-0.799502,2.81785,7.8694,-0.0860531,0.0140495,-0.0719273,0
2024-11-29 18:18:10.850,-0.780359,2.85374,7.92204,-0.0860531,0.0140495,-0.0719273,0
2024-11-29 18:18:10.853,-0.749253,2.88485,7.95793,-0.0848314,0.020158,-0.0224486,0
2024-11-29 18:18:10.854,-0.71336,2.92552,8.001,-0.0848314,0.020158,-0.0224486,0
2024-11-29 18:18:10.858,-0.665504,2.96142,8.03211,-0.0939941,0.0262664,0.0239758,0
2024-11-29 18:18:10.860,-0.624826,3.01884,8.07039,-0.0939941,0.0262664,0.0239758,0
2024-11-29 18:18:10.862,-0.586541,3.09571,8.14008,-0.0988809,0.0244339,0.042912,0
2024-11-29 18:18:10.864,-0.550648,3.15314,8.2023,-0.106822,0.0213797,0.0618483,0
2024-11-29 18:18:10.868,-0.486042,3.32782,8.33869,-0.123315,0.0189363,0.0954449,0
2024-11-29 18:18:10.869,-0.486042,3.32782,8.33869,-0.123315,0.0189363,0.0954449,0
2024-11-29 18:18:10.872,-0.445364,3.40917,8.42483,-0.133699,0.0207688,0.109494,0
2024-11-29 18:18:10.874,-0.404686,3.50728,8.53011,-0.14164,0.0213797,0.122322,0
2024-11-29 18:18:10.876,-0.387936,3.60778,8.63061,-0.149581,0.023823,0.133317,0
2024-11-29 18:18:10.878,-0.387936,3.70858,8.73141,-0.157522,0.0305424,0.144313,0
2024-11-29 18:18:10.881,-0.371187,3.79711,8.85823,-0.169128,0.0445919,0.160806,0
2024-11-29 18:18:10.883,-0.342473,3.85932,8.98983,-0.169128,0.0445919,0.160806,0
2024-11-29 18:18:10.885,-0.304188,3.93829,9.12623,-0.174626,0.0494786,0.166914,0
2024-11-29 18:18:10.887,-0.265603,4.01964,9.27249,-0.17768,0.0561979,0.170579,0
2024-11-29 18:18:10.890,-0.229711,4.07707,9.41845,-0.178902,0.0592522,0.174244,0
2024-11-29 18:18:10.893,-0.18664,4.15125,9.5668,-0.178902,0.0653607,0.176077,0
2024-11-29 18:18:10.894,-0.16989,4.21376,9.70319,-0.178902,0.0702474,0.174244,0
2024-11-29 18:18:10.897,-0.162712,4.25922,9.82792,-0.175848,0.0739125,0.172412,0
2024-11-29 18:18:10.899,-0.150748,4.31426,9.94517,-0.17035,0.0781884,0.169357,0
2024-11-29 18:18:10.902,-0.155533,4.35733,10.0672,-0.167296,0.0818535,0.165081,0
2024-11-29 18:18:10.905,-0.155533,4.40279,10.1845,-0.163631,0.0873512,0.158362,0
2024-11-29 18:18:10.907,-0.165105,4.45783,10.3113,-0.157522,0.0897945,0.152254,0
2024-11-29 18:18:10.908,-0.184247,4.49133,10.4456,-0.151414,0.0934596,0.147978,0
2024-11-29 18:18:10.911,-0.215354,4.53201,10.5532,-0.142862,0.0940705,0.143702,0
2024-11-29 18:18:10.914,-0.272782,4.57986,10.6681,-0.136143,0.095903,0.140037,0
2024-11-29 18:18:10.916,-0.325723,4.61097,10.7925,-0.136143,0.095903,0.140037,0
2024-11-29 18:18:10.919,-0.383151,4.64447,10.905,-0.103157,0.095903,0.134539,0
2024-11-29 18:18:10.921,-0.4334,4.67797,11.0201,-0.103157,0.095903,0.134539,0
2024-11-29 18:18:10.923,-0.469292,4.68993,11.1374,-0.0891073,0.095903,0.136983,0
2024-11-29 18:18:10.925,-0.483649,4.69472,11.2451,-0.0768904,0.0922379,0.137593,0
2024-11-29 18:18:10.928,-0.488435,4.7019,11.3599,-0.0622301,0.0891837,0.136983,0
2024-11-29 18:18:10.930,-0.481256,4.6995,11.4676,-0.0439046,0.0861295,0.137593,0
2024-11-29 18:18:10.932,-0.4669,4.68993,11.5493,-0.0261901,0.0855186,0.138815,0
2024-11-29 18:18:10.935,-0.440578,4.67318,11.5851,-0.0133623,0.0818535,0.137593,0
2024-11-29 18:18:10.938,-0.419043,4.64686,11.6234,0.0184018,0.0775776,0.138815,0
2024-11-29 18:18:10.940,-0.407079,4.61097,11.6641,0.0300079,0.0757451,0.136983,0
2024-11-29 18:18:10.941,-0.383151,4.57508,11.6833,0.0300079,0.0757451,0.136983,0
2024-11-29 18:18:10.944,-0.380758,4.53918,11.6856,0.0355055,0.0726908,0.134539,0
2024-11-29 18:18:10.947,-0.380758,4.50568,11.7072,0.0397814,0.0684149,0.13515,0
2024-11-29 18:18:10.948,-0.368794,4.48176,11.755,0.0428357,0.0665824,0.134539,0
2024-11-29 18:18:10.952,-0.373579,4.44826,11.7933,0.0379489,0.0604739,0.135761,0
2024-11-29 18:18:10.954,-0.390329,4.41954,11.846,0.0330621,0.0586413,0.140648,0
2024-11-29 18:18:10.956,-0.3999,4.41715,11.9273,0.0330621,0.0586413,0.140648,0
2024-11-29 18:18:10.959,-0.409472,4.41715,12.023,0.0275645,0.0555871,0.144313,0
2024-11-29 18:18:10.961,-0.411865,4.40997,12.1167,0.021456,0.0543654,0.149199,0
2024-11-29 18:18:10.963,-0.404686,4.39801,12.2124,0.0153475,0.0537546,0.154086,0
2024-11-29 18:18:10.965,-0.407079,4.37408,12.3296,0.00679568,0.0555871,0.160806,0
2024-11-29 18:18:10.967,-0.395115,4.34297,12.4732,7.63559e-05,0.0610847,0.166914,0
2024-11-29 18:18:10.971,-0.354437,4.29272,12.6239,-0.00175619,0.067804,0.174244,0
2024-11-29 18:18:10.973,-0.318545,4.22333,12.7654,-0.00847551,0.0824644,0.184629,0
2024-11-29 18:18:10.974,-0.270389,4.15843,12.9138,-0.00847551,0.0824644,0.184629,0
2024-11-29 18:18:10.978,-0.229711,4.101,13.0789,-0.0109189,0.116061,0.198678,0
2024-11-29 18:18:10.980,-0.217747,4.06032,13.2467,-0.00542127,0.141717,0.204176,0
2024-11-29 18:18:10.981,-0.193819,4.03879,13.395,-0.00542127,0.141717,0.204176,0
2024-11-29 18:18:10.985,-0.184247,4.01246,13.5242,0.00618483,0.211964,0.221279,0
2024-11-29 18:18:10.987,-0.210568,3.97897,13.6487,0.00618483,0.211964,0.221279,0
2024-11-29 18:18:10.989,-0.229711,3.95504,13.771,0.0171801,0.257167,0.230442,0
2024-11-29 18:18:10.991,-0.234497,3.94307,13.8763,0.0300079,0.308478,0.24327,0
2024-11-29 18:18:10.994,-0.248854,3.92632,13.9337,0.0422248,0.366508,0.253043,0
2024-11-29 18:18:10.996,-0.285045,3.89761,13.9792,0.0562743,0.428204,0.263428,0
2024-11-29 18:18:10.999,-0.325723,3.88564,14.0055,0.0697129,0.493565,0.276256,0
2024-11-29 18:18:11.001,-0.364008,3.87847,13.9816,0.0868167,0.568088,0.290916,0
2024-11-29 18:18:11.004,-0.404686,3.8689,13.9146,0.10331,0.647498,0.303744,0
2024-11-29 18:18:11.006,-0.459721,3.8665,13.8165,0.119192,0.731184,0.317793,0
2024-11-29 18:18:11.008,-0.541077,3.85454,13.6917,0.136295,0.818535,0.331232,0
2024-11-29 18:18:11.010,-0.641576,3.8354,13.5242,0.147291,0.904054,0.347725,0
2024-11-29 18:18:11.013,-0.761217,3.83061,13.2993,0.156453,0.990183,0.362996,0
2024-11-29 18:18:11.014,-0.881157,3.82104,13.0502,0.160118,1.07082,0.378878,0
2024-11-29 18:18:11.019,-1.11087,3.78275,12.4852,0.154621,1.20459,0.411864,0
2024-11-29 18:18:11.020,-1.11087,3.78275,12.4852,0.154621,1.20459,0.411864,0
2024-11-29 18:18:11.024,-1.2018,3.77557,11.9417,0.120413,1.28828,0.434465,0
2024-11-29 18:18:11.024,-1.28076,3.766,11.9417,0.120413,1.28828,0.434465,0
2024-11-29 18:18:11.026,-1.35494,3.76361,11.6498,0.0953685,1.3066,0.44485,0
2024-11-29 18:18:11.029,-1.44855,3.77079,11.3695,0.0611611,1.30843,0.450958,0
2024-11-29 18:18:11.031,-1.52752,3.7684,11.1159,0.0202343,1.29194,0.457066,0
2024-11-29 18:18:11.034,-1.57537,3.76361,10.9146,-0.0842206,1.18993,0.456456,0
2024-11-29 18:18:11.036,-1.63759,3.87847,10.7495,-0.0842206,1.18993,0.456456,0
2024-11-29 18:18:11.038,-1.62084,4.00529,10.6561,-0.150803,1.0983,0.454012,0
2024-11-29 18:18:11.040,-1.52513,4.01007,10.6753,-0.221661,0.987129,0.443628,0
2024-11-29 18:18:11.043,-1.42702,4.00289,10.8117,-0.294963,0.854575,0.427135,0
2024-11-29 18:18:11.047,-1.1659,3.97418,11.4174,-0.367654,0.538767,0.377045,0
2024-11-29 18:18:11.048,-1.1659,3.97418,11.4174,-0.367654,0.538767,0.377045,0
2024-11-29 18:18:11.052,-0.792323,3.93111,12.1167,-0.568012,0.208299,0.30802,0
2024-11-29 18:18:11.052,-0.792323,3.93111,12.1167,-0.568012,0.208299,0.30802,0
2024-11-29 18:18:11.055,-0.517149,3.85215,12.7391,-0.621766,0.0445919,0.26526,0
2024-11-29 18:18:11.057,-0.275175,3.69183,13.4572,-0.660326,-0.11545,0.22189,0
2024-11-29 18:18:11.060,-0.0789631,3.47617,14.1586,-0.68476,-0.269384,0.177298,0
2024-11-29 18:18:11.062,0.0741775,3.22493,14.805,-0.695144,-0.409879,0.132707,0
2024-11-29 18:18:11.065,0.232104,2.99013,15.4155,-0.674375,-0.638946,0.050853,0
2024-11-29 18:18:11.067,0.385544,2.78435,16.0478,-0.674375,-0.638946,0.050853,0
2024-11-29 18:18:11.070,0.524327,2.5666,16.7396,-0.64139,-0.729352,0.00992627,0
2024-11-29 18:18:11.071,0.646361,2.34616,17.4147,-0.590002,-0.808762,-0.0346656,0
2024-11-29 18:18:11.074,0.74686,2.14038,18.0156,-0.440955,-0.927877,-0.107967,0
2024-11-29 18:18:11.077,0.82343,1.92473,18.516,-0.440955,-0.927877,-0.107967,0
2024-11-29 18:18:11.078,0.890728,1.69262,18.9183,-0.348107,-0.962084,-0.143396,0
2024-11-29 18:18:11.080,0.964906,1.47009,19.2509,-0.239987,-0.97308,-0.176382,0
2024-11-29 18:18:11.084,1.00558,1.24008,19.4761,0.00557398,-0.93032,-0.226472,0
2024-11-29 18:18:11.086,1.01037,0.981655,19.5933,0.00557398,-0.93032,-0.226472,1
2024-11-29 18:18:11.087,0.99362,0.73011,19.5838,0.138128,-0.87962,-0.245408,0
2024-11-29 18:18:11.090,0.938585,0.471685,19.433,0.272514,-0.809983,-0.259457,0
2024-11-29 18:18:11.093,0.876371,0.191426,19.1671,0.537011,-0.642611,-0.26862,0
2024-11-29 18:18:11.095,0.775574,-0.0717847,18.7864,0.537011,-0.642611,-0.26862,0
2024-11-29 18:18:11.097,0.629611,-0.30658,18.3102,0.657959,-0.552817,-0.263733,0
2024-11-29 18:18:11.100,0.457328,-0.507577,17.75,0.772187,-0.46119,-0.252127,0
2024-11-29 18:18:11.102,0.236889,-0.663111,17.1033,0.87542,-0.36773,-0.23258,0
2024-11-29 18:18:11.104,-0.0143569,-0.74686,16.4067,0.96155,-0.278546,-0.205092,0
2024-11-29 18:18:11.106,-0.265603,-0.773181,15.6957,1.02935,-0.193028,-0.170885,0
2024-11-29 18:18:11.109,-0.474078,-0.782752,14.9584,1.08616,-0.113007,-0.129958,0
2024-11-29 18:18:11.111,-0.617647,-0.780359,14.1969,1.12342,-0.0397051,-0.0878093,0
2024-11-29 18:18:11.114,-0.715753,-0.751645,13.4453,1.14725,0.0232122,-0.0432174,0
2024-11-29 18:18:11.116,-0.777966,-0.720539,12.7152,1.15091,0.0769668,0.000152712,0
2024-11-29 18:18:11.119,-0.799502,-0.699003,12.047,1.13503,0.120337,0.0392469,0
2024-11-29 18:18:11.120,-0.816252,-0.634397,11.4102,1.11426,0.153934,0.0716218,0
2024-11-29 18:18:11.124,-0.794716,-0.562612,10.7758,1.07639,0.177146,0.103386,0
2024-11-29 18:18:11.125,-0.734896,-0.495613,10.2203,1.02874,0.189363,0.126598,0
2024-11-29 18:18:11.127,-0.648754,-0.426222,9.7343,0.966437,0.189974,0.14248,0
2024-11-29 18:18:11.131,-0.538684,-0.342473,9.27727,0.893135,0.177757,0.151643,0
2024-11-29 18:18:11.132,-0.452543,-0.248854,8.88694,0.813725,0.153934,0.155919,0
2024-11-29 18:18:11.136,-0.385544,-0.141177,8.56122,0.62986,0.095903,0.152254,0
2024-11-29 18:18:11.137,-0.289831,-0.0167498,8.28126,0.62986,0.095903,0.152254,0
2024-11-29 18:18:11.139,-0.172283,0.0837488,8.07518,0.531513,0.0665824,0.141258,0
2024-11-29 18:18:11.142,-0.0478565,0.18664,7.94118,0.429502,0.0409268,0.129652,0
2024-11-29 18:18:11.147,0.241675,0.419043,7.83829,0.130798,-0.00794101,0.0618483,0
2024-11-29 18:18:11.147,0.241675,0.419043,7.83829,0.130798,-0.00794101,0.0618483,0
2024-11-29 18:18:11.150,0.385544,0.52672,7.88375,0.130798,-0.00794101,0.0618483,0
2024-11-29 18:18:11.152,0.531506,0.62004,8.001,-0.050624,-0.00855186,0.0038178,0
2024-11-29 18:18:11.154,0.667897,0.689432,8.15923,-0.050624,-0.00855186,0.0038178,0
2024-11-29 18:18:11.156,0.797109,0.754038,8.36022,-0.129423,-0.000610847,-0.0322222,0
2024-11-29 18:18:11.159,0.936192,0.780359,8.60668,-0.201503,0.0109953,-0.0700947,0
2024-11-29 18:18:11.160,1.05344,0.782752,8.84866,-0.262588,0.0299315,-0.110411,0
2024-11-29 18:18:11.163,1.12283,0.780359,9.0688,-0.313288,0.0531437,-0.155002,0
2024-11-29 18:18:11.166,1.15155,0.74686,9.27009,-0.387812,0.114839,-0.242964,0
2024-11-29 18:18:11.168,1.13001,0.703789,9.43281,-0.387812,0.114839,-0.242964,0
2024-11-29 18:18:11.171,1.05583,0.672682,9.5692,-0.433625,0.183254,-0.327261,0
2024-11-29 18:18:11.173,0.950549,0.63679,9.65534,-0.433625,0.183254,-0.327261,0
2024-11-29 18:18:11.175,0.789931,0.600898,9.68645,-0.448286,0.213186,-0.365134,0
2024-11-29 18:18:11.180,0.569791,0.567398,9.67927,-0.462335,0.268773,-0.431716,0
2024-11-29 18:18:11.180,0.332901,0.52672,9.67927,-0.462335,0.268773,-0.431716,0
2024-11-29 18:18:11.182,0.0933201,0.507577,9.63859,-0.464168,0.287709,-0.456761,0
2024-11-29 18:18:11.184,-0.131605,0.507577,9.58355,-0.465389,0.306034,-0.475697,0
2024-11-29 18:18:11.187,-0.342473,0.538684,9.54527,-0.466,0.31703,-0.490968,0
2024-11-29 18:18:11.190,-0.536291,0.579362,9.54288,-0.458059,0.32436,-0.508072,0
2024-11-29 18:18:11.192,-0.715753,0.60329,9.52852,-0.458059,0.32436,-0.508072,0
2024-11-29 18:18:11.193,-0.921835,0.632004,9.44716,-0.448896,0.326192,-0.508072,0
2024-11-29 18:18:11.196,-1.14197,0.648754,9.32034,-0.436679,0.328025,-0.505629,0
2024-11-29 18:18:11.199,-1.33819,0.643968,9.20758,-0.417132,0.329247,-0.490358,0
2024-11-29 18:18:11.201,-1.48923,0.617647,9.10708,-0.417132,0.329247,-0.490358,0
2024-11-29 18:18:11.204,-1.59452,0.605683,9.03051,-0.405526,0.322527,-0.475697,0
2024-11-29 18:18:11.205,-1.68544,0.605683,8.97787,-0.390866,0.309089,-0.457983,0
2024-11-29 18:18:11.209,-1.77876,0.605683,8.90848,-0.377427,0.291985,-0.439046,0
2024-11-29 18:18:11.210,-1.87687,0.610469,8.82473,-0.363378,0.265719,-0.415834,0
2024-11-29 18:18:11.213,-1.97049,0.605683,8.7362,-0.35055,0.236398,-0.393233,0
2024-11-29 18:18:11.216,-2.03749,0.586541,8.65454,-0.335279,0.206466,-0.365745,0
2024-11-29 18:18:11.217,-2.10927,0.567398,8.58036,-0.322451,0.173481,-0.337035,0
2024-11-29 18:18:11.219,-2.14995,0.567398,8.50619,-0.307791,0.138662,-0.306493,0
2024-11-29 18:18:11.222,-2.15952,0.579362,8.45115,-0.296185,0.104455,-0.276561,0
2024-11-29 18:18:11.225,-2.17149,0.586541,8.38894,-0.265031,0.0299315,-0.213644,0
2024-11-29 18:18:11.227,-2.17627,0.596112,8.33151,-0.265031,0.0299315,-0.213644,0
2024-11-29 18:18:11.230,-2.16431,0.622433,8.31237,-0.251593,-0.00610847,-0.177604,0
2024-11-29 18:18:11.231,-2.14517,0.646361,8.30519,-0.237543,-0.0409268,-0.144618,0
2024-11-29 18:18:11.234,-2.13081,0.667897,8.28844,-0.222883,-0.0769668,-0.112243,0
2024-11-29 18:18:11.236,-2.0997,0.701396,8.27408,-0.208833,-0.110563,-0.0762032,0
2024-11-29 18:18:11.238,-2.05185,0.737288,8.27887,-0.193562,-0.143549,-0.0456608,0
2024-11-29 18:18:11.241,-1.99442,0.76361,8.28844,-0.174626,-0.175313,-0.0145076,0
2024-11-29 18:18:11.243,-1.9343,0.799502,8.28605,-0.156911,-0.205245,0.0154239,0
2024-11-29 18:18:11.245,-1.85055,0.837787,8.29562,-0.137975,-0.235787,0.0435229,0
2024-11-29 18:18:11.248,-1.75244,0.862014,8.29562,-0.118428,-0.263886,0.0704001,0
2024-11-29 18:18:11.251,-1.66869,0.907478,8.29562,-0.0781121,-0.318251,0.114992,0
2024-11-29 18:18:11.253,-1.58016,0.940978,8.31237,-0.0573433,-0.340242,0.133928,0
2024-11-29 18:18:11.255,-1.47966,0.979263,8.31954,-0.0573433,-0.340242,0.133928,0
2024-11-29 18:18:11.258,-1.37408,1.02473,8.31476,-0.0396287,-0.358567,0.14981,0
2024-11-29 18:18:11.259,-1.28794,1.04865,8.30997,-0.0176382,-0.376282,0.161416,0
2024-11-29 18:18:11.263,-1.1994,1.09412,8.3004,0.0220669,-0.393996,0.185239,0
2024-11-29 18:18:11.265,-1.11326,1.15155,8.27887,0.0440574,-0.398883,0.195624,0
2024-11-29 18:18:11.266,-1.04626,1.19701,8.2669,0.0440574,-0.398883,0.195624,0
2024-11-29 18:18:11.270,-0.974477,1.23529,8.23819,0.0843733,-0.39644,0.210284,0
2024-11-29 18:18:11.272,-0.931406,1.26162,8.18555,0.10392,-0.390331,0.217003,0
2024-11-29 18:18:11.273,-0.888335,1.29033,8.11107,0.10392,-0.390331,0.217003,0
2024-11-29 18:18:11.277,-0.845265,1.32622,8.05604,0.122857,-0.380558,0.222501,0
2024-11-29 18:18:11.278,-0.821037,1.35733,8.00339,0.141793,-0.368341,0.22922,0
2024-11-29 18:18:11.281,-0.785145,1.37408,7.91486,0.156453,-0.354902,0.234718,0
2024-11-29 18:18:11.284,-0.751645,1.38844,7.80718,0.185774,-0.317641,0.246324,0
2024-11-29 18:18:11.285,-0.725324,1.40548,7.69472,0.185774,-0.317641,0.246324,0
2024-11-29 18:18:11.289,-0.708575,1.40548,7.57986,0.206543,-0.272438,0.259763,0
2024-11-29 18:18:11.291,-0.694218,1.41266,7.46471,0.206543,-0.272438,0.259763,0
2024-11-29 18:18:11.293,-0.660718,1.40788,7.34746,0.213873,-0.248004,0.265871,0
2024-11-29 18:18:11.296,-0.632004,1.39801,7.22303,0.219371,-0.226013,0.27198,0
2024-11-29 18:18:11.298,-0.612862,1.39322,7.09382,0.222425,-0.205856,0.279921,0
2024-11-29 18:18:11.302,-0.586541,1.38604,6.84467,0.223036,-0.166761,0.296414,0
2024-11-29 18:18:11.305,-0.572184,1.38604,6.74656,0.213262,-0.133776,0.311074,0
2024-11-29 18:18:11.305,-0.572184,1.38604,6.74656,0.213262,-0.133776,0.311074,0
2024-11-29 18:18:11.307,-0.555434,1.41027,6.65803,0.213262,-0.133776,0.311074,0
2024-11-29 18:18:11.309,-0.555434,1.44616,6.57428,0.206543,-0.11545,0.319015,0
2024-11-29 18:18:11.312,-0.572184,1.46052,6.51446,0.199213,-0.10079,0.325734,0
2024-11-29 18:18:11.314,-0.567398,1.48923,6.46421,0.19005,-0.0836861,0.334286,0
2024-11-29 18:18:11.316,-0.541077,1.52034,6.42802,0.184552,-0.0690257,0.342227,0
2024-11-29 18:18:11.319,-0.519542,1.54905,6.40409,0.176,-0.0543654,0.349557,0
2024-11-29 18:18:11.321,-0.502792,1.57777,6.37298,0.16867,-0.0390942,0.356888,0
2024-11-29 18:18:11.323,-0.471685,1.58495,6.34188,0.165005,-0.0262664,0.364218,0
2024-11-29 18:18:11.326,-0.438186,1.60648,6.29881,0.159507,-0.0152712,0.370937,0
2024-11-29 18:18:11.328,-0.409472,1.61366,6.24616,0.149123,-0.00733017,0.375824,0
2024-11-29 18:18:11.331,-0.383151,1.60648,6.18634,0.13263,0.00183254,0.383765,0
2024-11-29 18:18:11.333,-0.368794,1.61845,6.14327,0.13263,0.00183254,0.383765,0
2024-11-29 18:18:11.336,-0.349651,1.64716,6.11695,0.124689,0.00427593,0.38743,0
2024-11-29 18:18:11.338,-0.332901,1.68544,6.09302,0.112472,0.00427593,0.391706,0
2024-11-29 18:18:11.339,-0.318545,1.71416,6.09063,0.102699,0.00183254,0.392927,0
2024-11-29 18:18:11.342,-0.294616,1.75005,6.10977,0.0910926,0.0,0.395982,0
2024-11-29 18:18:11.344,-0.27996,1.79551,6.11695,0.0831516,-0.000610847,0.397814,0
2024-11-29 18:18:11.347,-0.275175,1.85773,6.12652,0.0727672,-0.00549763,0.399036,0
2024-11-29 18:18:11.349,-0.251246,1.91755,6.16481,0.0660479,-0.0103844,0.400869,0
2024-11-29 18:18:11.352,-0.210568,1.9657,6.21745,0.0568851,-0.015882,0.401479,0
2024-11-29 18:18:11.354,-0.165105,2.0327,6.28445,0.0507767,-0.0219905,0.403312,0
2024-11-29 18:18:11.357,-0.141177,2.0997,6.35145,0.0452791,-0.0287098,0.400258,0
2024-11-29 18:18:11.359,-0.119641,2.15713,6.41366,0.0422248,-0.0372617,0.397814,0
2024-11-29 18:18:11.361,-0.100499,2.22174,6.48096,0.0379489,-0.0458135,0.397203,0
2024-11-29 18:18:11.364,-0.0957129,2.28395,6.55753,0.0348946,-0.0500895,0.392317,0
2024-11-29 18:18:11.365,-0.0837488,2.36052,6.62453,0.0348946,-0.0531437,0.388652,0
2024-11-29 18:18:11.368,-0.0598206,2.41555,6.70349,0.0342838,-0.0580305,0.386819,0
2024-11-29 18:18:11.370,-0.0287139,2.44188,6.77288,0.0324513,-0.0623064,0.3801,0
2024-11-29 18:18:11.373,0.0,2.49691,6.82553,0.0330621,-0.0659715,0.373991,0
2024-11-29 18:18:11.376,0.0215354,2.54746,6.88295,0.037338,-0.0696366,0.362385,0
2024-11-29 18:18:11.377,0.0191426,2.59053,6.92363,0.037338,-0.0696366,0.362385,0
2024-11-29 18:18:11.380,0.0334995,2.6671,6.97149,0.0397814,-0.0696366,0.356888,0
2024-11-29 18:18:11.383,0.0550349,2.72453,7.00977,0.0397814,-0.0714691,0.350168,0
2024-11-29 18:18:11.384,0.0741775,2.76281,7.03639,0.0410031,-0.0708583,0.344671,0
2024-11-29 18:18:11.387,0.0981057,2.82024,7.06511,0.0422248,-0.0708583,0.341005,0
2024-11-29 18:18:11.390,0.131605,2.87288,7.08425,0.0410031,-0.0702474,0.326345,0
2024-11-29 18:18:11.391,0.165105,2.90399,7.09861,0.0410031,-0.0702474,0.326345,0
2024-11-29 18:18:11.394,0.179462,2.92792,7.11775,0.0367272,-0.0684149,0.320237,0
2024-11-29 18:18:11.397,0.20339,2.96142,7.14168,0.033673,-0.0690257,0.310463,0
2024-11-29 18:18:11.399,0.232104,3.00449,7.168,0.0263428,-0.067804,0.304355,0
2024-11-29 18:18:11.401,0.256032,3.04517,7.17757,0.0190126,-0.0671932,0.296414,0
2024-11-29 18:18:11.403,0.275175,3.08854,7.20389,0.0122933,-0.0671932,0.287862,0
2024-11-29 18:18:11.406,0.282652,3.13879,7.26371,0.00496313,-0.0690257,0.278699,0
2024-11-29 18:18:11.409,0.297009,3.18425,7.32832,-0.00419957,-0.0702474,0.270758,0
2024-11-29 18:18:11.411,0.30658,3.23928,7.42882,-0.0213033,-0.0787993,0.254876,0
2024-11-29 18:18:11.413,0.313759,3.30389,7.53171,-0.0213033,-0.0787993,0.254876,0
2024-11-29 18:18:11.416,0.32333,3.35175,7.61097,-0.0255792,-0.0849078,0.245102,0
2024-11-29 18:18:11.418,0.335294,3.39482,7.7354,-0.0335202,-0.0910162,0.235329,0
2024-11-29 18:18:11.421,0.35683,3.45224,7.8694,-0.0414613,-0.100179,0.216393,0
2024-11-29 18:18:11.422,0.390329,3.48814,7.98425,-0.0414613,-0.100179,0.216393,0
2024-11-29 18:18:11.425,0.419043,3.50728,8.11107,-0.0402396,-0.103233,0.203565,0
2024-11-29 18:18:11.427,0.447757,3.54078,8.2358,-0.0408504,-0.107509,0.19318,0
2024-11-29 18:18:11.429,0.493221,3.56231,8.34826,-0.038407,-0.109342,0.179131,0
2024-11-29 18:18:11.431,0.521934,3.58385,8.44397,-0.0335202,-0.111785,0.16386,0
2024-11-29 18:18:11.435,0.533899,3.61496,8.53011,-0.0255792,-0.11545,0.135761,0
2024-11-29 18:18:11.437,0.545863,3.64367,8.61386,-0.0255792,-0.11545,0.135761,0
2024-11-29 18:18:11.439,0.533899,3.68226,8.69522,-0.0194708,-0.117894,0.12049,0
2024-11-29 18:18:11.442,0.521934,3.70858,8.75773,-0.0127514,-0.120948,0.103386,0
2024-11-29 18:18:11.444,0.500399,3.73011,8.81755,0.00129805,-0.1295,0.0728435,0
2024-11-29 18:18:11.445,0.457328,3.77318,8.89651,0.00129805,-0.1295,0.0728435,0
2024-11-29 18:18:11.449,0.404686,3.81865,8.97308,0.0141258,-0.134997,0.0459663,0
2024-11-29 18:18:11.451,0.349651,3.85932,9.04726,0.0141258,-0.134997,0.0459663,0
2024-11-29 18:18:11.454,0.299402,3.90479,9.13101,0.0232886,-0.139884,0.0313059,0
2024-11-29 18:18:11.455,0.256032,3.92632,9.20758,0.0300079,-0.14416,0.019089,0
2024-11-29 18:18:11.457,0.198604,3.94068,9.25783,0.0361163,-0.148436,0.00870457,0
2024-11-29 18:18:11.460,0.112463,3.967,9.33949,0.0410031,-0.154544,-0.00229068,0
2024-11-29 18:18:11.463,0.040678,3.98614,9.43281,0.0507767,-0.15882,-0.0120642,0
2024-11-29 18:18:11.465,-0.026321,4.00529,9.51655,0.0593285,-0.161264,-0.0200052,0
2024-11-29 18:18:11.467,-0.0861416,4.02204,9.61945,0.0666587,-0.169205,-0.0261137,0
2024-11-29 18:18:11.469,-0.148355,4.04596,9.72952,0.073378,-0.177757,-0.0334439,0
2024-11-29 18:18:11.472,-0.196211,4.05075,9.82553,0.0831516,-0.189363,-0.0389415,0
2024-11-29 18:18:11.474,-0.22014,4.03161,9.91167,0.0910926,-0.200358,-0.0419957,0
2024-11-29 18:18:11.476,-0.229711,4.01964,10.0026,0.0972011,-0.214407,-0.0474934,0
2024-11-29 18:18:11.479,-0.212961,4.01964,10.0983,0.106364,-0.2309,-0.0511585,0
2024-11-29 18:18:11.481,-0.20339,4.01007,10.1797,0.114916,-0.248615,-0.0548235,0
2024-11-29 18:18:11.484,-0.191426,3.98375,10.2682,0.122857,-0.264497,-0.0584886,0
2024-11-29 18:18:11.485,-0.141177,3.96222,10.3424,0.127133,-0.282211,-0.0633754,0
2024-11-29 18:18:11.488,-0.0837488,3.95982,10.4169,0.132019,-0.296261,-0.0658188,0
2024-11-29 18:18:11.491,-0.0334995,3.94307,10.4934,0.138128,-0.310921,-0.0713164,0
2024-11-29 18:18:11.494,0.0119641,3.9,10.5724,0.141793,-0.335355,-0.0774249,0
2024-11-29 18:18:11.496,0.0526421,3.8689,10.6561,0.141793,-0.342074,-0.0829225,0
2024-11-29 18:18:11.498,0.0837488,3.84497,10.7136,0.136906,-0.345129,-0.0865876,0
2024-11-29 18:18:11.501,0.0885344,3.82582,10.7853,0.136906,-0.345129,-0.0865876,0
2024-11-29 18:18:11.503,0.0981057,3.82343,10.8835,0.136906,-0.348183,-0.0865876,0
2024-11-29 18:18:11.505,0.112463,3.82582,10.9771,0.134463,-0.349405,-0.0865876,0
2024-11-29 18:18:11.508,0.133998,3.84257,11.0728,0.128965,-0.345129,-0.0841442,0
2024-11-29 18:18:11.510,0.172283,3.88086,11.1829,0.124689,-0.341464,-0.0829225,0
2024-11-29 18:18:11.512,0.212961,3.90957,11.2977,0.119802,-0.332912,-0.08109,0
2024-11-29 18:18:11.515,0.244068,3.91436,11.3958,0.113694,-0.301148,-0.0823117,0
2024-11-29 18:18:11.517,0.285045,3.93589,11.4844,0.11064,-0.279157,-0.0817008,0
2024-11-29 18:18:11.519,0.328116,3.95982,11.5851,0.11064,-0.279157,-0.0817008,0
2024-11-29 18:18:11.522,0.378365,3.95504,11.6737,0.108196,-0.254723,-0.0853659,0
2024-11-29 18:18:11.524,0.419043,3.94786,11.7215,0.102699,-0.197304,-0.0926961,0
2024-11-29 18:18:11.527,0.452543,3.93589,11.7622,0.0984228,-0.167983,-0.0975828,0
2024-11-29 18:18:11.528,0.502792,3.92393,11.8077,0.0984228,-0.167983,-0.0975828,0
2024-11-29 18:18:11.530,0.538684,3.92632,11.8364,0.0923143,-0.133776,-0.104913,0
2024-11-29 18:18:11.533,0.569791,3.92154,11.8603,0.0917034,-0.101401,-0.112243,0
2024-11-29 18:18:11.538,0.605683,3.89043,11.8675,0.0684913,-0.00366508,-0.136677,0
2024-11-29 18:18:11.538,0.605683,3.89043,11.8675,0.0684913,-0.00366508,-0.136677,0
2024-11-29 18:18:11.541,0.608076,3.8689,11.8603,0.0593285,0.0299315,-0.141564,0
2024-11-29 18:18:11.543,0.600898,3.84497,11.8699,0.0593285,0.0299315,-0.141564,0
2024-11-29 18:18:11.544,0.584148,3.82582,11.8603,0.0526092,0.0586413,-0.147672,0
2024-11-29 18:18:11.548,0.565005,3.79472,11.8436,0.0434465,0.0916271,-0.15317,0
2024-11-29 18:18:11.552,0.490828,3.73729,11.8484,0.0269536,0.147214,-0.154392,0
2024-11-29 18:18:11.552,0.490828,3.73729,11.8484,0.0269536,0.147214,-0.154392,0
2024-11-29 18:18:11.554,0.438186,3.71815,11.8173,0.021456,0.175924,-0.15317,0
2024-11-29 18:18:11.556,0.387936,3.68704,11.7909,0.0129041,0.199747,-0.148894,0
2024-11-29 18:18:11.559,0.344866,3.66072,11.779,0.00313059,0.222348,-0.145229,0
2024-11-29 18:18:11.562,0.301795,3.62453,11.7646,-0.00358873,0.242506,-0.140953,0
2024-11-29 18:18:11.564,0.248854,3.58624,11.7574,-0.00664296,0.258999,-0.133623,0
2024-11-29 18:18:11.567,0.210568,3.57906,11.7694,-0.0158057,0.271827,-0.127514,0
2024-11-29 18:18:11.568,0.181855,3.57906,11.7718,-0.0182491,0.282822,-0.118963,0
2024-11-29 18:18:11.571,0.141177,3.55035,11.767,-0.0237467,0.293207,-0.109189,0
2024-11-29 18:18:11.573,0.124427,3.5336,11.7933,-0.0268009,0.298704,-0.101248,0
2024-11-29 18:18:11.576,0.114855,3.53599,11.8316,-0.0255792,0.300537,-0.0920852,0
2024-11-29 18:18:11.578,0.0789631,3.53599,11.8651,-0.0231358,0.298704,-0.0804791,0
2024-11-29 18:18:11.580,0.0454636,3.54078,11.9154,-0.0188599,0.292596,-0.0694839,0
2024-11-29 18:18:11.582,0.0239282,3.5336,11.9632,-0.0133623,0.282822,-0.0590995,0
2024-11-29 18:18:11.584,0.0239282,3.51207,12.0039,-0.00664296,0.271827,-0.0474934,0
2024-11-29 18:18:11.587,0.00717847,3.51446,12.0541,0.00251974,0.258999,-0.0377198,0
2024-11-29 18:18:11.590,-0.026321,3.51924,12.0927,0.0141258,0.245561,-0.0267246,0
2024-11-29 18:18:11.593,-0.0574277,3.51446,12.1095,0.0275645,0.231511,-0.016951,0
2024-11-29 18:18:11.595,-0.107677,3.53599,12.1119,0.0397814,0.221127,-0.00412322,0
2024-11-29 18:18:11.596,-0.162712,3.57906,12.1071,0.0550526,0.210742,0.00870457,0
2024-11-29 18:18:11.599,-0.22014,3.62692,12.0855,0.0715455,0.200358,0.0209215,0
2024-11-29 18:18:11.602,-0.272782,3.66072,12.0254,0.0868167,0.191806,0.034971,0
2024-11-29 18:18:11.604,-0.32333,3.69661,11.9465,0.108196,0.166761,0.0649025,0
2024-11-29 18:18:11.606,-0.35683,3.71336,11.8508,0.108196,0.166761,0.0649025,0
2024-11-29 18:18:11.609,-0.361615,3.72054,11.7359,0.115526,0.150268,0.0771195,0
2024-11-29 18:18:11.610,-0.349651,3.7349,11.6115,0.11797,0.131332,0.0899473,0
2024-11-29 18:18:11.613,-0.325723,3.73011,11.4652,0.116748,0.106287,0.100332,0
2024-11-29 18:18:11.615,-0.267996,3.71815,11.3001,0.111861,0.0806318,0.108273,0
2024-11-29 18:18:11.618,-0.184247,3.70379,11.1422,0.100866,0.0488678,0.112549,0
2024-11-29 18:18:11.621,-0.0741775,3.67747,10.9771,0.0782648,0.00794101,0.11377,0
2024-11-29 18:18:11.622,0.0550349,3.64606,10.7925,0.0526092,-0.0415376,0.110716,0
2024-11-29 18:18:11.625,0.212961,3.61496,10.625,0.0196235,-0.101401,0.102775,0
2024-11-29 18:18:11.627,0.380758,3.58146,10.4862,-0.0274118,-0.175313,0.0893364,0
2024-11-29 18:18:11.630,0.553041,3.54317,10.3977,-0.139808,-0.362232,0.0465771,0
2024-11-29 18:18:11.632,0.761217,3.50249,10.3711,-0.139808,-0.362232,0.0465771,0
2024-11-29 18:18:11.635,0.988834,3.48574,10.3929,-0.208223,-0.475239,0.0166456,0
2024-11-29 18:18:11.637,1.22812,3.4666,10.4791,-0.361545,-0.723243,-0.0572669,0
2024-11-29 18:18:11.639,1.48684,3.42114,10.6394,-0.361545,-0.723243,-0.0572669,0
2024-11-29 18:18:11.642,1.76441,3.3661,10.8619,-0.524641,-0.976134,-0.15317,0
2024-11-29 18:18:11.644,2.03749,3.28953,11.1757,-0.524641,-0.976134,-0.15317,0
2024-11-29 18:18:11.646,2.29352,3.19382,11.5923,-0.60283,-1.09158,-0.206925,0
2024-11-29 18:18:11.649,2.54985,3.08106,12.0832,-0.674986,-1.19787,-0.261901,0
2024-11-29 18:18:11.651,2.82981,2.94706,12.6144,-0.674986,-1.19787,-0.261901,0
2024-11-29 18:18:11.654,3.12204,2.80349,13.1459,-0.837472,-1.40808,-0.451263,0
2024-11-29 18:18:11.657,3.3661,2.65274,14.1802,-0.867403,-1.43679,-0.521511,0
2024-11-29 18:18:11.657,3.5336,2.4658,14.1802,-0.867403,-1.43679,-0.521511,0
2024-11-29 18:18:11.661,3.61256,2.31506,14.7308,-0.888172,-1.44229,-0.589926,0
2024-11-29 18:18:11.662,3.62692,2.18824,15.3102,-0.891837,-1.43068,-0.659562,0
2024-11-29 18:18:11.665,3.61735,2.02313,15.8776,-0.882063,-1.39769,-0.724923,0
2024-11-29 18:18:11.668,3.56231,1.86251,16.4043,-0.855186,-1.34761,-0.790895,0
2024-11-29 18:18:11.669,3.44028,1.69023,16.8784,-0.814259,-1.27728,-0.850758,0
2024-11-29 18:18:11.673,3.24168,1.48684,17.2663,-0.759894,-1.18871,-0.902069,0
2024-11-29 18:18:11.674,2.97817,1.27837,17.5295,-0.691479,-1.07692,-0.948493,0
2024-11-29 18:18:11.677,2.68624,1.04865,17.6925,-0.52342,-0.798988,-1.01446,0
2024-11-29 18:18:11.679,2.39402,0.775574,17.7571,-0.52342,-0.798988,-1.01446,1
2024-11-29 18:18:11.681,2.11406,0.495613,17.7212,-0.42996,-0.640168,-1.03584,0
2024-11-29 18:18:11.684,1.86012,0.229711,17.5893,-0.335279,-0.47585,-1.04806,0
2024-11-29 18:18:11.686,1.58973,-0.0143569,17.3572,-0.2351,-0.305424,-1.0505,0
2024-11-29 18:18:11.689,1.22812,-0.229711,17.0219,-0.139808,-0.130721,-1.04256,0
2024-11-29 18:18:11.690,0.773181,-0.3999,16.5479,-0.0445155,0.0488678,-1.02179,0
2024-11-29 18:18:11.693,0.267996,-0.505185,15.9709,0.0397814,0.230289,-0.987587,0
2024-11-29 18:18:11.696,-0.244068,-0.557827,15.3724,0.121024,0.410489,-0.939941,0
2024-11-29 18:18:11.698,-0.727717,-0.588933,14.7858,0.189439,0.578472,-0.879467,0
2024-11-29 18:18:11.700,-1.13958,-0.598505,14.1754,0.24808,0.729962,-0.810442,0
2024-11-29 18:18:11.702,-1.4988,-0.605683,13.5362,0.296337,0.863738,-0.730421,0
2024-11-29 18:18:11.706,-1.81705,-0.629611,12.8898,0.332377,0.976745,-0.646735,0
2024-11-29 18:18:11.707,-2.09731,-0.629611,12.2578,0.361698,1.06898,-0.557551,0
2024-11-29 18:18:11.709,-2.32223,-0.617647,11.6593,0.37758,1.14351,-0.465313,0
2024-11-29 18:18:11.713,-2.46102,-0.605683,11.1015,0.381245,1.23697,-0.278394,0
2024-11-29 18:18:11.714,-2.57378,-0.557827,10.5748,0.381245,1.23697,-0.278394,0
2024-11-29 18:18:11.717,-2.65992,-0.502792,10.0696,0.369028,1.25773,-0.187377,0
2024-11-29 18:18:11.719,-2.69342,-0.435793,9.62423,0.34887,1.26079,-0.0988045,0
2024-11-29 18:18:11.721,-2.7006,-0.342473,9.24347,0.324436,1.24979,-0.0132859,0
2024-11-29 18:18:11.724,-2.67667,-0.244068,8.92044,0.295116,1.22169,0.0704001,0
2024-11-29 18:18:11.727,-2.62642,-0.131605,8.67368,0.258465,1.17771,0.148589,0
2024-11-29 18:18:11.728,-2.54028,-0.00957129,8.50379,0.222425,1.12396,0.223723,0
2024-11-29 18:18:11.730,-2.40838,0.12682,8.38654,0.183941,1.05799,0.292749,0
2024-11-29 18:18:11.733,-2.25045,0.260818,8.31954,0.144847,0.98041,0.357498,0
2024-11-29 18:18:11.736,-2.0686,0.409472,8.32433,0.0745997,0.809373,0.468673,0
2024-11-29 18:18:11.739,-1.84098,0.574577,8.40569,0.0434465,0.717135,0.514486,0
2024-11-29 18:18:11.741,-1.5682,0.718146,8.54447,0.0434465,0.717135,0.514486,0
2024-11-29 18:18:11.742,-1.29512,0.869193,8.7338,0.0220669,0.626729,0.551748,0
2024-11-29 18:18:11.745,-1.02951,1.01755,8.96351,0.00679568,0.539378,0.584734,0
2024-11-29 18:18:11.747,-0.782752,1.17547,9.17887,7.63559e-05,0.458746,0.606724,0
2024-11-29 18:18:11.750,-0.567398,1.30469,9.37538,-0.00175619,0.386055,0.624439,0
2024-11-29 18:18:11.753,-0.344866,1.4004,9.58116,0.021456,0.254112,0.640321,0
2024-11-29 18:18:11.755,-0.11007,1.48205,9.78216,0.021456,0.254112,0.640321,0
2024-11-29 18:18:11.757,0.145962,1.5347,9.9667,0.041614,0.195471,0.638488,0
2024-11-29 18:18:11.759,0.426222,1.57298,10.1151,0.0691021,0.134997,0.630547,0
2024-11-29 18:18:11.762,0.694218,1.60887,10.2203,0.10331,0.0836861,0.616498,0
2024-11-29 18:18:11.764,0.936192,1.64237,10.2969,0.135074,0.0335966,0.597561,0
2024-11-29 18:18:11.766,1.17547,1.67587,10.3328,0.170503,-0.00916271,0.576182,0
2024-11-29 18:18:11.769,1.39801,1.68784,10.3424,0.20471,-0.0464244,0.547472,0
2024-11-29 18:18:11.771,1.59212,1.69502,10.3041,0.241361,-0.080021,0.515708,0
2024-11-29 18:18:11.773,1.75484,1.71177,10.2347,0.279844,-0.109953,0.482722,0
2024-11-29 18:18:11.775,1.89123,1.72612,10.1366,0.314052,-0.136219,0.446682,0
2024-11-29 18:18:11.778,2.02313,1.73091,10.005,0.345816,-0.15882,0.406977,0
2024-11-29 18:18:11.781,2.13559,1.71894,9.84706,0.393462,-0.200358,0.322069,0
2024-11-29 18:18:11.783,2.19541,1.70459,9.6673,0.412398,-0.218683,0.278088,0
2024-11-29 18:18:11.786,2.22174,1.6998,9.45913,0.412398,-0.218683,0.278088,0
2024-11-29 18:18:11.788,2.22891,1.70698,9.20997,0.423394,-0.235176,0.23594,0
2024-11-29 18:18:11.789,2.21456,1.72373,8.97069,0.42828,-0.251058,0.19318,0
2024-11-29 18:18:11.792,2.17149,1.74766,8.75055,0.429502,-0.264497,0.151032,0
2024-11-29 18:18:11.794,2.08774,1.76441,8.52533,0.422783,-0.277325,0.111327,0
2024-11-29 18:18:11.796,1.98963,1.77637,8.30758,0.411177,-0.286487,0.0722327,0
2024-11-29 18:18:11.802,1.75244,1.78116,7.91964,0.355589,-0.304813,-0.0322222,0
2024-11-29 18:18:11.802,1.75244,1.78116,7.91964,0.355589,-0.304813,-0.0322222,0
2024-11-29 18:18:11.805,1.64477,1.78594,7.75215,0.329323,-0.304813,-0.0633754,0
2024-11-29 18:18:11.807,1.51555,1.79312,7.62054,0.303667,-0.30298,-0.0914744,0
2024-11-29 18:18:11.809,1.36451,1.80269,7.51735,0.278623,-0.294428,-0.116519,0
2024-11-29 18:18:11.812,1.21615,1.80269,7.44317,0.278623,-0.294428,-0.116519,0
2024-11-29 18:18:11.813,1.07976,1.79791,7.39771,0.251745,-0.287098,-0.13912,0
2024-11-29 18:18:11.816,0.938585,1.80509,7.36421,0.227922,-0.27366,-0.161111,0
2024-11-29 18:18:11.819,0.799502,1.79312,7.35703,0.186385,-0.241285,-0.194097,0
2024-11-29 18:18:11.821,0.667897,1.77398,7.36421,0.166227,-0.221127,-0.208757,0
2024-11-29 18:18:11.823,0.56022,1.76441,7.36421,0.166227,-0.221127,-0.208757,0
2024-11-29 18:18:11.826,0.4669,1.74766,7.34507,0.137517,-0.17287,-0.234413,0
2024-11-29 18:18:11.828,0.368794,1.71894,7.32832,0.137517,-0.17287,-0.234413,0
2024-11-29 18:18:11.830,0.282652,1.67827,7.31875,0.128354,-0.145382,-0.242354,0
2024-11-29 18:18:11.833,0.229711,1.65673,7.30918,0.117359,-0.119115,-0.249073,0
2024-11-29 18:18:11.835,0.174676,1.64237,7.29482,0.102699,-0.0610847,-0.262512,0
2024-11-29 18:18:11.836,0.0933201,1.63041,7.26371,0.102699,-0.0610847,-0.262512,0
2024-11-29 18:18:11.840,0.0143569,1.63041,7.23261,0.0965902,-0.0342074,-0.266788,0
2024-11-29 18:18:11.841,-0.0837488,1.63041,7.18953,0.0886492,-0.00366508,-0.268009,0
2024-11-29 18:18:11.845,-0.179462,1.63759,7.12014,0.0819299,0.0268773,-0.267398,0
2024-11-29 18:18:11.849,-0.270389,1.64716,6.98824,0.065437,0.111785,-0.25396,0
2024-11-29 18:18:11.851,-0.431007,1.65434,6.93081,0.065437,0.111785,-0.25396,0
2024-11-29 18:18:11.852,-0.431007,1.65434,6.93081,0.0581068,0.137441,-0.242964,0
2024-11-29 18:18:11.854,-0.478864,1.6663,6.86142,0.0581068,0.137441,-0.242964,0
2024-11-29 18:18:11.859,-0.56022,1.69741,6.7011,0.041614,0.20891,-0.207535,0
2024-11-29 18:18:11.860,-0.579362,1.70698,6.64367,0.041614,0.20891,-0.207535,0
2024-11-29 18:18:11.861,-0.579362,1.70698,6.64367,0.041614,0.20891,-0.207535,0
2024-11-29 18:18:11.862,-0.615255,1.73091,6.57667,0.0330621,0.230289,-0.194097,0
2024-11-29 18:18:11.865,-0.627219,1.75723,6.51207,0.0269536,0.248615,-0.181269,0
2024-11-29 18:18:11.867,-0.62004,1.77876,6.469,0.0220669,0.26694,-0.167219,0
2024-11-29 18:18:11.870,-0.610469,1.79791,6.42084,0.0147367,0.282822,-0.154392,0
2024-11-29 18:18:11.873,-0.593719,1.81466,6.38016,0.0147367,0.297483,-0.141564,0
2024-11-29 18:18:11.874,-0.584148,1.83141,6.35863,0.00984991,0.306034,-0.129958,0
2024-11-29 18:18:11.877,-0.555434,1.85533,6.34188,0.00313059,0.314586,-0.118963,0
2024-11-29 18:18:11.880,-0.502792,1.88405,6.30598,7.63559e-05,0.321306,-0.10247,0
2024-11-29 18:18:11.882,-0.457328,1.90798,6.24856,7.63559e-05,0.321306,-0.10247,0
2024-11-29 18:18:11.886,-0.380758,1.95583,6.16481,-0.00542127,0.320695,-0.0884201,0
2024-11-29 18:18:11.887,-0.380758,1.95583,6.16481,-0.00725381,0.316419,-0.0829225,0
2024-11-29 18:18:11.889,-0.337687,1.97767,6.12174,-0.010308,0.309089,-0.0786466,0
2024-11-29 18:18:11.891,-0.294616,2.02313,6.08585,-0.010308,0.309089,-0.0786466,0
2024-11-29 18:18:11.893,-0.248854,2.06142,6.04517,-0.0133623,0.30298,-0.0762032,0
2024-11-29 18:18:11.895,-0.200997,2.09013,6.02124,-0.0170274,0.292596,-0.0707056,0
2024-11-29 18:18:11.898,-0.162712,2.12602,6.01167,-0.0206925,0.277936,-0.0707056,0
2024-11-29 18:18:11.900,-0.117248,2.15713,6.01406,-0.0249684,0.262053,-0.068873,0
2024-11-29 18:18:11.902,-0.0622134,2.18584,6.01167,-0.0298552,0.243728,-0.0713164,0
2024-11-29 18:18:11.906,-0.00957129,2.21216,6.00449,-0.0347419,0.221127,-0.0743707,0
2024-11-29 18:18:11.908,0.0334995,2.24566,6.01645,-0.0390179,0.200969,-0.0755923,0
2024-11-29 18:18:11.910,0.0837488,2.28395,6.04517,-0.0432938,0.1802,-0.0786466,0
2024-11-29 18:18:11.912,0.148355,2.31506,6.07627,-0.0481806,0.160042,-0.0853659,0
2024-11-29 18:18:11.915,0.210568,2.35095,6.1002,-0.0579541,0.120337,-0.0994154,0
2024-11-29 18:18:11.918,0.248854,2.39163,6.13131,-0.0616192,0.0989573,-0.111632,0
2024-11-29 18:18:11.920,0.299402,2.42034,6.16481,-0.0652843,0.080021,-0.119573,0
2024-11-29 18:18:11.922,0.342473,2.43709,6.19592,-0.0707819,0.0610847,-0.130569,0
2024-11-29 18:18:11.925,0.352044,2.46102,6.22224,-0.0707819,0.0610847,-0.130569,0
2024-11-29 18:18:11.927,0.35683,2.48495,6.25574,-0.0750579,0.0421485,-0.141564,0
2024-11-29 18:18:11.928,0.337687,2.51127,6.27488,-0.0781121,0.0219905,-0.153781,0
2024-11-29 18:18:11.932,0.316152,2.54267,6.28924,-0.0829989,0.00549763,-0.164776,0
2024-11-29 18:18:11.934,0.308973,2.56182,6.31795,-0.094605,-0.0287098,-0.187377,0
2024-11-29 18:18:11.935,0.287438,2.58574,6.35384,-0.094605,-0.0287098,-0.187377,0
2024-11-29 18:18:11.938,0.265603,2.60967,6.38256,-0.101324,-0.0427593,-0.198373,0
2024-11-29 18:18:11.942,0.198604,2.64317,6.46421,-0.113541,-0.0733017,-0.214866,0
2024-11-29 18:18:11.943,0.198604,2.64317,6.46421,-0.113541,-0.0733017,-0.214866,0
2024-11-29 18:18:11.945,0.162712,2.64556,6.5001,-0.11965,-0.0891837,-0.222807,0
2024-11-29 18:18:11.948,0.11007,2.63839,6.54317,-0.136753,-0.119115,-0.233191,0
2024-11-29 18:18:11.951,0.0622134,2.63121,6.6006,-0.144084,-0.132554,-0.238689,0
2024-11-29 18:18:11.952,0.0191426,2.62642,6.65085,-0.144084,-0.132554,-0.238689,0
2024-11-29 18:18:11.954,-0.0358923,2.64556,6.69392,-0.152635,-0.145992,-0.240521,0
2024-11-29 18:18:11.958,-0.0909273,2.65514,6.74656,-0.159966,-0.160042,-0.242354,0
2024-11-29 18:18:11.960,-0.141177,2.6671,6.82074,-0.175848,-0.1802,-0.241743,0
2024-11-29 18:18:11.962,-0.177069,2.68864,6.92842,-0.175848,-0.1802,-0.241743,0
2024-11-29 18:18:11.965,-0.210568,2.69103,7.04118,-0.183789,-0.192417,-0.238689,0
2024-11-29 18:18:11.966,-0.244068,2.68385,7.14886,-0.188065,-0.200969,-0.233191,0
2024-11-29 18:18:11.969,-0.232104,2.69342,7.24696,-0.190508,-0.206466,-0.230137,0
2024-11-29 18:18:11.971,-0.212961,2.68864,7.34507,-0.194173,-0.212575,-0.223417,0
2024-11-29 18:18:11.974,-0.198604,2.67189,7.44317,-0.196616,-0.214407,-0.219141,0
2024-11-29 18:18:11.979,-0.145962,2.66231,7.61815,-0.197227,-0.222959,-0.205092,0
2024-11-29 18:18:11.979,-0.145962,2.66231,7.61815,-0.197227,-0.222959,-0.205092,0
2024-11-29 18:18:11.980,-0.117248,2.64796,7.69711,-0.194784,-0.221127,-0.199594,0
2024-11-29 18:18:11.983,-0.0861416,2.6336,7.76411,-0.195395,-0.221738,-0.191653,0
2024-11-29 18:18:11.985,-0.0741775,2.62881,7.84307,-0.194784,-0.224792,-0.187988,0
2024-11-29 18:18:11.987,-0.0646062,2.63839,7.93639,-0.194784,-0.224181,-0.18188,0
2024-11-29 18:18:11.990,-0.0526421,2.63599,8.01536,-0.194784,-0.227235,-0.17455,0
2024-11-29 18:18:11.993,-0.040678,2.6336,8.09671,-0.194173,-0.2309,-0.165387,0
2024-11-29 18:18:11.995,-0.0311067,2.65274,8.17837,-0.192951,-0.232122,-0.158668,0
2024-11-29 18:18:11.997,-0.0191426,2.68385,8.2693,-0.190508,-0.235176,-0.151337,0
2024-11-29 18:18:11.999,-0.00717847,2.70299,8.36262,-0.190508,-0.240063,-0.142175,0
2024-11-29 18:18:12.002,-0.00717847,2.74367,8.46072,-0.190508,-0.243117,-0.134234,0
2024-11-29 18:18:12.004,-0.0143569,2.8011,8.58036,-0.187454,-0.246171,-0.125682,0
2024-11-29 18:18:12.006,-0.0311067,2.84656,8.71945,-0.183789,-0.247393,-0.116519,0
2024-11-29 18:18:12.009,-0.0598206,2.88963,8.84148,-0.181345,-0.248615,-0.107967,0
2024-11-29 18:18:12.011,-0.0693919,2.94706,8.96351,-0.172183,-0.249837,-0.0994154,0
2024-11-29 18:18:12.014,-0.0478565,3.01406,9.11426,-0.164242,-0.249226,-0.0884201,0
2024-11-29 18:18:12.016,-0.0311067,3.07149,9.26531,-0.153246,-0.246782,-0.0792574,0
2024-11-29 18:18:12.018,-0.0239282,3.11486,9.41127,-0.140419,-0.242506,-0.0682622,0
2024-11-29 18:18:12.020,-0.0119641,3.14596,9.54766,-0.126369,-0.233955,-0.0603212,0
2024-11-29 18:18:12.023,-0.00239282,3.17228,9.65773,-0.110487,-0.222959,-0.0499368,0
2024-11-29 18:18:12.025,0.00239282,3.22732,9.76541,-0.0921616,-0.20891,-0.0419957,0
2024-11-29 18:18:12.027,0.00478565,3.2656,9.8686,-0.074447,-0.189363,-0.0322222,0
2024-11-29 18:18:12.030,0.0239282,3.29432,9.95474,-0.0530674,-0.171037,-0.0236703,0
2024-11-29 18:18:12.032,0.040678,3.33739,10.0241,-0.0329094,-0.150879,-0.0151185,0
2024-11-29 18:18:12.035,0.0502493,3.3661,10.0935,-0.0329094,-0.150879,-0.0151185,0
2024-11-29 18:18:12.038,0.0550349,3.39721,10.1605,0.00801737,-0.109953,0.00137441,0
2024-11-29 18:18:12.040,0.0598206,3.40678,10.1916,0.0300079,-0.0897945,0.00809373,0
2024-11-29 18:18:12.041,0.0693919,3.41396,10.194,0.0489441,-0.0702474,0.0166456,0
2024-11-29 18:18:12.045,0.0646062,3.43789,10.2132,0.0642153,-0.0531437,0.0264191,0
2024-11-29 18:18:12.047,0.0574277,3.44746,10.2491,0.0794865,-0.0317641,0.0343602,0
2024-11-29 18:18:12.048,0.0430708,3.48335,10.2778,0.0941468,-0.0140495,0.0398578,0
2024-11-29 18:18:12.051,0.0191426,3.52882,10.2993,0.106975,0.00244339,0.050853,0
2024-11-29 18:18:12.053,-0.00957129,3.55753,10.3137,0.121024,0.0164929,0.0612374,0
2024-11-29 18:18:12.056,-0.0311067,3.58385,10.3519,0.130798,0.028099,0.0716218,0
2024-11-29 18:18:12.059,-0.0478565,3.6006,10.4216,0.13935,0.03604,0.0838388,0
2024-11-29 18:18:12.061,-0.0646062,3.62692,10.4958,0.161951,0.0433702,0.108273,0
2024-11-29 18:18:12.064,-0.081356,3.67029,10.5556,0.161951,0.0433702,0.108273,0
2024-11-29 18:18:12.065,-0.0837488,3.71336,10.6202,0.169892,0.0433702,0.119879,0
2024-11-29 18:18:12.068,-0.0765703,3.75643,10.6896,0.179055,0.0403159,0.130874,0
2024-11-29 18:18:12.070,-0.0789631,3.78993,10.7566,0.19005,0.03604,0.143091,0
2024-11-29 18:18:12.072,-0.0693919,3.8354,10.826,0.199213,0.0305424,0.152254,0
2024-11-29 18:18:12.074,-0.0622134,3.88564,10.8906,0.21204,0.0250447,0.158362,0
2024-11-29 18:18:12.077,-0.0598206,3.92393,10.9603,0.22609,0.0189363,0.166303,0
2024-11-29 18:18:12.080,-0.0382852,3.97179,11.0178,0.238307,0.0116061,0.174244,0
2024-11-29 18:18:12.081,-0.00239282,4.00768,11.0656,0.251745,0.00549763,0.177909,0
2024-11-29 18:18:12.085,0.0358923,4.02682,11.1039,0.263352,-0.00183254,0.182796,0
2024-11-29 18:18:12.087,0.0789631,4.05314,11.1254,0.272514,-0.0109953,0.183407,0
2024-11-29 18:18:12.090,0.133998,4.06511,11.1494,0.280455,-0.020158,0.183407,0
2024-11-29 18:18:12.091,0.184247,4.06271,11.1517,0.287175,-0.0311532,0.182185,0
2024-11-29 18:18:12.093,0.229711,4.06511,11.147,0.293283,-0.0433702,0.17852,0
2024-11-29 18:18:12.097,0.287438,4.06511,11.135,0.293283,-0.0574196,0.173022,0
2024-11-29 18:18:12.098,0.34008,4.0675,11.1039,0.292672,-0.0684149,0.166303,0
2024-11-29 18:18:12.100,0.392722,4.07468,11.1015,0.289007,-0.080021,0.15714,0
2024-11-29 18:18:12.104,0.454935,4.07707,11.1111,0.281677,-0.0922379,0.147978,0
2024-11-29 18:18:12.105,0.529113,4.07707,11.1183,0.275568,-0.103844,0.140037,0
2024-11-29 18:18:12.108,0.579362,4.08186,11.1374,0.263962,-0.11545,0.127209,0
2024-11-29 18:18:12.110,0.605683,4.07707,11.1589,0.249913,-0.124613,0.114381,0
2024-11-29 18:18:12.112,0.627219,4.05793,11.1972,0.234642,-0.134386,0.101553,0
2024-11-29 18:18:12.114,0.65354,4.04596,11.2522,0.216927,-0.141717,0.0862822,0
2024-11-29 18:18:12.117,0.679861,4.03639,11.3073,0.19738,-0.144771,0.0704001,0
2024-11-29 18:18:12.119,0.687039,4.00768,11.3815,0.177222,-0.145382,0.0539073,0
2024-11-29 18:18:12.122,0.694218,3.97897,11.4939,0.16134,-0.144771,0.0380252,0
2024-11-29 18:18:12.125,0.687039,3.94786,11.6115,0.142404,-0.141717,0.0239758,0
2024-11-29 18:18:12.126,0.682254,3.90718,11.7239,0.1253,-0.131943,0.00687203,0
2024-11-29 18:18:12.129,0.689432,3.87368,11.8436,0.105753,-0.121559,-0.00656661,0
2024-11-29 18:18:12.132,0.701396,3.83061,11.9776,0.0874275,-0.10812,-0.0206161,0
2024-11-29 18:18:12.133,0.710967,3.75883,12.1119,0.0678804,-0.095903,-0.037109,0
2024-11-29 18:18:12.137,0.701396,3.7014,12.2339,0.0532201,-0.0824644,-0.0474934,0
2024-11-29 18:18:12.139,0.689432,3.63889,12.3559,0.0385597,-0.0659715,-0.0578778,0
2024-11-29 18:18:12.140,0.689432,3.57667,12.4756,0.0226777,-0.0452027,-0.0719273,0
2024-11-29 18:18:12.143,0.675075,3.53121,12.5904,0.00801737,-0.0213797,-0.0817008,0
2024-11-29 18:18:12.146,0.634397,3.5001,12.7056,-0.00114534,0.00855186,-0.0896418,0
2024-11-29 18:18:12.147,0.574577,3.47378,12.8157,-0.0151948,0.0421485,-0.0963612,0
2024-11-29 18:18:12.150,0.517149,3.4355,12.9473,-0.0219141,0.0861295,-0.0988045,0
2024-11-29 18:18:12.152,0.447757,3.41875,13.0837,-0.030466,0.133776,-0.0994154,0
2024-11-29 18:18:12.154,0.34008,3.42114,13.1964,-0.0310769,0.188141,-0.0957503,0
2024-11-29 18:18:12.158,0.212961,3.42592,13.2993,-0.0298552,0.246782,-0.0859767,0
2024-11-29 18:18:12.160,0.0765703,3.44267,13.3926,-0.0298552,0.312754,-0.0713164,0
2024-11-29 18:18:12.163,-0.0478565,3.46421,13.4548,-0.0182491,0.45447,-0.032833,0
2024-11-29 18:18:12.164,-0.172283,3.48335,13.4668,-0.0182491,0.45447,-0.032833,0
2024-11-29 18:18:12.167,-0.30658,3.52164,13.4572,0.00313059,0.60596,0.0105371,0
2024-11-29 18:18:12.169,-0.4334,3.55753,13.4142,0.00313059,0.60596,0.0105371,0
2024-11-29 18:18:12.171,-0.548256,3.5671,13.3065,0.0116825,0.67743,0.0355819,0
2024-11-29 18:18:12.174,-0.663111,3.57428,13.1674,0.0177909,0.744623,0.0600157,0
2024-11-29 18:18:12.176,-0.789931,3.59103,12.9927,0.0232886,0.802653,0.0795629,0
2024-11-29 18:18:12.179,-0.902692,3.62453,12.8157,0.0220669,0.896113,0.124766,0
2024-11-29 18:18:12.180,-1.02233,3.65115,12.6386,0.0220669,0.896113,0.124766,0
2024-11-29 18:18:12.183,-1.14676,3.6679,12.4253,0.0141258,0.927877,0.148589,0
2024-11-29 18:18:12.185,-1.26401,3.67747,12.1956,0.000687203,0.954754,0.173022,0
2024-11-29 18:18:12.187,-1.36211,3.71097,11.956,-0.014584,0.971247,0.197456,0
2024-11-29 18:18:12.190,-1.42941,3.73729,11.7215,-0.0359636,0.981632,0.217614,0
2024-11-29 18:18:12.193,-1.46291,3.74686,11.5373,-0.0640626,0.979799,0.23594,0
2024-11-29 18:18:12.197,-1.46052,3.766,11.2738,-0.128812,0.93032,0.270147,0
2024-11-29 18:18:12.198,-1.46052,3.766,11.2738,-0.167907,0.877788,0.278699,0
2024-11-29 18:18:12.200,-1.4004,3.75404,11.1996,-0.207612,0.80754,0.284197,0
2024-11-29 18:18:12.203,-1.28554,3.71815,11.1924,-0.207612,0.80754,0.284197,0
2024-11-29 18:18:12.204,-1.14915,3.68226,11.2618,-0.253425,0.717135,0.284808,0
2024-11-29 18:18:12.207,-0.998405,3.64876,11.3815,-0.341998,0.479515,0.26465,0
2024-11-29 18:18:12.210,-0.82343,3.61496,11.5923,-0.341998,0.479515,0.26465,0
2024-11-29 18:18:12.211,-0.624826,3.58385,11.8795,-0.382925,0.340242,0.245102,0
2024-11-29 18:18:12.213,-0.395115,3.56231,12.2195,-0.420797,0.192417,0.219447,0
2024-11-29 18:18:12.216,-0.141177,3.50967,12.6338,-0.452561,0.0427593,0.188905,0
2024-11-29 18:18:12.218,0.117248,3.3996,13.0932,-0.477606,-0.106898,0.152865,0
2024-11-29 18:18:12.221,0.380758,3.25843,13.541,-0.495321,-0.248615,0.113159,0
2024-11-29 18:18:12.224,0.60329,3.11486,13.9911,-0.500818,-0.497841,0.0313059,0
2024-11-29 18:18:12.226,0.787538,2.98056,14.4221,-0.500818,-0.497841,0.0313059,0
2024-11-29 18:18:12.229,0.917049,2.87049,14.8648,-0.493488,-0.604128,-0.0102317,0
2024-11-29 18:18:12.231,0.972084,2.78196,15.3748,-0.474552,-0.700031,-0.0523802,0
2024-11-29 18:18:12.232,1.02951,2.67906,15.9326,-0.445231,-0.788604,-0.0920852,0
2024-11-29 18:18:12.235,1.09173,2.5666,16.4809,-0.403083,-0.869236,-0.129958,0
2024-11-29 18:18:12.237,1.10848,2.46102,16.9741,-0.346274,-0.933375,-0.164165,0
2024-11-29 18:18:12.240,1.08694,2.36052,17.4003,-0.277248,-0.979799,-0.194708,0
2024-11-29 18:18:12.245,1.02712,2.12602,18.1663,-0.00297788,-1.01156,-0.257625,0
2024-11-29 18:18:12.245,1.02712,2.12602,18.1663,-0.00297788,-1.01156,-0.257625,0
2024-11-29 18:18:12.247,0.991227,1.96301,18.4346,-0.00297788,-1.01156,-0.257625,0
2024-11-29 18:18:12.250,0.921835,1.77876,18.5925,0.223646,-0.935207,-0.278394,0
2024-11-29 18:18:12.252,0.8668,1.58016,18.6428,0.347038,-0.873512,-0.283891,0
2024-11-29 18:18:12.254,0.830609,1.36211,18.5638,0.347038,-0.873512,-0.283891,1
2024-11-29 18:18:12.256,0.766002,1.12522,18.3939,0.47104,-0.801432,-0.28267,0
2024-11-29 18:18:12.259,0.682254,0.8668,18.1376,0.595042,-0.716524,-0.277172,0
2024-11-29 18:18:12.261,0.565005,0.622433,17.7763,0.595042,-0.716524,-0.277172,0
2024-11-29 18:18:12.263,0.41665,0.411865,17.3046,0.833883,-0.532048,-0.252127,0
2024-11-29 18:18:12.266,0.263211,0.210568,16.7372,0.944446,-0.43248,-0.233191,0
2024-11-29 18:18:12.268,0.0957129,0.0311067,16.1004,1.04585,-0.329858,-0.206925,0
2024-11-29 18:18:12.271,-0.0885344,-0.11007,15.3844,1.13381,-0.229068,-0.175771,0
2024-11-29 18:18:12.273,-0.263211,-0.222533,14.6471,1.21261,-0.125835,-0.140342,0
2024-11-29 18:18:12.276,-0.490828,-0.251246,13.8954,1.32623,0.0568088,-0.0536018,0
2024-11-29 18:18:12.278,-0.770788,-0.212961,13.1148,1.32623,0.0568088,-0.0536018,0
2024-11-29 18:18:12.280,-1.01994,-0.141177,12.3344,1.36104,0.134997,0.000152712,0
2024-11-29 18:18:12.283,-1.24247,-0.0478565,11.5564,1.38609,0.254112,0.114381,0
2024-11-29 18:18:12.285,-1.44616,0.0287139,10.7973,1.38609,0.254112,0.114381,0
2024-11-29 18:18:12.287,-1.5658,0.0933201,10.0768,1.37143,0.28832,0.173022,0
2024-11-29 18:18:12.290,-1.61605,0.145962,9.39213,1.34822,0.304202,0.22922,0
2024-11-29 18:18:12.291,-1.64955,0.20339,8.74098,1.31095,0.301759,0.280532,0
2024-11-29 18:18:12.293,-1.66152,0.282652,8.15923,1.25842,0.284655,0.326956,0
2024-11-29 18:18:12.297,-1.63759,0.368794,7.6349,1.19428,0.249837,0.369715,0
2024-11-29 18:18:12.298,-1.58016,0.457328,7.15843,1.12037,0.208299,0.404534,0
2024-11-29 18:18:12.303,-1.38844,0.684646,6.42323,0.950555,0.0940705,0.458899,0
2024-11-29 18:18:12.303,-1.38844,0.684646,6.42323,0.950555,0.0940705,0.458899,0
2024-11-29 18:18:12.306,-1.26162,0.842872,6.15045,0.759359,-0.0421485,0.482722,0
2024-11-29 18:18:12.309,-1.11565,0.974477,5.95424,0.759359,-0.0421485,0.482722,0
2024-11-29 18:18:12.311,-0.945763,1.10848,5.83191,0.554726,-0.181422,0.480889,0
2024-11-29 18:18:12.312,-0.754038,1.26401,5.78166,0.554726,-0.181422,0.480889,0
2024-11-29 18:18:12.316,-0.521934,1.40788,5.8008,0.454547,-0.247393,0.472338,0
2024-11-29 18:18:12.317,-0.265603,1.54905,5.9016,0.355589,-0.31031,0.454012,0
2024-11-29 18:18:12.319,0.00717847,1.66152,6.07867,0.259076,-0.369563,0.4308,0
2024-11-29 18:18:12.322,0.287438,1.75244,6.28684,0.169892,-0.420874,0.399036,0
2024-11-29 18:18:12.325,0.54347,1.83859,6.53121,0.0862058,-0.466076,0.361774,0
2024-11-29 18:18:12.327,0.794716,1.88644,6.79442,0.0110716,-0.502727,0.315961,0
2024-11-29 18:18:12.329,1.02233,1.91276,7.06272,-0.058565,-0.533881,0.268926,0
2024-11-29 18:18:12.331,1.20658,1.92473,7.31875,-0.117206,-0.557093,0.213949,0
2024-11-29 18:18:12.334,1.35972,1.93191,7.55085,-0.175237,-0.578472,0.15714,0
2024-11-29 18:18:12.336,1.4677,1.94148,7.79283,-0.219829,-0.594354,0.09911,0
2024-11-29 18:18:12.338,1.55623,1.92473,8.04407,-0.263199,-0.607793,0.0392469,0
2024-11-29 18:18:12.341,1.60648,1.89362,8.25972,-0.298628,-0.62001,-0.0224486,0
2024-11-29 18:18:12.343,1.63998,1.86012,8.47029,-0.329781,-0.627951,-0.0841442,0
2024-11-29 18:18:12.345,1.6328,1.81705,8.68086,-0.356048,-0.638946,-0.143396,0
2024-11-29 18:18:12.349,1.57537,1.77637,8.83669,-0.37254,-0.645666,-0.201427,0
2024-11-29 18:18:12.350,1.4988,1.72612,8.96591,-0.387201,-0.649331,-0.25396,0
2024-11-29 18:18:12.353,1.37408,1.68066,9.09512,-0.399418,-0.652996,-0.304049,0
2024-11-29 18:18:12.356,1.21376,1.6352,9.19083,-0.406748,-0.657272,-0.390179,0
2024-11-29 18:18:12.357,1.03908,1.58016,9.26052,-0.406748,-0.657272,-0.390179,0
2024-11-29 18:18:12.360,0.88355,1.52273,9.29881,-0.405526,-0.660937,-0.424997,0
2024-11-29 18:18:12.363,0.732503,1.44616,9.32034,-0.398196,-0.665824,-0.479973,0
2024-11-29 18:18:12.365,0.60329,1.3669,9.34427,-0.398196,-0.665824,-0.479973,0
2024-11-29 18:18:12.367,0.483649,1.30229,9.35624,-0.391477,-0.666434,-0.49952,0
2024-11-29 18:18:12.370,0.361615,1.23529,9.35863,-0.374373,-0.669489,-0.52823,0
2024-11-29 18:18:12.372,0.272782,1.16112,9.37299,-0.374373,-0.669489,-0.52823,0
2024-11-29 18:18:12.374,0.184247,1.07737,9.38016,-0.364599,-0.670099,-0.536171,0
2024-11-29 18:18:12.377,0.0861416,1.01276,9.39931,-0.348107,-0.667045,-0.540447,0
2024-11-29 18:18:12.378,-0.0119641,0.986441,9.41606,-0.331003,-0.662769,-0.539836,0
2024-11-29 18:18:12.382,-0.102891,0.972084,9.4017,-0.315732,-0.655439,-0.536782,0
2024-11-29 18:18:12.383,-0.200997,0.948156,9.38974,-0.292519,-0.644444,-0.529452,0
2024-11-29 18:18:12.386,-0.335294,0.929013,9.38734,-0.292519,-0.644444,-0.529452,0
2024-11-29 18:18:12.389,-0.447757,0.931406,9.37538,-0.254036,-0.622453,-0.49891,0
2024-11-29 18:18:12.391,-0.524327,0.945763,9.34666,-0.211888,-0.597409,-0.45615,0
2024-11-29 18:18:12.392,-0.60329,0.952942,9.30838,-0.211888,-0.597409,-0.45615,0
2024-11-29 18:18:12.396,-0.667897,0.938585,9.26531,-0.188065,-0.58397,-0.42744,0
2024-11-29 18:18:12.397,-0.720539,0.938585,9.21476,-0.165463,-0.568699,-0.398731,0
2024-11-29 18:18:12.400,-0.74686,0.945763,9.17887,-0.145305,-0.551595,-0.368188,0
2024-11-29 18:18:12.403,-0.742074,0.940978,9.14776,-0.102546,-0.517388,-0.302828,0
2024-11-29 18:18:12.405,-0.751645,0.94337,9.11187,-0.102546,-0.517388,-0.302828,0
2024-11-29 18:18:12.407,-0.754038,0.929013,9.07119,-0.0842206,-0.496619,-0.26862,0
2024-11-29 18:18:12.409,-0.727717,0.933799,9.03291,-0.0640626,-0.47585,-0.234413,0
2024-11-29 18:18:12.412,-0.699003,0.952942,9.01376,-0.0243575,-0.429426,-0.165387,0
2024-11-29 18:18:12.414,-0.667897,0.964906,8.98266,-0.0243575,-0.429426,-0.165387,0
2024-11-29 18:18:12.417,-0.624826,0.988834,8.93719,0.0122933,-0.38239,-0.100026,0
2024-11-29 18:18:12.419,-0.576969,1.01276,8.88694,0.0122933,-0.38239,-0.100026,0
2024-11-29 18:18:12.422,-0.536291,1.04626,8.83909,0.0300079,-0.357346,-0.0676513,0
2024-11-29 18:18:12.423,-0.478864,1.07258,8.78884,0.0465007,-0.328025,-0.0377198,0
2024-11-29 18:18:12.425,-0.407079,1.10369,8.74098,0.0636045,-0.299315,-0.00839915,0
2024-11-29 18:18:12.428,-0.347258,1.15155,8.69522,0.0782648,-0.268773,0.0196998,0
2024-11-29 18:18:12.430,-0.287438,1.2018,8.63061,0.0947577,-0.238841,0.0465771,0
2024-11-29 18:18:12.433,-0.229711,1.24487,8.5684,0.109418,-0.205245,0.0728435,0
2024-11-29 18:18:12.435,-0.16989,1.27119,8.51097,0.122857,-0.168594,0.0966666,0
2024-11-29 18:18:12.437,-0.105284,1.28554,8.4344,0.140571,-0.133776,0.12049,0
2024-11-29 18:18:12.441,-0.0574277,1.31186,8.34347,0.164394,-0.064139,0.165081,0
2024-11-29 18:18:12.442,0.00239282,1.35254,8.25494,0.164394,-0.064139,0.165081,0
2024-11-29 18:18:12.445,0.0502493,1.38844,8.1664,0.176611,-0.0299315,0.185239,0
2024-11-29 18:18:12.447,0.0909273,1.42223,8.07518,0.185774,0.00733017,0.206008,0
2024-11-29 18:18:12.450,0.157926,1.44855,7.96272,0.194326,0.0427593,0.224334,0
2024-11-29 18:18:12.452,0.217747,1.46052,7.8335,0.21143,0.111785,0.258541,0
2024-11-29 18:18:12.455,0.275175,1.4988,7.72583,0.21143,0.111785,0.258541,0
2024-11-29 18:18:12.456,0.34008,1.55145,7.62054,0.217538,0.147825,0.275645,0
2024-11-29 18:18:12.458,0.397508,1.58973,7.50778,0.223646,0.182032,0.287862,0
2024-11-29 18:18:12.462,0.459721,1.62802,7.41207,0.224868,0.21624,0.299468,0
2024-11-29 18:18:12.464,0.517149,1.6663,7.32593,0.234642,0.282822,0.319015,0
2024-11-29 18:18:12.466,0.567398,1.72373,7.23021,0.234642,0.282822,0.319015,0
2024-11-29 18:18:12.469,0.615255,1.78116,7.14168,0.238307,0.31703,0.324513,0
2024-11-29 18:18:12.471,0.651147,1.81944,7.05554,0.242583,0.348794,0.329399,0
2024-11-29 18:18:12.473,0.687039,1.87208,6.95235,0.245637,0.379336,0.331843,0
2024-11-29 18:18:12.476,0.720539,1.92951,6.83988,0.248691,0.409879,0.334897,0
2024-11-29 18:18:12.478,0.749253,1.98006,6.72742,0.251745,0.463022,0.332454,0
2024-11-29 18:18:12.481,0.756431,2.03749,6.59342,0.251745,0.463022,0.332454,0
2024-11-29 18:18:12.483,0.76361,2.08295,6.45942,0.250524,0.484402,0.33001,0
2024-11-29 18:18:12.485,0.770788,2.11645,6.32513,0.248691,0.505782,0.326956,0
2024-11-29 18:18:12.488,0.775574,2.13559,6.18395,0.241361,0.520442,0.323291,0
2024-11-29 18:18:12.490,0.782752,2.16192,6.04995,0.234031,0.532659,0.319015,0
2024-11-29 18:18:12.492,0.787538,2.18584,5.90399,0.223646,0.541822,0.314128,0
2024-11-29 18:18:12.494,0.792323,2.20499,5.75773,0.21143,0.546097,0.30802,0
2024-11-29 18:18:12.497,0.804287,2.23849,5.63809,0.196158,0.54793,0.30069,0
2024-11-29 18:18:12.499,0.801895,2.26481,5.53998,0.178444,0.543654,0.292138,0
2024-11-29 18:18:12.501,0.777966,2.29113,5.44906,0.160729,0.535713,0.282975,0
2024-11-29 18:18:12.504,0.744467,2.33181,5.3677,0.114305,0.507614,0.263428,0
2024-11-29 18:18:12.506,0.710967,2.37488,5.29801,0.114305,0.507614,0.263428,0
2024-11-29 18:18:12.509,0.655932,2.42273,5.24537,0.0910926,0.489289,0.2506,0
2024-11-29 18:18:12.511,0.586541,2.46341,5.2358,0.0678804,0.466687,0.241437,0
2024-11-29 18:18:12.514,0.531506,2.51127,5.25972,0.0177909,0.404992,0.220058,0
2024-11-29 18:18:12.516,0.474078,2.55464,5.2669,0.0177909,0.404992,0.220058,0
2024-11-29 18:18:12.517,0.423829,2.59532,5.29083,-0.00481042,0.369563,0.208452,0
2024-11-29 18:18:12.520,0.364008,2.63839,5.36052,-0.0292443,0.328636,0.197456,0
2024-11-29 18:18:12.523,0.297009,2.66949,5.44906,-0.0512348,0.285877,0.188294,0
2024-11-29 18:18:12.524,0.239282,2.72213,5.54955,-0.0707819,0.240063,0.177298,0
2024-11-29 18:18:12.527,0.200997,2.77238,5.66202,-0.0854423,0.192417,0.165081,0
2024-11-29 18:18:12.530,0.174676,2.81306,5.78884,-0.103157,0.141106,0.154086,0
2024-11-29 18:18:12.531,0.141177,2.85613,5.9327,-0.115374,0.0922379,0.141869,0
2024-11-29 18:18:12.535,0.117248,2.8992,6.09063,-0.128202,0.0409268,0.130263,0
2024-11-29 18:18:12.537,0.102891,2.93031,6.25813,-0.139808,-0.00977356,0.114381,0
2024-11-29 18:18:12.539,0.0981057,2.95424,6.4352,-0.145916,-0.0629173,0.100332,0
2024-11-29 18:18:12.543,0.0909273,2.99731,6.79681,-0.150192,-0.163096,0.0734544,0
2024-11-29 18:18:12.544,0.0909273,2.99731,6.79681,-0.150192,-0.163096,0.0734544,0
2024-11-29 18:18:12.546,0.0789631,3.01645,7.00499,-0.14897,-0.211353,0.0594049,0
2024-11-29 18:18:12.549,0.081356,3.03799,7.19193,-0.141029,-0.296872,0.0386361,0
2024-11-29 18:18:12.551,0.0717847,3.04756,7.37617,-0.141029,-0.296872,0.0386361,0
2024-11-29 18:18:12.553,0.040678,3.05474,7.57747,-0.131256,-0.334133,0.0288625,0
2024-11-29 18:18:12.555,0.026321,3.06192,7.75933,-0.120871,-0.367119,0.0227541,0
2024-11-29 18:18:12.557,0.0167498,3.0667,7.94597,-0.106211,-0.398272,0.0184781,0
2024-11-29 18:18:12.560,0.0143569,3.0667,8.14726,-0.0933833,-0.42515,0.0166456,0
2024-11-29 18:18:12.563,0.0167498,3.05713,8.33869,-0.0548999,-0.466076,0.019089,0
2024-11-29 18:18:12.565,0.0239282,3.03799,8.52772,-0.0548999,-0.466076,0.019089,0
2024-11-29 18:18:12.568,0.0526421,3.01645,8.71466,-0.00908635,-0.485013,0.0276408,0
2024-11-29 18:18:12.570,0.0933201,3.0021,8.87259,0.0147367,-0.486845,0.0325276,0
2024-11-29 18:18:12.572,0.114855,2.98535,9.02094,0.0147367,-0.486845,0.0325276,0
2024-11-29 18:18:12.575,0.124427,2.96381,9.17169,0.0727672,-0.472185,0.0502422,0
2024-11-29 18:18:12.577,0.133998,2.9662,9.29163,0.0727672,-0.472185,0.0502422,0
2024-11-29 18:18:12.578,0.141177,2.98535,9.38016,0.0996445,-0.45447,0.0624591,0
2024-11-29 18:18:12.582,0.160319,2.99492,9.44956,0.153399,-0.406213,0.0881147,0
2024-11-29 18:18:12.584,0.179462,3.00927,9.49741,0.178444,-0.374449,0.103386,0
2024-11-29 18:18:12.587,0.196211,3.04995,9.52852,0.202878,-0.340242,0.119268,0
2024-11-29 18:18:12.589,0.210568,3.09811,9.51895,0.202878,-0.340242,0.119268,0
2024-11-29 18:18:12.591,0.22014,3.13161,9.49263,0.242583,-0.262053,0.148589,0
2024-11-29 18:18:12.594,0.232104,3.15314,9.43998,0.242583,-0.262053,0.148589,0
2024-11-29 18:18:12.595,0.232104,3.17946,9.36341,0.253578,-0.222959,0.161416,0
2024-11-29 18:18:12.597,0.234497,3.22253,9.27727,0.261519,-0.185087,0.173633,0
2024-11-29 18:18:12.600,0.260818,3.26082,9.17887,0.270071,-0.149047,0.184018,0
2024-11-29 18:18:12.603,0.297009,3.28475,9.09033,0.268238,-0.113007,0.191959,0
2024-11-29 18:18:12.605,0.313759,3.31825,9.01137,0.266406,-0.0818535,0.198678,0
2024-11-29 18:18:12.608,0.328116,3.38285,8.93959,0.246859,-0.0287098,0.204787,0
2024-11-29 18:18:12.609,0.347258,3.45224,8.88216,0.246859,-0.0287098,0.204787,0
2024-11-29 18:18:12.612,0.354437,3.51207,8.83191,0.246859,-0.0287098,0.204787,0
2024-11-29 18:18:12.614,0.366401,3.57189,8.78405,0.218149,0.023823,0.206008,0
2024-11-29 18:18:12.617,0.385544,3.64606,8.75294,0.183331,0.0830752,0.202954,0
2024-11-29 18:18:12.620,0.3999,3.72054,8.7362,0.183331,0.0830752,0.202954,0
2024-11-29 18:18:12.622,0.41665,3.77318,8.7027,0.143015,0.142327,0.190737,0
2024-11-29 18:18:12.624,0.435793,3.84018,8.67608,0.143015,0.142327,0.190737,0
2024-11-29 18:18:12.626,0.447757,3.90957,8.64975,0.122857,0.172259,0.180964,0
2024-11-29 18:18:12.629,0.454935,3.95982,8.64258,0.0782648,0.216851,0.15653,0
2024-11-29 18:18:12.631,0.452543,4.00529,8.65933,0.0526092,0.232122,0.143091,0
2024-11-29 18:18:12.633,0.4669,4.04596,8.67129,0.0526092,0.232122,0.143091,0
2024-11-29 18:18:12.636,0.478864,4.08425,8.69522,0.029397,0.243117,0.125987,0
2024-11-29 18:18:12.638,0.462114,4.12493,8.73141,0.00862822,0.251669,0.109494,0
2024-11-29 18:18:12.640,0.462114,4.16561,8.77927,-0.0176382,0.252891,0.0917798,0
2024-11-29 18:18:12.643,0.474078,4.19432,8.83191,-0.0439046,0.25228,0.0728435,0
2024-11-29 18:18:12.644,0.495613,4.22333,8.89173,-0.0658951,0.249226,0.0539073,0
2024-11-29 18:18:12.649,0.517149,4.24247,9.07837,-0.111098,0.234565,0.014813,0
2024-11-29 18:18:12.650,0.517149,4.24247,9.07837,-0.111098,0.234565,0.014813,0
2024-11-29 18:18:12.652,0.517149,4.24726,9.15494,-0.131256,0.222348,-0.00412322,0
2024-11-29 18:18:12.655,0.517149,4.24726,9.26292,-0.17035,0.191806,-0.0401632,0
2024-11-29 18:18:12.656,0.50997,4.25205,9.38256,-0.17035,0.191806,-0.0401632,0
2024-11-29 18:18:12.659,0.507577,4.25444,9.50698,-0.186843,0.174091,-0.0566561,0
2024-11-29 18:18:12.661,0.512363,4.24965,9.65295,-0.203336,0.15149,-0.0725381,0
2024-11-29 18:18:12.664,0.512363,4.23769,9.79652,-0.226548,0.10812,-0.10247,0
2024-11-29 18:18:12.667,0.517149,4.23051,9.94517,-0.226548,0.10812,-0.10247,0
2024-11-29 18:18:12.669,0.52672,4.21376,10.1055,-0.233878,0.0867403,-0.112854,0
2024-11-29 18:18:12.671,0.56022,4.19432,10.2802,-0.238765,0.0659715,-0.123849,0
2024-11-29 18:18:12.673,0.596112,4.15843,10.4623,-0.241819,0.0488678,-0.134845,0
2024-11-29 18:18:12.675,0.634397,4.11775,10.6179,-0.241208,0.0317641,-0.145229,0
2024-11-29 18:18:12.677,0.667897,4.09382,10.7566,-0.238765,0.020158,-0.154392,0
2024-11-29 18:18:12.680,0.691825,4.07946,10.8954,-0.2351,0.0128278,-0.161111,0
2024-11-29 18:18:12.682,0.718146,4.05554,11.0273,-0.22777,0.00610847,-0.169663,0
2024-11-29 18:18:12.685,0.732503,4.03639,11.1517,-0.215553,0.00488678,-0.17516,0
2024-11-29 18:18:12.687,0.727717,4.02682,11.2451,-0.207001,0.0,-0.179436,0
2024-11-29 18:18:12.690,0.715753,4.01964,11.3288,-0.181345,0.00305424,-0.183101,0
2024-11-29 18:18:12.693,0.684646,4.01007,11.4006,-0.169128,0.00855186,-0.182491,0
2024-11-29 18:18:12.695,0.641576,3.99332,11.4389,-0.169128,0.00855186,-0.182491,0
2024-11-29 18:18:12.697,0.593719,4.0005,11.4772,-0.157522,0.0122169,-0.18188,0
2024-11-29 18:18:12.700,0.548256,4.02682,11.5205,-0.145305,0.0171037,-0.176382,0
2024-11-29 18:18:12.702,0.488435,4.02204,11.5349,-0.122704,0.0299315,-0.162944,0
2024-11-29 18:18:12.704,0.414257,4.0005,11.5158,-0.122704,0.0299315,-0.162944,0
2024-11-29 18:18:12.707,0.347258,3.99571,11.4963,-0.122704,0.0299315,-0.162944,0
2024-11-29 18:18:12.708,0.275175,3.99093,11.482,-0.101324,0.0390942,-0.13912,0
2024-11-29 18:18:12.711,0.236889,3.99332,11.4652,-0.0939941,0.0433702,-0.125071,0
2024-11-29 18:18:12.713,0.200997,3.99093,11.4532,-0.090329,0.0452027,-0.111021,0
2024-11-29 18:18:12.716,0.155533,3.97897,11.4269,-0.086664,0.0488678,-0.0817008,0
2024-11-29 18:18:12.717,0.129212,3.96222,11.3982,-0.086664,0.0488678,-0.0817008,0
