timestamp,accel_x,accel_y,accel_z,gyro_x,gyro_y,gyro_z,step_timestamp
2024-11-29 18:11:14.780,0.498006,2.65992,9.66491,-0.00542127,-0.015882,-0.0267246,0
2024-11-29 18:11:14.780,0.498006,2.65992,9.66491,-0.00542127,-0.015882,-0.0267246,0
2024-11-29 18:11:14.780,0.498006,2.65992,9.66491,-0.00542127,-0.015882,-0.0267246,0
2024-11-29 18:11:14.780,0.498006,2.65992,9.66491,-0.00542127,-0.015882,-0.0267246,0
2024-11-29 18:11:14.780,0.498006,2.65992,9.66491,-0.00542127,-0.015882,-0.0267246,0
2024-11-29 18:11:14.780,0.498006,2.65992,9.66491,-0.00542127,-0.015882,-0.0267246,0
2024-11-29 18:11:14.780,0.498006,2.65992,9.66491,-0.00542127,-0.015882,-0.0267246,0
2024-11-29 18:11:14.780,0.498006,2.65992,9.66491,-0.00542127,-0.015882,-0.0267246,0
2024-11-29 18:11:14.780,0.498006,2.65992,9.66491,-0.00542127,-0.015882,-0.0267246,0
2024-11-29 18:11:14.780,0.498006,2.65992,9.66491,-0.00542127,-0.015882,-0.0267246,0
2024-11-29 18:11:14.780,0.498006,2.65992,9.66491,-0.00542127,-0.015882,-0.0267246,0
2024-11-29 18:11:14.780,0.498006,2.65992,9.66491,-0.00542127,-0.015882,-0.0267246,0
2024-11-29 18:11:14.780,0.498006,2.65992,9.66491,-0.00542127,-0.015882,-0.0267246,0
2024-11-29 18:11:14.780,0.498006,2.65992,9.66491,-0.00542127,-0.015882,-0.0267246,0
2024-11-29 18:11:14.780,0.498006,2.65992,9.66491,-0.00542127,-0.015882,-0.0267246,0
2024-11-29 18:11:14.780,0.498006,2.65992,9.66491,-0.00542127,-0.015882,-0.0267246,0
2024-11-29 18:11:14.780,0.498006,2.65992,9.66491,-0.00542127,-0.015882,-0.0267246,0
2024-11-29 18:11:14.780,0.498006,2.65992,9.66491,-0.00542127,-0.015882,-0.0267246,0
2024-11-29 18:11:14.780,0.498006,2.65992,9.66491,-0.00542127,-0.015882,-0.0267246,0
2024-11-29 18:11:14.780,0.498006,2.65992,9.66491,-0.00542127,-0.015882,-0.0267246,0
2024-11-29 18:11:14.780,0.498006,2.65992,9.66491,-0.00542127,-0.015882,-0.0267246,0
2024-11-29 18:11:14.780,0.498006,2.65992,9.66491,-0.00542127,-0.015882,-0.0267246,0
2024-11-29 18:11:14.780,0.498006,2.65992,9.66491,-0.00542127,-0.015882,-0.0267246,0
2024-11-29 18:11:14.780,0.498006,2.65992,9.66491,-0.00542127,-0.015882,-0.0267246,0
2024-11-29 18:11:14.780,0.498006,2.65992,9.66491,-0.00542127,-0.015882,-0.0267246,0
2024-11-29 18:11:14.780,0.498006,2.65992,9.66491,-0.00542127,-0.015882,-0.0267246,0
2024-11-29 18:11:14.780,0.498006,2.65992,9.66491,-0.00542127,-0.015882,-0.0267246,0
2024-11-29 18:11:14.780,0.498006,2.65992,9.66491,-0.00542127,-0.015882,-0.0267246,0
2024-11-29 18:11:14.780,0.498006,2.65992,9.66491,-0.00542127,-0.015882,-0.0267246,0
2024-11-29 18:11:14.781,0.498006,2.65992,9.66491,-0.00542127,-0.015882,-0.0267246,0
2024-11-29 18:11:14.781,0.498006,2.65992,9.66491,-0.00542127,-0.015882,-0.0267246,0
2024-11-29 18:11:14.781,0.498006,2.65992,9.66491,-0.00542127,-0.015882,-0.0267246,0
2024-11-29 18:11:14.781,0.498006,2.65992,9.66491,-0.00542127,-0.015882,-0.0267246,0
2024-11-29 18:11:14.781,0.498006,2.65992,9.66491,-0.00542127,-0.015882,-0.0267246,0
2024-11-29 18:11:14.781,0.498006,2.65992,9.66491,-0.00542127,-0.015882,-0.0267246,0
2024-11-29 18:11:14.781,0.498006,2.65992,9.66491,-0.00542127,-0.015882,-0.0267246,0
2024-11-29 18:11:14.781,0.498006,2.65992,9.66491,-0.00542127,-0.015882,-0.0267246,0
2024-11-29 18:11:14.781,0.498006,2.65992,9.66491,-0.00542127,-0.015882,-0.0267246,0
2024-11-29 18:11:14.781,0.498006,2.65992,9.66491,-0.00542127,-0.015882,-0.0267246,0
2024-11-29 18:11:14.781,0.498006,2.65992,9.66491,-0.00542127,-0.015882,-0.0267246,0
2024-11-29 18:11:14.781,0.498006,2.65992,9.66491,-0.00542127,-0.015882,-0.0267246,0
2024-11-29 18:11:14.781,0.498006,2.65992,9.66491,-0.00542127,-0.015882,-0.0267246,0
2024-11-29 18:11:14.781,0.498006,2.65992,9.66491,-0.00542127,-0.015882,-0.0267246,0
2024-11-29 18:11:14.781,0.498006,2.65992,9.66491,-0.00542127,-0.015882,-0.0267246,0
2024-11-29 18:11:14.781,0.498006,2.65992,9.66491,-0.00542127,-0.015882,-0.0267246,0
2024-11-29 18:11:14.781,0.498006,2.65992,9.66491,-0.00542127,-0.015882,-0.0267246,0
2024-11-29 18:11:14.781,0.498006,2.65992,9.66491,-0.00542127,-0.015882,-0.0267246,0
2024-11-29 18:11:14.781,0.498006,2.65992,9.66491,-0.00542127,-0.015882,-0.0267246,0
2024-11-29 18:11:14.781,0.498006,2.65992,9.66491,-0.00542127,-0.015882,-0.0267246,0
2024-11-29 18:11:14.781,0.498006,2.65992,9.66491,-0.00542127,-0.015882,-0.0267246,0
2024-11-29 18:11:14.781,0.498006,2.65992,9.66491,-0.00542127,-0.015882,-0.0267246,0
2024-11-29 18:11:14.781,0.498006,2.65992,9.66491,-0.00542127,-0.015882,-0.0267246,0
2024-11-29 18:11:14.781,0.498006,2.65992,9.66491,-0.00542127,-0.015882,-0.0267246,0
2024-11-29 18:11:14.781,0.498006,2.65992,9.66491,-0.00542127,-0.015882,-0.0267246,0
2024-11-29 18:11:14.781,0.498006,2.65992,9.66491,-0.00542127,-0.015882,-0.0267246,0
2024-11-29 18:11:14.781,0.498006,2.65992,9.66491,-0.00542127,-0.015882,-0.0267246,0
2024-11-29 18:11:14.781,0.498006,2.65992,9.66491,-0.00542127,-0.015882,-0.0267246,0
2024-11-29 18:11:14.781,0.498006,2.65992,9.66491,-0.00542127,-0.015882,-0.0267246,0
2024-11-29 18:11:14.781,0.498006,2.65992,9.66491,-0.00542127,-0.015882,-0.0267246,0
2024-11-29 18:11:14.781,0.498006,2.65992,9.66491,-0.00542127,-0.015882,-0.0267246,0
2024-11-29 18:11:14.781,0.498006,2.65992,9.66491,-0.00542127,-0.015882,-0.0267246,0
2024-11-29 18:11:14.781,0.498006,2.65992,9.66491,-0.00542127,-0.015882,-0.0267246,0
2024-11-29 18:11:14.781,0.498006,2.65992,9.66491,-0.00542127,-0.015882,-0.0267246,0
2024-11-29 18:11:14.788,0.502792,2.69103,9.69841,-0.00603212,-0.0164929,-0.0297788,0
2024-11-29 18:11:14.797,0.490828,2.69821,9.69362,-0.00542127,-0.0146603,-0.0358873,0
2024-11-29 18:11:14.801,0.471685,2.68385,9.68645,-0.00419957,-0.0122169,-0.037109,0
2024-11-29 18:11:14.804,0.469292,2.67189,9.68884,-0.00603212,-0.015882,-0.0413849,0
2024-11-29 18:11:14.804,0.469292,2.67189,9.68884,-0.00603212,-0.015882,-0.0413849,0
2024-11-29 18:11:14.804,0.469292,2.67189,9.68884,-0.00603212,-0.015882,-0.0413849,0
2024-11-29 18:11:14.804,0.469292,2.67189,9.68884,-0.00603212,-0.015882,-0.0413849,0
2024-11-29 18:11:14.805,0.469292,2.67189,9.68884,-0.00542127,-0.0183254,-0.0438283,0
2024-11-29 18:11:14.805,0.469292,2.67189,9.68884,-0.00542127,-0.0183254,-0.0438283,0
2024-11-29 18:11:14.806,0.469292,2.65753,9.67687,-0.00542127,-0.0183254,-0.0438283,0
2024-11-29 18:11:14.806,0.469292,2.65753,9.67687,-0.00542127,-0.0183254,-0.0438283,0
2024-11-29 18:11:14.806,0.469292,2.65753,9.67687,-0.00542127,-0.0183254,-0.0438283,0
2024-11-29 18:11:14.806,0.469292,2.65753,9.67687,-0.00542127,-0.0183254,-0.0438283,0
2024-11-29 18:11:14.806,0.469292,2.65753,9.67687,-0.00542127,-0.0183254,-0.0438283,0
2024-11-29 18:11:14.807,0.469292,2.65753,9.67687,-0.010308,-0.020158,-0.04505,0
2024-11-29 18:11:14.809,0.4669,2.65753,9.6697,-0.010308,-0.020158,-0.04505,0
2024-11-29 18:11:14.810,0.4669,2.65753,9.6697,-0.00847551,-0.0226013,-0.0468825,0
2024-11-29 18:11:14.810,0.4669,2.65753,9.6697,-0.00847551,-0.0226013,-0.0468825,0
2024-11-29 18:11:14.810,0.4669,2.65753,9.6697,-0.00847551,-0.0226013,-0.0468825,0
2024-11-29 18:11:14.811,0.469292,2.65274,9.68166,-0.00847551,-0.0226013,-0.0468825,0
2024-11-29 18:11:14.811,0.469292,2.65274,9.68166,-0.00847551,-0.0226013,-0.0468825,0
2024-11-29 18:11:14.812,0.469292,2.65274,9.68166,-0.010308,-0.0256556,-0.0474934,0
2024-11-29 18:11:14.812,0.469292,2.65274,9.68166,-0.010308,-0.0256556,-0.0474934,0
2024-11-29 18:11:14.812,0.469292,2.65274,9.68166,-0.010308,-0.0256556,-0.0474934,0
2024-11-29 18:11:14.812,0.469292,2.65274,9.68166,-0.010308,-0.0256556,-0.0474934,0
2024-11-29 18:11:14.813,0.459721,2.64796,9.69362,-0.010308,-0.0256556,-0.0474934,0
2024-11-29 18:11:14.813,0.459721,2.64796,9.69362,-0.010308,-0.0256556,-0.0474934,0
2024-11-29 18:11:14.813,0.459721,2.64796,9.69362,-0.010308,-0.0256556,-0.0474934,0
2024-11-29 18:11:14.814,0.459721,2.64796,9.69362,-0.0115297,-0.028099,-0.0499368,0
2024-11-29 18:11:14.814,0.459721,2.64796,9.69362,-0.0115297,-0.028099,-0.0499368,0
2024-11-29 18:11:14.816,0.445364,2.65753,9.69841,-0.0115297,-0.028099,-0.0499368,0
2024-11-29 18:11:14.816,0.445364,2.65753,9.69841,-0.0115297,-0.028099,-0.0499368,0
2024-11-29 18:11:14.817,0.445364,2.65753,9.69841,-0.00847551,-0.0293207,-0.0517693,0
2024-11-29 18:11:14.817,0.445364,2.65753,9.69841,-0.00847551,-0.0293207,-0.0517693,0
2024-11-29 18:11:14.817,0.445364,2.65753,9.69841,-0.00847551,-0.0293207,-0.0517693,0
2024-11-29 18:11:14.817,0.445364,2.65753,9.69841,-0.00847551,-0.0293207,-0.0517693,0
2024-11-29 18:11:14.817,0.445364,2.65753,9.69841,-0.00847551,-0.0293207,-0.0517693,0
2024-11-29 18:11:14.819,0.442971,2.65753,9.70319,-0.00847551,-0.0293207,-0.0517693,0
2024-11-29 18:11:14.820,0.442971,2.64556,9.71755,-0.010308,-0.0293207,-0.0511585,0
2024-11-29 18:11:14.824,0.428614,2.6336,9.72712,-0.014584,-0.0293207,-0.0536018,0
2024-11-29 18:11:14.826,0.41665,2.63121,9.71755,-0.0115297,-0.0268773,-0.0517693,0
2024-11-29 18:11:14.828,0.404686,2.63599,9.72234,-0.0115297,-0.0268773,-0.0517693,0
2024-11-29 18:11:14.832,0.387936,2.63599,9.76062,-0.0109189,-0.0256556,-0.0505476,0
2024-11-29 18:11:14.833,0.387936,2.63599,9.76062,-0.00908635,-0.023823,-0.0499368,0
2024-11-29 18:11:14.834,0.368794,2.63121,9.77977,-0.00908635,-0.023823,-0.0499368,0
2024-11-29 18:11:14.838,0.364008,2.61685,9.78694,-0.00847551,-0.023823,-0.0474934,0
2024-11-29 18:11:14.839,0.354437,2.61924,9.78455,-0.00847551,-0.023823,-0.0474934,0
2024-11-29 18:11:14.842,0.344866,2.61446,9.77977,-0.00725381,-0.0219905,-0.0474934,0
2024-11-29 18:11:14.845,0.349651,2.60967,9.76302,-0.00725381,-0.0189363,-0.0444391,0
2024-11-29 18:11:14.846,0.349651,2.61446,9.76062,-0.00542127,-0.0183254,-0.0444391,0
2024-11-29 18:11:14.849,0.344866,2.60967,9.74387,-0.00542127,-0.0164929,-0.0432174,0
2024-11-29 18:11:14.851,0.318545,2.61446,9.73909,-0.00236703,-0.015882,-0.0413849,0
2024-11-29 18:11:14.854,0.289831,2.61446,9.74866,-0.00481042,-0.015882,-0.0389415,0
2024-11-29 18:11:14.857,0.289831,2.60489,9.73191,-0.00664296,-0.0177146,-0.0340547,0
2024-11-29 18:11:14.858,0.294616,2.60489,9.74148,-0.00542127,-0.0171037,-0.032833,0
2024-11-29 18:11:14.860,0.275175,2.60728,9.75584,-0.00481042,-0.0189363,-0.032833,0
2024-11-29 18:11:14.863,0.270389,2.60249,9.74627,-0.00297788,-0.020158,-0.0285571,0
2024-11-29 18:11:14.865,0.282652,2.60967,9.7343,-0.00481042,-0.0195471,-0.0242812,0
2024-11-29 18:11:14.867,0.294616,2.61685,9.73669,-0.00358873,-0.0177146,-0.0242812,0
2024-11-29 18:11:14.871,0.299402,2.61924,9.73669,-0.00358873,-0.0177146,-0.0224486,0
2024-11-29 18:11:14.873,0.313759,2.61446,9.7343,-0.00114534,-0.0171037,-0.0212269,0
2024-11-29 18:11:14.875,0.32333,2.60249,9.74387,-0.00114534,-0.0171037,-0.0212269,0
2024-11-29 18:11:14.877,0.335294,2.61207,9.74627,-0.00175619,-0.0140495,-0.0206161,0
2024-11-29 18:11:14.882,0.313759,2.66231,9.73669,0.0019089,-0.0122169,-0.0200052,0
2024-11-29 18:11:14.883,0.313759,2.66231,9.73669,0.00251974,-0.0116061,-0.0175619,0
2024-11-29 18:11:14.884,0.318545,2.67189,9.72473,0.00251974,-0.0116061,-0.0175619,0
2024-11-29 18:11:14.886,0.318545,2.67667,9.71277,0.00374144,-0.00733017,-0.0187836,0
2024-11-29 18:11:14.889,0.318545,2.67906,9.68166,0.0019089,-0.00366508,-0.0193944,0
2024-11-29 18:11:14.892,0.325723,2.67667,9.6673,0.000687203,0.00183254,-0.0175619,0
2024-11-29 18:11:14.894,0.328116,2.68385,9.67687,0.00129805,0.00610847,-0.0163402,0
2024-11-29 18:11:14.896,0.330509,2.69821,9.65773,7.63559e-05,0.00794101,-0.016951,0
2024-11-29 18:11:14.899,0.344866,2.7006,9.64816,-0.00175619,0.00916271,-0.0175619,0
2024-11-29 18:11:14.900,0.337687,2.70539,9.64337,-0.00175619,0.0116061,-0.0157293,0
2024-11-29 18:11:14.903,0.328116,2.70778,9.63859,-0.00419957,0.0109953,-0.0145076,0
2024-11-29 18:11:14.906,0.34008,2.7006,9.64098,-0.00481042,0.0134386,-0.0163402,0
2024-11-29 18:11:14.908,0.349651,2.69821,9.62184,-0.00481042,0.0134386,-0.0163402,0
2024-11-29 18:11:14.911,0.34008,2.7006,9.61466,-0.00481042,0.0134386,-0.0157293,0
2024-11-29 18:11:14.913,0.332901,2.7006,9.62663,-0.00481042,0.0134386,-0.0157293,0
2024-11-29 18:11:14.915,0.337687,2.71256,9.62902,-0.00419957,0.0146603,-0.0145076,0
2024-11-29 18:11:14.917,0.330509,2.71017,9.62184,-0.00297788,0.0140495,-0.0145076,0
2024-11-29 18:11:14.920,0.325723,2.69342,9.61466,-0.00236703,0.0109953,-0.0157293,0
2024-11-29 18:11:14.922,0.332901,2.70778,9.6027,-0.00236703,0.0109953,-0.0157293,0
2024-11-29 18:11:14.924,0.32333,2.73649,9.58595,-0.00236703,0.0109953,-0.0157293,0
2024-11-29 18:11:14.926,0.316152,2.75563,9.58116,-0.00175619,0.0103844,-0.0151185,0
2024-11-29 18:11:14.929,0.308973,2.75085,9.5668,-0.00236703,0.00916271,-0.016951,0
2024-11-29 18:11:14.932,0.292223,2.75563,9.55484,-0.00358873,0.00916271,-0.0145076,0
2024-11-29 18:11:14.934,0.27996,2.77717,9.52134,-0.00358873,0.00916271,-0.0145076,0
2024-11-29 18:11:14.936,0.267996,2.78913,9.49263,-0.00297788,0.0109953,-0.016951,0
2024-11-29 18:11:14.939,0.263211,2.78674,9.48545,-0.00603212,0.0128278,-0.016951,0
2024-11-29 18:11:14.941,0.272782,2.77717,9.47348,-0.00542127,0.0134386,-0.0157293,0
2024-11-29 18:11:14.944,0.275175,2.76999,9.45673,-0.00664296,0.0164929,-0.0145076,0
2024-11-29 18:11:14.948,0.275175,2.74846,9.43759,-0.014584,0.0116061,-0.0175619,0
2024-11-29 18:11:14.948,0.292223,2.74846,9.43759,-0.014584,0.0116061,-0.0175619,0
2024-11-29 18:11:14.951,0.311366,2.73171,9.39691,-0.0176382,0.00794101,-0.0200052,0
2024-11-29 18:11:14.952,0.330509,2.72692,9.36341,-0.0176382,0.00305424,-0.0224486,0
2024-11-29 18:11:14.956,0.337687,2.71974,9.35384,-0.0316877,-0.0103844,-0.0261137,0
2024-11-29 18:11:14.958,0.337687,2.70778,9.34427,-0.0316877,-0.0103844,-0.0261137,0
2024-11-29 18:11:14.959,0.328116,2.70299,9.33949,-0.0365745,-0.0177146,-0.0310005,0
2024-11-29 18:11:14.963,0.316152,2.70539,9.35145,-0.0439046,-0.023823,-0.032833,0
2024-11-29 18:11:14.964,0.297009,2.71017,9.36341,-0.0494023,-0.0317641,-0.0364981,0
2024-11-29 18:11:14.967,0.275175,2.71735,9.39213,-0.0548999,-0.0384834,-0.0377198,0
2024-11-29 18:11:14.970,0.277567,2.73649,9.44238,-0.0591758,-0.0452027,-0.0395524,0
2024-11-29 18:11:14.971,0.27996,2.74128,9.5022,-0.0628409,-0.0507003,-0.0413849,0
2024-11-29 18:11:14.974,0.272782,2.73171,9.55963,-0.0677277,-0.0561979,-0.0413849,0
2024-11-29 18:11:14.976,0.270389,2.73171,9.60748,-0.0689494,-0.059863,-0.0419957,0
2024-11-29 18:11:14.979,0.265603,2.72692,9.65295,-0.0677277,-0.0665824,-0.0438283,0
2024-11-29 18:11:14.981,0.277567,2.71496,9.7008,-0.0677277,-0.0665824,-0.0438283,0
2024-11-29 18:11:14.984,0.292223,2.71496,9.73669,-0.0658951,-0.0647498,-0.0426066,0
2024-11-29 18:11:14.986,0.272782,2.70539,9.77259,-0.0634518,-0.0629173,-0.0438283,0
2024-11-29 18:11:14.988,0.241675,2.7006,9.81326,-0.0610084,-0.0604739,-0.0438283,0
2024-11-29 18:11:14.991,0.210568,2.71017,9.83031,-0.058565,-0.0568088,-0.04505,0
2024-11-29 18:11:14.992,0.184247,2.71496,9.84467,-0.0561216,-0.0537546,-0.0432174,0
2024-11-29 18:11:14.995,0.165105,2.71256,9.86381,-0.050624,-0.0494786,-0.0401632,0
2024-11-29 18:11:14.998,0.143569,2.72692,9.8686,-0.0469589,-0.0433702,-0.0364981,0
2024-11-29 18:11:14.999,0.112463,2.73649,9.87099,-0.0451263,-0.0384834,-0.0352764,0
2024-11-29 18:11:15.002,0.102891,2.73649,9.88296,-0.0390179,-0.0342074,-0.0297788,0
2024-11-29 18:11:15.005,0.117248,2.74846,9.89013,-0.0371853,-0.028099,-0.0267246,0
2024-11-29 18:11:15.007,0.122034,2.75324,9.89492,-0.0322986,-0.0232122,-0.0230595,0
2024-11-29 18:11:15.009,0.136391,2.75324,9.88296,-0.0292443,-0.0189363,-0.0200052,0
2024-11-29 18:11:15.011,0.150748,2.74367,9.8686,-0.0280226,-0.00977356,-0.0163402,0
2024-11-29 18:11:15.013,0.165105,2.7341,9.85185,-0.0261901,-0.000610847,-0.0151185,0
2024-11-29 18:11:15.016,0.184247,2.74367,9.8351,-0.0231358,0.00916271,-0.0126751,0
2024-11-29 18:11:15.019,0.193819,2.75563,9.81326,-0.0213033,0.0164929,-0.0108425,0
2024-11-29 18:11:15.022,0.193819,2.76042,9.79173,-0.0231358,0.0335966,-0.00656661,0
2024-11-29 18:11:15.024,0.191426,2.74606,9.77019,-0.0231358,0.0335966,-0.00656661,0
2024-11-29 18:11:15.025,0.189033,2.75324,9.74148,-0.022525,0.0421485,-0.00473407,0
2024-11-29 18:11:15.029,0.198604,2.77238,9.71277,-0.0237467,0.0500895,-0.00106898,0
2024-11-29 18:11:15.031,0.212961,2.77478,9.69362,-0.022525,0.0555871,0.000152712,0
2024-11-29 18:11:15.033,0.222533,2.77956,9.67927,-0.0274118,0.0604739,0.000763559,0
2024-11-29 18:11:15.036,0.244068,2.78196,9.6697,-0.0261901,0.0726908,0.0038178,0
2024-11-29 18:11:15.038,0.239282,2.79153,9.65295,-0.0261901,0.0726908,0.0038178,0
2024-11-29 18:11:15.039,0.239282,2.79631,9.63141,-0.0286335,0.0751342,0.0025961,0
2024-11-29 18:11:15.043,0.251246,2.79392,9.61945,-0.0310769,0.0787993,0.00198525,0
2024-11-29 18:11:15.045,0.251246,2.80588,9.61466,-0.0316877,0.0806318,0.00320695,0
2024-11-29 18:11:15.047,0.234497,2.81067,9.61227,-0.0322986,0.0842969,0.00320695,0
2024-11-29 18:11:15.050,0.215354,2.82024,9.59073,-0.0322986,0.0849078,0.0025961,0
2024-11-29 18:11:15.054,0.179462,2.86092,9.56202,-0.0298552,0.0855186,0.0025961,0
2024-11-29 18:11:15.054,0.179462,2.86092,9.56202,-0.0298552,0.0855186,0.0025961,0
2024-11-29 18:11:15.056,0.165105,2.87528,9.56202,-0.0298552,0.0897945,-0.000458135,0
2024-11-29 18:11:15.059,0.157926,2.88963,9.5692,-0.0316877,0.0904054,0.00137441,0
2024-11-29 18:11:15.062,0.155533,2.89203,9.55723,-0.0243575,0.0891837,0.00198525,0
2024-11-29 18:11:15.064,0.141177,2.88485,9.54766,-0.0231358,0.0873512,0.00198525,0
2024-11-29 18:11:15.066,0.129212,2.88245,9.53809,-0.0231358,0.0873512,0.00198525,0
2024-11-29 18:11:15.068,0.124427,2.87528,9.51655,-0.022525,0.0861295,0.0025961,0
2024-11-29 18:11:15.070,0.11007,2.85853,9.50698,-0.0206925,0.0836861,0.00198525,0
2024-11-29 18:11:15.072,0.102891,2.86092,9.5022,-0.0188599,0.0806318,0.0025961,0
2024-11-29 18:11:15.075,0.105284,2.8681,9.49023,-0.0158057,0.0769668,0.0038178,0
2024-11-29 18:11:15.078,0.11007,2.87288,9.48306,-0.014584,0.0751342,0.00442864,0
2024-11-29 18:11:15.079,0.0909273,2.8657,9.4687,-0.0139731,0.07208,0.00503949,0
2024-11-29 18:11:15.082,0.0646062,2.85853,9.44238,-0.0121406,0.0733017,0.00809373,0
2024-11-29 18:11:15.084,0.0598206,2.84895,9.45673,-0.0096972,0.0763559,0.011148,0
2024-11-29 18:11:15.087,0.066999,2.8322,9.47827,-0.00542127,0.0775776,0.0154239,0
2024-11-29 18:11:15.089,0.0622134,2.8346,9.47827,-0.00358873,0.0775776,0.0154239,0
2024-11-29 18:11:15.091,0.0574277,2.85374,9.45913,7.63559e-05,0.0745234,0.0154239,0
2024-11-29 18:11:15.095,0.0741775,2.86092,9.44238,0.00496313,0.0708583,0.014813,0
2024-11-29 18:11:15.096,0.0885344,2.8657,9.44238,0.00557398,0.064139,0.0129805,0
2024-11-29 18:11:15.098,0.0909273,2.86331,9.43041,0.00679568,0.0543654,0.011148,0
2024-11-29 18:11:15.101,0.0789631,2.8657,9.42084,0.00923906,0.043981,0.00992627,0
2024-11-29 18:11:15.104,0.0622134,2.8992,9.39931,0.0110716,0.0348183,0.00626118,0
2024-11-29 18:11:15.105,0.0382852,2.91117,9.38974,0.0110716,0.0226013,0.00565034,0
2024-11-29 18:11:15.108,0.0334995,2.9016,9.38016,0.0110716,0.0134386,0.0038178,0
2024-11-29 18:11:15.111,0.0478565,2.90878,9.37059,0.0110716,0.00549763,0.00320695,0
2024-11-29 18:11:15.112,0.0598206,2.91835,9.38016,0.00984991,-0.00488678,0.00320695,0
2024-11-29 18:11:15.115,0.0861416,2.91835,9.4017,0.0110716,-0.0128278,0.000763559,0
2024-11-29 18:11:15.118,0.100499,2.91595,9.41845,0.00801737,-0.0250447,-0.000458135,0
2024-11-29 18:11:15.119,0.114855,2.90878,9.44956,0.00862822,-0.0384834,-0.00229068,0
2024-11-29 18:11:15.123,0.160319,2.89203,9.47348,0.00740652,-0.0592522,-0.00473407,0
2024-11-29 18:11:15.125,0.193819,2.87049,9.47827,0.00740652,-0.0696366,-0.00717746,0
2024-11-29 18:11:15.127,0.241675,2.85374,9.49502,0.00740652,-0.0696366,-0.00717746,0
2024-11-29 18:11:15.129,0.308973,2.84895,9.50938,0.00923906,-0.0781884,-0.00962084,0
2024-11-29 18:11:15.132,0.35683,2.84178,9.53091,0.00740652,-0.0867403,-0.0120642,0
2024-11-29 18:11:15.134,0.407079,2.82742,9.57159,0.00801737,-0.095903,-0.0151185,0
2024-11-29 18:11:15.137,0.452543,2.81545,9.59552,0.0104608,-0.110563,-0.0230595,0
2024-11-29 18:11:15.139,0.498006,2.81067,9.60987,0.0104608,-0.110563,-0.0230595,0
2024-11-29 18:11:15.141,0.555434,2.8011,9.62902,0.00923906,-0.117283,-0.0273354,0
2024-11-29 18:11:15.144,0.598505,2.78674,9.64577,0.00984991,-0.122169,-0.0316113,0
2024-11-29 18:11:15.145,0.641576,2.78913,9.66252,0.0122933,-0.128278,-0.0352764,0
2024-11-29 18:11:15.148,0.684646,2.78674,9.70319,0.013515,-0.133776,-0.0407741,0
2024-11-29 18:11:15.150,0.722932,2.77238,9.74866,0.0159584,-0.138051,-0.0444391,0
2024-11-29 18:11:15.153,0.758824,2.77238,9.77259,0.0159584,-0.138051,-0.0444391,0
2024-11-29 18:11:15.155,0.799502,2.76281,9.79412,0.021456,-0.142327,-0.052991,0
2024-11-29 18:11:15.158,0.852443,2.74128,9.81566,0.0245102,-0.142938,-0.0590995,0
2024-11-29 18:11:15.160,0.905085,2.72931,9.82553,0.0263428,-0.14416,-0.0639862,0
2024-11-29 18:11:15.162,0.931406,2.70299,9.8351,0.0348946,-0.141717,-0.0713164,0
2024-11-29 18:11:15.164,0.948156,2.67906,9.8351,0.0403923,-0.135608,-0.0743707,0
2024-11-29 18:11:15.167,0.967299,2.67906,9.81566,0.0434465,-0.128278,-0.08109,0
2024-11-29 18:11:15.171,0.984048,2.67189,9.76062,0.0581068,-0.103233,-0.0908635,0
2024-11-29 18:11:15.171,0.984048,2.67189,9.76062,0.0581068,-0.103233,-0.0908635,0
2024-11-29 18:11:15.175,0.974477,2.67906,9.70798,0.0617719,-0.0855186,-0.0939178,0
2024-11-29 18:11:15.181,0.933799,2.71735,9.49981,0.073378,-0.0140495,-0.100026,0
2024-11-29 18:11:15.181,0.933799,2.71735,9.49981,0.073378,-0.0140495,-0.100026,0
2024-11-29 18:11:15.182,0.933799,2.71735,9.49981,0.0764323,0.0122169,-0.101859,0
2024-11-29 18:11:15.183,0.909871,2.72692,9.40648,0.0764323,0.0122169,-0.101859,0
2024-11-29 18:11:15.186,0.893121,2.73649,9.3012,0.0788757,0.0403159,-0.101859,0
2024-11-29 18:11:15.188,0.869193,2.75085,9.17887,0.0794865,0.0708583,-0.10308,0
2024-11-29 18:11:15.190,0.842872,2.77238,9.05683,0.0770431,0.100179,-0.10247,0
2024-11-29 18:11:15.193,0.828216,2.78435,8.94198,0.0727672,0.13011,-0.101859,0
2024-11-29 18:11:15.195,0.804287,2.80828,8.82952,0.065437,0.155155,-0.10247,0
2024-11-29 18:11:15.197,0.773181,2.84417,8.70748,0.0599394,0.178978,-0.104913,0
2024-11-29 18:11:15.200,0.744467,2.87049,8.59233,0.049555,0.200358,-0.106746,0
2024-11-29 18:11:15.202,0.71336,2.8992,8.47986,0.037338,0.218683,-0.107356,0
2024-11-29 18:11:15.205,0.689432,2.91595,8.37697,0.0245102,0.232122,-0.109189,0
2024-11-29 18:11:15.208,0.684646,2.93749,8.27169,0.00923906,0.241285,-0.112243,0
2024-11-29 18:11:15.209,0.691825,2.96381,8.17358,0.00923906,0.241285,-0.112243,0
2024-11-29 18:11:15.212,0.694218,2.96381,8.09911,-0.0255792,0.248615,-0.117741,0
2024-11-29 18:11:15.214,0.699003,2.9662,8.03929,-0.0475697,0.248004,-0.120184,0
2024-11-29 18:11:15.216,0.703789,2.97577,7.96272,-0.0701711,0.24495,-0.125071,0
2024-11-29 18:11:15.218,0.725324,2.99013,7.90289,-0.0939941,0.23823,-0.129958,0
2024-11-29 18:11:15.222,0.742074,3.0021,7.87897,-0.142251,0.212575,-0.13851,0
2024-11-29 18:11:15.224,0.744467,3.02363,7.87418,-0.142251,0.212575,-0.13851,0
2024-11-29 18:11:15.225,0.737288,3.04517,7.89332,-0.167296,0.200358,-0.144007,0
2024-11-29 18:11:15.229,0.749253,3.06909,7.94597,-0.214331,0.169816,-0.156224,0
2024-11-29 18:11:15.231,0.787538,3.07388,8.02014,-0.214331,0.169816,-0.156224,0
2024-11-29 18:11:15.232,0.852443,3.05952,8.10629,-0.235711,0.152101,-0.162333,0
2024-11-29 18:11:15.235,0.94337,3.06909,8.21426,-0.25648,0.133165,-0.172106,0
2024-11-29 18:11:15.238,1.01515,3.09093,8.33151,-0.272362,0.113618,-0.185545,0
2024-11-29 18:11:15.241,1.06062,3.12204,8.46551,-0.287633,0.0971247,-0.200205,0
2024-11-29 18:11:15.242,1.09173,3.15075,8.60429,-0.295574,0.0763559,-0.216698,0
2024-11-29 18:11:15.245,1.09651,3.17707,8.7362,-0.302904,0.0555871,-0.230748,0
2024-11-29 18:11:15.248,1.09173,3.20339,8.85823,-0.307791,0.0372617,-0.247851,0
2024-11-29 18:11:15.249,1.10369,3.22971,8.97069,-0.308401,0.0213797,-0.261901,0
2024-11-29 18:11:15.252,1.11326,3.24885,9.08555,-0.306569,0.00610847,-0.274118,0
2024-11-29 18:11:15.255,1.11565,3.25843,9.19083,-0.30046,-0.00549763,-0.286945,0
2024-11-29 18:11:15.257,1.09651,3.27039,9.27727,-0.287633,-0.023823,-0.300995,0
2024-11-29 18:11:15.259,1.05823,3.27518,9.34906,-0.287633,-0.023823,-0.300995,0
2024-11-29 18:11:15.261,1.01515,3.28953,9.39452,-0.277248,-0.0268773,-0.306493,0
2024-11-29 18:11:15.264,0.969691,3.31585,9.41366,-0.254647,-0.0226013,-0.311379,0
2024-11-29 18:11:15.266,0.940978,3.33739,9.41845,-0.254647,-0.0226013,-0.311379,0
2024-11-29 18:11:15.268,0.895514,3.335,9.41127,-0.243652,-0.0152712,-0.310158,0
2024-11-29 18:11:15.271,0.837787,3.335,9.38016,-0.232656,-0.00366508,-0.30466,0
2024-11-29 18:11:15.273,0.766002,3.35414,9.32034,-0.222272,0.00916271,-0.297941,0
2024-11-29 18:11:15.276,0.689432,3.38046,9.25783,-0.205779,0.0427593,-0.273507,0
2024-11-29 18:11:15.277,0.622433,3.40917,9.19322,-0.205779,0.0427593,-0.273507,0
2024-11-29 18:11:15.280,0.562612,3.43789,9.10948,-0.198449,0.0574196,-0.258847,0
2024-11-29 18:11:15.282,0.517149,3.47857,9.02333,-0.197227,0.0714691,-0.241743,0
2024-11-29 18:11:15.285,0.464507,3.49532,8.93241,-0.198449,0.0904054,-0.206925,0
2024-11-29 18:11:15.288,0.409472,3.53121,8.82234,-0.200892,0.0983464,-0.189821,0
2024-11-29 18:11:15.290,0.3999,3.58864,8.71227,-0.200892,0.0983464,-0.189821,0
2024-11-29 18:11:15.291,0.3999,3.63649,8.59233,-0.208833,0.106287,-0.172106,0
2024-11-29 18:11:15.295,0.387936,3.69183,8.45354,-0.231435,0.118504,-0.140953,0
2024-11-29 18:11:15.297,0.409472,3.75643,8.32433,-0.252814,0.117894,-0.126904,0
2024-11-29 18:11:15.298,0.45015,3.81865,8.21665,-0.252814,0.117894,-0.126904,0
2024-11-29 18:11:15.302,0.486042,3.87368,8.13769,-0.275416,0.113618,-0.115908,0
2024-11-29 18:11:15.303,0.529113,3.91675,8.07518,-0.30046,0.105677,-0.104913,0
2024-11-29 18:11:15.306,0.579362,3.96461,8.01775,-0.326727,0.0922379,-0.0957503,0
2024-11-29 18:11:15.309,0.63679,4.03161,7.98425,-0.39392,0.0555871,-0.0847551,0
2024-11-29 18:11:15.311,0.694218,4.09861,7.98664,-0.42996,0.0348183,-0.08109,0
2024-11-29 18:11:15.314,0.754038,4.13689,8.00579,-0.42996,0.0348183,-0.08109,0
2024-11-29 18:11:15.315,0.845265,4.17278,8.04646,-0.466611,0.0134386,-0.0798683,0
2024-11-29 18:11:15.318,0.962513,4.22333,8.12303,-0.502651,-0.0116061,-0.0835334,0
2024-11-29 18:11:15.320,1.09412,4.25205,8.24058,-0.541134,-0.0409268,-0.0920852,0
2024-11-29 18:11:15.323,1.22812,4.26401,8.41047,-0.609549,-0.116672,-0.118352,0
2024-11-29 18:11:15.325,1.35015,4.29751,8.61147,-0.609549,-0.116672,-0.118352,0
2024-11-29 18:11:15.328,1.45813,4.3334,8.85105,-0.665213,-0.207688,-0.157446,0
2024-11-29 18:11:15.330,1.5658,4.34058,9.0999,-0.665213,-0.207688,-0.157446,0
2024-11-29 18:11:15.331,1.65912,4.34058,9.34666,-0.684149,-0.255945,-0.18188,0
2024-11-29 18:11:15.335,1.73569,4.35015,9.60748,-0.715302,-0.353681,-0.23258,0
2024-11-29 18:11:15.337,1.80987,4.36212,9.88535,-0.715302,-0.353681,-0.23258,0
2024-11-29 18:11:15.339,1.88644,4.38126,10.1964,-0.718967,-0.39644,-0.262512,0
2024-11-29 18:11:15.341,1.93908,4.38604,10.5174,-0.718967,-0.436145,-0.291221,0
2024-11-29 18:11:15.344,1.95583,4.38604,10.8212,-0.709194,-0.471574,-0.322375,0
2024-11-29 18:11:15.346,1.94387,4.40758,11.1087,-0.694533,-0.499062,-0.351695,0
2024-11-29 18:11:15.349,1.90319,4.42672,11.4054,-0.674375,-0.520442,-0.381016,0
2024-11-29 18:11:15.351,1.84098,4.44347,11.6904,-0.647498,-0.535713,-0.410948,0
2024-11-29 18:11:15.354,1.77159,4.46022,11.9369,-0.575953,-0.544265,-0.45615,0
2024-11-29 18:11:15.356,1.66869,4.46022,12.131,-0.575953,-0.544265,-0.45615,0
2024-11-29 18:11:15.357,1.54905,4.45544,12.2937,-0.531972,-0.537546,-0.475697,0
2024-11-29 18:11:15.361,1.41745,4.43629,12.4229,-0.435458,-0.496619,-0.502575,0
2024-11-29 18:11:15.363,1.27597,4.4004,12.5067,-0.435458,-0.496619,-0.502575,0
2024-11-29 18:11:15.365,1.13001,4.36212,12.5474,-0.380481,-0.465466,-0.509294,0
2024-11-29 18:11:15.368,0.964906,4.30708,12.5402,-0.327949,-0.428204,-0.511126,0
2024-11-29 18:11:15.370,0.794716,4.24008,12.4828,-0.222272,-0.34574,-0.503185,0
2024-11-29 18:11:15.372,0.624826,4.15603,12.3751,-0.222272,-0.34574,-0.503185,0
2024-11-29 18:11:15.375,0.447757,4.06032,12.2291,-0.126369,-0.255945,-0.475697,0
2024-11-29 18:11:15.376,0.289831,3.96939,12.0518,-0.126369,-0.255945,-0.475697,0
2024-11-29 18:11:15.380,0.155533,3.8689,11.8436,-0.0829989,-0.210131,-0.454318,0
2024-11-29 18:11:15.381,0.0311067,3.77557,11.6234,-0.0469589,-0.166761,-0.430495,0
2024-11-29 18:11:15.384,-0.0837488,3.699,11.3982,-0.0133623,-0.121559,-0.404839,0
2024-11-29 18:11:15.386,-0.200997,3.64128,11.1541,0.0165692,-0.0812427,-0.377962,0
2024-11-29 18:11:15.388,-0.301795,3.59821,10.9265,0.0391706,-0.0427593,-0.344365,0
2024-11-29 18:11:15.390,-0.361615,3.55514,10.7231,0.0605502,-0.00671932,-0.314434,0
2024-11-29 18:11:15.393,-0.421436,3.52164,10.5102,0.077654,0.0299315,-0.280837,0
2024-11-29 18:11:15.396,-0.474078,3.51924,10.3232,0.102699,0.0910162,-0.214255,0
2024-11-29 18:11:15.398,-0.505185,3.5336,10.1677,0.102699,0.0910162,-0.214255,0
2024-11-29 18:11:15.401,-0.517149,3.54556,10.0122,0.11797,0.142327,-0.151948,0
2024-11-29 18:11:15.403,-0.505185,3.57428,9.88056,0.11797,0.142327,-0.151948,0
2024-11-29 18:11:15.404,-0.488435,3.60778,9.7678,0.121635,0.163707,-0.125682,0
2024-11-29 18:11:15.407,-0.469292,3.64876,9.65295,0.124078,0.180811,-0.0994154,0
2024-11-29 18:11:15.412,-0.354437,3.7325,9.44477,0.128965,0.209521,-0.0554344,0
2024-11-29 18:11:15.412,-0.354437,3.7325,9.44477,0.128965,0.209521,-0.0554344,0
2024-11-29 18:11:15.414,-0.297009,3.78754,9.36341,0.128354,0.221738,-0.0383307,0
2024-11-29 18:11:15.416,-0.227318,3.833,9.31556,0.128965,0.233955,-0.0261137,0
2024-11-29 18:11:15.419,-0.157926,3.88804,9.27727,0.128965,0.243728,-0.0163402,0
2024-11-29 18:11:15.422,-0.0861416,3.94307,9.2339,0.127133,0.25228,-0.00962084,0
2024-11-29 18:11:15.423,0.00239282,3.99571,9.20519,0.126522,0.258388,-0.00412322,0
2024-11-29 18:11:15.426,0.081356,4.05793,9.19083,0.126522,0.265108,-0.00229068,0
2024-11-29 18:11:15.428,0.157926,4.09382,9.17887,0.126522,0.270605,-0.00229068,0
2024-11-29 18:11:15.431,0.227318,4.11536,9.1669,0.127743,0.27427,-0.00595576,0
2024-11-29 18:11:15.434,0.289831,4.14168,9.15733,0.134463,0.280379,-0.0145076,0
2024-11-29 18:11:15.436,0.35683,4.15843,9.14297,0.134463,0.280379,-0.0145076,0
2024-11-29 18:11:15.438,0.411865,4.17039,9.1358,0.138739,0.282822,-0.0224486,0
2024-11-29 18:11:15.440,0.452543,4.18953,9.11187,0.143625,0.285877,-0.0310005,0
2024-11-29 18:11:15.443,0.481256,4.2015,9.08794,0.147901,0.286487,-0.0401632,0
2024-11-29 18:11:15.445,0.507577,4.1991,9.07119,0.154621,0.28832,-0.0511585,0
2024-11-29 18:11:15.447,0.531506,4.1991,9.04248,0.162562,0.288931,-0.0603212,0
2024-11-29 18:11:15.449,0.524327,4.1991,8.99701,0.165005,0.288931,-0.0719273,0
2024-11-29 18:11:15.452,0.514756,4.1991,8.94676,0.172946,0.28832,-0.0823117,0
2024-11-29 18:11:15.455,0.521934,4.20389,8.90609,0.182109,0.279157,-0.103691,0
2024-11-29 18:11:15.457,0.514756,4.19671,8.85584,0.182109,0.279157,-0.103691,0
2024-11-29 18:11:15.459,0.514756,4.17518,8.8008,0.186385,0.268773,-0.114687,0
2024-11-29 18:11:15.461,0.514756,4.14886,8.75294,0.185774,0.257167,-0.125071,0
2024-11-29 18:11:15.463,0.500399,4.12732,8.70748,0.188828,0.246782,-0.130569,0
2024-11-29 18:11:15.467,0.481256,4.10578,8.66411,0.184552,0.216851,-0.151337,0
2024-11-29 18:11:15.468,0.476471,4.09143,8.60908,0.184552,0.216851,-0.151337,0
2024-11-29 18:11:15.470,0.464507,4.08186,8.55165,0.183331,0.204634,-0.159889,0
2024-11-29 18:11:15.474,0.457328,4.06989,8.51815,0.179665,0.191806,-0.167219,0
2024-11-29 18:11:15.476,0.4669,4.06032,8.49183,0.176,0.178367,-0.173328,0
2024-11-29 18:11:15.478,0.457328,4.05075,8.47029,0.172335,0.16554,-0.183101,0
2024-11-29 18:11:15.480,0.442971,4.04357,8.46072,0.165616,0.153323,-0.18921,0
2024-11-29 18:11:15.483,0.41665,4.03879,8.44636,0.158897,0.1295,-0.204481,0
2024-11-29 18:11:15.486,0.402293,4.04596,8.42244,0.15401,0.118504,-0.208757,0
2024-11-29 18:11:15.487,0.392722,4.04357,8.40329,0.15401,0.118504,-0.208757,0
2024-11-29 18:11:15.492,0.35683,4.01007,8.40808,0.140571,0.103233,-0.221585,0
2024-11-29 18:11:15.493,0.35683,4.01007,8.40808,0.140571,0.103233,-0.221585,0
2024-11-29 18:11:15.494,0.337687,4.00529,8.39372,0.133852,0.0946813,-0.227082,0
2024-11-29 18:11:15.497,0.325723,3.99093,8.38654,0.119802,0.0849078,-0.238078,0
2024-11-29 18:11:15.500,0.301795,3.97897,8.37937,0.119802,0.0849078,-0.238078,0
2024-11-29 18:11:15.502,0.287438,3.96939,8.3674,0.114916,0.0836861,-0.240521,0
2024-11-29 18:11:15.503,0.263211,3.95743,8.36262,0.106975,0.0806318,-0.244797,0
2024-11-29 18:11:15.506,0.229711,3.95025,8.36022,0.106975,0.0806318,-0.244797,0
2024-11-29 18:11:15.509,0.212961,3.94786,8.35065,0.0843733,0.0849078,-0.253349,0
2024-11-29 18:11:15.511,0.191426,3.94547,8.34347,0.0843733,0.0849078,-0.253349,0
2024-11-29 18:11:15.513,0.160319,3.94547,8.3339,0.0758214,0.0897945,-0.255181,0
2024-11-29 18:11:15.515,0.133998,3.94068,8.32912,0.0666587,0.0940705,-0.257014,0
2024-11-29 18:11:15.517,0.12682,3.92872,8.33151,0.057496,0.0983464,-0.258236,0
2024-11-29 18:11:15.520,0.112463,3.90479,8.3339,0.0501658,0.102622,-0.258236,0
2024-11-29 18:11:15.523,0.081356,3.88564,8.35304,0.0397814,0.108731,-0.258236,0
2024-11-29 18:11:15.526,0.0622134,3.87847,8.36501,0.029397,0.108731,-0.258236,0
2024-11-29 18:11:15.528,0.0502493,3.86411,8.37937,0.00984991,0.111174,-0.255792,0
2024-11-29 18:11:15.529,0.0358923,3.85215,8.40808,0.00984991,0.111174,-0.255792,0
2024-11-29 18:11:15.533,0.0215354,3.82582,8.43201,7.63559e-05,0.111174,-0.254571,0
2024-11-29 18:11:15.534,0.00239282,3.77797,8.45833,-0.00908635,0.110563,-0.252738,0
2024-11-29 18:11:15.536,-0.0143569,3.766,8.5014,-0.0158057,0.107509,-0.249684,0
2024-11-29 18:11:15.540,-0.0191426,3.75404,8.54447,-0.0292443,0.10079,-0.248462,0
2024-11-29 18:11:15.542,-0.0239282,3.72054,8.58276,-0.0353528,0.0940705,-0.245408,0
2024-11-29 18:11:15.544,-0.0382852,3.67986,8.63779,-0.0353528,0.0940705,-0.245408,0
2024-11-29 18:11:15.546,-0.0574277,3.64606,8.68086,-0.0408504,0.0842969,-0.242354,0
2024-11-29 18:11:15.548,-0.0693919,3.62453,8.7362,-0.042683,0.0745234,-0.23991,0
2024-11-29 18:11:15.550,-0.0765703,3.59821,8.81755,-0.046348,0.0629173,-0.234413,0
2024-11-29 18:11:15.554,-0.0885344,3.58146,8.88694,-0.0487914,0.0507003,-0.230748,0
2024-11-29 18:11:15.556,-0.0981057,3.55753,8.96591,-0.050624,0.015882,-0.219141,0
2024-11-29 18:11:15.559,-0.0861416,3.53121,9.04487,-0.050624,-0.000610847,-0.214255,0
2024-11-29 18:11:15.561,-0.0717847,3.50967,9.11665,-0.050624,-0.000610847,-0.214255,0
2024-11-29 18:11:15.562,-0.066999,3.49771,9.2004,-0.0487914,-0.0207688,-0.208757,0
2024-11-29 18:11:15.565,-0.0765703,3.49292,9.28206,-0.0475697,-0.0403159,-0.203259,0
2024-11-29 18:11:15.567,-0.0837488,3.48335,9.35863,-0.0414613,-0.0586413,-0.194097,0
2024-11-29 18:11:15.570,-0.0717847,3.48335,9.44238,-0.0329094,-0.0928488,-0.176382,0
2024-11-29 18:11:15.573,-0.0646062,3.49053,9.52613,-0.0329094,-0.0928488,-0.176382,0
2024-11-29 18:11:15.575,-0.0622134,3.49053,9.6027,-0.0194708,-0.120948,-0.159889,0
2024-11-29 18:11:15.577,-0.066999,3.49532,9.67448,-0.0194708,-0.120948,-0.159889,0
2024-11-29 18:11:15.580,-0.0598206,3.50249,9.72234,-0.00358873,-0.141106,-0.141564,0
2024-11-29 18:11:15.581,-0.0526421,3.50728,9.76302,-0.00358873,-0.141106,-0.141564,0
2024-11-29 18:11:15.587,-0.0287139,3.51446,9.80369,0.00923906,-0.147825,-0.119573,0
2024-11-29 18:11:15.587,-0.0287139,3.51446,9.80369,0.00923906,-0.147825,-0.119573,0
2024-11-29 18:11:15.588,0.00239282,3.51446,9.81805,0.0177909,-0.150268,-0.108578,0
2024-11-29 18:11:15.591,0.0311067,3.50967,9.82553,0.0226777,-0.150879,-0.0988045,0
2024-11-29 18:11:15.593,0.0598206,3.50249,9.84228,0.0257319,-0.15149,-0.0914744,0
2024-11-29 18:11:15.596,0.0717847,3.5001,9.84467,0.0263428,-0.154544,-0.0817008,0
2024-11-29 18:11:15.599,0.0861416,3.50489,9.86142,0.0257319,-0.154544,-0.0719273,0
2024-11-29 18:11:15.601,0.117248,3.50249,9.88296,0.0238994,-0.15882,-0.0621537,0
2024-11-29 18:11:15.603,0.145962,3.49532,9.90688,0.021456,-0.160653,-0.0548235,0
2024-11-29 18:11:15.606,0.157926,3.51446,9.90928,0.021456,-0.160653,-0.0548235,0
2024-11-29 18:11:15.607,0.174676,3.5336,9.91167,0.0184018,-0.161264,-0.0468825,0
2024-11-29 18:11:15.610,0.20339,3.53599,9.9332,0.0129041,-0.161264,-0.0426066,0
2024-11-29 18:11:15.612,0.229711,3.54556,9.95474,0.00740652,-0.158209,-0.0395524,0
2024-11-29 18:11:15.615,0.260818,3.54796,9.98824,0.0019089,-0.154544,-0.0358873,0
2024-11-29 18:11:15.616,0.27996,3.55753,10.0385,-0.00603212,-0.152101,-0.0322222,0
2024-11-29 18:11:15.619,0.277567,3.57428,10.1055,-0.0121406,-0.149658,-0.0297788,0
2024-11-29 18:11:15.622,0.27996,3.58624,10.1701,-0.0194708,-0.146603,-0.0261137,0
2024-11-29 18:11:15.624,0.27996,3.61256,10.2395,-0.0261901,-0.143549,-0.0224486,0
2024-11-29 18:11:15.626,0.265603,3.65115,10.3256,-0.0316877,-0.138051,-0.0193944,0
2024-11-29 18:11:15.628,0.258425,3.68465,10.4097,-0.0322986,-0.130721,-0.0163402,0
2024-11-29 18:11:15.631,0.256032,3.72054,10.4958,-0.0365745,-0.120948,-0.0132859,0
2024-11-29 18:11:15.634,0.251246,3.75165,10.5844,-0.0347419,-0.0910162,-0.00412322,0
2024-11-29 18:11:15.636,0.246461,3.77318,10.6777,-0.0347419,-0.0910162,-0.00412322,0
2024-11-29 18:11:15.638,0.229711,3.7995,10.7734,-0.0316877,-0.0763559,0.000763559,0
2024-11-29 18:11:15.641,0.205783,3.81865,10.8523,-0.0286335,-0.0561979,0.0038178,0
2024-11-29 18:11:15.643,0.193819,3.83779,10.9098,-0.0206925,-0.03604,0.00870457,0
2024-11-29 18:11:15.646,0.177069,3.85454,10.9603,-0.0151948,-0.0146603,0.0142022,0
2024-11-29 18:11:15.648,0.145962,3.87129,11.0273,-0.00358873,0.00733017,0.0172564,0
2024-11-29 18:11:15.650,0.105284,3.89282,11.068,0.00679568,0.0274881,0.0245866,0
2024-11-29 18:11:15.653,0.0765703,3.89522,11.0824,0.0184018,0.0500895,0.0313059,0
2024-11-29 18:11:15.654,0.040678,3.9,11.08,0.0281753,0.0751342,0.0386361,0
2024-11-29 18:11:15.656,-0.00957129,3.92632,11.0728,0.0391706,0.0946813,0.0453554,0
2024-11-29 18:11:15.660,-0.0430708,3.93589,11.0321,0.0605502,0.140495,0.0600157,0
2024-11-29 18:11:15.662,-0.0646062,3.93589,10.9866,0.0605502,0.140495,0.0600157,0
2024-11-29 18:11:15.664,-0.100499,3.95743,10.9508,0.0660479,0.162485,0.0697893,0
2024-11-29 18:11:15.666,-0.133998,3.97418,10.8978,0.0758214,0.184476,0.0807846,0
2024-11-29 18:11:15.671,-0.244068,3.98854,10.7997,0.0868167,0.216851,0.0984991,0
2024-11-29 18:11:15.672,-0.244068,3.98854,10.7997,0.0868167,0.216851,0.0984991,0
2024-11-29 18:11:15.673,-0.294616,4.01486,10.7399,0.0929251,0.229679,0.109494,0
2024-11-29 18:11:15.676,-0.352044,4.03879,10.692,0.0947577,0.240063,0.12049,0
2024-11-29 18:11:15.678,-0.392722,4.0675,10.6561,0.0947577,0.248004,0.130263,0
2024-11-29 18:11:15.680,-0.4334,4.09621,10.6226,0.0953685,0.25228,0.141258,0
2024-11-29 18:11:15.683,-0.481256,4.14168,10.6011,0.0965902,0.255334,0.152865,0
2024-11-29 18:11:15.685,-0.521934,4.17518,10.5724,0.0953685,0.258999,0.165081,0
2024-11-29 18:11:15.688,-0.56022,4.20628,10.5365,0.0886492,0.258388,0.184629,0
2024-11-29 18:11:15.689,-0.588933,4.24247,10.5102,0.0886492,0.258388,0.184629,0
2024-11-29 18:11:15.693,-0.612862,4.27119,10.5174,0.0874275,0.254723,0.196846,0
2024-11-29 18:11:15.695,-0.646361,4.30947,10.5317,0.0782648,0.24495,0.216393,0
2024-11-29 18:11:15.698,-0.667897,4.34537,10.5365,0.0752106,0.232733,0.226777,0
2024-11-29 18:11:15.700,-0.684646,4.37408,10.5509,0.0752106,0.232733,0.226777,0
2024-11-29 18:11:15.701,-0.699003,4.40758,10.5724,0.0697129,0.224181,0.234107,0
2024-11-29 18:11:15.706,-0.701396,4.47458,10.6131,0.057496,0.197304,0.252433,0
2024-11-29 18:11:15.707,-0.701396,4.47458,10.6131,0.057496,0.197304,0.252433,0
2024-11-29 18:11:15.708,-0.691825,4.5009,10.6705,0.049555,0.179589,0.259152,0
2024-11-29 18:11:15.712,-0.691825,4.49851,10.7088,0.0355055,0.138662,0.271369,0
2024-11-29 18:11:15.714,-0.670289,4.49133,10.7662,0.029397,0.117283,0.276256,0
2024-11-29 18:11:15.716,-0.646361,4.47697,10.8284,0.029397,0.117283,0.276256,0
2024-11-29 18:11:15.719,-0.60329,4.46501,10.8811,0.0110716,0.0647498,0.281142,0
2024-11-29 18:11:15.721,-0.514756,4.44347,10.9531,0.0110716,0.0647498,0.281142,0
2024-11-29 18:11:15.722,-0.435793,4.41236,11.068,0.00313059,0.0329858,0.281753,0
2024-11-29 18:11:15.726,-0.35683,4.37887,11.1876,-0.00358873,-0.00427593,0.281753,0
2024-11-29 18:11:15.728,-0.263211,4.33579,11.3049,-0.010308,-0.0470352,0.278088,0
2024-11-29 18:11:15.730,-0.172283,4.27119,11.4532,-0.0176382,-0.0922379,0.273812,0
2024-11-29 18:11:15.732,-0.081356,4.19671,11.6043,-0.0194708,-0.139884,0.267093,0
2024-11-29 18:11:15.735,0.0287139,4.12253,11.7383,-0.0274118,-0.244339,0.248768,0
2024-11-29 18:11:15.738,0.133998,4.05075,11.8675,-0.0298552,-0.295039,0.23594,0
2024-11-29 18:11:15.742,0.330509,3.87368,12.1382,-0.0365745,-0.390942,0.209062,0
2024-11-29 18:11:15.742,0.330509,3.87368,12.1382,-0.0365745,-0.390942,0.209062,0
2024-11-29 18:11:15.745,0.421436,3.8019,12.2961,-0.0359636,-0.435534,0.19318,0
2024-11-29 18:11:15.747,0.507577,3.72772,12.4612,-0.0359636,-0.435534,0.19318,0
2024-11-29 18:11:15.749,0.569791,3.64128,12.6314,-0.0377962,-0.481348,0.179742,0
2024-11-29 18:11:15.752,0.608076,3.57189,12.8013,-0.0365745,-0.521664,0.168136,0
2024-11-29 18:11:15.753,0.684646,3.50489,12.9832,-0.0365745,-0.561979,0.154697,0
2024-11-29 18:11:15.755,0.766002,3.4331,13.1722,-0.0371853,-0.599241,0.143702,0
2024-11-29 18:11:15.758,0.813859,3.3685,13.3663,-0.0310769,-0.635281,0.129652,0
2024-11-29 18:11:15.760,0.854836,3.3015,13.5841,-0.0268009,-0.667045,0.117435,0
2024-11-29 18:11:15.765,0.933799,3.18664,14.0103,-0.00358873,-0.711026,0.091169,0
2024-11-29 18:11:15.766,0.933799,3.18664,14.0103,-0.00358873,-0.711026,0.091169,0
2024-11-29 18:11:15.767,0.972084,3.12682,14.1826,0.0110716,-0.721411,0.0820062,0
2024-11-29 18:11:15.771,1.01037,3.08106,14.4078,0.0306187,-0.722021,0.0697893,0
2024-11-29 18:11:15.772,1.01037,3.02842,14.5585,0.0538309,-0.722632,0.0624591,0
2024-11-29 18:11:15.775,0.972084,2.98295,14.5896,0.0770431,-0.70675,0.0539073,0
2024-11-29 18:11:15.778,0.945763,2.92792,14.6303,0.127743,-0.643222,0.0465771,0
2024-11-29 18:11:15.780,0.967299,2.82263,14.7045,0.155232,-0.602906,0.0435229,0
2024-11-29 18:11:15.782,1.02712,2.71496,14.7715,0.155232,-0.602906,0.0435229,0
2024-11-29 18:11:15.784,1.05344,2.62164,14.7978,0.183941,-0.559536,0.0398578,0
2024-11-29 18:11:15.787,1.04626,2.53071,14.7715,0.238307,-0.45386,0.0398578,1
2024-11-29 18:11:15.789,1.00798,2.45384,14.6997,0.238307,-0.45386,0.0398578,0
2024-11-29 18:11:15.792,0.962513,2.38445,14.6016,0.260908,-0.393996,0.0423012,0
2024-11-29 18:11:15.793,0.905085,2.30548,14.4844,0.286564,-0.331079,0.0484096,0
2024-11-29 18:11:15.796,0.847657,2.22891,14.3432,0.306722,-0.263275,0.0563507,0
2024-11-29 18:11:15.798,0.813859,2.13799,14.173,0.325658,-0.19486,0.0716218,0
2024-11-29 18:11:15.801,0.775574,2.05424,13.9911,0.346427,-0.122169,0.0862822,0
2024-11-29 18:11:15.804,0.732503,1.97288,13.7973,0.376358,0.023823,0.124766,0
2024-11-29 18:11:15.805,0.703789,1.88405,13.6128,0.376358,0.023823,0.124766,0
2024-11-29 18:11:15.808,0.694218,1.79073,13.4213,0.39896,0.171037,0.170579,0
2024-11-29 18:11:15.811,0.682254,1.6998,13.218,0.408122,0.24495,0.194402,0
2024-11-29 18:11:15.813,0.675075,1.62802,13.0214,0.414231,0.318862,0.216393,0
2024-11-29 18:11:15.815,0.670289,1.5658,12.8133,0.424004,0.395829,0.239605,0
2024-11-29 18:11:15.818,0.655932,1.52034,12.6266,0.424004,0.395829,0.239605,0
2024-11-29 18:11:15.819,0.658325,1.49641,12.4421,0.432556,0.470352,0.263428,0
2024-11-29 18:11:15.822,0.660718,1.47966,12.2459,0.439276,0.541822,0.284808,0
2024-11-29 18:11:15.824,0.651147,1.4677,12.0808,0.449049,0.615123,0.301911,0
2024-11-29 18:11:15.827,0.629611,1.46291,11.9154,0.466764,0.74951,0.339173,0
2024-11-29 18:11:15.829,0.596112,1.47009,11.7239,0.466764,0.74951,0.339173,0
2024-11-29 18:11:15.831,0.579362,1.49641,11.5301,0.47837,0.809983,0.356888,0
2024-11-29 18:11:15.834,0.553041,1.51316,11.3312,0.504636,0.923601,0.385597,0
2024-11-29 18:11:15.835,0.533899,1.51795,11.0871,0.504636,0.923601,0.385597,0
2024-11-29 18:11:15.838,0.521934,1.53709,10.8404,0.513799,0.974301,0.396593,0
2024-11-29 18:11:15.840,0.490828,1.54905,10.5939,0.52174,1.02256,0.406977,0
2024-11-29 18:11:15.845,0.435793,1.54905,10.0863,0.538844,1.10624,0.426524,0
2024-11-29 18:11:15.846,0.435793,1.54905,10.0863,0.538844,1.10624,0.426524,0
2024-11-29 18:11:15.848,0.3999,1.56102,9.83749,0.540676,1.14228,0.432633,0
2024-11-29 18:11:15.851,0.354437,1.58016,9.59791,0.548006,1.17466,0.442406,0
2024-11-29 18:11:15.852,0.301795,1.58973,9.38016,0.55045,1.19909,0.447904,0
2024-11-29 18:11:15.854,0.244068,1.60409,9.16212,0.551061,1.22536,0.454012,0
2024-11-29 18:11:15.857,0.196211,1.62562,8.9348,0.552282,1.2443,0.460121,0
2024-11-29 18:11:15.860,0.138784,1.64477,8.7027,0.547396,1.27301,0.469283,0
2024-11-29 18:11:15.861,0.0717847,1.67109,8.47747,0.547396,1.27301,0.469283,0
2024-11-29 18:11:15.865,0.0119641,1.6998,8.27408,0.54312,1.28706,0.474781,0
2024-11-29 18:11:15.867,-0.0311067,1.71894,8.07757,0.54312,1.28706,0.474781,0
2024-11-29 18:11:15.869,-0.0789631,1.7333,7.87897,0.541898,1.29072,0.477835,0
2024-11-29 18:11:15.871,-0.026321,1.69262,7.74018,0.532735,1.29194,0.480279,0
2024-11-29 18:11:15.874,0.383151,1.44855,8.068,0.528459,1.27545,0.468673,0
2024-11-29 18:11:15.877,0.256032,1.45095,7.92204,0.540676,1.22475,0.446071,0
2024-11-29 18:11:15.878,-0.294616,1.72612,7.20628,0.541287,1.2333,0.437519,0
2024-11-29 18:11:15.881,-0.404686,1.81944,6.94756,0.526627,1.24185,0.432022,0
2024-11-29 18:11:15.884,-0.378365,1.83619,6.90688,0.526627,1.24185,0.432022,0
2024-11-29 18:11:15.885,-0.34008,1.84816,6.90449,0.52174,1.21742,0.430189,0
2024-11-29 18:11:15.887,-0.421436,1.91994,6.78963,0.510134,1.1771,0.421637,0
2024-11-29 18:11:15.891,-0.531506,1.99681,6.59582,0.495473,1.12823,0.414307,0
2024-11-29 18:11:15.893,-0.598505,2.02552,6.42323,0.47837,1.0757,0.40942,0
2024-11-29 18:11:15.895,-0.639183,2.06142,6.30359,0.458212,1.01645,0.402701,0
2024-11-29 18:11:15.898,-0.646361,2.08295,6.21745,0.433778,0.954143,0.39476,0
2024-11-29 18:11:15.899,-0.655932,2.07338,6.1337,0.409955,0.888172,0.384376,0
2024-11-29 18:11:15.902,-0.65354,2.0686,6.0691,0.385521,0.818535,0.370937,0
2024-11-29 18:11:15.904,-0.65354,2.08774,6.04995,0.359255,0.747066,0.355666,0
2024-11-29 18:11:15.907,-0.65354,2.09731,6.06192,0.333599,0.671321,0.339173,0
2024-11-29 18:11:15.909,-0.629611,2.08535,6.09302,0.309165,0.592522,0.320848,0
2024-11-29 18:11:15.911,-0.600898,2.09252,6.12174,0.284731,0.511279,0.298246,0
2024-11-29 18:11:15.914,-0.593719,2.12842,6.15045,0.241361,0.348794,0.253043,0
2024-11-29 18:11:15.917,-0.591326,2.16431,6.19831,0.241361,0.348794,0.253043,0
2024-11-29 18:11:15.919,-0.576969,2.19063,6.2677,0.201656,0.196082,0.204176,0
2024-11-29 18:11:15.921,-0.56022,2.20738,6.35145,0.201656,0.196082,0.204176,0
2024-11-29 18:11:15.923,-0.541077,2.22174,6.45195,0.185163,0.12278,0.179742,0
2024-11-29 18:11:15.925,-0.521934,2.23131,6.55274,0.169892,0.0488678,0.151643,0
2024-11-29 18:11:15.928,-0.507577,2.22652,6.63649,0.156453,-0.0195471,0.122933,0
2024-11-29 18:11:15.931,-0.490828,2.21456,6.72024,0.134463,-0.152712,0.071011,0
2024-11-29 18:11:15.933,-0.486042,2.22174,6.82792,0.134463,-0.152712,0.071011,0
2024-11-29 18:11:15.935,-0.486042,2.20738,6.92842,0.124078,-0.218072,0.0441337,0
2024-11-29 18:11:15.940,-0.445364,2.10927,7.12493,0.0947577,-0.393386,-0.0230595,0
2024-11-29 18:11:15.940,-0.445364,2.10927,7.12493,0.0947577,-0.393386,-0.0230595,0
2024-11-29 18:11:15.941,-0.438186,2.05902,7.21107,0.0947577,-0.393386,-0.0230595,0
2024-11-29 18:11:15.945,-0.428614,2.01117,7.29003,0.0868167,-0.445308,-0.0426066,0
2024-11-29 18:11:15.946,-0.411865,1.96301,7.37378,0.0800973,-0.493565,-0.0597103,0
2024-11-29 18:11:15.950,-0.404686,1.90798,7.45753,0.0623828,-0.577251,-0.0902527,0
2024-11-29 18:11:15.951,-0.402293,1.84576,7.54128,0.0623828,-0.577251,-0.0902527,0
2024-11-29 18:11:15.954,-0.392722,1.79551,7.61815,0.0562743,-0.614512,-0.103691,0
2024-11-29 18:11:15.957,-0.373579,1.73569,7.69472,0.0422248,-0.676819,-0.123849,0
2024-11-29 18:11:15.958,-0.361615,1.68305,7.77847,0.0422248,-0.676819,-0.123849,0
2024-11-29 18:11:15.960,-0.352044,1.66391,7.8694,0.0367272,-0.707361,-0.135455,0
2024-11-29 18:11:15.964,-0.344866,1.63759,7.96989,0.0281753,-0.73546,-0.145229,0
2024-11-29 18:11:15.966,-0.347258,1.61845,8.06561,0.0232886,-0.76417,-0.151948,0
2024-11-29 18:11:15.967,-0.349651,1.61845,8.15205,0.0184018,-0.787382,-0.158057,0
2024-11-29 18:11:15.971,-0.359223,1.61127,8.2358,0.0104608,-0.828309,-0.16783,0
2024-11-29 18:11:15.973,-0.35683,1.60648,8.31715,0.0104608,-0.828309,-0.16783,0
2024-11-29 18:11:15.974,-0.352044,1.60887,8.40808,0.00679568,-0.840526,-0.170885,0
2024-11-29 18:11:15.977,-0.342473,1.60409,8.5014,0.00251974,-0.847856,-0.17516,0
2024-11-29 18:11:15.980,-0.330509,1.5993,8.59233,-0.00236703,-0.85091,-0.173939,0
2024-11-29 18:11:15.982,-0.311366,1.61127,8.67129,-0.00481042,-0.853354,-0.17516,0
2024-11-29 18:11:15.985,-0.292223,1.61127,8.75294,-0.00603212,-0.848467,-0.17455,0
2024-11-29 18:11:15.986,-0.289831,1.62084,8.83909,-0.010308,-0.84358,-0.17516,0
2024-11-29 18:11:15.989,-0.287438,1.64477,8.91087,-0.00908635,-0.829531,-0.172106,0
2024-11-29 18:11:15.992,-0.272782,1.65194,8.9683,-0.0121406,-0.788604,-0.16783,0
2024-11-29 18:11:15.994,-0.253639,1.65673,9.01376,-0.0121406,-0.763559,-0.162333,0
2024-11-29 18:11:15.997,-0.253639,1.67348,9.05444,-0.0121406,-0.763559,-0.162333,0
2024-11-29 18:11:15.998,-0.236889,1.69741,9.08555,-0.0115297,-0.729962,-0.156224,0
2024-11-29 18:11:16.000,-0.227318,1.71177,9.10948,-0.010308,-0.694533,-0.150116,0
2024-11-29 18:11:16.003,-0.236889,1.71894,9.10948,-0.0096972,-0.658493,-0.142175,0
2024-11-29 18:11:16.005,-0.236889,1.74048,9.09273,-0.0115297,-0.614512,-0.135455,0
2024-11-29 18:11:16.008,-0.251246,1.75962,9.06641,-0.0133623,-0.567477,-0.128125,0
2024-11-29 18:11:16.011,-0.260818,1.77398,9.02333,-0.0170274,-0.517388,-0.118963,0
2024-11-29 18:11:16.013,-0.263211,1.77637,8.97308,-0.0255792,-0.412322,-0.0957503,0
2024-11-29 18:11:16.014,-0.294616,1.78355,8.90609,-0.0255792,-0.412322,-0.0957503,0
2024-11-29 18:11:16.017,-0.316152,1.80269,8.83909,-0.0329094,-0.357956,-0.0847551,0
2024-11-29 18:11:16.020,-0.335294,1.80269,8.77448,-0.0481806,-0.246171,-0.0603212,0
2024-11-29 18:11:16.022,-0.375972,1.81705,8.69761,-0.0481806,-0.246171,-0.0603212,0
2024-11-29 18:11:16.025,-0.404686,1.85055,8.62583,-0.0610084,-0.189363,-0.0462717,0
2024-11-29 18:11:16.027,-0.419043,1.87926,8.54686,-0.0701711,-0.135608,-0.0322222,0
2024-11-29 18:11:16.029,-0.464507,1.91276,8.46311,-0.0836097,-0.0812427,-0.0157293,0
2024-11-29 18:11:16.032,-0.512363,1.95583,8.38176,-0.11293,0.020158,0.0135914,0
2024-11-29 18:11:16.033,-0.52672,1.98963,8.31715,-0.11293,0.020158,0.0135914,0
2024-11-29 18:11:16.037,-0.541077,2.02792,8.25255,-0.12698,0.0702474,0.0264191,0
2024-11-29 18:11:16.039,-0.565005,2.08295,8.1664,-0.155079,0.15882,0.055129,0
2024-11-29 18:11:16.041,-0.584148,2.14517,8.08953,-0.155079,0.15882,0.055129,0
2024-11-29 18:11:16.044,-0.605683,2.18106,8.02732,-0.171572,0.19486,0.0655134,0
2024-11-29 18:11:16.045,-0.627219,2.22891,7.97468,-0.1844,0.227235,0.0752869,0
2024-11-29 18:11:16.047,-0.629611,2.27916,7.91486,-0.197838,0.255334,0.0832279,0
2024-11-29 18:11:16.051,-0.639183,2.3007,7.85025,-0.22777,0.294428,0.094834,0
2024-11-29 18:11:16.053,-0.63679,2.36052,7.79761,-0.24243,0.307867,0.0978883,0
2024-11-29 18:11:16.056,-0.634397,2.42752,7.76172,-0.24243,0.307867,0.0978883,0
2024-11-29 18:11:16.058,-0.646361,2.4682,7.74018,-0.271751,0.316419,0.102775,0
2024-11-29 18:11:16.059,-0.641576,2.51605,7.71386,-0.271751,0.316419,0.102775,0
2024-11-29 18:11:16.063,-0.63679,2.5666,7.69233,-0.283968,0.317641,0.103386,0
2024-11-29 18:11:16.065,-0.632004,2.61446,7.68276,-0.305347,0.308478,0.105218,0
2024-11-29 18:11:16.066,-0.627219,2.66231,7.68515,-0.305347,0.308478,0.105218,0
2024-11-29 18:11:16.069,-0.624826,2.70299,7.70429,-0.312677,0.298704,0.105829,0
2024-11-29 18:11:16.071,-0.62004,2.7341,7.72822,-0.32184,0.287098,0.105829,0
2024-11-29 18:11:16.074,-0.622433,2.75803,7.77608,-0.32917,0.269384,0.104608,0
2024-11-29 18:11:16.077,-0.615255,2.8011,7.82393,-0.330392,0.249837,0.102164,0
2024-11-29 18:11:16.078,-0.598505,2.82742,7.86222,-0.33589,0.226013,0.100943,0
2024-11-29 18:11:16.081,-0.593719,2.85135,7.91486,-0.33589,0.200358,0.09911,0
2024-11-29 18:11:16.083,-0.588933,2.88485,7.9675,-0.332225,0.174091,0.0936123,0
2024-11-29 18:11:16.086,-0.581755,2.91356,8.01297,-0.327949,0.144771,0.091169,0
2024-11-29 18:11:16.088,-0.588933,2.94945,8.06561,-0.323673,0.116672,0.0881147,0
2024-11-29 18:11:16.090,-0.612862,2.97577,8.1015,-0.318175,0.0873512,0.0826171,0
2024-11-29 18:11:16.092,-0.629611,3.00688,8.14248,-0.309623,0.0549763,0.0795629,0
2024-11-29 18:11:16.095,-0.646361,3.04277,8.21187,-0.29985,0.0232122,0.078952,0
2024-11-29 18:11:16.097,-0.660718,3.06192,8.25733,-0.288854,-0.0103844,0.0728435,0
2024-11-29 18:11:16.100,-0.658325,3.08106,8.3028,-0.276027,-0.043981,0.0716218,0
2024-11-29 18:11:16.103,-0.675075,3.10529,8.37219,-0.24976,-0.118504,0.0685676,0
2024-11-29 18:11:16.105,-0.696611,3.12921,8.43919,-0.24976,-0.118504,0.0685676,0
2024-11-29 18:11:16.106,-0.687039,3.15793,8.48226,-0.236322,-0.152712,0.0673459,0
2024-11-29 18:11:16.110,-0.667897,3.18425,8.5014,-0.20639,-0.21624,0.0655134,0
2024-11-29 18:11:16.111,-0.655932,3.19861,8.50379,-0.20639,-0.21624,0.0655134,0
2024-11-29 18:11:16.114,-0.643968,3.21536,8.52293,-0.189286,-0.241896,0.0636808,0
2024-11-29 18:11:16.116,-0.639183,3.24407,8.54447,-0.178902,-0.267551,0.0642917,0
2024-11-29 18:11:16.119,-0.610469,3.26321,8.54926,-0.166074,-0.286487,0.0667351,0
2024-11-29 18:11:16.121,-0.576969,3.27996,8.55404,-0.153857,-0.30298,0.0667351,0
2024-11-29 18:11:16.124,-0.56022,3.29671,8.53969,-0.134921,-0.329247,0.0716218,0
2024-11-29 18:11:16.126,-0.536291,3.30628,8.52533,-0.134921,-0.329247,0.0716218,0
2024-11-29 18:11:16.129,-0.50997,3.32303,8.52533,-0.127591,-0.337799,0.0716218,0
2024-11-29 18:11:16.130,-0.476471,3.32782,8.50619,-0.123315,-0.348183,0.0716218,0
2024-11-29 18:11:16.135,-0.395115,3.36132,8.46311,-0.119039,-0.361622,0.0740652,0
2024-11-29 18:11:16.136,-0.395115,3.36132,8.46311,-0.120261,-0.365898,0.0716218,0
2024-11-29 18:11:16.138,-0.354437,3.38285,8.44876,-0.120261,-0.365898,0.0716218,0
2024-11-29 18:11:16.140,-0.308973,3.40439,8.43679,-0.122093,-0.364065,0.0716218,0
2024-11-29 18:11:16.142,-0.260818,3.43071,8.43201,-0.12698,-0.364676,0.0697893,0
2024-11-29 18:11:16.144,-0.215354,3.45703,8.43679,-0.130034,-0.361622,0.0685676,0
2024-11-29 18:11:16.147,-0.167498,3.45942,8.42962,-0.139197,-0.359178,0.0679568,0
2024-11-29 18:11:16.150,-0.117248,3.46182,8.42483,-0.150192,-0.361011,0.0612374,0
2024-11-29 18:11:16.152,-0.0598206,3.4666,8.44636,-0.170961,-0.362843,0.0532964,0
2024-11-29 18:11:16.153,-0.00478565,3.48096,8.49183,-0.170961,-0.362843,0.0532964,0
2024-11-29 18:11:16.157,0.0478565,3.48814,8.51336,-0.1844,-0.368952,0.047188,0
2024-11-29 18:11:16.161,0.200997,3.47857,8.6354,-0.214331,-0.384834,0.0276408,0
2024-11-29 18:11:16.162,0.200997,3.47857,8.6354,-0.22777,-0.395829,0.0172564,0
2024-11-29 18:11:16.164,0.285045,3.4666,8.69283,-0.243041,-0.406824,0.00687203,0
2024-11-29 18:11:16.166,0.383151,3.47617,8.78166,-0.243041,-0.406824,0.00687203,0
2024-11-29 18:11:16.168,0.471685,3.47617,8.88934,-0.257701,-0.422706,-0.00412322,0
2024-11-29 18:11:16.170,0.529113,3.49292,8.98266,-0.27114,-0.438588,-0.0200052,0
2024-11-29 18:11:16.173,0.593719,3.52164,9.09512,-0.283968,-0.45386,-0.0340547,0
2024-11-29 18:11:16.176,0.660718,3.53839,9.22194,-0.305958,-0.474017,-0.0627646,0
2024-11-29 18:11:16.177,0.722932,3.55514,9.35863,-0.305958,-0.474017,-0.0627646,0
2024-11-29 18:11:16.179,0.799502,3.56949,9.51416,-0.31451,-0.480126,-0.0798683,0
2024-11-29 18:11:16.183,0.88355,3.58624,9.68166,-0.323062,-0.483791,-0.0945286,0
2024-11-29 18:11:16.185,0.948156,3.60778,9.87338,-0.325505,-0.486845,-0.109189,0
2024-11-29 18:11:16.186,0.998405,3.63171,10.0433,-0.324894,-0.488067,-0.12446,0
2024-11-29 18:11:16.190,1.0343,3.65833,10.218,-0.317564,-0.480737,-0.158057,0
2024-11-29 18:11:16.192,1.0654,3.68704,10.4097,-0.317564,-0.480737,-0.158057,0
2024-11-29 18:11:16.194,1.10369,3.70379,10.5796,-0.308401,-0.472185,-0.173939,0
2024-11-29 18:11:16.197,1.12522,3.72054,10.7231,-0.294963,-0.459968,-0.188599,0
2024-11-29 18:11:16.198,1.1348,3.73968,10.8523,-0.27847,-0.444697,-0.20387,0
2024-11-29 18:11:16.201,1.14197,3.75404,10.9843,-0.260755,-0.427593,-0.217309,0
2024-11-29 18:11:16.204,1.12762,3.78036,11.0943,-0.241208,-0.406213,-0.229526,0
2024-11-29 18:11:16.206,1.08455,3.78754,11.1733,-0.217385,-0.383612,-0.241132,0
2024-11-29 18:11:16.208,1.04148,3.79232,11.2403,-0.192341,-0.3604,-0.251516,0
2024-11-29 18:11:16.210,1.0008,3.79711,11.2834,-0.166074,-0.332301,-0.258236,0
2024-11-29 18:11:16.213,0.938585,3.77557,11.3049,-0.136753,-0.308478,-0.264344,0
2024-11-29 18:11:16.215,0.862014,3.76122,11.3169,-0.11293,-0.284655,-0.267398,0
2024-11-29 18:11:16.218,0.777966,3.76361,11.2929,-0.0848314,-0.258388,-0.26862,0
2024-11-29 18:11:16.219,0.701396,3.76122,11.2618,-0.0573433,-0.233344,-0.266788,0
2024-11-29 18:11:16.223,0.617647,3.74447,11.2235,-0.0329094,-0.210131,-0.263733,0
2024-11-29 18:11:16.225,0.512363,3.72533,11.1781,-0.0096972,-0.188752,-0.257625,0
2024-11-29 18:11:16.226,0.395115,3.70858,11.1183,0.0153475,-0.174091,-0.249684,0
2024-11-29 18:11:16.230,0.27996,3.71097,11.0513,0.0507767,-0.155155,-0.227693,0
2024-11-29 18:11:16.231,0.167498,3.7014,10.9962,0.0507767,-0.155155,-0.227693,0
2024-11-29 18:11:16.235,0.0574277,3.68704,10.9409,0.0666587,-0.150879,-0.213033,0
2024-11-29 18:11:16.237,-0.0430708,3.71815,10.8906,0.0947577,-0.154544,-0.181269,0
2024-11-29 18:11:16.239,-0.114855,3.74208,10.8428,0.105753,-0.161875,-0.161722,0
2024-11-29 18:11:16.242,-0.172283,3.75165,10.7949,0.105753,-0.161875,-0.161722,0
2024-11-29 18:11:16.244,-0.239282,3.77557,10.771,0.124078,-0.173481,-0.125071,0
2024-11-29 18:11:16.246,-0.282652,3.81147,10.7662,0.124078,-0.173481,-0.125071,0
2024-11-29 18:11:16.249,-0.294616,3.84736,10.7782,0.143625,-0.184476,-0.0914744,0
2024-11-29 18:11:16.251,-0.292223,3.89043,10.8093,0.143625,-0.184476,-0.0914744,0
2024-11-29 18:11:16.252,-0.285045,3.9335,10.85,0.155842,-0.188141,-0.0743707,0
2024-11-29 18:11:16.255,-0.272782,3.97418,10.8835,0.167449,-0.189974,-0.0590995,0
2024-11-29 18:11:16.258,-0.248854,4.01486,10.9146,0.192493,-0.183865,-0.0316113,0
2024-11-29 18:11:16.260,-0.224925,4.05075,10.946,0.192493,-0.183865,-0.0316113,0
2024-11-29 18:11:16.262,-0.191426,4.08186,10.9651,0.208375,-0.177757,-0.0187836,0
2024-11-29 18:11:16.265,-0.145962,4.09861,10.9699,0.239528,-0.153934,0.000152712,0
2024-11-29 18:11:16.267,-0.114855,4.12014,10.9531,0.239528,-0.153934,0.000152712,0
2024-11-29 18:11:16.270,-0.0789631,4.14407,10.9265,0.254189,-0.137441,0.00809373,0
2024-11-29 18:11:16.272,-0.040678,4.15364,10.8978,0.281677,-0.103844,0.019089,0
2024-11-29 18:11:16.275,-0.0119641,4.14886,10.8595,0.292672,-0.0885729,0.0258083,0
2024-11-29 18:11:16.277,0.0239282,4.14886,10.8093,0.304889,-0.0733017,0.0288625,0
2024-11-29 18:11:16.279,0.0334995,4.13689,10.7542,0.315274,-0.0604739,0.0325276,0
2024-11-29 18:11:16.281,0.0334995,4.11536,10.7088,0.315274,-0.0604739,0.0325276,0
2024-11-29 18:11:16.283,0.0382852,4.11296,10.6609,0.32749,-0.0458135,0.0343602,0
2024-11-29 18:11:16.286,0.0311067,4.10578,10.5867,0.333599,-0.0317641,0.0374144,0
2024-11-29 18:11:16.289,0.00957129,4.10339,10.5317,0.347648,-0.00733017,0.0441337,0
2024-11-29 18:11:16.290,-0.0239282,4.09861,10.4958,0.347648,-0.00733017,0.0441337,0
2024-11-29 18:11:16.292,-0.0717847,4.08903,10.4623,0.355589,0.00610847,0.0484096,0
2024-11-29 18:11:16.296,-0.133998,4.06989,10.4527,0.364752,0.015882,0.0526856,0
2024-11-29 18:11:16.298,-0.193819,4.05554,10.4575,0.373304,0.028099,0.0581832,0
2024-11-29 18:11:16.300,-0.256032,4.04596,10.4767,0.381856,0.0366508,0.0655134,0
2024-11-29 18:11:16.302,-0.313759,4.03879,10.515,0.392851,0.0427593,0.0722327,0
2024-11-29 18:11:16.305,-0.378365,4.01964,10.5676,0.403846,0.0470352,0.0765086,0
2024-11-29 18:11:16.308,-0.438186,3.99093,10.6202,0.417285,0.0482569,0.0862822,0
2024-11-29 18:11:16.311,-0.502792,3.90239,10.6968,0.449049,0.0445919,0.103386,0
2024-11-29 18:11:16.311,-0.502792,3.90239,10.6968,0.449049,0.0445919,0.103386,0
2024-11-29 18:11:16.314,-0.519542,3.85215,10.6944,0.465542,0.0452027,0.113159,0
2024-11-29 18:11:16.317,-0.521934,3.8019,10.6944,0.496084,0.0366508,0.130874,0
2024-11-29 18:11:16.319,-0.50997,3.75165,10.7207,0.496084,0.0366508,0.130874,0
2024-11-29 18:11:16.322,-0.50997,3.699,10.7471,0.530292,0.020158,0.147367,0
2024-11-29 18:11:16.324,-0.524327,3.65593,10.7566,0.530292,0.020158,0.147367,0
2024-11-29 18:11:16.326,-0.545863,3.61735,10.7662,0.548006,0.00916271,0.157751,0
2024-11-29 18:11:16.329,-0.56022,3.58864,10.7542,0.564499,-0.00305424,0.167525,0
2024-11-29 18:11:16.330,-0.569791,3.5671,10.7207,0.578549,-0.0134386,0.177909,0
2024-11-29 18:11:16.333,-0.572184,3.54078,10.6729,0.591987,-0.0232122,0.191959,0
2024-11-29 18:11:16.336,-0.586541,3.52882,10.6179,0.609702,-0.0348183,0.218836,0
2024-11-29 18:11:16.340,-0.634397,3.54317,10.4671,0.616421,-0.0384834,0.234718,0
2024-11-29 18:11:16.341,-0.634397,3.54317,10.4671,0.616421,-0.0427593,0.251211,0
2024-11-29 18:11:16.343,-0.651147,3.55753,10.3881,0.616421,-0.0427593,0.251211,0
2024-11-29 18:11:16.345,-0.670289,3.58385,10.3017,0.606648,-0.0458135,0.286029,0
2024-11-29 18:11:16.348,-0.682254,3.60299,10.2084,0.596874,-0.0513112,0.304355,0
2024-11-29 18:11:16.350,-0.679861,3.61735,10.1103,0.596874,-0.0513112,0.304355,0
2024-11-29 18:11:16.351,-0.663111,3.63889,10.0074,0.57977,-0.059863,0.320848,0
2024-11-29 18:11:16.354,-0.639183,3.66551,9.93081,0.559002,-0.0702474,0.334286,0
2024-11-29 18:11:16.357,-0.600898,3.7014,9.86621,0.501582,-0.105066,0.358109,0
2024-11-29 18:11:16.359,-0.533899,3.73729,9.80369,0.501582,-0.105066,0.358109,0
2024-11-29 18:11:16.361,-0.423829,3.75643,9.76302,0.467375,-0.132554,0.365439,0
2024-11-29 18:11:16.364,-0.256032,3.75883,9.7343,0.381245,-0.222959,0.360553,0
2024-11-29 18:11:16.366,-0.0334995,3.74925,9.72952,0.381245,-0.222959,0.360553,0
2024-11-29 18:11:16.369,0.22014,3.71097,9.74387,0.275568,-0.364676,0.328178,0
2024-11-29 18:11:16.371,0.481256,3.65833,9.75105,0.275568,-0.364676,0.328178,0
2024-11-29 18:11:16.373,0.751645,3.62692,9.78694,0.213873,-0.447751,0.3013,0
2024-11-29 18:11:16.375,1.0343,3.60778,9.86142,0.148512,-0.541211,0.266482,0
2024-11-29 18:11:16.377,1.34058,3.56949,9.97867,0.0807082,-0.640168,0.223112,0
2024-11-29 18:11:16.380,1.67109,3.52403,10.127,0.0807082,-0.640168,0.223112,0
2024-11-29 18:11:16.383,1.99681,3.48574,10.3304,-0.0603975,-0.834417,0.118046,0
2024-11-29 18:11:16.385,2.3007,3.44746,10.6107,-0.131867,-0.929099,0.055129,0
2024-11-29 18:11:16.387,2.58096,3.402,10.9146,-0.200282,-1.01401,-0.0114534,0
2024-11-29 18:11:16.390,2.82263,3.335,11.2594,-0.324284,-1.15633,-0.149505,0
2024-11-29 18:11:16.391,3.05713,3.28714,11.6521,-0.324284,-1.15633,-0.149505,0
2024-11-29 18:11:16.394,3.2991,3.22014,12.0565,-0.377427,-1.20765,-0.220974,0
2024-11-29 18:11:16.397,3.5336,3.11246,12.4612,-0.420187,-1.24369,-0.293054,0
2024-11-29 18:11:16.399,3.7325,3.03559,12.8635,-0.457448,-1.26568,-0.363301,0
2024-11-29 18:11:16.401,3.87847,2.98056,13.2562,-0.484326,-1.27178,-0.437825,0
2024-11-29 18:11:16.404,3.95504,2.91595,13.6463,-0.505094,-1.25957,-0.511737,0
2024-11-29 18:11:16.405,3.97657,2.8346,14.027,-0.51609,-1.2333,-0.581985,0
2024-11-29 18:11:16.408,3.95982,2.77238,14.3671,-0.519144,-1.1936,-0.649178,0
2024-11-29 18:11:16.411,3.87607,2.72213,14.6327,-0.511814,-1.13984,-0.713928,0
2024-11-29 18:11:16.413,3.72772,2.65035,14.8313,-0.50204,-1.07265,-0.770737,0
2024-11-29 18:11:16.415,3.53599,2.57139,15.0039,-0.483715,-0.989573,-0.822048,0
2024-11-29 18:11:16.418,3.28714,2.48255,15.1475,-0.458059,-0.895502,-0.867861,0
2024-11-29 18:11:16.421,2.98295,2.39402,15.2336,-0.390866,-0.682316,-0.930168,1
2024-11-29 18:11:16.423,2.66471,2.30788,15.2527,-0.390866,-0.682316,-0.930168,0
2024-11-29 18:11:16.425,2.34616,2.17866,15.2145,-0.35055,-0.56259,-0.949104,0
2024-11-29 18:11:16.428,2.05663,2.03749,15.102,-0.308401,-0.441643,-0.957656,0
2024-11-29 18:11:16.429,1.75484,1.91516,14.9393,-0.263199,-0.310921,-0.958267,0
2024-11-29 18:11:16.431,1.41506,1.78355,14.7356,-0.218607,-0.171037,-0.951547,0
2024-11-29 18:11:16.434,1.07498,1.65912,14.4676,-0.177069,-0.0287098,-0.935054,0
2024-11-29 18:11:16.436,0.73011,1.52513,14.1371,-0.133699,0.117894,-0.911231,0
2024-11-29 18:11:16.438,0.397508,1.39322,13.7758,-0.0958267,0.265108,-0.880078,0
2024-11-29 18:11:16.441,0.0717847,1.29272,13.4046,-0.0567324,0.4111,-0.843427,0
2024-11-29 18:11:16.443,-0.260818,1.19701,13.0119,-0.0249684,0.550373,-0.797614,0
2024-11-29 18:11:16.447,-0.600898,1.11087,12.5904,0.00496313,0.681095,-0.746913,0
2024-11-29 18:11:16.448,-0.914656,1.05105,12.186,0.0287862,0.803264,-0.693159,0
2024-11-29 18:11:16.450,-1.18983,1.01755,11.779,0.0483333,0.911995,-0.631463,0
2024-11-29 18:11:16.454,-1.43659,0.984048,11.3958,0.0721563,1.09158,-0.503185,0
2024-11-29 18:11:16.456,-1.63998,0.94337,11.0536,0.0788757,1.16244,-0.435992,0
2024-11-29 18:11:16.457,-1.79791,0.938585,10.6944,0.0788757,1.16244,-0.435992,0
2024-11-29 18:11:16.461,-1.93669,0.94337,10.3424,0.0849841,1.22475,-0.367577,0
2024-11-29 18:11:16.463,-2.04945,0.94337,10.0122,0.0819299,1.32004,-0.233191,0
2024-11-29 18:11:16.465,-2.13081,0.969691,9.71516,0.0819299,1.32004,-0.233191,0
2024-11-29 18:11:16.467,-2.18584,1.01515,9.45673,0.0788757,1.35249,-0.169663,0
2024-11-29 18:11:16.469,-2.20738,1.05823,9.2339,0.0727672,1.3757,-0.106135,0
2024-11-29 18:11:16.471,-2.20977,1.10608,9.03291,0.0636045,1.38792,-0.04505,0
2024-11-29 18:11:16.474,-2.19302,1.17547,8.84866,0.0544418,1.38914,0.0123697,0
2024-11-29 18:11:16.477,-2.14756,1.24008,8.70509,0.0348946,1.36165,0.116214,0
2024-11-29 18:11:16.480,-2.08295,1.32861,8.58276,0.0245102,1.33287,0.162638,0
2024-11-29 18:11:16.482,-1.99202,1.41027,8.47508,0.0245102,1.33287,0.162638,0
2024-11-29 18:11:16.484,-1.85773,1.4677,8.42244,0.0165692,1.295,0.204176,0
2024-11-29 18:11:16.487,-1.71177,1.5347,8.39612,-0.00236703,1.18443,0.269536,0
2024-11-29 18:11:16.489,-1.53948,1.59691,8.39612,-0.00236703,1.18443,0.269536,0
2024-11-29 18:11:16.491,-1.35733,1.67109,8.41287,-0.0127514,1.03966,0.312296,0
2024-11-29 18:11:16.494,-1.1683,1.73809,8.46311,-0.0127514,1.03966,0.312296,0
2024-11-29 18:11:16.495,-0.979263,1.79791,8.53729,-0.0139731,0.960863,0.324513,0
2024-11-29 18:11:16.497,-0.804287,1.86969,8.62343,-0.0115297,0.875955,0.333064,0
2024-11-29 18:11:16.501,-0.617647,1.92712,8.72423,0.00435229,0.697588,0.334897,0
2024-11-29 18:11:16.502,-0.426222,1.98963,8.81037,0.00435229,0.697588,0.334897,0
2024-11-29 18:11:16.505,-0.244068,2.05902,8.9013,0.0202343,0.607793,0.327567,0
2024-11-29 18:11:16.507,-0.066999,2.10688,8.98744,0.0379489,0.518609,0.319015,0
2024-11-29 18:11:16.509,0.100499,2.14277,9.06162,0.057496,0.430036,0.303133,0
2024-11-29 18:11:16.511,0.248854,2.16909,9.12383,0.0794865,0.340242,0.287251,0
2024-11-29 18:11:16.514,0.387936,2.18824,9.1669,0.102088,0.254723,0.268315,0
2024-11-29 18:11:16.517,0.50997,2.18345,9.20519,0.151566,0.0830752,0.227999,0
2024-11-29 18:11:16.519,0.646361,2.16192,9.22194,0.151566,0.0830752,0.227999,0
2024-11-29 18:11:16.521,0.777966,2.13799,9.19322,0.176611,-0.00183254,0.207841,0
2024-11-29 18:11:16.523,0.885943,2.09492,9.16212,0.197991,-0.0787993,0.186461,0
2024-11-29 18:11:16.527,0.979263,2.05185,9.12862,0.235863,-0.217462,0.148589,0
2024-11-29 18:11:16.528,1.0678,2.02552,9.08555,0.235863,-0.217462,0.148589,0
2024-11-29 18:11:16.531,1.15155,1.99681,9.03051,0.251135,-0.276103,0.132096,0
2024-11-29 18:11:16.534,1.22094,1.96062,8.95634,0.27679,-0.368341,0.0997208,0
2024-11-29 18:11:16.536,1.27597,1.92712,8.87737,0.285953,-0.405603,0.0850605,0
2024-11-29 18:11:16.537,1.31665,1.9008,8.80798,0.285953,-0.405603,0.0850605,0
2024-11-29 18:11:16.541,1.3669,1.87687,8.73141,0.293283,-0.43248,0.0722327,0
2024-11-29 18:11:16.544,1.38126,1.84816,8.53251,0.297559,-0.470352,0.0453554,0
2024-11-29 18:11:16.545,1.38126,1.84816,8.53251,0.297559,-0.470352,0.0453554,0
2024-11-29 18:11:16.548,1.37647,1.84816,8.41047,0.295116,-0.482569,0.0306951,0
2024-11-29 18:11:16.550,1.36929,1.85055,8.28126,0.289007,-0.487456,0.0184781,0
2024-11-29 18:11:16.553,1.37408,1.83619,8.18076,0.278012,-0.489289,0.00565034,0
2024-11-29 18:11:16.555,1.37886,1.82423,8.08475,0.244415,-0.481958,-0.0181727,0
2024-11-29 18:11:16.557,1.37408,1.80509,7.96511,0.222425,-0.477072,-0.029168,0
2024-11-29 18:11:16.560,1.35733,1.78355,7.8694,0.222425,-0.477072,-0.029168,0
2024-11-29 18:11:16.562,1.32383,1.78116,7.80718,0.195547,-0.469742,-0.0401632,0
2024-11-29 18:11:16.566,1.23529,1.80987,7.71865,0.13996,-0.45447,-0.0627646,0
2024-11-29 18:11:16.567,1.23529,1.80987,7.71865,0.109418,-0.445308,-0.0719273,0
2024-11-29 18:11:16.569,1.17787,1.80748,7.7019,0.109418,-0.445308,-0.0719273,0
2024-11-29 18:11:16.571,1.13719,1.80269,7.68754,0.0770431,-0.437367,-0.0817008,0
2024-11-29 18:11:16.573,1.0989,1.79551,7.68515,0.0458899,-0.427593,-0.0896418,0
2024-11-29 18:11:16.576,1.05344,1.78834,7.70908,-0.014584,-0.404992,-0.106135,0
2024-11-29 18:11:16.577,1.02473,1.78355,7.74497,-0.014584,-0.404992,-0.106135,0
2024-11-29 18:11:16.581,1.0008,1.77637,7.8,-0.0750579,-0.378725,-0.123238,0
2024-11-29 18:11:16.582,0.967299,1.76201,7.87418,-0.0750579,-0.378725,-0.123238,0
2024-11-29 18:11:16.585,0.933799,1.77159,7.95554,-0.101935,-0.361622,-0.129958,0
2024-11-29 18:11:16.588,0.88355,1.79073,8.03211,-0.147749,-0.328636,-0.13912,0
2024-11-29 18:11:16.590,0.813859,1.79791,8.12064,-0.147749,-0.328636,-0.13912,0
2024-11-29 18:11:16.593,0.754038,1.81226,8.2334,-0.168517,-0.312143,-0.144618,0
2024-11-29 18:11:16.594,0.694218,1.82423,8.3339,-0.183789,-0.291985,-0.148894,0
2024-11-29 18:11:16.597,0.629611,1.82901,8.43201,-0.197227,-0.269994,-0.147672,0
2024-11-29 18:11:16.600,0.591326,1.83859,8.52772,-0.208833,-0.248615,-0.144007,0
2024-11-29 18:11:16.601,0.550648,1.85294,8.60908,-0.216164,-0.225403,-0.143396,0
2024-11-29 18:11:16.603,0.498006,1.86251,8.71227,-0.222883,-0.20158,-0.136677,0
2024-11-29 18:11:16.607,0.438186,1.86012,8.8343,-0.225937,-0.177146,-0.128125,0
2024-11-29 18:11:16.609,0.380758,1.86251,8.93719,-0.22044,-0.123391,-0.109189,0
2024-11-29 18:11:16.610,0.344866,1.88883,9.01616,-0.22044,-0.123391,-0.109189,0
2024-11-29 18:11:16.613,0.30658,1.90558,9.08794,-0.212498,-0.0940705,-0.0963612,0
2024-11-29 18:11:16.615,0.265603,1.90319,9.15494,-0.203947,-0.0671932,-0.0817008,0
2024-11-29 18:11:16.617,0.246461,1.90798,9.2004,-0.189897,-0.0390942,-0.068873,0
2024-11-29 18:11:16.620,0.236889,1.91994,9.2363,-0.175848,-0.0122169,-0.0517693,0
2024-11-29 18:11:16.623,0.222533,1.92951,9.26052,-0.160576,0.0177146,-0.0352764,0
2024-11-29 18:11:16.625,0.22014,1.94148,9.27727,-0.142862,0.0458135,-0.016951,0
2024-11-29 18:11:16.627,0.239282,1.95105,9.28684,-0.142862,0.0458135,-0.016951,0
2024-11-29 18:11:16.630,0.239282,1.97528,9.27488,-0.122704,0.0714691,-0.00167983,0
2024-11-29 18:11:16.632,0.244068,2.01117,9.24587,-0.0860531,0.118504,0.034971,0
2024-11-29 18:11:16.634,0.258425,2.03031,9.18844,-0.0689494,0.141717,0.0532964,0
2024-11-29 18:11:16.636,0.275175,2.05424,9.11187,-0.0500131,0.164318,0.071011,0
2024-11-29 18:11:16.639,0.318545,2.08056,9.04248,-0.0341311,0.185087,0.0893364,0
2024-11-29 18:11:16.641,0.373579,2.10688,8.98266,-0.0164165,0.207077,0.105218,0
2024-11-29 18:11:16.643,0.414257,2.15234,8.89412,-0.00236703,0.225403,0.119268,0
2024-11-29 18:11:16.646,0.457328,2.2002,8.79841,0.0122933,0.239452,0.134539,0
2024-11-29 18:11:16.649,0.502792,2.23131,8.71227,0.0208452,0.254112,0.146756,0
2024-11-29 18:11:16.651,0.553041,2.26241,8.6019,0.0306187,0.265719,0.158973,0
2024-11-29 18:11:16.654,0.60329,2.30788,8.49661,0.0391706,0.278546,0.174855,0
2024-11-29 18:11:16.656,0.648754,2.34377,8.41047,0.0391706,0.278546,0.174855,0
2024-11-29 18:11:16.659,0.701396,2.38684,8.31715,0.0483333,0.284044,0.185239,0
2024-11-29 18:11:16.660,0.756431,2.4323,8.22144,0.0483333,0.284044,0.185239,0
2024-11-29 18:11:16.663,0.821037,2.47298,8.14965,0.0471116,0.285877,0.18585,0
2024-11-29 18:11:16.665,0.876371,2.52592,8.07039,0.0446682,0.285877,0.185239,0
2024-11-29 18:11:16.667,0.921835,2.56421,7.97707,0.0428357,0.284044,0.181574,0
2024-11-29 18:11:16.670,0.957727,2.59292,7.91247,0.0385597,0.279768,0.176688,0
2024-11-29 18:11:16.672,0.996012,2.6336,7.85265,0.0348946,0.274881,0.167525,0
2024-11-29 18:11:16.674,1.03669,2.66949,7.80479,0.0318404,0.269994,0.158973,0
2024-11-29 18:11:16.676,1.04865,2.71735,7.75215,0.0263428,0.266329,0.148589,0
2024-11-29 18:11:16.679,1.06301,2.75563,7.69711,0.0177909,0.261443,0.136983,0
2024-11-29 18:11:16.682,1.07976,2.78674,7.66122,0.00251974,0.249226,0.108884,0
2024-11-29 18:11:16.684,1.0989,2.81067,7.62533,0.00251974,0.249226,0.108884,0
2024-11-29 18:11:16.686,1.11087,2.82503,7.59422,-0.00481042,0.241896,0.094834,0
2024-11-29 18:11:16.689,1.11805,2.84656,7.58226,-0.014584,0.232122,0.0771195,0
2024-11-29 18:11:16.691,1.12044,2.86331,7.58226,-0.0249684,0.221127,0.0600157,0
2024-11-29 18:11:16.694,1.11565,2.87049,7.58465,-0.0420721,0.193028,0.0251975,0
2024-11-29 18:11:16.696,1.11565,2.87288,7.58944,-0.0420721,0.193028,0.0251975,0
2024-11-29 18:11:16.698,1.10608,2.87528,7.58465,-0.0494023,0.179589,0.00687203,0
2024-11-29 18:11:16.701,1.07737,2.87288,7.58944,-0.0573433,0.166761,-0.0108425,0
2024-11-29 18:11:16.702,1.04626,2.8681,7.62293,-0.0658951,0.152101,-0.0273354,0
2024-11-29 18:11:16.706,1.01515,2.86092,7.63968,-0.0732253,0.139884,-0.0438283,0
2024-11-29 18:11:16.707,0.969691,2.85135,7.63251,-0.0793338,0.130721,-0.0584886,0
2024-11-29 18:11:16.710,0.938585,2.83938,7.65165,-0.0848314,0.124002,-0.0737598,0
2024-11-29 18:11:16.712,0.907478,2.82503,7.68993,-0.090329,0.114228,-0.0865876,0
2024-11-29 18:11:16.715,0.857229,2.8011,7.72583,-0.0970484,0.0989573,-0.108578,0
2024-11-29 18:11:16.716,0.797109,2.77717,7.77847,-0.0970484,0.0989573,-0.108578,0
2024-11-29 18:11:16.719,0.732503,2.77238,7.82872,-0.0982701,0.0922379,-0.115908,0
2024-11-29 18:11:16.722,0.675075,2.78913,7.88136,-0.0994917,0.0855186,-0.122628,0
2024-11-29 18:11:16.724,0.627219,2.77238,7.93639,-0.101324,0.0794101,-0.128125,0
2024-11-29 18:11:16.726,0.572184,2.74128,7.98904,-0.101324,0.0745234,-0.129347,0
2024-11-29 18:11:16.729,0.507577,2.73888,8.04886,-0.0988809,0.0726908,-0.132401,0
2024-11-29 18:11:16.731,0.457328,2.73649,8.10629,-0.094605,0.0696366,-0.134234,0
2024-11-29 18:11:16.734,0.409472,2.73171,8.15683,-0.0848314,0.064139,-0.128736,0
2024-11-29 18:11:16.735,0.371187,2.71017,8.20469,-0.0848314,0.064139,-0.128736,0
2024-11-29 18:11:16.739,0.342473,2.67906,8.2669,-0.0781121,0.0604739,-0.125682,0
2024-11-29 18:11:16.740,0.328116,2.67667,8.30997,-0.0781121,0.0604739,-0.125682,0
2024-11-29 18:11:16.746,0.270389,2.65753,8.37697,-0.0579541,0.0525329,-0.110411,0
2024-11-29 18:11:16.746,0.270389,2.65753,8.37697,-0.0579541,0.0525329,-0.110411,0
2024-11-29 18:11:16.747,0.232104,2.67189,8.40569,-0.0500131,0.051922,-0.10247,0
2024-11-29 18:11:16.750,0.18664,2.7006,8.43201,-0.0414613,0.0549763,-0.0951395,0
2024-11-29 18:11:16.754,0.145962,2.73171,8.53251,-0.0414613,0.0549763,-0.0951395,0
2024-11-29 18:11:16.756,0.129212,2.75324,8.58276,-0.0133623,0.0690257,-0.0597103,0
2024-11-29 18:11:16.757,0.129212,2.75324,8.58276,-0.0133623,0.0690257,-0.0597103,0
2024-11-29 18:11:16.760,0.119641,2.79153,8.6354,-0.00481042,0.07208,-0.0481042,0
2024-11-29 18:11:16.761,0.102891,2.81785,8.68804,0.00862822,0.0812427,-0.0358873,0
2024-11-29 18:11:16.765,0.0933201,2.84895,8.71705,0.0208452,0.0904054,-0.0212269,0
2024-11-29 18:11:16.766,0.0909273,2.8681,8.7338,0.0348946,0.10079,-0.0077883,0
2024-11-29 18:11:16.769,0.114855,2.88485,8.73859,0.0458899,0.113618,0.00565034,0
2024-11-29 18:11:16.772,0.136391,2.8992,8.73859,0.0752106,0.147214,0.0306951,0
2024-11-29 18:11:16.774,0.150748,2.91356,8.71945,0.0752106,0.147214,0.0306951,0
2024-11-29 18:11:16.776,0.162712,2.93988,8.6689,0.0886492,0.163707,0.0416903,0
2024-11-29 18:11:16.779,0.16989,2.98295,8.63779,0.110029,0.204023,0.0673459,0
2024-11-29 18:11:16.781,0.167498,3.01406,8.58515,0.110029,0.204023,0.0673459,0
2024-11-29 18:11:16.782,0.177069,3.04756,8.52293,0.120413,0.222348,0.0783412,0
2024-11-29 18:11:16.786,0.18664,3.09332,8.46311,0.126522,0.238841,0.0887256,0
2024-11-29 18:11:16.788,0.181855,3.12921,8.39612,0.13263,0.25228,0.0997208,0
2024-11-29 18:11:16.790,0.205783,3.15553,8.3363,0.137517,0.265108,0.111938,0
2024-11-29 18:11:16.793,0.227318,3.18186,8.2669,0.13935,0.294428,0.126598,0
2024-11-29 18:11:16.795,0.239282,3.22971,8.17837,0.13935,0.294428,0.126598,0
2024-11-29 18:11:16.797,0.267996,3.26321,8.08714,0.137517,0.307867,0.132707,0
2024-11-29 18:11:16.800,0.301795,3.30628,8.02254,0.128965,0.332301,0.14248,0
2024-11-29 18:11:16.802,0.328116,3.35892,7.97947,0.124078,0.342685,0.146145,0
2024-11-29 18:11:16.804,0.328116,3.40678,7.92922,0.124078,0.342685,0.146145,0
2024-11-29 18:11:16.806,0.335294,3.47378,7.89572,0.116137,0.353681,0.147978,0
2024-11-29 18:11:16.812,0.349651,3.60539,7.86222,0.0959794,0.369563,0.149199,0
2024-11-29 18:11:16.812,0.349651,3.60539,7.86222,0.0959794,0.369563,0.149199,0
2024-11-29 18:11:16.814,0.375972,3.66072,7.85504,0.085595,0.369563,0.150421,0
2024-11-29 18:11:16.816,0.395115,3.71815,7.85025,0.085595,0.369563,0.150421,0
2024-11-29 18:11:16.819,0.395115,3.7684,7.82872,0.0800973,0.371395,0.147978,0
2024-11-29 18:11:16.821,0.387936,3.81147,7.82872,0.0636045,0.36773,0.140648,0
2024-11-29 18:11:16.823,0.392722,3.86172,7.86222,0.0636045,0.36773,0.140648,0
2024-11-29 18:11:16.827,0.392722,3.97179,7.94597,0.0471116,0.349405,0.135761,0
2024-11-29 18:11:16.827,0.392722,3.97179,7.94597,0.0471116,0.349405,0.135761,0
2024-11-29 18:11:16.830,0.387936,4.02921,7.96511,0.0391706,0.340853,0.131485,0
2024-11-29 18:11:16.832,0.378365,4.09621,7.98904,0.0306187,0.329858,0.128431,0
2024-11-29 18:11:16.834,0.368794,4.14886,8.02014,0.0245102,0.321916,0.122322,0
2024-11-29 18:11:16.837,0.366401,4.20389,8.0345,0.0184018,0.312754,0.119879,0
2024-11-29 18:11:16.840,0.368794,4.24487,8.06082,0.013515,0.305424,0.116214,0
2024-11-29 18:11:16.841,0.359223,4.25205,8.08236,0.00557398,0.293207,0.112549,0
2024-11-29 18:11:16.844,0.35683,4.2688,8.09432,-0.00236703,0.282822,0.110716,0
2024-11-29 18:11:16.846,0.35683,4.32144,8.135,-0.0121406,0.267551,0.105829,0
2024-11-29 18:11:16.849,0.359223,4.36451,8.17119,-0.0206925,0.25228,0.100943,0
2024-11-29 18:11:16.851,0.380758,4.37647,8.20948,-0.0292443,0.23762,0.0954449,0
2024-11-29 18:11:16.853,0.3999,4.38604,8.25733,-0.0390179,0.219905,0.091169,0
2024-11-29 18:11:16.856,0.419043,4.40279,8.31476,-0.0512348,0.199747,0.0862822,0
2024-11-29 18:11:16.858,0.435793,4.42433,8.38176,-0.0616192,0.177757,0.0813954,0
2024-11-29 18:11:16.861,0.445364,4.44586,8.46551,-0.0854423,0.124613,0.0716218,0
2024-11-29 18:11:16.863,0.459721,4.46261,8.57318,-0.0854423,0.124613,0.0716218,0
2024-11-29 18:11:16.866,0.481256,4.47458,8.7027,-0.107433,0.0647498,0.0612374,0
2024-11-29 18:11:16.867,0.498006,4.48415,8.84387,-0.107433,0.0647498,0.0612374,0
2024-11-29 18:11:16.870,0.514756,4.50808,8.98744,-0.116595,0.0390942,0.0569615,0
2024-11-29 18:11:16.873,0.529113,4.52004,9.15255,-0.130645,-0.0128278,0.0459663,0
2024-11-29 18:11:16.875,0.541077,4.52483,9.32992,-0.130645,-0.0128278,0.0459663,0
2024-11-29 18:11:16.878,0.548256,4.53918,9.50698,-0.133699,-0.0372617,0.0404686,0
2024-11-29 18:11:16.879,0.572184,4.54158,9.68884,-0.13431,-0.0604739,0.0355819,0
2024-11-29 18:11:16.881,0.596112,4.54158,9.89013,-0.133088,-0.0849078,0.0319168,0
2024-11-29 18:11:16.884,0.600898,4.54158,10.0983,-0.130645,-0.10812,0.0288625,0
2024-11-29 18:11:16.887,0.605683,4.54876,10.3017,-0.125758,-0.131332,0.0251975,0
2024-11-29 18:11:16.888,0.612862,4.54876,10.5006,-0.116595,-0.152712,0.0209215,0
2024-11-29 18:11:16.892,0.629611,4.54636,10.6944,-0.106211,-0.176535,0.0172564,0
2024-11-29 18:11:16.894,0.643968,4.55354,10.9002,-0.0756687,-0.216851,0.0135914,0
2024-11-29 18:11:16.895,0.641576,4.56311,11.1159,-0.0756687,-0.216851,0.0135914,0
2024-11-29 18:11:16.898,0.629611,4.56072,11.2881,-0.0573433,-0.235176,0.0123697,0
2024-11-29 18:11:16.901,0.617647,4.56072,11.4437,-0.0164165,-0.267551,0.0135914,0
2024-11-29 18:11:16.903,0.617647,4.56072,11.6258,-0.0164165,-0.267551,0.0135914,0
2024-11-29 18:11:16.906,0.639183,4.53918,11.7814,0.0275645,-0.294428,0.0154239,0
2024-11-29 18:11:16.908,0.679861,4.52483,11.8962,0.0275645,-0.294428,0.0154239,0
2024-11-29 18:11:16.910,0.710967,4.5009,12.0063,0.0501658,-0.307256,0.014813,0
2024-11-29 18:11:16.912,0.727717,4.46979,12.1023,0.0727672,-0.319473,0.0142022,0
2024-11-29 18:11:16.915,0.732503,4.43869,12.1765,0.114305,-0.334744,0.014813,0
2024-11-29 18:11:16.917,0.754038,4.40758,12.2363,0.114305,-0.334744,0.014813,0
2024-11-29 18:11:16.920,0.792323,4.38126,12.3033,0.148512,-0.337188,0.0142022,0
2024-11-29 18:11:16.922,0.811466,4.3669,12.3488,0.148512,-0.337188,0.0142022,0
2024-11-29 18:11:16.925,0.82343,4.36929,12.3823,0.165616,-0.332301,0.0142022,0
2024-11-29 18:11:16.926,0.837787,4.3669,12.4301,0.179055,-0.323138,0.0154239,0
2024-11-29 18:11:16.929,0.837787,4.35254,12.4804,0.193104,-0.309089,0.0154239,0
2024-11-29 18:11:16.931,0.830609,4.34537,12.5234,0.202878,-0.292596,0.0166456,0
2024-11-29 18:11:16.933,0.816252,4.33579,12.5593,0.214484,-0.267551,0.0203107,0
2024-11-29 18:11:16.936,0.797109,4.31665,12.5856,0.223646,-0.23823,0.0251975,0
2024-11-29 18:11:16.939,0.768395,4.29272,12.588,0.229144,-0.197915,0.0300842,0
2024-11-29 18:11:16.941,0.732503,4.26401,12.5833,0.24075,-0.0952922,0.0477988,0
2024-11-29 18:11:16.944,0.696611,4.22812,12.5737,0.243804,-0.0287098,0.0581832,0
2024-11-29 18:11:16.946,0.665504,4.19432,12.5521,0.243804,-0.0287098,0.0581832,0
2024-11-29 18:11:16.947,0.632004,4.17518,12.5282,0.244415,0.0409268,0.0728435,0
2024-11-29 18:11:16.951,0.562612,4.15843,12.5019,0.245026,0.196693,0.0972774,0
2024-11-29 18:11:16.953,0.488435,4.13689,12.4636,0.242583,0.278546,0.114992,0
2024-11-29 18:11:16.955,0.426222,4.14168,12.387,0.241972,0.367119,0.130263,0
2024-11-29 18:11:16.957,0.34008,4.14646,12.277,0.241972,0.367119,0.130263,0
2024-11-29 18:11:16.960,0.251246,4.14407,12.1597,0.230977,0.542432,0.166303,0
2024-11-29 18:11:16.961,0.172283,4.16082,12.023,0.230977,0.542432,0.166303,0
2024-11-29 18:11:16.965,0.0861416,4.17278,11.8723,0.222425,0.631616,0.188905,0
2024-11-29 18:11:16.966,-0.0215354,4.17278,11.7263,0.21204,0.718356,0.207841,0
2024-11-29 18:11:16.969,-0.150748,4.1991,11.554,0.198602,0.804486,0.227388,0
2024-11-29 18:11:16.972,-0.304188,4.24247,11.3767,0.163173,0.961474,0.274423,0
2024-11-29 18:11:16.973,-0.462114,4.25922,11.1876,0.163173,0.961474,0.274423,0
2024-11-29 18:11:16.977,-0.579362,4.25922,10.9675,0.11064,1.09342,0.324513,0
2024-11-29 18:11:16.979,-0.658325,4.24487,10.7518,0.11064,1.09342,0.324513,0
2024-11-29 18:11:16.980,-0.71336,4.22812,10.5676,0.0788757,1.14228,0.347114,0
2024-11-29 18:11:16.984,-0.727717,4.20389,10.4264,0.00129805,1.18749,0.378267,0
2024-11-29 18:11:16.986,-0.718146,4.15603,10.3184,0.00129805,1.18749,0.378267,0
2024-11-29 18:11:16.988,-0.737288,4.1345,10.2275,-0.0872748,1.17283,0.392927,0
2024-11-29 18:11:16.991,-0.758824,4.1345,10.1581,-0.0872748,1.17283,0.392927,0
2024-11-29 18:11:16.993,-0.734896,4.13928,10.139,-0.137364,1.14045,0.395982,0
2024-11-29 18:11:16.995,-0.684646,4.15364,10.1845,-0.182567,1.09342,0.393538,0
2024-11-29 18:11:16.998,-0.608076,4.17039,10.2897,-0.230213,1.03539,0.388041,0
2024-11-29 18:11:17.000,-0.524327,4.19432,10.4312,-0.230213,1.03539,0.388041,0
2024-11-29 18:11:17.002,-0.431007,4.23051,10.6155,-0.317564,0.879009,0.363607,0
2024-11-29 18:11:17.004,-0.318545,4.26401,10.8236,-0.358491,0.787382,0.342838,0
2024-11-29 18:11:17.006,-0.177069,4.29512,11.056,-0.392698,0.685981,0.319626,0
2024-11-29 18:11:17.011,0.107677,4.26401,11.5995,-0.453783,0.457525,0.257319,0
2024-11-29 18:11:17.011,0.107677,4.26401,11.5995,-0.453783,0.457525,0.257319,0
2024-11-29 18:11:17.013,0.301795,4.2353,11.913,-0.474552,0.332912,0.218836,0
2024-11-29 18:11:17.017,0.488435,4.18714,12.2507,-0.502651,0.0806318,0.131485,0
2024-11-29 18:11:17.018,0.660718,4.13689,12.6168,-0.502651,0.0806318,0.131485,0
2024-11-29 18:11:17.020,0.84018,4.07468,13.0095,-0.507538,-0.0470352,0.0838388,0
2024-11-29 18:11:17.024,0.99362,3.97657,13.4046,-0.506316,-0.171037,0.0374144,0
2024-11-29 18:11:17.025,1.11565,3.87607,13.8069,-0.49471,-0.287098,-0.0108425,0
2024-11-29 18:11:17.028,1.23529,3.75404,14.1754,-0.476995,-0.394607,-0.0584886,0
2024-11-29 18:11:17.031,1.34297,3.61017,14.5131,-0.422019,-0.587024,-0.144618,0
2024-11-29 18:11:17.033,1.43659,3.47378,14.8505,-0.381092,-0.67071,-0.184323,0
2024-11-29 18:11:17.035,1.5012,3.34935,15.1881,-0.381092,-0.67071,-0.184323,0
2024-11-29 18:11:17.037,1.5323,3.21775,15.533,-0.334668,-0.746455,-0.219752,0
2024-11-29 18:11:17.039,1.53709,3.09332,15.8776,-0.27847,-0.817924,-0.255792,0
2024-11-29 18:11:17.041,1.52752,2.98056,16.1722,-0.216774,-0.885729,-0.288167,0
2024-11-29 18:11:17.044,1.51077,2.88245,16.4163,-0.146527,-0.941926,-0.316877,0
2024-11-29 18:11:17.046,1.47966,2.79153,16.5888,-0.0683385,-0.988351,-0.3407,1
2024-11-29 18:11:17.050,1.42463,2.68864,16.7061,0.013515,-1.02378,-0.359636,0
2024-11-29 18:11:17.052,1.34536,2.57139,16.7659,0.186385,-1.0531,-0.386514,0
2024-11-29 18:11:17.053,1.25444,2.44666,16.7348,0.186385,-1.0531,-0.386514,0
2024-11-29 18:11:17.057,1.1659,2.31506,16.6463,0.359865,-1.03416,-0.395065,0
2024-11-29 18:11:17.058,1.0654,2.1667,16.4593,0.359865,-1.03416,-0.395065,0
2024-11-29 18:11:17.061,0.964906,2.01835,16.1889,0.522962,-0.972469,-0.38407,0
2024-11-29 18:11:17.064,0.859622,1.8673,15.8776,0.522962,-0.972469,-0.38407,0
2024-11-29 18:11:17.066,0.739681,1.71894,15.5139,0.6659,-0.875344,-0.351084,0
2024-11-29 18:11:17.068,0.588933,1.60409,15.1092,0.6659,-0.875344,-0.351084,0
2024-11-29 18:11:17.070,0.419043,1.4988,14.683,0.725152,-0.815481,-0.325429,0
2024-11-29 18:11:17.072,0.265603,1.42463,14.228,0.777074,-0.74951,-0.294886,0
2024-11-29 18:11:17.074,0.114855,1.37408,13.7542,0.821666,-0.679262,-0.260068,0
2024-11-29 18:11:17.077,-0.0311067,1.33101,13.2682,0.860149,-0.603517,-0.222196,0
2024-11-29 18:11:17.079,-0.160319,1.30708,12.7654,0.888248,-0.522885,-0.176993,0
2024-11-29 18:11:17.081,-0.272782,1.28554,12.2483,0.909628,-0.43981,-0.129958,0
2024-11-29 18:11:17.085,-0.373579,1.26162,11.7455,0.921234,-0.354902,-0.0823117,0
2024-11-29 18:11:17.086,-0.4669,1.24247,11.2522,0.923677,-0.271216,-0.0346656,0
2024-11-29 18:11:17.089,-0.56022,1.24487,10.7566,0.917569,-0.190584,0.0105371,0
2024-11-29 18:11:17.091,-0.608076,1.2664,10.2778,0.905963,-0.108731,0.0581832,0
2024-11-29 18:11:17.093,-0.62004,1.2999,9.82314,0.888859,-0.0329858,0.100943,0
2024-11-29 18:11:17.096,-0.62004,1.32622,9.40409,0.861982,0.0372617,0.137593,0
2024-11-29 18:11:17.099,-0.598505,1.35733,9.00898,0.789902,0.16615,0.197456,0
2024-11-29 18:11:17.100,-0.572184,1.39801,8.61625,0.789902,0.16615,0.197456,0
2024-11-29 18:11:17.103,-0.550648,1.44616,8.2669,0.745921,0.221127,0.217003,0
2024-11-29 18:11:17.106,-0.519542,1.5012,7.9675,0.697664,0.270605,0.231664,0
2024-11-29 18:11:17.108,-0.498006,1.57059,7.69233,0.645131,0.315197,0.24327,0
2024-11-29 18:11:17.111,-0.45015,1.63759,7.45992,0.589544,0.35307,0.246935,0
2024-11-29 18:11:17.113,-0.371187,1.6998,7.28525,0.474705,0.410489,0.237161,0
2024-11-29 18:11:17.115,-0.349651,1.79312,7.12493,0.474705,0.410489,0.237161,0
2024-11-29 18:11:17.118,-0.392722,1.89601,6.95235,0.355589,0.46119,0.213338,0
2024-11-29 18:11:17.120,-0.428614,1.99681,6.81356,0.355589,0.46119,0.213338,0
2024-11-29 18:11:17.123,-0.409472,2.09731,6.73221,0.296337,0.479515,0.198678,0
2024-11-29 18:11:17.124,-0.373579,2.1667,6.71067,0.24075,0.491121,0.179742,0
2024-11-29 18:11:17.126,-0.361615,2.22891,6.69871,0.185163,0.496619,0.159584,0
2024-11-29 18:11:17.129,-0.354437,2.29352,6.69392,0.127743,0.494175,0.136983,0
2024-11-29 18:11:17.131,-0.342473,2.31745,6.7011,0.0764323,0.487456,0.111938,0
2024-11-29 18:11:17.134,-0.330509,2.32223,6.72503,-0.0200816,0.453249,0.0569615,0
2024-11-29 18:11:17.137,-0.301795,2.31745,6.79921,-0.0200816,0.453249,0.0569615,0
2024-11-29 18:11:17.139,-0.256032,2.28873,6.88056,-0.103157,0.392775,-0.00839915,0
2024-11-29 18:11:17.140,-0.224925,2.24566,6.97867,-0.103157,0.392775,-0.00839915,0
2024-11-29 18:11:17.144,-0.229711,2.19781,7.11296,-0.138586,0.356735,-0.0389415,0
2024-11-29 18:11:17.145,-0.234497,2.16192,7.23978,-0.167907,0.317641,-0.0737598,0
2024-11-29 18:11:17.147,-0.177069,2.07099,7.37139,-0.196006,0.274881,-0.106746,0
2024-11-29 18:11:17.151,-0.0358923,1.9343,7.57239,-0.228991,0.193639,-0.177604,0
2024-11-29 18:11:17.153,-0.246461,1.95344,7.64686,-0.241819,0.160042,-0.202649,0
2024-11-29 18:11:17.156,-0.562612,2.00399,7.68754,-0.241819,0.160042,-0.202649,0
2024-11-29 18:11:17.158,-0.529113,1.90319,7.91964,-0.24976,0.119726,-0.221585,0
2024-11-29 18:11:17.160,-0.505185,1.77876,8.14487,-0.251593,0.0702474,-0.241132,0
2024-11-29 18:11:17.163,-0.586541,1.68784,8.3004,-0.24976,0.0232122,-0.257014,0
2024-11-29 18:11:17.164,-0.691825,1.61366,8.40569,-0.243041,-0.0232122,-0.269842,0
2024-11-29 18:11:17.166,-0.775574,1.53709,8.49901,-0.232656,-0.0623064,-0.277783,0
2024-11-29 18:11:17.170,-0.833001,1.43659,8.60429,-0.22044,-0.0983464,-0.283891,0
2024-11-29 18:11:17.172,-0.890728,1.35015,8.68804,-0.18501,-0.153323,-0.289389,0
2024-11-29 18:11:17.174,-0.991227,1.28315,8.74098,-0.18501,-0.153323,-0.289389,0
2024-11-29 18:11:17.176,-1.0989,1.21854,8.78884,-0.167907,-0.177146,-0.286335,0
2024-11-29 18:11:17.179,-1.17787,1.15155,8.83669,-0.126369,-0.215629,-0.273507,0
2024-11-29 18:11:17.180,-1.24247,1.0678,8.87259,-0.126369,-0.215629,-0.273507,0
2024-11-29 18:11:17.184,-1.30469,0.988834,8.90848,-0.106211,-0.235787,-0.264344,0
2024-11-29 18:11:17.185,-1.35494,0.933799,8.92044,-0.0836097,-0.255334,-0.252738,0
2024-11-29 18:11:17.188,-1.40548,0.885943,8.92762,-0.0640626,-0.27366,-0.241132,0
2024-11-29 18:11:17.190,-1.48923,0.857229,8.92762,-0.0451263,-0.290152,-0.225861,0
2024-11-29 18:11:17.192,-1.58734,0.852443,8.89891,-0.0274118,-0.305424,-0.209368,0
2024-11-29 18:11:17.196,-1.61845,0.833001,8.86541,0.0019089,-0.332301,-0.170274,0
2024-11-29 18:11:17.197,-1.53948,0.789931,8.87976,0.0019089,-0.332301,-0.170274,0
2024-11-29 18:11:17.199,-1.5682,0.809073,8.90609,0.0141258,-0.340853,-0.151337,0
2024-11-29 18:11:17.202,-1.69262,0.8668,8.88216,0.0275645,-0.34574,-0.129958,0
2024-11-29 18:11:17.205,-1.71177,0.88355,8.87737,0.0507767,-0.356124,-0.0841442,0
2024-11-29 18:11:17.207,-1.6998,0.897907,8.88216,0.0507767,-0.356124,-0.0841442,0
2024-11-29 18:11:17.213,-0.816252,0.768395,8.30758,0.0629936,-0.287709,-0.0419957,0
2024-11-29 18:11:17.214,-0.816252,0.768395,8.30758,0.0629936,-0.287709,-0.0419957,0
2024-11-29 18:11:17.214,-0.816252,0.768395,8.30758,0.0629936,-0.287709,-0.0419957,0
2024-11-29 18:11:17.216,-1.05344,0.854836,8.34347,0.0611611,-0.247393,-0.0346656,0
2024-11-29 18:11:17.218,-1.32622,0.933799,8.21665,0.0550526,-0.215629,-0.0224486,0
2024-11-29 18:11:17.221,-1.52991,1.01037,8.05125,0.0428357,-0.189363,-0.00839915,0
2024-11-29 18:11:17.224,-1.62084,1.11326,7.97707,0.00618483,-0.153934,0.0331385,0
2024-11-29 18:11:17.225,-1.65194,1.22333,8.00818,0.00618483,-0.153934,0.0331385,0
2024-11-29 18:11:17.229,-1.65912,1.32144,8.04407,-0.0353528,-0.145992,0.0820062,0
2024-11-29 18:11:17.231,-1.65194,1.40279,8.06082,-0.0573433,-0.150879,0.107051,0
2024-11-29 18:11:17.233,-1.61605,1.47248,8.08953,-0.0573433,-0.150879,0.107051,0
2024-11-29 18:11:17.236,-1.5323,1.5347,8.08714,-0.0811663,-0.155155,0.132707,0
2024-11-29 18:11:17.238,-1.41266,1.56102,8.04646,-0.127591,-0.145382,0.179131,0
2024-11-29 18:11:17.239,-1.2999,1.58734,8.02732,-0.127591,-0.145382,0.179131,0
2024-11-29 18:11:17.243,-1.19701,1.62084,8.02732,-0.167907,-0.107509,0.218836,0
2024-11-29 18:11:17.245,-1.0989,1.63998,8.02493,-0.167907,-0.107509,0.218836,0
2024-11-29 18:11:17.246,-0.964906,1.65194,8.02493,-0.186232,-0.0787993,0.231053,0
2024-11-29 18:11:17.250,-0.799502,1.66391,8.04886,-0.203947,-0.0482569,0.243881,0
2024-11-29 18:11:17.251,-0.632004,1.67587,8.09193,-0.223494,-0.0183254,0.252433,0
2024-11-29 18:11:17.253,-0.493221,1.69741,8.13021,-0.238765,0.00488678,0.257319,0
2024-11-29 18:11:17.257,-0.402293,1.72373,8.18076,-0.266253,0.0458135,0.260984,0
2024-11-29 18:11:17.259,-0.328116,1.74527,8.22144,-0.266253,0.0458135,0.260984,0
2024-11-29 18:11:17.261,-0.256032,1.78355,8.25015,-0.280303,0.0616956,0.261595,0
2024-11-29 18:11:17.263,-0.212961,1.82184,8.28126,-0.29313,0.0733017,0.260984,0
2024-11-29 18:11:17.266,-0.177069,1.85533,8.31715,-0.302904,0.0842969,0.258541,0
2024-11-29 18:11:17.269,-0.131605,1.9008,8.3674,-0.312067,0.0952922,0.257319,0
2024-11-29 18:11:17.271,-0.0885344,1.94387,8.40569,-0.318175,0.105066,0.251822,0
2024-11-29 18:11:17.272,-0.0478565,1.9681,8.42483,-0.323673,0.112396,0.246324,0
2024-11-29 18:11:17.276,-0.00478565,2.00399,8.45833,-0.326727,0.132554,0.236551,0
2024-11-29 18:11:17.278,0.040678,2.06142,8.48704,-0.326727,0.132554,0.236551,0
2024-11-29 18:11:17.280,0.0861416,2.09492,8.49183,-0.328559,0.140495,0.230442,0
2024-11-29 18:11:17.283,0.12682,2.12602,8.49183,-0.331003,0.152101,0.223112,0
2024-11-29 18:11:17.284,0.162712,2.16909,8.48944,-0.330392,0.164929,0.216393,0
2024-11-29 18:11:17.287,0.191426,2.19063,8.48944,-0.329781,0.179589,0.204176,0
2024-11-29 18:11:17.289,0.208176,2.20738,8.47269,-0.326727,0.193639,0.194402,0
2024-11-29 18:11:17.292,0.217747,2.23849,8.42722,-0.324284,0.219905,0.177909,0
2024-11-29 18:11:17.294,0.210568,2.26002,8.39133,-0.324284,0.219905,0.177909,0
2024-11-29 18:11:17.297,0.181855,2.27677,8.36979,-0.324284,0.231511,0.169968,0
2024-11-29 18:11:17.298,0.136391,2.29113,8.33869,-0.324894,0.240063,0.160195,0
2024-11-29 18:11:17.302,0.0717847,2.29831,8.30997,-0.326727,0.24495,0.150421,0
2024-11-29 18:11:17.303,0.00478565,2.30309,8.29562,-0.325505,0.24495,0.143702,0
2024-11-29 18:11:17.306,-0.0622134,2.31266,8.29322,-0.327338,0.233344,0.133317,0
2024-11-29 18:11:17.309,-0.131605,2.33181,8.29801,-0.327338,0.233344,0.133317,0
2024-11-29 18:11:17.310,-0.18664,2.34616,8.31237,-0.326727,0.222959,0.128431,0
2024-11-29 18:11:17.313,-0.246461,2.35095,8.32433,-0.328559,0.211353,0.127209,0
2024-11-29 18:11:17.316,-0.301795,2.34856,8.32194,-0.32917,0.197304,0.122933,0
2024-11-29 18:11:17.318,-0.359223,2.35334,8.32672,-0.331003,0.159431,0.118046,0
2024-11-29 18:11:17.319,-0.421436,2.36531,8.34347,-0.331003,0.159431,0.118046,0
2024-11-29 18:11:17.322,-0.483649,2.36531,8.38176,-0.330392,0.136219,0.118657,0
2024-11-29 18:11:17.324,-0.54347,2.36531,8.42004,-0.330392,0.111174,0.118657,0
2024-11-29 18:11:17.327,-0.605683,2.37248,8.45833,-0.330392,0.111174,0.118657,0
2024-11-29 18:11:17.329,-0.646361,2.36531,8.5014,-0.323673,0.0592522,0.119268,0
2024-11-29 18:11:17.332,-0.679861,2.36291,8.52772,-0.321229,0.0311532,0.119268,0
2024-11-29 18:11:17.335,-0.715753,2.36291,8.55404,-0.317564,0.00427593,0.1211,0
2024-11-29 18:11:17.338,-0.766002,2.35334,8.6354,-0.304736,-0.0488678,0.12782,0
2024-11-29 18:11:17.339,-0.739681,2.35095,8.6354,-0.304736,-0.0488678,0.12782,0
2024-11-29 18:11:17.341,-0.785145,2.36052,8.69043,-0.298628,-0.0763559,0.132707,0
2024-11-29 18:11:17.343,-0.792323,2.36052,8.75055,-0.289465,-0.105066,0.136372,0
2024-11-29 18:11:17.346,-0.792323,2.36531,8.8008,-0.273583,-0.161875,0.146756,0
2024-11-29 18:11:17.349,-0.782752,2.35813,8.85823,-0.273583,-0.161875,0.146756,0
2024-11-29 18:11:17.350,-0.773181,2.35573,8.91805,-0.265642,-0.186308,0.151643,0
2024-11-29 18:11:17.352,-0.754038,2.36052,8.98026,-0.254647,-0.211964,0.15653,0
2024-11-29 18:11:17.356,-0.725324,2.36291,9.02812,-0.243652,-0.232733,0.162638,0
2024-11-29 18:11:17.358,-0.699003,2.37009,9.07119,-0.22105,-0.263886,0.173022,0
2024-11-29 18:11:17.360,-0.677468,2.37727,9.12383,-0.22105,-0.263886,0.173022,0
2024-11-29 18:11:17.362,-0.65354,2.36291,9.17169,-0.210055,-0.272438,0.177909,0
2024-11-29 18:11:17.364,-0.634397,2.36052,9.21476,-0.196006,-0.277936,0.184018,0
2024-11-29 18:11:17.368,-0.617647,2.37009,9.25305,-0.181345,-0.279768,0.188294,0
2024-11-29 18:11:17.369,-0.586541,2.36531,9.28684,-0.172183,-0.279157,0.194402,0
2024-11-29 18:11:17.372,-0.553041,2.3677,9.31795,-0.142862,-0.27427,0.202954,0
2024-11-29 18:11:17.375,-0.517149,2.3677,9.35863,-0.130645,-0.269384,0.209673,0
2024-11-29 18:11:17.377,-0.481256,2.35334,9.39452,-0.130645,-0.269384,0.209673,0
2024-11-29 18:11:17.378,-0.445364,2.35813,9.41127,-0.115985,-0.261443,0.213338,0
2024-11-29 18:11:17.381,-0.407079,2.36291,9.41127,-0.101935,-0.252891,0.220669,0
2024-11-29 18:11:17.384,-0.35683,2.38684,9.4017,-0.0878856,-0.243728,0.225555,0
2024-11-29 18:11:17.385,-0.308973,2.40838,9.39931,-0.0738362,-0.233344,0.227999,0
2024-11-29 18:11:17.389,-0.260818,2.40838,9.38495,-0.0610084,-0.218683,0.232275,0
2024-11-29 18:11:17.390,-0.22014,2.42991,9.37059,-0.0469589,-0.204023,0.237161,0
2024-11-29 18:11:17.393,-0.198604,2.44905,9.34427,-0.0335202,-0.182032,0.242659,0
2024-11-29 18:11:17.396,-0.172283,2.46102,9.30359,-0.0109189,-0.139884,0.251822,0
2024-11-29 18:11:17.398,-0.141177,2.48495,9.26052,-0.0109189,-0.139884,0.251822,0
2024-11-29 18:11:17.399,-0.0981057,2.50648,9.21237,-0.00175619,-0.117894,0.257319,0
2024-11-29 18:11:17.403,-0.0550349,2.52323,9.15494,0.0141258,-0.0763559,0.260984,0
2024-11-29 18:11:17.405,-0.0215354,2.54267,9.09751,0.0141258,-0.0763559,0.260984,0
2024-11-29 18:11:17.407,0.00478565,2.5666,9.0353,0.0196235,-0.0592522,0.26465,0
2024-11-29 18:11:17.409,0.0358923,2.58574,8.98026,0.0251211,-0.0445919,0.26526,0
2024-11-29 18:11:17.411,0.0622134,2.61207,8.93001,0.0238994,-0.0323749,0.26465,0
2024-11-29 18:11:17.414,0.0933201,2.65035,8.88455,0.0263428,-0.023823,0.266482,0
2024-11-29 18:11:17.416,0.117248,2.70299,8.84626,0.0300079,-0.0146603,0.265871,0
2024-11-29 18:11:17.419,0.133998,2.75563,8.81277,0.029397,-0.00610847,0.264039,0
2024-11-29 18:11:17.421,0.167498,2.79631,8.80319,0.0306187,-0.00366508,0.260984,0
2024-11-29 18:11:17.424,0.193819,2.84178,8.78884,0.0263428,0.00122169,0.25793,0
2024-11-29 18:11:17.426,0.196211,2.88963,8.76012,0.0275645,0.0,0.253654,0
2024-11-29 18:11:17.428,0.198604,2.94227,8.73859,0.0232886,-0.000610847,0.248768,0
2024-11-29 18:11:17.431,0.205783,2.99252,8.7338,0.021456,-0.00488678,0.234107,0
2024-11-29 18:11:17.433,0.227318,3.03559,8.74816,0.021456,-0.00488678,0.234107,0
2024-11-29 18:11:17.435,0.244068,3.08854,8.77209,0.0190126,-0.0134386,0.227388,0
2024-11-29 18:11:17.438,0.265603,3.13639,8.79123,0.0159584,-0.020158,0.218225,0
2024-11-29 18:11:17.440,0.294616,3.16032,8.8008,0.013515,-0.0287098,0.211506,0
2024-11-29 18:11:17.442,0.311366,3.18903,8.81277,0.0122933,-0.0372617,0.1999,0
2024-11-29 18:11:17.444,0.316152,3.22014,8.8343,0.0116825,-0.0476461,0.189515,0
2024-11-29 18:11:17.448,0.316152,3.24885,8.86062,0.00923906,-0.0580305,0.179131,0
2024-11-29 18:11:17.449,0.32333,3.27757,8.88216,0.00618483,-0.0647498,0.167525,0
2024-11-29 18:11:17.452,0.344866,3.30628,8.91326,0.00618483,-0.0745234,0.15653,0
2024-11-29 18:11:17.455,0.366401,3.33978,8.97308,0.00251974,-0.0787993,0.146145,0
2024-11-29 18:11:17.457,0.380758,3.35892,9.02573,0.00251974,-0.0842969,0.12049,0
2024-11-29 18:11:17.459,0.380758,3.39482,9.0688,0.00251974,-0.0842969,0.12049,0
2024-11-29 18:11:17.461,0.380758,3.42832,9.09751,0.00251974,-0.0812427,0.108273,0
2024-11-29 18:11:17.464,0.385544,3.45224,9.11187,0.00740652,-0.0751342,0.0972774,0
2024-11-29 18:11:17.466,0.373579,3.48574,9.1334,0.0122933,-0.0665824,0.086893,0
2024-11-29 18:11:17.468,0.347258,3.50728,9.1669,0.0153475,-0.0561979,0.0752869,0
2024-11-29 18:11:17.471,0.316152,3.52642,9.19322,0.0177909,-0.0421485,0.0655134,0
2024-11-29 18:11:17.473,0.282652,3.53599,9.20758,0.021456,-0.0329858,0.0557398,0
2024-11-29 18:11:17.475,0.265603,3.54556,9.22433,0.0238994,-0.020158,0.047188,0
2024-11-29 18:11:17.478,0.256032,3.56231,9.2339,0.0281753,-0.0103844,0.0423012,0
2024-11-29 18:11:17.480,0.239282,3.57189,9.24108,0.0318404,-0.00549763,0.0343602,0
2024-11-29 18:11:17.483,0.215354,3.56471,9.24587,0.0361163,0.00366508,0.0245866,0
2024-11-29 18:11:17.485,0.196211,3.57189,9.24108,0.0361163,0.00427593,0.0221432,0
2024-11-29 18:11:17.488,0.179462,3.57428,9.25065,0.0361163,0.00427593,0.0221432,0
2024-11-29 18:11:17.490,0.172283,3.58385,9.26531,0.0397814,0.00671932,0.019089,0
2024-11-29 18:11:17.492,0.174676,3.60778,9.27249,0.0367272,0.00427593,0.0160347,0
2024-11-29 18:11:17.494,0.174676,3.6006,9.28206,0.0385597,0.00549763,0.0172564,0
2024-11-29 18:11:17.497,0.172283,3.61256,9.28924,0.0324513,0.00244339,0.0160347,0
2024-11-29 18:11:17.499,0.148355,3.63889,9.30359,0.0324513,0.00244339,0.0160347,0
2024-11-29 18:11:17.501,0.131605,3.66311,9.32034,0.0312296,0.00427593,0.0178673,0
2024-11-29 18:11:17.504,0.141177,3.69422,9.34427,0.0263428,0.00733017,0.0245866,0
2024-11-29 18:11:17.506,0.143569,3.72533,9.38974,0.0263428,0.00733017,0.0245866,0
2024-11-29 18:11:17.509,0.141177,3.75883,9.44238,0.0226777,0.00733017,0.0313059,0
2024-11-29 18:11:17.511,0.138784,3.77557,9.52134,0.0208452,0.00488678,0.0361927,0
2024-11-29 18:11:17.514,0.148355,3.8019,9.60748,0.0184018,0.00183254,0.0423012,0
2024-11-29 18:11:17.516,0.155533,3.84736,9.67687,0.0184018,0.00183254,0.0423012,0
2024-11-29 18:11:17.517,0.167498,3.88086,9.74866,0.0208452,-0.00122169,0.0477988,0
2024-11-29 18:11:17.521,0.189033,3.89761,9.81566,0.0196235,-0.00488678,0.0514639,0
2024-11-29 18:11:17.522,0.208176,3.93111,9.88056,0.0202343,-0.00610847,0.0557398,0
2024-11-29 18:11:17.525,0.239282,3.96461,9.95474,0.0232886,-0.00916271,0.0600157,0
2024-11-29 18:11:17.527,0.267996,4.0005,10.0457,0.0257319,-0.0109953,0.0655134,0
2024-11-29 18:11:17.529,0.294616,4.04357,10.139,0.0281753,-0.0134386,0.0679568,0
2024-11-29 18:11:17.532,0.316152,4.07707,10.2156,0.0318404,-0.0140495,0.071011,0
2024-11-29 18:11:17.534,0.34008,4.12493,10.2826,0.0379489,-0.015882,0.0716218,0
2024-11-29 18:11:17.536,0.368794,4.15125,10.3567,0.0452791,-0.0183254,0.0716218,0
2024-11-29 18:11:17.539,0.402293,4.17039,10.4312,0.0526092,-0.020158,0.0734544,0
2024-11-29 18:11:17.542,0.4334,4.19671,10.4958,0.0605502,-0.0250447,0.0734544,0
2024-11-29 18:11:17.543,0.45015,4.19432,10.5532,0.0697129,-0.0311532,0.0728435,0
2024-11-29 18:11:17.546,0.490828,4.18953,10.6011,0.077654,-0.0384834,0.0697893,0
2024-11-29 18:11:17.548,0.545863,4.2015,10.6346,0.0843733,-0.0458135,0.0655134,0
2024-11-29 18:11:17.551,0.56022,4.22333,10.6609,0.0990336,-0.0659715,0.058794,0
2024-11-29 18:11:17.553,0.56022,4.24247,10.6944,0.0990336,-0.0659715,0.058794,0
2024-11-29 18:11:17.556,0.567398,4.24487,10.716,0.102699,-0.0763559,0.055129,0
2024-11-29 18:11:17.557,0.569791,4.25205,10.7183,0.108807,-0.087962,0.0532964,0
2024-11-29 18:11:17.561,0.562612,4.28794,10.716,0.110029,-0.0983464,0.0490205,0
2024-11-29 18:11:17.563,0.555434,4.30708,10.7327,0.112472,-0.109953,0.042912,0
2024-11-29 18:11:17.564,0.548256,4.33101,10.7542,0.112472,-0.121559,0.0416903,0
2024-11-29 18:11:17.568,0.533899,4.37408,10.7758,0.113083,-0.131943,0.0416903,0
2024-11-29 18:11:17.570,0.512363,4.40279,10.8069,0.114916,-0.140495,0.0398578,0
2024-11-29 18:11:17.571,0.490828,4.44108,10.8476,0.114916,-0.152101,0.0398578,0
2024-11-29 18:11:17.574,0.464507,4.49611,10.9002,0.111251,-0.161264,0.0423012,0
2024-11-29 18:11:17.581,0.385544,4.59422,11.0824,0.111861,-0.18753,0.0477988,0
2024-11-29 18:11:17.582,0.385544,4.59422,11.0824,0.113694,-0.194249,0.0514639,0
2024-11-29 18:11:17.582,0.385544,4.59422,11.0824,0.113694,-0.194249,0.0514639,0
2024-11-29 18:11:17.583,0.352044,4.62293,11.1685,0.113694,-0.194249,0.0514639,0
2024-11-29 18:11:17.587,0.335294,4.62054,11.2427,0.115526,-0.20158,0.0557398,0
2024-11-29 18:11:17.588,0.318545,4.62772,11.3169,0.11797,-0.205856,0.058794,0
2024-11-29 18:11:17.591,0.299402,4.66361,11.4197,0.127743,-0.211964,0.0636808,0
2024-11-29 18:11:17.593,0.292223,4.68275,11.5325,0.127743,-0.211964,0.0636808,0
2024-11-29 18:11:17.596,0.294616,4.67318,11.6163,0.147901,-0.215629,0.0691785,0
2024-11-29 18:11:17.598,0.304188,4.66122,11.7048,0.147901,-0.215629,0.0691785,0
2024-11-29 18:11:17.601,0.308973,4.65643,11.7909,0.171114,-0.215018,0.0697893,0
2024-11-29 18:11:17.602,0.311366,4.64686,11.8508,0.171114,-0.215018,0.0697893,0
2024-11-29 18:11:17.605,0.320937,4.62293,11.913,0.185774,-0.215018,0.0679568,0
2024-11-29 18:11:17.607,0.313759,4.61336,11.9728,0.196158,-0.212575,0.0691785,0
2024-11-29 18:11:17.611,0.285045,4.57268,12.0446,0.229144,-0.205856,0.06307,0
2024-11-29 18:11:17.612,0.285045,4.57268,12.0446,0.229144,-0.205856,0.06307,0
2024-11-29 18:11:17.614,0.260818,4.56311,12.0637,0.246859,-0.20219,0.0624591,0
2024-11-29 18:11:17.617,0.232104,4.53918,12.0951,0.279844,-0.193639,0.0581832,0
2024-11-29 18:11:17.620,0.196211,4.49851,12.1382,0.29817,-0.186919,0.0563507,0
2024-11-29 18:11:17.621,0.143569,4.48894,12.1525,0.29817,-0.186919,0.0563507,0
2024-11-29 18:11:17.623,0.081356,4.47936,12.1502,0.315884,-0.182643,0.0581832,0
2024-11-29 18:11:17.626,0.0311067,4.45065,12.1454,0.332988,-0.177146,0.0600157,0
2024-11-29 18:11:17.629,-0.0143569,4.43869,12.1382,0.351924,-0.175924,0.0612374,0
2024-11-29 18:11:17.630,-0.0646062,4.4339,12.1286,0.369639,-0.169205,0.0655134,0
2024-11-29 18:11:17.634,-0.133998,4.41954,12.0903,0.400181,-0.168594,0.0807846,0
2024-11-29 18:11:17.636,-0.189033,4.39801,12.0087,0.411177,-0.169816,0.0893364,0
2024-11-29 18:11:17.637,-0.229711,4.37408,11.9273,0.411177,-0.169816,0.0893364,0
2024-11-29 18:11:17.640,-0.265603,4.35015,11.8603,0.422172,-0.172259,0.102164,0
2024-11-29 18:11:17.643,-0.294616,4.3334,11.7814,0.431945,-0.186919,0.124155,0
2024-11-29 18:11:17.645,-0.320937,4.31426,11.688,0.431945,-0.186919,0.124155,0
2024-11-29 18:11:17.647,-0.335294,4.2999,11.5995,0.433167,-0.199747,0.138204,0
2024-11-29 18:11:17.650,-0.318545,4.27837,11.5301,0.430724,-0.219294,0.150421,0
2024-11-29 18:11:17.653,-0.253639,4.23769,11.4676,0.422172,-0.246171,0.165081,0
2024-11-29 18:11:17.654,-0.145962,4.18475,11.4102,0.411787,-0.281601,0.174855,0
2024-11-29 18:11:17.656,-0.0478565,4.1345,11.3551,0.396516,-0.326803,0.184629,0
2024-11-29 18:11:17.660,0.0215354,4.10578,11.2738,0.350092,-0.431869,0.197456,0
2024-11-29 18:11:17.662,0.0885344,4.06989,11.1876,0.321993,-0.49051,0.201732,0
2024-11-29 18:11:17.664,0.217747,4.02204,11.1254,0.289007,-0.550984,0.204787,0
2024-11-29 18:11:17.667,0.404686,3.96461,11.068,0.251135,-0.618177,0.203565,0
2024-11-29 18:11:17.669,0.584148,3.90239,11.0297,0.251135,-0.618177,0.203565,0
2024-11-29 18:11:17.670,0.773181,3.85454,11.0225,0.20471,-0.68476,0.198067,0
2024-11-29 18:11:17.674,0.967299,3.80668,11.0273,0.160118,-0.748899,0.190737,0
2024-11-29 18:11:17.675,1.15872,3.76122,11.068,0.108196,-0.813649,0.181574,0
2024-11-29 18:11:17.678,1.35972,3.71575,11.1589,0.0568851,-0.871068,0.168747,0
2024-11-29 18:11:17.680,1.57059,3.67986,11.2738,0.00557398,-0.925434,0.151032,0
2024-11-29 18:11:17.683,1.76441,3.65354,11.403,-0.046348,-0.970636,0.13515,0
2024-11-29 18:11:17.684,1.94865,3.61735,11.578,-0.0952158,-1.00607,0.113159,0
2024-11-29 18:11:17.688,2.12363,3.58385,11.7479,-0.194173,-1.05066,0.0673459,0
2024-11-29 18:11:17.690,2.27438,3.52882,11.8771,-0.236322,-1.05615,0.0423012,0
2024-11-29 18:11:17.693,2.41555,3.47139,11.9991,-0.236322,-1.05615,0.0423012,0
2024-11-29 18:11:17.694,2.54985,3.3996,12.131,-0.276027,-1.0531,0.0154239,0
2024-11-29 18:11:17.696,2.68864,3.30868,12.2674,-0.316343,-1.04149,-0.0138968,0
2024-11-29 18:11:17.701,2.98295,3.12921,12.5833,-0.384147,-0.992627,-0.0817008,0
2024-11-29 18:11:17.702,2.98295,3.12921,12.5833,-0.407359,-0.954754,-0.118352,0
2024-11-29 18:11:17.703,3.1005,3.0332,12.7678,-0.407359,-0.954754,-0.118352,0
2024-11-29 18:11:17.707,3.17707,2.90638,12.9401,-0.425684,-0.910773,-0.156835,0
2024-11-29 18:11:17.708,3.23928,2.76999,13.098,-0.440345,-0.851521,-0.195318,0
2024-11-29 18:11:17.711,3.29193,2.65035,13.2323,-0.445231,-0.784939,-0.233191,0
2024-11-29 18:11:17.713,3.3326,2.51845,13.3256,-0.442788,-0.70675,-0.272896,0
2024-11-29 18:11:17.715,3.34935,2.36291,13.3783,-0.436679,-0.618177,-0.313212,0
2024-11-29 18:11:17.718,3.28953,2.22174,13.4094,-0.421408,-0.521664,-0.351084,0
2024-11-29 18:11:17.720,3.19861,2.09252,13.407,-0.401861,-0.413544,-0.386514,1
2024-11-29 18:11:17.723,3.08584,1.94626,13.3472,-0.380481,-0.296872,-0.42011,0
2024-11-29 18:11:17.726,2.91835,1.80509,13.2706,-0.349328,-0.175924,-0.451263,0
2024-11-29 18:11:17.728,2.71496,1.67109,13.1746,-0.318786,-0.0494786,-0.478141,0
2024-11-29 18:11:17.730,2.4993,1.55862,13.0597,-0.285189,0.0794101,-0.49891,0
2024-11-29 18:11:17.732,2.25045,1.48445,12.9329,-0.243652,0.210131,-0.515402,0
2024-11-29 18:11:17.734,1.98485,1.42223,12.763,-0.201503,0.339631,-0.523343,0
2024-11-29 18:11:17.737,1.72373,1.35494,12.5713,-0.11232,0.5913,-0.522122,0
2024-11-29 18:11:17.740,1.44616,1.30469,12.3631,-0.11232,0.5913,-0.522122,0
2024-11-29 18:11:17.741,1.15872,1.26879,12.131,-0.0652843,0.707972,-0.51357,0
2024-11-29 18:11:17.744,0.885943,1.2329,11.8627,-0.0188599,0.819757,-0.49891,0
2024-11-29 18:11:17.746,0.639183,1.19462,11.5684,0.0263428,0.919325,-0.475697,0
2024-11-29 18:11:17.748,0.409472,1.17308,11.2642,0.0709346,1.01095,-0.450653,0
2024-11-29 18:11:17.751,0.179462,1.16112,10.9699,0.112472,1.09097,-0.421332,0
2024-11-29 18:11:17.753,-0.0167498,1.1659,10.6633,0.152177,1.15633,-0.39079,0
2024-11-29 18:11:17.756,-0.18664,1.18026,10.3567,0.185163,1.2107,-0.355971,0
2024-11-29 18:11:17.758,-0.364008,1.19222,10.0768,0.217538,1.24979,-0.318099,0
2024-11-29 18:11:17.761,-0.533899,1.22094,9.81805,0.268849,1.27972,-0.240521,0
2024-11-29 18:11:17.763,-0.684646,1.25444,9.57877,0.268849,1.27972,-0.240521,0
2024-11-29 18:11:17.765,-0.825823,1.31186,9.32513,0.289618,1.27423,-0.200205,0
2024-11-29 18:11:17.767,-0.940978,1.38604,9.07598,0.304889,1.24918,-0.156835,0
2024-11-29 18:11:17.769,-1.01037,1.44377,8.87259,0.314052,1.21253,-0.112854,0
2024-11-29 18:11:17.772,-1.04387,1.50598,8.70748,0.321382,1.15694,-0.0719273,0
2024-11-29 18:11:17.775,-1.04865,1.57777,8.55643,0.323825,1.08486,-0.0334439,0
2024-11-29 18:11:17.776,-1.02473,1.64716,8.44876,0.321382,1.00301,0.00626118,0
2024-11-29 18:11:17.780,-0.981655,1.71894,8.37458,0.317717,0.906497,0.0416903,0
2024-11-29 18:11:17.781,-0.924228,1.79312,8.31476,0.311608,0.799599,0.0740652,0
2024-11-29 18:11:17.783,-0.852443,1.87448,8.28365,0.302446,0.687203,0.103386,0
2024-11-29 18:11:17.787,-0.751645,1.95105,8.27169,0.291451,0.568699,0.131485,0
2024-11-29 18:11:17.790,-0.464507,2.06381,8.29801,0.270071,0.330468,0.169357,0
2024-11-29 18:11:17.791,-0.464507,2.06381,8.29801,0.270071,0.330468,0.169357,0
2024-11-29 18:11:17.794,-0.287438,2.10688,8.34108,0.260297,0.21624,0.183407,0
2024-11-29 18:11:17.796,-0.100499,2.15234,8.41047,0.252356,0.109342,0.19318,0
2024-11-29 18:11:17.798,0.112463,2.18345,8.49183,0.242583,0.00488678,0.197456,0
2024-11-29 18:11:17.801,0.332901,2.19541,8.59951,0.24075,-0.0867403,0.198067,0
2024-11-29 18:11:17.803,0.569791,2.18824,8.72423,0.235253,-0.248615,0.187683,0
2024-11-29 18:11:17.806,0.813859,2.17149,8.84866,0.240139,-0.313365,0.174855,0
2024-11-29 18:11:17.808,1.05344,2.15952,8.97548,0.246859,-0.370173,0.161416,0
2024-11-29 18:11:17.810,1.27837,2.13081,9.09273,0.246859,-0.370173,0.161416,0
2024-11-29 18:11:17.813,1.47727,2.07099,9.20758,0.263352,-0.449584,0.124766,0
2024-11-29 18:11:17.815,1.66152,2.01835,9.28445,0.277401,-0.477072,0.100943,0
2024-11-29 18:11:17.817,1.81705,1.95823,9.3347,0.277401,-0.477072,0.100943,0
2024-11-29 18:11:17.820,1.9343,1.89841,9.37299,0.292061,-0.491121,0.0783412,0
2024-11-29 18:11:17.821,2.0327,1.85294,9.36581,0.3055,-0.495397,0.055129,0
2024-11-29 18:11:17.824,2.10688,1.81226,9.31556,0.32016,-0.492343,0.0294734,0
2024-11-29 18:11:17.829,2.16192,1.73809,9.18605,0.333599,-0.480737,0.00565034,0
2024-11-29 18:11:17.833,2.17149,1.6998,9.02573,0.361087,-0.417209,-0.0621537,0
2024-11-29 18:11:17.834,2.18106,1.71416,9.02573,0.368417,-0.389721,-0.0835334,0
2024-11-29 18:11:17.835,2.12363,1.6998,8.92762,0.368417,-0.389721,-0.0835334,0
2024-11-29 18:11:17.838,2.05424,1.71416,8.81755,0.370861,-0.361011,-0.104302,0
2024-11-29 18:11:17.839,2.05424,1.71416,8.81755,0.370861,-0.361011,-0.104302,0
2024-11-29 18:11:17.840,1.98006,1.72852,8.7027,0.367806,-0.328636,-0.11713,0
2024-11-29 18:11:17.842,1.89841,1.75005,8.58276,0.365974,-0.296261,-0.13179,0
2024-11-29 18:11:17.846,1.79312,1.79312,8.45115,0.361087,-0.263275,-0.142175,0
2024-11-29 18:11:17.848,1.6663,1.82423,8.31954,0.336653,-0.196693,-0.157446,0
2024-11-29 18:11:17.849,1.54427,1.84816,8.18076,0.336653,-0.196693,-0.157446,0
2024-11-29 18:11:17.852,1.44138,1.89123,8.03689,0.324436,-0.164318,-0.1605,0
2024-11-29 18:11:17.854,1.34536,1.9343,7.91247,0.303667,-0.133165,-0.163554,0
2024-11-29 18:11:17.856,1.24247,1.97767,7.8,0.282899,-0.102011,-0.165387,0
2024-11-29 18:11:17.860,1.13958,2.03988,7.68515,0.259076,-0.07208,-0.166609,0
2024-11-29 18:11:17.862,1.05344,2.09252,7.58465,0.203488,-0.0116061,-0.165998,0
2024-11-29 18:11:17.864,0.99362,2.11884,7.49342,0.203488,-0.0116061,-0.165998,0
2024-11-29 18:11:17.866,0.938585,2.14995,7.40489,0.173557,0.015882,-0.164165,0
2024-11-29 18:11:17.869,0.878764,2.18584,7.34746,0.143625,0.0421485,-0.165387,0
2024-11-29 18:11:17.871,0.828216,2.21216,7.31396,0.111861,0.0702474,-0.164165,0
2024-11-29 18:11:17.873,0.785145,2.22652,7.29003,0.0782648,0.0946813,-0.163554,0
2024-11-29 18:11:17.876,0.756431,2.2337,7.27807,0.0489441,0.116672,-0.161722,0
2024-11-29 18:11:17.878,0.756431,2.24806,7.29721,0.0177909,0.137441,-0.162944,0
2024-11-29 18:11:17.881,0.756431,2.26481,7.32593,-0.0139731,0.155766,-0.165387,0
2024-11-29 18:11:17.882,0.74686,2.27916,7.34507,-0.0390179,0.173481,-0.165387,0
2024-11-29 18:11:17.885,0.708575,2.29352,7.369,-0.0652843,0.19486,-0.168441,0
2024-11-29 18:11:17.888,0.665504,2.30309,7.39771,-0.0878856,0.219294,-0.170274,0
2024-11-29 18:11:17.890,0.65354,2.31266,7.4336,-0.106822,0.243728,-0.171495,0
2024-11-29 18:11:17.893,0.641576,2.30548,7.47667,-0.139808,0.289542,-0.171495,0
2024-11-29 18:11:17.895,0.610469,2.29352,7.51974,-0.139808,0.289542,-0.171495,0
2024-11-29 18:11:17.896,0.579362,2.27677,7.56282,-0.149581,0.310921,-0.169052,0
2024-11-29 18:11:17.899,0.553041,2.25045,7.60379,-0.161187,0.328025,-0.165998,0
2024-11-29 18:11:17.901,0.514756,2.22174,7.64926,-0.168517,0.342685,-0.161111,0
2024-11-29 18:11:17.905,0.483649,2.20259,7.69472,-0.17768,0.354902,-0.156835,0
2024-11-29 18:11:17.906,0.462114,2.17627,7.73779,-0.183178,0.362232,-0.150116,0
2024-11-29 18:11:17.908,0.438186,2.1667,7.78565,-0.187454,0.36773,-0.143396,0
2024-11-29 18:11:17.911,0.419043,2.17866,7.84307,-0.186843,0.370173,-0.137288,0
2024-11-29 18:11:17.914,0.383151,2.17866,7.91486,-0.178902,0.375671,-0.115908,0
2024-11-29 18:11:17.916,0.352044,2.17866,7.97947,-0.178902,0.375671,-0.115908,0
2024-11-29 18:11:17.919,0.332901,2.20499,8.04407,-0.172793,0.377504,-0.104913,0
2024-11-29 18:11:17.921,0.316152,2.23609,8.10868,-0.162409,0.379947,-0.0920852,0
2024-11-29 18:11:17.923,0.287438,2.26241,8.17119,-0.149581,0.379336,-0.0786466,0
2024-11-29 18:11:17.925,0.253639,2.27438,8.23101,-0.134921,0.376893,-0.0639862,0
2024-11-29 18:11:17.928,0.251246,2.28873,8.28605,-0.0988809,0.372006,-0.0358873,0
2024-11-29 18:11:17.929,0.253639,2.31506,8.33151,-0.0988809,0.372006,-0.0358873,0
2024-11-29 18:11:17.933,0.246461,2.32463,8.35065,-0.0579541,0.359178,-0.00717746,0
2024-11-29 18:11:17.935,0.265603,2.32941,8.37458,-0.0335202,0.350015,0.00748288,0
2024-11-29 18:11:17.938,0.292223,2.34616,8.39612,-0.00908635,0.339631,0.0215324,0
2024-11-29 18:11:17.940,0.318545,2.3677,8.39133,0.0153475,0.329247,0.0337493,0
2024-11-29 18:11:17.941,0.34008,2.38923,8.38654,0.0153475,0.329247,0.0337493,0
2024-11-29 18:11:17.945,0.349651,2.39641,8.36979,0.0636045,0.307867,0.0545181,0
2024-11-29 18:11:17.947,0.385544,2.41077,8.3363,0.0892601,0.297483,0.0655134,0
2024-11-29 18:11:17.948,0.409472,2.43709,8.27887,0.0892601,0.297483,0.0655134,0
2024-11-29 18:11:17.951,0.426222,2.47298,8.20948,0.113694,0.288931,0.0734544,0
2024-11-29 18:11:17.954,0.457328,2.51605,8.14008,0.134463,0.279157,0.0801737,0
2024-11-29 18:11:17.955,0.498006,2.55224,8.06561,0.15401,0.269994,0.0875039,0
2024-11-29 18:11:17.958,0.550648,2.58814,7.98186,0.172335,0.260221,0.0923906,0
2024-11-29 18:11:17.960,0.593719,2.62164,7.89332,0.189439,0.251058,0.0960557,0
2024-11-29 18:11:17.962,0.627219,2.65992,7.80718,0.202267,0.239452,0.0954449,0
2024-11-29 18:11:17.965,0.675075,2.69821,7.72104,0.21204,0.224792,0.0960557,0
2024-11-29 18:11:17.967,0.71336,2.73649,7.61097,0.218149,0.210131,0.0972774,0
2024-11-29 18:11:17.970,0.725324,2.76521,7.51017,0.225479,0.199136,0.0942232,0
2024-11-29 18:11:17.972,0.739681,2.78435,7.45035,0.227922,0.186919,0.0899473,0
2024-11-29 18:11:17.975,0.754038,2.82263,7.37139,0.225479,0.172259,0.086893,0
2024-11-29 18:11:17.977,0.766002,2.87049,7.29003,0.221814,0.15882,0.0832279,0
2024-11-29 18:11:17.979,0.787538,2.91835,7.23978,0.214484,0.143549,0.0783412,0
2024-11-29 18:11:17.981,0.780359,2.95902,7.18714,0.208375,0.131943,0.0740652,0
2024-11-29 18:11:17.985,0.766002,2.9997,7.12971,0.198602,0.119115,0.0691785,0
2024-11-29 18:11:17.987,0.756431,3.03559,7.07229,0.188217,0.105066,0.0624591,0
2024-11-29 18:11:17.989,0.756431,3.06909,7.00977,0.173557,0.0916271,0.055129,0
2024-11-29 18:11:17.991,0.775574,3.1005,6.95474,0.155842,0.0763559,0.050853,0
2024-11-29 18:11:17.993,0.789931,3.12921,6.92124,0.138739,0.0623064,0.0441337,0
2024-11-29 18:11:17.995,0.797109,3.16032,6.89731,0.121024,0.0488678,0.0337493,0
2024-11-29 18:11:17.999,0.80668,3.18664,6.88056,0.0972011,0.0348183,0.0264191,0
2024-11-29 18:11:18.000,0.82343,3.19621,6.87578,0.0752106,0.0219905,0.0184781,0
2024-11-29 18:11:18.003,0.84018,3.19861,6.88774,0.0526092,0.00977356,0.0105371,0
2024-11-29 18:11:18.006,0.845265,3.20818,6.91406,0.00251974,-0.0116061,-0.0102317,0
2024-11-29 18:11:18.008,0.842872,3.21296,6.93799,0.00251974,-0.0116061,-0.0102317,0
2024-11-29 18:11:18.010,0.842872,3.22253,6.97149,-0.0219141,-0.0195471,-0.0187836,0
2024-11-29 18:11:18.013,0.857229,3.22732,7.01486,-0.0475697,-0.0250447,-0.0267246,0
2024-11-29 18:11:18.015,0.871586,3.21057,7.05314,-0.0713928,-0.0274881,-0.0364981,0
2024-11-29 18:11:18.017,0.864407,3.20339,7.11057,-0.0952158,-0.0335966,-0.0456608,0
2024-11-29 18:11:18.020,0.864407,3.21296,7.19432,-0.119039,-0.0348183,-0.052991,0
2024-11-29 18:11:18.022,0.873978,3.21296,7.28525,-0.163631,-0.0384834,-0.0658188,0
2024-11-29 18:11:18.025,0.88355,3.21057,7.37139,-0.163631,-0.0384834,-0.0658188,0
2024-11-29 18:11:18.026,0.9003,3.21057,7.46232,-0.183789,-0.0348183,-0.0713164,0
2024-11-29 18:11:18.028,0.897907,3.19621,7.57239,-0.204557,-0.0311532,-0.0762032,0
2024-11-29 18:11:18.032,0.88355,3.201,7.68754,-0.22105,-0.0256556,-0.0804791,0
2024-11-29 18:11:18.034,0.88355,3.22253,7.80479,-0.251593,-0.00183254,-0.0847551,0
2024-11-29 18:11:18.036,0.862014,3.22971,7.934,-0.251593,-0.00183254,-0.0847551,0
2024-11-29 18:11:18.039,0.842872,3.23211,8.03929,-0.259534,0.0134386,-0.0878093,0
2024-11-29 18:11:18.041,0.825823,3.23211,8.14008,-0.268086,0.0299315,-0.089031,0
2024-11-29 18:11:18.044,0.799502,3.24168,8.25255,-0.274805,0.0482569,-0.0884201,0
2024-11-29 18:11:18.046,0.794716,3.25364,8.36501,-0.282746,0.0873512,-0.0865876,0
2024-11-29 18:11:18.048,0.785145,3.268,8.48704,-0.281524,0.105677,-0.0859767,0
2024-11-29 18:11:18.051,0.766002,3.27996,8.6019,-0.281524,0.105677,-0.0859767,0
2024-11-29 18:11:18.052,0.74686,3.28714,8.69522,-0.277859,0.125224,-0.0829225,0
2024-11-29 18:11:18.055,0.722932,3.29671,8.7697,-0.269918,0.16554,-0.0762032,0
2024-11-29 18:11:18.058,0.706182,3.31585,8.84626,-0.269918,0.16554,-0.0762032,0
2024-11-29 18:11:18.060,0.696611,3.34218,8.92284,-0.263199,0.18753,-0.0725381,0
2024-11-29 18:11:18.061,0.660718,3.37567,9.01137,-0.250371,0.209521,-0.0713164,0
2024-11-29 18:11:18.064,0.629611,3.41875,9.09273,-0.239376,0.2309,-0.0670405,0
2024-11-29 18:11:18.066,0.608076,3.45703,9.15494,-0.225937,0.250447,-0.0652079,0
2024-11-29 18:11:18.068,0.581755,3.48096,9.2004,-0.225937,0.250447,-0.0652079,0
2024-11-29 18:11:18.071,0.572184,3.51446,9.2363,-0.195395,0.292596,-0.0572669,0
2024-11-29 18:11:18.073,0.574577,3.55514,9.25544,-0.178291,0.313365,-0.0536018,0
2024-11-29 18:11:18.079,0.531506,3.61256,9.23151,-0.127591,0.366508,-0.0419957,0
2024-11-29 18:11:18.080,0.507577,3.65593,9.22194,-0.127591,0.366508,-0.0419957,0
2024-11-29 18:11:18.081,0.507577,3.65593,9.22194,-0.127591,0.366508,-0.0419957,0
