timestamp,accel_x,accel_y,accel_z,gyro_x,gyro_y,gyro_z,step_timestamp
2024-11-29 18:18:56.588,0.421436,2.52832,9.61227,-0.00786466,-0.0219905,-0.0261137,0
2024-11-29 18:18:56.588,0.421436,2.52832,9.61227,-0.00786466,-0.0219905,-0.0261137,0
2024-11-29 18:18:56.588,0.421436,2.52832,9.61227,-0.00786466,-0.0219905,-0.0261137,0
2024-11-29 18:18:56.588,0.421436,2.52832,9.61227,-0.00786466,-0.0219905,-0.0261137,0
2024-11-29 18:18:56.588,0.421436,2.52832,9.61227,-0.00786466,-0.0219905,-0.0261137,0
2024-11-29 18:18:56.588,0.421436,2.52832,9.61227,-0.00786466,-0.0219905,-0.0261137,0
2024-11-29 18:18:56.588,0.421436,2.52832,9.61227,-0.00786466,-0.0219905,-0.0261137,0
2024-11-29 18:18:56.588,0.421436,2.52832,9.61227,-0.00786466,-0.0219905,-0.0261137,0
2024-11-29 18:18:56.589,0.397508,2.52832,9.60509,-0.00786466,-0.0219905,-0.0261137,0
2024-11-29 18:18:56.589,0.397508,2.52832,9.60509,-0.00786466,-0.0219905,-0.0261137,0
2024-11-29 18:18:56.589,0.397508,2.52832,9.60509,-0.00786466,-0.0219905,-0.0261137,0
2024-11-29 18:18:56.590,0.397508,2.52832,9.60509,-0.00786466,-0.0213797,-0.024892,0
2024-11-29 18:18:56.590,0.397508,2.52832,9.60509,-0.00786466,-0.0213797,-0.024892,0
2024-11-29 18:18:56.591,0.390329,2.51605,9.59791,-0.00786466,-0.0213797,-0.024892,0
2024-11-29 18:18:56.591,0.390329,2.51605,9.59791,-0.00786466,-0.0213797,-0.024892,0
2024-11-29 18:18:56.591,0.390329,2.51605,9.59791,-0.00786466,-0.0213797,-0.024892,0
2024-11-29 18:18:56.591,0.390329,2.51605,9.59791,-0.00786466,-0.0213797,-0.024892,0
2024-11-29 18:18:56.591,0.390329,2.51605,9.59791,-0.00786466,-0.0213797,-0.024892,0
2024-11-29 18:18:56.592,0.390329,2.51605,9.59791,-0.00786466,-0.0213797,-0.024892,0
2024-11-29 18:18:56.592,0.390329,2.51605,9.59791,-0.00786466,-0.0213797,-0.024892,0
2024-11-29 18:18:56.592,0.390329,2.51605,9.59791,-0.00786466,-0.0213797,-0.024892,0
2024-11-29 18:18:56.594,0.378365,2.51127,9.58834,-0.00603212,-0.0232122,-0.0242812,0
2024-11-29 18:18:56.594,0.378365,2.51127,9.58834,-0.00603212,-0.0232122,-0.0242812,0
2024-11-29 18:18:56.595,0.378365,2.51127,9.58834,-0.00542127,-0.0250447,-0.0224486,0
2024-11-29 18:18:56.596,0.347258,2.51127,9.57398,-0.00542127,-0.0250447,-0.0224486,0
2024-11-29 18:18:56.596,0.347258,2.51127,9.57398,-0.00542127,-0.0250447,-0.0224486,0
2024-11-29 18:18:56.597,0.347258,2.51127,9.57398,-0.00542127,-0.0250447,-0.0224486,0
2024-11-29 18:18:56.597,0.347258,2.51127,9.57398,-0.00542127,-0.0250447,-0.0224486,0
2024-11-29 18:18:56.597,0.347258,2.51127,9.57398,-0.00542127,-0.0250447,-0.0224486,0
2024-11-29 18:18:56.598,0.325723,2.5017,9.55723,-0.00542127,-0.0250447,-0.0224486,0
2024-11-29 18:18:56.598,0.325723,2.5017,9.55723,-0.00542127,-0.0250447,-0.0224486,0
2024-11-29 18:18:56.599,0.325723,2.5017,9.55723,-0.00542127,-0.0250447,-0.0224486,0
2024-11-29 18:18:56.601,0.325723,2.5017,9.55723,-0.00786466,-0.0256556,-0.0187836,0
2024-11-29 18:18:56.601,0.320937,2.50409,9.5333,-0.00786466,-0.0256556,-0.0187836,0
2024-11-29 18:18:56.602,0.320937,2.50409,9.5333,-0.00603212,-0.0256556,-0.0181727,0
2024-11-29 18:18:56.602,0.320937,2.50409,9.5333,-0.00603212,-0.0256556,-0.0181727,0
2024-11-29 18:18:56.603,0.313759,2.49691,9.50459,-0.00603212,-0.0256556,-0.0181727,0
2024-11-29 18:18:56.603,0.313759,2.49691,9.50459,-0.00603212,-0.0256556,-0.0181727,0
2024-11-29 18:18:56.603,0.313759,2.49691,9.50459,-0.00603212,-0.0256556,-0.0181727,0
2024-11-29 18:18:56.604,0.313759,2.49691,9.50459,-0.00786466,-0.0244339,-0.0151185,0
2024-11-29 18:18:56.604,0.313759,2.49691,9.50459,-0.00786466,-0.0244339,-0.0151185,0
2024-11-29 18:18:56.604,0.313759,2.49691,9.50459,-0.00786466,-0.0244339,-0.0151185,0
2024-11-29 18:18:56.604,0.313759,2.49691,9.50459,-0.00786466,-0.0244339,-0.0151185,0
2024-11-29 18:18:56.606,0.313759,2.47298,9.49023,-0.00786466,-0.0244339,-0.0151185,0
2024-11-29 18:18:56.606,0.313759,2.47298,9.49023,-0.00786466,-0.0244339,-0.0151185,0
2024-11-29 18:18:56.606,0.313759,2.47298,9.49023,-0.00786466,-0.0244339,-0.0151185,0
2024-11-29 18:18:56.607,0.313759,2.47298,9.49023,-0.0096972,-0.0250447,-0.0132859,0
2024-11-29 18:18:56.607,0.313759,2.47298,9.49023,-0.0096972,-0.0250447,-0.0132859,0
2024-11-29 18:18:56.607,0.313759,2.47298,9.49023,-0.0096972,-0.0250447,-0.0132859,0
2024-11-29 18:18:56.608,0.320937,2.46102,9.48306,-0.0096972,-0.0250447,-0.0132859,0
2024-11-29 18:18:56.608,0.320937,2.46102,9.48306,-0.0096972,-0.0250447,-0.0132859,0
2024-11-29 18:18:56.609,0.320937,2.46102,9.48306,-0.0109189,-0.0250447,-0.0114534,0
2024-11-29 18:18:56.609,0.320937,2.46102,9.48306,-0.0109189,-0.0250447,-0.0114534,0
2024-11-29 18:18:56.610,0.328116,2.45145,9.47827,-0.0109189,-0.0250447,-0.0114534,0
2024-11-29 18:18:56.610,0.328116,2.45145,9.47827,-0.0109189,-0.0250447,-0.0114534,0
2024-11-29 18:18:56.610,0.328116,2.45145,9.47827,-0.0109189,-0.0250447,-0.0114534,0
2024-11-29 18:18:56.611,0.328116,2.45145,9.47827,-0.0121406,-0.023823,-0.00839915,0
2024-11-29 18:18:56.611,0.328116,2.45145,9.47827,-0.0121406,-0.023823,-0.00839915,0
2024-11-29 18:18:56.611,0.328116,2.45145,9.47827,-0.0121406,-0.023823,-0.00839915,0
2024-11-29 18:18:56.611,0.328116,2.45145,9.47827,-0.0121406,-0.023823,-0.00839915,0
2024-11-29 18:18:56.611,0.328116,2.45145,9.47827,-0.0121406,-0.023823,-0.00839915,0
2024-11-29 18:18:56.613,0.344866,2.44666,9.47109,-0.0121406,-0.023823,-0.00839915,0
2024-11-29 18:18:56.613,0.344866,2.44666,9.47109,-0.0121406,-0.023823,-0.00839915,0
2024-11-29 18:18:56.614,0.344866,2.44666,9.47109,-0.0121406,-0.0244339,-0.00534491,0
2024-11-29 18:18:56.614,0.344866,2.44666,9.47109,-0.0121406,-0.0244339,-0.00534491,0
2024-11-29 18:18:56.615,0.361615,2.44666,9.45673,-0.0139731,-0.0244339,-0.00534491,0
2024-11-29 18:18:56.615,0.361615,2.44666,9.45673,-0.0139731,-0.0244339,-0.00534491,0
2024-11-29 18:18:56.615,0.361615,2.44666,9.45673,-0.0139731,-0.0244339,-0.00534491,0
2024-11-29 18:18:56.615,0.361615,2.44666,9.45673,-0.0139731,-0.0244339,-0.00534491,0
2024-11-29 18:18:56.615,0.361615,2.44666,9.45673,-0.0139731,-0.0244339,-0.00534491,0
2024-11-29 18:18:56.616,0.361615,2.44666,9.45673,-0.014584,-0.023823,-0.00351237,0
2024-11-29 18:18:56.616,0.361615,2.44666,9.45673,-0.014584,-0.023823,-0.00351237,0
2024-11-29 18:18:56.617,0.368794,2.44427,9.44238,-0.014584,-0.023823,-0.00351237,0
2024-11-29 18:18:56.617,0.368794,2.44427,9.44238,-0.014584,-0.023823,-0.00351237,0
2024-11-29 18:18:56.617,0.368794,2.44427,9.44238,-0.014584,-0.023823,-0.00351237,0
2024-11-29 18:18:56.618,0.368794,2.44427,9.44238,-0.0188599,-0.0244339,-0.00167983,0
2024-11-29 18:18:56.618,0.368794,2.44427,9.44238,-0.0188599,-0.0244339,-0.00167983,0
2024-11-29 18:18:56.618,0.368794,2.44427,9.44238,-0.0188599,-0.0244339,-0.00167983,0
2024-11-29 18:18:56.620,0.380758,2.42991,9.42802,-0.0188599,-0.0244339,-0.00167983,0
2024-11-29 18:18:56.620,0.380758,2.42991,9.42802,-0.0188599,-0.0244339,-0.00167983,0
2024-11-29 18:18:56.620,0.380758,2.42991,9.42802,-0.0188599,-0.0244339,-0.00167983,0
2024-11-29 18:18:56.621,0.380758,2.42991,9.42802,-0.0231358,-0.0256556,-0.000458135,0
2024-11-29 18:18:56.621,0.380758,2.42991,9.42802,-0.0231358,-0.0256556,-0.000458135,0
2024-11-29 18:18:56.621,0.380758,2.42991,9.42802,-0.0231358,-0.0256556,-0.000458135,0
2024-11-29 18:18:56.621,0.380758,2.42991,9.42802,-0.0231358,-0.0256556,-0.000458135,0
2024-11-29 18:18:56.623,0.390329,2.41555,9.43281,-0.0249684,-0.0262664,0.0025961,0
2024-11-29 18:18:56.623,0.390329,2.41555,9.43281,-0.0249684,-0.0262664,0.0025961,0
2024-11-29 18:18:56.623,0.390329,2.41555,9.43281,-0.0249684,-0.0262664,0.0025961,0
2024-11-29 18:18:56.623,0.390329,2.41555,9.43281,-0.0249684,-0.0262664,0.0025961,0
2024-11-29 18:18:56.624,0.402293,2.41555,9.45434,-0.0249684,-0.0262664,0.0025961,0
2024-11-29 18:18:56.624,0.402293,2.41555,9.45434,-0.0249684,-0.0262664,0.0025961,0
2024-11-29 18:18:56.624,0.402293,2.41555,9.45434,-0.0249684,-0.0262664,0.0025961,0
2024-11-29 18:18:56.624,0.402293,2.41555,9.45434,-0.0249684,-0.0262664,0.0025961,0
2024-11-29 18:18:56.625,0.402293,2.41555,9.45434,-0.0249684,-0.0262664,0.0025961,0
2024-11-29 18:18:56.625,0.402293,2.41555,9.45434,-0.0249684,-0.0262664,0.0025961,0
2024-11-29 18:18:56.625,0.402293,2.41555,9.45434,-0.0249684,-0.0262664,0.0025961,0
2024-11-29 18:18:56.627,0.419043,2.40838,9.45913,-0.0286335,-0.0293207,0.0025961,0
2024-11-29 18:18:56.627,0.419043,2.40838,9.45913,-0.0286335,-0.0293207,0.0025961,0
2024-11-29 18:18:56.627,0.419043,2.40838,9.45913,-0.0286335,-0.0293207,0.0025961,0
2024-11-29 18:18:56.627,0.419043,2.40838,9.45913,-0.0286335,-0.0293207,0.0025961,0
2024-11-29 18:18:56.628,0.419043,2.40838,9.45913,-0.0316877,-0.0329858,0.00320695,0
2024-11-29 18:18:56.628,0.419043,2.40838,9.45913,-0.0316877,-0.0329858,0.00320695,0
2024-11-29 18:18:56.628,0.419043,2.40838,9.45913,-0.0316877,-0.0329858,0.00320695,0
2024-11-29 18:18:56.629,0.4334,2.41077,9.44956,-0.0316877,-0.0329858,0.00320695,0
2024-11-29 18:18:56.629,0.4334,2.41077,9.44956,-0.0316877,-0.0329858,0.00320695,0
2024-11-29 18:18:56.629,0.4334,2.41077,9.44956,-0.0316877,-0.0329858,0.00320695,0
2024-11-29 18:18:56.629,0.4334,2.41077,9.44956,-0.0316877,-0.0329858,0.00320695,0
2024-11-29 18:18:56.630,0.4334,2.41077,9.44956,-0.0341311,-0.0342074,0.00626118,0
2024-11-29 18:18:56.630,0.4334,2.41077,9.44956,-0.0341311,-0.0342074,0.00626118,0
2024-11-29 18:18:56.630,0.4334,2.41077,9.44956,-0.0341311,-0.0342074,0.00626118,0
2024-11-29 18:18:56.630,0.4334,2.41077,9.44956,-0.0341311,-0.0342074,0.00626118,0
2024-11-29 18:18:56.630,0.4334,2.41077,9.44956,-0.0341311,-0.0342074,0.00626118,0
2024-11-29 18:18:56.631,0.457328,2.41555,9.46391,-0.0341311,-0.0342074,0.00626118,0
2024-11-29 18:18:56.631,0.457328,2.41555,9.46391,-0.0341311,-0.0342074,0.00626118,0
2024-11-29 18:18:56.631,0.457328,2.41555,9.46391,-0.0341311,-0.0342074,0.00626118,0
2024-11-29 18:18:56.632,0.457328,2.41555,9.46391,-0.0341311,-0.0342074,0.00626118,0
2024-11-29 18:18:56.632,0.457328,2.41555,9.46391,-0.0341311,-0.0342074,0.00626118,0
2024-11-29 18:18:56.632,0.457328,2.41555,9.46391,-0.0341311,-0.0342074,0.00626118,0
2024-11-29 18:18:56.634,0.481256,2.41555,9.48784,-0.0390179,-0.0354291,0.00626118,0
2024-11-29 18:18:56.634,0.481256,2.41555,9.48784,-0.0390179,-0.0354291,0.00626118,0
2024-11-29 18:18:56.634,0.481256,2.41555,9.48784,-0.0390179,-0.0354291,0.00626118,0
2024-11-29 18:18:56.634,0.481256,2.41555,9.48784,-0.0390179,-0.0354291,0.00626118,0
2024-11-29 18:18:56.635,0.481256,2.41555,9.48784,-0.0396287,-0.0390942,0.00687203,0
2024-11-29 18:18:56.635,0.481256,2.41555,9.48784,-0.0396287,-0.0390942,0.00687203,0
2024-11-29 18:18:56.635,0.481256,2.41555,9.48784,-0.0396287,-0.0390942,0.00687203,0
2024-11-29 18:18:56.635,0.481256,2.41555,9.48784,-0.0396287,-0.0390942,0.00687203,0
2024-11-29 18:18:56.635,0.481256,2.41555,9.48784,-0.0396287,-0.0390942,0.00687203,0
2024-11-29 18:18:56.636,0.495613,2.40838,9.49741,-0.0396287,-0.0390942,0.00687203,0
2024-11-29 18:18:56.636,0.495613,2.40838,9.49741,-0.0396287,-0.0390942,0.00687203,0
2024-11-29 18:18:56.637,0.495613,2.40838,9.49741,-0.0445155,-0.0433702,0.00626118,0
2024-11-29 18:18:56.637,0.495613,2.40838,9.49741,-0.0445155,-0.0433702,0.00626118,0
2024-11-29 18:18:56.637,0.495613,2.40838,9.49741,-0.0445155,-0.0433702,0.00626118,0
2024-11-29 18:18:56.637,0.495613,2.40838,9.49741,-0.0445155,-0.0433702,0.00626118,0
2024-11-29 18:18:56.638,0.52672,2.3988,9.52613,-0.0445155,-0.0433702,0.00626118,0
2024-11-29 18:18:56.638,0.52672,2.3988,9.52613,-0.0445155,-0.0433702,0.00626118,0
2024-11-29 18:18:56.638,0.52672,2.3988,9.52613,-0.0445155,-0.0433702,0.00626118,0
2024-11-29 18:18:56.638,0.52672,2.3988,9.52613,-0.0445155,-0.0433702,0.00626118,0
2024-11-29 18:18:56.639,0.52672,2.3988,9.52613,-0.0445155,-0.0433702,0.00626118,0
2024-11-29 18:18:56.639,0.52672,2.3988,9.52613,-0.0445155,-0.0433702,0.00626118,0
2024-11-29 18:18:56.639,0.52672,2.3988,9.52613,-0.0445155,-0.0433702,0.00626118,0
2024-11-29 18:18:56.639,0.52672,2.3988,9.52613,-0.0445155,-0.0433702,0.00626118,0
2024-11-29 18:18:56.639,0.52672,2.3988,9.52613,-0.0445155,-0.0433702,0.00626118,0
2024-11-29 18:18:56.639,0.52672,2.3988,9.52613,-0.0445155,-0.0433702,0.00626118,0
2024-11-29 18:18:56.641,0.565005,2.39163,9.55963,-0.0457372,-0.0470352,0.00748288,0
2024-11-29 18:18:56.641,0.565005,2.39163,9.55963,-0.0457372,-0.0470352,0.00748288,0
2024-11-29 18:18:56.641,0.565005,2.39163,9.55963,-0.0457372,-0.0470352,0.00748288,0
2024-11-29 18:18:56.642,0.565005,2.39163,9.55963,-0.0451263,-0.0476461,0.00687203,0
2024-11-29 18:18:56.642,0.565005,2.39163,9.55963,-0.0451263,-0.0476461,0.00687203,0
2024-11-29 18:18:56.642,0.565005,2.39163,9.55963,-0.0451263,-0.0476461,0.00687203,0
2024-11-29 18:18:56.642,0.565005,2.39163,9.55963,-0.0451263,-0.0476461,0.00687203,0
2024-11-29 18:18:56.643,0.584148,2.39402,9.58595,-0.0451263,-0.0476461,0.00687203,0
2024-11-29 18:18:56.643,0.584148,2.39402,9.58595,-0.0451263,-0.0476461,0.00687203,0
2024-11-29 18:18:56.644,0.584148,2.39402,9.58595,-0.0475697,-0.0500895,0.00748288,0
2024-11-29 18:18:56.644,0.584148,2.39402,9.58595,-0.0475697,-0.0500895,0.00748288,0
2024-11-29 18:18:56.647,0.610469,2.39402,9.61227,-0.0475697,-0.0507003,0.00626118,0
2024-11-29 18:18:56.649,0.651147,2.4012,9.6362,-0.0475697,-0.0507003,0.00626118,0
2024-11-29 18:18:56.650,0.665504,2.42273,9.66012,-0.0487914,-0.051922,0.00503949,0
2024-11-29 18:18:56.653,0.691825,2.41795,9.68645,-0.0469589,-0.0507003,0.00626118,0
2024-11-29 18:18:56.657,0.761217,2.44188,9.70319,-0.0457372,-0.0452027,0.0025961,0
2024-11-29 18:18:56.658,0.761217,2.44188,9.70319,-0.0457372,-0.0452027,0.0025961,0
2024-11-29 18:18:56.661,0.789931,2.44666,9.70319,-0.0445155,-0.0384834,0.00198525,0
2024-11-29 18:18:56.662,0.799502,2.46102,9.68166,-0.0420721,-0.0335966,-0.00290152,0
2024-11-29 18:18:56.665,0.809073,2.48255,9.67209,-0.0396287,-0.0293207,-0.00351237,0
2024-11-29 18:18:56.668,0.816252,2.49212,9.6697,-0.0402396,-0.0244339,-0.00656661,0
2024-11-29 18:18:56.670,0.809073,2.52084,9.65055,-0.038407,-0.0195471,-0.0077883,0
2024-11-29 18:18:56.672,0.80668,2.53789,9.61227,-0.0353528,-0.0122169,-0.00717746,0
2024-11-29 18:18:56.674,0.811466,2.57139,9.5692,-0.0390179,-0.00733017,-0.0102317,0
2024-11-29 18:18:56.677,0.80668,2.60967,9.51895,-0.0390179,-0.000610847,-0.0114534,0
2024-11-29 18:18:56.681,0.833001,2.60728,9.41606,-0.0451263,0.00733017,-0.0175619,0
2024-11-29 18:18:56.682,0.833001,2.60728,9.41606,-0.0451263,0.00733017,-0.0175619,0
2024-11-29 18:18:56.684,0.847657,2.62164,9.37059,-0.0518457,0.0103844,-0.024892,0
2024-11-29 18:18:56.686,0.857229,2.64796,9.30838,-0.0518457,0.0103844,-0.024892,0
2024-11-29 18:18:56.691,0.895514,2.67189,9.19801,-0.0683385,0.0134386,-0.032833,0
2024-11-29 18:18:56.691,0.895514,2.67189,9.19801,-0.0683385,0.0134386,-0.032833,0
2024-11-29 18:18:56.693,0.914656,2.69581,9.16212,-0.0799446,0.0116061,-0.0389415,0
2024-11-29 18:18:56.696,0.931406,2.71735,9.13101,-0.086664,0.0122169,-0.0432174,0
2024-11-29 18:18:56.698,0.945763,2.74128,9.1023,-0.0952158,0.0134386,-0.0481042,0
2024-11-29 18:18:56.701,0.94337,2.78913,9.08555,-0.107433,0.0146603,-0.0536018,0
2024-11-29 18:18:56.703,0.962513,2.80828,9.07119,-0.115985,0.0128278,-0.0615429,0
2024-11-29 18:18:56.704,0.972084,2.82981,9.07598,-0.125147,0.015882,-0.0664296,0
2024-11-29 18:18:56.707,0.96012,2.85853,9.07837,-0.136753,0.020158,-0.0719273,0
2024-11-29 18:18:56.709,0.96012,2.88006,9.0688,-0.144084,0.0219905,-0.0792574,0
2024-11-29 18:18:56.712,0.96012,2.8992,9.05923,-0.155079,0.0250447,-0.0871984,0
2024-11-29 18:18:56.714,0.974477,2.92313,9.07358,-0.162409,0.0287098,-0.0920852,0
2024-11-29 18:18:56.719,0.967299,2.95663,9.08794,-0.177069,0.0311532,-0.109189,0
2024-11-29 18:18:56.720,0.967299,2.95663,9.08794,-0.177069,0.0311532,-0.109189,0
2024-11-29 18:18:56.721,0.962513,2.9662,9.09512,-0.185621,0.0335966,-0.115908,0
2024-11-29 18:18:56.723,0.955334,2.9686,9.0999,-0.191119,0.0317641,-0.122628,0
2024-11-29 18:18:56.726,0.94337,2.98056,9.10469,-0.195395,0.0305424,-0.131179,0
2024-11-29 18:18:56.729,0.929013,2.98774,9.11665,-0.202114,0.0274881,-0.139731,0
2024-11-29 18:18:56.730,0.926621,3.01406,9.1358,-0.205779,0.0219905,-0.148894,0
2024-11-29 18:18:56.733,0.921835,3.02363,9.13101,-0.213109,0.0171037,-0.155613,0
2024-11-29 18:18:56.735,0.897907,3.01406,9.11905,-0.216164,0.00794101,-0.164165,0
2024-11-29 18:18:56.737,0.885943,3.01884,9.12623,-0.222272,0.000610847,-0.170885,0
2024-11-29 18:18:56.740,0.8668,3.01884,9.14537,-0.223494,-0.00977356,-0.177604,0
2024-11-29 18:18:56.743,0.845265,3.01884,9.18126,-0.228991,-0.0219905,-0.185545,0
2024-11-29 18:18:56.745,0.837787,3.02602,9.20519,-0.233267,-0.0323749,-0.191042,0
2024-11-29 18:18:56.747,0.828216,3.03559,9.22433,-0.233878,-0.0427593,-0.198983,0
2024-11-29 18:18:56.749,0.816252,3.03081,9.2363,-0.235711,-0.0531437,-0.204481,0
2024-11-29 18:18:56.752,0.816252,3.00688,9.27966,-0.239987,-0.0629173,-0.209368,0
2024-11-29 18:18:56.755,0.809073,3.00449,9.32274,-0.239987,-0.0702474,-0.213033,0
2024-11-29 18:18:56.757,0.799502,3.01645,9.33709,-0.239987,-0.0757451,-0.217309,0
2024-11-29 18:18:56.760,0.794716,3.00688,9.35863,-0.238765,-0.0781884,-0.224028,0
2024-11-29 18:18:56.762,0.777966,2.99492,9.38495,-0.236322,-0.0757451,-0.230748,0
2024-11-29 18:18:56.764,0.761217,3.0021,9.38256,-0.236322,-0.0757451,-0.230748,0
2024-11-29 18:18:56.766,0.744467,3.00927,9.37299,-0.234489,-0.0726908,-0.233802,0
2024-11-29 18:18:56.768,0.725324,2.99731,9.38256,-0.235711,-0.067804,-0.236856,0
2024-11-29 18:18:56.771,0.715753,2.99013,9.37299,-0.2351,-0.0653607,-0.238689,0
2024-11-29 18:18:56.773,0.689432,2.98774,9.3682,-0.233878,-0.0604739,-0.240521,0
2024-11-29 18:18:56.776,0.658325,2.98056,9.36341,-0.235711,-0.0568088,-0.243575,0
2024-11-29 18:18:56.778,0.634397,2.98535,9.34427,-0.237543,-0.0525329,-0.242964,0
2024-11-29 18:18:56.780,0.605683,2.99013,9.31316,-0.239376,-0.0482569,-0.242964,0
2024-11-29 18:18:56.782,0.584148,2.9997,9.28924,-0.24243,-0.0409268,-0.243575,0
2024-11-29 18:18:56.785,0.548256,3.02363,9.27727,-0.245484,-0.03604,-0.243575,0
2024-11-29 18:18:56.787,0.512363,3.05474,9.25783,-0.248538,-0.0274881,-0.242354,0
2024-11-29 18:18:56.789,0.486042,3.08854,9.25783,-0.250982,-0.0183254,-0.240521,0
2024-11-29 18:18:56.793,0.45015,3.09811,9.26052,-0.255258,-0.000610847,-0.236856,0
2024-11-29 18:18:56.794,0.423829,3.09093,9.24587,-0.255258,-0.000610847,-0.236856,0
2024-11-29 18:18:56.797,0.411865,3.10289,9.24347,-0.258312,0.00733017,-0.233802,0
2024-11-29 18:18:56.800,0.404686,3.11725,9.23869,-0.261366,0.0177146,-0.231969,0
2024-11-29 18:18:56.802,0.3999,3.12443,9.22433,-0.264421,0.0378725,-0.228915,0
2024-11-29 18:18:56.803,0.3999,3.14357,9.19801,-0.264421,0.0378725,-0.228915,0
2024-11-29 18:18:56.806,0.383151,3.16271,9.17408,-0.265642,0.0476461,-0.228304,0
2024-11-29 18:18:56.809,0.378365,3.15075,9.14297,-0.265642,0.0586413,-0.227082,0
2024-11-29 18:18:56.810,0.378365,3.15075,9.1023,-0.266253,0.0702474,-0.225861,0
2024-11-29 18:18:56.813,0.364008,3.16511,9.07598,-0.269307,0.0806318,-0.224028,0
2024-11-29 18:18:56.816,0.35683,3.17707,9.04965,-0.269918,0.087962,-0.222807,0
2024-11-29 18:18:56.819,0.34008,3.18664,9.02094,-0.27114,0.0965139,-0.220363,0
2024-11-29 18:18:56.821,0.330509,3.201,8.97548,-0.271751,0.10079,-0.219752,0
2024-11-29 18:18:56.822,0.32333,3.21057,8.92762,-0.271751,0.10079,-0.219752,0
2024-11-29 18:18:56.825,0.299402,3.22014,8.89891,-0.272362,0.102622,-0.21792,0
2024-11-29 18:18:56.828,0.285045,3.24168,8.8678,-0.275416,0.102622,-0.213644,0
2024-11-29 18:18:56.830,0.275175,3.24168,8.84387,-0.279081,0.0995681,-0.213644,0
2024-11-29 18:18:56.833,0.258425,3.24646,8.82712,-0.279081,0.0995681,-0.213644,0
2024-11-29 18:18:56.835,0.241675,3.26321,8.81755,-0.283357,0.0916271,-0.209979,0
2024-11-29 18:18:56.837,0.229711,3.28475,8.8008,-0.283357,0.0916271,-0.209979,0
2024-11-29 18:18:56.839,0.236889,3.31585,8.77927,-0.284578,0.0861295,-0.206925,0
2024-11-29 18:18:56.841,0.232104,3.335,8.78405,-0.287022,0.080021,-0.205092,0
2024-11-29 18:18:56.843,0.205783,3.35653,8.79602,-0.288854,0.0726908,-0.204481,0
2024-11-29 18:18:56.846,0.198604,3.37807,8.79362,-0.29313,0.0684149,-0.204481,0
2024-11-29 18:18:56.848,0.210568,3.38764,8.79362,-0.290687,0.0610847,-0.203259,0
2024-11-29 18:18:56.851,0.208176,3.39242,8.80559,-0.292519,0.0531437,-0.203259,0
2024-11-29 18:18:56.856,0.215354,3.4331,8.84387,-0.296185,0.0384834,-0.204481,0
2024-11-29 18:18:56.856,0.215354,3.4331,8.84387,-0.296185,0.0384834,-0.204481,0
2024-11-29 18:18:56.858,0.224925,3.44746,8.85823,-0.298017,0.0268773,-0.205703,0
2024-11-29 18:18:56.860,0.234497,3.45942,8.86541,-0.296795,0.0177146,-0.209368,0
2024-11-29 18:18:56.862,0.232104,3.46421,8.88694,-0.296185,0.00733017,-0.212422,0
2024-11-29 18:18:56.865,0.234497,3.46182,8.92044,-0.294352,-0.000610847,-0.213033,0
2024-11-29 18:18:56.868,0.229711,3.47617,8.94198,-0.295574,-0.0195471,-0.214866,0
2024-11-29 18:18:56.870,0.217747,3.48335,8.9683,-0.295574,-0.0195471,-0.214866,0
2024-11-29 18:18:56.872,0.212961,3.46899,9.00419,-0.294963,-0.0299315,-0.21792,0
2024-11-29 18:18:56.875,0.215354,3.46421,9.04726,-0.291298,-0.0476461,-0.221585,0
2024-11-29 18:18:56.877,0.215354,3.47139,9.07837,-0.291298,-0.0476461,-0.221585,0
2024-11-29 18:18:56.879,0.205783,3.46899,9.11187,-0.288854,-0.0549763,-0.221585,0
2024-11-29 18:18:56.882,0.200997,3.46421,9.15494,-0.288244,-0.0604739,-0.219752,0
2024-11-29 18:18:56.884,0.191426,3.45464,9.19562,-0.287633,-0.0659715,-0.220363,0
2024-11-29 18:18:56.887,0.191426,3.45703,9.24108,-0.281524,-0.0702474,-0.214255,0
2024-11-29 18:18:56.889,0.177069,3.47139,9.27727,-0.277248,-0.0684149,-0.213033,0
2024-11-29 18:18:56.892,0.157926,3.46899,9.28924,-0.277248,-0.0684149,-0.213033,0
2024-11-29 18:18:56.894,0.148355,3.46899,9.31316,-0.274194,-0.0684149,-0.209368,0
2024-11-29 18:18:56.895,0.136391,3.47857,9.34906,-0.270529,-0.0659715,-0.204481,0
2024-11-29 18:18:56.898,0.124427,3.48574,9.37299,-0.268086,-0.0616956,-0.202649,0
2024-11-29 18:18:56.901,0.107677,3.48335,9.39452,-0.260145,-0.0494786,-0.192264,0
2024-11-29 18:18:56.903,0.0933201,3.48814,9.39213,-0.260145,-0.0494786,-0.192264,0
2024-11-29 18:18:56.906,0.0789631,3.50489,9.37777,-0.25709,-0.0415376,-0.186767,0
2024-11-29 18:18:56.907,0.0598206,3.50967,9.37777,-0.254647,-0.0342074,-0.182491,0
2024-11-29 18:18:56.910,0.0334995,3.50728,9.38256,-0.252814,-0.0262664,-0.176993,0
2024-11-29 18:18:56.913,0.0191426,3.52164,9.38016,-0.247928,-0.00977356,-0.164165,0
2024-11-29 18:18:56.915,0.00478565,3.53839,9.35863,-0.248538,-0.00183254,-0.159278,0
2024-11-29 18:18:56.917,-0.0167498,3.55035,9.33949,-0.248538,-0.00183254,-0.159278,0
2024-11-29 18:18:56.920,-0.0287139,3.55992,9.3347,-0.245484,0.00671932,-0.154392,0
2024-11-29 18:18:56.922,-0.0358923,3.58385,9.31556,-0.244873,0.0146603,-0.148283,0
2024-11-29 18:18:56.925,-0.0502493,3.60778,9.3012,-0.244873,0.0311532,-0.140342,0
2024-11-29 18:18:56.927,-0.0550349,3.61256,9.28445,-0.244873,0.0311532,-0.140342,0
2024-11-29 18:18:56.929,-0.0454636,3.60539,9.27249,-0.245484,0.0427593,-0.135455,0
2024-11-29 18:18:56.931,-0.040678,3.61256,9.26292,-0.243041,0.0488678,-0.128125,0
2024-11-29 18:18:56.934,-0.040678,3.62453,9.24587,-0.243041,0.0568088,-0.125682,0
2024-11-29 18:18:56.936,-0.0382852,3.62692,9.22433,-0.243652,0.064139,-0.122017,0
2024-11-29 18:18:56.941,-0.0454636,3.61256,9.2028,-0.245484,0.0757451,-0.113465,0
2024-11-29 18:18:56.941,-0.0454636,3.61256,9.2028,-0.245484,0.0757451,-0.113465,0
2024-11-29 18:18:56.942,-0.0478565,3.62453,9.18605,-0.250371,0.0806318,-0.1098,0
2024-11-29 18:18:56.945,-0.0622134,3.62214,9.1669,-0.248538,0.0842969,-0.106135,0
2024-11-29 18:18:56.947,-0.0717847,3.62214,9.15494,-0.251593,0.0867403,-0.101248,0
2024-11-29 18:18:56.949,-0.0717847,3.64367,9.1669,-0.251593,0.0897945,-0.096972,0
2024-11-29 18:18:56.952,-0.0933201,3.66551,9.18844,-0.250371,0.0928488,-0.0926961,0
2024-11-29 18:18:56.954,-0.129212,3.67508,9.19801,-0.249149,0.0983464,-0.0871984,0
2024-11-29 18:18:56.957,-0.143569,3.67986,9.20519,-0.247317,0.0995681,-0.0817008,0
2024-11-29 18:18:56.959,-0.16989,3.69661,9.21955,-0.245484,0.100179,-0.0792574,0
2024-11-29 18:18:56.962,-0.200997,3.70379,9.22194,-0.239376,0.103233,-0.068873,0
2024-11-29 18:18:56.964,-0.22014,3.70858,9.22433,-0.239376,0.103233,-0.068873,0
2024-11-29 18:18:56.967,-0.236889,3.71097,9.22672,-0.235711,0.105677,-0.0627646,0
2024-11-29 18:18:56.969,-0.253639,3.71097,9.22672,-0.231435,0.104455,-0.0590995,0
2024-11-29 18:18:56.972,-0.289831,3.71815,9.22433,-0.222883,0.104455,-0.0487151,0
2024-11-29 18:18:56.974,-0.320937,3.7325,9.21476,-0.217385,0.103844,-0.0438283,0
2024-11-29 18:18:56.976,-0.344866,3.72772,9.21237,-0.217385,0.103844,-0.0438283,0
2024-11-29 18:18:56.979,-0.366401,3.7325,9.21476,-0.205779,0.102011,-0.0310005,0
2024-11-29 18:18:56.982,-0.411865,3.71575,9.21476,-0.200892,0.102011,-0.0242812,0
2024-11-29 18:18:56.983,-0.411865,3.71575,9.21476,-0.200892,0.102011,-0.0242812,0
2024-11-29 18:18:56.986,-0.452543,3.71815,9.2004,-0.195395,0.100179,-0.0181727,0
2024-11-29 18:18:56.987,-0.457328,3.70858,9.17169,-0.189286,0.0940705,-0.0120642,0
2024-11-29 18:18:56.990,-0.459721,3.7014,9.18605,-0.183789,0.0885729,-0.00595576,0
2024-11-29 18:18:56.993,-0.471685,3.69183,9.19322,-0.181956,0.0830752,0.000763559,0
2024-11-29 18:18:56.995,-0.474078,3.68226,9.19562,-0.178291,0.0745234,0.00503949,0
2024-11-29 18:18:56.998,-0.476471,3.68226,9.19083,-0.172183,0.0684149,0.0123697,0
2024-11-29 18:18:56.999,-0.478864,3.67508,9.18126,-0.167907,0.0616956,0.0178673,0
2024-11-29 18:18:57.002,-0.488435,3.68704,9.2004,-0.164852,0.0555871,0.0227541,0
2024-11-29 18:18:57.004,-0.507577,3.68943,9.20758,-0.161187,0.0507003,0.0282517,0
2024-11-29 18:18:57.007,-0.517149,3.68704,9.21237,-0.155079,0.0476461,0.034971,0
2024-11-29 18:18:57.012,-0.531506,3.68943,9.26052,-0.145305,0.0397051,0.0423012,0
2024-11-29 18:18:57.012,-0.531506,3.68943,9.26052,-0.145305,0.0397051,0.0423012,0
2024-11-29 18:18:57.015,-0.536291,3.67268,9.27009,-0.135532,0.0293207,0.0557398,0
2024-11-29 18:18:57.016,-0.536291,3.67268,9.27009,-0.135532,0.0293207,0.0557398,0
2024-11-29 18:18:57.019,-0.531506,3.66311,9.27488,-0.130034,0.0213797,0.0667351,0
2024-11-29 18:18:57.021,-0.533899,3.64128,9.28206,-0.126369,0.0177146,0.071011,0
2024-11-29 18:18:57.022,-0.54347,3.62692,9.29402,-0.126369,0.0177146,0.071011,0
2024-11-29 18:18:57.025,-0.533899,3.61974,9.31795,-0.123926,0.015882,0.0765086,0
2024-11-29 18:18:57.028,-0.533899,3.62453,9.34427,-0.117206,0.0140495,0.0862822,0
2024-11-29 18:18:57.030,-0.553041,3.62692,9.34666,-0.117206,0.0140495,0.0862822,0
2024-11-29 18:18:57.033,-0.569791,3.61017,9.35624,-0.11293,0.0146603,0.0930015,0
2024-11-29 18:18:57.034,-0.593719,3.60778,9.38495,-0.111709,0.0164929,0.101553,0
2024-11-29 18:18:57.037,-0.60329,3.61735,9.42084,-0.108654,0.0152712,0.10644,0
2024-11-29 18:18:57.040,-0.60329,3.63171,9.44956,-0.104989,0.0177146,0.11377,0
2024-11-29 18:18:57.041,-0.612862,3.64367,9.46391,-0.102546,0.020158,0.12049,0
2024-11-29 18:18:57.044,-0.62004,3.64606,9.4687,-0.101935,0.0232122,0.129041,0
2024-11-29 18:18:57.047,-0.608076,3.63889,9.47348,-0.0964375,0.0250447,0.135761,0
2024-11-29 18:18:57.048,-0.591326,3.63171,9.49263,-0.0958267,0.0299315,0.143702,0
2024-11-29 18:18:57.051,-0.565005,3.6341,9.50938,-0.0921616,0.0329858,0.150421,0
2024-11-29 18:18:57.053,-0.553041,3.63171,9.52852,-0.090329,0.03604,0.15653,0
2024-11-29 18:18:57.055,-0.553041,3.62214,9.54527,-0.0891073,0.0366508,0.162027,0
2024-11-29 18:18:57.058,-0.54347,3.62214,9.55723,-0.0884965,0.0384834,0.169968,0
2024-11-29 18:18:57.060,-0.538684,3.64128,9.58355,-0.0854423,0.0372617,0.173633,0
2024-11-29 18:18:57.064,-0.524327,3.64606,9.61227,-0.0817772,0.0390942,0.182185,0
2024-11-29 18:18:57.065,-0.533899,3.64876,9.61705,-0.0817772,0.0390942,0.182185,0
2024-11-29 18:18:57.067,-0.550648,3.66072,9.62184,-0.0836097,0.0390942,0.187072,0
2024-11-29 18:18:57.071,-0.536291,3.64876,9.62184,-0.0848314,0.0415376,0.190126,0
2024-11-29 18:18:57.072,-0.490828,3.62692,9.61945,-0.086664,0.0427593,0.193791,0
2024-11-29 18:18:57.077,-0.344866,3.59342,9.67687,-0.0976592,0.0403159,0.196235,0
2024-11-29 18:18:57.078,-0.344866,3.59342,9.67687,-0.103768,0.0354291,0.196235,0
2024-11-29 18:18:57.080,-0.304188,3.58624,9.71755,-0.11232,0.0311532,0.197456,0
2024-11-29 18:18:57.082,-0.282652,3.58624,9.77259,-0.11232,0.0311532,0.197456,0
2024-11-29 18:18:57.084,-0.285045,3.60539,9.83988,-0.119039,0.0274881,0.195624,0
2024-11-29 18:18:57.086,-0.297009,3.62214,9.92842,-0.124536,0.0226013,0.196235,0
2024-11-29 18:18:57.089,-0.289831,3.63889,10.0289,-0.129423,0.0195471,0.199289,0
2024-11-29 18:18:57.092,-0.270389,3.66311,10.127,-0.133699,0.0171037,0.198678,0
2024-11-29 18:18:57.093,-0.246461,3.67508,10.2323,-0.134921,0.0183254,0.1999,0
2024-11-29 18:18:57.096,-0.224925,3.67508,10.34,-0.136753,0.0177146,0.201732,0
2024-11-29 18:18:57.098,-0.224925,3.67986,10.4695,-0.134921,0.0183254,0.203565,0
2024-11-29 18:18:57.101,-0.212961,3.68226,10.5963,-0.133699,0.020158,0.203565,0
2024-11-29 18:18:57.103,-0.196211,3.67747,10.6968,-0.125758,0.0232122,0.202954,0
2024-11-29 18:18:57.106,-0.18664,3.67508,10.7973,-0.120261,0.0268773,0.204787,0
2024-11-29 18:18:57.108,-0.179462,3.66551,10.8954,-0.115374,0.0311532,0.206619,0
2024-11-29 18:18:57.110,-0.184247,3.65115,10.9723,-0.106211,0.0403159,0.206619,0
2024-11-29 18:18:57.113,-0.184247,3.63889,11.0297,-0.0854423,0.0592522,0.209062,0
2024-11-29 18:18:57.115,-0.172283,3.63889,11.0608,-0.0854423,0.0592522,0.209062,0
2024-11-29 18:18:57.118,-0.200997,3.64128,11.0967,-0.0750579,0.0714691,0.204787,0
2024-11-29 18:18:57.120,-0.232104,3.64367,11.1422,-0.066506,0.0830752,0.206008,0
2024-11-29 18:18:57.124,-0.265603,3.6341,11.1948,-0.0439046,0.105066,0.21456,0
2024-11-29 18:18:57.125,-0.265603,3.6341,11.1948,-0.0335202,0.11545,0.218836,0
2024-11-29 18:18:57.127,-0.294616,3.64876,11.2092,-0.0249684,0.123391,0.224334,0
2024-11-29 18:18:57.129,-0.313759,3.64606,11.214,-0.0249684,0.123391,0.224334,0
2024-11-29 18:18:57.132,-0.349651,3.62931,11.2092,-0.0164165,0.133776,0.22922,0
2024-11-29 18:18:57.133,-0.359223,3.61735,11.1805,-0.00786466,0.143549,0.239605,0
2024-11-29 18:18:57.137,-0.354437,3.59581,11.1613,7.63559e-05,0.154544,0.247546,0
2024-11-29 18:18:57.139,-0.35683,3.57428,11.1374,0.0122933,0.176535,0.266482,0
2024-11-29 18:18:57.141,-0.349651,3.56471,11.0848,0.0196235,0.188141,0.276867,0
2024-11-29 18:18:57.143,-0.349651,3.53599,11.0321,0.0196235,0.188141,0.276867,0
2024-11-29 18:18:57.145,-0.352044,3.50967,10.9914,0.0245102,0.199136,0.287862,0
2024-11-29 18:18:57.147,-0.352044,3.50967,10.946,0.0251211,0.208299,0.299468,0
2024-11-29 18:18:57.150,-0.354437,3.50967,10.9026,0.0281753,0.216851,0.312296,0
2024-11-29 18:18:57.153,-0.359223,3.51685,10.9074,0.0287862,0.221127,0.323291,0
2024-11-29 18:18:57.154,-0.337687,3.53599,10.9193,0.0275645,0.224181,0.334286,0
2024-11-29 18:18:57.157,-0.287438,3.57428,10.9241,0.029397,0.228457,0.343449,0
2024-11-29 18:18:57.159,-0.241675,3.62453,10.9241,0.029397,0.234565,0.350779,0
2024-11-29 18:18:57.162,-0.189033,3.67747,10.9146,0.0287862,0.241285,0.359942,0
2024-11-29 18:18:57.165,-0.12682,3.71336,10.9193,0.0330621,0.250447,0.363607,0
2024-11-29 18:18:57.167,-0.0693919,3.72293,10.9265,0.0324513,0.260832,0.366661,0
2024-11-29 18:18:57.169,-0.00957129,3.74208,10.9265,0.0342838,0.273049,0.369104,0
2024-11-29 18:18:57.172,0.0478565,3.75643,10.9265,0.0348946,0.28099,0.370326,0
2024-11-29 18:18:57.173,0.0837488,3.76361,10.9193,0.0367272,0.292596,0.371548,0
2024-11-29 18:18:57.177,0.117248,3.77557,10.9098,0.037338,0.298093,0.368494,0
2024-11-29 18:18:57.179,0.167498,3.77318,10.8882,0.0361163,0.304813,0.366661,0
2024-11-29 18:18:57.180,0.215354,3.79232,10.8643,0.0361163,0.312143,0.362385,0
2024-11-29 18:18:57.183,0.232104,3.7995,10.8356,0.033673,0.318251,0.35872,0
2024-11-29 18:18:57.186,0.239282,3.78993,10.8117,0.0318404,0.324971,0.354444,0
2024-11-29 18:18:57.190,0.212961,3.79232,10.759,0.0300079,0.335966,0.348336,0
2024-11-29 18:18:57.190,0.212961,3.79232,10.759,0.0300079,0.335966,0.348336,0
2024-11-29 18:18:57.193,0.20339,3.79711,10.7471,0.0245102,0.342074,0.346503,0
2024-11-29 18:18:57.195,0.208176,3.79472,10.7471,0.0208452,0.343907,0.345281,0
2024-11-29 18:18:57.198,0.205783,3.79232,10.7471,0.0141258,0.345129,0.346503,0
2024-11-29 18:18:57.199,0.196211,3.7995,10.7614,0.0141258,0.345129,0.346503,0
2024-11-29 18:18:57.202,0.172283,3.80429,10.7901,0.0116825,0.344518,0.345892,0
2024-11-29 18:18:57.205,0.153141,3.79232,10.8069,0.00740652,0.347572,0.347114,0
2024-11-29 18:18:57.206,0.131605,3.78275,10.8212,0.00435229,0.348183,0.347725,0
2024-11-29 18:18:57.209,0.0957129,3.79711,10.8476,0.00251974,0.350626,0.350168,0
2024-11-29 18:18:57.212,0.0502493,3.82582,10.8667,0.00374144,0.351848,0.353222,0
2024-11-29 18:18:57.214,-0.00478565,3.84497,10.8882,0.00313059,0.351848,0.355666,0
2024-11-29 18:18:57.217,-0.0526421,3.85693,10.9122,0.00496313,0.35307,0.361774,0
2024-11-29 18:18:57.218,-0.0885344,3.87368,10.946,0.00679568,0.352459,0.367272,0
2024-11-29 18:18:57.220,-0.138784,3.88325,11.001,0.00984991,0.348794,0.37338,0
2024-11-29 18:18:57.224,-0.179462,3.87847,11.0465,0.0153475,0.347572,0.383154,0
2024-11-29 18:18:57.227,-0.246461,3.88564,11.123,0.0251211,0.342685,0.400258,0
2024-11-29 18:18:57.228,-0.246461,3.88564,11.123,0.0251211,0.342685,0.400258,0
2024-11-29 18:18:57.231,-0.265603,3.8689,11.1494,0.0367272,0.337188,0.422248,0
2024-11-29 18:18:57.232,-0.263211,3.85932,11.1996,0.0367272,0.337188,0.422248,0
2024-11-29 18:18:57.235,-0.256032,3.84018,11.2331,0.0440574,0.334133,0.431411,0
2024-11-29 18:18:57.237,-0.248854,3.83061,11.2499,0.0489441,0.329858,0.439963,0
2024-11-29 18:18:57.240,-0.248854,3.84497,11.2762,0.0538309,0.327414,0.450958,0
2024-11-29 18:18:57.242,-0.260818,3.85215,11.2738,0.0605502,0.326803,0.463175,0
2024-11-29 18:18:57.245,-0.270389,3.85215,11.2403,0.0678804,0.334133,0.484555,0
2024-11-29 18:18:57.246,-0.285045,3.86172,11.214,0.0678804,0.334133,0.484555,0
2024-11-29 18:18:57.250,-0.294616,3.8689,11.1948,0.0697129,0.348794,0.509599,0
2024-11-29 18:18:57.252,-0.328116,3.88325,11.1494,0.0697129,0.348794,0.509599,0
2024-11-29 18:18:57.254,-0.371187,3.91914,11.0895,0.0660479,0.35307,0.519373,0
2024-11-29 18:18:57.256,-0.390329,3.94307,11.0225,0.0623828,0.356124,0.532812,0
2024-11-29 18:18:57.258,-0.395115,3.95504,10.9747,0.0526092,0.350015,0.541363,0
2024-11-29 18:18:57.260,-0.392722,3.96461,10.9436,0.0403923,0.337799,0.550526,0
2024-11-29 18:18:57.264,-0.371187,3.95982,10.8978,0.0257319,0.318251,0.555413,0
2024-11-29 18:18:57.265,-0.30658,3.94307,10.8643,0.00862822,0.288931,0.559078,0
2024-11-29 18:18:57.267,-0.18664,3.88086,10.8691,-0.0133623,0.245561,0.5603,0
2024-11-29 18:18:57.271,0.0119641,3.77797,10.9002,-0.0390179,0.185698,0.554191,0
2024-11-29 18:18:57.272,0.275175,3.64128,10.9747,-0.0658951,0.104455,0.540142,0
2024-11-29 18:18:57.275,0.579362,3.46899,11.1087,-0.0958267,0.00305424,0.515708,0
2024-11-29 18:18:57.278,0.905085,3.28235,11.2953,-0.130034,-0.114839,0.484555,0
2024-11-29 18:18:57.280,1.21615,3.06431,11.5397,-0.164852,-0.247393,0.447904,0
2024-11-29 18:18:57.282,1.50598,2.8322,11.8029,-0.199671,-0.383001,0.404534,0
2024-11-29 18:18:57.285,1.77876,2.6001,12.0975,-0.231435,-0.520442,0.356277,0
2024-11-29 18:18:57.287,2.05185,2.37009,12.4301,-0.290687,-0.767835,0.256709,0
2024-11-29 18:18:57.289,2.31266,2.17388,12.7678,-0.290687,-0.767835,0.256709,0
2024-11-29 18:18:57.292,2.52832,2.03031,13.1267,-0.334668,-0.947424,0.15714,0
2024-11-29 18:18:57.294,2.68146,1.91276,13.5314,-0.334668,-0.947424,0.15714,0
2024-11-29 18:18:57.297,2.64556,1.89123,13.9361,-0.345052,-1.01462,0.105829,0
2024-11-29 18:18:57.298,2.35334,2.01835,14.1754,-0.348717,-1.04882,0.0679568,0
2024-11-29 18:18:57.301,2.21695,2.09731,14.4915,-0.360934,-1.0586,0.047188,0
2024-11-29 18:18:57.304,2.33898,2.06381,15.0518,-0.346274,-1.05982,0.0178673,0
2024-11-29 18:18:57.306,2.47059,1.97288,15.5665,-0.346274,-1.05982,0.0178673,0
2024-11-29 18:18:57.309,2.6336,1.8338,15.9951,-0.324894,-1.03905,0.00809373,0
2024-11-29 18:18:57.310,2.80349,1.66391,16.3493,-0.290076,-0.995681,-0.00351237,0
2024-11-29 18:18:57.313,2.95663,1.46291,16.6534,-0.202114,-0.834417,-0.0273354,0
2024-11-29 18:18:57.315,3.07627,1.25204,16.876,-0.202114,-0.834417,-0.0273354,0
2024-11-29 18:18:57.317,3.15793,1.01994,17.0363,-0.144084,-0.723243,-0.0383307,0
2024-11-29 18:18:57.320,3.21775,0.780359,17.1538,-0.0817772,-0.599241,-0.0517693,0
2024-11-29 18:18:57.323,3.22971,0.538684,17.1945,0.0623828,-0.328025,-0.0749815,0
2024-11-29 18:18:57.325,3.18186,0.299402,17.1467,0.133852,-0.186919,-0.0841442,1
2024-11-29 18:18:57.326,3.07867,0.0622134,16.998,0.133852,-0.186919,-0.0841442,0
2024-11-29 18:18:57.329,2.94467,-0.153141,16.7994,0.20471,-0.0488678,-0.0902527,0
2024-11-29 18:18:57.332,2.77717,-0.325723,16.5769,0.34887,0.214407,-0.089031,0
2024-11-29 18:18:57.334,2.57378,-0.464507,16.3158,0.34887,0.214407,-0.089031,0
2024-11-29 18:18:57.337,2.33898,-0.574577,16.0143,0.420339,0.337799,-0.0798683,0
2024-11-29 18:18:57.339,2.07817,-0.627219,15.6503,0.491198,0.458746,-0.0658188,0
2024-11-29 18:18:57.340,1.83859,-0.610469,15.2073,0.552282,0.576029,-0.0432174,0
2024-11-29 18:18:57.343,1.59452,-0.557827,14.7236,0.6152,0.689647,-0.0126751,0
2024-11-29 18:18:57.345,1.31904,-0.4669,14.252,0.669565,0.795934,0.0221432,0
2024-11-29 18:18:57.348,1.05105,-0.378365,13.7734,0.717822,0.897945,0.0618483,0
2024-11-29 18:18:57.351,0.818644,-0.313759,13.2897,0.791124,1.06959,0.154697,0
2024-11-29 18:18:57.353,0.632004,-0.251246,12.7917,0.791124,1.06959,0.154697,0
2024-11-29 18:18:57.356,0.596112,-0.260818,12.3368,0.839381,1.19237,0.24327,0
2024-11-29 18:18:57.358,0.818644,-0.421436,12.1358,0.839381,1.19237,0.24327,0
2024-11-29 18:18:57.359,0.931406,-0.514756,11.8962,0.865036,1.22536,0.273201,0
2024-11-29 18:18:57.362,0.689432,-0.387936,11.3145,0.888248,1.26995,0.304355,0
2024-11-29 18:18:57.364,0.488435,-0.267996,10.7423,0.906574,1.33104,0.337951,0
2024-11-29 18:18:57.367,0.531506,-0.239282,10.448,0.906574,1.33104,0.337951,0
2024-11-29 18:18:57.369,0.634397,-0.215354,10.2921,0.94017,1.43068,0.394149,0
2024-11-29 18:18:57.371,0.60329,-0.117248,10.0217,0.956663,1.45878,0.414918,0
2024-11-29 18:18:57.374,0.493221,0.0191426,9.6338,0.973767,1.48566,0.434465,0
2024-11-29 18:18:57.377,0.419043,0.138784,9.2677,0.998812,1.5333,0.471116,0
2024-11-29 18:18:57.379,0.385544,0.232104,8.97787,0.998812,1.5333,0.471116,0
2024-11-29 18:18:57.383,0.493221,0.313759,8.64736,1.00859,1.53819,0.4815,0
2024-11-29 18:18:57.388,0.440578,0.4669,8.01297,1.04035,1.48993,0.489441,0
2024-11-29 18:18:57.388,0.385544,0.4669,8.01297,1.04035,1.48993,0.489441,0
2024-11-29 18:18:57.389,0.385544,0.4669,8.01297,1.04401,1.46367,0.486998,0
2024-11-29 18:18:57.391,0.359223,0.536291,7.70668,1.0434,1.43435,0.480889,0
2024-11-29 18:18:57.392,0.35683,0.598505,7.37139,1.0434,1.43435,0.480889,0
2024-11-29 18:18:57.395,0.383151,0.641576,7.08904,1.0434,1.43435,0.480889,0
2024-11-29 18:18:57.397,0.407079,0.677468,6.86142,1.03119,1.35249,0.45951,0
2024-11-29 18:18:57.399,0.387936,0.751645,6.61257,1.01714,1.29805,0.446071,0
2024-11-29 18:18:57.402,0.354437,0.809073,6.34906,0.998812,1.23758,0.429578,0
2024-11-29 18:18:57.405,0.311366,0.857229,6.13609,0.949333,1.09769,0.393538,0
2024-11-29 18:18:57.407,0.289831,0.907478,5.99492,0.949333,1.09769,0.393538,0
2024-11-29 18:18:57.409,0.224925,1.00319,5.74337,0.924899,1.025,0.37277,0
2024-11-29 18:18:57.412,0.157926,1.10608,5.50888,0.890692,0.956587,0.35139,0
2024-11-29 18:18:57.415,0.224925,1.13958,5.4993,0.854652,0.877177,0.329399,0
2024-11-29 18:18:57.417,0.294616,1.17069,5.46341,0.819223,0.783717,0.302522,0
2024-11-29 18:18:57.418,0.232104,1.24008,5.24537,0.782572,0.691479,0.270147,0
2024-11-29 18:18:57.421,0.153141,1.32144,5.10898,0.737369,0.601685,0.240216,0
2024-11-29 18:18:57.423,0.22014,1.33819,5.22622,0.691555,0.498451,0.206619,0
2024-11-29 18:18:57.425,0.301795,1.33101,5.31954,0.649407,0.378725,0.165692,0
2024-11-29 18:18:57.429,0.285045,1.35254,5.28604,0.560223,0.152101,0.0783412,0
2024-11-29 18:18:57.431,0.263211,1.39083,5.24776,0.560223,0.152101,0.0783412,0
2024-11-29 18:18:57.433,0.308973,1.43181,5.25254,0.513188,0.0482569,0.0306951,0
2024-11-29 18:18:57.435,0.364008,1.46052,5.29322,0.467985,-0.0494786,-0.0200052,0
2024-11-29 18:18:57.438,0.380758,1.4988,5.36052,0.375137,-0.232733,-0.128736,0
2024-11-29 18:18:57.439,0.387936,1.5347,5.41795,0.375137,-0.232733,-0.128736,0
2024-11-29 18:18:57.442,0.387936,1.54666,5.47059,0.32749,-0.316419,-0.183101,0
2024-11-29 18:18:57.445,0.347258,1.55862,5.52802,0.229144,-0.472185,-0.299773,0
2024-11-29 18:18:57.447,0.263211,1.5682,5.59262,0.229144,-0.472185,-0.299773,0
2024-11-29 18:18:57.450,0.174676,1.57777,5.70509,0.177833,-0.543654,-0.35475,0
2024-11-29 18:18:57.451,0.0933201,1.54905,5.87258,0.125911,-0.615734,-0.409115,0
2024-11-29 18:18:57.455,0.0215354,1.47727,6.07627,0.0312296,-0.753785,-0.512348,0
2024-11-29 18:18:57.457,-0.0215354,1.39801,6.31795,-0.0115297,-0.813649,-0.560605,0
2024-11-29 18:18:57.459,-0.0502493,1.27597,6.57907,-0.0115297,-0.813649,-0.560605,0
2024-11-29 18:18:57.462,-0.0765703,1.10848,6.81117,-0.0811663,-0.911384,-0.651621,0
2024-11-29 18:18:57.463,-0.0885344,0.948156,7.01217,-0.0811663,-0.911384,-0.651621,0
2024-11-29 18:18:57.465,-0.0885344,0.809073,7.20389,-0.108654,-0.944981,-0.693159,0
2024-11-29 18:18:57.469,-0.102891,0.675075,7.4001,-0.137975,-0.968804,-0.730421,0
2024-11-29 18:18:57.471,-0.232104,0.596112,7.54607,-0.159355,-0.986518,-0.768904,0
2024-11-29 18:18:57.473,-0.548256,0.627219,7.52692,-0.182567,-0.988962,-0.797614,0
2024-11-29 18:18:57.476,-0.792323,0.648754,7.54607,-0.234489,-0.974912,-0.828767,0
2024-11-29 18:18:57.477,-0.85005,0.600898,7.70668,-0.234489,-0.974912,-0.828767,0
2024-11-29 18:18:57.480,-0.888335,0.519542,7.85504,-0.261977,-0.976745,-0.838541,0
2024-11-29 18:18:57.482,-0.945763,0.423829,7.95793,-0.289465,-0.987129,-0.844038,0
2024-11-29 18:18:57.484,-1.00798,0.311366,8.02254,-0.320008,-0.998124,-0.851368,0
2024-11-29 18:18:57.487,-1.07498,0.184247,8.07757,-0.351161,-1.00362,-0.853201,0
2024-11-29 18:18:57.489,-1.13958,0.081356,8.13021,-0.381703,-1.00668,-0.853201,0
2024-11-29 18:18:57.492,-1.2018,-0.00239282,8.20469,-0.412856,-1.00057,-0.851979,0
2024-11-29 18:18:57.495,-1.25444,-0.0789631,8.32672,-0.467833,-0.98041,-0.842817,0
2024-11-29 18:18:57.497,-1.30708,-0.148355,8.45833,-0.467833,-0.98041,-0.842817,0
2024-11-29 18:18:57.501,-1.38365,-0.248854,8.78405,-0.5167,-0.952311,-0.82388,0
2024-11-29 18:18:57.502,-1.38365,-0.248854,8.78405,-0.537469,-0.934596,-0.811663,0
2024-11-29 18:18:57.504,-1.44377,-0.263211,8.92284,-0.554573,-0.910773,-0.797003,0
2024-11-29 18:18:57.506,-1.54666,-0.27996,9.01616,-0.554573,-0.910773,-0.797003,0
2024-11-29 18:18:57.508,-1.61605,-0.308973,9.15494,-0.573509,-0.883285,-0.776234,0
2024-11-29 18:18:57.510,-1.63998,-0.32333,9.29402,-0.585115,-0.853354,-0.754855,0
2024-11-29 18:18:57.513,-1.65912,-0.335294,9.40648,-0.5955,-0.820368,-0.732253,0
2024-11-29 18:18:57.516,-1.66391,-0.366401,9.54527,-0.604662,-0.789215,-0.70843,0
2024-11-29 18:18:57.517,-1.71894,-0.387936,9.68166,-0.607106,-0.754396,-0.680942,0
2024-11-29 18:18:57.520,-1.82662,-0.392722,9.80848,-0.607717,-0.716524,-0.655897,0
2024-11-29 18:18:57.523,-1.9008,-0.3999,9.93081,-0.605884,-0.678651,-0.623522,0
2024-11-29 18:18:57.525,-1.93908,-0.414257,10.0433,-0.591224,-0.590689,-0.557551,0
2024-11-29 18:18:57.528,-1.96062,-0.423829,10.1581,-0.574731,-0.541822,-0.525787,0
2024-11-29 18:18:57.530,-1.9681,-0.411865,10.2802,-0.574731,-0.541822,-0.525787,0
2024-11-29 18:18:57.531,-1.98006,-0.387936,10.3711,-0.557016,-0.485624,-0.489136,0
2024-11-29 18:18:57.535,-1.98245,-0.373579,10.4264,-0.535637,-0.42515,-0.451263,0
2024-11-29 18:18:57.537,-1.98006,-0.361615,10.4336,-0.506927,-0.361622,-0.414613,0
2024-11-29 18:18:57.538,-2.00638,-0.349651,10.4121,-0.481271,-0.295039,-0.377962,0
2024-11-29 18:18:57.541,-2.0327,-0.344866,10.3857,-0.454394,-0.231511,-0.338257,0
2024-11-29 18:18:57.543,-2.05185,-0.337687,10.34,-0.426295,-0.16615,-0.299162,0
2024-11-29 18:18:57.545,-2.09013,-0.32333,10.2658,-0.395753,-0.104455,-0.259457,0
2024-11-29 18:18:57.548,-2.1332,-0.308973,10.1916,-0.369486,-0.0470352,-0.21792,0
2024-11-29 18:18:57.553,-2.18584,-0.22014,9.94756,-0.319397,0.0561979,-0.130569,0
2024-11-29 18:18:57.553,-2.18584,-0.22014,9.94756,-0.319397,0.0561979,-0.130569,0
2024-11-29 18:18:57.556,-2.22413,-0.165105,9.77977,-0.296795,0.10079,-0.0865876,0
2024-11-29 18:18:57.557,-2.26002,-0.102891,9.61466,-0.277859,0.142327,-0.0426066,0
2024-11-29 18:18:57.560,-2.3007,-0.00717847,9.45195,-0.263199,0.182032,0.00320695,0
2024-11-29 18:18:57.562,-2.34138,0.0957129,9.2677,-0.249149,0.215629,0.0484096,0
2024-11-29 18:18:57.564,-2.38684,0.18664,9.09273,-0.241208,0.243117,0.0960557,0
2024-11-29 18:18:57.568,-2.41795,0.270389,8.94676,-0.22777,0.277936,0.180353,0
2024-11-29 18:18:57.569,-2.42513,0.368794,8.81277,-0.22777,0.277936,0.180353,0
2024-11-29 18:18:57.571,-2.42513,0.45015,8.69761,-0.225326,0.283433,0.221279,0
2024-11-29 18:18:57.575,-2.40838,0.52672,8.60668,-0.222272,0.285877,0.295192,0
2024-11-29 18:18:57.577,-2.37009,0.612862,8.52533,-0.222272,0.285877,0.295192,0
2024-11-29 18:18:57.578,-2.31745,0.682254,8.42483,-0.221661,0.28099,0.327567,0
2024-11-29 18:18:57.581,-2.26241,0.74686,8.33151,-0.222272,0.275492,0.355666,0
2024-11-29 18:18:57.584,-2.19302,0.804287,8.24537,-0.22105,0.26694,0.381321,0
2024-11-29 18:18:57.585,-1.95583,0.715753,8.36022,-0.222272,0.248615,0.40209,0
2024-11-29 18:18:57.588,-1.6663,0.598505,8.64497,-0.216774,0.212575,0.40881,0
2024-11-29 18:18:57.590,-1.68544,0.65354,8.59951,-0.203336,0.175924,0.412475,0
2024-11-29 18:18:57.593,-1.89123,0.82343,8.29801,-0.19173,0.16615,0.419194,0
2024-11-29 18:18:57.595,-1.97528,0.984048,8.1999,-0.1844,0.170426,0.428357,0
2024-11-29 18:18:57.598,-1.93191,1.08455,8.3004,-0.164852,0.139884,0.45218,0
2024-11-29 18:18:57.601,-1.90798,1.1683,8.34587,-0.156911,0.116061,0.463175,0
2024-11-29 18:18:57.603,-1.9681,1.2664,8.2334,-0.156911,0.116061,0.463175,0
2024-11-29 18:18:57.605,-2.01356,1.36451,8.10389,-0.155079,0.0891837,0.479668,0
2024-11-29 18:18:57.608,-2.00638,1.42941,8.03689,-0.155079,0.059863,0.49555,0
2024-11-29 18:18:57.609,-1.96301,1.4653,7.96989,-0.161187,0.0232122,0.510821,0
2024-11-29 18:18:57.614,-1.79551,1.48445,7.92443,-0.17768,-0.0549763,0.538309,0
2024-11-29 18:18:57.615,-1.79551,1.48445,7.92443,-0.18501,-0.0971247,0.548083,0
2024-11-29 18:18:57.617,-1.69502,1.48205,7.934,-0.196006,-0.134997,0.556024,0
2024-11-29 18:18:57.619,-1.59691,1.48445,7.94118,-0.196006,-0.134997,0.556024,0
2024-11-29 18:18:57.622,-1.4988,1.49402,7.98664,-0.21372,-0.207077,0.570073,0
2024-11-29 18:18:57.623,-1.41027,1.5012,8.05125,-0.21372,-0.207077,0.570073,0
2024-11-29 18:18:57.627,-1.33579,1.5323,8.12782,-0.223494,-0.238841,0.575571,0
2024-11-29 18:18:57.628,-1.26879,1.5658,8.23101,-0.228991,-0.271827,0.580458,0
2024-11-29 18:18:57.630,-1.18744,1.55145,8.34347,-0.236322,-0.303591,0.586566,0
2024-11-29 18:18:57.634,-1.08694,1.5323,8.47508,-0.241208,-0.365287,0.588399,0
2024-11-29 18:18:57.636,-0.974477,1.51077,8.58993,-0.238765,-0.390942,0.589009,0
2024-11-29 18:18:57.637,-0.857229,1.47727,8.70987,-0.238765,-0.390942,0.589009,0
2024-11-29 18:18:57.641,-0.754038,1.44855,8.84387,-0.230824,-0.433091,0.584734,0
2024-11-29 18:18:57.643,-0.665504,1.43659,8.94198,-0.223494,-0.446529,0.579847,0
2024-11-29 18:18:57.644,-0.586541,1.42702,9.03291,-0.223494,-0.446529,0.579847,0
2024-11-29 18:18:57.648,-0.529113,1.42941,9.13101,-0.214331,-0.459357,0.576182,0
2024-11-29 18:18:57.649,-0.490828,1.44138,9.21476,-0.208223,-0.472796,0.572517,0
2024-11-29 18:18:57.651,-0.452543,1.45334,9.2677,-0.197838,-0.482569,0.56763,0
2024-11-29 18:18:57.654,-0.426222,1.47009,9.33231,-0.186232,-0.491121,0.566408,0
2024-11-29 18:18:57.656,-0.407079,1.50598,9.40648,-0.176459,-0.498451,0.567019,0
2024-11-29 18:18:57.659,-0.407079,1.55862,9.45913,-0.164852,-0.503338,0.565797,0
2024-11-29 18:18:57.661,-0.411865,1.59212,9.52134,-0.155079,-0.507614,0.568852,0
2024-11-29 18:18:57.664,-0.409472,1.61605,9.57638,-0.131867,-0.503949,0.579236,0
2024-11-29 18:18:57.667,-0.390329,1.65434,9.60748,-0.123315,-0.499062,0.584123,0
2024-11-29 18:18:57.669,-0.361615,1.70937,9.64098,-0.111709,-0.494786,0.588399,0
2024-11-29 18:18:57.671,-0.349651,1.74766,9.6673,-0.100713,-0.489289,0.59634,0
2024-11-29 18:18:57.674,-0.344866,1.7668,9.68405,-0.0933833,-0.479515,0.604891,0
2024-11-29 18:18:57.675,-0.316152,1.78116,9.69841,-0.0933833,-0.479515,0.604891,0
2024-11-29 18:18:57.678,-0.256032,1.81944,9.70559,-0.0842206,-0.466076,0.613443,0
2024-11-29 18:18:57.681,-0.210568,1.85773,9.72473,-0.0775012,-0.450194,0.621995,0
2024-11-29 18:18:57.683,-0.181855,1.89123,9.72473,-0.0646735,-0.414154,0.637266,0
2024-11-29 18:18:57.685,-0.124427,1.93191,9.71037,-0.0646735,-0.414154,0.637266,0
2024-11-29 18:18:57.687,-0.0598206,1.97288,9.70559,-0.0603975,-0.393386,0.644597,0
2024-11-29 18:18:57.689,-0.0311067,2.03031,9.68405,-0.0579541,-0.368952,0.650705,0
2024-11-29 18:18:57.692,-0.00957129,2.07817,9.65773,-0.058565,-0.34635,0.661089,0
2024-11-29 18:18:57.694,0.0287139,2.12602,9.6338,-0.0555107,-0.320695,0.667198,0
2024-11-29 18:18:57.696,0.0622134,2.18345,9.59791,-0.0567324,-0.296872,0.673306,0
2024-11-29 18:18:57.699,0.102891,2.2337,9.56202,-0.0603975,-0.270605,0.679415,0
2024-11-29 18:18:57.701,0.150748,2.29113,9.5333,-0.0628409,-0.246171,0.687356,0
2024-11-29 18:18:57.703,0.205783,2.35095,9.49023,-0.0677277,-0.222959,0.69041,0
2024-11-29 18:18:57.706,0.272782,2.41555,9.46152,-0.0732253,-0.199747,0.694075,0
2024-11-29 18:18:57.708,0.354437,2.47059,9.46152,-0.0817772,-0.177757,0.696519,0
2024-11-29 18:18:57.711,0.440578,2.51845,9.45434,-0.0891073,-0.156377,0.69774,0
2024-11-29 18:18:57.713,0.521934,2.57857,9.45195,-0.0964375,-0.135608,0.694075,0
2024-11-29 18:18:57.716,0.612862,2.63121,9.45195,-0.106822,-0.11545,0.689799,0
2024-11-29 18:18:57.718,0.699003,2.69103,9.45673,-0.117206,-0.0946813,0.685523,0
2024-11-29 18:18:57.721,0.785145,2.75324,9.45434,-0.125147,-0.0745234,0.675139,0
2024-11-29 18:18:57.723,0.9003,2.77717,9.50698,-0.136143,-0.051922,0.667198,0
2024-11-29 18:18:57.724,1.2018,2.66231,9.82074,-0.139808,-0.043981,0.651927,0
2024-11-29 18:18:57.727,1.46052,2.58574,10.127,-0.137364,-0.0525329,0.623828,0
2024-11-29 18:18:57.730,1.38365,2.70299,10.0241,-0.121482,-0.00733017,0.571906,0
2024-11-29 18:18:57.733,1.24247,2.87288,9.77737,-0.121482,-0.00733017,0.571906,0
2024-11-29 18:18:57.734,1.28076,3.02363,9.76062,-0.114763,0.0397051,0.552969,0
2024-11-29 18:18:57.737,1.39561,3.12921,9.89731,-0.106822,0.0775776,0.532812,0
2024-11-29 18:18:57.740,1.41506,3.23928,9.93081,-0.0952158,0.134997,0.49555,0
2024-11-29 18:18:57.741,1.36929,3.33021,9.84946,-0.0952158,0.134997,0.49555,0
2024-11-29 18:18:57.743,1.33819,3.39482,9.77259,-0.0915507,0.161264,0.479668,0
2024-11-29 18:18:57.746,1.32144,3.45942,9.73669,-0.0897182,0.183254,0.462564,0
2024-11-29 18:18:57.748,1.30708,3.50728,9.7008,-0.0897182,0.202801,0.449125,0
2024-11-29 18:18:57.750,1.29751,3.55992,9.63141,-0.0872748,0.220516,0.432633,0
2024-11-29 18:18:57.753,1.29512,3.59821,9.57159,-0.0897182,0.235176,0.417972,0
2024-11-29 18:18:57.755,1.30708,3.61974,9.54288,-0.0891073,0.246171,0.40209,0
2024-11-29 18:18:57.758,1.35494,3.64876,9.51416,-0.0884965,0.252891,0.384986,0
2024-11-29 18:18:57.760,1.40279,3.65833,9.49263,-0.0933833,0.254112,0.366661,0
2024-11-29 18:18:57.763,1.41745,3.67508,9.47827,-0.0982701,0.241285,0.324513,0
2024-11-29 18:18:57.766,1.44138,3.69183,9.46152,-0.0982701,0.241285,0.324513,0
2024-11-29 18:18:57.768,1.45813,3.69422,9.45434,-0.103768,0.213186,0.283586,0
2024-11-29 18:18:57.770,1.45813,3.71336,9.46631,-0.103768,0.213186,0.283586,0
2024-11-29 18:18:57.772,1.4677,3.74447,9.48306,-0.104989,0.192417,0.259763,0
2024-11-29 18:18:57.775,1.45813,3.76361,9.49981,-0.1056,0.169205,0.237161,0
2024-11-29 18:18:57.776,1.42223,3.78754,9.52852,-0.107433,0.147214,0.215782,0
2024-11-29 18:18:57.779,1.39561,3.82343,9.57877,-0.106211,0.123391,0.19318,0
2024-11-29 18:18:57.782,1.39083,3.85454,9.65055,-0.101935,0.0726908,0.150421,0
2024-11-29 18:18:57.783,1.39322,3.87607,9.72952,-0.101935,0.0726908,0.150421,0
2024-11-29 18:18:57.787,1.38365,3.89043,9.83988,-0.0952158,0.0476461,0.128431,0
2024-11-29 18:18:57.788,1.36451,3.91197,9.95713,-0.0860531,0.023823,0.107662,0
2024-11-29 18:18:57.791,1.33819,3.9335,10.0361,-0.0756687,0.00122169,0.0887256,0
2024-11-29 18:18:57.794,1.29512,3.967,10.1175,-0.0457372,-0.0354291,0.0490205,0
2024-11-29 18:18:57.796,1.23769,3.99811,10.2227,-0.0457372,-0.0354291,0.0490205,0
2024-11-29 18:18:57.800,1.14915,4.04836,10.3735,-0.0139731,-0.0635281,0.0154239,0
2024-11-29 18:18:57.801,1.14915,4.04836,10.3735,0.00557398,-0.0775776,0.000763559,0
2024-11-29 18:18:57.803,1.08455,4.06989,10.4145,0.021456,-0.0910162,-0.0114534,0
2024-11-29 18:18:57.806,1.0343,4.09382,10.4671,0.021456,-0.0910162,-0.0114534,0
2024-11-29 18:18:57.808,0.99362,4.09382,10.4982,0.057496,-0.119726,-0.0340547,0
2024-11-29 18:18:57.810,0.938585,4.08903,10.5078,0.0727672,-0.130721,-0.0432174,0
2024-11-29 18:18:57.813,0.88355,4.09861,10.5197,0.0862058,-0.14416,-0.0499368,0
2024-11-29 18:18:57.814,0.835394,4.11057,10.5174,0.0862058,-0.14416,-0.0499368,0
2024-11-29 18:18:57.816,0.801895,4.10339,10.5102,0.0984228,-0.156988,-0.0548235,0
2024-11-29 18:18:57.819,0.777966,4.09861,10.5078,0.105753,-0.169816,-0.0621537,0
2024-11-29 18:18:57.821,0.761217,4.10578,10.4958,0.113694,-0.185698,-0.068873,0
2024-11-29 18:18:57.824,0.739681,4.11057,10.4958,0.121635,-0.204023,-0.0725381,0
2024-11-29 18:18:57.827,0.742074,4.11057,10.5102,0.127133,-0.238841,-0.0823117,0
2024-11-29 18:18:57.828,0.749253,4.11296,10.5174,0.127133,-0.238841,-0.0823117,0
2024-11-29 18:18:57.830,0.732503,4.12253,10.5317,0.127743,-0.257778,-0.0884201,0
2024-11-29 18:18:57.833,0.720539,4.12014,10.5437,0.124078,-0.273049,-0.096972,0
2024-11-29 18:18:57.835,0.739681,4.12014,10.5652,0.123468,-0.288931,-0.104302,0
2024-11-29 18:18:57.838,0.739681,4.11536,10.6107,0.122246,-0.304813,-0.1098,0
2024-11-29 18:18:57.841,0.722932,4.10578,10.6585,0.117359,-0.318251,-0.118352,0
2024-11-29 18:18:57.842,0.710967,4.08664,10.716,0.110029,-0.332912,-0.125071,0
2024-11-29 18:18:57.845,0.696611,4.06511,10.783,0.104531,-0.347572,-0.132401,0
2024-11-29 18:18:57.847,0.689432,4.05075,10.8619,0.0978119,-0.361011,-0.140953,0
2024-11-29 18:18:57.849,0.687039,4.01725,10.9508,0.0892601,-0.372617,-0.147672,0
2024-11-29 18:18:57.852,0.689432,3.99332,11.0704,0.0837624,-0.385445,-0.156224,0
2024-11-29 18:18:57.854,0.689432,3.95982,11.1876,0.0752106,-0.394607,-0.162944,0
2024-11-29 18:18:57.857,0.682254,3.91675,11.3001,0.0684913,-0.404992,-0.171495,0
2024-11-29 18:18:57.859,0.682254,3.88564,11.4245,0.0636045,-0.414154,-0.175771,0
2024-11-29 18:18:57.862,0.691825,3.84975,11.5397,0.0532201,-0.426371,-0.188599,0
2024-11-29 18:18:57.864,0.703789,3.7995,11.6761,0.0532201,-0.426371,-0.188599,0
2024-11-29 18:18:57.867,0.71336,3.75404,11.8005,0.0519984,-0.430036,-0.195929,0
2024-11-29 18:18:57.869,0.725324,3.7014,11.9106,0.0501658,-0.431258,-0.208757,0
2024-11-29 18:18:57.872,0.756431,3.64606,12.0494,0.0501658,-0.431258,-0.208757,0
2024-11-29 18:18:57.873,0.804287,3.58864,12.1789,0.049555,-0.429426,-0.213644,0
2024-11-29 18:18:57.878,0.871586,3.45942,12.3727,0.0550526,-0.417209,-0.228304,0
2024-11-29 18:18:57.878,0.871586,3.45942,12.3727,0.0550526,-0.417209,-0.228304,0
2024-11-29 18:18:57.880,0.895514,3.39242,12.4875,0.0599394,-0.406213,-0.233191,0
2024-11-29 18:18:57.883,0.890728,3.32064,12.6096,0.0721563,-0.378725,-0.244797,0
2024-11-29 18:18:57.886,0.885943,3.25603,12.7152,0.0721563,-0.378725,-0.244797,0
2024-11-29 18:18:57.887,0.885943,3.22253,12.8013,0.0788757,-0.3604,-0.246019,0
2024-11-29 18:18:57.893,0.864407,3.13639,12.9903,0.116137,-0.291374,-0.255181,0
2024-11-29 18:18:57.893,0.835394,3.13639,12.9903,0.116137,-0.291374,-0.255181,0
2024-11-29 18:18:57.895,0.799502,3.11246,13.0549,0.116137,-0.291374,-0.255181,0
2024-11-29 18:18:57.896,0.754038,3.08854,13.1076,0.132019,-0.263886,-0.257014,0
2024-11-29 18:18:57.899,0.691825,3.04756,13.1411,0.147901,-0.235176,-0.256403,0
2024-11-29 18:18:57.901,0.639183,2.99492,13.1435,0.165616,-0.205856,-0.255181,0
2024-11-29 18:18:57.904,0.584148,2.94227,13.1148,0.18272,-0.175313,-0.253349,0
2024-11-29 18:18:57.906,0.52672,2.87049,13.0621,0.200434,-0.145992,-0.247851,0
2024-11-29 18:18:57.908,0.474078,2.79871,12.9903,0.215705,-0.120337,-0.242964,0
2024-11-29 18:18:57.911,0.445364,2.72692,12.8874,0.22609,-0.0971247,-0.238078,0
2024-11-29 18:18:57.914,0.428614,2.64796,12.7606,0.23342,-0.0849078,-0.233802,0
2024-11-29 18:18:57.916,0.3999,2.58574,12.6625,0.237696,-0.0787993,-0.223417,0
2024-11-29 18:18:57.919,0.402293,2.51127,12.5617,0.237696,-0.0787993,-0.223417,0
2024-11-29 18:18:57.920,0.426222,2.41795,12.4421,0.235863,-0.0836861,-0.221585,0
2024-11-29 18:18:57.923,0.469292,2.32702,12.3416,0.229144,-0.0989573,-0.219141,0
2024-11-29 18:18:57.925,0.514756,2.26959,12.2578,0.223036,-0.123391,-0.220363,0
2024-11-29 18:18:57.928,0.576969,2.20259,12.1693,0.191882,-0.188752,-0.224028,0
2024-11-29 18:18:57.930,0.677468,2.11884,12.1119,0.191882,-0.188752,-0.224028,0
2024-11-29 18:18:57.933,0.782752,2.05185,12.0832,0.171724,-0.232733,-0.230137,0
2024-11-29 18:18:57.934,0.907478,1.98245,12.0664,0.149123,-0.284044,-0.23991,0
2024-11-29 18:18:57.937,1.06062,1.91276,12.1047,0.120413,-0.339631,-0.252127,0
2024-11-29 18:18:57.939,1.24247,1.82662,12.1597,0.120413,-0.339631,-0.252127,0
2024-11-29 18:18:57.942,1.44616,1.75484,12.2387,0.0642153,-0.465466,-0.293054,0
2024-11-29 18:18:57.944,1.64955,1.69741,12.3631,0.0318404,-0.528383,-0.316877,0
2024-11-29 18:18:57.949,2.0351,1.54666,12.7199,-0.0243575,-0.642611,-0.37674,0
2024-11-29 18:18:57.949,2.0351,1.54666,12.7199,-0.0243575,-0.642611,-0.37674,0
2024-11-29 18:18:57.951,2.20977,1.4677,12.9449,-0.0518457,-0.687814,-0.410948,0
2024-11-29 18:18:57.954,2.37248,1.39322,13.1916,-0.0762796,-0.725076,-0.446987,0
2024-11-29 18:18:57.955,2.52832,1.31186,13.4189,-0.0964375,-0.751342,-0.482417,0
2024-11-29 18:18:57.959,2.68385,1.22572,13.6319,-0.114152,-0.770889,-0.519067,0
2024-11-29 18:18:57.963,2.6001,1.20658,13.7037,-0.14836,-0.772111,-0.591147,0
2024-11-29 18:18:57.963,2.6001,1.20658,13.7037,-0.14836,-0.772111,-0.591147,0
2024-11-29 18:18:57.965,2.57857,1.19222,13.7037,-0.16302,-0.751342,-0.614971,0
2024-11-29 18:18:57.968,2.78435,1.02951,13.9433,-0.192341,-0.726908,-0.669947,0
2024-11-29 18:18:57.970,2.96381,0.859622,14.1515,-0.192341,-0.726908,-0.669947,0
2024-11-29 18:18:57.972,3.09811,0.689432,14.2783,-0.204557,-0.712248,-0.702322,0
2024-11-29 18:18:57.977,3.27996,0.299402,14.4915,-0.213109,-0.639557,-0.766461,0
2024-11-29 18:18:57.978,3.27996,0.299402,14.4915,-0.213109,-0.639557,-0.766461,0
2024-11-29 18:18:57.980,3.29432,0.141177,14.5777,-0.196006,-0.491732,-0.83121,0
2024-11-29 18:18:57.982,3.24407,-0.0119641,14.6327,-0.196006,-0.491732,-0.83121,0
2024-11-29 18:18:57.984,3.1675,-0.155533,14.659,-0.176459,-0.387888,-0.857477,0
2024-11-29 18:18:57.986,3.08345,-0.292223,14.6854,-0.150803,-0.268773,-0.881911,0
2024-11-29 18:18:57.989,3.0021,-0.421436,14.683,-0.0817772,-0.00366508,-0.915507,1
2024-11-29 18:18:57.992,2.88963,-0.555434,14.6064,-0.0817772,-0.00366508,-0.915507,0
2024-11-29 18:18:57.993,2.73888,-0.672682,14.4963,-0.0408504,0.141106,-0.926503,0
2024-11-29 18:18:57.996,2.55224,-0.751645,14.3695,0.00435229,0.285877,-0.931389,0
2024-11-29 18:18:57.998,2.30788,-0.825823,14.1634,0.0550526,0.434923,-0.932611,0
2024-11-29 18:18:58.001,2.01595,-0.876371,13.9002,0.105753,0.586413,-0.925281,0
2024-11-29 18:18:58.002,1.66152,-0.905085,13.608,0.157064,0.736682,-0.908788,0
2024-11-29 18:18:58.006,1.30947,-0.938585,13.2802,0.264573,1.02256,-0.861753,0
2024-11-29 18:18:58.007,0.972084,-0.931406,12.909,0.264573,1.02256,-0.861753,0
2024-11-29 18:18:58.011,0.63679,-0.890728,12.5163,0.317106,1.15633,-0.828156,0
2024-11-29 18:18:58.012,0.311366,-0.8668,12.0927,0.367806,1.27911,-0.793338,0
2024-11-29 18:18:58.015,0.00239282,-0.828216,11.6091,0.413009,1.39403,-0.748135,0
2024-11-29 18:18:58.017,-0.263211,-0.794716,11.1087,0.453936,1.49482,-0.699878,0
2024-11-29 18:18:58.020,-0.481256,-0.789931,10.6298,0.492419,1.58461,-0.644902,0
2024-11-29 18:18:58.022,-0.655932,-0.787538,10.1438,0.523572,1.65914,-0.59298,0
2024-11-29 18:18:58.025,-0.825823,-0.799502,9.63859,0.564499,1.75504,-0.482417,0
2024-11-29 18:18:58.027,-0.979263,-0.811466,9.14297,0.574273,1.77886,-0.428051,0
2024-11-29 18:18:58.029,-1.09651,-0.794716,8.67129,0.574273,1.77886,-0.428051,0
2024-11-29 18:18:58.032,-1.2018,-0.775574,8.22144,0.576716,1.78131,-0.374907,0
2024-11-29 18:18:58.034,-1.27119,-0.76361,7.82154,0.562667,1.73916,-0.270453,0
2024-11-29 18:18:58.036,-1.30469,-0.744467,7.45514,0.562667,1.73916,-0.270453,0
2024-11-29 18:18:58.039,-1.32861,-0.691825,7.11296,0.523572,1.6286,-0.179436,0
2024-11-29 18:18:58.041,-1.33819,-0.627219,6.8016,0.496084,1.55224,-0.13912,0
2024-11-29 18:18:58.043,-1.33579,-0.565005,6.51446,0.496084,1.55224,-0.13912,0
2024-11-29 18:18:58.046,-1.31426,-0.474078,6.26291,0.460655,1.46183,-0.101859,0
2024-11-29 18:18:58.050,-1.23529,-0.263211,5.89442,0.381856,1.24674,-0.0303897,0
2024-11-29 18:18:58.051,-1.23529,-0.263211,5.89442,0.33421,1.12701,0.000763559,0
2024-11-29 18:18:58.053,-1.18744,-0.138784,5.78166,0.285953,0.992016,0.0288625,0
2024-11-29 18:18:58.055,-0.869193,-0.184247,5.91117,0.247469,0.828309,0.0392469,0
2024-11-29 18:18:58.057,-0.359223,-0.328116,6.35145,0.247469,0.828309,0.0392469,0
2024-11-29 18:18:58.060,-0.184247,-0.272782,6.56232,0.216316,0.656661,0.0380252,0
2024-11-29 18:18:58.061,-0.275175,-0.0765703,6.48814,0.185774,0.511279,0.0374144,0
2024-11-29 18:18:58.065,-0.347258,0.157926,6.51685,0.160118,0.385445,0.0392469,0
2024-11-29 18:18:58.066,-0.409472,0.423829,6.63889,0.13935,0.272438,0.0459663,0
2024-11-29 18:18:58.069,-0.3999,0.682254,6.84228,0.121024,0.163096,0.0557398,0
2024-11-29 18:18:58.071,-0.299402,0.902692,7.09861,0.105142,0.0525329,0.0655134,0
2024-11-29 18:18:58.073,-0.177069,1.04387,7.36182,0.093536,-0.0616956,0.0758978,0
2024-11-29 18:18:58.076,-0.0358923,1.11087,7.60858,0.0849841,-0.175924,0.0813954,0
2024-11-29 18:18:58.079,0.119641,1.1348,7.79761,0.077654,-0.285266,0.086893,0
2024-11-29 18:18:58.081,0.299402,1.11565,7.94836,0.0764323,-0.467909,0.0875039,0
2024-11-29 18:18:58.083,0.505185,1.05105,8.09193,0.0764323,-0.467909,0.0875039,0
2024-11-29 18:18:58.085,0.742074,0.981655,8.24537,0.0807082,-0.539989,0.0783412,0
2024-11-29 18:18:58.088,1.00798,0.905085,8.40808,0.0849841,-0.602295,0.0655134,0
2024-11-29 18:18:58.091,1.24487,0.833001,8.57558,0.107585,-0.696977,0.0227541,0
2024-11-29 18:18:58.095,1.43659,0.71336,8.88694,0.121635,-0.734849,-0.00290152,0
2024-11-29 18:18:58.095,1.5993,0.71336,8.88694,0.121635,-0.734849,-0.00290152,0
2024-11-29 18:18:58.098,1.72852,0.679861,9.00898,0.138739,-0.76417,-0.032833,0
2024-11-29 18:18:58.100,1.84576,0.660718,9.09751,0.176611,-0.80754,-0.0933069,0
2024-11-29 18:18:58.102,1.91516,0.65354,9.16212,0.176611,-0.80754,-0.0933069,0
2024-11-29 18:18:58.105,1.92233,0.663111,9.18365,0.213873,-0.823422,-0.154392,0
2024-11-29 18:18:58.106,1.91037,0.677468,9.18126,0.213873,-0.823422,-0.154392,0
2024-11-29 18:18:58.108,1.87687,0.682254,9.15255,0.230366,-0.819757,-0.183101,0
2024-11-29 18:18:58.112,1.81466,0.691825,9.09512,0.252967,-0.799599,-0.233802,0
2024-11-29 18:18:58.113,1.73569,0.696611,9.01137,0.252967,-0.799599,-0.233802,0
2024-11-29 18:18:58.116,1.6352,0.706182,8.91326,0.259076,-0.783106,-0.253349,0
2024-11-29 18:18:58.119,1.51555,0.727717,8.8008,0.256632,-0.74951,-0.288167,0
2024-11-29 18:18:58.121,1.38844,0.744467,8.68565,0.248691,-0.733017,-0.298552,0
2024-11-29 18:18:58.123,1.2664,0.761217,8.57079,0.248691,-0.733017,-0.298552,0
2024-11-29 18:18:58.126,1.14437,0.797109,8.46072,0.217538,-0.696977,-0.316266,0
2024-11-29 18:18:58.128,1.00319,0.82343,8.36501,0.19738,-0.681706,-0.318099,0
2024-11-29 18:18:58.131,0.8668,0.833001,8.27647,0.19738,-0.681706,-0.318099,0
2024-11-29 18:18:58.132,0.749253,0.852443,8.22144,0.17539,-0.665213,-0.316877,0
2024-11-29 18:18:58.134,0.648754,0.876371,8.20708,0.152788,-0.648109,-0.315655,0
2024-11-29 18:18:58.137,0.569791,0.888335,8.19033,0.124689,-0.631616,-0.311379,0
2024-11-29 18:18:58.140,0.507577,0.897907,8.19273,0.0996445,-0.615123,-0.306493,0
2024-11-29 18:18:58.142,0.457328,0.917049,8.22862,0.0764323,-0.593133,-0.300384,0
2024-11-29 18:18:58.145,0.431007,0.924228,8.27408,0.0513875,-0.56931,-0.294276,0
2024-11-29 18:18:58.147,0.419043,0.933799,8.31237,0.0116825,-0.514333,-0.284502,0
2024-11-29 18:18:58.149,0.41665,0.945763,8.34826,0.0116825,-0.514333,-0.284502,0
2024-11-29 18:18:58.152,0.409472,0.957727,8.41047,-0.00603212,-0.479515,-0.279615,0
2024-11-29 18:18:58.153,0.3999,0.957727,8.4679,-0.0219141,-0.443475,-0.274729,0
2024-11-29 18:18:58.157,0.404686,0.96012,8.50858,-0.0451263,-0.364676,-0.263122,0
2024-11-29 18:18:58.159,0.402293,0.991227,8.54926,-0.0451263,-0.364676,-0.263122,0
2024-11-29 18:18:58.160,0.392722,1.01755,8.59233,-0.0548999,-0.323749,-0.255181,0
2024-11-29 18:18:58.164,0.366401,1.07258,8.57079,-0.0683385,-0.221738,-0.238689,0
2024-11-29 18:18:58.166,0.294616,1.1994,8.38415,-0.0811663,-0.160042,-0.224639,0
2024-11-29 18:18:58.168,0.222533,1.28794,8.22622,-0.0811663,-0.160042,-0.224639,0
2024-11-29 18:18:58.171,0.246461,1.29751,8.27647,-0.0933833,-0.102622,-0.208146,0
2024-11-29 18:18:58.172,0.30658,1.29512,8.35065,-0.103157,-0.064139,-0.195929,0
2024-11-29 18:18:58.175,0.30658,1.25922,8.34108,-0.11293,-0.0348183,-0.182491,0
2024-11-29 18:18:58.177,0.313759,1.22333,8.31715,-0.124536,-0.00733017,-0.170885,0
2024-11-29 18:18:58.179,0.380758,1.20419,8.34347,-0.131256,0.0140495,-0.1605,0
2024-11-29 18:18:58.182,0.454935,1.17308,8.40569,-0.137364,0.0378725,-0.15317,0
2024-11-29 18:18:58.185,0.519542,1.15872,8.47986,-0.134921,0.0891837,-0.141564,0
2024-11-29 18:18:58.187,0.612862,1.17069,8.55404,-0.134921,0.0891837,-0.141564,0
2024-11-29 18:18:58.190,0.715753,1.18505,8.62104,-0.12698,0.121559,-0.13912,0
2024-11-29 18:18:58.192,0.787538,1.19462,8.6689,-0.113541,0.155155,-0.135455,0
2024-11-29 18:18:58.194,0.82343,1.22812,8.68804,-0.0799446,0.230289,-0.132401,0
2024-11-29 18:18:58.197,0.804287,1.28076,8.67608,-0.0591758,0.268162,-0.129958,0
2024-11-29 18:18:58.199,0.749253,1.30469,8.65215,-0.0591758,0.268162,-0.129958,0
2024-11-29 18:18:58.200,0.710967,1.32144,8.62104,-0.0390179,0.30298,-0.126904,0
2024-11-29 18:18:58.204,0.679861,1.34536,8.56361,-0.0164165,0.332301,-0.120795,0
2024-11-29 18:18:58.205,0.65354,1.3669,8.47986,0.00496313,0.359789,-0.118963,0
2024-11-29 18:18:58.208,0.62004,1.41745,8.37697,0.0238994,0.384223,-0.113465,0
2024-11-29 18:18:58.211,0.576969,1.47727,8.25972,0.0636045,0.420874,-0.10308,0
2024-11-29 18:18:58.213,0.538684,1.5347,8.12064,0.0636045,0.420874,-0.10308,0
2024-11-29 18:18:58.217,0.438186,1.63041,7.84068,0.0917034,0.445308,-0.0896418,0
2024-11-29 18:18:58.218,0.438186,1.63041,7.84068,0.0917034,0.445308,-0.0896418,0
2024-11-29 18:18:58.219,0.411865,1.68066,7.70908,0.10331,0.453249,-0.0841442,0
2024-11-29 18:18:58.223,0.395115,1.72134,7.59422,0.113694,0.456303,-0.0786466,0
2024-11-29 18:18:58.225,0.395115,1.73809,7.47189,0.127743,0.455692,-0.0664296,0
2024-11-29 18:18:58.226,0.407079,1.75484,7.34507,0.127743,0.455692,-0.0664296,0
2024-11-29 18:18:58.229,0.423829,1.77876,7.21586,0.130798,0.451416,-0.0645971,0
2024-11-29 18:18:58.232,0.442971,1.77637,7.10579,0.133241,0.434312,-0.0603212,0
2024-11-29 18:18:58.233,0.4669,1.76919,7.0026,0.133241,0.434312,-0.0603212,0
2024-11-29 18:18:58.237,0.481256,1.78594,6.88295,0.126522,0.414154,-0.0664296,0
2024-11-29 18:18:58.238,0.493221,1.8003,6.7681,0.126522,0.414154,-0.0664296,0
2024-11-29 18:18:58.240,0.512363,1.8338,6.65803,0.119802,0.40377,-0.068873,0
2024-11-29 18:18:58.243,0.524327,1.87687,6.55274,0.110029,0.393386,-0.0713164,0
2024-11-29 18:18:58.245,0.524327,1.90558,6.4666,0.102699,0.384223,-0.0774249,0
2024-11-29 18:18:58.248,0.524327,1.94626,6.39213,0.0886492,0.370784,-0.0835334,0
2024-11-29 18:18:58.251,0.52672,1.98485,6.33231,0.0764323,0.359178,-0.0884201,0
2024-11-29 18:18:58.252,0.521934,2.01835,6.27727,0.0605502,0.345129,-0.0939178,0
2024-11-29 18:18:58.255,0.500399,2.06381,6.23659,0.0434465,0.329858,-0.100026,0
2024-11-29 18:18:58.258,0.490828,2.09013,6.19831,0.0232886,0.312143,-0.106135,0
2024-11-29 18:18:58.259,0.486042,2.11406,6.15045,0.00435229,0.291985,-0.111632,0
2024-11-29 18:18:58.263,0.4669,2.15234,6.13609,-0.0164165,0.270605,-0.11713,0
2024-11-29 18:18:58.264,0.454935,2.21216,6.15284,-0.0402396,0.248004,-0.12446,0
2024-11-29 18:18:58.267,0.438186,2.25045,6.18156,-0.0817772,0.197304,-0.136677,0
2024-11-29 18:18:58.270,0.414257,2.2672,6.24377,-0.106822,0.171648,-0.145229,0
2024-11-29 18:18:58.271,0.387936,2.31506,6.31316,-0.106822,0.171648,-0.145229,0
2024-11-29 18:18:58.274,0.380758,2.34616,6.37298,-0.128202,0.147825,-0.15317,0
2024-11-29 18:18:58.276,0.373579,2.38445,6.44716,-0.14836,0.124613,-0.157446,0
2024-11-29 18:18:58.279,0.337687,2.42513,6.52164,-0.169128,0.10079,-0.162333,0
2024-11-29 18:18:58.280,0.299402,2.44188,6.61974,-0.185621,0.0812427,-0.16783,0
2024-11-29 18:18:58.284,0.27996,2.46102,6.74896,-0.200282,0.0592522,-0.173328,0
2024-11-29 18:18:58.286,0.253639,2.47777,6.89013,-0.21372,0.0415376,-0.176382,0
2024-11-29 18:18:58.288,0.234497,2.49452,7.02682,-0.225937,0.023823,-0.177604,0
2024-11-29 18:18:58.291,0.210568,2.51127,7.16321,-0.236322,0.00916271,-0.179436,0
2024-11-29 18:18:58.292,0.179462,2.5331,7.30918,-0.243041,-0.00122169,-0.178215,0
2024-11-29 18:18:58.296,0.153141,2.54985,7.44796,-0.245484,-0.00733017,-0.180047,0
2024-11-29 18:18:58.298,0.133998,2.55703,7.55564,-0.246706,-0.0122169,-0.17516,0
2024-11-29 18:18:58.300,0.117248,2.55942,7.64208,-0.247928,-0.0128278,-0.170274,0
2024-11-29 18:18:58.302,0.0789631,2.55703,7.72822,-0.250371,-0.0140495,-0.162333,0
2024-11-29 18:18:58.304,0.0358923,2.5666,7.80718,-0.246095,-0.0122169,-0.156224,0
2024-11-29 18:18:58.306,0.00239282,2.58096,7.89093,-0.241819,-0.0116061,-0.14584,0
2024-11-29 18:18:58.309,-0.0430708,2.60489,7.98664,-0.237543,-0.0128278,-0.134234,0
2024-11-29 18:18:58.311,-0.0933201,2.62642,8.07996,-0.232656,-0.0134386,-0.12446,0
2024-11-29 18:18:58.314,-0.12682,2.64317,8.1688,-0.22777,-0.0164929,-0.110411,0
2024-11-29 18:18:58.317,-0.148355,2.67189,8.25733,-0.208833,-0.0134386,-0.0841442,0
2024-11-29 18:18:58.319,-0.150748,2.7006,8.34587,-0.208833,-0.0134386,-0.0841442,0
2024-11-29 18:18:58.321,-0.150748,2.7341,8.42722,-0.19906,-0.00916271,-0.0682622,0
2024-11-29 18:18:58.323,-0.16989,2.76281,8.49183,-0.189286,-0.00488678,-0.0511585,0
2024-11-29 18:18:58.326,-0.193819,2.78913,8.54208,-0.180124,0.000610847,-0.0377198,0
2024-11-29 18:18:58.328,-0.210568,2.81785,8.58993,-0.167907,0.00671932,-0.0206161,0
2024-11-29 18:18:58.330,-0.22014,2.83699,8.64736,-0.158133,0.0122169,-0.00412322,0
2024-11-29 18:18:58.332,-0.227318,2.87049,8.7027,-0.145916,0.0171037,0.014813,0
2024-11-29 18:18:58.336,-0.241675,2.90638,8.74577,-0.131256,0.0232122,0.0490205,0
2024-11-29 18:18:58.338,-0.239282,2.94945,8.77687,-0.131256,0.0232122,0.0490205,0
2024-11-29 18:18:58.340,-0.22014,3.0021,8.81037,-0.124536,0.0250447,0.0649025,0
2024-11-29 18:18:58.343,-0.193819,3.02842,8.84866,-0.120261,0.0262664,0.078952,0
2024-11-29 18:18:58.344,-0.174676,3.04756,8.89891,-0.115374,0.0226013,0.0936123,0
2024-11-29 18:18:58.347,-0.150748,3.08854,8.94676,-0.109265,0.020158,0.108273,0
2024-11-29 18:18:58.350,-0.133998,3.14118,8.98026,-0.1056,0.00733017,0.132707,0
2024-11-29 18:18:58.352,-0.112463,3.17946,9.03051,-0.1056,0.00733017,0.132707,0
2024-11-29 18:18:58.353,-0.0765703,3.19861,9.09273,-0.102546,-0.00305424,0.14248,0
2024-11-29 18:18:58.357,-0.0526421,3.23928,9.15733,-0.103157,-0.0164929,0.153475,0
2024-11-29 18:18:58.359,-0.0334995,3.27039,9.2339,-0.103768,-0.0342074,0.162638,0
2024-11-29 18:18:58.362,0.00957129,3.27996,9.33949,-0.106211,-0.0726908,0.174855,0
2024-11-29 18:18:58.363,0.0646062,3.3015,9.45913,-0.106211,-0.0726908,0.174855,0
2024-11-29 18:18:58.366,0.107677,3.32782,9.59313,-0.106822,-0.117894,0.180964,0
2024-11-29 18:18:58.369,0.153141,3.3685,9.71994,-0.106822,-0.117894,0.180964,0
2024-11-29 18:18:58.371,0.200997,3.402,9.85664,-0.1056,-0.160653,0.187683,0
2024-11-29 18:18:58.372,0.248854,3.42353,10.0026,-0.1056,-0.160653,0.187683,0
2024-11-29 18:18:58.376,0.30658,3.44746,10.1533,-0.104379,-0.196693,0.186461,0
2024-11-29 18:18:58.378,0.364008,3.46421,10.3352,-0.104379,-0.196693,0.186461,0
2024-11-29 18:18:58.379,0.411865,3.49053,10.5341,-0.0988809,-0.211353,0.18585,0
2024-11-29 18:18:58.382,0.4669,3.48814,10.7207,-0.0933833,-0.22357,0.185239,0
2024-11-29 18:18:58.385,0.538684,3.46182,10.9193,-0.0817772,-0.241896,0.176077,0
2024-11-29 18:18:58.386,0.591326,3.44267,11.1063,-0.0817772,-0.241896,0.176077,0
2024-11-29 18:18:58.390,0.63679,3.42832,11.2642,-0.0658951,-0.248615,0.167525,0
2024-11-29 18:18:58.391,0.670289,3.41157,11.4365,-0.0658951,-0.248615,0.167525,0
2024-11-29 18:18:58.393,0.691825,3.38764,11.6163,-0.0567324,-0.249837,0.160195,0
2024-11-29 18:18:58.396,0.718146,3.37807,11.7957,-0.0451263,-0.248615,0.154086,0
2024-11-29 18:18:58.399,0.727717,3.35892,11.9728,-0.0335202,-0.243728,0.148589,0
2024-11-29 18:18:58.402,0.725324,3.33978,12.1286,-0.0237467,-0.23823,0.141258,0
2024-11-29 18:18:58.404,0.718146,3.33021,12.2889,0.00129805,-0.219905,0.133317,0
2024-11-29 18:18:58.406,0.706182,3.32064,12.4469,0.0153475,-0.210742,0.12782,0
2024-11-29 18:18:58.408,0.672682,3.28953,12.5833,0.0153475,-0.210742,0.12782,0
2024-11-29 18:18:58.410,0.63679,3.24885,12.7343,0.0318404,-0.197915,0.126598,0
2024-11-29 18:18:58.413,0.624826,3.22014,12.8827,0.0458899,-0.183865,0.124766,0
2024-11-29 18:18:58.415,0.608076,3.18664,12.9999,0.0617719,-0.168594,0.122933,0
2024-11-29 18:18:58.418,0.596112,3.14357,13.098,0.0965902,-0.133776,0.125987,0
2024-11-29 18:18:58.420,0.569791,3.09332,13.2036,0.0965902,-0.133776,0.125987,0
2024-11-29 18:18:58.422,0.529113,3.05952,13.3065,0.114305,-0.111785,0.126598,0
2024-11-29 18:18:58.425,0.505185,3.02602,13.3687,0.149123,-0.0671932,0.132707,0
2024-11-29 18:18:58.426,0.464507,2.99013,13.4142,0.149123,-0.0671932,0.132707,0
2024-11-29 18:18:58.430,0.404686,2.94945,13.4764,0.18272,-0.0262664,0.146756,0
2024-11-29 18:18:58.431,0.352044,2.90638,13.5314,0.18272,-0.0262664,0.146756,0
2024-11-29 18:18:58.435,0.316152,2.87767,13.5553,0.210208,0.0116061,0.166303,0
2024-11-29 18:18:58.437,0.308973,2.84417,13.5553,0.210208,0.0116061,0.166303,0
2024-11-29 18:18:58.439,0.308973,2.80349,13.5673,0.210208,0.0116061,0.166303,0
2024-11-29 18:18:58.441,0.320937,2.76521,13.5793,0.235863,0.0354291,0.191348,0
2024-11-29 18:18:58.444,0.344866,2.71017,13.5888,0.246859,0.0470352,0.202954,0
2024-11-29 18:18:58.449,0.421436,2.62642,13.6008,0.265184,0.0769668,0.245713,0
2024-11-29 18:18:58.449,0.421436,2.62642,13.6008,0.265184,0.0769668,0.245713,0
2024-11-29 18:18:58.451,0.4669,2.60489,13.6104,0.265184,0.0769668,0.245713,0
2024-11-29 18:18:58.453,0.507577,2.58574,13.6152,0.26946,0.0934596,0.259152,0
2024-11-29 18:18:58.457,0.591326,2.61207,13.6582,0.275568,0.134386,0.289694,0
2024-11-29 18:18:58.458,0.591326,2.61207,13.6582,0.278012,0.161264,0.302522,0
2024-11-29 18:18:58.460,0.634397,2.62881,13.6869,0.278012,0.161264,0.302522,0
2024-11-29 18:18:58.463,0.679861,2.64796,13.6941,0.279234,0.193028,0.318404,0
2024-11-29 18:18:58.465,0.734896,2.68864,13.6822,0.287785,0.269384,0.343449,0
2024-11-29 18:18:58.467,0.756431,2.7341,13.6869,0.287785,0.269384,0.343449,0
2024-11-29 18:18:58.470,0.770788,2.78196,13.6774,0.293894,0.364065,0.362996,0
2024-11-29 18:18:58.471,0.789931,2.8322,13.6367,0.293894,0.364065,0.362996,0
2024-11-29 18:18:58.475,0.782752,2.88006,13.5625,0.298781,0.41843,0.371548,0
2024-11-29 18:18:58.477,0.76361,2.92313,13.462,0.302446,0.478293,0.378267,0
2024-11-29 18:18:58.478,0.732503,2.97099,13.328,0.302446,0.478293,0.378267,0
2024-11-29 18:18:58.482,0.694218,3.03559,13.1722,0.3055,0.678651,0.386208,0
2024-11-29 18:18:58.483,0.632004,3.08854,12.9999,0.3055,0.678651,0.386208,0
2024-11-29 18:18:58.486,0.545863,3.12921,12.7869,0.303667,0.745844,0.390484,0
2024-11-29 18:18:58.488,0.474078,3.1675,12.5665,0.295726,0.806929,0.395371,0
2024-11-29 18:18:58.491,0.387936,3.20578,12.3153,0.282288,0.86496,0.399647,0
2024-11-29 18:18:58.492,0.27996,3.24885,12.0589,0.263352,0.91566,0.404534,0
2024-11-29 18:18:58.495,0.184247,3.27996,11.8244,0.24075,0.952311,0.406366,0
2024-11-29 18:18:58.498,0.107677,3.29671,11.5923,0.214484,0.976745,0.410642,0
2024-11-29 18:18:58.499,0.0430708,3.2991,11.3767,0.180887,0.987129,0.413696,0
2024-11-29 18:18:58.502,0.0215354,3.28953,11.1996,0.142404,0.982853,0.413696,0
2024-11-29 18:18:58.505,0.0191426,3.28953,11.0656,0.102699,0.966971,0.411864,0
2024-11-29 18:18:58.507,-0.0502493,3.4331,10.8835,0.0587177,0.936429,0.408199,0
2024-11-29 18:18:58.510,-0.0622134,3.59103,10.7255,-0.042683,0.845413,0.389873,0
2024-11-29 18:18:58.511,0.0167498,3.6006,10.7136,-0.042683,0.845413,0.389873,0
2024-11-29 18:18:58.515,0.0933201,3.59821,10.7351,-0.0921616,0.792269,0.372159,0
2024-11-29 18:18:58.516,0.162712,3.61017,10.7997,-0.139808,0.728741,0.35139,0
2024-11-29 18:18:58.519,0.232104,3.60539,10.9241,-0.185621,0.659104,0.328789,0
2024-11-29 18:18:58.522,0.299402,3.6006,11.0824,-0.227159,0.580916,0.299468,0
2024-11-29 18:18:58.523,0.380758,3.61496,11.269,-0.268086,0.491732,0.270758,0
2024-11-29 18:18:58.526,0.474078,3.61735,11.4724,-0.303515,0.397051,0.234107,0
2024-11-29 18:18:58.529,0.56022,3.59581,11.7359,-0.335279,0.297483,0.196846,0
2024-11-29 18:18:58.531,0.651147,3.55753,12.0063,-0.360324,0.199136,0.158973,0
2024-11-29 18:18:58.533,0.766002,3.49771,12.2961,-0.385979,0.0977356,0.117435,0
2024-11-29 18:18:58.538,0.988834,3.28475,13.0406,-0.403083,-0.156988,-0.0181727,0
2024-11-29 18:18:58.538,0.988834,3.28475,13.0406,-0.403083,-0.156988,-0.0181727,0
2024-11-29 18:18:58.541,1.0989,3.13879,13.4094,-0.403083,-0.156988,-0.0181727,0
2024-11-29 18:18:58.542,1.18026,2.98056,13.7758,-0.392698,-0.222959,-0.0627646,0
2024-11-29 18:18:58.544,1.25922,2.81545,14.0366,-0.374984,-0.281601,-0.104913,0
2024-11-29 18:18:58.548,1.31665,2.64317,14.2615,-0.353604,-0.332301,-0.148283,0
2024-11-29 18:18:58.552,1.28794,2.34138,14.7906,-0.259534,-0.458135,-0.260679,0
2024-11-29 18:18:58.552,1.28794,2.34138,14.7906,-0.259534,-0.458135,-0.260679,0
2024-11-29 18:18:58.555,1.21137,2.18106,15.1283,-0.259534,-0.458135,-0.260679,0
2024-11-29 18:18:58.556,1.10848,2.00877,15.5258,-0.203336,-0.485013,-0.289389,0
2024-11-29 18:18:58.562,1.01994,1.84816,15.8249,0.00923906,-0.525939,-0.335202,0
2024-11-29 18:18:58.562,0.816252,1.76919,15.8752,0.00923906,-0.525939,-0.335202,0
2024-11-29 18:18:58.564,0.524327,1.71655,15.7053,0.00923906,-0.525939,-0.335202,1
2024-11-29 18:18:58.565,0.404686,1.59691,15.6407,0.0739889,-0.522885,-0.331537,0
2024-11-29 18:18:58.568,0.411865,1.42463,15.679,0.141793,-0.525939,-0.327872,0
2024-11-29 18:18:58.571,0.402293,1.22572,15.5976,0.208375,-0.524107,-0.322375,0
2024-11-29 18:18:58.574,0.373579,1.03669,15.4421,0.343373,-0.484402,-0.307714,0
2024-11-29 18:18:58.576,0.337687,0.837787,15.2791,0.410566,-0.445308,-0.297941,0
2024-11-29 18:18:58.578,0.301795,0.646361,15.1164,0.410566,-0.445308,-0.297941,0
2024-11-29 18:18:58.580,0.260818,0.483649,14.9513,0.47837,-0.392775,-0.286945,0
2024-11-29 18:18:58.582,0.18664,0.347258,14.7763,0.545563,-0.33169,-0.271063,0
2024-11-29 18:18:58.585,0.0957129,0.248854,14.5609,0.6152,-0.262664,-0.25396,0
2024-11-29 18:18:58.587,0.0,0.157926,14.3216,0.683614,-0.185087,-0.23258,0
2024-11-29 18:18:58.589,-0.105284,0.0885344,14.0414,0.749586,-0.103233,-0.207535,0
2024-11-29 18:18:58.592,-0.232104,0.0646062,13.6846,0.813725,-0.0171037,-0.178826,0
2024-11-29 18:18:58.595,-0.390329,0.0837488,13.2802,0.871145,0.0690257,-0.146451,0
2024-11-29 18:18:58.596,-0.56022,0.138784,12.8348,0.924899,0.156988,-0.109189,0
2024-11-29 18:18:58.599,-0.734896,0.205783,12.3679,0.970713,0.244339,-0.0700947,0
2024-11-29 18:18:58.602,-0.905085,0.294616,11.8723,1.02813,0.397051,0.0105371,0
2024-11-29 18:18:58.603,-1.05344,0.380758,11.3504,1.02813,0.397051,0.0105371,0
2024-11-29 18:18:58.606,-1.15633,0.435793,10.8212,1.04279,0.458135,0.0526856,0
2024-11-29 18:18:58.609,-1.21376,0.483649,10.3041,1.04829,0.509447,0.091169,0
2024-11-29 18:18:58.611,-1.2329,0.517149,9.81805,1.04829,0.509447,0.091169,0
2024-11-29 18:18:58.613,-1.21137,0.545863,9.34188,1.0263,0.57664,0.160806,0
2024-11-29 18:18:58.615,-1.17547,0.579362,8.88455,0.998812,0.591911,0.188905,0
2024-11-29 18:18:58.618,-1.1348,0.624826,8.44636,0.962161,0.599241,0.212728,0
2024-11-29 18:18:58.620,-1.0343,0.658325,8.06321,0.920623,0.600463,0.231053,0
2024-11-29 18:18:58.623,-0.651147,0.50997,8.02014,0.871145,0.587024,0.237772,0
2024-11-29 18:18:58.624,-0.282652,0.371187,8.09193,0.871145,0.587024,0.237772,0
2024-11-29 18:18:58.628,-0.32333,0.464507,7.83111,0.785626,0.511279,0.212117,0
2024-11-29 18:18:58.630,-0.512363,0.651147,7.44557,0.785626,0.511279,0.212117,0
2024-11-29 18:18:58.632,-0.687039,0.881157,7.13689,0.685447,0.485624,0.188905,0
2024-11-29 18:18:58.635,-0.799502,1.0989,6.92602,0.628027,0.481958,0.184018,0
2024-11-29 18:18:58.637,-0.758824,1.22094,6.92842,0.567553,0.463633,0.181574,0
2024-11-29 18:18:58.638,-0.632004,1.28554,7.12014,0.50708,0.416598,0.172412,0
2024-11-29 18:18:58.641,-0.600898,1.41266,7.11057,0.449049,0.354291,0.162638,0
2024-11-29 18:18:58.643,-0.651147,1.58255,6.88774,0.384299,0.301759,0.152254,0
2024-11-29 18:18:58.647,-0.608076,1.71894,6.79442,0.257854,0.210742,0.13515,0
2024-11-29 18:18:58.648,-0.435793,1.76201,6.90928,0.257854,0.210742,0.13515,0
2024-11-29 18:18:58.650,-0.236889,1.73809,7.10579,0.200434,0.153934,0.115603,0
2024-11-29 18:18:58.653,-0.100499,1.7333,7.22303,0.144236,0.0940705,0.094834,0
2024-11-29 18:18:58.656,0.00717847,1.7333,7.30678,0.0910926,0.0403159,0.0691785,0
2024-11-29 18:18:58.658,0.136391,1.69502,7.42403,0.0403923,-0.00671932,0.0386361,0
2024-11-29 18:18:58.661,0.27996,1.67348,7.56521,-0.0414613,-0.0971247,-0.0352764,0
2024-11-29 18:18:58.663,0.421436,1.64716,7.73779,-0.0750579,-0.141106,-0.0762032,0
2024-11-29 18:18:58.665,0.557827,1.58016,7.94597,-0.0750579,-0.141106,-0.0762032,0
2024-11-29 18:18:58.667,0.658325,1.51555,8.18315,-0.103157,-0.182032,-0.122017,0
2024-11-29 18:18:58.670,0.687039,1.45095,8.42722,-0.139808,-0.266329,-0.213644,0
2024-11-29 18:18:58.671,0.65354,1.37886,8.65215,-0.139808,-0.266329,-0.213644,0
2024-11-29 18:18:58.675,0.60329,1.28794,8.83669,-0.150803,-0.304813,-0.258236,0
2024-11-29 18:18:58.677,0.557827,1.18744,8.99701,-0.156301,-0.363454,-0.341311,0
2024-11-29 18:18:58.680,0.493221,1.0989,9.1358,-0.156301,-0.363454,-0.341311,0
2024-11-29 18:18:58.682,0.387936,1.02473,9.25783,-0.14836,-0.397662,-0.414613,0
2024-11-29 18:18:58.684,0.267996,0.950549,9.3682,-0.14836,-0.397662,-0.414613,0
2024-11-29 18:18:58.686,0.117248,0.873978,9.46152,-0.14164,-0.408046,-0.445766,0
2024-11-29 18:18:58.694,-0.404686,0.689432,9.55245,-0.082388,-0.429426,-0.522122,0
2024-11-29 18:18:58.694,-0.404686,0.689432,9.55245,-0.082388,-0.429426,-0.522122,0
2024-11-29 18:18:58.694,-0.404686,0.689432,9.55245,-0.082388,-0.429426,-0.522122,0
2024-11-29 18:18:58.696,-0.574577,0.641576,9.51895,-0.082388,-0.429426,-0.522122,0
2024-11-29 18:18:58.698,-0.758824,0.624826,9.42084,-0.0677277,-0.429426,-0.527008,0
2024-11-29 18:18:58.701,-1.06301,0.727717,9.11665,-0.0677277,-0.429426,-0.527008,0
2024-11-29 18:18:58.703,-1.27119,0.789931,8.88934,-0.0567324,-0.378114,-0.505629,0
2024-11-29 18:18:58.705,-1.25922,0.715753,8.93719,-0.0536782,-0.359789,-0.487914,0
2024-11-29 18:18:58.708,-1.27597,0.610469,8.9348,-0.0567324,-0.346961,-0.448209,0
2024-11-29 18:18:58.709,-1.35254,0.502792,8.8008,-0.0567324,-0.346961,-0.448209,0
2024-11-29 18:18:58.713,-1.41506,0.409472,8.68804,-0.0603975,-0.337188,-0.42683,0
2024-11-29 18:18:58.715,-1.42941,0.313759,8.65215,-0.0677277,-0.314586,-0.38407,0
2024-11-29 18:18:58.717,-1.42223,0.217747,8.65215,-0.0683385,-0.299926,-0.361469,0
2024-11-29 18:18:58.720,-1.43181,0.157926,8.64258,-0.0683385,-0.299926,-0.361469,0
2024-11-29 18:18:58.721,-1.45573,0.124427,8.6354,-0.066506,-0.277325,-0.338868,0
2024-11-29 18:18:58.723,-1.49641,0.105284,8.62822,-0.0640626,-0.253502,-0.315655,0
2024-11-29 18:18:58.726,-1.55862,0.102891,8.61147,-0.058565,-0.226013,-0.288778,0
2024-11-29 18:18:58.729,-1.6352,0.117248,8.59711,-0.0512348,-0.196082,-0.262512,0
2024-11-29 18:18:58.730,-1.72612,0.165105,8.5684,-0.0432938,-0.162485,-0.229526,0
2024-11-29 18:18:58.734,-1.81226,0.210568,8.53251,-0.0255792,-0.0971247,-0.161722,0
2024-11-29 18:18:58.735,-1.88405,0.22014,8.49183,-0.0255792,-0.0971247,-0.161722,0
2024-11-29 18:18:58.738,-1.92951,0.256032,8.41526,-0.0176382,-0.0629173,-0.125682,0
2024-11-29 18:18:58.740,-1.96062,0.316152,8.30758,-0.00664296,-0.0262664,-0.0859767,0
2024-11-29 18:18:58.742,-1.99442,0.366401,8.20469,0.000687203,0.00977356,-0.0468825,0
2024-11-29 18:18:58.744,-2.01356,0.411865,8.09671,0.00801737,0.0458135,-0.00412322,0
2024-11-29 18:18:58.748,-2.01117,0.476471,7.99861,0.0116825,0.0794101,0.0331385,0
2024-11-29 18:18:58.750,-1.9992,0.541077,7.91007,0.0153475,0.138051,0.111938,0
2024-11-29 18:18:58.752,-1.97528,0.588933,7.79761,0.0153475,0.138051,0.111938,0
2024-11-29 18:18:58.755,-1.92951,0.639183,7.66122,0.0129041,0.189974,0.185239,0
2024-11-29 18:18:58.757,-1.87687,0.670289,7.52932,0.0129041,0.189974,0.185239,0
2024-11-29 18:18:58.760,-1.82184,0.699003,7.4001,0.00557398,0.230289,0.249989,0
2024-11-29 18:18:58.761,-1.7333,0.732503,7.30678,0.00557398,0.230289,0.249989,0
2024-11-29 18:18:58.764,-1.62562,0.758824,7.24218,7.63559e-05,0.245561,0.276867,0
2024-11-29 18:18:58.767,-1.50359,0.785145,7.16561,-0.0121406,0.262053,0.326345,0
2024-11-29 18:18:58.769,-1.4004,0.845265,7.10818,-0.0170274,0.268162,0.343449,0
2024-11-29 18:18:58.770,-1.2999,0.895514,7.06032,-0.0170274,0.268162,0.343449,0
2024-11-29 18:18:58.774,-1.19462,0.926621,6.99542,-0.0200816,0.273049,0.35872,0
2024-11-29 18:18:58.776,-1.11087,0.984048,6.95474,-0.0243575,0.277936,0.372159,0
2024-11-29 18:18:58.778,-1.02951,1.02951,6.92842,-0.0286335,0.286487,0.381321,0
2024-11-29 18:18:58.780,-0.96012,1.06301,6.88774,-0.0292443,0.290152,0.391095,0
2024-11-29 18:18:58.783,-0.885943,1.11326,6.83988,-0.0292443,0.296261,0.397203,0
2024-11-29 18:18:58.785,-0.811466,1.16112,6.79442,-0.0316877,0.298093,0.403312,0
2024-11-29 18:18:58.788,-0.766002,1.18983,6.73699,-0.0359636,0.298093,0.40881,0
2024-11-29 18:18:58.790,-0.727717,1.20419,6.67478,-0.0371853,0.293207,0.408199,0
2024-11-29 18:18:58.792,-0.687039,1.22572,6.62931,-0.0371853,0.293207,0.408199,0
2024-11-29 18:18:58.795,-0.660718,1.24726,6.58385,-0.0481806,0.275492,0.406977,0
2024-11-29 18:18:58.796,-0.629611,1.26401,6.51685,-0.0481806,0.275492,0.406977,0
2024-11-29 18:18:58.799,-0.600898,1.2664,6.44716,-0.0530674,0.260832,0.405144,0
2024-11-29 18:18:58.802,-0.576969,1.27119,6.39691,-0.0603975,0.24495,0.403312,0
2024-11-29 18:18:58.804,-0.557827,1.29751,6.35623,-0.0671168,0.224792,0.400869,0
2024-11-29 18:18:58.806,-0.555434,1.32622,6.32513,-0.0768904,0.204634,0.397814,0
2024-11-29 18:18:58.809,-0.555434,1.33101,6.29641,-0.0836097,0.1802,0.393538,0
2024-11-29 18:18:58.811,-0.548256,1.3334,6.27966,-0.0939941,0.155155,0.391706,0
2024-11-29 18:18:58.814,-0.545863,1.36451,6.29402,-0.113541,0.0977356,0.386819,0
2024-11-29 18:18:58.816,-0.536291,1.38844,6.30838,-0.113541,0.0977356,0.386819,0
2024-11-29 18:18:58.818,-0.533899,1.4004,6.3347,-0.121482,0.0684149,0.383154,0
2024-11-29 18:18:58.821,-0.545863,1.41506,6.38016,-0.137975,0.00733017,0.377045,0
2024-11-29 18:18:58.823,-0.545863,1.43181,6.43041,-0.144694,-0.023823,0.373991,0
2024-11-29 18:18:58.826,-0.541077,1.45095,6.49053,-0.151414,-0.0537546,0.370326,0
2024-11-29 18:18:58.828,-0.548256,1.45813,6.5671,-0.151414,-0.0537546,0.370326,0
2024-11-29 18:18:58.829,-0.548256,1.47009,6.65085,-0.155079,-0.0842969,0.367883,0
2024-11-29 18:18:58.833,-0.553041,1.47727,6.74896,-0.159355,-0.139884,0.362996,0
2024-11-29 18:18:58.834,-0.567398,1.47727,6.85424,-0.159355,-0.139884,0.362996,0
2024-11-29 18:18:58.837,-0.588933,1.48445,6.95713,-0.159355,-0.169816,0.359942,0
2024-11-29 18:18:58.840,-0.598505,1.51795,7.06511,-0.155079,-0.197915,0.357498,0
2024-11-29 18:18:58.841,-0.600898,1.54905,7.17518,-0.153857,-0.225403,0.356888,0
2024-11-29 18:18:58.843,-0.612862,1.56102,7.27568,-0.147749,-0.25228,0.354444,0
2024-11-29 18:18:58.846,-0.624826,1.5658,7.3666,-0.139808,-0.27366,0.352612,0
2024-11-29 18:18:58.849,-0.632004,1.56341,7.45035,-0.125147,-0.315197,0.356277,0
2024-11-29 18:18:58.850,-0.641576,1.57059,7.52453,-0.125147,-0.315197,0.356277,0
2024-11-29 18:18:58.853,-0.643968,1.59452,7.60618,-0.116595,-0.335355,0.357498,0
2024-11-29 18:18:58.856,-0.641576,1.61366,7.68515,-0.107433,-0.351848,0.360553,0
2024-11-29 18:18:58.858,-0.648754,1.62084,7.74497,-0.0964375,-0.365898,0.363607,0
2024-11-29 18:18:58.860,-0.65354,1.64477,7.78086,-0.0884965,-0.380558,0.367883,0
2024-11-29 18:18:58.862,-0.65354,1.6663,7.80718,-0.0805555,-0.392775,0.37277,0
2024-11-29 18:18:58.867,-0.65354,1.68305,7.88615,-0.0677277,-0.417209,0.383765,0
2024-11-29 18:18:58.867,-0.65354,1.68305,7.88615,-0.0677277,-0.417209,0.383765,0
2024-11-29 18:18:58.870,-0.65354,1.70219,7.92682,-0.0610084,-0.426982,0.391095,0
2024-11-29 18:18:58.873,-0.627219,1.71416,7.96989,-0.0518457,-0.446529,0.404534,0
2024-11-29 18:18:58.875,-0.596112,1.72612,8.01536,-0.0518457,-0.446529,0.404534,0
2024-11-29 18:18:58.876,-0.591326,1.75484,8.06321,-0.0469589,-0.456303,0.413085,0
2024-11-29 18:18:58.880,-0.567398,1.78594,8.11346,-0.0445155,-0.464244,0.420416,0
2024-11-29 18:18:58.882,-0.536291,1.82184,8.1688,-0.0402396,-0.476461,0.436909,0
2024-11-29 18:18:58.884,-0.507577,1.8673,8.23819,-0.0402396,-0.476461,0.436909,0
2024-11-29 18:18:58.886,-0.457328,1.91755,8.30997,-0.038407,-0.476461,0.442406,0
2024-11-29 18:18:58.889,-0.392722,1.9681,8.37458,-0.0341311,-0.478293,0.448515,0
2024-11-29 18:18:58.891,-0.330509,2.02552,8.43919,-0.030466,-0.479515,0.455234,0
2024-11-29 18:18:58.894,-0.287438,2.09252,8.50619,-0.0268009,-0.480126,0.461953,0
2024-11-29 18:18:58.895,-0.234497,2.15713,8.55643,-0.0219141,-0.477683,0.46684,0
2024-11-29 18:18:58.898,-0.143569,2.20977,8.60668,-0.0219141,-0.477683,0.46684,0
2024-11-29 18:18:58.901,-0.0574277,2.27677,8.66411,-0.0170274,-0.464855,0.472338,0
2024-11-29 18:18:58.903,0.0119641,2.33181,8.71945,-0.0133623,-0.456914,0.472948,0
2024-11-29 18:18:58.906,0.105284,2.37727,8.76012,-0.0109189,-0.446529,0.472948,0
2024-11-29 18:18:58.908,0.198604,2.44427,8.79123,-0.0109189,-0.431869,0.472948,0
2024-11-29 18:18:58.910,0.277567,2.50409,8.84387,-0.010308,-0.416598,0.469283,0
2024-11-29 18:18:58.912,0.354437,2.57139,8.87737,-0.00786466,-0.401937,0.465007,0
2024-11-29 18:18:58.914,0.423829,2.64317,8.87259,-0.00603212,-0.384834,0.458288,0
2024-11-29 18:18:58.917,0.495613,2.7006,8.89412,-0.00725381,-0.367119,0.447904,0
2024-11-29 18:18:58.920,0.574577,2.76999,8.93241,-0.00847551,-0.351237,0.439963,0
2024-11-29 18:18:58.921,0.658325,2.8322,8.94916,-0.0115297,-0.333523,0.428967,0
2024-11-29 18:18:58.925,0.749253,2.89681,8.95873,-0.0194708,-0.296872,0.401479,0
2024-11-29 18:18:58.926,0.833001,2.9686,8.9683,-0.0194708,-0.296872,0.401479,0
2024-11-29 18:18:58.929,0.917049,3.04277,8.98983,-0.0298552,-0.252891,0.36605,0
2024-11-29 18:18:58.933,0.986441,3.19382,9.00419,-0.0359636,-0.229679,0.348946,0
2024-11-29 18:18:58.934,1.02473,3.19382,9.00419,-0.0396287,-0.207077,0.326345,0
2024-11-29 18:18:58.936,1.06062,3.28235,9.0018,-0.0396287,-0.207077,0.326345,0
2024-11-29 18:18:58.941,1.14915,3.39721,8.99462,-0.0542891,-0.15882,0.281753,0
2024-11-29 18:18:58.943,1.18265,3.44267,8.97548,-0.0622301,-0.13683,0.256709,0
2024-11-29 18:18:58.943,1.18265,3.44267,8.97548,-0.0622301,-0.13683,0.256709,0
2024-11-29 18:18:58.947,1.22572,3.51685,8.95873,-0.0805555,-0.10079,0.206008,0
2024-11-29 18:18:58.948,1.22572,3.51685,8.95873,-0.0805555,-0.10079,0.206008,0
2024-11-29 18:18:58.949,1.24008,3.57428,8.95873,-0.090329,-0.0861295,0.177909,0
2024-11-29 18:18:58.952,1.25444,3.61974,8.95155,-0.101935,-0.0769668,0.152254,0
2024-11-29 18:18:58.957,1.2664,3.67029,8.93719,-0.122704,-0.0586413,0.0936123,0
2024-11-29 18:18:58.957,1.2664,3.67029,8.93719,-0.122704,-0.0586413,0.0936123,0
2024-11-29 18:18:58.960,1.27119,3.71097,8.93001,-0.150192,-0.051922,0.0331385,0
2024-11-29 18:18:58.962,1.27119,3.74447,8.91326,-0.150192,-0.051922,0.0331385,0
2024-11-29 18:18:58.967,1.22812,3.79232,8.96591,-0.180124,-0.0543654,-0.0273354,0
2024-11-29 18:18:58.967,1.22812,3.79232,8.96591,-0.180124,-0.0543654,-0.0273354,0
2024-11-29 18:18:58.969,1.18505,3.82343,8.99941,-0.211888,-0.0684149,-0.0841442,0
2024-11-29 18:18:58.972,1.15633,3.85454,9.03051,-0.225937,-0.0806318,-0.111632,0
2024-11-29 18:18:58.973,1.12522,3.87129,9.08076,-0.225937,-0.0806318,-0.111632,0
2024-11-29 18:18:58.976,1.08215,3.89522,9.15973,-0.241208,-0.0940705,-0.137899,0
2024-11-29 18:18:58.978,1.04865,3.92872,9.23151,-0.258312,-0.109342,-0.164165,0
2024-11-29 18:18:58.981,1.02473,3.94786,9.31316,-0.27114,-0.126445,-0.18921,0
2024-11-29 18:18:58.983,1.01276,3.95025,9.42802,-0.284578,-0.144771,-0.212422,0
2024-11-29 18:18:58.985,0.984048,3.94307,9.55245,-0.296795,-0.163707,-0.235023,0
2024-11-29 18:18:58.987,0.945763,3.93589,9.68405,-0.307791,-0.183865,-0.256403,0
2024-11-29 18:18:58.989,0.917049,3.92154,9.81805,-0.31451,-0.204023,-0.277172,0
2024-11-29 18:18:58.993,0.88355,3.90957,9.95235,-0.319397,-0.22357,-0.296719,0
2024-11-29 18:18:58.994,0.842872,3.88564,10.1007,-0.323062,-0.243728,-0.315044,0
2024-11-29 18:18:58.998,0.801895,3.85932,10.273,-0.324284,-0.279768,-0.344976,0
2024-11-29 18:18:58.999,0.766002,3.85932,10.448,-0.324284,-0.279768,-0.344976,0
2024-11-29 18:18:59.002,0.732503,3.85693,10.6131,-0.311456,-0.307256,-0.368799,0
2024-11-29 18:18:59.005,0.687039,3.82822,10.783,-0.303515,-0.319473,-0.379794,0
2024-11-29 18:18:59.007,0.63679,3.80429,10.9385,-0.303515,-0.319473,-0.379794,0
2024-11-29 18:18:59.009,0.584148,3.81625,11.0728,-0.292519,-0.329247,-0.387735,0
2024-11-29 18:18:59.011,0.541077,3.82104,11.1996,-0.280913,-0.334744,-0.393233,0
2024-11-29 18:18:59.014,0.498006,3.7995,11.3121,-0.253425,-0.342074,-0.399341,0
2024-11-29 18:18:59.016,0.445364,3.77557,11.4197,-0.253425,-0.342074,-0.399341,0
2024-11-29 18:18:59.019,0.395115,3.74925,11.5253,-0.239376,-0.34635,-0.399341,0
2024-11-29 18:18:59.021,0.344866,3.72533,11.6186,-0.207001,-0.34574,-0.39079,0
2024-11-29 18:18:59.022,0.30658,3.70618,11.6952,-0.207001,-0.34574,-0.39079,0
2024-11-29 18:18:59.025,0.287438,3.67747,11.7455,-0.192951,-0.344518,-0.384681,0
2024-11-29 18:18:59.027,0.246461,3.6679,11.7814,-0.178291,-0.342685,-0.375518,0
2024-11-29 18:18:59.031,0.22014,3.66072,11.822,-0.152635,-0.334133,-0.358415,0
2024-11-29 18:18:59.033,0.200997,3.63649,11.8364,-0.152635,-0.334133,-0.358415,0
2024-11-29 18:18:59.038,0.153141,3.60539,11.8795,-0.133699,-0.318251,-0.332148,0
2024-11-29 18:18:59.038,0.153141,3.60539,11.8795,-0.133699,-0.318251,-0.332148,0
2024-11-29 18:18:59.040,0.131605,3.59581,11.8938,-0.118428,-0.294428,-0.307103,0
2024-11-29 18:18:59.041,0.131605,3.6006,11.9058,-0.118428,-0.294428,-0.307103,0
2024-11-29 18:18:59.045,0.131605,3.6006,11.9201,-0.111098,-0.269994,-0.283891,0
2024-11-29 18:18:59.046,0.141177,3.60299,11.9465,-0.111098,-0.269994,-0.283891,0
2024-11-29 18:18:59.048,0.155533,3.61974,11.9632,-0.109265,-0.257778,-0.272896,0
2024-11-29 18:18:59.051,0.160319,3.65593,11.9824,-0.104989,-0.243728,-0.262512,0
2024-11-29 18:18:59.056,0.22014,3.70618,12.0278,-0.1056,-0.212575,-0.242964,0
2024-11-29 18:18:59.056,0.22014,3.70618,12.0278,-0.1056,-0.212575,-0.242964,0
2024-11-29 18:18:59.058,0.246461,3.72293,12.0664,-0.1056,-0.198525,-0.237467,0
2024-11-29 18:18:59.060,0.267996,3.72533,12.1023,-0.103157,-0.179589,-0.228304,0
2024-11-29 18:18:59.063,0.27996,3.72772,12.1502,-0.104379,-0.161875,-0.224028,0
2024-11-29 18:18:59.066,0.287438,3.74208,12.1956,-0.103157,-0.139273,-0.220363,0
2024-11-29 18:18:59.068,0.294616,3.76361,12.2315,-0.103157,-0.117283,-0.216087,0
2024-11-29 18:18:59.070,0.292223,3.78275,12.2698,-0.0976592,-0.0922379,-0.214255,0
2024-11-29 18:18:59.073,0.294616,3.7995,12.3081,-0.0939941,-0.0390942,-0.207535,0
2024-11-29 18:18:59.075,0.282652,3.82343,12.3296,-0.0878856,-0.0390942,-0.207535,0
2024-11-29 18:18:59.077,0.246461,3.85215,12.3272,-0.082388,-0.0116061,-0.204481,0
2024-11-29 18:18:59.080,0.210568,3.86411,12.3129,-0.0689494,0.0427593,-0.200816,0
2024-11-29 18:18:59.082,0.162712,3.88804,12.2722,-0.0689494,0.0427593,-0.200816,0
2024-11-29 18:18:59.084,0.081356,3.90479,12.2219,-0.0610084,0.0659715,-0.195929,0
2024-11-29 18:18:59.087,0.0,3.87847,12.1669,-0.0555107,0.10079,-0.186156,0
2024-11-29 18:18:59.089,-0.066999,3.87129,12.0879,-0.0555107,0.10079,-0.186156,0
2024-11-29 18:18:59.091,-0.131605,3.88564,11.9895,-0.058565,0.10812,-0.176382,0
2024-11-29 18:18:59.094,-0.193819,3.87847,11.8938,-0.0640626,0.106287,-0.161111,0
2024-11-29 18:18:59.096,-0.246461,3.8354,11.7957,-0.0640626,0.106287,-0.161111,0
2024-11-29 18:18:59.099,-0.287438,3.7995,11.6976,-0.0732253,0.0910162,-0.150116,0
2024-11-29 18:18:59.101,-0.32333,3.77318,11.6043,-0.0988809,0.0378725,-0.132401,0
2024-11-29 18:18:59.103,-0.347258,3.7349,11.5086,-0.0988809,0.0378725,-0.132401,0
2024-11-29 18:18:59.105,-0.337687,3.699,11.4365,-0.11965,-0.000610847,-0.125682,0
2024-11-29 18:18:59.107,-0.313759,3.65593,11.3934,-0.139197,-0.0488678,-0.11713,0
2024-11-29 18:18:59.110,-0.267996,3.61496,11.3791,-0.162409,-0.103233,-0.112854,0
2024-11-29 18:18:59.112,-0.172283,3.55035,11.3791,-0.191119,-0.169816,-0.111021,0
2024-11-29 18:18:59.117,0.114855,3.41875,11.4532,-0.252814,-0.327414,-0.115908,0
2024-11-29 18:18:59.117,0.114855,3.41875,11.4532,-0.252814,-0.327414,-0.115908,0
2024-11-29 18:18:59.120,0.292223,3.33978,11.5277,-0.282746,-0.41782,-0.12446,0
2024-11-29 18:18:59.122,0.486042,3.25843,11.633,-0.318175,-0.510057,-0.139731,0
2024-11-29 18:18:59.125,0.682254,3.17707,11.7766,-0.354215,-0.604739,-0.156835,0
2024-11-29 18:18:59.127,0.914656,3.07627,11.9752,-0.388422,-0.700642,-0.178215,0
2024-11-29 18:18:59.131,1.36451,2.84417,12.4684,-0.459892,-0.889394,-0.230748,0
2024-11-29 18:18:59.131,1.36451,2.84417,12.4684,-0.459892,-0.889394,-0.230748,0
2024-11-29 18:18:59.134,1.58734,2.72453,12.7367,-0.494099,-0.974301,-0.263733,0
2024-11-29 18:18:59.137,1.78834,2.60967,13.0167,-0.553962,-1.11724,-0.327261,0
2024-11-29 18:18:59.138,1.97288,2.5017,13.3113,-0.553962,-1.11724,-0.327261,0
2024-11-29 18:18:59.141,2.1667,2.37488,13.6247,-0.601608,-1.22231,-0.399952,0
2024-11-29 18:18:59.143,2.35573,2.22652,13.9409,-0.601608,-1.22231,-0.399952,0
2024-11-29 18:18:59.145,2.52592,2.0662,14.2543,-0.619934,-1.26506,-0.438436,0
2024-11-29 18:18:59.148,2.68624,1.89841,14.5681,-0.642,-1.31943,-0.518457,0
2024-11-29 18:18:59.151,2.8011,1.71894,14.8648,-0.646887,-1.3292,-0.55694,0
2024-11-29 18:18:59.152,2.85853,1.53709,15.1475,-0.646887,-1.3292,-0.55694,0
2024-11-29 18:18:59.155,2.88006,1.37408,15.4179,-0.64872,-1.32554,-0.59298,0
2024-11-29 18:18:59.158,2.88485,1.20897,15.6981,-0.634594,-1.28461,-0.654676,0
2024-11-29 18:18:59.160,2.87528,1.04387,16.0071,-0.634594,-1.28461,-0.654676,0
2024-11-29 18:18:59.164,2.4347,1.03669,16.0454,-0.600997,-1.16183,-0.691937,0
2024-11-29 18:18:59.164,2.4347,1.03669,16.0454,-0.600997,-1.16183,-0.691937,0
2024-11-29 18:18:59.167,2.30548,1.01037,16.0191,-0.566179,-0.962695,-0.688272,0
2024-11-29 18:18:59.169,2.39163,0.818644,16.3349,-0.566179,-0.962695,-0.688272,0
2024-11-29 18:18:59.171,2.42273,0.610469,16.6199,-0.542356,-0.874733,-0.68644,0
2024-11-29 18:18:59.174,2.32941,0.378365,16.7348,-0.513646,-0.78555,-0.683385,0
2024-11-29 18:18:59.177,2.17627,0.143569,16.7396,-0.440345,-0.557093,-0.669947,0
2024-11-29 18:18:59.178,2.03749,-0.0909273,16.7109,-0.440345,-0.557093,-0.669947,1
2024-11-29 18:18:59.180,1.91037,-0.318545,16.663,-0.39392,-0.4111,-0.659562,0
2024-11-29 18:18:59.183,1.79073,-0.519542,16.5673,-0.338333,-0.252891,-0.646735,0
2024-11-29 18:18:59.186,1.66391,-0.696611,16.4809,-0.27847,-0.0855186,-0.627798,0
2024-11-29 18:18:59.187,1.50359,-0.845265,16.3708,-0.218607,0.0830752,-0.606419,0
2024-11-29 18:18:59.192,1.01994,-1.0654,15.9853,-0.0854423,0.402548,-0.546556,0
2024-11-29 18:18:59.193,1.01994,-1.0654,15.9853,-0.0854423,0.402548,-0.546556,0
2024-11-29 18:18:59.197,0.246461,-1.16351,15.3221,0.0446682,0.700031,-0.466535,0
2024-11-29 18:18:59.198,0.246461,-1.16351,15.3221,0.0446682,0.700031,-0.466535,0
2024-11-29 18:18:59.199,-0.0574277,-1.14197,14.98,0.104531,0.834417,-0.411558,0
2024-11-29 18:18:59.201,-0.335294,-1.09651,14.6016,0.165616,0.957808,-0.351695,0
2024-11-29 18:18:59.205,-0.615255,-1.02233,14.161,0.220592,1.07204,-0.286945,0
2024-11-29 18:18:59.207,-0.876371,-0.912264,13.675,0.273736,1.17649,-0.217309,0
2024-11-29 18:18:59.210,-1.0989,-0.835394,13.1842,0.314663,1.26751,-0.140953,0
2024-11-29 18:18:59.211,-1.24487,-0.801895,12.7271,0.350703,1.34333,-0.0627646,0
2024-11-29 18:18:59.214,-1.34776,-0.76361,12.2842,0.381245,1.39769,0.0160347,0
2024-11-29 18:18:59.217,-1.4653,-0.718146,11.8436,0.417896,1.44901,0.173022,0
2024-11-29 18:18:59.219,-1.55623,-0.672682,11.4269,0.417896,1.44901,0.173022,0
2024-11-29 18:18:59.220,-1.57298,-0.617647,11.0584,0.425837,1.44901,0.249989,0
2024-11-29 18:18:59.223,-1.52991,-0.569791,10.7327,0.428891,1.4319,0.321458,0
2024-11-29 18:18:59.226,-1.41745,-0.517149,10.4527,0.422172,1.35066,0.454012,0
2024-11-29 18:18:59.228,-1.25922,-0.452543,10.2132,0.422172,1.35066,0.454012,0
2024-11-29 18:18:59.231,-1.07976,-0.380758,10.0193,0.416674,1.29133,0.510821,0
2024-11-29 18:18:59.233,-0.876371,-0.297009,9.87817,0.397127,1.14106,0.606724,0
2024-11-29 18:18:59.234,-0.655932,-0.222533,9.77737,0.397127,1.14106,0.606724,0
2024-11-29 18:18:59.237,-0.435793,-0.122034,9.70559,0.389186,1.05554,0.643375,0
2024-11-29 18:18:59.239,-0.198604,-0.00957129,9.67687,0.381245,0.966971,0.67575,0
2024-11-29 18:18:59.242,0.0622134,0.0765703,9.68405,0.375137,0.874122,0.699573,0
2024-11-29 18:18:59.245,0.30658,0.174676,9.71755,0.373304,0.781274,0.719731,0
2024-11-29 18:18:59.246,0.54347,0.277567,9.77498,0.373915,0.689647,0.730115,0
2024-11-29 18:18:59.249,0.782752,0.378365,9.83031,0.378802,0.603517,0.736224,0
2024-11-29 18:18:59.252,1.07019,0.431007,9.89253,0.387354,0.520442,0.738667,0
2024-11-29 18:18:59.254,1.83619,0.193819,10.4408,0.398349,0.429426,0.725228,0
2024-11-29 18:18:59.257,2.42513,0.0311067,10.8858,0.434389,0.315808,0.687356,0
2024-11-29 18:18:59.259,2.26959,0.234497,10.5915,0.500971,0.21624,0.622606,0
2024-11-29 18:18:59.260,2.03749,0.4669,10.2347,0.500971,0.21624,0.622606,0
2024-11-29 18:18:59.263,2.03749,0.65354,10.1797,0.530903,0.203412,0.600616,0
2024-11-29 18:18:59.265,2.21695,0.782752,10.3208,0.560834,0.175313,0.578625,0
2024-11-29 18:18:59.268,2.35334,0.881157,10.3591,0.593209,0.13683,0.5603,0
2024-11-29 18:18:59.271,2.42273,0.962513,10.273,0.64452,0.0629173,0.518151,0
2024-11-29 18:18:59.273,2.51366,1.02951,10.127,0.64452,0.0629173,0.518151,0
2024-11-29 18:18:59.277,2.79871,1.01994,9.77019,0.677506,0.00794101,0.473559,0
2024-11-29 18:18:59.278,2.79871,1.01994,9.77019,0.677506,0.00794101,0.473559,0
2024-11-29 18:18:59.279,2.92792,1.01515,9.52852,0.685447,-0.00549763,0.447904,0
2024-11-29 18:18:59.282,3.01884,1.0319,9.2339,0.690334,-0.00733017,0.419194,0
2024-11-29 18:18:59.285,3.07627,1.05583,8.95394,0.686669,0.0109953,0.359331,0
2024-11-29 18:18:59.287,3.134,1.06301,8.74098,0.672619,0.0213797,0.327567,0
2024-11-29 18:18:59.290,3.19621,1.0654,8.55404,0.672619,0.0213797,0.327567,0
2024-11-29 18:18:59.292,3.2345,1.0654,8.35065,0.657348,0.0305424,0.292138,0
2024-11-29 18:18:59.296,3.24407,1.01515,7.97707,0.6152,0.0421485,0.215782,0
2024-11-29 18:18:59.296,3.24407,1.01515,7.97707,0.6152,0.0421485,0.215782,0
2024-11-29 18:18:59.300,3.11007,1.01515,7.63968,0.588933,0.0482569,0.175466,0
2024-11-29 18:18:59.301,3.11007,1.01515,7.63968,0.588933,0.0482569,0.175466,0
2024-11-29 18:18:59.304,3.0021,1.04148,7.47907,0.499139,0.0897945,0.0569615,0
2024-11-29 18:18:59.306,2.85853,1.07258,7.34028,0.469207,0.109953,0.0215324,0
2024-11-29 18:18:59.309,2.70539,1.10848,7.19911,0.437443,0.13011,-0.0138968,0
2024-11-29 18:18:59.310,2.54746,1.14676,7.0675,0.437443,0.13011,-0.0138968,0
2024-11-29 18:18:59.312,2.37488,1.17787,6.94995,0.403236,0.155155,-0.0462717,0
2024-11-29 18:18:59.315,2.19063,1.20897,6.85663,0.37025,0.176535,-0.073149,0
2024-11-29 18:18:59.317,2.02074,1.2329,6.77528,0.339097,0.196082,-0.0981937,0
2024-11-29 18:18:59.320,1.85055,1.25683,6.70828,0.274347,0.228457,-0.13912,0
2024-11-29 18:18:59.323,1.67587,1.25922,6.66042,0.245026,0.240674,-0.153781,0
2024-11-29 18:18:59.324,1.50359,1.25683,6.63649,0.245026,0.240674,-0.153781,0
2024-11-29 18:18:59.326,1.33819,1.28315,6.62453,0.219371,0.251058,-0.165998,0
2024-11-29 18:18:59.330,1.18265,1.30947,6.60299,0.169892,0.274881,-0.180047,0
2024-11-29 18:18:59.332,1.05105,1.31904,6.59821,0.150956,0.285877,-0.187988,0
2024-11-29 18:18:59.333,0.950549,1.33819,6.59582,0.150956,0.285877,-0.187988,0
2024-11-29 18:18:59.336,0.862014,1.35015,6.57189,0.133241,0.299315,-0.191042,0
2024-11-29 18:18:59.339,0.787538,1.34058,6.56232,0.118581,0.310921,-0.194097,0
2024-11-29 18:18:59.340,0.734896,1.33579,6.5671,0.105142,0.321306,-0.194097,0
2024-11-29 18:18:59.343,0.682254,1.34776,6.54796,0.0917034,0.332301,-0.192264,0
2024-11-29 18:18:59.346,0.605683,1.36929,6.52642,0.0800973,0.342685,-0.192264,0
2024-11-29 18:18:59.349,0.541077,1.37886,6.52642,0.0623828,0.357346,-0.183712,0
2024-11-29 18:18:59.351,0.481256,1.37647,6.50967,0.0538309,0.364676,-0.179436,0
2024-11-29 18:18:59.353,0.4334,1.38126,6.49053,0.0538309,0.364676,-0.179436,0
2024-11-29 18:18:59.358,0.409472,1.38844,6.48335,0.0422248,0.371395,-0.165387,0
2024-11-29 18:18:59.358,0.387936,1.41027,6.46182,0.0422248,0.371395,-0.165387,0
2024-11-29 18:18:59.360,0.380758,1.43181,6.44716,0.0385597,0.37506,-0.158057,0
2024-11-29 18:18:59.362,0.380758,1.44377,6.43759,0.0324513,0.373839,-0.152559,0
2024-11-29 18:18:59.365,0.380758,1.46052,6.4352,0.0287862,0.371395,-0.143396,0
2024-11-29 18:18:59.367,0.390329,1.47966,6.43998,0.0269536,0.367119,-0.135455,0
2024-11-29 18:18:59.369,0.407079,1.49641,6.43759,0.0257319,0.3604,-0.130569,0
2024-11-29 18:18:59.371,0.423829,1.5323,6.44477,0.0257319,0.35307,-0.12446,0
2024-11-29 18:18:59.373,0.431007,1.56341,6.4666,0.0269536,0.34574,-0.118963,0
2024-11-29 18:18:59.377,0.447757,1.60409,6.47617,0.0287862,0.335966,-0.117741,0
2024-11-29 18:18:59.379,0.483649,1.63998,6.47617,0.0330621,0.312143,-0.111632,0
2024-11-29 18:18:59.382,0.524327,1.6663,6.48814,0.0330621,0.312143,-0.111632,0
2024-11-29 18:18:59.383,0.565005,1.71416,6.5001,0.0385597,0.299926,-0.113465,0
2024-11-29 18:18:59.385,0.596112,1.73809,6.5001,0.0452791,0.287709,-0.114687,0
2024-11-29 18:18:59.389,0.610469,1.74527,6.49292,0.0550526,0.260221,-0.122628,0
2024-11-29 18:18:59.391,0.646361,1.77159,6.47617,0.0581068,0.247393,-0.129958,0
2024-11-29 18:18:59.393,0.675075,1.79791,6.45464,0.0629936,0.233955,-0.134845,0
2024-11-29 18:18:59.396,0.665504,1.81226,6.4352,0.0629936,0.233955,-0.134845,0
2024-11-29 18:18:59.397,0.663111,1.83619,6.40888,0.0678804,0.221127,-0.143396,0
2024-11-29 18:18:59.400,0.670289,1.86491,6.39691,0.0721563,0.206466,-0.151948,0
2024-11-29 18:18:59.402,0.672682,1.88644,6.38256,0.0745997,0.193028,-0.1605,0
2024-11-29 18:18:59.405,0.667897,1.90319,6.35623,0.0770431,0.175924,-0.16783,0
2024-11-29 18:18:59.406,0.655932,1.91755,6.3347,0.081319,0.160042,-0.176993,0
2024-11-29 18:18:59.409,0.641576,1.9343,6.32991,0.081319,0.142938,-0.186156,0
2024-11-29 18:18:59.412,0.617647,1.93191,6.32034,0.0831516,0.105066,-0.20387,0
2024-11-29 18:18:59.414,0.610469,1.91037,6.29402,0.0831516,0.105066,-0.20387,0
2024-11-29 18:18:59.416,0.593719,1.89841,6.25334,0.0831516,0.0842969,-0.213033,0
2024-11-29 18:18:59.418,0.574577,1.88883,6.24138,0.0807082,0.0623064,-0.220363,0
2024-11-29 18:18:59.422,0.574577,1.85533,6.22463,0.0745997,0.0171037,-0.238078,0
2024-11-29 18:18:59.424,0.562612,1.82901,6.16242,0.0745997,0.0171037,-0.238078,0
2024-11-29 18:18:59.425,0.538684,1.81705,6.13849,0.0678804,-0.00488678,-0.24724,0
2024-11-29 18:18:59.428,0.505185,1.78355,6.15763,0.0611611,-0.028099,-0.254571,0
2024-11-29 18:18:59.431,0.464507,1.76441,6.15524,0.0544418,-0.0525329,-0.260068,0
2024-11-29 18:18:59.432,0.409472,1.75005,6.16242,0.0452791,-0.0733017,-0.268009,0
2024-11-29 18:18:59.437,0.287438,1.74766,6.25813,0.0251211,-0.120948,-0.273507,0
2024-11-29 18:18:59.438,0.287438,1.74766,6.25813,0.0153475,-0.143549,-0.274729,0
2024-11-29 18:18:59.440,0.189033,1.74527,6.31316,0.0153475,-0.143549,-0.274729,0
2024-11-29 18:18:59.442,0.124427,1.7668,6.36102,0.00801737,-0.167372,-0.272285,0
2024-11-29 18:18:59.447,0.0334995,1.77637,6.50728,-0.00786466,-0.210742,-0.268009,0
2024-11-29 18:18:59.447,0.0334995,1.77637,6.50728,-0.00786466,-0.210742,-0.268009,0
2024-11-29 18:18:59.449,0.00239282,1.79551,6.56949,-0.0151948,-0.229679,-0.264344,0
2024-11-29 18:18:59.451,-0.0478565,1.8003,6.6341,-0.0219141,-0.24495,-0.261901,0
2024-11-29 18:18:59.454,-0.0909273,1.79551,6.70349,-0.0292443,-0.258999,-0.254571,0
2024-11-29 18:18:59.456,-0.117248,1.8003,6.77049,-0.0347419,-0.268162,-0.24724,0
2024-11-29 18:18:59.459,-0.155533,1.79791,6.82074,-0.046348,-0.284044,-0.233191,0
2024-11-29 18:18:59.461,-0.200997,1.80748,6.87099,-0.046348,-0.284044,-0.233191,0
2024-11-29 18:18:59.463,-0.227318,1.83859,6.94038,-0.050624,-0.287098,-0.223417,0
2024-11-29 18:18:59.466,-0.239282,1.86012,7.00977,-0.0573433,-0.288931,-0.211811,0
2024-11-29 18:18:59.468,-0.246461,1.85533,7.07229,-0.0610084,-0.290763,-0.201427,0
2024-11-29 18:18:59.471,-0.251246,1.85533,7.11536,-0.0640626,-0.286487,-0.190432,0
2024-11-29 18:18:59.472,-0.248854,1.87448,7.14646,-0.0683385,-0.282822,-0.17516,0
2024-11-29 18:18:59.476,-0.236889,1.88166,7.18953,-0.0799446,-0.265719,-0.146451,0
2024-11-29 18:18:59.478,-0.224925,1.88644,7.23021,-0.0799446,-0.265719,-0.146451,0
2024-11-29 18:18:59.479,-0.212961,1.89601,7.27089,-0.0842206,-0.252891,-0.131179,0
2024-11-29 18:18:59.483,-0.191426,1.91037,7.30918,-0.0927724,-0.238841,-0.117741,0
2024-11-29 18:18:59.485,-0.177069,1.92712,7.34507,-0.0988809,-0.221738,-0.10247,0
2024-11-29 18:18:59.487,-0.160319,1.9343,7.37857,-0.104989,-0.203412,-0.0865876,0
2024-11-29 18:18:59.490,-0.136391,1.93669,7.41925,-0.118428,-0.163707,-0.0536018,0
2024-11-29 18:18:59.492,-0.102891,1.95105,7.46949,-0.126369,-0.142938,-0.0383307,0
2024-11-29 18:18:59.494,-0.0789631,1.9681,7.51496,-0.126369,-0.142938,-0.0383307,0
2024-11-29 18:18:59.497,-0.0478565,1.97528,7.56999,-0.134921,-0.124002,-0.0218378,0
2024-11-29 18:18:59.498,-0.00239282,1.9992,7.62772,-0.14164,-0.105677,-0.00473407,0
2024-11-29 18:18:59.502,0.0287139,2.02313,7.67558,-0.152635,-0.0885729,0.00931542,0
2024-11-29 18:18:59.504,0.081356,2.0327,7.71865,-0.161187,-0.07208,0.0245866,0
2024-11-29 18:18:59.506,0.136391,2.04945,7.7665,-0.170961,-0.0580305,0.0392469,0
2024-11-29 18:18:59.508,0.172283,2.08056,7.82632,-0.178902,-0.0458135,0.0539073,0
2024-11-29 18:18:59.510,0.200997,2.12842,7.87897,-0.190508,-0.0317641,0.0649025,0
2024-11-29 18:18:59.513,0.22014,2.16909,7.94357,-0.19906,-0.0189363,0.0783412,0
2024-11-29 18:18:59.516,0.241675,2.21456,8.01775,-0.209444,-0.00305424,0.0899473,0
2024-11-29 18:18:59.517,0.272782,2.26241,8.08475,-0.22044,0.0134386,0.09911,0
2024-11-29 18:18:59.520,0.308973,2.30548,8.14487,-0.228991,0.0293207,0.109494,0
2024-11-29 18:18:59.522,0.335294,2.36052,8.19751,-0.238765,0.0464244,0.12049,0
2024-11-29 18:18:59.525,0.332901,2.41555,8.25015,-0.247317,0.0647498,0.132096,0
2024-11-29 18:18:59.527,0.330509,2.49212,8.32194,-0.25648,0.0830752,0.140648,0
2024-11-29 18:18:59.529,0.332901,2.56421,8.39372,-0.265031,0.0989573,0.149199,0
2024-11-29 18:18:59.532,0.328116,2.62642,8.47986,-0.274805,0.107509,0.161416,0
2024-11-29 18:18:59.537,0.30658,2.76521,8.63779,-0.292519,0.124002,0.176688,0
2024-11-29 18:18:59.537,0.30658,2.76521,8.63779,-0.292519,0.124002,0.176688,0
2024-11-29 18:18:59.538,0.289831,2.82981,8.71705,-0.297406,0.128278,0.186461,0
2024-11-29 18:18:59.541,0.275175,2.87288,8.81755,-0.301682,0.131332,0.195624,0
2024-11-29 18:18:59.544,0.251246,2.93988,8.93719,-0.309623,0.131943,0.208452,0
2024-11-29 18:18:59.546,0.236889,3.01167,9.04726,-0.309623,0.131943,0.208452,0
2024-11-29 18:18:59.548,0.22014,3.07627,9.14058,-0.310234,0.132554,0.215782,0
2024-11-29 18:18:59.550,0.179462,3.13639,9.25065,-0.309012,0.133776,0.223112,0
2024-11-29 18:18:59.552,0.177069,3.19143,9.35863,-0.304736,0.134386,0.231053,0
2024-11-29 18:18:59.556,0.179462,3.22732,9.46152,-0.30046,0.131943,0.23594,0
2024-11-29 18:18:59.557,0.162712,3.27039,9.58116,-0.294352,0.128278,0.242659,0
2024-11-29 18:18:59.561,0.167498,3.32543,9.68645,-0.290076,0.125835,0.246935,0
2024-11-29 18:18:59.562,0.184247,3.36371,9.78216,-0.282135,0.121559,0.251211,0
2024-11-29 18:18:59.565,0.196211,3.39242,9.87817,-0.262588,0.114228,0.260984,0
2024-11-29 18:18:59.568,0.210568,3.41635,9.96192,-0.262588,0.114228,0.260984,0
2024-11-29 18:18:59.569,0.244068,3.42353,10.0409,-0.250982,0.111174,0.263428,0
2024-11-29 18:18:59.571,0.275175,3.42592,10.1222,-0.239987,0.105677,0.266482,0
2024-11-29 18:18:59.575,0.304188,3.4331,10.206,-0.22105,0.0897945,0.269536,0
2024-11-29 18:18:59.577,0.320937,3.44267,10.2921,-0.22105,0.0897945,0.269536,0
2024-11-29 18:18:59.578,0.320937,3.44028,10.3687,-0.210666,0.0812427,0.268926,0
2024-11-29 18:18:59.582,0.330509,3.45464,10.4504,-0.193562,0.0690257,0.268926,0
2024-11-29 18:18:59.584,0.328116,3.46421,10.5389,-0.183789,0.0610847,0.270758,0
2024-11-29 18:18:59.585,0.316152,3.45464,10.6346,-0.183789,0.0610847,0.270758,0
2024-11-29 18:18:59.589,0.294616,3.47378,10.7423,-0.176459,0.0525329,0.273812,0
2024-11-29 18:18:59.591,0.270389,3.48574,10.8476,-0.166074,0.0488678,0.274423,0
2024-11-29 18:18:59.594,0.270389,3.48814,10.9579,-0.153857,0.0445919,0.279921,0
2024-11-29 18:18:59.595,0.253639,3.49053,11.0943,-0.153857,0.0445919,0.279921,0
2024-11-29 18:18:59.598,0.224925,3.48574,11.2259,-0.11965,0.0409268,0.295803,0
2024-11-29 18:18:59.601,0.217747,3.48096,11.3599,-0.104379,0.0421485,0.302522,0
2024-11-29 18:18:59.603,0.22014,3.4666,11.5158,-0.104379,0.0421485,0.302522,0
2024-11-29 18:18:59.604,0.236889,3.45942,11.6689,-0.090329,0.0482569,0.309852,0
2024-11-29 18:18:59.607,0.248854,3.46421,11.7957,-0.0756687,0.0525329,0.316572,0
2024-11-29 18:18:59.610,0.267996,3.45224,11.8938,-0.0377962,0.0671932,0.326345,0
2024-11-29 18:18:59.611,0.292223,3.4331,11.9895,-0.0377962,0.0671932,0.326345,0
2024-11-29 18:18:59.615,0.320937,3.41875,12.0688,-0.0182491,0.0763559,0.331232,0
2024-11-29 18:18:59.617,0.361615,3.39482,12.1358,0.0190126,0.0989573,0.334897,0
2024-11-29 18:18:59.619,0.395115,3.36371,12.2028,0.0190126,0.0989573,0.334897,0
2024-11-29 18:18:59.621,0.442971,3.33978,12.2459,0.037338,0.107509,0.334286,0
2024-11-29 18:18:59.624,0.488435,3.335,12.2674,0.0648262,0.120948,0.330621,0
2024-11-29 18:18:59.627,0.533899,3.32303,12.277,0.0648262,0.120948,0.330621,0
2024-11-29 18:18:59.629,0.555434,3.3015,12.2818,0.0898709,0.132554,0.319015,0
2024-11-29 18:18:59.631,0.557827,3.29671,12.2818,0.0898709,0.132554,0.319015,0
2024-11-29 18:18:59.634,0.584148,3.29193,12.2698,0.0941468,0.13683,0.312907,0
2024-11-29 18:18:59.636,0.610469,3.27039,12.2602,0.100866,0.139273,0.30802,0
2024-11-29 18:18:59.638,0.615255,3.25125,12.253,0.10331,0.142327,0.299468,0
2024-11-29 18:18:59.641,0.617647,3.23928,12.2459,0.105753,0.143549,0.291527,0
2024-11-29 18:18:59.642,0.634397,3.21775,12.2626,0.102699,0.139884,0.283586,0
2024-11-29 18:18:59.644,0.658325,3.17946,12.2961,0.102699,0.13683,0.276256,0
2024-11-29 18:18:59.647,0.682254,3.13639,12.3248,0.0972011,0.130721,0.265871,0
2024-11-29 18:18:59.650,0.696611,3.11725,12.344,0.0917034,0.124002,0.256098,0
2024-11-29 18:18:59.651,0.715753,3.09093,12.399,0.0880384,0.118504,0.247546,0
2024-11-29 18:18:59.655,0.744467,3.04995,12.4756,0.0819299,0.113618,0.238383,0
2024-11-29 18:18:59.657,0.761217,3.02124,12.5521,0.0715455,0.105066,0.22189,0
2024-11-29 18:18:59.659,0.773181,2.98535,12.6266,0.0715455,0.105066,0.22189,0
2024-11-29 18:18:59.662,0.792323,2.94467,12.6936,0.0660479,0.106287,0.21456,0
2024-11-29 18:18:59.664,0.818644,2.91356,12.7774,0.0617719,0.109342,0.209673,0
2024-11-29 18:18:59.668,0.854836,2.85135,12.9162,0.0550526,0.119115,0.1999,0
2024-11-29 18:18:59.669,0.854836,2.85135,12.9162,0.0550526,0.119115,0.1999,0
2024-11-29 18:18:59.671,0.895514,2.81545,13.0023,0.0544418,0.125835,0.197456,0
2024-11-29 18:18:59.673,0.931406,2.76521,13.0645,0.0526092,0.134997,0.196235,0
2024-11-29 18:18:59.676,0.955334,2.71496,13.1124,0.0489441,0.147214,0.191959,0
2024-11-29 18:18:59.677,0.967299,2.67667,13.1507,0.0458899,0.160042,0.190737,0
2024-11-29 18:18:59.680,0.967299,2.65274,13.1988,0.0458899,0.174702,0.188905,0
2024-11-29 18:18:59.683,0.955334,2.62642,13.2371,0.0452791,0.196082,0.189515,0
2024-11-29 18:18:59.685,0.933799,2.62403,13.2395,0.0428357,0.219294,0.190126,0
2024-11-29 18:18:59.688,0.9003,2.63599,13.2347,0.0410031,0.251058,0.191959,0
2024-11-29 18:18:59.691,0.768395,2.74367,13.2012,0.0355055,0.329858,0.204176,0
2024-11-29 18:18:59.691,0.768395,2.74367,13.2012,0.0355055,0.329858,0.204176,0
2024-11-29 18:18:59.696,0.576969,2.86092,13.0789,0.0318404,0.41843,0.22189,0
2024-11-29 18:18:59.697,0.576969,2.86092,13.0789,0.0318404,0.41843,0.22189,0
2024-11-29 18:18:59.701,0.380758,3.05952,12.8827,0.021456,0.507003,0.243881,0
2024-11-29 18:18:59.702,0.380758,3.05952,12.8827,0.013515,0.547319,0.253043,0
2024-11-29 18:18:59.703,0.285045,3.12443,12.7654,0.013515,0.547319,0.253043,0
2024-11-29 18:18:59.706,0.20339,3.17228,12.641,0.00129805,0.579694,0.26465,0
2024-11-29 18:18:59.708,0.12682,3.19861,12.5115,-0.0139731,0.604128,0.276867,0
2024-11-29 18:18:59.710,0.0574277,3.21775,12.3703,-0.0329094,0.62001,0.28664,0
2024-11-29 18:18:59.713,0.0311067,3.21775,12.2148,-0.0567324,0.626118,0.295803,0
2024-11-29 18:18:59.716,0.0574277,3.20339,12.0855,-0.082388,0.620621,0.303133,0
2024-11-29 18:18:59.717,0.107677,3.17707,12.0039,-0.113541,0.598019,0.304355,0
2024-11-29 18:18:59.721,0.191426,3.12921,11.9584,-0.183178,0.517998,0.289694,0
2024-11-29 18:18:59.723,0.311366,3.07867,11.9584,-0.22105,0.456303,0.278088,0
2024-11-29 18:18:59.725,0.445364,3.01645,11.9967,-0.22105,0.456303,0.278088,0
2024-11-29 18:18:59.728,0.576969,2.95902,12.0613,-0.255869,0.383612,0.259152,0
2024-11-29 18:18:59.730,0.706182,2.90638,12.1765,-0.327949,0.217462,0.20723,0
2024-11-29 18:18:59.733,0.82343,2.85853,12.3272,-0.327949,0.217462,0.20723,0
2024-11-29 18:18:59.735,0.938585,2.81306,12.4995,-0.388422,0.0445919,0.146756,0
2024-11-29 18:18:59.737,1.01515,2.76281,12.7104,-0.388422,0.0445919,0.146756,0
2024-11-29 18:18:59.740,1.04387,2.74846,12.9305,-0.410413,-0.0372617,0.116825,0
2024-11-29 18:18:59.742,1.0654,2.78913,13.1339,-0.452561,-0.192417,0.0642917,0
2024-11-29 18:18:59.743,1.13001,2.78913,13.3424,-0.452561,-0.192417,0.0642917,0
2024-11-29 18:18:59.747,1.22812,2.69342,13.5817,-0.475774,-0.300537,0.0117588,0
2024-11-29 18:18:59.749,1.34297,2.57378,13.8356,-0.475774,-0.300537,0.0117588,0
2024-11-29 18:18:59.750,1.43659,2.48016,14.1275,-0.477606,-0.335355,-0.0151185,0
2024-11-29 18:18:59.754,1.50359,2.39163,14.4437,-0.474552,-0.362843,-0.0407741,0
2024-11-29 18:18:59.756,1.53709,2.3007,14.738,-0.443399,-0.39644,-0.0920852,0
2024-11-29 18:18:59.758,1.52513,2.2002,14.9991,-0.443399,-0.39644,-0.0920852,0
2024-11-29 18:18:59.761,1.48445,2.10927,15.2288,-0.419576,-0.406824,-0.113465,0
2024-11-29 18:18:59.762,1.44377,1.9992,15.5426,-0.383536,-0.402548,-0.129958,0
2024-11-29 18:18:59.767,1.36451,1.71416,16.1818,-0.265031,-0.357956,-0.148894,1
2024-11-29 18:18:59.768,1.36451,1.71416,16.1818,-0.265031,-0.357956,-0.148894,0
2024-11-29 18:18:59.770,1.18265,1.69502,16.1315,-0.130645,-0.280379,-0.14584,0
2024-11-29 18:18:59.772,0.931406,1.71416,15.8441,-0.130645,-0.280379,-0.14584,0
2024-11-29 18:18:59.775,0.945763,1.56102,15.7101,-0.0683385,-0.233344,-0.136066,0
2024-11-29 18:18:59.777,1.13719,1.29272,15.7173,0.0538309,-0.177146,-0.122017,0
2024-11-29 18:18:59.780,1.27597,1.03669,15.6335,0.114916,-0.143549,-0.118963,0
2024-11-29 18:18:59.782,1.31665,0.799502,15.4469,0.180276,-0.0995681,-0.118352,0
2024-11-29 18:18:59.784,1.30229,0.586541,15.2671,0.180276,-0.0995681,-0.118352,0
