timestamp,accel_x,accel_y,accel_z,gyro_x,gyro_y,gyro_z,step_timestamp
2024-11-29 18:13:32.619,0.0622134,2.93031,9.5022,-0.00542127,-0.0262664,-0.0584886,0
2024-11-29 18:13:32.619,0.0622134,2.93031,9.5022,-0.00542127,-0.0262664,-0.0584886,0
2024-11-29 18:13:32.619,0.0622134,2.93031,9.5022,-0.00542127,-0.0262664,-0.0584886,0
2024-11-29 18:13:32.619,0.0622134,2.93031,9.5022,-0.00542127,-0.0262664,-0.0584886,0
2024-11-29 18:13:32.619,0.0622134,2.93031,9.5022,-0.00542127,-0.0262664,-0.0584886,0
2024-11-29 18:13:32.619,0.0622134,2.93031,9.5022,-0.00542127,-0.0262664,-0.0584886,0
2024-11-29 18:13:32.619,0.0622134,2.93031,9.5022,-0.00542127,-0.0262664,-0.0584886,0
2024-11-29 18:13:32.619,0.0622134,2.93031,9.5022,-0.00542127,-0.0262664,-0.0584886,0
2024-11-29 18:13:32.619,0.0622134,2.93031,9.5022,-0.00542127,-0.0262664,-0.0584886,0
2024-11-29 18:13:32.619,0.0622134,2.93031,9.5022,-0.00542127,-0.0262664,-0.0584886,0
2024-11-29 18:13:32.620,0.0478565,2.91117,9.47109,-0.00542127,-0.0262664,-0.0584886,0
2024-11-29 18:13:32.620,0.0478565,2.91117,9.47109,-0.00542127,-0.0262664,-0.0584886,0
2024-11-29 18:13:32.620,0.0478565,2.91117,9.47109,-0.00542127,-0.0262664,-0.0584886,0
2024-11-29 18:13:32.620,0.0478565,2.91117,9.47109,-0.00542127,-0.0262664,-0.0584886,0
2024-11-29 18:13:32.621,0.0478565,2.91117,9.47109,-0.010308,-0.0226013,-0.0566561,0
2024-11-29 18:13:32.621,0.0478565,2.91117,9.47109,-0.010308,-0.0226013,-0.0566561,0
2024-11-29 18:13:32.621,0.0478565,2.91117,9.47109,-0.010308,-0.0226013,-0.0566561,0
2024-11-29 18:13:32.621,0.0478565,2.91117,9.47109,-0.010308,-0.0226013,-0.0566561,0
2024-11-29 18:13:32.623,0.0454636,2.90878,9.44956,-0.010308,-0.0226013,-0.0566561,0
2024-11-29 18:13:32.623,0.0454636,2.90878,9.44956,-0.010308,-0.0226013,-0.0566561,0
2024-11-29 18:13:32.624,0.0454636,2.90878,9.44956,-0.010308,-0.0226013,-0.0566561,0
2024-11-29 18:13:32.624,0.0454636,2.90878,9.44956,-0.010308,-0.0226013,-0.0566561,0
2024-11-29 18:13:32.626,0.0358923,2.91835,9.42323,-0.0164165,-0.0116061,-0.0523802,0
2024-11-29 18:13:32.626,0.0358923,2.91835,9.42323,-0.0164165,-0.0116061,-0.0523802,0
2024-11-29 18:13:32.626,0.0358923,2.91835,9.42323,-0.0164165,-0.0116061,-0.0523802,0
2024-11-29 18:13:32.627,0.0358923,2.90878,9.42084,-0.0164165,-0.0116061,-0.0523802,0
2024-11-29 18:13:32.628,0.0358923,2.90878,9.42084,-0.0164165,-0.0116061,-0.0523802,0
2024-11-29 18:13:32.628,0.0358923,2.90878,9.42084,-0.0164165,-0.0116061,-0.0523802,0
2024-11-29 18:13:32.628,0.0358923,2.90878,9.42084,-0.0164165,-0.0116061,-0.0523802,0
2024-11-29 18:13:32.630,0.0454636,2.91117,9.42084,-0.0206925,-0.00794101,-0.0505476,0
2024-11-29 18:13:32.631,0.0454636,2.91117,9.42084,-0.0243575,-0.00183254,-0.0474934,0
2024-11-29 18:13:32.633,0.040678,2.91595,9.40888,-0.0274118,0.00244339,-0.0468825,0
2024-11-29 18:13:32.633,0.040678,2.91595,9.40888,-0.0274118,0.00244339,-0.0468825,0
2024-11-29 18:13:32.634,0.040678,2.92313,9.41127,-0.0274118,0.00244339,-0.0468825,0
2024-11-29 18:13:32.634,0.040678,2.92313,9.41127,-0.0274118,0.00244339,-0.0468825,0
2024-11-29 18:13:32.635,0.040678,2.92313,9.41127,-0.0274118,0.00244339,-0.0468825,0
2024-11-29 18:13:32.635,0.040678,2.92313,9.41127,-0.0274118,0.00244339,-0.0468825,0
2024-11-29 18:13:32.635,0.040678,2.92313,9.41127,-0.0274118,0.00244339,-0.0468825,0
2024-11-29 18:13:32.635,0.040678,2.92313,9.41127,-0.0274118,0.00244339,-0.0468825,0
2024-11-29 18:13:32.635,0.040678,2.92313,9.41127,-0.0274118,0.00244339,-0.0468825,0
2024-11-29 18:13:32.635,0.040678,2.92313,9.41127,-0.0274118,0.00244339,-0.0468825,0
2024-11-29 18:13:32.637,0.0526421,2.92313,9.4017,-0.0298552,0.00916271,-0.0468825,0
2024-11-29 18:13:32.637,0.0526421,2.92313,9.4017,-0.0298552,0.00916271,-0.0468825,0
2024-11-29 18:13:32.637,0.0526421,2.92313,9.4017,-0.0298552,0.00916271,-0.0468825,0
2024-11-29 18:13:32.637,0.0526421,2.92313,9.4017,-0.0298552,0.00916271,-0.0468825,0
2024-11-29 18:13:32.638,0.0526421,2.92313,9.4017,-0.0329094,0.0146603,-0.0462717,0
2024-11-29 18:13:32.638,0.0526421,2.92313,9.4017,-0.0329094,0.0146603,-0.0462717,0
2024-11-29 18:13:32.638,0.0526421,2.92313,9.4017,-0.0329094,0.0146603,-0.0462717,0
2024-11-29 18:13:32.638,0.0526421,2.92313,9.4017,-0.0329094,0.0146603,-0.0462717,0
2024-11-29 18:13:32.639,0.0550349,2.93988,9.39452,-0.0329094,0.0146603,-0.0462717,0
2024-11-29 18:13:32.639,0.0550349,2.93988,9.39452,-0.0329094,0.0146603,-0.0462717,0
2024-11-29 18:13:32.640,0.0550349,2.93988,9.39452,-0.0322986,0.0213797,-0.0432174,0
2024-11-29 18:13:32.640,0.0526421,2.93988,9.39452,-0.0322986,0.0213797,-0.0432174,0
2024-11-29 18:13:32.640,0.0550349,2.93988,9.39452,-0.0322986,0.0213797,-0.0432174,0
2024-11-29 18:13:32.641,0.0502493,2.95902,9.40409,-0.0322986,0.0213797,-0.0432174,0
2024-11-29 18:13:32.641,0.0502493,2.95902,9.40409,-0.0322986,0.0213797,-0.0432174,0
2024-11-29 18:13:32.641,0.0502493,2.95902,9.40409,-0.0322986,0.0213797,-0.0432174,0
2024-11-29 18:13:32.642,0.0502493,2.95902,9.40409,-0.0322986,0.0213797,-0.0432174,0
2024-11-29 18:13:32.642,0.0502493,2.95902,9.40409,-0.0322986,0.0213797,-0.0432174,0
2024-11-29 18:13:32.642,0.0502493,2.95902,9.40409,-0.0322986,0.0213797,-0.0432174,0
2024-11-29 18:13:32.644,0.040678,2.95424,9.40888,-0.0322986,0.0274881,-0.0438283,0
2024-11-29 18:13:32.644,0.040678,2.95424,9.40888,-0.0322986,0.0274881,-0.0438283,0
2024-11-29 18:13:32.644,0.040678,2.95424,9.40888,-0.0322986,0.0274881,-0.0438283,0
2024-11-29 18:13:32.644,0.040678,2.95424,9.40888,-0.0322986,0.0274881,-0.0438283,0
2024-11-29 18:13:32.645,0.040678,2.95424,9.40888,-0.0310769,0.0354291,-0.0444391,0
2024-11-29 18:13:32.645,0.040678,2.95424,9.40888,-0.0310769,0.0354291,-0.0444391,0
2024-11-29 18:13:32.645,0.040678,2.95424,9.40888,-0.0310769,0.0354291,-0.0444391,0
2024-11-29 18:13:32.645,0.040678,2.95424,9.40888,-0.0310769,0.0354291,-0.0444391,0
2024-11-29 18:13:32.646,0.040678,2.96142,9.40648,-0.0310769,0.0354291,-0.0444391,0
2024-11-29 18:13:32.646,0.040678,2.96142,9.40648,-0.0310769,0.0354291,-0.0444391,0
2024-11-29 18:13:32.646,0.040678,2.96142,9.40648,-0.0310769,0.0354291,-0.0444391,0
2024-11-29 18:13:32.647,0.040678,2.96142,9.40648,-0.0298552,0.0421485,-0.0413849,0
2024-11-29 18:13:32.647,0.040678,2.96142,9.40648,-0.0298552,0.0421485,-0.0413849,0
2024-11-29 18:13:32.647,0.040678,2.96142,9.40648,-0.0298552,0.0421485,-0.0413849,0
2024-11-29 18:13:32.647,0.040678,2.96142,9.40648,-0.0298552,0.0421485,-0.0413849,0
2024-11-29 18:13:32.647,0.040678,2.96142,9.40648,-0.0298552,0.0421485,-0.0413849,0
2024-11-29 18:13:32.649,0.0526421,2.98535,9.39931,-0.0298552,0.0421485,-0.0413849,0
2024-11-29 18:13:32.649,0.0526421,2.98535,9.39931,-0.0298552,0.0421485,-0.0413849,0
2024-11-29 18:13:32.650,0.0526421,2.98535,9.39931,-0.0286335,0.0482569,-0.0407741,0
2024-11-29 18:13:32.650,0.0526421,2.98535,9.39931,-0.0286335,0.0482569,-0.0407741,0
2024-11-29 18:13:32.650,0.0526421,2.98535,9.39931,-0.0286335,0.0482569,-0.0407741,0
2024-11-29 18:13:32.650,0.0526421,2.98535,9.39931,-0.0286335,0.0482569,-0.0407741,0
2024-11-29 18:13:32.651,0.0502493,2.98295,9.38495,-0.0286335,0.0482569,-0.0407741,0
2024-11-29 18:13:32.651,0.0526421,2.98535,9.38495,-0.0286335,0.0482569,-0.0407741,0
2024-11-29 18:13:32.651,0.0502493,2.98295,9.38495,-0.0286335,0.0482569,-0.0407741,0
2024-11-29 18:13:32.652,0.0502493,2.98295,9.38495,-0.0274118,0.0531437,-0.0413849,0
2024-11-29 18:13:32.652,0.0502493,2.98295,9.38495,-0.0274118,0.0531437,-0.0413849,0
2024-11-29 18:13:32.652,0.0502493,2.98295,9.38495,-0.0274118,0.0531437,-0.0413849,0
2024-11-29 18:13:32.652,0.0502493,2.98295,9.38495,-0.0274118,0.0531437,-0.0413849,0
2024-11-29 18:13:32.652,0.0502493,2.98295,9.38495,-0.0274118,0.0531437,-0.0413849,0
2024-11-29 18:13:32.653,0.0430708,2.97338,9.36102,-0.0274118,0.0531437,-0.0413849,0
2024-11-29 18:13:32.653,0.0430708,2.97338,9.36102,-0.0274118,0.0531437,-0.0413849,0
2024-11-29 18:13:32.653,0.0430708,2.97338,9.36102,-0.0274118,0.0531437,-0.0413849,0
2024-11-29 18:13:32.653,0.0430708,2.97338,9.36102,-0.0274118,0.0531437,-0.0413849,0
2024-11-29 18:13:32.654,0.0430708,2.97338,9.36102,-0.0249684,0.0574196,-0.0383307,0
2024-11-29 18:13:32.654,0.0430708,2.97338,9.36102,-0.0249684,0.0574196,-0.0383307,0
2024-11-29 18:13:32.654,0.0430708,2.97338,9.36102,-0.0249684,0.0574196,-0.0383307,0
2024-11-29 18:13:32.654,0.0430708,2.97338,9.36102,-0.0249684,0.0574196,-0.0383307,0
2024-11-29 18:13:32.654,0.0430708,2.97338,9.36102,-0.0249684,0.0574196,-0.0383307,0
2024-11-29 18:13:32.656,0.0239282,2.97577,9.3347,-0.0249684,0.0574196,-0.0383307,0
2024-11-29 18:13:32.656,0.0239282,2.97577,9.3347,-0.0249684,0.0574196,-0.0383307,0
2024-11-29 18:13:32.657,0.0239282,2.97577,9.3347,-0.0237467,0.0592522,-0.037109,0
2024-11-29 18:13:32.657,0.0239282,2.97577,9.3347,-0.0237467,0.0592522,-0.037109,0
2024-11-29 18:13:32.657,0.0239282,2.97577,9.3347,-0.0237467,0.0592522,-0.037109,0
2024-11-29 18:13:32.657,0.0239282,2.97577,9.3347,-0.0237467,0.0592522,-0.037109,0
2024-11-29 18:13:32.657,0.0239282,2.97577,9.3347,-0.0237467,0.0592522,-0.037109,0
2024-11-29 18:13:32.658,0.00957129,2.9662,9.30838,-0.0237467,0.0592522,-0.037109,0
2024-11-29 18:13:32.658,0.00957129,2.9662,9.30838,-0.0237467,0.0592522,-0.037109,0
2024-11-29 18:13:32.658,0.00957129,2.9662,9.30838,-0.0237467,0.0592522,-0.037109,0
2024-11-29 18:13:32.658,0.00957129,2.9662,9.30838,-0.0237467,0.0592522,-0.037109,0
2024-11-29 18:13:32.659,0.00957129,2.9662,9.30838,-0.0213033,0.0586413,-0.0383307,0
2024-11-29 18:13:32.659,0.00957129,2.9662,9.30838,-0.0213033,0.0586413,-0.0383307,0
2024-11-29 18:13:32.660,0.0119641,2.96381,9.29163,-0.0213033,0.0586413,-0.0383307,0
2024-11-29 18:13:32.660,0.0119641,2.96381,9.29163,-0.0213033,0.0586413,-0.0383307,0
2024-11-29 18:13:32.660,0.0119641,2.96381,9.29163,-0.0213033,0.0586413,-0.0383307,0
2024-11-29 18:13:32.660,0.0119641,2.96381,9.29163,-0.0213033,0.0586413,-0.0383307,0
2024-11-29 18:13:32.661,0.0119641,2.96381,9.29163,-0.0206925,0.0574196,-0.0352764,0
2024-11-29 18:13:32.661,0.0119641,2.96381,9.29163,-0.0206925,0.0574196,-0.0352764,0
2024-11-29 18:13:32.661,0.0119641,2.96381,9.29163,-0.0206925,0.0574196,-0.0352764,0
2024-11-29 18:13:32.661,0.0119641,2.96381,9.29163,-0.0206925,0.0574196,-0.0352764,0
2024-11-29 18:13:32.661,0.0119641,2.96381,9.29163,-0.0206925,0.0574196,-0.0352764,0
2024-11-29 18:13:32.661,0.0119641,2.96381,9.29163,-0.0206925,0.0574196,-0.0352764,0
2024-11-29 18:13:32.663,0.0167498,2.9662,9.2677,-0.0206925,0.0574196,-0.0352764,0
2024-11-29 18:13:32.663,0.0167498,2.9662,9.2677,-0.0206925,0.0574196,-0.0352764,0
2024-11-29 18:13:32.663,0.0167498,2.9662,9.2677,-0.0206925,0.0574196,-0.0352764,0
2024-11-29 18:13:32.664,0.0167498,2.9662,9.2677,-0.0194708,0.0561979,-0.0346656,0
2024-11-29 18:13:32.664,0.0167498,2.9662,9.2677,-0.0194708,0.0561979,-0.0346656,0
2024-11-29 18:13:32.664,0.0167498,2.9662,9.2677,-0.0194708,0.0561979,-0.0346656,0
2024-11-29 18:13:32.664,0.0167498,2.9662,9.2677,-0.0194708,0.0561979,-0.0346656,0
2024-11-29 18:13:32.665,0.00957129,2.9662,9.22194,-0.0194708,0.0561979,-0.0346656,0
2024-11-29 18:13:32.665,0.00957129,2.9662,9.22194,-0.0194708,0.0561979,-0.0346656,0
2024-11-29 18:13:32.665,0.00957129,2.9662,9.22194,-0.0194708,0.0561979,-0.0346656,0
2024-11-29 18:13:32.665,0.00957129,2.9662,9.22194,-0.0194708,0.0561979,-0.0346656,0
2024-11-29 18:13:32.666,0.00957129,2.9662,9.22194,-0.0200816,0.0488678,-0.0334439,0
2024-11-29 18:13:32.666,0.00957129,2.9662,9.22194,-0.0200816,0.0488678,-0.0334439,0
2024-11-29 18:13:32.666,0.00957129,2.9662,9.22194,-0.0200816,0.0488678,-0.0334439,0
2024-11-29 18:13:32.666,0.00957129,2.9662,9.22194,-0.0200816,0.0488678,-0.0334439,0
2024-11-29 18:13:32.666,0.00957129,2.9662,9.22194,-0.0200816,0.0488678,-0.0334439,0
2024-11-29 18:13:32.666,0.00957129,2.9662,9.22194,-0.0200816,0.0488678,-0.0334439,0
2024-11-29 18:13:32.666,0.00957129,2.9662,9.22194,-0.0200816,0.0488678,-0.0334439,0
2024-11-29 18:13:32.667,-0.0119641,2.96381,9.18844,-0.0200816,0.0488678,-0.0334439,0
2024-11-29 18:13:32.667,-0.0119641,2.96381,9.18844,-0.0200816,0.0488678,-0.0334439,0
2024-11-29 18:13:32.667,-0.0119641,2.96381,9.18844,-0.0200816,0.0488678,-0.0334439,0
2024-11-29 18:13:32.667,-0.0119641,2.96381,9.18844,-0.0200816,0.0488678,-0.0334439,0
2024-11-29 18:13:32.668,-0.0119641,2.96381,9.18844,-0.0200816,0.0488678,-0.0334439,0
2024-11-29 18:13:32.668,-0.0119641,2.96381,9.18844,-0.0200816,0.0488678,-0.0334439,0
2024-11-29 18:13:32.670,-0.00957129,2.95902,9.1693,-0.0200816,0.0470352,-0.032833,0
2024-11-29 18:13:32.673,-0.00478565,2.97338,9.15015,-0.0188599,0.0421485,-0.032833,0
2024-11-29 18:13:32.675,-0.00957129,2.98535,9.14058,-0.0182491,0.0335966,-0.0303897,0
2024-11-29 18:13:32.678,0.00478565,2.97577,9.12623,-0.0182491,0.0299315,-0.0297788,0
2024-11-29 18:13:32.679,0.0143569,2.97577,9.11905,-0.0164165,0.0226013,-0.0303897,0
2024-11-29 18:13:32.682,0.0191426,2.98774,9.11426,-0.0158057,0.0140495,-0.029168,0
2024-11-29 18:13:32.685,0.0239282,2.98774,9.10469,-0.0158057,0.00671932,-0.0297788,0
2024-11-29 18:13:32.687,0.0239282,2.99252,9.09033,-0.0164165,-0.00122169,-0.0297788,0
2024-11-29 18:13:32.690,0.0502493,2.99252,9.06162,-0.0158057,-0.0128278,-0.0303897,0
2024-11-29 18:13:32.692,0.0837488,2.98535,9.04248,-0.0194708,-0.0372617,-0.0340547,0
2024-11-29 18:13:32.694,0.0909273,2.98774,9.04248,-0.0194708,-0.0372617,-0.0340547,0
2024-11-29 18:13:32.697,0.11007,2.98295,9.04965,-0.0243575,-0.0635281,-0.037109,0
2024-11-29 18:13:32.698,0.122034,2.99252,9.06401,-0.0243575,-0.0635281,-0.037109,0
2024-11-29 18:13:32.701,0.129212,3.00688,9.0688,-0.0298552,-0.0757451,-0.0395524,0
2024-11-29 18:13:32.703,0.143569,3.01167,9.07598,-0.0335202,-0.0885729,-0.0438283,0
2024-11-29 18:13:32.706,0.162712,3.01884,9.10708,-0.0408504,-0.110563,-0.0505476,0
2024-11-29 18:13:32.708,0.179462,3.02363,9.14297,-0.0408504,-0.110563,-0.0505476,0
2024-11-29 18:13:32.710,0.177069,3.0332,9.17647,-0.0451263,-0.122169,-0.0536018,0
2024-11-29 18:13:32.713,0.181855,3.03559,9.20758,-0.0481806,-0.130721,-0.0572669,0
2024-11-29 18:13:32.715,0.20339,3.01884,9.25783,-0.050624,-0.13683,-0.0603212,0
2024-11-29 18:13:32.717,0.229711,3.01167,9.31077,-0.0548999,-0.147825,-0.0639862,0
2024-11-29 18:13:32.719,0.248854,3.00688,9.34666,-0.058565,-0.155155,-0.0676513,0
2024-11-29 18:13:32.722,0.263211,3.00449,9.38495,-0.0610084,-0.160042,-0.0707056,0
2024-11-29 18:13:32.725,0.277567,2.9997,9.43281,-0.0634518,-0.164929,-0.0743707,0
2024-11-29 18:13:32.727,0.294616,2.99252,9.48784,-0.0671168,-0.166761,-0.0774249,0
2024-11-29 18:13:32.730,0.320937,2.98295,9.5333,-0.0713928,-0.166761,-0.0859767,0
2024-11-29 18:13:32.731,0.337687,2.97577,9.57638,-0.0713928,-0.166761,-0.0859767,0
2024-11-29 18:13:32.734,0.335294,2.95663,9.61945,-0.0720036,-0.161264,-0.089031,0
2024-11-29 18:13:32.737,0.335294,2.94706,9.65534,-0.0732253,-0.154544,-0.0902527,0
2024-11-29 18:13:32.739,0.337687,2.93031,9.69362,-0.0732253,-0.154544,-0.0902527,0
2024-11-29 18:13:32.740,0.347258,2.90399,9.72952,-0.0738362,-0.147825,-0.0926961,0
2024-11-29 18:13:32.743,0.359223,2.88724,9.75823,-0.0707819,-0.140495,-0.0933069,0
2024-11-29 18:13:32.746,0.354437,2.8657,9.7678,-0.0720036,-0.13011,-0.0939178,0
2024-11-29 18:13:32.747,0.352044,2.84656,9.76541,-0.0701711,-0.120337,-0.0951395,0
2024-11-29 18:13:32.751,0.344866,2.8346,9.76302,-0.0689494,-0.0965139,-0.096972,0
2024-11-29 18:13:32.752,0.335294,2.8346,9.75105,-0.0689494,-0.0965139,-0.096972,0
2024-11-29 18:13:32.755,0.330509,2.82503,9.72952,-0.0701711,-0.0855186,-0.0951395,0
2024-11-29 18:13:32.757,0.30658,2.82263,9.69841,-0.0677277,-0.0733017,-0.0951395,0
2024-11-29 18:13:32.759,0.272782,2.82263,9.6673,-0.066506,-0.0610847,-0.0951395,0
2024-11-29 18:13:32.762,0.241675,2.82263,9.64098,-0.0671168,-0.0482569,-0.0926961,0
2024-11-29 18:13:32.766,0.210568,2.81306,9.57159,-0.0695602,-0.0378725,-0.0902527,0
2024-11-29 18:13:32.767,0.210568,2.81306,9.57159,-0.0720036,-0.0207688,-0.0847551,0
2024-11-29 18:13:32.770,0.193819,2.81067,9.53809,-0.0707819,-0.0171037,-0.0817008,0
2024-11-29 18:13:32.772,0.16989,2.82024,9.50459,-0.0707819,-0.0171037,-0.0817008,0
2024-11-29 18:13:32.776,0.160319,2.81067,9.43041,-0.0738362,-0.00671932,-0.0737598,0
2024-11-29 18:13:32.777,0.172283,2.81067,9.43041,-0.0738362,-0.00671932,-0.0737598,0
2024-11-29 18:13:32.778,0.179462,2.81306,9.37777,-0.0738362,-0.00366508,-0.0694839,0
2024-11-29 18:13:32.780,0.198604,2.82263,9.33231,-0.0762796,-0.000610847,-0.0658188,0
2024-11-29 18:13:32.783,0.212961,2.84178,9.30359,-0.0787229,0.000610847,-0.0639862,0
2024-11-29 18:13:32.785,0.234497,2.84178,9.27727,-0.0817772,0.00305424,-0.0603212,0
2024-11-29 18:13:32.787,0.256032,2.85135,9.2339,-0.0817772,0.00183254,-0.0578778,0
2024-11-29 18:13:32.791,0.272782,2.88485,9.19083,-0.0854423,0.000610847,-0.0542127,0
2024-11-29 18:13:32.793,0.301795,2.90638,9.17408,-0.0897182,-0.00183254,-0.0511585,0
2024-11-29 18:13:32.795,0.332901,2.92552,9.15255,-0.0897182,-0.00183254,-0.0511585,0
2024-11-29 18:13:32.798,0.368794,2.95185,9.14058,-0.0976592,-0.00855186,-0.0493259,0
2024-11-29 18:13:32.800,0.3999,2.98535,9.12862,-0.0976592,-0.00855186,-0.0493259,0
2024-11-29 18:13:32.802,0.421436,3.02124,9.11426,-0.103768,-0.00977356,-0.0517693,0
2024-11-29 18:13:32.804,0.445364,3.05474,9.10948,-0.106211,-0.0116061,-0.0499368,0
2024-11-29 18:13:32.807,0.454935,3.10289,9.10948,-0.109265,-0.0122169,-0.0517693,0
2024-11-29 18:13:32.810,0.476471,3.13879,9.11426,-0.111098,-0.00977356,-0.0590995,0
2024-11-29 18:13:32.812,0.505185,3.15314,9.13819,-0.117206,-0.00977356,-0.0615429,0
2024-11-29 18:13:32.814,0.50997,3.18664,9.14776,-0.117206,-0.00977356,-0.0615429,0
2024-11-29 18:13:32.816,0.512363,3.21775,9.14058,-0.113541,-0.00855186,-0.0658188,0
2024-11-29 18:13:32.819,0.519542,3.24885,9.14058,-0.115985,-0.00794101,-0.0700947,0
2024-11-29 18:13:32.820,0.524327,3.27996,9.12862,-0.117817,-0.00916271,-0.0755923,0
2024-11-29 18:13:32.824,0.524327,3.29432,9.10708,-0.120871,-0.00977356,-0.0871984,0
2024-11-29 18:13:32.826,0.536291,3.31107,9.08794,-0.120871,-0.00977356,-0.0871984,0
2024-11-29 18:13:32.828,0.538684,3.30628,9.05923,-0.125147,-0.0128278,-0.0908635,0
2024-11-29 18:13:32.831,0.538684,3.28714,9.04487,-0.133699,-0.0226013,-0.101248,0
2024-11-29 18:13:32.833,0.550648,3.29193,9.03291,-0.133699,-0.0226013,-0.101248,0
2024-11-29 18:13:32.836,0.557827,3.3015,9.01137,-0.14164,-0.0305424,-0.107356,0
2024-11-29 18:13:32.838,0.576969,3.30389,9.02094,-0.156301,-0.0464244,-0.115908,0
2024-11-29 18:13:32.840,0.615255,3.28953,9.05205,-0.156301,-0.0464244,-0.115908,0
2024-11-29 18:13:32.843,0.639183,3.28235,9.07598,-0.167907,-0.064139,-0.12446,0
2024-11-29 18:13:32.845,0.651147,3.2991,9.10708,-0.167907,-0.064139,-0.12446,0
2024-11-29 18:13:32.847,0.670289,3.3015,9.13819,-0.172183,-0.0684149,-0.129347,0
2024-11-29 18:13:32.849,0.691825,3.30628,9.17887,-0.176459,-0.0745234,-0.134234,0
2024-11-29 18:13:32.851,0.725324,3.32782,9.24347,-0.183178,-0.080021,-0.137899,0
2024-11-29 18:13:32.854,0.789931,3.30628,9.32752,-0.187454,-0.0861295,-0.142175,0
2024-11-29 18:13:32.856,0.813859,3.28475,9.39691,-0.189286,-0.0934596,-0.147061,0
2024-11-29 18:13:32.858,0.766002,3.32064,9.38734,-0.191119,-0.0934596,-0.15317,0
2024-11-29 18:13:32.861,0.727717,3.35175,9.37538,-0.193562,-0.0916271,-0.156835,0
2024-11-29 18:13:32.865,0.732503,3.40439,9.49741,-0.195395,-0.0836861,-0.165998,0
2024-11-29 18:13:32.866,0.732503,3.40439,9.49741,-0.195395,-0.0836861,-0.165998,0
2024-11-29 18:13:32.868,0.71336,3.42353,9.53091,-0.198449,-0.0824644,-0.170274,0
2024-11-29 18:13:32.871,0.708575,3.44507,9.54527,-0.198449,-0.0775776,-0.169663,0
2024-11-29 18:13:32.872,0.699003,3.46899,9.55005,-0.201503,-0.0714691,-0.172717,0
2024-11-29 18:13:32.875,0.677468,3.47617,9.56441,-0.202725,-0.0653607,-0.177604,0
2024-11-29 18:13:32.878,0.65354,3.47139,9.58116,-0.205779,-0.0604739,-0.179436,0
2024-11-29 18:13:32.882,0.634397,3.50249,9.55963,-0.208833,-0.0403159,-0.185545,0
2024-11-29 18:13:32.883,0.634397,3.50249,9.55963,-0.213109,-0.0287098,-0.187988,0
2024-11-29 18:13:32.884,0.605683,3.51685,9.5357,-0.213109,-0.0287098,-0.187988,0
2024-11-29 18:13:32.887,0.581755,3.52642,9.5022,-0.216774,-0.0195471,-0.18921,0
2024-11-29 18:13:32.889,0.541077,3.55035,9.4687,-0.22105,-0.00794101,-0.18921,0
2024-11-29 18:13:32.891,0.498006,3.57906,9.43281,-0.229602,0.00122169,-0.18921,0
2024-11-29 18:13:32.893,0.459721,3.59821,9.37299,-0.237543,0.00916271,-0.189821,0
2024-11-29 18:13:32.896,0.41665,3.62692,9.32274,-0.246706,0.015882,-0.185545,0
2024-11-29 18:13:32.899,0.383151,3.6679,9.29402,-0.267475,0.028099,-0.182491,0
2024-11-29 18:13:32.902,0.352044,3.70858,9.27009,-0.267475,0.028099,-0.182491,0
2024-11-29 18:13:32.904,0.318545,3.73729,9.25305,-0.281524,0.0317641,-0.177604,0
2024-11-29 18:13:32.908,0.35683,3.75643,9.30838,-0.308401,0.0311532,-0.17516,0
2024-11-29 18:13:32.909,0.35683,3.75643,9.30838,-0.32184,0.0323749,-0.172106,0
2024-11-29 18:13:32.911,0.299402,3.7995,9.21715,-0.32184,0.0323749,-0.172106,0
2024-11-29 18:13:32.913,0.330509,3.81865,9.23869,-0.32184,0.0323749,-0.172106,0
2024-11-29 18:13:32.916,0.383151,3.82582,9.32034,-0.354826,0.0287098,-0.171495,0
2024-11-29 18:13:32.917,0.3999,3.84497,9.39931,-0.367043,0.0232122,-0.170885,0
2024-11-29 18:13:32.919,0.404686,3.86411,9.48545,-0.381092,0.0122169,-0.170885,0
2024-11-29 18:13:32.924,0.4334,3.90957,9.72473,-0.403083,-0.0103844,-0.173328,0
2024-11-29 18:13:32.925,0.414257,3.88804,9.59073,-0.40858,-0.0226013,-0.173939,0
2024-11-29 18:13:32.927,0.447757,3.90718,9.87338,-0.40858,-0.0226013,-0.173939,0
2024-11-29 18:13:32.929,0.464507,3.9,10.0241,-0.411635,-0.0354291,-0.175771,0
2024-11-29 18:13:32.932,0.483649,3.88564,10.1845,-0.406137,-0.0604739,-0.179436,0
2024-11-29 18:13:32.934,0.486042,3.87129,10.3448,-0.406137,-0.0604739,-0.179436,0
2024-11-29 18:13:32.936,0.502792,3.85693,10.5006,-0.398196,-0.07208,-0.18188,0
2024-11-29 18:13:32.939,0.536291,3.84018,10.6514,-0.374373,-0.0934596,-0.186156,0
2024-11-29 18:13:32.942,0.52672,3.82822,10.7734,-0.374373,-0.0934596,-0.186156,0
2024-11-29 18:13:32.944,0.495613,3.81865,10.8811,-0.340776,-0.104455,-0.187988,0
2024-11-29 18:13:32.945,0.474078,3.7995,10.9699,-0.340776,-0.104455,-0.187988,0
2024-11-29 18:13:32.949,0.457328,3.7995,11.0393,-0.302904,-0.106287,-0.183712,0
2024-11-29 18:13:32.950,0.426222,3.7995,11.1135,-0.302904,-0.106287,-0.183712,0
2024-11-29 18:13:32.952,0.35683,3.78754,11.1709,-0.277248,-0.104455,-0.180658,0
2024-11-29 18:13:32.955,0.299402,3.79711,11.1924,-0.254647,-0.0995681,-0.175771,0
2024-11-29 18:13:32.958,0.244068,3.78515,11.202,-0.228991,-0.0891837,-0.170274,0
2024-11-29 18:13:32.960,0.157926,3.74925,11.1876,-0.205779,-0.080021,-0.161722,0
2024-11-29 18:13:32.963,0.0693919,3.72533,11.147,-0.15569,-0.0574196,-0.142175,0
2024-11-29 18:13:32.964,0.0119641,3.70858,11.1039,-0.15569,-0.0574196,-0.142175,0
2024-11-29 18:13:32.968,-0.0239282,3.69422,11.0632,-0.132477,-0.0464244,-0.129347,0
2024-11-29 18:13:32.969,-0.0526421,3.67986,11.0082,-0.106822,-0.0342074,-0.118352,0
2024-11-29 18:13:32.972,-0.0717847,3.68943,10.9217,-0.0597867,-0.00122169,-0.0945286,0
2024-11-29 18:13:32.975,-0.0885344,3.69183,10.8212,-0.038407,0.0177146,-0.0817008,0
2024-11-29 18:13:32.977,-0.0933201,3.67986,10.716,-0.038407,0.0177146,-0.0817008,0
2024-11-29 18:13:32.979,-0.11007,3.68226,10.5652,-0.0188599,0.0372617,-0.0713164,0
2024-11-29 18:13:32.982,-0.133998,3.67747,10.4049,-0.00236703,0.0574196,-0.060932,0
2024-11-29 18:13:32.983,-0.145962,3.67268,10.2586,0.0110716,0.0763559,-0.0505476,0
2024-11-29 18:13:32.986,-0.145962,3.67747,10.0887,0.0196235,0.0940705,-0.0413849,0
2024-11-29 18:13:32.988,-0.122034,3.67029,9.91885,0.0281753,0.106898,-0.0303897,0
2024-11-29 18:13:32.990,-0.0957129,3.67029,9.77498,0.0318404,0.116672,-0.0218378,0
2024-11-29 18:13:32.992,-0.0741775,3.6679,9.64098,0.0355055,0.126445,-0.0126751,0
2024-11-29 18:13:32.996,-0.040678,3.68226,9.50698,0.0348946,0.134386,-0.00717746,0
2024-11-29 18:13:32.998,-0.0167498,3.69422,9.40409,0.033673,0.149047,0.0038178,0
2024-11-29 18:13:32.999,0.00478565,3.68704,9.32992,0.033673,0.149047,0.0038178,0
2024-11-29 18:13:33.003,0.0550349,3.69422,9.25544,0.0287862,0.153934,0.00809373,0
2024-11-29 18:13:33.004,0.107677,3.68704,9.2004,0.0287862,0.153934,0.00809373,0
2024-11-29 18:13:33.007,0.141177,3.68465,9.1693,0.0269536,0.152712,0.00809373,0
2024-11-29 18:13:33.010,0.172283,3.68465,9.14058,0.0232886,0.150879,0.00809373,0
2024-11-29 18:13:33.012,0.200997,3.69661,9.11426,0.0232886,0.14416,0.0025961,0
2024-11-29 18:13:33.015,0.227318,3.70618,9.09751,0.0232886,0.138662,0.000152712,0
2024-11-29 18:13:33.017,0.251246,3.70618,9.08794,0.0232886,0.138662,0.000152712,0
2024-11-29 18:13:33.018,0.275175,3.70618,9.07358,0.021456,0.134386,-0.00351237,0
2024-11-29 18:13:33.021,0.282652,3.68465,9.0688,0.0251211,0.130721,-0.00595576,0
2024-11-29 18:13:33.023,0.287438,3.67029,9.06641,0.0275645,0.125835,-0.00962084,0
2024-11-29 18:13:33.026,0.304188,3.67268,9.05205,0.033673,0.123391,-0.0120642,0
2024-11-29 18:13:33.028,0.318545,3.64876,9.02812,0.0379489,0.119115,-0.0163402,0
2024-11-29 18:13:33.031,0.330509,3.62692,9.00658,0.0458899,0.111785,-0.0212269,0
2024-11-29 18:13:33.032,0.332901,3.62453,8.98266,0.0458899,0.111785,-0.0212269,0
2024-11-29 18:13:33.036,0.318545,3.61256,8.94437,0.0532201,0.106287,-0.0218378,0
2024-11-29 18:13:33.038,0.301795,3.57906,8.9013,0.0556635,0.101401,-0.0236703,0
2024-11-29 18:13:33.040,0.27996,3.55753,8.85823,0.0605502,0.0977356,-0.0255029,0
2024-11-29 18:13:33.042,0.270389,3.54556,8.81755,0.0648262,0.0916271,-0.024892,0
2024-11-29 18:13:33.045,0.265603,3.52882,8.7697,0.0672696,0.0861295,-0.0242812,0
2024-11-29 18:13:33.047,0.258425,3.51207,8.7338,0.0691021,0.0806318,-0.0236703,0
2024-11-29 18:13:33.049,0.258425,3.49053,8.69283,0.0691021,0.0757451,-0.0236703,0
2024-11-29 18:13:33.051,0.260818,3.47139,8.65215,0.0709346,0.0684149,-0.0236703,0
2024-11-29 18:13:33.055,0.316152,3.44028,8.67608,0.0684913,0.0476461,-0.0212269,0
2024-11-29 18:13:33.056,0.320937,3.41396,8.66172,0.0684913,0.0476461,-0.0212269,0
2024-11-29 18:13:33.059,0.258425,3.43071,8.56601,0.0684913,0.0476461,-0.0212269,0
2024-11-29 18:13:33.061,0.263211,3.43789,8.50379,0.0678804,0.0409268,-0.0224486,0
2024-11-29 18:13:33.064,0.27996,3.4331,8.47269,0.0593285,0.0335966,-0.0181727,0
2024-11-29 18:13:33.066,0.282652,3.44507,8.45354,0.0593285,0.0335966,-0.0181727,0
2024-11-29 18:13:33.069,0.285045,3.45464,8.44636,0.0489441,0.0293207,-0.0181727,0
2024-11-29 18:13:33.071,0.27996,3.45464,8.4344,0.0434465,0.028099,-0.016951,0
2024-11-29 18:13:33.074,0.27996,3.4666,8.41047,0.0434465,0.028099,-0.016951,0
2024-11-29 18:13:33.076,0.282652,3.47617,8.41047,0.0403923,0.0268773,-0.0138968,0
2024-11-29 18:13:33.078,0.282652,3.4666,8.41765,0.0306187,0.0274881,-0.0145076,0
2024-11-29 18:13:33.081,0.304188,3.45703,8.41047,0.0306187,0.0274881,-0.0145076,0
2024-11-29 18:13:33.082,0.320937,3.46899,8.41047,0.0257319,0.0293207,-0.0120642,0
2024-11-29 18:13:33.084,0.320937,3.48335,8.41526,0.0202343,0.0342074,-0.0120642,0
2024-11-29 18:13:33.088,0.325723,3.48574,8.42483,0.013515,0.0470352,-0.0138968,0
2024-11-29 18:13:33.089,0.325723,3.5001,8.40329,0.013515,0.0470352,-0.0138968,0
2024-11-29 18:13:33.092,0.320937,3.51446,8.38894,0.00984991,0.0543654,-0.0151185,0
2024-11-29 18:13:33.095,0.313759,3.51446,8.39372,0.00740652,0.0653607,-0.0151185,0
2024-11-29 18:13:33.096,0.304188,3.51685,8.37697,0.00374144,0.0702474,-0.016951,0
2024-11-29 18:13:33.098,0.294616,3.53121,8.35544,-0.00175619,0.0775776,-0.0157293,0
2024-11-29 18:13:33.101,0.289831,3.55035,8.33151,-0.00664296,0.0842969,-0.0151185,0
2024-11-29 18:13:33.104,0.282652,3.56949,8.30758,-0.0188599,0.0934596,-0.0181727,0
2024-11-29 18:13:33.106,0.272782,3.58864,8.28844,-0.0188599,0.0934596,-0.0181727,0
2024-11-29 18:13:33.109,0.248854,3.60539,8.28365,-0.0231358,0.0995681,-0.016951,0
2024-11-29 18:13:33.110,0.222533,3.62214,8.26451,-0.0286335,0.105677,-0.016951,0
2024-11-29 18:13:33.114,0.198604,3.63649,8.25015,-0.0353528,0.111174,-0.0206161,0
2024-11-29 18:13:33.116,0.181855,3.63889,8.24537,-0.0396287,0.116061,-0.0206161,0
2024-11-29 18:13:33.118,0.172283,3.6679,8.24776,-0.0445155,0.12278,-0.0187836,0
2024-11-29 18:13:33.120,0.160319,3.68226,8.26451,-0.0500131,0.126445,-0.0193944,0
2024-11-29 18:13:33.123,0.150748,3.67268,8.2693,-0.0512348,0.128278,-0.0200052,0
2024-11-29 18:13:33.124,0.141177,3.69183,8.2693,-0.0536782,0.1295,-0.0206161,0
2024-11-29 18:13:33.127,0.12682,3.70858,8.25972,-0.0579541,0.130721,-0.0206161,0
2024-11-29 18:13:33.130,0.100499,3.71815,8.25255,-0.0610084,0.127667,-0.024892,0
2024-11-29 18:13:33.132,0.066999,3.72772,8.26212,-0.0634518,0.128889,-0.0236703,0
2024-11-29 18:13:33.136,0.0,3.73011,8.27169,-0.066506,0.125835,-0.0242812,0
2024-11-29 18:13:33.137,0.0,3.73011,8.27169,-0.066506,0.125835,-0.0242812,0
2024-11-29 18:13:33.139,-0.0215354,3.74686,8.2693,-0.0707819,0.123391,-0.0242812,0
2024-11-29 18:13:33.142,-0.0598206,3.74208,8.27169,-0.0738362,0.11545,-0.0224486,0
2024-11-29 18:13:33.144,-0.0981057,3.74208,8.27887,-0.074447,0.112396,-0.0193944,0
2024-11-29 18:13:33.146,-0.129212,3.75643,8.27647,-0.074447,0.112396,-0.0193944,0
2024-11-29 18:13:33.149,-0.157926,3.75883,8.3004,-0.0768904,0.0995681,-0.0126751,0
2024-11-29 18:13:33.150,-0.189033,3.7684,8.32433,-0.0768904,0.0995681,-0.0126751,0
2024-11-29 18:13:33.154,-0.215354,3.7684,8.3339,-0.0768904,0.0910162,-0.0102317,0
2024-11-29 18:13:33.155,-0.236889,3.75404,8.36501,-0.0768904,0.0910162,-0.0102317,0
2024-11-29 18:13:33.158,-0.265603,3.766,8.40329,-0.0775012,0.0739125,0.00442864,0
2024-11-29 18:13:33.161,-0.304188,3.77557,8.42962,-0.074447,0.0671932,0.0117588,0
2024-11-29 18:13:33.162,-0.328116,3.7684,8.44158,-0.074447,0.0671932,0.0117588,0
2024-11-29 18:13:33.165,-0.332901,3.77557,8.42004,-0.0720036,0.0665824,0.0166456,0
2024-11-29 18:13:33.168,-0.34008,3.77797,8.39851,-0.0720036,0.0629173,0.0221432,0
2024-11-29 18:13:33.170,-0.354437,3.77797,8.41047,-0.0732253,0.0574196,0.0294734,0
2024-11-29 18:13:33.171,-0.359223,3.78036,8.43679,-0.074447,0.051922,0.0361927,0
2024-11-29 18:13:33.174,-0.364008,3.78275,8.4679,-0.0726145,0.0464244,0.0416903,0
2024-11-29 18:13:33.176,-0.385544,3.80907,8.49183,-0.0732253,0.0421485,0.0484096,0
2024-11-29 18:13:33.180,-0.397508,3.833,8.50858,-0.0732253,0.0342074,0.06307,0
2024-11-29 18:13:33.182,-0.395115,3.84257,8.53011,-0.0732253,0.0342074,0.06307,0
2024-11-29 18:13:33.183,-0.375972,3.85932,8.55404,-0.0738362,0.0323749,0.0704001,0
2024-11-29 18:13:33.187,-0.366401,3.86411,8.58276,-0.0732253,0.0323749,0.0777303,0
2024-11-29 18:13:33.188,-0.368794,3.86172,8.60668,-0.0738362,0.0329858,0.0832279,0
2024-11-29 18:13:33.191,-0.359223,3.85454,8.62822,-0.0713928,0.0348183,0.0966666,0
2024-11-29 18:13:33.194,-0.335294,3.84975,8.65693,-0.0713928,0.0348183,0.0966666,0
2024-11-29 18:13:33.195,-0.320937,3.87607,8.68086,-0.0707819,0.0329858,0.100332,0
2024-11-29 18:13:33.198,-0.311366,3.88325,8.68804,-0.0689494,0.0354291,0.104608,0
2024-11-29 18:13:33.201,-0.308973,3.88325,8.69043,-0.0695602,0.0366508,0.115603,0
2024-11-29 18:13:33.202,-0.30658,3.88325,8.7027,-0.0695602,0.0366508,0.115603,0
2024-11-29 18:13:33.204,-0.282652,3.88086,8.71945,-0.0695602,0.0378725,0.122322,0
2024-11-29 18:13:33.208,-0.27996,3.89522,8.74577,-0.0707819,0.0397051,0.130874,0
2024-11-29 18:13:33.210,-0.258425,3.91436,8.75055,-0.0707819,0.0397051,0.130874,0
2024-11-29 18:13:33.212,-0.241675,3.91436,8.73859,-0.0738362,0.0421485,0.133928,0
2024-11-29 18:13:33.215,-0.244068,3.92154,8.74337,-0.0756687,0.0427593,0.136983,0
2024-11-29 18:13:33.216,-0.217747,3.95025,8.75294,-0.0781121,0.0452027,0.143702,0
2024-11-29 18:13:33.220,-0.198604,3.94547,8.75773,-0.0811663,0.0494786,0.150421,0
2024-11-29 18:13:33.221,-0.179462,3.94547,8.7673,-0.0811663,0.0494786,0.150421,0
2024-11-29 18:13:33.224,-0.162712,3.97179,8.77687,-0.0854423,0.0513112,0.154086,0
2024-11-29 18:13:33.227,-0.150748,3.97657,8.78405,-0.0897182,0.0549763,0.15714,0
2024-11-29 18:13:33.228,-0.141177,3.98854,8.78405,-0.0927724,0.0555871,0.159584,0
2024-11-29 18:13:33.230,-0.131605,4.00289,8.79362,-0.0970484,0.059863,0.161416,0
2024-11-29 18:13:33.233,-0.119641,4.01725,8.81755,-0.101324,0.0647498,0.16386,0
2024-11-29 18:13:33.235,-0.124427,4.03879,8.83191,-0.106211,0.0708583,0.165081,0
2024-11-29 18:13:33.242,-0.124427,4.07946,8.85344,-0.122704,0.0757451,0.168747,0
2024-11-29 18:13:33.243,-0.124427,4.07946,8.85344,-0.129423,0.0757451,0.17119,0
2024-11-29 18:13:33.245,-0.12682,4.08664,8.87019,-0.129423,0.0757451,0.17119,0
2024-11-29 18:13:33.245,-0.12682,4.08664,8.87019,-0.129423,0.0757451,0.17119,0
2024-11-29 18:13:33.247,-0.129212,4.10818,8.87976,-0.137975,0.0739125,0.17119,0
2024-11-29 18:13:33.249,-0.122034,4.12014,8.89412,-0.147749,0.07208,0.174855,0
2024-11-29 18:13:33.252,-0.141177,4.14886,8.92044,-0.152635,0.067804,0.176077,0
2024-11-29 18:13:33.255,-0.150748,4.17757,8.94676,-0.17035,0.064139,0.174855,0
2024-11-29 18:13:33.257,-0.153141,4.19432,8.97308,-0.181345,0.0604739,0.177909,0
2024-11-29 18:13:33.260,-0.177069,4.22094,9.02094,-0.181345,0.0604739,0.177909,0
2024-11-29 18:13:33.262,-0.193819,4.23769,9.0688,-0.198449,0.0555871,0.182185,0
2024-11-29 18:13:33.264,-0.191426,4.23769,9.12144,-0.207001,0.051922,0.185239,0
2024-11-29 18:13:33.267,-0.181855,4.24247,9.17169,-0.214331,0.0500895,0.186461,0
2024-11-29 18:13:33.269,-0.181855,4.25922,9.24108,-0.214331,0.0500895,0.186461,0
2024-11-29 18:13:33.273,-0.165105,4.25683,9.38495,-0.230213,0.0452027,0.19257,0
2024-11-29 18:13:33.274,-0.165105,4.25683,9.38495,-0.2351,0.0427593,0.196846,0
2024-11-29 18:13:33.275,-0.148355,4.27119,9.45673,-0.2351,0.0427593,0.196846,0
2024-11-29 18:13:33.277,-0.155533,4.28555,9.52852,-0.241208,0.0458135,0.200511,0
2024-11-29 18:13:33.281,-0.162712,4.29751,9.60748,-0.247317,0.0445919,0.204787,0
2024-11-29 18:13:33.285,-0.160319,4.30469,9.77019,-0.254647,0.0470352,0.213338,0
2024-11-29 18:13:33.286,-0.174676,4.31905,9.77019,-0.254647,0.0470352,0.213338,0
2024-11-29 18:13:33.288,-0.196211,4.36451,9.85185,-0.255869,0.0549763,0.225555,0
2024-11-29 18:13:33.290,-0.196211,4.38844,9.92363,-0.257701,0.0592522,0.231664,0
2024-11-29 18:13:33.293,-0.193819,4.40279,10.0122,-0.257701,0.0592522,0.231664,0
2024-11-29 18:13:33.295,-0.208176,4.4339,10.0983,-0.254036,0.0653607,0.237161,0
2024-11-29 18:13:33.296,-0.205783,4.44347,10.151,-0.252204,0.0714691,0.244492,0
2024-11-29 18:13:33.299,-0.18664,4.45304,10.1964,-0.248538,0.0812427,0.253043,0
2024-11-29 18:13:33.301,-0.174676,4.46022,10.2371,-0.244263,0.0855186,0.260984,0
2024-11-29 18:13:33.303,-0.153141,4.44347,10.261,-0.238765,0.0922379,0.267704,0
2024-11-29 18:13:33.307,-0.143569,4.44108,10.2969,-0.230213,0.10812,0.280532,0
2024-11-29 18:13:33.311,-0.143569,4.46022,10.3208,-0.228381,0.117894,0.286029,0
2024-11-29 18:13:33.311,-0.129212,4.46022,10.3208,-0.228381,0.117894,0.286029,0
2024-11-29 18:13:33.313,-0.117248,4.47697,10.328,-0.226548,0.126445,0.29397,0
2024-11-29 18:13:33.316,-0.0933201,4.48654,10.3256,-0.222272,0.135608,0.298246,0
2024-11-29 18:13:33.317,-0.0741775,4.49611,10.3328,-0.217996,0.14416,0.303744,0
2024-11-29 18:13:33.320,-0.0646062,4.49851,10.3328,-0.217385,0.153323,0.309852,0
2024-11-29 18:13:33.323,-0.0646062,4.51047,10.3352,-0.214331,0.171648,0.317793,0
2024-11-29 18:13:33.326,-0.0598206,4.52004,10.3615,-0.212498,0.180811,0.323902,0
2024-11-29 18:13:33.328,-0.0502493,4.53201,10.3759,-0.212498,0.180811,0.323902,0
2024-11-29 18:13:33.330,-0.0693919,4.54158,10.3783,-0.208833,0.200358,0.33673,0
2024-11-29 18:13:33.333,-0.102891,4.55115,10.3929,-0.207612,0.211964,0.342227,0
2024-11-29 18:13:33.335,-0.141177,4.56551,10.424,-0.207612,0.211964,0.342227,0
2024-11-29 18:13:33.339,-0.179462,4.61815,10.5174,-0.202114,0.235176,0.356277,0
2024-11-29 18:13:33.340,-0.179462,4.61815,10.5174,-0.202114,0.235176,0.356277,0
2024-11-29 18:13:33.341,-0.200997,4.62293,10.5485,-0.196616,0.242506,0.367272,0
2024-11-29 18:13:33.343,-0.22014,4.61576,10.5939,-0.189897,0.251669,0.373991,0
2024-11-29 18:13:33.347,-0.227318,4.62533,10.6298,-0.186232,0.25961,0.381932,0
2024-11-29 18:13:33.349,-0.217747,4.62533,10.6561,-0.172793,0.276103,0.399036,0
2024-11-29 18:13:33.351,-0.205783,4.62293,10.6872,-0.172793,0.276103,0.399036,0
2024-11-29 18:13:33.354,-0.198604,4.6325,10.6968,-0.166074,0.284655,0.402701,0
2024-11-29 18:13:33.355,-0.196211,4.65165,10.7112,-0.158133,0.291374,0.410031,0
2024-11-29 18:13:33.358,-0.208176,4.6684,10.7255,-0.150803,0.298704,0.416751,0
2024-11-29 18:13:33.361,-0.217747,4.69233,10.7231,-0.137364,0.3097,0.428967,0
2024-11-29 18:13:33.362,-0.208176,4.69711,10.7136,-0.137364,0.3097,0.428967,0
2024-11-29 18:13:33.366,-0.210568,4.68993,10.7088,-0.133699,0.315197,0.434465,0
2024-11-29 18:13:33.368,-0.224925,4.6995,10.7136,-0.123315,0.320084,0.444239,0
2024-11-29 18:13:33.370,-0.222533,4.71147,10.7088,-0.119039,0.326192,0.447293,0
2024-11-29 18:13:33.372,-0.196211,4.71865,10.692,-0.119039,0.326192,0.447293,0
2024-11-29 18:13:33.375,-0.172283,4.72822,10.6896,-0.11232,0.328636,0.45951,0
2024-11-29 18:13:33.376,-0.153141,4.73061,10.6992,-0.11232,0.328636,0.45951,0
2024-11-29 18:13:33.380,-0.124427,4.73061,10.7183,-0.111709,0.332912,0.458899,0
2024-11-29 18:13:33.383,-0.0550349,4.733,10.7375,-0.106822,0.335355,0.464397,0
2024-11-29 18:13:33.386,-0.0550349,4.733,10.7375,-0.107433,0.337188,0.464397,0
2024-11-29 18:13:33.387,-0.0358923,4.73061,10.7423,-0.103768,0.336577,0.461342,0
2024-11-29 18:13:33.388,0.107677,4.68036,10.8715,-0.103768,0.336577,0.461342,0
2024-11-29 18:13:33.391,0.205783,4.6349,11.0058,-0.0964375,0.327414,0.454012,0
2024-11-29 18:13:33.393,0.0765703,4.68515,10.9289,-0.090329,0.329858,0.450347,0
2024-11-29 18:13:33.398,0.0119641,4.72582,10.8882,-0.0817772,0.346961,0.447904,0
2024-11-29 18:13:33.401,0.0358923,4.69711,10.9843,-0.0787229,0.364676,0.453401,0
2024-11-29 18:13:33.401,0.0358923,4.69711,10.9843,-0.0787229,0.364676,0.453401,0
2024-11-29 18:13:33.402,0.0287139,4.70429,10.9938,-0.074447,0.376282,0.457677,0
2024-11-29 18:13:33.405,-0.00239282,4.71386,10.9747,-0.0707819,0.384223,0.460732,0
2024-11-29 18:13:33.409,0.0430708,4.74257,11.0034,-0.0677277,0.398883,0.465618,0
2024-11-29 18:13:33.410,0.00717847,4.74257,11.0034,-0.0677277,0.398883,0.465618,0
2024-11-29 18:13:33.412,0.0789631,4.73779,11.0201,-0.0646735,0.401937,0.464397,0
2024-11-29 18:13:33.415,0.122034,4.73061,11.0369,-0.0597867,0.404992,0.455234,0
2024-11-29 18:13:33.416,0.167498,4.70907,11.0848,-0.0597867,0.404992,0.455234,0
2024-11-29 18:13:33.419,0.205783,4.68036,11.135,-0.0524565,0.407435,0.450958,0
2024-11-29 18:13:33.421,0.241675,4.68036,11.1613,-0.0475697,0.413544,0.44546,0
2024-11-29 18:13:33.424,0.292223,4.64686,11.2355,-0.042683,0.419041,0.43813,0
2024-11-29 18:13:33.427,0.316152,4.60618,11.2929,-0.0237467,0.437977,0.425302,0
2024-11-29 18:13:33.429,0.299402,4.59901,11.2905,-0.0151948,0.452027,0.417361,0
2024-11-29 18:13:33.432,0.27996,4.58704,11.3097,-0.0151948,0.452027,0.417361,0
2024-11-29 18:13:33.435,0.294616,4.55354,11.3073,0.00251974,0.477683,0.407588,0
2024-11-29 18:13:33.436,0.294616,4.55354,11.3073,0.00923906,0.49051,0.404534,0
2024-11-29 18:13:33.438,0.244068,4.5344,11.2714,0.00923906,0.49051,0.404534,0
2024-11-29 18:13:33.441,0.196211,4.53201,11.2211,0.021456,0.518609,0.397814,0
2024-11-29 18:13:33.442,0.181855,4.52483,11.1996,0.021456,0.518609,0.397814,0
2024-11-29 18:13:33.445,0.153141,4.49611,11.1661,0.0269536,0.534491,0.396593,0
2024-11-29 18:13:33.448,0.0861416,4.48654,11.0895,0.0330621,0.552817,0.392927,0
2024-11-29 18:13:33.449,0.0430708,4.47697,11.0154,0.0367272,0.574807,0.394149,0
2024-11-29 18:13:33.453,0.00478565,4.45783,10.9385,0.033673,0.620621,0.400869,0
2024-11-29 18:13:33.455,-0.040678,4.46261,10.838,0.033673,0.620621,0.400869,0
2024-11-29 18:13:33.456,-0.081356,4.44586,10.7495,0.0318404,0.638946,0.405144,0
2024-11-29 18:13:33.459,-0.114855,4.41954,10.6514,0.0220669,0.650552,0.408199,0
2024-11-29 18:13:33.461,-0.129212,4.40279,10.5532,0.0110716,0.657272,0.40881,0
2024-11-29 18:13:33.465,-0.138784,4.38844,10.4862,-0.0194708,0.646276,0.406977,0
2024-11-29 18:13:33.467,-0.153141,4.38126,10.436,-0.0194708,0.646276,0.406977,0
2024-11-29 18:13:33.469,-0.165105,4.40279,10.4121,-0.0402396,0.626729,0.401479,0
2024-11-29 18:13:33.471,-0.174676,4.45544,10.4192,-0.0616192,0.599241,0.396593,0
2024-11-29 18:13:33.473,-0.155533,4.46261,10.4432,-0.0817772,0.560147,0.38743,0
2024-11-29 18:13:33.476,-0.0837488,4.42194,10.5197,-0.129423,0.446529,0.35872,0
2024-11-29 18:13:33.479,0.00717847,4.3669,10.6274,-0.129423,0.446529,0.35872,0
2024-11-29 18:13:33.481,0.100499,4.28076,10.7853,-0.152635,0.367119,0.33673,0
2024-11-29 18:13:33.482,0.212961,4.17518,11.0369,-0.175237,0.278546,0.311074,0
2024-11-29 18:13:33.486,0.330509,4.05554,11.3336,-0.208833,0.0751342,0.245713,0
2024-11-29 18:13:33.488,0.445364,3.92872,11.6545,-0.208833,0.0751342,0.245713,0
2024-11-29 18:13:33.490,0.574577,3.78754,12.0111,-0.22044,-0.0354291,0.209062,0
2024-11-29 18:13:33.492,0.677468,3.64606,12.4086,-0.225326,-0.147825,0.169968,0
2024-11-29 18:13:33.494,0.761217,3.50728,12.842,-0.226548,-0.258388,0.132096,0
2024-11-29 18:13:33.496,0.825823,3.37089,13.2778,-0.225937,-0.364676,0.094834,0
2024-11-29 18:13:33.499,0.852443,3.24885,13.6726,-0.216164,-0.464855,0.0606266,0
2024-11-29 18:13:33.502,0.811466,3.14118,13.9959,-0.188065,-0.616956,0.00503949,0
2024-11-29 18:13:33.504,0.787538,3.01884,14.2807,-0.188065,-0.616956,0.00503949,0
2024-11-29 18:13:33.507,0.854836,2.85135,14.5537,-0.171572,-0.673154,-0.0163402,0
2024-11-29 18:13:33.508,0.964906,2.67906,14.8505,-0.152025,-0.722632,-0.0358873,0
2024-11-29 18:13:33.511,1.07498,2.51127,15.2192,-0.126369,-0.769668,-0.0554344,0
2024-11-29 18:13:33.514,1.12762,2.33898,15.6431,-0.0976592,-0.81487,-0.0786466,0
2024-11-29 18:13:33.515,1.12762,2.1667,16.0669,-0.0603975,-0.857019,-0.096972,0
2024-11-29 18:13:33.518,1.13958,2.02313,16.4234,-0.0139731,-0.885729,-0.113465,0
2024-11-29 18:13:33.521,1.16351,1.9008,16.7372,0.0379489,-0.902832,-0.128125,0
2024-11-29 18:13:33.522,1.18026,1.79791,17.0387,0.100255,-0.901,-0.141564,0
2024-11-29 18:13:33.525,1.17308,1.70459,17.2687,0.100255,-0.901,-0.141564,0
2024-11-29 18:13:33.528,1.1683,1.57777,17.4553,0.321993,-0.808151,-0.155613,0
2024-11-29 18:13:33.530,1.18026,1.43181,17.6157,0.321993,-0.808151,-0.155613,0
2024-11-29 18:13:33.533,1.19462,1.27837,17.6877,0.402014,-0.756229,-0.154392,1
2024-11-29 18:13:33.534,1.22094,1.09651,17.6707,0.483867,-0.695144,-0.153781,0
2024-11-29 18:13:33.538,1.25683,0.924228,17.5582,0.567553,-0.624286,-0.146451,0
2024-11-29 18:13:33.539,1.26401,0.780359,17.362,0.65124,-0.539378,-0.140342,0
2024-11-29 18:13:33.541,1.25922,0.627219,17.0985,0.73065,-0.448973,-0.129347,0
2024-11-29 18:13:33.544,1.24965,0.464507,16.742,0.807006,-0.349405,-0.11713,0
2024-11-29 18:13:33.546,1.22094,0.325723,16.3253,0.877864,-0.246782,-0.101859,0
2024-11-29 18:13:33.549,1.18505,0.205783,15.868,0.938338,-0.140495,-0.0847551,0
2024-11-29 18:13:33.551,1.15155,0.119641,15.3748,0.994536,-0.0366508,-0.0658188,0
2024-11-29 18:13:33.553,1.1013,0.0622134,14.8866,1.04279,0.0671932,-0.0432174,0
2024-11-29 18:13:33.555,1.05105,0.0167498,14.3958,1.08189,0.164318,-0.0206161,0
2024-11-29 18:13:33.558,1.00319,0.00717847,13.9098,1.11182,0.253502,0.000763559,0
2024-11-29 18:13:33.561,0.955334,0.0287139,13.4118,1.13381,0.334133,0.0215324,0
2024-11-29 18:13:33.563,0.940978,0.0693919,12.8946,1.14664,0.409268,0.0404686,0
2024-11-29 18:13:33.565,0.950549,0.112463,12.4062,1.15213,0.47585,0.0545181,0
2024-11-29 18:13:33.567,0.924228,0.177069,11.8914,1.15275,0.535102,0.0667351,0
2024-11-29 18:13:33.571,0.82343,0.285045,11.3097,1.14664,0.593133,0.0783412,0
2024-11-29 18:13:33.574,0.857229,0.426222,10.4097,1.0996,0.685371,0.094834,0
2024-11-29 18:13:33.574,0.857229,0.426222,10.4097,1.0996,0.685371,0.094834,0
2024-11-29 18:13:33.577,0.931406,0.45015,10.084,1.0715,0.712859,0.0954449,0
2024-11-29 18:13:33.580,0.979263,0.486042,9.74627,1.03913,0.733017,0.094834,0
2024-11-29 18:13:33.584,1.04148,0.567398,9.09512,0.959717,0.762337,0.078952,0
2024-11-29 18:13:33.585,1.04148,0.567398,9.09512,0.91818,0.773333,0.06307,0
2024-11-29 18:13:33.587,1.07019,0.596112,8.85105,0.91818,0.773333,0.06307,0
2024-11-29 18:13:33.589,1.12522,0.632004,8.65693,0.876642,0.783106,0.0453554,0
2024-11-29 18:13:33.592,1.1994,0.646361,8.49422,0.834494,0.791047,0.0233649,0
2024-11-29 18:13:33.594,1.2329,0.675075,8.34108,0.793567,0.790436,-0.00290152,0
2024-11-29 18:13:33.595,1.23769,0.699003,8.18555,0.755084,0.789825,-0.0303897,0
2024-11-29 18:13:33.599,1.22812,0.73011,8.03689,0.670176,0.772722,-0.0865876,0
2024-11-29 18:13:33.601,1.21376,0.758824,7.92204,0.670176,0.772722,-0.0865876,0
2024-11-29 18:13:33.602,1.18026,0.789931,7.80479,0.670176,0.772722,-0.0865876,0
2024-11-29 18:13:33.605,1.12283,0.825823,7.68754,0.591987,0.743401,-0.145229,0
2024-11-29 18:13:33.608,1.05823,0.862014,7.57986,0.552893,0.726297,-0.173939,0
2024-11-29 18:13:33.610,1.02473,0.88355,7.50539,0.516242,0.704307,-0.199594,0
2024-11-29 18:13:33.612,1.01276,0.869193,7.47667,0.476537,0.676819,-0.226472,0
2024-11-29 18:13:33.614,0.998405,0.837787,7.45275,0.441108,0.645055,-0.256403,0
2024-11-29 18:13:33.618,0.988834,0.809073,7.42164,0.406901,0.608404,-0.28267,0
2024-11-29 18:13:33.619,0.96012,0.782752,7.4001,0.406901,0.608404,-0.28267,0
2024-11-29 18:13:33.621,0.929013,0.732503,7.39292,0.340318,0.52655,-0.339478,0
2024-11-29 18:13:33.625,0.902692,0.672682,7.40728,0.310387,0.483791,-0.365745,0
2024-11-29 18:13:33.627,0.854836,0.632004,7.43839,0.256021,0.39644,-0.421943,0
2024-11-29 18:13:33.628,0.797109,0.610469,7.47189,0.256021,0.39644,-0.421943,0
2024-11-29 18:13:33.632,0.725324,0.60329,7.51735,0.215095,0.3097,-0.472032,0
2024-11-29 18:13:33.633,0.627219,0.593719,7.56282,0.215095,0.3097,-0.472032,0
2024-11-29 18:13:33.636,0.519542,0.581755,7.60379,0.196769,0.26694,-0.495855,0
2024-11-29 18:13:33.638,0.402293,0.572184,7.66601,0.181498,0.222959,-0.517846,0
2024-11-29 18:13:33.641,0.270389,0.567398,7.7354,0.159507,0.136219,-0.550221,0
2024-11-29 18:13:33.645,-0.0143569,0.536291,7.84307,0.152788,0.0934596,-0.564881,0
2024-11-29 18:13:33.646,-0.0143569,0.536291,7.84307,0.143625,0.0525329,-0.577098,0
2024-11-29 18:13:33.648,-0.143569,0.524327,7.90529,0.143625,0.0525329,-0.577098,0
2024-11-29 18:13:33.651,-0.256032,0.519542,7.98186,0.13996,0.00916271,-0.586261,0
2024-11-29 18:13:33.653,-0.378365,0.495613,8.0345,0.138128,-0.0311532,-0.594202,0
2024-11-29 18:13:33.655,-0.507577,0.483649,8.07757,0.135074,-0.067804,-0.602143,0
2024-11-29 18:13:33.658,-0.632004,0.469292,8.12782,0.141182,-0.13683,-0.605197,0
2024-11-29 18:13:33.659,-0.756431,0.4334,8.17119,0.141182,-0.13683,-0.605197,0
2024-11-29 18:13:33.662,-0.885943,0.423829,8.20708,0.146069,-0.167983,-0.605197,0
2024-11-29 18:13:33.664,-1.01755,0.421436,8.24537,0.150956,-0.19486,-0.602143,0
2024-11-29 18:13:33.667,-1.12762,0.414257,8.28126,0.161951,-0.239452,-0.592369,0
2024-11-29 18:13:33.668,-1.23769,0.411865,8.29801,0.161951,-0.239452,-0.592369,0
2024-11-29 18:13:33.672,-1.34058,0.404686,8.27887,0.17539,-0.28099,-0.570989,0
2024-11-29 18:13:33.674,-1.43181,0.387936,8.26451,0.179665,-0.297483,-0.558162,0
2024-11-29 18:13:33.677,-1.52752,0.364008,8.24776,0.180887,-0.317641,-0.544723,0
2024-11-29 18:13:33.679,-1.59691,0.352044,8.21187,0.180887,-0.317641,-0.544723,0
2024-11-29 18:13:33.680,-1.63041,0.332901,8.18555,0.183331,-0.337188,-0.527619,0
2024-11-29 18:13:33.684,-1.67348,0.32333,8.15205,0.181498,-0.371395,-0.495244,0
2024-11-29 18:13:33.685,-1.73809,0.332901,8.1015,0.181498,-0.371395,-0.495244,0
2024-11-29 18:13:33.688,-1.78355,0.32333,8.05843,0.178444,-0.386055,-0.478752,0
2024-11-29 18:13:33.690,-1.82662,0.311366,8.03929,0.170503,-0.401327,-0.457983,0
2024-11-29 18:13:33.692,-1.88405,0.30658,8.01536,0.163783,-0.4111,-0.439657,0
2024-11-29 18:13:33.694,-1.91755,0.308973,8.001,0.156453,-0.420874,-0.419499,0
2024-11-29 18:13:33.698,-1.93191,0.325723,8.00339,0.13263,-0.439199,-0.379183,0
2024-11-29 18:13:33.700,-1.95823,0.330509,7.99861,0.123468,-0.445308,-0.359025,0
2024-11-29 18:13:33.702,-1.97528,0.337687,7.99861,0.123468,-0.445308,-0.359025,0
2024-11-29 18:13:33.706,-2.01835,0.404686,8.03211,0.100255,-0.448362,-0.315655,0
2024-11-29 18:13:33.707,-2.01835,0.404686,8.03211,0.100255,-0.448362,-0.315655,0
2024-11-29 18:13:33.709,-2.02552,0.431007,8.05604,0.0868167,-0.448362,-0.294276,0
2024-11-29 18:13:33.711,-2.03031,0.462114,8.08236,0.0764323,-0.444697,-0.274729,0
2024-11-29 18:13:33.714,-2.03988,0.490828,8.11586,0.0519984,-0.433702,-0.23258,0
2024-11-29 18:13:33.717,-2.04945,0.517149,8.15205,0.0519984,-0.433702,-0.23258,0
2024-11-29 18:13:33.719,-2.05185,0.538684,8.1688,0.0318404,-0.413544,-0.191042,0
2024-11-29 18:13:33.721,-2.04945,0.569791,8.19512,0.0318404,-0.413544,-0.191042,0
2024-11-29 18:13:33.724,-2.0327,0.598505,8.22862,0.0202343,-0.404381,-0.171495,0
2024-11-29 18:13:33.725,-2.03031,0.615255,8.25015,0.0110716,-0.393996,-0.15317,0
2024-11-29 18:13:33.727,-2.01835,0.641576,8.27408,-0.00114534,-0.383612,-0.136066,0
2024-11-29 18:13:33.730,-1.98245,0.675075,8.29083,-0.0121406,-0.372617,-0.120184,0
2024-11-29 18:13:33.732,-1.96301,0.701396,8.29322,-0.022525,-0.364065,-0.103691,0
2024-11-29 18:13:33.734,-1.95105,0.734896,8.29801,-0.0335202,-0.354291,-0.089031,0
2024-11-29 18:13:33.738,-1.92233,0.76361,8.31715,-0.0457372,-0.341464,-0.0743707,0
2024-11-29 18:13:33.739,-1.9008,0.785145,8.32912,-0.058565,-0.334133,-0.0597103,0
2024-11-29 18:13:33.742,-1.87687,0.804287,8.34826,-0.066506,-0.327414,-0.0444391,0
2024-11-29 18:13:33.745,-1.84576,0.84018,8.36979,-0.0891073,-0.311532,-0.0187836,0
2024-11-29 18:13:33.746,-1.81226,0.878764,8.38654,-0.0891073,-0.311532,-0.0187836,0
2024-11-29 18:13:33.749,-1.78834,0.905085,8.42004,-0.0982701,-0.305424,-0.00656661,0
2024-11-29 18:13:33.752,-1.77398,0.94337,8.45354,-0.109265,-0.299926,0.00442864,0
2024-11-29 18:13:33.754,-1.75962,0.974477,8.48465,-0.11965,-0.295039,0.0160347,0
2024-11-29 18:13:33.756,-1.73091,1.01037,8.52054,-0.129423,-0.290763,0.02703,0
2024-11-29 18:13:33.759,-1.70698,1.05105,8.55165,-0.144694,-0.284044,0.0477988,0
2024-11-29 18:13:33.761,-1.69262,1.0654,8.58754,-0.144694,-0.284044,0.0477988,0
2024-11-29 18:13:33.763,-1.6663,1.09173,8.6354,-0.152635,-0.282822,0.0557398,0
2024-11-29 18:13:33.765,-1.64716,1.14437,8.68804,-0.159966,-0.279768,0.0673459,0
2024-11-29 18:13:33.767,-1.63759,1.18265,8.7362,-0.164852,-0.279768,0.0746761,0
2024-11-29 18:13:33.770,-1.63759,1.22333,8.78405,-0.169128,-0.279157,0.0813954,0
2024-11-29 18:13:33.772,-1.65673,1.27119,8.81277,-0.170961,-0.274881,0.0905581,0
2024-11-29 18:13:33.774,-1.6663,1.30469,8.84387,-0.174626,-0.273049,0.09911,0
2024-11-29 18:13:33.777,-1.65673,1.33819,8.87259,-0.173404,-0.269384,0.105829,0
2024-11-29 18:13:33.779,-1.63998,1.38604,8.88934,-0.175237,-0.263886,0.113159,0
2024-11-29 18:13:33.783,-1.64237,1.41266,8.91805,-0.178291,-0.254723,0.125987,0
2024-11-29 18:13:33.784,-1.63998,1.44138,8.93001,-0.178291,-0.254723,0.125987,0
2024-11-29 18:13:33.787,-1.63041,1.46291,8.94198,-0.180734,-0.250447,0.133928,0
2024-11-29 18:13:33.789,-1.6352,1.48445,8.94198,-0.181345,-0.246782,0.139426,0
2024-11-29 18:13:33.791,-1.63998,1.51555,8.9348,-0.182567,-0.245561,0.145534,0
2024-11-29 18:13:33.793,-1.6352,1.54427,8.92284,-0.186843,-0.24495,0.150421,0
2024-11-29 18:13:33.796,-1.63759,1.57777,8.92284,-0.189286,-0.243728,0.15714,0
2024-11-29 18:13:33.799,-1.63041,1.60409,8.93001,-0.192951,-0.245561,0.161416,0
2024-11-29 18:13:33.800,-1.61605,1.61845,8.92762,-0.19906,-0.248615,0.166303,0
2024-11-29 18:13:33.804,-1.59691,1.63759,8.93959,-0.205168,-0.25228,0.17119,0
2024-11-29 18:13:33.806,-1.5682,1.66152,8.95873,-0.208833,-0.254723,0.177298,0
2024-11-29 18:13:33.808,-1.56341,1.68305,8.97308,-0.215553,-0.258388,0.182185,0
2024-11-29 18:13:33.811,-1.5658,1.70219,9.0018,-0.222272,-0.263275,0.186461,0
2024-11-29 18:13:33.812,-1.54905,1.72373,9.01137,-0.229602,-0.26694,0.19318,0
2024-11-29 18:13:33.814,-1.52513,1.74527,9.03769,-0.236322,-0.271216,0.198678,0
2024-11-29 18:13:33.818,-1.5012,1.76919,9.09033,-0.241819,-0.276103,0.202343,0
2024-11-29 18:13:33.820,-1.46052,1.78834,9.1334,-0.25648,-0.282822,0.213949,0
2024-11-29 18:13:33.823,-1.42941,1.80509,9.18365,-0.265031,-0.283433,0.219447,0
2024-11-29 18:13:33.824,-1.39322,1.83859,9.23151,-0.265031,-0.283433,0.219447,0
2024-11-29 18:13:33.826,-1.35494,1.85533,9.29402,-0.272362,-0.286487,0.223112,0
2024-11-29 18:13:33.830,-1.32622,1.86251,9.36102,-0.276027,-0.287709,0.227999,0
2024-11-29 18:13:33.831,-1.27358,1.8673,9.42563,-0.2858,-0.285877,0.232886,0
2024-11-29 18:13:33.833,-1.20897,1.87687,9.5022,-0.288244,-0.286487,0.237772,0
2024-11-29 18:13:33.837,-1.14676,1.91516,9.58116,-0.292519,-0.28832,0.240827,0
2024-11-29 18:13:33.839,-1.07737,1.93669,9.63859,-0.301071,-0.285266,0.246935,0
2024-11-29 18:13:33.840,-1.00319,1.95344,9.70798,-0.301071,-0.285266,0.246935,0
2024-11-29 18:13:33.844,-0.948156,1.98006,9.77259,-0.302904,-0.28099,0.248157,0
2024-11-29 18:13:33.846,-0.893121,2.0016,9.83988,-0.305347,-0.271827,0.253043,0
2024-11-29 18:13:33.848,-0.835394,2.04227,9.9356,-0.305347,-0.271827,0.253043,0
2024-11-29 18:13:33.851,-0.775574,2.07338,10.0433,-0.301071,-0.254112,0.252433,0
2024-11-29 18:13:33.853,-0.706182,2.08774,10.1342,-0.301071,-0.254112,0.252433,0
2024-11-29 18:13:33.855,-0.622433,2.10209,10.1892,-0.297406,-0.241896,0.251211,0
2024-11-29 18:13:33.857,-0.538684,2.11406,10.2419,-0.290076,-0.227846,0.249378,0
2024-11-29 18:13:33.859,-0.474078,2.13799,10.2921,-0.282746,-0.211964,0.247546,0
2024-11-29 18:13:33.863,-0.435793,2.16431,10.3137,-0.267475,-0.175924,0.238994,0
2024-11-29 18:13:33.864,-0.395115,2.19063,10.3256,-0.267475,-0.175924,0.238994,0
2024-11-29 18:13:33.867,-0.335294,2.21695,10.34,-0.258923,-0.155766,0.23594,0
2024-11-29 18:13:33.869,-0.27996,2.24327,10.3376,-0.250982,-0.134997,0.232275,0
2024-11-29 18:13:33.871,-0.234497,2.26241,10.3256,-0.24243,-0.11545,0.227999,0
2024-11-29 18:13:33.874,-0.191426,2.29113,10.3208,-0.235711,-0.0952922,0.223112,0
2024-11-29 18:13:33.877,-0.141177,2.31506,10.2921,-0.217385,-0.0543654,0.218836,0
2024-11-29 18:13:33.879,-0.102891,2.32223,10.2634,-0.211888,-0.0372617,0.215171,0
2024-11-29 18:13:33.881,-0.0622134,2.35095,10.2275,-0.211888,-0.0372617,0.215171,0
2024-11-29 18:13:33.884,-0.0311067,2.37488,10.1773,-0.197838,-0.00183254,0.206619,0
2024-11-29 18:13:33.885,-0.00478565,2.37727,10.1103,-0.197838,-0.00183254,0.206619,0
2024-11-29 18:13:33.889,0.040678,2.3677,10.0457,-0.187454,0.0256556,0.194402,0
2024-11-29 18:13:33.891,0.0837488,2.38206,10.005,-0.188065,0.0354291,0.190126,0
2024-11-29 18:13:33.892,0.119641,2.4012,9.9332,-0.188065,0.0354291,0.190126,0
2024-11-29 18:13:33.896,0.138784,2.41316,9.86381,-0.183178,0.0531437,0.176688,0
2024-11-29 18:13:33.897,0.155533,2.44427,9.80848,-0.183178,0.0531437,0.176688,0
2024-11-29 18:13:33.899,0.189033,2.46102,9.74387,-0.181956,0.0592522,0.166303,0
2024-11-29 18:13:33.902,0.232104,2.47059,9.7008,-0.180734,0.059863,0.15653,0
2024-11-29 18:13:33.905,0.270389,2.48973,9.66252,-0.180124,0.0592522,0.14981,0
2024-11-29 18:13:33.909,0.361615,2.52323,9.61945,-0.180124,0.0500895,0.129041,0
2024-11-29 18:13:33.910,0.361615,2.52323,9.61945,-0.180124,0.0500895,0.129041,0
2024-11-29 18:13:33.911,0.414257,2.54028,9.60987,-0.180124,0.0433702,0.118657,0
2024-11-29 18:13:33.913,0.452543,2.56899,9.61227,-0.180124,0.0348183,0.105829,0
2024-11-29 18:13:33.916,0.478864,2.6001,9.62423,-0.179513,0.0268773,0.0942232,0
2024-11-29 18:13:33.919,0.505185,2.62403,9.64098,-0.175237,0.0189363,0.0820062,0
2024-11-29 18:13:33.920,0.533899,2.65514,9.65773,-0.170961,0.0171037,0.071011,0
2024-11-29 18:13:33.924,0.555434,2.7006,9.67209,-0.161187,0.0140495,0.0459663,0
2024-11-29 18:13:33.925,0.557827,2.74367,9.68645,-0.161187,0.0140495,0.0459663,0
2024-11-29 18:13:33.929,0.555434,2.76042,9.71277,-0.153857,0.0164929,0.0343602,0
2024-11-29 18:13:33.930,0.550648,2.79153,9.73909,-0.139197,0.0189363,0.0227541,0
2024-11-29 18:13:33.932,0.545863,2.82024,9.74148,-0.127591,0.0213797,0.0117588,0
2024-11-29 18:13:33.936,0.56022,2.82024,9.73669,-0.115374,0.0250447,0.00137441,0
2024-11-29 18:13:33.937,0.565005,2.81545,9.72234,-0.100713,0.0274881,-0.00839915,0
2024-11-29 18:13:33.940,0.555434,2.81067,9.69362,-0.100713,0.0274881,-0.00839915,0
2024-11-29 18:13:33.942,0.565005,2.82024,9.66252,-0.0707819,0.0335966,-0.029168,0
2024-11-29 18:13:33.945,0.565005,2.83938,9.6003,-0.0396287,0.0409268,-0.0499368,0
2024-11-29 18:13:33.947,0.553041,2.8346,9.53091,-0.0396287,0.0409268,-0.0499368,0
2024-11-29 18:13:33.949,0.541077,2.8322,9.46631,-0.0261901,0.0445919,-0.0597103,0
2024-11-29 18:13:33.951,0.524327,2.84656,9.38734,-0.0121406,0.0488678,-0.0700947,0
2024-11-29 18:13:33.954,0.500399,2.8322,9.28924,0.00313059,0.0568088,-0.0780357,0
2024-11-29 18:13:33.956,0.481256,2.82503,9.20758,0.013515,0.0635281,-0.0859767,0
2024-11-29 18:13:33.959,0.4669,2.82981,9.13101,0.037338,0.0794101,-0.100026,0
2024-11-29 18:13:33.962,0.447757,2.82742,9.04248,0.037338,0.0794101,-0.100026,0
2024-11-29 18:13:33.964,0.421436,2.83938,8.96591,0.0477224,0.0861295,-0.104913,0
2024-11-29 18:13:33.966,0.397508,2.83938,8.87019,0.0623828,0.095903,-0.110411,0
2024-11-29 18:13:33.969,0.383151,2.83938,8.78405,0.0807082,0.116061,-0.123238,0
2024-11-29 18:13:33.971,0.385544,2.84895,8.71945,0.0807082,0.116061,-0.123238,0
2024-11-29 18:13:33.973,0.383151,2.84656,8.64018,0.0898709,0.127667,-0.128736,0
2024-11-29 18:13:33.976,0.380758,2.84417,8.53969,0.108807,0.150268,-0.140953,0
2024-11-29 18:13:33.977,0.387936,2.85135,8.42004,0.108807,0.150268,-0.140953,0
2024-11-29 18:13:33.979,0.390329,2.85613,8.30519,0.113083,0.162485,-0.143396,0
2024-11-29 18:13:33.983,0.395115,2.85135,8.20469,0.119802,0.171648,-0.150116,0
2024-11-29 18:13:33.985,0.407079,2.84895,8.09432,0.126522,0.189974,-0.162333,0
2024-11-29 18:13:33.986,0.404686,2.84417,7.98425,0.126522,0.189974,-0.162333,0
2024-11-29 18:13:33.989,0.402293,2.85374,7.87418,0.128354,0.195471,-0.165998,0
2024-11-29 18:13:33.992,0.3999,2.87049,7.78804,0.128965,0.20219,-0.169052,0
2024-11-29 18:13:33.994,0.380758,2.87528,7.71386,0.130798,0.204634,-0.173328,0
2024-11-29 18:13:33.996,0.364008,2.88963,7.63011,0.128354,0.207688,-0.177604,0
2024-11-29 18:13:33.999,0.354437,2.89681,7.56282,0.125911,0.209521,-0.180047,0
2024-11-29 18:13:34.001,0.344866,2.90638,7.49821,0.122246,0.20891,-0.185545,0
2024-11-29 18:13:34.004,0.335294,2.92313,7.4336,0.122246,0.207688,-0.186767,0
2024-11-29 18:13:34.006,0.332901,2.94227,7.39053,0.119192,0.200969,-0.189821,0
2024-11-29 18:13:34.008,0.335294,2.95424,7.35703,0.119192,0.200969,-0.189821,0
2024-11-29 18:13:34.010,0.349651,2.95424,7.32353,0.116748,0.197304,-0.194097,0
2024-11-29 18:13:34.013,0.35683,2.98295,7.32114,0.116137,0.191806,-0.197151,0
2024-11-29 18:13:34.015,0.361615,3.00927,7.32832,0.113694,0.181422,-0.200205,0
2024-11-29 18:13:34.018,0.364008,3.02602,7.302,0.109418,0.161875,-0.209368,0
2024-11-29 18:13:34.019,0.359223,3.04517,7.26371,0.109418,0.161875,-0.209368,0
2024-11-29 18:13:34.022,0.344866,3.07867,7.23978,0.11064,0.150268,-0.214866,0
2024-11-29 18:13:34.024,0.328116,3.12682,7.22782,0.108196,0.13683,-0.219141,0
2024-11-29 18:13:34.026,0.301795,3.17228,7.22303,0.106364,0.122169,-0.226472,0
2024-11-29 18:13:34.029,0.292223,3.22493,7.21586,0.108196,0.108731,-0.230748,0
2024-11-29 18:13:34.032,0.292223,3.25843,7.2015,0.107585,0.0928488,-0.236856,0
2024-11-29 18:13:34.035,0.265603,3.27996,7.19911,0.105142,0.0549763,-0.250906,0
2024-11-29 18:13:34.037,0.248854,3.32064,7.19193,0.105142,0.0549763,-0.250906,0
2024-11-29 18:13:34.038,0.239282,3.35175,7.19432,0.102699,0.0317641,-0.257014,0
2024-11-29 18:13:34.041,0.232104,3.38285,7.19432,0.102088,0.0109953,-0.262512,0
2024-11-29 18:13:34.044,0.229711,3.40917,7.19193,0.100255,-0.0128278,-0.271674,0
2024-11-29 18:13:34.046,0.217747,3.44267,7.20868,0.0990336,-0.0342074,-0.277172,0
2024-11-29 18:13:34.049,0.210568,3.48335,7.22303,0.0984228,-0.0537546,-0.283891,0
2024-11-29 18:13:34.051,0.189033,3.51446,7.22543,0.0953685,-0.0971247,-0.300384,0
2024-11-29 18:13:34.053,0.179462,3.55035,7.23739,0.0953685,-0.0971247,-0.300384,0
2024-11-29 18:13:34.056,0.181855,3.58864,7.25653,0.0917034,-0.117283,-0.309547,0
2024-11-29 18:13:34.057,0.181855,3.62214,7.27568,0.0910926,-0.139884,-0.31932,0
2024-11-29 18:13:34.060,0.18664,3.64367,7.30439,0.0868167,-0.16615,-0.330316,0
2024-11-29 18:13:34.062,0.18664,3.66311,7.32353,0.081319,-0.193639,-0.3407,0
2024-11-29 18:13:34.065,0.179462,3.68226,7.34507,0.0752106,-0.222348,-0.351084,0
2024-11-29 18:13:34.067,0.143569,3.71815,7.38814,0.0672696,-0.25228,-0.36208,0
2024-11-29 18:13:34.069,0.11007,3.74925,7.44317,0.0611611,-0.283433,-0.372464,0
2024-11-29 18:13:34.072,0.0933201,3.766,7.51735,0.0532201,-0.309089,-0.383459,0
2024-11-29 18:13:34.074,0.0789631,3.79711,7.6014,0.0446682,-0.338409,-0.394455,0
2024-11-29 18:13:34.077,0.0574277,3.84018,7.67558,0.0379489,-0.362232,-0.401785,0
2024-11-29 18:13:34.078,0.0358923,3.87847,7.76411,0.0300079,-0.384223,-0.409115,0
2024-11-29 18:13:34.081,0.0215354,3.90239,7.85982,0.0238994,-0.401937,-0.417056,0
2024-11-29 18:13:34.083,0.00717847,3.92393,7.9675,0.0141258,-0.417209,-0.424386,0
2024-11-29 18:13:34.085,0.00478565,3.95025,8.07757,0.00923906,-0.430036,-0.429884,0
2024-11-29 18:13:34.088,0.00478565,3.95982,8.18315,0.00557398,-0.443475,-0.43416,0
2024-11-29 18:13:34.091,-0.0215354,3.97179,8.29562,-0.00603212,-0.460579,-0.442101,0
2024-11-29 18:13:34.093,-0.066999,3.99571,8.38176,-0.00603212,-0.460579,-0.442101,0
2024-11-29 18:13:34.095,-0.102891,4.01725,8.45354,-0.0121406,-0.464244,-0.448209,0
2024-11-29 18:13:34.098,-0.112463,4.01486,8.52533,-0.0243575,-0.464855,-0.453096,0
2024-11-29 18:13:34.101,-0.117248,4.02443,8.60429,-0.0243575,-0.464855,-0.453096,0
2024-11-29 18:13:34.103,-0.138784,4.04357,8.67847,-0.0316877,-0.464855,-0.45615,0
2024-11-29 18:13:34.104,-0.167498,4.07468,8.76252,-0.038407,-0.459357,-0.45615,0
2024-11-29 18:13:34.108,-0.210568,4.12014,8.83669,-0.0451263,-0.456914,-0.457372,0
2024-11-29 18:13:34.110,-0.275175,4.168,8.92044,-0.0628409,-0.450805,-0.455539,0
2024-11-29 18:13:34.111,-0.311366,4.21615,9.04487,-0.0628409,-0.450805,-0.455539,0
2024-11-29 18:13:34.114,-0.325723,4.25444,9.16451,-0.0720036,-0.448362,-0.456761,0
2024-11-29 18:13:34.117,-0.335294,4.27597,9.28445,-0.0842206,-0.441643,-0.453096,0
2024-11-29 18:13:34.118,-0.328116,4.30469,9.40648,-0.0842206,-0.441643,-0.453096,0
2024-11-29 18:13:34.121,-0.325723,4.34776,9.50938,-0.0909399,-0.438588,-0.451263,0
2024-11-29 18:13:34.124,-0.313759,4.36212,9.60748,-0.0958267,-0.433702,-0.451263,0
2024-11-29 18:13:34.125,-0.30658,4.36929,9.69123,-0.100713,-0.428204,-0.451874,0
2024-11-29 18:13:34.128,-0.313759,4.38365,9.7678,-0.108044,-0.422706,-0.451263,0
2024-11-29 18:13:34.131,-0.320937,4.39083,9.87817,-0.117206,-0.416598,-0.453707,0
2024-11-29 18:13:34.133,-0.332901,4.40997,9.98106,-0.117206,-0.416598,-0.453707,0
2024-11-29 18:13:34.136,-0.349651,4.43629,10.0696,-0.123315,-0.414154,-0.45615,0
2024-11-29 18:13:34.137,-0.35683,4.45304,10.1677,-0.123315,-0.414154,-0.45615,0
2024-11-29 18:13:34.140,-0.364008,4.45783,10.2873,-0.133699,-0.419041,-0.459815,0
2024-11-29 18:13:34.143,-0.364008,4.49133,10.4097,-0.142251,-0.422095,-0.462259,0
2024-11-29 18:13:34.144,-0.373579,4.52961,10.5293,-0.14836,-0.425761,-0.46287,0
2024-11-29 18:13:34.147,-0.392722,4.55593,10.6609,-0.149581,-0.429426,-0.46348,0
2024-11-29 18:13:34.149,-0.402293,4.58704,10.7877,-0.153857,-0.433091,-0.46348,0
2024-11-29 18:13:34.152,-0.421436,4.61097,10.9193,-0.154468,-0.434312,-0.464702,0
2024-11-29 18:13:34.154,-0.452543,4.6325,11.0608,-0.153246,-0.434312,-0.46348,0
2024-11-29 18:13:34.158,-0.469292,4.6349,11.3432,-0.144694,-0.431258,-0.46287,0
2024-11-29 18:13:34.159,-0.469292,4.6349,11.3432,-0.144694,-0.431258,-0.46287,0
2024-11-29 18:13:34.162,-0.488435,4.62293,11.4987,-0.143473,-0.430647,-0.459204,0
2024-11-29 18:13:34.163,-0.519542,4.62533,11.621,-0.137975,-0.426982,-0.456761,0
2024-11-29 18:13:34.166,-0.553041,4.63968,11.7263,-0.128202,-0.423928,-0.453096,0
2024-11-29 18:13:34.169,-0.588933,4.63011,11.8364,-0.119039,-0.41782,-0.44882,0
2024-11-29 18:13:34.171,-0.634397,4.64447,11.9393,-0.0952158,-0.404992,-0.433549,0
2024-11-29 18:13:34.174,-0.679861,4.68036,12.0326,-0.082388,-0.394607,-0.424997,0
2024-11-29 18:13:34.176,-0.71336,4.69472,12.1238,-0.082388,-0.394607,-0.424997,0
2024-11-29 18:13:34.177,-0.744467,4.69711,12.2124,-0.0677277,-0.386666,-0.415223,0
2024-11-29 18:13:34.181,-0.787538,4.69711,12.2818,-0.0518457,-0.376282,-0.403006,0
2024-11-29 18:13:34.182,-0.830609,4.70907,12.3296,-0.0371853,-0.366508,-0.388346,0
2024-11-29 18:13:34.185,-0.847657,4.71147,12.3703,-0.0213033,-0.357346,-0.373686,0
2024-11-29 18:13:34.187,-0.871586,4.71386,12.399,-0.00603212,-0.346961,-0.359636,0
2024-11-29 18:13:34.189,-0.902692,4.7354,12.411,0.0116825,-0.337188,-0.344365,0
2024-11-29 18:13:34.192,-0.929013,4.74736,12.4158,0.0263428,-0.328025,-0.327261,0
2024-11-29 18:13:34.195,-0.933799,4.75454,12.4086,0.0532201,-0.311532,-0.293665,0
2024-11-29 18:13:34.197,-0.933799,4.77877,12.3942,0.0532201,-0.311532,-0.293665,0
2024-11-29 18:13:34.199,-0.938585,4.80987,12.3703,0.0660479,-0.301148,-0.277172,0
2024-11-29 18:13:34.202,-0.94337,4.84816,12.3368,0.0794865,-0.290152,-0.260068,0
2024-11-29 18:13:34.204,-0.962513,4.88884,12.3057,0.0996445,-0.268773,-0.227693,0
2024-11-29 18:13:34.207,-0.957727,4.92234,12.2674,0.0996445,-0.268773,-0.227693,0
2024-11-29 18:13:34.208,-0.929013,4.96062,12.2172,0.106975,-0.260221,-0.211811,0
2024-11-29 18:13:34.211,-0.912264,4.99173,12.1621,0.121024,-0.243117,-0.183712,0
2024-11-29 18:13:34.214,-0.897907,5.0324,12.0999,0.121024,-0.243117,-0.183712,0
2024-11-29 18:13:34.216,-0.88355,5.08265,12.0422,0.128965,-0.227846,-0.159889,0
2024-11-29 18:13:34.218,-0.8668,5.14248,11.9776,0.128965,-0.227846,-0.159889,0
2024-11-29 18:13:34.221,-0.845265,5.18794,11.9034,0.127133,-0.221127,-0.150116,0
2024-11-29 18:13:34.222,-0.821037,5.22622,11.8364,0.127133,-0.215018,-0.142786,0
2024-11-29 18:13:34.225,-0.813859,5.27647,11.7718,0.1253,-0.212575,-0.134234,0
2024-11-29 18:13:34.228,-0.801895,5.32672,11.7239,0.11797,-0.204023,-0.122628,0
2024-11-29 18:13:34.230,-0.775574,5.36052,11.6713,0.111861,-0.200358,-0.118963,0
2024-11-29 18:13:34.232,-0.770788,5.38924,11.621,0.111861,-0.200358,-0.118963,0
2024-11-29 18:13:34.235,-0.785145,5.42273,11.578,0.0929251,-0.200358,-0.113465,0
2024-11-29 18:13:34.237,-0.775574,5.46102,11.5277,0.0929251,-0.200358,-0.113465,0
2024-11-29 18:13:34.238,-0.766002,5.4993,11.5086,0.0831516,-0.199747,-0.111021,0
2024-11-29 18:13:34.242,-0.782752,5.51845,11.4915,0.0581068,-0.205245,-0.107967,0
2024-11-29 18:13:34.243,-0.799502,5.54238,11.4676,0.0581068,-0.205245,-0.107967,0
2024-11-29 18:13:34.246,-0.828216,5.58545,11.4413,0.0446682,-0.206466,-0.106135,0
2024-11-29 18:13:34.248,-0.862014,5.6357,11.4197,0.0312296,-0.207077,-0.105524,0
2024-11-29 18:13:34.251,-0.871586,5.69552,11.4054,0.000687203,-0.211964,-0.105524,0
2024-11-29 18:13:34.255,-0.948156,5.78405,11.3551,-0.0188599,-0.215018,-0.104913,0
2024-11-29 18:13:34.256,-0.948156,5.78405,11.3551,-0.0359636,-0.216851,-0.10308,0
2024-11-29 18:13:34.258,-0.972084,5.82712,11.3336,-0.0359636,-0.216851,-0.10308,0
2024-11-29 18:13:34.261,-0.955334,5.85823,11.3121,-0.0579541,-0.224181,-0.103691,0
2024-11-29 18:13:34.263,-0.940978,5.86062,11.2929,-0.0805555,-0.235787,-0.106135,0
2024-11-29 18:13:34.264,-0.919442,5.85105,11.281,-0.104379,-0.251058,-0.110411,0
2024-11-29 18:13:34.267,-0.857229,5.81755,11.281,-0.130645,-0.271216,-0.114076,0
2024-11-29 18:13:34.269,-0.754038,5.76252,11.2929,-0.164242,-0.299926,-0.120795,0
2024-11-29 18:13:34.272,-0.632004,5.7003,11.3264,-0.196006,-0.334133,-0.129347,0
2024-11-29 18:13:34.274,-0.505185,5.62852,11.3719,-0.228991,-0.374449,-0.140342,0
2024-11-29 18:13:34.277,-0.364008,5.52323,11.4389,-0.304126,-0.46852,-0.172106,0
2024-11-29 18:13:34.280,-0.20339,5.39402,11.5517,-0.343831,-0.521664,-0.187377,0
2024-11-29 18:13:34.281,-0.0382852,5.25254,11.7,-0.343831,-0.521664,-0.187377,0
2024-11-29 18:13:34.284,0.133998,5.09462,11.8914,-0.381092,-0.572975,-0.205092,0
2024-11-29 18:13:34.287,0.318545,4.92951,12.0975,-0.453783,-0.662769,-0.244186,0
2024-11-29 18:13:34.288,0.498006,4.7665,12.3129,-0.453783,-0.662769,-0.244186,0
2024-11-29 18:13:34.291,0.677468,4.61815,12.5354,-0.483715,-0.700031,-0.263122,0
2024-11-29 18:13:34.293,0.857229,4.44826,12.775,-0.511814,-0.726297,-0.283891,0
2024-11-29 18:13:34.295,1.01755,4.29512,13.0382,-0.534415,-0.746455,-0.305271,0
2024-11-29 18:13:34.297,1.17308,4.17996,13.3208,-0.55213,-0.758672,-0.330316,0
2024-11-29 18:13:34.301,1.2999,4.08186,13.5888,-0.566179,-0.763559,-0.353528,0
2024-11-29 18:13:34.302,1.3669,3.99093,13.8117,-0.574731,-0.764781,-0.378573,0
2024-11-29 18:13:34.305,1.40279,3.89282,14.0079,-0.579618,-0.755007,-0.403617,0
2024-11-29 18:13:34.308,1.40279,3.79472,14.2232,-0.574731,-0.721411,-0.447598,0
2024-11-29 18:13:34.310,1.35733,3.68704,14.458,-0.564346,-0.695144,-0.464702,0
2024-11-29 18:13:34.313,1.28794,3.56949,14.6327,-0.564346,-0.695144,-0.464702,0
2024-11-29 18:13:34.314,1.22333,3.44507,14.7476,-0.546632,-0.661548,-0.479362,1
2024-11-29 18:13:34.317,1.17787,3.30868,14.8433,-0.526474,-0.621232,-0.490358,0
2024-11-29 18:13:34.319,1.13958,3.134,14.9034,-0.506316,-0.582748,-0.500742,0
2024-11-29 18:13:34.321,1.08694,2.9327,14.9393,-0.478828,-0.541822,-0.509294,0
2024-11-29 18:13:34.324,1.02473,2.73171,14.9297,-0.425684,-0.464855,-0.520289,0
2024-11-29 18:13:34.326,0.964906,2.51845,14.889,-0.425684,-0.464855,-0.520289,0
2024-11-29 18:13:34.328,0.921835,2.29352,14.86,-0.395753,-0.427593,-0.523343,0
2024-11-29 18:13:34.330,0.88355,2.08295,14.8098,-0.36521,-0.393386,-0.525176,0
2024-11-29 18:13:34.333,0.794716,1.92473,14.7189,-0.333446,-0.354902,-0.521511,0
2024-11-29 18:13:34.336,0.663111,1.83141,14.5825,-0.276637,-0.271216,-0.50624,0
2024-11-29 18:13:34.338,0.605683,1.69502,14.5226,-0.276637,-0.271216,-0.50624,0
2024-11-29 18:13:34.340,0.593719,1.51555,14.5681,-0.243652,-0.233955,-0.494634,0
2024-11-29 18:13:34.343,0.52672,1.36211,14.5633,-0.208223,-0.202801,-0.483027,0
2024-11-29 18:13:34.345,0.438186,1.22094,14.4844,-0.208223,-0.202801,-0.483027,0
2024-11-29 18:13:34.348,0.349651,1.10848,14.4006,-0.0860531,-0.0830752,-0.432327,0
2024-11-29 18:13:34.350,0.260818,1.00558,14.3432,-0.0860531,-0.0830752,-0.432327,0
2024-11-29 18:13:34.353,0.181855,0.905085,14.2807,-0.0371853,-0.0372617,-0.41278,0
2024-11-29 18:13:34.354,0.0885344,0.830609,14.1873,0.00923906,0.0164929,-0.39079,0
2024-11-29 18:13:34.356,-0.026321,0.785145,14.0916,0.0599394,0.0714691,-0.366966,0
2024-11-29 18:13:34.359,-0.119641,0.754038,13.9983,0.111861,0.1295,-0.342533,0
2024-11-29 18:13:34.361,-0.205783,0.718146,13.8691,0.166227,0.188752,-0.315655,0
2024-11-29 18:13:34.366,-0.349651,0.629611,13.4524,0.274958,0.316419,-0.26129,0
2024-11-29 18:13:34.367,-0.349651,0.629611,13.4524,0.274958,0.316419,-0.26129,0
2024-11-29 18:13:34.369,-0.421436,0.576969,13.2227,0.37758,0.446529,-0.204481,0
2024-11-29 18:13:34.371,-0.486042,0.538684,12.976,0.37758,0.446529,-0.204481,0
2024-11-29 18:13:34.374,-0.548256,0.514756,12.7128,0.42828,0.513723,-0.175771,0
2024-11-29 18:13:34.375,-0.596112,0.514756,12.4277,0.474094,0.579083,-0.150116,0
2024-11-29 18:13:34.378,-0.639183,0.521934,12.1214,0.518075,0.644444,-0.122017,0
2024-11-29 18:13:34.380,-0.679861,0.512363,11.7933,0.559612,0.707972,-0.0963612,0
2024-11-29 18:13:34.383,-0.703789,0.519542,11.4604,0.599317,0.772111,-0.0682622,0
2024-11-29 18:13:34.385,-0.715753,0.517149,11.1278,0.633525,0.831974,-0.0401632,0
2024-11-29 18:13:34.388,-0.739681,0.483649,10.7782,0.692166,0.940094,0.0117588,0
2024-11-29 18:13:34.390,-0.761217,0.4669,10.4192,0.714157,0.985297,0.0368035,0
2024-11-29 18:13:34.392,-0.758824,0.440578,10.0696,0.714157,0.985297,0.0368035,0
2024-11-29 18:13:34.395,-0.74686,0.41665,9.73191,0.733093,1.02683,0.0594049,0
2024-11-29 18:13:34.396,-0.734896,0.411865,9.39213,0.747143,1.06165,0.0813954,0
2024-11-29 18:13:34.400,-0.720539,0.3999,9.04965,0.759359,1.10563,0.123544,0
2024-11-29 18:13:34.402,-0.694218,0.378365,8.73141,0.761192,1.1148,0.141869,0
2024-11-29 18:13:34.404,-0.651147,0.354437,8.4344,0.761192,1.1148,0.141869,0
2024-11-29 18:13:34.409,-0.574577,0.361615,7.89332,0.736758,1.08975,0.190126,0
2024-11-29 18:13:34.409,-0.574577,0.361615,7.89332,0.736758,1.08975,0.190126,0
2024-11-29 18:13:34.410,-0.524327,0.364008,7.64447,0.736758,1.08975,0.190126,0
2024-11-29 18:13:34.414,-0.469292,0.383151,7.41925,0.721487,1.06349,0.202954,0
2024-11-29 18:13:34.416,-0.395115,0.397508,7.235,0.701329,1.03416,0.216393,0
2024-11-29 18:13:34.419,-0.299402,0.411865,7.07468,0.657959,0.9517,0.231664,0
2024-11-29 18:13:34.420,-0.205783,0.440578,6.95235,0.657959,0.9517,0.231664,0
2024-11-29 18:13:34.423,-0.112463,0.4669,6.86381,0.635357,0.902832,0.237772,0
2024-11-29 18:13:34.426,0.0,0.490828,6.79442,0.612145,0.853354,0.246324,0
2024-11-29 18:13:34.427,0.117248,0.517149,6.76331,0.588933,0.797767,0.247546,0
2024-11-29 18:13:34.429,0.236889,0.538684,6.75853,0.564499,0.738514,0.245102,0
2024-11-29 18:13:34.432,0.352044,0.56022,6.75853,0.544952,0.680484,0.241437,0
2024-11-29 18:13:34.435,0.474078,0.576969,6.78006,0.524183,0.620621,0.238383,0
2024-11-29 18:13:34.437,0.60329,0.60329,6.81835,0.506469,0.560147,0.232275,0
2024-11-29 18:13:34.439,0.710967,0.632004,6.87099,0.491808,0.502116,0.223112,0
2024-11-29 18:13:34.442,0.821037,0.643968,6.94277,0.46432,0.389721,0.200511,0
2024-11-29 18:13:34.444,0.931406,0.658325,7.0026,0.46432,0.389721,0.200511,0
2024-11-29 18:13:34.447,1.01994,0.679861,7.0675,0.445995,0.284655,0.166914,0
2024-11-29 18:13:34.449,1.10848,0.691825,7.13929,0.445995,0.284655,0.166914,0
2024-11-29 18:13:34.450,1.19462,0.71336,7.22303,0.438054,0.235176,0.151032,0
2024-11-29 18:13:34.454,1.28076,0.727717,7.2996,0.438054,0.235176,0.151032,0
2024-11-29 18:13:34.458,1.42463,0.761217,7.41446,0.432556,0.116061,0.0899473,0
2024-11-29 18:13:34.458,1.42463,0.761217,7.41446,0.432556,0.116061,0.0899473,0
2024-11-29 18:13:34.461,1.47727,0.780359,7.46232,0.42828,0.0849078,0.0673459,0
2024-11-29 18:13:34.463,1.52273,0.80668,7.49103,0.429502,0.0561979,0.0441337,0
2024-11-29 18:13:34.466,1.55623,0.813859,7.48624,0.427669,0.0354291,0.0196998,0
2024-11-29 18:13:34.468,1.5682,0.816252,7.46471,0.427059,0.0177146,-0.00534491,0
2024-11-29 18:13:34.470,1.57777,0.811466,7.44078,0.425226,0.00305424,-0.0297788,0
2024-11-29 18:13:34.472,1.57298,0.811466,7.4001,0.417896,-0.00733017,-0.0548235,0
2024-11-29 18:13:34.475,1.54666,0.818644,7.34985,0.413009,-0.0183254,-0.08109,0
2024-11-29 18:13:34.477,1.51316,0.813859,7.30439,0.413009,-0.0183254,-0.08109,0
2024-11-29 18:13:34.480,1.46291,0.816252,7.24696,0.391629,-0.0299315,-0.130569,0
2024-11-29 18:13:34.481,1.40548,0.811466,7.17278,0.376969,-0.03604,-0.155002,0
2024-11-29 18:13:34.483,1.33579,0.792323,7.101,0.360476,-0.0384834,-0.176382,0
2024-11-29 18:13:34.487,1.25922,0.787538,7.01725,0.340318,-0.0384834,-0.198373,0
2024-11-29 18:13:34.489,1.1659,0.787538,6.94517,0.292061,-0.0390942,-0.23258,0
2024-11-29 18:13:34.492,1.07498,0.770788,6.90928,0.266406,-0.0378725,-0.249073,0
2024-11-29 18:13:34.494,0.988834,0.74686,6.87578,0.266406,-0.0378725,-0.249073,0
2024-11-29 18:13:34.495,0.9003,0.720539,6.86381,0.238307,-0.0397051,-0.26129,0
2024-11-29 18:13:34.499,0.825823,0.689432,6.87099,0.207764,-0.0415376,-0.273507,0
2024-11-29 18:13:34.500,0.770788,0.663111,6.88295,0.176611,-0.0452027,-0.28328,0
2024-11-29 18:13:34.502,0.715753,0.643968,6.89731,0.147901,-0.0476461,-0.291832,0
2024-11-29 18:13:34.505,0.65354,0.608076,6.93081,0.115526,-0.0494786,-0.29733,0
2024-11-29 18:13:34.507,0.596112,0.576969,6.97627,0.0843733,-0.0525329,-0.302217,0
2024-11-29 18:13:34.509,0.548256,0.569791,7.04118,0.057496,-0.0555871,-0.305882,0
2024-11-29 18:13:34.512,0.517149,0.56022,7.14646,0.0251211,-0.0592522,-0.308325,0
2024-11-29 18:13:34.515,0.476471,0.545863,7.24696,-0.0316877,-0.0659715,-0.309547,0
2024-11-29 18:13:34.517,0.438186,0.541077,7.35943,-0.0316877,-0.0659715,-0.309547,0
2024-11-29 18:13:34.520,0.409472,0.54347,7.47907,-0.0567324,-0.067804,-0.307714,0
2024-11-29 18:13:34.522,0.392722,0.54347,7.59422,-0.0836097,-0.0696366,-0.307103,0
2024-11-29 18:13:34.524,0.378365,0.562612,7.72583,-0.103157,-0.0726908,-0.303438,0
2024-11-29 18:13:34.526,0.366401,0.581755,7.86461,-0.122093,-0.0726908,-0.298552,0
2024-11-29 18:13:34.528,0.361615,0.596112,7.98425,-0.139808,-0.07208,-0.296108,0
2024-11-29 18:13:34.531,0.366401,0.62004,8.10389,-0.153246,-0.0726908,-0.291832,0
2024-11-29 18:13:34.533,0.35683,0.639183,8.22862,-0.168517,-0.0769668,-0.288167,0
2024-11-29 18:13:34.536,0.337687,0.651147,8.35783,-0.178291,-0.0787993,-0.284502,0
2024-11-29 18:13:34.539,0.335294,0.663111,8.5014,-0.185621,-0.0794101,-0.278394,0
2024-11-29 18:13:34.541,0.34008,0.675075,8.64497,-0.197227,-0.080021,-0.263733,0
2024-11-29 18:13:34.542,0.337687,0.691825,8.7673,-0.197227,-0.080021,-0.263733,0
2024-11-29 18:13:34.546,0.335294,0.732503,8.88934,-0.197227,-0.0781884,-0.256403,0
2024-11-29 18:13:34.547,0.328116,0.773181,8.99701,-0.194173,-0.0733017,-0.248462,0
2024-11-29 18:13:34.550,0.304188,0.799502,9.08555,-0.19173,-0.0684149,-0.242964,0
2024-11-29 18:13:34.553,0.30658,0.835394,9.19562,-0.1844,-0.0604739,-0.236856,0
2024-11-29 18:13:34.554,0.301795,0.871586,9.28684,-0.180124,-0.0525329,-0.230137,0
2024-11-29 18:13:34.557,0.275175,0.9003,9.35863,-0.169128,-0.0427593,-0.224639,0
2024-11-29 18:13:34.559,0.263211,0.940978,9.42084,-0.157522,-0.0323749,-0.217309,0
2024-11-29 18:13:34.561,0.260818,0.969691,9.46631,-0.142251,-0.020158,-0.208146,0
2024-11-29 18:13:34.564,0.251246,0.99362,9.49263,-0.131256,-0.0109953,-0.200816,0
2024-11-29 18:13:34.566,0.236889,1.04626,9.52134,-0.117206,0.00244339,-0.192264,0
2024-11-29 18:13:34.568,0.215354,1.07976,9.53091,-0.101935,0.0183254,-0.182491,0
2024-11-29 18:13:34.571,0.198604,1.08694,9.51655,-0.0891073,0.0335966,-0.173939,0
2024-11-29 18:13:34.573,0.193819,1.0989,9.49023,-0.0738362,0.0507003,-0.164165,0
2024-11-29 18:13:34.575,0.177069,1.12283,9.45195,-0.0610084,0.064139,-0.15317,0
2024-11-29 18:13:34.578,0.157926,1.14437,9.40648,-0.0475697,0.080021,-0.143396,0
2024-11-29 18:13:34.580,0.148355,1.15872,9.34906,-0.0359636,0.0946813,-0.134234,0
2024-11-29 18:13:34.582,0.143569,1.18265,9.28684,-0.0243575,0.106287,-0.123238,0
2024-11-29 18:13:34.585,0.129212,1.20897,9.19801,-0.0164165,0.117283,-0.112854,0
2024-11-29 18:13:34.587,0.129212,1.22094,9.09751,-0.00908635,0.126445,-0.103691,0
2024-11-29 18:13:34.589,0.133998,1.24008,8.98505,-0.00419957,0.133776,-0.0933069,0
2024-11-29 18:13:34.593,0.122034,1.26162,8.8678,-0.00236703,0.143549,-0.08109,0
2024-11-29 18:13:34.595,0.122034,1.27119,8.78166,-0.00358873,0.156377,-0.0639862,0
2024-11-29 18:13:34.598,0.133998,1.29272,8.68325,-0.00664296,0.161875,-0.0548235,0
2024-11-29 18:13:34.600,0.150748,1.32622,8.55883,-0.00664296,0.161875,-0.0548235,0
2024-11-29 18:13:34.602,0.167498,1.34536,8.45594,-0.0133623,0.164318,-0.0481042,0
2024-11-29 18:13:34.605,0.184247,1.37169,8.36501,-0.022525,0.167372,-0.0432174,0
2024-11-29 18:13:34.607,0.193819,1.41745,8.28365,-0.0341311,0.171648,-0.0358873,0
2024-11-29 18:13:34.608,0.191426,1.45573,8.22144,-0.042683,0.175313,-0.0297788,0
2024-11-29 18:13:34.612,0.196211,1.49641,8.16401,-0.0542891,0.175313,-0.0224486,0
2024-11-29 18:13:34.613,0.200997,1.5323,8.12303,-0.0640626,0.178978,-0.0218378,0
2024-11-29 18:13:34.615,0.217747,1.5682,8.08236,-0.0762796,0.183254,-0.0181727,0
2024-11-29 18:13:34.618,0.227318,1.6017,8.05604,-0.086664,0.184476,-0.0163402,0
2024-11-29 18:13:34.621,0.222533,1.63998,8.03929,-0.0976592,0.184476,-0.0132859,0
2024-11-29 18:13:34.622,0.227318,1.67348,8.00339,-0.106211,0.185698,-0.0108425,0
2024-11-29 18:13:34.625,0.236889,1.69023,7.97707,-0.117206,0.186308,-0.0108425,0
2024-11-29 18:13:34.628,0.246461,1.71177,7.96272,-0.127591,0.181422,-0.0138968,0
2024-11-29 18:13:34.631,0.229711,1.73569,7.94118,-0.14836,0.177757,-0.0145076,0
2024-11-29 18:13:34.633,0.205783,1.77398,7.92204,-0.158744,0.174702,-0.0151185,0
2024-11-29 18:13:34.634,0.18664,1.80987,7.90289,-0.158744,0.174702,-0.0151185,0
2024-11-29 18:13:34.637,0.157926,1.83141,7.88854,-0.169128,0.171037,-0.0151185,0
2024-11-29 18:13:34.640,0.124427,1.86012,7.87418,-0.175237,0.16615,-0.0145076,0
2024-11-29 18:13:34.642,0.0981057,1.90319,7.86461,-0.190508,0.154544,-0.0120642,0
2024-11-29 18:13:34.645,0.0717847,1.94865,7.87897,-0.190508,0.154544,-0.0120642,0
2024-11-29 18:13:34.646,0.0478565,1.98006,7.90289,-0.19906,0.146603,-0.0114534,0
2024-11-29 18:13:34.649,0.0191426,1.99442,7.91725,-0.202725,0.139273,-0.00901,0
2024-11-29 18:13:34.651,-0.0119641,2.01595,7.93161,-0.208833,0.132554,-0.00534491,0
2024-11-29 18:13:34.653,-0.0215354,2.04227,7.95314,-0.21372,0.122169,-0.00595576,0
2024-11-29 18:13:34.659,-0.0957129,2.1332,8.00818,-0.217385,0.103844,0.0025961,0
2024-11-29 18:13:34.659,-0.0957129,2.1332,8.00818,-0.217385,0.103844,0.0025961,0
2024-11-29 18:13:34.660,-0.131605,2.16909,8.04407,-0.216774,0.0952922,0.00809373,0
2024-11-29 18:13:34.663,-0.16989,2.21456,8.07757,-0.22105,0.0891837,0.011148,0
2024-11-29 18:13:34.666,-0.198604,2.26002,8.11586,-0.211277,0.0794101,0.0203107,0
2024-11-29 18:13:34.668,-0.208176,2.31984,8.14726,-0.207001,0.0726908,0.0264191,0
2024-11-29 18:13:34.671,-0.232104,2.37488,8.17598,-0.207001,0.0726908,0.0264191,0
2024-11-29 18:13:34.673,-0.253639,2.40838,8.20469,-0.201503,0.0708583,0.0325276,0
2024-11-29 18:13:34.674,-0.267996,2.4323,8.21665,-0.19173,0.0671932,0.0355819,0
2024-11-29 18:13:34.678,-0.27996,2.4658,8.21187,-0.17768,0.0610847,0.0447446,0
2024-11-29 18:13:34.680,-0.285045,2.49691,8.21665,-0.17768,0.0610847,0.0447446,0
2024-11-29 18:13:34.681,-0.272782,2.50648,8.21187,-0.17035,0.0574196,0.0484096,0
2024-11-29 18:13:34.684,-0.272782,2.5331,8.19273,-0.163631,0.0543654,0.0520747,0
2024-11-29 18:13:34.687,-0.275175,2.56899,8.18076,-0.147749,0.0507003,0.0600157,0
2024-11-29 18:13:34.689,-0.275175,2.59532,8.16162,-0.147749,0.0507003,0.0600157,0
2024-11-29 18:13:34.692,-0.285045,2.62164,8.14726,-0.138586,0.0494786,0.0642917,0
2024-11-29 18:13:34.693,-0.275175,2.64556,8.13769,-0.133088,0.0525329,0.0697893,0
2024-11-29 18:13:34.695,-0.267996,2.66231,8.12064,-0.125147,0.0537546,0.0734544,0
2024-11-29 18:13:34.699,-0.263211,2.68864,8.09432,-0.117817,0.0531437,0.0752869,0
2024-11-29 18:13:34.700,-0.248854,2.70778,8.07279,-0.115985,0.0555871,0.0795629,0
2024-11-29 18:13:34.703,-0.232104,2.71017,8.04407,-0.109876,0.0580305,0.0813954,0
2024-11-29 18:13:34.706,-0.217747,2.71496,8.01297,-0.106822,0.0561979,0.0832279,0
2024-11-29 18:13:34.708,-0.210568,2.72931,7.98904,-0.102546,0.0574196,0.0844496,0
2024-11-29 18:13:34.710,-0.20339,2.75324,7.96511,-0.100713,0.0586413,0.0844496,0
2024-11-29 18:13:34.713,-0.200997,2.77717,7.94836,-0.0988809,0.0623064,0.0856713,0
2024-11-29 18:13:34.715,-0.193819,2.81067,7.95075,-0.094605,0.0616956,0.0875039,0
2024-11-29 18:13:34.717,-0.18664,2.85135,7.95793,-0.0921616,0.0653607,0.0881147,0
2024-11-29 18:13:34.720,-0.198604,2.88485,7.9675,-0.0921616,0.0635281,0.0893364,0
2024-11-29 18:13:34.721,-0.20339,2.91595,7.97947,-0.0878856,0.0629173,0.091169,0
2024-11-29 18:13:34.725,-0.196211,2.93749,7.99621,-0.0781121,0.0690257,0.0936123,0
2024-11-29 18:13:34.726,-0.196211,2.95185,8.02014,-0.0781121,0.0690257,0.0936123,0
2024-11-29 18:13:34.728,-0.191426,2.98056,8.0345,-0.0713928,0.0739125,0.0954449,0
2024-11-29 18:13:34.731,-0.181855,3.01884,8.05125,-0.0658951,0.0787993,0.0960557,0
2024-11-29 18:13:34.733,-0.177069,3.04038,8.05843,-0.0622301,0.0836861,0.0972774,0
2024-11-29 18:13:34.736,-0.189033,3.07867,8.04646,-0.0530674,0.0928488,0.0984991,0
2024-11-29 18:13:34.739,-0.210568,3.13161,8.04407,-0.0481806,0.10079,0.0997208,0
2024-11-29 18:13:34.741,-0.234497,3.16989,8.05843,-0.0329094,0.119726,0.103997,0
2024-11-29 18:13:34.743,-0.253639,3.21775,8.04886,-0.0329094,0.119726,0.103997,0
2024-11-29 18:13:34.745,-0.282652,3.268,8.02493,-0.0255792,0.128278,0.10644,0
2024-11-29 18:13:34.747,-0.30658,3.30868,8.02732,-0.0194708,0.137441,0.108273,0
2024-11-29 18:13:34.750,-0.32333,3.34218,8.01057,-0.0127514,0.14416,0.110716,0
2024-11-29 18:13:34.752,-0.354437,3.38285,7.98425,-0.00664296,0.150268,0.112549,0
2024-11-29 18:13:34.754,-0.383151,3.4331,7.96511,-0.00297788,0.153323,0.114992,0
2024-11-29 18:13:34.757,-0.421436,3.47617,7.95075,0.00129805,0.157599,0.116825,0
2024-11-29 18:13:34.760,-0.438186,3.51207,7.94836,0.00923906,0.160653,0.123544,0
2024-11-29 18:13:34.762,-0.438186,3.54317,7.934,0.00923906,0.160653,0.123544,0
2024-11-29 18:13:34.764,-0.457328,3.59821,7.93161,0.0147367,0.156988,0.125987,0
2024-11-29 18:13:34.767,-0.481256,3.64606,7.95075,0.0177909,0.152101,0.129652,0
2024-11-29 18:13:34.768,-0.498006,3.67986,7.94836,0.0190126,0.142938,0.131485,0
2024-11-29 18:13:34.771,-0.505185,3.71575,7.95793,0.0208452,0.134997,0.134539,0
2024-11-29 18:13:34.774,-0.512363,3.77079,7.98664,0.0263428,0.112396,0.14248,0
2024-11-29 18:13:34.777,-0.524327,3.82104,8.01775,0.0263428,0.0983464,0.141869,0
2024-11-29 18:13:34.779,-0.541077,3.8665,8.04168,0.0263428,0.0983464,0.141869,0
2024-11-29 18:13:34.781,-0.56022,3.9335,8.07039,0.0263428,0.0702474,0.149199,0
2024-11-29 18:13:34.784,-0.588933,3.99332,8.09193,0.0263428,0.0702474,0.149199,0
2024-11-29 18:13:34.786,-0.62004,4.05314,8.10629,0.0269536,0.0555871,0.150421,0
2024-11-29 18:13:34.788,-0.629611,4.11536,8.15923,0.0263428,0.0384834,0.151643,0
2024-11-29 18:13:34.791,-0.632004,4.17518,8.23101,0.0238994,0.020158,0.154697,0
2024-11-29 18:13:34.792,-0.627219,4.22812,8.29322,0.0220669,0.00427593,0.158973,0
2024-11-29 18:13:34.795,-0.632004,4.2999,8.35544,0.0208452,-0.0128278,0.162638,0
2024-11-29 18:13:34.797,-0.646361,4.36451,8.39612,0.0177909,-0.028099,0.165081,0
2024-11-29 18:13:34.799,-0.641576,4.40279,8.43201,0.0122933,-0.0409268,0.167525,0
2024-11-29 18:13:34.801,-0.632004,4.44347,8.4679,0.00618483,-0.051922,0.17119,0
2024-11-29 18:13:34.805,-0.586541,4.46979,8.50619,-0.00847551,-0.0684149,0.17852,0
2024-11-29 18:13:34.807,-0.541077,4.47458,8.53011,-0.00847551,-0.0684149,0.17852,0
2024-11-29 18:13:34.810,-0.505185,4.47697,8.53729,-0.0292443,-0.0775776,0.185239,0
2024-11-29 18:13:34.811,-0.471685,4.49133,8.57797,-0.0292443,-0.0775776,0.185239,0
2024-11-29 18:13:34.813,-0.445364,4.52004,8.6354,-0.0432938,-0.0806318,0.188294,0
2024-11-29 18:13:34.817,-0.3999,4.54636,8.71945,-0.0695602,-0.0885729,0.199289,0
2024-11-29 18:13:34.819,-0.354437,4.57747,8.83191,-0.0695602,-0.0885729,0.199289,0
2024-11-29 18:13:34.821,-0.304188,4.61336,8.95394,-0.0952158,-0.0922379,0.206008,0
2024-11-29 18:13:34.824,-0.241675,4.64208,9.0688,-0.1056,-0.0916271,0.210284,0
2024-11-29 18:13:34.826,-0.189033,4.666,9.19083,-0.117206,-0.0922379,0.21456,0
2024-11-29 18:13:34.827,-0.138784,4.70429,9.3347,-0.117206,-0.0922379,0.21456,0
2024-11-29 18:13:34.830,-0.0885344,4.73779,9.47827,-0.12698,-0.0928488,0.21456,0
2024-11-29 18:13:34.833,-0.0215354,4.75454,9.62663,-0.135532,-0.0940705,0.213949,0
2024-11-29 18:13:34.835,0.0646062,4.78834,9.77498,-0.141029,-0.0965139,0.213949,0
2024-11-29 18:13:34.838,0.122034,4.82902,9.9356,-0.145305,-0.0989573,0.210284,0
2024-11-29 18:13:34.840,0.189033,4.8673,10.1127,-0.145305,-0.0989573,0.210284,0
2024-11-29 18:13:34.842,0.258425,4.91994,10.273,-0.144084,-0.0983464,0.204787,0
2024-11-29 18:13:34.844,0.294616,4.9678,10.424,-0.139197,-0.0983464,0.198067,0
2024-11-29 18:13:34.847,0.325723,5.01566,10.5844,-0.136143,-0.0965139,0.191959,0
2024-11-29 18:13:34.849,0.347258,5.07069,10.7375,-0.128812,-0.0946813,0.184629,0
2024-11-29 18:13:34.852,0.347258,5.12573,10.8835,-0.120261,-0.0934596,0.176077,0
2024-11-29 18:13:34.853,0.354437,5.16401,11.0393,-0.108654,-0.0940705,0.167525,0
2024-11-29 18:13:34.857,0.361615,5.19272,11.1924,-0.0970484,-0.095903,0.160195,0
2024-11-29 18:13:34.859,0.361615,5.21905,11.3169,-0.0848314,-0.0977356,0.14981,0
2024-11-29 18:13:34.861,0.352044,5.23819,11.4365,-0.0707819,-0.0995681,0.140648,0
2024-11-29 18:13:34.864,0.342473,5.24297,11.554,-0.0530674,-0.103233,0.130874,0
2024-11-29 18:13:34.865,0.330509,5.25494,11.6234,-0.0371853,-0.106898,0.122322,0
2024-11-29 18:13:34.867,0.311366,5.27647,11.6904,-0.0176382,-0.109342,0.111938,0
2024-11-29 18:13:34.871,0.294616,5.27408,11.7766,-0.00297788,-0.113007,0.104608,0
2024-11-29 18:13:34.872,0.277567,5.27408,11.8436,0.0141258,-0.117894,0.0954449,0
2024-11-29 18:13:34.874,0.256032,5.26451,11.889,0.029397,-0.123391,0.086893,0
2024-11-29 18:13:34.877,0.222533,5.26451,11.9297,0.0471116,-0.125835,0.0801737,0
2024-11-29 18:13:34.879,0.184247,5.25254,11.9632,0.0617719,-0.13011,0.0752869,0
2024-11-29 18:13:34.883,0.155533,5.22622,11.9967,0.0764323,-0.131943,0.0697893,0
2024-11-29 18:13:34.884,0.136391,5.20708,12.0374,0.0874275,-0.131943,0.0661242,0
2024-11-29 18:13:34.886,0.107677,5.1664,12.0664,0.0996445,-0.131332,0.06307,0
2024-11-29 18:13:34.889,0.0885344,5.13769,12.0879,0.111251,-0.133776,0.0600157,0
2024-11-29 18:13:34.891,0.0789631,5.11855,12.0999,0.121024,-0.133165,0.0624591,0
2024-11-29 18:13:34.894,0.0693919,5.07548,12.1238,0.131409,-0.13011,0.0636808,0
2024-11-29 18:13:34.896,0.081356,5.04198,12.1621,0.138739,-0.125835,0.0642917,0
2024-11-29 18:13:34.899,0.0933201,5.01326,12.1789,0.14668,-0.121559,0.0673459,0
2024-11-29 18:13:34.900,0.0933201,4.97498,12.198,0.150345,-0.113618,0.0704001,0
2024-11-29 18:13:34.904,0.0885344,4.97019,12.2267,0.154621,-0.104455,0.0765086,0
2024-11-29 18:13:34.906,0.0909273,4.95105,12.253,0.166838,-0.0757451,0.0893364,0
2024-11-29 18:13:34.908,0.0861416,4.91994,12.2818,0.166838,-0.0757451,0.0893364,0
2024-11-29 18:13:34.911,0.100499,4.91516,12.3009,0.171114,-0.0574196,0.0954449,0
2024-11-29 18:13:34.913,0.148355,4.9008,12.3344,0.176,-0.0384834,0.103997,0
2024-11-29 18:13:34.915,0.177069,4.89123,12.3727,0.180276,-0.0189363,0.110716,0
2024-11-29 18:13:34.917,0.196211,4.88405,12.3727,0.185163,0.00366508,0.118657,0
2024-11-29 18:13:34.919,0.22014,4.86969,12.3655,0.189439,0.0299315,0.127209,0
2024-11-29 18:13:34.922,0.244068,4.88884,12.3679,0.194937,0.0555871,0.131485,0
2024-11-29 18:13:34.925,0.270389,4.89601,12.3535,0.197991,0.080021,0.138815,0
2024-11-29 18:13:34.927,0.297009,4.88644,12.3224,0.204099,0.134386,0.151032,0
2024-11-29 18:13:34.929,0.313759,4.87926,12.2937,0.204099,0.134386,0.151032,0
2024-11-29 18:13:34.932,0.325723,4.86969,12.2674,0.209597,0.185087,0.160806,0
2024-11-29 18:13:34.934,0.352044,4.8673,12.2243,0.209597,0.185087,0.160806,0
2024-11-29 18:13:34.937,0.385544,4.86491,12.1693,0.210819,0.208299,0.164471,0
2024-11-29 18:13:34.938,0.404686,4.88166,12.1143,0.209597,0.229068,0.168747,0
2024-11-29 18:13:34.940,0.419043,4.88405,12.0664,0.207154,0.246782,0.169968,0
2024-11-29 18:13:34.944,0.421436,4.88644,12.0374,0.207154,0.262664,0.171801,0
2024-11-29 18:13:34.945,0.428614,4.89123,11.9967,0.205321,0.277936,0.170579,0
2024-11-29 18:13:34.949,0.45015,4.88644,11.9417,0.201045,0.290152,0.170579,0
2024-11-29 18:13:34.950,0.462114,4.9008,11.9034,0.202267,0.30298,0.168747,0
2024-11-29 18:13:34.952,0.459721,4.89601,11.8675,0.200434,0.312754,0.165692,0
2024-11-29 18:13:34.955,0.471685,4.88644,11.846,0.197991,0.320695,0.162027,0
2024-11-29 18:13:34.957,0.483649,4.89123,11.8316,0.199213,0.328025,0.160195,0
2024-11-29 18:13:34.959,0.474078,4.88405,11.8173,0.19738,0.335355,0.15714,0
2024-11-29 18:13:34.963,0.474078,4.87448,11.8029,0.198602,0.343296,0.153475,0
2024-11-29 18:13:34.964,0.481256,4.85294,11.7838,0.199213,0.347572,0.149199,0
2024-11-29 18:13:34.967,0.483649,4.83859,11.7503,0.202878,0.35307,0.144924,0
2024-11-29 18:13:34.969,0.464507,4.82662,11.7191,0.205932,0.359178,0.138815,0
2024-11-29 18:13:34.971,0.45015,4.81466,11.6952,0.21143,0.365898,0.132707,0
2024-11-29 18:13:34.973,0.442971,4.80269,11.6689,0.216927,0.372617,0.125987,0
2024-11-29 18:13:34.977,0.404686,4.78116,11.6426,0.23342,0.387888,0.112549,0
2024-11-29 18:13:34.978,0.35683,4.76172,11.6043,0.23342,0.387888,0.112549,0
2024-11-29 18:13:34.981,0.297009,4.75215,11.5564,0.241361,0.395218,0.107662,0
2024-11-29 18:13:34.983,0.212961,4.74975,11.4963,0.251745,0.401937,0.102164,0
2024-11-29 18:13:34.986,0.114855,4.73779,11.4054,0.263962,0.412322,0.0966666,0
2024-11-29 18:13:34.989,0.0143569,4.72822,11.2834,0.281066,0.429426,0.091169,0
2024-11-29 18:13:34.991,-0.0861416,4.733,11.147,0.288396,0.434923,0.0887256,0
2024-11-29 18:13:34.992,-0.196211,4.73779,10.9819,0.288396,0.434923,0.0887256,0
2024-11-29 18:13:34.996,-0.316152,4.74257,10.7949,0.292061,0.435534,0.0850605,0
2024-11-29 18:13:34.998,-0.442971,4.74257,10.6226,0.284731,0.416598,0.0844496,0
2024-11-29 18:13:34.999,-0.576969,4.72822,10.4599,0.284731,0.416598,0.0844496,0
2024-11-29 18:13:35.003,-0.694218,4.71147,10.2993,0.274958,0.394607,0.0856713,0
2024-11-29 18:13:35.005,-0.787538,4.67558,10.139,0.260297,0.362843,0.0899473,0
2024-11-29 18:13:35.007,-0.869193,4.65165,9.97149,0.239528,0.32436,0.0917798,0
2024-11-29 18:13:35.010,-0.921835,4.63011,9.84467,0.21204,0.277325,0.0930015,0
2024-11-29 18:13:35.012,-0.948156,4.58226,9.77977,0.183941,0.221127,0.0942232,0
2024-11-29 18:13:35.013,-0.962513,4.52483,9.78216,0.153399,0.153934,0.0923906,0
2024-11-29 18:13:35.017,-0.933799,4.47219,9.85903,0.0862058,-0.00794101,0.0838388,0
2024-11-29 18:13:35.019,-0.85005,4.41954,9.9691,0.0862058,-0.00794101,0.0838388,0
2024-11-29 18:13:35.021,-0.74686,4.37169,10.1175,0.049555,-0.106898,0.0740652,0
2024-11-29 18:13:35.023,-0.610469,4.30947,10.3448,0.0184018,-0.217462,0.058794,0
2024-11-29 18:13:35.026,-0.4334,4.19193,10.649,-0.0115297,-0.332912,0.0416903,0
2024-11-29 18:13:35.029,-0.239282,4.06271,10.9627,-0.0414613,-0.45447,0.0209215,0
2024-11-29 18:13:35.031,-0.0382852,3.92872,11.2953,-0.0671168,-0.57664,-0.00167983,0
2024-11-29 18:13:35.032,0.148355,3.77797,11.6976,-0.090329,-0.693922,-0.0261137,0
2024-11-29 18:13:35.036,0.316152,3.63889,12.1071,-0.104379,-0.803264,-0.0511585,0
2024-11-29 18:13:35.037,0.445364,3.51207,12.4971,-0.116595,-0.902832,-0.076814,0
2024-11-29 18:13:35.039,0.574577,3.37328,12.8587,-0.120261,-0.993238,-0.101248,0
2024-11-29 18:13:35.043,0.737288,3.22014,13.1554,-0.128202,-1.15817,-0.151948,0
2024-11-29 18:13:35.045,0.88355,3.07627,13.5003,-0.128202,-1.15817,-0.151948,0
2024-11-29 18:13:35.046,0.996012,2.94227,13.9289,-0.125147,-1.24063,-0.180658,0
2024-11-29 18:13:35.049,1.07976,2.82024,14.3504,-0.118428,-1.31699,-0.206314,0
2024-11-29 18:13:35.051,1.11565,2.75085,14.7069,-0.108654,-1.3867,-0.228304,0
2024-11-29 18:13:35.054,1.16112,2.67428,15.0518,-0.090329,-1.43923,-0.24724,0
2024-11-29 18:13:35.056,1.18265,2.59771,15.3365,-0.0628409,-1.46794,-0.266177,0
2024-11-29 18:13:35.059,1.24008,2.50648,15.6526,-0.0322986,-1.47711,-0.278394,0
2024-11-29 18:13:35.061,1.39322,2.37488,16.0861,0.00618483,-1.47405,-0.288778,0
2024-11-29 18:13:35.064,1.4988,2.23131,16.4282,0.106364,-1.43618,-0.314434,0
2024-11-29 18:13:35.065,1.57298,2.05663,16.663,0.106364,-1.43618,-0.314434,0
2024-11-29 18:13:35.068,1.66152,1.87208,16.8377,0.161951,-1.39831,-0.324818,1
2024-11-29 18:13:35.071,1.75962,1.67348,16.9358,0.22609,-1.34699,-0.335813,0
2024-11-29 18:13:35.075,1.84576,1.44855,16.9454,0.362309,-1.20031,-0.353528,0
2024-11-29 18:13:35.075,1.91994,1.21615,16.9454,0.362309,-1.20031,-0.353528,0
2024-11-29 18:13:35.078,1.95344,1.0008,16.8425,0.434389,-1.10258,-0.360247,0
2024-11-29 18:13:35.080,1.94148,0.787538,16.6534,0.504025,-0.996903,-0.364523,0
2024-11-29 18:13:35.082,1.91755,0.591326,16.3708,0.575494,-0.879009,-0.365134,0
2024-11-29 18:13:35.085,1.84576,0.419043,15.9975,0.64452,-0.752564,-0.361469,0
2024-11-29 18:13:35.087,1.72134,0.251246,15.5498,0.705605,-0.622453,-0.352917,0
2024-11-29 18:13:35.089,1.58255,0.129212,15.0685,0.75997,-0.487456,-0.341922,0
2024-11-29 18:13:35.092,1.42463,0.0502493,14.5657,0.844878,-0.219905,-0.302828,0
2024-11-29 18:13:35.095,1.23529,0.0,14.0246,0.874199,-0.0885729,-0.274118,0
2024-11-29 18:13:35.097,1.02712,-0.0167498,13.4572,0.896189,0.0427593,-0.243575,0
2024-11-29 18:13:35.099,0.818644,-0.00957129,12.9162,0.913904,0.168594,-0.21059,0
2024-11-29 18:13:35.102,0.639183,0.0311067,12.3416,0.913904,0.168594,-0.21059,0
2024-11-29 18:13:35.103,0.483649,0.0909273,11.7383,0.917569,0.282211,-0.175771,0
2024-11-29 18:13:35.105,0.251246,0.198604,11.1302,0.915736,0.384223,-0.141564,0
2024-11-29 18:13:35.108,-0.0430708,0.361615,10.4623,0.901076,0.478293,-0.104913,0
2024-11-29 18:13:35.110,-0.162712,0.493221,9.89492,0.876642,0.558314,-0.0664296,0
2024-11-29 18:13:35.112,-0.179462,0.581755,9.43041,0.841213,0.617567,-0.029168,0
2024-11-29 18:13:35.115,-0.239282,0.667897,8.94437,0.799065,0.656661,0.0025961,0
2024-11-29 18:13:35.117,-0.253639,0.71336,8.47269,0.748364,0.680484,0.0306951,0
2024-11-29 18:13:35.119,-0.22014,0.732503,8.04646,0.689112,0.69209,0.0557398,0
2024-11-29 18:13:35.122,-0.153141,0.761217,7.65643,0.626806,0.696366,0.0758978,0
2024-11-29 18:13:35.125,-0.0574277,0.777966,7.33789,0.555947,0.690257,0.0862822,0
2024-11-29 18:13:35.128,0.040678,0.804287,7.09143,0.485089,0.678651,0.0893364,0
2024-11-29 18:13:35.129,0.124427,0.859622,6.8662,0.411177,0.663991,0.0887256,0
2024-11-29 18:13:35.132,0.210568,0.912264,6.69631,0.33421,0.645666,0.0832279,0
2024-11-29 18:13:35.135,0.294616,0.998405,6.60299,0.259076,0.623064,0.0728435,0
2024-11-29 18:13:35.137,0.347258,1.0989,6.55274,0.11797,0.56992,0.0392469,0
2024-11-29 18:13:35.139,0.3999,1.18505,6.54317,0.0513875,0.538767,0.0184781,0
2024-11-29 18:13:35.142,0.45015,1.27358,6.55514,0.0513875,0.538767,0.0184781,0
2024-11-29 18:13:35.143,0.474078,1.35494,6.58624,-0.0115297,0.506392,-0.00473407,0
2024-11-29 18:13:35.146,0.493221,1.43181,6.65085,-0.0720036,0.474628,-0.0303897,0
2024-11-29 18:13:35.149,0.519542,1.48205,6.73939,-0.177069,0.406824,-0.0829225,0
2024-11-29 18:13:35.151,0.56022,1.5012,6.84706,-0.219218,0.373839,-0.112854,0
2024-11-29 18:13:35.153,0.593719,1.51316,6.97149,-0.219218,0.373839,-0.112854,0
2024-11-29 18:13:35.155,0.605683,1.50838,7.09382,-0.260145,0.336577,-0.146451,0
2024-11-29 18:13:35.157,0.600898,1.48445,7.22303,-0.260145,0.336577,-0.146451,0
2024-11-29 18:13:35.160,0.586541,1.46052,7.3666,-0.318175,0.261443,-0.214866,0
2024-11-29 18:13:35.162,0.550648,1.4342,7.51257,-0.341998,0.224792,-0.248462,0
2024-11-29 18:13:35.165,0.505185,1.40279,7.65883,-0.358491,0.18753,-0.281448,0
2024-11-29 18:13:35.167,0.445364,1.36451,7.78804,-0.368875,0.150879,-0.312601,0
2024-11-29 18:13:35.169,0.34008,1.32861,7.91247,-0.375595,0.116061,-0.342533,0
2024-11-29 18:13:35.171,0.205783,1.28554,8.02014,-0.381703,0.0787993,-0.370021,0
2024-11-29 18:13:35.174,0.0598206,1.22572,8.10389,-0.37926,0.0415376,-0.392622,0
2024-11-29 18:13:35.177,-0.0909273,1.17547,8.17598,-0.376816,0.00549763,-0.411558,0
2024-11-29 18:13:35.178,-0.260818,1.12283,8.25015,-0.37254,-0.0268773,-0.428051,0
2024-11-29 18:13:35.182,-0.428614,1.06062,8.29801,-0.363989,-0.0616956,-0.435992,0
2024-11-29 18:13:35.184,-0.584148,0.996012,8.33869,-0.347496,-0.127667,-0.44149,0
2024-11-29 18:13:35.185,-0.727717,0.919442,8.36979,-0.347496,-0.127667,-0.44149,0
2024-11-29 18:13:35.188,-0.862014,0.833001,8.38894,-0.338333,-0.161264,-0.437825,0
2024-11-29 18:13:35.191,-0.986441,0.749253,8.43201,-0.329781,-0.193028,-0.429884,0
2024-11-29 18:13:35.192,-1.08694,0.687039,8.48944,-0.318786,-0.22357,-0.420721,0
2024-11-29 18:13:35.195,-1.18505,0.627219,8.54208,-0.308401,-0.252891,-0.406672,0
2024-11-29 18:13:35.198,-1.29272,0.572184,8.56601,-0.296795,-0.279157,-0.392622,0
2024-11-29 18:13:35.200,-1.39083,0.548256,8.58036,-0.284578,-0.302369,-0.373686,0
2024-11-29 18:13:35.202,-1.47488,0.536291,8.59472,-0.272972,-0.318862,-0.352306,0
2024-11-29 18:13:35.205,-1.56341,0.507577,8.60908,-0.264421,-0.333523,-0.331537,0
2024-11-29 18:13:35.208,-1.6352,0.495613,8.62343,-0.243041,-0.356735,-0.281448,0
2024-11-29 18:13:35.209,-1.70459,0.529113,8.66172,-0.243041,-0.356735,-0.281448,0
2024-11-29 18:13:35.211,-1.78116,0.56022,8.70987,-0.231435,-0.365898,-0.253349,0
2024-11-29 18:13:35.215,-1.83619,0.576969,8.75534,-0.22044,-0.370173,-0.22525,0
2024-11-29 18:13:35.216,-1.88405,0.596112,8.77687,-0.211277,-0.373228,-0.195929,0
2024-11-29 18:13:35.218,-1.91516,0.610469,8.79602,-0.202725,-0.376282,-0.162944,0
2024-11-29 18:13:35.222,-1.92233,0.60329,8.81755,-0.191119,-0.374449,-0.133012,0
2024-11-29 18:13:35.223,-1.92233,0.584148,8.82712,-0.183178,-0.373228,-0.104913,0
2024-11-29 18:13:35.225,-1.91994,0.572184,8.82712,-0.172793,-0.368952,-0.073149,0
2024-11-29 18:13:35.228,-1.92473,0.567398,8.83669,-0.164242,-0.361011,-0.0438283,0
2024-11-29 18:13:35.230,-1.93191,0.569791,8.84866,-0.158133,-0.351848,-0.0157293,0
2024-11-29 18:13:35.233,-1.91276,0.593719,8.85823,-0.14897,-0.340242,0.0123697,0
2024-11-29 18:13:35.235,-1.89362,0.605683,8.87498,-0.142251,-0.327414,0.0416903,0
2024-11-29 18:13:35.238,-1.89362,0.605683,8.88216,-0.136753,-0.299926,0.0960557,0
2024-11-29 18:13:35.241,-1.87448,0.622433,8.87737,-0.136753,-0.299926,0.0960557,0
2024-11-29 18:13:35.243,-1.84098,0.646361,8.86541,-0.130645,-0.268162,0.152865,0
2024-11-29 18:13:35.244,-1.81944,0.667897,8.88455,-0.130645,-0.268162,0.152865,0
2024-11-29 18:13:35.248,-1.79312,0.677468,8.89891,-0.125147,-0.233344,0.205397,0
2024-11-29 18:13:35.249,-1.75723,0.696611,8.88694,-0.125147,-0.233344,0.205397,0
2024-11-29 18:13:35.252,-1.72134,0.718146,8.88694,-0.124536,-0.211964,0.232275,0
2024-11-29 18:13:35.255,-1.67587,0.74686,8.89412,-0.122093,-0.171037,0.281753,0
2024-11-29 18:13:35.256,-1.62802,0.758824,8.90609,-0.122093,-0.171037,0.281753,0
2024-11-29 18:13:35.259,-1.58495,0.770788,8.90848,-0.118428,-0.152101,0.303744,0
2024-11-29 18:13:35.261,-1.5347,0.811466,8.91326,-0.118428,-0.1295,0.328178,0
2024-11-29 18:13:35.263,-1.47966,0.842872,8.93001,-0.115985,-0.109342,0.348336,0
2024-11-29 18:13:35.266,-1.43181,0.885943,8.94437,-0.115374,-0.0891837,0.369715,0
2024-11-29 18:13:35.270,-1.32861,0.972084,8.94916,-0.110487,-0.0488678,0.406366,0
2024-11-29 18:13:35.271,-1.32861,0.972084,8.94916,-0.110487,-0.0488678,0.406366,0
2024-11-29 18:13:35.273,-1.26401,1.01276,8.95155,-0.109265,-0.0287098,0.425302,0
2024-11-29 18:13:35.275,-1.21137,1.05823,8.95155,-0.106822,-0.00610847,0.439963,0
2024-11-29 18:13:35.277,-1.14437,1.1013,8.93001,-0.102546,0.0122169,0.456456,0
2024-11-29 18:13:35.280,-1.08694,1.14676,8.91326,-0.100103,0.0342074,0.469894,0
2024-11-29 18:13:35.282,-1.02951,1.19462,8.92284,-0.0958267,0.0537546,0.482111,0
2024-11-29 18:13:35.285,-0.96012,1.24008,8.90848,-0.0927724,0.0708583,0.493106,0
2024-11-29 18:13:35.288,-0.885943,1.29512,8.87737,-0.0891073,0.0855186,0.502269,0
2024-11-29 18:13:35.290,-0.821037,1.34776,8.86062,-0.0829989,0.109953,0.518151,0
2024-11-29 18:13:35.292,-0.761217,1.38126,8.83191,-0.0829989,0.109953,0.518151,0
2024-11-29 18:13:35.295,-0.687039,1.42463,8.77927,-0.0793338,0.118504,0.523649,0
2024-11-29 18:13:35.297,-0.624826,1.46291,8.71466,-0.0775012,0.132554,0.526092,0
2024-11-29 18:13:35.298,-0.579362,1.49402,8.64736,-0.0775012,0.132554,0.526092,0
2024-11-29 18:13:35.302,-0.529113,1.52752,8.57797,-0.0781121,0.139273,0.52426,0
2024-11-29 18:13:35.304,-0.495613,1.5682,8.50619,-0.0799446,0.142938,0.522427,0
2024-11-29 18:13:35.307,-0.476471,1.61845,8.45115,-0.0848314,0.149047,0.515708,0
2024-11-29 18:13:35.308,-0.447757,1.67348,8.41526,-0.0848314,0.149047,0.515708,0
2024-11-29 18:13:35.310,-0.426222,1.71416,8.39612,-0.0891073,0.147214,0.512654,0
2024-11-29 18:13:35.316,-0.426222,1.74766,8.3674,-0.0970484,0.138662,0.499826,0
2024-11-29 18:13:35.316,-0.419043,1.77637,8.3674,-0.0970484,0.138662,0.499826,0
2024-11-29 18:13:35.318,-0.397508,1.80509,8.35065,-0.101324,0.133776,0.494939,0
2024-11-29 18:13:35.321,-0.368794,1.83619,8.34347,-0.101935,0.124002,0.490663,0
2024-11-29 18:13:35.322,-0.352044,1.86969,8.35065,-0.106211,0.113007,0.483944,0
2024-11-29 18:13:35.325,-0.320937,1.89362,8.34347,-0.104989,0.0995681,0.476003,0
2024-11-29 18:13:35.327,-0.299402,1.90798,8.35065,-0.107433,0.0885729,0.46684,0
2024-11-29 18:13:35.329,-0.292223,1.91994,8.34347,-0.109265,0.0733017,0.458288,0
2024-11-29 18:13:35.331,-0.275175,1.92233,8.3339,-0.11232,0.0592522,0.450347,0
2024-11-29 18:13:35.334,-0.270389,1.94626,8.35783,-0.111098,0.0464244,0.438741,0
2024-11-29 18:13:35.337,-0.260818,1.9681,8.3674,-0.115374,0.0195471,0.419805,0
2024-11-29 18:13:35.339,-0.246461,1.98724,8.37937,-0.115374,0.0195471,0.419805,0
2024-11-29 18:13:35.341,-0.236889,2.0016,8.4009,-0.117817,0.00855186,0.40881,0
2024-11-29 18:13:35.344,-0.227318,2.00399,8.42722,-0.117206,-0.0122169,0.391706,0
2024-11-29 18:13:35.347,-0.236889,2.01835,8.45354,-0.120261,-0.023823,0.381932,0
2024-11-29 18:13:35.348,-0.239282,2.02074,8.48465,-0.120261,-0.023823,0.381932,0
2024-11-29 18:13:35.351,-0.244068,2.01356,8.52293,-0.11965,-0.0329858,0.37338,0
2024-11-29 18:13:35.353,-0.251246,2.01835,8.55643,-0.120871,-0.0415376,0.36605,0
2024-11-29 18:13:35.355,-0.251246,2.0327,8.6019,-0.11965,-0.0500895,0.361163,0
2024-11-29 18:13:35.357,-0.241675,2.0351,8.64018,-0.118428,-0.0549763,0.352612,0
2024-11-29 18:13:35.360,-0.229711,2.0351,8.68086,-0.115985,-0.0635281,0.347725,0
2024-11-29 18:13:35.365,-0.251246,2.04227,8.74098,-0.110487,-0.0726908,0.334286,0
2024-11-29 18:13:35.365,-0.251246,2.04227,8.74098,-0.110487,-0.0726908,0.334286,0
2024-11-29 18:13:35.367,-0.258425,2.03031,8.77209,-0.1056,-0.0757451,0.328789,0
2024-11-29 18:13:35.369,-0.265603,2.03031,8.79602,-0.104379,-0.0787993,0.323902,0
2024-11-29 18:13:35.372,-0.256032,2.0327,8.82712,-0.0976592,-0.0824644,0.318404,0
2024-11-29 18:13:35.374,-0.239282,2.03031,8.84866,-0.0952158,-0.0885729,0.314128,0
2024-11-29 18:13:35.376,-0.224925,2.00877,8.85823,-0.0939941,-0.0940705,0.309852,0
2024-11-29 18:13:35.380,-0.208176,1.98485,8.88455,-0.090329,-0.100179,0.304355,0
2024-11-29 18:13:35.382,-0.181855,1.98245,8.91326,-0.0848314,-0.114228,0.294581,0
2024-11-29 18:13:35.384,-0.167498,1.98724,8.93959,-0.0848314,-0.114228,0.294581,0
2024-11-29 18:13:35.386,-0.145962,1.99681,8.96591,-0.0829989,-0.120948,0.289694,0
2024-11-29 18:13:35.388,-0.117248,2.00399,8.98983,-0.0781121,-0.126445,0.285418,0
2024-11-29 18:13:35.391,-0.0981057,2.01117,9.02573,-0.0762796,-0.13011,0.281753,0
2024-11-29 18:13:35.394,-0.0789631,2.02313,9.06162,-0.0732253,-0.135608,0.278699,0
2024-11-29 18:13:35.396,-0.0622134,2.01835,9.08555,-0.0695602,-0.138051,0.273812,0
2024-11-29 18:13:35.397,-0.0430708,2.03031,9.12383,-0.0658951,-0.139884,0.269536,0
2024-11-29 18:13:35.400,-0.00957129,2.04945,9.14776,-0.0603975,-0.139884,0.26526,0
2024-11-29 18:13:35.402,0.0119641,2.05902,9.16212,-0.0603975,-0.139884,0.26526,0
2024-11-29 18:13:35.404,0.0287139,2.0686,9.19322,-0.0542891,-0.134386,0.259152,0
2024-11-29 18:13:35.408,0.066999,2.07338,9.20997,-0.042683,-0.13011,0.253654,0
2024-11-29 18:13:35.409,0.100499,2.08774,9.21955,-0.0371853,-0.124613,0.248768,0
2024-11-29 18:13:35.413,0.133998,2.11406,9.21955,-0.0255792,-0.111785,0.236551,0
2024-11-29 18:13:35.414,0.167498,2.13081,9.2028,-0.0255792,-0.111785,0.236551,0
2024-11-29 18:13:35.416,0.191426,2.13799,9.18126,-0.0200816,-0.101401,0.231053,0
2024-11-29 18:13:35.420,0.215354,2.14995,9.16212,-0.0115297,-0.0763559,0.219447,0
2024-11-29 18:13:35.421,0.263211,2.15474,9.12144,-0.0115297,-0.0763559,0.219447,0
2024-11-29 18:13:35.424,0.30658,2.17149,9.08315,-0.0115297,-0.0763559,0.219447,0
2024-11-29 18:13:35.426,0.337687,2.18345,9.04487,-0.00358873,-0.0452027,0.204787,0
2024-11-29 18:13:35.429,0.366401,2.19541,8.99701,-0.00236703,-0.0122169,0.19257,0
2024-11-29 18:13:35.430,0.385544,2.22413,8.9348,-0.00236703,-0.0122169,0.19257,0
2024-11-29 18:13:35.434,0.438186,2.24806,8.87019,-0.00297788,0.00671932,0.185239,0
2024-11-29 18:13:35.436,0.498006,2.24806,8.82952,-0.00481042,0.0470352,0.169968,0
2024-11-29 18:13:35.437,0.529113,2.24806,8.79362,-0.00481042,0.0470352,0.169968,0
2024-11-29 18:13:35.441,0.567398,2.25763,8.7362,-0.0096972,0.0665824,0.16386,0
2024-11-29 18:13:35.443,0.608076,2.26959,8.66172,-0.0176382,0.107509,0.147978,0
2024-11-29 18:13:35.445,0.643968,2.28395,8.60429,-0.0176382,0.107509,0.147978,0
2024-11-29 18:13:35.447,0.675075,2.29113,8.57079,-0.0249684,0.128889,0.138204,0
2024-11-29 18:13:35.450,0.701396,2.3007,8.52293,-0.0341311,0.170426,0.123544,0
2024-11-29 18:13:35.453,0.732503,2.32463,8.46551,-0.0341311,0.170426,0.123544,0
2024-11-29 18:13:35.455,0.761217,2.35813,8.42483,-0.0487914,0.215629,0.107662,0
2024-11-29 18:13:35.457,0.801895,2.37727,8.38415,-0.0487914,0.215629,0.107662,0
2024-11-29 18:13:35.459,0.828216,2.40598,8.34347,-0.0530674,0.239452,0.0984991,0
2024-11-29 18:13:35.461,0.854836,2.43948,8.30758,-0.0597867,0.263886,0.0905581,0
2024-11-29 18:13:35.463,0.8668,2.45863,8.27887,-0.0646735,0.287098,0.0832279,0
2024-11-29 18:13:35.467,0.864407,2.48973,8.23819,-0.0720036,0.332912,0.0661242,0
2024-11-29 18:13:35.468,0.862014,2.52323,8.18076,-0.0720036,0.332912,0.0661242,0
2024-11-29 18:13:35.471,0.862014,2.56182,8.13769,-0.0756687,0.354902,0.0581832,0
2024-11-29 18:13:35.474,0.857229,2.59292,8.10629,-0.0793338,0.377504,0.0502422,0
2024-11-29 18:13:35.475,0.852443,2.62881,8.05604,-0.0811663,0.397662,0.0423012,0
2024-11-29 18:13:35.478,0.852443,2.67189,7.98664,-0.0842206,0.415987,0.034971,0
2024-11-29 18:13:35.481,0.842872,2.70778,7.9005,-0.0915507,0.434312,0.0276408,0
2024-11-29 18:13:35.483,0.825823,2.74846,7.81915,-0.0952158,0.450194,0.0184781,0
2024-11-29 18:13:35.485,0.80668,2.76999,7.76411,-0.0988809,0.463022,0.00931542,0
2024-11-29 18:13:35.489,0.787538,2.81306,7.71865,-0.111098,0.485013,-0.00717746,0
2024-11-29 18:13:35.489,0.766002,2.87288,7.66361,-0.111098,0.485013,-0.00717746,0
2024-11-29 18:13:35.493,0.756431,2.91835,7.61097,-0.123315,0.496008,-0.0212269,0
2024-11-29 18:13:35.495,0.751645,2.94227,7.56042,-0.130034,0.499062,-0.0285571,0
2024-11-29 18:13:35.496,0.754038,2.9662,7.50539,-0.130034,0.499062,-0.0285571,0
2024-11-29 18:13:35.499,0.766002,2.9997,7.45035,-0.136143,0.503338,-0.0358873,0
2024-11-29 18:13:35.502,0.773181,3.04756,7.4025,-0.145305,0.500895,-0.0401632,0
2024-11-29 18:13:35.504,0.773181,3.10768,7.37617,-0.155079,0.498451,-0.0481042,0
2024-11-29 18:13:35.507,0.766002,3.15553,7.36182,-0.164242,0.491732,-0.0554344,0
2024-11-29 18:13:35.508,0.756431,3.19861,7.35225,-0.174015,0.481348,-0.0615429,0
2024-11-29 18:13:35.510,0.74686,3.26082,7.35703,-0.185621,0.469742,-0.0700947,0
2024-11-29 18:13:35.513,0.744467,3.33021,7.37617,-0.192951,0.45447,-0.0786466,0
2024-11-29 18:13:35.515,0.744467,3.39242,7.4025,-0.200892,0.437367,-0.0884201,0
2024-11-29 18:13:35.519,0.737288,3.4355,7.45035,-0.218607,0.398883,-0.10308,0
2024-11-29 18:13:35.521,0.734896,3.47617,7.49821,-0.218607,0.398883,-0.10308,0
2024-11-29 18:13:35.525,0.689432,3.57189,7.61336,-0.226548,0.351848,-0.122017,0
2024-11-29 18:13:35.526,0.689432,3.57189,7.61336,-0.226548,0.351848,-0.122017,0
2024-11-29 18:13:35.527,0.639183,3.61496,7.68036,-0.228991,0.329247,-0.127514,0
2024-11-29 18:13:35.530,0.586541,3.67986,7.75215,-0.229602,0.30298,-0.136677,0
2024-11-29 18:13:35.532,0.550648,3.73011,7.84068,-0.228991,0.275492,-0.146451,0
2024-11-29 18:13:35.534,0.505185,3.77318,7.94357,-0.227159,0.246782,-0.155613,0
2024-11-29 18:13:35.537,0.459721,3.81865,8.04646,-0.222272,0.21624,-0.161111,0
2024-11-29 18:13:35.540,0.423829,3.85693,8.15205,-0.216774,0.186308,-0.16783,0
2024-11-29 18:13:35.541,0.390329,3.90718,8.24537,-0.205779,0.155766,-0.17455,0
2024-11-29 18:13:35.544,0.354437,3.95264,8.31715,-0.197227,0.124002,-0.179436,0
2024-11-29 18:13:35.547,0.330509,3.97657,8.39612,-0.186843,0.0928488,-0.184934,0
2024-11-29 18:13:35.549,0.301795,3.99093,8.49183,-0.174626,0.059863,-0.191653,0
2024-11-29 18:13:35.551,0.270389,4.00289,8.55643,-0.163631,0.0262664,-0.197151,0
2024-11-29 18:13:35.554,0.251246,4.02443,8.61865,-0.136753,-0.0390942,-0.206314,0
2024-11-29 18:13:35.556,0.212961,4.05554,8.68325,-0.12698,-0.0696366,-0.211811,0
2024-11-29 18:13:35.558,0.160319,4.08903,8.74816,-0.12698,-0.0696366,-0.211811,0
2024-11-29 18:13:35.561,0.11007,4.11775,8.81277,-0.101935,-0.125224,-0.214866,0
2024-11-29 18:13:35.563,0.0550349,4.16321,8.88216,-0.101935,-0.125224,-0.214866,0
2024-11-29 18:13:35.566,-0.00717847,4.20897,8.95155,-0.0787229,-0.174091,-0.21059,0
2024-11-29 18:13:35.567,-0.0693919,4.24487,9.02812,-0.0787229,-0.174091,-0.21059,0
2024-11-29 18:13:35.570,-0.12682,4.28076,9.10469,-0.066506,-0.191806,-0.206314,0
2024-11-29 18:13:35.572,-0.191426,4.32862,9.16451,-0.0573433,-0.208299,-0.200816,0
2024-11-29 18:13:35.575,-0.253639,4.37169,9.23151,-0.0432938,-0.225403,-0.191042,0
2024-11-29 18:13:35.576,-0.320937,4.41954,9.29163,-0.0329094,-0.237009,-0.183101,0
2024-11-29 18:13:35.579,-0.395115,4.46979,9.34188,-0.0206925,-0.246171,-0.169663,0
2024-11-29 18:13:35.581,-0.447757,4.51047,9.37777,-0.00908635,-0.253502,-0.158668,0
2024-11-29 18:13:35.584,-0.471685,4.56311,9.41127,0.00129805,-0.263275,-0.145229,0
2024-11-29 18:13:35.587,-0.493221,4.60618,9.45913,0.0104608,-0.270605,-0.134845,0
2024-11-29 18:13:35.589,-0.531506,4.65404,9.48545,0.0171801,-0.277936,-0.123849,0
2024-11-29 18:13:35.592,-0.581755,4.70668,9.52134,0.0232886,-0.285266,-0.112243,0
2024-11-29 18:13:35.594,-0.622433,4.75215,9.57398,0.0281753,-0.291374,-0.0988045,0
2024-11-29 18:13:35.595,-0.646361,4.82184,9.60509,0.0324513,-0.298704,-0.0835334,0
2024-11-29 18:13:35.599,-0.660718,4.88644,9.63141,0.0385597,-0.309089,-0.0639862,0
2024-11-29 18:13:35.601,-0.667897,4.92234,9.68884,0.0385597,-0.309089,-0.0639862,0
2024-11-29 18:13:35.603,-0.667897,4.9678,9.75344,0.0379489,-0.316419,-0.0517693,0
2024-11-29 18:13:35.606,-0.660718,5.01326,9.81326,0.0367272,-0.329247,-0.0316113,0
2024-11-29 18:13:35.607,-0.648754,5.05394,9.89492,0.0367272,-0.329247,-0.0316113,0
2024-11-29 18:13:35.609,-0.629611,5.09701,9.96431,0.0355055,-0.334133,-0.0242812,0
2024-11-29 18:13:35.613,-0.598505,5.13769,10.0241,0.0312296,-0.339631,-0.0163402,0
2024-11-29 18:13:35.615,-0.553041,5.17119,10.0887,0.029397,-0.346961,-0.0126751,0
2024-11-29 18:13:35.617,-0.50997,5.2023,10.1677,0.0245102,-0.352459,-0.00962084,0
2024-11-29 18:13:35.619,-0.478864,5.22862,10.2586,0.0202343,-0.354291,-0.00717746,0
2024-11-29 18:13:35.622,-0.435793,5.25254,10.3448,0.0122933,-0.361622,-0.00717746,0
2024-11-29 18:13:35.625,-0.390329,5.27408,10.448,-0.00236703,-0.370784,-0.00839915,0
2024-11-29 18:13:35.626,-0.354437,5.30758,10.5485,-0.00236703,-0.370784,-0.00839915,0
2024-11-29 18:13:35.629,-0.311366,5.35334,10.6442,-0.010308,-0.372617,-0.0132859,0
2024-11-29 18:13:35.632,-0.260818,5.37727,10.7614,-0.0237467,-0.368341,-0.0224486,0
2024-11-29 18:13:35.633,-0.227318,5.39402,10.8715,-0.0237467,-0.368341,-0.0224486,0
2024-11-29 18:13:35.636,-0.210568,5.42273,10.9962,-0.0322986,-0.363454,-0.029168,0
2024-11-29 18:13:35.639,-0.193819,5.45384,11.1541,-0.042683,-0.34574,-0.0401632,0
2024-11-29 18:13:35.641,-0.174676,5.47059,11.3073,-0.0457372,-0.335966,-0.0474934,0
2024-11-29 18:13:35.642,-0.179462,5.48016,11.4509,-0.0457372,-0.335966,-0.0474934,0
2024-11-29 18:13:35.646,-0.18664,5.49213,11.6139,-0.0475697,-0.322527,-0.0536018,0
2024-11-29 18:13:35.647,-0.189033,5.49452,11.7718,-0.0487914,-0.309089,-0.0603212,0
2024-11-29 18:13:35.649,-0.189033,5.49691,11.9106,-0.0457372,-0.293207,-0.0633754,0
2024-11-29 18:13:35.652,-0.198604,5.50409,12.047,-0.0439046,-0.275492,-0.0707056,0
2024-11-29 18:13:35.654,-0.222533,5.49691,12.1908,-0.0377962,-0.260221,-0.0749815,0
2024-11-29 18:13:35.657,-0.248854,5.48016,12.3153,-0.0292443,-0.243728,-0.0792574,0
2024-11-29 18:13:35.659,-0.27996,5.4682,12.4182,-0.0213033,-0.230289,-0.0817008,0
2024-11-29 18:13:35.661,-0.325723,5.45863,12.5187,-0.0121406,-0.218072,-0.0823117,0
2024-11-29 18:13:35.666,-0.411865,5.41556,12.7271,0.0122933,-0.193639,-0.0847551,0
2024-11-29 18:13:35.667,-0.411865,5.41556,12.7271,0.0122933,-0.193639,-0.0847551,0
2024-11-29 18:13:35.668,-0.481256,5.39641,12.8085,0.0275645,-0.183254,-0.0817008,0
2024-11-29 18:13:35.672,-0.555434,5.39641,12.8874,0.0446682,-0.171037,-0.0762032,0
2024-11-29 18:13:35.674,-0.62004,5.39641,12.9544,0.0782648,-0.149658,-0.0603212,0
2024-11-29 18:13:35.676,-0.682254,5.38924,13.0047,0.0782648,-0.149658,-0.0603212,0
2024-11-29 18:13:35.678,-0.739681,5.38206,13.0525,0.0972011,-0.141717,-0.0505476,0
2024-11-29 18:13:35.681,-0.777966,5.37966,13.1028,0.116137,-0.136219,-0.037109,0
2024-11-29 18:13:35.682,-0.821037,5.38206,13.1172,0.135074,-0.131332,-0.024892,0
2024-11-29 18:13:35.686,-0.857229,5.37009,13.11,0.171114,-0.126445,0.00198525,0
2024-11-29 18:13:35.688,-0.88355,5.36291,13.0932,0.171114,-0.126445,0.00198525,0
2024-11-29 18:13:35.691,-0.914656,5.37727,13.0884,0.202878,-0.125224,0.0276408,0
2024-11-29 18:13:35.692,-0.940978,5.38684,13.0693,0.202878,-0.125224,0.0276408,0
2024-11-29 18:13:35.695,-0.948156,5.39881,13.0334,0.221814,-0.125224,0.0386361,0
2024-11-29 18:13:35.698,-0.955334,5.42034,13.0143,0.23342,-0.124613,0.0514639,0
2024-11-29 18:13:35.700,-0.964906,5.45145,12.9784,0.258465,-0.125835,0.0722327,0
2024-11-29 18:13:35.702,-0.96012,5.4682,12.9329,0.258465,-0.125835,0.0722327,0
2024-11-29 18:13:35.705,-0.936192,5.48016,12.897,0.276179,-0.126445,0.0875039,0
2024-11-29 18:13:35.706,-0.897907,5.49213,12.8755,0.276179,-0.126445,0.0875039,0
2024-11-29 18:13:35.709,-0.859622,5.4993,12.842,0.28412,-0.127667,0.0930015,0
2024-11-29 18:13:35.711,-0.835394,5.49213,12.8061,0.289618,-0.1295,0.094834,0
2024-11-29 18:13:35.713,-0.799502,5.47777,12.7822,0.296337,-0.130721,0.0960557,0
2024-11-29 18:13:35.716,-0.742074,5.4682,12.763,0.302446,-0.133165,0.0966666,0
2024-11-29 18:13:35.719,-0.689432,5.46341,12.7606,0.307333,-0.136219,0.0936123,0
2024-11-29 18:13:35.720,-0.643968,5.44427,12.763,0.309165,-0.139884,0.0917798,0
2024-11-29 18:13:35.722,-0.598505,5.42273,12.7654,0.308554,-0.142327,0.0887256,0
2024-11-29 18:13:35.725,-0.553041,5.38206,12.7869,0.31283,-0.146603,0.0826171,0
2024-11-29 18:13:35.727,-0.514756,5.35095,12.8157,0.318328,-0.150879,0.0783412,0
2024-11-29 18:13:35.731,-0.483649,5.33181,12.8396,0.320771,-0.157599,0.0740652,0
2024-11-29 18:13:35.732,-0.438186,5.28365,12.8946,0.325658,-0.163096,0.0697893,0
2024-11-29 18:13:35.735,-0.392722,5.2358,12.9664,0.329323,-0.167983,0.0661242,0
2024-11-29 18:13:35.737,-0.354437,5.18794,13.0334,0.335431,-0.172259,0.0594049,0
2024-11-29 18:13:35.740,-0.330509,5.14248,13.0956,0.343373,-0.174091,0.055129,0
2024-11-29 18:13:35.741,-0.313759,5.11137,13.1602,0.351314,-0.174091,0.050853,0
2024-11-29 18:13:35.744,-0.299402,5.07548,13.206,0.362309,-0.17287,0.0459663,0
2024-11-29 18:13:35.746,-0.320937,5.03958,13.2323,0.375137,-0.168594,0.0416903,0
2024-11-29 18:13:35.749,-0.364008,5.01566,13.2491,0.382467,-0.164318,0.0416903,0
2024-11-29 18:13:35.752,-0.3999,5.00369,13.2562,0.404457,-0.149047,0.0447446,0
2024-11-29 18:13:35.754,-0.428614,4.98933,13.2395,0.416063,-0.145382,0.0477988,0
2024-11-29 18:13:35.756,-0.454935,4.97737,13.1892,0.416063,-0.145382,0.0477988,0
2024-11-29 18:13:35.758,-0.459721,4.95823,13.153,0.421561,-0.145992,0.0502422,0
2024-11-29 18:13:35.761,-0.4334,4.91276,13.1195,0.429502,-0.169205,0.0581832,0
2024-11-29 18:13:35.763,-0.397508,4.8673,13.0597,0.429502,-0.169205,0.0581832,0
2024-11-29 18:13:35.765,-0.320937,4.79791,12.9927,0.427059,-0.189974,0.0581832,0
2024-11-29 18:13:35.770,-0.0885344,4.61815,12.8707,0.419118,-0.244339,0.0526856,0
2024-11-29 18:13:35.771,-0.0885344,4.61815,12.8707,0.419118,-0.244339,0.0526856,0
2024-11-29 18:13:35.772,0.0693919,4.51286,12.8276,0.40629,-0.27427,0.0477988,0
2024-11-29 18:13:35.775,0.229711,4.42433,12.8013,0.391629,-0.306034,0.0398578,0
2024-11-29 18:13:35.777,0.378365,4.35015,12.8013,0.376358,-0.340242,0.0294734,0
2024-11-29 18:13:35.779,0.514756,4.28794,12.8587,0.358033,-0.372006,0.0160347,0
2024-11-29 18:13:35.781,0.641576,4.22572,12.9449,0.34154,-0.403159,0.00320695,0
2024-11-29 18:13:35.785,0.754038,4.168,13.0406,0.303667,-0.456914,-0.0242812,0
2024-11-29 18:13:35.787,0.852443,4.12971,13.1387,0.303667,-0.456914,-0.0242812,0
2024-11-29 18:13:35.789,0.957727,4.09861,13.2395,0.285342,-0.477072,-0.0389415,0
2024-11-29 18:13:35.792,1.08455,4.05554,13.34,0.268238,-0.4899,-0.0523802,0
2024-11-29 18:13:35.793,1.20897,4.00529,13.4453,0.252967,-0.500895,-0.0658188,0
2024-11-29 18:13:35.796,1.32383,3.95025,13.5314,0.236474,-0.508836,-0.0823117,0
2024-11-29 18:13:35.798,1.46291,3.89282,13.5984,0.218149,-0.511279,-0.101248,0
2024-11-29 18:13:35.801,1.61127,3.81625,13.675,0.203488,-0.51189,-0.119573,0
2024-11-29 18:13:35.803,1.74287,3.7325,13.7877,0.188217,-0.514944,-0.143396,0
2024-11-29 18:13:35.805,1.87448,3.65354,13.9217,0.176,-0.510668,-0.169052,1
